SpectraSuite Data File
++++++++++++++++++++++++++++++++++++
Date: Mon Jun 06 15:27:17 CEST 2016
User: root
Dark Spectrum Present: No
Reference Spectrum Present: No
Number of Sampled Component Spectra: 1
Spectrometers: USB4C02835
Integration Time (usec): 100000 (USB4C02835)
Spectra Averaged: 1 (USB4C02835)
Boxcar Smoothing: 0 (USB4C02835)
Correct for Electrical Dark: No (USB4C02835)
Strobe/Lamp Enabled: No (USB4C02835)
Correct for Detector Non-linearity: No (USB4C02835)
Correct for Stray Light: No (USB4C02835)
Number of Pixels in Processed Spectrum: 3648
>>>>>Begin Processed Spectral Data<<<<<
177.47	1499.11
177.69	1499.11
177.91	1499.11
178.13	1390.57
178.36	1521.64
178.58	1722.34
178.80	1746.92
179.02	1619.94
179.24	1632.23
179.46	1683.43
179.68	1732.58
179.90	1724.39
180.13	1734.63
180.35	1665.00
180.57	1712.10
180.79	1783.78
181.01	1658.85
181.23	1748.97
181.45	1779.68
181.67	1753.06
181.90	1724.39
182.12	1726.44
182.34	1636.33
182.56	1753.06
182.78	1691.62
183.00	1689.57
183.22	1757.16
183.44	1730.53
183.66	1822.69
183.89	1775.59
184.11	1722.34
184.33	1716.20
184.55	1775.59
184.77	1744.87
184.99	1804.26
185.21	1648.61
185.43	1763.30
185.65	1697.77
185.87	1671.14
186.10	1841.12
186.32	1837.03
186.54	1677.29
186.76	1714.15
186.98	1773.54
187.20	1740.77
187.42	1767.40
187.64	1697.77
187.86	1677.29
188.08	1771.49
188.30	1746.92
188.52	1740.77
188.75	1748.97
188.97	1748.97
189.19	1691.62
189.41	1738.73
189.63	1751.01
189.85	1718.25
190.07	1638.38
190.29	1619.94
190.51	1755.11
190.73	1624.04
190.95	1779.68
191.17	1681.38
191.39	1628.14
191.61	1736.68
191.84	1646.57
192.06	1779.68
192.28	1656.81
192.50	1865.70
192.72	1722.34
192.94	1671.14
193.16	1736.68
193.38	1755.11
193.60	1675.24
193.82	1681.38
194.04	1759.21
194.26	1677.29
194.48	1705.96
194.70	1640.42
194.92	1734.63
195.14	1800.16
195.36	1679.33
195.58	1705.96
195.80	1699.81
196.02	1693.67
196.24	1658.85
196.46	1722.34
196.69	1693.67
196.91	1843.17
197.13	1675.24
197.35	1722.34
197.57	1771.49
197.79	1718.25
198.01	1738.73
198.23	1759.21
198.45	1687.53
198.67	1679.33
198.89	1718.25
199.11	1712.10
199.33	1660.90
199.55	1603.56
199.77	1675.24
199.99	1736.68
200.21	1662.95
200.43	1763.30
200.65	1656.81
200.87	1619.94
201.09	1693.67
201.31	1751.01
201.53	1697.77
201.75	1665.00
201.97	1679.33
202.19	1740.77
202.41	1705.96
202.63	1837.03
202.85	1828.84
203.07	1798.12
203.29	1673.19
203.51	1656.81
203.73	1683.43
203.95	1945.57
204.17	1802.21
204.39	1728.49
204.61	1669.09
204.83	1716.20
205.05	1734.63
205.27	1812.45
205.49	1812.45
205.71	1761.25
205.93	1617.90
206.15	1710.05
206.37	1751.01
206.59	1681.38
206.81	1683.43
207.03	1644.52
207.25	1667.05
207.47	1781.73
207.69	1703.91
207.91	1806.31
208.13	1773.54
208.34	1681.38
208.56	1640.42
208.78	1728.49
209.00	1652.71
209.22	1662.95
209.44	1767.40
209.66	1720.29
209.88	1744.87
210.10	1726.44
210.32	1677.29
210.54	1798.12
210.76	1728.49
210.98	1841.12
211.20	1640.42
211.42	1726.44
211.64	1832.93
211.86	1761.25
212.08	1730.53
212.30	1675.24
212.52	1808.36
212.74	1712.10
212.96	1646.57
213.17	1789.92
213.39	1734.63
213.61	1808.36
213.83	1769.44
214.05	1650.66
214.27	1720.29
214.49	1705.96
214.71	1609.70
214.93	1861.60
215.15	1730.53
215.37	1746.92
215.59	1687.53
215.81	1669.09
216.03	1802.21
216.24	1722.34
216.46	1665.00
216.68	1748.97
216.90	1681.38
217.12	1857.51
217.34	1755.11
217.56	1759.21
217.78	1755.11
218.00	1761.25
218.22	1648.61
218.44	1699.81
218.66	1736.68
218.87	1843.17
219.09	1699.81
219.31	1726.44
219.53	1761.25
219.75	1697.77
219.97	1658.85
220.19	1701.86
220.41	1648.61
220.63	1753.06
220.85	1714.15
221.06	1728.49
221.28	1796.07
221.50	1701.86
221.72	1722.34
221.94	1662.95
222.16	1726.44
222.38	1775.59
222.60	1724.39
222.82	1673.19
223.03	1767.40
223.25	1677.29
223.47	1738.73
223.69	1796.07
223.91	1744.87
224.13	1769.44
224.35	1628.14
224.57	1800.16
224.78	1722.34
225.00	1675.24
225.22	1748.97
225.44	1705.96
225.66	1671.14
225.88	1683.43
226.10	1742.82
226.32	1662.95
226.53	1777.64
226.75	1787.88
226.97	1736.68
227.19	1691.62
227.41	1701.86
227.63	1708.01
227.85	1628.14
228.06	1802.21
228.28	1738.73
228.50	1777.64
228.72	1722.34
228.94	1718.25
229.16	1595.37
229.37	1595.37
229.59	1708.01
229.81	1783.78
230.03	1728.49
230.25	1765.35
230.47	1630.18
230.69	1593.32
230.90	1769.44
231.12	1669.09
231.34	1744.87
231.56	1761.25
231.78	1626.09
232.00	1705.96
232.21	1658.85
232.43	1658.85
232.65	1656.81
232.87	1753.06
233.09	1667.05
233.30	1644.52
233.52	1708.01
233.74	1712.10
233.96	1679.33
234.18	1748.97
234.40	1679.33
234.61	1824.74
234.83	1628.14
235.05	1632.23
235.27	1832.93
235.49	1697.77
235.70	1714.15
235.92	1779.68
236.14	1703.91
236.36	1882.08
236.58	1675.24
236.79	1787.88
237.01	1671.14
237.23	1697.77
237.45	1857.51
237.67	1689.57
237.88	1767.40
238.10	1798.12
238.32	1701.86
238.54	1693.67
238.76	1673.19
238.97	1665.00
239.19	1712.10
239.41	1779.68
239.63	1726.44
239.85	1667.05
240.06	1722.34
240.28	1689.57
240.50	1761.25
240.72	1716.20
240.93	1695.72
241.15	1783.78
241.37	1701.86
241.59	1808.36
241.81	1662.95
242.02	1710.05
242.24	1785.83
242.46	1734.63
242.68	1624.04
242.89	1787.88
243.11	1685.48
243.33	1665.00
243.55	1746.92
243.76	1728.49
243.98	1675.24
244.20	1697.77
244.42	1689.57
244.64	1722.34
244.85	1634.28
245.07	1708.01
245.29	1783.78
245.51	1626.09
245.72	1728.49
245.94	1783.78
246.16	1736.68
246.38	1798.12
246.59	1675.24
246.81	1701.86
247.03	1697.77
247.24	1574.89
247.46	1675.24
247.68	1718.25
247.90	1740.77
248.11	1714.15
248.33	1724.39
248.55	1675.24
248.77	1701.86
248.98	1800.16
249.20	1787.88
249.42	1724.39
249.64	1714.15
249.85	1789.92
250.07	1671.14
250.29	1744.87
250.50	1759.21
250.72	1611.75
250.94	1679.33
251.16	1828.84
251.37	1804.26
251.59	1708.01
251.81	1748.97
252.02	1810.40
252.24	1660.90
252.46	1798.12
252.68	1589.22
252.89	1701.86
253.11	1644.52
253.33	1806.31
253.54	1818.60
253.76	1572.84
253.98	1673.19
254.20	1708.01
254.41	1665.00
254.63	1681.38
254.85	1679.33
255.06	1669.09
255.28	1718.25
255.50	1765.35
255.71	1609.70
255.93	1703.91
256.15	1740.77
256.36	1732.58
256.58	1673.19
256.80	1796.07
257.02	1736.68
257.23	1652.71
257.45	1728.49
257.67	1765.35
257.88	1755.11
258.10	1748.97
258.32	1691.62
258.53	1724.39
258.75	1839.08
258.97	1769.44
259.18	1718.25
259.40	1699.81
259.62	1791.97
259.83	1822.69
260.05	1773.54
260.27	1964.00
260.48	1757.16
260.70	1652.71
260.92	1724.39
261.13	1730.53
261.35	1687.53
261.57	1742.82
261.78	1681.38
262.00	1677.29
262.22	1775.59
262.43	1681.38
262.65	1763.30
262.86	1683.43
263.08	1875.94
263.30	1738.73
263.51	1656.81
263.73	1640.42
263.95	1832.93
264.16	1722.34
264.38	1710.05
264.60	1765.35
264.81	1662.95
265.03	1814.50
265.25	1751.01
265.46	1701.86
265.68	1761.25
265.89	1699.81
266.11	1609.70
266.33	1767.40
266.54	1753.06
266.76	1753.06
266.98	1728.49
267.19	1814.50
267.41	1742.82
267.62	1646.57
267.84	1601.51
268.06	1726.44
268.27	1761.25
268.49	1773.54
268.70	1753.06
268.92	1708.01
269.14	1669.09
269.35	1624.04
269.57	1710.05
269.79	1779.68
270.00	1681.38
270.22	1851.36
270.43	1628.14
270.65	1624.04
270.87	1699.81
271.08	1681.38
271.30	1726.44
271.51	1681.38
271.73	1712.10
271.95	1818.60
272.16	1730.53
272.38	1789.92
272.59	1654.76
272.81	1671.14
273.02	1783.78
273.24	1771.49
273.46	1744.87
273.67	1626.09
273.89	1617.90
274.10	1691.62
274.32	1798.12
274.54	1703.91
274.75	1662.95
274.97	1697.77
275.18	1812.45
275.40	1724.39
275.61	1742.82
275.83	1665.00
276.05	1722.34
276.26	1724.39
276.48	1722.34
276.69	1675.24
276.91	1673.19
277.12	1804.26
277.34	1791.97
277.55	1699.81
277.77	1748.97
277.99	1662.95
278.20	1632.23
278.42	1675.24
278.63	1669.09
278.85	1685.48
279.06	1630.18
279.28	1773.54
279.49	1800.16
279.71	1798.12
279.93	1714.15
280.14	1763.30
280.36	1619.94
280.57	1746.92
280.79	1851.36
281.00	1681.38
281.22	1681.38
281.43	1794.02
281.65	1632.23
281.86	1634.28
282.08	1718.25
282.29	1742.82
282.51	1669.09
282.73	1621.99
282.94	1599.46
283.16	1777.64
283.37	1783.78
283.59	1669.09
283.80	1701.86
284.02	1748.97
284.23	1699.81
284.45	1675.24
284.66	1716.20
284.88	1648.61
285.09	1667.05
285.31	1724.39
285.52	1740.77
285.74	1613.80
285.95	1685.48
286.17	1695.72
286.38	1802.21
286.60	1630.18
286.81	1693.67
287.03	1685.48
287.24	1759.21
287.46	1697.77
287.67	1656.81
287.89	1892.32
288.10	1755.11
288.32	1734.63
288.53	1771.49
288.75	1748.97
288.96	1767.40
289.18	1658.85
289.39	1714.15
289.61	1787.88
289.82	1849.32
290.04	1761.25
290.25	1628.14
290.47	1802.21
290.68	1728.49
290.90	1820.64
291.11	1662.95
291.33	1748.97
291.54	1556.46
291.76	1728.49
291.97	1812.45
292.18	1779.68
292.40	1691.62
292.61	1597.42
292.83	1832.93
293.04	1724.39
293.26	1705.96
293.47	1681.38
293.69	1644.52
293.90	1751.01
294.12	1787.88
294.33	1687.53
294.55	1597.42
294.76	1732.58
294.97	1816.55
295.19	1789.92
295.40	1648.61
295.62	1751.01
295.83	1740.77
296.05	1695.72
296.26	1816.55
296.48	1685.48
296.69	1765.35
296.90	1658.85
297.12	1744.87
297.33	1767.40
297.55	1681.38
297.76	1757.16
297.98	1716.20
298.19	1679.33
298.41	1718.25
298.62	1718.25
298.83	1867.75
299.05	1746.92
299.26	1660.90
299.48	1763.30
299.69	1748.97
299.90	1710.05
300.12	1677.29
300.33	1794.02
300.55	1757.16
300.76	1806.31
300.98	1626.09
301.19	1767.40
301.40	1691.62
301.62	1603.56
301.83	1730.53
302.05	1808.36
302.26	1708.01
302.47	1800.16
302.69	1656.81
302.90	1724.39
303.12	1578.98
303.33	1769.44
303.54	1857.51
303.76	1703.91
303.97	1708.01
304.19	1783.78
304.40	1699.81
304.61	1734.63
304.83	1855.46
305.04	1748.97
305.26	1808.36
305.47	1726.44
305.68	1722.34
305.90	1660.90
306.11	1769.44
306.33	1683.43
306.54	1644.52
306.75	1714.15
306.97	1665.00
307.18	1665.00
307.39	1689.57
307.61	1710.05
307.82	1683.43
308.04	1757.16
308.25	1716.20
308.46	1710.05
308.68	1728.49
308.89	1728.49
309.10	1746.92
309.32	1730.53
309.53	1724.39
309.74	1679.33
309.96	1710.05
310.17	1779.68
310.39	1722.34
310.60	1771.49
310.81	1714.15
311.03	1566.70
311.24	1742.82
311.45	1566.70
311.67	1798.12
311.88	1675.24
312.09	1654.76
312.31	1697.77
312.52	1695.72
312.73	1791.97
312.95	1714.15
313.16	1703.91
313.37	1814.50
313.59	1755.11
313.80	1869.80
314.01	1796.07
314.23	1697.77
314.44	1689.57
314.65	1652.71
314.87	1734.63
315.08	1718.25
315.29	1693.67
315.51	1636.33
315.72	1624.04
315.93	1845.22
316.15	1761.25
316.36	1689.57
316.57	1656.81
316.79	1734.63
317.00	1634.28
317.21	1769.44
317.43	1667.05
317.64	1689.57
317.85	1640.42
318.07	1710.05
318.28	1730.53
318.49	1816.55
318.70	1937.38
318.92	1830.88
319.13	1832.93
319.34	1855.46
319.56	1802.21
319.77	1853.41
319.98	1853.41
320.20	1775.59
320.41	1773.54
320.62	1781.73
320.83	1671.14
321.05	1886.18
321.26	1728.49
321.47	1699.81
321.69	1761.25
321.90	1626.09
322.11	1712.10
322.32	1742.82
322.54	1755.11
322.75	1630.18
322.96	1767.40
323.18	1617.90
323.39	1619.94
323.60	1650.66
323.81	1779.68
324.03	1703.91
324.24	1705.96
324.45	1689.57
324.66	1683.43
324.88	1765.35
325.09	1808.36
325.30	1726.44
325.52	1738.73
325.73	1669.09
325.94	1685.48
326.15	1576.94
326.37	1634.28
326.58	1779.68
326.79	1726.44
327.00	1673.19
327.22	1748.97
327.43	1705.96
327.64	1644.52
327.85	1755.11
328.07	1771.49
328.28	1822.69
328.49	1710.05
328.70	1675.24
328.92	1738.73
329.13	1746.92
329.34	1708.01
329.55	1855.46
329.76	1751.01
329.98	1736.68
330.19	1830.88
330.40	1832.93
330.61	1746.92
330.83	1791.97
331.04	1699.81
331.25	1695.72
331.46	1763.30
331.68	1656.81
331.89	1785.83
332.10	1759.21
332.31	1638.38
332.52	1728.49
332.74	1740.77
332.95	1542.12
333.16	1642.47
333.37	1812.45
333.58	1746.92
333.80	1705.96
334.01	1613.80
334.22	1734.63
334.43	1669.09
334.64	1708.01
334.86	1624.04
335.07	1683.43
335.28	1796.07
335.49	1595.37
335.70	1759.21
335.92	1738.73
336.13	1779.68
336.34	1742.82
336.55	1677.29
336.76	1712.10
336.98	1626.09
337.19	1708.01
337.40	1789.92
337.61	1798.12
337.82	1722.34
338.04	1751.01
338.25	1683.43
338.46	1693.67
338.67	1753.06
338.88	1611.75
339.09	1660.90
339.31	1691.62
339.52	1570.79
339.73	1695.72
339.94	1673.19
340.15	1757.16
340.36	1662.95
340.58	1650.66
340.79	1654.76
341.00	1689.57
341.21	1660.90
341.42	1861.60
341.63	1722.34
341.85	1695.72
342.06	1783.78
342.27	1648.61
342.48	1759.21
342.69	1615.85
342.90	1644.52
343.12	1658.85
343.33	1693.67
343.54	1812.45
343.75	1716.20
343.96	1701.86
344.17	1689.57
344.38	1716.20
344.60	1671.14
344.81	1671.14
345.02	1689.57
345.23	1759.21
345.44	1841.12
345.65	1798.12
345.86	1730.53
346.07	1710.05
346.29	1683.43
346.50	1779.68
346.71	1720.29
346.92	1683.43
347.13	1853.41
347.34	1751.01
347.55	1708.01
347.76	1718.25
347.98	1722.34
348.19	1673.19
348.40	1822.69
348.61	1669.09
348.82	1855.46
349.03	1812.45
349.24	1585.13
349.45	1834.98
349.66	1701.86
349.88	1662.95
350.09	1714.15
350.30	1789.92
350.51	1781.73
350.72	1671.14
350.93	1806.31
351.14	1695.72
351.35	1767.40
351.56	1767.40
351.77	1695.72
351.99	1769.44
352.20	1816.55
352.41	1779.68
352.62	1613.80
352.83	1730.53
353.04	1697.77
353.25	1660.90
353.46	1718.25
353.67	1701.86
353.88	1615.85
354.09	1759.21
354.30	1691.62
354.52	1769.44
354.73	1746.92
354.94	1710.05
355.15	1732.58
355.36	1791.97
355.57	1691.62
355.78	1730.53
355.99	1677.29
356.20	1665.00
356.41	1802.21
356.62	1759.21
356.83	1730.53
357.04	1816.55
357.25	1601.51
357.46	1665.00
357.68	1624.04
357.89	1546.22
358.10	1695.72
358.31	1669.09
358.52	1656.81
358.73	1693.67
358.94	1619.94
359.15	1658.85
359.36	1744.87
359.57	1681.38
359.78	1669.09
359.99	1714.15
360.20	1652.71
360.41	1677.29
360.62	1789.92
360.83	1710.05
361.04	1665.00
361.25	1730.53
361.46	1804.26
361.67	1689.57
361.88	1714.15
362.09	1785.83
362.30	1812.45
362.51	1685.48
362.72	1761.25
362.93	1859.56
363.14	1751.01
363.35	1675.24
363.56	1685.48
363.78	1826.79
363.99	1822.69
364.20	1748.97
364.41	1728.49
364.62	1765.35
364.83	1773.54
365.04	1738.73
365.25	1697.77
365.46	1841.12
365.67	1658.85
365.88	1624.04
366.09	1683.43
366.30	1753.06
366.51	1710.05
366.72	1693.67
366.93	1777.64
367.14	1744.87
367.35	1785.83
367.56	1701.86
367.77	1863.65
367.98	1689.57
368.18	1689.57
368.39	1669.09
368.60	1693.67
368.81	1812.45
369.02	1763.30
369.23	1703.91
369.44	1583.08
369.65	1703.91
369.86	1689.57
370.07	1798.12
370.28	1656.81
370.49	1761.25
370.70	1765.35
370.91	1667.05
371.12	1624.04
371.33	1712.10
371.54	1673.19
371.75	1802.21
371.96	1611.75
372.17	1740.77
372.38	1734.63
372.59	1697.77
372.80	1732.58
373.01	1697.77
373.22	1726.44
373.43	1695.72
373.64	1642.47
373.85	1732.58
374.06	1818.60
374.26	1705.96
374.47	1738.73
374.68	1789.92
374.89	1781.73
375.10	1701.86
375.31	1828.84
375.52	1816.55
375.73	1738.73
375.94	1636.33
376.15	1867.75
376.36	1658.85
376.57	1771.49
376.78	1658.85
376.99	1783.78
377.20	1724.39
377.40	1648.61
377.61	1841.12
377.82	1576.94
378.03	1806.31
378.24	1705.96
378.45	1716.20
378.66	1738.73
378.87	1701.86
379.08	1552.36
379.29	1681.38
379.50	1771.49
379.71	1699.81
379.91	1755.11
380.12	1660.90
380.33	1718.25
380.54	1701.86
380.75	1748.97
380.96	1751.01
381.17	1806.31
381.38	1714.15
381.59	1724.39
381.80	1761.25
382.00	1812.45
382.21	1705.96
382.42	1863.65
382.63	1828.84
382.84	1730.53
383.05	1773.54
383.26	1761.25
383.47	1771.49
383.68	1695.72
383.88	1718.25
384.09	1689.57
384.30	1837.03
384.51	1767.40
384.72	1681.38
384.93	1689.57
385.14	1685.48
385.35	1816.55
385.55	1636.33
385.76	1800.16
385.97	1693.67
386.18	1644.52
386.39	1681.38
386.60	1705.96
386.81	1691.62
387.02	1726.44
387.22	1695.72
387.43	1810.40
387.64	1832.93
387.85	1808.36
388.06	2127.84
388.27	4188.10
388.48	6676.38
388.68	8046.47
388.89	9439.09
389.10	9518.96
389.31	8380.29
389.52	7430.03
389.73	6703.00
389.93	6012.84
390.14	5722.02
390.35	5001.14
390.56	4433.85
390.77	3723.21
390.98	2947.03
391.18	2490.33
391.39	2144.22
391.60	1832.93
391.81	1857.51
392.02	1716.20
392.23	1806.31
392.43	1724.39
392.64	1791.97
392.85	1732.58
393.06	1804.26
393.27	1701.86
393.47	1703.91
393.68	1736.68
393.89	1740.77
394.10	1697.77
394.31	1640.42
394.52	1630.18
394.72	1691.62
394.93	1826.79
395.14	1675.24
395.35	1732.58
395.56	1652.71
395.76	1748.97
395.97	1802.21
396.18	1779.68
396.39	1884.13
396.60	1970.15
396.80	1871.84
397.01	1853.41
397.22	1818.60
397.43	1804.26
397.64	1671.14
397.84	1753.06
398.05	1873.89
398.26	1763.30
398.47	1757.16
398.67	1730.53
398.88	1722.34
399.09	1763.30
399.30	1765.35
399.51	1693.67
399.71	1671.14
399.92	1683.43
400.13	1728.49
400.34	1650.66
400.54	1683.43
400.75	1888.23
400.96	1677.29
401.17	1810.40
401.37	1808.36
401.58	1673.19
401.79	1744.87
402.00	1861.60
402.21	1988.58
402.41	1949.67
402.62	1947.62
402.83	2093.02
403.04	1988.58
403.24	2013.15
403.45	1785.83
403.66	1869.80
403.87	1912.80
404.07	1888.23
404.28	1865.70
404.49	1845.22
404.70	1806.31
404.90	1757.16
405.11	1751.01
405.32	1763.30
405.52	1759.21
405.73	1687.53
405.94	1656.81
406.15	1726.44
406.35	1765.35
406.56	1769.44
406.77	1773.54
406.98	1771.49
407.18	1720.29
407.39	1794.02
407.60	1615.85
407.80	1693.67
408.01	1755.11
408.22	1736.68
408.43	1681.38
408.63	1779.68
408.84	1769.44
409.05	1730.53
409.25	1656.81
409.46	1634.28
409.67	1728.49
409.88	1673.19
410.08	1755.11
410.29	1705.96
410.50	1798.12
410.70	1775.59
410.91	1724.39
411.12	1740.77
411.32	1710.05
411.53	1689.57
411.74	1849.32
411.95	1812.45
412.15	1718.25
412.36	1789.92
412.57	1781.73
412.77	1761.25
412.98	1705.96
413.19	1708.01
413.39	1761.25
413.60	1800.16
413.81	1869.80
414.01	1699.81
414.22	1869.80
414.43	1773.54
414.63	1705.96
414.84	1734.63
415.05	1714.15
415.25	1708.01
415.46	1787.88
415.67	1697.77
415.87	1691.62
416.08	1691.62
416.29	1785.83
416.49	1650.66
416.70	1679.33
416.91	1714.15
417.11	1681.38
417.32	1798.12
417.53	1746.92
417.73	1796.07
417.94	1636.33
418.15	1722.34
418.35	1753.06
418.56	1722.34
418.77	1804.26
418.97	1699.81
419.18	1710.05
419.38	1615.85
419.59	1783.78
419.80	1816.55
420.00	1687.53
420.21	1732.58
420.42	1773.54
420.62	1691.62
420.83	1730.53
421.04	1712.10
421.24	1634.28
421.45	1746.92
421.65	1759.21
421.86	1685.48
422.07	1798.12
422.27	1744.87
422.48	1673.19
422.69	1642.47
422.89	1744.87
423.10	1724.39
423.30	1675.24
423.51	1748.97
423.72	1834.98
423.92	1804.26
424.13	1640.42
424.33	1701.86
424.54	1740.77
424.75	1718.25
424.95	1841.12
425.16	1681.38
425.36	1683.43
425.57	1740.77
425.78	1748.97
425.98	1791.97
426.19	1779.68
426.39	1701.86
426.60	1697.77
426.81	1812.45
427.01	1710.05
427.22	1626.09
427.42	1574.89
427.63	1746.92
427.83	1712.10
428.04	1822.69
428.25	1773.54
428.45	1863.65
428.66	1828.84
428.86	1710.05
429.07	1689.57
429.28	1724.39
429.48	1720.29
429.69	1665.00
429.89	1708.01
430.10	1599.46
430.30	1755.11
430.51	1828.84
430.71	1716.20
430.92	1718.25
431.13	1609.70
431.33	1759.21
431.54	1781.73
431.74	1853.41
431.95	1853.41
432.15	1587.18
432.36	1652.71
432.56	1697.77
432.77	1820.64
432.98	1826.79
433.18	1644.52
433.39	1718.25
433.59	1669.09
433.80	1789.92
434.00	1877.99
434.21	1746.92
434.41	1665.00
434.62	1785.83
434.82	1675.24
435.03	1718.25
435.23	1818.60
435.44	1701.86
435.64	1746.92
435.85	1716.20
436.06	1757.16
436.26	1759.21
436.47	1769.44
436.67	1683.43
436.88	1759.21
437.08	1726.44
437.29	1859.56
437.49	1751.01
437.70	1818.60
437.90	1841.12
438.11	1894.37
438.31	1767.40
438.52	1857.51
438.72	1849.32
438.93	1902.56
439.13	1884.13
439.34	1861.60
439.54	1757.16
439.75	1861.60
439.95	1837.03
440.16	1748.97
440.36	1703.91
440.57	1763.30
440.77	1728.49
440.98	1761.25
441.18	1826.79
441.39	1671.14
441.59	1636.33
441.80	1834.98
442.00	1689.57
442.21	1820.64
442.41	1646.57
442.62	1839.08
442.82	1708.01
443.02	1820.64
443.23	1773.54
443.43	1746.92
443.64	1732.58
443.84	1722.34
444.05	1800.16
444.25	1722.34
444.46	1744.87
444.66	1740.77
444.87	1837.03
445.07	1644.52
445.28	1683.43
445.48	1800.16
445.69	1822.69
445.89	1832.93
446.09	1804.26
446.30	2043.87
446.50	2627.54
446.71	3684.30
446.91	4300.73
447.12	4609.98
447.32	4784.06
447.53	4247.49
447.73	3821.51
447.93	3495.88
448.14	3246.03
448.34	3272.65
448.55	2801.62
448.75	2824.15
448.96	2678.74
449.16	2402.27
449.36	2297.82
449.57	2050.02
449.77	1886.18
449.98	1759.21
450.18	1830.88
450.39	1845.22
450.59	1748.97
450.79	1769.44
451.00	1691.62
451.20	1789.92
451.41	1771.49
451.61	1777.64
451.81	1787.88
452.02	1761.25
452.22	1650.66
452.43	1710.05
452.63	1728.49
452.84	1726.44
453.04	1810.40
453.24	1802.21
453.45	1804.26
453.65	1767.40
453.86	1818.60
454.06	1705.96
454.26	1705.96
454.47	1728.49
454.67	1824.74
454.87	1728.49
455.08	1755.11
455.28	1742.82
455.49	1789.92
455.69	1677.29
455.89	1839.08
456.10	1867.75
456.30	1761.25
456.51	1798.12
456.71	1746.92
456.91	1769.44
457.12	1804.26
457.32	1755.11
457.52	1689.57
457.73	1787.88
457.93	1732.58
458.14	1689.57
458.34	1718.25
458.54	1726.44
458.75	1718.25
458.95	1773.54
459.15	1785.83
459.36	1777.64
459.56	1771.49
459.76	1863.65
459.97	1783.78
460.17	1767.40
460.37	1755.11
460.58	1718.25
460.78	1779.68
460.99	1710.05
461.19	1771.49
461.39	1761.25
461.60	1691.62
461.80	1837.03
462.00	1705.96
462.21	1714.15
462.41	1640.42
462.61	1738.73
462.82	1689.57
463.02	1855.46
463.22	1697.77
463.43	1767.40
463.63	1759.21
463.83	1826.79
464.04	1705.96
464.24	1787.88
464.44	1761.25
464.64	1703.91
464.85	1675.24
465.05	1740.77
465.25	1701.86
465.46	1660.90
465.66	1783.78
465.86	1751.01
466.07	1730.53
466.27	1710.05
466.47	1658.85
466.68	1650.66
466.88	1804.26
467.08	1818.60
467.29	1808.36
467.49	1763.30
467.69	1734.63
467.89	1726.44
468.10	1767.40
468.30	1759.21
468.50	1816.55
468.71	1730.53
468.91	1587.18
469.11	1910.75
469.31	1703.91
469.52	1681.38
469.72	1798.12
469.92	1818.60
470.13	1710.05
470.33	1791.97
470.53	1837.03
470.73	2062.30
470.94	2277.34
471.14	2308.06
471.34	2512.86
471.54	2435.03
471.75	2176.99
471.95	2142.18
472.15	2086.88
472.36	2066.40
472.56	2093.02
472.76	2015.20
472.96	1968.10
473.17	1945.57
473.37	1857.51
473.57	1777.64
473.77	1810.40
473.98	1794.02
474.18	1658.85
474.38	1906.66
474.58	1683.43
474.79	1699.81
474.99	1851.36
475.19	1789.92
475.39	1695.72
475.60	1777.64
475.80	1791.97
476.00	1742.82
476.20	1738.73
476.41	1761.25
476.61	1734.63
476.81	1837.03
477.01	1724.39
477.21	1781.73
477.42	1777.64
477.62	1777.64
477.82	1656.81
478.02	1761.25
478.23	1671.14
478.43	1775.59
478.63	1751.01
478.83	1693.67
479.03	1714.15
479.24	1785.83
479.44	1816.55
479.64	1681.38
479.84	1595.37
480.04	1728.49
480.25	1763.30
480.45	1730.53
480.65	1726.44
480.85	1851.36
481.06	1773.54
481.26	1820.64
481.46	1791.97
481.66	1751.01
481.86	1654.76
482.06	1783.78
482.27	1679.33
482.47	1712.10
482.67	1746.92
482.87	1677.29
483.07	1847.27
483.28	1650.66
483.48	1658.85
483.68	1720.29
483.88	1732.58
484.08	1673.19
484.29	1699.81
484.49	1689.57
484.69	1710.05
484.89	1736.68
485.09	1779.68
485.29	1800.16
485.50	1757.16
485.70	1726.44
485.90	1783.78
486.10	1693.67
486.30	1796.07
486.50	1804.26
486.71	1744.87
486.91	1773.54
487.11	1804.26
487.31	1652.71
487.51	1736.68
487.71	1665.00
487.91	1648.61
488.12	1728.49
488.32	1595.37
488.52	1671.14
488.72	1638.38
488.92	1724.39
489.12	1783.78
489.32	1724.39
489.53	1751.01
489.73	1636.33
489.93	1839.08
490.13	1683.43
490.33	1691.62
490.53	1763.30
490.73	1808.36
490.94	1675.24
491.14	1812.45
491.34	1884.13
491.54	2033.63
491.74	2473.95
491.94	2885.59
492.14	2969.55
492.34	2908.12
492.54	2731.99
492.75	2500.57
492.95	2508.76
493.15	2248.67
493.35	2320.35
493.55	2234.33
493.75	2234.33
493.95	2156.51
494.15	1982.43
494.35	1951.71
494.56	1810.40
494.76	1830.88
494.96	1796.07
495.16	1771.49
495.36	1716.20
495.56	1675.24
495.76	1671.14
495.96	1720.29
496.16	1681.38
496.36	1849.32
496.56	1724.39
496.77	1779.68
496.97	1671.14
497.17	1814.50
497.37	1683.43
497.57	1767.40
497.77	1728.49
497.97	1665.00
498.17	1708.01
498.37	1736.68
498.57	1742.82
498.77	1724.39
498.97	1773.54
499.17	1880.04
499.38	1748.97
499.58	1728.49
499.78	1785.83
499.98	1785.83
500.18	1683.43
500.38	1681.38
500.58	1968.10
500.78	2486.23
500.98	4374.46
501.18	5611.43
501.38	6551.45
501.58	7069.59
501.78	6444.96
501.98	5400.49
502.18	4794.29
502.38	4384.70
502.58	4122.56
502.78	3753.93
502.98	3669.96
503.18	3389.39
503.38	3030.99
503.59	2805.72
503.79	2645.98
503.99	2494.43
504.19	2303.96
504.39	2265.05
504.59	2148.32
504.79	2152.42
504.99	2133.98
505.19	1869.80
505.39	1923.04
505.59	1935.33
505.79	1925.09
505.99	1904.61
506.19	1890.28
506.39	1892.32
506.59	1789.92
506.79	1695.72
506.99	1800.16
507.19	1757.16
507.39	1738.73
507.59	1757.16
507.79	1689.57
507.99	1701.86
508.19	1708.01
508.39	1691.62
508.59	1751.01
508.79	1843.17
508.99	1863.65
509.19	1787.88
509.39	1877.99
509.59	1675.24
509.79	1783.78
509.99	1677.29
510.19	1798.12
510.39	1734.63
510.59	1746.92
510.79	1710.05
510.99	1689.57
511.19	1761.25
511.39	1742.82
511.59	1744.87
511.79	1814.50
511.99	1804.26
512.19	1822.69
512.38	1710.05
512.58	1740.77
512.78	1779.68
512.98	1802.21
513.18	1810.40
513.38	1654.76
513.58	1785.83
513.78	1775.59
513.98	1800.16
514.18	1767.40
514.38	1667.05
514.58	1712.10
514.78	1677.29
514.98	1718.25
515.18	1845.22
515.38	1634.28
515.58	1914.85
515.78	1738.73
515.98	1773.54
516.18	1771.49
516.38	1773.54
516.57	1732.58
516.77	1689.57
516.97	1791.97
517.17	1695.72
517.37	1605.61
517.57	1822.69
517.77	1740.77
517.97	1746.92
518.17	1734.63
518.37	1710.05
518.57	1599.46
518.77	1775.59
518.97	1730.53
519.16	1841.12
519.36	1882.08
519.56	1769.44
519.76	1701.86
519.96	1767.40
520.16	1812.45
520.36	1667.05
520.56	1814.50
520.76	1665.00
520.96	1757.16
521.16	1759.21
521.35	1751.01
521.55	1863.65
521.75	1697.77
521.95	1732.58
522.15	1748.97
522.35	1669.09
522.55	1628.14
522.75	1796.07
522.95	1697.77
523.14	1718.25
523.34	1742.82
523.54	1751.01
523.74	1810.40
523.94	1841.12
524.14	1624.04
524.34	1667.05
524.54	1814.50
524.73	1679.33
524.93	1808.36
525.13	1757.16
525.33	1626.09
525.53	1865.70
525.73	1759.21
525.93	1767.40
526.13	1658.85
526.32	1699.81
526.52	1769.44
526.72	1771.49
526.92	1685.48
527.12	1687.53
527.32	1679.33
527.52	1767.40
527.71	1791.97
527.91	1734.63
528.11	1755.11
528.31	1710.05
528.51	1681.38
528.71	1814.50
528.90	1751.01
529.10	1806.31
529.30	1812.45
529.50	1705.96
529.70	1742.82
529.90	1761.25
530.09	1689.57
530.29	1687.53
530.49	1705.96
530.69	1945.57
530.89	1693.67
531.09	1714.15
531.28	1775.59
531.48	1857.51
531.68	1779.68
531.88	1802.21
532.08	1820.64
532.28	1703.91
532.47	1779.68
532.67	1806.31
532.87	1693.67
533.07	1705.96
533.27	1767.40
533.46	1757.16
533.66	1730.53
533.86	1832.93
534.06	1773.54
534.26	1769.44
534.45	1755.11
534.65	1818.60
534.85	1767.40
535.05	1734.63
535.25	1798.12
535.44	1693.67
535.64	1798.12
535.84	1759.21
536.04	1697.77
536.24	1720.29
536.43	1708.01
536.63	1886.18
536.83	1800.16
537.03	1703.91
537.22	1673.19
537.42	1673.19
537.62	1808.36
537.82	1779.68
538.02	1857.51
538.21	1800.16
538.41	1857.51
538.61	1769.44
538.81	1720.29
539.00	1853.41
539.20	1687.53
539.40	1755.11
539.60	1812.45
539.79	1730.53
539.99	1759.21
540.19	1724.39
540.39	1701.86
540.58	1757.16
540.78	1781.73
540.98	1796.07
541.18	1787.88
541.37	1728.49
541.57	1720.29
541.77	1744.87
541.97	1703.91
542.16	1611.75
542.36	1744.87
542.56	1708.01
542.76	1851.36
542.95	1732.58
543.15	1751.01
543.35	1742.82
543.54	1687.53
543.74	1787.88
543.94	1771.49
544.14	1718.25
544.33	1794.02
544.53	1685.48
544.73	1660.90
544.93	1683.43
545.12	1755.11
545.32	1691.62
545.52	1730.53
545.71	1638.38
545.91	1697.77
546.11	1734.63
546.30	1677.29
546.50	1787.88
546.70	1789.92
546.90	1763.30
547.09	1714.15
547.29	1730.53
547.49	1791.97
547.68	1773.54
547.88	1726.44
548.08	1812.45
548.27	2217.95
548.47	1751.01
548.67	1785.83
548.87	1777.64
549.06	1789.92
549.26	1765.35
549.46	1703.91
549.65	1591.27
549.85	1794.02
550.05	1681.38
550.24	1656.81
550.44	1804.26
550.64	1710.05
550.83	1757.16
551.03	1783.78
551.23	1845.22
551.42	1794.02
551.62	1720.29
551.82	1753.06
552.01	1734.63
552.21	1748.97
552.41	1753.06
552.60	1800.16
552.80	1808.36
553.00	1718.25
553.19	1763.30
553.39	1855.46
553.59	1665.00
553.78	1841.12
553.98	1824.74
554.17	1677.29
554.37	1734.63
554.57	1798.12
554.76	1681.38
554.96	1667.05
555.16	1714.15
555.35	1785.83
555.55	1781.73
555.75	1699.81
555.94	1746.92
556.14	1687.53
556.33	1818.60
556.53	1697.77
556.73	1769.44
556.92	1769.44
557.12	1839.08
557.32	1841.12
557.51	1841.12
557.71	1771.49
557.90	1884.13
558.10	1857.51
558.30	1740.77
558.49	1753.06
558.69	1802.21
558.88	1697.77
559.08	1771.49
559.28	1714.15
559.47	1689.57
559.67	1753.06
559.86	1859.56
560.06	1757.16
560.26	1681.38
560.45	1761.25
560.65	1699.81
560.84	1857.51
561.04	1742.82
561.24	1757.16
561.43	1732.58
561.63	1798.12
561.82	1722.34
562.02	1738.73
562.22	1611.75
562.41	1753.06
562.61	1712.10
562.80	1683.43
563.00	1961.95
563.19	1755.11
563.39	1798.12
563.59	1755.11
563.78	1695.72
563.98	1636.33
564.17	1734.63
564.37	1619.94
564.56	1726.44
564.76	1732.58
564.96	1832.93
565.15	1820.64
565.35	1884.13
565.54	1718.25
565.74	1740.77
565.93	1742.82
566.13	1746.92
566.32	1759.21
566.52	1751.01
566.71	1767.40
566.91	1816.55
567.11	1726.44
567.30	1804.26
567.50	1787.88
567.69	1810.40
567.89	1726.44
568.08	1738.73
568.28	1785.83
568.47	1724.39
568.67	1812.45
568.86	1781.73
569.06	1753.06
569.25	1673.19
569.45	1654.76
569.64	1818.60
569.84	1779.68
570.04	1802.21
570.23	1738.73
570.43	1751.01
570.62	1781.73
570.82	1828.84
571.01	1767.40
571.21	1738.73
571.40	1718.25
571.60	1769.44
571.79	1744.87
571.99	1757.16
572.18	1691.62
572.38	1726.44
572.57	1705.96
572.77	1804.26
572.96	1939.43
573.16	1740.77
573.35	1746.92
573.55	1820.64
573.74	1787.88
573.94	1796.07
574.13	1816.55
574.33	1789.92
574.52	1841.12
574.71	1699.81
574.91	1804.26
575.10	1740.77
575.30	1652.71
575.49	1738.73
575.69	1683.43
575.88	1800.16
576.08	1689.57
576.27	1779.68
576.47	1730.53
576.66	1828.84
576.86	1753.06
577.05	1820.64
577.25	1812.45
577.44	1865.70
577.64	1689.57
577.83	1734.63
578.02	1730.53
578.22	1824.74
578.41	1834.98
578.61	1742.82
578.80	1738.73
579.00	1759.21
579.19	1779.68
579.39	1761.25
579.58	1886.18
579.77	1746.92
579.97	1839.08
580.16	1785.83
580.36	1841.12
580.55	1818.60
580.75	1759.21
580.94	1736.68
581.13	1824.74
581.33	1816.55
581.52	1734.63
581.72	1816.55
581.91	1900.52
582.11	1677.29
582.30	1751.01
582.49	1785.83
582.69	1871.84
582.88	1777.64
583.08	1845.22
583.27	1902.56
583.47	1695.72
583.66	1710.05
583.85	1687.53
584.05	1771.49
584.24	1884.13
584.44	1875.94
584.63	1820.64
584.82	1873.89
585.02	1808.36
585.21	1824.74
585.41	1839.08
585.60	1783.78
585.79	1904.61
585.99	1953.76
586.18	1816.55
586.37	2215.90
586.57	3350.48
586.76	9709.42
586.96	23965.33
587.15	33482.24
587.34	39394.73
587.54	41047.44
587.73	35460.58
587.93	25357.95
588.12	20981.44
588.31	17524.47
588.51	15732.50
588.70	15001.37
588.89	13670.19
589.09	12144.45
589.28	10708.83
589.47	9324.40
589.67	7704.46
589.86	6152.10
590.06	4919.22
590.25	3723.21
590.44	3078.10
590.64	2506.71
590.83	2285.53
591.02	2017.25
591.22	1996.77
591.41	1959.91
591.60	1804.26
591.80	2017.25
591.99	1810.40
592.18	1849.32
592.38	1814.50
592.57	1736.68
592.76	1755.11
592.96	1845.22
593.15	1779.68
593.34	1775.59
593.54	1703.91
593.73	1794.02
593.92	1818.60
594.12	1753.06
594.31	1732.58
594.50	1730.53
594.70	1857.51
594.89	1951.71
595.08	1738.73
595.28	1849.32
595.47	1914.85
595.66	1777.64
595.86	1712.10
596.05	1738.73
596.24	1769.44
596.43	1877.99
596.63	1775.59
596.82	1771.49
597.01	1802.21
597.21	1822.69
597.40	1740.77
597.59	1757.16
597.79	1742.82
597.98	1787.88
598.17	1701.86
598.36	1763.30
598.56	1837.03
598.75	1728.49
598.94	1669.09
599.14	1826.79
599.33	1703.91
599.52	1826.79
599.71	1802.21
599.91	1798.12
600.10	1734.63
600.29	1705.96
600.48	1748.97
600.68	1767.40
600.87	1734.63
601.06	1781.73
601.26	1742.82
601.45	1845.22
601.64	1742.82
601.83	1763.30
602.03	1763.30
602.22	1677.29
602.41	1843.17
602.60	1898.47
602.80	1767.40
602.99	1816.55
603.18	1800.16
603.37	1771.49
603.57	1785.83
603.76	1767.40
603.95	1800.16
604.14	1773.54
604.34	1722.34
604.53	1753.06
604.72	1714.15
604.91	1783.78
605.10	1781.73
605.30	1593.32
605.49	1882.08
605.68	1816.55
605.87	1767.40
606.07	1683.43
606.26	1757.16
606.45	1855.46
606.64	1730.53
606.84	1710.05
607.03	1679.33
607.22	1841.12
607.41	1705.96
607.60	1734.63
607.80	1759.21
607.99	1720.29
608.18	1722.34
608.37	1761.25
608.56	1656.81
608.76	1701.86
608.95	1718.25
609.14	1712.10
609.33	1830.88
609.52	1867.75
609.72	1796.07
609.91	1806.31
610.10	1779.68
610.29	1843.17
610.48	1724.39
610.68	1771.49
610.87	1736.68
611.06	1722.34
611.25	1753.06
611.44	1841.12
611.63	1732.58
611.83	1816.55
612.02	1701.86
612.21	1861.60
612.40	1609.70
612.59	1681.38
612.79	1669.09
612.98	1787.88
613.17	1828.84
613.36	1798.12
613.55	1804.26
613.74	1710.05
613.93	1667.05
614.13	1687.53
614.32	1726.44
614.51	1787.88
614.70	1757.16
614.89	1642.47
615.08	1785.83
615.28	2093.02
615.47	1665.00
615.66	1681.38
615.85	1699.81
616.04	1796.07
616.23	1865.70
616.42	1724.39
616.62	1738.73
616.81	1753.06
617.00	1701.86
617.19	1800.16
617.38	1695.72
617.57	1732.58
617.76	1763.30
617.95	1765.35
618.15	1804.26
618.34	1865.70
618.53	1714.15
618.72	1822.69
618.91	1857.51
619.10	1810.40
619.29	1703.91
619.48	1828.84
619.68	1658.85
619.87	1740.77
620.06	1656.81
620.25	1732.58
620.44	1718.25
620.63	1621.99
620.82	1785.83
621.01	1734.63
621.20	1720.29
621.39	1710.05
621.59	1744.87
621.78	1777.64
621.97	1708.01
622.16	1818.60
622.35	1755.11
622.54	1761.25
622.73	1841.12
622.92	1693.67
623.11	1779.68
623.30	1697.77
623.49	1777.64
623.68	1765.35
623.88	1837.03
624.07	1710.05
624.26	1742.82
624.45	1718.25
624.64	1683.43
624.83	1806.31
625.02	1800.16
625.21	1722.34
625.40	1742.82
625.59	1798.12
625.78	1759.21
625.97	1785.83
626.16	1812.45
626.35	1779.68
626.54	1673.19
626.74	1732.58
626.93	1730.53
627.12	1656.81
627.31	1791.97
627.50	1796.07
627.69	1779.68
627.88	1777.64
628.07	1671.14
628.26	1632.23
628.45	1755.11
628.64	1724.39
628.83	1724.39
629.02	1681.38
629.21	1779.68
629.40	1757.16
629.59	1636.33
629.78	1687.53
629.97	1699.81
630.16	1787.88
630.35	1738.73
630.54	1722.34
630.73	1673.19
630.92	1755.11
631.11	1689.57
631.30	1746.92
631.49	1757.16
631.68	1689.57
631.87	1720.29
632.06	1644.52
632.25	1865.70
632.44	1695.72
632.63	1841.12
632.82	1628.14
633.01	1624.04
633.20	1755.11
633.39	1689.57
633.58	1693.67
633.77	1691.62
633.96	1812.45
634.15	1810.40
634.34	1732.58
634.53	1685.48
634.72	1640.42
634.91	1603.56
635.10	1746.92
635.29	1722.34
635.48	1703.91
635.67	1718.25
635.86	1679.33
636.05	1794.02
636.24	1751.01
636.43	1755.11
636.62	1720.29
636.81	1624.04
637.00	1771.49
637.19	1744.87
637.38	1716.20
637.57	1691.62
637.76	1693.67
637.95	1665.00
638.14	1681.38
638.33	1677.29
638.52	1677.29
638.71	1626.09
638.89	1738.73
639.08	1857.51
639.27	1769.44
639.46	1753.06
639.65	1785.83
639.84	1722.34
640.03	1761.25
640.22	1636.33
640.41	1816.55
640.60	1650.66
640.79	1714.15
640.98	1708.01
641.17	1789.92
641.36	1779.68
641.55	1771.49
641.74	1652.71
641.92	1689.57
642.11	1716.20
642.30	1638.38
642.49	1671.14
642.68	1708.01
642.87	1736.68
643.06	1845.22
643.25	1732.58
643.44	1662.95
643.63	1679.33
643.82	1847.27
644.00	1726.44
644.19	1714.15
644.38	1621.99
644.57	1720.29
644.76	1693.67
644.95	1759.21
645.14	1716.20
645.33	1726.44
645.52	1683.43
645.71	1642.47
645.89	1722.34
646.08	1699.81
646.27	1724.39
646.46	1898.47
646.65	1708.01
646.84	1728.49
647.03	1656.81
647.22	1789.92
647.40	1787.88
647.59	1763.30
647.78	1685.48
647.97	1656.81
648.16	1660.90
648.35	1814.50
648.54	1837.03
648.73	1718.25
648.91	1761.25
649.10	1685.48
649.29	1662.95
649.48	1724.39
649.67	1689.57
649.86	1734.63
650.05	1662.95
650.23	1771.49
650.42	1628.14
650.61	1736.68
650.80	1806.31
650.99	1824.74
651.18	1748.97
651.36	1761.25
651.55	1761.25
651.74	1808.36
651.93	1701.86
652.12	1681.38
652.31	1710.05
652.49	1673.19
652.68	1732.58
652.87	1812.45
653.06	1734.63
653.25	1751.01
653.44	1681.38
653.62	1802.21
653.81	1679.33
654.00	1789.92
654.19	1820.64
654.38	1873.89
654.56	1718.25
654.75	1773.54
654.94	1787.88
655.13	1759.21
655.32	1712.10
655.51	1775.59
655.69	1724.39
655.88	1791.97
656.07	1642.47
656.26	1757.16
656.45	1613.80
656.63	1789.92
656.82	1708.01
657.01	1837.03
657.20	1728.49
657.38	1779.68
657.57	1691.62
657.76	1652.71
657.95	1722.34
658.14	1683.43
658.32	1701.86
658.51	1730.53
658.70	1728.49
658.89	1728.49
659.08	1794.02
659.26	1875.94
659.45	1673.19
659.64	1722.34
659.83	1751.01
660.01	1882.08
660.20	1767.40
660.39	1859.56
660.58	1595.37
660.76	1796.07
660.95	1669.09
661.14	1695.72
661.33	1728.49
661.51	1714.15
661.70	1781.73
661.89	1718.25
662.08	1732.58
662.26	1603.56
662.45	1703.91
662.64	1787.88
662.83	1705.96
663.01	1630.18
663.20	1720.29
663.39	1812.45
663.58	1605.61
663.76	1800.16
663.95	1783.78
664.14	1658.85
664.32	1656.81
664.51	1712.10
664.70	1593.32
664.89	1757.16
665.07	1671.14
665.26	1783.78
665.45	1726.44
665.64	1771.49
665.82	1697.77
666.01	1755.11
666.20	1667.05
666.38	1869.80
666.57	1877.99
666.76	2176.99
666.95	4585.40
667.13	10258.28
667.32	15009.56
667.51	17362.68
667.69	18779.87
667.88	17051.39
668.07	11755.34
668.25	9293.68
668.44	7819.14
668.63	7139.22
668.81	6725.53
669.00	5945.25
669.19	5468.08
669.38	4939.70
669.56	4446.14
669.75	4059.07
669.94	3229.65
670.12	2846.68
670.31	2492.38
670.50	2232.29
670.68	2060.26
670.87	1923.04
671.06	1810.40
671.24	1824.74
671.43	1812.45
671.62	1775.59
671.80	1726.44
671.99	1746.92
672.18	1783.78
672.36	1773.54
672.55	1773.54
672.74	1779.68
672.92	1736.68
673.11	1818.60
673.29	1683.43
673.48	1855.46
673.67	1677.29
673.85	1748.97
674.04	1763.30
674.23	1705.96
674.41	1834.98
674.60	1673.19
674.79	1642.47
674.97	1673.19
675.16	1822.69
675.34	1722.34
675.53	1689.57
675.72	1687.53
675.90	1787.88
676.09	1722.34
676.28	1744.87
676.46	1648.61
676.65	1796.07
676.83	1689.57
677.02	1697.77
677.21	1728.49
677.39	1738.73
677.58	1658.85
677.77	1671.14
677.95	1644.52
678.14	1755.11
678.32	1726.44
678.51	1646.57
678.70	1812.45
678.88	1738.73
679.07	1679.33
679.25	1755.11
679.44	1679.33
679.63	1615.85
679.81	1687.53
680.00	1757.16
680.18	1718.25
680.37	1804.26
680.55	1820.64
680.74	1613.80
680.93	1603.56
681.11	1658.85
681.30	1730.53
681.48	1765.35
681.67	1689.57
681.85	1724.39
682.04	1603.56
682.23	1755.11
682.41	1736.68
682.60	1687.53
682.78	1710.05
682.97	1665.00
683.15	1779.68
683.34	1751.01
683.53	1761.25
683.71	1728.49
683.90	1826.79
684.08	1861.60
684.27	1669.09
684.45	1722.34
684.64	1787.88
684.82	1679.33
685.01	1703.91
685.19	1804.26
685.38	1822.69
685.57	1748.97
685.75	1677.29
685.94	1705.96
686.12	1675.24
686.31	1693.67
686.49	1748.97
686.68	1656.81
686.86	1765.35
687.05	1693.67
687.23	1773.54
687.42	1697.77
687.60	1607.66
687.79	1730.53
687.97	1785.83
688.16	1769.44
688.34	1751.01
688.53	1558.50
688.71	1785.83
688.90	1800.16
689.08	1718.25
689.27	1644.52
689.45	1806.31
689.64	1710.05
689.82	1822.69
690.01	1826.79
690.19	1779.68
690.38	1644.52
690.56	1847.27
690.75	1708.01
690.93	1773.54
691.12	1708.01
691.30	1708.01
691.49	1714.15
691.67	1783.78
691.86	1820.64
692.04	1673.19
692.23	1705.96
692.41	1697.77
692.60	1814.50
692.78	1755.11
692.97	1665.00
693.15	1695.72
693.34	1816.55
693.52	1777.64
693.71	1720.29
693.89	1710.05
694.08	1662.95
694.26	1755.11
694.44	1785.83
694.63	1755.11
694.81	1644.52
695.00	1703.91
695.18	1783.78
695.37	1931.23
695.55	1785.83
695.74	1728.49
695.92	1615.85
696.10	1796.07
696.29	1681.38
696.47	1705.96
696.66	1693.67
696.84	1617.90
697.03	1751.01
697.21	1787.88
697.40	2334.68
697.58	1804.26
697.76	1699.81
697.95	1710.05
698.13	1665.00
698.32	1708.01
698.50	1718.25
698.68	1753.06
698.87	1656.81
699.05	1751.01
699.24	1738.73
699.42	1718.25
699.61	1675.24
699.79	1705.96
699.97	1783.78
700.16	1744.87
700.34	1646.57
700.53	1802.21
700.71	1816.55
700.89	1726.44
701.08	1748.97
701.26	1718.25
701.45	2131.94
701.63	1677.29
701.81	1660.90
702.00	1761.25
702.18	1804.26
702.37	1681.38
702.55	1734.63
702.73	1779.68
702.92	1675.24
703.10	1730.53
703.28	1769.44
703.47	1640.42
703.65	1834.98
703.84	1730.53
704.02	1697.77
704.20	1849.32
704.39	1667.05
704.57	1740.77
704.75	1728.49
704.94	1822.69
705.12	1734.63
705.30	1824.74
705.49	2267.10
705.67	4474.81
705.86	9457.52
706.04	12371.78
706.22	14212.90
706.41	14903.07
706.59	13240.12
706.77	9258.87
706.96	7260.05
707.14	6301.60
707.32	5789.61
707.51	5560.24
707.69	4734.90
707.87	4153.28
708.06	3538.89
708.24	2912.21
708.42	2508.76
708.61	2226.14
708.79	1910.75
708.97	1867.75
709.16	1826.79
709.34	1853.41
709.52	1675.24
709.71	1708.01
709.89	1814.50
710.07	1687.53
710.26	1634.28
710.44	1771.49
710.62	1861.60
710.80	1746.92
710.99	1757.16
711.17	1832.93
711.35	1730.53
711.54	1624.04
711.72	1748.97
711.90	1746.92
712.09	1685.48
712.27	1658.85
712.45	1845.22
712.63	1677.29
712.82	1753.06
713.00	1718.25
713.18	1771.49
713.37	1765.35
713.55	1781.73
713.73	1732.58
713.91	1794.02
714.10	1697.77
714.28	1705.96
714.46	1667.05
714.65	1796.07
714.83	1726.44
715.01	1812.45
715.19	1765.35
715.38	1677.29
715.56	1730.53
715.74	1652.71
715.92	1710.05
716.11	1800.16
716.29	1601.51
716.47	1701.86
716.65	1701.86
716.84	1621.99
717.02	1740.77
717.20	1650.66
717.38	1681.38
717.57	1773.54
717.75	1699.81
717.93	1720.29
718.11	1761.25
718.30	1718.25
718.48	1767.40
718.66	1837.03
718.84	1722.34
719.03	1671.14
719.21	1726.44
719.39	1839.08
719.57	1710.05
719.75	1779.68
719.94	1685.48
720.12	1648.61
720.30	1751.01
720.48	1800.16
720.67	1712.10
720.85	1708.01
721.03	1708.01
721.21	1712.10
721.39	1828.84
721.58	1759.21
721.76	1738.73
721.94	1763.30
722.12	1734.63
722.30	1814.50
722.49	1703.91
722.67	1693.67
722.85	1744.87
723.03	1628.14
723.21	1705.96
723.40	1724.39
723.58	1882.08
723.76	1761.25
723.94	1812.45
724.12	1685.48
724.30	1845.22
724.49	1734.63
724.67	1628.14
724.85	1818.60
725.03	1648.61
725.21	1742.82
725.40	1771.49
725.58	1613.80
725.76	1820.64
725.94	1748.97
726.12	1718.25
726.30	1685.48
726.49	1685.48
726.67	1730.53
726.85	1763.30
727.03	1751.01
727.21	2205.66
727.39	2965.46
727.57	3823.56
727.76	4075.46
727.94	4376.51
728.12	4255.68
728.30	3585.99
728.48	2908.12
728.66	2682.84
728.84	2496.47
729.03	2340.83
729.21	2156.51
729.39	1992.67
729.57	1753.06
729.75	1849.32
729.93	1849.32
730.11	1722.34
730.30	1636.33
730.48	1734.63
730.66	1880.04
730.84	1732.58
731.02	1632.23
731.20	1665.00
731.38	1748.97
731.56	1669.09
731.74	1720.29
731.93	1699.81
732.11	1665.00
732.29	1738.73
732.47	1798.12
732.65	1767.40
732.83	1716.20
733.01	1771.49
733.19	1732.58
733.37	1714.15
733.56	1683.43
733.74	1632.23
733.92	1775.59
734.10	1599.46
734.28	1785.83
734.46	1585.13
734.64	1693.67
734.82	1697.77
735.00	1669.09
735.18	1705.96
735.36	1720.29
735.54	1601.51
735.73	1675.24
735.91	1720.29
736.09	1734.63
736.27	1742.82
736.45	1726.44
736.63	1585.13
736.81	1673.19
736.99	1755.11
737.17	1738.73
737.35	1787.88
737.53	1722.34
737.71	1710.05
737.89	1757.16
738.07	1630.18
738.25	1695.72
738.43	1710.05
738.61	1736.68
738.80	1621.99
738.98	1665.00
739.16	1673.19
739.34	1708.01
739.52	1802.21
739.70	1802.21
739.88	1798.12
740.06	1800.16
740.24	1564.65
740.42	1763.30
740.60	1621.99
740.78	1742.82
740.96	1656.81
741.14	1718.25
741.32	1724.39
741.50	1662.95
741.68	1794.02
741.86	1859.56
742.04	1632.23
742.22	1697.77
742.40	1757.16
742.58	1751.01
742.76	1658.85
742.94	1845.22
743.12	1662.95
743.30	1679.33
743.48	1730.53
743.66	1714.15
743.84	1691.62
744.02	1714.15
744.20	1689.57
744.38	1628.14
744.56	1753.06
744.74	1855.46
744.92	1777.64
745.10	1796.07
745.28	1787.88
745.46	1861.60
745.64	1699.81
745.82	1730.53
746.00	1755.11
746.18	1800.16
746.36	1654.76
746.54	1687.53
746.72	1763.30
746.90	1636.33
747.08	1787.88
747.26	1734.63
747.44	1724.39
747.62	1714.15
747.80	1701.86
747.98	1806.31
748.15	1617.90
748.33	1849.32
748.51	1705.96
748.69	1767.40
748.87	1671.14
749.05	1660.90
749.23	1742.82
749.41	1761.25
749.59	1667.05
749.77	1697.77
749.95	1685.48
750.13	1646.57
750.31	1681.38
750.49	1708.01
750.67	1763.30
750.85	1769.44
751.03	1781.73
751.20	1806.31
751.38	1710.05
751.56	1609.70
751.74	1712.10
751.92	1775.59
752.10	1630.18
752.28	1755.11
752.46	1648.61
752.64	1699.81
752.82	1650.66
753.00	1783.78
753.18	1628.14
753.35	1732.58
753.53	1677.29
753.71	1677.29
753.89	1751.01
754.07	1650.66
754.25	1814.50
754.43	1789.92
754.61	1662.95
754.79	1669.09
754.97	1761.25
755.14	1824.74
755.32	1624.04
755.50	1796.07
755.68	1724.39
755.86	1695.72
756.04	1753.06
756.22	1593.32
756.40	1734.63
756.57	1857.51
756.75	1710.05
756.93	1765.35
757.11	1732.58
757.29	1689.57
757.47	1695.72
757.65	1605.61
757.82	1640.42
758.00	1689.57
758.18	1724.39
758.36	1656.81
758.54	1794.02
758.72	1665.00
758.90	1767.40
759.07	1773.54
759.25	1681.38
759.43	1781.73
759.61	1640.42
759.79	2207.71
759.97	1789.92
760.15	1744.87
760.32	1673.19
760.50	1789.92
760.68	1785.83
760.86	1671.14
761.04	1779.68
761.22	1722.34
761.39	1748.97
761.57	1742.82
761.75	1693.67
761.93	1693.67
762.11	1701.86
762.28	1753.06
762.46	1691.62
762.64	1804.26
762.82	1656.81
763.00	1675.24
763.18	1722.34
763.35	1662.95
763.53	1748.97
763.71	1732.58
763.89	1732.58
764.07	1783.78
764.24	1687.53
764.42	1699.81
764.60	1634.28
764.78	1697.77
764.96	1820.64
765.13	1832.93
765.31	1742.82
765.49	1712.10
765.67	1691.62
765.84	1746.92
766.02	1648.61
766.20	1660.90
766.38	1720.29
766.56	1771.49
766.73	1732.58
766.91	1734.63
767.09	1740.77
767.27	1826.79
767.44	1642.47
767.62	1763.30
767.80	1722.34
767.98	1687.53
768.15	1703.91
768.33	1751.01
768.51	1708.01
768.69	1757.16
768.87	1701.86
769.04	1695.72
769.22	1794.02
769.40	1771.49
769.58	1880.04
769.75	1716.20
769.93	1773.54
770.11	1701.86
770.28	1718.25
770.46	1705.96
770.64	1673.19
770.82	1669.09
770.99	1710.05
771.17	1810.40
771.35	1681.38
771.53	1646.57
771.70	1675.24
771.88	1728.49
772.06	1746.92
772.23	1732.58
772.41	1771.49
772.59	1777.64
772.77	1626.09
772.94	1673.19
773.12	1689.57
773.30	1652.71
773.47	1738.73
773.65	1722.34
773.83	1830.88
774.01	1669.09
774.18	1621.99
774.36	1738.73
774.54	1656.81
774.71	1691.62
774.89	1613.80
775.07	1671.14
775.24	1720.29
775.42	1654.76
775.60	1822.69
775.78	1699.81
775.95	1634.28
776.13	1644.52
776.31	1624.04
776.48	1626.09
776.66	1773.54
776.84	1695.72
777.01	1615.85
777.19	1693.67
777.37	1708.01
777.54	1748.97
777.72	1861.60
777.90	1724.39
778.07	1601.51
778.25	1814.50
778.43	1830.88
778.60	1685.48
778.78	1748.97
778.96	1806.31
779.13	1679.33
779.31	1789.92
779.49	1714.15
779.66	1718.25
779.84	1724.39
780.01	1640.42
780.19	1669.09
780.37	1791.97
780.54	1714.15
780.72	1712.10
780.90	1755.11
781.07	1685.48
781.25	1697.77
781.43	1832.93
781.60	1726.44
781.78	1751.01
781.95	1683.43
782.13	1626.09
782.31	1691.62
782.48	1710.05
782.66	1781.73
782.83	1828.84
783.01	1773.54
783.19	1691.62
783.36	1667.05
783.54	1730.53
783.72	1687.53
783.89	1619.94
784.07	1738.73
784.24	1695.72
784.42	1765.35
784.60	1699.81
784.77	1656.81
784.95	1632.23
785.12	1693.67
785.30	1732.58
785.47	1673.19
785.65	1613.80
785.83	1681.38
786.00	1736.68
786.18	1714.15
786.35	1636.33
786.53	1708.01
786.71	1734.63
786.88	1810.40
787.06	1753.06
787.23	1613.80
787.41	1662.95
787.58	1728.49
787.76	1781.73
787.94	1734.63
788.11	1701.86
788.29	1667.05
788.46	1562.60
788.64	1658.85
788.81	1695.72
788.99	1665.00
789.16	1675.24
789.34	1687.53
789.52	1665.00
789.69	1720.29
789.87	1638.38
790.04	1728.49
790.22	1683.43
790.39	1873.89
790.57	1671.14
790.74	1746.92
790.92	1769.44
791.09	1636.33
791.27	1714.15
791.44	1789.92
791.62	1724.39
791.79	1843.17
791.97	1757.16
792.15	1853.41
792.32	1746.92
792.50	1785.83
792.67	1800.16
792.85	1746.92
793.02	1767.40
793.20	1652.71
793.37	1679.33
793.55	1689.57
793.72	1710.05
793.90	1742.82
794.07	1646.57
794.25	1744.87
794.42	1697.77
794.60	1736.68
794.77	1767.40
794.95	1732.58
795.12	1734.63
795.30	1677.29
795.47	1613.80
795.65	1904.61
795.82	1677.29
796.00	1585.13
796.17	1761.25
796.34	1669.09
796.52	1740.77
796.69	1783.78
796.87	1746.92
797.04	1736.68
797.22	1812.45
797.39	1738.73
797.57	1710.05
797.74	1683.43
797.92	1796.07
798.09	1630.18
798.27	1734.63
798.44	1794.02
798.62	1714.15
798.79	1742.82
798.96	1699.81
799.14	1718.25
799.31	1843.17
799.49	1628.14
799.66	1652.71
799.84	1656.81
800.01	1658.85
800.19	1695.72
800.36	1650.66
800.53	1761.25
800.71	1728.49
800.88	1757.16
801.06	1695.72
801.23	1771.49
801.41	1697.77
801.58	1646.57
801.75	1691.62
801.93	1759.21
802.10	1740.77
802.28	1681.38
802.45	1677.29
802.63	1832.93
802.80	1816.55
802.97	1720.29
803.15	1691.62
803.32	1685.48
803.50	1703.91
803.67	1667.05
803.84	1624.04
804.02	1748.97
804.19	1712.10
804.37	1626.09
804.54	1624.04
804.71	1669.09
804.89	1708.01
805.06	1660.90
805.24	1660.90
805.41	1650.66
805.58	1683.43
805.76	1845.22
805.93	1679.33
806.10	1738.73
806.28	1744.87
806.45	1724.39
806.63	1665.00
806.80	1648.61
806.97	1785.83
807.15	1732.58
807.32	1681.38
807.49	1779.68
807.67	1597.42
807.84	1724.39
808.01	1654.76
808.19	1832.93
808.36	1851.36
808.54	1646.57
808.71	1609.70
808.88	1693.67
809.06	1763.30
809.23	1851.36
809.40	1671.14
809.58	1791.97
809.75	1701.86
809.92	1693.67
810.10	1798.12
810.27	1730.53
810.44	1759.21
810.62	1814.50
810.79	1746.92
810.96	1689.57
811.14	1636.33
811.31	1650.66
811.48	1722.34
811.66	1748.97
811.83	1728.49
812.00	1722.34
812.18	1814.50
812.35	1898.47
812.52	1615.85
812.69	1722.34
812.87	1687.53
813.04	1697.77
813.21	1722.34
813.39	1724.39
813.56	1660.90
813.73	1703.91
813.91	1630.18
814.08	1681.38
814.25	1804.26
814.42	1626.09
814.60	1744.87
814.77	1683.43
814.94	1695.72
815.12	1673.19
815.29	1787.88
815.46	1691.62
815.63	1695.72
815.81	1640.42
815.98	1595.37
816.15	1730.53
816.33	1748.97
816.50	1697.77
816.67	1691.62
816.84	1781.73
817.02	1628.14
817.19	1695.72
817.36	1726.44
817.53	1779.68
817.71	1644.52
817.88	1726.44
818.05	1669.09
818.22	1619.94
818.40	1738.73
818.57	1669.09
818.74	1736.68
818.91	1656.81
819.09	1656.81
819.26	1796.07
819.43	1650.66
819.60	1673.19
819.78	1705.96
819.95	1796.07
820.12	1730.53
820.29	1751.01
820.47	1779.68
820.64	1652.71
820.81	1611.75
820.98	1662.95
821.15	1681.38
821.33	1789.92
821.50	1601.51
821.67	1746.92
821.84	1708.01
822.02	1804.26
822.19	1665.00
822.36	1662.95
822.53	1708.01
822.70	1689.57
822.88	1638.38
823.05	1742.82
823.22	1759.21
823.39	1730.53
823.56	1763.30
823.74	1767.40
823.91	1626.09
824.08	1662.95
824.25	1660.90
824.42	1814.50
824.60	1705.96
824.77	1796.07
824.94	1685.48
825.11	1705.96
825.28	1538.02
825.45	1738.73
825.63	1773.54
825.80	1681.38
825.97	1681.38
826.14	1712.10
826.31	1642.47
826.48	1800.16
826.66	1677.29
826.83	1699.81
827.00	1712.10
827.17	1636.33
827.34	1740.77
827.51	1699.81
827.69	1689.57
827.86	1638.38
828.03	1724.39
828.20	1759.21
828.37	1697.77
828.54	1789.92
828.71	1632.23
828.89	1802.21
829.06	1667.05
829.23	1804.26
829.40	1660.90
829.57	1705.96
829.74	1775.59
829.91	1675.24
830.09	1695.72
830.26	1705.96
830.43	1798.12
830.60	1658.85
830.77	1761.25
830.94	1722.34
831.11	1767.40
831.28	1732.58
831.46	1820.64
831.63	1685.48
831.80	1734.63
831.97	1603.56
832.14	1695.72
832.31	1800.16
832.48	1744.87
832.65	1699.81
832.82	1755.11
832.99	1730.53
833.17	1626.09
833.34	1843.17
833.51	1822.69
833.68	1593.32
833.85	1822.69
834.02	1669.09
834.19	1626.09
834.36	1658.85
834.53	1705.96
834.70	1746.92
834.87	1710.05
835.04	1708.01
835.22	1726.44
835.39	1712.10
835.56	1650.66
835.73	1662.95
835.90	1761.25
836.07	1722.34
836.24	1738.73
836.41	1566.70
836.58	1660.90
836.75	1785.83
836.92	1734.63
837.09	1611.75
837.26	1691.62
837.43	1787.88
837.60	1761.25
837.77	1687.53
837.94	1726.44
838.12	1738.73
838.29	1732.58
838.46	1665.00
838.63	1669.09
838.80	1798.12
838.97	1783.78
839.14	1734.63
839.31	1753.06
839.48	1722.34
839.65	1675.24
839.82	1787.88
839.99	1769.44
840.16	1685.48
840.33	1718.25
840.50	1771.49
840.67	1652.71
840.84	1538.02
841.01	1746.92
841.18	1677.29
841.35	1722.34
841.52	1732.58
841.69	1855.46
841.86	1757.16
842.03	1656.81
842.20	1783.78
842.37	1656.81
842.54	1691.62
842.71	1761.25
842.88	1570.79
843.05	1732.58
843.22	1683.43
843.39	1759.21
843.56	1673.19
843.73	1730.53
843.90	1677.29
844.07	1742.82
844.24	1845.22
844.41	1685.48
844.58	1646.57
844.75	1632.23
844.92	1746.92
845.09	1654.76
845.26	1673.19
845.43	1814.50
845.60	1621.99
845.77	1759.21
845.94	1648.61
846.10	1761.25
846.27	1578.98
846.44	1701.86
846.61	1718.25
846.78	1759.21
846.95	1751.01
847.12	1665.00
847.29	1742.82
847.46	1624.04
847.63	1837.03
847.80	1695.72
847.97	1718.25
848.14	1918.95
848.31	1662.95
848.48	1603.56
848.65	1660.90
848.82	1693.67
848.98	1935.33
849.15	1703.91
849.32	1742.82
849.49	1746.92
849.66	1691.62
849.83	1685.48
850.00	1640.42
850.17	1736.68
850.34	1697.77
850.51	1705.96
850.68	1640.42
850.85	1875.94
851.01	1685.48
851.18	1759.21
851.35	1679.33
851.52	1730.53
851.69	1720.29
851.86	1632.23
852.03	1681.38
852.20	1804.26
852.37	1779.68
852.53	1603.56
852.70	1714.15
852.87	1697.77
853.04	1759.21
853.21	1742.82
853.38	1722.34
853.55	1837.03
853.72	1775.59
853.89	1648.61
854.05	1662.95
854.22	1705.96
854.39	1779.68
854.56	1740.77
854.73	1722.34
854.90	1624.04
855.07	1744.87
855.23	1632.23
855.40	1662.95
855.57	1665.00
855.74	1621.99
855.91	1863.65
856.08	1619.94
856.25	1705.96
856.41	1652.71
856.58	1640.42
856.75	1775.59
856.92	1691.62
857.09	1736.68
857.26	1613.80
857.42	1779.68
857.59	1783.78
857.76	1683.43
857.93	1720.29
858.10	1755.11
858.27	1667.05
858.43	1742.82
858.60	1634.28
858.77	1652.71
858.94	1662.95
859.11	1771.49
859.27	1675.24
859.44	1724.39
859.61	1933.28
859.78	1660.90
859.95	1746.92
860.12	1650.66
860.28	1814.50
860.45	1810.40
860.62	1683.43
860.79	1746.92
860.95	1648.61
861.12	1660.90
861.29	1662.95
861.46	1632.23
861.63	1712.10
861.79	1656.81
861.96	1601.51
862.13	1746.92
862.30	1796.07
862.47	1667.05
862.63	1734.63
862.80	1746.92
862.97	1722.34
863.14	1710.05
863.30	1675.24
863.47	1693.67
863.64	1787.88
863.81	1771.49
863.97	1675.24
864.14	1710.05
864.31	1771.49
864.48	1667.05
864.65	1699.81
864.81	1775.59
864.98	1808.36
865.15	1695.72
865.32	1662.95
865.48	1800.16
865.65	1800.16
865.82	1624.04
865.98	1697.77
866.15	1769.44
866.32	1748.97
866.49	1683.43
866.65	1822.69
866.82	1648.61
866.99	1722.34
867.16	1722.34
867.32	1634.28
867.49	1726.44
867.66	1658.85
867.83	1685.48
867.99	1611.75
868.16	1662.95
868.33	1591.27
868.49	1701.86
868.66	1675.24
868.83	1748.97
868.99	1710.05
869.16	1769.44
869.33	1796.07
869.50	1775.59
869.66	1632.23
869.83	1660.90
870.00	1697.77
870.16	1726.44
870.33	1718.25
870.50	1794.02
870.66	1712.10
870.83	1812.45
871.00	1812.45
871.17	1789.92
871.33	1800.16
871.50	1728.49
871.67	1644.52
871.83	1675.24
872.00	1804.26
872.17	1656.81
872.33	1746.92
872.50	1724.39
872.67	1652.71
872.83	1687.53
873.00	1699.81
873.17	1689.57
873.33	1785.83
873.50	1781.73
873.67	1740.77
873.83	1615.85
874.00	1671.14
874.16	1757.16
874.33	1722.34
874.50	1662.95
874.66	1824.74
874.83	1701.86
875.00	1724.39
875.16	1701.86
875.33	1791.97
875.50	1607.66
875.66	1699.81
875.83	1734.63
875.99	1777.64
876.16	1679.33
876.33	1662.95
876.49	1705.96
876.66	1685.48
876.83	1685.48
876.99	1665.00
877.16	1675.24
877.32	1646.57
877.49	1705.96
877.66	1740.77
877.82	1726.44
877.99	1685.48
878.15	1679.33
878.32	1705.96
878.49	1812.45
878.65	1675.24
878.82	1769.44
878.98	1648.61
879.15	1767.40
879.32	1871.84
879.48	1691.62
879.65	1701.86
879.81	1667.05
879.98	1656.81
880.15	1693.67
880.31	1775.59
880.48	1613.80
880.64	1789.92
880.81	1734.63
880.97	1767.40
881.14	1773.54
881.31	1591.27
881.47	1853.41
881.64	1685.48
881.80	1656.81
881.97	1757.16
882.13	1767.40
882.30	1697.77
882.47	1693.67
882.63	1673.19
882.80	1724.39
882.96	1662.95
883.13	1794.02
883.29	1761.25
883.46	1744.87
883.62	1765.35
883.79	1689.57
883.95	1722.34
884.12	1642.47
884.29	1794.02
884.45	1755.11
884.62	1738.73
884.78	1675.24
884.95	1779.68
885.11	1685.48
885.28	1753.06
885.44	1720.29
885.61	1689.57
885.77	1744.87
885.94	1736.68
886.10	1708.01
886.27	1740.77
886.43	1820.64
886.60	1701.86
886.76	1669.09
886.93	1695.72
887.09	1763.30
887.26	1648.61
887.42	1705.96
887.59	1787.88
887.75	1826.79
887.92	1816.55
888.08	1738.73
888.25	1779.68
888.41	1742.82
888.58	1681.38
888.74	1607.66
888.91	1628.14
>>>>>End Processed Spectral Data<<<<<
