SpectraSuite Data File
++++++++++++++++++++++++++++++++++++
Date: Mon Jun 06 13:06:17 CEST 2016
User: root
Dark Spectrum Present: No
Reference Spectrum Present: No
Number of Sampled Component Spectra: 1
Spectrometers: USB4C02835
Integration Time (usec): 100000 (USB4C02835)
Spectra Averaged: 1 (USB4C02835)
Boxcar Smoothing: 0 (USB4C02835)
Correct for Electrical Dark: No (USB4C02835)
Strobe/Lamp Enabled: No (USB4C02835)
Correct for Detector Non-linearity: No (USB4C02835)
Correct for Stray Light: No (USB4C02835)
Number of Pixels in Processed Spectrum: 3648
>>>>>Begin Processed Spectral Data<<<<<
177.47	1411.05
177.69	1411.05
177.91	1411.05
178.13	1423.34
178.36	1503.21
178.58	1636.33
178.80	1687.53
179.02	1665.00
179.24	1636.33
179.46	1726.44
179.68	1662.95
179.90	1662.95
180.13	1712.10
180.35	1628.14
180.57	1660.90
180.79	1794.02
181.01	1628.14
181.23	1720.29
181.45	1751.01
181.67	1705.96
181.90	1714.15
182.12	1677.29
182.34	1589.22
182.56	1705.96
182.78	1708.01
183.00	1681.38
183.22	1656.81
183.44	1640.42
183.66	1927.14
183.89	1730.53
184.11	1697.77
184.33	1734.63
184.55	1773.54
184.77	1705.96
184.99	1714.15
185.21	1705.96
185.43	1855.46
185.65	1611.75
185.87	1691.62
186.10	1781.73
186.32	1800.16
186.54	1734.63
186.76	1734.63
186.98	1769.44
187.20	1687.53
187.42	1720.29
187.64	1652.71
187.86	1734.63
188.08	1742.82
188.30	1662.95
188.52	1712.10
188.75	1734.63
188.97	1828.84
189.19	1691.62
189.41	1689.57
189.63	1761.25
189.85	1685.48
190.07	1638.38
190.29	1710.05
190.51	1722.34
190.73	1683.43
190.95	1816.55
191.17	1679.33
191.39	1589.22
191.61	1605.61
191.84	1681.38
192.06	1763.30
192.28	1572.84
192.50	1845.22
192.72	1748.97
192.94	1624.04
193.16	1830.88
193.38	1697.77
193.60	1667.05
193.82	1701.86
194.04	1746.92
194.26	1783.78
194.48	1765.35
194.70	1765.35
194.92	1648.61
195.14	1748.97
195.36	1740.77
195.58	1732.58
195.80	1656.81
196.02	1697.77
196.24	1683.43
196.46	1748.97
196.69	1671.14
196.91	1869.80
197.13	1636.33
197.35	1634.28
197.57	1837.03
197.79	1677.29
198.01	1718.25
198.23	1730.53
198.45	1615.85
198.67	1609.70
198.89	1593.32
199.11	1675.24
199.33	1669.09
199.55	1617.90
199.77	1697.77
199.99	1699.81
200.21	1632.23
200.43	1689.57
200.65	1640.42
200.87	1558.50
201.09	1695.72
201.31	1683.43
201.53	1736.68
201.75	1701.86
201.97	1708.01
202.19	1650.66
202.41	1648.61
202.63	1736.68
202.85	1679.33
203.07	1724.39
203.29	1615.85
203.51	1722.34
203.73	1681.38
203.95	1910.75
204.17	1771.49
204.39	1683.43
204.61	1671.14
204.83	1658.85
205.05	1775.59
205.27	1697.77
205.49	1773.54
205.71	1716.20
205.93	1648.61
206.15	1677.29
206.37	1718.25
206.59	1697.77
206.81	1656.81
207.03	1611.75
207.25	1681.38
207.47	1693.67
207.69	1703.91
207.91	1767.40
208.13	1769.44
208.34	1693.67
208.56	1638.38
208.78	1703.91
209.00	1701.86
209.22	1685.48
209.44	1695.72
209.66	1705.96
209.88	1665.00
210.10	1632.23
210.32	1695.72
210.54	1771.49
210.76	1710.05
210.98	1798.12
211.20	1583.08
211.42	1722.34
211.64	1757.16
211.86	1662.95
212.08	1679.33
212.30	1660.90
212.52	1642.47
212.74	1648.61
212.96	1722.34
213.17	1712.10
213.39	1812.45
213.61	1736.68
213.83	1787.88
214.05	1673.19
214.27	1748.97
214.49	1695.72
214.71	1691.62
214.93	1742.82
215.15	1708.01
215.37	1740.77
215.59	1572.84
215.81	1726.44
216.03	1746.92
216.24	1783.78
216.46	1632.23
216.68	1699.81
216.90	1763.30
217.12	1716.20
217.34	1744.87
217.56	1798.12
217.78	1755.11
218.00	1689.57
218.22	1650.66
218.44	1699.81
218.66	1726.44
218.87	1828.84
219.09	1679.33
219.31	1738.73
219.53	1675.24
219.75	1652.71
219.97	1699.81
220.19	1712.10
220.41	1705.96
220.63	1757.16
220.85	1662.95
221.06	1628.14
221.28	1728.49
221.50	1685.48
221.72	1689.57
221.94	1705.96
222.16	1675.24
222.38	1732.58
222.60	1751.01
222.82	1632.23
223.03	1726.44
223.25	1595.37
223.47	1740.77
223.69	1705.96
223.91	1705.96
224.13	1667.05
224.35	1716.20
224.57	1697.77
224.78	1732.58
225.00	1654.76
225.22	1697.77
225.44	1806.31
225.66	1685.48
225.88	1683.43
226.10	1765.35
226.32	1697.77
226.53	1781.73
226.75	1628.14
226.97	1751.01
227.19	1783.78
227.41	1603.56
227.63	1714.15
227.85	1689.57
228.06	1650.66
228.28	1667.05
228.50	1742.82
228.72	1726.44
228.94	1665.00
229.16	1607.66
229.37	1648.61
229.59	1728.49
229.81	1746.92
230.03	1703.91
230.25	1697.77
230.47	1658.85
230.69	1624.04
230.90	1746.92
231.12	1681.38
231.34	1705.96
231.56	1736.68
231.78	1691.62
232.00	1685.48
232.21	1679.33
232.43	1605.61
232.65	1615.85
232.87	1705.96
233.09	1652.71
233.30	1626.09
233.52	1789.92
233.74	1716.20
233.96	1787.88
234.18	1724.39
234.40	1705.96
234.61	1736.68
234.83	1648.61
235.05	1624.04
235.27	1869.80
235.49	1800.16
235.70	1675.24
235.92	1779.68
236.14	1679.33
236.36	1826.79
236.58	1638.38
236.79	1751.01
237.01	1705.96
237.23	1652.71
237.45	1845.22
237.67	1638.38
237.88	1746.92
238.10	1837.03
238.32	1660.90
238.54	1718.25
238.76	1714.15
238.97	1675.24
239.19	1675.24
239.41	1667.05
239.63	1783.78
239.85	1681.38
240.06	1656.81
240.28	1665.00
240.50	1724.39
240.72	1804.26
240.93	1687.53
241.15	1818.60
241.37	1628.14
241.59	1787.88
241.81	1638.38
242.02	1773.54
242.24	1814.50
242.46	1744.87
242.68	1603.56
242.89	1705.96
243.11	1705.96
243.33	1722.34
243.55	1730.53
243.76	1656.81
243.98	1685.48
244.20	1710.05
244.42	1701.86
244.64	1697.77
244.85	1648.61
245.07	1689.57
245.29	1730.53
245.51	1675.24
245.72	1675.24
245.94	1718.25
246.16	1742.82
246.38	1716.20
246.59	1671.14
246.81	1701.86
247.03	1632.23
247.24	1609.70
247.46	1679.33
247.68	1642.47
247.90	1681.38
248.11	1628.14
248.33	1808.36
248.55	1732.58
248.77	1683.43
248.98	1822.69
249.20	1828.84
249.42	1751.01
249.64	1714.15
249.85	1722.34
250.07	1603.56
250.29	1712.10
250.50	1806.31
250.72	1669.09
250.94	1746.92
251.16	1742.82
251.37	1765.35
251.59	1705.96
251.81	1724.39
252.02	1767.40
252.24	1712.10
252.46	1748.97
252.68	1621.99
252.89	1632.23
253.11	1634.28
253.33	1773.54
253.54	1787.88
253.76	1656.81
253.98	1669.09
254.20	1783.78
254.41	1624.04
254.63	1730.53
254.85	1634.28
255.06	1697.77
255.28	1710.05
255.50	1689.57
255.71	1708.01
255.93	1578.98
256.15	1689.57
256.36	1808.36
256.58	1697.77
256.80	1724.39
257.02	1705.96
257.23	1660.90
257.45	1718.25
257.67	1763.30
257.88	1681.38
258.10	1673.19
258.32	1789.92
258.53	1708.01
258.75	1789.92
258.97	1619.94
259.18	1767.40
259.40	1667.05
259.62	1853.41
259.83	1728.49
260.05	1728.49
260.27	1988.58
260.48	1705.96
260.70	1607.66
260.92	1619.94
261.13	1691.62
261.35	1630.18
261.57	1724.39
261.78	1593.32
262.00	1665.00
262.22	1671.14
262.43	1621.99
262.65	1708.01
262.86	1646.57
263.08	1705.96
263.30	1794.02
263.51	1613.80
263.73	1673.19
263.95	1783.78
264.16	1609.70
264.38	1656.81
264.60	1787.88
264.81	1630.18
265.03	1703.91
265.25	1716.20
265.46	1736.68
265.68	1806.31
265.89	1738.73
266.11	1562.60
266.33	1765.35
266.54	1789.92
266.76	1740.77
266.98	1763.30
267.19	1724.39
267.41	1818.60
267.62	1703.91
267.84	1591.27
268.06	1751.01
268.27	1705.96
268.49	1738.73
268.70	1767.40
268.92	1724.39
269.14	1654.76
269.35	1630.18
269.57	1701.86
269.79	1724.39
270.00	1671.14
270.22	1742.82
270.43	1675.24
270.65	1581.03
270.87	1802.21
271.08	1755.11
271.30	1683.43
271.51	1753.06
271.73	1720.29
271.95	1804.26
272.16	1724.39
272.38	1593.32
272.59	1714.15
272.81	1718.25
273.02	1769.44
273.24	1683.43
273.46	1712.10
273.67	1593.32
273.89	1689.57
274.10	1656.81
274.32	1779.68
274.54	1734.63
274.75	1722.34
274.97	1599.46
275.18	1730.53
275.40	1714.15
275.61	1648.61
275.83	1705.96
276.05	1613.80
276.26	1687.53
276.48	1740.77
276.69	1675.24
276.91	1640.42
277.12	1810.40
277.34	1730.53
277.55	1687.53
277.77	1669.09
277.99	1691.62
278.20	1609.70
278.42	1650.66
278.63	1607.66
278.85	1765.35
279.06	1638.38
279.28	1685.48
279.49	1734.63
279.71	1763.30
279.93	1648.61
280.14	1712.10
280.36	1662.95
280.57	1787.88
280.79	1705.96
281.00	1634.28
281.22	1730.53
281.43	1791.97
281.65	1646.57
281.86	1644.52
282.08	1738.73
282.29	1755.11
282.51	1607.66
282.73	1640.42
282.94	1576.94
283.16	1687.53
283.37	1787.88
283.59	1712.10
283.80	1738.73
284.02	1693.67
284.23	1687.53
284.45	1654.76
284.66	1652.71
284.88	1634.28
285.09	1751.01
285.31	1683.43
285.52	1703.91
285.74	1617.90
285.95	1757.16
286.17	1755.11
286.38	1755.11
286.60	1701.86
286.81	1693.67
287.03	1726.44
287.24	1628.14
287.46	1765.35
287.67	1712.10
287.89	1779.68
288.10	1648.61
288.32	1665.00
288.53	1720.29
288.75	1693.67
288.96	1814.50
289.18	1701.86
289.39	1681.38
289.61	1738.73
289.82	1769.44
290.04	1888.23
290.25	1654.76
290.47	1701.86
290.68	1646.57
290.90	1751.01
291.11	1683.43
291.33	1775.59
291.54	1591.27
291.76	1691.62
291.97	1701.86
292.18	1724.39
292.40	1652.71
292.61	1628.14
292.83	1779.68
293.04	1714.15
293.26	1640.42
293.47	1628.14
293.69	1626.09
293.90	1658.85
294.12	1806.31
294.33	1701.86
294.55	1677.29
294.76	1738.73
294.97	1763.30
295.19	1851.36
295.40	1662.95
295.62	1736.68
295.83	1724.39
296.05	1724.39
296.26	1796.07
296.48	1644.52
296.69	1665.00
296.90	1701.86
297.12	1779.68
297.33	1742.82
297.55	1708.01
297.76	1746.92
297.98	1761.25
298.19	1675.24
298.41	1662.95
298.62	1587.18
298.83	1722.34
299.05	1755.11
299.26	1703.91
299.48	1671.14
299.69	1652.71
299.90	1712.10
300.12	1683.43
300.33	1695.72
300.55	1683.43
300.76	1720.29
300.98	1679.33
301.19	1748.97
301.40	1673.19
301.62	1789.92
301.83	1658.85
302.05	1640.42
302.26	1687.53
302.47	1781.73
302.69	1697.77
302.90	1681.38
303.12	1548.26
303.33	1757.16
303.54	1751.01
303.76	1718.25
303.97	1673.19
304.19	1771.49
304.40	1638.38
304.61	1732.58
304.83	1777.64
305.04	1789.92
305.26	1660.90
305.47	1660.90
305.68	1665.00
305.90	1609.70
306.11	1736.68
306.33	1646.57
306.54	1652.71
306.75	1673.19
306.97	1611.75
307.18	1632.23
307.39	1708.01
307.61	1746.92
307.82	1658.85
308.04	1689.57
308.25	1646.57
308.46	1681.38
308.68	1736.68
308.89	1669.09
309.10	1759.21
309.32	1728.49
309.53	1640.42
309.74	1767.40
309.96	1673.19
310.17	1673.19
310.39	1730.53
310.60	1724.39
310.81	1656.81
311.03	1675.24
311.24	1800.16
311.45	1617.90
311.67	1826.79
311.88	1710.05
312.09	1679.33
312.31	1726.44
312.52	1626.09
312.73	1691.62
312.95	1619.94
313.16	1628.14
313.37	1712.10
313.59	1703.91
313.80	1787.88
314.01	1744.87
314.23	1613.80
314.44	1576.94
314.65	1628.14
314.87	1722.34
315.08	1730.53
315.29	1626.09
315.51	1699.81
315.72	1578.98
315.93	1777.64
316.15	1759.21
316.36	1656.81
316.57	1730.53
316.79	1783.78
317.00	1699.81
317.21	1685.48
317.43	1636.33
317.64	1740.77
317.85	1667.05
318.07	1701.86
318.28	1718.25
318.49	1751.01
318.70	1877.99
318.92	1851.36
319.13	1818.60
319.34	1837.03
319.56	1798.12
319.77	1714.15
319.98	1820.64
320.20	1753.06
320.41	1761.25
320.62	1730.53
320.83	1640.42
321.05	1841.12
321.26	1794.02
321.47	1736.68
321.69	1841.12
321.90	1714.15
322.11	1640.42
322.32	1714.15
322.54	1802.21
322.75	1609.70
322.96	1728.49
323.18	1656.81
323.39	1656.81
323.60	1679.33
323.81	1738.73
324.03	1691.62
324.24	1718.25
324.45	1683.43
324.66	1687.53
324.88	1716.20
325.09	1708.01
325.30	1722.34
325.52	1669.09
325.73	1714.15
325.94	1654.76
326.15	1634.28
326.37	1730.53
326.58	1808.36
326.79	1773.54
327.00	1654.76
327.22	1673.19
327.43	1654.76
327.64	1632.23
327.85	1656.81
328.07	1769.44
328.28	1783.78
328.49	1650.66
328.70	1748.97
328.92	1681.38
329.13	1685.48
329.34	1695.72
329.55	1814.50
329.76	1753.06
329.98	1638.38
330.19	1775.59
330.40	1716.20
330.61	1722.34
330.83	1730.53
331.04	1671.14
331.25	1701.86
331.46	1636.33
331.68	1585.13
331.89	1773.54
332.10	1624.04
332.31	1697.77
332.52	1722.34
332.74	1826.79
332.95	1652.71
333.16	1683.43
333.37	1779.68
333.58	1689.57
333.80	1740.77
334.01	1617.90
334.22	1669.09
334.43	1685.48
334.64	1763.30
334.86	1603.56
335.07	1605.61
335.28	1826.79
335.49	1650.66
335.70	1708.01
335.92	1796.07
336.13	1796.07
336.34	1673.19
336.55	1673.19
336.76	1617.90
336.98	1632.23
337.19	1708.01
337.40	1769.44
337.61	1767.40
337.82	1660.90
338.04	1720.29
338.25	1609.70
338.46	1671.14
338.67	1665.00
338.88	1617.90
339.09	1595.37
339.31	1644.52
339.52	1574.89
339.73	1636.33
339.94	1660.90
340.15	1740.77
340.36	1648.61
340.58	1656.81
340.79	1667.05
341.00	1736.68
341.21	1566.70
341.42	1710.05
341.63	1636.33
341.85	1722.34
342.06	1820.64
342.27	1648.61
342.48	1753.06
342.69	1597.42
342.90	1751.01
343.12	1681.38
343.33	1705.96
343.54	1720.29
343.75	1800.16
343.96	1675.24
344.17	1748.97
344.38	1689.57
344.60	1691.62
344.81	1673.19
345.02	1634.28
345.23	1738.73
345.44	1748.97
345.65	1697.77
345.86	1791.97
346.07	1722.34
346.29	1660.90
346.50	1800.16
346.71	1699.81
346.92	1718.25
347.13	1828.84
347.34	1648.61
347.55	1679.33
347.76	1748.97
347.98	1609.70
348.19	1628.14
348.40	1769.44
348.61	1730.53
348.82	1802.21
349.03	1742.82
349.24	1613.80
349.45	1804.26
349.66	1634.28
349.88	1665.00
350.09	1636.33
350.30	1650.66
350.51	1712.10
350.72	1769.44
350.93	1718.25
351.14	1648.61
351.35	1708.01
351.56	1710.05
351.77	1669.09
351.99	1734.63
352.20	1779.68
352.41	1761.25
352.62	1587.18
352.83	1681.38
353.04	1701.86
353.25	1699.81
353.46	1810.40
353.67	1708.01
353.88	1576.94
354.09	1652.71
354.30	1777.64
354.52	1714.15
354.73	1648.61
354.94	1673.19
355.15	1759.21
355.36	1800.16
355.57	1714.15
355.78	1673.19
355.99	1718.25
356.20	1730.53
356.41	1730.53
356.62	1699.81
356.83	1675.24
357.04	1757.16
357.25	1656.81
357.46	1724.39
357.68	1558.50
357.89	1652.71
358.10	1642.47
358.31	1685.48
358.52	1658.85
358.73	1613.80
358.94	1683.43
359.15	1595.37
359.36	1701.86
359.57	1652.71
359.78	1675.24
359.99	1722.34
360.20	1701.86
360.41	1685.48
360.62	1665.00
360.83	1685.48
361.04	1746.92
361.25	1759.21
361.46	1908.71
361.67	1728.49
361.88	1703.91
362.09	1732.58
362.30	1746.92
362.51	1697.77
362.72	1689.57
362.93	1724.39
363.14	1671.14
363.35	1687.53
363.56	1714.15
363.78	1818.60
363.99	1722.34
364.20	1630.18
364.41	1683.43
364.62	1775.59
364.83	1693.67
365.04	1658.85
365.25	1685.48
365.46	1773.54
365.67	1638.38
365.88	1675.24
366.09	1757.16
366.30	1656.81
366.51	1601.51
366.72	1697.77
366.93	1644.52
367.14	1724.39
367.35	1806.31
367.56	1701.86
367.77	1789.92
367.98	1720.29
368.18	1656.81
368.39	1755.11
368.60	1667.05
368.81	1683.43
369.02	1710.05
369.23	1736.68
369.44	1593.32
369.65	1724.39
369.86	1748.97
370.07	1677.29
370.28	1730.53
370.49	1730.53
370.70	1689.57
370.91	1673.19
371.12	1615.85
371.33	1810.40
371.54	1689.57
371.75	1812.45
371.96	1597.42
372.17	1701.86
372.38	1755.11
372.59	1789.92
372.80	1685.48
373.01	1673.19
373.22	1728.49
373.43	1671.14
373.64	1656.81
373.85	1695.72
374.06	1816.55
374.26	1734.63
374.47	1656.81
374.68	1832.93
374.89	1683.43
375.10	1714.15
375.31	1748.97
375.52	1648.61
375.73	1662.95
375.94	1628.14
376.15	1798.12
376.36	1703.91
376.57	1658.85
376.78	1658.85
376.99	1740.77
377.20	1787.88
377.40	1656.81
377.61	1869.80
377.82	1632.23
378.03	1781.73
378.24	1714.15
378.45	1673.19
378.66	1683.43
378.87	1650.66
379.08	1615.85
379.29	1626.09
379.50	1781.73
379.71	1626.09
379.91	1824.74
380.12	1744.87
380.33	1763.30
380.54	1738.73
380.75	1718.25
380.96	1691.62
381.17	1722.34
381.38	1767.40
381.59	1728.49
381.80	1748.97
382.00	1906.66
382.21	1677.29
382.42	1820.64
382.63	1800.16
382.84	1767.40
383.05	1757.16
383.26	1800.16
383.47	1804.26
383.68	1718.25
383.88	1800.16
384.09	1681.38
384.30	1800.16
384.51	1708.01
384.72	1687.53
384.93	1615.85
385.14	1751.01
385.35	1730.53
385.55	1607.66
385.76	1787.88
385.97	1705.96
386.18	1595.37
386.39	1658.85
386.60	1644.52
386.81	1746.92
387.02	1593.32
387.22	1656.81
387.43	1785.83
387.64	1728.49
387.85	1918.95
388.06	2263.01
388.27	4218.82
388.48	6664.09
388.68	8169.35
388.89	9478.00
389.10	9727.85
389.31	8472.45
389.52	7798.66
389.73	6688.67
389.93	6305.70
390.14	5949.35
390.35	5162.93
390.56	4702.14
390.77	3913.67
390.98	3063.76
391.18	2541.53
391.39	2158.56
391.60	1810.40
391.81	1847.27
392.02	1724.39
392.23	1837.03
392.43	1718.25
392.64	1789.92
392.85	1708.01
393.06	1857.51
393.27	1714.15
393.47	1665.00
393.68	1681.38
393.89	1755.11
394.10	1753.06
394.31	1679.33
394.52	1658.85
394.72	1660.90
394.93	1746.92
395.14	1658.85
395.35	1665.00
395.56	1681.38
395.76	1759.21
395.97	1822.69
396.18	1738.73
396.39	1828.84
396.60	2033.63
396.80	1800.16
397.01	1847.27
397.22	1849.32
397.43	1832.93
397.64	1734.63
397.84	1738.73
398.05	1826.79
398.26	1759.21
398.47	1712.10
398.67	1820.64
398.88	1693.67
399.09	1738.73
399.30	1679.33
399.51	1744.87
399.71	1644.52
399.92	1578.98
400.13	1699.81
400.34	1730.53
400.54	1720.29
400.75	1794.02
400.96	1728.49
401.17	1765.35
401.37	1726.44
401.58	1656.81
401.79	1755.11
402.00	1859.56
402.21	2041.82
402.41	1925.09
402.62	2068.45
402.83	2033.63
403.04	2058.21
403.24	2088.93
403.45	1865.70
403.66	1851.36
403.87	1910.75
404.07	1816.55
404.28	1959.91
404.49	1877.99
404.70	1777.64
404.90	1757.16
405.11	1757.16
405.32	1763.30
405.52	1724.39
405.73	1677.29
405.94	1665.00
406.15	1714.15
406.35	1761.25
406.56	1800.16
406.77	1718.25
406.98	1771.49
407.18	1675.24
407.39	1783.78
407.60	1613.80
407.80	1738.73
408.01	1624.04
408.22	1744.87
408.43	1611.75
408.63	1787.88
408.84	1675.24
409.05	1722.34
409.25	1589.22
409.46	1644.52
409.67	1640.42
409.88	1691.62
410.08	1763.30
410.29	1648.61
410.50	1787.88
410.70	1673.19
410.91	1626.09
411.12	1757.16
411.32	1789.92
411.53	1677.29
411.74	1705.96
411.95	1771.49
412.15	1841.12
412.36	1708.01
412.57	1742.82
412.77	1738.73
412.98	1716.20
413.19	1642.47
413.39	1712.10
413.60	1806.31
413.81	1880.04
414.01	1644.52
414.22	1771.49
414.43	1683.43
414.63	1660.90
414.84	1744.87
415.05	1738.73
415.25	1665.00
415.46	1710.05
415.67	1691.62
415.87	1669.09
416.08	1689.57
416.29	1714.15
416.49	1751.01
416.70	1665.00
416.91	1581.03
417.11	1742.82
417.32	1746.92
417.53	1769.44
417.73	1638.38
417.94	1728.49
418.15	1636.33
418.35	1712.10
418.56	1689.57
418.77	1832.93
418.97	1671.14
419.18	1757.16
419.38	1560.55
419.59	1652.71
419.80	1816.55
420.00	1660.90
420.21	1771.49
420.42	1689.57
420.62	1740.77
420.83	1648.61
421.04	1646.57
421.24	1734.63
421.45	1787.88
421.65	1773.54
421.86	1681.38
422.07	1714.15
422.27	1685.48
422.48	1656.81
422.69	1761.25
422.89	1681.38
423.10	1716.20
423.30	1710.05
423.51	1740.77
423.72	1679.33
423.92	1671.14
424.13	1603.56
424.33	1665.00
424.54	1730.53
424.75	1724.39
424.95	1789.92
425.16	1775.59
425.36	1712.10
425.57	1763.30
425.78	1734.63
425.98	1726.44
426.19	1675.24
426.39	1658.85
426.60	1785.83
426.81	1781.73
427.01	1705.96
427.22	1669.09
427.42	1646.57
427.63	1630.18
427.83	1773.54
428.04	1837.03
428.25	1834.98
428.45	1775.59
428.66	1789.92
428.86	1662.95
429.07	1669.09
429.28	1759.21
429.48	1691.62
429.69	1697.77
429.89	1783.78
430.10	1609.70
430.30	1693.67
430.51	1681.38
430.71	1683.43
430.92	1699.81
431.13	1634.28
431.33	1656.81
431.54	1699.81
431.74	1808.36
431.95	1806.31
432.15	1624.04
432.36	1701.86
432.56	1763.30
432.77	1759.21
432.98	1865.70
433.18	1718.25
433.39	1710.05
433.59	1630.18
433.80	1761.25
434.00	1812.45
434.21	1665.00
434.41	1716.20
434.62	1839.08
434.82	1630.18
435.03	1628.14
435.23	1794.02
435.44	1638.38
435.64	1763.30
435.85	1673.19
436.06	1730.53
436.26	1751.01
436.47	1722.34
436.67	1695.72
436.88	1652.71
437.08	1683.43
437.29	1779.68
437.49	1718.25
437.70	1773.54
437.90	1718.25
438.11	1851.36
438.31	1796.07
438.52	1845.22
438.72	1812.45
438.93	1902.56
439.13	1787.88
439.34	1832.93
439.54	1705.96
439.75	1822.69
439.95	1703.91
440.16	1738.73
440.36	1710.05
440.57	1714.15
440.77	1691.62
440.98	1726.44
441.18	1722.34
441.39	1689.57
441.59	1720.29
441.80	1804.26
442.00	1691.62
442.21	1796.07
442.41	1712.10
442.62	1781.73
442.82	1648.61
443.02	1701.86
443.23	1759.21
443.43	1665.00
443.64	1814.50
443.84	1677.29
444.05	1755.11
444.25	1724.39
444.46	1716.20
444.66	1683.43
444.87	1837.03
445.07	1656.81
445.28	1773.54
445.48	1806.31
445.69	1746.92
445.89	1830.88
446.09	1746.92
446.30	2000.87
446.50	2703.32
446.71	3643.34
446.91	4351.93
447.12	4695.99
447.32	4765.62
447.53	4456.38
447.73	3821.51
447.93	3569.61
448.14	3280.85
448.34	3198.93
448.55	2947.03
448.75	2813.91
448.96	2605.02
449.16	2439.13
449.36	2275.29
449.57	2002.91
449.77	1980.39
449.98	1814.50
450.18	1837.03
450.39	1888.23
450.59	1785.83
450.79	1787.88
451.00	1751.01
451.20	1794.02
451.41	1732.58
451.61	1773.54
451.81	1794.02
452.02	1648.61
452.22	1724.39
452.43	1712.10
452.63	1624.04
452.84	1701.86
453.04	1730.53
453.24	1722.34
453.45	1691.62
453.65	1722.34
453.86	1738.73
454.06	1773.54
454.26	1753.06
454.47	1667.05
454.67	1830.88
454.87	1755.11
455.08	1806.31
455.28	1888.23
455.49	1791.97
455.69	1693.67
455.89	1847.27
456.10	1841.12
456.30	1681.38
456.51	1759.21
456.71	1773.54
456.91	1687.53
457.12	1779.68
457.32	1683.43
457.52	1759.21
457.73	1783.78
457.93	1662.95
458.14	1734.63
458.34	1665.00
458.54	1710.05
458.75	1738.73
458.95	1798.12
459.15	1714.15
459.36	1748.97
459.56	1806.31
459.76	1744.87
459.97	1732.58
460.17	1771.49
460.37	1796.07
460.58	1642.47
460.78	1730.53
460.99	1771.49
461.19	1636.33
461.39	1691.62
461.60	1675.24
461.80	1718.25
462.00	1624.04
462.21	1685.48
462.41	1652.71
462.61	1597.42
462.82	1626.09
463.02	1751.01
463.22	1693.67
463.43	1787.88
463.63	1769.44
463.83	1841.12
464.04	1722.34
464.24	1751.01
464.44	1624.04
464.64	1783.78
464.85	1718.25
465.05	1898.47
465.25	1730.53
465.46	1728.49
465.66	1757.16
465.86	1767.40
466.07	1720.29
466.27	1701.86
466.47	1718.25
466.68	1675.24
466.88	1806.31
467.08	1794.02
467.29	1710.05
467.49	1722.34
467.69	1650.66
467.89	1671.14
468.10	1708.01
468.30	1771.49
468.50	1832.93
468.71	1722.34
468.91	1556.46
469.11	1886.18
469.31	1732.58
469.52	1703.91
469.72	1820.64
469.92	1867.75
470.13	1722.34
470.33	1742.82
470.53	1828.84
470.73	2025.44
470.94	2281.44
471.14	2340.83
471.34	2418.65
471.54	2465.75
471.75	2138.08
471.95	2121.70
472.15	2123.74
472.36	2076.64
472.56	2084.83
472.76	2054.11
472.96	1941.47
473.17	1869.80
473.37	1925.09
473.57	1818.60
473.77	1843.17
473.98	1689.57
474.18	1720.29
474.38	1980.39
474.58	1708.01
474.79	1703.91
474.99	1738.73
475.19	1796.07
475.39	1634.28
475.60	1701.86
475.80	1765.35
476.00	1730.53
476.20	1716.20
476.41	1744.87
476.61	1796.07
476.81	1712.10
477.01	1638.38
477.21	1906.66
477.42	1837.03
477.62	1689.57
477.82	1767.40
478.02	1705.96
478.23	1775.59
478.43	1677.29
478.63	1705.96
478.83	1753.06
479.03	1695.72
479.24	1820.64
479.44	1820.64
479.64	1703.91
479.84	1642.47
480.04	1667.05
480.25	1757.16
480.45	1665.00
480.65	1738.73
480.85	1734.63
481.06	1705.96
481.26	1720.29
481.46	1779.68
481.66	1728.49
481.86	1636.33
482.06	1808.36
482.27	1730.53
482.47	1771.49
482.67	1660.90
482.87	1708.01
483.07	1712.10
483.28	1656.81
483.48	1718.25
483.68	1746.92
483.88	1662.95
484.08	1550.31
484.29	1601.51
484.49	1695.72
484.69	1634.28
484.89	1740.77
485.09	1822.69
485.29	1779.68
485.50	1685.48
485.70	1695.72
485.90	1732.58
486.10	1824.74
486.30	1761.25
486.50	1728.49
486.71	1769.44
486.91	1794.02
487.11	1732.58
487.31	1677.29
487.51	1746.92
487.71	1644.52
487.91	1626.09
488.12	1628.14
488.32	1603.56
488.52	1732.58
488.72	1654.76
488.92	1722.34
489.12	1689.57
489.32	1832.93
489.53	1726.44
489.73	1562.60
489.93	1785.83
490.13	1630.18
490.33	1624.04
490.53	1701.86
490.73	1718.25
490.94	1679.33
491.14	1732.58
491.34	1759.21
491.54	2138.08
491.74	2570.20
491.94	2879.44
492.14	2983.89
492.34	3014.61
492.54	2727.89
492.75	2535.39
492.95	2437.08
493.15	2330.59
493.35	2209.76
493.55	2207.71
493.75	2199.52
493.95	2185.18
494.15	2027.49
494.35	1949.67
494.56	1804.26
494.76	1740.77
494.96	1802.21
495.16	1751.01
495.36	1691.62
495.56	1767.40
495.76	1748.97
495.96	1751.01
496.16	1673.19
496.36	1783.78
496.56	1757.16
496.77	1714.15
496.97	1673.19
497.17	1875.94
497.37	1665.00
497.57	1804.26
497.77	1693.67
497.97	1611.75
498.17	1716.20
498.37	1673.19
498.57	1716.20
498.77	1667.05
498.97	1703.91
499.17	1779.68
499.38	1689.57
499.58	1755.11
499.78	1783.78
499.98	1826.79
500.18	1677.29
500.38	1681.38
500.58	1853.41
500.78	2570.20
500.98	4503.48
501.18	5746.60
501.38	6746.01
501.58	6932.37
501.78	6596.51
501.98	5480.36
502.18	4992.95
502.38	4388.80
502.58	4054.98
502.78	3780.55
502.98	3708.87
503.18	3383.24
503.38	3266.51
503.59	2852.82
503.79	2635.74
503.99	2516.95
504.19	2234.33
504.39	2197.47
504.59	2140.13
504.79	2156.51
504.99	1964.00
505.19	1894.37
505.39	1890.28
505.59	2011.11
505.79	1855.46
505.99	1816.55
506.19	1740.77
506.39	1773.54
506.59	1783.78
506.79	1767.40
506.99	1810.40
507.19	1693.67
507.39	1761.25
507.59	1665.00
507.79	1617.90
507.99	1693.67
508.19	1794.02
508.39	1789.92
508.59	1712.10
508.79	1834.98
508.99	1867.75
509.19	1681.38
509.39	1736.68
509.59	1624.04
509.79	1677.29
509.99	1738.73
510.19	1761.25
510.39	1679.33
510.59	1718.25
510.79	1765.35
510.99	1665.00
511.19	1751.01
511.39	1814.50
511.59	1777.64
511.79	1834.98
511.99	1742.82
512.19	1832.93
512.38	1703.91
512.58	1701.86
512.78	1679.33
512.98	1828.84
513.18	1742.82
513.38	1636.33
513.58	1740.77
513.78	1742.82
513.98	1730.53
514.18	1765.35
514.38	1734.63
514.58	1720.29
514.78	1677.29
514.98	1675.24
515.18	1771.49
515.38	1617.90
515.58	1779.68
515.78	1695.72
515.98	1736.68
516.18	1751.01
516.38	1738.73
516.57	1728.49
516.77	1611.75
516.97	1832.93
517.17	1703.91
517.37	1626.09
517.57	1722.34
517.77	1722.34
517.97	1665.00
518.17	1828.84
518.37	1724.39
518.57	1689.57
518.77	1746.92
518.97	1669.09
519.16	1814.50
519.36	1796.07
519.56	1740.77
519.76	1701.86
519.96	1732.58
520.16	1783.78
520.36	1712.10
520.56	1757.16
520.76	1665.00
520.96	1742.82
521.16	1714.15
521.35	1781.73
521.55	1871.84
521.75	1724.39
521.95	1673.19
522.15	1720.29
522.35	1722.34
522.55	1660.90
522.75	1771.49
522.95	1718.25
523.14	1665.00
523.34	1736.68
523.54	1730.53
523.74	1769.44
523.94	1763.30
524.14	1667.05
524.34	1748.97
524.54	1787.88
524.73	1681.38
524.93	1775.59
525.13	1716.20
525.33	1665.00
525.53	1906.66
525.73	1826.79
525.93	1722.34
526.13	1695.72
526.32	1722.34
526.52	1804.26
526.72	1771.49
526.92	1697.77
527.12	1738.73
527.32	1695.72
527.52	1755.11
527.71	1744.87
527.91	1746.92
528.11	1761.25
528.31	1763.30
528.51	1683.43
528.71	1781.73
528.90	1701.86
529.10	1822.69
529.30	1810.40
529.50	1619.94
529.70	1746.92
529.90	1722.34
530.09	1697.77
530.29	1673.19
530.49	1728.49
530.69	1828.84
530.89	1791.97
531.09	1673.19
531.28	1714.15
531.48	1748.97
531.68	1701.86
531.88	1716.20
532.08	1773.54
532.28	1603.56
532.47	1828.84
532.67	1767.40
532.87	1677.29
533.07	1626.09
533.27	1753.06
533.46	1699.81
533.66	1681.38
533.86	1769.44
534.06	1714.15
534.26	1757.16
534.45	1685.48
534.65	1730.53
534.85	1753.06
535.05	1703.91
535.25	1800.16
535.44	1683.43
535.64	1753.06
535.84	1726.44
536.04	1761.25
536.24	1689.57
536.43	1802.21
536.63	1708.01
536.83	1689.57
537.03	1736.68
537.22	1658.85
537.42	1705.96
537.62	1738.73
537.82	1695.72
538.02	1841.12
538.21	1841.12
538.41	1877.99
538.61	1783.78
538.81	1732.58
539.00	1871.84
539.20	1652.71
539.40	1757.16
539.60	1789.92
539.79	1765.35
539.99	1658.85
540.19	1665.00
540.39	1681.38
540.58	1775.59
540.78	1812.45
540.98	1724.39
541.18	1814.50
541.37	1859.56
541.57	1798.12
541.77	1751.01
541.97	1656.81
542.16	1681.38
542.36	1679.33
542.56	1808.36
542.76	1910.75
542.95	1738.73
543.15	1798.12
543.35	1882.08
543.54	1683.43
543.74	1691.62
543.94	1789.92
544.14	1740.77
544.33	1804.26
544.53	1763.30
544.73	1773.54
544.93	1687.53
545.12	1734.63
545.32	1718.25
545.52	1712.10
545.71	1677.29
545.91	1681.38
546.11	1830.88
546.30	1673.19
546.50	1701.86
546.70	1761.25
546.90	1669.09
547.09	1609.70
547.29	1755.11
547.49	1732.58
547.68	1775.59
547.88	1691.62
548.08	1775.59
548.27	2185.18
548.47	1656.81
548.67	1656.81
548.87	1806.31
549.06	1710.05
549.26	1722.34
549.46	1765.35
549.65	1705.96
549.85	1779.68
550.05	1804.26
550.24	1677.29
550.44	1765.35
550.64	1757.16
550.83	1667.05
551.03	1751.01
551.23	1775.59
551.42	1802.21
551.62	1740.77
551.82	1755.11
552.01	1875.94
552.21	1802.21
552.41	1722.34
552.60	1744.87
552.80	1722.34
553.00	1689.57
553.19	1705.96
553.39	1906.66
553.59	1755.11
553.78	1806.31
553.98	1746.92
554.17	1624.04
554.37	1746.92
554.57	1816.55
554.76	1673.19
554.96	1654.76
555.16	1767.40
555.35	1767.40
555.55	1708.01
555.75	1748.97
555.94	1755.11
556.14	1607.66
556.33	1734.63
556.53	1734.63
556.73	1691.62
556.92	1767.40
557.12	1828.84
557.32	1865.70
557.51	1845.22
557.71	1693.67
557.90	1814.50
558.10	1785.83
558.30	1710.05
558.49	1773.54
558.69	1794.02
558.88	1728.49
559.08	1730.53
559.28	1742.82
559.47	1753.06
559.67	1710.05
559.86	1830.88
560.06	1800.16
560.26	1787.88
560.45	1640.42
560.65	1636.33
560.84	1816.55
561.04	1654.76
561.24	1822.69
561.43	1740.77
561.63	1804.26
561.82	1718.25
562.02	1732.58
562.22	1665.00
562.41	1722.34
562.61	1724.39
562.80	1667.05
563.00	1845.22
563.19	1787.88
563.39	1843.17
563.59	1736.68
563.78	1687.53
563.98	1654.76
564.17	1705.96
564.37	1662.95
564.56	1656.81
564.76	1605.61
564.96	1802.21
565.15	1734.63
565.35	1812.45
565.54	1722.34
565.74	1730.53
565.93	1763.30
566.13	1769.44
566.32	1740.77
566.52	1824.74
566.71	1757.16
566.91	1808.36
567.11	1794.02
567.30	1734.63
567.50	1761.25
567.69	1675.24
567.89	1724.39
568.08	1746.92
568.28	1734.63
568.47	1665.00
568.67	1748.97
568.86	1718.25
569.06	1796.07
569.25	1691.62
569.45	1716.20
569.64	1742.82
569.84	1769.44
570.04	1783.78
570.23	1697.77
570.43	1677.29
570.62	1785.83
570.82	1871.84
571.01	1746.92
571.21	1695.72
571.40	1654.76
571.60	1800.16
571.79	1794.02
571.99	1779.68
572.18	1615.85
572.38	1708.01
572.57	1757.16
572.77	1757.16
572.96	1867.75
573.16	1759.21
573.35	1722.34
573.55	1845.22
573.74	1818.60
573.94	1701.86
574.13	1660.90
574.33	1781.73
574.52	1800.16
574.71	1718.25
574.91	1683.43
575.10	1714.15
575.30	1726.44
575.49	1634.28
575.69	1761.25
575.88	1761.25
576.08	1761.25
576.27	1828.84
576.47	1720.29
576.66	1808.36
576.86	1796.07
577.05	1742.82
577.25	1816.55
577.44	1845.22
577.64	1701.86
577.83	1791.97
578.02	1759.21
578.22	1775.59
578.41	1849.32
578.61	1642.47
578.80	1662.95
579.00	1718.25
579.19	1722.34
579.39	1763.30
579.58	1816.55
579.77	1755.11
579.97	1894.37
580.16	1757.16
580.36	1748.97
580.55	1781.73
580.75	1779.68
580.94	1746.92
581.13	1892.32
581.33	1841.12
581.52	1808.36
581.72	1847.27
581.91	1789.92
582.11	1761.25
582.30	1740.77
582.49	1669.09
582.69	1816.55
582.88	1798.12
583.08	1761.25
583.27	1734.63
583.47	1732.58
583.66	1753.06
583.85	1722.34
584.05	1775.59
584.24	1677.29
584.44	1806.31
584.63	1759.21
584.82	1722.34
585.02	1812.45
585.21	1791.97
585.41	1888.23
585.60	1863.65
585.79	1849.32
585.99	2037.73
586.18	1900.52
586.37	2205.66
586.57	3387.34
586.76	9742.19
586.96	24536.71
587.15	34113.02
587.34	40496.53
587.54	41747.84
587.73	36658.64
587.93	26121.84
588.12	21436.09
588.31	18196.20
588.51	16344.84
588.70	15034.14
588.89	14227.24
589.09	12379.97
589.28	10987.35
589.47	9387.89
589.67	7927.69
589.86	6524.83
590.06	4845.49
590.25	3956.68
590.44	3149.78
590.64	2613.21
590.83	2215.90
591.02	2090.98
591.22	1863.65
591.41	1945.57
591.60	1830.88
591.80	1976.29
591.99	1818.60
592.18	1744.87
592.38	1804.26
592.57	1820.64
592.76	1763.30
592.96	1824.74
593.15	1722.34
593.34	1828.84
593.54	1771.49
593.73	1837.03
593.92	1763.30
594.12	1812.45
594.31	1755.11
594.50	1800.16
594.70	1834.98
594.89	1927.14
595.08	1767.40
595.28	1824.74
595.47	1996.77
595.66	1728.49
595.86	1673.19
596.05	1714.15
596.24	1681.38
596.43	1812.45
596.63	1777.64
596.82	1771.49
597.01	1765.35
597.21	1875.94
597.40	1718.25
597.59	1830.88
597.79	1732.58
597.98	1771.49
598.17	1794.02
598.36	1800.16
598.56	1789.92
598.75	1640.42
598.94	1693.67
599.14	1703.91
599.33	1640.42
599.52	1804.26
599.71	1753.06
599.91	1736.68
600.10	1773.54
600.29	1701.86
600.48	1789.92
600.68	1769.44
600.87	1701.86
601.06	1773.54
601.26	1722.34
601.45	1701.86
601.64	1730.53
601.83	1753.06
602.03	1744.87
602.22	1673.19
602.41	1755.11
602.60	1892.32
602.80	1728.49
602.99	1791.97
603.18	1734.63
603.37	1755.11
603.57	1789.92
603.76	1755.11
603.95	1810.40
604.14	1650.66
604.34	1675.24
604.53	1767.40
604.72	1720.29
604.91	1683.43
605.10	1761.25
605.30	1714.15
605.49	1853.41
605.68	1777.64
605.87	1822.69
606.07	1738.73
606.26	1712.10
606.45	1757.16
606.64	1714.15
606.84	1714.15
607.03	1728.49
607.22	1765.35
607.41	1660.90
607.60	1742.82
607.80	1861.60
607.99	1748.97
608.18	1736.68
608.37	1746.92
608.56	1660.90
608.76	1830.88
608.95	1863.65
609.14	1703.91
609.33	1810.40
609.52	1724.39
609.72	1738.73
609.91	1761.25
610.10	1728.49
610.29	1773.54
610.48	1718.25
610.68	1742.82
610.87	1718.25
611.06	1744.87
611.25	1656.81
611.44	1732.58
611.63	1740.77
611.83	1794.02
612.02	1605.61
612.21	1812.45
612.40	1640.42
612.59	1632.23
612.79	1669.09
612.98	1636.33
613.17	1794.02
613.36	1638.38
613.55	1832.93
613.74	1730.53
613.93	1685.48
614.13	1683.43
614.32	1730.53
614.51	1710.05
614.70	1656.81
614.89	1726.44
615.08	1769.44
615.28	2086.88
615.47	1681.38
615.66	1757.16
615.85	1724.39
616.04	1869.80
616.23	1718.25
616.42	1734.63
616.62	1728.49
616.81	1718.25
617.00	1769.44
617.19	1783.78
617.38	1687.53
617.57	1695.72
617.76	1814.50
617.95	1769.44
618.15	1665.00
618.34	1812.45
618.53	1691.62
618.72	1800.16
618.91	1806.31
619.10	1775.59
619.29	1628.14
619.48	1744.87
619.68	1665.00
619.87	1714.15
620.06	1677.29
620.25	1740.77
620.44	1773.54
620.63	1757.16
620.82	1769.44
621.01	1751.01
621.20	1765.35
621.39	1720.29
621.59	1708.01
621.78	1665.00
621.97	1638.38
622.16	1687.53
622.35	1734.63
622.54	1628.14
622.73	1730.53
622.92	1650.66
623.11	1810.40
623.30	1669.09
623.49	1755.11
623.68	1705.96
623.88	1738.73
624.07	1722.34
624.26	1697.77
624.45	1734.63
624.64	1660.90
624.83	1681.38
625.02	1667.05
625.21	1763.30
625.40	1779.68
625.59	1789.92
625.78	1789.92
625.97	1796.07
626.16	1730.53
626.35	1718.25
626.54	1767.40
626.74	1804.26
626.93	1677.29
627.12	1705.96
627.31	1742.82
627.50	1804.26
627.69	1767.40
627.88	1720.29
628.07	1742.82
628.26	1667.05
628.45	1679.33
628.64	1734.63
628.83	1691.62
629.02	1624.04
629.21	1765.35
629.40	1779.68
629.59	1617.90
629.78	1654.76
629.97	1679.33
630.16	1777.64
630.35	1755.11
630.54	1761.25
630.73	1677.29
630.92	1697.77
631.11	1640.42
631.30	1798.12
631.49	1734.63
631.68	1714.15
631.87	1662.95
632.06	1632.23
632.25	1857.51
632.44	1718.25
632.63	1726.44
632.82	1652.71
633.01	1710.05
633.20	1751.01
633.39	1703.91
633.58	1640.42
633.77	1730.53
633.96	1783.78
634.15	1734.63
634.34	1697.77
634.53	1761.25
634.72	1652.71
634.91	1718.25
635.10	1773.54
635.29	1767.40
635.48	1720.29
635.67	1699.81
635.86	1599.46
636.05	1847.27
636.24	1736.68
636.43	1710.05
636.62	1746.92
636.81	1581.03
637.00	1716.20
637.19	1771.49
637.38	1742.82
637.57	1654.76
637.76	1677.29
637.95	1763.30
638.14	1656.81
638.33	1720.29
638.52	1693.67
638.71	1681.38
638.89	1658.85
639.08	1820.64
639.27	1753.06
639.46	1632.23
639.65	1761.25
639.84	1794.02
640.03	1777.64
640.22	1736.68
640.41	1851.36
640.60	1693.67
640.79	1818.60
640.98	1621.99
641.17	1689.57
641.36	1748.97
641.55	1783.78
641.74	1677.29
641.92	1671.14
642.11	1632.23
642.30	1730.53
642.49	1705.96
642.68	1705.96
642.87	1791.97
643.06	1677.29
643.25	1726.44
643.44	1611.75
643.63	1665.00
643.82	1753.06
644.00	1679.33
644.19	1712.10
644.38	1701.86
644.57	1728.49
644.76	1699.81
644.95	1757.16
645.14	1816.55
645.33	1665.00
645.52	1755.11
645.71	1679.33
645.89	1615.85
646.08	1685.48
646.27	1621.99
646.46	1832.93
646.65	1658.85
646.84	1699.81
647.03	1648.61
647.22	1888.23
647.40	1689.57
647.59	1712.10
647.78	1652.71
647.97	1648.61
648.16	1658.85
648.35	1740.77
648.54	1810.40
648.73	1679.33
648.91	1763.30
649.10	1763.30
649.29	1662.95
649.48	1701.86
649.67	1669.09
649.86	1720.29
650.05	1677.29
650.23	1740.77
650.42	1738.73
650.61	1775.59
650.80	1771.49
650.99	1771.49
651.18	1767.40
651.36	1759.21
651.55	1726.44
651.74	1705.96
651.93	1662.95
652.12	1791.97
652.31	1691.62
652.49	1648.61
652.68	1665.00
652.87	1783.78
653.06	1730.53
653.25	1755.11
653.44	1765.35
653.62	1798.12
653.81	1738.73
654.00	1720.29
654.19	1789.92
654.38	1857.51
654.56	1722.34
654.75	1683.43
654.94	1695.72
655.13	1734.63
655.32	1748.97
655.51	1812.45
655.69	1609.70
655.88	1748.97
656.07	1626.09
656.26	1744.87
656.45	1597.42
656.63	1640.42
656.82	1748.97
657.01	1736.68
657.20	1654.76
657.38	1845.22
657.57	1671.14
657.76	1665.00
657.95	1796.07
658.14	1642.47
658.32	1755.11
658.51	1660.90
658.70	1787.88
658.89	1722.34
659.08	1753.06
659.26	1808.36
659.45	1587.18
659.64	1773.54
659.83	1658.85
660.01	1882.08
660.20	1724.39
660.39	1873.89
660.58	1587.18
660.76	1744.87
660.95	1660.90
661.14	1699.81
661.33	1589.22
661.51	1675.24
661.70	1705.96
661.89	1720.29
662.08	1730.53
662.26	1687.53
662.45	1650.66
662.64	1845.22
662.83	1757.16
663.01	1638.38
663.20	1617.90
663.39	1853.41
663.58	1683.43
663.76	1687.53
663.95	1736.68
664.14	1648.61
664.32	1783.78
664.51	1646.57
664.70	1669.09
664.89	1697.77
665.07	1634.28
665.26	1789.92
665.45	1691.62
665.64	1675.24
665.82	1665.00
666.01	1710.05
666.20	1654.76
666.38	1798.12
666.57	1785.83
666.76	2119.65
666.95	4396.99
667.13	10377.06
667.32	15062.81
667.51	17653.49
667.69	18947.81
667.88	17624.82
668.07	12164.93
668.25	9543.53
668.44	8052.61
668.63	7186.32
668.81	6764.44
669.00	6201.25
669.19	5554.09
669.38	5038.00
669.56	4652.98
669.75	3940.29
669.94	3422.16
670.12	2844.63
670.31	2500.57
670.50	2287.58
670.68	2011.11
670.87	1923.04
671.06	1763.30
671.24	1773.54
671.43	1791.97
671.62	1740.77
671.80	1689.57
671.99	1744.87
672.18	1738.73
672.36	1761.25
672.55	1703.91
672.74	1724.39
672.92	1658.85
673.11	1718.25
673.29	1554.41
673.48	1742.82
673.67	1705.96
673.85	1738.73
674.04	1644.52
674.23	1816.55
674.41	1787.88
674.60	1708.01
674.79	1595.37
674.97	1652.71
675.16	1742.82
675.34	1767.40
675.53	1730.53
675.72	1681.38
675.90	1789.92
676.09	1681.38
676.28	1685.48
676.46	1646.57
676.65	1800.16
676.83	1628.14
677.02	1693.67
677.21	1689.57
677.39	1781.73
677.58	1560.55
677.77	1751.01
677.95	1634.28
678.14	1730.53
678.32	1681.38
678.51	1658.85
678.70	1910.75
678.88	1693.67
679.07	1708.01
679.25	1703.91
679.44	1746.92
679.63	1636.33
679.81	1648.61
680.00	1789.92
680.18	1753.06
680.37	1789.92
680.55	1761.25
680.74	1677.29
680.93	1705.96
681.11	1718.25
681.30	1671.14
681.48	1691.62
681.67	1683.43
681.85	1714.15
682.04	1626.09
682.23	1701.86
682.41	1646.57
682.60	1720.29
682.78	1681.38
682.97	1656.81
683.15	1748.97
683.34	1724.39
683.53	1789.92
683.71	1617.90
683.90	1886.18
684.08	1826.79
684.27	1642.47
684.45	1771.49
684.64	1796.07
684.82	1697.77
685.01	1722.34
685.19	1734.63
685.38	1871.84
685.57	1746.92
685.75	1626.09
685.94	1665.00
686.12	1673.19
686.31	1720.29
686.49	1710.05
686.68	1730.53
686.86	1716.20
687.05	1697.77
687.23	1781.73
687.42	1746.92
687.60	1615.85
687.79	1765.35
687.97	1796.07
688.16	1757.16
688.34	1781.73
688.53	1609.70
688.71	1654.76
688.90	1701.86
689.08	1665.00
689.27	1621.99
689.45	1728.49
689.64	1685.48
689.82	1763.30
690.01	1681.38
690.19	1775.59
690.38	1697.77
690.56	1855.46
690.75	1669.09
690.93	1634.28
691.12	1687.53
691.30	1703.91
691.49	1665.00
691.67	1679.33
691.86	1808.36
692.04	1687.53
692.23	1734.63
692.41	1667.05
692.60	1853.41
692.78	1710.05
692.97	1730.53
693.15	1716.20
693.34	1785.83
693.52	1804.26
693.71	1730.53
693.89	1705.96
694.08	1609.70
694.26	1748.97
694.44	1742.82
694.63	1687.53
694.81	1671.14
695.00	1671.14
695.18	1789.92
695.37	1843.17
695.55	1726.44
695.74	1665.00
695.92	1675.24
696.10	1789.92
696.29	1591.27
696.47	1697.77
696.66	1595.37
696.84	1656.81
697.03	1730.53
697.21	1789.92
697.40	2322.40
697.58	1718.25
697.76	1681.38
697.95	1617.90
698.13	1636.33
698.32	1646.57
698.50	1691.62
698.68	1734.63
698.87	1652.71
699.05	1845.22
699.24	1693.67
699.42	1712.10
699.61	1697.77
699.79	1746.92
699.97	1724.39
700.16	1611.75
700.34	1689.57
700.53	1781.73
700.71	1767.40
700.89	1779.68
701.08	1652.71
701.26	1693.67
701.45	2115.55
701.63	1669.09
701.81	1757.16
702.00	1613.80
702.18	1683.43
702.37	1658.85
702.55	1783.78
702.73	1748.97
702.92	1644.52
703.10	1787.88
703.28	1767.40
703.47	1658.85
703.65	1779.68
703.84	1785.83
704.02	1699.81
704.20	1822.69
704.39	1759.21
704.57	1665.00
704.75	1740.77
704.94	1710.05
705.12	1716.20
705.30	1798.12
705.49	2248.67
705.67	4378.56
705.86	9553.77
706.04	12717.89
706.22	14526.24
706.41	15351.57
706.59	13850.41
706.77	9750.38
706.96	7442.32
707.14	6588.32
707.32	5840.81
707.51	5744.55
707.69	4906.93
707.87	4241.34
708.06	3549.13
708.24	2930.64
708.42	2430.94
708.61	2201.57
708.79	1896.42
708.97	1898.47
709.16	1841.12
709.34	1728.49
709.52	1740.77
709.71	1701.86
709.89	1751.01
710.07	1732.58
710.26	1693.67
710.44	1644.52
710.62	1658.85
710.80	1708.01
710.99	1791.97
711.17	1738.73
711.35	1712.10
711.54	1621.99
711.72	1765.35
711.90	1757.16
712.09	1820.64
712.27	1708.01
712.45	1761.25
712.63	1712.10
712.82	1677.29
713.00	1652.71
713.18	1736.68
713.37	1828.84
713.55	1777.64
713.73	1699.81
713.91	1794.02
714.10	1681.38
714.28	1677.29
714.46	1757.16
714.65	1767.40
714.83	1708.01
715.01	1681.38
715.19	1615.85
715.38	1615.85
715.56	1644.52
715.74	1632.23
715.92	1769.44
716.11	1783.78
716.29	1554.41
716.47	1710.05
716.65	1671.14
716.84	1673.19
717.02	1730.53
717.20	1615.85
717.38	1642.47
717.57	1726.44
717.75	1609.70
717.93	1609.70
718.11	1714.15
718.30	1605.61
718.48	1689.57
718.66	1746.92
718.84	1722.34
719.03	1726.44
719.21	1685.48
719.39	1785.83
719.57	1718.25
719.75	1738.73
719.94	1644.52
720.12	1679.33
720.30	1677.29
720.48	1765.35
720.67	1652.71
720.85	1640.42
721.03	1691.62
721.21	1638.38
721.39	1658.85
721.58	1730.53
721.76	1724.39
721.94	1781.73
722.12	1677.29
722.30	1759.21
722.49	1708.01
722.67	1748.97
722.85	1734.63
723.03	1607.66
723.21	1662.95
723.40	1738.73
723.58	1718.25
723.76	1699.81
723.94	1681.38
724.12	1701.86
724.30	1708.01
724.49	1742.82
724.67	1601.51
724.85	1810.40
725.03	1619.94
725.21	1726.44
725.40	1789.92
725.58	1583.08
725.76	1767.40
725.94	1714.15
726.12	1648.61
726.30	1689.57
726.49	1652.71
726.67	1679.33
726.85	1746.92
727.03	1740.77
727.21	2127.84
727.39	2912.21
727.57	3831.75
727.76	4081.60
727.94	4415.42
728.12	4317.12
728.30	3635.14
728.48	2971.60
728.66	2613.21
728.84	2500.57
729.03	2287.58
729.21	2170.85
729.39	1994.72
729.57	1847.27
729.75	1757.16
729.93	1884.13
730.11	1658.85
730.30	1675.24
730.48	1726.44
730.66	1777.64
730.84	1884.13
731.02	1685.48
731.20	1632.23
731.38	1662.95
731.56	1673.19
731.74	1615.85
731.93	1708.01
732.11	1701.86
732.29	1714.15
732.47	1662.95
732.65	1769.44
732.83	1736.68
733.01	1675.24
733.19	1687.53
733.37	1730.53
733.56	1726.44
733.74	1658.85
733.92	1798.12
734.10	1621.99
734.28	1781.73
734.46	1650.66
734.64	1697.77
734.82	1681.38
735.00	1656.81
735.18	1656.81
735.36	1753.06
735.54	1681.38
735.73	1767.40
735.91	1697.77
736.09	1779.68
736.27	1714.15
736.45	1777.64
736.63	1621.99
736.81	1656.81
736.99	1738.73
737.17	1732.58
737.35	1615.85
737.53	1736.68
737.71	1660.90
737.89	1787.88
738.07	1658.85
738.25	1583.08
738.43	1587.18
738.61	1705.96
738.80	1683.43
738.98	1669.09
739.16	1718.25
739.34	1621.99
739.52	1755.11
739.70	1705.96
739.88	1763.30
740.06	1802.21
740.24	1578.98
740.42	1810.40
740.60	1578.98
740.78	1681.38
740.96	1591.27
741.14	1701.86
741.32	1656.81
741.50	1591.27
741.68	1789.92
741.86	1732.58
742.04	1710.05
742.22	1615.85
742.40	1718.25
742.58	1769.44
742.76	1630.18
742.94	1726.44
743.12	1599.46
743.30	1716.20
743.48	1705.96
743.66	1728.49
743.84	1710.05
744.02	1681.38
744.20	1665.00
744.38	1611.75
744.56	1648.61
744.74	1808.36
744.92	1650.66
745.10	1787.88
745.28	1740.77
745.46	1828.84
745.64	1687.53
745.82	1824.74
746.00	1693.67
746.18	1751.01
746.36	1712.10
746.54	1615.85
746.72	1685.48
746.90	1648.61
747.08	1701.86
747.26	1722.34
747.44	1701.86
747.62	1736.68
747.80	1648.61
747.98	1802.21
748.15	1718.25
748.33	1757.16
748.51	1636.33
748.69	1779.68
748.87	1648.61
749.05	1667.05
749.23	1662.95
749.41	1687.53
749.59	1703.91
749.77	1726.44
749.95	1615.85
750.13	1658.85
750.31	1603.56
750.49	1691.62
750.67	1785.83
750.85	1789.92
751.03	1740.77
751.20	1796.07
751.38	1669.09
751.56	1708.01
751.74	1689.57
751.92	1689.57
752.10	1630.18
752.28	1722.34
752.46	1599.46
752.64	1730.53
752.82	1734.63
753.00	1701.86
753.18	1689.57
753.35	1695.72
753.53	1683.43
753.71	1677.29
753.89	1740.77
754.07	1736.68
754.25	1708.01
754.43	1714.15
754.61	1624.04
754.79	1703.91
754.97	1609.70
755.14	1742.82
755.32	1611.75
755.50	1720.29
755.68	1742.82
755.86	1646.57
756.04	1683.43
756.22	1626.09
756.40	1697.77
756.57	1853.41
756.75	1669.09
756.93	1759.21
757.11	1820.64
757.29	1613.80
757.47	1611.75
757.65	1566.70
757.82	1615.85
758.00	1652.71
758.18	1673.19
758.36	1613.80
758.54	1753.06
758.72	1665.00
758.90	1701.86
759.07	1744.87
759.25	1591.27
759.43	1775.59
759.61	1605.61
759.79	2209.76
759.97	1751.01
760.15	1665.00
760.32	1697.77
760.50	1712.10
760.68	1755.11
760.86	1583.08
761.04	1849.32
761.22	1781.73
761.39	1742.82
761.57	1675.24
761.75	1722.34
761.93	1718.25
762.11	1748.97
762.28	1703.91
762.46	1658.85
762.64	1701.86
762.82	1660.90
763.00	1648.61
763.18	1697.77
763.35	1665.00
763.53	1695.72
763.71	1695.72
763.89	1728.49
764.07	1652.71
764.24	1738.73
764.42	1679.33
764.60	1732.58
764.78	1839.08
764.96	1761.25
765.13	1794.02
765.31	1759.21
765.49	1796.07
765.67	1650.66
765.84	1656.81
766.02	1683.43
766.20	1665.00
766.38	1652.71
766.56	1681.38
766.73	1710.05
766.91	1671.14
767.09	1642.47
767.27	1726.44
767.44	1630.18
767.62	1755.11
767.80	1746.92
767.98	1677.29
768.15	1673.19
768.33	1734.63
768.51	1757.16
768.69	1728.49
768.87	1783.78
769.04	1624.04
769.22	1828.84
769.40	1769.44
769.58	1875.94
769.75	1765.35
769.93	1742.82
770.11	1671.14
770.28	1652.71
770.46	1714.15
770.64	1679.33
770.82	1646.57
770.99	1576.94
771.17	1681.38
771.35	1677.29
771.53	1632.23
771.70	1572.84
771.88	1742.82
772.06	1656.81
772.23	1673.19
772.41	1730.53
772.59	1665.00
772.77	1642.47
772.94	1669.09
773.12	1781.73
773.30	1665.00
773.47	1662.95
773.65	1609.70
773.83	1820.64
774.01	1687.53
774.18	1613.80
774.36	1722.34
774.54	1597.42
774.71	1710.05
774.89	1578.98
775.07	1654.76
775.24	1640.42
775.42	1652.71
775.60	1810.40
775.78	1648.61
775.95	1650.66
776.13	1642.47
776.31	1581.03
776.48	1624.04
776.66	1771.49
776.84	1734.63
777.01	1697.77
777.19	1726.44
777.37	1687.53
777.54	1779.68
777.72	1789.92
777.90	1744.87
778.07	1593.32
778.25	1800.16
778.43	1710.05
778.60	1716.20
778.78	1785.83
778.96	1724.39
779.13	1679.33
779.31	1722.34
779.49	1650.66
779.66	1736.68
779.84	1673.19
780.01	1660.90
780.19	1636.33
780.37	1685.48
780.54	1720.29
780.72	1665.00
780.90	1755.11
781.07	1634.28
781.25	1644.52
781.43	1679.33
781.60	1634.28
781.78	1730.53
781.95	1587.18
782.13	1595.37
782.31	1718.25
782.48	1669.09
782.66	1724.39
782.83	1837.03
783.01	1724.39
783.19	1740.77
783.36	1660.90
783.54	1656.81
783.72	1779.68
783.89	1683.43
784.07	1779.68
784.24	1718.25
784.42	1783.78
784.60	1728.49
784.77	1748.97
784.95	1589.22
785.12	1705.96
785.30	1650.66
785.47	1634.28
785.65	1669.09
785.83	1687.53
786.00	1687.53
786.18	1681.38
786.35	1644.52
786.53	1634.28
786.71	1765.35
786.88	1714.15
787.06	1759.21
787.23	1673.19
787.41	1556.46
787.58	1687.53
787.76	1658.85
787.94	1675.24
788.11	1761.25
788.29	1665.00
788.46	1630.18
788.64	1632.23
788.81	1660.90
788.99	1642.47
789.16	1638.38
789.34	1609.70
789.52	1632.23
789.69	1687.53
789.87	1626.09
790.04	1619.94
790.22	1681.38
790.39	1775.59
790.57	1607.66
790.74	1640.42
790.92	1755.11
791.09	1724.39
791.27	1705.96
791.44	1712.10
791.62	1675.24
791.79	1796.07
791.97	1671.14
792.15	1896.42
792.32	1753.06
792.50	1751.01
792.67	1830.88
792.85	1751.01
793.02	1685.48
793.20	1718.25
793.37	1654.76
793.55	1671.14
793.72	1542.12
793.90	1728.49
794.07	1665.00
794.25	1634.28
794.42	1728.49
794.60	1665.00
794.77	1683.43
794.95	1683.43
795.12	1693.67
795.30	1658.85
795.47	1607.66
795.65	1871.84
795.82	1662.95
796.00	1564.65
796.17	1785.83
796.34	1691.62
796.52	1671.14
796.69	1630.18
796.87	1724.39
797.04	1804.26
797.22	1769.44
797.39	1681.38
797.57	1714.15
797.74	1714.15
797.92	1658.85
798.09	1685.48
798.27	1759.21
798.44	1730.53
798.62	1634.28
798.79	1781.73
798.96	1640.42
799.14	1705.96
799.31	1798.12
799.49	1691.62
799.66	1628.14
799.84	1683.43
800.01	1667.05
800.19	1712.10
800.36	1576.94
800.53	1691.62
800.71	1615.85
800.88	1783.78
801.06	1697.77
801.23	1636.33
801.41	1685.48
801.58	1734.63
801.75	1685.48
801.93	1609.70
802.10	1701.86
802.28	1724.39
802.45	1697.77
802.63	1812.45
802.80	1746.92
802.97	1705.96
803.15	1634.28
803.32	1677.29
803.50	1671.14
803.67	1697.77
803.84	1683.43
804.02	1718.25
804.19	1679.33
804.37	1634.28
804.54	1650.66
804.71	1667.05
804.89	1660.90
805.06	1626.09
805.24	1626.09
805.41	1755.11
805.58	1669.09
805.76	1849.32
805.93	1673.19
806.10	1763.30
806.28	1740.77
806.45	1683.43
806.63	1650.66
806.80	1722.34
806.97	1703.91
807.15	1722.34
807.32	1679.33
807.49	1691.62
807.67	1640.42
807.84	1726.44
808.01	1718.25
808.19	1820.64
808.36	1808.36
808.54	1648.61
808.71	1617.90
808.88	1779.68
809.06	1718.25
809.23	1769.44
809.40	1617.90
809.58	1710.05
809.75	1665.00
809.92	1683.43
810.10	1843.17
810.27	1763.30
810.44	1687.53
810.62	1796.07
810.79	1642.47
810.96	1665.00
811.14	1667.05
811.31	1660.90
811.48	1691.62
811.66	1718.25
811.83	1763.30
812.00	1658.85
812.18	1744.87
812.35	1775.59
812.52	1609.70
812.69	1697.77
812.87	1681.38
813.04	1650.66
813.21	1761.25
813.39	1728.49
813.56	1699.81
813.73	1673.19
813.91	1681.38
814.08	1685.48
814.25	1615.85
814.42	1640.42
814.60	1665.00
814.77	1777.64
814.94	1701.86
815.12	1701.86
815.29	1796.07
815.46	1687.53
815.63	1736.68
815.81	1656.81
815.98	1650.66
816.15	1673.19
816.33	1718.25
816.50	1632.23
816.67	1683.43
816.84	1751.01
817.02	1628.14
817.19	1701.86
817.36	1712.10
817.53	1656.81
817.71	1617.90
817.88	1730.53
818.05	1662.95
818.22	1665.00
818.40	1755.11
818.57	1742.82
818.74	1703.91
818.91	1701.86
819.09	1796.07
819.26	1787.88
819.43	1681.38
819.60	1624.04
819.78	1796.07
819.95	1796.07
820.12	1640.42
820.29	1697.77
820.47	1734.63
820.64	1665.00
820.81	1609.70
820.98	1628.14
821.15	1675.24
821.33	1751.01
821.50	1597.42
821.67	1746.92
821.84	1683.43
822.02	1736.68
822.19	1742.82
822.36	1665.00
822.53	1695.72
822.70	1660.90
822.88	1724.39
823.05	1740.77
823.22	1650.66
823.39	1748.97
823.56	1718.25
823.74	1814.50
823.91	1607.66
824.08	1681.38
824.25	1675.24
824.42	1853.41
824.60	1667.05
824.77	1759.21
824.94	1642.47
825.11	1714.15
825.28	1597.42
825.45	1765.35
825.63	1671.14
825.80	1667.05
825.97	1677.29
826.14	1699.81
826.31	1583.08
826.48	1695.72
826.66	1667.05
826.83	1716.20
827.00	1662.95
827.17	1708.01
827.34	1656.81
827.51	1605.61
827.69	1722.34
827.86	1619.94
828.03	1673.19
828.20	1712.10
828.37	1710.05
828.54	1714.15
828.71	1656.81
828.89	1853.41
829.06	1726.44
829.23	1748.97
829.40	1671.14
829.57	1730.53
829.74	1701.86
829.91	1665.00
830.09	1718.25
830.26	1679.33
830.43	1742.82
830.60	1724.39
830.77	1691.62
830.94	1724.39
831.11	1718.25
831.28	1652.71
831.46	1765.35
831.63	1619.94
831.80	1781.73
831.97	1636.33
832.14	1675.24
832.31	1800.16
832.48	1732.58
832.65	1703.91
832.82	1720.29
832.99	1714.15
833.17	1646.57
833.34	1765.35
833.51	1781.73
833.68	1552.36
833.85	1775.59
834.02	1648.61
834.19	1652.71
834.36	1595.37
834.53	1624.04
834.70	1751.01
834.87	1718.25
835.04	1669.09
835.22	1607.66
835.39	1634.28
835.56	1615.85
835.73	1636.33
835.90	1810.40
836.07	1691.62
836.24	1738.73
836.41	1638.38
836.58	1683.43
836.75	1726.44
836.92	1718.25
837.09	1640.42
837.26	1714.15
837.43	1720.29
837.60	1712.10
837.77	1695.72
837.94	1693.67
838.12	1726.44
838.29	1693.67
838.46	1665.00
838.63	1640.42
838.80	1773.54
838.97	1669.09
839.14	1763.30
839.31	1687.53
839.48	1785.83
839.65	1708.01
839.82	1724.39
839.99	1726.44
840.16	1658.85
840.33	1615.85
840.50	1665.00
840.67	1748.97
840.84	1644.52
841.01	1699.81
841.18	1601.51
841.35	1748.97
841.52	1691.62
841.69	1794.02
841.86	1726.44
842.03	1652.71
842.20	1736.68
842.37	1634.28
842.54	1689.57
842.71	1701.86
842.88	1636.33
843.05	1667.05
843.22	1701.86
843.39	1828.84
843.56	1646.57
843.73	1667.05
843.90	1648.61
844.07	1701.86
844.24	1689.57
844.41	1767.40
844.58	1640.42
844.75	1673.19
844.92	1710.05
845.09	1636.33
845.26	1714.15
845.43	1693.67
845.60	1697.77
845.77	1761.25
845.94	1779.68
846.10	1753.06
846.27	1599.46
846.44	1660.90
846.61	1681.38
846.78	1656.81
846.95	1789.92
847.12	1624.04
847.29	1683.43
847.46	1654.76
847.63	1693.67
847.80	1626.09
847.97	1689.57
848.14	1892.32
848.31	1656.81
848.48	1564.65
848.65	1740.77
848.82	1619.94
848.98	1808.36
849.15	1705.96
849.32	1761.25
849.49	1746.92
849.66	1708.01
849.83	1697.77
850.00	1609.70
850.17	1720.29
850.34	1718.25
850.51	1603.56
850.68	1570.79
850.85	1777.64
851.01	1691.62
851.18	1736.68
851.35	1658.85
851.52	1759.21
851.69	1763.30
851.86	1640.42
852.03	1652.71
852.20	1759.21
852.37	1681.38
852.53	1640.42
852.70	1701.86
852.87	1716.20
853.04	1734.63
853.21	1679.33
853.38	1783.78
853.55	1834.98
853.72	1798.12
853.89	1673.19
854.05	1677.29
854.22	1710.05
854.39	1669.09
854.56	1681.38
854.73	1691.62
854.90	1634.28
855.07	1671.14
855.23	1726.44
855.40	1695.72
855.57	1656.81
855.74	1644.52
855.91	1857.51
856.08	1607.66
856.25	1599.46
856.41	1660.90
856.58	1658.85
856.75	1699.81
856.92	1673.19
857.09	1779.68
857.26	1662.95
857.42	1687.53
857.59	1730.53
857.76	1712.10
857.93	1724.39
858.10	1626.09
858.27	1542.12
858.43	1691.62
858.60	1658.85
858.77	1603.56
858.94	1595.37
859.11	1728.49
859.27	1650.66
859.44	1701.86
859.61	1787.88
859.78	1716.20
859.95	1636.33
860.12	1597.42
860.28	1849.32
860.45	1781.73
860.62	1677.29
860.79	1779.68
860.95	1611.75
861.12	1628.14
861.29	1714.15
861.46	1638.38
861.63	1656.81
861.79	1691.62
861.96	1671.14
862.13	1667.05
862.30	1757.16
862.47	1669.09
862.63	1603.56
862.80	1699.81
862.97	1712.10
863.14	1746.92
863.30	1710.05
863.47	1652.71
863.64	1796.07
863.81	1740.77
863.97	1708.01
864.14	1740.77
864.31	1669.09
864.48	1744.87
864.65	1718.25
864.81	1738.73
864.98	1736.68
865.15	1740.77
865.32	1615.85
865.48	1757.16
865.65	1818.60
865.82	1607.66
865.98	1681.38
866.15	1783.78
866.32	1660.90
866.49	1708.01
866.65	1837.03
866.82	1609.70
866.99	1667.05
867.16	1667.05
867.32	1738.73
867.49	1677.29
867.66	1665.00
867.83	1685.48
867.99	1650.66
868.16	1632.23
868.33	1603.56
868.49	1654.76
868.66	1642.47
868.83	1773.54
868.99	1673.19
869.16	1693.67
869.33	1730.53
869.50	1730.53
869.66	1742.82
869.83	1740.77
870.00	1652.71
870.16	1726.44
870.33	1691.62
870.50	1787.88
870.66	1683.43
870.83	1804.26
871.00	1681.38
871.17	1751.01
871.33	1708.01
871.50	1689.57
871.67	1638.38
871.83	1681.38
872.00	1808.36
872.17	1695.72
872.33	1708.01
872.50	1683.43
872.67	1646.57
872.83	1712.10
873.00	1775.59
873.17	1724.39
873.33	1730.53
873.50	1802.21
873.67	1732.58
873.83	1650.66
874.00	1699.81
874.16	1708.01
874.33	1730.53
874.50	1603.56
874.66	1693.67
874.83	1609.70
875.00	1740.77
875.16	1753.06
875.33	1716.20
875.50	1595.37
875.66	1673.19
875.83	1718.25
875.99	1775.59
876.16	1728.49
876.33	1595.37
876.49	1667.05
876.66	1736.68
876.83	1687.53
876.99	1677.29
877.16	1732.58
877.32	1701.86
877.49	1687.53
877.66	1759.21
877.82	1791.97
877.99	1722.34
878.15	1691.62
878.32	1679.33
878.49	1697.77
878.65	1722.34
878.82	1742.82
878.98	1708.01
879.15	1669.09
879.32	1765.35
879.48	1771.49
879.65	1705.96
879.81	1671.14
879.98	1599.46
880.15	1697.77
880.31	1681.38
880.48	1613.80
880.64	1746.92
880.81	1714.15
880.97	1738.73
881.14	1824.74
881.31	1669.09
881.47	1814.50
881.64	1624.04
881.80	1640.42
881.97	1724.39
882.13	1755.11
882.30	1662.95
882.47	1710.05
882.63	1660.90
882.80	1636.33
882.96	1619.94
883.13	1810.40
883.29	1736.68
883.46	1685.48
883.62	1767.40
883.79	1708.01
883.95	1751.01
884.12	1675.24
884.29	1755.11
884.45	1714.15
884.62	1789.92
884.78	1671.14
884.95	1820.64
885.11	1691.62
885.28	1726.44
885.44	1691.62
885.61	1746.92
885.77	1816.55
885.94	1769.44
886.10	1644.52
886.27	1685.48
886.43	1779.68
886.60	1767.40
886.76	1638.38
886.93	1632.23
887.09	1728.49
887.26	1648.61
887.42	1769.44
887.59	1765.35
887.75	1826.79
887.92	1791.97
888.08	1773.54
888.25	1890.28
888.41	1791.97
888.58	1642.47
888.74	1597.42
888.91	1730.53
>>>>>End Processed Spectral Data<<<<<
