SpectraSuite Data File
++++++++++++++++++++++++++++++++++++
Date: Mon Jun 06 14:32:17 CEST 2016
User: root
Dark Spectrum Present: No
Reference Spectrum Present: No
Number of Sampled Component Spectra: 1
Spectrometers: USB4C02835
Integration Time (usec): 100000 (USB4C02835)
Spectra Averaged: 1 (USB4C02835)
Boxcar Smoothing: 0 (USB4C02835)
Correct for Electrical Dark: No (USB4C02835)
Strobe/Lamp Enabled: No (USB4C02835)
Correct for Detector Non-linearity: No (USB4C02835)
Correct for Stray Light: No (USB4C02835)
Number of Pixels in Processed Spectrum: 3648
>>>>>Begin Processed Spectral Data<<<<<
177.47	1470.44
177.69	1470.44
177.91	1470.44
178.13	1497.07
178.36	1476.59
178.58	1642.47
178.80	1716.20
179.02	1650.66
179.24	1654.76
179.46	1619.94
179.68	1751.01
179.90	1740.77
180.13	1728.49
180.35	1724.39
180.57	1740.77
180.79	1714.15
181.01	1744.87
181.23	1722.34
181.45	1693.67
181.67	1738.73
181.90	1724.39
182.12	1593.32
182.34	1699.81
182.56	1697.77
182.78	1708.01
183.00	1787.88
183.22	1740.77
183.44	1581.03
183.66	1796.07
183.89	1808.36
184.11	1689.57
184.33	1714.15
184.55	1791.97
184.77	1736.68
184.99	1798.12
185.21	1658.85
185.43	1839.08
185.65	1705.96
185.87	1685.48
186.10	1767.40
186.32	1802.21
186.54	1726.44
186.76	1763.30
186.98	1736.68
187.20	1708.01
187.42	1681.38
187.64	1662.95
187.86	1712.10
188.08	1685.48
188.30	1708.01
188.52	1638.38
188.75	1685.48
188.97	1777.64
189.19	1685.48
189.41	1691.62
189.63	1740.77
189.85	1687.53
190.07	1675.24
190.29	1574.89
190.51	1677.29
190.73	1667.05
190.95	1691.62
191.17	1630.18
191.39	1687.53
191.61	1712.10
191.84	1617.90
192.06	1699.81
192.28	1644.52
192.50	1855.46
192.72	1746.92
192.94	1662.95
193.16	1734.63
193.38	1718.25
193.60	1587.18
193.82	1632.23
194.04	1775.59
194.26	1775.59
194.48	1667.05
194.70	1642.47
194.92	1617.90
195.14	1808.36
195.36	1726.44
195.58	1757.16
195.80	1660.90
196.02	1648.61
196.24	1730.53
196.46	1705.96
196.69	1636.33
196.91	1918.95
197.13	1669.09
197.35	1656.81
197.57	1779.68
197.79	1679.33
198.01	1773.54
198.23	1681.38
198.45	1724.39
198.67	1626.09
198.89	1638.38
199.11	1712.10
199.33	1648.61
199.55	1495.02
199.77	1634.28
199.99	1763.30
200.21	1640.42
200.43	1740.77
200.65	1699.81
200.87	1615.85
201.09	1611.75
201.31	1665.00
201.53	1800.16
201.75	1701.86
201.97	1751.01
202.19	1703.91
202.41	1720.29
202.63	1759.21
202.85	1710.05
203.07	1708.01
203.29	1734.63
203.51	1646.57
203.73	1632.23
203.95	1898.47
204.17	1658.85
204.39	1726.44
204.61	1714.15
204.83	1685.48
205.05	1757.16
205.27	1830.88
205.49	1812.45
205.71	1757.16
205.93	1595.37
206.15	1681.38
206.37	1730.53
206.59	1699.81
206.81	1650.66
207.03	1654.76
207.25	1632.23
207.47	1765.35
207.69	1724.39
207.91	1773.54
208.13	1796.07
208.34	1617.90
208.56	1650.66
208.78	1746.92
209.00	1638.38
209.22	1667.05
209.44	1779.68
209.66	1632.23
209.88	1736.68
210.10	1718.25
210.32	1638.38
210.54	1757.16
210.76	1681.38
210.98	1730.53
211.20	1630.18
211.42	1677.29
211.64	1857.51
211.86	1738.73
212.08	1734.63
212.30	1765.35
212.52	1677.29
212.74	1720.29
212.96	1656.81
213.17	1753.06
213.39	1689.57
213.61	1779.68
213.83	1671.14
214.05	1679.33
214.27	1751.01
214.49	1630.18
214.71	1669.09
214.93	1802.21
215.15	1673.19
215.37	1753.06
215.59	1624.04
215.81	1691.62
216.03	1738.73
216.24	1724.39
216.46	1697.77
216.68	1734.63
216.90	1753.06
217.12	1734.63
217.34	1621.99
217.56	1720.29
217.78	1781.73
218.00	1710.05
218.22	1759.21
218.44	1800.16
218.66	1798.12
218.87	1798.12
219.09	1636.33
219.31	1787.88
219.53	1695.72
219.75	1679.33
219.97	1718.25
220.19	1644.52
220.41	1703.91
220.63	1753.06
220.85	1712.10
221.06	1710.05
221.28	1716.20
221.50	1708.01
221.72	1724.39
221.94	1681.38
222.16	1669.09
222.38	1769.44
222.60	1802.21
222.82	1728.49
223.03	1720.29
223.25	1644.52
223.47	1796.07
223.69	1841.12
223.91	1742.82
224.13	1613.80
224.35	1691.62
224.57	1746.92
224.78	1701.86
225.00	1687.53
225.22	1669.09
225.44	1658.85
225.66	1767.40
225.88	1701.86
226.10	1722.34
226.32	1656.81
226.53	1808.36
226.75	1722.34
226.97	1701.86
227.19	1689.57
227.41	1689.57
227.63	1662.95
227.85	1660.90
228.06	1773.54
228.28	1683.43
228.50	1697.77
228.72	1617.90
228.94	1685.48
229.16	1603.56
229.37	1671.14
229.59	1691.62
229.81	1820.64
230.03	1642.47
230.25	1617.90
230.47	1662.95
230.69	1681.38
230.90	1742.82
231.12	1701.86
231.34	1726.44
231.56	1861.60
231.78	1667.05
232.00	1656.81
232.21	1763.30
232.43	1683.43
232.65	1574.89
232.87	1712.10
233.09	1642.47
233.30	1652.71
233.52	1693.67
233.74	1681.38
233.96	1681.38
234.18	1665.00
234.40	1689.57
234.61	1841.12
234.83	1636.33
235.05	1669.09
235.27	1828.84
235.49	1775.59
235.70	1636.33
235.92	1785.83
236.14	1650.66
236.36	1841.12
236.58	1665.00
236.79	1746.92
237.01	1675.24
237.23	1726.44
237.45	1798.12
237.67	1693.67
237.88	1705.96
238.10	1834.98
238.32	1683.43
238.54	1609.70
238.76	1650.66
238.97	1677.29
239.19	1615.85
239.41	1798.12
239.63	1773.54
239.85	1697.77
240.06	1695.72
240.28	1626.09
240.50	1748.97
240.72	1716.20
240.93	1624.04
241.15	1730.53
241.37	1722.34
241.59	1785.83
241.81	1689.57
242.02	1746.92
242.24	1810.40
242.46	1746.92
242.68	1615.85
242.89	1755.11
243.11	1791.97
243.33	1718.25
243.55	1757.16
243.76	1703.91
243.98	1669.09
244.20	1742.82
244.42	1722.34
244.64	1783.78
244.85	1677.29
245.07	1689.57
245.29	1695.72
245.51	1677.29
245.72	1720.29
245.94	1753.06
246.16	1697.77
246.38	1769.44
246.59	1699.81
246.81	1681.38
247.03	1654.76
247.24	1640.42
247.46	1640.42
247.68	1720.29
247.90	1710.05
248.11	1654.76
248.33	1814.50
248.55	1765.35
248.77	1683.43
248.98	1742.82
249.20	1736.68
249.42	1738.73
249.64	1761.25
249.85	1642.47
250.07	1609.70
250.29	1767.40
250.50	1724.39
250.72	1697.77
250.94	1720.29
251.16	1812.45
251.37	1759.21
251.59	1695.72
251.81	1767.40
252.02	1802.21
252.24	1628.14
252.46	1804.26
252.68	1675.24
252.89	1681.38
253.11	1583.08
253.33	1877.99
253.54	1763.30
253.76	1703.91
253.98	1617.90
254.20	1701.86
254.41	1662.95
254.63	1730.53
254.85	1609.70
255.06	1665.00
255.28	1775.59
255.50	1748.97
255.71	1613.80
255.93	1656.81
256.15	1611.75
256.36	1685.48
256.58	1734.63
256.80	1746.92
257.02	1673.19
257.23	1699.81
257.45	1734.63
257.67	1718.25
257.88	1662.95
258.10	1738.73
258.32	1646.57
258.53	1689.57
258.75	1748.97
258.97	1605.61
259.18	1699.81
259.40	1714.15
259.62	1830.88
259.83	1765.35
260.05	1765.35
260.27	1906.66
260.48	1746.92
260.70	1640.42
260.92	1705.96
261.13	1705.96
261.35	1705.96
261.57	1810.40
261.78	1658.85
262.00	1595.37
262.22	1660.90
262.43	1708.01
262.65	1740.77
262.86	1687.53
263.08	1724.39
263.30	1726.44
263.51	1574.89
263.73	1673.19
263.95	1748.97
264.16	1615.85
264.38	1765.35
264.60	1740.77
264.81	1644.52
265.03	1734.63
265.25	1718.25
265.46	1660.90
265.68	1763.30
265.89	1753.06
266.11	1644.52
266.33	1689.57
266.54	1812.45
266.76	1726.44
266.98	1675.24
267.19	1730.53
267.41	1738.73
267.62	1708.01
267.84	1626.09
268.06	1798.12
268.27	1755.11
268.49	1796.07
268.70	1716.20
268.92	1691.62
269.14	1642.47
269.35	1607.66
269.57	1662.95
269.79	1722.34
270.00	1695.72
270.22	1796.07
270.43	1675.24
270.65	1599.46
270.87	1734.63
271.08	1757.16
271.30	1689.57
271.51	1738.73
271.73	1675.24
271.95	1787.88
272.16	1640.42
272.38	1675.24
272.59	1673.19
272.81	1708.01
273.02	1789.92
273.24	1689.57
273.46	1777.64
273.67	1611.75
273.89	1632.23
274.10	1724.39
274.32	1765.35
274.54	1712.10
274.75	1699.81
274.97	1652.71
275.18	1722.34
275.40	1697.77
275.61	1636.33
275.83	1720.29
276.05	1593.32
276.26	1648.61
276.48	1671.14
276.69	1753.06
276.91	1630.18
277.12	1755.11
277.34	1759.21
277.55	1710.05
277.77	1748.97
277.99	1681.38
278.20	1626.09
278.42	1728.49
278.63	1683.43
278.85	1665.00
279.06	1669.09
279.28	1763.30
279.49	1685.48
279.71	1708.01
279.93	1726.44
280.14	1716.20
280.36	1640.42
280.57	1843.17
280.79	1740.77
281.00	1652.71
281.22	1634.28
281.43	1708.01
281.65	1570.79
281.86	1665.00
282.08	1761.25
282.29	1812.45
282.51	1626.09
282.73	1685.48
282.94	1726.44
283.16	1734.63
283.37	1742.82
283.59	1748.97
283.80	1720.29
284.02	1617.90
284.23	1730.53
284.45	1714.15
284.66	1669.09
284.88	1607.66
285.09	1718.25
285.31	1830.88
285.52	1687.53
285.74	1572.84
285.95	1761.25
286.17	1765.35
286.38	1718.25
286.60	1669.09
286.81	1708.01
287.03	1677.29
287.24	1718.25
287.46	1687.53
287.67	1650.66
287.89	1822.69
288.10	1722.34
288.32	1636.33
288.53	1769.44
288.75	1718.25
288.96	1761.25
289.18	1671.14
289.39	1726.44
289.61	1730.53
289.82	1886.18
290.04	1753.06
290.25	1677.29
290.47	1722.34
290.68	1765.35
290.90	1775.59
291.11	1681.38
291.33	1763.30
291.54	1665.00
291.76	1640.42
291.97	1744.87
292.18	1796.07
292.40	1753.06
292.61	1665.00
292.83	1789.92
293.04	1734.63
293.26	1736.68
293.47	1699.81
293.69	1689.57
293.90	1689.57
294.12	1791.97
294.33	1763.30
294.55	1681.38
294.76	1699.81
294.97	1757.16
295.19	1781.73
295.40	1628.14
295.62	1757.16
295.83	1724.39
296.05	1689.57
296.26	1785.83
296.48	1685.48
296.69	1740.77
296.90	1642.47
297.12	1800.16
297.33	1804.26
297.55	1617.90
297.76	1759.21
297.98	1800.16
298.19	1730.53
298.41	1628.14
298.62	1634.28
298.83	1789.92
299.05	1679.33
299.26	1638.38
299.48	1716.20
299.69	1724.39
299.90	1681.38
300.12	1679.33
300.33	1718.25
300.55	1734.63
300.76	1751.01
300.98	1693.67
301.19	1691.62
301.40	1669.09
301.62	1730.53
301.83	1826.79
302.05	1652.71
302.26	1695.72
302.47	1708.01
302.69	1619.94
302.90	1708.01
303.12	1525.74
303.33	1708.01
303.54	1855.46
303.76	1658.85
303.97	1701.86
304.19	1826.79
304.40	1640.42
304.61	1769.44
304.83	1804.26
305.04	1751.01
305.26	1679.33
305.47	1642.47
305.68	1697.77
305.90	1652.71
306.11	1740.77
306.33	1726.44
306.54	1677.29
306.75	1695.72
306.97	1632.23
307.18	1597.42
307.39	1626.09
307.61	1736.68
307.82	1646.57
308.04	1847.27
308.25	1726.44
308.46	1687.53
308.68	1697.77
308.89	1697.77
309.10	1744.87
309.32	1648.61
309.53	1677.29
309.74	1765.35
309.96	1644.52
310.17	1779.68
310.39	1634.28
310.60	1654.76
310.81	1722.34
311.03	1675.24
311.24	1779.68
311.45	1740.77
311.67	1763.30
311.88	1769.44
312.09	1669.09
312.31	1615.85
312.52	1705.96
312.73	1683.43
312.95	1599.46
313.16	1660.90
313.37	1761.25
313.59	1763.30
313.80	1794.02
314.01	1794.02
314.23	1734.63
314.44	1705.96
314.65	1638.38
314.87	1632.23
315.08	1753.06
315.29	1667.05
315.51	1613.80
315.72	1671.14
315.93	1796.07
316.15	1744.87
316.36	1693.67
316.57	1699.81
316.79	1718.25
317.00	1648.61
317.21	1765.35
317.43	1593.32
317.64	1621.99
317.85	1710.05
318.07	1675.24
318.28	1724.39
318.49	1859.56
318.70	1959.91
318.92	1810.40
319.13	1777.64
319.34	1832.93
319.56	1759.21
319.77	1748.97
319.98	1744.87
320.20	1779.68
320.41	1746.92
320.62	1755.11
320.83	1624.04
321.05	1757.16
321.26	1751.01
321.47	1646.57
321.69	1865.70
321.90	1656.81
322.11	1757.16
322.32	1753.06
322.54	1765.35
322.75	1759.21
322.96	1882.08
323.18	1667.05
323.39	1593.32
323.60	1695.72
323.81	1769.44
324.03	1734.63
324.24	1697.77
324.45	1687.53
324.66	1695.72
324.88	1802.21
325.09	1746.92
325.30	1679.33
325.52	1720.29
325.73	1738.73
325.94	1665.00
326.15	1613.80
326.37	1722.34
326.58	1761.25
326.79	1796.07
327.00	1691.62
327.22	1701.86
327.43	1730.53
327.64	1636.33
327.85	1701.86
328.07	1718.25
328.28	1808.36
328.49	1640.42
328.70	1779.68
328.92	1763.30
329.13	1675.24
329.34	1800.16
329.55	1794.02
329.76	1771.49
329.98	1683.43
330.19	1849.32
330.40	1732.58
330.61	1683.43
330.83	1734.63
331.04	1669.09
331.25	1726.44
331.46	1677.29
331.68	1628.14
331.89	1761.25
332.10	1667.05
332.31	1628.14
332.52	1646.57
332.74	1783.78
332.95	1617.90
333.16	1687.53
333.37	1720.29
333.58	1650.66
333.80	1658.85
334.01	1648.61
334.22	1701.86
334.43	1632.23
334.64	1675.24
334.86	1658.85
335.07	1683.43
335.28	1738.73
335.49	1644.52
335.70	1732.58
335.92	1886.18
336.13	1820.64
336.34	1763.30
336.55	1822.69
336.76	1781.73
336.98	1634.28
337.19	1703.91
337.40	1744.87
337.61	1847.27
337.82	1720.29
338.04	1804.26
338.25	1687.53
338.46	1683.43
338.67	1738.73
338.88	1624.04
339.09	1624.04
339.31	1726.44
339.52	1550.31
339.73	1660.90
339.94	1710.05
340.15	1718.25
340.36	1597.42
340.58	1667.05
340.79	1593.32
341.00	1693.67
341.21	1634.28
341.42	1806.31
341.63	1798.12
341.85	1769.44
342.06	1736.68
342.27	1687.53
342.48	1791.97
342.69	1617.90
342.90	1751.01
343.12	1695.72
343.33	1724.39
343.54	1710.05
343.75	1738.73
343.96	1748.97
344.17	1728.49
344.38	1685.48
344.60	1642.47
344.81	1636.33
345.02	1611.75
345.23	1751.01
345.44	1808.36
345.65	1755.11
345.86	1685.48
346.07	1710.05
346.29	1722.34
346.50	1765.35
346.71	1658.85
346.92	1730.53
347.13	1802.21
347.34	1687.53
347.55	1665.00
347.76	1685.48
347.98	1613.80
348.19	1654.76
348.40	1785.83
348.61	1648.61
348.82	1820.64
349.03	1744.87
349.24	1626.09
349.45	1740.77
349.66	1558.50
349.88	1789.92
350.09	1675.24
350.30	1746.92
350.51	1800.16
350.72	1708.01
350.93	1814.50
351.14	1681.38
351.35	1681.38
351.56	1705.96
351.77	1718.25
351.99	1708.01
352.20	1798.12
352.41	1787.88
352.62	1599.46
352.83	1693.67
353.04	1718.25
353.25	1712.10
353.46	1763.30
353.67	1744.87
353.88	1550.31
354.09	1757.16
354.30	1757.16
354.52	1732.58
354.73	1683.43
354.94	1697.77
355.15	1726.44
355.36	1789.92
355.57	1718.25
355.78	1685.48
355.99	1607.66
356.20	1646.57
356.41	1779.68
356.62	1718.25
356.83	1724.39
357.04	1748.97
357.25	1632.23
357.46	1695.72
357.68	1621.99
357.89	1624.04
358.10	1656.81
358.31	1714.15
358.52	1712.10
358.73	1576.94
358.94	1662.95
359.15	1648.61
359.36	1748.97
359.57	1705.96
359.78	1738.73
359.99	1730.53
360.20	1648.61
360.41	1675.24
360.62	1785.83
360.83	1722.34
361.04	1691.62
361.25	1773.54
361.46	1849.32
361.67	1748.97
361.88	1732.58
362.09	1734.63
362.30	1699.81
362.51	1708.01
362.72	1660.90
362.93	1765.35
363.14	1740.77
363.35	1708.01
363.56	1714.15
363.78	1824.74
363.99	1753.06
364.20	1759.21
364.41	1691.62
364.62	1794.02
364.83	1753.06
365.04	1701.86
365.25	1687.53
365.46	1820.64
365.67	1722.34
365.88	1677.29
366.09	1685.48
366.30	1697.77
366.51	1722.34
366.72	1624.04
366.93	1697.77
367.14	1712.10
367.35	1796.07
367.56	1710.05
367.77	1820.64
367.98	1718.25
368.18	1687.53
368.39	1712.10
368.60	1626.09
368.81	1748.97
369.02	1677.29
369.23	1669.09
369.44	1595.37
369.65	1662.95
369.86	1730.53
370.07	1818.60
370.28	1667.05
370.49	1779.68
370.70	1703.91
370.91	1656.81
371.12	1671.14
371.33	1751.01
371.54	1656.81
371.75	1779.68
371.96	1615.85
372.17	1681.38
372.38	1722.34
372.59	1751.01
372.80	1701.86
373.01	1724.39
373.22	1660.90
373.43	1658.85
373.64	1589.22
373.85	1736.68
374.06	1767.40
374.26	1714.15
374.47	1779.68
374.68	1775.59
374.89	1783.78
375.10	1591.27
375.31	1757.16
375.52	1665.00
375.73	1671.14
375.94	1626.09
376.15	1730.53
376.36	1669.09
376.57	1691.62
376.78	1681.38
376.99	1740.77
377.20	1728.49
377.40	1648.61
377.61	1828.84
377.82	1689.57
378.03	1732.58
378.24	1751.01
378.45	1712.10
378.66	1736.68
378.87	1599.46
379.08	1675.24
379.29	1689.57
379.50	1730.53
379.71	1652.71
379.91	1804.26
380.12	1695.72
380.33	1660.90
380.54	1662.95
380.75	1753.06
380.96	1638.38
381.17	1726.44
381.38	1644.52
381.59	1712.10
381.80	1710.05
382.00	1765.35
382.21	1767.40
382.42	1865.70
382.63	1906.66
382.84	1755.11
383.05	1728.49
383.26	1798.12
383.47	1708.01
383.68	1761.25
383.88	1777.64
384.09	1710.05
384.30	1796.07
384.51	1769.44
384.72	1755.11
384.93	1691.62
385.14	1730.53
385.35	1755.11
385.55	1654.76
385.76	1738.73
385.97	1726.44
386.18	1669.09
386.39	1724.39
386.60	1718.25
386.81	1730.53
387.02	1583.08
387.22	1703.91
387.43	1783.78
387.64	1802.21
387.85	1816.55
388.06	2277.34
388.27	4351.93
388.48	6963.09
388.68	8253.31
388.89	9631.60
389.10	9842.54
389.31	8882.04
389.52	7694.22
389.73	6915.99
389.93	6332.32
390.14	5906.34
390.35	5207.98
390.56	4657.08
390.77	3762.12
390.98	3194.83
391.18	2551.77
391.39	2144.22
391.60	1822.69
391.81	1853.41
392.02	1724.39
392.23	1761.25
392.43	1665.00
392.64	1847.27
392.85	1705.96
393.06	1808.36
393.27	1789.92
393.47	1730.53
393.68	1697.77
393.89	1677.29
394.10	1794.02
394.31	1693.67
394.52	1654.76
394.72	1689.57
394.93	1810.40
395.14	1621.99
395.35	1785.83
395.56	1632.23
395.76	1716.20
395.97	1814.50
396.18	1812.45
396.39	1804.26
396.60	2097.12
396.80	1900.52
397.01	1820.64
397.22	1820.64
397.43	1828.84
397.64	1703.91
397.84	1769.44
398.05	1886.18
398.26	1722.34
398.47	1804.26
398.67	1798.12
398.88	1697.77
399.09	1726.44
399.30	1638.38
399.51	1695.72
399.71	1683.43
399.92	1740.77
400.13	1748.97
400.34	1724.39
400.54	1714.15
400.75	1873.89
400.96	1761.25
401.17	1775.59
401.37	1748.97
401.58	1681.38
401.79	1744.87
402.00	1832.93
402.21	2086.88
402.41	1994.72
402.62	1964.00
402.83	1994.72
403.04	1939.43
403.24	2058.21
403.45	1832.93
403.66	1976.29
403.87	1824.74
404.07	1892.32
404.28	1984.48
404.49	1861.60
404.70	1806.31
404.90	1787.88
405.11	1740.77
405.32	1746.92
405.52	1667.05
405.73	1679.33
405.94	1658.85
406.15	1712.10
406.35	1726.44
406.56	1705.96
406.77	1703.91
406.98	1722.34
407.18	1675.24
407.39	1779.68
407.60	1658.85
407.80	1804.26
408.01	1726.44
408.22	1742.82
408.43	1683.43
408.63	1732.58
408.84	1730.53
409.05	1746.92
409.25	1615.85
409.46	1671.14
409.67	1712.10
409.88	1705.96
410.08	1736.68
410.29	1695.72
410.50	1671.14
410.70	1665.00
410.91	1646.57
411.12	1722.34
411.32	1662.95
411.53	1708.01
411.74	1894.37
411.95	1759.21
412.15	1751.01
412.36	1861.60
412.57	1796.07
412.77	1783.78
412.98	1642.47
413.19	1718.25
413.39	1748.97
413.60	1738.73
413.81	1781.73
414.01	1640.42
414.22	1740.77
414.43	1759.21
414.63	1699.81
414.84	1701.86
415.05	1714.15
415.25	1665.00
415.46	1812.45
415.67	1632.23
415.87	1695.72
416.08	1650.66
416.29	1755.11
416.49	1669.09
416.70	1705.96
416.91	1685.48
417.11	1693.67
417.32	1814.50
417.53	1734.63
417.73	1714.15
417.94	1746.92
418.15	1705.96
418.35	1689.57
418.56	1669.09
418.77	1982.43
418.97	1763.30
419.18	1701.86
419.38	1574.89
419.59	1632.23
419.80	1830.88
420.00	1726.44
420.21	1681.38
420.42	1759.21
420.62	1710.05
420.83	1642.47
421.04	1746.92
421.24	1767.40
421.45	1744.87
421.65	1761.25
421.86	1640.42
422.07	1759.21
422.27	1685.48
422.48	1726.44
422.69	1667.05
422.89	1609.70
423.10	1660.90
423.30	1607.66
423.51	1710.05
423.72	1751.01
423.92	1693.67
424.13	1593.32
424.33	1783.78
424.54	1753.06
424.75	1732.58
424.95	1857.51
425.16	1761.25
425.36	1667.05
425.57	1732.58
425.78	1759.21
425.98	1708.01
426.19	1751.01
426.39	1609.70
426.60	1632.23
426.81	1837.03
427.01	1650.66
427.22	1689.57
427.42	1597.42
427.63	1667.05
427.83	1691.62
428.04	1830.88
428.25	1781.73
428.45	1722.34
428.66	1744.87
428.86	1587.18
429.07	1689.57
429.28	1673.19
429.48	1714.15
429.69	1642.47
429.89	1705.96
430.10	1736.68
430.30	1771.49
430.51	1781.73
430.71	1687.53
430.92	1763.30
431.13	1710.05
431.33	1615.85
431.54	1759.21
431.74	1787.88
431.95	1847.27
432.15	1626.09
432.36	1736.68
432.56	1742.82
432.77	1869.80
432.98	1796.07
433.18	1746.92
433.39	1695.72
433.59	1687.53
433.80	1773.54
434.00	1882.08
434.21	1716.20
434.41	1589.22
434.62	1818.60
434.82	1673.19
435.03	1746.92
435.23	1718.25
435.44	1646.57
435.64	1720.29
435.85	1712.10
436.06	1765.35
436.26	1847.27
436.47	1751.01
436.67	1714.15
436.88	1673.19
437.08	1800.16
437.29	1783.78
437.49	1710.05
437.70	1763.30
437.90	1765.35
438.11	1796.07
438.31	1810.40
438.52	1888.23
438.72	1894.37
438.93	1855.46
439.13	1744.87
439.34	1802.21
439.54	1742.82
439.75	1814.50
439.95	1789.92
440.16	1736.68
440.36	1775.59
440.57	1730.53
440.77	1710.05
440.98	1763.30
441.18	1751.01
441.39	1755.11
441.59	1576.94
441.80	1822.69
442.00	1705.96
442.21	1763.30
442.41	1613.80
442.62	1748.97
442.82	1675.24
443.02	1742.82
443.23	1730.53
443.43	1742.82
443.64	1857.51
443.84	1773.54
444.05	1777.64
444.25	1744.87
444.46	1710.05
444.66	1734.63
444.87	1812.45
445.07	1703.91
445.28	1755.11
445.48	1759.21
445.69	1779.68
445.89	1847.27
446.09	1757.16
446.30	1992.67
446.50	2652.12
446.71	3751.88
446.91	4493.24
447.12	4636.60
447.32	4933.56
447.53	4392.89
447.73	3973.06
447.93	3561.42
448.14	3268.56
448.34	3332.05
448.55	2916.31
448.75	2959.31
448.96	2705.37
449.16	2340.83
449.36	2256.86
449.57	2109.41
449.77	1865.70
449.98	1820.64
450.18	1742.82
450.39	1810.40
450.59	1785.83
450.79	1779.68
451.00	1722.34
451.20	1738.73
451.41	1658.85
451.61	1847.27
451.81	1693.67
452.02	1679.33
452.22	1730.53
452.43	1720.29
452.63	1642.47
452.84	1746.92
453.04	1703.91
453.24	1652.71
453.45	1648.61
453.65	1724.39
453.86	1748.97
454.06	1755.11
454.26	1701.86
454.47	1714.15
454.67	1855.46
454.87	1751.01
455.08	1744.87
455.28	1783.78
455.49	1822.69
455.69	1662.95
455.89	1824.74
456.10	1761.25
456.30	1712.10
456.51	1740.77
456.71	1767.40
456.91	1781.73
457.12	1724.39
457.32	1849.32
457.52	1718.25
457.73	1865.70
457.93	1746.92
458.14	1648.61
458.34	1685.48
458.54	1697.77
458.75	1685.48
458.95	1781.73
459.15	1796.07
459.36	1755.11
459.56	1779.68
459.76	1855.46
459.97	1791.97
460.17	1660.90
460.37	1828.84
460.58	1677.29
460.78	1751.01
460.99	1687.53
461.19	1748.97
461.39	1712.10
461.60	1779.68
461.80	1785.83
462.00	1699.81
462.21	1699.81
462.41	1701.86
462.61	1662.95
462.82	1673.19
463.02	1814.50
463.22	1675.24
463.43	1695.72
463.63	1701.86
463.83	1751.01
464.04	1765.35
464.24	1728.49
464.44	1751.01
464.64	1730.53
464.85	1816.55
465.05	1720.29
465.25	1759.21
465.46	1691.62
465.66	1808.36
465.86	1800.16
466.07	1775.59
466.27	1742.82
466.47	1660.90
466.68	1603.56
466.88	1839.08
467.08	1722.34
467.29	1791.97
467.49	1755.11
467.69	1658.85
467.89	1742.82
468.10	1701.86
468.30	1732.58
468.50	1734.63
468.71	1755.11
468.91	1640.42
469.11	1777.64
469.31	1705.96
469.52	1779.68
469.72	1845.22
469.92	1777.64
470.13	1812.45
470.33	1757.16
470.53	1826.79
470.73	2107.36
470.94	2332.64
471.14	2308.06
471.34	2463.71
471.54	2367.45
471.75	2240.48
471.95	2174.94
472.15	2068.45
472.36	2144.22
472.56	2078.69
472.76	2002.91
472.96	1988.58
473.17	1947.62
473.37	1912.80
473.57	1800.16
473.77	1773.54
473.98	1683.43
474.18	1740.77
474.38	1910.75
474.58	1619.94
474.79	1667.05
474.99	1697.77
475.19	1802.21
475.39	1726.44
475.60	1775.59
475.80	1748.97
476.00	1701.86
476.20	1669.09
476.41	1697.77
476.61	1714.15
476.81	1732.58
477.01	1673.19
477.21	1871.84
477.42	1826.79
477.62	1673.19
477.82	1738.73
478.02	1675.24
478.23	1775.59
478.43	1607.66
478.63	1738.73
478.83	1685.48
479.03	1734.63
479.24	1845.22
479.44	1882.08
479.64	1587.18
479.84	1566.70
480.04	1677.29
480.25	1775.59
480.45	1658.85
480.65	1705.96
480.85	1693.67
481.06	1689.57
481.26	1802.21
481.46	1753.06
481.66	1761.25
481.86	1628.14
482.06	1767.40
482.27	1665.00
482.47	1646.57
482.67	1697.77
482.87	1662.95
483.07	1757.16
483.28	1640.42
483.48	1677.29
483.68	1695.72
483.88	1611.75
484.08	1640.42
484.29	1716.20
484.49	1679.33
484.69	1722.34
484.89	1814.50
485.09	1785.83
485.29	1769.44
485.50	1763.30
485.70	1654.76
485.90	1791.97
486.10	1806.31
486.30	1791.97
486.50	1785.83
486.71	1654.76
486.91	1718.25
487.11	1808.36
487.31	1712.10
487.51	1712.10
487.71	1687.53
487.91	1703.91
488.12	1689.57
488.32	1589.22
488.52	1652.71
488.72	1599.46
488.92	1720.29
489.12	1767.40
489.32	1765.35
489.53	1791.97
489.73	1660.90
489.93	1800.16
490.13	1685.48
490.33	1640.42
490.53	1755.11
490.73	1824.74
490.94	1675.24
491.14	1796.07
491.34	1773.54
491.54	2103.26
491.74	2547.67
491.94	2985.94
492.14	3006.42
492.34	2977.75
492.54	2768.85
492.75	2516.95
492.95	2435.03
493.15	2365.40
493.35	2246.62
493.55	2217.95
493.75	2123.74
493.95	2097.12
494.15	1972.19
494.35	1890.28
494.56	1849.32
494.76	1759.21
494.96	1832.93
495.16	1769.44
495.36	1730.53
495.56	1765.35
495.76	1689.57
495.96	1703.91
496.16	1708.01
496.36	1722.34
496.56	1806.31
496.77	1738.73
496.97	1714.15
497.17	1777.64
497.37	1669.09
497.57	1796.07
497.77	1716.20
497.97	1652.71
498.17	1701.86
498.37	1746.92
498.57	1742.82
498.77	1738.73
498.97	1744.87
499.17	1851.36
499.38	1724.39
499.58	1748.97
499.78	1691.62
499.98	1875.94
500.18	1687.53
500.38	1669.09
500.58	1933.28
500.78	2512.86
500.98	4569.02
501.18	5873.57
501.38	6866.84
501.58	7219.09
501.78	6842.26
501.98	5668.78
502.18	5021.62
502.38	4419.52
502.58	4179.90
502.78	3848.13
502.98	3700.68
503.18	3563.47
503.38	3137.49
503.59	2912.21
503.79	2621.40
503.99	2527.19
504.19	2359.26
504.39	2181.09
504.59	2099.17
504.79	2156.51
504.99	2080.74
505.19	1931.23
505.39	1970.15
505.59	1890.28
505.79	1882.08
505.99	1880.04
506.19	1798.12
506.39	1906.66
506.59	1705.96
506.79	1794.02
506.99	1777.64
507.19	1781.73
507.39	1751.01
507.59	1693.67
507.79	1687.53
507.99	1728.49
508.19	1710.05
508.39	1703.91
508.59	1671.14
508.79	1800.16
508.99	1796.07
509.19	1685.48
509.39	1830.88
509.59	1646.57
509.79	1794.02
509.99	1775.59
510.19	1724.39
510.39	1746.92
510.59	1771.49
510.79	1710.05
510.99	1671.14
511.19	1763.30
511.39	1828.84
511.59	1822.69
511.79	1820.64
511.99	1685.48
512.19	1845.22
512.38	1699.81
512.58	1714.15
512.78	1673.19
512.98	1826.79
513.18	1794.02
513.38	1703.91
513.58	1828.84
513.78	1730.53
513.98	1689.57
514.18	1667.05
514.38	1716.20
514.58	1804.26
514.78	1738.73
514.98	1724.39
515.18	1740.77
515.38	1697.77
515.58	1916.90
515.78	1705.96
515.98	1724.39
516.18	1722.34
516.38	1720.29
516.57	1695.72
516.77	1712.10
516.97	1759.21
517.17	1734.63
517.37	1638.38
517.57	1767.40
517.77	1726.44
517.97	1748.97
518.17	1720.29
518.37	1736.68
518.57	1751.01
518.77	1720.29
518.97	1800.16
519.16	1798.12
519.36	1812.45
519.56	1669.09
519.76	1687.53
519.96	1785.83
520.16	1826.79
520.36	1677.29
520.56	1791.97
520.76	1675.24
520.96	1697.77
521.16	1849.32
521.35	1759.21
521.55	1744.87
521.75	1730.53
521.95	1804.26
522.15	1761.25
522.35	1683.43
522.55	1632.23
522.75	1771.49
522.95	1669.09
523.14	1679.33
523.34	1796.07
523.54	1759.21
523.74	1701.86
523.94	1705.96
524.14	1722.34
524.34	1918.95
524.54	1853.41
524.73	1679.33
524.93	1783.78
525.13	1736.68
525.33	1720.29
525.53	1832.93
525.73	1787.88
525.93	1714.15
526.13	1677.29
526.32	1740.77
526.52	1804.26
526.72	1761.25
526.92	1710.05
527.12	1720.29
527.32	1685.48
527.52	1798.12
527.71	1781.73
527.91	1773.54
528.11	1681.38
528.31	1705.96
528.51	1671.14
528.71	1763.30
528.90	1847.27
529.10	1816.55
529.30	1832.93
529.50	1730.53
529.70	1769.44
529.90	1759.21
530.09	1681.38
530.29	1703.91
530.49	1716.20
530.69	1853.41
530.89	1701.86
531.09	1718.25
531.28	1685.48
531.48	1775.59
531.68	1800.16
531.88	1744.87
532.08	1703.91
532.28	1693.67
532.47	1796.07
532.67	1746.92
532.87	1755.11
533.07	1650.66
533.27	1751.01
533.46	1757.16
533.66	1755.11
533.86	1728.49
534.06	1753.06
534.26	1738.73
534.45	1605.61
534.65	1863.65
534.85	1734.63
535.05	1673.19
535.25	1722.34
535.44	1619.94
535.64	1738.73
535.84	1722.34
536.04	1755.11
536.24	1708.01
536.43	1757.16
536.63	1718.25
536.83	1746.92
537.03	1765.35
537.22	1564.65
537.42	1679.33
537.62	1699.81
537.82	1671.14
538.02	1800.16
538.21	1824.74
538.41	1892.32
538.61	1814.50
538.81	1691.62
539.00	1802.21
539.20	1685.48
539.40	1730.53
539.60	1773.54
539.79	1808.36
539.99	1787.88
540.19	1652.71
540.39	1751.01
540.58	1759.21
540.78	1789.92
540.98	1789.92
541.18	1748.97
541.37	1814.50
541.57	1730.53
541.77	1857.51
541.97	1714.15
542.16	1615.85
542.36	1730.53
542.56	1773.54
542.76	1830.88
542.95	1757.16
543.15	1701.86
543.35	1796.07
543.54	1675.24
543.74	1732.58
543.94	1814.50
544.14	1697.77
544.33	1740.77
544.53	1816.55
544.73	1736.68
544.93	1679.33
545.12	1671.14
545.32	1748.97
545.52	1714.15
545.71	1642.47
545.91	1740.77
546.11	1714.15
546.30	1658.85
546.50	1759.21
546.70	1781.73
546.90	1771.49
547.09	1665.00
547.29	1779.68
547.49	1759.21
547.68	1748.97
547.88	1740.77
548.08	1722.34
548.27	2172.89
548.47	1701.86
548.67	1701.86
548.87	1802.21
549.06	1689.57
549.26	1753.06
549.46	1798.12
549.65	1621.99
549.85	1769.44
550.05	1796.07
550.24	1615.85
550.44	1765.35
550.64	1753.06
550.83	1734.63
551.03	1794.02
551.23	1767.40
551.42	1777.64
551.62	1734.63
551.82	1742.82
552.01	1708.01
552.21	1806.31
552.41	1746.92
552.60	1794.02
552.80	1718.25
553.00	1626.09
553.19	1699.81
553.39	1824.74
553.59	1681.38
553.78	1800.16
553.98	1712.10
554.17	1658.85
554.37	1738.73
554.57	1757.16
554.76	1644.52
554.96	1726.44
555.16	1720.29
555.35	1697.77
555.55	1773.54
555.75	1814.50
555.94	1796.07
556.14	1667.05
556.33	1714.15
556.53	1824.74
556.73	1697.77
556.92	1775.59
557.12	1845.22
557.32	1769.44
557.51	1837.03
557.71	1728.49
557.90	1812.45
558.10	1773.54
558.30	1732.58
558.49	1699.81
558.69	1769.44
558.88	1730.53
559.08	1710.05
559.28	1691.62
559.47	1746.92
559.67	1783.78
559.86	1867.75
560.06	1759.21
560.26	1703.91
560.45	1765.35
560.65	1755.11
560.84	1777.64
561.04	1648.61
561.24	1759.21
561.43	1679.33
561.63	1794.02
561.82	1796.07
562.02	1738.73
562.22	1693.67
562.41	1685.48
562.61	1720.29
562.80	1771.49
563.00	1794.02
563.19	1728.49
563.39	1816.55
563.59	1742.82
563.78	1714.15
563.98	1681.38
564.17	1677.29
564.37	1685.48
564.56	1791.97
564.76	1660.90
564.96	1830.88
565.15	1751.01
565.35	1802.21
565.54	1794.02
565.74	1742.82
565.93	1763.30
566.13	1736.68
566.32	1812.45
566.52	1777.64
566.71	1755.11
566.91	1699.81
567.11	1779.68
567.30	1710.05
567.50	1804.26
567.69	1728.49
567.89	1759.21
568.08	1732.58
568.28	1755.11
568.47	1665.00
568.67	1759.21
568.86	1765.35
569.06	1779.68
569.25	1712.10
569.45	1673.19
569.64	1683.43
569.84	1701.86
570.04	1753.06
570.23	1662.95
570.43	1716.20
570.62	1697.77
570.82	1808.36
571.01	1660.90
571.21	1724.39
571.40	1677.29
571.60	1767.40
571.79	1783.78
571.99	1777.64
572.18	1662.95
572.38	1779.68
572.57	1730.53
572.77	1677.29
572.96	1880.04
573.16	1759.21
573.35	1742.82
573.55	1841.12
573.74	1746.92
573.94	1660.90
574.13	1718.25
574.33	1843.17
574.52	1767.40
574.71	1789.92
574.91	1691.62
575.10	1652.71
575.30	1658.85
575.49	1720.29
575.69	1632.23
575.88	1720.29
576.08	1730.53
576.27	1724.39
576.47	1824.74
576.66	1802.21
576.86	1748.97
577.05	1787.88
577.25	1740.77
577.44	1892.32
577.64	1693.67
577.83	1802.21
578.02	1722.34
578.22	1789.92
578.41	1867.75
578.61	1781.73
578.80	1687.53
579.00	1810.40
579.19	1824.74
579.39	1816.55
579.58	1818.60
579.77	1789.92
579.97	1810.40
580.16	1812.45
580.36	1857.51
580.55	1890.28
580.75	1732.58
580.94	1724.39
581.13	1877.99
581.33	1796.07
581.52	1701.86
581.72	1880.04
581.91	1861.60
582.11	1761.25
582.30	1779.68
582.49	1720.29
582.69	1851.36
582.88	1724.39
583.08	1767.40
583.27	1771.49
583.47	1740.77
583.66	1724.39
583.85	1677.29
584.05	1757.16
584.24	1800.16
584.44	1806.31
584.63	1845.22
584.82	1791.97
585.02	1818.60
585.21	1832.93
585.41	1767.40
585.60	1820.64
585.79	1904.61
585.99	1996.77
586.18	1818.60
586.37	2244.57
586.57	3336.14
586.76	10131.30
586.96	24761.99
587.15	34958.83
587.34	41360.78
587.54	42974.58
587.73	37213.64
587.93	26973.80
588.12	21954.22
588.31	18482.92
588.51	16471.81
588.70	15529.75
588.89	14575.39
589.09	13014.84
589.28	11374.42
589.47	9553.77
589.67	8171.40
589.86	6563.74
590.06	5214.13
590.25	3989.44
590.44	3135.44
590.64	2529.24
590.83	2279.39
591.02	2080.74
591.22	1931.23
591.41	1951.71
591.60	1808.36
591.80	1929.19
591.99	1714.15
592.18	1779.68
592.38	1730.53
592.57	1722.34
592.76	1804.26
592.96	1759.21
593.15	1708.01
593.34	1785.83
593.54	1748.97
593.73	1722.34
593.92	1773.54
594.12	1783.78
594.31	1724.39
594.50	1875.94
594.70	1744.87
594.89	1812.45
595.08	1714.15
595.28	1718.25
595.47	1929.19
595.66	1841.12
595.86	1710.05
596.05	1703.91
596.24	1740.77
596.43	1843.17
596.63	1783.78
596.82	1685.48
597.01	1869.80
597.21	1816.55
597.40	1771.49
597.59	1751.01
597.79	1732.58
597.98	1818.60
598.17	1746.92
598.36	1777.64
598.56	1789.92
598.75	1720.29
598.94	1796.07
599.14	1826.79
599.33	1712.10
599.52	1808.36
599.71	1746.92
599.91	1804.26
600.10	1726.44
600.29	1742.82
600.48	1843.17
600.68	1755.11
600.87	1718.25
601.06	1769.44
601.26	1697.77
601.45	1693.67
601.64	1652.71
601.83	1855.46
602.03	1716.20
602.22	1777.64
602.41	1798.12
602.60	1816.55
602.80	1806.31
602.99	1712.10
603.18	1687.53
603.37	1787.88
603.57	1787.88
603.76	1806.31
603.95	1826.79
604.14	1675.24
604.34	1675.24
604.53	1773.54
604.72	1734.63
604.91	1767.40
605.10	1789.92
605.30	1705.96
605.49	1832.93
605.68	1791.97
605.87	1751.01
606.07	1705.96
606.26	1753.06
606.45	1767.40
606.64	1757.16
606.84	1724.39
607.03	1818.60
607.22	1849.32
607.41	1617.90
607.60	1687.53
607.80	1781.73
607.99	1712.10
608.18	1714.15
608.37	1724.39
608.56	1763.30
608.76	1775.59
608.95	1830.88
609.14	1720.29
609.33	1787.88
609.52	1726.44
609.72	1734.63
609.91	1814.50
610.10	1662.95
610.29	1777.64
610.48	1781.73
610.68	1771.49
610.87	1785.83
611.06	1740.77
611.25	1703.91
611.44	1837.03
611.63	1634.28
611.83	1802.21
612.02	1648.61
612.21	1812.45
612.40	1699.81
612.59	1708.01
612.79	1632.23
612.98	1757.16
613.17	1806.31
613.36	1757.16
613.55	1789.92
613.74	1640.42
613.93	1701.86
614.13	1726.44
614.32	1710.05
614.51	1789.92
614.70	1771.49
614.89	1697.77
615.08	1714.15
615.28	2125.79
615.47	1673.19
615.66	1789.92
615.85	1714.15
616.04	1890.28
616.23	1740.77
616.42	1779.68
616.62	1744.87
616.81	1718.25
617.00	1730.53
617.19	1783.78
617.38	1650.66
617.57	1691.62
617.76	1744.87
617.95	1718.25
618.15	1771.49
618.34	1826.79
618.53	1683.43
618.72	1804.26
618.91	1877.99
619.10	1812.45
619.29	1742.82
619.48	1765.35
619.68	1703.91
619.87	1710.05
620.06	1683.43
620.25	1726.44
620.44	1714.15
620.63	1748.97
620.82	1675.24
621.01	1755.11
621.20	1730.53
621.39	1757.16
621.59	1701.86
621.78	1701.86
621.97	1693.67
622.16	1804.26
622.35	1697.77
622.54	1871.84
622.73	1857.51
622.92	1685.48
623.11	1816.55
623.30	1732.58
623.49	1839.08
623.68	1701.86
623.88	1796.07
624.07	1652.71
624.26	1753.06
624.45	1716.20
624.64	1681.38
624.83	1726.44
625.02	1718.25
625.21	1759.21
625.40	1789.92
625.59	1818.60
625.78	1705.96
625.97	1763.30
626.16	1755.11
626.35	1757.16
626.54	1669.09
626.74	1751.01
626.93	1726.44
627.12	1742.82
627.31	1880.04
627.50	1708.01
627.69	1763.30
627.88	1677.29
628.07	1710.05
628.26	1630.18
628.45	1632.23
628.64	1650.66
628.83	1703.91
629.02	1746.92
629.21	1748.97
629.40	1755.11
629.59	1662.95
629.78	1757.16
629.97	1712.10
630.16	1738.73
630.35	1689.57
630.54	1708.01
630.73	1722.34
630.92	1683.43
631.11	1732.58
631.30	1691.62
631.49	1751.01
631.68	1673.19
631.87	1751.01
632.06	1675.24
632.25	1863.65
632.44	1798.12
632.63	1724.39
632.82	1650.66
633.01	1632.23
633.20	1746.92
633.39	1708.01
633.58	1652.71
633.77	1734.63
633.96	1695.72
634.15	1773.54
634.34	1769.44
634.53	1675.24
634.72	1646.57
634.91	1691.62
635.10	1779.68
635.29	1763.30
635.48	1740.77
635.67	1701.86
635.86	1578.98
636.05	1822.69
636.24	1691.62
636.43	1736.68
636.62	1755.11
636.81	1609.70
637.00	1732.58
637.19	1789.92
637.38	1646.57
637.57	1660.90
637.76	1701.86
637.95	1746.92
638.14	1609.70
638.33	1656.81
638.52	1687.53
638.71	1683.43
638.89	1667.05
639.08	1910.75
639.27	1687.53
639.46	1683.43
639.65	1775.59
639.84	1714.15
640.03	1732.58
640.22	1669.09
640.41	1851.36
640.60	1714.15
640.79	1693.67
640.98	1673.19
641.17	1800.16
641.36	1806.31
641.55	1757.16
641.74	1642.47
641.92	1685.48
642.11	1644.52
642.30	1736.68
642.49	1656.81
642.68	1710.05
642.87	1757.16
643.06	1773.54
643.25	1708.01
643.44	1558.50
643.63	1708.01
643.82	1832.93
644.00	1673.19
644.19	1665.00
644.38	1714.15
644.57	1730.53
644.76	1751.01
644.95	1652.71
645.14	1656.81
645.33	1771.49
645.52	1783.78
645.71	1665.00
645.89	1667.05
646.08	1740.77
646.27	1691.62
646.46	1773.54
646.65	1689.57
646.84	1746.92
647.03	1654.76
647.22	1791.97
647.40	1703.91
647.59	1765.35
647.78	1609.70
647.97	1576.94
648.16	1589.22
648.35	1830.88
648.54	1779.68
648.73	1779.68
648.91	1767.40
649.10	1732.58
649.29	1669.09
649.48	1730.53
649.67	1681.38
649.86	1705.96
650.05	1693.67
650.23	1777.64
650.42	1591.27
650.61	1732.58
650.80	1681.38
650.99	1869.80
651.18	1800.16
651.36	1763.30
651.55	1730.53
651.74	1714.15
651.93	1613.80
652.12	1689.57
652.31	1714.15
652.49	1718.25
652.68	1630.18
652.87	1812.45
653.06	1738.73
653.25	1834.98
653.44	1722.34
653.62	1746.92
653.81	1730.53
654.00	1705.96
654.19	1726.44
654.38	1888.23
654.56	1845.22
654.75	1718.25
654.94	1724.39
655.13	1691.62
655.32	1667.05
655.51	1712.10
655.69	1697.77
655.88	1763.30
656.07	1671.14
656.26	1662.95
656.45	1650.66
656.63	1705.96
656.82	1787.88
657.01	1728.49
657.20	1722.34
657.38	1798.12
657.57	1658.85
657.76	1644.52
657.95	1820.64
658.14	1746.92
658.32	1751.01
658.51	1644.52
658.70	1816.55
658.89	1732.58
659.08	1681.38
659.26	1773.54
659.45	1656.81
659.64	1814.50
659.83	1615.85
660.01	1996.77
660.20	1703.91
660.39	1800.16
660.58	1632.23
660.76	1804.26
660.95	1636.33
661.14	1746.92
661.33	1634.28
661.51	1675.24
661.70	1658.85
661.89	1736.68
662.08	1720.29
662.26	1712.10
662.45	1681.38
662.64	1800.16
662.83	1705.96
663.01	1656.81
663.20	1722.34
663.39	1804.26
663.58	1736.68
663.76	1718.25
663.95	1685.48
664.14	1601.51
664.32	1675.24
664.51	1648.61
664.70	1603.56
664.89	1757.16
665.07	1654.76
665.26	1738.73
665.45	1675.24
665.64	1755.11
665.82	1667.05
666.01	1765.35
666.20	1673.19
666.38	1804.26
666.57	1800.16
666.76	2209.76
666.95	4442.04
667.13	10397.54
667.32	15644.43
667.51	18118.38
667.69	19584.73
667.88	17964.78
668.07	12609.34
668.25	9840.49
668.44	8302.47
668.63	7438.22
668.81	6768.54
669.00	6391.71
669.19	5719.98
669.38	5253.04
669.56	4652.98
669.75	3966.92
669.94	3553.23
670.12	2963.41
670.31	2586.58
670.50	2295.77
670.68	2166.75
670.87	1857.51
671.06	1812.45
671.24	1806.31
671.43	1859.56
671.62	1804.26
671.80	1730.53
671.99	1705.96
672.18	1734.63
672.36	1796.07
672.55	1804.26
672.74	1732.58
672.92	1609.70
673.11	1755.11
673.29	1632.23
673.48	1767.40
673.67	1681.38
673.85	1794.02
674.04	1665.00
674.23	1716.20
674.41	1796.07
674.60	1685.48
674.79	1542.12
674.97	1714.15
675.16	1787.88
675.34	1767.40
675.53	1712.10
675.72	1718.25
675.90	1738.73
676.09	1681.38
676.28	1734.63
676.46	1665.00
676.65	1718.25
676.83	1771.49
677.02	1751.01
677.21	1691.62
677.39	1703.91
677.58	1671.14
677.77	1646.57
677.95	1650.66
678.14	1755.11
678.32	1755.11
678.51	1669.09
678.70	1761.25
678.88	1722.34
679.07	1728.49
679.25	1734.63
679.44	1691.62
679.63	1650.66
679.81	1687.53
680.00	1832.93
680.18	1724.39
680.37	1787.88
680.55	1732.58
680.74	1689.57
680.93	1562.60
681.11	1746.92
681.30	1751.01
681.48	1681.38
681.67	1701.86
681.85	1705.96
682.04	1628.14
682.23	1765.35
682.41	1665.00
682.60	1683.43
682.78	1740.77
682.97	1669.09
683.15	1789.92
683.34	1708.01
683.53	1845.22
683.71	1660.90
683.90	1777.64
684.08	1736.68
684.27	1642.47
684.45	1691.62
684.64	1802.21
684.82	1716.20
685.01	1583.08
685.19	1710.05
685.38	1755.11
685.57	1656.81
685.75	1730.53
685.94	1755.11
686.12	1726.44
686.31	1660.90
686.49	1724.39
686.68	1624.04
686.86	1773.54
687.05	1695.72
687.23	1884.13
687.42	1705.96
687.60	1667.05
687.79	1734.63
687.97	1738.73
688.16	1783.78
688.34	1853.41
688.53	1619.94
688.71	1728.49
688.90	1738.73
689.08	1722.34
689.27	1628.14
689.45	1820.64
689.64	1736.68
689.82	1814.50
690.01	1740.77
690.19	1716.20
690.38	1724.39
690.56	1730.53
690.75	1656.81
690.93	1644.52
691.12	1708.01
691.30	1689.57
691.49	1669.09
691.67	1667.05
691.86	1871.84
692.04	1701.86
692.23	1650.66
692.41	1753.06
692.60	1859.56
692.78	1720.29
692.97	1724.39
693.15	1724.39
693.34	1718.25
693.52	1763.30
693.71	1736.68
693.89	1630.18
694.08	1658.85
694.26	1777.64
694.44	1685.48
694.63	1681.38
694.81	1671.14
695.00	1695.72
695.18	1695.72
695.37	1812.45
695.55	1791.97
695.74	1777.64
695.92	1716.20
696.10	1742.82
696.29	1630.18
696.47	1652.71
696.66	1572.84
696.84	1607.66
697.03	1595.37
697.21	1900.52
697.40	2289.63
697.58	1765.35
697.76	1652.71
697.95	1669.09
698.13	1591.27
698.32	1730.53
698.50	1734.63
698.68	1675.24
698.87	1685.48
699.05	1779.68
699.24	1703.91
699.42	1677.29
699.61	1693.67
699.79	1689.57
699.97	1779.68
700.16	1708.01
700.34	1642.47
700.53	1691.62
700.71	1822.69
700.89	1734.63
701.08	1716.20
701.26	1730.53
701.45	2119.65
701.63	1730.53
701.81	1626.09
702.00	1660.90
702.18	1732.58
702.37	1669.09
702.55	1773.54
702.73	1689.57
702.92	1624.04
703.10	1751.01
703.28	1722.34
703.47	1665.00
703.65	1783.78
703.84	1773.54
704.02	1640.42
704.20	1798.12
704.39	1701.86
704.57	1714.15
704.75	1794.02
704.94	1771.49
705.12	1791.97
705.30	1789.92
705.49	2273.25
705.67	4368.32
705.86	9512.81
706.04	12750.65
706.22	14712.61
706.41	15664.91
706.59	14092.07
706.77	9820.01
706.96	7514.00
707.14	6651.80
707.32	6039.46
707.51	5666.73
707.69	4992.95
707.87	4341.69
708.06	3585.99
708.24	2992.08
708.42	2432.99
708.61	2295.77
708.79	1822.69
708.97	1910.75
709.16	1798.12
709.34	1740.77
709.52	1757.16
709.71	1724.39
709.89	1763.30
710.07	1671.14
710.26	1628.14
710.44	1734.63
710.62	1757.16
710.80	1691.62
710.99	1730.53
711.17	1789.92
711.35	1677.29
711.54	1677.29
711.72	1710.05
711.90	1751.01
712.09	1671.14
712.27	1701.86
712.45	1751.01
712.63	1689.57
712.82	1769.44
713.00	1705.96
713.18	1705.96
713.37	1791.97
713.55	1705.96
713.73	1673.19
713.91	1859.56
714.10	1722.34
714.28	1716.20
714.46	1755.11
714.65	1728.49
714.83	1718.25
715.01	1691.62
715.19	1705.96
715.38	1734.63
715.56	1705.96
715.74	1658.85
715.92	1710.05
716.11	1751.01
716.29	1599.46
716.47	1636.33
716.65	1652.71
716.84	1585.13
717.02	1771.49
717.20	1638.38
717.38	1601.51
717.57	1738.73
717.75	1665.00
717.93	1660.90
718.11	1673.19
718.30	1632.23
718.48	1726.44
718.66	1693.67
718.84	1755.11
719.03	1746.92
719.21	1603.56
719.39	1806.31
719.57	1761.25
719.75	1742.82
719.94	1685.48
720.12	1671.14
720.30	1771.49
720.48	1755.11
720.67	1644.52
720.85	1722.34
721.03	1697.77
721.21	1695.72
721.39	1777.64
721.58	1773.54
721.76	1718.25
721.94	1736.68
722.12	1689.57
722.30	1810.40
722.49	1660.90
722.67	1781.73
722.85	1775.59
723.03	1646.57
723.21	1775.59
723.40	1751.01
723.58	1720.29
723.76	1726.44
723.94	1800.16
724.12	1761.25
724.30	1728.49
724.49	1742.82
724.67	1658.85
724.85	1843.17
725.03	1624.04
725.21	1691.62
725.40	1730.53
725.58	1665.00
725.76	1724.39
725.94	1765.35
726.12	1652.71
726.30	1736.68
726.49	1689.57
726.67	1751.01
726.85	1744.87
727.03	1767.40
727.21	2082.78
727.39	2953.17
727.57	3848.13
727.76	4288.45
727.94	4526.01
728.12	4489.15
728.30	3807.17
728.48	3053.52
728.66	2654.17
728.84	2576.34
729.03	2398.17
729.21	2162.66
729.39	1984.48
729.57	1894.37
729.75	1791.97
729.93	1875.94
730.11	1681.38
730.30	1814.50
730.48	1665.00
730.66	1824.74
730.84	1787.88
731.02	1646.57
731.20	1689.57
731.38	1683.43
731.56	1697.77
731.74	1611.75
731.93	1755.11
732.11	1732.58
732.29	1771.49
732.47	1755.11
732.65	1675.24
732.83	1763.30
733.01	1826.79
733.19	1691.62
733.37	1738.73
733.56	1777.64
733.74	1742.82
733.92	1742.82
734.10	1683.43
734.28	1761.25
734.46	1591.27
734.64	1658.85
734.82	1689.57
735.00	1601.51
735.18	1628.14
735.36	1730.53
735.54	1689.57
735.73	1732.58
735.91	1738.73
736.09	1773.54
736.27	1716.20
736.45	1654.76
736.63	1611.75
736.81	1665.00
736.99	1798.12
737.17	1834.98
737.35	1722.34
737.53	1806.31
737.71	1617.90
737.89	1759.21
738.07	1630.18
738.25	1654.76
738.43	1642.47
738.61	1720.29
738.80	1607.66
738.98	1597.42
739.16	1656.81
739.34	1710.05
739.52	1757.16
739.70	1568.74
739.88	1699.81
740.06	1730.53
740.24	1677.29
740.42	1814.50
740.60	1597.42
740.78	1740.77
740.96	1665.00
741.14	1726.44
741.32	1675.24
741.50	1636.33
741.68	1851.36
741.86	1812.45
742.04	1640.42
742.22	1685.48
742.40	1652.71
742.58	1722.34
742.76	1630.18
742.94	1728.49
743.12	1665.00
743.30	1705.96
743.48	1763.30
743.66	1603.56
743.84	1767.40
744.02	1726.44
744.20	1691.62
744.38	1638.38
744.56	1634.28
744.74	1843.17
744.92	1740.77
745.10	1820.64
745.28	1697.77
745.46	1775.59
745.64	1673.19
745.82	1687.53
746.00	1720.29
746.18	1669.09
746.36	1724.39
746.54	1716.20
746.72	1697.77
746.90	1624.04
747.08	1765.35
747.26	1564.65
747.44	1665.00
747.62	1767.40
747.80	1677.29
747.98	1724.39
748.15	1632.23
748.33	1820.64
748.51	1765.35
748.69	1798.12
748.87	1683.43
749.05	1665.00
749.23	1683.43
749.41	1742.82
749.59	1699.81
749.77	1777.64
749.95	1644.52
750.13	1632.23
750.31	1767.40
750.49	1683.43
750.67	1759.21
750.85	1806.31
751.03	1689.57
751.20	1798.12
751.38	1677.29
751.56	1630.18
751.74	1738.73
751.92	1683.43
752.10	1636.33
752.28	1738.73
752.46	1701.86
752.64	1658.85
752.82	1712.10
753.00	1787.88
753.18	1660.90
753.35	1621.99
753.53	1720.29
753.71	1636.33
753.89	1722.34
754.07	1771.49
754.25	1722.34
754.43	1710.05
754.61	1656.81
754.79	1722.34
754.97	1675.24
755.14	1724.39
755.32	1662.95
755.50	1753.06
755.68	1755.11
755.86	1705.96
756.04	1691.62
756.22	1665.00
756.40	1742.82
756.57	1841.12
756.75	1677.29
756.93	1789.92
757.11	1691.62
757.29	1677.29
757.47	1630.18
757.65	1554.41
757.82	1617.90
758.00	1691.62
758.18	1642.47
758.36	1736.68
758.54	1781.73
758.72	1583.08
758.90	1767.40
759.07	1703.91
759.25	1529.83
759.43	1728.49
759.61	1671.14
759.79	2226.14
759.97	1738.73
760.15	1720.29
760.32	1677.29
760.50	1673.19
760.68	1804.26
760.86	1626.09
761.04	1798.12
761.22	1705.96
761.39	1687.53
761.57	1697.77
761.75	1697.77
761.93	1687.53
762.11	1728.49
762.28	1695.72
762.46	1660.90
762.64	1744.87
762.82	1669.09
763.00	1644.52
763.18	1660.90
763.35	1648.61
763.53	1697.77
763.71	1626.09
763.89	1753.06
764.07	1685.48
764.24	1726.44
764.42	1824.74
764.60	1662.95
764.78	1734.63
764.96	1759.21
765.13	1705.96
765.31	1673.19
765.49	1705.96
765.67	1685.48
765.84	1656.81
766.02	1724.39
766.20	1626.09
766.38	1746.92
766.56	1732.58
766.73	1832.93
766.91	1730.53
767.09	1640.42
767.27	1685.48
767.44	1675.24
767.62	1775.59
767.80	1708.01
767.98	1658.85
768.15	1714.15
768.33	1685.48
768.51	1767.40
768.69	1677.29
768.87	1781.73
769.04	1697.77
769.22	1820.64
769.40	1781.73
769.58	1871.84
769.75	1695.72
769.93	1783.78
770.11	1689.57
770.28	1642.47
770.46	1753.06
770.64	1693.67
770.82	1683.43
770.99	1753.06
771.17	1730.53
771.35	1593.32
771.53	1671.14
771.70	1703.91
771.88	1730.53
772.06	1695.72
772.23	1697.77
772.41	1744.87
772.59	1800.16
772.77	1550.31
772.94	1650.66
773.12	1708.01
773.30	1660.90
773.47	1769.44
773.65	1599.46
773.83	1808.36
774.01	1595.37
774.18	1624.04
774.36	1658.85
774.54	1603.56
774.71	1675.24
774.89	1605.61
775.07	1673.19
775.24	1658.85
775.42	1665.00
775.60	1738.73
775.78	1705.96
775.95	1662.95
776.13	1603.56
776.31	1546.22
776.48	1718.25
776.66	1751.01
776.84	1669.09
777.01	1619.94
777.19	1642.47
777.37	1689.57
777.54	1765.35
777.72	1890.28
777.90	1681.38
778.07	1677.29
778.25	1892.32
778.43	1816.55
778.60	1642.47
778.78	1722.34
778.96	1808.36
779.13	1658.85
779.31	1822.69
779.49	1667.05
779.66	1712.10
779.84	1699.81
780.01	1617.90
780.19	1626.09
780.37	1755.11
780.54	1744.87
780.72	1613.80
780.90	1640.42
781.07	1675.24
781.25	1660.90
781.43	1761.25
781.60	1601.51
781.78	1839.08
781.95	1755.11
782.13	1669.09
782.31	1644.52
782.48	1595.37
782.66	1693.67
782.83	1781.73
783.01	1652.71
783.19	1734.63
783.36	1722.34
783.54	1652.71
783.72	1724.39
783.89	1714.15
784.07	1732.58
784.24	1693.67
784.42	1732.58
784.60	1691.62
784.77	1751.01
784.95	1562.60
785.12	1675.24
785.30	1705.96
785.47	1697.77
785.65	1611.75
785.83	1642.47
786.00	1703.91
786.18	1728.49
786.35	1687.53
786.53	1699.81
786.71	1710.05
786.88	1757.16
787.06	1665.00
787.23	1693.67
787.41	1648.61
787.58	1667.05
787.76	1628.14
787.94	1693.67
788.11	1648.61
788.29	1613.80
788.46	1638.38
788.64	1599.46
788.81	1656.81
788.99	1665.00
789.16	1701.86
789.34	1636.33
789.52	1705.96
789.69	1708.01
789.87	1619.94
790.04	1640.42
790.22	1775.59
790.39	1796.07
790.57	1740.77
790.74	1697.77
790.92	1636.33
791.09	1632.23
791.27	1742.82
791.44	1773.54
791.62	1757.16
791.79	1667.05
791.97	1689.57
792.15	1929.19
792.32	1740.77
792.50	1769.44
792.67	1771.49
792.85	1757.16
793.02	1777.64
793.20	1767.40
793.37	1607.66
793.55	1787.88
793.72	1671.14
793.90	1691.62
794.07	1642.47
794.25	1701.86
794.42	1716.20
794.60	1574.89
794.77	1665.00
794.95	1722.34
795.12	1705.96
795.30	1665.00
795.47	1554.41
795.65	1843.17
795.82	1779.68
796.00	1662.95
796.17	1654.76
796.34	1644.52
796.52	1652.71
796.69	1697.77
796.87	1742.82
797.04	1730.53
797.22	1689.57
797.39	1734.63
797.57	1634.28
797.74	1728.49
797.92	1701.86
798.09	1648.61
798.27	1855.46
798.44	1779.68
798.62	1638.38
798.79	1722.34
798.96	1794.02
799.14	1665.00
799.31	1769.44
799.49	1667.05
799.66	1665.00
799.84	1777.64
800.01	1572.84
800.19	1755.11
800.36	1615.85
800.53	1705.96
800.71	1724.39
800.88	1800.16
801.06	1669.09
801.23	1689.57
801.41	1722.34
801.58	1650.66
801.75	1681.38
801.93	1751.01
802.10	1640.42
802.28	1675.24
802.45	1642.47
802.63	1734.63
802.80	1763.30
802.97	1697.77
803.15	1658.85
803.32	1669.09
803.50	1679.33
803.67	1632.23
803.84	1691.62
804.02	1689.57
804.19	1697.77
804.37	1615.85
804.54	1615.85
804.71	1660.90
804.89	1705.96
805.06	1624.04
805.24	1667.05
805.41	1642.47
805.58	1621.99
805.76	1853.41
805.93	1630.18
806.10	1822.69
806.28	1660.90
806.45	1683.43
806.63	1720.29
806.80	1679.33
806.97	1689.57
807.15	1708.01
807.32	1689.57
807.49	1716.20
807.67	1648.61
807.84	1656.81
808.01	1628.14
808.19	1796.07
808.36	1855.46
808.54	1673.19
808.71	1648.61
808.88	1783.78
809.06	1685.48
809.23	1757.16
809.40	1656.81
809.58	1761.25
809.75	1806.31
809.92	1660.90
810.10	1851.36
810.27	1738.73
810.44	1646.57
810.62	1699.81
810.79	1769.44
810.96	1718.25
811.14	1722.34
811.31	1699.81
811.48	1732.58
811.66	1695.72
811.83	1783.78
812.00	1708.01
812.18	1718.25
812.35	1873.89
812.52	1638.38
812.69	1722.34
812.87	1697.77
813.04	1701.86
813.21	1681.38
813.39	1609.70
813.56	1644.52
813.73	1734.63
813.91	1597.42
814.08	1632.23
814.25	1656.81
814.42	1681.38
814.60	1705.96
814.77	1748.97
814.94	1712.10
815.12	1720.29
815.29	1728.49
815.46	1675.24
815.63	1695.72
815.81	1740.77
815.98	1726.44
816.15	1687.53
816.33	1759.21
816.50	1738.73
816.67	1687.53
816.84	1673.19
817.02	1710.05
817.19	1732.58
817.36	1689.57
817.53	1665.00
817.71	1746.92
817.88	1730.53
818.05	1646.57
818.22	1652.71
818.40	1851.36
818.57	1624.04
818.74	1738.73
818.91	1693.67
819.09	1755.11
819.26	1738.73
819.43	1525.74
819.60	1648.61
819.78	1783.78
819.95	1791.97
820.12	1662.95
820.29	1724.39
820.47	1777.64
820.64	1705.96
820.81	1650.66
820.98	1603.56
821.15	1691.62
821.33	1705.96
821.50	1636.33
821.67	1757.16
821.84	1644.52
822.02	1722.34
822.19	1701.86
822.36	1617.90
822.53	1708.01
822.70	1716.20
822.88	1607.66
823.05	1771.49
823.22	1669.09
823.39	1724.39
823.56	1601.51
823.74	1736.68
823.91	1689.57
824.08	1636.33
824.25	1632.23
824.42	1804.26
824.60	1658.85
824.77	1746.92
824.94	1652.71
825.11	1697.77
825.28	1667.05
825.45	1691.62
825.63	1728.49
825.80	1673.19
825.97	1742.82
826.14	1660.90
826.31	1642.47
826.48	1673.19
826.66	1673.19
826.83	1605.61
827.00	1712.10
827.17	1617.90
827.34	1658.85
827.51	1677.29
827.69	1744.87
827.86	1646.57
828.03	1673.19
828.20	1773.54
828.37	1677.29
828.54	1814.50
828.71	1654.76
828.89	1806.31
829.06	1785.83
829.23	1832.93
829.40	1699.81
829.57	1683.43
829.74	1742.82
829.91	1677.29
830.09	1660.90
830.26	1734.63
830.43	1775.59
830.60	1710.05
830.77	1775.59
830.94	1738.73
831.11	1726.44
831.28	1710.05
831.46	1773.54
831.63	1675.24
831.80	1652.71
831.97	1673.19
832.14	1701.86
832.31	1691.62
832.48	1656.81
832.65	1771.49
832.82	1679.33
832.99	1769.44
833.17	1570.79
833.34	1765.35
833.51	1787.88
833.68	1611.75
833.85	1744.87
834.02	1660.90
834.19	1697.77
834.36	1605.61
834.53	1611.75
834.70	1761.25
834.87	1812.45
835.04	1708.01
835.22	1634.28
835.39	1679.33
835.56	1648.61
835.73	1699.81
835.90	1718.25
836.07	1667.05
836.24	1781.73
836.41	1656.81
836.58	1636.33
836.75	1742.82
836.92	1718.25
837.09	1681.38
837.26	1705.96
837.43	1683.43
837.60	1753.06
837.77	1650.66
837.94	1681.38
838.12	1716.20
838.29	1726.44
838.46	1636.33
838.63	1589.22
838.80	1755.11
838.97	1742.82
839.14	1632.23
839.31	1726.44
839.48	1703.91
839.65	1656.81
839.82	1691.62
839.99	1726.44
840.16	1644.52
840.33	1621.99
840.50	1714.15
840.67	1626.09
840.84	1591.27
841.01	1724.39
841.18	1640.42
841.35	1640.42
841.52	1744.87
841.69	1851.36
841.86	1734.63
842.03	1683.43
842.20	1708.01
842.37	1693.67
842.54	1665.00
842.71	1632.23
842.88	1560.55
843.05	1751.01
843.22	1775.59
843.39	1798.12
843.56	1607.66
843.73	1685.48
843.90	1685.48
844.07	1791.97
844.24	1765.35
844.41	1773.54
844.58	1712.10
844.75	1687.53
844.92	1673.19
845.09	1734.63
845.26	1638.38
845.43	1726.44
845.60	1769.44
845.77	1826.79
845.94	1705.96
846.10	1714.15
846.27	1636.33
846.44	1740.77
846.61	1673.19
846.78	1712.10
846.95	1759.21
847.12	1724.39
847.29	1708.01
847.46	1671.14
847.63	1732.58
847.80	1738.73
847.97	1689.57
848.14	1826.79
848.31	1708.01
848.48	1605.61
848.65	1712.10
848.82	1656.81
848.98	1804.26
849.15	1748.97
849.32	1705.96
849.49	1691.62
849.66	1669.09
849.83	1685.48
850.00	1619.94
850.17	1722.34
850.34	1632.23
850.51	1660.90
850.68	1646.57
850.85	1822.69
851.01	1732.58
851.18	1775.59
851.35	1695.72
851.52	1738.73
851.69	1779.68
851.86	1632.23
852.03	1662.95
852.20	1705.96
852.37	1728.49
852.53	1527.78
852.70	1722.34
852.87	1693.67
853.04	1779.68
853.21	1740.77
853.38	1701.86
853.55	1775.59
853.72	1769.44
853.89	1644.52
854.05	1642.47
854.22	1593.32
854.39	1650.66
854.56	1767.40
854.73	1791.97
854.90	1626.09
855.07	1691.62
855.23	1597.42
855.40	1660.90
855.57	1660.90
855.74	1708.01
855.91	1851.36
856.08	1628.14
856.25	1621.99
856.41	1646.57
856.58	1794.02
856.75	1730.53
856.92	1599.46
857.09	1722.34
857.26	1564.65
857.42	1665.00
857.59	1742.82
857.76	1705.96
857.93	1669.09
858.10	1738.73
858.27	1617.90
858.43	1718.25
858.60	1681.38
858.77	1626.09
858.94	1673.19
859.11	1751.01
859.27	1693.67
859.44	1689.57
859.61	1855.46
859.78	1722.34
859.95	1734.63
860.12	1646.57
860.28	1791.97
860.45	1857.51
860.62	1667.05
860.79	1703.91
860.95	1708.01
861.12	1695.72
861.29	1757.16
861.46	1644.52
861.63	1642.47
861.79	1718.25
861.96	1669.09
862.13	1705.96
862.30	1759.21
862.47	1656.81
862.63	1716.20
862.80	1673.19
862.97	1689.57
863.14	1687.53
863.30	1705.96
863.47	1689.57
863.64	1777.64
863.81	1718.25
863.97	1675.24
864.14	1642.47
864.31	1650.66
864.48	1701.86
864.65	1705.96
864.81	1724.39
864.98	1703.91
865.15	1759.21
865.32	1789.92
865.48	1732.58
865.65	1769.44
865.82	1683.43
865.98	1746.92
866.15	1728.49
866.32	1673.19
866.49	1693.67
866.65	1751.01
866.82	1624.04
866.99	1708.01
867.16	1673.19
867.32	1654.76
867.49	1607.66
867.66	1708.01
867.83	1708.01
867.99	1660.90
868.16	1644.52
868.33	1613.80
868.49	1669.09
868.66	1675.24
868.83	1751.01
868.99	1714.15
869.16	1642.47
869.33	1744.87
869.50	1703.91
869.66	1695.72
869.83	1701.86
870.00	1669.09
870.16	1771.49
870.33	1701.86
870.50	1732.58
870.66	1621.99
870.83	1837.03
871.00	1746.92
871.17	1652.71
871.33	1820.64
871.50	1634.28
871.67	1726.44
871.83	1673.19
872.00	1789.92
872.17	1714.15
872.33	1757.16
872.50	1761.25
872.67	1712.10
872.83	1730.53
873.00	1736.68
873.17	1632.23
873.33	1728.49
873.50	1738.73
873.67	1671.14
873.83	1681.38
874.00	1734.63
874.16	1751.01
874.33	1673.19
874.50	1634.28
874.66	1757.16
874.83	1703.91
875.00	1697.77
875.16	1691.62
875.33	1806.31
875.50	1593.32
875.66	1646.57
875.83	1736.68
875.99	1660.90
876.16	1626.09
876.33	1630.18
876.49	1734.63
876.66	1759.21
876.83	1683.43
876.99	1607.66
877.16	1693.67
877.32	1646.57
877.49	1693.67
877.66	1703.91
877.82	1751.01
877.99	1669.09
878.15	1755.11
878.32	1734.63
878.49	1746.92
878.65	1638.38
878.82	1775.59
878.98	1675.24
879.15	1761.25
879.32	1746.92
879.48	1658.85
879.65	1669.09
879.81	1757.16
879.98	1632.23
880.15	1644.52
880.31	1794.02
880.48	1650.66
880.64	1759.21
880.81	1716.20
880.97	1742.82
881.14	1828.84
881.31	1665.00
881.47	1830.88
881.64	1691.62
881.80	1628.14
881.97	1734.63
882.13	1787.88
882.30	1648.61
882.47	1701.86
882.63	1718.25
882.80	1638.38
882.96	1675.24
883.13	1687.53
883.29	1705.96
883.46	1726.44
883.62	1769.44
883.79	1718.25
883.95	1665.00
884.12	1660.90
884.29	1761.25
884.45	1708.01
884.62	1728.49
884.78	1716.20
884.95	1816.55
885.11	1662.95
885.28	1753.06
885.44	1658.85
885.61	1705.96
885.77	1722.34
885.94	1730.53
886.10	1681.38
886.27	1693.67
886.43	1843.17
886.60	1830.88
886.76	1658.85
886.93	1671.14
887.09	1703.91
887.26	1685.48
887.42	1671.14
887.59	1775.59
887.75	1812.45
887.92	1783.78
888.08	1794.02
888.25	1746.92
888.41	1779.68
888.58	1695.72
888.74	1675.24
888.91	1708.01
>>>>>End Processed Spectral Data<<<<<
