SpectraSuite Data File
++++++++++++++++++++++++++++++++++++
Date: Mon Jun 06 14:13:17 CEST 2016
User: root
Dark Spectrum Present: No
Reference Spectrum Present: No
Number of Sampled Component Spectra: 1
Spectrometers: USB4C02835
Integration Time (usec): 100000 (USB4C02835)
Spectra Averaged: 1 (USB4C02835)
Boxcar Smoothing: 0 (USB4C02835)
Correct for Electrical Dark: No (USB4C02835)
Strobe/Lamp Enabled: No (USB4C02835)
Correct for Detector Non-linearity: No (USB4C02835)
Correct for Stray Light: No (USB4C02835)
Number of Pixels in Processed Spectrum: 3648
>>>>>Begin Processed Spectral Data<<<<<
177.47	1490.92
177.69	1490.92
177.91	1490.92
178.13	1474.54
178.36	1445.87
178.58	1562.60
178.80	1736.68
179.02	1599.46
179.24	1634.28
179.46	1689.57
179.68	1755.11
179.90	1648.61
180.13	1703.91
180.35	1591.27
180.57	1732.58
180.79	1689.57
181.01	1685.48
181.23	1699.81
181.45	1802.21
181.67	1683.43
181.90	1621.99
182.12	1671.14
182.34	1703.91
182.56	1626.09
182.78	1734.63
183.00	1761.25
183.22	1671.14
183.44	1656.81
183.66	1826.79
183.89	1755.11
184.11	1634.28
184.33	1757.16
184.55	1763.30
184.77	1701.86
184.99	1699.81
185.21	1656.81
185.43	1830.88
185.65	1697.77
185.87	1632.23
186.10	1816.55
186.32	1730.53
186.54	1685.48
186.76	1720.29
186.98	1738.73
187.20	1765.35
187.42	1708.01
187.64	1746.92
187.86	1783.78
188.08	1759.21
188.30	1644.52
188.52	1710.05
188.75	1736.68
188.97	1841.12
189.19	1685.48
189.41	1720.29
189.63	1769.44
189.85	1675.24
190.07	1660.90
190.29	1591.27
190.51	1695.72
190.73	1607.66
190.95	1783.78
191.17	1708.01
191.39	1656.81
191.61	1751.01
191.84	1701.86
192.06	1685.48
192.28	1636.33
192.50	1820.64
192.72	1714.15
192.94	1716.20
193.16	1740.77
193.38	1718.25
193.60	1703.91
193.82	1783.78
194.04	1775.59
194.26	1708.01
194.48	1646.57
194.70	1654.76
194.92	1726.44
195.14	1714.15
195.36	1671.14
195.58	1738.73
195.80	1617.90
196.02	1656.81
196.24	1691.62
196.46	1753.06
196.69	1697.77
196.91	1820.64
197.13	1628.14
197.35	1630.18
197.57	1769.44
197.79	1724.39
198.01	1712.10
198.23	1751.01
198.45	1769.44
198.67	1654.76
198.89	1669.09
199.11	1695.72
199.33	1673.19
199.55	1599.46
199.77	1675.24
199.99	1769.44
200.21	1671.14
200.43	1720.29
200.65	1521.64
200.87	1576.94
201.09	1699.81
201.31	1691.62
201.53	1726.44
201.75	1683.43
201.97	1724.39
202.19	1734.63
202.41	1691.62
202.63	1732.58
202.85	1722.34
203.07	1658.85
203.29	1728.49
203.51	1642.47
203.73	1673.19
203.95	1894.37
204.17	1732.58
204.39	1708.01
204.61	1640.42
204.83	1695.72
205.05	1751.01
205.27	1742.82
205.49	1800.16
205.71	1730.53
205.93	1683.43
206.15	1669.09
206.37	1746.92
206.59	1724.39
206.81	1650.66
207.03	1648.61
207.25	1685.48
207.47	1673.19
207.69	1730.53
207.91	1789.92
208.13	1759.21
208.34	1730.53
208.56	1708.01
208.78	1669.09
209.00	1705.96
209.22	1675.24
209.44	1660.90
209.66	1667.05
209.88	1726.44
210.10	1667.05
210.32	1718.25
210.54	1828.84
210.76	1718.25
210.98	1849.32
211.20	1626.09
211.42	1720.29
211.64	1810.40
211.86	1724.39
212.08	1779.68
212.30	1665.00
212.52	1705.96
212.74	1773.54
212.96	1757.16
213.17	1728.49
213.39	1757.16
213.61	1718.25
213.83	1742.82
214.05	1578.98
214.27	1781.73
214.49	1613.80
214.71	1587.18
214.93	1785.83
215.15	1742.82
215.37	1718.25
215.59	1550.31
215.81	1753.06
216.03	1787.88
216.24	1710.05
216.46	1724.39
216.68	1808.36
216.90	1820.64
217.12	1767.40
217.34	1683.43
217.56	1652.71
217.78	1673.19
218.00	1744.87
218.22	1648.61
218.44	1769.44
218.66	1755.11
218.87	1710.05
219.09	1658.85
219.31	1671.14
219.53	1708.01
219.75	1716.20
219.97	1701.86
220.19	1697.77
220.41	1712.10
220.63	1730.53
220.85	1662.95
221.06	1705.96
221.28	1804.26
221.50	1699.81
221.72	1677.29
221.94	1665.00
222.16	1654.76
222.38	1830.88
222.60	1734.63
222.82	1693.67
223.03	1675.24
223.25	1603.56
223.47	1791.97
223.69	1763.30
223.91	1718.25
224.13	1683.43
224.35	1708.01
224.57	1779.68
224.78	1755.11
225.00	1576.94
225.22	1624.04
225.44	1736.68
225.66	1691.62
225.88	1619.94
226.10	1822.69
226.32	1675.24
226.53	1806.31
226.75	1681.38
226.97	1667.05
227.19	1665.00
227.41	1703.91
227.63	1656.81
227.85	1650.66
228.06	1736.68
228.28	1697.77
228.50	1763.30
228.72	1599.46
228.94	1675.24
229.16	1542.12
229.37	1554.41
229.59	1652.71
229.81	1796.07
230.03	1673.19
230.25	1613.80
230.47	1708.01
230.69	1617.90
230.90	1734.63
231.12	1613.80
231.34	1687.53
231.56	1773.54
231.78	1617.90
232.00	1714.15
232.21	1714.15
232.43	1662.95
232.65	1587.18
232.87	1654.76
233.09	1677.29
233.30	1685.48
233.52	1710.05
233.74	1687.53
233.96	1613.80
234.18	1687.53
234.40	1660.90
234.61	1779.68
234.83	1650.66
235.05	1638.38
235.27	1828.84
235.49	1734.63
235.70	1697.77
235.92	1763.30
236.14	1746.92
236.36	1777.64
236.58	1669.09
236.79	1720.29
237.01	1685.48
237.23	1789.92
237.45	1800.16
237.67	1677.29
237.88	1736.68
238.10	1812.45
238.32	1578.98
238.54	1660.90
238.76	1660.90
238.97	1681.38
239.19	1611.75
239.41	1705.96
239.63	1779.68
239.85	1640.42
240.06	1708.01
240.28	1671.14
240.50	1722.34
240.72	1710.05
240.93	1697.77
241.15	1800.16
241.37	1744.87
241.59	1777.64
241.81	1730.53
242.02	1658.85
242.24	1732.58
242.46	1724.39
242.68	1648.61
242.89	1724.39
243.11	1724.39
243.33	1718.25
243.55	1695.72
243.76	1734.63
243.98	1691.62
244.20	1746.92
244.42	1728.49
244.64	1744.87
244.85	1691.62
245.07	1626.09
245.29	1738.73
245.51	1705.96
245.72	1757.16
245.94	1779.68
246.16	1724.39
246.38	1718.25
246.59	1683.43
246.81	1703.91
247.03	1712.10
247.24	1587.18
247.46	1683.43
247.68	1716.20
247.90	1621.99
248.11	1644.52
248.33	1734.63
248.55	1740.77
248.77	1689.57
248.98	1820.64
249.20	1783.78
249.42	1718.25
249.64	1742.82
249.85	1710.05
250.07	1644.52
250.29	1701.86
250.50	1691.62
250.72	1685.48
250.94	1652.71
251.16	1814.50
251.37	1755.11
251.59	1773.54
251.81	1687.53
252.02	1771.49
252.24	1730.53
252.46	1791.97
252.68	1697.77
252.89	1675.24
253.11	1658.85
253.33	1757.16
253.54	1693.67
253.76	1656.81
253.98	1718.25
254.20	1671.14
254.41	1628.14
254.63	1724.39
254.85	1626.09
255.06	1703.91
255.28	1683.43
255.50	1636.33
255.71	1656.81
255.93	1603.56
256.15	1640.42
256.36	1804.26
256.58	1648.61
256.80	1720.29
257.02	1710.05
257.23	1705.96
257.45	1763.30
257.67	1753.06
257.88	1718.25
258.10	1757.16
258.32	1681.38
258.53	1675.24
258.75	1769.44
258.97	1628.14
259.18	1656.81
259.40	1718.25
259.62	1773.54
259.83	1804.26
260.05	1718.25
260.27	1968.10
260.48	1693.67
260.70	1656.81
260.92	1695.72
261.13	1689.57
261.35	1732.58
261.57	1746.92
261.78	1589.22
262.00	1652.71
262.22	1736.68
262.43	1568.74
262.65	1648.61
262.86	1759.21
263.08	1837.03
263.30	1671.14
263.51	1609.70
263.73	1632.23
263.95	1769.44
264.16	1679.33
264.38	1652.71
264.60	1718.25
264.81	1656.81
265.03	1708.01
265.25	1775.59
265.46	1673.19
265.68	1669.09
265.89	1732.58
266.11	1617.90
266.33	1705.96
266.54	1751.01
266.76	1796.07
266.98	1761.25
267.19	1837.03
267.41	1716.20
267.62	1640.42
267.84	1589.22
268.06	1734.63
268.27	1738.73
268.49	1730.53
268.70	1751.01
268.92	1755.11
269.14	1705.96
269.35	1669.09
269.57	1695.72
269.79	1691.62
270.00	1658.85
270.22	1789.92
270.43	1697.77
270.65	1601.51
270.87	1662.95
271.08	1843.17
271.30	1708.01
271.51	1746.92
271.73	1806.31
271.95	1763.30
272.16	1714.15
272.38	1673.19
272.59	1665.00
272.81	1703.91
273.02	1708.01
273.24	1740.77
273.46	1771.49
273.67	1644.52
273.89	1615.85
274.10	1628.14
274.32	1753.06
274.54	1685.48
274.75	1665.00
274.97	1660.90
275.18	1755.11
275.40	1656.81
275.61	1722.34
275.83	1689.57
276.05	1607.66
276.26	1632.23
276.48	1757.16
276.69	1691.62
276.91	1624.04
277.12	1755.11
277.34	1759.21
277.55	1718.25
277.77	1685.48
277.99	1675.24
278.20	1642.47
278.42	1716.20
278.63	1665.00
278.85	1693.67
279.06	1669.09
279.28	1689.57
279.49	1781.73
279.71	1730.53
279.93	1685.48
280.14	1736.68
280.36	1650.66
280.57	1757.16
280.79	1845.22
281.00	1630.18
281.22	1656.81
281.43	1834.98
281.65	1593.32
281.86	1640.42
282.08	1673.19
282.29	1777.64
282.51	1638.38
282.73	1611.75
282.94	1648.61
283.16	1787.88
283.37	1712.10
283.59	1673.19
283.80	1634.28
284.02	1667.05
284.23	1736.68
284.45	1753.06
284.66	1646.57
284.88	1685.48
285.09	1669.09
285.31	1669.09
285.52	1619.94
285.74	1636.33
285.95	1718.25
286.17	1712.10
286.38	1699.81
286.60	1673.19
286.81	1669.09
287.03	1728.49
287.24	1665.00
287.46	1728.49
287.67	1665.00
287.89	1839.08
288.10	1673.19
288.32	1685.48
288.53	1748.97
288.75	1761.25
288.96	1818.60
289.18	1699.81
289.39	1665.00
289.61	1714.15
289.82	1755.11
290.04	1830.88
290.25	1603.56
290.47	1667.05
290.68	1658.85
290.90	1677.29
291.11	1597.42
291.33	1722.34
291.54	1615.85
291.76	1558.50
291.97	1714.15
292.18	1738.73
292.40	1742.82
292.61	1708.01
292.83	1722.34
293.04	1757.16
293.26	1689.57
293.47	1665.00
293.69	1556.46
293.90	1746.92
294.12	1781.73
294.33	1667.05
294.55	1746.92
294.76	1728.49
294.97	1804.26
295.19	1673.19
295.40	1675.24
295.62	1763.30
295.83	1708.01
296.05	1597.42
296.26	1773.54
296.48	1636.33
296.69	1667.05
296.90	1748.97
297.12	1701.86
297.33	1787.88
297.55	1748.97
297.76	1773.54
297.98	1669.09
298.19	1652.71
298.41	1732.58
298.62	1613.80
298.83	1814.50
299.05	1748.97
299.26	1714.15
299.48	1701.86
299.69	1722.34
299.90	1738.73
300.12	1619.94
300.33	1755.11
300.55	1689.57
300.76	1720.29
300.98	1648.61
301.19	1757.16
301.40	1624.04
301.62	1665.00
301.83	1691.62
302.05	1671.14
302.26	1681.38
302.47	1665.00
302.69	1640.42
302.90	1630.18
303.12	1613.80
303.33	1716.20
303.54	1822.69
303.76	1697.77
303.97	1710.05
304.19	1773.54
304.40	1646.57
304.61	1748.97
304.83	1839.08
305.04	1834.98
305.26	1675.24
305.47	1675.24
305.68	1689.57
305.90	1656.81
306.11	1777.64
306.33	1652.71
306.54	1611.75
306.75	1589.22
306.97	1640.42
307.18	1644.52
307.39	1648.61
307.61	1732.58
307.82	1759.21
308.04	1773.54
308.25	1648.61
308.46	1724.39
308.68	1650.66
308.89	1667.05
309.10	1736.68
309.32	1697.77
309.53	1675.24
309.74	1716.20
309.96	1736.68
310.17	1748.97
310.39	1677.29
310.60	1773.54
310.81	1665.00
311.03	1638.38
311.24	1654.76
311.45	1703.91
311.67	1816.55
311.88	1728.49
312.09	1679.33
312.31	1658.85
312.52	1714.15
312.73	1726.44
312.95	1665.00
313.16	1724.39
313.37	1716.20
313.59	1724.39
313.80	1738.73
314.01	1763.30
314.23	1701.86
314.44	1648.61
314.65	1611.75
314.87	1667.05
315.08	1755.11
315.29	1675.24
315.51	1650.66
315.72	1566.70
315.93	1832.93
316.15	1722.34
316.36	1615.85
316.57	1722.34
316.79	1726.44
317.00	1724.39
317.21	1722.34
317.43	1648.61
317.64	1693.67
317.85	1667.05
318.07	1728.49
318.28	1695.72
318.49	1800.16
318.70	1916.90
318.92	1884.13
319.13	1839.08
319.34	1742.82
319.56	1785.83
319.77	1779.68
319.98	1769.44
320.20	1804.26
320.41	1724.39
320.62	1710.05
320.83	1701.86
321.05	1875.94
321.26	1724.39
321.47	1656.81
321.69	1808.36
321.90	1650.66
322.11	1576.94
322.32	1669.09
322.54	1808.36
322.75	1669.09
322.96	1837.03
323.18	1589.22
323.39	1638.38
323.60	1697.77
323.81	1722.34
324.03	1681.38
324.24	1728.49
324.45	1705.96
324.66	1677.29
324.88	1738.73
325.09	1751.01
325.30	1800.16
325.52	1603.56
325.73	1757.16
325.94	1630.18
326.15	1597.42
326.37	1628.14
326.58	1771.49
326.79	1806.31
327.00	1654.76
327.22	1718.25
327.43	1705.96
327.64	1583.08
327.85	1626.09
328.07	1753.06
328.28	1818.60
328.49	1634.28
328.70	1742.82
328.92	1728.49
329.13	1763.30
329.34	1679.33
329.55	1816.55
329.76	1746.92
329.98	1665.00
330.19	1742.82
330.40	1794.02
330.61	1742.82
330.83	1691.62
331.04	1634.28
331.25	1701.86
331.46	1710.05
331.68	1626.09
331.89	1783.78
332.10	1742.82
332.31	1683.43
332.52	1703.91
332.74	1818.60
332.95	1654.76
333.16	1593.32
333.37	1775.59
333.58	1738.73
333.80	1751.01
334.01	1574.89
334.22	1660.90
334.43	1619.94
334.64	1671.14
334.86	1628.14
335.07	1587.18
335.28	1796.07
335.49	1505.26
335.70	1732.58
335.92	1742.82
336.13	1843.17
336.34	1687.53
336.55	1728.49
336.76	1634.28
336.98	1607.66
337.19	1738.73
337.40	1822.69
337.61	1796.07
337.82	1720.29
338.04	1705.96
338.25	1560.55
338.46	1701.86
338.67	1685.48
338.88	1665.00
339.09	1605.61
339.31	1714.15
339.52	1697.77
339.73	1542.12
339.94	1714.15
340.15	1687.53
340.36	1642.47
340.58	1777.64
340.79	1712.10
341.00	1775.59
341.21	1630.18
341.42	1812.45
341.63	1699.81
341.85	1775.59
342.06	1669.09
342.27	1650.66
342.48	1732.58
342.69	1660.90
342.90	1714.15
343.12	1665.00
343.33	1636.33
343.54	1794.02
343.75	1697.77
343.96	1714.15
344.17	1601.51
344.38	1740.77
344.60	1634.28
344.81	1636.33
345.02	1689.57
345.23	1765.35
345.44	1751.01
345.65	1814.50
345.86	1763.30
346.07	1748.97
346.29	1708.01
346.50	1824.74
346.71	1755.11
346.92	1710.05
347.13	1769.44
347.34	1699.81
347.55	1648.61
347.76	1757.16
347.98	1583.08
348.19	1701.86
348.40	1744.87
348.61	1714.15
348.82	1841.12
349.03	1730.53
349.24	1681.38
349.45	1751.01
349.66	1624.04
349.88	1681.38
350.09	1644.52
350.30	1767.40
350.51	1789.92
350.72	1744.87
350.93	1757.16
351.14	1681.38
351.35	1789.92
351.56	1679.33
351.77	1748.97
351.99	1779.68
352.20	1785.83
352.41	1787.88
352.62	1591.27
352.83	1748.97
353.04	1654.76
353.25	1689.57
353.46	1710.05
353.67	1820.64
353.88	1554.41
354.09	1718.25
354.30	1732.58
354.52	1689.57
354.73	1695.72
354.94	1636.33
355.15	1697.77
355.36	1787.88
355.57	1624.04
355.78	1732.58
355.99	1683.43
356.20	1671.14
356.41	1695.72
356.62	1777.64
356.83	1667.05
357.04	1800.16
357.25	1601.51
357.46	1644.52
357.68	1638.38
357.89	1601.51
358.10	1759.21
358.31	1681.38
358.52	1617.90
358.73	1681.38
358.94	1697.77
359.15	1658.85
359.36	1726.44
359.57	1697.77
359.78	1638.38
359.99	1773.54
360.20	1636.33
360.41	1611.75
360.62	1722.34
360.83	1703.91
361.04	1763.30
361.25	1687.53
361.46	1765.35
361.67	1722.34
361.88	1732.58
362.09	1751.01
362.30	1644.52
362.51	1740.77
362.72	1705.96
362.93	1804.26
363.14	1693.67
363.35	1802.21
363.56	1624.04
363.78	1714.15
363.99	1722.34
364.20	1742.82
364.41	1687.53
364.62	1851.36
364.83	1691.62
365.04	1699.81
365.25	1753.06
365.46	1820.64
365.67	1703.91
365.88	1542.12
366.09	1712.10
366.30	1568.74
366.51	1656.81
366.72	1644.52
366.93	1669.09
367.14	1693.67
367.35	1759.21
367.56	1740.77
367.77	1773.54
367.98	1714.15
368.18	1652.71
368.39	1691.62
368.60	1695.72
368.81	1798.12
369.02	1705.96
369.23	1718.25
369.44	1624.04
369.65	1650.66
369.86	1771.49
370.07	1806.31
370.28	1683.43
370.49	1740.77
370.70	1787.88
370.91	1630.18
371.12	1691.62
371.33	1755.11
371.54	1656.81
371.75	1818.60
371.96	1554.41
372.17	1654.76
372.38	1689.57
372.59	1767.40
372.80	1687.53
373.01	1615.85
373.22	1736.68
373.43	1701.86
373.64	1611.75
373.85	1726.44
374.06	1880.04
374.26	1748.97
374.47	1740.77
374.68	1748.97
374.89	1673.19
375.10	1660.90
375.31	1779.68
375.52	1736.68
375.73	1642.47
375.94	1665.00
376.15	1789.92
376.36	1699.81
376.57	1677.29
376.78	1689.57
376.99	1712.10
377.20	1757.16
377.40	1699.81
377.61	1820.64
377.82	1703.91
378.03	1734.63
378.24	1740.77
378.45	1628.14
378.66	1708.01
378.87	1609.70
379.08	1640.42
379.29	1644.52
379.50	1787.88
379.71	1693.67
379.91	1734.63
380.12	1757.16
380.33	1632.23
380.54	1693.67
380.75	1759.21
380.96	1687.53
381.17	1744.87
381.38	1769.44
381.59	1773.54
381.80	1718.25
382.00	1779.68
382.21	1724.39
382.42	1834.98
382.63	1820.64
382.84	1785.83
383.05	1779.68
383.26	1730.53
383.47	1714.15
383.68	1703.91
383.88	1742.82
384.09	1769.44
384.30	1751.01
384.51	1806.31
384.72	1658.85
384.93	1738.73
385.14	1685.48
385.35	1777.64
385.55	1718.25
385.76	1724.39
385.97	1724.39
386.18	1576.94
386.39	1632.23
386.60	1693.67
386.81	1677.29
387.02	1656.81
387.22	1638.38
387.43	1777.64
387.64	1822.69
387.85	1882.08
388.06	2271.20
388.27	4227.01
388.48	6944.66
388.68	8384.38
388.89	9803.63
389.10	10256.23
389.31	8636.28
389.52	7706.51
389.73	6608.80
389.93	6305.70
390.14	5900.20
390.35	5371.82
390.56	4534.20
390.77	3893.19
390.98	3037.14
391.18	2500.57
391.39	2115.55
391.60	1859.56
391.81	1884.13
392.02	1724.39
392.23	1843.17
392.43	1703.91
392.64	1804.26
392.85	1693.67
393.06	1796.07
393.27	1716.20
393.47	1626.09
393.68	1755.11
393.89	1705.96
394.10	1753.06
394.31	1644.52
394.52	1609.70
394.72	1705.96
394.93	1816.55
395.14	1644.52
395.35	1679.33
395.56	1751.01
395.76	1767.40
395.97	1767.40
396.18	1886.18
396.39	1812.45
396.60	2117.60
396.80	1918.95
397.01	1857.51
397.22	1814.50
397.43	1886.18
397.64	1665.00
397.84	1796.07
398.05	1857.51
398.26	1814.50
398.47	1779.68
398.67	1767.40
398.88	1646.57
399.09	1759.21
399.30	1626.09
399.51	1783.78
399.71	1609.70
399.92	1667.05
400.13	1767.40
400.34	1646.57
400.54	1765.35
400.75	1689.57
400.96	1699.81
401.17	1822.69
401.37	1822.69
401.58	1748.97
401.79	1703.91
402.00	1896.42
402.21	2045.92
402.41	1955.81
402.62	1968.10
402.83	2035.68
403.04	1957.86
403.24	2070.50
403.45	1832.93
403.66	1937.38
403.87	1884.13
404.07	1892.32
404.28	1890.28
404.49	1865.70
404.70	1736.68
404.90	1763.30
405.11	1730.53
405.32	1763.30
405.52	1611.75
405.73	1683.43
405.94	1650.66
406.15	1705.96
406.35	1695.72
406.56	1705.96
406.77	1722.34
406.98	1787.88
407.18	1626.09
407.39	1798.12
407.60	1710.05
407.80	1716.20
408.01	1683.43
408.22	1662.95
408.43	1660.90
408.63	1679.33
408.84	1755.11
409.05	1777.64
409.25	1648.61
409.46	1730.53
409.67	1712.10
409.88	1656.81
410.08	1716.20
410.29	1789.92
410.50	1712.10
410.70	1738.73
410.91	1660.90
411.12	1755.11
411.32	1712.10
411.53	1619.94
411.74	1787.88
411.95	1849.32
412.15	1734.63
412.36	1800.16
412.57	1802.21
412.77	1761.25
412.98	1689.57
413.19	1673.19
413.39	1689.57
413.60	1710.05
413.81	1841.12
414.01	1535.98
414.22	1689.57
414.43	1769.44
414.63	1769.44
414.84	1773.54
415.05	1689.57
415.25	1660.90
415.46	1697.77
415.67	1705.96
415.87	1804.26
416.08	1726.44
416.29	1642.47
416.49	1779.68
416.70	1697.77
416.91	1660.90
417.11	1738.73
417.32	1658.85
417.53	1755.11
417.73	1671.14
417.94	1673.19
418.15	1701.86
418.35	1759.21
418.56	1640.42
418.77	1812.45
418.97	1693.67
419.18	1665.00
419.38	1560.55
419.59	1671.14
419.80	1787.88
420.00	1695.72
420.21	1734.63
420.42	1802.21
420.62	1763.30
420.83	1703.91
421.04	1673.19
421.24	1718.25
421.45	1779.68
421.65	1767.40
421.86	1650.66
422.07	1783.78
422.27	1689.57
422.48	1751.01
422.69	1601.51
422.89	1685.48
423.10	1632.23
423.30	1646.57
423.51	1669.09
423.72	1734.63
423.92	1667.05
424.13	1714.15
424.33	1693.67
424.54	1708.01
424.75	1705.96
424.95	1781.73
425.16	1673.19
425.36	1712.10
425.57	1720.29
425.78	1755.11
425.98	1794.02
426.19	1669.09
426.39	1699.81
426.60	1703.91
426.81	1761.25
427.01	1665.00
427.22	1544.17
427.42	1681.38
427.63	1703.91
427.83	1732.58
428.04	1718.25
428.25	1759.21
428.45	1794.02
428.66	1726.44
428.86	1705.96
429.07	1732.58
429.28	1691.62
429.48	1738.73
429.69	1683.43
429.89	1751.01
430.10	1609.70
430.30	1798.12
430.51	1716.20
430.71	1724.39
430.92	1716.20
431.13	1695.72
431.33	1734.63
431.54	1728.49
431.74	1822.69
431.95	1869.80
432.15	1615.85
432.36	1695.72
432.56	1701.86
432.77	1808.36
432.98	1804.26
433.18	1755.11
433.39	1656.81
433.59	1687.53
433.80	1794.02
434.00	1808.36
434.21	1667.05
434.41	1701.86
434.62	1847.27
434.82	1665.00
435.03	1628.14
435.23	1742.82
435.44	1683.43
435.64	1726.44
435.85	1716.20
436.06	1744.87
436.26	1787.88
436.47	1654.76
436.67	1660.90
436.88	1716.20
437.08	1705.96
437.29	1855.46
437.49	1738.73
437.70	1751.01
437.90	1718.25
438.11	1847.27
438.31	1841.12
438.52	1820.64
438.72	1828.84
438.93	1865.70
439.13	1740.77
439.34	1837.03
439.54	1800.16
439.75	1773.54
439.95	1771.49
440.16	1718.25
440.36	1714.15
440.57	1767.40
440.77	1742.82
440.98	1759.21
441.18	1757.16
441.39	1677.29
441.59	1650.66
441.80	1845.22
442.00	1667.05
442.21	1791.97
442.41	1640.42
442.62	1746.92
442.82	1720.29
443.02	1822.69
443.23	1808.36
443.43	1783.78
443.64	1853.41
443.84	1630.18
444.05	1791.97
444.25	1742.82
444.46	1701.86
444.66	1730.53
444.87	1898.47
445.07	1587.18
445.28	1742.82
445.48	1751.01
445.69	1779.68
445.89	1931.23
446.09	1759.21
446.30	2021.35
446.50	2619.35
446.71	3764.17
446.91	4231.10
447.12	4849.59
447.32	4755.38
447.53	4386.75
447.73	3962.82
447.93	3536.84
448.14	3407.82
448.34	3246.03
448.55	2947.03
448.75	2844.63
448.96	2693.08
449.16	2346.97
449.36	2263.01
449.57	2078.69
449.77	1910.75
449.98	1826.79
450.18	1785.83
450.39	1828.84
450.59	1730.53
450.79	1648.61
451.00	1763.30
451.20	1841.12
451.41	1755.11
451.61	1748.97
451.81	1701.86
452.02	1759.21
452.22	1722.34
452.43	1722.34
452.63	1742.82
452.84	1705.96
453.04	1695.72
453.24	1736.68
453.45	1669.09
453.65	1777.64
453.86	1785.83
454.06	1796.07
454.26	1634.28
454.47	1691.62
454.67	1888.23
454.87	1691.62
455.08	1691.62
455.28	1933.28
455.49	1783.78
455.69	1779.68
455.89	1826.79
456.10	1839.08
456.30	1755.11
456.51	1763.30
456.71	1765.35
456.91	1781.73
457.12	1773.54
457.32	1744.87
457.52	1630.18
457.73	1855.46
457.93	1783.78
458.14	1751.01
458.34	1583.08
458.54	1732.58
458.75	1724.39
458.95	1791.97
459.15	1671.14
459.36	1701.86
459.56	1751.01
459.76	1755.11
459.97	1695.72
460.17	1742.82
460.37	1679.33
460.58	1755.11
460.78	1787.88
460.99	1712.10
461.19	1728.49
461.39	1667.05
461.60	1740.77
461.80	1746.92
462.00	1683.43
462.21	1654.76
462.41	1656.81
462.61	1771.49
462.82	1662.95
463.02	1806.31
463.22	1716.20
463.43	1812.45
463.63	1787.88
463.83	1697.77
464.04	1675.24
464.24	1705.96
464.44	1697.77
464.64	1705.96
464.85	1767.40
465.05	1839.08
465.25	1777.64
465.46	1742.82
465.66	1775.59
465.86	1796.07
466.07	1755.11
466.27	1796.07
466.47	1648.61
466.68	1652.71
466.88	1724.39
467.08	1834.98
467.29	1724.39
467.49	1730.53
467.69	1718.25
467.89	1726.44
468.10	1718.25
468.30	1683.43
468.50	1773.54
468.71	1714.15
468.91	1738.73
469.11	1812.45
469.31	1763.30
469.52	1714.15
469.72	1812.45
469.92	1839.08
470.13	1673.19
470.33	1736.68
470.53	1834.98
470.73	2066.40
470.94	2334.68
471.14	2295.77
471.34	2484.19
471.54	2377.69
471.75	2162.66
471.95	2095.07
472.15	2140.13
472.36	2115.55
472.56	2033.63
472.76	1998.82
472.96	2107.36
473.17	1982.43
473.37	1910.75
473.57	1863.65
473.77	1826.79
473.98	1834.98
474.18	1669.09
474.38	1812.45
474.58	1769.44
474.79	1638.38
474.99	1783.78
475.19	1798.12
475.39	1693.67
475.60	1740.77
475.80	1767.40
476.00	1748.97
476.20	1648.61
476.41	1761.25
476.61	1812.45
476.81	1769.44
477.01	1693.67
477.21	1832.93
477.42	1765.35
477.62	1638.38
477.82	1755.11
478.02	1656.81
478.23	1691.62
478.43	1642.47
478.63	1644.52
478.83	1699.81
479.03	1740.77
479.24	1773.54
479.44	1746.92
479.64	1679.33
479.84	1636.33
480.04	1689.57
480.25	1736.68
480.45	1681.38
480.65	1789.92
480.85	1802.21
481.06	1695.72
481.26	1675.24
481.46	1804.26
481.66	1697.77
481.86	1683.43
482.06	1796.07
482.27	1728.49
482.47	1673.19
482.67	1753.06
482.87	1714.15
483.07	1734.63
483.28	1667.05
483.48	1552.36
483.68	1769.44
483.88	1683.43
484.08	1609.70
484.29	1628.14
484.49	1738.73
484.69	1687.53
484.89	1765.35
485.09	1746.92
485.29	1701.86
485.50	1730.53
485.70	1728.49
485.90	1779.68
486.10	1800.16
486.30	1755.11
486.50	1787.88
486.71	1834.98
486.91	1798.12
487.11	1771.49
487.31	1624.04
487.51	1759.21
487.71	1681.38
487.91	1552.36
488.12	1665.00
488.32	1587.18
488.52	1714.15
488.72	1589.22
488.92	1665.00
489.12	1798.12
489.32	1746.92
489.53	1775.59
489.73	1679.33
489.93	1812.45
490.13	1648.61
490.33	1677.29
490.53	1751.01
490.73	1769.44
490.94	1624.04
491.14	1767.40
491.34	1834.98
491.54	2025.44
491.74	2498.52
491.94	2869.20
492.14	3039.19
492.34	3008.47
492.54	2777.05
492.75	2596.82
492.95	2494.43
493.15	2385.88
493.35	2328.54
493.55	2238.43
493.75	2203.61
493.95	2160.61
494.15	2007.01
494.35	1886.18
494.56	1834.98
494.76	1716.20
494.96	1791.97
495.16	1849.32
495.36	1712.10
495.56	1695.72
495.76	1759.21
495.96	1652.71
496.16	1740.77
496.36	1841.12
496.56	1783.78
496.77	1740.77
496.97	1753.06
497.17	1722.34
497.37	1646.57
497.57	1834.98
497.77	1761.25
497.97	1652.71
498.17	1724.39
498.37	1697.77
498.57	1755.11
498.77	1660.90
498.97	1660.90
499.17	1834.98
499.38	1699.81
499.58	1677.29
499.78	1742.82
499.98	1785.83
500.18	1720.29
500.38	1699.81
500.58	1937.38
500.78	2547.67
500.98	4616.12
501.18	6035.36
501.38	6936.47
501.58	7200.66
501.78	6733.72
501.98	5593.00
502.18	4954.04
502.38	4550.59
502.58	4157.38
502.78	3903.43
502.98	3684.30
503.18	3479.50
503.38	3082.19
503.59	2793.43
503.79	2715.61
503.99	2527.19
504.19	2279.39
504.39	2222.05
504.59	2158.56
504.79	2125.79
504.99	2035.68
505.19	1877.99
505.39	1861.60
505.59	1931.23
505.79	1935.33
505.99	1822.69
506.19	1814.50
506.39	1882.08
506.59	1787.88
506.79	1734.63
506.99	1748.97
507.19	1740.77
507.39	1804.26
507.59	1720.29
507.79	1757.16
507.99	1628.14
508.19	1708.01
508.39	1667.05
508.59	1748.97
508.79	1783.78
508.99	1843.17
509.19	1742.82
509.39	1765.35
509.59	1714.15
509.79	1697.77
509.99	1755.11
510.19	1783.78
510.39	1757.16
510.59	1701.86
510.79	1656.81
510.99	1589.22
511.19	1722.34
511.39	1796.07
511.59	1714.15
511.79	1773.54
511.99	1728.49
512.19	1851.36
512.38	1722.34
512.58	1683.43
512.78	1820.64
512.98	1742.82
513.18	1824.74
513.38	1673.19
513.58	1763.30
513.78	1617.90
513.98	1716.20
514.18	1701.86
514.38	1693.67
514.58	1697.77
514.78	1632.23
514.98	1617.90
515.18	1724.39
515.38	1648.61
515.58	1726.44
515.78	1724.39
515.98	1662.95
516.18	1767.40
516.38	1759.21
516.57	1689.57
516.77	1714.15
516.97	1763.30
517.17	1677.29
517.37	1656.81
517.57	1808.36
517.77	1734.63
517.97	1689.57
518.17	1820.64
518.37	1656.81
518.57	1660.90
518.77	1679.33
518.97	1773.54
519.16	1806.31
519.36	1755.11
519.56	1697.77
519.76	1697.77
519.96	1726.44
520.16	1802.21
520.36	1640.42
520.56	1753.06
520.76	1685.48
520.96	1714.15
521.16	1732.58
521.35	1779.68
521.55	1791.97
521.75	1701.86
521.95	1726.44
522.15	1671.14
522.35	1646.57
522.55	1669.09
522.75	1744.87
522.95	1734.63
523.14	1701.86
523.34	1785.83
523.54	1673.19
523.74	1867.75
523.94	1689.57
524.14	1665.00
524.34	1746.92
524.54	1912.80
524.73	1693.67
524.93	1796.07
525.13	1751.01
525.33	1619.94
525.53	1798.12
525.73	1767.40
525.93	1812.45
526.13	1744.87
526.32	1787.88
526.52	1781.73
526.72	1769.44
526.92	1701.86
527.12	1722.34
527.32	1656.81
527.52	1746.92
527.71	1730.53
527.91	1746.92
528.11	1626.09
528.31	1728.49
528.51	1634.28
528.71	1689.57
528.90	1748.97
529.10	1798.12
529.30	1843.17
529.50	1624.04
529.70	1748.97
529.90	1607.66
530.09	1738.73
530.29	1673.19
530.49	1662.95
530.69	1845.22
530.89	1757.16
531.09	1685.48
531.28	1718.25
531.48	1781.73
531.68	1748.97
531.88	1732.58
532.08	1789.92
532.28	1724.39
532.47	1849.32
532.67	1751.01
532.87	1718.25
533.07	1716.20
533.27	1761.25
533.46	1769.44
533.66	1767.40
533.86	1755.11
534.06	1695.72
534.26	1806.31
534.45	1712.10
534.65	1843.17
534.85	1755.11
535.05	1662.95
535.25	1753.06
535.44	1634.28
535.64	1763.30
535.84	1667.05
536.04	1669.09
536.24	1712.10
536.43	1728.49
536.63	1818.60
536.83	1705.96
537.03	1783.78
537.22	1628.14
537.42	1683.43
537.62	1728.49
537.82	1650.66
538.02	1859.56
538.21	1837.03
538.41	1935.33
538.61	1789.92
538.81	1738.73
539.00	1859.56
539.20	1691.62
539.40	1708.01
539.60	1771.49
539.79	1740.77
539.99	1767.40
540.19	1685.48
540.39	1617.90
540.58	1748.97
540.78	1804.26
540.98	1693.67
541.18	1841.12
541.37	1771.49
541.57	1703.91
541.77	1767.40
541.97	1679.33
542.16	1658.85
542.36	1730.53
542.56	1722.34
542.76	1925.09
542.95	1751.01
543.15	1789.92
543.35	1763.30
543.54	1628.14
543.74	1722.34
543.94	1787.88
544.14	1701.86
544.33	1753.06
544.53	1681.38
544.73	1777.64
544.93	1656.81
545.12	1746.92
545.32	1783.78
545.52	1632.23
545.71	1759.21
545.91	1736.68
546.11	1609.70
546.30	1703.91
546.50	1693.67
546.70	1789.92
546.90	1693.67
547.09	1626.09
547.29	1763.30
547.49	1779.68
547.68	1718.25
547.88	1665.00
548.08	1779.68
548.27	2181.09
548.47	1679.33
548.67	1697.77
548.87	1755.11
549.06	1677.29
549.26	1693.67
549.46	1736.68
549.65	1730.53
549.85	1730.53
550.05	1820.64
550.24	1611.75
550.44	1710.05
550.64	1763.30
550.83	1841.12
551.03	1779.68
551.23	1691.62
551.42	1714.15
551.62	1654.76
551.82	1767.40
552.01	1714.15
552.21	1763.30
552.41	1691.62
552.60	1814.50
552.80	1738.73
553.00	1691.62
553.19	1785.83
553.39	1806.31
553.59	1665.00
553.78	1759.21
553.98	1685.48
554.17	1730.53
554.37	1710.05
554.57	1800.16
554.76	1621.99
554.96	1722.34
555.16	1738.73
555.35	1775.59
555.55	1755.11
555.75	1724.39
555.94	1800.16
556.14	1669.09
556.33	1718.25
556.53	1761.25
556.73	1740.77
556.92	1783.78
557.12	1857.51
557.32	1877.99
557.51	1818.60
557.71	1779.68
557.90	1843.17
558.10	1808.36
558.30	1716.20
558.49	1783.78
558.69	1779.68
558.88	1796.07
559.08	1798.12
559.28	1644.52
559.47	1763.30
559.67	1744.87
559.86	1853.41
560.06	1789.92
560.26	1800.16
560.45	1730.53
560.65	1728.49
560.84	1867.75
561.04	1714.15
561.24	1744.87
561.43	1650.66
561.63	1869.80
561.82	1765.35
562.02	1742.82
562.22	1738.73
562.41	1689.57
562.61	1685.48
562.80	1619.94
563.00	1900.52
563.19	1763.30
563.39	1832.93
563.59	1804.26
563.78	1767.40
563.98	1550.31
564.17	1640.42
564.37	1701.86
564.56	1796.07
564.76	1640.42
564.96	1785.83
565.15	1796.07
565.35	1841.12
565.54	1675.24
565.74	1867.75
565.93	1818.60
566.13	1794.02
566.32	1767.40
566.52	1767.40
566.71	1798.12
566.91	1787.88
567.11	1763.30
567.30	1734.63
567.50	1738.73
567.69	1763.30
567.89	1658.85
568.08	1660.90
568.28	1734.63
568.47	1722.34
568.67	1808.36
568.86	1755.11
569.06	1744.87
569.25	1697.77
569.45	1701.86
569.64	1665.00
569.84	1708.01
570.04	1800.16
570.23	1646.57
570.43	1656.81
570.62	1753.06
570.82	1847.27
571.01	1617.90
571.21	1683.43
571.40	1695.72
571.60	1759.21
571.79	1794.02
571.99	1744.87
572.18	1705.96
572.38	1734.63
572.57	1777.64
572.77	1757.16
572.96	1845.22
573.16	1730.53
573.35	1691.62
573.55	1837.03
573.74	1738.73
573.94	1648.61
574.13	1693.67
574.33	1726.44
574.52	1726.44
574.71	1777.64
574.91	1744.87
575.10	1714.15
575.30	1759.21
575.49	1677.29
575.69	1746.92
575.88	1699.81
576.08	1714.15
576.27	1867.75
576.47	1748.97
576.66	1830.88
576.86	1808.36
577.05	1812.45
577.25	1841.12
577.44	1890.28
577.64	1736.68
577.83	1808.36
578.02	1785.83
578.22	1834.98
578.41	1808.36
578.61	1742.82
578.80	1669.09
579.00	1765.35
579.19	1734.63
579.39	1740.77
579.58	1736.68
579.77	1697.77
579.97	1796.07
580.16	1828.84
580.36	1808.36
580.55	1789.92
580.75	1757.16
580.94	1787.88
581.13	1849.32
581.33	1853.41
581.52	1691.62
581.72	1855.46
581.91	1785.83
582.11	1796.07
582.30	1751.01
582.49	1746.92
582.69	1884.13
582.88	1806.31
583.08	1783.78
583.27	1767.40
583.47	1744.87
583.66	1689.57
583.85	1658.85
584.05	1806.31
584.24	1802.21
584.44	1814.50
584.63	1808.36
584.82	1814.50
585.02	1779.68
585.21	1769.44
585.41	1869.80
585.60	1814.50
585.79	1902.56
585.99	1933.28
586.18	1810.40
586.37	2195.42
586.57	3401.68
586.76	10051.43
586.96	25083.52
587.15	34889.20
587.34	41160.08
587.54	43165.04
587.73	37436.87
587.93	26869.35
588.12	21919.41
588.31	18452.20
588.51	16631.55
588.70	15296.28
588.89	14196.52
589.09	13014.84
589.28	11151.19
589.47	9631.60
589.67	8195.97
589.86	6641.56
590.06	5076.91
590.25	3940.29
590.44	3209.17
590.64	2648.02
590.83	2230.24
591.02	2117.60
591.22	1992.67
591.41	1927.14
591.60	1871.84
591.80	1894.37
591.99	1775.59
592.18	1882.08
592.38	1832.93
592.57	1781.73
592.76	1755.11
592.96	1757.16
593.15	1800.16
593.34	1804.26
593.54	1781.73
593.73	1806.31
593.92	1693.67
594.12	1785.83
594.31	1654.76
594.50	1765.35
594.70	1771.49
594.89	1927.14
595.08	1677.29
595.28	1830.88
595.47	1918.95
595.66	1740.77
595.86	1687.53
596.05	1767.40
596.24	1740.77
596.43	1826.79
596.63	1789.92
596.82	1673.19
597.01	1781.73
597.21	1841.12
597.40	1796.07
597.59	1767.40
597.79	1718.25
597.98	1808.36
598.17	1744.87
598.36	1712.10
598.56	1816.55
598.75	1636.33
598.94	1740.77
599.14	1777.64
599.33	1777.64
599.52	1787.88
599.71	1763.30
599.91	1839.08
600.10	1814.50
600.29	1744.87
600.48	1693.67
600.68	1705.96
600.87	1753.06
601.06	1687.53
601.26	1773.54
601.45	1789.92
601.64	1701.86
601.83	1808.36
602.03	1742.82
602.22	1736.68
602.41	1855.46
602.60	1861.60
602.80	1785.83
602.99	1748.97
603.18	1722.34
603.37	1691.62
603.57	1665.00
603.76	1814.50
603.95	1781.73
604.14	1607.66
604.34	1718.25
604.53	1718.25
604.72	1775.59
604.91	1761.25
605.10	1742.82
605.30	1685.48
605.49	1882.08
605.68	1773.54
605.87	1732.58
606.07	1609.70
606.26	1822.69
606.45	1718.25
606.64	1697.77
606.84	1703.91
607.03	1742.82
607.22	1763.30
607.41	1660.90
607.60	1652.71
607.80	1816.55
607.99	1830.88
608.18	1673.19
608.37	1712.10
608.56	1554.41
608.76	1779.68
608.95	1816.55
609.14	1787.88
609.33	1763.30
609.52	1832.93
609.72	1783.78
609.91	1763.30
610.10	1685.48
610.29	1837.03
610.48	1753.06
610.68	1775.59
610.87	1732.58
611.06	1808.36
611.25	1832.93
611.44	1802.21
611.63	1648.61
611.83	1837.03
612.02	1648.61
612.21	1775.59
612.40	1710.05
612.59	1630.18
612.79	1722.34
612.98	1650.66
613.17	1867.75
613.36	1665.00
613.55	1791.97
613.74	1679.33
613.93	1679.33
614.13	1787.88
614.32	1689.57
614.51	1812.45
614.70	1753.06
614.89	1697.77
615.08	1722.34
615.28	2076.64
615.47	1714.15
615.66	1796.07
615.85	1677.29
616.04	1808.36
616.23	1767.40
616.42	1740.77
616.62	1712.10
616.81	1771.49
617.00	1687.53
617.19	1767.40
617.38	1695.72
617.57	1738.73
617.76	1779.68
617.95	1781.73
618.15	1720.29
618.34	1771.49
618.53	1603.56
618.72	1703.91
618.91	1703.91
619.10	1837.03
619.29	1703.91
619.48	1710.05
619.68	1712.10
619.87	1722.34
620.06	1736.68
620.25	1703.91
620.44	1683.43
620.63	1656.81
620.82	1730.53
621.01	1765.35
621.20	1820.64
621.39	1712.10
621.59	1726.44
621.78	1726.44
621.97	1695.72
622.16	1687.53
622.35	1687.53
622.54	1775.59
622.73	1777.64
622.92	1648.61
623.11	1787.88
623.30	1722.34
623.49	1701.86
623.68	1697.77
623.88	1736.68
624.07	1675.24
624.26	1763.30
624.45	1681.38
624.64	1667.05
624.83	1796.07
625.02	1765.35
625.21	1744.87
625.40	1728.49
625.59	1746.92
625.78	1697.77
625.97	1785.83
626.16	1753.06
626.35	1714.15
626.54	1771.49
626.74	1773.54
626.93	1755.11
627.12	1681.38
627.31	1783.78
627.50	1726.44
627.69	1798.12
627.88	1701.86
628.07	1665.00
628.26	1599.46
628.45	1679.33
628.64	1701.86
628.83	1767.40
629.02	1703.91
629.21	1744.87
629.40	1693.67
629.59	1701.86
629.78	1722.34
629.97	1734.63
630.16	1720.29
630.35	1669.09
630.54	1781.73
630.73	1681.38
630.92	1667.05
631.11	1710.05
631.30	1683.43
631.49	1714.15
631.68	1759.21
631.87	1800.16
632.06	1624.04
632.25	1925.09
632.44	1675.24
632.63	1662.95
632.82	1703.91
633.01	1742.82
633.20	1697.77
633.39	1716.20
633.58	1660.90
633.77	1759.21
633.96	1632.23
634.15	1644.52
634.34	1781.73
634.53	1673.19
634.72	1654.76
634.91	1624.04
635.10	1753.06
635.29	1746.92
635.48	1699.81
635.67	1710.05
635.86	1656.81
636.05	1824.74
636.24	1716.20
636.43	1708.01
636.62	1734.63
636.81	1595.37
637.00	1718.25
637.19	1773.54
637.38	1710.05
637.57	1753.06
637.76	1683.43
637.95	1738.73
638.14	1689.57
638.33	1685.48
638.52	1734.63
638.71	1675.24
638.89	1656.81
639.08	1820.64
639.27	1787.88
639.46	1669.09
639.65	1816.55
639.84	1742.82
640.03	1734.63
640.22	1642.47
640.41	1837.03
640.60	1701.86
640.79	1695.72
640.98	1628.14
641.17	1767.40
641.36	1716.20
641.55	1755.11
641.74	1638.38
641.92	1581.03
642.11	1718.25
642.30	1779.68
642.49	1628.14
642.68	1800.16
642.87	1765.35
643.06	1779.68
643.25	1685.48
643.44	1585.13
643.63	1705.96
643.82	1746.92
644.00	1611.75
644.19	1728.49
644.38	1646.57
644.57	1759.21
644.76	1740.77
644.95	1710.05
645.14	1648.61
645.33	1648.61
645.52	1656.81
645.71	1632.23
645.89	1675.24
646.08	1718.25
646.27	1624.04
646.46	1863.65
646.65	1671.14
646.84	1732.58
647.03	1640.42
647.22	1699.81
647.40	1669.09
647.59	1712.10
647.78	1593.32
647.97	1550.31
648.16	1662.95
648.35	1789.92
648.54	1873.89
648.73	1755.11
648.91	1736.68
649.10	1689.57
649.29	1710.05
649.48	1736.68
649.67	1722.34
649.86	1658.85
650.05	1648.61
650.23	1783.78
650.42	1640.42
650.61	1701.86
650.80	1771.49
650.99	1820.64
651.18	1675.24
651.36	1708.01
651.55	1667.05
651.74	1687.53
651.93	1734.63
652.12	1714.15
652.31	1738.73
652.49	1683.43
652.68	1650.66
652.87	1710.05
653.06	1718.25
653.25	1773.54
653.44	1693.67
653.62	1714.15
653.81	1710.05
654.00	1759.21
654.19	1665.00
654.38	1828.84
654.56	1785.83
654.75	1775.59
654.94	1730.53
655.13	1738.73
655.32	1761.25
655.51	1816.55
655.69	1691.62
655.88	1832.93
656.07	1662.95
656.26	1740.77
656.45	1667.05
656.63	1720.29
656.82	1697.77
657.01	1765.35
657.20	1693.67
657.38	1814.50
657.57	1665.00
657.76	1607.66
657.95	1826.79
658.14	1724.39
658.32	1753.06
658.51	1648.61
658.70	1734.63
658.89	1701.86
659.08	1761.25
659.26	1785.83
659.45	1671.14
659.64	1705.96
659.83	1644.52
660.01	1955.81
660.20	1701.86
660.39	1820.64
660.58	1671.14
660.76	1697.77
660.95	1656.81
661.14	1683.43
661.33	1595.37
661.51	1630.18
661.70	1677.29
661.89	1701.86
662.08	1708.01
662.26	1677.29
662.45	1656.81
662.64	1757.16
662.83	1732.58
663.01	1640.42
663.20	1744.87
663.39	1871.84
663.58	1685.48
663.76	1763.30
663.95	1779.68
664.14	1673.19
664.32	1693.67
664.51	1624.04
664.70	1665.00
664.89	1748.97
665.07	1619.94
665.26	1740.77
665.45	1691.62
665.64	1736.68
665.82	1751.01
666.01	1763.30
666.20	1658.85
666.38	1738.73
666.57	1806.31
666.76	2207.71
666.95	4589.50
667.13	10516.32
667.32	15503.12
667.51	18335.46
667.69	19353.30
667.88	18196.20
668.07	12521.28
668.25	9832.30
668.44	8202.11
668.63	7470.99
668.81	7020.44
669.00	6238.11
669.19	5754.79
669.38	5164.98
669.56	4603.83
669.75	4077.51
669.94	3389.39
670.12	2830.29
670.31	2504.67
670.50	2213.85
670.68	2066.40
670.87	1957.86
671.06	1796.07
671.24	1759.21
671.43	1746.92
671.62	1746.92
671.80	1679.33
671.99	1789.92
672.18	1767.40
672.36	1785.83
672.55	1804.26
672.74	1712.10
672.92	1644.52
673.11	1718.25
673.29	1697.77
673.48	1767.40
673.67	1683.43
673.85	1730.53
674.04	1687.53
674.23	1753.06
674.41	1806.31
674.60	1599.46
674.79	1531.88
674.97	1685.48
675.16	1734.63
675.34	1757.16
675.53	1710.05
675.72	1744.87
675.90	1865.70
676.09	1705.96
676.28	1783.78
676.46	1691.62
676.65	1693.67
676.83	1689.57
677.02	1783.78
677.21	1691.62
677.39	1726.44
677.58	1632.23
677.77	1746.92
677.95	1652.71
678.14	1712.10
678.32	1630.18
678.51	1654.76
678.70	1806.31
678.88	1695.72
679.07	1728.49
679.25	1716.20
679.44	1701.86
679.63	1652.71
679.81	1693.67
680.00	1826.79
680.18	1765.35
680.37	1726.44
680.55	1691.62
680.74	1646.57
680.93	1609.70
681.11	1746.92
681.30	1683.43
681.48	1744.87
681.67	1730.53
681.85	1642.47
682.04	1609.70
682.23	1695.72
682.41	1691.62
682.60	1675.24
682.78	1759.21
682.97	1644.52
683.15	1771.49
683.34	1699.81
683.53	1824.74
683.71	1693.67
683.90	1779.68
684.08	1761.25
684.27	1689.57
684.45	1720.29
684.64	1787.88
684.82	1695.72
685.01	1675.24
685.19	1697.77
685.38	1834.98
685.57	1720.29
685.75	1716.20
685.94	1732.58
686.12	1695.72
686.31	1650.66
686.49	1757.16
686.68	1578.98
686.86	1779.68
687.05	1703.91
687.23	1841.12
687.42	1669.09
687.60	1675.24
687.79	1800.16
687.97	1744.87
688.16	1693.67
688.34	1757.16
688.53	1566.70
688.71	1611.75
688.90	1716.20
689.08	1734.63
689.27	1671.14
689.45	1732.58
689.64	1779.68
689.82	1654.76
690.01	1679.33
690.19	1753.06
690.38	1677.29
690.56	1773.54
690.75	1669.09
690.93	1634.28
691.12	1722.34
691.30	1761.25
691.49	1644.52
691.67	1728.49
691.86	1814.50
692.04	1658.85
692.23	1685.48
692.41	1697.77
692.60	1791.97
692.78	1738.73
692.97	1677.29
693.15	1726.44
693.34	1869.80
693.52	1757.16
693.71	1701.86
693.89	1683.43
694.08	1652.71
694.26	1748.97
694.44	1761.25
694.63	1826.79
694.81	1691.62
695.00	1722.34
695.18	1714.15
695.37	1808.36
695.55	1683.43
695.74	1755.11
695.92	1716.20
696.10	1708.01
696.29	1681.38
696.47	1656.81
696.66	1578.98
696.84	1640.42
697.03	1703.91
697.21	1894.37
697.40	2246.62
697.58	1765.35
697.76	1693.67
697.95	1660.90
698.13	1609.70
698.32	1621.99
698.50	1751.01
698.68	1697.77
698.87	1730.53
699.05	1781.73
699.24	1699.81
699.42	1673.19
699.61	1708.01
699.79	1751.01
699.97	1746.92
700.16	1626.09
700.34	1595.37
700.53	1814.50
700.71	1775.59
700.89	1718.25
701.08	1705.96
701.26	1681.38
701.45	2078.69
701.63	1613.80
701.81	1654.76
702.00	1660.90
702.18	1689.57
702.37	1609.70
702.55	1753.06
702.73	1714.15
702.92	1554.41
703.10	1773.54
703.28	1722.34
703.47	1685.48
703.65	1751.01
703.84	1708.01
704.02	1673.19
704.20	1791.97
704.39	1646.57
704.57	1673.19
704.75	1746.92
704.94	1759.21
705.12	1677.29
705.30	1755.11
705.49	2213.85
705.67	4509.63
705.86	9512.81
706.04	12808.00
706.22	14815.01
706.41	15812.37
706.59	13922.09
706.77	9942.89
706.96	7464.85
707.14	6703.00
707.32	6125.47
707.51	5703.59
707.69	5011.38
707.87	4292.54
708.06	3569.61
708.24	2930.64
708.42	2414.56
708.61	2281.44
708.79	1904.61
708.97	1902.56
709.16	1834.98
709.34	1812.45
709.52	1665.00
709.71	1701.86
709.89	1847.27
710.07	1757.16
710.26	1595.37
710.44	1658.85
710.62	1681.38
710.80	1652.71
710.99	1814.50
711.17	1773.54
711.35	1738.73
711.54	1632.23
711.72	1726.44
711.90	1820.64
712.09	1708.01
712.27	1640.42
712.45	1734.63
712.63	1665.00
712.82	1755.11
713.00	1751.01
713.18	1796.07
713.37	1755.11
713.55	1771.49
713.73	1806.31
713.91	1687.53
714.10	1708.01
714.28	1648.61
714.46	1693.67
714.65	1665.00
714.83	1748.97
715.01	1716.20
715.19	1705.96
715.38	1642.47
715.56	1730.53
715.74	1607.66
715.92	1650.66
716.11	1808.36
716.29	1624.04
716.47	1673.19
716.65	1671.14
716.84	1617.90
717.02	1791.97
717.20	1605.61
717.38	1705.96
717.57	1773.54
717.75	1644.52
717.93	1677.29
718.11	1720.29
718.30	1615.85
718.48	1685.48
718.66	1732.58
718.84	1748.97
719.03	1624.04
719.21	1624.04
719.39	1822.69
719.57	1703.91
719.75	1718.25
719.94	1679.33
720.12	1617.90
720.30	1708.01
720.48	1804.26
720.67	1662.95
720.85	1660.90
721.03	1599.46
721.21	1675.24
721.39	1759.21
721.58	1683.43
721.76	1732.58
721.94	1740.77
722.12	1658.85
722.30	1783.78
722.49	1687.53
722.67	1703.91
722.85	1726.44
723.03	1632.23
723.21	1658.85
723.40	1722.34
723.58	1806.31
723.76	1689.57
723.94	1822.69
724.12	1673.19
724.30	1824.74
724.49	1789.92
724.67	1552.36
724.85	1691.62
725.03	1615.85
725.21	1716.20
725.40	1767.40
725.58	1734.63
725.76	1787.88
725.94	1695.72
726.12	1681.38
726.30	1660.90
726.49	1632.23
726.67	1691.62
726.85	1777.64
727.03	1767.40
727.21	2123.74
727.39	2938.84
727.57	3868.61
727.76	4118.47
727.94	4429.76
728.12	4374.46
728.30	3667.91
728.48	2914.26
728.66	2863.06
728.84	2609.11
729.03	2312.16
729.21	2154.46
729.39	1978.34
729.57	1789.92
729.75	1781.73
729.93	1843.17
730.11	1757.16
730.30	1726.44
730.48	1652.71
730.66	1785.83
730.84	1683.43
731.02	1693.67
731.20	1705.96
731.38	1742.82
731.56	1697.77
731.74	1652.71
731.93	1753.06
732.11	1726.44
732.29	1699.81
732.47	1753.06
732.65	1722.34
732.83	1738.73
733.01	1646.57
733.19	1667.05
733.37	1732.58
733.56	1769.44
733.74	1665.00
733.92	1800.16
734.10	1697.77
734.28	1681.38
734.46	1619.94
734.64	1677.29
734.82	1656.81
735.00	1673.19
735.18	1667.05
735.36	1681.38
735.54	1740.77
735.73	1714.15
735.91	1675.24
736.09	1751.01
736.27	1681.38
736.45	1785.83
736.63	1587.18
736.81	1642.47
736.99	1765.35
737.17	1810.40
737.35	1638.38
737.53	1714.15
737.71	1693.67
737.89	1734.63
738.07	1718.25
738.25	1689.57
738.43	1591.27
738.61	1703.91
738.80	1636.33
738.98	1681.38
739.16	1593.32
739.34	1667.05
739.52	1794.02
739.70	1701.86
739.88	1738.73
740.06	1738.73
740.24	1693.67
740.42	1808.36
740.60	1560.55
740.78	1728.49
740.96	1597.42
741.14	1746.92
741.32	1728.49
741.50	1650.66
741.68	1929.19
741.86	1714.15
742.04	1636.33
742.22	1648.61
742.40	1802.21
742.58	1806.31
742.76	1675.24
742.94	1820.64
743.12	1667.05
743.30	1689.57
743.48	1712.10
743.66	1677.29
743.84	1726.44
744.02	1683.43
744.20	1703.91
744.38	1634.28
744.56	1650.66
744.74	1804.26
744.92	1720.29
745.10	1767.40
745.28	1771.49
745.46	1773.54
745.64	1669.09
745.82	1722.34
746.00	1763.30
746.18	1773.54
746.36	1648.61
746.54	1695.72
746.72	1695.72
746.90	1673.19
747.08	1787.88
747.26	1611.75
747.44	1773.54
747.62	1751.01
747.80	1703.91
747.98	1771.49
748.15	1673.19
748.33	1765.35
748.51	1744.87
748.69	1755.11
748.87	1603.56
749.05	1712.10
749.23	1607.66
749.41	1775.59
749.59	1777.64
749.77	1763.30
749.95	1697.77
750.13	1658.85
750.31	1697.77
750.49	1701.86
750.67	1765.35
750.85	1855.46
751.03	1667.05
751.20	1855.46
751.38	1732.58
751.56	1705.96
751.74	1634.28
751.92	1640.42
752.10	1624.04
752.28	1773.54
752.46	1624.04
752.64	1728.49
752.82	1619.94
753.00	1767.40
753.18	1718.25
753.35	1658.85
753.53	1687.53
753.71	1669.09
753.89	1677.29
754.07	1716.20
754.25	1820.64
754.43	1718.25
754.61	1654.76
754.79	1716.20
754.97	1669.09
755.14	1708.01
755.32	1613.80
755.50	1732.58
755.68	1763.30
755.86	1744.87
756.04	1597.42
756.22	1523.69
756.40	1769.44
756.57	1736.68
756.75	1708.01
756.93	1732.58
757.11	1679.33
757.29	1753.06
757.47	1636.33
757.65	1640.42
757.82	1593.32
758.00	1748.97
758.18	1660.90
758.36	1662.95
758.54	1732.58
758.72	1689.57
758.90	1751.01
759.07	1777.64
759.25	1595.37
759.43	1679.33
759.61	1656.81
759.79	2160.61
759.97	1753.06
760.15	1728.49
760.32	1675.24
760.50	1695.72
760.68	1789.92
760.86	1613.80
761.04	1712.10
761.22	1744.87
761.39	1722.34
761.57	1781.73
761.75	1718.25
761.93	1726.44
762.11	1681.38
762.28	1705.96
762.46	1607.66
762.64	1667.05
762.82	1587.18
763.00	1656.81
763.18	1765.35
763.35	1660.90
763.53	1693.67
763.71	1714.15
763.89	1695.72
764.07	1662.95
764.24	1781.73
764.42	1761.25
764.60	1650.66
764.78	1722.34
764.96	1763.30
765.13	1812.45
765.31	1726.44
765.49	1742.82
765.67	1599.46
765.84	1675.24
766.02	1628.14
766.20	1673.19
766.38	1759.21
766.56	1724.39
766.73	1828.84
766.91	1705.96
767.09	1806.31
767.27	1730.53
767.44	1638.38
767.62	1742.82
767.80	1667.05
767.98	1662.95
768.15	1667.05
768.33	1695.72
768.51	1738.73
768.69	1708.01
768.87	1783.78
769.04	1705.96
769.22	1789.92
769.40	1800.16
769.58	1779.68
769.75	1705.96
769.93	1726.44
770.11	1689.57
770.28	1624.04
770.46	1767.40
770.64	1759.21
770.82	1619.94
770.99	1708.01
771.17	1781.73
771.35	1675.24
771.53	1740.77
771.70	1716.20
771.88	1675.24
772.06	1726.44
772.23	1714.15
772.41	1773.54
772.59	1669.09
772.77	1609.70
772.94	1658.85
773.12	1642.47
773.30	1669.09
773.47	1714.15
773.65	1665.00
773.83	1771.49
774.01	1775.59
774.18	1566.70
774.36	1710.05
774.54	1628.14
774.71	1726.44
774.89	1611.75
775.07	1628.14
775.24	1634.28
775.42	1642.47
775.60	1781.73
775.78	1597.42
775.95	1617.90
776.13	1617.90
776.31	1548.26
776.48	1726.44
776.66	1820.64
776.84	1644.52
777.01	1658.85
777.19	1740.77
777.37	1603.56
777.54	1708.01
777.72	1853.41
777.90	1773.54
778.07	1652.71
778.25	1855.46
778.43	1751.01
778.60	1730.53
778.78	1722.34
778.96	1783.78
779.13	1675.24
779.31	1796.07
779.49	1662.95
779.66	1693.67
779.84	1724.39
780.01	1730.53
780.19	1646.57
780.37	1728.49
780.54	1779.68
780.72	1617.90
780.90	1712.10
781.07	1660.90
781.25	1603.56
781.43	1712.10
781.60	1640.42
781.78	1789.92
781.95	1658.85
782.13	1650.66
782.31	1681.38
782.48	1665.00
782.66	1738.73
782.83	1814.50
783.01	1718.25
783.19	1779.68
783.36	1650.66
783.54	1607.66
783.72	1765.35
783.89	1671.14
784.07	1693.67
784.24	1665.00
784.42	1830.88
784.60	1671.14
784.77	1705.96
784.95	1599.46
785.12	1648.61
785.30	1722.34
785.47	1646.57
785.65	1697.77
785.83	1703.91
786.00	1716.20
786.18	1708.01
786.35	1613.80
786.53	1716.20
786.71	1716.20
786.88	1728.49
787.06	1734.63
787.23	1675.24
787.41	1708.01
787.58	1601.51
787.76	1593.32
787.94	1673.19
788.11	1755.11
788.29	1589.22
788.46	1589.22
788.64	1683.43
788.81	1691.62
788.99	1656.81
789.16	1634.28
789.34	1693.67
789.52	1689.57
789.69	1712.10
789.87	1525.74
790.04	1658.85
790.22	1640.42
790.39	1728.49
790.57	1630.18
790.74	1660.90
790.92	1802.21
791.09	1642.47
791.27	1738.73
791.44	1734.63
791.62	1599.46
791.79	1757.16
791.97	1699.81
792.15	1902.56
792.32	1742.82
792.50	1738.73
792.67	1720.29
792.85	1791.97
793.02	1724.39
793.20	1630.18
793.37	1558.50
793.55	1738.73
793.72	1677.29
793.90	1738.73
794.07	1656.81
794.25	1689.57
794.42	1640.42
794.60	1714.15
794.77	1726.44
794.95	1732.58
795.12	1769.44
795.30	1660.90
795.47	1621.99
795.65	1861.60
795.82	1640.42
796.00	1644.52
796.17	1621.99
796.34	1624.04
796.52	1634.28
796.69	1718.25
796.87	1769.44
797.04	1708.01
797.22	1687.53
797.39	1656.81
797.57	1726.44
797.74	1703.91
797.92	1718.25
798.09	1761.25
798.27	1677.29
798.44	1777.64
798.62	1650.66
798.79	1716.20
798.96	1705.96
799.14	1714.15
799.31	1824.74
799.49	1624.04
799.66	1665.00
799.84	1708.01
800.01	1632.23
800.19	1757.16
800.36	1593.32
800.53	1677.29
800.71	1712.10
800.88	1765.35
801.06	1646.57
801.23	1615.85
801.41	1642.47
801.58	1634.28
801.75	1685.48
801.93	1796.07
802.10	1773.54
802.28	1607.66
802.45	1673.19
802.63	1769.44
802.80	1710.05
802.97	1716.20
803.15	1669.09
803.32	1675.24
803.50	1650.66
803.67	1671.14
803.84	1658.85
804.02	1675.24
804.19	1665.00
804.37	1546.22
804.54	1701.86
804.71	1626.09
804.89	1730.53
805.06	1665.00
805.24	1650.66
805.41	1619.94
805.58	1732.58
805.76	1824.74
805.93	1761.25
806.10	1724.39
806.28	1734.63
806.45	1675.24
806.63	1714.15
806.80	1734.63
806.97	1691.62
807.15	1714.15
807.32	1769.44
807.49	1697.77
807.67	1585.13
807.84	1748.97
808.01	1619.94
808.19	1791.97
808.36	1755.11
808.54	1685.48
808.71	1693.67
808.88	1746.92
809.06	1720.29
809.23	1779.68
809.40	1562.60
809.58	1738.73
809.75	1697.77
809.92	1679.33
810.10	1845.22
810.27	1736.68
810.44	1630.18
810.62	1759.21
810.79	1712.10
810.96	1699.81
811.14	1714.15
811.31	1693.67
811.48	1751.01
811.66	1763.30
811.83	1693.67
812.00	1757.16
812.18	1755.11
812.35	1853.41
812.52	1656.81
812.69	1634.28
812.87	1652.71
813.04	1583.08
813.21	1626.09
813.39	1705.96
813.56	1605.61
813.73	1679.33
813.91	1595.37
814.08	1673.19
814.25	1742.82
814.42	1701.86
814.60	1718.25
814.77	1693.67
814.94	1638.38
815.12	1701.86
815.29	1730.53
815.46	1677.29
815.63	1654.76
815.81	1708.01
815.98	1658.85
816.15	1796.07
816.33	1732.58
816.50	1669.09
816.67	1730.53
816.84	1671.14
817.02	1609.70
817.19	1685.48
817.36	1671.14
817.53	1726.44
817.71	1665.00
817.88	1695.72
818.05	1652.71
818.22	1697.77
818.40	1744.87
818.57	1628.14
818.74	1697.77
818.91	1660.90
819.09	1705.96
819.26	1818.60
819.43	1591.27
819.60	1601.51
819.78	1789.92
819.95	1728.49
820.12	1574.89
820.29	1796.07
820.47	1724.39
820.64	1609.70
820.81	1589.22
820.98	1593.32
821.15	1660.90
821.33	1753.06
821.50	1603.56
821.67	1712.10
821.84	1603.56
822.02	1738.73
822.19	1777.64
822.36	1640.42
822.53	1662.95
822.70	1679.33
822.88	1662.95
823.05	1773.54
823.22	1701.86
823.39	1755.11
823.56	1718.25
823.74	1828.84
823.91	1648.61
824.08	1718.25
824.25	1648.61
824.42	1771.49
824.60	1634.28
824.77	1701.86
824.94	1681.38
825.11	1630.18
825.28	1630.18
825.45	1718.25
825.63	1759.21
825.80	1660.90
825.97	1701.86
826.14	1681.38
826.31	1650.66
826.48	1665.00
826.66	1646.57
826.83	1685.48
827.00	1689.57
827.17	1626.09
827.34	1710.05
827.51	1740.77
827.69	1681.38
827.86	1624.04
828.03	1689.57
828.20	1644.52
828.37	1671.14
828.54	1718.25
828.71	1722.34
828.89	1769.44
829.06	1744.87
829.23	1789.92
829.40	1632.23
829.57	1677.29
829.74	1697.77
829.91	1636.33
830.09	1628.14
830.26	1789.92
830.43	1769.44
830.60	1599.46
830.77	1701.86
830.94	1724.39
831.11	1757.16
831.28	1705.96
831.46	1738.73
831.63	1642.47
831.80	1720.29
831.97	1621.99
832.14	1667.05
832.31	1744.87
832.48	1755.11
832.65	1757.16
832.82	1703.91
832.99	1679.33
833.17	1675.24
833.34	1759.21
833.51	1697.77
833.68	1591.27
833.85	1771.49
834.02	1677.29
834.19	1630.18
834.36	1593.32
834.53	1732.58
834.70	1746.92
834.87	1724.39
835.04	1689.57
835.22	1681.38
835.39	1667.05
835.56	1611.75
835.73	1675.24
835.90	1773.54
836.07	1675.24
836.24	1771.49
836.41	1568.74
836.58	1640.42
836.75	1755.11
836.92	1779.68
837.09	1691.62
837.26	1785.83
837.43	1675.24
837.60	1777.64
837.77	1685.48
837.94	1738.73
838.12	1718.25
838.29	1693.67
838.46	1607.66
838.63	1697.77
838.80	1808.36
838.97	1679.33
839.14	1744.87
839.31	1630.18
839.48	1710.05
839.65	1701.86
839.82	1769.44
839.99	1656.81
840.16	1609.70
840.33	1712.10
840.50	1624.04
840.67	1681.38
840.84	1605.61
841.01	1671.14
841.18	1626.09
841.35	1683.43
841.52	1765.35
841.69	1771.49
841.86	1767.40
842.03	1650.66
842.20	1687.53
842.37	1648.61
842.54	1730.53
842.71	1687.53
842.88	1636.33
843.05	1779.68
843.22	1697.77
843.39	1665.00
843.56	1697.77
843.73	1767.40
843.90	1714.15
844.07	1667.05
844.24	1662.95
844.41	1677.29
844.58	1611.75
844.75	1722.34
844.92	1705.96
845.09	1714.15
845.26	1648.61
845.43	1738.73
845.60	1675.24
845.77	1806.31
845.94	1658.85
846.10	1738.73
846.27	1535.98
846.44	1691.62
846.61	1615.85
846.78	1681.38
846.95	1665.00
847.12	1681.38
847.29	1763.30
847.46	1660.90
847.63	1771.49
847.80	1705.96
847.97	1716.20
848.14	1837.03
848.31	1699.81
848.48	1652.71
848.65	1734.63
848.82	1683.43
848.98	1871.84
849.15	1689.57
849.32	1824.74
849.49	1728.49
849.66	1714.15
849.83	1765.35
850.00	1656.81
850.17	1775.59
850.34	1701.86
850.51	1591.27
850.68	1705.96
850.85	1894.37
851.01	1660.90
851.18	1640.42
851.35	1687.53
851.52	1759.21
851.69	1796.07
851.86	1640.42
852.03	1718.25
852.20	1738.73
852.37	1722.34
852.53	1634.28
852.70	1656.81
852.87	1677.29
853.04	1771.49
853.21	1642.47
853.38	1705.96
853.55	1751.01
853.72	1787.88
853.89	1611.75
854.05	1636.33
854.22	1644.52
854.39	1599.46
854.56	1658.85
854.73	1656.81
854.90	1714.15
855.07	1673.19
855.23	1665.00
855.40	1644.52
855.57	1712.10
855.74	1587.18
855.91	1847.27
856.08	1624.04
856.25	1599.46
856.41	1693.67
856.58	1722.34
856.75	1695.72
856.92	1673.19
857.09	1763.30
857.26	1681.38
857.42	1646.57
857.59	1738.73
857.76	1710.05
857.93	1732.58
858.10	1681.38
858.27	1675.24
858.43	1736.68
858.60	1677.29
858.77	1587.18
858.94	1689.57
859.11	1708.01
859.27	1613.80
859.44	1667.05
859.61	1839.08
859.78	1734.63
859.95	1683.43
860.12	1669.09
860.28	1767.40
860.45	1783.78
860.62	1726.44
860.79	1667.05
860.95	1734.63
861.12	1624.04
861.29	1681.38
861.46	1703.91
861.63	1654.76
861.79	1675.24
861.96	1697.77
862.13	1677.29
862.30	1773.54
862.47	1671.14
862.63	1634.28
862.80	1824.74
862.97	1699.81
863.14	1804.26
863.30	1648.61
863.47	1724.39
863.64	1708.01
863.81	1697.77
863.97	1701.86
864.14	1693.67
864.31	1644.52
864.48	1738.73
864.65	1662.95
864.81	1724.39
864.98	1738.73
865.15	1691.62
865.32	1681.38
865.48	1777.64
865.65	1773.54
865.82	1699.81
865.98	1685.48
866.15	1746.92
866.32	1722.34
866.49	1640.42
866.65	1775.59
866.82	1605.61
866.99	1681.38
867.16	1601.51
867.32	1621.99
867.49	1689.57
867.66	1714.15
867.83	1652.71
867.99	1605.61
868.16	1687.53
868.33	1656.81
868.49	1746.92
868.66	1708.01
868.83	1783.78
868.99	1669.09
869.16	1705.96
869.33	1705.96
869.50	1800.16
869.66	1611.75
869.83	1738.73
870.00	1654.76
870.16	1755.11
870.33	1665.00
870.50	1779.68
870.66	1705.96
870.83	1841.12
871.00	1724.39
871.17	1718.25
871.33	1777.64
871.50	1671.14
871.67	1638.38
871.83	1718.25
872.00	1740.77
872.17	1677.29
872.33	1755.11
872.50	1703.91
872.67	1654.76
872.83	1673.19
873.00	1728.49
873.17	1695.72
873.33	1755.11
873.50	1699.81
873.67	1695.72
873.83	1617.90
874.00	1652.71
874.16	1769.44
874.33	1662.95
874.50	1665.00
874.66	1716.20
874.83	1705.96
875.00	1804.26
875.16	1693.67
875.33	1814.50
875.50	1609.70
875.66	1638.38
875.83	1705.96
875.99	1681.38
876.16	1658.85
876.33	1585.13
876.49	1652.71
876.66	1722.34
876.83	1681.38
876.99	1585.13
877.16	1773.54
877.32	1617.90
877.49	1605.61
877.66	1681.38
877.82	1771.49
877.99	1665.00
878.15	1726.44
878.32	1742.82
878.49	1728.49
878.65	1634.28
878.82	1818.60
878.98	1734.63
879.15	1615.85
879.32	1710.05
879.48	1730.53
879.65	1669.09
879.81	1607.66
879.98	1671.14
880.15	1648.61
880.31	1691.62
880.48	1636.33
880.64	1783.78
880.81	1699.81
880.97	1787.88
881.14	1710.05
881.31	1591.27
881.47	1800.16
881.64	1665.00
881.80	1654.76
881.97	1658.85
882.13	1781.73
882.30	1703.91
882.47	1630.18
882.63	1685.48
882.80	1642.47
882.96	1665.00
883.13	1777.64
883.29	1740.77
883.46	1658.85
883.62	1769.44
883.79	1628.14
883.95	1755.11
884.12	1665.00
884.29	1783.78
884.45	1677.29
884.62	1771.49
884.78	1630.18
884.95	1791.97
885.11	1597.42
885.28	1669.09
885.44	1720.29
885.61	1740.77
885.77	1763.30
885.94	1746.92
886.10	1773.54
886.27	1726.44
886.43	1708.01
886.60	1759.21
886.76	1728.49
886.93	1624.04
887.09	1665.00
887.26	1554.41
887.42	1675.24
887.59	1746.92
887.75	1832.93
887.92	1640.42
888.08	1675.24
888.25	1669.09
888.41	1767.40
888.58	1675.24
888.74	1617.90
888.91	1644.52
>>>>>End Processed Spectral Data<<<<<
