SpectraSuite Data File
++++++++++++++++++++++++++++++++++++
Date: Mon Jun 06 16:13:17 CEST 2016
User: root
Dark Spectrum Present: No
Reference Spectrum Present: No
Number of Sampled Component Spectra: 1
Spectrometers: USB4C02835
Integration Time (usec): 100000 (USB4C02835)
Spectra Averaged: 1 (USB4C02835)
Boxcar Smoothing: 0 (USB4C02835)
Correct for Electrical Dark: No (USB4C02835)
Strobe/Lamp Enabled: No (USB4C02835)
Correct for Detector Non-linearity: No (USB4C02835)
Correct for Stray Light: No (USB4C02835)
Number of Pixels in Processed Spectrum: 3648
>>>>>Begin Processed Spectral Data<<<<<
177.47	1482.73
177.69	1482.73
177.91	1482.73
178.13	1499.11
178.36	1468.39
178.58	1626.09
178.80	1720.29
179.02	1607.66
179.24	1714.15
179.46	1718.25
179.68	1746.92
179.90	1726.44
180.13	1679.33
180.35	1632.23
180.57	1720.29
180.79	1755.11
181.01	1730.53
181.23	1802.21
181.45	1818.60
181.67	1681.38
181.90	1718.25
182.12	1648.61
182.34	1646.57
182.56	1712.10
182.78	1763.30
183.00	1730.53
183.22	1757.16
183.44	1701.86
183.66	1787.88
183.89	1708.01
184.11	1818.60
184.33	1779.68
184.55	1714.15
184.77	1753.06
184.99	1751.01
185.21	1693.67
185.43	1875.94
185.65	1675.24
185.87	1697.77
186.10	1832.93
186.32	1914.85
186.54	1714.15
186.76	1710.05
186.98	1767.40
187.20	1665.00
187.42	1703.91
187.64	1732.58
187.86	1773.54
188.08	1851.36
188.30	1722.34
188.52	1730.53
188.75	1767.40
188.97	1798.12
189.19	1669.09
189.41	1701.86
189.63	1744.87
189.85	1669.09
190.07	1685.48
190.29	1671.14
190.51	1777.64
190.73	1669.09
190.95	1800.16
191.17	1685.48
191.39	1669.09
191.61	1671.14
191.84	1757.16
192.06	1753.06
192.28	1667.05
192.50	1869.80
192.72	1755.11
192.94	1716.20
193.16	1757.16
193.38	1689.57
193.60	1646.57
193.82	1755.11
194.04	1812.45
194.26	1757.16
194.48	1738.73
194.70	1777.64
194.92	1695.72
195.14	1804.26
195.36	1669.09
195.58	1683.43
195.80	1705.96
196.02	1714.15
196.24	1708.01
196.46	1726.44
196.69	1724.39
196.91	1837.03
197.13	1720.29
197.35	1746.92
197.57	1820.64
197.79	1779.68
198.01	1720.29
198.23	1757.16
198.45	1693.67
198.67	1669.09
198.89	1681.38
199.11	1726.44
199.33	1656.81
199.55	1628.14
199.77	1753.06
199.99	1732.58
200.21	1710.05
200.43	1742.82
200.65	1746.92
200.87	1681.38
201.09	1746.92
201.31	1689.57
201.53	1777.64
201.75	1720.29
201.97	1751.01
202.19	1675.24
202.41	1740.77
202.63	1826.79
202.85	1830.88
203.07	1771.49
203.29	1744.87
203.51	1714.15
203.73	1671.14
203.95	1912.80
204.17	1718.25
204.39	1755.11
204.61	1742.82
204.83	1667.05
205.05	1796.07
205.27	1734.63
205.49	1804.26
205.71	1658.85
205.93	1701.86
206.15	1683.43
206.37	1736.68
206.59	1720.29
206.81	1691.62
207.03	1566.70
207.25	1705.96
207.47	1759.21
207.69	1742.82
207.91	1734.63
208.13	1759.21
208.34	1658.85
208.56	1675.24
208.78	1781.73
209.00	1710.05
209.22	1720.29
209.44	1665.00
209.66	1738.73
209.88	1691.62
210.10	1683.43
210.32	1701.86
210.54	1728.49
210.76	1695.72
210.98	1841.12
211.20	1517.54
211.42	1732.58
211.64	1755.11
211.86	1742.82
212.08	1751.01
212.30	1746.92
212.52	1708.01
212.74	1742.82
212.96	1736.68
213.17	1753.06
213.39	1804.26
213.61	1775.59
213.83	1781.73
214.05	1601.51
214.27	1779.68
214.49	1583.08
214.71	1710.05
214.93	1730.53
215.15	1671.14
215.37	1773.54
215.59	1656.81
215.81	1726.44
216.03	1816.55
216.24	1775.59
216.46	1753.06
216.68	1693.67
216.90	1789.92
217.12	1718.25
217.34	1744.87
217.56	1710.05
217.78	1767.40
218.00	1751.01
218.22	1724.39
218.44	1742.82
218.66	1724.39
218.87	1865.70
219.09	1718.25
219.31	1697.77
219.53	1656.81
219.75	1593.32
219.97	1705.96
220.19	1730.53
220.41	1734.63
220.63	1834.98
220.85	1720.29
221.06	1660.90
221.28	1746.92
221.50	1757.16
221.72	1748.97
221.94	1751.01
222.16	1687.53
222.38	1681.38
222.60	1742.82
222.82	1732.58
223.03	1779.68
223.25	1665.00
223.47	1828.84
223.69	1783.78
223.91	1783.78
224.13	1738.73
224.35	1712.10
224.57	1736.68
224.78	1693.67
225.00	1693.67
225.22	1730.53
225.44	1681.38
225.66	1765.35
225.88	1679.33
226.10	1771.49
226.32	1685.48
226.53	1710.05
226.75	1656.81
226.97	1648.61
227.19	1738.73
227.41	1742.82
227.63	1697.77
227.85	1642.47
228.06	1730.53
228.28	1634.28
228.50	1765.35
228.72	1648.61
228.94	1712.10
229.16	1718.25
229.37	1673.19
229.59	1669.09
229.81	1697.77
230.03	1658.85
230.25	1656.81
230.47	1615.85
230.69	1677.29
230.90	1810.40
231.12	1638.38
231.34	1724.39
231.56	1757.16
231.78	1669.09
232.00	1798.12
232.21	1734.63
232.43	1660.90
232.65	1564.65
232.87	1755.11
233.09	1624.04
233.30	1718.25
233.52	1806.31
233.74	1722.34
233.96	1714.15
234.18	1683.43
234.40	1757.16
234.61	1863.65
234.83	1677.29
235.05	1662.95
235.27	1933.28
235.49	1730.53
235.70	1708.01
235.92	1849.32
236.14	1785.83
236.36	1902.56
236.58	1626.09
236.79	1845.22
237.01	1763.30
237.23	1642.47
237.45	1798.12
237.67	1714.15
237.88	1685.48
238.10	1806.31
238.32	1665.00
238.54	1658.85
238.76	1728.49
238.97	1691.62
239.19	1615.85
239.41	1767.40
239.63	1824.74
239.85	1673.19
240.06	1730.53
240.28	1677.29
240.50	1738.73
240.72	1757.16
240.93	1648.61
241.15	1783.78
241.37	1665.00
241.59	1849.32
241.81	1681.38
242.02	1636.33
242.24	1765.35
242.46	1730.53
242.68	1710.05
242.89	1763.30
243.11	1755.11
243.33	1773.54
243.55	1718.25
243.76	1814.50
243.98	1738.73
244.20	1671.14
244.42	1718.25
244.64	1701.86
244.85	1642.47
245.07	1712.10
245.29	1703.91
245.51	1742.82
245.72	1734.63
245.94	1834.98
246.16	1718.25
246.38	1812.45
246.59	1679.33
246.81	1681.38
247.03	1652.71
247.24	1564.65
247.46	1685.48
247.68	1746.92
247.90	1658.85
248.11	1724.39
248.33	1714.15
248.55	1701.86
248.77	1740.77
248.98	1716.20
249.20	1763.30
249.42	1683.43
249.64	1734.63
249.85	1742.82
250.07	1652.71
250.29	1791.97
250.50	1744.87
250.72	1652.71
250.94	1763.30
251.16	1818.60
251.37	1767.40
251.59	1697.77
251.81	1785.83
252.02	1767.40
252.24	1716.20
252.46	1763.30
252.68	1712.10
252.89	1759.21
253.11	1621.99
253.33	1877.99
253.54	1777.64
253.76	1619.94
253.98	1714.15
254.20	1677.29
254.41	1644.52
254.63	1746.92
254.85	1677.29
255.06	1671.14
255.28	1718.25
255.50	1687.53
255.71	1751.01
255.93	1675.24
256.15	1665.00
256.36	1710.05
256.58	1728.49
256.80	1742.82
257.02	1710.05
257.23	1710.05
257.45	1691.62
257.67	1771.49
257.88	1673.19
258.10	1806.31
258.32	1710.05
258.53	1812.45
258.75	1710.05
258.97	1693.67
259.18	1716.20
259.40	1691.62
259.62	1845.22
259.83	1804.26
260.05	1730.53
260.27	1968.10
260.48	1765.35
260.70	1652.71
260.92	1720.29
261.13	1652.71
261.35	1763.30
261.57	1703.91
261.78	1607.66
262.00	1701.86
262.22	1662.95
262.43	1669.09
262.65	1681.38
262.86	1677.29
263.08	1894.37
263.30	1730.53
263.51	1613.80
263.73	1638.38
263.95	1826.79
264.16	1681.38
264.38	1722.34
264.60	1665.00
264.81	1734.63
265.03	1763.30
265.25	1730.53
265.46	1722.34
265.68	1804.26
265.89	1787.88
266.11	1689.57
266.33	1736.68
266.54	1798.12
266.76	1759.21
266.98	1761.25
267.19	1828.84
267.41	1748.97
267.62	1685.48
267.84	1667.05
268.06	1773.54
268.27	1675.24
268.49	1804.26
268.70	1810.40
268.92	1748.97
269.14	1644.52
269.35	1611.75
269.57	1699.81
269.79	1683.43
270.00	1665.00
270.22	1738.73
270.43	1646.57
270.65	1552.36
270.87	1769.44
271.08	1794.02
271.30	1726.44
271.51	1708.01
271.73	1724.39
271.95	1767.40
272.16	1673.19
272.38	1746.92
272.59	1761.25
272.81	1773.54
273.02	1654.76
273.24	1771.49
273.46	1806.31
273.67	1652.71
273.89	1683.43
274.10	1648.61
274.32	1742.82
274.54	1769.44
274.75	1773.54
274.97	1710.05
275.18	1834.98
275.40	1681.38
275.61	1777.64
275.83	1689.57
276.05	1683.43
276.26	1658.85
276.48	1814.50
276.69	1644.52
276.91	1691.62
277.12	1806.31
277.34	1759.21
277.55	1781.73
277.77	1689.57
277.99	1703.91
278.20	1722.34
278.42	1708.01
278.63	1650.66
278.85	1699.81
279.06	1566.70
279.28	1773.54
279.49	1763.30
279.71	1810.40
279.93	1744.87
280.14	1718.25
280.36	1687.53
280.57	1798.12
280.79	1767.40
281.00	1732.58
281.22	1718.25
281.43	1839.08
281.65	1652.71
281.86	1714.15
282.08	1730.53
282.29	1863.65
282.51	1701.86
282.73	1646.57
282.94	1703.91
283.16	1751.01
283.37	1781.73
283.59	1726.44
283.80	1748.97
284.02	1697.77
284.23	1734.63
284.45	1708.01
284.66	1636.33
284.88	1644.52
285.09	1722.34
285.31	1710.05
285.52	1687.53
285.74	1630.18
285.95	1714.15
286.17	1730.53
286.38	1814.50
286.60	1718.25
286.81	1705.96
287.03	1648.61
287.24	1638.38
287.46	1681.38
287.67	1718.25
287.89	1765.35
288.10	1671.14
288.32	1738.73
288.53	1808.36
288.75	1699.81
288.96	1757.16
289.18	1572.84
289.39	1640.42
289.61	1800.16
289.82	1863.65
290.04	1826.79
290.25	1753.06
290.47	1822.69
290.68	1775.59
290.90	1757.16
291.11	1595.37
291.33	1769.44
291.54	1654.76
291.76	1693.67
291.97	1714.15
292.18	1730.53
292.40	1609.70
292.61	1677.29
292.83	1875.94
293.04	1638.38
293.26	1751.01
293.47	1705.96
293.69	1634.28
293.90	1730.53
294.12	1849.32
294.33	1724.39
294.55	1751.01
294.76	1763.30
294.97	1728.49
295.19	1738.73
295.40	1683.43
295.62	1675.24
295.83	1824.74
296.05	1699.81
296.26	1816.55
296.48	1650.66
296.69	1656.81
296.90	1665.00
297.12	1744.87
297.33	1796.07
297.55	1718.25
297.76	1691.62
297.98	1841.12
298.19	1687.53
298.41	1679.33
298.62	1640.42
298.83	1875.94
299.05	1724.39
299.26	1697.77
299.48	1685.48
299.69	1748.97
299.90	1730.53
300.12	1675.24
300.33	1751.01
300.55	1695.72
300.76	1708.01
300.98	1669.09
301.19	1669.09
301.40	1683.43
301.62	1683.43
301.83	1617.90
302.05	1699.81
302.26	1714.15
302.47	1697.77
302.69	1632.23
302.90	1687.53
303.12	1628.14
303.33	1755.11
303.54	1767.40
303.76	1710.05
303.97	1720.29
304.19	1851.36
304.40	1636.33
304.61	1789.92
304.83	1861.60
305.04	1767.40
305.26	1724.39
305.47	1697.77
305.68	1771.49
305.90	1648.61
306.11	1744.87
306.33	1703.91
306.54	1703.91
306.75	1673.19
306.97	1619.94
307.18	1630.18
307.39	1695.72
307.61	1722.34
307.82	1746.92
308.04	1720.29
308.25	1714.15
308.46	1751.01
308.68	1720.29
308.89	1773.54
309.10	1794.02
309.32	1716.20
309.53	1802.21
309.74	1746.92
309.96	1695.72
310.17	1828.84
310.39	1656.81
310.60	1708.01
310.81	1615.85
311.03	1689.57
311.24	1779.68
311.45	1640.42
311.67	1871.84
311.88	1789.92
312.09	1683.43
312.31	1722.34
312.52	1703.91
312.73	1685.48
312.95	1601.51
313.16	1654.76
313.37	1759.21
313.59	1771.49
313.80	1724.39
314.01	1855.46
314.23	1728.49
314.44	1714.15
314.65	1628.14
314.87	1636.33
315.08	1722.34
315.29	1626.09
315.51	1685.48
315.72	1652.71
315.93	1841.12
316.15	1744.87
316.36	1656.81
316.57	1691.62
316.79	1734.63
317.00	1701.86
317.21	1742.82
317.43	1691.62
317.64	1732.58
317.85	1691.62
318.07	1687.53
318.28	1746.92
318.49	1814.50
318.70	1882.08
318.92	1865.70
319.13	1816.55
319.34	1884.13
319.56	1769.44
319.77	1841.12
319.98	1806.31
320.20	1726.44
320.41	1771.49
320.62	1800.16
320.83	1714.15
321.05	1820.64
321.26	1753.06
321.47	1656.81
321.69	1787.88
321.90	1619.94
322.11	1685.48
322.32	1751.01
322.54	1783.78
322.75	1677.29
322.96	1775.59
323.18	1703.91
323.39	1660.90
323.60	1671.14
323.81	1834.98
324.03	1722.34
324.24	1673.19
324.45	1681.38
324.66	1746.92
324.88	1757.16
325.09	1808.36
325.30	1662.95
325.52	1689.57
325.73	1734.63
325.94	1667.05
326.15	1611.75
326.37	1710.05
326.58	1746.92
326.79	1748.97
327.00	1658.85
327.22	1732.58
327.43	1662.95
327.64	1626.09
327.85	1767.40
328.07	1675.24
328.28	1783.78
328.49	1671.14
328.70	1658.85
328.92	1773.54
329.13	1730.53
329.34	1763.30
329.55	1900.52
329.76	1751.01
329.98	1732.58
330.19	1820.64
330.40	1748.97
330.61	1738.73
330.83	1771.49
331.04	1634.28
331.25	1712.10
331.46	1701.86
331.68	1671.14
331.89	1802.21
332.10	1755.11
332.31	1587.18
332.52	1736.68
332.74	1832.93
332.95	1603.56
333.16	1640.42
333.37	1787.88
333.58	1662.95
333.80	1699.81
334.01	1617.90
334.22	1679.33
334.43	1632.23
334.64	1681.38
334.86	1691.62
335.07	1605.61
335.28	1787.88
335.49	1632.23
335.70	1771.49
335.92	1775.59
336.13	1920.99
336.34	1689.57
336.55	1777.64
336.76	1650.66
336.98	1642.47
337.19	1755.11
337.40	1828.84
337.61	1812.45
337.82	1640.42
338.04	1802.21
338.25	1560.55
338.46	1675.24
338.67	1660.90
338.88	1669.09
339.09	1640.42
339.31	1669.09
339.52	1605.61
339.73	1646.57
339.94	1728.49
340.15	1757.16
340.36	1689.57
340.58	1699.81
340.79	1705.96
341.00	1769.44
341.21	1710.05
341.42	1837.03
341.63	1650.66
341.85	1675.24
342.06	1746.92
342.27	1695.72
342.48	1753.06
342.69	1660.90
342.90	1703.91
343.12	1761.25
343.33	1726.44
343.54	1808.36
343.75	1691.62
343.96	1673.19
344.17	1710.05
344.38	1765.35
344.60	1640.42
344.81	1693.67
345.02	1728.49
345.23	1789.92
345.44	1771.49
345.65	1775.59
345.86	1763.30
346.07	1708.01
346.29	1691.62
346.50	1701.86
346.71	1701.86
346.92	1771.49
347.13	1841.12
347.34	1650.66
347.55	1695.72
347.76	1720.29
347.98	1701.86
348.19	1687.53
348.40	1775.59
348.61	1669.09
348.82	1769.44
349.03	1830.88
349.24	1652.71
349.45	1800.16
349.66	1609.70
349.88	1728.49
350.09	1660.90
350.30	1761.25
350.51	1751.01
350.72	1714.15
350.93	1732.58
351.14	1646.57
351.35	1742.82
351.56	1714.15
351.77	1714.15
351.99	1779.68
352.20	1783.78
352.41	1781.73
352.62	1624.04
352.83	1785.83
353.04	1693.67
353.25	1724.39
353.46	1804.26
353.67	1726.44
353.88	1642.47
354.09	1757.16
354.30	1740.77
354.52	1800.16
354.73	1718.25
354.94	1718.25
355.15	1720.29
355.36	1843.17
355.57	1718.25
355.78	1712.10
355.99	1726.44
356.20	1712.10
356.41	1689.57
356.62	1765.35
356.83	1644.52
357.04	1785.83
357.25	1609.70
357.46	1687.53
357.68	1675.24
357.89	1652.71
358.10	1646.57
358.31	1785.83
358.52	1701.86
358.73	1624.04
358.94	1677.29
359.15	1712.10
359.36	1697.77
359.57	1765.35
359.78	1714.15
359.99	1730.53
360.20	1748.97
360.41	1720.29
360.62	1726.44
360.83	1773.54
361.04	1679.33
361.25	1769.44
361.46	1763.30
361.67	1744.87
361.88	1789.92
362.09	1812.45
362.30	1779.68
362.51	1646.57
362.72	1765.35
362.93	1759.21
363.14	1732.58
363.35	1736.68
363.56	1656.81
363.78	1761.25
363.99	1722.34
364.20	1693.67
364.41	1716.20
364.62	1759.21
364.83	1748.97
365.04	1722.34
365.25	1732.58
365.46	1773.54
365.67	1732.58
365.88	1636.33
366.09	1773.54
366.30	1763.30
366.51	1665.00
366.72	1669.09
366.93	1742.82
367.14	1722.34
367.35	1773.54
367.56	1628.14
367.77	1832.93
367.98	1677.29
368.18	1722.34
368.39	1681.38
368.60	1665.00
368.81	1820.64
369.02	1751.01
369.23	1650.66
369.44	1669.09
369.65	1683.43
369.86	1779.68
370.07	1751.01
370.28	1767.40
370.49	1855.46
370.70	1783.78
370.91	1703.91
371.12	1601.51
371.33	1777.64
371.54	1755.11
371.75	1804.26
371.96	1589.22
372.17	1703.91
372.38	1818.60
372.59	1734.63
372.80	1650.66
373.01	1722.34
373.22	1675.24
373.43	1738.73
373.64	1667.05
373.85	1796.07
374.06	1765.35
374.26	1738.73
374.47	1830.88
374.68	1771.49
374.89	1681.38
375.10	1712.10
375.31	1783.78
375.52	1701.86
375.73	1755.11
375.94	1675.24
376.15	1841.12
376.36	1734.63
376.57	1615.85
376.78	1603.56
376.99	1708.01
377.20	1794.02
377.40	1669.09
377.61	1859.56
377.82	1718.25
378.03	1834.98
378.24	1730.53
378.45	1705.96
378.66	1746.92
378.87	1572.84
379.08	1683.43
379.29	1693.67
379.50	1781.73
379.71	1714.15
379.91	1777.64
380.12	1673.19
380.33	1716.20
380.54	1720.29
380.75	1728.49
380.96	1763.30
381.17	1714.15
381.38	1767.40
381.59	1712.10
381.80	1771.49
382.00	1843.17
382.21	1800.16
382.42	1810.40
382.63	1865.70
382.84	1769.44
383.05	1730.53
383.26	1818.60
383.47	1683.43
383.68	1734.63
383.88	1697.77
384.09	1726.44
384.30	1845.22
384.51	1757.16
384.72	1738.73
384.93	1605.61
385.14	1681.38
385.35	1820.64
385.55	1632.23
385.76	1751.01
385.97	1669.09
386.18	1691.62
386.39	1660.90
386.60	1681.38
386.81	1775.59
387.02	1685.48
387.22	1652.71
387.43	1828.84
387.64	1830.88
387.85	1894.37
388.06	2187.23
388.27	4059.07
388.48	6598.56
388.68	8112.00
388.89	9414.51
389.10	9590.64
389.31	8429.44
389.52	7481.23
389.73	6668.19
389.93	6133.67
390.14	5828.52
390.35	5207.98
390.56	4554.68
390.77	3815.37
390.98	3018.71
391.18	2455.51
391.39	2113.50
391.60	1896.42
391.81	1830.88
392.02	1710.05
392.23	1886.18
392.43	1710.05
392.64	1822.69
392.85	1689.57
393.06	1830.88
393.27	1736.68
393.47	1658.85
393.68	1771.49
393.89	1734.63
394.10	1753.06
394.31	1626.09
394.52	1701.86
394.72	1597.42
394.93	1738.73
395.14	1705.96
395.35	1671.14
395.56	1652.71
395.76	1705.96
395.97	1755.11
396.18	1853.41
396.39	1875.94
396.60	2095.07
396.80	1980.39
397.01	1791.97
397.22	1703.91
397.43	1759.21
397.64	1798.12
397.84	1812.45
398.05	1839.08
398.26	1781.73
398.47	1740.77
398.67	1802.21
398.88	1665.00
399.09	1718.25
399.30	1832.93
399.51	1791.97
399.71	1722.34
399.92	1660.90
400.13	1748.97
400.34	1759.21
400.54	1660.90
400.75	1779.68
400.96	1710.05
401.17	1757.16
401.37	1810.40
401.58	1652.71
401.79	1656.81
402.00	1765.35
402.21	2039.78
402.41	1925.09
402.62	2054.11
402.83	2070.50
403.04	1961.95
403.24	2131.94
403.45	1863.65
403.66	1896.42
403.87	1859.56
404.07	1918.95
404.28	2007.01
404.49	1867.75
404.70	1710.05
404.90	1806.31
405.11	1736.68
405.32	1738.73
405.52	1730.53
405.73	1722.34
405.94	1669.09
406.15	1728.49
406.35	1789.92
406.56	1740.77
406.77	1753.06
406.98	1744.87
407.18	1656.81
407.39	1777.64
407.60	1730.53
407.80	1755.11
408.01	1742.82
408.22	1726.44
408.43	1728.49
408.63	1769.44
408.84	1720.29
409.05	1732.58
409.25	1703.91
409.46	1718.25
409.67	1693.67
409.88	1632.23
410.08	1781.73
410.29	1644.52
410.50	1890.28
410.70	1755.11
410.91	1705.96
411.12	1697.77
411.32	1736.68
411.53	1628.14
411.74	1785.83
411.95	1757.16
412.15	1763.30
412.36	1759.21
412.57	1814.50
412.77	1865.70
412.98	1777.64
413.19	1697.77
413.39	1736.68
413.60	1796.07
413.81	1712.10
414.01	1662.95
414.22	1779.68
414.43	1765.35
414.63	1687.53
414.84	1779.68
415.05	1732.58
415.25	1722.34
415.46	1718.25
415.67	1724.39
415.87	1748.97
416.08	1755.11
416.29	1732.58
416.49	1751.01
416.70	1722.34
416.91	1810.40
417.11	1677.29
417.32	1697.77
417.53	1785.83
417.73	1763.30
417.94	1720.29
418.15	1695.72
418.35	1720.29
418.56	1724.39
418.77	1841.12
418.97	1720.29
419.18	1689.57
419.38	1689.57
419.59	1730.53
419.80	1787.88
420.00	1652.71
420.21	1779.68
420.42	1755.11
420.62	1736.68
420.83	1617.90
421.04	1718.25
421.24	1658.85
421.45	1732.58
421.65	1734.63
421.86	1699.81
422.07	1697.77
422.27	1716.20
422.48	1775.59
422.69	1656.81
422.89	1624.04
423.10	1726.44
423.30	1726.44
423.51	1761.25
423.72	1734.63
423.92	1787.88
424.13	1646.57
424.33	1738.73
424.54	1761.25
424.75	1761.25
424.95	1769.44
425.16	1804.26
425.36	1746.92
425.57	1791.97
425.78	1783.78
425.98	1665.00
426.19	1720.29
426.39	1683.43
426.60	1759.21
426.81	1830.88
427.01	1640.42
427.22	1662.95
427.42	1652.71
427.63	1615.85
427.83	1775.59
428.04	1896.42
428.25	1837.03
428.45	1759.21
428.66	1845.22
428.86	1701.86
429.07	1642.47
429.28	1705.96
429.48	1626.09
429.69	1695.72
429.89	1689.57
430.10	1662.95
430.30	1777.64
430.51	1730.53
430.71	1703.91
430.92	1720.29
431.13	1806.31
431.33	1818.60
431.54	1679.33
431.74	1796.07
431.95	1863.65
432.15	1708.01
432.36	1714.15
432.56	1671.14
432.77	1767.40
432.98	1771.49
433.18	1748.97
433.39	1769.44
433.59	1716.20
433.80	1871.84
434.00	1851.36
434.21	1693.67
434.41	1789.92
434.62	1902.56
434.82	1691.62
435.03	1714.15
435.23	1757.16
435.44	1593.32
435.64	1683.43
435.85	1787.88
436.06	1742.82
436.26	1716.20
436.47	1693.67
436.67	1722.34
436.88	1716.20
437.08	1718.25
437.29	1710.05
437.49	1738.73
437.70	1759.21
437.90	1742.82
438.11	1847.27
438.31	1814.50
438.52	1873.89
438.72	1867.75
438.93	1884.13
439.13	1800.16
439.34	1812.45
439.54	1722.34
439.75	1839.08
439.95	1789.92
440.16	1736.68
440.36	1710.05
440.57	1769.44
440.77	1697.77
440.98	1740.77
441.18	1830.88
441.39	1673.19
441.59	1724.39
441.80	1953.76
442.00	1787.88
442.21	1716.20
442.41	1681.38
442.62	1816.55
442.82	1742.82
443.02	1693.67
443.23	1767.40
443.43	1724.39
443.64	1806.31
443.84	1785.83
444.05	1857.51
444.25	1757.16
444.46	1732.58
444.66	1720.29
444.87	1828.84
445.07	1693.67
445.28	1759.21
445.48	1859.56
445.69	1734.63
445.89	1855.46
446.09	1736.68
446.30	2101.22
446.50	2643.93
446.71	3682.25
446.91	4304.83
447.12	4771.77
447.32	4863.93
447.53	4325.31
447.73	3780.55
447.93	3465.16
448.14	3360.72
448.34	3215.31
448.55	2918.36
448.75	2729.94
448.96	2602.97
449.16	2471.90
449.36	2287.58
449.57	2031.58
449.77	1920.99
449.98	1834.98
450.18	1748.97
450.39	1908.71
450.59	1751.01
450.79	1763.30
451.00	1718.25
451.20	1771.49
451.41	1759.21
451.61	1828.84
451.81	1798.12
452.02	1775.59
452.22	1779.68
452.43	1742.82
452.63	1669.09
452.84	1757.16
453.04	1763.30
453.24	1824.74
453.45	1701.86
453.65	1740.77
453.86	1730.53
454.06	1730.53
454.26	1667.05
454.47	1730.53
454.67	1773.54
454.87	1779.68
455.08	1771.49
455.28	1925.09
455.49	1806.31
455.69	1640.42
455.89	1859.56
456.10	1765.35
456.30	1818.60
456.51	1769.44
456.71	1744.87
456.91	1779.68
457.12	1695.72
457.32	1761.25
457.52	1662.95
457.73	1808.36
457.93	1753.06
458.14	1681.38
458.34	1667.05
458.54	1775.59
458.75	1779.68
458.95	1783.78
459.15	1734.63
459.36	1802.21
459.56	1775.59
459.76	1824.74
459.97	1765.35
460.17	1671.14
460.37	1781.73
460.58	1814.50
460.78	1767.40
460.99	1744.87
461.19	1705.96
461.39	1757.16
461.60	1689.57
461.80	1781.73
462.00	1665.00
462.21	1810.40
462.41	1783.78
462.61	1689.57
462.82	1671.14
463.02	1834.98
463.22	1695.72
463.43	1765.35
463.63	1759.21
463.83	1812.45
464.04	1701.86
464.24	1671.14
464.44	1732.58
464.64	1755.11
464.85	1812.45
465.05	1828.84
465.25	1775.59
465.46	1712.10
465.66	1773.54
465.86	1798.12
466.07	1763.30
466.27	1751.01
466.47	1552.36
466.68	1673.19
466.88	1789.92
467.08	1855.46
467.29	1708.01
467.49	1839.08
467.69	1710.05
467.89	1798.12
468.10	1708.01
468.30	1681.38
468.50	1804.26
468.71	1728.49
468.91	1640.42
469.11	1783.78
469.31	1748.97
469.52	1705.96
469.72	1789.92
469.92	1830.88
470.13	1708.01
470.33	1732.58
470.53	1869.80
470.73	2099.17
470.94	2299.87
471.14	2316.25
471.34	2508.76
471.54	2521.05
471.75	2232.29
471.95	2160.61
472.15	1984.48
472.36	2086.88
472.56	2074.59
472.76	2058.21
472.96	2004.96
473.17	1982.43
473.37	1916.90
473.57	1851.36
473.77	1861.60
473.98	1806.31
474.18	1761.25
474.38	1980.39
474.58	1656.81
474.79	1726.44
474.99	1740.77
475.19	1828.84
475.39	1693.67
475.60	1796.07
475.80	1714.15
476.00	1773.54
476.20	1712.10
476.41	1734.63
476.61	1947.62
476.81	1748.97
477.01	1689.57
477.21	1855.46
477.42	1794.02
477.62	1742.82
477.82	1787.88
478.02	1755.11
478.23	1765.35
478.43	1652.71
478.63	1742.82
478.83	1728.49
479.03	1648.61
479.24	1755.11
479.44	1902.56
479.64	1695.72
479.84	1652.71
480.04	1691.62
480.25	1683.43
480.45	1693.67
480.65	1757.16
480.85	1839.08
481.06	1603.56
481.26	1705.96
481.46	1757.16
481.66	1714.15
481.86	1644.52
482.06	1798.12
482.27	1665.00
482.47	1724.39
482.67	1783.78
482.87	1656.81
483.07	1859.56
483.28	1714.15
483.48	1734.63
483.68	1685.48
483.88	1648.61
484.08	1611.75
484.29	1681.38
484.49	1679.33
484.69	1607.66
484.89	1826.79
485.09	1763.30
485.29	1765.35
485.50	1783.78
485.70	1722.34
485.90	1724.39
486.10	1722.34
486.30	1798.12
486.50	1701.86
486.71	1796.07
486.91	1701.86
487.11	1761.25
487.31	1613.80
487.51	1771.49
487.71	1693.67
487.91	1712.10
488.12	1626.09
488.32	1601.51
488.52	1744.87
488.72	1615.85
488.92	1798.12
489.12	1802.21
489.32	1832.93
489.53	1783.78
489.73	1763.30
489.93	1873.89
490.13	1675.24
490.33	1697.77
490.53	1757.16
490.73	1726.44
490.94	1722.34
491.14	1857.51
491.34	1791.97
491.54	2099.17
491.74	2609.11
491.94	2869.20
492.14	3065.81
492.34	3018.71
492.54	2791.38
492.75	2484.19
492.95	2494.43
493.15	2371.55
493.35	2195.42
493.55	2242.53
493.75	2181.09
493.95	2162.66
494.15	2054.11
494.35	1933.28
494.56	1877.99
494.76	1861.60
494.96	1849.32
495.16	1802.21
495.36	1798.12
495.56	1753.06
495.76	1748.97
495.96	1828.84
496.16	1669.09
496.36	1822.69
496.56	1632.23
496.77	1753.06
496.97	1724.39
497.17	1781.73
497.37	1646.57
497.57	1736.68
497.77	1685.48
497.97	1687.53
498.17	1738.73
498.37	1763.30
498.57	1769.44
498.77	1734.63
498.97	1740.77
499.17	1859.56
499.38	1667.05
499.58	1763.30
499.78	1832.93
499.98	1865.70
500.18	1685.48
500.38	1765.35
500.58	1906.66
500.78	2598.87
500.98	4468.67
501.18	5689.26
501.38	6832.02
501.58	7014.29
501.78	6760.34
501.98	5539.76
502.18	4960.18
502.38	4442.04
502.58	4091.84
502.78	3889.09
502.98	3610.57
503.18	3432.40
503.38	3098.58
503.59	2852.82
503.79	2666.46
503.99	2469.85
504.19	2254.81
504.39	2246.62
504.59	2140.13
504.79	2170.85
504.99	2064.35
505.19	1953.76
505.39	1857.51
505.59	1970.15
505.79	1964.00
505.99	1869.80
506.19	1816.55
506.39	1859.56
506.59	1753.06
506.79	1730.53
506.99	1806.31
507.19	1726.44
507.39	1757.16
507.59	1718.25
507.79	1691.62
507.99	1689.57
508.19	1705.96
508.39	1771.49
508.59	1736.68
508.79	1843.17
508.99	1851.36
509.19	1634.28
509.39	1781.73
509.59	1689.57
509.79	1781.73
509.99	1794.02
510.19	1822.69
510.39	1814.50
510.59	1740.77
510.79	1812.45
510.99	1669.09
511.19	1802.21
511.39	1810.40
511.59	1800.16
511.79	1832.93
511.99	1763.30
512.19	1804.26
512.38	1755.11
512.58	1718.25
512.78	1660.90
512.98	1791.97
513.18	1871.84
513.38	1603.56
513.58	1826.79
513.78	1742.82
513.98	1783.78
514.18	1744.87
514.38	1683.43
514.58	1771.49
514.78	1732.58
514.98	1628.14
515.18	1759.21
515.38	1691.62
515.58	1820.64
515.78	1785.83
515.98	1759.21
516.18	1769.44
516.38	1763.30
516.57	1720.29
516.77	1665.00
516.97	1796.07
517.17	1703.91
517.37	1624.04
517.57	1757.16
517.77	1771.49
517.97	1665.00
518.17	1822.69
518.37	1658.85
518.57	1716.20
518.77	1716.20
518.97	1785.83
519.16	1769.44
519.36	1791.97
519.56	1734.63
519.76	1734.63
519.96	1732.58
520.16	1834.98
520.36	1705.96
520.56	1851.36
520.76	1722.34
520.96	1689.57
521.16	1738.73
521.35	1832.93
521.55	1908.71
521.75	1730.53
521.95	1718.25
522.15	1681.38
522.35	1683.43
522.55	1665.00
522.75	1773.54
522.95	1685.48
523.14	1691.62
523.34	1820.64
523.54	1736.68
523.74	1759.21
523.94	1789.92
524.14	1779.68
524.34	1828.84
524.54	1791.97
524.73	1726.44
524.93	1845.22
525.13	1748.97
525.33	1720.29
525.53	1865.70
525.73	1828.84
525.93	1648.61
526.13	1703.91
526.32	1742.82
526.52	1820.64
526.72	1726.44
526.92	1763.30
527.12	1656.81
527.32	1671.14
527.52	1744.87
527.71	1718.25
527.91	1810.40
528.11	1703.91
528.31	1730.53
528.51	1767.40
528.71	1759.21
528.90	1718.25
529.10	1804.26
529.30	1791.97
529.50	1693.67
529.70	1785.83
529.90	1730.53
530.09	1783.78
530.29	1714.15
530.49	1667.05
530.69	1837.03
530.89	1787.88
531.09	1779.68
531.28	1714.15
531.48	1863.65
531.68	1763.30
531.88	1789.92
532.08	1746.92
532.28	1679.33
532.47	1802.21
532.67	1732.58
532.87	1714.15
533.07	1660.90
533.27	1779.68
533.46	1832.93
533.66	1726.44
533.86	1773.54
534.06	1820.64
534.26	1822.69
534.45	1759.21
534.65	1767.40
534.85	1744.87
535.05	1728.49
535.25	1785.83
535.44	1667.05
535.64	1769.44
535.84	1652.71
536.04	1691.62
536.24	1746.92
536.43	1681.38
536.63	1763.30
536.83	1634.28
537.03	1640.42
537.22	1685.48
537.42	1593.32
537.62	1730.53
537.82	1722.34
538.02	1769.44
538.21	1724.39
538.41	1943.52
538.61	1732.58
538.81	1703.91
539.00	1787.88
539.20	1675.24
539.40	1728.49
539.60	1710.05
539.79	1849.32
539.99	1738.73
540.19	1705.96
540.39	1705.96
540.58	1800.16
540.78	1843.17
540.98	1769.44
541.18	1806.31
541.37	1834.98
541.57	1716.20
541.77	1740.77
541.97	1677.29
542.16	1660.90
542.36	1789.92
542.56	1798.12
542.76	1841.12
542.95	1742.82
543.15	1757.16
543.35	1824.74
543.54	1736.68
543.74	1679.33
543.94	1875.94
544.14	1765.35
544.33	1744.87
544.53	1798.12
544.73	1767.40
544.93	1781.73
545.12	1681.38
545.32	1748.97
545.52	1738.73
545.71	1656.81
545.91	1689.57
546.11	1724.39
546.30	1675.24
546.50	1816.55
546.70	1824.74
546.90	1777.64
547.09	1691.62
547.29	1765.35
547.49	1812.45
547.68	1718.25
547.88	1619.94
548.08	1837.03
548.27	2211.81
548.47	1726.44
548.67	1695.72
548.87	1738.73
549.06	1718.25
549.26	1763.30
549.46	1748.97
549.65	1714.15
549.85	1832.93
550.05	1814.50
550.24	1708.01
550.44	1746.92
550.64	1738.73
550.83	1759.21
551.03	1882.08
551.23	1837.03
551.42	1783.78
551.62	1822.69
551.82	1785.83
552.01	1708.01
552.21	1828.84
552.41	1744.87
552.60	1791.97
552.80	1804.26
553.00	1738.73
553.19	1710.05
553.39	1843.17
553.59	1691.62
553.78	1718.25
553.98	1757.16
554.17	1710.05
554.37	1802.21
554.57	1794.02
554.76	1671.14
554.96	1761.25
555.16	1783.78
555.35	1697.77
555.55	1714.15
555.75	1787.88
555.94	1771.49
556.14	1644.52
556.33	1796.07
556.53	1761.25
556.73	1755.11
556.92	1806.31
557.12	1841.12
557.32	1914.85
557.51	1867.75
557.71	1796.07
557.90	1841.12
558.10	1816.55
558.30	1722.34
558.49	1695.72
558.69	1757.16
558.88	1849.32
559.08	1693.67
559.28	1730.53
559.47	1716.20
559.67	1824.74
559.86	1880.04
560.06	1718.25
560.26	1767.40
560.45	1681.38
560.65	1783.78
560.84	1773.54
561.04	1710.05
561.24	1800.16
561.43	1712.10
561.63	1808.36
561.82	1798.12
562.02	1802.21
562.22	1705.96
562.41	1660.90
562.61	1708.01
562.80	1757.16
563.00	1931.23
563.19	1716.20
563.39	1839.08
563.59	1726.44
563.78	1671.14
563.98	1658.85
564.17	1746.92
564.37	1617.90
564.56	1800.16
564.76	1654.76
564.96	1812.45
565.15	1763.30
565.35	1892.32
565.54	1662.95
565.74	1712.10
565.93	1738.73
566.13	1759.21
566.32	1810.40
566.52	1824.74
566.71	1667.05
566.91	1779.68
567.11	1789.92
567.30	1701.86
567.50	1828.84
567.69	1753.06
567.89	1712.10
568.08	1740.77
568.28	1728.49
568.47	1720.29
568.67	1767.40
568.86	1703.91
569.06	1843.17
569.25	1775.59
569.45	1720.29
569.64	1736.68
569.84	1732.58
570.04	1787.88
570.23	1621.99
570.43	1806.31
570.62	1800.16
570.82	1877.99
571.01	1728.49
571.21	1695.72
571.40	1714.15
571.60	1861.60
571.79	1673.19
571.99	1714.15
572.18	1781.73
572.38	1730.53
572.57	1769.44
572.77	1783.78
572.96	1894.37
573.16	1716.20
573.35	1765.35
573.55	1871.84
573.74	1785.83
573.94	1744.87
574.13	1787.88
574.33	1720.29
574.52	1822.69
574.71	1726.44
574.91	1763.30
575.10	1765.35
575.30	1695.72
575.49	1689.57
575.69	1697.77
575.88	1857.51
576.08	1765.35
576.27	1810.40
576.47	1781.73
576.66	1880.04
576.86	1812.45
577.05	1767.40
577.25	1779.68
577.44	1877.99
577.64	1748.97
577.83	1814.50
578.02	1683.43
578.22	1832.93
578.41	1839.08
578.61	1771.49
578.80	1712.10
579.00	1777.64
579.19	1714.15
579.39	1832.93
579.58	1753.06
579.77	1759.21
579.97	1791.97
580.16	1877.99
580.36	1859.56
580.55	1798.12
580.75	1712.10
580.94	1751.01
581.13	1791.97
581.33	1843.17
581.52	1779.68
581.72	1929.19
581.91	1906.66
582.11	1716.20
582.30	1818.60
582.49	1742.82
582.69	1828.84
582.88	1787.88
583.08	1873.89
583.27	1851.36
583.47	1705.96
583.66	1751.01
583.85	1662.95
584.05	1757.16
584.24	1816.55
584.44	1779.68
584.63	1828.84
584.82	1806.31
585.02	1832.93
585.21	1822.69
585.41	1837.03
585.60	1806.31
585.79	1884.13
585.99	1994.72
586.18	1961.95
586.37	2154.46
586.57	3430.35
586.76	9553.77
586.96	24041.11
587.15	33934.84
587.34	39738.79
587.54	41409.93
587.73	35950.04
587.93	25841.27
588.12	21085.89
588.31	17991.41
588.51	16156.43
588.70	15177.50
588.89	13936.43
589.09	12484.42
589.28	10792.80
589.47	9135.99
589.67	8036.23
589.86	6285.22
590.06	4757.43
590.25	3770.31
590.44	3194.83
590.64	2625.50
590.83	2213.85
591.02	2138.08
591.22	1910.75
591.41	1951.71
591.60	1859.56
591.80	1992.67
591.99	1787.88
592.18	1691.62
592.38	1869.80
592.57	1767.40
592.76	1771.49
592.96	1816.55
593.15	1812.45
593.34	1818.60
593.54	1806.31
593.73	1839.08
593.92	1763.30
594.12	1802.21
594.31	1755.11
594.50	1847.27
594.70	1800.16
594.89	1925.09
595.08	1650.66
595.28	1744.87
595.47	1890.28
595.66	1796.07
595.86	1693.67
596.05	1644.52
596.24	1693.67
596.43	1873.89
596.63	1851.36
596.82	1669.09
597.01	1777.64
597.21	1890.28
597.40	1810.40
597.59	1806.31
597.79	1767.40
597.98	1808.36
598.17	1765.35
598.36	1769.44
598.56	1789.92
598.75	1675.24
598.94	1783.78
599.14	1804.26
599.33	1703.91
599.52	1826.79
599.71	1722.34
599.91	1791.97
600.10	1828.84
600.29	1769.44
600.48	1828.84
600.68	1830.88
600.87	1753.06
601.06	1736.68
601.26	1771.49
601.45	1771.49
601.64	1701.86
601.83	1855.46
602.03	1765.35
602.22	1667.05
602.41	1785.83
602.60	1855.46
602.80	1839.08
602.99	1730.53
603.18	1808.36
603.37	1759.21
603.57	1751.01
603.76	1755.11
603.95	1869.80
604.14	1730.53
604.34	1744.87
604.53	1771.49
604.72	1777.64
604.91	1783.78
605.10	1785.83
605.30	1660.90
605.49	1834.98
605.68	1894.37
605.87	1734.63
606.07	1804.26
606.26	1761.25
606.45	1839.08
606.64	1738.73
606.84	1748.97
607.03	1755.11
607.22	1763.30
607.41	1718.25
607.60	1656.81
607.80	1853.41
607.99	1753.06
608.18	1738.73
608.37	1720.29
608.56	1611.75
608.76	1742.82
608.95	1841.12
609.14	1726.44
609.33	1837.03
609.52	1796.07
609.72	1728.49
609.91	1796.07
610.10	1734.63
610.29	1820.64
610.48	1726.44
610.68	1742.82
610.87	1757.16
611.06	1781.73
611.25	1689.57
611.44	1798.12
611.63	1708.01
611.83	1767.40
612.02	1658.85
612.21	1900.52
612.40	1646.57
612.59	1693.67
612.79	1697.77
612.98	1757.16
613.17	1787.88
613.36	1695.72
613.55	1771.49
613.74	1787.88
613.93	1740.77
614.13	1710.05
614.32	1814.50
614.51	1710.05
614.70	1726.44
614.89	1703.91
615.08	1753.06
615.28	2041.82
615.47	1712.10
615.66	1775.59
615.85	1736.68
616.04	1834.98
616.23	1665.00
616.42	1673.19
616.62	1839.08
616.81	1720.29
617.00	1785.83
617.19	1685.48
617.38	1759.21
617.57	1681.38
617.76	1796.07
617.95	1785.83
618.15	1705.96
618.34	1808.36
618.53	1581.03
618.72	1798.12
618.91	1843.17
619.10	1822.69
619.29	1714.15
619.48	1746.92
619.68	1644.52
619.87	1849.32
620.06	1624.04
620.25	1810.40
620.44	1697.77
620.63	1726.44
620.82	1746.92
621.01	1828.84
621.20	1781.73
621.39	1781.73
621.59	1673.19
621.78	1808.36
621.97	1718.25
622.16	1738.73
622.35	1716.20
622.54	1822.69
622.73	1802.21
622.92	1675.24
623.11	1869.80
623.30	1705.96
623.49	1753.06
623.68	1708.01
623.88	1763.30
624.07	1800.16
624.26	1759.21
624.45	1751.01
624.64	1763.30
624.83	1755.11
625.02	1703.91
625.21	1765.35
625.40	1742.82
625.59	1785.83
625.78	1736.68
625.97	1732.58
626.16	1773.54
626.35	1744.87
626.54	1748.97
626.74	1720.29
626.93	1636.33
627.12	1701.86
627.31	1798.12
627.50	1806.31
627.69	1759.21
627.88	1699.81
628.07	1695.72
628.26	1652.71
628.45	1720.29
628.64	1777.64
628.83	1726.44
629.02	1669.09
629.21	1757.16
629.40	1800.16
629.59	1697.77
629.78	1742.82
629.97	1730.53
630.16	1800.16
630.35	1716.20
630.54	1775.59
630.73	1726.44
630.92	1726.44
631.11	1789.92
631.30	1746.92
631.49	1726.44
631.68	1746.92
631.87	1769.44
632.06	1689.57
632.25	1931.23
632.44	1802.21
632.63	1783.78
632.82	1708.01
633.01	1648.61
633.20	1652.71
633.39	1624.04
633.58	1632.23
633.77	1714.15
633.96	1769.44
634.15	1798.12
634.34	1734.63
634.53	1746.92
634.72	1691.62
634.91	1644.52
635.10	1832.93
635.29	1775.59
635.48	1714.15
635.67	1654.76
635.86	1730.53
636.05	1802.21
636.24	1740.77
636.43	1677.29
636.62	1755.11
636.81	1595.37
637.00	1736.68
637.19	1726.44
637.38	1761.25
637.57	1665.00
637.76	1744.87
637.95	1742.82
638.14	1691.62
638.33	1679.33
638.52	1724.39
638.71	1742.82
638.89	1712.10
639.08	1826.79
639.27	1816.55
639.46	1751.01
639.65	1812.45
639.84	1800.16
640.03	1798.12
640.22	1791.97
640.41	1845.22
640.60	1642.47
640.79	1775.59
640.98	1693.67
641.17	1775.59
641.36	1689.57
641.55	1751.01
641.74	1662.95
641.92	1605.61
642.11	1687.53
642.30	1699.81
642.49	1667.05
642.68	1705.96
642.87	1718.25
643.06	1755.11
643.25	1699.81
643.44	1695.72
643.63	1718.25
643.82	1748.97
644.00	1628.14
644.19	1757.16
644.38	1724.39
644.57	1742.82
644.76	1746.92
644.95	1689.57
645.14	1724.39
645.33	1810.40
645.52	1701.86
645.71	1708.01
645.89	1675.24
646.08	1748.97
646.27	1728.49
646.46	1818.60
646.65	1656.81
646.84	1740.77
647.03	1671.14
647.22	1794.02
647.40	1755.11
647.59	1652.71
647.78	1583.08
647.97	1734.63
648.16	1648.61
648.35	1861.60
648.54	1832.93
648.73	1697.77
648.91	1804.26
649.10	1734.63
649.29	1632.23
649.48	1806.31
649.67	1732.58
649.86	1789.92
650.05	1671.14
650.23	1771.49
650.42	1677.29
650.61	1791.97
650.80	1751.01
650.99	1882.08
651.18	1695.72
651.36	1808.36
651.55	1789.92
651.74	1769.44
651.93	1710.05
652.12	1689.57
652.31	1689.57
652.49	1687.53
652.68	1699.81
652.87	1859.56
653.06	1720.29
653.25	1796.07
653.44	1673.19
653.62	1902.56
653.81	1748.97
654.00	1781.73
654.19	1794.02
654.38	1914.85
654.56	1736.68
654.75	1652.71
654.94	1734.63
655.13	1681.38
655.32	1767.40
655.51	1791.97
655.69	1699.81
655.88	1779.68
656.07	1654.76
656.26	1736.68
656.45	1644.52
656.63	1687.53
656.82	1761.25
657.01	1798.12
657.20	1658.85
657.38	1869.80
657.57	1683.43
657.76	1634.28
657.95	1787.88
658.14	1673.19
658.32	1681.38
658.51	1628.14
658.70	1681.38
658.89	1781.73
659.08	1710.05
659.26	1849.32
659.45	1595.37
659.64	1746.92
659.83	1697.77
660.01	1920.99
660.20	1736.68
660.39	1767.40
660.58	1638.38
660.76	1777.64
660.95	1644.52
661.14	1708.01
661.33	1615.85
661.51	1808.36
661.70	1669.09
661.89	1656.81
662.08	1679.33
662.26	1691.62
662.45	1708.01
662.64	1898.47
662.83	1789.92
663.01	1675.24
663.20	1667.05
663.39	1822.69
663.58	1755.11
663.76	1671.14
663.95	1726.44
664.14	1673.19
664.32	1660.90
664.51	1730.53
664.70	1621.99
664.89	1740.77
665.07	1669.09
665.26	1814.50
665.45	1712.10
665.64	1810.40
665.82	1730.53
666.01	1759.21
666.20	1681.38
666.38	1791.97
666.57	1837.03
666.76	2148.32
666.95	4597.69
667.13	10395.49
667.32	15050.52
667.51	17712.88
667.69	18898.66
667.88	17501.94
668.07	12175.17
668.25	9496.43
668.44	7985.03
668.63	7161.75
668.81	6662.04
669.00	6293.41
669.19	5685.16
669.38	5119.92
669.56	4546.49
669.75	4032.45
669.94	3411.92
670.12	2811.86
670.31	2557.91
670.50	2295.77
670.68	2045.92
670.87	1910.75
671.06	1802.21
671.24	1816.55
671.43	1769.44
671.62	1763.30
671.80	1636.33
671.99	1794.02
672.18	1787.88
672.36	1863.65
672.55	1740.77
672.74	1685.48
672.92	1699.81
673.11	1767.40
673.29	1757.16
673.48	1779.68
673.67	1689.57
673.85	1777.64
674.04	1685.48
674.23	1785.83
674.41	1861.60
674.60	1673.19
674.79	1685.48
674.97	1691.62
675.16	1728.49
675.34	1791.97
675.53	1679.33
675.72	1861.60
675.90	1828.84
676.09	1757.16
676.28	1767.40
676.46	1728.49
676.65	1742.82
676.83	1683.43
677.02	1722.34
677.21	1720.29
677.39	1796.07
677.58	1607.66
677.77	1728.49
677.95	1748.97
678.14	1753.06
678.32	1689.57
678.51	1685.48
678.70	1820.64
678.88	1724.39
679.07	1802.21
679.25	1705.96
679.44	1730.53
679.63	1652.71
679.81	1800.16
680.00	1841.12
680.18	1812.45
680.37	1841.12
680.55	1697.77
680.74	1632.23
680.93	1624.04
681.11	1814.50
681.30	1708.01
681.48	1730.53
681.67	1642.47
681.85	1751.01
682.04	1656.81
682.23	1773.54
682.41	1665.00
682.60	1742.82
682.78	1738.73
682.97	1683.43
683.15	1722.34
683.34	1718.25
683.53	1787.88
683.71	1677.29
683.90	1755.11
684.08	1892.32
684.27	1652.71
684.45	1740.77
684.64	1806.31
684.82	1665.00
685.01	1701.86
685.19	1775.59
685.38	1804.26
685.57	1656.81
685.75	1726.44
685.94	1701.86
686.12	1705.96
686.31	1755.11
686.49	1857.51
686.68	1644.52
686.86	1720.29
687.05	1683.43
687.23	1867.75
687.42	1697.77
687.60	1628.14
687.79	1705.96
687.97	1830.88
688.16	1740.77
688.34	1806.31
688.53	1695.72
688.71	1808.36
688.90	1798.12
689.08	1789.92
689.27	1619.94
689.45	1886.18
689.64	1816.55
689.82	1736.68
690.01	1787.88
690.19	1753.06
690.38	1710.05
690.56	1849.32
690.75	1679.33
690.93	1685.48
691.12	1660.90
691.30	1724.39
691.49	1730.53
691.67	1705.96
691.86	1796.07
692.04	1671.14
692.23	1642.47
692.41	1681.38
692.60	1822.69
692.78	1789.92
692.97	1683.43
693.15	1730.53
693.34	1802.21
693.52	1804.26
693.71	1656.81
693.89	1722.34
694.08	1638.38
694.26	1703.91
694.44	1767.40
694.63	1773.54
694.81	1646.57
695.00	1726.44
695.18	1818.60
695.37	1832.93
695.55	1656.81
695.74	1648.61
695.92	1695.72
696.10	1845.22
696.29	1656.81
696.47	1730.53
696.66	1642.47
696.84	1638.38
697.03	1716.20
697.21	1853.41
697.40	2289.63
697.58	1701.86
697.76	1681.38
697.95	1726.44
698.13	1740.77
698.32	1703.91
698.50	1751.01
698.68	1673.19
698.87	1716.20
699.05	1751.01
699.24	1693.67
699.42	1634.28
699.61	1718.25
699.79	1726.44
699.97	1699.81
700.16	1673.19
700.34	1701.86
700.53	1757.16
700.71	1837.03
700.89	1773.54
701.08	1728.49
701.26	1669.09
701.45	2080.74
701.63	1638.38
701.81	1734.63
702.00	1656.81
702.18	1722.34
702.37	1640.42
702.55	1781.73
702.73	1714.15
702.92	1595.37
703.10	1787.88
703.28	1654.76
703.47	1630.18
703.65	1734.63
703.84	1744.87
704.02	1665.00
704.20	1861.60
704.39	1685.48
704.57	1683.43
704.75	1748.97
704.94	1732.58
705.12	1800.16
705.30	1806.31
705.49	2314.20
705.67	4411.32
705.86	9299.83
706.04	12420.93
706.22	13973.29
706.41	15279.89
706.59	13383.48
706.77	9303.92
706.96	7348.11
707.14	6571.93
707.32	5896.10
707.51	5539.76
707.69	4849.59
707.87	4130.75
708.06	3432.40
708.24	3010.51
708.42	2453.47
708.61	2240.48
708.79	1896.42
708.97	1843.17
709.16	1832.93
709.34	1808.36
709.52	1781.73
709.71	1691.62
709.89	1736.68
710.07	1697.77
710.26	1714.15
710.44	1832.93
710.62	1751.01
710.80	1689.57
710.99	1877.99
711.17	1722.34
711.35	1732.58
711.54	1695.72
711.72	1728.49
711.90	1742.82
712.09	1673.19
712.27	1716.20
712.45	1660.90
712.63	1724.39
712.82	1730.53
713.00	1699.81
713.18	1718.25
713.37	1691.62
713.55	1781.73
713.73	1710.05
713.91	1841.12
714.10	1705.96
714.28	1736.68
714.46	1738.73
714.65	1791.97
714.83	1773.54
715.01	1732.58
715.19	1714.15
715.38	1779.68
715.56	1699.81
715.74	1679.33
715.92	1630.18
716.11	1828.84
716.29	1535.98
716.47	1683.43
716.65	1703.91
716.84	1613.80
717.02	1742.82
717.20	1656.81
717.38	1648.61
717.57	1789.92
717.75	1732.58
717.93	1650.66
718.11	1675.24
718.30	1677.29
718.48	1732.58
718.66	1761.25
718.84	1808.36
719.03	1748.97
719.21	1669.09
719.39	1908.71
719.57	1771.49
719.75	1742.82
719.94	1703.91
720.12	1773.54
720.30	1785.83
720.48	1781.73
720.67	1640.42
720.85	1669.09
721.03	1708.01
721.21	1681.38
721.39	1796.07
721.58	1683.43
721.76	1703.91
721.94	1718.25
722.12	1759.21
722.30	1830.88
722.49	1697.77
722.67	1697.77
722.85	1732.58
723.03	1634.28
723.21	1775.59
723.40	1677.29
723.58	1800.16
723.76	1767.40
723.94	1765.35
724.12	1712.10
724.30	1783.78
724.49	1705.96
724.67	1640.42
724.85	1806.31
725.03	1642.47
725.21	1791.97
725.40	1726.44
725.58	1669.09
725.76	1718.25
725.94	1755.11
726.12	1683.43
726.30	1769.44
726.49	1671.14
726.67	1646.57
726.85	1822.69
727.03	1800.16
727.21	2164.70
727.39	2848.72
727.57	3749.83
727.76	4208.58
727.94	4470.72
728.12	4251.58
728.30	3647.43
728.48	2979.79
728.66	2664.41
728.84	2525.15
729.03	2297.82
729.21	2121.70
729.39	2011.11
729.57	1851.36
729.75	1877.99
729.93	1810.40
730.11	1755.11
730.30	1689.57
730.48	1732.58
730.66	1779.68
730.84	1738.73
731.02	1691.62
731.20	1751.01
731.38	1734.63
731.56	1714.15
731.74	1656.81
731.93	1783.78
732.11	1716.20
732.29	1703.91
732.47	1699.81
732.65	1720.29
732.83	1820.64
733.01	1785.83
733.19	1671.14
733.37	1681.38
733.56	1726.44
733.74	1722.34
733.92	1746.92
734.10	1771.49
734.28	1691.62
734.46	1624.04
734.64	1613.80
734.82	1673.19
735.00	1712.10
735.18	1609.70
735.36	1748.97
735.54	1710.05
735.73	1787.88
735.91	1703.91
736.09	1765.35
736.27	1685.48
736.45	1779.68
736.63	1640.42
736.81	1751.01
736.99	1740.77
737.17	1839.08
737.35	1820.64
737.53	1746.92
737.71	1759.21
737.89	1759.21
738.07	1667.05
738.25	1775.59
738.43	1638.38
738.61	1648.61
738.80	1693.67
738.98	1693.67
739.16	1693.67
739.34	1679.33
739.52	1791.97
739.70	1662.95
739.88	1820.64
740.06	1814.50
740.24	1597.42
740.42	1703.91
740.60	1615.85
740.78	1675.24
740.96	1566.70
741.14	1708.01
741.32	1765.35
741.50	1548.26
741.68	1753.06
741.86	1746.92
742.04	1656.81
742.22	1615.85
742.40	1703.91
742.58	1716.20
742.76	1681.38
742.94	1740.77
743.12	1697.77
743.30	1720.29
743.48	1730.53
743.66	1654.76
743.84	1652.71
744.02	1662.95
744.20	1771.49
744.38	1626.09
744.56	1681.38
744.74	1789.92
744.92	1744.87
745.10	1800.16
745.28	1759.21
745.46	1777.64
745.64	1730.53
745.82	1712.10
746.00	1716.20
746.18	1746.92
746.36	1634.28
746.54	1777.64
746.72	1751.01
746.90	1593.32
747.08	1740.77
747.26	1691.62
747.44	1783.78
747.62	1767.40
747.80	1673.19
747.98	1765.35
748.15	1644.52
748.33	1863.65
748.51	1767.40
748.69	1746.92
748.87	1640.42
749.05	1683.43
749.23	1703.91
749.41	1716.20
749.59	1718.25
749.77	1808.36
749.95	1685.48
750.13	1712.10
750.31	1710.05
750.49	1699.81
750.67	1748.97
750.85	1859.56
751.03	1757.16
751.20	1828.84
751.38	1705.96
751.56	1695.72
751.74	1746.92
751.92	1730.53
752.10	1685.48
752.28	1767.40
752.46	1660.90
752.64	1712.10
752.82	1720.29
753.00	1816.55
753.18	1669.09
753.35	1689.57
753.53	1744.87
753.71	1705.96
753.89	1783.78
754.07	1691.62
754.25	1746.92
754.43	1722.34
754.61	1677.29
754.79	1705.96
754.97	1708.01
755.14	1765.35
755.32	1679.33
755.50	1753.06
755.68	1636.33
755.86	1679.33
756.04	1757.16
756.22	1652.71
756.40	1765.35
756.57	1849.32
756.75	1703.91
756.93	1832.93
757.11	1789.92
757.29	1673.19
757.47	1736.68
757.65	1621.99
757.82	1642.47
758.00	1632.23
758.18	1730.53
758.36	1652.71
758.54	1689.57
758.72	1619.94
758.90	1775.59
759.07	1787.88
759.25	1699.81
759.43	1687.53
759.61	1683.43
759.79	2158.56
759.97	1720.29
760.15	1658.85
760.32	1722.34
760.50	1775.59
760.68	1884.13
760.86	1732.58
761.04	1769.44
761.22	1769.44
761.39	1818.60
761.57	1759.21
761.75	1714.15
761.93	1763.30
762.11	1710.05
762.28	1640.42
762.46	1609.70
762.64	1785.83
762.82	1671.14
763.00	1677.29
763.18	1837.03
763.35	1621.99
763.53	1738.73
763.71	1736.68
763.89	1734.63
764.07	1748.97
764.24	1693.67
764.42	1808.36
764.60	1730.53
764.78	1751.01
764.96	1857.51
765.13	1794.02
765.31	1611.75
765.49	1699.81
765.67	1681.38
765.84	1658.85
766.02	1679.33
766.20	1660.90
766.38	1722.34
766.56	1710.05
766.73	1732.58
766.91	1681.38
767.09	1730.53
767.27	1783.78
767.44	1689.57
767.62	1740.77
767.80	1785.83
767.98	1603.56
768.15	1665.00
768.33	1767.40
768.51	1724.39
768.69	1796.07
768.87	1755.11
769.04	1693.67
769.22	1722.34
769.40	1769.44
769.58	1800.16
769.75	1581.03
769.93	1796.07
770.11	1722.34
770.28	1632.23
770.46	1730.53
770.64	1755.11
770.82	1712.10
770.99	1683.43
771.17	1800.16
771.35	1683.43
771.53	1638.38
771.70	1732.58
771.88	1814.50
772.06	1728.49
772.23	1611.75
772.41	1798.12
772.59	1742.82
772.77	1710.05
772.94	1724.39
773.12	1673.19
773.30	1656.81
773.47	1687.53
773.65	1714.15
773.83	1777.64
774.01	1714.15
774.18	1630.18
774.36	1691.62
774.54	1634.28
774.71	1699.81
774.89	1689.57
775.07	1755.11
775.24	1730.53
775.42	1658.85
775.60	1849.32
775.78	1632.23
775.95	1595.37
776.13	1646.57
776.31	1605.61
776.48	1759.21
776.66	1791.97
776.84	1636.33
777.01	1656.81
777.19	1681.38
777.37	1761.25
777.54	1744.87
777.72	1789.92
777.90	1712.10
778.07	1658.85
778.25	1845.22
778.43	1755.11
778.60	1669.09
778.78	1712.10
778.96	1800.16
779.13	1679.33
779.31	1728.49
779.49	1753.06
779.66	1669.09
779.84	1722.34
780.01	1732.58
780.19	1677.29
780.37	1794.02
780.54	1679.33
780.72	1718.25
780.90	1681.38
781.07	1652.71
781.25	1685.48
781.43	1759.21
781.60	1689.57
781.78	1734.63
781.95	1652.71
782.13	1710.05
782.31	1685.48
782.48	1644.52
782.66	1785.83
782.83	1796.07
783.01	1722.34
783.19	1734.63
783.36	1759.21
783.54	1695.72
783.72	1775.59
783.89	1720.29
784.07	1740.77
784.24	1642.47
784.42	1804.26
784.60	1714.15
784.77	1751.01
784.95	1632.23
785.12	1689.57
785.30	1759.21
785.47	1720.29
785.65	1675.24
785.83	1767.40
786.00	1738.73
786.18	1697.77
786.35	1538.02
786.53	1683.43
786.71	1761.25
786.88	1765.35
787.06	1687.53
787.23	1701.86
787.41	1662.95
787.58	1703.91
787.76	1621.99
787.94	1689.57
788.11	1779.68
788.29	1648.61
788.46	1644.52
788.64	1642.47
788.81	1642.47
788.99	1648.61
789.16	1626.09
789.34	1697.77
789.52	1675.24
789.69	1722.34
789.87	1609.70
790.04	1669.09
790.22	1691.62
790.39	1853.41
790.57	1656.81
790.74	1656.81
790.92	1732.58
791.09	1601.51
791.27	1695.72
791.44	1773.54
791.62	1722.34
791.79	1773.54
791.97	1714.15
792.15	1943.52
792.32	1730.53
792.50	1763.30
792.67	1845.22
792.85	1837.03
793.02	1720.29
793.20	1716.20
793.37	1679.33
793.55	1765.35
793.72	1681.38
793.90	1720.29
794.07	1697.77
794.25	1681.38
794.42	1757.16
794.60	1697.77
794.77	1730.53
794.95	1742.82
795.12	1751.01
795.30	1757.16
795.47	1681.38
795.65	1927.14
795.82	1697.77
796.00	1683.43
796.17	1675.24
796.34	1720.29
796.52	1755.11
796.69	1804.26
796.87	1755.11
797.04	1732.58
797.22	1810.40
797.39	1732.58
797.57	1796.07
797.74	1691.62
797.92	1710.05
798.09	1677.29
798.27	1763.30
798.44	1724.39
798.62	1708.01
798.79	1738.73
798.96	1806.31
799.14	1720.29
799.31	1798.12
799.49	1628.14
799.66	1708.01
799.84	1740.77
800.01	1581.03
800.19	1742.82
800.36	1591.27
800.53	1771.49
800.71	1753.06
800.88	1837.03
801.06	1675.24
801.23	1665.00
801.41	1757.16
801.58	1634.28
801.75	1718.25
801.93	1677.29
802.10	1757.16
802.28	1753.06
802.45	1621.99
802.63	1783.78
802.80	1724.39
802.97	1673.19
803.15	1697.77
803.32	1730.53
803.50	1640.42
803.67	1728.49
803.84	1667.05
804.02	1748.97
804.19	1654.76
804.37	1554.41
804.54	1673.19
804.71	1677.29
804.89	1675.24
805.06	1683.43
805.24	1630.18
805.41	1677.29
805.58	1740.77
805.76	1828.84
805.93	1703.91
806.10	1841.12
806.28	1763.30
806.45	1804.26
806.63	1710.05
806.80	1783.78
806.97	1744.87
807.15	1740.77
807.32	1712.10
807.49	1761.25
807.67	1656.81
807.84	1695.72
808.01	1597.42
808.19	1863.65
808.36	1789.92
808.54	1656.81
808.71	1652.71
808.88	1751.01
809.06	1794.02
809.23	1837.03
809.40	1665.00
809.58	1812.45
809.75	1671.14
809.92	1689.57
810.10	1859.56
810.27	1691.62
810.44	1816.55
810.62	1667.05
810.79	1683.43
810.96	1714.15
811.14	1683.43
811.31	1705.96
811.48	1705.96
811.66	1662.95
811.83	1808.36
812.00	1716.20
812.18	1675.24
812.35	1830.88
812.52	1728.49
812.69	1683.43
812.87	1736.68
813.04	1648.61
813.21	1595.37
813.39	1730.53
813.56	1640.42
813.73	1822.69
813.91	1609.70
814.08	1763.30
814.25	1701.86
814.42	1662.95
814.60	1726.44
814.77	1724.39
814.94	1740.77
815.12	1675.24
815.29	1769.44
815.46	1724.39
815.63	1732.58
815.81	1681.38
815.98	1732.58
816.15	1708.01
816.33	1671.14
816.50	1693.67
816.67	1734.63
816.84	1632.23
817.02	1607.66
817.19	1714.15
817.36	1705.96
817.53	1744.87
817.71	1632.23
817.88	1800.16
818.05	1730.53
818.22	1671.14
818.40	1820.64
818.57	1761.25
818.74	1726.44
818.91	1615.85
819.09	1757.16
819.26	1775.59
819.43	1728.49
819.60	1685.48
819.78	1779.68
819.95	1773.54
820.12	1677.29
820.29	1826.79
820.47	1773.54
820.64	1714.15
820.81	1673.19
820.98	1632.23
821.15	1675.24
821.33	1748.97
821.50	1583.08
821.67	1671.14
821.84	1697.77
822.02	1701.86
822.19	1771.49
822.36	1667.05
822.53	1689.57
822.70	1689.57
822.88	1761.25
823.05	1757.16
823.22	1695.72
823.39	1771.49
823.56	1726.44
823.74	1783.78
823.91	1630.18
824.08	1701.86
824.25	1671.14
824.42	1767.40
824.60	1609.70
824.77	1650.66
824.94	1652.71
825.11	1812.45
825.28	1685.48
825.45	1705.96
825.63	1689.57
825.80	1611.75
825.97	1759.21
826.14	1708.01
826.31	1660.90
826.48	1765.35
826.66	1669.09
826.83	1744.87
827.00	1679.33
827.17	1652.71
827.34	1757.16
827.51	1646.57
827.69	1714.15
827.86	1675.24
828.03	1665.00
828.20	1683.43
828.37	1681.38
828.54	1751.01
828.71	1742.82
828.89	1806.31
829.06	1720.29
829.23	1843.17
829.40	1597.42
829.57	1695.72
829.74	1808.36
829.91	1660.90
830.09	1695.72
830.26	1744.87
830.43	1816.55
830.60	1638.38
830.77	1718.25
830.94	1800.16
831.11	1710.05
831.28	1736.68
831.46	1742.82
831.63	1669.09
831.80	1757.16
831.97	1665.00
832.14	1669.09
832.31	1751.01
832.48	1800.16
832.65	1718.25
832.82	1644.52
832.99	1716.20
833.17	1669.09
833.34	1789.92
833.51	1791.97
833.68	1642.47
833.85	1785.83
834.02	1599.46
834.19	1640.42
834.36	1638.38
834.53	1736.68
834.70	1855.46
834.87	1808.36
835.04	1742.82
835.22	1660.90
835.39	1669.09
835.56	1619.94
835.73	1638.38
835.90	1751.01
836.07	1705.96
836.24	1810.40
836.41	1656.81
836.58	1671.14
836.75	1708.01
836.92	1734.63
837.09	1648.61
837.26	1705.96
837.43	1724.39
837.60	1728.49
837.77	1748.97
837.94	1710.05
838.12	1773.54
838.29	1738.73
838.46	1593.32
838.63	1697.77
838.80	1834.98
838.97	1720.29
839.14	1701.86
839.31	1689.57
839.48	1732.58
839.65	1742.82
839.82	1771.49
839.99	1726.44
840.16	1710.05
840.33	1710.05
840.50	1769.44
840.67	1785.83
840.84	1591.27
841.01	1730.53
841.18	1693.67
841.35	1689.57
841.52	1708.01
841.69	1808.36
841.86	1710.05
842.03	1652.71
842.20	1691.62
842.37	1722.34
842.54	1665.00
842.71	1708.01
842.88	1642.47
843.05	1796.07
843.22	1697.77
843.39	1746.92
843.56	1660.90
843.73	1697.77
843.90	1634.28
844.07	1630.18
844.24	1755.11
844.41	1757.16
844.58	1597.42
844.75	1703.91
844.92	1777.64
845.09	1705.96
845.26	1685.48
845.43	1708.01
845.60	1714.15
845.77	1742.82
845.94	1689.57
846.10	1771.49
846.27	1619.94
846.44	1613.80
846.61	1685.48
846.78	1708.01
846.95	1802.21
847.12	1667.05
847.29	1701.86
847.46	1636.33
847.63	1738.73
847.80	1697.77
847.97	1640.42
848.14	1796.07
848.31	1708.01
848.48	1626.09
848.65	1699.81
848.82	1679.33
848.98	1882.08
849.15	1732.58
849.32	1830.88
849.49	1718.25
849.66	1730.53
849.83	1765.35
850.00	1658.85
850.17	1753.06
850.34	1699.81
850.51	1613.80
850.68	1671.14
850.85	1855.46
851.01	1736.68
851.18	1681.38
851.35	1667.05
851.52	1722.34
851.69	1763.30
851.86	1673.19
852.03	1763.30
852.20	1783.78
852.37	1654.76
852.53	1581.03
852.70	1679.33
852.87	1767.40
853.04	1787.88
853.21	1720.29
853.38	1771.49
853.55	1742.82
853.72	1746.92
853.89	1728.49
854.05	1744.87
854.22	1687.53
854.39	1708.01
854.56	1781.73
854.73	1746.92
854.90	1728.49
855.07	1769.44
855.23	1697.77
855.40	1699.81
855.57	1736.68
855.74	1624.04
855.91	1851.36
856.08	1636.33
856.25	1644.52
856.41	1658.85
856.58	1716.20
856.75	1757.16
856.92	1576.94
857.09	1701.86
857.26	1640.42
857.42	1673.19
857.59	1734.63
857.76	1726.44
857.93	1746.92
858.10	1724.39
858.27	1572.84
858.43	1642.47
858.60	1650.66
858.77	1689.57
858.94	1681.38
859.11	1667.05
859.27	1656.81
859.44	1646.57
859.61	1826.79
859.78	1714.15
859.95	1697.77
860.12	1644.52
860.28	1918.95
860.45	1820.64
860.62	1689.57
860.79	1730.53
860.95	1634.28
861.12	1722.34
861.29	1648.61
861.46	1619.94
861.63	1681.38
861.79	1701.86
861.96	1671.14
862.13	1685.48
862.30	1814.50
862.47	1765.35
862.63	1726.44
862.80	1746.92
862.97	1816.55
863.14	1748.97
863.30	1716.20
863.47	1624.04
863.64	1849.32
863.81	1761.25
863.97	1845.22
864.14	1691.62
864.31	1716.20
864.48	1734.63
864.65	1722.34
864.81	1761.25
864.98	1691.62
865.15	1714.15
865.32	1779.68
865.48	1734.63
865.65	1861.60
865.82	1660.90
865.98	1726.44
866.15	1755.11
866.32	1691.62
866.49	1724.39
866.65	1767.40
866.82	1714.15
866.99	1675.24
867.16	1728.49
867.32	1681.38
867.49	1679.33
867.66	1691.62
867.83	1683.43
867.99	1636.33
868.16	1656.81
868.33	1710.05
868.49	1654.76
868.66	1669.09
868.83	1791.97
868.99	1708.01
869.16	1753.06
869.33	1755.11
869.50	1730.53
869.66	1632.23
869.83	1660.90
870.00	1642.47
870.16	1775.59
870.33	1697.77
870.50	1744.87
870.66	1728.49
870.83	1802.21
871.00	1779.68
871.17	1697.77
871.33	1726.44
871.50	1689.57
871.67	1671.14
871.83	1667.05
872.00	1800.16
872.17	1679.33
872.33	1841.12
872.50	1830.88
872.67	1648.61
872.83	1712.10
873.00	1695.72
873.17	1710.05
873.33	1818.60
873.50	1726.44
873.67	1681.38
873.83	1636.33
874.00	1726.44
874.16	1724.39
874.33	1714.15
874.50	1597.42
874.66	1722.34
874.83	1705.96
875.00	1779.68
875.16	1755.11
875.33	1740.77
875.50	1689.57
875.66	1726.44
875.83	1732.58
875.99	1720.29
876.16	1800.16
876.33	1615.85
876.49	1720.29
876.66	1777.64
876.83	1656.81
876.99	1619.94
877.16	1646.57
877.32	1681.38
877.49	1644.52
877.66	1773.54
877.82	1796.07
877.99	1736.68
878.15	1755.11
878.32	1708.01
878.49	1722.34
878.65	1691.62
878.82	1755.11
878.98	1683.43
879.15	1828.84
879.32	1785.83
879.48	1767.40
879.65	1732.58
879.81	1669.09
879.98	1640.42
880.15	1714.15
880.31	1716.20
880.48	1576.94
880.64	1759.21
880.81	1722.34
880.97	1804.26
881.14	1724.39
881.31	1714.15
881.47	1877.99
881.64	1683.43
881.80	1677.29
881.97	1740.77
882.13	1714.15
882.30	1644.52
882.47	1632.23
882.63	1699.81
882.80	1697.77
882.96	1681.38
883.13	1767.40
883.29	1669.09
883.46	1734.63
883.62	1820.64
883.79	1714.15
883.95	1765.35
884.12	1656.81
884.29	1771.49
884.45	1705.96
884.62	1800.16
884.78	1685.48
884.95	1822.69
885.11	1677.29
885.28	1771.49
885.44	1671.14
885.61	1740.77
885.77	1859.56
885.94	1773.54
886.10	1759.21
886.27	1771.49
886.43	1708.01
886.60	1751.01
886.76	1703.91
886.93	1646.57
887.09	1722.34
887.26	1642.47
887.42	1615.85
887.59	1783.78
887.75	1855.46
887.92	1775.59
888.08	1689.57
888.25	1849.32
888.41	1748.97
888.58	1718.25
888.74	1681.38
888.91	1669.09
>>>>>End Processed Spectral Data<<<<<
