SpectraSuite Data File
++++++++++++++++++++++++++++++++++++
Date: Mon Jun 06 12:18:37 CEST 2016
User: root
Dark Spectrum Present: No
Reference Spectrum Present: No
Number of Sampled Component Spectra: 1
Spectrometers: USB4C02835
Integration Time (usec): 100000 (USB4C02835)
Spectra Averaged: 1 (USB4C02835)
Boxcar Smoothing: 0 (USB4C02835)
Correct for Electrical Dark: No (USB4C02835)
Strobe/Lamp Enabled: No (USB4C02835)
Correct for Detector Non-linearity: No (USB4C02835)
Correct for Stray Light: No (USB4C02835)
Number of Pixels in Processed Spectrum: 3648
>>>>>Begin Processed Spectral Data<<<<<
177.47	1484.78
177.69	1484.78
177.91	1484.78
178.13	1497.07
178.36	1492.97
178.58	1634.28
178.80	1718.25
179.02	1626.09
179.24	1576.94
179.46	1681.38
179.68	1726.44
179.90	1658.85
180.13	1660.90
180.35	1669.09
180.57	1660.90
180.79	1740.77
181.01	1689.57
181.23	1746.92
181.45	1771.49
181.67	1753.06
181.90	1798.12
182.12	1656.81
182.34	1638.38
182.56	1695.72
182.78	1724.39
183.00	1675.24
183.22	1761.25
183.44	1621.99
183.66	1875.94
183.89	1751.01
184.11	1701.86
184.33	1742.82
184.55	1798.12
184.77	1730.53
184.99	1691.62
185.21	1644.52
185.43	1890.28
185.65	1617.90
185.87	1687.53
186.10	1783.78
186.32	1853.41
186.54	1804.26
186.76	1662.95
186.98	1802.21
187.20	1656.81
187.42	1628.14
187.64	1660.90
187.86	1775.59
188.08	1757.16
188.30	1658.85
188.52	1677.29
188.75	1746.92
188.97	1812.45
189.19	1671.14
189.41	1630.18
189.63	1720.29
189.85	1652.71
190.07	1632.23
190.29	1634.28
190.51	1689.57
190.73	1597.42
190.95	1769.44
191.17	1691.62
191.39	1562.60
191.61	1615.85
191.84	1634.28
192.06	1660.90
192.28	1693.67
192.50	1865.70
192.72	1675.24
192.94	1667.05
193.16	1769.44
193.38	1804.26
193.60	1677.29
193.82	1671.14
194.04	1759.21
194.26	1679.33
194.48	1677.29
194.70	1720.29
194.92	1624.04
195.14	1705.96
195.36	1585.13
195.58	1708.01
195.80	1695.72
196.02	1607.66
196.24	1578.98
196.46	1742.82
196.69	1697.77
196.91	1773.54
197.13	1640.42
197.35	1742.82
197.57	1802.21
197.79	1646.57
198.01	1726.44
198.23	1699.81
198.45	1712.10
198.67	1644.52
198.89	1695.72
199.11	1748.97
199.33	1652.71
199.55	1552.36
199.77	1640.42
199.99	1726.44
200.21	1753.06
200.43	1624.04
200.65	1593.32
200.87	1566.70
201.09	1685.48
201.31	1699.81
201.53	1708.01
201.75	1714.15
201.97	1630.18
202.19	1689.57
202.41	1703.91
202.63	1802.21
202.85	1689.57
203.07	1718.25
203.29	1642.47
203.51	1607.66
203.73	1624.04
203.95	1781.73
204.17	1746.92
204.39	1746.92
204.61	1738.73
204.83	1640.42
205.05	1814.50
205.27	1748.97
205.49	1808.36
205.71	1632.23
205.93	1695.72
206.15	1681.38
206.37	1656.81
206.59	1761.25
206.81	1660.90
207.03	1619.94
207.25	1675.24
207.47	1796.07
207.69	1671.14
207.91	1705.96
208.13	1712.10
208.34	1701.86
208.56	1710.05
208.78	1714.15
209.00	1708.01
209.22	1673.19
209.44	1726.44
209.66	1740.77
209.88	1708.01
210.10	1583.08
210.32	1677.29
210.54	1695.72
210.76	1695.72
210.98	1705.96
211.20	1542.12
211.42	1648.61
211.64	1804.26
211.86	1728.49
212.08	1699.81
212.30	1703.91
212.52	1642.47
212.74	1677.29
212.96	1705.96
213.17	1677.29
213.39	1738.73
213.61	1759.21
213.83	1742.82
214.05	1691.62
214.27	1755.11
214.49	1554.41
214.71	1738.73
214.93	1755.11
215.15	1527.78
215.37	1632.23
215.59	1650.66
215.81	1673.19
216.03	1748.97
216.24	1671.14
216.46	1687.53
216.68	1781.73
216.90	1665.00
217.12	1763.30
217.34	1697.77
217.56	1730.53
217.78	1730.53
218.00	1677.29
218.22	1652.71
218.44	1740.77
218.66	1714.15
218.87	1802.21
219.09	1724.39
219.31	1679.33
219.53	1716.20
219.75	1589.22
219.97	1724.39
220.19	1763.30
220.41	1693.67
220.63	1810.40
220.85	1705.96
221.06	1669.09
221.28	1773.54
221.50	1730.53
221.72	1699.81
221.94	1667.05
222.16	1751.01
222.38	1681.38
222.60	1761.25
222.82	1681.38
223.03	1802.21
223.25	1640.42
223.47	1685.48
223.69	1779.68
223.91	1671.14
224.13	1640.42
224.35	1673.19
224.57	1681.38
224.78	1757.16
225.00	1638.38
225.22	1746.92
225.44	1669.09
225.66	1699.81
225.88	1665.00
226.10	1759.21
226.32	1669.09
226.53	1736.68
226.75	1589.22
226.97	1693.67
227.19	1697.77
227.41	1636.33
227.63	1671.14
227.85	1576.94
228.06	1746.92
228.28	1710.05
228.50	1740.77
228.72	1656.81
228.94	1701.86
229.16	1554.41
229.37	1624.04
229.59	1644.52
229.81	1751.01
230.03	1630.18
230.25	1576.94
230.47	1656.81
230.69	1697.77
230.90	1757.16
231.12	1650.66
231.34	1726.44
231.56	1673.19
231.78	1660.90
232.00	1665.00
232.21	1642.47
232.43	1677.29
232.65	1615.85
232.87	1728.49
233.09	1630.18
233.30	1648.61
233.52	1732.58
233.74	1701.86
233.96	1648.61
234.18	1642.47
234.40	1669.09
234.61	1834.98
234.83	1644.52
235.05	1624.04
235.27	1857.51
235.49	1744.87
235.70	1734.63
235.92	1794.02
236.14	1691.62
236.36	1828.84
236.58	1611.75
236.79	1691.62
237.01	1689.57
237.23	1691.62
237.45	1763.30
237.67	1642.47
237.88	1705.96
238.10	1812.45
238.32	1685.48
238.54	1656.81
238.76	1708.01
238.97	1535.98
239.19	1669.09
239.41	1677.29
239.63	1753.06
239.85	1662.95
240.06	1712.10
240.28	1673.19
240.50	1712.10
240.72	1781.73
240.93	1669.09
241.15	1714.15
241.37	1644.52
241.59	1789.92
241.81	1677.29
242.02	1634.28
242.24	1683.43
242.46	1703.91
242.68	1626.09
242.89	1728.49
243.11	1759.21
243.33	1683.43
243.55	1691.62
243.76	1689.57
243.98	1648.61
244.20	1751.01
244.42	1697.77
244.64	1619.94
244.85	1619.94
245.07	1667.05
245.29	1748.97
245.51	1675.24
245.72	1730.53
245.94	1738.73
246.16	1665.00
246.38	1755.11
246.59	1644.52
246.81	1650.66
247.03	1738.73
247.24	1574.89
247.46	1628.14
247.68	1687.53
247.90	1599.46
248.11	1652.71
248.33	1841.12
248.55	1669.09
248.77	1751.01
248.98	1730.53
249.20	1722.34
249.42	1679.33
249.64	1730.53
249.85	1783.78
250.07	1753.06
250.29	1693.67
250.50	1828.84
250.72	1619.94
250.94	1689.57
251.16	1796.07
251.37	1722.34
251.59	1755.11
251.81	1802.21
252.02	1767.40
252.24	1705.96
252.46	1736.68
252.68	1658.85
252.89	1652.71
253.11	1609.70
253.33	1834.98
253.54	1689.57
253.76	1681.38
253.98	1671.14
254.20	1636.33
254.41	1613.80
254.63	1712.10
254.85	1613.80
255.06	1681.38
255.28	1718.25
255.50	1724.39
255.71	1642.47
255.93	1642.47
256.15	1701.86
256.36	1714.15
256.58	1648.61
256.80	1705.96
257.02	1662.95
257.23	1658.85
257.45	1685.48
257.67	1796.07
257.88	1587.18
258.10	1734.63
258.32	1685.48
258.53	1683.43
258.75	1837.03
258.97	1660.90
259.18	1687.53
259.40	1665.00
259.62	1798.12
259.83	1787.88
260.05	1712.10
260.27	1972.19
260.48	1734.63
260.70	1617.90
260.92	1691.62
261.13	1687.53
261.35	1693.67
261.57	1716.20
261.78	1593.32
262.00	1669.09
262.22	1783.78
262.43	1730.53
262.65	1644.52
262.86	1712.10
263.08	1804.26
263.30	1662.95
263.51	1640.42
263.73	1679.33
263.95	1882.08
264.16	1595.37
264.38	1738.73
264.60	1685.48
264.81	1716.20
265.03	1687.53
265.25	1693.67
265.46	1648.61
265.68	1699.81
265.89	1763.30
266.11	1574.89
266.33	1724.39
266.54	1718.25
266.76	1779.68
266.98	1738.73
267.19	1759.21
267.41	1742.82
267.62	1646.57
267.84	1665.00
268.06	1720.29
268.27	1773.54
268.49	1748.97
268.70	1718.25
268.92	1642.47
269.14	1619.94
269.35	1662.95
269.57	1632.23
269.79	1777.64
270.00	1640.42
270.22	1734.63
270.43	1632.23
270.65	1542.12
270.87	1691.62
271.08	1779.68
271.30	1751.01
271.51	1730.53
271.73	1695.72
271.95	1765.35
272.16	1687.53
272.38	1742.82
272.59	1613.80
272.81	1677.29
273.02	1742.82
273.24	1724.39
273.46	1826.79
273.67	1638.38
273.89	1617.90
274.10	1691.62
274.32	1710.05
274.54	1787.88
274.75	1748.97
274.97	1607.66
275.18	1765.35
275.40	1755.11
275.61	1738.73
275.83	1630.18
276.05	1607.66
276.26	1687.53
276.48	1701.86
276.69	1587.18
276.91	1648.61
277.12	1673.19
277.34	1771.49
277.55	1695.72
277.77	1685.48
277.99	1652.71
278.20	1591.27
278.42	1576.94
278.63	1656.81
278.85	1699.81
279.06	1535.98
279.28	1824.74
279.49	1718.25
279.71	1701.86
279.93	1757.16
280.14	1736.68
280.36	1605.61
280.57	1759.21
280.79	1765.35
281.00	1693.67
281.22	1634.28
281.43	1789.92
281.65	1601.51
281.86	1585.13
282.08	1722.34
282.29	1748.97
282.51	1533.93
282.73	1652.71
282.94	1634.28
283.16	1665.00
283.37	1834.98
283.59	1722.34
283.80	1644.52
284.02	1679.33
284.23	1648.61
284.45	1726.44
284.66	1628.14
284.88	1671.14
285.09	1689.57
285.31	1734.63
285.52	1693.67
285.74	1589.22
285.95	1757.16
286.17	1722.34
286.38	1757.16
286.60	1621.99
286.81	1617.90
287.03	1634.28
287.24	1615.85
287.46	1769.44
287.67	1691.62
287.89	1775.59
288.10	1689.57
288.32	1669.09
288.53	1845.22
288.75	1708.01
288.96	1753.06
289.18	1665.00
289.39	1730.53
289.61	1742.82
289.82	1822.69
290.04	1796.07
290.25	1632.23
290.47	1701.86
290.68	1675.24
290.90	1710.05
291.11	1642.47
291.33	1705.96
291.54	1681.38
291.76	1718.25
291.97	1771.49
292.18	1703.91
292.40	1644.52
292.61	1648.61
292.83	1800.16
293.04	1630.18
293.26	1730.53
293.47	1714.15
293.69	1583.08
293.90	1667.05
294.12	1759.21
294.33	1669.09
294.55	1632.23
294.76	1683.43
294.97	1705.96
295.19	1777.64
295.40	1656.81
295.62	1712.10
295.83	1734.63
296.05	1617.90
296.26	1738.73
296.48	1665.00
296.69	1712.10
296.90	1662.95
297.12	1720.29
297.33	1779.68
297.55	1648.61
297.76	1728.49
297.98	1716.20
298.19	1787.88
298.41	1703.91
298.62	1691.62
298.83	1748.97
299.05	1732.58
299.26	1634.28
299.48	1710.05
299.69	1773.54
299.90	1656.81
300.12	1640.42
300.33	1748.97
300.55	1708.01
300.76	1816.55
300.98	1603.56
301.19	1683.43
301.40	1693.67
301.62	1728.49
301.83	1767.40
302.05	1710.05
302.26	1638.38
302.47	1724.39
302.69	1562.60
302.90	1710.05
303.12	1621.99
303.33	1765.35
303.54	1796.07
303.76	1669.09
303.97	1742.82
304.19	1718.25
304.40	1695.72
304.61	1714.15
304.83	1837.03
305.04	1691.62
305.26	1658.85
305.47	1710.05
305.68	1638.38
305.90	1564.65
306.11	1724.39
306.33	1646.57
306.54	1636.33
306.75	1595.37
306.97	1654.76
307.18	1605.61
307.39	1628.14
307.61	1701.86
307.82	1738.73
308.04	1755.11
308.25	1712.10
308.46	1675.24
308.68	1662.95
308.89	1689.57
309.10	1787.88
309.32	1673.19
309.53	1660.90
309.74	1787.88
309.96	1685.48
310.17	1681.38
310.39	1710.05
310.60	1761.25
310.81	1695.72
311.03	1644.52
311.24	1677.29
311.45	1628.14
311.67	1818.60
311.88	1632.23
312.09	1658.85
312.31	1648.61
312.52	1736.68
312.73	1665.00
312.95	1591.27
313.16	1648.61
313.37	1794.02
313.59	1751.01
313.80	1748.97
314.01	1742.82
314.23	1634.28
314.44	1615.85
314.65	1613.80
314.87	1658.85
315.08	1613.80
315.29	1705.96
315.51	1525.74
315.72	1603.56
315.93	1779.68
316.15	1746.92
316.36	1628.14
316.57	1660.90
316.79	1705.96
317.00	1658.85
317.21	1665.00
317.43	1644.52
317.64	1691.62
317.85	1619.94
318.07	1638.38
318.28	1693.67
318.49	1800.16
318.70	1937.38
318.92	1785.83
319.13	1820.64
319.34	1880.04
319.56	1843.17
319.77	1777.64
319.98	1740.77
320.20	1732.58
320.41	1708.01
320.62	1736.68
320.83	1687.53
321.05	1904.61
321.26	1685.48
321.47	1654.76
321.69	1820.64
321.90	1665.00
322.11	1699.81
322.32	1656.81
322.54	1806.31
322.75	1652.71
322.96	1814.50
323.18	1642.47
323.39	1621.99
323.60	1691.62
323.81	1775.59
324.03	1601.51
324.24	1681.38
324.45	1712.10
324.66	1677.29
324.88	1748.97
325.09	1830.88
325.30	1767.40
325.52	1705.96
325.73	1671.14
325.94	1597.42
326.15	1644.52
326.37	1658.85
326.58	1771.49
326.79	1671.14
327.00	1660.90
327.22	1697.77
327.43	1654.76
327.64	1609.70
327.85	1738.73
328.07	1701.86
328.28	1751.01
328.49	1710.05
328.70	1673.19
328.92	1673.19
329.13	1636.33
329.34	1722.34
329.55	1810.40
329.76	1779.68
329.98	1630.18
330.19	1826.79
330.40	1710.05
330.61	1677.29
330.83	1683.43
331.04	1689.57
331.25	1644.52
331.46	1660.90
331.68	1599.46
331.89	1730.53
332.10	1691.62
332.31	1654.76
332.52	1662.95
332.74	1775.59
332.95	1587.18
333.16	1624.04
333.37	1738.73
333.58	1621.99
333.80	1703.91
334.01	1640.42
334.22	1683.43
334.43	1581.03
334.64	1636.33
334.86	1585.13
335.07	1646.57
335.28	1767.40
335.49	1617.90
335.70	1697.77
335.92	1812.45
336.13	1861.60
336.34	1806.31
336.55	1681.38
336.76	1720.29
336.98	1558.50
337.19	1671.14
337.40	1796.07
337.61	1826.79
337.82	1667.05
338.04	1765.35
338.25	1677.29
338.46	1742.82
338.67	1720.29
338.88	1595.37
339.09	1687.53
339.31	1650.66
339.52	1665.00
339.73	1638.38
339.94	1687.53
340.15	1818.60
340.36	1673.19
340.58	1646.57
340.79	1705.96
341.00	1660.90
341.21	1681.38
341.42	1839.08
341.63	1619.94
341.85	1712.10
342.06	1673.19
342.27	1660.90
342.48	1724.39
342.69	1595.37
342.90	1732.58
343.12	1734.63
343.33	1685.48
343.54	1759.21
343.75	1744.87
343.96	1701.86
344.17	1611.75
344.38	1738.73
344.60	1628.14
344.81	1617.90
345.02	1679.33
345.23	1665.00
345.44	1746.92
345.65	1818.60
345.86	1716.20
346.07	1689.57
346.29	1660.90
346.50	1628.14
346.71	1675.24
346.92	1787.88
347.13	1703.91
347.34	1660.90
347.55	1673.19
347.76	1759.21
347.98	1609.70
348.19	1712.10
348.40	1800.16
348.61	1650.66
348.82	1779.68
349.03	1744.87
349.24	1650.66
349.45	1806.31
349.66	1570.79
349.88	1605.61
350.09	1634.28
350.30	1722.34
350.51	1732.58
350.72	1710.05
350.93	1755.11
351.14	1687.53
351.35	1798.12
351.56	1712.10
351.77	1730.53
351.99	1644.52
352.20	1765.35
352.41	1697.77
352.62	1630.18
352.83	1673.19
353.04	1687.53
353.25	1732.58
353.46	1656.81
353.67	1701.86
353.88	1562.60
354.09	1734.63
354.30	1671.14
354.52	1701.86
354.73	1697.77
354.94	1654.76
355.15	1785.83
355.36	1818.60
355.57	1669.09
355.78	1675.24
355.99	1728.49
356.20	1597.42
356.41	1773.54
356.62	1722.34
356.83	1665.00
357.04	1761.25
357.25	1599.46
357.46	1593.32
357.68	1599.46
357.89	1665.00
358.10	1777.64
358.31	1677.29
358.52	1662.95
358.73	1568.74
358.94	1624.04
359.15	1632.23
359.36	1763.30
359.57	1681.38
359.78	1677.29
359.99	1691.62
360.20	1642.47
360.41	1665.00
360.62	1683.43
360.83	1681.38
361.04	1667.05
361.25	1687.53
361.46	1699.81
361.67	1650.66
361.88	1773.54
362.09	1771.49
362.30	1667.05
362.51	1626.09
362.72	1736.68
362.93	1781.73
363.14	1789.92
363.35	1652.71
363.56	1710.05
363.78	1728.49
363.99	1748.97
364.20	1671.14
364.41	1677.29
364.62	1802.21
364.83	1695.72
365.04	1683.43
365.25	1714.15
365.46	1796.07
365.67	1644.52
365.88	1589.22
366.09	1677.29
366.30	1665.00
366.51	1685.48
366.72	1699.81
366.93	1703.91
367.14	1710.05
367.35	1726.44
367.56	1632.23
367.77	1798.12
367.98	1652.71
368.18	1691.62
368.39	1771.49
368.60	1681.38
368.81	1740.77
369.02	1724.39
369.23	1685.48
369.44	1714.15
369.65	1683.43
369.86	1701.86
370.07	1714.15
370.28	1685.48
370.49	1722.34
370.70	1703.91
370.91	1566.70
371.12	1605.61
371.33	1718.25
371.54	1636.33
371.75	1808.36
371.96	1621.99
372.17	1693.67
372.38	1652.71
372.59	1726.44
372.80	1669.09
373.01	1724.39
373.22	1701.86
373.43	1656.81
373.64	1640.42
373.85	1705.96
374.06	1783.78
374.26	1738.73
374.47	1763.30
374.68	1755.11
374.89	1718.25
375.10	1626.09
375.31	1761.25
375.52	1787.88
375.73	1683.43
375.94	1705.96
376.15	1779.68
376.36	1662.95
376.57	1708.01
376.78	1789.92
376.99	1656.81
377.20	1783.78
377.40	1673.19
377.61	1705.96
377.82	1718.25
378.03	1751.01
378.24	1753.06
378.45	1736.68
378.66	1708.01
378.87	1652.71
379.08	1603.56
379.29	1689.57
379.50	1777.64
379.71	1693.67
379.91	1681.38
380.12	1726.44
380.33	1763.30
380.54	1710.05
380.75	1685.48
380.96	1673.19
381.17	1775.59
381.38	1685.48
381.59	1697.77
381.80	1624.04
382.00	1877.99
382.21	1734.63
382.42	1791.97
382.63	1814.50
382.84	1716.20
383.05	1726.44
383.26	1738.73
383.47	1685.48
383.68	1755.11
383.88	1755.11
384.09	1685.48
384.30	1808.36
384.51	1665.00
384.72	1687.53
384.93	1685.48
385.14	1671.14
385.35	1771.49
385.55	1669.09
385.76	1785.83
385.97	1634.28
386.18	1652.71
386.39	1734.63
386.60	1730.53
386.81	1650.66
387.02	1689.57
387.22	1740.77
387.43	1779.68
387.64	1730.53
387.85	1888.23
388.06	2258.91
388.27	4448.19
388.48	6938.52
388.68	8353.66
388.89	9756.52
389.10	10141.54
389.31	8746.87
389.52	7524.24
389.73	6748.06
389.93	6344.61
390.14	5961.64
390.35	5210.03
390.56	4421.56
390.77	3801.03
390.98	3117.01
391.18	2484.19
391.39	2199.52
391.60	1888.23
391.81	1777.64
392.02	1652.71
392.23	1824.74
392.43	1683.43
392.64	1800.16
392.85	1689.57
393.06	1759.21
393.27	1621.99
393.47	1626.09
393.68	1705.96
393.89	1695.72
394.10	1769.44
394.31	1701.86
394.52	1656.81
394.72	1679.33
394.93	1773.54
395.14	1744.87
395.35	1726.44
395.56	1679.33
395.76	1691.62
395.97	1779.68
396.18	1808.36
396.39	1851.36
396.60	1976.29
396.80	1880.04
397.01	1808.36
397.22	1820.64
397.43	1830.88
397.64	1671.14
397.84	1781.73
398.05	1816.55
398.26	1728.49
398.47	1751.01
398.67	1769.44
398.88	1728.49
399.09	1695.72
399.30	1669.09
399.51	1751.01
399.71	1621.99
399.92	1701.86
400.13	1773.54
400.34	1728.49
400.54	1617.90
400.75	1849.32
400.96	1759.21
401.17	1759.21
401.37	1728.49
401.58	1693.67
401.79	1660.90
402.00	1886.18
402.21	1984.48
402.41	1978.34
402.62	2068.45
402.83	2019.30
403.04	1996.77
403.24	2054.11
403.45	1871.84
403.66	1980.39
403.87	1859.56
404.07	1871.84
404.28	1888.23
404.49	1869.80
404.70	1744.87
404.90	1720.29
405.11	1724.39
405.32	1681.38
405.52	1714.15
405.73	1662.95
405.94	1630.18
406.15	1667.05
406.35	1656.81
406.56	1779.68
406.77	1685.48
406.98	1748.97
407.18	1599.46
407.39	1800.16
407.60	1677.29
407.80	1673.19
408.01	1703.91
408.22	1773.54
408.43	1642.47
408.63	1705.96
408.84	1738.73
409.05	1660.90
409.25	1632.23
409.46	1632.23
409.67	1628.14
409.88	1699.81
410.08	1654.76
410.29	1728.49
410.50	1800.16
410.70	1746.92
410.91	1624.04
411.12	1716.20
411.32	1691.62
411.53	1630.18
411.74	1734.63
411.95	1794.02
412.15	1714.15
412.36	1837.03
412.57	1710.05
412.77	1730.53
412.98	1755.11
413.19	1677.29
413.39	1775.59
413.60	1724.39
413.81	1804.26
414.01	1632.23
414.22	1732.58
414.43	1708.01
414.63	1712.10
414.84	1806.31
415.05	1740.77
415.25	1554.41
415.46	1759.21
415.67	1638.38
415.87	1710.05
416.08	1671.14
416.29	1677.29
416.49	1742.82
416.70	1646.57
416.91	1621.99
417.11	1705.96
417.32	1691.62
417.53	1679.33
417.73	1757.16
417.94	1677.29
418.15	1736.68
418.35	1681.38
418.56	1675.24
418.77	1826.79
418.97	1755.11
419.18	1687.53
419.38	1609.70
419.59	1656.81
419.80	1740.77
420.00	1705.96
420.21	1681.38
420.42	1697.77
420.62	1687.53
420.83	1708.01
421.04	1705.96
421.24	1652.71
421.45	1806.31
421.65	1697.77
421.86	1642.47
422.07	1718.25
422.27	1703.91
422.48	1773.54
422.69	1665.00
422.89	1728.49
423.10	1673.19
423.30	1615.85
423.51	1738.73
423.72	1736.68
423.92	1757.16
424.13	1595.37
424.33	1662.95
424.54	1720.29
424.75	1673.19
424.95	1708.01
425.16	1755.11
425.36	1714.15
425.57	1800.16
425.78	1746.92
425.98	1763.30
426.19	1701.86
426.39	1660.90
426.60	1669.09
426.81	1771.49
427.01	1703.91
427.22	1699.81
427.42	1533.93
427.63	1636.33
427.83	1761.25
428.04	1800.16
428.25	1761.25
428.45	1742.82
428.66	1816.55
428.86	1632.23
429.07	1708.01
429.28	1654.76
429.48	1732.58
429.69	1726.44
429.89	1693.67
430.10	1695.72
430.30	1716.20
430.51	1820.64
430.71	1626.09
430.92	1673.19
431.13	1746.92
431.33	1771.49
431.54	1648.61
431.74	1771.49
431.95	1806.31
432.15	1613.80
432.36	1675.24
432.56	1734.63
432.77	1853.41
432.98	1794.02
433.18	1705.96
433.39	1714.15
433.59	1712.10
433.80	1777.64
434.00	1738.73
434.21	1738.73
434.41	1611.75
434.62	1849.32
434.82	1605.61
435.03	1671.14
435.23	1769.44
435.44	1705.96
435.64	1689.57
435.85	1732.58
436.06	1757.16
436.26	1841.12
436.47	1689.57
436.67	1673.19
436.88	1685.48
437.08	1765.35
437.29	1830.88
437.49	1746.92
437.70	1710.05
437.90	1628.14
438.11	1800.16
438.31	1679.33
438.52	1877.99
438.72	1851.36
438.93	1884.13
439.13	1736.68
439.34	1794.02
439.54	1796.07
439.75	1783.78
439.95	1746.92
440.16	1751.01
440.36	1753.06
440.57	1732.58
440.77	1683.43
440.98	1710.05
441.18	1718.25
441.39	1699.81
441.59	1785.83
441.80	1861.60
442.00	1738.73
442.21	1810.40
442.41	1626.09
442.62	1714.15
442.82	1652.71
443.02	1718.25
443.23	1751.01
443.43	1738.73
443.64	1705.96
443.84	1613.80
444.05	1798.12
444.25	1701.86
444.46	1720.29
444.66	1705.96
444.87	1708.01
445.07	1591.27
445.28	1718.25
445.48	1761.25
445.69	1814.50
445.89	1802.21
446.09	1742.82
446.30	1976.29
446.50	2598.87
446.71	3755.97
446.91	4374.46
447.12	4777.91
447.32	4777.91
447.53	4403.13
447.73	3925.96
447.93	3540.94
448.14	3428.30
448.34	3215.31
448.55	2949.08
448.75	2891.73
448.96	2631.64
449.16	2361.31
449.36	2344.92
449.57	2058.21
449.77	1892.32
449.98	1734.63
450.18	1832.93
450.39	1716.20
450.59	1662.95
450.79	1726.44
451.00	1691.62
451.20	1761.25
451.41	1697.77
451.61	1806.31
451.81	1665.00
452.02	1697.77
452.22	1751.01
452.43	1710.05
452.63	1673.19
452.84	1753.06
453.04	1716.20
453.24	1814.50
453.45	1669.09
453.65	1751.01
453.86	1751.01
454.06	1732.58
454.26	1689.57
454.47	1607.66
454.67	1757.16
454.87	1746.92
455.08	1767.40
455.28	1816.55
455.49	1773.54
455.69	1617.90
455.89	1841.12
456.10	1804.26
456.30	1677.29
456.51	1734.63
456.71	1804.26
456.91	1705.96
457.12	1681.38
457.32	1716.20
457.52	1660.90
457.73	1779.68
457.93	1732.58
458.14	1714.15
458.34	1609.70
458.54	1722.34
458.75	1734.63
458.95	1740.77
459.15	1761.25
459.36	1705.96
459.56	1724.39
459.76	1865.70
459.97	1697.77
460.17	1714.15
460.37	1755.11
460.58	1714.15
460.78	1746.92
460.99	1621.99
461.19	1732.58
461.39	1644.52
461.60	1708.01
461.80	1734.63
462.00	1644.52
462.21	1722.34
462.41	1662.95
462.61	1742.82
462.82	1755.11
463.02	1773.54
463.22	1658.85
463.43	1751.01
463.63	1714.15
463.83	1849.32
464.04	1726.44
464.24	1728.49
464.44	1665.00
464.64	1736.68
464.85	1701.86
465.05	1732.58
465.25	1683.43
465.46	1740.77
465.66	1812.45
465.86	1753.06
466.07	1658.85
466.27	1751.01
466.47	1679.33
466.68	1665.00
466.88	1855.46
467.08	1669.09
467.29	1705.96
467.49	1712.10
467.69	1714.15
467.89	1679.33
468.10	1695.72
468.30	1697.77
468.50	1812.45
468.71	1677.29
468.91	1615.85
469.11	1873.89
469.31	1656.81
469.52	1677.29
469.72	1761.25
469.92	1789.92
470.13	1714.15
470.33	1769.44
470.53	1812.45
470.73	2068.45
470.94	2213.85
471.14	2353.12
471.34	2555.86
471.54	2392.03
471.75	2217.95
471.95	2111.46
472.15	2111.46
472.36	2062.30
472.56	2158.56
472.76	2009.06
472.96	2035.68
473.17	1939.43
473.37	1882.08
473.57	1818.60
473.77	1789.92
473.98	1816.55
474.18	1683.43
474.38	1855.46
474.58	1722.34
474.79	1722.34
474.99	1796.07
475.19	1802.21
475.39	1603.56
475.60	1791.97
475.80	1701.86
476.00	1632.23
476.20	1640.42
476.41	1701.86
476.61	1796.07
476.81	1740.77
477.01	1683.43
477.21	1828.84
477.42	1808.36
477.62	1638.38
477.82	1697.77
478.02	1683.43
478.23	1746.92
478.43	1630.18
478.63	1703.91
478.83	1718.25
479.03	1673.19
479.24	1744.87
479.44	1832.93
479.64	1652.71
479.84	1562.60
480.04	1679.33
480.25	1791.97
480.45	1685.48
480.65	1703.91
480.85	1822.69
481.06	1699.81
481.26	1757.16
481.46	1691.62
481.66	1673.19
481.86	1691.62
482.06	1781.73
482.27	1699.81
482.47	1671.14
482.67	1761.25
482.87	1650.66
483.07	1779.68
483.28	1679.33
483.48	1660.90
483.68	1720.29
483.88	1656.81
484.08	1578.98
484.29	1667.05
484.49	1675.24
484.69	1624.04
484.89	1794.02
485.09	1748.97
485.29	1738.73
485.50	1759.21
485.70	1642.47
485.90	1814.50
486.10	1800.16
486.30	1791.97
486.50	1759.21
486.71	1722.34
486.91	1744.87
487.11	1791.97
487.31	1624.04
487.51	1787.88
487.71	1654.76
487.91	1609.70
488.12	1665.00
488.32	1613.80
488.52	1689.57
488.72	1658.85
488.92	1681.38
489.12	1732.58
489.32	1710.05
489.53	1685.48
489.73	1591.27
489.93	1816.55
490.13	1665.00
490.33	1609.70
490.53	1742.82
490.73	1814.50
490.94	1667.05
491.14	1734.63
491.34	1808.36
491.54	2115.55
491.74	2586.58
491.94	2932.69
492.14	2967.51
492.34	2910.16
492.54	2770.90
492.75	2482.14
492.95	2478.04
493.15	2314.20
493.35	2256.86
493.55	2205.66
493.75	2142.18
493.95	2103.26
494.15	1964.00
494.35	1920.99
494.56	1859.56
494.76	1740.77
494.96	1744.87
495.16	1738.73
495.36	1728.49
495.56	1781.73
495.76	1720.29
495.96	1697.77
496.16	1691.62
496.36	1861.60
496.56	1775.59
496.77	1767.40
496.97	1738.73
497.17	1722.34
497.37	1648.61
497.57	1761.25
497.77	1751.01
497.97	1675.24
498.17	1636.33
498.37	1679.33
498.57	1724.39
498.77	1716.20
498.97	1757.16
499.17	1845.22
499.38	1689.57
499.58	1687.53
499.78	1822.69
499.98	1796.07
500.18	1673.19
500.38	1720.29
500.58	1847.27
500.78	2529.24
500.98	4712.38
501.18	5916.58
501.38	6893.46
501.58	7233.43
501.78	6776.73
501.98	5449.64
502.18	5144.50
502.38	4390.84
502.58	4071.36
502.78	3712.97
502.98	3690.44
503.18	3538.89
503.38	3274.70
503.59	2805.72
503.79	2625.50
503.99	2435.03
504.19	2197.47
504.39	2234.33
504.59	2189.28
504.79	2097.12
504.99	2054.11
505.19	1914.85
505.39	1802.21
505.59	1961.95
505.79	1906.66
505.99	1847.27
506.19	1791.97
506.39	1814.50
506.59	1757.16
506.79	1763.30
506.99	1841.12
507.19	1761.25
507.39	1771.49
507.59	1626.09
507.79	1677.29
507.99	1710.05
508.19	1732.58
508.39	1681.38
508.59	1773.54
508.79	1863.65
508.99	1779.68
509.19	1675.24
509.39	1804.26
509.59	1591.27
509.79	1677.29
509.99	1787.88
510.19	1767.40
510.39	1800.16
510.59	1794.02
510.79	1603.56
510.99	1726.44
511.19	1699.81
511.39	1849.32
511.59	1841.12
511.79	1794.02
511.99	1808.36
512.19	1839.08
512.38	1730.53
512.58	1738.73
512.78	1708.01
512.98	1865.70
513.18	1796.07
513.38	1597.42
513.58	1804.26
513.78	1773.54
513.98	1691.62
514.18	1708.01
514.38	1673.19
514.58	1642.47
514.78	1679.33
514.98	1720.29
515.18	1730.53
515.38	1658.85
515.58	1828.84
515.78	1714.15
515.98	1685.48
516.18	1710.05
516.38	1781.73
516.57	1728.49
516.77	1630.18
516.97	1771.49
517.17	1718.25
517.37	1667.05
517.57	1755.11
517.77	1779.68
517.97	1683.43
518.17	1734.63
518.37	1640.42
518.57	1716.20
518.77	1724.39
518.97	1728.49
519.16	1705.96
519.36	1777.64
519.56	1660.90
519.76	1808.36
519.96	1687.53
520.16	1898.47
520.36	1724.39
520.56	1746.92
520.76	1665.00
520.96	1642.47
521.16	1816.55
521.35	1822.69
521.55	1789.92
521.75	1730.53
521.95	1718.25
522.15	1726.44
522.35	1667.05
522.55	1714.15
522.75	1738.73
522.95	1673.19
523.14	1634.28
523.34	1662.95
523.54	1685.48
523.74	1820.64
523.94	1761.25
524.14	1578.98
524.34	1734.63
524.54	1765.35
524.73	1738.73
524.93	1691.62
525.13	1697.77
525.33	1603.56
525.53	1806.31
525.73	1783.78
525.93	1734.63
526.13	1689.57
526.32	1722.34
526.52	1871.84
526.72	1720.29
526.92	1720.29
527.12	1767.40
527.32	1665.00
527.52	1787.88
527.71	1791.97
527.91	1671.14
528.11	1769.44
528.31	1740.77
528.51	1636.33
528.71	1716.20
528.90	1738.73
529.10	1851.36
529.30	1880.04
529.50	1638.38
529.70	1736.68
529.90	1697.77
530.09	1673.19
530.29	1658.85
530.49	1710.05
530.69	1832.93
530.89	1767.40
531.09	1705.96
531.28	1683.43
531.48	1742.82
531.68	1771.49
531.88	1734.63
532.08	1804.26
532.28	1697.77
532.47	1753.06
532.67	1794.02
532.87	1732.58
533.07	1728.49
533.27	1834.98
533.46	1636.33
533.66	1769.44
533.86	1734.63
534.06	1716.20
534.26	1746.92
534.45	1718.25
534.65	1822.69
534.85	1734.63
535.05	1648.61
535.25	1804.26
535.44	1609.70
535.64	1759.21
535.84	1744.87
536.04	1667.05
536.24	1675.24
536.43	1667.05
536.63	1789.92
536.83	1761.25
537.03	1769.44
537.22	1656.81
537.42	1624.04
537.62	1701.86
537.82	1673.19
538.02	1730.53
538.21	1845.22
538.41	1906.66
538.61	1744.87
538.81	1732.58
539.00	1769.44
539.20	1662.95
539.40	1652.71
539.60	1785.83
539.79	1742.82
539.99	1761.25
540.19	1708.01
540.39	1755.11
540.58	1730.53
540.78	1724.39
540.98	1699.81
541.18	1804.26
541.37	1755.11
541.57	1751.01
541.77	1681.38
541.97	1693.67
542.16	1691.62
542.36	1703.91
542.56	1701.86
542.76	1828.84
542.95	1804.26
543.15	1832.93
543.35	1839.08
543.54	1699.81
543.74	1722.34
543.94	1781.73
544.14	1755.11
544.33	1771.49
544.53	1683.43
544.73	1636.33
544.93	1730.53
545.12	1712.10
545.32	1796.07
545.52	1738.73
545.71	1712.10
545.91	1681.38
546.11	1734.63
546.30	1662.95
546.50	1714.15
546.70	1722.34
546.90	1691.62
547.09	1609.70
547.29	1724.39
547.49	1755.11
547.68	1681.38
547.88	1740.77
548.08	1796.07
548.27	2115.55
548.47	1765.35
548.67	1673.19
548.87	1765.35
549.06	1630.18
549.26	1689.57
549.46	1773.54
549.65	1681.38
549.85	1708.01
550.05	1759.21
550.24	1587.18
550.44	1781.73
550.64	1730.53
550.83	1744.87
551.03	1822.69
551.23	1732.58
551.42	1736.68
551.62	1732.58
551.82	1708.01
552.01	1656.81
552.21	1791.97
552.41	1710.05
552.60	1802.21
552.80	1748.97
553.00	1677.29
553.19	1697.77
553.39	1806.31
553.59	1732.58
553.78	1744.87
553.98	1726.44
554.17	1601.51
554.37	1757.16
554.57	1738.73
554.76	1730.53
554.96	1675.24
555.16	1697.77
555.35	1744.87
555.55	1728.49
555.75	1697.77
555.94	1847.27
556.14	1701.86
556.33	1789.92
556.53	1726.44
556.73	1691.62
556.92	1746.92
557.12	1761.25
557.32	1822.69
557.51	1822.69
557.71	1716.20
557.90	1820.64
558.10	1771.49
558.30	1734.63
558.49	1779.68
558.69	1632.23
558.88	1673.19
559.08	1746.92
559.28	1724.39
559.47	1710.05
559.67	1753.06
559.86	1851.36
560.06	1740.77
560.26	1763.30
560.45	1724.39
560.65	1687.53
560.84	1812.45
561.04	1820.64
561.24	1730.53
561.43	1675.24
561.63	1824.74
561.82	1730.53
562.02	1800.16
562.22	1742.82
562.41	1650.66
562.61	1701.86
562.80	1718.25
563.00	1816.55
563.19	1712.10
563.39	1718.25
563.59	1746.92
563.78	1626.09
563.98	1619.94
564.17	1755.11
564.37	1630.18
564.56	1681.38
564.76	1650.66
564.96	1787.88
565.15	1781.73
565.35	1839.08
565.54	1726.44
565.74	1740.77
565.93	1759.21
566.13	1738.73
566.32	1794.02
566.52	1808.36
566.71	1763.30
566.91	1822.69
567.11	1673.19
567.30	1695.72
567.50	1748.97
567.69	1738.73
567.89	1685.48
568.08	1642.47
568.28	1761.25
568.47	1712.10
568.67	1712.10
568.86	1648.61
569.06	1845.22
569.25	1757.16
569.45	1648.61
569.64	1720.29
569.84	1722.34
570.04	1705.96
570.23	1722.34
570.43	1632.23
570.62	1779.68
570.82	1853.41
571.01	1665.00
571.21	1708.01
571.40	1621.99
571.60	1759.21
571.79	1687.53
571.99	1798.12
572.18	1734.63
572.38	1785.83
572.57	1632.23
572.77	1781.73
572.96	1869.80
573.16	1734.63
573.35	1683.43
573.55	1810.40
573.74	1777.64
573.94	1708.01
574.13	1740.77
574.33	1738.73
574.52	1800.16
574.71	1658.85
574.91	1779.68
575.10	1611.75
575.30	1693.67
575.49	1708.01
575.69	1691.62
575.88	1773.54
576.08	1695.72
576.27	1798.12
576.47	1667.05
576.66	1867.75
576.86	1775.59
577.05	1722.34
577.25	1830.88
577.44	1773.54
577.64	1679.33
577.83	1775.59
578.02	1701.86
578.22	1812.45
578.41	1826.79
578.61	1746.92
578.80	1593.32
579.00	1718.25
579.19	1722.34
579.39	1818.60
579.58	1775.59
579.77	1744.87
579.97	1851.36
580.16	1820.64
580.36	1851.36
580.55	1806.31
580.75	1759.21
580.94	1712.10
581.13	1851.36
581.33	1757.16
581.52	1722.34
581.72	1738.73
581.91	1853.41
582.11	1753.06
582.30	1767.40
582.49	1705.96
582.69	1859.56
582.88	1779.68
583.08	1716.20
583.27	1804.26
583.47	1730.53
583.66	1708.01
583.85	1658.85
584.05	1732.58
584.24	1775.59
584.44	1742.82
584.63	1824.74
584.82	1714.15
585.02	1783.78
585.21	1859.56
585.41	1826.79
585.60	1787.88
585.79	1902.56
585.99	1964.00
586.18	1783.78
586.37	2170.85
586.57	3391.44
586.76	10231.65
586.96	24692.36
587.15	35233.25
587.34	41358.73
587.54	43062.64
587.73	37598.66
587.93	26775.14
588.12	22189.74
588.31	18587.36
588.51	16666.37
588.70	15425.30
588.89	14608.16
589.09	12740.41
589.28	11059.03
589.47	9725.80
589.67	8060.80
589.86	6641.56
590.06	5085.11
590.25	3958.72
590.44	3209.17
590.64	2635.74
590.83	2193.37
591.02	2021.35
591.22	1941.47
591.41	1935.33
591.60	1765.35
591.80	1865.70
591.99	1751.01
592.18	1828.84
592.38	1791.97
592.57	1796.07
592.76	1753.06
592.96	1740.77
593.15	1783.78
593.34	1794.02
593.54	1722.34
593.73	1781.73
593.92	1775.59
594.12	1677.29
594.31	1693.67
594.50	1814.50
594.70	1820.64
594.89	1822.69
595.08	1714.15
595.28	1761.25
595.47	1898.47
595.66	1746.92
595.86	1714.15
596.05	1673.19
596.24	1693.67
596.43	1853.41
596.63	1775.59
596.82	1744.87
597.01	1722.34
597.21	1830.88
597.40	1714.15
597.59	1695.72
597.79	1763.30
597.98	1775.59
598.17	1742.82
598.36	1759.21
598.56	1837.03
598.75	1662.95
598.94	1662.95
599.14	1853.41
599.33	1751.01
599.52	1800.16
599.71	1730.53
599.91	1714.15
600.10	1791.97
600.29	1712.10
600.48	1779.68
600.68	1734.63
600.87	1722.34
601.06	1654.76
601.26	1675.24
601.45	1777.64
601.64	1687.53
601.83	1824.74
602.03	1691.62
602.22	1667.05
602.41	1824.74
602.60	1837.03
602.80	1730.53
602.99	1650.66
603.18	1677.29
603.37	1746.92
603.57	1767.40
603.76	1734.63
603.95	1820.64
604.14	1804.26
604.34	1693.67
604.53	1673.19
604.72	1742.82
604.91	1636.33
605.10	1789.92
605.30	1685.48
605.49	1912.80
605.68	1703.91
605.87	1722.34
606.07	1689.57
606.26	1748.97
606.45	1734.63
606.64	1658.85
606.84	1673.19
607.03	1755.11
607.22	1806.31
607.41	1697.77
607.60	1675.24
607.80	1804.26
607.99	1708.01
608.18	1683.43
608.37	1730.53
608.56	1699.81
608.76	1771.49
608.95	1791.97
609.14	1705.96
609.33	1783.78
609.52	1714.15
609.72	1716.20
609.91	1714.15
610.10	1636.33
610.29	1830.88
610.48	1837.03
610.68	1724.39
610.87	1703.91
611.06	1757.16
611.25	1699.81
611.44	1746.92
611.63	1665.00
611.83	1751.01
612.02	1720.29
612.21	1773.54
612.40	1662.95
612.59	1708.01
612.79	1673.19
612.98	1771.49
613.17	1861.60
613.36	1712.10
613.55	1824.74
613.74	1650.66
613.93	1697.77
614.13	1744.87
614.32	1708.01
614.51	1802.21
614.70	1636.33
614.89	1667.05
615.08	1730.53
615.28	2011.11
615.47	1683.43
615.66	1714.15
615.85	1658.85
616.04	1830.88
616.23	1683.43
616.42	1675.24
616.62	1777.64
616.81	1718.25
617.00	1738.73
617.19	1759.21
617.38	1669.09
617.57	1769.44
617.76	1716.20
617.95	1738.73
618.15	1695.72
618.34	1781.73
618.53	1591.27
618.72	1720.29
618.91	1816.55
619.10	1789.92
619.29	1777.64
619.48	1689.57
619.68	1679.33
619.87	1791.97
620.06	1624.04
620.25	1726.44
620.44	1726.44
620.63	1771.49
620.82	1683.43
621.01	1640.42
621.20	1693.67
621.39	1714.15
621.59	1687.53
621.78	1673.19
621.97	1779.68
622.16	1746.92
622.35	1791.97
622.54	1730.53
622.73	1746.92
622.92	1701.86
623.11	1814.50
623.30	1714.15
623.49	1830.88
623.68	1658.85
623.88	1751.01
624.07	1619.94
624.26	1705.96
624.45	1734.63
624.64	1689.57
624.83	1699.81
625.02	1710.05
625.21	1728.49
625.40	1652.71
625.59	1742.82
625.78	1699.81
625.97	1773.54
626.16	1796.07
626.35	1732.58
626.54	1667.05
626.74	1759.21
626.93	1611.75
627.12	1763.30
627.31	1789.92
627.50	1773.54
627.69	1753.06
627.88	1624.04
628.07	1734.63
628.26	1656.81
628.45	1683.43
628.64	1660.90
628.83	1746.92
629.02	1624.04
629.21	1751.01
629.40	1759.21
629.59	1656.81
629.78	1648.61
629.97	1638.38
630.16	1665.00
630.35	1687.53
630.54	1693.67
630.73	1697.77
630.92	1691.62
631.11	1658.85
631.30	1710.05
631.49	1796.07
631.68	1740.77
631.87	1708.01
632.06	1654.76
632.25	1861.60
632.44	1757.16
632.63	1685.48
632.82	1734.63
633.01	1669.09
633.20	1617.90
633.39	1660.90
633.58	1587.18
633.77	1671.14
633.96	1847.27
634.15	1814.50
634.34	1744.87
634.53	1730.53
634.72	1681.38
634.91	1638.38
635.10	1742.82
635.29	1751.01
635.48	1689.57
635.67	1626.09
635.86	1587.18
636.05	1771.49
636.24	1642.47
636.43	1783.78
636.62	1667.05
636.81	1554.41
637.00	1708.01
637.19	1673.19
637.38	1714.15
637.57	1705.96
637.76	1693.67
637.95	1652.71
638.14	1642.47
638.33	1693.67
638.52	1714.15
638.71	1646.57
638.89	1689.57
639.08	1808.36
639.27	1789.92
639.46	1693.67
639.65	1753.06
639.84	1734.63
640.03	1736.68
640.22	1673.19
640.41	1867.75
640.60	1628.14
640.79	1740.77
640.98	1665.00
641.17	1734.63
641.36	1730.53
641.55	1757.16
641.74	1640.42
641.92	1685.48
642.11	1591.27
642.30	1697.77
642.49	1683.43
642.68	1611.75
642.87	1798.12
643.06	1763.30
643.25	1705.96
643.44	1681.38
643.63	1751.01
643.82	1740.77
644.00	1624.04
644.19	1726.44
644.38	1675.24
644.57	1708.01
644.76	1671.14
644.95	1722.34
645.14	1701.86
645.33	1685.48
645.52	1755.11
645.71	1607.66
645.89	1677.29
646.08	1726.44
646.27	1804.26
646.46	1771.49
646.65	1628.14
646.84	1734.63
647.03	1615.85
647.22	1722.34
647.40	1751.01
647.59	1671.14
647.78	1640.42
647.97	1630.18
648.16	1775.59
648.35	1804.26
648.54	1712.10
648.73	1681.38
648.91	1826.79
649.10	1656.81
649.29	1642.47
649.48	1675.24
649.67	1728.49
649.86	1679.33
650.05	1652.71
650.23	1738.73
650.42	1615.85
650.61	1763.30
650.80	1748.97
650.99	1839.08
651.18	1753.06
651.36	1753.06
651.55	1791.97
651.74	1763.30
651.93	1679.33
652.12	1673.19
652.31	1726.44
652.49	1697.77
652.68	1697.77
652.87	1781.73
653.06	1701.86
653.25	1748.97
653.44	1669.09
653.62	1773.54
653.81	1701.86
654.00	1677.29
654.19	1722.34
654.38	1894.37
654.56	1789.92
654.75	1611.75
654.94	1769.44
655.13	1730.53
655.32	1710.05
655.51	1742.82
655.69	1654.76
655.88	1759.21
656.07	1671.14
656.26	1763.30
656.45	1710.05
656.63	1734.63
656.82	1789.92
657.01	1753.06
657.20	1691.62
657.38	1779.68
657.57	1669.09
657.76	1628.14
657.95	1697.77
658.14	1660.90
658.32	1712.10
658.51	1615.85
658.70	1701.86
658.89	1703.91
659.08	1726.44
659.26	1806.31
659.45	1589.22
659.64	1742.82
659.83	1679.33
660.01	1880.04
660.20	1671.14
660.39	1867.75
660.58	1589.22
660.76	1773.54
660.95	1642.47
661.14	1732.58
661.33	1607.66
661.51	1773.54
661.70	1648.61
661.89	1685.48
662.08	1656.81
662.26	1617.90
662.45	1697.77
662.64	1820.64
662.83	1716.20
663.01	1638.38
663.20	1753.06
663.39	1767.40
663.58	1662.95
663.76	1642.47
663.95	1716.20
664.14	1667.05
664.32	1687.53
664.51	1687.53
664.70	1626.09
664.89	1779.68
665.07	1671.14
665.26	1712.10
665.45	1640.42
665.64	1746.92
665.82	1732.58
666.01	1755.11
666.20	1708.01
666.38	1742.82
666.57	1769.44
666.76	2162.66
666.95	4521.92
667.13	10702.68
667.32	15568.66
667.51	18296.55
667.69	19519.19
667.88	18020.08
668.07	12529.47
668.25	9662.32
668.44	8140.68
668.63	7364.50
668.81	6842.26
669.00	6352.80
669.19	5558.19
669.38	5187.50
669.56	4640.70
669.75	4009.92
669.94	3549.13
670.12	2914.26
670.31	2609.11
670.50	2336.73
670.68	2037.73
670.87	1896.42
671.06	1808.36
671.24	1845.22
671.43	1820.64
671.62	1779.68
671.80	1738.73
671.99	1757.16
672.18	1736.68
672.36	1740.77
672.55	1796.07
672.74	1699.81
672.92	1736.68
673.11	1800.16
673.29	1578.98
673.48	1869.80
673.67	1712.10
673.85	1779.68
674.04	1669.09
674.23	1767.40
674.41	1871.84
674.60	1724.39
674.79	1621.99
674.97	1656.81
675.16	1751.01
675.34	1738.73
675.53	1671.14
675.72	1767.40
675.90	1779.68
676.09	1730.53
676.28	1691.62
676.46	1646.57
676.65	1599.46
676.83	1626.09
677.02	1687.53
677.21	1687.53
677.39	1654.76
677.58	1550.31
677.77	1736.68
677.95	1660.90
678.14	1720.29
678.32	1718.25
678.51	1693.67
678.70	1882.08
678.88	1748.97
679.07	1775.59
679.25	1718.25
679.44	1652.71
679.63	1687.53
679.81	1632.23
680.00	1730.53
680.18	1677.29
680.37	1769.44
680.55	1689.57
680.74	1650.66
680.93	1626.09
681.11	1767.40
681.30	1708.01
681.48	1687.53
681.67	1615.85
681.85	1658.85
682.04	1673.19
682.23	1730.53
682.41	1630.18
682.60	1740.77
682.78	1681.38
682.97	1632.23
683.15	1759.21
683.34	1697.77
683.53	1775.59
683.71	1634.28
683.90	1697.77
684.08	1783.78
684.27	1697.77
684.45	1654.76
684.64	1746.92
684.82	1738.73
685.01	1689.57
685.19	1634.28
685.38	1822.69
685.57	1730.53
685.75	1675.24
685.94	1705.96
686.12	1652.71
686.31	1677.29
686.49	1751.01
686.68	1656.81
686.86	1716.20
687.05	1644.52
687.23	1789.92
687.42	1669.09
687.60	1667.05
687.79	1705.96
687.97	1699.81
688.16	1800.16
688.34	1777.64
688.53	1599.46
688.71	1710.05
688.90	1810.40
689.08	1720.29
689.27	1642.47
689.45	1722.34
689.64	1701.86
689.82	1751.01
690.01	1677.29
690.19	1685.48
690.38	1593.32
690.56	1736.68
690.75	1677.29
690.93	1685.48
691.12	1660.90
691.30	1662.95
691.49	1701.86
691.67	1695.72
691.86	1740.77
692.04	1587.18
692.23	1624.04
692.41	1638.38
692.60	1886.18
692.78	1763.30
692.97	1761.25
693.15	1669.09
693.34	1804.26
693.52	1765.35
693.71	1595.37
693.89	1583.08
694.08	1632.23
694.26	1689.57
694.44	1712.10
694.63	1734.63
694.81	1656.81
695.00	1703.91
695.18	1751.01
695.37	1746.92
695.55	1705.96
695.74	1658.85
695.92	1683.43
696.10	1675.24
696.29	1701.86
696.47	1660.90
696.66	1714.15
696.84	1689.57
697.03	1705.96
697.21	1746.92
697.40	2330.59
697.58	1773.54
697.76	1718.25
697.95	1685.48
698.13	1677.29
698.32	1718.25
698.50	1673.19
698.68	1775.59
698.87	1726.44
699.05	1812.45
699.24	1724.39
699.42	1621.99
699.61	1722.34
699.79	1746.92
699.97	1656.81
700.16	1609.70
700.34	1574.89
700.53	1632.23
700.71	1775.59
700.89	1751.01
701.08	1714.15
701.26	1720.29
701.45	2109.41
701.63	1681.38
701.81	1695.72
702.00	1642.47
702.18	1667.05
702.37	1615.85
702.55	1759.21
702.73	1677.29
702.92	1630.18
703.10	1697.77
703.28	1763.30
703.47	1607.66
703.65	1703.91
703.84	1822.69
704.02	1697.77
704.20	1744.87
704.39	1660.90
704.57	1701.86
704.75	1771.49
704.94	1751.01
705.12	1671.14
705.30	1773.54
705.49	2308.06
705.67	4413.37
705.86	9588.59
706.04	12783.42
706.22	14812.96
706.41	15697.68
706.59	14384.93
706.77	9838.44
706.96	7532.43
707.14	6748.06
707.32	5986.21
707.51	5681.07
707.69	4982.71
707.87	4280.25
708.06	3602.38
708.24	2973.65
708.42	2412.51
708.61	2258.91
708.79	1859.56
708.97	1927.14
709.16	1877.99
709.34	1804.26
709.52	1697.77
709.71	1722.34
709.89	1783.78
710.07	1687.53
710.26	1628.14
710.44	1742.82
710.62	1746.92
710.80	1722.34
710.99	1654.76
711.17	1824.74
711.35	1708.01
711.54	1673.19
711.72	1726.44
711.90	1800.16
712.09	1742.82
712.27	1712.10
712.45	1699.81
712.63	1632.23
712.82	1671.14
713.00	1679.33
713.18	1691.62
713.37	1691.62
713.55	1693.67
713.73	1714.15
713.91	1675.24
714.10	1742.82
714.28	1730.53
714.46	1716.20
714.65	1763.30
714.83	1689.57
715.01	1648.61
715.19	1705.96
715.38	1669.09
715.56	1716.20
715.74	1714.15
715.92	1624.04
716.11	1710.05
716.29	1632.23
716.47	1781.73
716.65	1730.53
716.84	1673.19
717.02	1699.81
717.20	1587.18
717.38	1689.57
717.57	1828.84
717.75	1740.77
717.93	1677.29
718.11	1785.83
718.30	1691.62
718.48	1699.81
718.66	1753.06
718.84	1816.55
719.03	1691.62
719.21	1630.18
719.39	1808.36
719.57	1714.15
719.75	1779.68
719.94	1673.19
720.12	1658.85
720.30	1691.62
720.48	1775.59
720.67	1636.33
720.85	1638.38
721.03	1671.14
721.21	1628.14
721.39	1712.10
721.58	1736.68
721.76	1683.43
721.94	1689.57
722.12	1679.33
722.30	1847.27
722.49	1675.24
722.67	1699.81
722.85	1708.01
723.03	1617.90
723.21	1673.19
723.40	1673.19
723.58	1718.25
723.76	1732.58
723.94	1779.68
724.12	1738.73
724.30	1724.39
724.49	1718.25
724.67	1744.87
724.85	1757.16
725.03	1568.74
725.21	1718.25
725.40	1738.73
725.58	1662.95
725.76	1677.29
725.94	1669.09
726.12	1689.57
726.30	1660.90
726.49	1652.71
726.67	1626.09
726.85	1759.21
727.03	1755.11
727.21	2136.03
727.39	3045.33
727.57	3823.56
727.76	4237.25
727.94	4577.21
728.12	4474.81
728.30	3600.33
728.48	2947.03
728.66	2805.72
728.84	2568.15
729.03	2328.54
729.21	2203.61
729.39	2111.46
729.57	1871.84
729.75	1761.25
729.93	1806.31
730.11	1691.62
730.30	1701.86
730.48	1673.19
730.66	1832.93
730.84	1777.64
731.02	1648.61
731.20	1734.63
731.38	1783.78
731.56	1650.66
731.74	1744.87
731.93	1755.11
732.11	1710.05
732.29	1656.81
732.47	1763.30
732.65	1726.44
732.83	1730.53
733.01	1744.87
733.19	1644.52
733.37	1730.53
733.56	1742.82
733.74	1587.18
733.92	1847.27
734.10	1710.05
734.28	1753.06
734.46	1583.08
734.64	1656.81
734.82	1648.61
735.00	1691.62
735.18	1751.01
735.36	1734.63
735.54	1679.33
735.73	1724.39
735.91	1699.81
736.09	1730.53
736.27	1630.18
736.45	1789.92
736.63	1564.65
736.81	1660.90
736.99	1705.96
737.17	1800.16
737.35	1687.53
737.53	1693.67
737.71	1681.38
737.89	1765.35
738.07	1591.27
738.25	1675.24
738.43	1574.89
738.61	1697.77
738.80	1611.75
738.98	1685.48
739.16	1669.09
739.34	1652.71
739.52	1720.29
739.70	1708.01
739.88	1699.81
740.06	1755.11
740.24	1611.75
740.42	1691.62
740.60	1564.65
740.78	1658.85
740.96	1667.05
741.14	1617.90
741.32	1712.10
741.50	1658.85
741.68	1857.51
741.86	1791.97
742.04	1746.92
742.22	1673.19
742.40	1685.48
742.58	1685.48
742.76	1568.74
742.94	1845.22
743.12	1687.53
743.30	1648.61
743.48	1728.49
743.66	1685.48
743.84	1675.24
744.02	1650.66
744.20	1636.33
744.38	1574.89
744.56	1675.24
744.74	1722.34
744.92	1777.64
745.10	1703.91
745.28	1765.35
745.46	1810.40
745.64	1636.33
745.82	1769.44
746.00	1765.35
746.18	1736.68
746.36	1599.46
746.54	1705.96
746.72	1640.42
746.90	1656.81
747.08	1748.97
747.26	1691.62
747.44	1751.01
747.62	1660.90
747.80	1771.49
747.98	1714.15
748.15	1628.14
748.33	1636.33
748.51	1695.72
748.69	1781.73
748.87	1560.55
749.05	1652.71
749.23	1691.62
749.41	1667.05
749.59	1710.05
749.77	1740.77
749.95	1650.66
750.13	1628.14
750.31	1681.38
750.49	1673.19
750.67	1765.35
750.85	1744.87
751.03	1728.49
751.20	1806.31
751.38	1744.87
751.56	1695.72
751.74	1722.34
751.92	1681.38
752.10	1626.09
752.28	1734.63
752.46	1701.86
752.64	1619.94
752.82	1710.05
753.00	1822.69
753.18	1693.67
753.35	1726.44
753.53	1644.52
753.71	1705.96
753.89	1716.20
754.07	1728.49
754.25	1679.33
754.43	1693.67
754.61	1669.09
754.79	1671.14
754.97	1656.81
755.14	1742.82
755.32	1626.09
755.50	1753.06
755.68	1742.82
755.86	1636.33
756.04	1665.00
756.22	1583.08
756.40	1656.81
756.57	1783.78
756.75	1646.57
756.93	1787.88
757.11	1656.81
757.29	1654.76
757.47	1665.00
757.65	1671.14
757.82	1650.66
758.00	1718.25
758.18	1681.38
758.36	1673.19
758.54	1828.84
758.72	1619.94
758.90	1746.92
759.07	1710.05
759.25	1648.61
759.43	1746.92
759.61	1621.99
759.79	2119.65
759.97	1796.07
760.15	1669.09
760.32	1628.14
760.50	1691.62
760.68	1820.64
760.86	1609.70
761.04	1773.54
761.22	1832.93
761.39	1681.38
761.57	1675.24
761.75	1679.33
761.93	1701.86
762.11	1640.42
762.28	1687.53
762.46	1656.81
762.64	1693.67
762.82	1621.99
763.00	1683.43
763.18	1746.92
763.35	1648.61
763.53	1658.85
763.71	1675.24
763.89	1718.25
764.07	1697.77
764.24	1697.77
764.42	1751.01
764.60	1642.47
764.78	1712.10
764.96	1730.53
765.13	1800.16
765.31	1671.14
765.49	1714.15
765.67	1621.99
765.84	1609.70
766.02	1667.05
766.20	1669.09
766.38	1687.53
766.56	1732.58
766.73	1738.73
766.91	1783.78
767.09	1779.68
767.27	1714.15
767.44	1599.46
767.62	1693.67
767.80	1705.96
767.98	1679.33
768.15	1710.05
768.33	1714.15
768.51	1748.97
768.69	1693.67
768.87	1699.81
769.04	1687.53
769.22	1781.73
769.40	1834.98
769.58	1828.84
769.75	1714.15
769.93	1708.01
770.11	1630.18
770.28	1619.94
770.46	1720.29
770.64	1730.53
770.82	1689.57
770.99	1679.33
771.17	1708.01
771.35	1730.53
771.53	1642.47
771.70	1785.83
771.88	1728.49
772.06	1703.91
772.23	1634.28
772.41	1732.58
772.59	1662.95
772.77	1585.13
772.94	1679.33
773.12	1800.16
773.30	1693.67
773.47	1740.77
773.65	1640.42
773.83	1808.36
774.01	1665.00
774.18	1609.70
774.36	1701.86
774.54	1624.04
774.71	1679.33
774.89	1562.60
775.07	1601.51
775.24	1609.70
775.42	1603.56
775.60	1720.29
775.78	1669.09
775.95	1607.66
776.13	1634.28
776.31	1624.04
776.48	1726.44
776.66	1732.58
776.84	1656.81
777.01	1697.77
777.19	1585.13
777.37	1607.66
777.54	1740.77
777.72	1765.35
777.90	1677.29
778.07	1646.57
778.25	1837.03
778.43	1730.53
778.60	1673.19
778.78	1822.69
778.96	1820.64
779.13	1644.52
779.31	1751.01
779.49	1748.97
779.66	1716.20
779.84	1667.05
780.01	1693.67
780.19	1658.85
780.37	1720.29
780.54	1689.57
780.72	1585.13
780.90	1607.66
781.07	1699.81
781.25	1665.00
781.43	1718.25
781.60	1701.86
781.78	1789.92
781.95	1681.38
782.13	1599.46
782.31	1708.01
782.48	1566.70
782.66	1665.00
782.83	1828.84
783.01	1640.42
783.19	1736.68
783.36	1617.90
783.54	1619.94
783.72	1744.87
783.89	1660.90
784.07	1722.34
784.24	1685.48
784.42	1779.68
784.60	1705.96
784.77	1714.15
784.95	1607.66
785.12	1660.90
785.30	1705.96
785.47	1640.42
785.65	1642.47
785.83	1669.09
786.00	1757.16
786.18	1705.96
786.35	1646.57
786.53	1665.00
786.71	1714.15
786.88	1734.63
787.06	1718.25
787.23	1716.20
787.41	1624.04
787.58	1710.05
787.76	1665.00
787.94	1679.33
788.11	1675.24
788.29	1728.49
788.46	1683.43
788.64	1634.28
788.81	1789.92
788.99	1617.90
789.16	1714.15
789.34	1626.09
789.52	1644.52
789.69	1652.71
789.87	1660.90
790.04	1705.96
790.22	1669.09
790.39	1816.55
790.57	1669.09
790.74	1624.04
790.92	1751.01
791.09	1591.27
791.27	1693.67
791.44	1755.11
791.62	1578.98
791.79	1697.77
791.97	1691.62
792.15	1853.41
792.32	1705.96
792.50	1763.30
792.67	1740.77
792.85	1785.83
793.02	1697.77
793.20	1669.09
793.37	1628.14
793.55	1669.09
793.72	1599.46
793.90	1763.30
794.07	1640.42
794.25	1689.57
794.42	1681.38
794.60	1673.19
794.77	1675.24
794.95	1718.25
795.12	1796.07
795.30	1738.73
795.47	1597.42
795.65	1918.95
795.82	1759.21
796.00	1703.91
796.17	1673.19
796.34	1634.28
796.52	1685.48
796.69	1724.39
796.87	1705.96
797.04	1695.72
797.22	1738.73
797.39	1650.66
797.57	1765.35
797.74	1669.09
797.92	1683.43
798.09	1656.81
798.27	1753.06
798.44	1660.90
798.62	1615.85
798.79	1685.48
798.96	1693.67
799.14	1667.05
799.31	1857.51
799.49	1665.00
799.66	1644.52
799.84	1710.05
800.01	1593.32
800.19	1632.23
800.36	1570.79
800.53	1644.52
800.71	1695.72
800.88	1738.73
801.06	1652.71
801.23	1603.56
801.41	1722.34
801.58	1609.70
801.75	1751.01
801.93	1718.25
802.10	1683.43
802.28	1669.09
802.45	1710.05
802.63	1632.23
802.80	1779.68
802.97	1669.09
803.15	1656.81
803.32	1681.38
803.50	1636.33
803.67	1628.14
803.84	1525.74
804.02	1679.33
804.19	1632.23
804.37	1667.05
804.54	1621.99
804.71	1726.44
804.89	1708.01
805.06	1656.81
805.24	1601.51
805.41	1658.85
805.58	1662.95
805.76	1810.40
805.93	1736.68
806.10	1806.31
806.28	1800.16
806.45	1730.53
806.63	1773.54
806.80	1701.86
806.97	1761.25
807.15	1757.16
807.32	1621.99
807.49	1683.43
807.67	1578.98
807.84	1697.77
808.01	1550.31
808.19	1912.80
808.36	1796.07
808.54	1703.91
808.71	1640.42
808.88	1738.73
809.06	1763.30
809.23	1798.12
809.40	1679.33
809.58	1812.45
809.75	1642.47
809.92	1621.99
810.10	1828.84
810.27	1714.15
810.44	1763.30
810.62	1714.15
810.79	1794.02
810.96	1656.81
811.14	1683.43
811.31	1689.57
811.48	1716.20
811.66	1712.10
811.83	1712.10
812.00	1640.42
812.18	1753.06
812.35	1845.22
812.52	1621.99
812.69	1624.04
812.87	1701.86
813.04	1591.27
813.21	1648.61
813.39	1660.90
813.56	1638.38
813.73	1673.19
813.91	1568.74
814.08	1626.09
814.25	1675.24
814.42	1632.23
814.60	1662.95
814.77	1656.81
814.94	1636.33
815.12	1693.67
815.29	1753.06
815.46	1675.24
815.63	1697.77
815.81	1658.85
815.98	1632.23
816.15	1740.77
816.33	1765.35
816.50	1703.91
816.67	1726.44
816.84	1656.81
817.02	1554.41
817.19	1656.81
817.36	1689.57
817.53	1677.29
817.71	1628.14
817.88	1734.63
818.05	1714.15
818.22	1679.33
818.40	1759.21
818.57	1634.28
818.74	1685.48
818.91	1681.38
819.09	1660.90
819.26	1755.11
819.43	1658.85
819.60	1667.05
819.78	1693.67
819.95	1685.48
820.12	1669.09
820.29	1751.01
820.47	1714.15
820.64	1667.05
820.81	1609.70
820.98	1632.23
821.15	1697.77
821.33	1736.68
821.50	1603.56
821.67	1746.92
821.84	1611.75
822.02	1693.67
822.19	1767.40
822.36	1613.80
822.53	1660.90
822.70	1591.27
822.88	1644.52
823.05	1736.68
823.22	1718.25
823.39	1757.16
823.56	1701.86
823.74	1859.56
823.91	1673.19
824.08	1611.75
824.25	1624.04
824.42	1726.44
824.60	1660.90
824.77	1751.01
824.94	1640.42
825.11	1677.29
825.28	1599.46
825.45	1693.67
825.63	1687.53
825.80	1671.14
825.97	1681.38
826.14	1667.05
826.31	1636.33
826.48	1728.49
826.66	1624.04
826.83	1665.00
827.00	1744.87
827.17	1673.19
827.34	1691.62
827.51	1685.48
827.69	1716.20
827.86	1601.51
828.03	1693.67
828.20	1722.34
828.37	1591.27
828.54	1689.57
828.71	1636.33
828.89	1779.68
829.06	1751.01
829.23	1806.31
829.40	1628.14
829.57	1720.29
829.74	1759.21
829.91	1660.90
830.09	1685.48
830.26	1656.81
830.43	1761.25
830.60	1693.67
830.77	1738.73
830.94	1693.67
831.11	1712.10
831.28	1730.53
831.46	1665.00
831.63	1681.38
831.80	1634.28
831.97	1660.90
832.14	1609.70
832.31	1826.79
832.48	1726.44
832.65	1763.30
832.82	1667.05
832.99	1691.62
833.17	1669.09
833.34	1765.35
833.51	1730.53
833.68	1638.38
833.85	1761.25
834.02	1650.66
834.19	1613.80
834.36	1683.43
834.53	1703.91
834.70	1773.54
834.87	1755.11
835.04	1675.24
835.22	1609.70
835.39	1687.53
835.56	1587.18
835.73	1658.85
835.90	1712.10
836.07	1619.94
836.24	1695.72
836.41	1503.21
836.58	1675.24
836.75	1796.07
836.92	1740.77
837.09	1632.23
837.26	1701.86
837.43	1599.46
837.60	1689.57
837.77	1720.29
837.94	1708.01
838.12	1794.02
838.29	1667.05
838.46	1673.19
838.63	1667.05
838.80	1658.85
838.97	1742.82
839.14	1679.33
839.31	1683.43
839.48	1718.25
839.65	1648.61
839.82	1701.86
839.99	1689.57
840.16	1669.09
840.33	1644.52
840.50	1693.67
840.67	1728.49
840.84	1632.23
841.01	1665.00
841.18	1685.48
841.35	1634.28
841.52	1718.25
841.69	1810.40
841.86	1710.05
842.03	1665.00
842.20	1660.90
842.37	1718.25
842.54	1699.81
842.71	1691.62
842.88	1656.81
843.05	1701.86
843.22	1673.19
843.39	1761.25
843.56	1650.66
843.73	1718.25
843.90	1726.44
844.07	1656.81
844.24	1751.01
844.41	1800.16
844.58	1748.97
844.75	1681.38
844.92	1675.24
845.09	1742.82
845.26	1570.79
845.43	1701.86
845.60	1675.24
845.77	1789.92
845.94	1644.52
846.10	1734.63
846.27	1630.18
846.44	1624.04
846.61	1677.29
846.78	1703.91
846.95	1722.34
847.12	1613.80
847.29	1705.96
847.46	1679.33
847.63	1687.53
847.80	1652.71
847.97	1718.25
848.14	1734.63
848.31	1685.48
848.48	1644.52
848.65	1656.81
848.82	1636.33
848.98	1859.56
849.15	1734.63
849.32	1744.87
849.49	1730.53
849.66	1673.19
849.83	1685.48
850.00	1691.62
850.17	1755.11
850.34	1695.72
850.51	1669.09
850.68	1611.75
850.85	1814.50
851.01	1759.21
851.18	1798.12
851.35	1726.44
851.52	1757.16
851.69	1705.96
851.86	1621.99
852.03	1699.81
852.20	1683.43
852.37	1722.34
852.53	1597.42
852.70	1652.71
852.87	1644.52
853.04	1804.26
853.21	1656.81
853.38	1697.77
853.55	1718.25
853.72	1730.53
853.89	1669.09
854.05	1695.72
854.22	1578.98
854.39	1628.14
854.56	1697.77
854.73	1744.87
854.90	1624.04
855.07	1716.20
855.23	1603.56
855.40	1665.00
855.57	1671.14
855.74	1560.55
855.91	1800.16
856.08	1689.57
856.25	1654.76
856.41	1716.20
856.58	1646.57
856.75	1708.01
856.92	1617.90
857.09	1753.06
857.26	1628.14
857.42	1636.33
857.59	1775.59
857.76	1697.77
857.93	1701.86
858.10	1718.25
858.27	1632.23
858.43	1673.19
858.60	1624.04
858.77	1595.37
858.94	1691.62
859.11	1744.87
859.27	1662.95
859.44	1669.09
859.61	1816.55
859.78	1662.95
859.95	1560.55
860.12	1648.61
860.28	1742.82
860.45	1824.74
860.62	1644.52
860.79	1720.29
860.95	1660.90
861.12	1615.85
861.29	1564.65
861.46	1697.77
861.63	1665.00
861.79	1642.47
861.96	1662.95
862.13	1624.04
862.30	1693.67
862.47	1748.97
862.63	1615.85
862.80	1720.29
862.97	1671.14
863.14	1746.92
863.30	1689.57
863.47	1667.05
863.64	1779.68
863.81	1710.05
863.97	1669.09
864.14	1705.96
864.31	1720.29
864.48	1673.19
864.65	1726.44
864.81	1720.29
864.98	1775.59
865.15	1689.57
865.32	1714.15
865.48	1728.49
865.65	1753.06
865.82	1632.23
865.98	1701.86
866.15	1771.49
866.32	1673.19
866.49	1626.09
866.65	1798.12
866.82	1665.00
866.99	1705.96
867.16	1642.47
867.32	1624.04
867.49	1691.62
867.66	1701.86
867.83	1638.38
867.99	1544.17
868.16	1642.47
868.33	1697.77
868.49	1705.96
868.66	1632.23
868.83	1740.77
868.99	1724.39
869.16	1656.81
869.33	1742.82
869.50	1738.73
869.66	1724.39
869.83	1648.61
870.00	1636.33
870.16	1632.23
870.33	1636.33
870.50	1740.77
870.66	1724.39
870.83	1804.26
871.00	1681.38
871.17	1710.05
871.33	1669.09
871.50	1679.33
871.67	1669.09
871.83	1726.44
872.00	1773.54
872.17	1724.39
872.33	1728.49
872.50	1775.59
872.67	1665.00
872.83	1679.33
873.00	1796.07
873.17	1683.43
873.33	1722.34
873.50	1648.61
873.67	1562.60
873.83	1681.38
874.00	1665.00
874.16	1744.87
874.33	1665.00
874.50	1527.78
874.66	1755.11
874.83	1705.96
875.00	1779.68
875.16	1691.62
875.33	1710.05
875.50	1562.60
875.66	1660.90
875.83	1605.61
875.99	1679.33
876.16	1644.52
876.33	1665.00
876.49	1736.68
876.66	1720.29
876.83	1665.00
876.99	1628.14
877.16	1730.53
877.32	1699.81
877.49	1671.14
877.66	1685.48
877.82	1791.97
877.99	1699.81
878.15	1816.55
878.32	1665.00
878.49	1673.19
878.65	1597.42
878.82	1722.34
878.98	1644.52
879.15	1742.82
879.32	1714.15
879.48	1695.72
879.65	1650.66
879.81	1642.47
879.98	1648.61
880.15	1667.05
880.31	1734.63
880.48	1628.14
880.64	1724.39
880.81	1746.92
880.97	1720.29
881.14	1757.16
881.31	1697.77
881.47	1877.99
881.64	1722.34
881.80	1671.14
881.97	1714.15
882.13	1701.86
882.30	1624.04
882.47	1644.52
882.63	1658.85
882.80	1751.01
882.96	1662.95
883.13	1781.73
883.29	1615.85
883.46	1736.68
883.62	1779.68
883.79	1621.99
883.95	1816.55
884.12	1656.81
884.29	1722.34
884.45	1705.96
884.62	1724.39
884.78	1650.66
884.95	1753.06
885.11	1650.66
885.28	1691.62
885.44	1621.99
885.61	1673.19
885.77	1736.68
885.94	1714.15
886.10	1665.00
886.27	1685.48
886.43	1734.63
886.60	1861.60
886.76	1599.46
886.93	1624.04
887.09	1621.99
887.26	1601.51
887.42	1689.57
887.59	1779.68
887.75	1826.79
887.92	1740.77
888.08	1677.29
888.25	1785.83
888.41	1714.15
888.58	1640.42
888.74	1675.24
888.91	1689.57
>>>>>End Processed Spectral Data<<<<<
