SpectraSuite Data File
++++++++++++++++++++++++++++++++++++
Date: Mon Jun 06 16:21:37 CEST 2016
User: root
Dark Spectrum Present: No
Reference Spectrum Present: No
Number of Sampled Component Spectra: 1
Spectrometers: USB4C02835
Integration Time (usec): 100000 (USB4C02835)
Spectra Averaged: 1 (USB4C02835)
Boxcar Smoothing: 0 (USB4C02835)
Correct for Electrical Dark: No (USB4C02835)
Strobe/Lamp Enabled: No (USB4C02835)
Correct for Detector Non-linearity: No (USB4C02835)
Correct for Stray Light: No (USB4C02835)
Number of Pixels in Processed Spectrum: 3648
>>>>>Begin Processed Spectral Data<<<<<
177.47	1480.68
177.69	1480.68
177.91	1480.68
178.13	1484.78
178.36	1454.06
178.58	1632.23
178.80	1806.31
179.02	1601.51
179.24	1689.57
179.46	1712.10
179.68	1716.20
179.90	1726.44
180.13	1687.53
180.35	1656.81
180.57	1630.18
180.79	1837.03
181.01	1771.49
181.23	1671.14
181.45	1861.60
181.67	1718.25
181.90	1787.88
182.12	1652.71
182.34	1714.15
182.56	1748.97
182.78	1773.54
183.00	1624.04
183.22	1738.73
183.44	1652.71
183.66	1861.60
183.89	1857.51
184.11	1746.92
184.33	1783.78
184.55	1738.73
184.77	1667.05
184.99	1779.68
185.21	1691.62
185.43	1828.84
185.65	1615.85
185.87	1732.58
186.10	1832.93
186.32	1783.78
186.54	1687.53
186.76	1771.49
186.98	1798.12
187.20	1775.59
187.42	1660.90
187.64	1705.96
187.86	1683.43
188.08	1726.44
188.30	1667.05
188.52	1699.81
188.75	1748.97
188.97	1863.65
189.19	1744.87
189.41	1734.63
189.63	1740.77
189.85	1667.05
190.07	1642.47
190.29	1644.52
190.51	1755.11
190.73	1628.14
190.95	1828.84
191.17	1720.29
191.39	1701.86
191.61	1783.78
191.84	1654.76
192.06	1701.86
192.28	1574.89
192.50	1886.18
192.72	1738.73
192.94	1683.43
193.16	1802.21
193.38	1665.00
193.60	1722.34
193.82	1705.96
194.04	1751.01
194.26	1771.49
194.48	1689.57
194.70	1705.96
194.92	1603.56
195.14	1677.29
195.36	1732.58
195.58	1689.57
195.80	1714.15
196.02	1710.05
196.24	1697.77
196.46	1751.01
196.69	1748.97
196.91	1775.59
197.13	1667.05
197.35	1660.90
197.57	1761.25
197.79	1740.77
198.01	1742.82
198.23	1800.16
198.45	1763.30
198.67	1671.14
198.89	1714.15
199.11	1699.81
199.33	1685.48
199.55	1611.75
199.77	1748.97
199.99	1693.67
200.21	1665.00
200.43	1767.40
200.65	1701.86
200.87	1601.51
201.09	1755.11
201.31	1689.57
201.53	1748.97
201.75	1671.14
201.97	1769.44
202.19	1650.66
202.41	1697.77
202.63	1871.84
202.85	1734.63
203.07	1705.96
203.29	1687.53
203.51	1634.28
203.73	1697.77
203.95	1914.85
204.17	1757.16
204.39	1765.35
204.61	1687.53
204.83	1628.14
205.05	1806.31
205.27	1773.54
205.49	1865.70
205.71	1726.44
205.93	1640.42
206.15	1628.14
206.37	1728.49
206.59	1660.90
206.81	1621.99
207.03	1662.95
207.25	1699.81
207.47	1710.05
207.69	1644.52
207.91	1753.06
208.13	1757.16
208.34	1673.19
208.56	1611.75
208.78	1759.21
209.00	1636.33
209.22	1738.73
209.44	1687.53
209.66	1658.85
209.88	1667.05
210.10	1710.05
210.32	1736.68
210.54	1804.26
210.76	1689.57
210.98	1767.40
211.20	1673.19
211.42	1751.01
211.64	1814.50
211.86	1775.59
212.08	1720.29
212.30	1716.20
212.52	1695.72
212.74	1767.40
212.96	1759.21
213.17	1755.11
213.39	1748.97
213.61	1771.49
213.83	1820.64
214.05	1619.94
214.27	1722.34
214.49	1671.14
214.71	1656.81
214.93	1740.77
215.15	1722.34
215.37	1804.26
215.59	1542.12
215.81	1763.30
216.03	1832.93
216.24	1808.36
216.46	1640.42
216.68	1742.82
216.90	1791.97
217.12	1773.54
217.34	1695.72
217.56	1832.93
217.78	1738.73
218.00	1767.40
218.22	1724.39
218.44	1679.33
218.66	1744.87
218.87	1818.60
219.09	1712.10
219.31	1763.30
219.53	1865.70
219.75	1779.68
219.97	1730.53
220.19	1738.73
220.41	1718.25
220.63	1783.78
220.85	1658.85
221.06	1648.61
221.28	1753.06
221.50	1781.73
221.72	1726.44
221.94	1755.11
222.16	1734.63
222.38	1732.58
222.60	1720.29
222.82	1673.19
223.03	1769.44
223.25	1677.29
223.47	1726.44
223.69	1837.03
223.91	1736.68
224.13	1753.06
224.35	1714.15
224.57	1812.45
224.78	1746.92
225.00	1701.86
225.22	1654.76
225.44	1730.53
225.66	1724.39
225.88	1722.34
226.10	1746.92
226.32	1677.29
226.53	1777.64
226.75	1726.44
226.97	1718.25
227.19	1693.67
227.41	1656.81
227.63	1710.05
227.85	1671.14
228.06	1746.92
228.28	1695.72
228.50	1753.06
228.72	1652.71
228.94	1708.01
229.16	1630.18
229.37	1671.14
229.59	1619.94
229.81	1808.36
230.03	1718.25
230.25	1722.34
230.47	1665.00
230.69	1617.90
230.90	1705.96
231.12	1652.71
231.34	1703.91
231.56	1759.21
231.78	1673.19
232.00	1699.81
232.21	1714.15
232.43	1714.15
232.65	1564.65
232.87	1689.57
233.09	1669.09
233.30	1689.57
233.52	1705.96
233.74	1660.90
233.96	1708.01
234.18	1703.91
234.40	1677.29
234.61	1927.14
234.83	1656.81
235.05	1681.38
235.27	1804.26
235.49	1769.44
235.70	1662.95
235.92	1734.63
236.14	1714.15
236.36	1855.46
236.58	1619.94
236.79	1771.49
237.01	1648.61
237.23	1714.15
237.45	1783.78
237.67	1732.58
237.88	1771.49
238.10	1791.97
238.32	1742.82
238.54	1722.34
238.76	1755.11
238.97	1675.24
239.19	1705.96
239.41	1693.67
239.63	1794.02
239.85	1677.29
240.06	1732.58
240.28	1732.58
240.50	1781.73
240.72	1712.10
240.93	1708.01
241.15	1744.87
241.37	1753.06
241.59	1783.78
241.81	1712.10
242.02	1765.35
242.24	1730.53
242.46	1796.07
242.68	1673.19
242.89	1708.01
243.11	1757.16
243.33	1703.91
243.55	1718.25
243.76	1724.39
243.98	1777.64
244.20	1736.68
244.42	1640.42
244.64	1642.47
244.85	1714.15
245.07	1685.48
245.29	1722.34
245.51	1691.62
245.72	1755.11
245.94	1798.12
246.16	1755.11
246.38	1734.63
246.59	1654.76
246.81	1636.33
247.03	1644.52
247.24	1591.27
247.46	1703.91
247.68	1720.29
247.90	1689.57
248.11	1753.06
248.33	1767.40
248.55	1775.59
248.77	1671.14
248.98	1830.88
249.20	1794.02
249.42	1722.34
249.64	1767.40
249.85	1681.38
250.07	1667.05
250.29	1718.25
250.50	1800.16
250.72	1669.09
250.94	1748.97
251.16	1742.82
251.37	1701.86
251.59	1781.73
251.81	1685.48
252.02	1804.26
252.24	1650.66
252.46	1773.54
252.68	1691.62
252.89	1656.81
253.11	1660.90
253.33	1748.97
253.54	1873.89
253.76	1730.53
253.98	1693.67
254.20	1710.05
254.41	1595.37
254.63	1767.40
254.85	1736.68
255.06	1746.92
255.28	1744.87
255.50	1685.48
255.71	1667.05
255.93	1665.00
256.15	1716.20
256.36	1759.21
256.58	1710.05
256.80	1791.97
257.02	1669.09
257.23	1748.97
257.45	1744.87
257.67	1748.97
257.88	1619.94
258.10	1759.21
258.32	1626.09
258.53	1677.29
258.75	1787.88
258.97	1667.05
259.18	1718.25
259.40	1656.81
259.62	1837.03
259.83	1751.01
260.05	1689.57
260.27	1984.48
260.48	1736.68
260.70	1632.23
260.92	1689.57
261.13	1740.77
261.35	1732.58
261.57	1808.36
261.78	1578.98
262.00	1654.76
262.22	1742.82
262.43	1699.81
262.65	1728.49
262.86	1732.58
263.08	1869.80
263.30	1744.87
263.51	1660.90
263.73	1701.86
263.95	1800.16
264.16	1640.42
264.38	1691.62
264.60	1773.54
264.81	1777.64
265.03	1765.35
265.25	1759.21
265.46	1701.86
265.68	1796.07
265.89	1755.11
266.11	1619.94
266.33	1701.86
266.54	1806.31
266.76	1732.58
266.98	1767.40
267.19	1759.21
267.41	1765.35
267.62	1669.09
267.84	1665.00
268.06	1757.16
268.27	1697.77
268.49	1769.44
268.70	1757.16
268.92	1757.16
269.14	1607.66
269.35	1652.71
269.57	1697.77
269.79	1728.49
270.00	1669.09
270.22	1779.68
270.43	1640.42
270.65	1611.75
270.87	1777.64
271.08	1738.73
271.30	1828.84
271.51	1718.25
271.73	1673.19
271.95	1802.21
272.16	1769.44
272.38	1624.04
272.59	1761.25
272.81	1677.29
273.02	1738.73
273.24	1767.40
273.46	1777.64
273.67	1673.19
273.89	1628.14
274.10	1705.96
274.32	1800.16
274.54	1677.29
274.75	1714.15
274.97	1740.77
275.18	1753.06
275.40	1761.25
275.61	1654.76
275.83	1708.01
276.05	1673.19
276.26	1691.62
276.48	1730.53
276.69	1652.71
276.91	1679.33
277.12	1765.35
277.34	1781.73
277.55	1771.49
277.77	1751.01
277.99	1658.85
278.20	1665.00
278.42	1677.29
278.63	1648.61
278.85	1632.23
279.06	1578.98
279.28	1755.11
279.49	1800.16
279.71	1726.44
279.93	1691.62
280.14	1730.53
280.36	1675.24
280.57	1662.95
280.79	1804.26
281.00	1693.67
281.22	1701.86
281.43	1755.11
281.65	1613.80
281.86	1679.33
282.08	1818.60
282.29	1882.08
282.51	1662.95
282.73	1671.14
282.94	1675.24
283.16	1806.31
283.37	1771.49
283.59	1673.19
283.80	1763.30
284.02	1611.75
284.23	1718.25
284.45	1714.15
284.66	1732.58
284.88	1679.33
285.09	1701.86
285.31	1720.29
285.52	1757.16
285.74	1615.85
285.95	1810.40
286.17	1722.34
286.38	1767.40
286.60	1644.52
286.81	1703.91
287.03	1712.10
287.24	1714.15
287.46	1732.58
287.67	1708.01
287.89	1851.36
288.10	1726.44
288.32	1703.91
288.53	1787.88
288.75	1654.76
288.96	1779.68
289.18	1697.77
289.39	1716.20
289.61	1818.60
289.82	1888.23
290.04	1820.64
290.25	1673.19
290.47	1779.68
290.68	1718.25
290.90	1716.20
291.11	1675.24
291.33	1683.43
291.54	1644.52
291.76	1710.05
291.97	1771.49
292.18	1751.01
292.40	1650.66
292.61	1732.58
292.83	1910.75
293.04	1748.97
293.26	1763.30
293.47	1673.19
293.69	1673.19
293.90	1673.19
294.12	1785.83
294.33	1736.68
294.55	1632.23
294.76	1738.73
294.97	1794.02
295.19	1791.97
295.40	1730.53
295.62	1675.24
295.83	1773.54
296.05	1656.81
296.26	1759.21
296.48	1673.19
296.69	1648.61
296.90	1632.23
297.12	1761.25
297.33	1796.07
297.55	1751.01
297.76	1753.06
297.98	1767.40
298.19	1757.16
298.41	1705.96
298.62	1716.20
298.83	1830.88
299.05	1822.69
299.26	1718.25
299.48	1599.46
299.69	1783.78
299.90	1720.29
300.12	1712.10
300.33	1746.92
300.55	1687.53
300.76	1716.20
300.98	1570.79
301.19	1808.36
301.40	1695.72
301.62	1697.77
301.83	1722.34
302.05	1783.78
302.26	1742.82
302.47	1728.49
302.69	1603.56
302.90	1699.81
303.12	1556.46
303.33	1714.15
303.54	1818.60
303.76	1716.20
303.97	1734.63
304.19	1787.88
304.40	1673.19
304.61	1693.67
304.83	1720.29
305.04	1767.40
305.26	1710.05
305.47	1683.43
305.68	1701.86
305.90	1654.76
306.11	1847.27
306.33	1726.44
306.54	1724.39
306.75	1693.67
306.97	1611.75
307.18	1705.96
307.39	1658.85
307.61	1765.35
307.82	1710.05
308.04	1705.96
308.25	1687.53
308.46	1726.44
308.68	1720.29
308.89	1697.77
309.10	1800.16
309.32	1769.44
309.53	1695.72
309.74	1703.91
309.96	1777.64
310.17	1742.82
310.39	1603.56
310.60	1765.35
310.81	1638.38
311.03	1660.90
311.24	1734.63
311.45	1708.01
311.67	1783.78
311.88	1654.76
312.09	1697.77
312.31	1689.57
312.52	1642.47
312.73	1693.67
312.95	1613.80
313.16	1646.57
313.37	1810.40
313.59	1767.40
313.80	1671.14
314.01	1873.89
314.23	1718.25
314.44	1697.77
314.65	1710.05
314.87	1677.29
315.08	1642.47
315.29	1763.30
315.51	1751.01
315.72	1656.81
315.93	1755.11
316.15	1816.55
316.36	1763.30
316.57	1710.05
316.79	1722.34
317.00	1691.62
317.21	1720.29
317.43	1652.71
317.64	1716.20
317.85	1724.39
318.07	1710.05
318.28	1697.77
318.49	1816.55
318.70	1992.67
318.92	1781.73
319.13	1863.65
319.34	1882.08
319.56	1796.07
319.77	1820.64
319.98	1785.83
320.20	1808.36
320.41	1708.01
320.62	1781.73
320.83	1654.76
321.05	1867.75
321.26	1800.16
321.47	1726.44
321.69	1726.44
321.90	1605.61
322.11	1705.96
322.32	1689.57
322.54	1816.55
322.75	1722.34
322.96	1798.12
323.18	1628.14
323.39	1611.75
323.60	1701.86
323.81	1689.57
324.03	1687.53
324.24	1677.29
324.45	1679.33
324.66	1638.38
324.88	1746.92
325.09	1787.88
325.30	1679.33
325.52	1708.01
325.73	1755.11
325.94	1652.71
326.15	1638.38
326.37	1697.77
326.58	1843.17
326.79	1761.25
327.00	1671.14
327.22	1877.99
327.43	1769.44
327.64	1613.80
327.85	1689.57
328.07	1771.49
328.28	1800.16
328.49	1732.58
328.70	1722.34
328.92	1806.31
329.13	1708.01
329.34	1718.25
329.55	1808.36
329.76	1826.79
329.98	1722.34
330.19	1775.59
330.40	1714.15
330.61	1675.24
330.83	1691.62
331.04	1679.33
331.25	1794.02
331.46	1648.61
331.68	1658.85
331.89	1738.73
332.10	1634.28
332.31	1667.05
332.52	1646.57
332.74	1886.18
332.95	1597.42
333.16	1714.15
333.37	1736.68
333.58	1705.96
333.80	1753.06
334.01	1638.38
334.22	1710.05
334.43	1693.67
334.64	1669.09
334.86	1597.42
335.07	1736.68
335.28	1800.16
335.49	1605.61
335.70	1683.43
335.92	1812.45
336.13	1826.79
336.34	1771.49
336.55	1730.53
336.76	1669.09
336.98	1640.42
337.19	1697.77
337.40	1755.11
337.61	1890.28
337.82	1722.34
338.04	1712.10
338.25	1628.14
338.46	1667.05
338.67	1669.09
338.88	1677.29
339.09	1660.90
339.31	1716.20
339.52	1626.09
339.73	1617.90
339.94	1683.43
340.15	1693.67
340.36	1669.09
340.58	1619.94
340.79	1697.77
341.00	1769.44
341.21	1656.81
341.42	1849.32
341.63	1689.57
341.85	1775.59
342.06	1751.01
342.27	1685.48
342.48	1796.07
342.69	1669.09
342.90	1771.49
343.12	1775.59
343.33	1683.43
343.54	1757.16
343.75	1712.10
343.96	1693.67
344.17	1632.23
344.38	1773.54
344.60	1648.61
344.81	1607.66
345.02	1730.53
345.23	1718.25
345.44	1804.26
345.65	1648.61
345.86	1785.83
346.07	1638.38
346.29	1648.61
346.50	1802.21
346.71	1759.21
346.92	1798.12
347.13	1826.79
347.34	1683.43
347.55	1667.05
347.76	1748.97
347.98	1611.75
348.19	1701.86
348.40	1708.01
348.61	1722.34
348.82	1822.69
349.03	1796.07
349.24	1718.25
349.45	1845.22
349.66	1591.27
349.88	1753.06
350.09	1665.00
350.30	1794.02
350.51	1765.35
350.72	1687.53
350.93	1699.81
351.14	1687.53
351.35	1787.88
351.56	1751.01
351.77	1644.52
351.99	1775.59
352.20	1830.88
352.41	1738.73
352.62	1634.28
352.83	1689.57
353.04	1677.29
353.25	1744.87
353.46	1748.97
353.67	1710.05
353.88	1691.62
354.09	1697.77
354.30	1710.05
354.52	1730.53
354.73	1689.57
354.94	1613.80
355.15	1716.20
355.36	1859.56
355.57	1716.20
355.78	1738.73
355.99	1751.01
356.20	1677.29
356.41	1775.59
356.62	1761.25
356.83	1667.05
357.04	1832.93
357.25	1601.51
357.46	1687.53
357.68	1660.90
357.89	1660.90
358.10	1730.53
358.31	1761.25
358.52	1736.68
358.73	1714.15
358.94	1654.76
359.15	1714.15
359.36	1791.97
359.57	1748.97
359.78	1726.44
359.99	1714.15
360.20	1718.25
360.41	1714.15
360.62	1783.78
360.83	1777.64
361.04	1730.53
361.25	1787.88
361.46	1834.98
361.67	1744.87
361.88	1757.16
362.09	1789.92
362.30	1718.25
362.51	1724.39
362.72	1669.09
362.93	1787.88
363.14	1769.44
363.35	1765.35
363.56	1681.38
363.78	1830.88
363.99	1787.88
364.20	1642.47
364.41	1751.01
364.62	1720.29
364.83	1763.30
365.04	1738.73
365.25	1744.87
365.46	1820.64
365.67	1667.05
365.88	1599.46
366.09	1681.38
366.30	1662.95
366.51	1634.28
366.72	1613.80
366.93	1687.53
367.14	1679.33
367.35	1787.88
367.56	1652.71
367.77	1794.02
367.98	1656.81
368.18	1675.24
368.39	1798.12
368.60	1765.35
368.81	1728.49
369.02	1769.44
369.23	1746.92
369.44	1566.70
369.65	1632.23
369.86	1755.11
370.07	1775.59
370.28	1714.15
370.49	1769.44
370.70	1738.73
370.91	1679.33
371.12	1607.66
371.33	1767.40
371.54	1716.20
371.75	1839.08
371.96	1554.41
372.17	1775.59
372.38	1714.15
372.59	1730.53
372.80	1677.29
373.01	1648.61
373.22	1660.90
373.43	1738.73
373.64	1693.67
373.85	1826.79
374.06	1814.50
374.26	1783.78
374.47	1685.48
374.68	1890.28
374.89	1771.49
375.10	1640.42
375.31	1818.60
375.52	1730.53
375.73	1789.92
375.94	1673.19
376.15	1806.31
376.36	1693.67
376.57	1574.89
376.78	1632.23
376.99	1789.92
377.20	1800.16
377.40	1669.09
377.61	1767.40
377.82	1591.27
378.03	1796.07
378.24	1728.49
378.45	1716.20
378.66	1779.68
378.87	1650.66
379.08	1638.38
379.29	1703.91
379.50	1798.12
379.71	1748.97
379.91	1822.69
380.12	1671.14
380.33	1652.71
380.54	1662.95
380.75	1699.81
380.96	1605.61
381.17	1734.63
381.38	1730.53
381.59	1744.87
381.80	1720.29
382.00	1877.99
382.21	1822.69
382.42	1861.60
382.63	1869.80
382.84	1791.97
383.05	1775.59
383.26	1851.36
383.47	1742.82
383.68	1851.36
383.88	1714.15
384.09	1705.96
384.30	1802.21
384.51	1718.25
384.72	1785.83
384.93	1609.70
385.14	1732.58
385.35	1798.12
385.55	1683.43
385.76	1734.63
385.97	1673.19
386.18	1662.95
386.39	1662.95
386.60	1634.28
386.81	1667.05
387.02	1695.72
387.22	1628.14
387.43	1800.16
387.64	1771.49
387.85	1918.95
388.06	2297.82
388.27	4231.10
388.48	6668.19
388.68	8195.97
388.89	9533.29
389.10	9635.69
389.31	8583.04
389.52	7540.62
389.73	6600.60
389.93	6207.39
390.14	5971.88
390.35	5332.91
390.56	4554.68
390.77	3872.71
390.98	3006.42
391.18	2514.91
391.39	2066.40
391.60	1914.85
391.81	1841.12
392.02	1656.81
392.23	1857.51
392.43	1804.26
392.64	1816.55
392.85	1789.92
393.06	1714.15
393.27	1814.50
393.47	1697.77
393.68	1781.73
393.89	1685.48
394.10	1781.73
394.31	1734.63
394.52	1693.67
394.72	1730.53
394.93	1744.87
395.14	1716.20
395.35	1763.30
395.56	1638.38
395.76	1691.62
395.97	1845.22
396.18	1804.26
396.39	1810.40
396.60	2070.50
396.80	1968.10
397.01	1920.99
397.22	1810.40
397.43	1863.65
397.64	1742.82
397.84	1814.50
398.05	1914.85
398.26	1849.32
398.47	1841.12
398.67	1720.29
398.88	1710.05
399.09	1822.69
399.30	1685.48
399.51	1841.12
399.71	1654.76
399.92	1751.01
400.13	1720.29
400.34	1705.96
400.54	1669.09
400.75	1808.36
400.96	1732.58
401.17	1882.08
401.37	1744.87
401.58	1677.29
401.79	1691.62
402.00	1863.65
402.21	1984.48
402.41	1990.63
402.62	2041.82
402.83	2033.63
403.04	1931.23
403.24	2041.82
403.45	1894.37
403.66	1910.75
403.87	1834.98
404.07	1982.43
404.28	1929.19
404.49	1837.03
404.70	1841.12
404.90	1861.60
405.11	1748.97
405.32	1673.19
405.52	1705.96
405.73	1656.81
405.94	1695.72
406.15	1693.67
406.35	1761.25
406.56	1730.53
406.77	1724.39
406.98	1775.59
407.18	1638.38
407.39	1798.12
407.60	1720.29
407.80	1736.68
408.01	1701.86
408.22	1705.96
408.43	1730.53
408.63	1724.39
408.84	1693.67
409.05	1767.40
409.25	1660.90
409.46	1671.14
409.67	1734.63
409.88	1742.82
410.08	1714.15
410.29	1677.29
410.50	1728.49
410.70	1834.98
410.91	1617.90
411.12	1716.20
411.32	1681.38
411.53	1742.82
411.74	1769.44
411.95	1818.60
412.15	1769.44
412.36	1742.82
412.57	1763.30
412.77	1810.40
412.98	1679.33
413.19	1787.88
413.39	1767.40
413.60	1734.63
413.81	1804.26
414.01	1687.53
414.22	1820.64
414.43	1830.88
414.63	1734.63
414.84	1775.59
415.05	1675.24
415.25	1646.57
415.46	1748.97
415.67	1728.49
415.87	1732.58
416.08	1681.38
416.29	1658.85
416.49	1708.01
416.70	1650.66
416.91	1689.57
417.11	1746.92
417.32	1791.97
417.53	1748.97
417.73	1761.25
417.94	1689.57
418.15	1718.25
418.35	1710.05
418.56	1730.53
418.77	1882.08
418.97	1673.19
419.18	1652.71
419.38	1630.18
419.59	1685.48
419.80	1816.55
420.00	1667.05
420.21	1665.00
420.42	1734.63
420.62	1714.15
420.83	1714.15
421.04	1697.77
421.24	1718.25
421.45	1767.40
421.65	1714.15
421.86	1656.81
422.07	1808.36
422.27	1710.05
422.48	1681.38
422.69	1689.57
422.89	1730.53
423.10	1671.14
423.30	1665.00
423.51	1794.02
423.72	1769.44
423.92	1767.40
424.13	1611.75
424.33	1654.76
424.54	1720.29
424.75	1681.38
424.95	1798.12
425.16	1714.15
425.36	1603.56
425.57	1683.43
425.78	1748.97
425.98	1765.35
426.19	1789.92
426.39	1695.72
426.60	1734.63
426.81	1796.07
427.01	1697.77
427.22	1699.81
427.42	1636.33
427.63	1675.24
427.83	1751.01
428.04	1865.70
428.25	1779.68
428.45	1714.15
428.66	1810.40
428.86	1695.72
429.07	1652.71
429.28	1728.49
429.48	1767.40
429.69	1660.90
429.89	1755.11
430.10	1644.52
430.30	1748.97
430.51	1865.70
430.71	1640.42
430.92	1656.81
431.13	1683.43
431.33	1738.73
431.54	1785.83
431.74	1759.21
431.95	1861.60
432.15	1712.10
432.36	1695.72
432.56	1714.15
432.77	1763.30
432.98	1783.78
433.18	1685.48
433.39	1718.25
433.59	1748.97
433.80	1830.88
434.00	1871.84
434.21	1673.19
434.41	1669.09
434.62	1953.76
434.82	1677.29
435.03	1683.43
435.23	1693.67
435.44	1656.81
435.64	1812.45
435.85	1714.15
436.06	1779.68
436.26	1789.92
436.47	1755.11
436.67	1685.48
436.88	1769.44
437.08	1785.83
437.29	1830.88
437.49	1740.77
437.70	1800.16
437.90	1665.00
438.11	1832.93
438.31	1779.68
438.52	1865.70
438.72	1800.16
438.93	1935.33
439.13	1826.79
439.34	1855.46
439.54	1744.87
439.75	1820.64
439.95	1753.06
440.16	1673.19
440.36	1740.77
440.57	1714.15
440.77	1757.16
440.98	1746.92
441.18	1744.87
441.39	1646.57
441.59	1746.92
441.80	1894.37
442.00	1837.03
442.21	1861.60
442.41	1615.85
442.62	1851.36
442.82	1701.86
443.02	1753.06
443.23	1765.35
443.43	1658.85
443.64	1757.16
443.84	1665.00
444.05	1832.93
444.25	1740.77
444.46	1693.67
444.66	1742.82
444.87	1877.99
445.07	1636.33
445.28	1705.96
445.48	1814.50
445.69	1871.84
445.89	1871.84
446.09	1761.25
446.30	2027.49
446.50	2686.94
446.71	3626.95
446.91	4192.19
447.12	4712.38
447.32	4736.95
447.53	4349.89
447.73	3993.54
447.93	3598.28
448.14	3330.00
448.34	3250.13
448.55	2830.29
448.75	2865.11
448.96	2752.47
449.16	2455.51
449.36	2404.32
449.57	2050.02
449.77	1880.04
449.98	1824.74
450.18	1888.23
450.39	1798.12
450.59	1701.86
450.79	1720.29
451.00	1730.53
451.20	1724.39
451.41	1679.33
451.61	1740.77
451.81	1753.06
452.02	1748.97
452.22	1779.68
452.43	1652.71
452.63	1665.00
452.84	1746.92
453.04	1665.00
453.24	1736.68
453.45	1771.49
453.65	1652.71
453.86	1796.07
454.06	1751.01
454.26	1705.96
454.47	1771.49
454.67	1791.97
454.87	1785.83
455.08	1771.49
455.28	1849.32
455.49	1730.53
455.69	1679.33
455.89	1789.92
456.10	1839.08
456.30	1767.40
456.51	1722.34
456.71	1779.68
456.91	1789.92
457.12	1810.40
457.32	1773.54
457.52	1695.72
457.73	1869.80
457.93	1845.22
458.14	1679.33
458.34	1714.15
458.54	1742.82
458.75	1693.67
458.95	1757.16
459.15	1783.78
459.36	1746.92
459.56	1769.44
459.76	1886.18
459.97	1744.87
460.17	1701.86
460.37	1880.04
460.58	1783.78
460.78	1853.41
460.99	1736.68
461.19	1699.81
461.39	1785.83
461.60	1697.77
461.80	1863.65
462.00	1701.86
462.21	1718.25
462.41	1691.62
462.61	1658.85
462.82	1656.81
463.02	1824.74
463.22	1671.14
463.43	1761.25
463.63	1744.87
463.83	1859.56
464.04	1738.73
464.24	1705.96
464.44	1691.62
464.64	1828.84
464.85	1779.68
465.05	1812.45
465.25	1712.10
465.46	1759.21
465.66	1787.88
465.86	1783.78
466.07	1748.97
466.27	1767.40
466.47	1697.77
466.68	1603.56
466.88	1847.27
467.08	1769.44
467.29	1767.40
467.49	1779.68
467.69	1734.63
467.89	1722.34
468.10	1679.33
468.30	1765.35
468.50	1679.33
468.71	1755.11
468.91	1632.23
469.11	1845.22
469.31	1703.91
469.52	1755.11
469.72	1822.69
469.92	1918.95
470.13	1740.77
470.33	1687.53
470.53	1812.45
470.73	2146.27
470.94	2299.87
471.14	2381.79
471.34	2576.34
471.54	2453.47
471.75	2244.57
471.95	2176.99
472.15	2043.87
472.36	2119.65
472.56	2064.35
472.76	2025.44
472.96	2029.54
473.17	1886.18
473.37	2025.44
473.57	1834.98
473.77	1884.13
473.98	1714.15
474.18	1703.91
474.38	1908.71
474.58	1757.16
474.79	1718.25
474.99	1740.77
475.19	1812.45
475.39	1656.81
475.60	1798.12
475.80	1724.39
476.00	1705.96
476.20	1796.07
476.41	1730.53
476.61	1830.88
476.81	1800.16
477.01	1687.53
477.21	1898.47
477.42	1828.84
477.62	1605.61
477.82	1697.77
478.02	1718.25
478.23	1710.05
478.43	1597.42
478.63	1714.15
478.83	1837.03
479.03	1736.68
479.24	1877.99
479.44	1814.50
479.64	1691.62
479.84	1626.09
480.04	1679.33
480.25	1796.07
480.45	1689.57
480.65	1626.09
480.85	1820.64
481.06	1644.52
481.26	1705.96
481.46	1726.44
481.66	1783.78
481.86	1759.21
482.06	1802.21
482.27	1773.54
482.47	1638.38
482.67	1677.29
482.87	1695.72
483.07	1779.68
483.28	1677.29
483.48	1658.85
483.68	1677.29
483.88	1660.90
484.08	1607.66
484.29	1642.47
484.49	1734.63
484.69	1701.86
484.89	1802.21
485.09	1806.31
485.29	1785.83
485.50	1814.50
485.70	1708.01
485.90	1814.50
486.10	1800.16
486.30	1716.20
486.50	1798.12
486.71	1673.19
486.91	1716.20
487.11	1810.40
487.31	1697.77
487.51	1763.30
487.71	1714.15
487.91	1703.91
488.12	1619.94
488.32	1624.04
488.52	1724.39
488.72	1615.85
488.92	1718.25
489.12	1800.16
489.32	1765.35
489.53	1691.62
489.73	1619.94
489.93	1861.60
490.13	1732.58
490.33	1648.61
490.53	1767.40
490.73	1724.39
490.94	1607.66
491.14	1761.25
491.34	1851.36
491.54	2172.89
491.74	2545.63
491.94	2934.74
492.14	3028.95
492.34	2926.55
492.54	2795.48
492.75	2596.82
492.95	2412.51
493.15	2365.40
493.35	2346.97
493.55	2260.96
493.75	2131.94
493.95	2164.70
494.15	2099.17
494.35	1900.52
494.56	1855.46
494.76	1814.50
494.96	1812.45
495.16	1773.54
495.36	1767.40
495.56	1771.49
495.76	1679.33
495.96	1814.50
496.16	1703.91
496.36	1779.68
496.56	1671.14
496.77	1761.25
496.97	1720.29
497.17	1751.01
497.37	1712.10
497.57	1746.92
497.77	1701.86
497.97	1732.58
498.17	1714.15
498.37	1742.82
498.57	1769.44
498.77	1681.38
498.97	1818.60
499.17	1820.64
499.38	1703.91
499.58	1910.75
499.78	1755.11
499.98	1820.64
500.18	1771.49
500.38	1726.44
500.58	1937.38
500.78	2553.82
500.98	4558.78
501.18	5855.14
501.38	6817.69
501.58	7059.35
501.78	6639.51
501.98	5578.67
502.18	5076.91
502.38	4405.18
502.58	4157.38
502.78	3794.89
502.98	3643.34
503.18	3497.93
503.38	3164.11
503.59	2912.21
503.79	2643.93
503.99	2475.99
504.19	2238.43
504.39	2183.13
504.59	2158.56
504.79	2109.41
504.99	2090.98
505.19	1945.57
505.39	1830.88
505.59	1961.95
505.79	1947.62
505.99	1974.24
506.19	1832.93
506.39	1894.37
506.59	1759.21
506.79	1781.73
506.99	1843.17
507.19	1834.98
507.39	1781.73
507.59	1665.00
507.79	1667.05
507.99	1712.10
508.19	1714.15
508.39	1753.06
508.59	1816.55
508.79	1800.16
508.99	1779.68
509.19	1769.44
509.39	1812.45
509.59	1763.30
509.79	1736.68
509.99	1759.21
510.19	1765.35
510.39	1798.12
510.59	1738.73
510.79	1656.81
510.99	1630.18
511.19	1712.10
511.39	1884.13
511.59	1787.88
511.79	1796.07
511.99	1765.35
512.19	1837.03
512.38	1791.97
512.58	1714.15
512.78	1781.73
512.98	1837.03
513.18	1867.75
513.38	1650.66
513.58	1689.57
513.78	1648.61
513.98	1683.43
514.18	1712.10
514.38	1769.44
514.58	1738.73
514.78	1748.97
514.98	1712.10
515.18	1718.25
515.38	1689.57
515.58	1830.88
515.78	1617.90
515.98	1691.62
516.18	1765.35
516.38	1742.82
516.57	1726.44
516.77	1738.73
516.97	1847.27
517.17	1703.91
517.37	1658.85
517.57	1787.88
517.77	1710.05
517.97	1642.47
518.17	1748.97
518.37	1716.20
518.57	1675.24
518.77	1746.92
518.97	1804.26
519.16	1841.12
519.36	1751.01
519.56	1728.49
519.76	1791.97
519.96	1789.92
520.16	1808.36
520.36	1771.49
520.56	1834.98
520.76	1718.25
520.96	1714.15
521.16	1830.88
521.35	1800.16
521.55	1804.26
521.75	1777.64
521.95	1718.25
522.15	1767.40
522.35	1705.96
522.55	1724.39
522.75	1755.11
522.95	1746.92
523.14	1587.18
523.34	1781.73
523.54	1722.34
523.74	1816.55
523.94	1812.45
524.14	1675.24
524.34	1740.77
524.54	1771.49
524.73	1710.05
524.93	1777.64
525.13	1785.83
525.33	1630.18
525.53	1839.08
525.73	1800.16
525.93	1773.54
526.13	1671.14
526.32	1791.97
526.52	1812.45
526.72	1763.30
526.92	1761.25
527.12	1779.68
527.32	1697.77
527.52	1755.11
527.71	1767.40
527.91	1673.19
528.11	1695.72
528.31	1789.92
528.51	1734.63
528.71	1798.12
528.90	1808.36
529.10	1867.75
529.30	1830.88
529.50	1615.85
529.70	1818.60
529.90	1708.01
530.09	1761.25
530.29	1621.99
530.49	1708.01
530.69	1877.99
530.89	1730.53
531.09	1738.73
531.28	1724.39
531.48	1800.16
531.68	1773.54
531.88	1712.10
532.08	1769.44
532.28	1789.92
532.47	1818.60
532.67	1804.26
532.87	1757.16
533.07	1617.90
533.27	1783.78
533.46	1775.59
533.66	1742.82
533.86	1732.58
534.06	1812.45
534.26	1839.08
534.45	1734.63
534.65	1798.12
534.85	1800.16
535.05	1714.15
535.25	1816.55
535.44	1712.10
535.64	1798.12
535.84	1732.58
536.04	1714.15
536.24	1689.57
536.43	1652.71
536.63	1710.05
536.83	1787.88
537.03	1746.92
537.22	1736.68
537.42	1615.85
537.62	1759.21
537.82	1691.62
538.02	1867.75
538.21	1865.70
538.41	1908.71
538.61	1748.97
538.81	1632.23
539.00	1785.83
539.20	1679.33
539.40	1708.01
539.60	1689.57
539.79	1751.01
539.99	1763.30
540.19	1697.77
540.39	1724.39
540.58	1761.25
540.78	1791.97
540.98	1779.68
541.18	1834.98
541.37	1724.39
541.57	1755.11
541.77	1804.26
541.97	1636.33
542.16	1697.77
542.36	1722.34
542.56	1791.97
542.76	1826.79
542.95	1820.64
543.15	1779.68
543.35	1785.83
543.54	1724.39
543.74	1734.63
543.94	1855.46
544.14	1746.92
544.33	1783.78
544.53	1650.66
544.73	1699.81
544.93	1740.77
545.12	1679.33
545.32	1822.69
545.52	1705.96
545.71	1716.20
545.91	1775.59
546.11	1724.39
546.30	1718.25
546.50	1720.29
546.70	1765.35
546.90	1830.88
547.09	1667.05
547.29	1810.40
547.49	1781.73
547.68	1724.39
547.88	1691.62
548.08	1826.79
548.27	2281.44
548.47	1738.73
548.67	1730.53
548.87	1814.50
549.06	1748.97
549.26	1748.97
549.46	1787.88
549.65	1794.02
549.85	1783.78
550.05	1839.08
550.24	1675.24
550.44	1810.40
550.64	1783.78
550.83	1755.11
551.03	1877.99
551.23	1810.40
551.42	1783.78
551.62	1714.15
551.82	1783.78
552.01	1708.01
552.21	1810.40
552.41	1783.78
552.60	1830.88
552.80	1742.82
553.00	1732.58
553.19	1736.68
553.39	1746.92
553.59	1718.25
553.78	1767.40
553.98	1748.97
554.17	1693.67
554.37	1796.07
554.57	1798.12
554.76	1658.85
554.96	1730.53
555.16	1789.92
555.35	1734.63
555.55	1796.07
555.75	1732.58
555.94	1804.26
556.14	1566.70
556.33	1767.40
556.53	1746.92
556.73	1751.01
556.92	1755.11
557.12	1861.60
557.32	1814.50
557.51	1763.30
557.71	1783.78
557.90	1820.64
558.10	1791.97
558.30	1779.68
558.49	1656.81
558.69	1673.19
558.88	1759.21
559.08	1763.30
559.28	1783.78
559.47	1710.05
559.67	1753.06
559.86	1873.89
560.06	1810.40
560.26	1701.86
560.45	1693.67
560.65	1777.64
560.84	1808.36
561.04	1667.05
561.24	1761.25
561.43	1703.91
561.63	1777.64
561.82	1740.77
562.02	1800.16
562.22	1632.23
562.41	1769.44
562.61	1740.77
562.80	1759.21
563.00	1877.99
563.19	1742.82
563.39	1806.31
563.59	1783.78
563.78	1708.01
563.98	1599.46
564.17	1646.57
564.37	1673.19
564.56	1748.97
564.76	1662.95
564.96	1839.08
565.15	1712.10
565.35	1906.66
565.54	1705.96
565.74	1798.12
565.93	1742.82
566.13	1742.82
566.32	1769.44
566.52	1761.25
566.71	1769.44
566.91	1791.97
567.11	1710.05
567.30	1677.29
567.50	1808.36
567.69	1806.31
567.89	1724.39
568.08	1693.67
568.28	1761.25
568.47	1718.25
568.67	1855.46
568.86	1732.58
569.06	1781.73
569.25	1621.99
569.45	1693.67
569.64	1724.39
569.84	1671.14
570.04	1794.02
570.23	1769.44
570.43	1785.83
570.62	1763.30
570.82	1853.41
571.01	1763.30
571.21	1681.38
571.40	1617.90
571.60	1767.40
571.79	1779.68
571.99	1728.49
572.18	1746.92
572.38	1806.31
572.57	1728.49
572.77	1798.12
572.96	1865.70
573.16	1718.25
573.35	1744.87
573.55	1781.73
573.74	1789.92
573.94	1710.05
574.13	1720.29
574.33	1861.60
574.52	1830.88
574.71	1763.30
574.91	1755.11
575.10	1683.43
575.30	1781.73
575.49	1726.44
575.69	1705.96
575.88	1783.78
576.08	1705.96
576.27	1748.97
576.47	1742.82
576.66	1832.93
576.86	1785.83
577.05	1697.77
577.25	1834.98
577.44	1871.84
577.64	1708.01
577.83	1841.12
578.02	1759.21
578.22	1896.42
578.41	1798.12
578.61	1732.58
578.80	1718.25
579.00	1771.49
579.19	1763.30
579.39	1773.54
579.58	1861.60
579.77	1751.01
579.97	1804.26
580.16	1894.37
580.36	1789.92
580.55	1824.74
580.75	1759.21
580.94	1755.11
581.13	1839.08
581.33	1859.56
581.52	1779.68
581.72	1980.39
581.91	1822.69
582.11	1744.87
582.30	1857.51
582.49	1787.88
582.69	1789.92
582.88	1785.83
583.08	1779.68
583.27	1859.56
583.47	1716.20
583.66	1689.57
583.85	1697.77
584.05	1791.97
584.24	1759.21
584.44	1775.59
584.63	1890.28
584.82	1777.64
585.02	1871.84
585.21	1787.88
585.41	1802.21
585.60	1867.75
585.79	1939.43
585.99	1910.75
586.18	1845.22
586.37	2156.51
586.57	3354.57
586.76	9817.96
586.96	24221.33
587.15	33869.31
587.34	40394.14
587.54	41592.20
587.73	36333.01
587.93	26187.38
588.12	21286.59
588.31	18511.59
588.51	16383.75
588.70	15036.19
588.89	14059.31
589.09	12459.84
589.28	11241.30
589.47	9269.11
589.67	7921.54
589.86	6393.76
590.06	4906.93
590.25	3913.67
590.44	3153.87
590.64	2559.96
590.83	2238.43
591.02	2103.26
591.22	1992.67
591.41	1888.23
591.60	1806.31
591.80	1947.62
591.99	1734.63
592.18	1808.36
592.38	1834.98
592.57	1814.50
592.76	1796.07
592.96	1800.16
593.15	1808.36
593.34	1861.60
593.54	1789.92
593.73	1873.89
593.92	1773.54
594.12	1802.21
594.31	1734.63
594.50	1888.23
594.70	1865.70
594.89	1875.94
595.08	1720.29
595.28	1785.83
595.47	1882.08
595.66	1834.98
595.86	1681.38
596.05	1753.06
596.24	1744.87
596.43	1861.60
596.63	1767.40
596.82	1722.34
597.01	1787.88
597.21	1828.84
597.40	1740.77
597.59	1794.02
597.79	1744.87
597.98	1839.08
598.17	1724.39
598.36	1763.30
598.56	1787.88
598.75	1755.11
598.94	1718.25
599.14	1746.92
599.33	1761.25
599.52	1765.35
599.71	1718.25
599.91	1757.16
600.10	1828.84
600.29	1710.05
600.48	1765.35
600.68	1785.83
600.87	1726.44
601.06	1697.77
601.26	1746.92
601.45	1718.25
601.64	1779.68
601.83	1800.16
602.03	1712.10
602.22	1685.48
602.41	1814.50
602.60	1845.22
602.80	1847.27
602.99	1757.16
603.18	1730.53
603.37	1785.83
603.57	1779.68
603.76	1847.27
603.95	1832.93
604.14	1689.57
604.34	1759.21
604.53	1804.26
604.72	1726.44
604.91	1789.92
605.10	1820.64
605.30	1726.44
605.49	1863.65
605.68	1837.03
605.87	1800.16
606.07	1753.06
606.26	1734.63
606.45	1800.16
606.64	1787.88
606.84	1785.83
607.03	1718.25
607.22	1773.54
607.41	1650.66
607.60	1710.05
607.80	1744.87
607.99	1738.73
608.18	1783.78
608.37	1738.73
608.56	1705.96
608.76	1806.31
608.95	1800.16
609.14	1746.92
609.33	1740.77
609.52	1894.37
609.72	1794.02
609.91	1804.26
610.10	1783.78
610.29	1863.65
610.48	1779.68
610.68	1671.14
610.87	1658.85
611.06	1746.92
611.25	1753.06
611.44	1785.83
611.63	1703.91
611.83	1818.60
612.02	1675.24
612.21	1867.75
612.40	1642.47
612.59	1687.53
612.79	1656.81
612.98	1777.64
613.17	1798.12
613.36	1781.73
613.55	1806.31
613.74	1648.61
613.93	1781.73
614.13	1759.21
614.32	1710.05
614.51	1748.97
614.70	1642.47
614.89	1693.67
615.08	1769.44
615.28	2117.60
615.47	1697.77
615.66	1771.49
615.85	1779.68
616.04	1869.80
616.23	1748.97
616.42	1697.77
616.62	1845.22
616.81	1751.01
617.00	1830.88
617.19	1777.64
617.38	1718.25
617.57	1714.15
617.76	1763.30
617.95	1794.02
618.15	1742.82
618.34	1802.21
618.53	1660.90
618.72	1779.68
618.91	1828.84
619.10	1859.56
619.29	1734.63
619.48	1810.40
619.68	1675.24
619.87	1722.34
620.06	1591.27
620.25	1759.21
620.44	1751.01
620.63	1740.77
620.82	1714.15
621.01	1765.35
621.20	1708.01
621.39	1730.53
621.59	1701.86
621.78	1708.01
621.97	1794.02
622.16	1796.07
622.35	1724.39
622.54	1765.35
622.73	1841.12
622.92	1632.23
623.11	1822.69
623.30	1714.15
623.49	1824.74
623.68	1722.34
623.88	1773.54
624.07	1660.90
624.26	1751.01
624.45	1667.05
624.64	1708.01
624.83	1742.82
625.02	1683.43
625.21	1757.16
625.40	1683.43
625.59	1880.04
625.78	1763.30
625.97	1755.11
626.16	1734.63
626.35	1798.12
626.54	1771.49
626.74	1853.41
626.93	1746.92
627.12	1724.39
627.31	1767.40
627.50	1783.78
627.69	1855.46
627.88	1699.81
628.07	1705.96
628.26	1613.80
628.45	1681.38
628.64	1730.53
628.83	1734.63
629.02	1738.73
629.21	1767.40
629.40	1728.49
629.59	1701.86
629.78	1734.63
629.97	1742.82
630.16	1613.80
630.35	1675.24
630.54	1718.25
630.73	1722.34
630.92	1603.56
631.11	1742.82
631.30	1734.63
631.49	1699.81
631.68	1777.64
631.87	1724.39
632.06	1673.19
632.25	1875.94
632.44	1789.92
632.63	1789.92
632.82	1681.38
633.01	1660.90
633.20	1697.77
633.39	1708.01
633.58	1667.05
633.77	1775.59
633.96	1748.97
634.15	1804.26
634.34	1716.20
634.53	1687.53
634.72	1658.85
634.91	1617.90
635.10	1763.30
635.29	1777.64
635.48	1736.68
635.67	1718.25
635.86	1652.71
636.05	1867.75
636.24	1742.82
636.43	1832.93
636.62	1755.11
636.81	1652.71
637.00	1705.96
637.19	1816.55
637.38	1773.54
637.57	1738.73
637.76	1746.92
637.95	1771.49
638.14	1724.39
638.33	1722.34
638.52	1738.73
638.71	1730.53
638.89	1624.04
639.08	1791.97
639.27	1773.54
639.46	1769.44
639.65	1847.27
639.84	1761.25
640.03	1804.26
640.22	1669.09
640.41	1826.79
640.60	1705.96
640.79	1720.29
640.98	1732.58
641.17	1734.63
641.36	1818.60
641.55	1740.77
641.74	1648.61
641.92	1654.76
642.11	1646.57
642.30	1765.35
642.49	1697.77
642.68	1740.77
642.87	1787.88
643.06	1726.44
643.25	1755.11
643.44	1650.66
643.63	1722.34
643.82	1832.93
644.00	1705.96
644.19	1714.15
644.38	1628.14
644.57	1783.78
644.76	1705.96
644.95	1748.97
645.14	1683.43
645.33	1705.96
645.52	1763.30
645.71	1685.48
645.89	1685.48
646.08	1740.77
646.27	1712.10
646.46	1882.08
646.65	1714.15
646.84	1753.06
647.03	1615.85
647.22	1785.83
647.40	1710.05
647.59	1718.25
647.78	1562.60
647.97	1718.25
648.16	1638.38
648.35	1802.21
648.54	1738.73
648.73	1703.91
648.91	1748.97
649.10	1730.53
649.29	1728.49
649.48	1726.44
649.67	1714.15
649.86	1738.73
650.05	1779.68
650.23	1685.48
650.42	1624.04
650.61	1751.01
650.80	1785.83
650.99	1769.44
651.18	1791.97
651.36	1837.03
651.55	1691.62
651.74	1751.01
651.93	1746.92
652.12	1759.21
652.31	1732.58
652.49	1724.39
652.68	1675.24
652.87	1748.97
653.06	1746.92
653.25	1800.16
653.44	1730.53
653.62	1855.46
653.81	1751.01
654.00	1763.30
654.19	1755.11
654.38	1871.84
654.56	1753.06
654.75	1708.01
654.94	1808.36
655.13	1736.68
655.32	1714.15
655.51	1695.72
655.69	1689.57
655.88	1812.45
656.07	1755.11
656.26	1728.49
656.45	1650.66
656.63	1681.38
656.82	1806.31
657.01	1755.11
657.20	1677.29
657.38	1765.35
657.57	1738.73
657.76	1634.28
657.95	1742.82
658.14	1675.24
658.32	1744.87
658.51	1757.16
658.70	1794.02
658.89	1679.33
659.08	1673.19
659.26	1853.41
659.45	1681.38
659.64	1679.33
659.83	1660.90
660.01	1896.42
660.20	1794.02
660.39	1787.88
660.58	1585.13
660.76	1757.16
660.95	1689.57
661.14	1802.21
661.33	1630.18
661.51	1636.33
661.70	1695.72
661.89	1722.34
662.08	1796.07
662.26	1658.85
662.45	1648.61
662.64	1849.32
662.83	1759.21
663.01	1720.29
663.20	1685.48
663.39	1751.01
663.58	1669.09
663.76	1714.15
663.95	1859.56
664.14	1689.57
664.32	1685.48
664.51	1695.72
664.70	1705.96
664.89	1746.92
665.07	1681.38
665.26	1755.11
665.45	1701.86
665.64	1787.88
665.82	1683.43
666.01	1824.74
666.20	1708.01
666.38	1849.32
666.57	1904.61
666.76	2242.53
666.95	4550.59
667.13	10291.04
667.32	15318.81
667.51	17807.09
667.69	19105.50
667.88	17618.68
668.07	12269.38
668.25	9502.58
668.44	8120.20
668.63	7327.63
668.81	6551.45
669.00	6180.77
669.19	5738.41
669.38	5154.74
669.56	4597.69
669.75	3968.96
669.94	3432.40
670.12	2947.03
670.31	2588.63
670.50	2271.20
670.68	2060.26
670.87	1959.91
671.06	1857.51
671.24	1765.35
671.43	1832.93
671.62	1701.86
671.80	1705.96
671.99	1734.63
672.18	1757.16
672.36	1767.40
672.55	1724.39
672.74	1671.14
672.92	1765.35
673.11	1787.88
673.29	1759.21
673.48	1820.64
673.67	1771.49
673.85	1769.44
674.04	1734.63
674.23	1755.11
674.41	1871.84
674.60	1566.70
674.79	1669.09
674.97	1757.16
675.16	1660.90
675.34	1837.03
675.53	1761.25
675.72	1783.78
675.90	1849.32
676.09	1718.25
676.28	1736.68
676.46	1595.37
676.65	1753.06
676.83	1705.96
677.02	1761.25
677.21	1796.07
677.39	1740.77
677.58	1673.19
677.77	1759.21
677.95	1738.73
678.14	1648.61
678.32	1781.73
678.51	1609.70
678.70	1888.23
678.88	1695.72
679.07	1699.81
679.25	1718.25
679.44	1689.57
679.63	1701.86
679.81	1669.09
680.00	1820.64
680.18	1714.15
680.37	1851.36
680.55	1689.57
680.74	1665.00
680.93	1554.41
681.11	1712.10
681.30	1718.25
681.48	1773.54
681.67	1728.49
681.85	1714.15
682.04	1689.57
682.23	1769.44
682.41	1710.05
682.60	1724.39
682.78	1669.09
682.97	1687.53
683.15	1757.16
683.34	1765.35
683.53	1863.65
683.71	1708.01
683.90	1820.64
684.08	1804.26
684.27	1714.15
684.45	1783.78
684.64	1789.92
684.82	1742.82
685.01	1755.11
685.19	1755.11
685.38	1861.60
685.57	1773.54
685.75	1722.34
685.94	1716.20
686.12	1685.48
686.31	1624.04
686.49	1843.17
686.68	1617.90
686.86	1722.34
687.05	1720.29
687.23	1783.78
687.42	1718.25
687.60	1660.90
687.79	1781.73
687.97	1843.17
688.16	1787.88
688.34	1794.02
688.53	1640.42
688.71	1732.58
688.90	1763.30
689.08	1667.05
689.27	1669.09
689.45	1746.92
689.64	1722.34
689.82	1746.92
690.01	1691.62
690.19	1732.58
690.38	1701.86
690.56	1787.88
690.75	1665.00
690.93	1673.19
691.12	1736.68
691.30	1687.53
691.49	1818.60
691.67	1697.77
691.86	1896.42
692.04	1665.00
692.23	1628.14
692.41	1689.57
692.60	1896.42
692.78	1802.21
692.97	1679.33
693.15	1775.59
693.34	1820.64
693.52	1748.97
693.71	1683.43
693.89	1683.43
694.08	1648.61
694.26	1763.30
694.44	1767.40
694.63	1787.88
694.81	1689.57
695.00	1734.63
695.18	1746.92
695.37	1873.89
695.55	1667.05
695.74	1650.66
695.92	1615.85
696.10	1767.40
696.29	1667.05
696.47	1691.62
696.66	1613.80
696.84	1703.91
697.03	1757.16
697.21	1812.45
697.40	2394.08
697.58	1808.36
697.76	1716.20
697.95	1691.62
698.13	1667.05
698.32	1763.30
698.50	1769.44
698.68	1705.96
698.87	1783.78
699.05	1757.16
699.24	1769.44
699.42	1734.63
699.61	1730.53
699.79	1714.15
699.97	1816.55
700.16	1763.30
700.34	1634.28
700.53	1691.62
700.71	1791.97
700.89	1685.48
701.08	1744.87
701.26	1732.58
701.45	2103.26
701.63	1656.81
701.81	1687.53
702.00	1701.86
702.18	1732.58
702.37	1640.42
702.55	1789.92
702.73	1767.40
702.92	1619.94
703.10	1779.68
703.28	1677.29
703.47	1691.62
703.65	1781.73
703.84	1769.44
704.02	1736.68
704.20	1791.97
704.39	1662.95
704.57	1691.62
704.75	1822.69
704.94	1740.77
705.12	1789.92
705.30	1869.80
705.49	2379.74
705.67	4339.65
705.86	9308.02
706.04	12556.10
706.22	14339.88
706.41	15193.88
706.59	13717.29
706.77	9590.64
706.96	7225.23
707.14	6410.14
707.32	5928.87
707.51	5490.60
707.69	4818.87
707.87	4188.10
708.06	3516.36
708.24	2967.51
708.42	2369.50
708.61	2330.59
708.79	1955.81
708.97	1861.60
709.16	1763.30
709.34	1779.68
709.52	1757.16
709.71	1689.57
709.89	1775.59
710.07	1726.44
710.26	1763.30
710.44	1722.34
710.62	1867.75
710.80	1697.77
710.99	1837.03
711.17	1751.01
711.35	1751.01
711.54	1716.20
711.72	1822.69
711.90	1703.91
712.09	1726.44
712.27	1671.14
712.45	1759.21
712.63	1636.33
712.82	1740.77
713.00	1718.25
713.18	1693.67
713.37	1699.81
713.55	1837.03
713.73	1746.92
713.91	1695.72
714.10	1695.72
714.28	1654.76
714.46	1775.59
714.65	1746.92
714.83	1824.74
715.01	1736.68
715.19	1697.77
715.38	1660.90
715.56	1689.57
715.74	1566.70
715.92	1679.33
716.11	1697.77
716.29	1638.38
716.47	1718.25
716.65	1673.19
716.84	1611.75
717.02	1738.73
717.20	1583.08
717.38	1619.94
717.57	1677.29
717.75	1681.38
717.93	1720.29
718.11	1781.73
718.30	1699.81
718.48	1691.62
718.66	1820.64
718.84	1728.49
719.03	1703.91
719.21	1644.52
719.39	1791.97
719.57	1779.68
719.75	1837.03
719.94	1718.25
720.12	1763.30
720.30	1687.53
720.48	1820.64
720.67	1765.35
720.85	1660.90
721.03	1718.25
721.21	1619.94
721.39	1724.39
721.58	1705.96
721.76	1699.81
721.94	1718.25
722.12	1718.25
722.30	1826.79
722.49	1640.42
722.67	1621.99
722.85	1746.92
723.03	1677.29
723.21	1660.90
723.40	1730.53
723.58	1681.38
723.76	1759.21
723.94	1851.36
724.12	1742.82
724.30	1779.68
724.49	1724.39
724.67	1626.09
724.85	1787.88
725.03	1642.47
725.21	1810.40
725.40	1681.38
725.58	1660.90
725.76	1746.92
725.94	1771.49
726.12	1595.37
726.30	1730.53
726.49	1716.20
726.67	1619.94
726.85	1789.92
727.03	1773.54
727.21	2191.33
727.39	2887.64
727.57	3801.03
727.76	4181.95
727.94	4550.59
728.12	4442.04
728.30	3676.10
728.48	2977.75
728.66	2691.03
728.84	2521.05
729.03	2322.40
729.21	2176.99
729.39	2019.30
729.57	1900.52
729.75	1777.64
729.93	1824.74
730.11	1759.21
730.30	1603.56
730.48	1697.77
730.66	1757.16
730.84	1771.49
731.02	1755.11
731.20	1703.91
731.38	1689.57
731.56	1591.27
731.74	1617.90
731.93	1744.87
732.11	1705.96
732.29	1685.48
732.47	1728.49
732.65	1853.41
732.83	1824.74
733.01	1781.73
733.19	1718.25
733.37	1828.84
733.56	1746.92
733.74	1640.42
733.92	1826.79
734.10	1648.61
734.28	1740.77
734.46	1671.14
734.64	1755.11
734.82	1738.73
735.00	1646.57
735.18	1722.34
735.36	1720.29
735.54	1683.43
735.73	1742.82
735.91	1695.72
736.09	1744.87
736.27	1708.01
736.45	1753.06
736.63	1611.75
736.81	1718.25
736.99	1736.68
737.17	1810.40
737.35	1722.34
737.53	1765.35
737.71	1726.44
737.89	1802.21
738.07	1722.34
738.25	1605.61
738.43	1619.94
738.61	1728.49
738.80	1691.62
738.98	1611.75
739.16	1638.38
739.34	1626.09
739.52	1794.02
739.70	1685.48
739.88	1746.92
740.06	1742.82
740.24	1683.43
740.42	1791.97
740.60	1662.95
740.78	1656.81
740.96	1566.70
741.14	1644.52
741.32	1826.79
741.50	1671.14
741.68	1890.28
741.86	1724.39
742.04	1642.47
742.22	1732.58
742.40	1708.01
742.58	1691.62
742.76	1673.19
742.94	1767.40
743.12	1660.90
743.30	1718.25
743.48	1796.07
743.66	1671.14
743.84	1763.30
744.02	1665.00
744.20	1695.72
744.38	1650.66
744.56	1710.05
744.74	1830.88
744.92	1808.36
745.10	1751.01
745.28	1773.54
745.46	1863.65
745.64	1630.18
745.82	1759.21
746.00	1660.90
746.18	1736.68
746.36	1687.53
746.54	1761.25
746.72	1681.38
746.90	1716.20
747.08	1705.96
747.26	1636.33
747.44	1705.96
747.62	1730.53
747.80	1714.15
747.98	1798.12
748.15	1675.24
748.33	1839.08
748.51	1705.96
748.69	1759.21
748.87	1658.85
749.05	1734.63
749.23	1726.44
749.41	1722.34
749.59	1771.49
749.77	1736.68
749.95	1658.85
750.13	1656.81
750.31	1769.44
750.49	1718.25
750.67	1718.25
750.85	1822.69
751.03	1671.14
751.20	1806.31
751.38	1662.95
751.56	1738.73
751.74	1673.19
751.92	1650.66
752.10	1611.75
752.28	1796.07
752.46	1675.24
752.64	1679.33
752.82	1665.00
753.00	1742.82
753.18	1697.77
753.35	1679.33
753.53	1681.38
753.71	1683.43
753.89	1705.96
754.07	1757.16
754.25	1798.12
754.43	1701.86
754.61	1656.81
754.79	1732.58
754.97	1708.01
755.14	1726.44
755.32	1648.61
755.50	1710.05
755.68	1730.53
755.86	1658.85
756.04	1667.05
756.22	1597.42
756.40	1810.40
756.57	1853.41
756.75	1710.05
756.93	1812.45
757.11	1765.35
757.29	1589.22
757.47	1701.86
757.65	1652.71
757.82	1593.32
758.00	1613.80
758.18	1673.19
758.36	1656.81
758.54	1796.07
758.72	1607.66
758.90	1734.63
759.07	1673.19
759.25	1732.58
759.43	1734.63
759.61	1722.34
759.79	2142.18
759.97	1787.88
760.15	1738.73
760.32	1785.83
760.50	1755.11
760.68	1802.21
760.86	1619.94
761.04	1746.92
761.22	1785.83
761.39	1708.01
761.57	1765.35
761.75	1632.23
761.93	1759.21
762.11	1679.33
762.28	1753.06
762.46	1611.75
762.64	1796.07
762.82	1650.66
763.00	1757.16
763.18	1755.11
763.35	1628.14
763.53	1755.11
763.71	1728.49
763.89	1673.19
764.07	1665.00
764.24	1705.96
764.42	1710.05
764.60	1611.75
764.78	1740.77
764.96	1763.30
765.13	1755.11
765.31	1667.05
765.49	1765.35
765.67	1628.14
765.84	1730.53
766.02	1658.85
766.20	1683.43
766.38	1732.58
766.56	1779.68
766.73	1705.96
766.91	1689.57
767.09	1746.92
767.27	1726.44
767.44	1660.90
767.62	1716.20
767.80	1742.82
767.98	1718.25
768.15	1667.05
768.33	1751.01
768.51	1787.88
768.69	1708.01
768.87	1722.34
769.04	1681.38
769.22	1884.13
769.40	1791.97
769.58	1832.93
769.75	1724.39
769.93	1822.69
770.11	1640.42
770.28	1746.92
770.46	1806.31
770.64	1726.44
770.82	1687.53
770.99	1718.25
771.17	1726.44
771.35	1689.57
771.53	1691.62
771.70	1736.68
771.88	1755.11
772.06	1689.57
772.23	1775.59
772.41	1773.54
772.59	1712.10
772.77	1687.53
772.94	1689.57
773.12	1728.49
773.30	1714.15
773.47	1681.38
773.65	1617.90
773.83	1773.54
774.01	1683.43
774.18	1656.81
774.36	1714.15
774.54	1634.28
774.71	1710.05
774.89	1621.99
775.07	1683.43
775.24	1634.28
775.42	1640.42
775.60	1822.69
775.78	1644.52
775.95	1615.85
776.13	1662.95
776.31	1548.26
776.48	1746.92
776.66	1816.55
776.84	1730.53
777.01	1648.61
777.19	1583.08
777.37	1669.09
777.54	1710.05
777.72	1779.68
777.90	1751.01
778.07	1710.05
778.25	1914.85
778.43	1779.68
778.60	1656.81
778.78	1753.06
778.96	1771.49
779.13	1658.85
779.31	1800.16
779.49	1718.25
779.66	1658.85
779.84	1695.72
780.01	1656.81
780.19	1732.58
780.37	1724.39
780.54	1771.49
780.72	1658.85
780.90	1648.61
781.07	1759.21
781.25	1658.85
781.43	1765.35
781.60	1726.44
781.78	1880.04
781.95	1685.48
782.13	1755.11
782.31	1687.53
782.48	1587.18
782.66	1785.83
782.83	1814.50
783.01	1699.81
783.19	1708.01
783.36	1681.38
783.54	1755.11
783.72	1857.51
783.89	1642.47
784.07	1683.43
784.24	1658.85
784.42	1742.82
784.60	1693.67
784.77	1724.39
784.95	1638.38
785.12	1701.86
785.30	1710.05
785.47	1695.72
785.65	1677.29
785.83	1687.53
786.00	1689.57
786.18	1689.57
786.35	1611.75
786.53	1591.27
786.71	1763.30
786.88	1730.53
787.06	1714.15
787.23	1703.91
787.41	1603.56
787.58	1744.87
787.76	1718.25
787.94	1742.82
788.11	1640.42
788.29	1718.25
788.46	1689.57
788.64	1718.25
788.81	1613.80
788.99	1699.81
789.16	1665.00
789.34	1763.30
789.52	1679.33
789.69	1658.85
789.87	1589.22
790.04	1738.73
790.22	1683.43
790.39	1806.31
790.57	1648.61
790.74	1697.77
790.92	1738.73
791.09	1601.51
791.27	1669.09
791.44	1804.26
791.62	1722.34
791.79	1671.14
791.97	1660.90
792.15	1855.46
792.32	1681.38
792.50	1757.16
792.67	1744.87
792.85	1712.10
793.02	1744.87
793.20	1656.81
793.37	1605.61
793.55	1753.06
793.72	1621.99
793.90	1771.49
794.07	1636.33
794.25	1665.00
794.42	1720.29
794.60	1767.40
794.77	1755.11
794.95	1705.96
795.12	1814.50
795.30	1759.21
795.47	1626.09
795.65	1877.99
795.82	1775.59
796.00	1630.18
796.17	1652.71
796.34	1665.00
796.52	1695.72
796.69	1769.44
796.87	1736.68
797.04	1763.30
797.22	1814.50
797.39	1724.39
797.57	1751.01
797.74	1695.72
797.92	1714.15
798.09	1652.71
798.27	1777.64
798.44	1748.97
798.62	1671.14
798.79	1697.77
798.96	1751.01
799.14	1689.57
799.31	1845.22
799.49	1658.85
799.66	1619.94
799.84	1763.30
800.01	1607.66
800.19	1716.20
800.36	1648.61
800.53	1699.81
800.71	1636.33
800.88	1777.64
801.06	1691.62
801.23	1703.91
801.41	1712.10
801.58	1699.81
801.75	1691.62
801.93	1708.01
802.10	1771.49
802.28	1697.77
802.45	1669.09
802.63	1710.05
802.80	1710.05
802.97	1751.01
803.15	1679.33
803.32	1732.58
803.50	1648.61
803.67	1710.05
803.84	1660.90
804.02	1691.62
804.19	1683.43
804.37	1560.55
804.54	1599.46
804.71	1693.67
804.89	1714.15
805.06	1681.38
805.24	1693.67
805.41	1640.42
805.58	1681.38
805.76	1814.50
805.93	1705.96
806.10	1775.59
806.28	1736.68
806.45	1755.11
806.63	1759.21
806.80	1734.63
806.97	1751.01
807.15	1703.91
807.32	1771.49
807.49	1677.29
807.67	1683.43
807.84	1722.34
808.01	1630.18
808.19	1837.03
808.36	1767.40
808.54	1714.15
808.71	1699.81
808.88	1699.81
809.06	1746.92
809.23	1796.07
809.40	1716.20
809.58	1845.22
809.75	1728.49
809.92	1632.23
810.10	1800.16
810.27	1716.20
810.44	1724.39
810.62	1761.25
810.79	1759.21
810.96	1675.24
811.14	1660.90
811.31	1783.78
811.48	1804.26
811.66	1675.24
811.83	1738.73
812.00	1796.07
812.18	1722.34
812.35	1845.22
812.52	1636.33
812.69	1677.29
812.87	1728.49
813.04	1665.00
813.21	1699.81
813.39	1605.61
813.56	1665.00
813.73	1773.54
813.91	1705.96
814.08	1708.01
814.25	1732.58
814.42	1626.09
814.60	1669.09
814.77	1708.01
814.94	1673.19
815.12	1644.52
815.29	1828.84
815.46	1722.34
815.63	1679.33
815.81	1748.97
815.98	1712.10
816.15	1689.57
816.33	1685.48
816.50	1607.66
816.67	1712.10
816.84	1681.38
817.02	1615.85
817.19	1624.04
817.36	1718.25
817.53	1718.25
817.71	1675.24
817.88	1724.39
818.05	1613.80
818.22	1667.05
818.40	1830.88
818.57	1667.05
818.74	1753.06
818.91	1763.30
819.09	1757.16
819.26	1695.72
819.43	1697.77
819.60	1646.57
819.78	1738.73
819.95	1818.60
820.12	1685.48
820.29	1757.16
820.47	1810.40
820.64	1673.19
820.81	1599.46
820.98	1673.19
821.15	1742.82
821.33	1777.64
821.50	1632.23
821.67	1748.97
821.84	1722.34
822.02	1820.64
822.19	1824.74
822.36	1669.09
822.53	1710.05
822.70	1697.77
822.88	1714.15
823.05	1730.53
823.22	1687.53
823.39	1648.61
823.56	1669.09
823.74	1775.59
823.91	1675.24
824.08	1716.20
824.25	1708.01
824.42	1865.70
824.60	1658.85
824.77	1720.29
824.94	1746.92
825.11	1773.54
825.28	1632.23
825.45	1677.29
825.63	1767.40
825.80	1619.94
825.97	1802.21
826.14	1714.15
826.31	1591.27
826.48	1755.11
826.66	1599.46
826.83	1685.48
827.00	1718.25
827.17	1730.53
827.34	1705.96
827.51	1638.38
827.69	1734.63
827.86	1628.14
828.03	1656.81
828.20	1746.92
828.37	1738.73
828.54	1738.73
828.71	1736.68
828.89	1873.89
829.06	1726.44
829.23	1734.63
829.40	1769.44
829.57	1693.67
829.74	1683.43
829.91	1660.90
830.09	1734.63
830.26	1712.10
830.43	1832.93
830.60	1689.57
830.77	1646.57
830.94	1734.63
831.11	1806.31
831.28	1722.34
831.46	1746.92
831.63	1619.94
831.80	1804.26
831.97	1648.61
832.14	1636.33
832.31	1675.24
832.48	1691.62
832.65	1734.63
832.82	1708.01
832.99	1720.29
833.17	1738.73
833.34	1837.03
833.51	1748.97
833.68	1640.42
833.85	1677.29
834.02	1691.62
834.19	1615.85
834.36	1736.68
834.53	1654.76
834.70	1796.07
834.87	1740.77
835.04	1716.20
835.22	1683.43
835.39	1658.85
835.56	1624.04
835.73	1673.19
835.90	1816.55
836.07	1681.38
836.24	1738.73
836.41	1722.34
836.58	1689.57
836.75	1761.25
836.92	1767.40
837.09	1689.57
837.26	1800.16
837.43	1820.64
837.60	1683.43
837.77	1708.01
837.94	1718.25
838.12	1751.01
838.29	1701.86
838.46	1632.23
838.63	1671.14
838.80	1738.73
838.97	1769.44
839.14	1646.57
839.31	1718.25
839.48	1781.73
839.65	1669.09
839.82	1730.53
839.99	1708.01
840.16	1689.57
840.33	1665.00
840.50	1712.10
840.67	1644.52
840.84	1667.05
841.01	1697.77
841.18	1714.15
841.35	1708.01
841.52	1761.25
841.69	1810.40
841.86	1769.44
842.03	1617.90
842.20	1773.54
842.37	1701.86
842.54	1765.35
842.71	1763.30
842.88	1593.32
843.05	1763.30
843.22	1697.77
843.39	1699.81
843.56	1613.80
843.73	1705.96
843.90	1730.53
844.07	1716.20
844.24	1791.97
844.41	1685.48
844.58	1681.38
844.75	1703.91
844.92	1734.63
845.09	1624.04
845.26	1658.85
845.43	1673.19
845.60	1746.92
845.77	1789.92
845.94	1689.57
846.10	1722.34
846.27	1593.32
846.44	1654.76
846.61	1667.05
846.78	1738.73
846.95	1730.53
847.12	1693.67
847.29	1740.77
847.46	1650.66
847.63	1781.73
847.80	1705.96
847.97	1693.67
848.14	1824.74
848.31	1648.61
848.48	1656.81
848.65	1751.01
848.82	1665.00
848.98	1834.98
849.15	1691.62
849.32	1701.86
849.49	1800.16
849.66	1667.05
849.83	1724.39
850.00	1658.85
850.17	1710.05
850.34	1683.43
850.51	1634.28
850.68	1640.42
850.85	1847.27
851.01	1609.70
851.18	1744.87
851.35	1656.81
851.52	1679.33
851.69	1753.06
851.86	1578.98
852.03	1755.11
852.20	1818.60
852.37	1763.30
852.53	1615.85
852.70	1771.49
852.87	1710.05
853.04	1779.68
853.21	1689.57
853.38	1671.14
853.55	1703.91
853.72	1781.73
853.89	1656.81
854.05	1658.85
854.22	1665.00
854.39	1658.85
854.56	1701.86
854.73	1736.68
854.90	1669.09
855.07	1697.77
855.23	1693.67
855.40	1675.24
855.57	1685.48
855.74	1576.94
855.91	1849.32
856.08	1665.00
856.25	1679.33
856.41	1675.24
856.58	1611.75
856.75	1687.53
856.92	1660.90
857.09	1705.96
857.26	1671.14
857.42	1724.39
857.59	1726.44
857.76	1695.72
857.93	1712.10
858.10	1689.57
858.27	1648.61
858.43	1796.07
858.60	1615.85
858.77	1601.51
858.94	1595.37
859.11	1886.18
859.27	1716.20
859.44	1753.06
859.61	1751.01
859.78	1753.06
859.95	1591.27
860.12	1759.21
860.28	1873.89
860.45	1755.11
860.62	1626.09
860.79	1708.01
860.95	1730.53
861.12	1738.73
861.29	1759.21
861.46	1654.76
861.63	1710.05
861.79	1771.49
861.96	1617.90
862.13	1671.14
862.30	1763.30
862.47	1753.06
862.63	1642.47
862.80	1812.45
862.97	1746.92
863.14	1736.68
863.30	1705.96
863.47	1613.80
863.64	1759.21
863.81	1746.92
863.97	1687.53
864.14	1726.44
864.31	1673.19
864.48	1744.87
864.65	1654.76
864.81	1710.05
864.98	1746.92
865.15	1701.86
865.32	1695.72
865.48	1773.54
865.65	1742.82
865.82	1634.28
865.98	1705.96
866.15	1767.40
866.32	1755.11
866.49	1628.14
866.65	1787.88
866.82	1652.71
866.99	1775.59
867.16	1689.57
867.32	1667.05
867.49	1669.09
867.66	1673.19
867.83	1687.53
867.99	1703.91
868.16	1714.15
868.33	1691.62
868.49	1695.72
868.66	1632.23
868.83	1734.63
868.99	1775.59
869.16	1673.19
869.33	1841.12
869.50	1791.97
869.66	1681.38
869.83	1683.43
870.00	1628.14
870.16	1767.40
870.33	1695.72
870.50	1722.34
870.66	1730.53
870.83	1837.03
871.00	1722.34
871.17	1722.34
871.33	1820.64
871.50	1648.61
871.67	1648.61
871.83	1656.81
872.00	1806.31
872.17	1730.53
872.33	1771.49
872.50	1777.64
872.67	1720.29
872.83	1617.90
873.00	1685.48
873.17	1826.79
873.33	1732.58
873.50	1708.01
873.67	1613.80
873.83	1615.85
874.00	1753.06
874.16	1722.34
874.33	1789.92
874.50	1722.34
874.66	1740.77
874.83	1697.77
875.00	1710.05
875.16	1802.21
875.33	1853.41
875.50	1640.42
875.66	1679.33
875.83	1726.44
875.99	1742.82
876.16	1708.01
876.33	1650.66
876.49	1753.06
876.66	1720.29
876.83	1712.10
876.99	1628.14
877.16	1634.28
877.32	1748.97
877.49	1640.42
877.66	1755.11
877.82	1757.16
877.99	1742.82
878.15	1738.73
878.32	1681.38
878.49	1746.92
878.65	1624.04
878.82	1787.88
878.98	1722.34
879.15	1669.09
879.32	1757.16
879.48	1703.91
879.65	1710.05
879.81	1597.42
879.98	1699.81
880.15	1714.15
880.31	1742.82
880.48	1667.05
880.64	1755.11
880.81	1748.97
880.97	1806.31
881.14	1800.16
881.31	1658.85
881.47	1857.51
881.64	1699.81
881.80	1718.25
881.97	1742.82
882.13	1744.87
882.30	1566.70
882.47	1605.61
882.63	1677.29
882.80	1689.57
882.96	1667.05
883.13	1808.36
883.29	1697.77
883.46	1687.53
883.62	1748.97
883.79	1718.25
883.95	1738.73
884.12	1742.82
884.29	1738.73
884.45	1697.77
884.62	1722.34
884.78	1630.18
884.95	1759.21
885.11	1689.57
885.28	1724.39
885.44	1609.70
885.61	1748.97
885.77	1822.69
885.94	1734.63
886.10	1740.77
886.27	1730.53
886.43	1751.01
886.60	1710.05
886.76	1632.23
886.93	1644.52
887.09	1689.57
887.26	1605.61
887.42	1734.63
887.59	1814.50
887.75	1873.89
887.92	1751.01
888.08	1763.30
888.25	1810.40
888.41	1787.88
888.58	1738.73
888.74	1714.15
888.91	1675.24
>>>>>End Processed Spectral Data<<<<<
