SpectraSuite Data File
++++++++++++++++++++++++++++++++++++
Date: Mon Jun 06 14:48:37 CEST 2016
User: root
Dark Spectrum Present: No
Reference Spectrum Present: No
Number of Sampled Component Spectra: 1
Spectrometers: USB4C02835
Integration Time (usec): 100000 (USB4C02835)
Spectra Averaged: 1 (USB4C02835)
Boxcar Smoothing: 0 (USB4C02835)
Correct for Electrical Dark: No (USB4C02835)
Strobe/Lamp Enabled: No (USB4C02835)
Correct for Detector Non-linearity: No (USB4C02835)
Correct for Stray Light: No (USB4C02835)
Number of Pixels in Processed Spectrum: 3648
>>>>>Begin Processed Spectral Data<<<<<
177.47	1443.82
177.69	1443.82
177.91	1443.82
178.13	1388.52
178.36	1476.59
178.58	1671.14
178.80	1701.86
179.02	1699.81
179.24	1660.90
179.46	1675.24
179.68	1753.06
179.90	1701.86
180.13	1640.42
180.35	1624.04
180.57	1720.29
180.79	1716.20
181.01	1613.80
181.23	1697.77
181.45	1791.97
181.67	1683.43
181.90	1716.20
182.12	1779.68
182.34	1583.08
182.56	1697.77
182.78	1746.92
183.00	1697.77
183.22	1724.39
183.44	1566.70
183.66	1863.65
183.89	1751.01
184.11	1669.09
184.33	1714.15
184.55	1769.44
184.77	1755.11
184.99	1697.77
185.21	1646.57
185.43	1806.31
185.65	1691.62
185.87	1662.95
186.10	1843.17
186.32	1783.78
186.54	1705.96
186.76	1683.43
186.98	1701.86
187.20	1740.77
187.42	1714.15
187.64	1677.29
187.86	1675.24
188.08	1765.35
188.30	1751.01
188.52	1751.01
188.75	1759.21
188.97	1806.31
189.19	1689.57
189.41	1697.77
189.63	1689.57
189.85	1763.30
190.07	1648.61
190.29	1581.03
190.51	1753.06
190.73	1607.66
190.95	1767.40
191.17	1685.48
191.39	1574.89
191.61	1693.67
191.84	1695.72
192.06	1751.01
192.28	1613.80
192.50	1949.67
192.72	1757.16
192.94	1658.85
193.16	1734.63
193.38	1675.24
193.60	1607.66
193.82	1662.95
194.04	1800.16
194.26	1701.86
194.48	1662.95
194.70	1591.27
194.92	1728.49
195.14	1609.70
195.36	1667.05
195.58	1755.11
195.80	1730.53
196.02	1656.81
196.24	1748.97
196.46	1705.96
196.69	1689.57
196.91	1841.12
197.13	1720.29
197.35	1720.29
197.57	1857.51
197.79	1699.81
198.01	1677.29
198.23	1740.77
198.45	1695.72
198.67	1632.23
198.89	1761.25
199.11	1667.05
199.33	1648.61
199.55	1540.07
199.77	1740.77
199.99	1738.73
200.21	1609.70
200.43	1722.34
200.65	1576.94
200.87	1617.90
201.09	1665.00
201.31	1697.77
201.53	1761.25
201.75	1658.85
201.97	1634.28
202.19	1652.71
202.41	1740.77
202.63	1890.28
202.85	1796.07
203.07	1697.77
203.29	1681.38
203.51	1617.90
203.73	1648.61
203.95	1755.11
204.17	1705.96
204.39	1759.21
204.61	1695.72
204.83	1671.14
205.05	1742.82
205.27	1720.29
205.49	1828.84
205.71	1669.09
205.93	1607.66
206.15	1576.94
206.37	1681.38
206.59	1689.57
206.81	1656.81
207.03	1576.94
207.25	1638.38
207.47	1695.72
207.69	1665.00
207.91	1738.73
208.13	1796.07
208.34	1615.85
208.56	1564.65
208.78	1724.39
209.00	1605.61
209.22	1740.77
209.44	1660.90
209.66	1642.47
209.88	1705.96
210.10	1714.15
210.32	1642.47
210.54	1804.26
210.76	1738.73
210.98	1771.49
211.20	1609.70
211.42	1667.05
211.64	1773.54
211.86	1665.00
212.08	1738.73
212.30	1761.25
212.52	1726.44
212.74	1765.35
212.96	1671.14
213.17	1779.68
213.39	1796.07
213.61	1736.68
213.83	1714.15
214.05	1665.00
214.27	1669.09
214.49	1728.49
214.71	1609.70
214.93	1804.26
215.15	1652.71
215.37	1746.92
215.59	1615.85
215.81	1808.36
216.03	1800.16
216.24	1638.38
216.46	1730.53
216.68	1734.63
216.90	1683.43
217.12	1779.68
217.34	1785.83
217.56	1689.57
217.78	1763.30
218.00	1757.16
218.22	1755.11
218.44	1734.63
218.66	1691.62
218.87	1828.84
219.09	1691.62
219.31	1730.53
219.53	1724.39
219.75	1624.04
219.97	1619.94
220.19	1699.81
220.41	1722.34
220.63	1765.35
220.85	1738.73
221.06	1607.66
221.28	1820.64
221.50	1714.15
221.72	1708.01
221.94	1712.10
222.16	1703.91
222.38	1736.68
222.60	1751.01
222.82	1691.62
223.03	1703.91
223.25	1656.81
223.47	1742.82
223.69	1845.22
223.91	1748.97
224.13	1640.42
224.35	1665.00
224.57	1644.52
224.78	1681.38
225.00	1665.00
225.22	1734.63
225.44	1728.49
225.66	1800.16
225.88	1695.72
226.10	1691.62
226.32	1751.01
226.53	1798.12
226.75	1683.43
226.97	1650.66
227.19	1730.53
227.41	1574.89
227.63	1716.20
227.85	1628.14
228.06	1697.77
228.28	1734.63
228.50	1775.59
228.72	1644.52
228.94	1636.33
229.16	1576.94
229.37	1683.43
229.59	1689.57
229.81	1812.45
230.03	1695.72
230.25	1648.61
230.47	1665.00
230.69	1632.23
230.90	1712.10
231.12	1599.46
231.34	1712.10
231.56	1775.59
231.78	1667.05
232.00	1718.25
232.21	1656.81
232.43	1626.09
232.65	1529.83
232.87	1710.05
233.09	1587.18
233.30	1689.57
233.52	1814.50
233.74	1730.53
233.96	1718.25
234.18	1734.63
234.40	1736.68
234.61	1834.98
234.83	1589.22
235.05	1669.09
235.27	1814.50
235.49	1794.02
235.70	1777.64
235.92	1734.63
236.14	1732.58
236.36	1845.22
236.58	1669.09
236.79	1785.83
237.01	1675.24
237.23	1658.85
237.45	1787.88
237.67	1642.47
237.88	1638.38
238.10	1812.45
238.32	1685.48
238.54	1722.34
238.76	1806.31
238.97	1667.05
239.19	1656.81
239.41	1746.92
239.63	1779.68
239.85	1679.33
240.06	1648.61
240.28	1671.14
240.50	1761.25
240.72	1609.70
240.93	1718.25
241.15	1753.06
241.37	1773.54
241.59	1677.29
241.81	1701.86
242.02	1755.11
242.24	1732.58
242.46	1751.01
242.68	1654.76
242.89	1697.77
243.11	1796.07
243.33	1689.57
243.55	1791.97
243.76	1726.44
243.98	1693.67
244.20	1732.58
244.42	1634.28
244.64	1699.81
244.85	1671.14
245.07	1673.19
245.29	1742.82
245.51	1738.73
245.72	1681.38
245.94	1722.34
246.16	1705.96
246.38	1763.30
246.59	1589.22
246.81	1656.81
247.03	1632.23
247.24	1667.05
247.46	1669.09
247.68	1800.16
247.90	1714.15
248.11	1716.20
248.33	1697.77
248.55	1652.71
248.77	1671.14
248.98	1796.07
249.20	1808.36
249.42	1652.71
249.64	1742.82
249.85	1701.86
250.07	1658.85
250.29	1714.15
250.50	1740.77
250.72	1662.95
250.94	1652.71
251.16	1820.64
251.37	1791.97
251.59	1734.63
251.81	1748.97
252.02	1787.88
252.24	1675.24
252.46	1820.64
252.68	1673.19
252.89	1708.01
253.11	1679.33
253.33	1818.60
253.54	1746.92
253.76	1730.53
253.98	1605.61
254.20	1673.19
254.41	1685.48
254.63	1634.28
254.85	1632.23
255.06	1665.00
255.28	1734.63
255.50	1677.29
255.71	1683.43
255.93	1589.22
256.15	1730.53
256.36	1742.82
256.58	1703.91
256.80	1740.77
257.02	1656.81
257.23	1732.58
257.45	1648.61
257.67	1708.01
257.88	1650.66
258.10	1724.39
258.32	1658.85
258.53	1767.40
258.75	1787.88
258.97	1617.90
259.18	1648.61
259.40	1701.86
259.62	1730.53
259.83	1732.58
260.05	1701.86
260.27	2060.26
260.48	1751.01
260.70	1652.71
260.92	1736.68
261.13	1642.47
261.35	1722.34
261.57	1730.53
261.78	1597.42
262.00	1722.34
262.22	1775.59
262.43	1660.90
262.65	1652.71
262.86	1648.61
263.08	1820.64
263.30	1714.15
263.51	1677.29
263.73	1660.90
263.95	1787.88
264.16	1656.81
264.38	1591.27
264.60	1703.91
264.81	1687.53
265.03	1724.39
265.25	1796.07
265.46	1763.30
265.68	1791.97
265.89	1738.73
266.11	1632.23
266.33	1755.11
266.54	1789.92
266.76	1730.53
266.98	1691.62
267.19	1742.82
267.41	1726.44
267.62	1683.43
267.84	1601.51
268.06	1669.09
268.27	1728.49
268.49	1714.15
268.70	1734.63
268.92	1722.34
269.14	1632.23
269.35	1548.26
269.57	1665.00
269.79	1734.63
270.00	1685.48
270.22	1726.44
270.43	1636.33
270.65	1644.52
270.87	1791.97
271.08	1658.85
271.30	1789.92
271.51	1710.05
271.73	1650.66
271.95	1746.92
272.16	1724.39
272.38	1783.78
272.59	1587.18
272.81	1705.96
273.02	1691.62
273.24	1759.21
273.46	1765.35
273.67	1677.29
273.89	1689.57
274.10	1689.57
274.32	1697.77
274.54	1746.92
274.75	1685.48
274.97	1648.61
275.18	1767.40
275.40	1650.66
275.61	1695.72
275.83	1677.29
276.05	1658.85
276.26	1607.66
276.48	1775.59
276.69	1673.19
276.91	1621.99
277.12	1777.64
277.34	1785.83
277.55	1765.35
277.77	1714.15
277.99	1724.39
278.20	1615.85
278.42	1681.38
278.63	1609.70
278.85	1640.42
279.06	1640.42
279.28	1736.68
279.49	1777.64
279.71	1781.73
279.93	1691.62
280.14	1728.49
280.36	1615.85
280.57	1763.30
280.79	1775.59
281.00	1626.09
281.22	1628.14
281.43	1708.01
281.65	1566.70
281.86	1703.91
282.08	1742.82
282.29	1785.83
282.51	1671.14
282.73	1689.57
282.94	1597.42
283.16	1787.88
283.37	1775.59
283.59	1744.87
283.80	1681.38
284.02	1677.29
284.23	1710.05
284.45	1681.38
284.66	1671.14
284.88	1572.84
285.09	1748.97
285.31	1697.77
285.52	1724.39
285.74	1599.46
285.95	1699.81
286.17	1791.97
286.38	1730.53
286.60	1738.73
286.81	1656.81
287.03	1626.09
287.24	1650.66
287.46	1722.34
287.67	1794.02
287.89	1810.40
288.10	1708.01
288.32	1665.00
288.53	1824.74
288.75	1685.48
288.96	1773.54
289.18	1656.81
289.39	1638.38
289.61	1761.25
289.82	1775.59
290.04	1777.64
290.25	1640.42
290.47	1734.63
290.68	1658.85
290.90	1834.98
291.11	1595.37
291.33	1759.21
291.54	1562.60
291.76	1671.14
291.97	1658.85
292.18	1726.44
292.40	1632.23
292.61	1685.48
292.83	1783.78
293.04	1789.92
293.26	1701.86
293.47	1763.30
293.69	1634.28
293.90	1699.81
294.12	1753.06
294.33	1734.63
294.55	1656.81
294.76	1800.16
294.97	1755.11
295.19	1812.45
295.40	1626.09
295.62	1638.38
295.83	1767.40
296.05	1673.19
296.26	1753.06
296.48	1656.81
296.69	1705.96
296.90	1689.57
297.12	1722.34
297.33	1781.73
297.55	1669.09
297.76	1728.49
297.98	1736.68
298.19	1650.66
298.41	1660.90
298.62	1646.57
298.83	1740.77
299.05	1716.20
299.26	1662.95
299.48	1681.38
299.69	1693.67
299.90	1708.01
300.12	1675.24
300.33	1720.29
300.55	1673.19
300.76	1701.86
300.98	1570.79
301.19	1695.72
301.40	1603.56
301.62	1718.25
301.83	1794.02
302.05	1701.86
302.26	1677.29
302.47	1718.25
302.69	1658.85
302.90	1712.10
303.12	1578.98
303.33	1759.21
303.54	1847.27
303.76	1714.15
303.97	1732.58
304.19	1791.97
304.40	1767.40
304.61	1673.19
304.83	1718.25
305.04	1755.11
305.26	1732.58
305.47	1689.57
305.68	1693.67
305.90	1638.38
306.11	1714.15
306.33	1636.33
306.54	1726.44
306.75	1697.77
306.97	1640.42
307.18	1703.91
307.39	1652.71
307.61	1718.25
307.82	1615.85
308.04	1628.14
308.25	1695.72
308.46	1665.00
308.68	1697.77
308.89	1658.85
309.10	1732.58
309.32	1714.15
309.53	1609.70
309.74	1699.81
309.96	1638.38
310.17	1693.67
310.39	1665.00
310.60	1714.15
310.81	1769.44
311.03	1628.14
311.24	1757.16
311.45	1720.29
311.67	1814.50
311.88	1687.53
312.09	1687.53
312.31	1699.81
312.52	1669.09
312.73	1673.19
312.95	1599.46
313.16	1730.53
313.37	1822.69
313.59	1640.42
313.80	1757.16
314.01	1830.88
314.23	1626.09
314.44	1644.52
314.65	1619.94
314.87	1693.67
315.08	1736.68
315.29	1615.85
315.51	1628.14
315.72	1660.90
315.93	1775.59
316.15	1783.78
316.36	1697.77
316.57	1697.77
316.79	1738.73
317.00	1689.57
317.21	1728.49
317.43	1710.05
317.64	1728.49
317.85	1687.53
318.07	1683.43
318.28	1751.01
318.49	1820.64
318.70	1912.80
318.92	1779.68
319.13	1785.83
319.34	1867.75
319.56	1857.51
319.77	1873.89
319.98	1810.40
320.20	1736.68
320.41	1685.48
320.62	1734.63
320.83	1611.75
321.05	1804.26
321.26	1718.25
321.47	1705.96
321.69	1802.21
321.90	1644.52
322.11	1683.43
322.32	1753.06
322.54	1783.78
322.75	1695.72
322.96	1839.08
323.18	1595.37
323.39	1660.90
323.60	1615.85
323.81	1722.34
324.03	1640.42
324.24	1671.14
324.45	1769.44
324.66	1710.05
324.88	1767.40
325.09	1787.88
325.30	1732.58
325.52	1726.44
325.73	1712.10
325.94	1644.52
326.15	1617.90
326.37	1603.56
326.58	1701.86
326.79	1826.79
327.00	1615.85
327.22	1742.82
327.43	1689.57
327.64	1630.18
327.85	1714.15
328.07	1703.91
328.28	1720.29
328.49	1681.38
328.70	1712.10
328.92	1665.00
329.13	1689.57
329.34	1691.62
329.55	1720.29
329.76	1779.68
329.98	1619.94
330.19	1730.53
330.40	1712.10
330.61	1697.77
330.83	1722.34
331.04	1634.28
331.25	1697.77
331.46	1638.38
331.68	1646.57
331.89	1720.29
332.10	1781.73
332.31	1669.09
332.52	1628.14
332.74	1837.03
332.95	1675.24
333.16	1689.57
333.37	1732.58
333.58	1689.57
333.80	1726.44
334.01	1697.77
334.22	1699.81
334.43	1665.00
334.64	1671.14
334.86	1652.71
335.07	1619.94
335.28	1726.44
335.49	1701.86
335.70	1685.48
335.92	1789.92
336.13	1755.11
336.34	1742.82
336.55	1693.67
336.76	1710.05
336.98	1578.98
337.19	1708.01
337.40	1822.69
337.61	1830.88
337.82	1753.06
338.04	1777.64
338.25	1556.46
338.46	1724.39
338.67	1767.40
338.88	1626.09
339.09	1587.18
339.31	1697.77
339.52	1734.63
339.73	1656.81
339.94	1697.77
340.15	1726.44
340.36	1681.38
340.58	1681.38
340.79	1701.86
341.00	1751.01
341.21	1693.67
341.42	1824.74
341.63	1748.97
341.85	1722.34
342.06	1718.25
342.27	1652.71
342.48	1716.20
342.69	1650.66
342.90	1738.73
343.12	1763.30
343.33	1677.29
343.54	1757.16
343.75	1808.36
343.96	1714.15
344.17	1638.38
344.38	1720.29
344.60	1652.71
344.81	1658.85
345.02	1673.19
345.23	1736.68
345.44	1740.77
345.65	1708.01
345.86	1720.29
346.07	1685.48
346.29	1626.09
346.50	1755.11
346.71	1796.07
346.92	1779.68
347.13	1853.41
347.34	1703.91
347.55	1746.92
347.76	1638.38
347.98	1630.18
348.19	1665.00
348.40	1779.68
348.61	1593.32
348.82	1785.83
349.03	1787.88
349.24	1693.67
349.45	1834.98
349.66	1634.28
349.88	1699.81
350.09	1734.63
350.30	1777.64
350.51	1705.96
350.72	1738.73
350.93	1742.82
351.14	1656.81
351.35	1740.77
351.56	1714.15
351.77	1687.53
351.99	1771.49
352.20	1798.12
352.41	1814.50
352.62	1609.70
352.83	1628.14
353.04	1748.97
353.25	1636.33
353.46	1765.35
353.67	1771.49
353.88	1568.74
354.09	1732.58
354.30	1652.71
354.52	1669.09
354.73	1646.57
354.94	1621.99
355.15	1708.01
355.36	1832.93
355.57	1742.82
355.78	1773.54
355.99	1677.29
356.20	1662.95
356.41	1828.84
356.62	1679.33
356.83	1693.67
357.04	1789.92
357.25	1642.47
357.46	1679.33
357.68	1621.99
357.89	1636.33
358.10	1679.33
358.31	1710.05
358.52	1693.67
358.73	1712.10
358.94	1638.38
359.15	1751.01
359.36	1732.58
359.57	1652.71
359.78	1603.56
359.99	1746.92
360.20	1712.10
360.41	1810.40
360.62	1763.30
360.83	1718.25
361.04	1712.10
361.25	1722.34
361.46	1757.16
361.67	1738.73
361.88	1759.21
362.09	1732.58
362.30	1699.81
362.51	1665.00
362.72	1757.16
362.93	1738.73
363.14	1718.25
363.35	1693.67
363.56	1589.22
363.78	1732.58
363.99	1755.11
364.20	1716.20
364.41	1667.05
364.62	1783.78
364.83	1697.77
365.04	1624.04
365.25	1708.01
365.46	1816.55
365.67	1578.98
365.88	1578.98
366.09	1685.48
366.30	1730.53
366.51	1673.19
366.72	1642.47
366.93	1648.61
367.14	1703.91
367.35	1808.36
367.56	1652.71
367.77	1767.40
367.98	1746.92
368.18	1630.18
368.39	1736.68
368.60	1624.04
368.81	1755.11
369.02	1712.10
369.23	1705.96
369.44	1615.85
369.65	1665.00
369.86	1652.71
370.07	1779.68
370.28	1656.81
370.49	1714.15
370.70	1728.49
370.91	1656.81
371.12	1615.85
371.33	1697.77
371.54	1660.90
371.75	1763.30
371.96	1607.66
372.17	1691.62
372.38	1738.73
372.59	1691.62
372.80	1703.91
373.01	1650.66
373.22	1712.10
373.43	1665.00
373.64	1634.28
373.85	1751.01
374.06	1751.01
374.26	1701.86
374.47	1716.20
374.68	1669.09
374.89	1681.38
375.10	1697.77
375.31	1755.11
375.52	1683.43
375.73	1710.05
375.94	1656.81
376.15	1726.44
376.36	1615.85
376.57	1716.20
376.78	1708.01
376.99	1746.92
377.20	1783.78
377.40	1650.66
377.61	1832.93
377.82	1687.53
378.03	1839.08
378.24	1691.62
378.45	1619.94
378.66	1718.25
378.87	1624.04
379.08	1632.23
379.29	1660.90
379.50	1746.92
379.71	1753.06
379.91	1748.97
380.12	1644.52
380.33	1697.77
380.54	1660.90
380.75	1673.19
380.96	1667.05
381.17	1742.82
381.38	1667.05
381.59	1679.33
381.80	1742.82
382.00	1828.84
382.21	1765.35
382.42	1777.64
382.63	1959.91
382.84	1730.53
383.05	1759.21
383.26	1777.64
383.47	1808.36
383.68	1724.39
383.88	1779.68
384.09	1677.29
384.30	1841.12
384.51	1726.44
384.72	1724.39
384.93	1583.08
385.14	1628.14
385.35	1681.38
385.55	1634.28
385.76	1738.73
385.97	1673.19
386.18	1683.43
386.39	1736.68
386.60	1685.48
386.81	1710.05
387.02	1644.52
387.22	1716.20
387.43	1822.69
387.64	1820.64
387.85	1886.18
388.06	2230.24
388.27	4327.36
388.48	6840.22
388.68	8066.95
388.89	9557.87
389.10	9723.76
389.31	8763.26
389.52	7563.15
389.73	6651.80
389.93	6078.37
390.14	5851.05
390.35	5240.75
390.56	4593.59
390.77	3860.42
390.98	3055.57
391.18	2570.20
391.39	2109.41
391.60	1857.51
391.81	1785.83
392.02	1685.48
392.23	1796.07
392.43	1787.88
392.64	1802.21
392.85	1763.30
393.06	1785.83
393.27	1732.58
393.47	1613.80
393.68	1724.39
393.89	1800.16
394.10	1767.40
394.31	1595.37
394.52	1593.32
394.72	1722.34
394.93	1853.41
395.14	1644.52
395.35	1714.15
395.56	1636.33
395.76	1677.29
395.97	1769.44
396.18	1830.88
396.39	1812.45
396.60	2072.54
396.80	1802.21
397.01	1822.69
397.22	1765.35
397.43	1800.16
397.64	1687.53
397.84	1783.78
398.05	1859.56
398.26	1746.92
398.47	1796.07
398.67	1800.16
398.88	1710.05
399.09	1767.40
399.30	1718.25
399.51	1771.49
399.71	1630.18
399.92	1767.40
400.13	1722.34
400.34	1667.05
400.54	1757.16
400.75	1853.41
400.96	1761.25
401.17	1791.97
401.37	1697.77
401.58	1810.40
401.79	1673.19
402.00	1869.80
402.21	2058.21
402.41	1951.71
402.62	1972.19
402.83	1951.71
403.04	2023.39
403.24	2078.69
403.45	1820.64
403.66	1863.65
403.87	1853.41
404.07	1843.17
404.28	1949.67
404.49	1894.37
404.70	1724.39
404.90	1796.07
405.11	1843.17
405.32	1652.71
405.52	1703.91
405.73	1597.42
405.94	1726.44
406.15	1697.77
406.35	1753.06
406.56	1740.77
406.77	1603.56
406.98	1777.64
407.18	1671.14
407.39	1751.01
407.60	1624.04
407.80	1789.92
408.01	1714.15
408.22	1718.25
408.43	1726.44
408.63	1767.40
408.84	1701.86
409.05	1763.30
409.25	1669.09
409.46	1601.51
409.67	1697.77
409.88	1736.68
410.08	1732.58
410.29	1671.14
410.50	1714.15
410.70	1697.77
410.91	1634.28
411.12	1599.46
411.32	1710.05
411.53	1683.43
411.74	1779.68
411.95	1773.54
412.15	1810.40
412.36	1806.31
412.57	1720.29
412.77	1761.25
412.98	1734.63
413.19	1697.77
413.39	1701.86
413.60	1800.16
413.81	1820.64
414.01	1683.43
414.22	1708.01
414.43	1798.12
414.63	1677.29
414.84	1824.74
415.05	1732.58
415.25	1710.05
415.46	1720.29
415.67	1689.57
415.87	1783.78
416.08	1705.96
416.29	1640.42
416.49	1751.01
416.70	1613.80
416.91	1718.25
417.11	1708.01
417.32	1767.40
417.53	1787.88
417.73	1695.72
417.94	1705.96
418.15	1677.29
418.35	1660.90
418.56	1734.63
418.77	1906.66
418.97	1660.90
419.18	1701.86
419.38	1550.31
419.59	1767.40
419.80	1763.30
420.00	1669.09
420.21	1722.34
420.42	1736.68
420.62	1789.92
420.83	1712.10
421.04	1630.18
421.24	1640.42
421.45	1753.06
421.65	1791.97
421.86	1619.94
422.07	1695.72
422.27	1712.10
422.48	1701.86
422.69	1642.47
422.89	1701.86
423.10	1646.57
423.30	1693.67
423.51	1697.77
423.72	1767.40
423.92	1724.39
424.13	1630.18
424.33	1746.92
424.54	1771.49
424.75	1769.44
424.95	1734.63
425.16	1667.05
425.36	1701.86
425.57	1722.34
425.78	1744.87
425.98	1714.15
426.19	1630.18
426.39	1634.28
426.60	1781.73
426.81	1761.25
427.01	1701.86
427.22	1665.00
427.42	1601.51
427.63	1693.67
427.83	1748.97
428.04	1863.65
428.25	1789.92
428.45	1755.11
428.66	1689.57
428.86	1669.09
429.07	1691.62
429.28	1789.92
429.48	1705.96
429.69	1665.00
429.89	1767.40
430.10	1665.00
430.30	1726.44
430.51	1828.84
430.71	1720.29
430.92	1656.81
431.13	1675.24
431.33	1814.50
431.54	1710.05
431.74	1843.17
431.95	1791.97
432.15	1652.71
432.36	1705.96
432.56	1730.53
432.77	1751.01
432.98	1837.03
433.18	1650.66
433.39	1718.25
433.59	1722.34
433.80	1800.16
434.00	1869.80
434.21	1669.09
434.41	1732.58
434.62	1861.60
434.82	1693.67
435.03	1630.18
435.23	1712.10
435.44	1626.09
435.64	1767.40
435.85	1665.00
436.06	1738.73
436.26	1802.21
436.47	1701.86
436.67	1673.19
436.88	1701.86
437.08	1759.21
437.29	1679.33
437.49	1697.77
437.70	1775.59
437.90	1732.58
438.11	1824.74
438.31	1740.77
438.52	1849.32
438.72	1904.61
438.93	1927.14
439.13	1767.40
439.34	1800.16
439.54	1748.97
439.75	1761.25
439.95	1767.40
440.16	1728.49
440.36	1687.53
440.57	1728.49
440.77	1728.49
440.98	1814.50
441.18	1746.92
441.39	1722.34
441.59	1675.24
441.80	1837.03
442.00	1728.49
442.21	1765.35
442.41	1685.48
442.62	1726.44
442.82	1681.38
443.02	1742.82
443.23	1804.26
443.43	1679.33
443.64	1843.17
443.84	1581.03
444.05	1867.75
444.25	1691.62
444.46	1667.05
444.66	1730.53
444.87	1837.03
445.07	1675.24
445.28	1751.01
445.48	1765.35
445.69	1810.40
445.89	1935.33
446.09	1740.77
446.30	2058.21
446.50	2650.07
446.71	3805.13
446.91	4300.73
447.12	4718.52
447.32	4788.15
447.53	4374.46
447.73	3772.36
447.93	3418.06
448.14	3250.13
448.34	3092.43
448.55	2779.09
448.75	2772.95
448.96	2705.37
449.16	2398.17
449.36	2303.96
449.57	2007.01
449.77	1923.04
449.98	1855.46
450.18	1814.50
450.39	1839.08
450.59	1683.43
450.79	1796.07
451.00	1691.62
451.20	1779.68
451.41	1689.57
451.61	1726.44
451.81	1726.44
452.02	1642.47
452.22	1767.40
452.43	1705.96
452.63	1679.33
452.84	1767.40
453.04	1744.87
453.24	1775.59
453.45	1699.81
453.65	1677.29
453.86	1734.63
454.06	1665.00
454.26	1761.25
454.47	1615.85
454.67	1660.90
454.87	1683.43
455.08	1724.39
455.28	1837.03
455.49	1751.01
455.69	1677.29
455.89	1853.41
456.10	1724.39
456.30	1732.58
456.51	1716.20
456.71	1734.63
456.91	1753.06
457.12	1736.68
457.32	1789.92
457.52	1712.10
457.73	1761.25
457.93	1734.63
458.14	1718.25
458.34	1671.14
458.54	1734.63
458.75	1732.58
458.95	1800.16
459.15	1748.97
459.36	1802.21
459.56	1814.50
459.76	1873.89
459.97	1771.49
460.17	1710.05
460.37	1763.30
460.58	1705.96
460.78	1759.21
460.99	1689.57
461.19	1753.06
461.39	1726.44
461.60	1652.71
461.80	1779.68
462.00	1679.33
462.21	1705.96
462.41	1685.48
462.61	1650.66
462.82	1667.05
463.02	1701.86
463.22	1665.00
463.43	1802.21
463.63	1732.58
463.83	1738.73
464.04	1800.16
464.24	1685.48
464.44	1611.75
464.64	1779.68
464.85	1748.97
465.05	1705.96
465.25	1679.33
465.46	1761.25
465.66	1734.63
465.86	1781.73
466.07	1667.05
466.27	1794.02
466.47	1595.37
466.68	1652.71
466.88	1763.30
467.08	1775.59
467.29	1789.92
467.49	1736.68
467.69	1777.64
467.89	1767.40
468.10	1732.58
468.30	1761.25
468.50	1802.21
468.71	1751.01
468.91	1667.05
469.11	1884.13
469.31	1751.01
469.52	1714.15
469.72	1818.60
469.92	1894.37
470.13	1738.73
470.33	1714.15
470.53	1816.55
470.73	2144.22
470.94	2320.35
471.14	2330.59
471.34	2574.30
471.54	2312.16
471.75	2240.48
471.95	2109.41
472.15	2148.32
472.36	2103.26
472.56	2029.54
472.76	2054.11
472.96	1937.38
473.17	1900.52
473.37	1841.12
473.57	1742.82
473.77	1787.88
473.98	1736.68
474.18	1648.61
474.38	1834.98
474.58	1771.49
474.79	1648.61
474.99	1781.73
475.19	1783.78
475.39	1687.53
475.60	1779.68
475.80	1738.73
476.00	1763.30
476.20	1679.33
476.41	1769.44
476.61	1863.65
476.81	1748.97
477.01	1613.80
477.21	1863.65
477.42	1757.16
477.62	1675.24
477.82	1755.11
478.02	1726.44
478.23	1757.16
478.43	1656.81
478.63	1730.53
478.83	1716.20
479.03	1695.72
479.24	1761.25
479.44	1787.88
479.64	1691.62
479.84	1599.46
480.04	1703.91
480.25	1796.07
480.45	1753.06
480.65	1708.01
480.85	1912.80
481.06	1691.62
481.26	1675.24
481.46	1755.11
481.66	1673.19
481.86	1675.24
482.06	1732.58
482.27	1646.57
482.47	1738.73
482.67	1853.41
482.87	1665.00
483.07	1773.54
483.28	1656.81
483.48	1648.61
483.68	1710.05
483.88	1724.39
484.08	1556.46
484.29	1693.67
484.49	1701.86
484.69	1654.76
484.89	1804.26
485.09	1738.73
485.29	1728.49
485.50	1789.92
485.70	1687.53
485.90	1808.36
486.10	1742.82
486.30	1708.01
486.50	1703.91
486.71	1738.73
486.91	1804.26
487.11	1796.07
487.31	1677.29
487.51	1701.86
487.71	1710.05
487.91	1599.46
488.12	1578.98
488.32	1652.71
488.52	1662.95
488.72	1574.89
488.92	1667.05
489.12	1765.35
489.32	1806.31
489.53	1779.68
489.73	1615.85
489.93	1828.84
490.13	1665.00
490.33	1632.23
490.53	1755.11
490.73	1789.92
490.94	1654.76
491.14	1804.26
491.34	1791.97
491.54	2119.65
491.74	2523.10
491.94	2881.49
492.14	2998.23
492.34	3061.71
492.54	2742.23
492.75	2506.71
492.95	2512.86
493.15	2299.87
493.35	2334.68
493.55	2263.01
493.75	2166.75
493.95	2101.22
494.15	2056.16
494.35	1914.85
494.56	1802.21
494.76	1722.34
494.96	1849.32
495.16	1746.92
495.36	1740.77
495.56	1701.86
495.76	1753.06
495.96	1589.22
496.16	1701.86
496.36	1861.60
496.56	1718.25
496.77	1789.92
496.97	1652.71
497.17	1785.83
497.37	1652.71
497.57	1734.63
497.77	1648.61
497.97	1669.09
498.17	1736.68
498.37	1724.39
498.57	1751.01
498.77	1710.05
498.97	1765.35
499.17	1906.66
499.38	1730.53
499.58	1802.21
499.78	1781.73
499.98	1812.45
500.18	1722.34
500.38	1734.63
500.58	1998.82
500.78	2592.73
500.98	4503.48
501.18	5916.58
501.38	6743.96
501.58	6930.33
501.78	6682.52
501.98	5607.34
502.18	4923.32
502.38	4427.71
502.58	4196.29
502.78	3850.18
502.98	3661.77
503.18	3430.35
503.38	3268.56
503.59	2811.86
503.79	2701.27
503.99	2496.47
504.19	2234.33
504.39	2224.09
504.59	2152.42
504.79	2187.23
504.99	2068.45
505.19	1845.22
505.39	1882.08
505.59	1951.71
505.79	1855.46
505.99	1898.47
506.19	1796.07
506.39	1873.89
506.59	1681.38
506.79	1755.11
506.99	1796.07
507.19	1765.35
507.39	1806.31
507.59	1677.29
507.79	1718.25
507.99	1656.81
508.19	1742.82
508.39	1640.42
508.59	1777.64
508.79	1804.26
508.99	1837.03
509.19	1703.91
509.39	1732.58
509.59	1667.05
509.79	1722.34
509.99	1816.55
510.19	1757.16
510.39	1798.12
510.59	1738.73
510.79	1708.01
510.99	1642.47
511.19	1665.00
511.39	1816.55
511.59	1814.50
511.79	1796.07
511.99	1705.96
512.19	1845.22
512.38	1730.53
512.58	1787.88
512.78	1738.73
512.98	1808.36
513.18	1804.26
513.38	1603.56
513.58	1804.26
513.78	1605.61
513.98	1685.48
514.18	1691.62
514.38	1718.25
514.58	1681.38
514.78	1699.81
514.98	1607.66
515.18	1687.53
515.38	1597.42
515.58	1834.98
515.78	1712.10
515.98	1769.44
516.18	1779.68
516.38	1798.12
516.57	1703.91
516.77	1710.05
516.97	1757.16
517.17	1720.29
517.37	1691.62
517.57	1830.88
517.77	1761.25
517.97	1685.48
518.17	1800.16
518.37	1701.86
518.57	1699.81
518.77	1673.19
518.97	1681.38
519.16	1755.11
519.36	1845.22
519.56	1671.14
519.76	1740.77
519.96	1705.96
520.16	1699.81
520.36	1671.14
520.56	1781.73
520.76	1658.85
520.96	1716.20
521.16	1796.07
521.35	1736.68
521.55	1798.12
521.75	1751.01
521.95	1652.71
522.15	1748.97
522.35	1619.94
522.55	1724.39
522.75	1802.21
522.95	1714.15
523.14	1722.34
523.34	1746.92
523.54	1667.05
523.74	1757.16
523.94	1722.34
524.14	1607.66
524.34	1798.12
524.54	1794.02
524.73	1675.24
524.93	1732.58
525.13	1775.59
525.33	1697.77
525.53	1890.28
525.73	1746.92
525.93	1777.64
526.13	1716.20
526.32	1662.95
526.52	1816.55
526.72	1699.81
526.92	1705.96
527.12	1687.53
527.32	1583.08
527.52	1773.54
527.71	1726.44
527.91	1689.57
528.11	1683.43
528.31	1787.88
528.51	1648.61
528.71	1767.40
528.90	1804.26
529.10	1839.08
529.30	1753.06
529.50	1705.96
529.70	1742.82
529.90	1734.63
530.09	1691.62
530.29	1724.39
530.49	1677.29
530.69	1828.84
530.89	1771.49
531.09	1771.49
531.28	1736.68
531.48	1759.21
531.68	1755.11
531.88	1742.82
532.08	1779.68
532.28	1751.01
532.47	1732.58
532.67	1787.88
532.87	1746.92
533.07	1642.47
533.27	1734.63
533.46	1716.20
533.66	1806.31
533.86	1693.67
534.06	1703.91
534.26	1677.29
534.45	1685.48
534.65	1720.29
534.85	1722.34
535.05	1660.90
535.25	1763.30
535.44	1726.44
535.64	1789.92
535.84	1681.38
536.04	1683.43
536.24	1667.05
536.43	1753.06
536.63	1714.15
536.83	1748.97
537.03	1722.34
537.22	1644.52
537.42	1665.00
537.62	1703.91
537.82	1677.29
538.02	1738.73
538.21	1812.45
538.41	1847.27
538.61	1779.68
538.81	1695.72
539.00	1734.63
539.20	1675.24
539.40	1730.53
539.60	1779.68
539.79	1810.40
539.99	1716.20
540.19	1673.19
540.39	1718.25
540.58	1718.25
540.78	1779.68
540.98	1751.01
541.18	1777.64
541.37	1701.86
541.57	1716.20
541.77	1742.82
541.97	1781.73
542.16	1656.81
542.36	1679.33
542.56	1726.44
542.76	1785.83
542.95	1751.01
543.15	1744.87
543.35	1720.29
543.54	1673.19
543.74	1601.51
543.94	1791.97
544.14	1685.48
544.33	1798.12
544.53	1708.01
544.73	1667.05
544.93	1753.06
545.12	1755.11
545.32	1679.33
545.52	1662.95
545.71	1722.34
545.91	1740.77
546.11	1751.01
546.30	1642.47
546.50	1742.82
546.70	1810.40
546.90	1742.82
547.09	1722.34
547.29	1746.92
547.49	1779.68
547.68	1708.01
547.88	1644.52
548.08	1783.78
548.27	2215.90
548.47	1683.43
548.67	1710.05
548.87	1800.16
549.06	1773.54
549.26	1714.15
549.46	1751.01
549.65	1712.10
549.85	1759.21
550.05	1804.26
550.24	1730.53
550.44	1685.48
550.64	1777.64
550.83	1724.39
551.03	1777.64
551.23	1759.21
551.42	1751.01
551.62	1763.30
551.82	1779.68
552.01	1705.96
552.21	1755.11
552.41	1742.82
552.60	1802.21
552.80	1699.81
553.00	1665.00
553.19	1718.25
553.39	1767.40
553.59	1648.61
553.78	1773.54
553.98	1779.68
554.17	1662.95
554.37	1771.49
554.57	1779.68
554.76	1654.76
554.96	1732.58
555.16	1755.11
555.35	1660.90
555.55	1814.50
555.75	1837.03
555.94	1734.63
556.14	1671.14
556.33	1796.07
556.53	1759.21
556.73	1761.25
556.92	1826.79
557.12	1763.30
557.32	1855.46
557.51	1810.40
557.71	1789.92
557.90	1800.16
558.10	1734.63
558.30	1724.39
558.49	1800.16
558.69	1722.34
558.88	1763.30
559.08	1759.21
559.28	1726.44
559.47	1730.53
559.67	1791.97
559.86	1828.84
560.06	1824.74
560.26	1732.58
560.45	1800.16
560.65	1724.39
560.84	1781.73
561.04	1753.06
561.24	1697.77
561.43	1683.43
561.63	1841.12
561.82	1777.64
562.02	1740.77
562.22	1691.62
562.41	1718.25
562.61	1681.38
562.80	1714.15
563.00	1841.12
563.19	1738.73
563.39	1769.44
563.59	1742.82
563.78	1640.42
563.98	1679.33
564.17	1681.38
564.37	1636.33
564.56	1705.96
564.76	1673.19
564.96	1791.97
565.15	1689.57
565.35	1882.08
565.54	1732.58
565.74	1814.50
565.93	1751.01
566.13	1669.09
566.32	1871.84
566.52	1759.21
566.71	1740.77
566.91	1837.03
567.11	1726.44
567.30	1705.96
567.50	1789.92
567.69	1794.02
567.89	1636.33
568.08	1679.33
568.28	1724.39
568.47	1634.28
568.67	1771.49
568.86	1724.39
569.06	1718.25
569.25	1654.76
569.45	1667.05
569.64	1652.71
569.84	1714.15
570.04	1679.33
570.23	1671.14
570.43	1679.33
570.62	1787.88
570.82	1808.36
571.01	1654.76
571.21	1726.44
571.40	1708.01
571.60	1759.21
571.79	1708.01
571.99	1744.87
572.18	1658.85
572.38	1742.82
572.57	1724.39
572.77	1869.80
572.96	1884.13
573.16	1806.31
573.35	1740.77
573.55	1861.60
573.74	1800.16
573.94	1687.53
574.13	1746.92
574.33	1759.21
574.52	1869.80
574.71	1693.67
574.91	1783.78
575.10	1658.85
575.30	1714.15
575.49	1665.00
575.69	1681.38
575.88	1697.77
576.08	1708.01
576.27	1781.73
576.47	1699.81
576.66	1828.84
576.86	1800.16
577.05	1785.83
577.25	1828.84
577.44	1898.47
577.64	1744.87
577.83	1804.26
578.02	1714.15
578.22	1771.49
578.41	1845.22
578.61	1763.30
578.80	1646.57
579.00	1783.78
579.19	1738.73
579.39	1779.68
579.58	1802.21
579.77	1796.07
579.97	1771.49
580.16	1789.92
580.36	1826.79
580.55	1800.16
580.75	1705.96
580.94	1820.64
581.13	1732.58
581.33	1918.95
581.52	1724.39
581.72	1859.56
581.91	1839.08
582.11	1734.63
582.30	1775.59
582.49	1722.34
582.69	1832.93
582.88	1796.07
583.08	1783.78
583.27	1832.93
583.47	1748.97
583.66	1781.73
583.85	1759.21
584.05	1730.53
584.24	1826.79
584.44	1777.64
584.63	1740.77
584.82	1798.12
585.02	1841.12
585.21	1798.12
585.41	1818.60
585.60	1859.56
585.79	1908.71
585.99	1916.90
586.18	1798.12
586.37	2244.57
586.57	3444.68
586.76	9985.90
586.96	24168.08
587.15	34403.83
587.34	40355.22
587.54	42149.24
587.73	36345.30
587.93	26185.33
588.12	21540.54
588.31	18267.88
588.51	16385.80
588.70	15185.69
588.89	13981.48
589.09	12656.45
589.28	11099.99
589.47	9412.46
589.67	7929.74
589.86	6451.10
590.06	4894.65
590.25	3954.63
590.44	3172.30
590.64	2633.69
590.83	2205.66
591.02	2101.22
591.22	1974.24
591.41	1933.28
591.60	1755.11
591.80	1951.71
591.99	1748.97
592.18	1800.16
592.38	1796.07
592.57	1742.82
592.76	1789.92
592.96	1771.49
593.15	1730.53
593.34	1863.65
593.54	1699.81
593.73	1746.92
593.92	1775.59
594.12	1765.35
594.31	1808.36
594.50	1843.17
594.70	1775.59
594.89	1888.23
595.08	1693.67
595.28	1746.92
595.47	1832.93
595.66	1718.25
595.86	1689.57
596.05	1673.19
596.24	1669.09
596.43	1859.56
596.63	1904.61
596.82	1757.16
597.01	1748.97
597.21	1796.07
597.40	1738.73
597.59	1671.14
597.79	1753.06
597.98	1736.68
598.17	1718.25
598.36	1816.55
598.56	1777.64
598.75	1708.01
598.94	1791.97
599.14	1722.34
599.33	1619.94
599.52	1796.07
599.71	1814.50
599.91	1775.59
600.10	1806.31
600.29	1695.72
600.48	1796.07
600.68	1820.64
600.87	1761.25
601.06	1619.94
601.26	1746.92
601.45	1730.53
601.64	1724.39
601.83	1742.82
602.03	1740.77
602.22	1656.81
602.41	1816.55
602.60	1853.41
602.80	1886.18
602.99	1736.68
603.18	1761.25
603.37	1757.16
603.57	1753.06
603.76	1785.83
603.95	1757.16
604.14	1648.61
604.34	1705.96
604.53	1695.72
604.72	1798.12
604.91	1757.16
605.10	1789.92
605.30	1740.77
605.49	1791.97
605.68	1751.01
605.87	1738.73
606.07	1671.14
606.26	1722.34
606.45	1710.05
606.64	1742.82
606.84	1720.29
607.03	1677.29
607.22	1789.92
607.41	1619.94
607.60	1703.91
607.80	1869.80
607.99	1691.62
608.18	1720.29
608.37	1724.39
608.56	1638.38
608.76	1779.68
608.95	1798.12
609.14	1796.07
609.33	1763.30
609.52	1751.01
609.72	1800.16
609.91	1767.40
610.10	1730.53
610.29	1732.58
610.48	1783.78
610.68	1775.59
610.87	1677.29
611.06	1722.34
611.25	1679.33
611.44	1877.99
611.63	1722.34
611.83	1787.88
612.02	1736.68
612.21	1753.06
612.40	1671.14
612.59	1617.90
612.79	1695.72
612.98	1730.53
613.17	1894.37
613.36	1734.63
613.55	1828.84
613.74	1718.25
613.93	1736.68
614.13	1767.40
614.32	1755.11
614.51	1742.82
614.70	1609.70
614.89	1615.85
615.08	1646.57
615.28	2019.30
615.47	1679.33
615.66	1708.01
615.85	1710.05
616.04	1800.16
616.23	1789.92
616.42	1650.66
616.62	1751.01
616.81	1755.11
617.00	1773.54
617.19	1798.12
617.38	1693.67
617.57	1742.82
617.76	1689.57
617.95	1726.44
618.15	1734.63
618.34	1783.78
618.53	1615.85
618.72	1800.16
618.91	1781.73
619.10	1808.36
619.29	1759.21
619.48	1714.15
619.68	1705.96
619.87	1734.63
620.06	1615.85
620.25	1714.15
620.44	1675.24
620.63	1720.29
620.82	1617.90
621.01	1714.15
621.20	1753.06
621.39	1722.34
621.59	1765.35
621.78	1724.39
621.97	1763.30
622.16	1677.29
622.35	1703.91
622.54	1800.16
622.73	1765.35
622.92	1654.76
623.11	1783.78
623.30	1662.95
623.49	1812.45
623.68	1673.19
623.88	1669.09
624.07	1683.43
624.26	1785.83
624.45	1683.43
624.64	1638.38
624.83	1691.62
625.02	1742.82
625.21	1689.57
625.40	1773.54
625.59	1763.30
625.78	1665.00
625.97	1777.64
626.16	1785.83
626.35	1779.68
626.54	1703.91
626.74	1853.41
626.93	1669.09
627.12	1708.01
627.31	1724.39
627.50	1714.15
627.69	1755.11
627.88	1697.77
628.07	1615.85
628.26	1636.33
628.45	1607.66
628.64	1695.72
628.83	1769.44
629.02	1640.42
629.21	1748.97
629.40	1751.01
629.59	1669.09
629.78	1683.43
629.97	1724.39
630.16	1736.68
630.35	1658.85
630.54	1705.96
630.73	1673.19
630.92	1722.34
631.11	1695.72
631.30	1767.40
631.49	1769.44
631.68	1708.01
631.87	1705.96
632.06	1638.38
632.25	1769.44
632.44	1753.06
632.63	1753.06
632.82	1751.01
633.01	1716.20
633.20	1767.40
633.39	1630.18
633.58	1730.53
633.77	1751.01
633.96	1810.40
634.15	1689.57
634.34	1697.77
634.53	1730.53
634.72	1759.21
634.91	1630.18
635.10	1726.44
635.29	1757.16
635.48	1769.44
635.67	1671.14
635.86	1634.28
636.05	1777.64
636.24	1744.87
636.43	1728.49
636.62	1738.73
636.81	1605.61
637.00	1716.20
637.19	1873.89
637.38	1716.20
637.57	1673.19
637.76	1685.48
637.95	1681.38
638.14	1656.81
638.33	1751.01
638.52	1689.57
638.71	1665.00
638.89	1701.86
639.08	1816.55
639.27	1699.81
639.46	1685.48
639.65	1855.46
639.84	1714.15
640.03	1763.30
640.22	1701.86
640.41	1779.68
640.60	1714.15
640.79	1736.68
640.98	1701.86
641.17	1732.58
641.36	1714.15
641.55	1773.54
641.74	1660.90
641.92	1648.61
642.11	1687.53
642.30	1734.63
642.49	1742.82
642.68	1652.71
642.87	1701.86
643.06	1695.72
643.25	1751.01
643.44	1648.61
643.63	1689.57
643.82	1787.88
644.00	1626.09
644.19	1708.01
644.38	1677.29
644.57	1712.10
644.76	1701.86
644.95	1726.44
645.14	1677.29
645.33	1656.81
645.52	1650.66
645.71	1746.92
645.89	1636.33
646.08	1712.10
646.27	1656.81
646.46	1824.74
646.65	1662.95
646.84	1742.82
647.03	1671.14
647.22	1748.97
647.40	1705.96
647.59	1607.66
647.78	1640.42
647.97	1667.05
648.16	1644.52
648.35	1787.88
648.54	1777.64
648.73	1740.77
648.91	1816.55
649.10	1734.63
649.29	1601.51
649.48	1640.42
649.67	1650.66
649.86	1675.24
650.05	1722.34
650.23	1787.88
650.42	1691.62
650.61	1779.68
650.80	1746.92
650.99	1839.08
651.18	1710.05
651.36	1757.16
651.55	1703.91
651.74	1755.11
651.93	1720.29
652.12	1730.53
652.31	1693.67
652.49	1634.28
652.68	1642.47
652.87	1806.31
653.06	1724.39
653.25	1810.40
653.44	1705.96
653.62	1882.08
653.81	1624.04
654.00	1722.34
654.19	1787.88
654.38	1826.79
654.56	1712.10
654.75	1769.44
654.94	1837.03
655.13	1748.97
655.32	1777.64
655.51	1689.57
655.69	1642.47
655.88	1771.49
656.07	1660.90
656.26	1734.63
656.45	1613.80
656.63	1722.34
656.82	1777.64
657.01	1802.21
657.20	1644.52
657.38	1806.31
657.57	1642.47
657.76	1615.85
657.95	1728.49
658.14	1705.96
658.32	1699.81
658.51	1634.28
658.70	1724.39
658.89	1679.33
659.08	1701.86
659.26	1828.84
659.45	1648.61
659.64	1779.68
659.83	1626.09
660.01	1992.67
660.20	1798.12
660.39	1812.45
660.58	1595.37
660.76	1771.49
660.95	1597.42
661.14	1730.53
661.33	1615.85
661.51	1681.38
661.70	1699.81
661.89	1751.01
662.08	1599.46
662.26	1693.67
662.45	1648.61
662.64	1806.31
662.83	1712.10
663.01	1624.04
663.20	1640.42
663.39	1769.44
663.58	1660.90
663.76	1718.25
663.95	1812.45
664.14	1703.91
664.32	1656.81
664.51	1626.09
664.70	1619.94
664.89	1726.44
665.07	1697.77
665.26	1787.88
665.45	1660.90
665.64	1687.53
665.82	1681.38
666.01	1755.11
666.20	1728.49
666.38	1736.68
666.57	1798.12
666.76	2166.75
666.95	4396.99
667.13	10284.90
667.32	15187.74
667.51	17725.17
667.69	19128.03
667.88	17645.30
668.07	12199.75
668.25	9586.54
668.44	8224.64
668.63	7413.65
668.81	6752.15
669.00	6225.82
669.19	5820.33
669.38	5113.78
669.56	4556.73
669.75	3893.19
669.94	3434.44
670.12	2940.88
670.31	2539.48
670.50	2246.62
670.68	2037.73
670.87	1923.04
671.06	1783.78
671.24	1785.83
671.43	1769.44
671.62	1693.67
671.80	1757.16
671.99	1722.34
672.18	1699.81
672.36	1789.92
672.55	1708.01
672.74	1773.54
672.92	1640.42
673.11	1699.81
673.29	1640.42
673.48	1814.50
673.67	1687.53
673.85	1824.74
674.04	1712.10
674.23	1787.88
674.41	1812.45
674.60	1716.20
674.79	1617.90
674.97	1701.86
675.16	1779.68
675.34	1734.63
675.53	1697.77
675.72	1824.74
675.90	1806.31
676.09	1665.00
676.28	1703.91
676.46	1591.27
676.65	1724.39
676.83	1738.73
677.02	1722.34
677.21	1644.52
677.39	1693.67
677.58	1720.29
677.77	1701.86
677.95	1757.16
678.14	1650.66
678.32	1734.63
678.51	1730.53
678.70	1816.55
678.88	1673.19
679.07	1667.05
679.25	1710.05
679.44	1634.28
679.63	1626.09
679.81	1714.15
680.00	1720.29
680.18	1697.77
680.37	1816.55
680.55	1626.09
680.74	1611.75
680.93	1562.60
681.11	1740.77
681.30	1775.59
681.48	1755.11
681.67	1742.82
681.85	1677.29
682.04	1593.32
682.23	1773.54
682.41	1765.35
682.60	1656.81
682.78	1732.58
682.97	1665.00
683.15	1695.72
683.34	1710.05
683.53	1798.12
683.71	1628.14
683.90	1771.49
684.08	1847.27
684.27	1650.66
684.45	1734.63
684.64	1806.31
684.82	1660.90
685.01	1779.68
685.19	1757.16
685.38	1834.98
685.57	1705.96
685.75	1689.57
685.94	1701.86
686.12	1671.14
686.31	1671.14
686.49	1822.69
686.68	1599.46
686.86	1665.00
687.05	1718.25
687.23	1787.88
687.42	1689.57
687.60	1640.42
687.79	1789.92
687.97	1798.12
688.16	1763.30
688.34	1802.21
688.53	1665.00
688.71	1753.06
688.90	1681.38
689.08	1640.42
689.27	1540.07
689.45	1773.54
689.64	1662.95
689.82	1708.01
690.01	1810.40
690.19	1656.81
690.38	1738.73
690.56	1761.25
690.75	1656.81
690.93	1626.09
691.12	1677.29
691.30	1730.53
691.49	1650.66
691.67	1712.10
691.86	1818.60
692.04	1722.34
692.23	1593.32
692.41	1583.08
692.60	1816.55
692.78	1714.15
692.97	1679.33
693.15	1699.81
693.34	1789.92
693.52	1828.84
693.71	1660.90
693.89	1662.95
694.08	1624.04
694.26	1771.49
694.44	1730.53
694.63	1826.79
694.81	1626.09
695.00	1677.29
695.18	1785.83
695.37	1791.97
695.55	1687.53
695.74	1718.25
695.92	1644.52
696.10	1814.50
696.29	1652.71
696.47	1683.43
696.66	1644.52
696.84	1611.75
697.03	1724.39
697.21	1828.84
697.40	2283.49
697.58	1763.30
697.76	1748.97
697.95	1718.25
698.13	1679.33
698.32	1630.18
698.50	1763.30
698.68	1773.54
698.87	1705.96
699.05	1732.58
699.24	1722.34
699.42	1658.85
699.61	1746.92
699.79	1693.67
699.97	1697.77
700.16	1603.56
700.34	1671.14
700.53	1738.73
700.71	1796.07
700.89	1761.25
701.08	1667.05
701.26	1730.53
701.45	2138.08
701.63	1708.01
701.81	1665.00
702.00	1642.47
702.18	1693.67
702.37	1728.49
702.55	1693.67
702.73	1794.02
702.92	1648.61
703.10	1773.54
703.28	1732.58
703.47	1581.03
703.65	1732.58
703.84	1689.57
704.02	1675.24
704.20	1796.07
704.39	1640.42
704.57	1677.29
704.75	1744.87
704.94	1779.68
705.12	1755.11
705.30	1822.69
705.49	2371.55
705.67	4255.68
705.86	9348.98
706.04	12527.42
706.22	14407.46
706.41	15417.11
706.59	13981.48
706.77	9607.02
706.96	7446.41
707.14	6571.93
707.32	6152.10
707.51	5486.51
707.69	4929.46
707.87	4151.23
708.06	3532.75
708.24	2985.94
708.42	2445.27
708.61	2295.77
708.79	1935.33
708.97	1865.70
709.16	1830.88
709.34	1785.83
709.52	1755.11
709.71	1716.20
709.89	1708.01
710.07	1703.91
710.26	1648.61
710.44	1714.15
710.62	1794.02
710.80	1708.01
710.99	1787.88
711.17	1730.53
711.35	1697.77
711.54	1734.63
711.72	1837.03
711.90	1812.45
712.09	1744.87
712.27	1726.44
712.45	1849.32
712.63	1624.04
712.82	1724.39
713.00	1660.90
713.18	1806.31
713.37	1773.54
713.55	1681.38
713.73	1781.73
713.91	1683.43
714.10	1769.44
714.28	1669.09
714.46	1812.45
714.65	1697.77
714.83	1755.11
715.01	1708.01
715.19	1613.80
715.38	1601.51
715.56	1773.54
715.74	1681.38
715.92	1636.33
716.11	1837.03
716.29	1578.98
716.47	1740.77
716.65	1646.57
716.84	1656.81
717.02	1738.73
717.20	1646.57
717.38	1615.85
717.57	1658.85
717.75	1767.40
717.93	1673.19
718.11	1693.67
718.30	1638.38
718.48	1773.54
718.66	1710.05
718.84	1722.34
719.03	1755.11
719.21	1599.46
719.39	1765.35
719.57	1662.95
719.75	1710.05
719.94	1736.68
720.12	1740.77
720.30	1683.43
720.48	1730.53
720.67	1667.05
720.85	1667.05
721.03	1726.44
721.21	1677.29
721.39	1732.58
721.58	1757.16
721.76	1722.34
721.94	1730.53
722.12	1746.92
722.30	1837.03
722.49	1708.01
722.67	1708.01
722.85	1693.67
723.03	1669.09
723.21	1642.47
723.40	1789.92
723.58	1742.82
723.76	1765.35
723.94	1804.26
724.12	1705.96
724.30	1712.10
724.49	1787.88
724.67	1642.47
724.85	1806.31
725.03	1746.92
725.21	1808.36
725.40	1824.74
725.58	1710.05
725.76	1748.97
725.94	1644.52
726.12	1701.86
726.30	1738.73
726.49	1726.44
726.67	1716.20
726.85	1757.16
727.03	1738.73
727.21	2111.46
727.39	2885.59
727.57	3852.23
727.76	4290.49
727.94	4499.39
728.12	4335.55
728.30	3717.06
728.48	2938.84
728.66	2781.14
728.84	2562.01
729.03	2295.77
729.21	2144.22
729.39	2007.01
729.57	1877.99
729.75	1855.46
729.93	1890.28
730.11	1681.38
730.30	1730.53
730.48	1734.63
730.66	1767.40
730.84	1791.97
731.02	1724.39
731.20	1789.92
731.38	1769.44
731.56	1644.52
731.74	1574.89
731.93	1681.38
732.11	1716.20
732.29	1671.14
732.47	1689.57
732.65	1681.38
732.83	1703.91
733.01	1708.01
733.19	1617.90
733.37	1759.21
733.56	1687.53
733.74	1656.81
733.92	1808.36
734.10	1640.42
734.28	1828.84
734.46	1640.42
734.64	1599.46
734.82	1738.73
735.00	1662.95
735.18	1669.09
735.36	1644.52
735.54	1767.40
735.73	1667.05
735.91	1683.43
736.09	1777.64
736.27	1656.81
736.45	1796.07
736.63	1601.51
736.81	1665.00
736.99	1701.86
737.17	1830.88
737.35	1638.38
737.53	1705.96
737.71	1703.91
737.89	1804.26
738.07	1669.09
738.25	1656.81
738.43	1611.75
738.61	1624.04
738.80	1673.19
738.98	1652.71
739.16	1669.09
739.34	1662.95
739.52	1802.21
739.70	1687.53
739.88	1785.83
740.06	1804.26
740.24	1607.66
740.42	1777.64
740.60	1636.33
740.78	1691.62
740.96	1613.80
741.14	1656.81
741.32	1714.15
741.50	1646.57
741.68	1830.88
741.86	1773.54
742.04	1679.33
742.22	1695.72
742.40	1718.25
742.58	1679.33
742.76	1701.86
742.94	1765.35
743.12	1652.71
743.30	1781.73
743.48	1624.04
743.66	1636.33
743.84	1722.34
744.02	1783.78
744.20	1671.14
744.38	1646.57
744.56	1652.71
744.74	1863.65
744.92	1746.92
745.10	1742.82
745.28	1730.53
745.46	1789.92
745.64	1722.34
745.82	1814.50
746.00	1703.91
746.18	1699.81
746.36	1621.99
746.54	1699.81
746.72	1648.61
746.90	1642.47
747.08	1816.55
747.26	1662.95
747.44	1746.92
747.62	1726.44
747.80	1734.63
747.98	1794.02
748.15	1677.29
748.33	1806.31
748.51	1755.11
748.69	1701.86
748.87	1650.66
749.05	1695.72
749.23	1728.49
749.41	1691.62
749.59	1689.57
749.77	1804.26
749.95	1652.71
750.13	1660.90
750.31	1744.87
750.49	1677.29
750.67	1738.73
750.85	1744.87
751.03	1681.38
751.20	1796.07
751.38	1738.73
751.56	1650.66
751.74	1638.38
751.92	1730.53
752.10	1675.24
752.28	1769.44
752.46	1550.31
752.64	1681.38
752.82	1708.01
753.00	1740.77
753.18	1671.14
753.35	1662.95
753.53	1683.43
753.71	1609.70
753.89	1763.30
754.07	1681.38
754.25	1794.02
754.43	1665.00
754.61	1681.38
754.79	1757.16
754.97	1708.01
755.14	1763.30
755.32	1673.19
755.50	1742.82
755.68	1761.25
755.86	1601.51
756.04	1732.58
756.22	1617.90
756.40	1705.96
756.57	1880.04
756.75	1701.86
756.93	1701.86
757.11	1718.25
757.29	1646.57
757.47	1665.00
757.65	1656.81
757.82	1583.08
758.00	1634.28
758.18	1656.81
758.36	1603.56
758.54	1771.49
758.72	1568.74
758.90	1738.73
759.07	1759.21
759.25	1621.99
759.43	1691.62
759.61	1630.18
759.79	2234.33
759.97	1726.44
760.15	1652.71
760.32	1697.77
760.50	1667.05
760.68	1834.98
760.86	1628.14
761.04	1720.29
761.22	1779.68
761.39	1701.86
761.57	1732.58
761.75	1714.15
761.93	1751.01
762.11	1705.96
762.28	1669.09
762.46	1730.53
762.64	1763.30
762.82	1619.94
763.00	1712.10
763.18	1824.74
763.35	1599.46
763.53	1720.29
763.71	1677.29
763.89	1660.90
764.07	1716.20
764.24	1652.71
764.42	1689.57
764.60	1689.57
764.78	1755.11
764.96	1708.01
765.13	1736.68
765.31	1728.49
765.49	1722.34
765.67	1671.14
765.84	1595.37
766.02	1619.94
766.20	1652.71
766.38	1734.63
766.56	1689.57
766.73	1740.77
766.91	1667.05
767.09	1699.81
767.27	1773.54
767.44	1685.48
767.62	1701.86
767.80	1720.29
767.98	1656.81
768.15	1777.64
768.33	1734.63
768.51	1689.57
768.69	1755.11
768.87	1806.31
769.04	1746.92
769.22	1767.40
769.40	1798.12
769.58	1820.64
769.75	1669.09
769.93	1767.40
770.11	1718.25
770.28	1634.28
770.46	1783.78
770.64	1705.96
770.82	1685.48
770.99	1705.96
771.17	1783.78
771.35	1619.94
771.53	1662.95
771.70	1701.86
771.88	1738.73
772.06	1654.76
772.23	1742.82
772.41	1693.67
772.59	1603.56
772.77	1636.33
772.94	1697.77
773.12	1757.16
773.30	1714.15
773.47	1716.20
773.65	1568.74
773.83	1837.03
774.01	1665.00
774.18	1656.81
774.36	1699.81
774.54	1648.61
774.71	1710.05
774.89	1656.81
775.07	1624.04
775.24	1621.99
775.42	1705.96
775.60	1820.64
775.78	1679.33
775.95	1619.94
776.13	1589.22
776.31	1624.04
776.48	1673.19
776.66	1763.30
776.84	1660.90
777.01	1634.28
777.19	1624.04
777.37	1710.05
777.54	1753.06
777.72	1806.31
777.90	1681.38
778.07	1669.09
778.25	1837.03
778.43	1728.49
778.60	1755.11
778.78	1693.67
778.96	1841.12
779.13	1568.74
779.31	1687.53
779.49	1675.24
779.66	1673.19
779.84	1585.13
780.01	1718.25
780.19	1656.81
780.37	1757.16
780.54	1693.67
780.72	1642.47
780.90	1665.00
781.07	1656.81
781.25	1648.61
781.43	1714.15
781.60	1652.71
781.78	1785.83
781.95	1746.92
782.13	1697.77
782.31	1771.49
782.48	1550.31
782.66	1675.24
782.83	1841.12
783.01	1757.16
783.19	1671.14
783.36	1665.00
783.54	1644.52
783.72	1714.15
783.89	1701.86
784.07	1730.53
784.24	1669.09
784.42	1730.53
784.60	1689.57
784.77	1681.38
784.95	1564.65
785.12	1644.52
785.30	1744.87
785.47	1595.37
785.65	1638.38
785.83	1708.01
786.00	1679.33
786.18	1716.20
786.35	1587.18
786.53	1669.09
786.71	1779.68
786.88	1714.15
787.06	1699.81
787.23	1615.85
787.41	1660.90
787.58	1693.67
787.76	1681.38
787.94	1712.10
788.11	1748.97
788.29	1642.47
788.46	1755.11
788.64	1607.66
788.81	1671.14
788.99	1658.85
789.16	1691.62
789.34	1691.62
789.52	1650.66
789.69	1574.89
789.87	1603.56
790.04	1724.39
790.22	1673.19
790.39	1865.70
790.57	1667.05
790.74	1613.80
790.92	1785.83
791.09	1587.18
791.27	1689.57
791.44	1773.54
791.62	1683.43
791.79	1679.33
791.97	1667.05
792.15	1830.88
792.32	1777.64
792.50	1656.81
792.67	1853.41
792.85	1722.34
793.02	1705.96
793.20	1640.42
793.37	1593.32
793.55	1726.44
793.72	1681.38
793.90	1759.21
794.07	1613.80
794.25	1751.01
794.42	1742.82
794.60	1656.81
794.77	1736.68
794.95	1734.63
795.12	1755.11
795.30	1701.86
795.47	1589.22
795.65	1888.23
795.82	1683.43
796.00	1656.81
796.17	1734.63
796.34	1720.29
796.52	1662.95
796.69	1718.25
796.87	1728.49
797.04	1734.63
797.22	1687.53
797.39	1798.12
797.57	1775.59
797.74	1687.53
797.92	1697.77
798.09	1642.47
798.27	1789.92
798.44	1724.39
798.62	1691.62
798.79	1769.44
798.96	1689.57
799.14	1732.58
799.31	1920.99
799.49	1722.34
799.66	1701.86
799.84	1751.01
800.01	1648.61
800.19	1693.67
800.36	1605.61
800.53	1804.26
800.71	1763.30
800.88	1802.21
801.06	1654.76
801.23	1619.94
801.41	1605.61
801.58	1634.28
801.75	1660.90
801.93	1679.33
802.10	1710.05
802.28	1658.85
802.45	1683.43
802.63	1669.09
802.80	1771.49
802.97	1744.87
803.15	1693.67
803.32	1732.58
803.50	1669.09
803.67	1599.46
803.84	1632.23
804.02	1691.62
804.19	1669.09
804.37	1624.04
804.54	1636.33
804.71	1701.86
804.89	1712.10
805.06	1607.66
805.24	1714.15
805.41	1740.77
805.58	1667.05
805.76	1806.31
805.93	1708.01
806.10	1779.68
806.28	1679.33
806.45	1658.85
806.63	1708.01
806.80	1767.40
806.97	1724.39
807.15	1759.21
807.32	1697.77
807.49	1712.10
807.67	1671.14
807.84	1636.33
808.01	1656.81
808.19	1804.26
808.36	1781.73
808.54	1636.33
808.71	1603.56
808.88	1665.00
809.06	1708.01
809.23	1796.07
809.40	1642.47
809.58	1765.35
809.75	1660.90
809.92	1681.38
810.10	1828.84
810.27	1667.05
810.44	1742.82
810.62	1748.97
810.79	1751.01
810.96	1677.29
811.14	1675.24
811.31	1697.77
811.48	1697.77
811.66	1658.85
811.83	1791.97
812.00	1681.38
812.18	1751.01
812.35	1863.65
812.52	1708.01
812.69	1689.57
812.87	1761.25
813.04	1642.47
813.21	1718.25
813.39	1716.20
813.56	1621.99
813.73	1765.35
813.91	1638.38
814.08	1677.29
814.25	1671.14
814.42	1607.66
814.60	1683.43
814.77	1652.71
814.94	1679.33
815.12	1736.68
815.29	1810.40
815.46	1652.71
815.63	1679.33
815.81	1650.66
815.98	1671.14
816.15	1644.52
816.33	1695.72
816.50	1689.57
816.67	1673.19
816.84	1779.68
817.02	1556.46
817.19	1648.61
817.36	1751.01
817.53	1689.57
817.71	1624.04
817.88	1656.81
818.05	1697.77
818.22	1667.05
818.40	1828.84
818.57	1630.18
818.74	1734.63
818.91	1673.19
819.09	1728.49
819.26	1767.40
819.43	1693.67
819.60	1634.28
819.78	1718.25
819.95	1800.16
820.12	1613.80
820.29	1701.86
820.47	1742.82
820.64	1587.18
820.81	1542.12
820.98	1650.66
821.15	1665.00
821.33	1804.26
821.50	1613.80
821.67	1693.67
821.84	1693.67
822.02	1677.29
822.19	1677.29
822.36	1779.68
822.53	1665.00
822.70	1630.18
822.88	1687.53
823.05	1773.54
823.22	1726.44
823.39	1724.39
823.56	1685.48
823.74	1783.78
823.91	1675.24
824.08	1646.57
824.25	1613.80
824.42	1794.02
824.60	1626.09
824.77	1642.47
824.94	1665.00
825.11	1746.92
825.28	1560.55
825.45	1693.67
825.63	1767.40
825.80	1656.81
825.97	1705.96
826.14	1751.01
826.31	1624.04
826.48	1746.92
826.66	1646.57
826.83	1656.81
827.00	1699.81
827.17	1615.85
827.34	1621.99
827.51	1652.71
827.69	1699.81
827.86	1597.42
828.03	1691.62
828.20	1755.11
828.37	1601.51
828.54	1714.15
828.71	1638.38
828.89	1861.60
829.06	1660.90
829.23	1798.12
829.40	1718.25
829.57	1669.09
829.74	1722.34
829.91	1689.57
830.09	1703.91
830.26	1755.11
830.43	1791.97
830.60	1599.46
830.77	1726.44
830.94	1738.73
831.11	1746.92
831.28	1714.15
831.46	1710.05
831.63	1695.72
831.80	1665.00
831.97	1716.20
832.14	1595.37
832.31	1695.72
832.48	1740.77
832.65	1705.96
832.82	1726.44
832.99	1671.14
833.17	1703.91
833.34	1767.40
833.51	1646.57
833.68	1603.56
833.85	1781.73
834.02	1638.38
834.19	1589.22
834.36	1585.13
834.53	1677.29
834.70	1771.49
834.87	1794.02
835.04	1730.53
835.22	1634.28
835.39	1681.38
835.56	1642.47
835.73	1695.72
835.90	1685.48
836.07	1652.71
836.24	1773.54
836.41	1681.38
836.58	1660.90
836.75	1796.07
836.92	1722.34
837.09	1695.72
837.26	1742.82
837.43	1675.24
837.60	1722.34
837.77	1654.76
837.94	1714.15
838.12	1791.97
838.29	1748.97
838.46	1570.79
838.63	1646.57
838.80	1818.60
838.97	1767.40
839.14	1689.57
839.31	1687.53
839.48	1761.25
839.65	1701.86
839.82	1714.15
839.99	1714.15
840.16	1675.24
840.33	1656.81
840.50	1640.42
840.67	1683.43
840.84	1624.04
841.01	1693.67
841.18	1613.80
841.35	1710.05
841.52	1693.67
841.69	1783.78
841.86	1617.90
842.03	1697.77
842.20	1730.53
842.37	1621.99
842.54	1658.85
842.71	1646.57
842.88	1636.33
843.05	1787.88
843.22	1708.01
843.39	1744.87
843.56	1722.34
843.73	1687.53
843.90	1665.00
844.07	1716.20
844.24	1771.49
844.41	1798.12
844.58	1783.78
844.75	1673.19
844.92	1730.53
845.09	1669.09
845.26	1597.42
845.43	1701.86
845.60	1755.11
845.77	1708.01
845.94	1671.14
846.10	1744.87
846.27	1609.70
846.44	1677.29
846.61	1648.61
846.78	1642.47
846.95	1714.15
847.12	1687.53
847.29	1650.66
847.46	1654.76
847.63	1685.48
847.80	1708.01
847.97	1746.92
848.14	1798.12
848.31	1695.72
848.48	1585.13
848.65	1789.92
848.82	1693.67
848.98	1822.69
849.15	1621.99
849.32	1736.68
849.49	1759.21
849.66	1652.71
849.83	1728.49
850.00	1650.66
850.17	1726.44
850.34	1654.76
850.51	1742.82
850.68	1771.49
850.85	1808.36
851.01	1642.47
851.18	1693.67
851.35	1728.49
851.52	1658.85
851.69	1722.34
851.86	1644.52
852.03	1656.81
852.20	1687.53
852.37	1738.73
852.53	1660.90
852.70	1710.05
852.87	1648.61
853.04	1769.44
853.21	1722.34
853.38	1753.06
853.55	1824.74
853.72	1787.88
853.89	1648.61
854.05	1658.85
854.22	1671.14
854.39	1697.77
854.56	1693.67
854.73	1751.01
854.90	1642.47
855.07	1746.92
855.23	1675.24
855.40	1683.43
855.57	1683.43
855.74	1599.46
855.91	1886.18
856.08	1624.04
856.25	1611.75
856.41	1675.24
856.58	1677.29
856.75	1701.86
856.92	1599.46
857.09	1699.81
857.26	1624.04
857.42	1685.48
857.59	1738.73
857.76	1642.47
857.93	1781.73
858.10	1701.86
858.27	1615.85
858.43	1648.61
858.60	1658.85
858.77	1599.46
858.94	1679.33
859.11	1755.11
859.27	1701.86
859.44	1757.16
859.61	1740.77
859.78	1710.05
859.95	1673.19
860.12	1605.61
860.28	1869.80
860.45	1763.30
860.62	1650.66
860.79	1728.49
860.95	1656.81
861.12	1656.81
861.29	1701.86
861.46	1648.61
861.63	1650.66
861.79	1673.19
861.96	1658.85
862.13	1701.86
862.30	1691.62
862.47	1644.52
862.63	1619.94
862.80	1781.73
862.97	1693.67
863.14	1701.86
863.30	1726.44
863.47	1703.91
863.64	1677.29
863.81	1777.64
863.97	1779.68
864.14	1718.25
864.31	1710.05
864.48	1703.91
864.65	1685.48
864.81	1742.82
864.98	1734.63
865.15	1697.77
865.32	1724.39
865.48	1730.53
865.65	1804.26
865.82	1654.76
865.98	1693.67
866.15	1697.77
866.32	1701.86
866.49	1636.33
866.65	1712.10
866.82	1669.09
866.99	1673.19
867.16	1632.23
867.32	1691.62
867.49	1710.05
867.66	1695.72
867.83	1617.90
867.99	1628.14
868.16	1794.02
868.33	1525.74
868.49	1718.25
868.66	1730.53
868.83	1722.34
868.99	1728.49
869.16	1673.19
869.33	1789.92
869.50	1718.25
869.66	1705.96
869.83	1648.61
870.00	1683.43
870.16	1656.81
870.33	1767.40
870.50	1693.67
870.66	1689.57
870.83	1779.68
871.00	1669.09
871.17	1722.34
871.33	1703.91
871.50	1693.67
871.67	1681.38
871.83	1669.09
872.00	1841.12
872.17	1714.15
872.33	1812.45
872.50	1775.59
872.67	1703.91
872.83	1673.19
873.00	1675.24
873.17	1718.25
873.33	1767.40
873.50	1834.98
873.67	1601.51
873.83	1656.81
874.00	1771.49
874.16	1703.91
874.33	1746.92
874.50	1601.51
874.66	1669.09
874.83	1701.86
875.00	1742.82
875.16	1798.12
875.33	1744.87
875.50	1660.90
875.66	1720.29
875.83	1777.64
875.99	1695.72
876.16	1669.09
876.33	1591.27
876.49	1697.77
876.66	1806.31
876.83	1671.14
876.99	1611.75
877.16	1669.09
877.32	1712.10
877.49	1677.29
877.66	1748.97
877.82	1828.84
877.99	1621.99
878.15	1701.86
878.32	1722.34
878.49	1697.77
878.65	1642.47
878.82	1736.68
878.98	1677.29
879.15	1775.59
879.32	1708.01
879.48	1765.35
879.65	1671.14
879.81	1642.47
879.98	1683.43
880.15	1714.15
880.31	1755.11
880.48	1660.90
880.64	1740.77
880.81	1644.52
880.97	1775.59
881.14	1771.49
881.31	1615.85
881.47	1830.88
881.64	1665.00
881.80	1648.61
881.97	1640.42
882.13	1714.15
882.30	1671.14
882.47	1648.61
882.63	1695.72
882.80	1617.90
882.96	1683.43
883.13	1785.83
883.29	1710.05
883.46	1720.29
883.62	1740.77
883.79	1683.43
883.95	1738.73
884.12	1675.24
884.29	1746.92
884.45	1722.34
884.62	1771.49
884.78	1646.57
884.95	1767.40
885.11	1652.71
885.28	1650.66
885.44	1687.53
885.61	1740.77
885.77	1769.44
885.94	1675.24
886.10	1714.15
886.27	1681.38
886.43	1814.50
886.60	1753.06
886.76	1683.43
886.93	1708.01
887.09	1746.92
887.26	1638.38
887.42	1722.34
887.59	1738.73
887.75	1751.01
887.92	1724.39
888.08	1847.27
888.25	1837.03
888.41	1812.45
888.58	1695.72
888.74	1652.71
888.91	1632.23
>>>>>End Processed Spectral Data<<<<<
