SpectraSuite Data File
++++++++++++++++++++++++++++++++++++
Date: Mon Jun 06 15:49:17 CEST 2016
User: root
Dark Spectrum Present: No
Reference Spectrum Present: No
Number of Sampled Component Spectra: 1
Spectrometers: USB4C02835
Integration Time (usec): 100000 (USB4C02835)
Spectra Averaged: 1 (USB4C02835)
Boxcar Smoothing: 0 (USB4C02835)
Correct for Electrical Dark: No (USB4C02835)
Strobe/Lamp Enabled: No (USB4C02835)
Correct for Detector Non-linearity: No (USB4C02835)
Correct for Stray Light: No (USB4C02835)
Number of Pixels in Processed Spectrum: 3648
>>>>>Begin Processed Spectral Data<<<<<
177.47	1454.06
177.69	1454.06
177.91	1454.06
178.13	1429.48
178.36	1505.26
178.58	1683.43
178.80	1759.21
179.02	1632.23
179.24	1628.14
179.46	1693.67
179.68	1730.53
179.90	1740.77
180.13	1730.53
180.35	1697.77
180.57	1630.18
180.79	1794.02
181.01	1671.14
181.23	1755.11
181.45	1751.01
181.67	1785.83
181.90	1789.92
182.12	1658.85
182.34	1624.04
182.56	1712.10
182.78	1779.68
183.00	1699.81
183.22	1742.82
183.44	1673.19
183.66	1871.84
183.89	1796.07
184.11	1675.24
184.33	1726.44
184.55	1867.75
184.77	1730.53
184.99	1726.44
185.21	1640.42
185.43	1892.32
185.65	1710.05
185.87	1708.01
186.10	1820.64
186.32	1912.80
186.54	1748.97
186.76	1796.07
186.98	1794.02
187.20	1699.81
187.42	1689.57
187.64	1751.01
187.86	1728.49
188.08	1744.87
188.30	1705.96
188.52	1681.38
188.75	1740.77
188.97	1853.41
189.19	1687.53
189.41	1714.15
189.63	1779.68
189.85	1683.43
190.07	1640.42
190.29	1636.33
190.51	1763.30
190.73	1634.28
190.95	1841.12
191.17	1703.91
191.39	1712.10
191.61	1738.73
191.84	1665.00
192.06	1757.16
192.28	1617.90
192.50	1804.26
192.72	1802.21
192.94	1681.38
193.16	1759.21
193.38	1839.08
193.60	1648.61
193.82	1636.33
194.04	1759.21
194.26	1804.26
194.48	1720.29
194.70	1646.57
194.92	1636.33
195.14	1763.30
195.36	1746.92
195.58	1726.44
195.80	1712.10
196.02	1714.15
196.24	1767.40
196.46	1736.68
196.69	1734.63
196.91	1808.36
197.13	1638.38
197.35	1628.14
197.57	1753.06
197.79	1746.92
198.01	1794.02
198.23	1763.30
198.45	1748.97
198.67	1679.33
198.89	1697.77
199.11	1771.49
199.33	1642.47
199.55	1558.50
199.77	1701.86
199.99	1810.40
200.21	1703.91
200.43	1728.49
200.65	1660.90
200.87	1599.46
201.09	1673.19
201.31	1748.97
201.53	1753.06
201.75	1744.87
201.97	1748.97
202.19	1665.00
202.41	1726.44
202.63	1808.36
202.85	1650.66
203.07	1730.53
203.29	1734.63
203.51	1669.09
203.73	1681.38
203.95	1937.38
204.17	1632.23
204.39	1710.05
204.61	1753.06
204.83	1712.10
205.05	1742.82
205.27	1769.44
205.49	1755.11
205.71	1755.11
205.93	1652.71
206.15	1714.15
206.37	1679.33
206.59	1759.21
206.81	1654.76
207.03	1656.81
207.25	1755.11
207.47	1685.48
207.69	1708.01
207.91	1720.29
208.13	1748.97
208.34	1660.90
208.56	1693.67
208.78	1734.63
209.00	1681.38
209.22	1746.92
209.44	1673.19
209.66	1746.92
209.88	1718.25
210.10	1730.53
210.32	1708.01
210.54	1822.69
210.76	1677.29
210.98	1771.49
211.20	1640.42
211.42	1742.82
211.64	1734.63
211.86	1714.15
212.08	1763.30
212.30	1703.91
212.52	1638.38
212.74	1744.87
212.96	1691.62
213.17	1765.35
213.39	1755.11
213.61	1753.06
213.83	1804.26
214.05	1642.47
214.27	1769.44
214.49	1656.81
214.71	1687.53
214.93	1787.88
215.15	1677.29
215.37	1753.06
215.59	1601.51
215.81	1779.68
216.03	1759.21
216.24	1681.38
216.46	1699.81
216.68	1689.57
216.90	1814.50
217.12	1695.72
217.34	1708.01
217.56	1697.77
217.78	1828.84
218.00	1724.39
218.22	1730.53
218.44	1722.34
218.66	1751.01
218.87	1802.21
219.09	1720.29
219.31	1728.49
219.53	1728.49
219.75	1683.43
219.97	1730.53
220.19	1751.01
220.41	1701.86
220.63	1857.51
220.85	1736.68
221.06	1697.77
221.28	1781.73
221.50	1746.92
221.72	1716.20
221.94	1796.07
222.16	1699.81
222.38	1767.40
222.60	1751.01
222.82	1621.99
223.03	1804.26
223.25	1753.06
223.47	1781.73
223.69	1847.27
223.91	1822.69
224.13	1662.95
224.35	1632.23
224.57	1767.40
224.78	1781.73
225.00	1724.39
225.22	1701.86
225.44	1689.57
225.66	1662.95
225.88	1654.76
226.10	1701.86
226.32	1800.16
226.53	1837.03
226.75	1746.92
226.97	1726.44
227.19	1673.19
227.41	1679.33
227.63	1665.00
227.85	1703.91
228.06	1734.63
228.28	1689.57
228.50	1755.11
228.72	1724.39
228.94	1646.57
229.16	1556.46
229.37	1691.62
229.59	1671.14
229.81	1802.21
230.03	1703.91
230.25	1640.42
230.47	1632.23
230.69	1648.61
230.90	1738.73
231.12	1679.33
231.34	1800.16
231.56	1804.26
231.78	1630.18
232.00	1767.40
232.21	1732.58
232.43	1583.08
232.65	1705.96
232.87	1742.82
233.09	1662.95
233.30	1687.53
233.52	1796.07
233.74	1722.34
233.96	1673.19
234.18	1642.47
234.40	1738.73
234.61	1857.51
234.83	1638.38
235.05	1607.66
235.27	1828.84
235.49	1806.31
235.70	1708.01
235.92	1826.79
236.14	1759.21
236.36	1869.80
236.58	1683.43
236.79	1781.73
237.01	1581.03
237.23	1730.53
237.45	1855.46
237.67	1681.38
237.88	1681.38
238.10	1869.80
238.32	1710.05
238.54	1675.24
238.76	1726.44
238.97	1687.53
239.19	1697.77
239.41	1808.36
239.63	1808.36
239.85	1654.76
240.06	1701.86
240.28	1665.00
240.50	1748.97
240.72	1644.52
240.93	1728.49
241.15	1779.68
241.37	1648.61
241.59	1832.93
241.81	1685.48
242.02	1689.57
242.24	1697.77
242.46	1773.54
242.68	1603.56
242.89	1763.30
243.11	1734.63
243.33	1673.19
243.55	1751.01
243.76	1808.36
243.98	1705.96
244.20	1714.15
244.42	1671.14
244.64	1660.90
244.85	1677.29
245.07	1681.38
245.29	1757.16
245.51	1648.61
245.72	1640.42
245.94	1791.97
246.16	1701.86
246.38	1693.67
246.59	1683.43
246.81	1689.57
247.03	1640.42
247.24	1656.81
247.46	1685.48
247.68	1644.52
247.90	1771.49
248.11	1671.14
248.33	1779.68
248.55	1779.68
248.77	1605.61
248.98	1742.82
249.20	1828.84
249.42	1710.05
249.64	1660.90
249.85	1757.16
250.07	1667.05
250.29	1724.39
250.50	1802.21
250.72	1673.19
250.94	1671.14
251.16	1808.36
251.37	1703.91
251.59	1759.21
251.81	1779.68
252.02	1734.63
252.24	1673.19
252.46	1777.64
252.68	1705.96
252.89	1628.14
253.11	1640.42
253.33	1867.75
253.54	1820.64
253.76	1624.04
253.98	1662.95
254.20	1656.81
254.41	1617.90
254.63	1669.09
254.85	1626.09
255.06	1732.58
255.28	1705.96
255.50	1748.97
255.71	1669.09
255.93	1677.29
256.15	1753.06
256.36	1732.58
256.58	1652.71
256.80	1769.44
257.02	1632.23
257.23	1746.92
257.45	1800.16
257.67	1681.38
257.88	1650.66
258.10	1751.01
258.32	1755.11
258.53	1779.68
258.75	1740.77
258.97	1746.92
259.18	1726.44
259.40	1716.20
259.62	1837.03
259.83	1798.12
260.05	1828.84
260.27	2021.35
260.48	1822.69
260.70	1648.61
260.92	1677.29
261.13	1748.97
261.35	1716.20
261.57	1751.01
261.78	1554.41
262.00	1665.00
262.22	1734.63
262.43	1701.86
262.65	1744.87
262.86	1714.15
263.08	1851.36
263.30	1703.91
263.51	1636.33
263.73	1683.43
263.95	1769.44
264.16	1636.33
264.38	1751.01
264.60	1826.79
264.81	1748.97
265.03	1781.73
265.25	1808.36
265.46	1650.66
265.68	1794.02
265.89	1728.49
266.11	1591.27
266.33	1753.06
266.54	1843.17
266.76	1755.11
266.98	1757.16
267.19	1775.59
267.41	1767.40
267.62	1640.42
267.84	1679.33
268.06	1757.16
268.27	1724.39
268.49	1808.36
268.70	1736.68
268.92	1689.57
269.14	1656.81
269.35	1642.47
269.57	1806.31
269.79	1820.64
270.00	1677.29
270.22	1871.84
270.43	1656.81
270.65	1560.55
270.87	1681.38
271.08	1771.49
271.30	1791.97
271.51	1773.54
271.73	1753.06
271.95	1818.60
272.16	1787.88
272.38	1796.07
272.59	1685.48
272.81	1763.30
273.02	1675.24
273.24	1746.92
273.46	1769.44
273.67	1701.86
273.89	1632.23
274.10	1744.87
274.32	1798.12
274.54	1755.11
274.75	1726.44
274.97	1681.38
275.18	1812.45
275.40	1691.62
275.61	1669.09
275.83	1697.77
276.05	1568.74
276.26	1781.73
276.48	1791.97
276.69	1689.57
276.91	1685.48
277.12	1794.02
277.34	1736.68
277.55	1794.02
277.77	1781.73
277.99	1634.28
278.20	1646.57
278.42	1628.14
278.63	1646.57
278.85	1673.19
279.06	1603.56
279.28	1730.53
279.49	1818.60
279.71	1763.30
279.93	1761.25
280.14	1708.01
280.36	1644.52
280.57	1771.49
280.79	1845.22
281.00	1652.71
281.22	1595.37
281.43	1806.31
281.65	1554.41
281.86	1654.76
282.08	1718.25
282.29	1800.16
282.51	1601.51
282.73	1654.76
282.94	1574.89
283.16	1744.87
283.37	1871.84
283.59	1757.16
283.80	1710.05
284.02	1662.95
284.23	1781.73
284.45	1665.00
284.66	1679.33
284.88	1667.05
285.09	1798.12
285.31	1732.58
285.52	1751.01
285.74	1658.85
285.95	1681.38
286.17	1705.96
286.38	1744.87
286.60	1640.42
286.81	1679.33
287.03	1748.97
287.24	1726.44
287.46	1814.50
287.67	1708.01
287.89	1810.40
288.10	1748.97
288.32	1703.91
288.53	1777.64
288.75	1755.11
288.96	1781.73
289.18	1730.53
289.39	1687.53
289.61	1771.49
289.82	1785.83
290.04	1804.26
290.25	1681.38
290.47	1701.86
290.68	1726.44
290.90	1712.10
291.11	1570.79
291.33	1810.40
291.54	1624.04
291.76	1630.18
291.97	1673.19
292.18	1716.20
292.40	1753.06
292.61	1687.53
292.83	1832.93
293.04	1767.40
293.26	1746.92
293.47	1710.05
293.69	1728.49
293.90	1630.18
294.12	1781.73
294.33	1728.49
294.55	1693.67
294.76	1781.73
294.97	1771.49
295.19	1832.93
295.40	1650.66
295.62	1763.30
295.83	1806.31
296.05	1681.38
296.26	1734.63
296.48	1716.20
296.69	1732.58
296.90	1699.81
297.12	1667.05
297.33	1779.68
297.55	1771.49
297.76	1726.44
297.98	1839.08
298.19	1773.54
298.41	1673.19
298.62	1636.33
298.83	1822.69
299.05	1689.57
299.26	1705.96
299.48	1685.48
299.69	1810.40
299.90	1718.25
300.12	1638.38
300.33	1697.77
300.55	1681.38
300.76	1791.97
300.98	1712.10
301.19	1814.50
301.40	1716.20
301.62	1673.19
301.83	1787.88
302.05	1816.55
302.26	1658.85
302.47	1728.49
302.69	1705.96
302.90	1675.24
303.12	1605.61
303.33	1777.64
303.54	1851.36
303.76	1621.99
303.97	1734.63
304.19	1804.26
304.40	1660.90
304.61	1656.81
304.83	1849.32
305.04	1730.53
305.26	1724.39
305.47	1687.53
305.68	1757.16
305.90	1617.90
306.11	1732.58
306.33	1722.34
306.54	1726.44
306.75	1691.62
306.97	1613.80
307.18	1656.81
307.39	1683.43
307.61	1767.40
307.82	1724.39
308.04	1732.58
308.25	1638.38
308.46	1728.49
308.68	1732.58
308.89	1789.92
309.10	1775.59
309.32	1714.15
309.53	1767.40
309.74	1738.73
309.96	1708.01
310.17	1724.39
310.39	1656.81
310.60	1722.34
310.81	1751.01
311.03	1640.42
311.24	1708.01
311.45	1755.11
311.67	1794.02
311.88	1722.34
312.09	1712.10
312.31	1667.05
312.52	1787.88
312.73	1722.34
312.95	1642.47
313.16	1724.39
313.37	1744.87
313.59	1665.00
313.80	1751.01
314.01	1748.97
314.23	1617.90
314.44	1669.09
314.65	1675.24
314.87	1685.48
315.08	1753.06
315.29	1728.49
315.51	1662.95
315.72	1624.04
315.93	1785.83
316.15	1761.25
316.36	1748.97
316.57	1736.68
316.79	1732.58
317.00	1740.77
317.21	1656.81
317.43	1677.29
317.64	1708.01
317.85	1732.58
318.07	1705.96
318.28	1681.38
318.49	1789.92
318.70	1832.93
318.92	1841.12
319.13	1839.08
319.34	1847.27
319.56	1701.86
319.77	1759.21
319.98	1783.78
320.20	1865.70
320.41	1767.40
320.62	1806.31
320.83	1689.57
321.05	1875.94
321.26	1730.53
321.47	1775.59
321.69	1781.73
321.90	1685.48
322.11	1730.53
322.32	1728.49
322.54	1787.88
322.75	1669.09
322.96	1978.34
323.18	1656.81
323.39	1650.66
323.60	1697.77
323.81	1734.63
324.03	1636.33
324.24	1656.81
324.45	1773.54
324.66	1679.33
324.88	1810.40
325.09	1806.31
325.30	1677.29
325.52	1644.52
325.73	1742.82
325.94	1585.13
326.15	1619.94
326.37	1712.10
326.58	1751.01
326.79	1837.03
327.00	1689.57
327.22	1724.39
327.43	1695.72
327.64	1619.94
327.85	1728.49
328.07	1771.49
328.28	1863.65
328.49	1656.81
328.70	1712.10
328.92	1730.53
329.13	1720.29
329.34	1703.91
329.55	1890.28
329.76	1732.58
329.98	1685.48
330.19	1765.35
330.40	1685.48
330.61	1710.05
330.83	1761.25
331.04	1701.86
331.25	1648.61
331.46	1716.20
331.68	1591.27
331.89	1751.01
332.10	1710.05
332.31	1572.84
332.52	1652.71
332.74	1714.15
332.95	1589.22
333.16	1746.92
333.37	1746.92
333.58	1722.34
333.80	1757.16
334.01	1595.37
334.22	1691.62
334.43	1703.91
334.64	1742.82
334.86	1632.23
335.07	1642.47
335.28	1832.93
335.49	1644.52
335.70	1779.68
335.92	1781.73
336.13	1781.73
336.34	1681.38
336.55	1818.60
336.76	1726.44
336.98	1560.55
337.19	1761.25
337.40	1869.80
337.61	1796.07
337.82	1621.99
338.04	1726.44
338.25	1652.71
338.46	1662.95
338.67	1648.61
338.88	1658.85
339.09	1699.81
339.31	1630.18
339.52	1624.04
339.73	1630.18
339.94	1689.57
340.15	1759.21
340.36	1654.76
340.58	1714.15
340.79	1726.44
341.00	1708.01
341.21	1738.73
341.42	1773.54
341.63	1699.81
341.85	1830.88
342.06	1771.49
342.27	1593.32
342.48	1732.58
342.69	1734.63
342.90	1695.72
343.12	1714.15
343.33	1767.40
343.54	1785.83
343.75	1755.11
343.96	1712.10
344.17	1687.53
344.38	1710.05
344.60	1677.29
344.81	1658.85
345.02	1748.97
345.23	1796.07
345.44	1812.45
345.65	1773.54
345.86	1759.21
346.07	1691.62
346.29	1644.52
346.50	1832.93
346.71	1759.21
346.92	1769.44
347.13	1810.40
347.34	1728.49
347.55	1771.49
347.76	1734.63
347.98	1597.42
348.19	1703.91
348.40	1812.45
348.61	1712.10
348.82	1771.49
349.03	1785.83
349.24	1667.05
349.45	1814.50
349.66	1648.61
349.88	1693.67
350.09	1658.85
350.30	1814.50
350.51	1751.01
350.72	1726.44
350.93	1701.86
351.14	1615.85
351.35	1746.92
351.56	1681.38
351.77	1644.52
351.99	1652.71
352.20	1810.40
352.41	1744.87
352.62	1505.26
352.83	1654.76
353.04	1712.10
353.25	1624.04
353.46	1822.69
353.67	1808.36
353.88	1630.18
354.09	1730.53
354.30	1640.42
354.52	1804.26
354.73	1693.67
354.94	1687.53
355.15	1626.09
355.36	1777.64
355.57	1648.61
355.78	1787.88
355.99	1681.38
356.20	1681.38
356.41	1806.31
356.62	1767.40
356.83	1705.96
357.04	1816.55
357.25	1652.71
357.46	1714.15
357.68	1632.23
357.89	1642.47
358.10	1683.43
358.31	1755.11
358.52	1732.58
358.73	1699.81
358.94	1677.29
359.15	1773.54
359.36	1701.86
359.57	1677.29
359.78	1740.77
359.99	1783.78
360.20	1691.62
360.41	1746.92
360.62	1806.31
360.83	1673.19
361.04	1665.00
361.25	1722.34
361.46	1826.79
361.67	1720.29
361.88	1722.34
362.09	1826.79
362.30	1671.14
362.51	1845.22
362.72	1759.21
362.93	1748.97
363.14	1748.97
363.35	1712.10
363.56	1634.28
363.78	1767.40
363.99	1751.01
364.20	1652.71
364.41	1712.10
364.62	1812.45
364.83	1714.15
365.04	1734.63
365.25	1730.53
365.46	1853.41
365.67	1636.33
365.88	1593.32
366.09	1720.29
366.30	1658.85
366.51	1615.85
366.72	1648.61
366.93	1708.01
367.14	1695.72
367.35	1724.39
367.56	1808.36
367.77	1841.12
367.98	1785.83
368.18	1675.24
368.39	1701.86
368.60	1656.81
368.81	1777.64
369.02	1691.62
369.23	1703.91
369.44	1636.33
369.65	1697.77
369.86	1744.87
370.07	1736.68
370.28	1636.33
370.49	1775.59
370.70	1806.31
370.91	1593.32
371.12	1601.51
371.33	1730.53
371.54	1757.16
371.75	1832.93
371.96	1581.03
372.17	1656.81
372.38	1615.85
372.59	1714.15
372.80	1689.57
373.01	1730.53
373.22	1716.20
373.43	1699.81
373.64	1619.94
373.85	1751.01
374.06	1769.44
374.26	1773.54
374.47	1722.34
374.68	1845.22
374.89	1726.44
375.10	1669.09
375.31	1744.87
375.52	1693.67
375.73	1703.91
375.94	1636.33
376.15	1796.07
376.36	1714.15
376.57	1673.19
376.78	1681.38
376.99	1771.49
377.20	1826.79
377.40	1718.25
377.61	1841.12
377.82	1669.09
378.03	1800.16
378.24	1720.29
378.45	1740.77
378.66	1738.73
378.87	1650.66
379.08	1621.99
379.29	1675.24
379.50	1773.54
379.71	1687.53
379.91	1746.92
380.12	1722.34
380.33	1689.57
380.54	1679.33
380.75	1714.15
380.96	1640.42
381.17	1839.08
381.38	1710.05
381.59	1746.92
381.80	1783.78
382.00	1779.68
382.21	1775.59
382.42	1824.74
382.63	1849.32
382.84	1773.54
383.05	1820.64
383.26	1824.74
383.47	1763.30
383.68	1789.92
383.88	1796.07
384.09	1783.78
384.30	1808.36
384.51	1783.78
384.72	1626.09
384.93	1689.57
385.14	1703.91
385.35	1771.49
385.55	1712.10
385.76	1800.16
385.97	1759.21
386.18	1652.71
386.39	1638.38
386.60	1693.67
386.81	1720.29
387.02	1726.44
387.22	1656.81
387.43	1816.55
387.64	1787.88
387.85	1890.28
388.06	2238.43
388.27	4190.14
388.48	6608.80
388.68	8148.87
388.89	9529.20
389.10	9619.31
389.31	8361.86
389.52	7411.60
389.73	6619.04
389.93	6213.54
390.14	5814.18
390.35	5138.35
390.56	4548.54
390.77	3649.48
390.98	3016.66
391.18	2506.71
391.39	2082.78
391.60	1865.70
391.81	1867.75
392.02	1705.96
392.23	1849.32
392.43	1705.96
392.64	1834.98
392.85	1724.39
393.06	1708.01
393.27	1726.44
393.47	1734.63
393.68	1746.92
393.89	1810.40
394.10	1845.22
394.31	1695.72
394.52	1701.86
394.72	1697.77
394.93	1779.68
395.14	1722.34
395.35	1771.49
395.56	1677.29
395.76	1753.06
395.97	1787.88
396.18	1851.36
396.39	1812.45
396.60	1984.48
396.80	1912.80
397.01	1857.51
397.22	1855.46
397.43	1832.93
397.64	1734.63
397.84	1800.16
398.05	1851.36
398.26	1748.97
398.47	1732.58
398.67	1816.55
398.88	1759.21
399.09	1845.22
399.30	1810.40
399.51	1736.68
399.71	1705.96
399.92	1730.53
400.13	1742.82
400.34	1632.23
400.54	1673.19
400.75	1828.84
400.96	1748.97
401.17	1785.83
401.37	1791.97
401.58	1757.16
401.79	1748.97
402.00	1888.23
402.21	2027.49
402.41	1972.19
402.62	1974.24
402.83	2070.50
403.04	1980.39
403.24	2113.50
403.45	1894.37
403.66	1906.66
403.87	1927.14
404.07	1929.19
404.28	1880.04
404.49	1839.08
404.70	1812.45
404.90	1718.25
405.11	1726.44
405.32	1755.11
405.52	1662.95
405.73	1742.82
405.94	1746.92
406.15	1767.40
406.35	1759.21
406.56	1779.68
406.77	1738.73
406.98	1662.95
407.18	1638.38
407.39	1834.98
407.60	1705.96
407.80	1759.21
408.01	1718.25
408.22	1757.16
408.43	1695.72
408.63	1785.83
408.84	1738.73
409.05	1746.92
409.25	1726.44
409.46	1601.51
409.67	1689.57
409.88	1734.63
410.08	1673.19
410.29	1642.47
410.50	1765.35
410.70	1740.77
410.91	1742.82
411.12	1761.25
411.32	1660.90
411.53	1640.42
411.74	1763.30
411.95	1837.03
412.15	1783.78
412.36	1765.35
412.57	1785.83
412.77	1808.36
412.98	1742.82
413.19	1763.30
413.39	1738.73
413.60	1751.01
413.81	1812.45
414.01	1642.47
414.22	1755.11
414.43	1767.40
414.63	1748.97
414.84	1810.40
415.05	1759.21
415.25	1609.70
415.46	1806.31
415.67	1658.85
415.87	1746.92
416.08	1761.25
416.29	1695.72
416.49	1800.16
416.70	1640.42
416.91	1759.21
417.11	1759.21
417.32	1679.33
417.53	1734.63
417.73	1740.77
417.94	1693.67
418.15	1746.92
418.35	1716.20
418.56	1732.58
418.77	1761.25
418.97	1677.29
419.18	1722.34
419.38	1667.05
419.59	1673.19
419.80	1849.32
420.00	1742.82
420.21	1701.86
420.42	1746.92
420.62	1726.44
420.83	1708.01
421.04	1740.77
421.24	1656.81
421.45	1794.02
421.65	1757.16
421.86	1734.63
422.07	1697.77
422.27	1722.34
422.48	1779.68
422.69	1708.01
422.89	1699.81
423.10	1767.40
423.30	1658.85
423.51	1648.61
423.72	1689.57
423.92	1712.10
424.13	1734.63
424.33	1705.96
424.54	1732.58
424.75	1769.44
424.95	1759.21
425.16	1757.16
425.36	1683.43
425.57	1783.78
425.78	1787.88
425.98	1742.82
426.19	1648.61
426.39	1677.29
426.60	1689.57
426.81	1849.32
427.01	1751.01
427.22	1650.66
427.42	1665.00
427.63	1705.96
427.83	1824.74
428.04	1859.56
428.25	1800.16
428.45	1798.12
428.66	1732.58
428.86	1714.15
429.07	1720.29
429.28	1746.92
429.48	1697.77
429.69	1703.91
429.89	1773.54
430.10	1671.14
430.30	1804.26
430.51	1759.21
430.71	1701.86
430.92	1703.91
431.13	1744.87
431.33	1832.93
431.54	1736.68
431.74	1800.16
431.95	1845.22
432.15	1648.61
432.36	1703.91
432.56	1736.68
432.77	1912.80
432.98	1865.70
433.18	1640.42
433.39	1751.01
433.59	1800.16
433.80	1847.27
434.00	1933.28
434.21	1667.05
434.41	1671.14
434.62	1816.55
434.82	1656.81
435.03	1654.76
435.23	1730.53
435.44	1619.94
435.64	1728.49
435.85	1730.53
436.06	1742.82
436.26	1796.07
436.47	1695.72
436.67	1652.71
436.88	1689.57
437.08	1763.30
437.29	1820.64
437.49	1681.38
437.70	1781.73
437.90	1679.33
438.11	1865.70
438.31	1751.01
438.52	1748.97
438.72	1841.12
438.93	1869.80
439.13	1740.77
439.34	1888.23
439.54	1681.38
439.75	1814.50
439.95	1771.49
440.16	1660.90
440.36	1732.58
440.57	1738.73
440.77	1748.97
440.98	1710.05
441.18	1820.64
441.39	1716.20
441.59	1732.58
441.80	1847.27
442.00	1828.84
442.21	1775.59
442.41	1683.43
442.62	1798.12
442.82	1701.86
443.02	1757.16
443.23	1820.64
443.43	1800.16
443.64	1820.64
443.84	1703.91
444.05	1816.55
444.25	1689.57
444.46	1740.77
444.66	1695.72
444.87	1804.26
445.07	1693.67
445.28	1712.10
445.48	1828.84
445.69	1816.55
445.89	1880.04
446.09	1771.49
446.30	2050.02
446.50	2586.58
446.71	3753.93
446.91	4235.20
447.12	4558.78
447.32	4890.55
447.53	4345.79
447.73	3825.61
447.93	3403.72
448.14	3291.09
448.34	3100.62
448.55	2813.91
448.75	2809.81
448.96	2719.70
449.16	2410.46
449.36	2258.91
449.57	2117.60
449.77	1906.66
449.98	1738.73
450.18	1767.40
450.39	1855.46
450.59	1820.64
450.79	1699.81
451.00	1755.11
451.20	1753.06
451.41	1636.33
451.61	1734.63
451.81	1746.92
452.02	1787.88
452.22	1794.02
452.43	1673.19
452.63	1685.48
452.84	1767.40
453.04	1777.64
453.24	1802.21
453.45	1722.34
453.65	1787.88
453.86	1732.58
454.06	1832.93
454.26	1712.10
454.47	1734.63
454.67	1804.26
454.87	1818.60
455.08	1791.97
455.28	1847.27
455.49	1734.63
455.69	1708.01
455.89	1884.13
456.10	1830.88
456.30	1740.77
456.51	1732.58
456.71	1796.07
456.91	1763.30
457.12	1757.16
457.32	1755.11
457.52	1718.25
457.73	1810.40
457.93	1769.44
458.14	1728.49
458.34	1732.58
458.54	1755.11
458.75	1753.06
458.95	1808.36
459.15	1771.49
459.36	1773.54
459.56	1812.45
459.76	1894.37
459.97	1837.03
460.17	1767.40
460.37	1818.60
460.58	1738.73
460.78	1796.07
460.99	1705.96
461.19	1767.40
461.39	1685.48
461.60	1724.39
461.80	1744.87
462.00	1650.66
462.21	1728.49
462.41	1634.28
462.61	1712.10
462.82	1673.19
463.02	1789.92
463.22	1740.77
463.43	1861.60
463.63	1691.62
463.83	1773.54
464.04	1757.16
464.24	1724.39
464.44	1746.92
464.64	1771.49
464.85	1851.36
465.05	1728.49
465.25	1796.07
465.46	1730.53
465.66	1830.88
465.86	1755.11
466.07	1757.16
466.27	1703.91
466.47	1640.42
466.68	1689.57
466.88	1865.70
467.08	1714.15
467.29	1814.50
467.49	1798.12
467.69	1673.19
467.89	1837.03
468.10	1736.68
468.30	1771.49
468.50	1787.88
468.71	1775.59
468.91	1646.57
469.11	1896.42
469.31	1720.29
469.52	1689.57
469.72	1863.65
469.92	1892.32
470.13	1689.57
470.33	1785.83
470.53	1806.31
470.73	2150.37
470.94	2248.67
471.14	2344.92
471.34	2527.19
471.54	2365.40
471.75	2267.10
471.95	2164.70
472.15	2140.13
472.36	2119.65
472.56	2064.35
472.76	2076.64
472.96	2029.54
473.17	1910.75
473.37	1941.47
473.57	1865.70
473.77	1814.50
473.98	1738.73
474.18	1726.44
474.38	1884.13
474.58	1751.01
474.79	1718.25
474.99	1869.80
475.19	1738.73
475.39	1681.38
475.60	1703.91
475.80	1691.62
476.00	1769.44
476.20	1767.40
476.41	1677.29
476.61	1820.64
476.81	1773.54
477.01	1632.23
477.21	1884.13
477.42	1773.54
477.62	1718.25
477.82	1763.30
478.02	1632.23
478.23	1763.30
478.43	1650.66
478.63	1693.67
478.83	1761.25
479.03	1796.07
479.24	1773.54
479.44	1824.74
479.64	1652.71
479.84	1591.27
480.04	1677.29
480.25	1816.55
480.45	1734.63
480.65	1740.77
480.85	1781.73
481.06	1718.25
481.26	1693.67
481.46	1738.73
481.66	1697.77
481.86	1675.24
482.06	1822.69
482.27	1789.92
482.47	1763.30
482.67	1738.73
482.87	1722.34
483.07	1808.36
483.28	1738.73
483.48	1691.62
483.68	1695.72
483.88	1699.81
484.08	1705.96
484.29	1703.91
484.49	1658.85
484.69	1660.90
484.89	1804.26
485.09	1810.40
485.29	1728.49
485.50	1734.63
485.70	1687.53
485.90	1763.30
486.10	1681.38
486.30	1759.21
486.50	1732.58
486.71	1675.24
486.91	1806.31
487.11	1794.02
487.31	1658.85
487.51	1757.16
487.71	1603.56
487.91	1624.04
488.12	1728.49
488.32	1511.40
488.52	1615.85
488.72	1546.22
488.92	1761.25
489.12	1748.97
489.32	1810.40
489.53	1826.79
489.73	1718.25
489.93	1791.97
490.13	1773.54
490.33	1683.43
490.53	1767.40
490.73	1755.11
490.94	1691.62
491.14	1763.30
491.34	1804.26
491.54	2205.66
491.74	2637.78
491.94	2861.01
492.14	3006.42
492.34	2969.55
492.54	2793.43
492.75	2527.19
492.95	2369.50
493.15	2320.35
493.35	2164.70
493.55	2240.48
493.75	2107.36
493.95	2052.06
494.15	1994.72
494.35	1927.14
494.56	1865.70
494.76	1824.74
494.96	1744.87
495.16	1761.25
495.36	1683.43
495.56	1699.81
495.76	1767.40
495.96	1738.73
496.16	1636.33
496.36	1828.84
496.56	1779.68
496.77	1765.35
496.97	1689.57
497.17	1820.64
497.37	1648.61
497.57	1705.96
497.77	1683.43
497.97	1583.08
498.17	1730.53
498.37	1716.20
498.57	1769.44
498.77	1732.58
498.97	1847.27
499.17	1826.79
499.38	1722.34
499.58	1816.55
499.78	1759.21
499.98	1783.78
500.18	1716.20
500.38	1718.25
500.58	1888.23
500.78	2490.33
500.98	4552.63
501.18	5609.39
501.38	6692.76
501.58	7071.64
501.78	6631.32
501.98	5410.73
502.18	4911.03
502.38	4366.27
502.58	4116.42
502.78	3762.12
502.98	3676.10
503.18	3422.16
503.38	3282.89
503.59	2803.67
503.79	2705.37
503.99	2525.15
504.19	2334.68
504.39	2217.95
504.59	2129.89
504.79	2129.89
504.99	1980.39
505.19	1927.14
505.39	1906.66
505.59	1972.19
505.79	1945.57
505.99	1841.12
506.19	1820.64
506.39	1929.19
506.59	1771.49
506.79	1746.92
506.99	1800.16
507.19	1796.07
507.39	1738.73
507.59	1683.43
507.79	1697.77
507.99	1685.48
508.19	1728.49
508.39	1730.53
508.59	1834.98
508.79	1890.28
508.99	1812.45
509.19	1679.33
509.39	1765.35
509.59	1734.63
509.79	1677.29
509.99	1691.62
510.19	1873.89
510.39	1789.92
510.59	1794.02
510.79	1736.68
510.99	1714.15
511.19	1796.07
511.39	1884.13
511.59	1812.45
511.79	1783.78
511.99	1644.52
512.19	1779.68
512.38	1681.38
512.58	1720.29
512.78	1701.86
512.98	1748.97
513.18	1806.31
513.38	1679.33
513.58	1732.58
513.78	1716.20
513.98	1738.73
514.18	1697.77
514.38	1705.96
514.58	1742.82
514.78	1652.71
514.98	1732.58
515.18	1779.68
515.38	1701.86
515.58	1789.92
515.78	1718.25
515.98	1730.53
516.18	1787.88
516.38	1673.19
516.57	1660.90
516.77	1773.54
516.97	1724.39
517.17	1769.44
517.37	1681.38
517.57	1814.50
517.77	1734.63
517.97	1742.82
518.17	1767.40
518.37	1701.86
518.57	1751.01
518.77	1791.97
518.97	1691.62
519.16	1777.64
519.36	1834.98
519.56	1736.68
519.76	1673.19
519.96	1761.25
520.16	1781.73
520.36	1734.63
520.56	1761.25
520.76	1687.53
520.96	1693.67
521.16	1845.22
521.35	1712.10
521.55	1853.41
521.75	1734.63
521.95	1748.97
522.15	1679.33
522.35	1708.01
522.55	1669.09
522.75	1769.44
522.95	1673.19
523.14	1687.53
523.34	1822.69
523.54	1732.58
523.74	1822.69
523.94	1789.92
524.14	1652.71
524.34	1818.60
524.54	1779.68
524.73	1757.16
524.93	1810.40
525.13	1769.44
525.33	1626.09
525.53	1910.75
525.73	1757.16
525.93	1705.96
526.13	1693.67
526.32	1767.40
526.52	1769.44
526.72	1820.64
526.92	1779.68
527.12	1763.30
527.32	1705.96
527.52	1765.35
527.71	1806.31
527.91	1722.34
528.11	1671.14
528.31	1712.10
528.51	1675.24
528.71	1853.41
528.90	1789.92
529.10	1751.01
529.30	1912.80
529.50	1648.61
529.70	1767.40
529.90	1705.96
530.09	1787.88
530.29	1671.14
530.49	1697.77
530.69	1888.23
530.89	1691.62
531.09	1794.02
531.28	1699.81
531.48	1769.44
531.68	1834.98
531.88	1693.67
532.08	1763.30
532.28	1648.61
532.47	1730.53
532.67	1822.69
532.87	1742.82
533.07	1677.29
533.27	1777.64
533.46	1761.25
533.66	1761.25
533.86	1667.05
534.06	1742.82
534.26	1691.62
534.45	1689.57
534.65	1816.55
534.85	1726.44
535.05	1708.01
535.25	1767.40
535.44	1738.73
535.64	1734.63
535.84	1753.06
536.04	1744.87
536.24	1673.19
536.43	1638.38
536.63	1755.11
536.83	1746.92
537.03	1791.97
537.22	1705.96
537.42	1691.62
537.62	1761.25
537.82	1636.33
538.02	1777.64
538.21	1789.92
538.41	1859.56
538.61	1775.59
538.81	1646.57
539.00	1804.26
539.20	1703.91
539.40	1695.72
539.60	1734.63
539.79	1789.92
539.99	1748.97
540.19	1683.43
540.39	1703.91
540.58	1742.82
540.78	1789.92
540.98	1779.68
541.18	1796.07
541.37	1730.53
541.57	1660.90
541.77	1785.83
541.97	1755.11
542.16	1714.15
542.36	1738.73
542.56	1761.25
542.76	1806.31
542.95	1798.12
543.15	1812.45
543.35	1857.51
543.54	1640.42
543.74	1669.09
543.94	1869.80
544.14	1781.73
544.33	1783.78
544.53	1769.44
544.73	1732.58
544.93	1820.64
545.12	1759.21
545.32	1722.34
545.52	1710.05
545.71	1677.29
545.91	1734.63
546.11	1722.34
546.30	1697.77
546.50	1738.73
546.70	1785.83
546.90	1779.68
547.09	1646.57
547.29	1773.54
547.49	1773.54
547.68	1734.63
547.88	1777.64
548.08	1720.29
548.27	2183.13
548.47	1718.25
548.67	1714.15
548.87	1851.36
549.06	1685.48
549.26	1775.59
549.46	1767.40
549.65	1705.96
549.85	1751.01
550.05	1834.98
550.24	1681.38
550.44	1724.39
550.64	1746.92
550.83	1779.68
551.03	1820.64
551.23	1767.40
551.42	1814.50
551.62	1736.68
551.82	1781.73
552.01	1751.01
552.21	1843.17
552.41	1746.92
552.60	1796.07
552.80	1744.87
553.00	1714.15
553.19	1818.60
553.39	1779.68
553.59	1665.00
553.78	1869.80
553.98	1722.34
554.17	1675.24
554.37	1820.64
554.57	1808.36
554.76	1656.81
554.96	1748.97
555.16	1755.11
555.35	1730.53
555.55	1869.80
555.75	1804.26
555.94	1794.02
556.14	1681.38
556.33	1794.02
556.53	1765.35
556.73	1759.21
556.92	1828.84
557.12	1880.04
557.32	1894.37
557.51	1832.93
557.71	1748.97
557.90	1914.85
558.10	1828.84
558.30	1714.15
558.49	1703.91
558.69	1677.29
558.88	1771.49
559.08	1773.54
559.28	1771.49
559.47	1701.86
559.67	1691.62
559.86	1890.28
560.06	1771.49
560.26	1716.20
560.45	1824.74
560.65	1751.01
560.84	1853.41
561.04	1738.73
561.24	1722.34
561.43	1718.25
561.63	1771.49
561.82	1849.32
562.02	1791.97
562.22	1710.05
562.41	1697.77
562.61	1718.25
562.80	1718.25
563.00	1886.18
563.19	1808.36
563.39	1755.11
563.59	1763.30
563.78	1644.52
563.98	1662.95
564.17	1697.77
564.37	1648.61
564.56	1761.25
564.76	1632.23
564.96	1816.55
565.15	1724.39
565.35	1849.32
565.54	1669.09
565.74	1751.01
565.93	1720.29
566.13	1800.16
566.32	1775.59
566.52	1834.98
566.71	1773.54
566.91	1771.49
567.11	1716.20
567.30	1767.40
567.50	1877.99
567.69	1753.06
567.89	1728.49
568.08	1716.20
568.28	1789.92
568.47	1681.38
568.67	1687.53
568.86	1781.73
569.06	1910.75
569.25	1765.35
569.45	1705.96
569.64	1656.81
569.84	1787.88
570.04	1738.73
570.23	1740.77
570.43	1701.86
570.62	1773.54
570.82	1861.60
571.01	1742.82
571.21	1755.11
571.40	1744.87
571.60	1757.16
571.79	1787.88
571.99	1767.40
572.18	1689.57
572.38	1744.87
572.57	1724.39
572.77	1834.98
572.96	1857.51
573.16	1726.44
573.35	1730.53
573.55	1779.68
573.74	1804.26
573.94	1693.67
574.13	1730.53
574.33	1791.97
574.52	1777.64
574.71	1855.46
574.91	1746.92
575.10	1697.77
575.30	1740.77
575.49	1703.91
575.69	1753.06
575.88	1808.36
576.08	1767.40
576.27	1853.41
576.47	1705.96
576.66	1847.27
576.86	1796.07
577.05	1689.57
577.25	1830.88
577.44	1865.70
577.64	1779.68
577.83	1806.31
578.02	1687.53
578.22	1849.32
578.41	1791.97
578.61	1773.54
578.80	1701.86
579.00	1767.40
579.19	1697.77
579.39	1814.50
579.58	1802.21
579.77	1751.01
579.97	1828.84
580.16	1867.75
580.36	1845.22
580.55	1779.68
580.75	1820.64
580.94	1771.49
581.13	1861.60
581.33	1845.22
581.52	1761.25
581.72	1888.23
581.91	1820.64
582.11	1683.43
582.30	1789.92
582.49	1753.06
582.69	1867.75
582.88	1816.55
583.08	1734.63
583.27	1888.23
583.47	1746.92
583.66	1689.57
583.85	1660.90
584.05	1789.92
584.24	1820.64
584.44	1765.35
584.63	1843.17
584.82	1857.51
585.02	1798.12
585.21	1820.64
585.41	1794.02
585.60	1877.99
585.79	1984.48
585.99	1890.28
586.18	1920.99
586.37	2205.66
586.57	3440.59
586.76	9856.87
586.96	24174.22
587.15	33752.57
587.34	39314.86
587.54	40926.61
587.73	35943.90
587.93	25831.03
588.12	20913.86
588.31	17800.94
588.51	15982.35
588.70	14880.54
588.89	13965.10
589.09	12355.40
589.28	10942.30
589.47	9191.28
589.67	7810.95
589.86	6328.22
590.06	4773.82
590.25	3829.70
590.44	3121.10
590.64	2551.77
590.83	2287.58
591.02	2099.17
591.22	1910.75
591.41	1933.28
591.60	1824.74
591.80	2000.87
591.99	1855.46
592.18	1789.92
592.38	1857.51
592.57	1730.53
592.76	1849.32
592.96	1839.08
593.15	1767.40
593.34	1759.21
593.54	1757.16
593.73	1810.40
593.92	1783.78
594.12	1763.30
594.31	1689.57
594.50	1767.40
594.70	1832.93
594.89	1896.42
595.08	1646.57
595.28	1763.30
595.47	1964.00
595.66	1828.84
595.86	1718.25
596.05	1763.30
596.24	1724.39
596.43	1820.64
596.63	1867.75
596.82	1699.81
597.01	1783.78
597.21	1894.37
597.40	1816.55
597.59	1791.97
597.79	1728.49
597.98	1826.79
598.17	1755.11
598.36	1830.88
598.56	1755.11
598.75	1740.77
598.94	1826.79
599.14	1738.73
599.33	1730.53
599.52	1863.65
599.71	1771.49
599.91	1843.17
600.10	1714.15
600.29	1822.69
600.48	1779.68
600.68	1853.41
600.87	1734.63
601.06	1689.57
601.26	1816.55
601.45	1728.49
601.64	1650.66
601.83	1773.54
602.03	1812.45
602.22	1644.52
602.41	1775.59
602.60	1837.03
602.80	1734.63
602.99	1746.92
603.18	1710.05
603.37	1730.53
603.57	1705.96
603.76	1800.16
603.95	1824.74
604.14	1755.11
604.34	1701.86
604.53	1839.08
604.72	1695.72
604.91	1736.68
605.10	1738.73
605.30	1660.90
605.49	1933.28
605.68	1820.64
605.87	1789.92
606.07	1712.10
606.26	1802.21
606.45	1785.83
606.64	1798.12
606.84	1744.87
607.03	1660.90
607.22	1773.54
607.41	1724.39
607.60	1771.49
607.80	1904.61
607.99	1656.81
608.18	1732.58
608.37	1712.10
608.56	1665.00
608.76	1796.07
608.95	1845.22
609.14	1712.10
609.33	1781.73
609.52	1818.60
609.72	1695.72
609.91	1800.16
610.10	1746.92
610.29	1783.78
610.48	1783.78
610.68	1765.35
610.87	1716.20
611.06	1771.49
611.25	1705.96
611.44	1857.51
611.63	1691.62
611.83	1785.83
612.02	1722.34
612.21	1787.88
612.40	1781.73
612.59	1708.01
612.79	1689.57
612.98	1734.63
613.17	1787.88
613.36	1748.97
613.55	1849.32
613.74	1763.30
613.93	1675.24
614.13	1722.34
614.32	1804.26
614.51	1755.11
614.70	1744.87
614.89	1761.25
615.08	1761.25
615.28	2093.02
615.47	1673.19
615.66	1837.03
615.85	1691.62
616.04	1849.32
616.23	1718.25
616.42	1685.48
616.62	1773.54
616.81	1716.20
617.00	1738.73
617.19	1765.35
617.38	1708.01
617.57	1738.73
617.76	1738.73
617.95	1742.82
618.15	1791.97
618.34	1775.59
618.53	1640.42
618.72	1820.64
618.91	1765.35
619.10	1875.94
619.29	1742.82
619.48	1724.39
619.68	1716.20
619.87	1681.38
620.06	1703.91
620.25	1740.77
620.44	1808.36
620.63	1701.86
620.82	1734.63
621.01	1726.44
621.20	1710.05
621.39	1726.44
621.59	1787.88
621.78	1751.01
621.97	1824.74
622.16	1761.25
622.35	1708.01
622.54	1800.16
622.73	1892.32
622.92	1636.33
623.11	1804.26
623.30	1703.91
623.49	1683.43
623.68	1683.43
623.88	1812.45
624.07	1689.57
624.26	1767.40
624.45	1785.83
624.64	1742.82
624.83	1697.77
625.02	1636.33
625.21	1740.77
625.40	1697.77
625.59	1794.02
625.78	1732.58
625.97	1804.26
626.16	1763.30
626.35	1804.26
626.54	1710.05
626.74	1783.78
626.93	1736.68
627.12	1763.30
627.31	1789.92
627.50	1763.30
627.69	1851.36
627.88	1783.78
628.07	1742.82
628.26	1691.62
628.45	1705.96
628.64	1646.57
628.83	1720.29
629.02	1652.71
629.21	1816.55
629.40	1781.73
629.59	1675.24
629.78	1714.15
629.97	1763.30
630.16	1703.91
630.35	1654.76
630.54	1722.34
630.73	1650.66
630.92	1697.77
631.11	1685.48
631.30	1685.48
631.49	1738.73
631.68	1751.01
631.87	1751.01
632.06	1665.00
632.25	1935.33
632.44	1748.97
632.63	1705.96
632.82	1675.24
633.01	1716.20
633.20	1763.30
633.39	1585.13
633.58	1648.61
633.77	1742.82
633.96	1763.30
634.15	1718.25
634.34	1787.88
634.53	1779.68
634.72	1648.61
634.91	1681.38
635.10	1781.73
635.29	1757.16
635.48	1757.16
635.67	1650.66
635.86	1708.01
636.05	1779.68
636.24	1736.68
636.43	1800.16
636.62	1834.98
636.81	1621.99
637.00	1777.64
637.19	1697.77
637.38	1726.44
637.57	1662.95
637.76	1705.96
637.95	1652.71
638.14	1673.19
638.33	1722.34
638.52	1771.49
638.71	1642.47
638.89	1710.05
639.08	1867.75
639.27	1779.68
639.46	1683.43
639.65	1841.12
639.84	1710.05
640.03	1800.16
640.22	1697.77
640.41	1742.82
640.60	1656.81
640.79	1718.25
640.98	1746.92
641.17	1732.58
641.36	1718.25
641.55	1724.39
641.74	1677.29
641.92	1619.94
642.11	1626.09
642.30	1658.85
642.49	1615.85
642.68	1722.34
642.87	1728.49
643.06	1722.34
643.25	1683.43
643.44	1687.53
643.63	1757.16
643.82	1730.53
644.00	1628.14
644.19	1732.58
644.38	1613.80
644.57	1708.01
644.76	1714.15
644.95	1730.53
645.14	1773.54
645.33	1646.57
645.52	1761.25
645.71	1734.63
645.89	1613.80
646.08	1806.31
646.27	1740.77
646.46	1867.75
646.65	1652.71
646.84	1726.44
647.03	1599.46
647.22	1830.88
647.40	1746.92
647.59	1648.61
647.78	1677.29
647.97	1689.57
648.16	1716.20
648.35	1839.08
648.54	1828.84
648.73	1642.47
648.91	1781.73
649.10	1724.39
649.29	1703.91
649.48	1658.85
649.67	1736.68
649.86	1710.05
650.05	1658.85
650.23	1820.64
650.42	1681.38
650.61	1738.73
650.80	1753.06
650.99	1785.83
651.18	1693.67
651.36	1705.96
651.55	1759.21
651.74	1781.73
651.93	1703.91
652.12	1722.34
652.31	1691.62
652.49	1718.25
652.68	1679.33
652.87	1796.07
653.06	1699.81
653.25	1802.21
653.44	1734.63
653.62	1796.07
653.81	1710.05
654.00	1703.91
654.19	1769.44
654.38	1867.75
654.56	1781.73
654.75	1712.10
654.94	1677.29
655.13	1673.19
655.32	1712.10
655.51	1789.92
655.69	1656.81
655.88	1755.11
656.07	1673.19
656.26	1755.11
656.45	1609.70
656.63	1794.02
656.82	1697.77
657.01	1751.01
657.20	1636.33
657.38	1863.65
657.57	1673.19
657.76	1617.90
657.95	1810.40
658.14	1701.86
658.32	1660.90
658.51	1652.71
658.70	1781.73
658.89	1740.77
659.08	1761.25
659.26	1787.88
659.45	1730.53
659.64	1718.25
659.83	1691.62
660.01	1855.46
660.20	1746.92
660.39	1775.59
660.58	1599.46
660.76	1787.88
660.95	1705.96
661.14	1787.88
661.33	1699.81
661.51	1689.57
661.70	1714.15
661.89	1769.44
662.08	1757.16
662.26	1708.01
662.45	1716.20
662.64	1884.13
662.83	1783.78
663.01	1642.47
663.20	1699.81
663.39	1783.78
663.58	1689.57
663.76	1722.34
663.95	1804.26
664.14	1619.94
664.32	1742.82
664.51	1667.05
664.70	1615.85
664.89	1738.73
665.07	1665.00
665.26	1757.16
665.45	1662.95
665.64	1757.16
665.82	1769.44
666.01	1789.92
666.20	1730.53
666.38	1755.11
666.57	1796.07
666.76	2164.70
666.95	4376.51
667.13	10440.54
667.32	14958.36
667.51	17688.31
667.69	18847.46
667.88	17166.07
668.07	11935.56
668.25	9469.81
668.44	8058.76
668.63	7116.69
668.81	6721.43
669.00	6150.05
669.19	5705.64
669.38	4951.99
669.56	4478.91
669.75	3919.81
669.94	3307.47
670.12	2861.01
670.31	2566.10
670.50	2267.10
670.68	2023.39
670.87	1914.85
671.06	1828.84
671.24	1841.12
671.43	1800.16
671.62	1708.01
671.80	1748.97
671.99	1748.97
672.18	1691.62
672.36	1804.26
672.55	1701.86
672.74	1640.42
672.92	1677.29
673.11	1703.91
673.29	1669.09
673.48	1779.68
673.67	1671.14
673.85	1746.92
674.04	1738.73
674.23	1736.68
674.41	1861.60
674.60	1644.52
674.79	1638.38
674.97	1740.77
675.16	1738.73
675.34	1867.75
675.53	1703.91
675.72	1783.78
675.90	1820.64
676.09	1611.75
676.28	1722.34
676.46	1644.52
676.65	1767.40
676.83	1699.81
677.02	1783.78
677.21	1728.49
677.39	1716.20
677.58	1665.00
677.77	1687.53
677.95	1644.52
678.14	1638.38
678.32	1748.97
678.51	1652.71
678.70	1806.31
678.88	1732.58
679.07	1787.88
679.25	1675.24
679.44	1685.48
679.63	1697.77
679.81	1689.57
680.00	1863.65
680.18	1785.83
680.37	1808.36
680.55	1753.06
680.74	1634.28
680.93	1632.23
681.11	1673.19
681.30	1748.97
681.48	1820.64
681.67	1718.25
681.85	1726.44
682.04	1701.86
682.23	1814.50
682.41	1691.62
682.60	1691.62
682.78	1775.59
682.97	1673.19
683.15	1738.73
683.34	1742.82
683.53	1804.26
683.71	1648.61
683.90	1845.22
684.08	1812.45
684.27	1757.16
684.45	1679.33
684.64	1783.78
684.82	1640.42
685.01	1718.25
685.19	1697.77
685.38	1812.45
685.57	1787.88
685.75	1779.68
685.94	1687.53
686.12	1673.19
686.31	1703.91
686.49	1802.21
686.68	1697.77
686.86	1765.35
687.05	1740.77
687.23	1802.21
687.42	1710.05
687.60	1683.43
687.79	1777.64
687.97	1759.21
688.16	1775.59
688.34	1779.68
688.53	1669.09
688.71	1849.32
688.90	1810.40
689.08	1665.00
689.27	1718.25
689.45	1765.35
689.64	1771.49
689.82	1796.07
690.01	1736.68
690.19	1703.91
690.38	1738.73
690.56	1763.30
690.75	1638.38
690.93	1763.30
691.12	1685.48
691.30	1736.68
691.49	1759.21
691.67	1734.63
691.86	1785.83
692.04	1701.86
692.23	1679.33
692.41	1818.60
692.60	1828.84
692.78	1726.44
692.97	1726.44
693.15	1714.15
693.34	1843.17
693.52	1773.54
693.71	1759.21
693.89	1648.61
694.08	1576.94
694.26	1791.97
694.44	1832.93
694.63	1734.63
694.81	1630.18
695.00	1746.92
695.18	1826.79
695.37	1812.45
695.55	1751.01
695.74	1648.61
695.92	1665.00
696.10	1816.55
696.29	1597.42
696.47	1701.86
696.66	1671.14
696.84	1708.01
697.03	1775.59
697.21	1789.92
697.40	2299.87
697.58	1804.26
697.76	1662.95
697.95	1724.39
698.13	1636.33
698.32	1695.72
698.50	1667.05
698.68	1705.96
698.87	1738.73
699.05	1839.08
699.24	1771.49
699.42	1751.01
699.61	1806.31
699.79	1708.01
699.97	1697.77
700.16	1660.90
700.34	1705.96
700.53	1695.72
700.71	1853.41
700.89	1751.01
701.08	1689.57
701.26	1730.53
701.45	2084.83
701.63	1671.14
701.81	1755.11
702.00	1667.05
702.18	1748.97
702.37	1679.33
702.55	1732.58
702.73	1697.77
702.92	1730.53
703.10	1796.07
703.28	1689.57
703.47	1640.42
703.65	1767.40
703.84	1732.58
704.02	1677.29
704.20	1763.30
704.39	1738.73
704.57	1748.97
704.75	1804.26
704.94	1779.68
705.12	1769.44
705.30	1763.30
705.49	2279.39
705.67	4468.67
705.86	9303.92
706.04	12296.00
706.22	14124.84
706.41	15027.99
706.59	13621.04
706.77	9566.06
706.96	7186.32
707.14	6381.47
707.32	5836.71
707.51	5480.36
707.69	4775.86
707.87	4132.80
708.06	3557.32
708.24	2926.55
708.42	2432.99
708.61	2308.06
708.79	1920.99
708.97	1906.66
709.16	1877.99
709.34	1839.08
709.52	1787.88
709.71	1843.17
709.89	1722.34
710.07	1644.52
710.26	1689.57
710.44	1638.38
710.62	1775.59
710.80	1658.85
710.99	1800.16
711.17	1814.50
711.35	1757.16
711.54	1687.53
711.72	1785.83
711.90	1744.87
712.09	1695.72
712.27	1720.29
712.45	1744.87
712.63	1716.20
712.82	1746.92
713.00	1759.21
713.18	1736.68
713.37	1720.29
713.55	1695.72
713.73	1798.12
713.91	1685.48
714.10	1693.67
714.28	1632.23
714.46	1753.06
714.65	1705.96
714.83	1667.05
715.01	1789.92
715.19	1722.34
715.38	1689.57
715.56	1724.39
715.74	1673.19
715.92	1708.01
716.11	1734.63
716.29	1630.18
716.47	1697.77
716.65	1714.15
716.84	1613.80
717.02	1705.96
717.20	1675.24
717.38	1677.29
717.57	1751.01
717.75	1742.82
717.93	1648.61
718.11	1779.68
718.30	1665.00
718.48	1742.82
718.66	1806.31
718.84	1884.13
719.03	1681.38
719.21	1681.38
719.39	1849.32
719.57	1718.25
719.75	1777.64
719.94	1740.77
720.12	1701.86
720.30	1765.35
720.48	1736.68
720.67	1673.19
720.85	1621.99
721.03	1695.72
721.21	1656.81
721.39	1800.16
721.58	1720.29
721.76	1718.25
721.94	1765.35
722.12	1753.06
722.30	1814.50
722.49	1738.73
722.67	1779.68
722.85	1724.39
723.03	1634.28
723.21	1617.90
723.40	1740.77
723.58	1736.68
723.76	1763.30
723.94	1843.17
724.12	1740.77
724.30	1834.98
724.49	1763.30
724.67	1681.38
724.85	1791.97
725.03	1656.81
725.21	1820.64
725.40	1789.92
725.58	1726.44
725.76	1736.68
725.94	1748.97
726.12	1701.86
726.30	1677.29
726.49	1716.20
726.67	1667.05
726.85	1769.44
727.03	1705.96
727.21	2213.85
727.39	2963.41
727.57	3725.26
727.76	4173.76
727.94	4466.62
728.12	4284.35
728.30	3637.19
728.48	2985.94
728.66	2725.85
728.84	2435.03
729.03	2252.77
729.21	2123.74
729.39	1959.91
729.57	1804.26
729.75	1710.05
729.93	1898.47
730.11	1626.09
730.30	1789.92
730.48	1710.05
730.66	1759.21
730.84	1753.06
731.02	1769.44
731.20	1712.10
731.38	1796.07
731.56	1722.34
731.74	1691.62
731.93	1746.92
732.11	1716.20
732.29	1714.15
732.47	1755.11
732.65	1697.77
732.83	1748.97
733.01	1783.78
733.19	1701.86
733.37	1726.44
733.56	1701.86
733.74	1751.01
733.92	1828.84
734.10	1716.20
734.28	1755.11
734.46	1650.66
734.64	1669.09
734.82	1681.38
735.00	1701.86
735.18	1705.96
735.36	1677.29
735.54	1748.97
735.73	1705.96
735.91	1722.34
736.09	1722.34
736.27	1716.20
736.45	1689.57
736.63	1619.94
736.81	1759.21
736.99	1763.30
737.17	1820.64
737.35	1740.77
737.53	1673.19
737.71	1673.19
737.89	1759.21
738.07	1722.34
738.25	1650.66
738.43	1619.94
738.61	1697.77
738.80	1638.38
738.98	1701.86
739.16	1699.81
739.34	1683.43
739.52	1769.44
739.70	1695.72
739.88	1736.68
740.06	1785.83
740.24	1681.38
740.42	1828.84
740.60	1572.84
740.78	1767.40
740.96	1603.56
741.14	1685.48
741.32	1716.20
741.50	1601.51
741.68	1802.21
741.86	1732.58
742.04	1677.29
742.22	1730.53
742.40	1675.24
742.58	1746.92
742.76	1619.94
742.94	1726.44
743.12	1605.61
743.30	1681.38
743.48	1734.63
743.66	1605.61
743.84	1701.86
744.02	1677.29
744.20	1693.67
744.38	1662.95
744.56	1640.42
744.74	1826.79
744.92	1734.63
745.10	1783.78
745.28	1708.01
745.46	1753.06
745.64	1722.34
745.82	1773.54
746.00	1714.15
746.18	1660.90
746.36	1705.96
746.54	1714.15
746.72	1708.01
746.90	1632.23
747.08	1783.78
747.26	1691.62
747.44	1822.69
747.62	1771.49
747.80	1732.58
747.98	1726.44
748.15	1697.77
748.33	1769.44
748.51	1730.53
748.69	1732.58
748.87	1703.91
749.05	1718.25
749.23	1761.25
749.41	1796.07
749.59	1718.25
749.77	1742.82
749.95	1689.57
750.13	1628.14
750.31	1714.15
750.49	1658.85
750.67	1822.69
750.85	1812.45
751.03	1708.01
751.20	1820.64
751.38	1687.53
751.56	1681.38
751.74	1759.21
751.92	1791.97
752.10	1636.33
752.28	1710.05
752.46	1646.57
752.64	1689.57
752.82	1746.92
753.00	1722.34
753.18	1632.23
753.35	1662.95
753.53	1667.05
753.71	1691.62
753.89	1708.01
754.07	1681.38
754.25	1796.07
754.43	1834.98
754.61	1632.23
754.79	1722.34
754.97	1742.82
755.14	1730.53
755.32	1642.47
755.50	1665.00
755.68	1730.53
755.86	1609.70
756.04	1642.47
756.22	1605.61
756.40	1802.21
756.57	1808.36
756.75	1677.29
756.93	1785.83
757.11	1722.34
757.29	1642.47
757.47	1695.72
757.65	1636.33
757.82	1595.37
758.00	1675.24
758.18	1730.53
758.36	1699.81
758.54	1689.57
758.72	1619.94
758.90	1822.69
759.07	1718.25
759.25	1718.25
759.43	1683.43
759.61	1617.90
759.79	2174.94
759.97	1763.30
760.15	1665.00
760.32	1683.43
760.50	1734.63
760.68	1822.69
760.86	1619.94
761.04	1791.97
761.22	1796.07
761.39	1748.97
761.57	1757.16
761.75	1730.53
761.93	1761.25
762.11	1656.81
762.28	1732.58
762.46	1685.48
762.64	1812.45
762.82	1642.47
763.00	1660.90
763.18	1755.11
763.35	1636.33
763.53	1675.24
763.71	1699.81
763.89	1728.49
764.07	1742.82
764.24	1691.62
764.42	1665.00
764.60	1697.77
764.78	1691.62
764.96	1755.11
765.13	1855.46
765.31	1757.16
765.49	1818.60
765.67	1683.43
765.84	1662.95
766.02	1732.58
766.20	1691.62
766.38	1785.83
766.56	1730.53
766.73	1734.63
766.91	1740.77
767.09	1728.49
767.27	1773.54
767.44	1742.82
767.62	1748.97
767.80	1738.73
767.98	1703.91
768.15	1646.57
768.33	1730.53
768.51	1824.74
768.69	1796.07
768.87	1726.44
769.04	1732.58
769.22	1863.65
769.40	1814.50
769.58	1880.04
769.75	1732.58
769.93	1802.21
770.11	1742.82
770.28	1656.81
770.46	1724.39
770.64	1710.05
770.82	1683.43
770.99	1720.29
771.17	1802.21
771.35	1685.48
771.53	1693.67
771.70	1726.44
771.88	1689.57
772.06	1691.62
772.23	1746.92
772.41	1708.01
772.59	1695.72
772.77	1710.05
772.94	1691.62
773.12	1771.49
773.30	1636.33
773.47	1726.44
773.65	1638.38
773.83	1796.07
774.01	1679.33
774.18	1605.61
774.36	1650.66
774.54	1646.57
774.71	1722.34
774.89	1603.56
775.07	1619.94
775.24	1712.10
775.42	1593.32
775.60	1734.63
775.78	1681.38
775.95	1605.61
776.13	1675.24
776.31	1628.14
776.48	1660.90
776.66	1779.68
776.84	1718.25
777.01	1652.71
777.19	1693.67
777.37	1697.77
777.54	1746.92
777.72	1845.22
777.90	1744.87
778.07	1693.67
778.25	1882.08
778.43	1751.01
778.60	1656.81
778.78	1794.02
778.96	1755.11
779.13	1630.18
779.31	1796.07
779.49	1669.09
779.66	1757.16
779.84	1773.54
780.01	1697.77
780.19	1656.81
780.37	1753.06
780.54	1726.44
780.72	1681.38
780.90	1769.44
781.07	1650.66
781.25	1669.09
781.43	1675.24
781.60	1681.38
781.78	1798.12
781.95	1689.57
782.13	1660.90
782.31	1742.82
782.48	1570.79
782.66	1755.11
782.83	1824.74
783.01	1734.63
783.19	1738.73
783.36	1681.38
783.54	1658.85
783.72	1771.49
783.89	1732.58
784.07	1687.53
784.24	1652.71
784.42	1775.59
784.60	1744.87
784.77	1683.43
784.95	1558.50
785.12	1681.38
785.30	1742.82
785.47	1630.18
785.65	1681.38
785.83	1757.16
786.00	1677.29
786.18	1701.86
786.35	1648.61
786.53	1746.92
786.71	1771.49
786.88	1736.68
787.06	1736.68
787.23	1626.09
787.41	1662.95
787.58	1665.00
787.76	1644.52
787.94	1732.58
788.11	1740.77
788.29	1691.62
788.46	1665.00
788.64	1611.75
788.81	1703.91
788.99	1710.05
789.16	1621.99
789.34	1691.62
789.52	1685.48
789.69	1646.57
789.87	1617.90
790.04	1677.29
790.22	1714.15
790.39	1812.45
790.57	1685.48
790.74	1658.85
790.92	1748.97
791.09	1652.71
791.27	1703.91
791.44	1757.16
791.62	1822.69
791.79	1748.97
791.97	1708.01
792.15	1873.89
792.32	1738.73
792.50	1800.16
792.67	1802.21
792.85	1785.83
793.02	1822.69
793.20	1695.72
793.37	1640.42
793.55	1679.33
793.72	1654.76
793.90	1724.39
794.07	1617.90
794.25	1699.81
794.42	1728.49
794.60	1669.09
794.77	1644.52
794.95	1746.92
795.12	1746.92
795.30	1677.29
795.47	1581.03
795.65	1863.65
795.82	1728.49
796.00	1634.28
796.17	1699.81
796.34	1744.87
796.52	1779.68
796.69	1796.07
796.87	1712.10
797.04	1703.91
797.22	1755.11
797.39	1722.34
797.57	1771.49
797.74	1730.53
797.92	1705.96
798.09	1679.33
798.27	1773.54
798.44	1755.11
798.62	1714.15
798.79	1748.97
798.96	1798.12
799.14	1624.04
799.31	1855.46
799.49	1722.34
799.66	1675.24
799.84	1718.25
800.01	1603.56
800.19	1751.01
800.36	1669.09
800.53	1701.86
800.71	1662.95
800.88	1796.07
801.06	1732.58
801.23	1572.84
801.41	1691.62
801.58	1689.57
801.75	1669.09
801.93	1834.98
802.10	1691.62
802.28	1693.67
802.45	1615.85
802.63	1806.31
802.80	1765.35
802.97	1671.14
803.15	1716.20
803.32	1671.14
803.50	1646.57
803.67	1689.57
803.84	1650.66
804.02	1779.68
804.19	1693.67
804.37	1595.37
804.54	1642.47
804.71	1691.62
804.89	1695.72
805.06	1611.75
805.24	1671.14
805.41	1640.42
805.58	1722.34
805.76	1863.65
805.93	1656.81
806.10	1802.21
806.28	1781.73
806.45	1738.73
806.63	1708.01
806.80	1671.14
806.97	1724.39
807.15	1746.92
807.32	1708.01
807.49	1636.33
807.67	1642.47
807.84	1656.81
808.01	1621.99
808.19	1812.45
808.36	1783.78
808.54	1689.57
808.71	1648.61
808.88	1699.81
809.06	1710.05
809.23	1853.41
809.40	1656.81
809.58	1722.34
809.75	1751.01
809.92	1687.53
810.10	1859.56
810.27	1683.43
810.44	1746.92
810.62	1804.26
810.79	1779.68
810.96	1605.61
811.14	1740.77
811.31	1767.40
811.48	1730.53
811.66	1726.44
811.83	1759.21
812.00	1732.58
812.18	1724.39
812.35	1796.07
812.52	1683.43
812.69	1728.49
812.87	1671.14
813.04	1769.44
813.21	1658.85
813.39	1665.00
813.56	1689.57
813.73	1787.88
813.91	1621.99
814.08	1699.81
814.25	1722.34
814.42	1613.80
814.60	1701.86
814.77	1689.57
814.94	1630.18
815.12	1722.34
815.29	1798.12
815.46	1726.44
815.63	1761.25
815.81	1714.15
815.98	1669.09
816.15	1726.44
816.33	1748.97
816.50	1689.57
816.67	1679.33
816.84	1699.81
817.02	1576.94
817.19	1624.04
817.36	1679.33
817.53	1787.88
817.71	1742.82
817.88	1806.31
818.05	1681.38
818.22	1650.66
818.40	1851.36
818.57	1751.01
818.74	1783.78
818.91	1742.82
819.09	1746.92
819.26	1724.39
819.43	1695.72
819.60	1675.24
819.78	1714.15
819.95	1869.80
820.12	1607.66
820.29	1765.35
820.47	1851.36
820.64	1710.05
820.81	1628.14
820.98	1607.66
821.15	1724.39
821.33	1798.12
821.50	1691.62
821.67	1744.87
821.84	1673.19
822.02	1755.11
822.19	1806.31
822.36	1673.19
822.53	1695.72
822.70	1609.70
822.88	1673.19
823.05	1871.84
823.22	1701.86
823.39	1728.49
823.56	1634.28
823.74	1830.88
823.91	1703.91
824.08	1654.76
824.25	1638.38
824.42	1845.22
824.60	1619.94
824.77	1722.34
824.94	1701.86
825.11	1806.31
825.28	1640.42
825.45	1726.44
825.63	1742.82
825.80	1669.09
825.97	1771.49
826.14	1789.92
826.31	1589.22
826.48	1767.40
826.66	1660.90
826.83	1669.09
827.00	1763.30
827.17	1626.09
827.34	1755.11
827.51	1712.10
827.69	1777.64
827.86	1646.57
828.03	1615.85
828.20	1779.68
828.37	1669.09
828.54	1748.97
828.71	1671.14
828.89	1816.55
829.06	1691.62
829.23	1802.21
829.40	1716.20
829.57	1644.52
829.74	1785.83
829.91	1667.05
830.09	1640.42
830.26	1726.44
830.43	1832.93
830.60	1667.05
830.77	1734.63
830.94	1736.68
831.11	1730.53
831.28	1640.42
831.46	1834.98
831.63	1652.71
831.80	1732.58
831.97	1677.29
832.14	1718.25
832.31	1767.40
832.48	1716.20
832.65	1765.35
832.82	1687.53
832.99	1697.77
833.17	1624.04
833.34	1810.40
833.51	1728.49
833.68	1601.51
833.85	1785.83
834.02	1601.51
834.19	1634.28
834.36	1628.14
834.53	1671.14
834.70	1791.97
834.87	1830.88
835.04	1785.83
835.22	1654.76
835.39	1728.49
835.56	1654.76
835.73	1742.82
835.90	1783.78
836.07	1654.76
836.24	1771.49
836.41	1634.28
836.58	1673.19
836.75	1746.92
836.92	1748.97
837.09	1650.66
837.26	1746.92
837.43	1648.61
837.60	1759.21
837.77	1697.77
837.94	1742.82
838.12	1755.11
838.29	1783.78
838.46	1589.22
838.63	1699.81
838.80	1830.88
838.97	1808.36
839.14	1785.83
839.31	1689.57
839.48	1734.63
839.65	1665.00
839.82	1736.68
839.99	1767.40
840.16	1748.97
840.33	1671.14
840.50	1724.39
840.67	1650.66
840.84	1624.04
841.01	1773.54
841.18	1607.66
841.35	1757.16
841.52	1714.15
841.69	1814.50
841.86	1675.24
842.03	1759.21
842.20	1728.49
842.37	1791.97
842.54	1632.23
842.71	1689.57
842.88	1734.63
843.05	1828.84
843.22	1773.54
843.39	1730.53
843.56	1650.66
843.73	1734.63
843.90	1732.58
844.07	1724.39
844.24	1734.63
844.41	1773.54
844.58	1685.48
844.75	1658.85
844.92	1671.14
845.09	1673.19
845.26	1636.33
845.43	1822.69
845.60	1685.48
845.77	1697.77
845.94	1697.77
846.10	1789.92
846.27	1648.61
846.44	1681.38
846.61	1630.18
846.78	1791.97
846.95	1767.40
847.12	1693.67
847.29	1681.38
847.46	1697.77
847.63	1791.97
847.80	1718.25
847.97	1710.05
848.14	1802.21
848.31	1669.09
848.48	1578.98
848.65	1755.11
848.82	1636.33
848.98	1775.59
849.15	1816.55
849.32	1771.49
849.49	1777.64
849.66	1675.24
849.83	1744.87
850.00	1685.48
850.17	1757.16
850.34	1763.30
850.51	1714.15
850.68	1628.14
850.85	1822.69
851.01	1654.76
851.18	1755.11
851.35	1701.86
851.52	1681.38
851.69	1791.97
851.86	1642.47
852.03	1705.96
852.20	1812.45
852.37	1671.14
852.53	1648.61
852.70	1712.10
852.87	1683.43
853.04	1744.87
853.21	1658.85
853.38	1769.44
853.55	1785.83
853.72	1785.83
853.89	1640.42
854.05	1665.00
854.22	1628.14
854.39	1710.05
854.56	1769.44
854.73	1775.59
854.90	1695.72
855.07	1757.16
855.23	1683.43
855.40	1667.05
855.57	1736.68
855.74	1619.94
855.91	1859.56
856.08	1597.42
856.25	1597.42
856.41	1710.05
856.58	1611.75
856.75	1675.24
856.92	1621.99
857.09	1812.45
857.26	1613.80
857.42	1705.96
857.59	1724.39
857.76	1654.76
857.93	1697.77
858.10	1695.72
858.27	1632.23
858.43	1681.38
858.60	1640.42
858.77	1640.42
858.94	1746.92
859.11	1720.29
859.27	1724.39
859.44	1669.09
859.61	1765.35
859.78	1710.05
859.95	1751.01
860.12	1652.71
860.28	1800.16
860.45	1787.88
860.62	1685.48
860.79	1746.92
860.95	1726.44
861.12	1679.33
861.29	1636.33
861.46	1685.48
861.63	1763.30
861.79	1710.05
861.96	1673.19
862.13	1675.24
862.30	1800.16
862.47	1652.71
862.63	1689.57
862.80	1812.45
862.97	1761.25
863.14	1808.36
863.30	1742.82
863.47	1699.81
863.64	1787.88
863.81	1738.73
863.97	1656.81
864.14	1677.29
864.31	1701.86
864.48	1701.86
864.65	1710.05
864.81	1781.73
864.98	1681.38
865.15	1757.16
865.32	1736.68
865.48	1742.82
865.65	1845.22
865.82	1734.63
865.98	1738.73
866.15	1775.59
866.32	1703.91
866.49	1662.95
866.65	1798.12
866.82	1712.10
866.99	1718.25
867.16	1642.47
867.32	1605.61
867.49	1650.66
867.66	1761.25
867.83	1648.61
867.99	1660.90
868.16	1740.77
868.33	1568.74
868.49	1763.30
868.66	1687.53
868.83	1886.18
868.99	1697.77
869.16	1712.10
869.33	1794.02
869.50	1777.64
869.66	1736.68
869.83	1667.05
870.00	1685.48
870.16	1765.35
870.33	1740.77
870.50	1798.12
870.66	1736.68
870.83	1746.92
871.00	1705.96
871.17	1634.28
871.33	1675.24
871.50	1691.62
871.67	1665.00
871.83	1644.52
872.00	1802.21
872.17	1699.81
872.33	1779.68
872.50	1740.77
872.67	1757.16
872.83	1660.90
873.00	1740.77
873.17	1730.53
873.33	1785.83
873.50	1689.57
873.67	1708.01
873.83	1675.24
874.00	1714.15
874.16	1785.83
874.33	1759.21
874.50	1626.09
874.66	1751.01
874.83	1703.91
875.00	1773.54
875.16	1761.25
875.33	1785.83
875.50	1609.70
875.66	1744.87
875.83	1710.05
875.99	1759.21
876.16	1726.44
876.33	1665.00
876.49	1705.96
876.66	1710.05
876.83	1746.92
876.99	1699.81
877.16	1714.15
877.32	1732.58
877.49	1701.86
877.66	1757.16
877.82	1742.82
877.99	1734.63
878.15	1710.05
878.32	1740.77
878.49	1697.77
878.65	1685.48
878.82	1781.73
878.98	1691.62
879.15	1779.68
879.32	1783.78
879.48	1689.57
879.65	1755.11
879.81	1626.09
879.98	1740.77
880.15	1646.57
880.31	1767.40
880.48	1636.33
880.64	1757.16
880.81	1779.68
880.97	1853.41
881.14	1832.93
881.31	1730.53
881.47	1859.56
881.64	1665.00
881.80	1615.85
881.97	1712.10
882.13	1742.82
882.30	1628.14
882.47	1658.85
882.63	1677.29
882.80	1634.28
882.96	1667.05
883.13	1769.44
883.29	1718.25
883.46	1701.86
883.62	1830.88
883.79	1726.44
883.95	1701.86
884.12	1669.09
884.29	1728.49
884.45	1710.05
884.62	1804.26
884.78	1648.61
884.95	1734.63
885.11	1662.95
885.28	1718.25
885.44	1699.81
885.61	1716.20
885.77	1785.83
885.94	1732.58
886.10	1681.38
886.27	1718.25
886.43	1746.92
886.60	1789.92
886.76	1628.14
886.93	1728.49
887.09	1705.96
887.26	1642.47
887.42	1683.43
887.59	1730.53
887.75	1849.32
887.92	1820.64
888.08	1746.92
888.25	1849.32
888.41	1771.49
888.58	1775.59
888.74	1624.04
888.91	1597.42
>>>>>End Processed Spectral Data<<<<<
