SpectraSuite Data File
++++++++++++++++++++++++++++++++++++
Date: Mon Jun 06 14:59:17 CEST 2016
User: root
Dark Spectrum Present: No
Reference Spectrum Present: No
Number of Sampled Component Spectra: 1
Spectrometers: USB4C02835
Integration Time (usec): 100000 (USB4C02835)
Spectra Averaged: 1 (USB4C02835)
Boxcar Smoothing: 0 (USB4C02835)
Correct for Electrical Dark: No (USB4C02835)
Strobe/Lamp Enabled: No (USB4C02835)
Correct for Detector Non-linearity: No (USB4C02835)
Correct for Stray Light: No (USB4C02835)
Number of Pixels in Processed Spectrum: 3648
>>>>>Begin Processed Spectral Data<<<<<
177.47	1492.97
177.69	1492.97
177.91	1492.97
178.13	1394.67
178.36	1499.11
178.58	1640.42
178.80	1720.29
179.02	1685.48
179.24	1654.76
179.46	1703.91
179.68	1699.81
179.90	1626.09
180.13	1658.85
180.35	1652.71
180.57	1751.01
180.79	1734.63
181.01	1671.14
181.23	1726.44
181.45	1800.16
181.67	1726.44
181.90	1800.16
182.12	1742.82
182.34	1632.23
182.56	1787.88
182.78	1679.33
183.00	1646.57
183.22	1697.77
183.44	1572.84
183.66	1779.68
183.89	1783.78
184.11	1734.63
184.33	1689.57
184.55	1794.02
184.77	1691.62
184.99	1703.91
185.21	1589.22
185.43	1832.93
185.65	1679.33
185.87	1689.57
186.10	1841.12
186.32	1828.84
186.54	1720.29
186.76	1775.59
186.98	1744.87
187.20	1708.01
187.42	1716.20
187.64	1697.77
187.86	1712.10
188.08	1783.78
188.30	1611.75
188.52	1689.57
188.75	1783.78
188.97	1708.01
189.19	1673.19
189.41	1802.21
189.63	1701.86
189.85	1708.01
190.07	1650.66
190.29	1632.23
190.51	1683.43
190.73	1644.52
190.95	1699.81
191.17	1681.38
191.39	1585.13
191.61	1779.68
191.84	1679.33
192.06	1714.15
192.28	1640.42
192.50	1873.89
192.72	1720.29
192.94	1675.24
193.16	1667.05
193.38	1650.66
193.60	1640.42
193.82	1724.39
194.04	1738.73
194.26	1697.77
194.48	1640.42
194.70	1603.56
194.92	1656.81
195.14	1714.15
195.36	1656.81
195.58	1726.44
195.80	1634.28
196.02	1697.77
196.24	1658.85
196.46	1726.44
196.69	1683.43
196.91	1834.98
197.13	1691.62
197.35	1681.38
197.57	1779.68
197.79	1744.87
198.01	1740.77
198.23	1699.81
198.45	1726.44
198.67	1595.37
198.89	1716.20
199.11	1654.76
199.33	1710.05
199.55	1607.66
199.77	1691.62
199.99	1822.69
200.21	1660.90
200.43	1751.01
200.65	1648.61
200.87	1669.09
201.09	1716.20
201.31	1685.48
201.53	1781.73
201.75	1714.15
201.97	1656.81
202.19	1726.44
202.41	1710.05
202.63	1865.70
202.85	1728.49
203.07	1687.53
203.29	1667.05
203.51	1681.38
203.73	1734.63
203.95	1796.07
204.17	1658.85
204.39	1701.86
204.61	1689.57
204.83	1642.47
205.05	1748.97
205.27	1740.77
205.49	1837.03
205.71	1738.73
205.93	1646.57
206.15	1656.81
206.37	1689.57
206.59	1689.57
206.81	1665.00
207.03	1640.42
207.25	1654.76
207.47	1761.25
207.69	1624.04
207.91	1789.92
208.13	1796.07
208.34	1681.38
208.56	1708.01
208.78	1802.21
209.00	1650.66
209.22	1654.76
209.44	1775.59
209.66	1578.98
209.88	1730.53
210.10	1646.57
210.32	1683.43
210.54	1826.79
210.76	1763.30
210.98	1710.05
211.20	1591.27
211.42	1640.42
211.64	1755.11
211.86	1683.43
212.08	1687.53
212.30	1740.77
212.52	1701.86
212.74	1693.67
212.96	1742.82
213.17	1740.77
213.39	1763.30
213.61	1828.84
213.83	1581.03
214.05	1689.57
214.27	1742.82
214.49	1667.05
214.71	1714.15
214.93	1757.16
215.15	1673.19
215.37	1740.77
215.59	1550.31
215.81	1693.67
216.03	1822.69
216.24	1718.25
216.46	1689.57
216.68	1740.77
216.90	1746.92
217.12	1785.83
217.34	1691.62
217.56	1714.15
217.78	1736.68
218.00	1722.34
218.22	1779.68
218.44	1677.29
218.66	1748.97
218.87	1802.21
219.09	1681.38
219.31	1708.01
219.53	1652.71
219.75	1728.49
219.97	1619.94
220.19	1687.53
220.41	1673.19
220.63	1738.73
220.85	1691.62
221.06	1705.96
221.28	1736.68
221.50	1726.44
221.72	1662.95
221.94	1757.16
222.16	1677.29
222.38	1722.34
222.60	1757.16
222.82	1615.85
223.03	1751.01
223.25	1615.85
223.47	1759.21
223.69	1783.78
223.91	1652.71
224.13	1695.72
224.35	1685.48
224.57	1744.87
224.78	1734.63
225.00	1671.14
225.22	1634.28
225.44	1738.73
225.66	1679.33
225.88	1734.63
226.10	1751.01
226.32	1779.68
226.53	1742.82
226.75	1705.96
226.97	1611.75
227.19	1722.34
227.41	1646.57
227.63	1681.38
227.85	1613.80
228.06	1746.92
228.28	1775.59
228.50	1701.86
228.72	1675.24
228.94	1740.77
229.16	1621.99
229.37	1697.77
229.59	1728.49
229.81	1693.67
230.03	1722.34
230.25	1615.85
230.47	1628.14
230.69	1660.90
230.90	1683.43
231.12	1679.33
231.34	1693.67
231.56	1759.21
231.78	1621.99
232.00	1738.73
232.21	1632.23
232.43	1681.38
232.65	1572.84
232.87	1724.39
233.09	1683.43
233.30	1669.09
233.52	1771.49
233.74	1728.49
233.96	1677.29
234.18	1746.92
234.40	1626.09
234.61	1832.93
234.83	1619.94
235.05	1581.03
235.27	1800.16
235.49	1837.03
235.70	1787.88
235.92	1783.78
236.14	1613.80
236.36	1869.80
236.58	1603.56
236.79	1738.73
237.01	1728.49
237.23	1703.91
237.45	1855.46
237.67	1656.81
237.88	1757.16
238.10	1841.12
238.32	1712.10
238.54	1699.81
238.76	1644.52
238.97	1632.23
239.19	1615.85
239.41	1751.01
239.63	1722.34
239.85	1648.61
240.06	1662.95
240.28	1644.52
240.50	1753.06
240.72	1738.73
240.93	1718.25
241.15	1800.16
241.37	1646.57
241.59	1781.73
241.81	1654.76
242.02	1691.62
242.24	1748.97
242.46	1681.38
242.68	1632.23
242.89	1714.15
243.11	1789.92
243.33	1765.35
243.55	1673.19
243.76	1755.11
243.98	1712.10
244.20	1693.67
244.42	1748.97
244.64	1708.01
244.85	1634.28
245.07	1640.42
245.29	1818.60
245.51	1679.33
245.72	1742.82
245.94	1787.88
246.16	1767.40
246.38	1708.01
246.59	1656.81
246.81	1703.91
247.03	1722.34
247.24	1634.28
247.46	1726.44
247.68	1708.01
247.90	1703.91
248.11	1621.99
248.33	1734.63
248.55	1728.49
248.77	1738.73
248.98	1751.01
249.20	1779.68
249.42	1720.29
249.64	1812.45
249.85	1687.53
250.07	1648.61
250.29	1701.86
250.50	1779.68
250.72	1636.33
250.94	1728.49
251.16	1783.78
251.37	1765.35
251.59	1726.44
251.81	1705.96
252.02	1767.40
252.24	1652.71
252.46	1751.01
252.68	1615.85
252.89	1660.90
253.11	1624.04
253.33	1802.21
253.54	1714.15
253.76	1636.33
253.98	1722.34
254.20	1685.48
254.41	1656.81
254.63	1673.19
254.85	1615.85
255.06	1617.90
255.28	1775.59
255.50	1693.67
255.71	1644.52
255.93	1581.03
256.15	1681.38
256.36	1638.38
256.58	1687.53
256.80	1732.58
257.02	1699.81
257.23	1673.19
257.45	1699.81
257.67	1759.21
257.88	1665.00
258.10	1689.57
258.32	1673.19
258.53	1675.24
258.75	1726.44
258.97	1660.90
259.18	1708.01
259.40	1755.11
259.62	1814.50
259.83	1800.16
260.05	1818.60
260.27	1931.23
260.48	1699.81
260.70	1681.38
260.92	1699.81
261.13	1785.83
261.35	1710.05
261.57	1667.05
261.78	1560.55
262.00	1628.14
262.22	1701.86
262.43	1644.52
262.65	1736.68
262.86	1677.29
263.08	1820.64
263.30	1662.95
263.51	1609.70
263.73	1599.46
263.95	1662.95
264.16	1601.51
264.38	1570.79
264.60	1738.73
264.81	1673.19
265.03	1734.63
265.25	1714.15
265.46	1734.63
265.68	1714.15
265.89	1765.35
266.11	1656.81
266.33	1660.90
266.54	1816.55
266.76	1708.01
266.98	1712.10
267.19	1763.30
267.41	1660.90
267.62	1708.01
267.84	1705.96
268.06	1753.06
268.27	1669.09
268.49	1779.68
268.70	1773.54
268.92	1673.19
269.14	1728.49
269.35	1611.75
269.57	1660.90
269.79	1724.39
270.00	1628.14
270.22	1853.41
270.43	1642.47
270.65	1632.23
270.87	1662.95
271.08	1751.01
271.30	1705.96
271.51	1681.38
271.73	1705.96
271.95	1779.68
272.16	1763.30
272.38	1771.49
272.59	1775.59
272.81	1714.15
273.02	1714.15
273.24	1720.29
273.46	1779.68
273.67	1634.28
273.89	1613.80
274.10	1636.33
274.32	1763.30
274.54	1777.64
274.75	1726.44
274.97	1728.49
275.18	1744.87
275.40	1691.62
275.61	1677.29
275.83	1677.29
276.05	1675.24
276.26	1609.70
276.48	1697.77
276.69	1632.23
276.91	1642.47
277.12	1806.31
277.34	1695.72
277.55	1763.30
277.77	1695.72
277.99	1806.31
278.20	1658.85
278.42	1628.14
278.63	1679.33
278.85	1673.19
279.06	1601.51
279.28	1730.53
279.49	1671.14
279.71	1746.92
279.93	1781.73
280.14	1683.43
280.36	1683.43
280.57	1798.12
280.79	1734.63
281.00	1648.61
281.22	1654.76
281.43	1734.63
281.65	1535.98
281.86	1630.18
282.08	1724.39
282.29	1781.73
282.51	1667.05
282.73	1644.52
282.94	1568.74
283.16	1753.06
283.37	1783.78
283.59	1730.53
283.80	1671.14
284.02	1718.25
284.23	1730.53
284.45	1701.86
284.66	1724.39
284.88	1683.43
285.09	1742.82
285.31	1722.34
285.52	1662.95
285.74	1597.42
285.95	1673.19
286.17	1724.39
286.38	1767.40
286.60	1667.05
286.81	1699.81
287.03	1665.00
287.24	1701.86
287.46	1787.88
287.67	1720.29
287.89	1806.31
288.10	1628.14
288.32	1759.21
288.53	1796.07
288.75	1751.01
288.96	1783.78
289.18	1644.52
289.39	1681.38
289.61	1710.05
289.82	1730.53
290.04	1800.16
290.25	1626.09
290.47	1654.76
290.68	1697.77
290.90	1849.32
291.11	1617.90
291.33	1705.96
291.54	1656.81
291.76	1679.33
291.97	1685.48
292.18	1789.92
292.40	1611.75
292.61	1677.29
292.83	1794.02
293.04	1820.64
293.26	1775.59
293.47	1662.95
293.69	1603.56
293.90	1656.81
294.12	1726.44
294.33	1738.73
294.55	1619.94
294.76	1759.21
294.97	1783.78
295.19	1798.12
295.40	1716.20
295.62	1669.09
295.83	1730.53
296.05	1718.25
296.26	1796.07
296.48	1671.14
296.69	1644.52
296.90	1636.33
297.12	1779.68
297.33	1716.20
297.55	1761.25
297.76	1730.53
297.98	1734.63
298.19	1693.67
298.41	1773.54
298.62	1755.11
298.83	1816.55
299.05	1665.00
299.26	1689.57
299.48	1691.62
299.69	1808.36
299.90	1671.14
300.12	1693.67
300.33	1705.96
300.55	1708.01
300.76	1730.53
300.98	1671.14
301.19	1759.21
301.40	1693.67
301.62	1685.48
301.83	1662.95
302.05	1736.68
302.26	1654.76
302.47	1738.73
302.69	1673.19
302.90	1701.86
303.12	1513.45
303.33	1763.30
303.54	1830.88
303.76	1619.94
303.97	1609.70
304.19	1779.68
304.40	1636.33
304.61	1769.44
304.83	1877.99
305.04	1759.21
305.26	1722.34
305.47	1718.25
305.68	1734.63
305.90	1538.02
306.11	1687.53
306.33	1667.05
306.54	1681.38
306.75	1603.56
306.97	1656.81
307.18	1601.51
307.39	1720.29
307.61	1679.33
307.82	1673.19
308.04	1714.15
308.25	1693.67
308.46	1775.59
308.68	1724.39
308.89	1751.01
309.10	1802.21
309.32	1712.10
309.53	1687.53
309.74	1699.81
309.96	1671.14
310.17	1753.06
310.39	1660.90
310.60	1708.01
310.81	1667.05
311.03	1640.42
311.24	1714.15
311.45	1665.00
311.67	1820.64
311.88	1689.57
312.09	1638.38
312.31	1718.25
312.52	1681.38
312.73	1693.67
312.95	1626.09
313.16	1640.42
313.37	1755.11
313.59	1726.44
313.80	1742.82
314.01	1783.78
314.23	1722.34
314.44	1695.72
314.65	1683.43
314.87	1667.05
315.08	1677.29
315.29	1720.29
315.51	1644.52
315.72	1542.12
315.93	1775.59
316.15	1746.92
316.36	1677.29
316.57	1734.63
316.79	1697.77
317.00	1693.67
317.21	1742.82
317.43	1681.38
317.64	1757.16
317.85	1644.52
318.07	1728.49
318.28	1722.34
318.49	1718.25
318.70	1832.93
318.92	1800.16
319.13	1802.21
319.34	1918.95
319.56	1804.26
319.77	1832.93
319.98	1769.44
320.20	1771.49
320.41	1765.35
320.62	1802.21
320.83	1601.51
321.05	1861.60
321.26	1763.30
321.47	1662.95
321.69	1804.26
321.90	1611.75
322.11	1679.33
322.32	1691.62
322.54	1746.92
322.75	1703.91
322.96	1820.64
323.18	1570.79
323.39	1595.37
323.60	1687.53
323.81	1771.49
324.03	1699.81
324.24	1683.43
324.45	1701.86
324.66	1677.29
324.88	1740.77
325.09	1814.50
325.30	1712.10
325.52	1697.77
325.73	1671.14
325.94	1640.42
326.15	1675.24
326.37	1660.90
326.58	1730.53
326.79	1736.68
327.00	1650.66
327.22	1724.39
327.43	1701.86
327.64	1646.57
327.85	1611.75
328.07	1677.29
328.28	1804.26
328.49	1714.15
328.70	1691.62
328.92	1728.49
329.13	1689.57
329.34	1781.73
329.55	1804.26
329.76	1757.16
329.98	1703.91
330.19	1693.67
330.40	1740.77
330.61	1767.40
330.83	1732.58
331.04	1619.94
331.25	1730.53
331.46	1710.05
331.68	1599.46
331.89	1822.69
332.10	1708.01
332.31	1583.08
332.52	1644.52
332.74	1769.44
332.95	1689.57
333.16	1726.44
333.37	1748.97
333.58	1654.76
333.80	1691.62
334.01	1648.61
334.22	1658.85
334.43	1685.48
334.64	1658.85
334.86	1558.50
335.07	1712.10
335.28	1800.16
335.49	1599.46
335.70	1638.38
335.92	1777.64
336.13	1802.21
336.34	1730.53
336.55	1734.63
336.76	1665.00
336.98	1574.89
337.19	1738.73
337.40	1757.16
337.61	1832.93
337.82	1628.14
338.04	1785.83
338.25	1632.23
338.46	1644.52
338.67	1746.92
338.88	1722.34
339.09	1591.27
339.31	1646.57
339.52	1660.90
339.73	1697.77
339.94	1652.71
340.15	1732.58
340.36	1636.33
340.58	1714.15
340.79	1658.85
341.00	1712.10
341.21	1703.91
341.42	1794.02
341.63	1654.76
341.85	1742.82
342.06	1710.05
342.27	1609.70
342.48	1677.29
342.69	1755.11
342.90	1775.59
343.12	1689.57
343.33	1689.57
343.54	1699.81
343.75	1710.05
343.96	1744.87
344.17	1603.56
344.38	1673.19
344.60	1660.90
344.81	1613.80
345.02	1605.61
345.23	1755.11
345.44	1791.97
345.65	1775.59
345.86	1638.38
346.07	1667.05
346.29	1648.61
346.50	1748.97
346.71	1742.82
346.92	1761.25
347.13	1834.98
347.34	1683.43
347.55	1681.38
347.76	1691.62
347.98	1632.23
348.19	1689.57
348.40	1697.77
348.61	1699.81
348.82	1820.64
349.03	1703.91
349.24	1621.99
349.45	1777.64
349.66	1605.61
349.88	1615.85
350.09	1669.09
350.30	1773.54
350.51	1877.99
350.72	1695.72
350.93	1660.90
351.14	1640.42
351.35	1705.96
351.56	1648.61
351.77	1771.49
351.99	1724.39
352.20	1738.73
352.41	1744.87
352.62	1562.60
352.83	1679.33
353.04	1746.92
353.25	1683.43
353.46	1890.28
353.67	1785.83
353.88	1605.61
354.09	1669.09
354.30	1646.57
354.52	1689.57
354.73	1744.87
354.94	1667.05
355.15	1642.47
355.36	1828.84
355.57	1728.49
355.78	1699.81
355.99	1660.90
356.20	1691.62
356.41	1697.77
356.62	1787.88
356.83	1603.56
357.04	1710.05
357.25	1605.61
357.46	1593.32
357.68	1626.09
357.89	1677.29
358.10	1722.34
358.31	1621.99
358.52	1724.39
358.73	1609.70
358.94	1654.76
359.15	1691.62
359.36	1732.58
359.57	1675.24
359.78	1701.86
359.99	1703.91
360.20	1603.56
360.41	1689.57
360.62	1728.49
360.83	1689.57
361.04	1652.71
361.25	1691.62
361.46	1824.74
361.67	1701.86
361.88	1789.92
362.09	1763.30
362.30	1765.35
362.51	1714.15
362.72	1732.58
362.93	1744.87
363.14	1732.58
363.35	1648.61
363.56	1648.61
363.78	1722.34
363.99	1742.82
364.20	1636.33
364.41	1687.53
364.62	1806.31
364.83	1740.77
365.04	1667.05
365.25	1685.48
365.46	1789.92
365.67	1685.48
365.88	1675.24
366.09	1648.61
366.30	1638.38
366.51	1665.00
366.72	1691.62
366.93	1708.01
367.14	1732.58
367.35	1783.78
367.56	1806.31
367.77	1847.27
367.98	1650.66
368.18	1753.06
368.39	1771.49
368.60	1628.14
368.81	1695.72
369.02	1693.67
369.23	1734.63
369.44	1595.37
369.65	1718.25
369.86	1708.01
370.07	1767.40
370.28	1583.08
370.49	1687.53
370.70	1771.49
370.91	1626.09
371.12	1593.32
371.33	1806.31
371.54	1615.85
371.75	1787.88
371.96	1636.33
372.17	1742.82
372.38	1689.57
372.59	1642.47
372.80	1675.24
373.01	1617.90
373.22	1740.77
373.43	1765.35
373.64	1605.61
373.85	1757.16
374.06	1814.50
374.26	1798.12
374.47	1689.57
374.68	1849.32
374.89	1687.53
375.10	1755.11
375.31	1796.07
375.52	1685.48
375.73	1714.15
375.94	1667.05
376.15	1757.16
376.36	1691.62
376.57	1665.00
376.78	1679.33
376.99	1691.62
377.20	1820.64
377.40	1697.77
377.61	1767.40
377.82	1685.48
378.03	1716.20
378.24	1685.48
378.45	1693.67
378.66	1677.29
378.87	1644.52
379.08	1583.08
379.29	1683.43
379.50	1769.44
379.71	1689.57
379.91	1740.77
380.12	1703.91
380.33	1640.42
380.54	1703.91
380.75	1748.97
380.96	1695.72
381.17	1814.50
381.38	1755.11
381.59	1730.53
381.80	1720.29
382.00	1832.93
382.21	1810.40
382.42	1781.73
382.63	1900.52
382.84	1726.44
383.05	1748.97
383.26	1773.54
383.47	1728.49
383.68	1734.63
383.88	1718.25
384.09	1730.53
384.30	1810.40
384.51	1726.44
384.72	1607.66
384.93	1603.56
385.14	1687.53
385.35	1742.82
385.55	1658.85
385.76	1742.82
385.97	1640.42
386.18	1703.91
386.39	1689.57
386.60	1714.15
386.81	1652.71
387.02	1701.86
387.22	1650.66
387.43	1763.30
387.64	1808.36
387.85	1877.99
388.06	2191.33
388.27	4304.83
388.48	6549.40
388.68	7821.19
388.89	9467.76
389.10	9658.22
389.31	8312.71
389.52	7331.73
389.73	6455.20
389.93	5969.83
390.14	5697.45
390.35	5119.92
390.56	4476.86
390.77	3680.20
390.98	3016.66
391.18	2527.19
391.39	2117.60
391.60	1904.61
391.81	1849.32
392.02	1769.44
392.23	1849.32
392.43	1781.73
392.64	1796.07
392.85	1746.92
393.06	1845.22
393.27	1757.16
393.47	1660.90
393.68	1708.01
393.89	1640.42
394.10	1785.83
394.31	1603.56
394.52	1695.72
394.72	1587.18
394.93	1769.44
395.14	1642.47
395.35	1755.11
395.56	1677.29
395.76	1785.83
395.97	1775.59
396.18	1832.93
396.39	1830.88
396.60	1957.86
396.80	1935.33
397.01	1816.55
397.22	1775.59
397.43	1896.42
397.64	1775.59
397.84	1767.40
398.05	1824.74
398.26	1714.15
398.47	1757.16
398.67	1822.69
398.88	1726.44
399.09	1794.02
399.30	1656.81
399.51	1802.21
399.71	1617.90
399.92	1701.86
400.13	1693.67
400.34	1695.72
400.54	1671.14
400.75	1853.41
400.96	1820.64
401.17	1843.17
401.37	1746.92
401.58	1730.53
401.79	1677.29
402.00	1814.50
402.21	1961.95
402.41	1978.34
402.62	1961.95
402.83	2062.30
403.04	1957.86
403.24	2097.12
403.45	1769.44
403.66	1968.10
403.87	1902.56
404.07	1880.04
404.28	1937.38
404.49	1843.17
404.70	1703.91
404.90	1710.05
405.11	1681.38
405.32	1730.53
405.52	1665.00
405.73	1703.91
405.94	1591.27
406.15	1742.82
406.35	1769.44
406.56	1732.58
406.77	1701.86
406.98	1744.87
407.18	1738.73
407.39	1751.01
407.60	1679.33
407.80	1712.10
408.01	1677.29
408.22	1742.82
408.43	1644.52
408.63	1744.87
408.84	1746.92
409.05	1785.83
409.25	1644.52
409.46	1656.81
409.67	1697.77
409.88	1662.95
410.08	1685.48
410.29	1646.57
410.50	1775.59
410.70	1689.57
410.91	1656.81
411.12	1716.20
411.32	1624.04
411.53	1665.00
411.74	1820.64
411.95	1787.88
412.15	1675.24
412.36	1800.16
412.57	1630.18
412.77	1724.39
412.98	1789.92
413.19	1734.63
413.39	1730.53
413.60	1755.11
413.81	1777.64
414.01	1613.80
414.22	1710.05
414.43	1783.78
414.63	1656.81
414.84	1746.92
415.05	1751.01
415.25	1673.19
415.46	1818.60
415.67	1794.02
415.87	1753.06
416.08	1685.48
416.29	1656.81
416.49	1738.73
416.70	1636.33
416.91	1660.90
417.11	1705.96
417.32	1738.73
417.53	1742.82
417.73	1753.06
417.94	1697.77
418.15	1701.86
418.35	1708.01
418.56	1685.48
418.77	1888.23
418.97	1720.29
419.18	1718.25
419.38	1574.89
419.59	1724.39
419.80	1804.26
420.00	1705.96
420.21	1714.15
420.42	1779.68
420.62	1738.73
420.83	1593.32
421.04	1652.71
421.24	1761.25
421.45	1703.91
421.65	1818.60
421.86	1679.33
422.07	1726.44
422.27	1726.44
422.48	1748.97
422.69	1636.33
422.89	1656.81
423.10	1748.97
423.30	1605.61
423.51	1734.63
423.72	1667.05
423.92	1798.12
424.13	1632.23
424.33	1697.77
424.54	1740.77
424.75	1736.68
424.95	1789.92
425.16	1755.11
425.36	1662.95
425.57	1718.25
425.78	1660.90
425.98	1722.34
426.19	1636.33
426.39	1636.33
426.60	1648.61
426.81	1765.35
427.01	1632.23
427.22	1697.77
427.42	1597.42
427.63	1693.67
427.83	1679.33
428.04	1781.73
428.25	1789.92
428.45	1773.54
428.66	1802.21
428.86	1708.01
429.07	1662.95
429.28	1683.43
429.48	1628.14
429.69	1673.19
429.89	1732.58
430.10	1644.52
430.30	1773.54
430.51	1755.11
430.71	1636.33
430.92	1744.87
431.13	1644.52
431.33	1779.68
431.54	1779.68
431.74	1808.36
431.95	1798.12
432.15	1658.85
432.36	1734.63
432.56	1775.59
432.77	1771.49
432.98	1789.92
433.18	1677.29
433.39	1648.61
433.59	1677.29
433.80	1804.26
434.00	1904.61
434.21	1714.15
434.41	1677.29
434.62	1820.64
434.82	1656.81
435.03	1677.29
435.23	1779.68
435.44	1585.13
435.64	1720.29
435.85	1693.67
436.06	1728.49
436.26	1765.35
436.47	1736.68
436.67	1636.33
436.88	1654.76
437.08	1730.53
437.29	1748.97
437.49	1656.81
437.70	1789.92
437.90	1734.63
438.11	1871.84
438.31	1859.56
438.52	1869.80
438.72	1789.92
438.93	1824.74
439.13	1845.22
439.34	1753.06
439.54	1722.34
439.75	1789.92
439.95	1796.07
440.16	1646.57
440.36	1740.77
440.57	1734.63
440.77	1802.21
440.98	1703.91
441.18	1742.82
441.39	1736.68
441.59	1662.95
441.80	1845.22
442.00	1697.77
442.21	1738.73
442.41	1689.57
442.62	1800.16
442.82	1667.05
443.02	1740.77
443.23	1665.00
443.43	1722.34
443.64	1832.93
443.84	1701.86
444.05	1843.17
444.25	1736.68
444.46	1710.05
444.66	1650.66
444.87	1851.36
445.07	1689.57
445.28	1675.24
445.48	1767.40
445.69	1773.54
445.89	1828.84
446.09	1785.83
446.30	1961.95
446.50	2541.53
446.71	3727.30
446.91	4120.51
447.12	4601.79
447.32	4601.79
447.53	4200.38
447.73	3819.46
447.93	3340.24
448.14	3303.37
448.34	3147.73
448.55	2850.77
448.75	2910.16
448.96	2717.65
449.16	2432.99
449.36	2303.96
449.57	2043.87
449.77	1888.23
449.98	1722.34
450.18	1783.78
450.39	1781.73
450.59	1755.11
450.79	1710.05
451.00	1775.59
451.20	1873.89
451.41	1677.29
451.61	1798.12
451.81	1710.05
452.02	1718.25
452.22	1789.92
452.43	1726.44
452.63	1665.00
452.84	1687.53
453.04	1712.10
453.24	1761.25
453.45	1697.77
453.65	1640.42
453.86	1708.01
454.06	1800.16
454.26	1736.68
454.47	1673.19
454.67	1847.27
454.87	1834.98
455.08	1789.92
455.28	1837.03
455.49	1794.02
455.69	1734.63
455.89	1832.93
456.10	1796.07
456.30	1730.53
456.51	1722.34
456.71	1671.14
456.91	1746.92
457.12	1732.58
457.32	1748.97
457.52	1665.00
457.73	1755.11
457.93	1767.40
458.14	1832.93
458.34	1624.04
458.54	1722.34
458.75	1714.15
458.95	1736.68
459.15	1773.54
459.36	1767.40
459.56	1740.77
459.76	1869.80
459.97	1783.78
460.17	1630.18
460.37	1820.64
460.58	1757.16
460.78	1742.82
460.99	1751.01
461.19	1722.34
461.39	1665.00
461.60	1759.21
461.80	1722.34
462.00	1650.66
462.21	1724.39
462.41	1603.56
462.61	1693.67
462.82	1673.19
463.02	1738.73
463.22	1777.64
463.43	1769.44
463.63	1757.16
463.83	1789.92
464.04	1746.92
464.24	1734.63
464.44	1624.04
464.64	1689.57
464.85	1730.53
465.05	1804.26
465.25	1718.25
465.46	1701.86
465.66	1775.59
465.86	1771.49
466.07	1697.77
466.27	1748.97
466.47	1644.52
466.68	1658.85
466.88	1791.97
467.08	1740.77
467.29	1705.96
467.49	1771.49
467.69	1669.09
467.89	1779.68
468.10	1669.09
468.30	1738.73
468.50	1765.35
468.71	1697.77
468.91	1744.87
469.11	1832.93
469.31	1732.58
469.52	1736.68
469.72	1787.88
469.92	1814.50
470.13	1775.59
470.33	1607.66
470.53	1755.11
470.73	2174.94
470.94	2248.67
471.14	2271.20
471.34	2463.71
471.54	2387.93
471.75	2181.09
471.95	2078.69
472.15	2037.73
472.36	2052.06
472.56	2050.02
472.76	2000.87
472.96	2017.25
473.17	1980.39
473.37	1863.65
473.57	1740.77
473.77	1744.87
473.98	1767.40
474.18	1716.20
474.38	1923.04
474.58	1730.53
474.79	1652.71
474.99	1691.62
475.19	1773.54
475.39	1675.24
475.60	1681.38
475.80	1753.06
476.00	1716.20
476.20	1675.24
476.41	1681.38
476.61	1800.16
476.81	1814.50
477.01	1642.47
477.21	1849.32
477.42	1861.60
477.62	1652.71
477.82	1759.21
478.02	1734.63
478.23	1703.91
478.43	1679.33
478.63	1660.90
478.83	1636.33
479.03	1675.24
479.24	1814.50
479.44	1765.35
479.64	1632.23
479.84	1576.94
480.04	1738.73
480.25	1746.92
480.45	1685.48
480.65	1728.49
480.85	1865.70
481.06	1716.20
481.26	1822.69
481.46	1802.21
481.66	1720.29
481.86	1710.05
482.06	1861.60
482.27	1763.30
482.47	1718.25
482.67	1691.62
482.87	1701.86
483.07	1730.53
483.28	1763.30
483.48	1669.09
483.68	1738.73
483.88	1685.48
484.08	1673.19
484.29	1746.92
484.49	1722.34
484.69	1656.81
484.89	1769.44
485.09	1767.40
485.29	1757.16
485.50	1724.39
485.70	1779.68
485.90	1787.88
486.10	1705.96
486.30	1703.91
486.50	1794.02
486.71	1695.72
486.91	1763.30
487.11	1724.39
487.31	1656.81
487.51	1757.16
487.71	1718.25
487.91	1544.17
488.12	1572.84
488.32	1554.41
488.52	1689.57
488.72	1544.17
488.92	1652.71
489.12	1712.10
489.32	1767.40
489.53	1777.64
489.73	1685.48
489.93	1804.26
490.13	1667.05
490.33	1636.33
490.53	1728.49
490.73	1775.59
490.94	1683.43
491.14	1810.40
491.34	1775.59
491.54	1996.77
491.74	2516.95
491.94	2856.92
492.14	2920.40
492.34	3012.56
492.54	2709.46
492.75	2451.42
492.95	2435.03
493.15	2324.44
493.35	2310.11
493.55	2213.85
493.75	2109.41
493.95	2099.17
494.15	2013.15
494.35	1912.80
494.56	1898.47
494.76	1816.55
494.96	1822.69
495.16	1808.36
495.36	1763.30
495.56	1755.11
495.76	1726.44
495.96	1697.77
496.16	1689.57
496.36	1806.31
496.56	1730.53
496.77	1740.77
496.97	1697.77
497.17	1814.50
497.37	1701.86
497.57	1773.54
497.77	1726.44
497.97	1615.85
498.17	1736.68
498.37	1759.21
498.57	1824.74
498.77	1740.77
498.97	1814.50
499.17	1863.65
499.38	1722.34
499.58	1877.99
499.78	1787.88
499.98	1730.53
500.18	1755.11
500.38	1775.59
500.58	1939.43
500.78	2541.53
500.98	4407.23
501.18	5629.87
501.38	6602.65
501.58	6891.41
501.78	6358.94
501.98	5474.22
502.18	4890.55
502.38	4296.64
502.58	3966.92
502.78	3665.86
502.98	3526.60
503.18	3463.12
503.38	3190.74
503.59	2791.38
503.79	2588.63
503.99	2420.70
504.19	2209.76
504.39	2244.57
504.59	2174.94
504.79	2119.65
504.99	2027.49
505.19	1904.61
505.39	1902.56
505.59	2009.06
505.79	1865.70
505.99	1853.41
506.19	1781.73
506.39	1810.40
506.59	1746.92
506.79	1816.55
506.99	1851.36
507.19	1783.78
507.39	1685.48
507.59	1669.09
507.79	1675.24
507.99	1589.22
508.19	1742.82
508.39	1734.63
508.59	1798.12
508.79	1857.51
508.99	1814.50
509.19	1660.90
509.39	1843.17
509.59	1665.00
509.79	1654.76
509.99	1779.68
510.19	1714.15
510.39	1779.68
510.59	1779.68
510.79	1699.81
510.99	1646.57
511.19	1751.01
511.39	1765.35
511.59	1755.11
511.79	1806.31
511.99	1757.16
512.19	1863.65
512.38	1687.53
512.58	1767.40
512.78	1699.81
512.98	1800.16
513.18	1847.27
513.38	1669.09
513.58	1777.64
513.78	1773.54
513.98	1783.78
514.18	1640.42
514.38	1748.97
514.58	1871.84
514.78	1667.05
514.98	1658.85
515.18	1720.29
515.38	1740.77
515.58	1828.84
515.78	1603.56
515.98	1716.20
516.18	1771.49
516.38	1753.06
516.57	1724.39
516.77	1740.77
516.97	1763.30
517.17	1677.29
517.37	1628.14
517.57	1757.16
517.77	1736.68
517.97	1720.29
518.17	1724.39
518.37	1632.23
518.57	1740.77
518.77	1685.48
518.97	1736.68
519.16	1800.16
519.36	1781.73
519.56	1708.01
519.76	1757.16
519.96	1785.83
520.16	1880.04
520.36	1675.24
520.56	1834.98
520.76	1722.34
520.96	1716.20
521.16	1798.12
521.35	1767.40
521.55	1888.23
521.75	1667.05
521.95	1722.34
522.15	1705.96
522.35	1568.74
522.55	1779.68
522.75	1748.97
522.95	1693.67
523.14	1724.39
523.34	1699.81
523.54	1705.96
523.74	1753.06
523.94	1798.12
524.14	1705.96
524.34	1720.29
524.54	1845.22
524.73	1695.72
524.93	1736.68
525.13	1685.48
525.33	1781.73
525.53	1888.23
525.73	1767.40
525.93	1683.43
526.13	1714.15
526.32	1656.81
526.52	1802.21
526.72	1689.57
526.92	1724.39
527.12	1736.68
527.32	1685.48
527.52	1777.64
527.71	1820.64
527.91	1677.29
528.11	1665.00
528.31	1806.31
528.51	1681.38
528.71	1798.12
528.90	1785.83
529.10	1753.06
529.30	1810.40
529.50	1619.94
529.70	1785.83
529.90	1767.40
530.09	1775.59
530.29	1697.77
530.49	1769.44
530.69	1837.03
530.89	1744.87
531.09	1761.25
531.28	1677.29
531.48	1785.83
531.68	1669.09
531.88	1710.05
532.08	1779.68
532.28	1720.29
532.47	1751.01
532.67	1814.50
532.87	1763.30
533.07	1669.09
533.27	1812.45
533.46	1787.88
533.66	1730.53
533.86	1718.25
534.06	1703.91
534.26	1796.07
534.45	1765.35
534.65	1798.12
534.85	1722.34
535.05	1761.25
535.25	1751.01
535.44	1656.81
535.64	1701.86
535.84	1714.15
536.04	1656.81
536.24	1732.58
536.43	1624.04
536.63	1765.35
536.83	1748.97
537.03	1644.52
537.22	1691.62
537.42	1667.05
537.62	1722.34
537.82	1769.44
538.02	1830.88
538.21	1845.22
538.41	1826.79
538.61	1765.35
538.81	1660.90
539.00	1810.40
539.20	1628.14
539.40	1732.58
539.60	1746.92
539.79	1773.54
539.99	1779.68
540.19	1701.86
540.39	1705.96
540.58	1785.83
540.78	1791.97
540.98	1708.01
541.18	1800.16
541.37	1771.49
541.57	1738.73
541.77	1773.54
541.97	1716.20
542.16	1644.52
542.36	1744.87
542.56	1746.92
542.76	1920.99
542.95	1773.54
543.15	1787.88
543.35	1785.83
543.54	1671.14
543.74	1736.68
543.94	1775.59
544.14	1673.19
544.33	1742.82
544.53	1673.19
544.73	1675.24
544.93	1697.77
545.12	1626.09
545.32	1724.39
545.52	1652.71
545.71	1685.48
545.91	1742.82
546.11	1679.33
546.30	1783.78
546.50	1740.77
546.70	1777.64
546.90	1812.45
547.09	1658.85
547.29	1732.58
547.49	1779.68
547.68	1763.30
547.88	1665.00
548.08	1785.83
548.27	2224.09
548.47	1683.43
548.67	1728.49
548.87	1781.73
549.06	1720.29
549.26	1755.11
549.46	1746.92
549.65	1660.90
549.85	1804.26
550.05	1775.59
550.24	1654.76
550.44	1718.25
550.64	1763.30
550.83	1720.29
551.03	1746.92
551.23	1845.22
551.42	1791.97
551.62	1687.53
551.82	1699.81
552.01	1728.49
552.21	1818.60
552.41	1791.97
552.60	1769.44
552.80	1771.49
553.00	1669.09
553.19	1724.39
553.39	1779.68
553.59	1675.24
553.78	1810.40
553.98	1726.44
554.17	1687.53
554.37	1708.01
554.57	1806.31
554.76	1697.77
554.96	1738.73
555.16	1701.86
555.35	1673.19
555.55	1691.62
555.75	1755.11
555.94	1828.84
556.14	1703.91
556.33	1701.86
556.53	1714.15
556.73	1732.58
556.92	1783.78
557.12	1841.12
557.32	1839.08
557.51	1802.21
557.71	1716.20
557.90	1849.32
558.10	1826.79
558.30	1746.92
558.49	1783.78
558.69	1732.58
558.88	1794.02
559.08	1759.21
559.28	1681.38
559.47	1794.02
559.67	1720.29
559.86	1871.84
560.06	1765.35
560.26	1665.00
560.45	1724.39
560.65	1677.29
560.84	1832.93
561.04	1720.29
561.24	1785.83
561.43	1697.77
561.63	1861.60
561.82	1798.12
562.02	1806.31
562.22	1681.38
562.41	1636.33
562.61	1714.15
562.80	1720.29
563.00	1867.75
563.19	1798.12
563.39	1779.68
563.59	1751.01
563.78	1648.61
563.98	1609.70
564.17	1699.81
564.37	1667.05
564.56	1636.33
564.76	1677.29
564.96	1794.02
565.15	1767.40
565.35	1898.47
565.54	1695.72
565.74	1777.64
565.93	1787.88
566.13	1714.15
566.32	1779.68
566.52	1738.73
566.71	1740.77
566.91	1755.11
567.11	1701.86
567.30	1738.73
567.50	1775.59
567.69	1742.82
567.89	1742.82
568.08	1712.10
568.28	1734.63
568.47	1716.20
568.67	1769.44
568.86	1732.58
569.06	1757.16
569.25	1771.49
569.45	1699.81
569.64	1681.38
569.84	1710.05
570.04	1757.16
570.23	1660.90
570.43	1736.68
570.62	1720.29
570.82	1898.47
571.01	1615.85
571.21	1689.57
571.40	1669.09
571.60	1755.11
571.79	1697.77
571.99	1714.15
572.18	1648.61
572.38	1748.97
572.57	1714.15
572.77	1785.83
572.96	1943.52
573.16	1679.33
573.35	1751.01
573.55	1877.99
573.74	1763.30
573.94	1751.01
574.13	1677.29
574.33	1720.29
574.52	1791.97
574.71	1816.55
574.91	1771.49
575.10	1710.05
575.30	1699.81
575.49	1681.38
575.69	1665.00
575.88	1736.68
576.08	1832.93
576.27	1812.45
576.47	1781.73
576.66	1845.22
576.86	1753.06
577.05	1769.44
577.25	1791.97
577.44	1884.13
577.64	1748.97
577.83	1812.45
578.02	1689.57
578.22	1773.54
578.41	1886.18
578.61	1703.91
578.80	1732.58
579.00	1757.16
579.19	1714.15
579.39	1861.60
579.58	1742.82
579.77	1759.21
579.97	1832.93
580.16	1789.92
580.36	1845.22
580.55	1812.45
580.75	1755.11
580.94	1736.68
581.13	1828.84
581.33	1791.97
581.52	1781.73
581.72	1826.79
581.91	1871.84
582.11	1740.77
582.30	1834.98
582.49	1773.54
582.69	1892.32
582.88	1794.02
583.08	1855.46
583.27	1769.44
583.47	1759.21
583.66	1714.15
583.85	1675.24
584.05	1763.30
584.24	1828.84
584.44	1738.73
584.63	1847.27
584.82	1818.60
585.02	1861.60
585.21	1814.50
585.41	1820.64
585.60	1744.87
585.79	1904.61
585.99	1916.90
586.18	1853.41
586.37	2144.22
586.57	3243.98
586.76	9574.25
586.96	23391.90
587.15	33238.53
587.34	39095.72
587.54	40766.87
587.73	35065.32
587.93	25325.18
588.12	20891.33
588.31	17547.00
588.51	15888.14
588.70	14657.31
588.89	13707.05
589.09	12130.12
589.28	10714.97
589.47	8990.58
589.67	7800.71
589.86	6188.96
590.06	4790.20
590.25	3868.61
590.44	2920.40
590.64	2512.86
590.83	2320.35
591.02	2090.98
591.22	1939.43
591.41	1933.28
591.60	1855.46
591.80	1902.56
591.99	1812.45
592.18	1808.36
592.38	1742.82
592.57	1736.68
592.76	1796.07
592.96	1748.97
593.15	1732.58
593.34	1798.12
593.54	1822.69
593.73	1796.07
593.92	1757.16
594.12	1753.06
594.31	1796.07
594.50	1779.68
594.70	1806.31
594.89	1912.80
595.08	1732.58
595.28	1734.63
595.47	1949.67
595.66	1751.01
595.86	1740.77
596.05	1724.39
596.24	1748.97
596.43	1865.70
596.63	1794.02
596.82	1720.29
597.01	1759.21
597.21	1830.88
597.40	1818.60
597.59	1779.68
597.79	1742.82
597.98	1847.27
598.17	1765.35
598.36	1708.01
598.56	1748.97
598.75	1705.96
598.94	1748.97
599.14	1789.92
599.33	1671.14
599.52	1816.55
599.71	1791.97
599.91	1812.45
600.10	1755.11
600.29	1736.68
600.48	1728.49
600.68	1779.68
600.87	1730.53
601.06	1718.25
601.26	1677.29
601.45	1783.78
601.64	1685.48
601.83	1845.22
602.03	1669.09
602.22	1748.97
602.41	1894.37
602.60	1863.65
602.80	1832.93
602.99	1742.82
603.18	1720.29
603.37	1751.01
603.57	1753.06
603.76	1779.68
603.95	1726.44
604.14	1748.97
604.34	1718.25
604.53	1734.63
604.72	1669.09
604.91	1740.77
605.10	1751.01
605.30	1710.05
605.49	1843.17
605.68	1787.88
605.87	1757.16
606.07	1703.91
606.26	1720.29
606.45	1716.20
606.64	1712.10
606.84	1681.38
607.03	1722.34
607.22	1800.16
607.41	1693.67
607.60	1695.72
607.80	1781.73
607.99	1734.63
608.18	1695.72
608.37	1716.20
608.56	1677.29
608.76	1775.59
608.95	1744.87
609.14	1753.06
609.33	1779.68
609.52	1738.73
609.72	1677.29
609.91	1748.97
610.10	1755.11
610.29	1818.60
610.48	1779.68
610.68	1703.91
610.87	1697.77
611.06	1730.53
611.25	1742.82
611.44	1841.12
611.63	1710.05
611.83	1744.87
612.02	1691.62
612.21	1804.26
612.40	1585.13
612.59	1677.29
612.79	1734.63
612.98	1669.09
613.17	1894.37
613.36	1724.39
613.55	1857.51
613.74	1636.33
613.93	1730.53
614.13	1673.19
614.32	1798.12
614.51	1728.49
614.70	1691.62
614.89	1708.01
615.08	1679.33
615.28	2088.93
615.47	1697.77
615.66	1669.09
615.85	1753.06
616.04	1769.44
616.23	1734.63
616.42	1720.29
616.62	1714.15
616.81	1744.87
617.00	1710.05
617.19	1742.82
617.38	1634.28
617.57	1691.62
617.76	1791.97
617.95	1767.40
618.15	1761.25
618.34	1867.75
618.53	1669.09
618.72	1744.87
618.91	1800.16
619.10	1812.45
619.29	1697.77
619.48	1703.91
619.68	1632.23
619.87	1767.40
620.06	1644.52
620.25	1677.29
620.44	1753.06
620.63	1673.19
620.82	1775.59
621.01	1746.92
621.20	1734.63
621.39	1732.58
621.59	1685.48
621.78	1746.92
621.97	1665.00
622.16	1708.01
622.35	1675.24
622.54	1634.28
622.73	1746.92
622.92	1642.47
623.11	1816.55
623.30	1685.48
623.49	1789.92
623.68	1667.05
623.88	1839.08
624.07	1675.24
624.26	1763.30
624.45	1736.68
624.64	1753.06
624.83	1673.19
625.02	1697.77
625.21	1708.01
625.40	1726.44
625.59	1841.12
625.78	1751.01
625.97	1787.88
626.16	1699.81
626.35	1757.16
626.54	1712.10
626.74	1837.03
626.93	1638.38
627.12	1714.15
627.31	1794.02
627.50	1748.97
627.69	1712.10
627.88	1673.19
628.07	1712.10
628.26	1607.66
628.45	1728.49
628.64	1675.24
628.83	1628.14
629.02	1632.23
629.21	1738.73
629.40	1652.71
629.59	1652.71
629.78	1621.99
629.97	1710.05
630.16	1746.92
630.35	1689.57
630.54	1683.43
630.73	1658.85
630.92	1699.81
631.11	1685.48
631.30	1701.86
631.49	1767.40
631.68	1734.63
631.87	1761.25
632.06	1669.09
632.25	1855.46
632.44	1730.53
632.63	1716.20
632.82	1658.85
633.01	1654.76
633.20	1691.62
633.39	1691.62
633.58	1703.91
633.77	1765.35
633.96	1779.68
634.15	1740.77
634.34	1691.62
634.53	1722.34
634.72	1712.10
634.91	1654.76
635.10	1839.08
635.29	1738.73
635.48	1726.44
635.67	1708.01
635.86	1671.14
636.05	1781.73
636.24	1710.05
636.43	1701.86
636.62	1787.88
636.81	1660.90
637.00	1693.67
637.19	1703.91
637.38	1689.57
637.57	1667.05
637.76	1689.57
637.95	1693.67
638.14	1628.14
638.33	1687.53
638.52	1705.96
638.71	1656.81
638.89	1703.91
639.08	1775.59
639.27	1742.82
639.46	1712.10
639.65	1757.16
639.84	1710.05
640.03	1837.03
640.22	1693.67
640.41	1800.16
640.60	1751.01
640.79	1732.58
640.98	1617.90
641.17	1755.11
641.36	1789.92
641.55	1755.11
641.74	1650.66
641.92	1679.33
642.11	1697.77
642.30	1755.11
642.49	1581.03
642.68	1685.48
642.87	1701.86
643.06	1662.95
643.25	1722.34
643.44	1650.66
643.63	1742.82
643.82	1665.00
644.00	1675.24
644.19	1724.39
644.38	1673.19
644.57	1779.68
644.76	1728.49
644.95	1789.92
645.14	1714.15
645.33	1685.48
645.52	1771.49
645.71	1744.87
645.89	1652.71
646.08	1683.43
646.27	1705.96
646.46	1824.74
646.65	1685.48
646.84	1710.05
647.03	1718.25
647.22	1798.12
647.40	1742.82
647.59	1777.64
647.78	1634.28
647.97	1669.09
648.16	1732.58
648.35	1736.68
648.54	1847.27
648.73	1748.97
648.91	1722.34
649.10	1705.96
649.29	1640.42
649.48	1769.44
649.67	1689.57
649.86	1712.10
650.05	1722.34
650.23	1843.17
650.42	1646.57
650.61	1722.34
650.80	1673.19
650.99	1818.60
651.18	1681.38
651.36	1683.43
651.55	1654.76
651.74	1720.29
651.93	1753.06
652.12	1748.97
652.31	1683.43
652.49	1669.09
652.68	1646.57
652.87	1812.45
653.06	1714.15
653.25	1824.74
653.44	1716.20
653.62	1689.57
653.81	1662.95
654.00	1714.15
654.19	1849.32
654.38	1898.47
654.56	1724.39
654.75	1714.15
654.94	1806.31
655.13	1763.30
655.32	1728.49
655.51	1781.73
655.69	1740.77
655.88	1810.40
656.07	1630.18
656.26	1697.77
656.45	1689.57
656.63	1763.30
656.82	1679.33
657.01	1765.35
657.20	1697.77
657.38	1771.49
657.57	1753.06
657.76	1591.27
657.95	1738.73
658.14	1701.86
658.32	1679.33
658.51	1632.23
658.70	1744.87
658.89	1619.94
659.08	1755.11
659.26	1798.12
659.45	1619.94
659.64	1693.67
659.83	1626.09
660.01	1855.46
660.20	1734.63
660.39	1781.73
660.58	1615.85
660.76	1812.45
660.95	1656.81
661.14	1759.21
661.33	1605.61
661.51	1708.01
661.70	1691.62
661.89	1681.38
662.08	1691.62
662.26	1681.38
662.45	1609.70
662.64	1820.64
662.83	1726.44
663.01	1652.71
663.20	1673.19
663.39	1841.12
663.58	1665.00
663.76	1679.33
663.95	1718.25
664.14	1634.28
664.32	1722.34
664.51	1699.81
664.70	1652.71
664.89	1681.38
665.07	1658.85
665.26	1812.45
665.45	1701.86
665.64	1763.30
665.82	1671.14
666.01	1816.55
666.20	1710.05
666.38	1744.87
666.57	1820.64
666.76	2136.03
666.95	4321.21
667.13	10041.19
667.32	14602.02
667.51	17256.18
667.69	18513.64
667.88	17243.90
668.07	11949.90
668.25	9432.94
668.44	7905.16
668.63	7217.04
668.81	6584.22
669.00	6211.49
669.19	5513.13
669.38	4937.65
669.56	4454.33
669.75	3854.28
669.94	3411.92
670.12	2908.12
670.31	2484.19
670.50	2318.30
670.68	1976.29
670.87	1886.18
671.06	1810.40
671.24	1791.97
671.43	1824.74
671.62	1746.92
671.80	1687.53
671.99	1734.63
672.18	1783.78
672.36	1820.64
672.55	1697.77
672.74	1716.20
672.92	1779.68
673.11	1693.67
673.29	1669.09
673.48	1734.63
673.67	1695.72
673.85	1710.05
674.04	1677.29
674.23	1689.57
674.41	1812.45
674.60	1660.90
674.79	1632.23
674.97	1722.34
675.16	1744.87
675.34	1677.29
675.53	1630.18
675.72	1781.73
675.90	1826.79
676.09	1685.48
676.28	1675.24
676.46	1669.09
676.65	1728.49
676.83	1759.21
677.02	1740.77
677.21	1755.11
677.39	1720.29
677.58	1595.37
677.77	1669.09
677.95	1691.62
678.14	1691.62
678.32	1789.92
678.51	1628.14
678.70	1798.12
678.88	1656.81
679.07	1732.58
679.25	1724.39
679.44	1648.61
679.63	1642.47
679.81	1751.01
680.00	1791.97
680.18	1800.16
680.37	1767.40
680.55	1720.29
680.74	1599.46
680.93	1521.64
681.11	1679.33
681.30	1628.14
681.48	1765.35
681.67	1771.49
681.85	1712.10
682.04	1630.18
682.23	1677.29
682.41	1742.82
682.60	1708.01
682.78	1714.15
682.97	1640.42
683.15	1710.05
683.34	1658.85
683.53	1738.73
683.71	1708.01
683.90	1789.92
684.08	1824.74
684.27	1726.44
684.45	1714.15
684.64	1781.73
684.82	1728.49
685.01	1740.77
685.19	1716.20
685.38	1781.73
685.57	1714.15
685.75	1734.63
685.94	1619.94
686.12	1640.42
686.31	1710.05
686.49	1802.21
686.68	1609.70
686.86	1751.01
687.05	1673.19
687.23	1796.07
687.42	1619.94
687.60	1662.95
687.79	1777.64
687.97	1845.22
688.16	1804.26
688.34	1787.88
688.53	1632.23
688.71	1742.82
688.90	1783.78
689.08	1738.73
689.27	1632.23
689.45	1695.72
689.64	1718.25
689.82	1714.15
690.01	1640.42
690.19	1744.87
690.38	1660.90
690.56	1746.92
690.75	1697.77
690.93	1648.61
691.12	1636.33
691.30	1660.90
691.49	1677.29
691.67	1718.25
691.86	1783.78
692.04	1656.81
692.23	1679.33
692.41	1640.42
692.60	1884.13
692.78	1736.68
692.97	1660.90
693.15	1808.36
693.34	1773.54
693.52	1785.83
693.71	1669.09
693.89	1621.99
694.08	1619.94
694.26	1783.78
694.44	1744.87
694.63	1718.25
694.81	1660.90
695.00	1710.05
695.18	1765.35
695.37	1906.66
695.55	1753.06
695.74	1724.39
695.92	1671.14
696.10	1732.58
696.29	1693.67
696.47	1646.57
696.66	1679.33
696.84	1634.28
697.03	1658.85
697.21	1820.64
697.40	2248.67
697.58	1691.62
697.76	1656.81
697.95	1636.33
698.13	1724.39
698.32	1640.42
698.50	1714.15
698.68	1728.49
698.87	1656.81
699.05	1675.24
699.24	1679.33
699.42	1628.14
699.61	1720.29
699.79	1693.67
699.97	1738.73
700.16	1591.27
700.34	1730.53
700.53	1779.68
700.71	1759.21
700.89	1796.07
701.08	1691.62
701.26	1730.53
701.45	2056.16
701.63	1755.11
701.81	1687.53
702.00	1593.32
702.18	1693.67
702.37	1587.18
702.55	1716.20
702.73	1734.63
702.92	1634.28
703.10	1816.55
703.28	1763.30
703.47	1650.66
703.65	1775.59
703.84	1751.01
704.02	1687.53
704.20	1734.63
704.39	1650.66
704.57	1736.68
704.75	1785.83
704.94	1714.15
705.12	1736.68
705.30	1855.46
705.49	2136.03
705.67	4163.52
705.86	9082.74
706.04	12224.33
706.22	13858.60
706.41	14913.31
706.59	13512.50
706.77	9355.12
706.96	7116.69
707.14	6467.49
707.32	5922.73
707.51	5500.84
707.69	4853.69
707.87	4196.29
708.06	3452.88
708.24	2953.17
708.42	2375.64
708.61	2226.14
708.79	1886.18
708.97	1794.02
709.16	1824.74
709.34	1705.96
709.52	1796.07
709.71	1736.68
709.89	1705.96
710.07	1671.14
710.26	1656.81
710.44	1695.72
710.62	1837.03
710.80	1791.97
710.99	1697.77
711.17	1791.97
711.35	1669.09
711.54	1660.90
711.72	1794.02
711.90	1779.68
712.09	1703.91
712.27	1679.33
712.45	1775.59
712.63	1685.48
712.82	1734.63
713.00	1746.92
713.18	1794.02
713.37	1665.00
713.55	1697.77
713.73	1693.67
713.91	1732.58
714.10	1708.01
714.28	1652.71
714.46	1781.73
714.65	1734.63
714.83	1685.48
715.01	1658.85
715.19	1660.90
715.38	1724.39
715.56	1765.35
715.74	1640.42
715.92	1636.33
716.11	1804.26
716.29	1576.94
716.47	1681.38
716.65	1691.62
716.84	1632.23
717.02	1722.34
717.20	1583.08
717.38	1746.92
717.57	1730.53
717.75	1726.44
717.93	1734.63
718.11	1730.53
718.30	1679.33
718.48	1724.39
718.66	1765.35
718.84	1781.73
719.03	1736.68
719.21	1626.09
719.39	1777.64
719.57	1677.29
719.75	1787.88
719.94	1677.29
720.12	1712.10
720.30	1781.73
720.48	1734.63
720.67	1630.18
720.85	1669.09
721.03	1708.01
721.21	1648.61
721.39	1828.84
721.58	1763.30
721.76	1763.30
721.94	1736.68
722.12	1718.25
722.30	1828.84
722.49	1640.42
722.67	1763.30
722.85	1738.73
723.03	1660.90
723.21	1646.57
723.40	1738.73
723.58	1769.44
723.76	1726.44
723.94	1777.64
724.12	1755.11
724.30	1744.87
724.49	1734.63
724.67	1685.48
724.85	1722.34
725.03	1585.13
725.21	1738.73
725.40	1716.20
725.58	1687.53
725.76	1791.97
725.94	1720.29
726.12	1638.38
726.30	1705.96
726.49	1662.95
726.67	1615.85
726.85	1763.30
727.03	1851.36
727.21	2131.94
727.39	2844.63
727.57	3594.19
727.76	4026.31
727.94	4347.84
728.12	4237.25
728.30	3645.38
728.48	3004.37
728.66	2682.84
728.84	2568.15
729.03	2326.49
729.21	2156.51
729.39	1959.91
729.57	1841.12
729.75	1767.40
729.93	1755.11
730.11	1718.25
730.30	1687.53
730.48	1673.19
730.66	1834.98
730.84	1714.15
731.02	1712.10
731.20	1634.28
731.38	1734.63
731.56	1615.85
731.74	1673.19
731.93	1685.48
732.11	1740.77
732.29	1677.29
732.47	1763.30
732.65	1705.96
732.83	1716.20
733.01	1685.48
733.19	1652.71
733.37	1714.15
733.56	1714.15
733.74	1652.71
733.92	1736.68
734.10	1595.37
734.28	1751.01
734.46	1642.47
734.64	1697.77
734.82	1640.42
735.00	1667.05
735.18	1640.42
735.36	1669.09
735.54	1656.81
735.73	1654.76
735.91	1697.77
736.09	1683.43
736.27	1607.66
736.45	1789.92
736.63	1550.31
736.81	1689.57
736.99	1783.78
737.17	1789.92
737.35	1667.05
737.53	1617.90
737.71	1685.48
737.89	1769.44
738.07	1607.66
738.25	1603.56
738.43	1607.66
738.61	1689.57
738.80	1648.61
738.98	1619.94
739.16	1775.59
739.34	1701.86
739.52	1783.78
739.70	1673.19
739.88	1687.53
740.06	1771.49
740.24	1595.37
740.42	1771.49
740.60	1599.46
740.78	1671.14
740.96	1640.42
741.14	1607.66
741.32	1722.34
741.50	1617.90
741.68	1875.94
741.86	1718.25
742.04	1662.95
742.22	1683.43
742.40	1695.72
742.58	1714.15
742.76	1634.28
742.94	1771.49
743.12	1691.62
743.30	1757.16
743.48	1695.72
743.66	1615.85
743.84	1677.29
744.02	1572.84
744.20	1665.00
744.38	1636.33
744.56	1607.66
744.74	1751.01
744.92	1710.05
745.10	1849.32
745.28	1781.73
745.46	1738.73
745.64	1673.19
745.82	1673.19
746.00	1652.71
746.18	1699.81
746.36	1681.38
746.54	1724.39
746.72	1683.43
746.90	1587.18
747.08	1785.83
747.26	1665.00
747.44	1740.77
747.62	1658.85
747.80	1748.97
747.98	1837.03
748.15	1695.72
748.33	1802.21
748.51	1738.73
748.69	1689.57
748.87	1667.05
749.05	1689.57
749.23	1708.01
749.41	1746.92
749.59	1591.27
749.77	1746.92
749.95	1646.57
750.13	1697.77
750.31	1746.92
750.49	1703.91
750.67	1773.54
750.85	1718.25
751.03	1632.23
751.20	1828.84
751.38	1689.57
751.56	1675.24
751.74	1712.10
751.92	1730.53
752.10	1583.08
752.28	1748.97
752.46	1763.30
752.64	1753.06
752.82	1746.92
753.00	1779.68
753.18	1646.57
753.35	1683.43
753.53	1751.01
753.71	1753.06
753.89	1742.82
754.07	1691.62
754.25	1708.01
754.43	1783.78
754.61	1609.70
754.79	1710.05
754.97	1626.09
755.14	1736.68
755.32	1660.90
755.50	1681.38
755.68	1767.40
755.86	1615.85
756.04	1687.53
756.22	1603.56
756.40	1617.90
756.57	1837.03
756.75	1665.00
756.93	1767.40
757.11	1685.48
757.29	1650.66
757.47	1662.95
757.65	1599.46
757.82	1576.94
758.00	1669.09
758.18	1705.96
758.36	1673.19
758.54	1791.97
758.72	1593.32
758.90	1687.53
759.07	1689.57
759.25	1681.38
759.43	1708.01
759.61	1652.71
759.79	2222.05
759.97	1759.21
760.15	1673.19
760.32	1685.48
760.50	1693.67
760.68	1726.44
760.86	1665.00
761.04	1806.31
761.22	1697.77
761.39	1726.44
761.57	1724.39
761.75	1628.14
761.93	1808.36
762.11	1671.14
762.28	1736.68
762.46	1683.43
762.64	1779.68
762.82	1665.00
763.00	1695.72
763.18	1736.68
763.35	1607.66
763.53	1736.68
763.71	1689.57
763.89	1697.77
764.07	1767.40
764.24	1726.44
764.42	1794.02
764.60	1724.39
764.78	1710.05
764.96	1746.92
765.13	1800.16
765.31	1748.97
765.49	1753.06
765.67	1648.61
765.84	1619.94
766.02	1640.42
766.20	1665.00
766.38	1767.40
766.56	1730.53
766.73	1732.58
766.91	1716.20
767.09	1716.20
767.27	1732.58
767.44	1640.42
767.62	1753.06
767.80	1710.05
767.98	1738.73
768.15	1691.62
768.33	1775.59
768.51	1730.53
768.69	1798.12
768.87	1751.01
769.04	1771.49
769.22	1765.35
769.40	1759.21
769.58	1804.26
769.75	1763.30
769.93	1787.88
770.11	1693.67
770.28	1677.29
770.46	1783.78
770.64	1714.15
770.82	1718.25
770.99	1703.91
771.17	1728.49
771.35	1703.91
771.53	1615.85
771.70	1716.20
771.88	1724.39
772.06	1746.92
772.23	1722.34
772.41	1693.67
772.59	1662.95
772.77	1611.75
772.94	1685.48
773.12	1736.68
773.30	1683.43
773.47	1755.11
773.65	1683.43
773.83	1765.35
774.01	1759.21
774.18	1611.75
774.36	1652.71
774.54	1644.52
774.71	1658.85
774.89	1697.77
775.07	1603.56
775.24	1656.81
775.42	1691.62
775.60	1818.60
775.78	1697.77
775.95	1640.42
776.13	1648.61
776.31	1548.26
776.48	1673.19
776.66	1732.58
776.84	1697.77
777.01	1644.52
777.19	1675.24
777.37	1685.48
777.54	1787.88
777.72	1888.23
777.90	1765.35
778.07	1689.57
778.25	1910.75
778.43	1787.88
778.60	1652.71
778.78	1761.25
778.96	1804.26
779.13	1701.86
779.31	1726.44
779.49	1646.57
779.66	1734.63
779.84	1703.91
780.01	1626.09
780.19	1656.81
780.37	1810.40
780.54	1802.21
780.72	1648.61
780.90	1755.11
781.07	1726.44
781.25	1626.09
781.43	1656.81
781.60	1632.23
781.78	1755.11
781.95	1714.15
782.13	1675.24
782.31	1744.87
782.48	1634.28
782.66	1755.11
782.83	1755.11
783.01	1742.82
783.19	1834.98
783.36	1740.77
783.54	1638.38
783.72	1681.38
783.89	1644.52
784.07	1708.01
784.24	1773.54
784.42	1730.53
784.60	1746.92
784.77	1738.73
784.95	1669.09
785.12	1759.21
785.30	1708.01
785.47	1695.72
785.65	1632.23
785.83	1720.29
786.00	1687.53
786.18	1755.11
786.35	1615.85
786.53	1589.22
786.71	1732.58
786.88	1775.59
787.06	1724.39
787.23	1714.15
787.41	1642.47
787.58	1681.38
787.76	1697.77
787.94	1685.48
788.11	1695.72
788.29	1628.14
788.46	1714.15
788.64	1669.09
788.81	1718.25
788.99	1611.75
789.16	1619.94
789.34	1703.91
789.52	1695.72
789.69	1642.47
789.87	1624.04
790.04	1718.25
790.22	1753.06
790.39	1804.26
790.57	1681.38
790.74	1681.38
790.92	1703.91
791.09	1646.57
791.27	1662.95
791.44	1701.86
791.62	1683.43
791.79	1757.16
791.97	1687.53
792.15	1906.66
792.32	1695.72
792.50	1726.44
792.67	1855.46
792.85	1791.97
793.02	1703.91
793.20	1658.85
793.37	1599.46
793.55	1736.68
793.72	1642.47
793.90	1626.09
794.07	1742.82
794.25	1683.43
794.42	1613.80
794.60	1669.09
794.77	1742.82
794.95	1689.57
795.12	1705.96
795.30	1665.00
795.47	1581.03
795.65	1830.88
795.82	1662.95
796.00	1628.14
796.17	1714.15
796.34	1673.19
796.52	1683.43
796.69	1757.16
796.87	1720.29
797.04	1693.67
797.22	1730.53
797.39	1714.15
797.57	1689.57
797.74	1734.63
797.92	1751.01
798.09	1685.48
798.27	1814.50
798.44	1744.87
798.62	1665.00
798.79	1697.77
798.96	1695.72
799.14	1662.95
799.31	1822.69
799.49	1671.14
799.66	1640.42
799.84	1726.44
800.01	1583.08
800.19	1746.92
800.36	1564.65
800.53	1771.49
800.71	1720.29
800.88	1720.29
801.06	1660.90
801.23	1740.77
801.41	1695.72
801.58	1591.27
801.75	1660.90
801.93	1705.96
802.10	1736.68
802.28	1621.99
802.45	1681.38
802.63	1718.25
802.80	1769.44
802.97	1697.77
803.15	1568.74
803.32	1705.96
803.50	1660.90
803.67	1658.85
803.84	1636.33
804.02	1761.25
804.19	1687.53
804.37	1605.61
804.54	1681.38
804.71	1675.24
804.89	1695.72
805.06	1675.24
805.24	1642.47
805.41	1613.80
805.58	1650.66
805.76	1849.32
805.93	1697.77
806.10	1802.21
806.28	1705.96
806.45	1712.10
806.63	1732.58
806.80	1769.44
806.97	1710.05
807.15	1685.48
807.32	1744.87
807.49	1773.54
807.67	1648.61
807.84	1740.77
808.01	1624.04
808.19	1830.88
808.36	1837.03
808.54	1681.38
808.71	1671.14
808.88	1755.11
809.06	1615.85
809.23	1767.40
809.40	1740.77
809.58	1695.72
809.75	1724.39
809.92	1736.68
810.10	1884.13
810.27	1701.86
810.44	1656.81
810.62	1734.63
810.79	1757.16
810.96	1730.53
811.14	1570.79
811.31	1640.42
811.48	1730.53
811.66	1708.01
811.83	1773.54
812.00	1726.44
812.18	1765.35
812.35	1755.11
812.52	1708.01
812.69	1705.96
812.87	1609.70
813.04	1570.79
813.21	1787.88
813.39	1736.68
813.56	1632.23
813.73	1779.68
813.91	1601.51
814.08	1714.15
814.25	1650.66
814.42	1607.66
814.60	1652.71
814.77	1740.77
814.94	1716.20
815.12	1732.58
815.29	1740.77
815.46	1677.29
815.63	1681.38
815.81	1740.77
815.98	1650.66
816.15	1697.77
816.33	1734.63
816.50	1736.68
816.67	1687.53
816.84	1689.57
817.02	1648.61
817.19	1628.14
817.36	1642.47
817.53	1728.49
817.71	1683.43
817.88	1671.14
818.05	1677.29
818.22	1705.96
818.40	1841.12
818.57	1656.81
818.74	1765.35
818.91	1638.38
819.09	1708.01
819.26	1755.11
819.43	1669.09
819.60	1665.00
819.78	1757.16
819.95	1857.51
820.12	1679.33
820.29	1798.12
820.47	1689.57
820.64	1675.24
820.81	1634.28
820.98	1685.48
821.15	1675.24
821.33	1703.91
821.50	1585.13
821.67	1787.88
821.84	1685.48
822.02	1857.51
822.19	1697.77
822.36	1652.71
822.53	1708.01
822.70	1652.71
822.88	1708.01
823.05	1738.73
823.22	1679.33
823.39	1691.62
823.56	1746.92
823.74	1771.49
823.91	1617.90
824.08	1640.42
824.25	1652.71
824.42	1724.39
824.60	1617.90
824.77	1718.25
824.94	1636.33
825.11	1697.77
825.28	1626.09
825.45	1693.67
825.63	1687.53
825.80	1685.48
825.97	1726.44
826.14	1714.15
826.31	1669.09
826.48	1732.58
826.66	1646.57
826.83	1650.66
827.00	1699.81
827.17	1630.18
827.34	1683.43
827.51	1667.05
827.69	1644.52
827.86	1683.43
828.03	1665.00
828.20	1656.81
828.37	1648.61
828.54	1714.15
828.71	1728.49
828.89	1761.25
829.06	1740.77
829.23	1796.07
829.40	1779.68
829.57	1697.77
829.74	1746.92
829.91	1691.62
830.09	1673.19
830.26	1705.96
830.43	1773.54
830.60	1740.77
830.77	1761.25
830.94	1830.88
831.11	1650.66
831.28	1757.16
831.46	1787.88
831.63	1652.71
831.80	1744.87
831.97	1603.56
832.14	1658.85
832.31	1744.87
832.48	1744.87
832.65	1734.63
832.82	1714.15
832.99	1732.58
833.17	1605.61
833.34	1736.68
833.51	1728.49
833.68	1560.55
833.85	1689.57
834.02	1665.00
834.19	1654.76
834.36	1685.48
834.53	1626.09
834.70	1708.01
834.87	1742.82
835.04	1710.05
835.22	1630.18
835.39	1632.23
835.56	1595.37
835.73	1689.57
835.90	1816.55
836.07	1671.14
836.24	1757.16
836.41	1642.47
836.58	1576.94
836.75	1730.53
836.92	1742.82
837.09	1701.86
837.26	1722.34
837.43	1740.77
837.60	1744.87
837.77	1669.09
837.94	1742.82
838.12	1714.15
838.29	1724.39
838.46	1572.84
838.63	1628.14
838.80	1773.54
838.97	1767.40
839.14	1667.05
839.31	1699.81
839.48	1703.91
839.65	1708.01
839.82	1765.35
839.99	1710.05
840.16	1658.85
840.33	1693.67
840.50	1710.05
840.67	1619.94
840.84	1521.64
841.01	1736.68
841.18	1632.23
841.35	1763.30
841.52	1722.34
841.69	1777.64
841.86	1732.58
842.03	1701.86
842.20	1710.05
842.37	1679.33
842.54	1705.96
842.71	1679.33
842.88	1648.61
843.05	1714.15
843.22	1667.05
843.39	1685.48
843.56	1632.23
843.73	1708.01
843.90	1730.53
844.07	1796.07
844.24	1722.34
844.41	1681.38
844.58	1712.10
844.75	1695.72
844.92	1736.68
845.09	1800.16
845.26	1660.90
845.43	1662.95
845.60	1681.38
845.77	1820.64
845.94	1705.96
846.10	1708.01
846.27	1642.47
846.44	1660.90
846.61	1675.24
846.78	1693.67
846.95	1767.40
847.12	1662.95
847.29	1732.58
847.46	1714.15
847.63	1804.26
847.80	1665.00
847.97	1660.90
848.14	1755.11
848.31	1708.01
848.48	1603.56
848.65	1703.91
848.82	1642.47
848.98	1798.12
849.15	1697.77
849.32	1701.86
849.49	1740.77
849.66	1656.81
849.83	1695.72
850.00	1705.96
850.17	1665.00
850.34	1724.39
850.51	1644.52
850.68	1648.61
850.85	1814.50
851.01	1744.87
851.18	1755.11
851.35	1691.62
851.52	1730.53
851.69	1736.68
851.86	1607.66
852.03	1665.00
852.20	1718.25
852.37	1681.38
852.53	1648.61
852.70	1681.38
852.87	1695.72
853.04	1757.16
853.21	1708.01
853.38	1738.73
853.55	1720.29
853.72	1796.07
853.89	1673.19
854.05	1593.32
854.22	1744.87
854.39	1634.28
854.56	1744.87
854.73	1718.25
854.90	1603.56
855.07	1658.85
855.23	1656.81
855.40	1755.11
855.57	1656.81
855.74	1615.85
855.91	1820.64
856.08	1681.38
856.25	1529.83
856.41	1648.61
856.58	1728.49
856.75	1652.71
856.92	1730.53
857.09	1693.67
857.26	1703.91
857.42	1632.23
857.59	1718.25
857.76	1734.63
857.93	1681.38
858.10	1693.67
858.27	1640.42
858.43	1724.39
858.60	1632.23
858.77	1566.70
858.94	1710.05
859.11	1767.40
859.27	1667.05
859.44	1740.77
859.61	1783.78
859.78	1728.49
859.95	1685.48
860.12	1626.09
860.28	1820.64
860.45	1810.40
860.62	1660.90
860.79	1695.72
860.95	1691.62
861.12	1650.66
861.29	1593.32
861.46	1621.99
861.63	1712.10
861.79	1697.77
861.96	1685.48
862.13	1687.53
862.30	1753.06
862.47	1705.96
862.63	1662.95
862.80	1808.36
862.97	1710.05
863.14	1714.15
863.30	1718.25
863.47	1679.33
863.64	1777.64
863.81	1763.30
863.97	1695.72
864.14	1751.01
864.31	1703.91
864.48	1753.06
864.65	1751.01
864.81	1791.97
864.98	1732.58
865.15	1744.87
865.32	1734.63
865.48	1757.16
865.65	1746.92
865.82	1667.05
865.98	1763.30
866.15	1759.21
866.32	1652.71
866.49	1648.61
866.65	1738.73
866.82	1640.42
866.99	1662.95
867.16	1611.75
867.32	1619.94
867.49	1761.25
867.66	1644.52
867.83	1699.81
867.99	1644.52
868.16	1689.57
868.33	1607.66
868.49	1632.23
868.66	1601.51
868.83	1681.38
868.99	1802.21
869.16	1693.67
869.33	1806.31
869.50	1746.92
869.66	1716.20
869.83	1751.01
870.00	1652.71
870.16	1728.49
870.33	1681.38
870.50	1738.73
870.66	1789.92
870.83	1824.74
871.00	1726.44
871.17	1814.50
871.33	1705.96
871.50	1697.77
871.67	1685.48
871.83	1619.94
872.00	1730.53
872.17	1658.85
872.33	1771.49
872.50	1705.96
872.67	1720.29
872.83	1669.09
873.00	1701.86
873.17	1718.25
873.33	1738.73
873.50	1746.92
873.67	1730.53
873.83	1681.38
874.00	1738.73
874.16	1714.15
874.33	1673.19
874.50	1613.80
874.66	1705.96
874.83	1671.14
875.00	1783.78
875.16	1748.97
875.33	1693.67
875.50	1535.98
875.66	1677.29
875.83	1722.34
875.99	1783.78
876.16	1746.92
876.33	1654.76
876.49	1734.63
876.66	1687.53
876.83	1724.39
876.99	1669.09
877.16	1634.28
877.32	1693.67
877.49	1624.04
877.66	1652.71
877.82	1783.78
877.99	1722.34
878.15	1705.96
878.32	1693.67
878.49	1669.09
878.65	1646.57
878.82	1773.54
878.98	1613.80
879.15	1746.92
879.32	1669.09
879.48	1669.09
879.65	1660.90
879.81	1748.97
879.98	1769.44
880.15	1726.44
880.31	1757.16
880.48	1712.10
880.64	1761.25
880.81	1714.15
880.97	1787.88
881.14	1757.16
881.31	1628.14
881.47	1910.75
881.64	1695.72
881.80	1650.66
881.97	1736.68
882.13	1765.35
882.30	1636.33
882.47	1691.62
882.63	1658.85
882.80	1636.33
882.96	1703.91
883.13	1697.77
883.29	1636.33
883.46	1714.15
883.62	1757.16
883.79	1673.19
883.95	1742.82
884.12	1761.25
884.29	1859.56
884.45	1697.77
884.62	1742.82
884.78	1621.99
884.95	1849.32
885.11	1640.42
885.28	1705.96
885.44	1677.29
885.61	1712.10
885.77	1742.82
885.94	1730.53
886.10	1775.59
886.27	1689.57
886.43	1804.26
886.60	1765.35
886.76	1617.90
886.93	1667.05
887.09	1697.77
887.26	1611.75
887.42	1642.47
887.59	1751.01
887.75	1794.02
887.92	1814.50
888.08	1720.29
888.25	1826.79
888.41	1763.30
888.58	1640.42
888.74	1636.33
888.91	1603.56
>>>>>End Processed Spectral Data<<<<<
