SpectraSuite Data File
++++++++++++++++++++++++++++++++++++
Date: Mon Jun 06 17:36:17 CEST 2016
User: root
Dark Spectrum Present: No
Reference Spectrum Present: No
Number of Sampled Component Spectra: 1
Spectrometers: USB4C02835
Integration Time (usec): 100000 (USB4C02835)
Spectra Averaged: 1 (USB4C02835)
Boxcar Smoothing: 0 (USB4C02835)
Correct for Electrical Dark: No (USB4C02835)
Strobe/Lamp Enabled: No (USB4C02835)
Correct for Detector Non-linearity: No (USB4C02835)
Correct for Stray Light: No (USB4C02835)
Number of Pixels in Processed Spectrum: 3648
>>>>>Begin Processed Spectral Data<<<<<
177.47	1495.02
177.69	1495.02
177.91	1495.02
178.13	1480.68
178.36	1443.82
178.58	1648.61
178.80	1789.92
179.02	1599.46
179.24	1642.47
179.46	1677.29
179.68	1740.77
179.90	1734.63
180.13	1775.59
180.35	1634.28
180.57	1689.57
180.79	1720.29
181.01	1736.68
181.23	1785.83
181.45	1884.13
181.67	1712.10
181.90	1812.45
182.12	1671.14
182.34	1742.82
182.56	1761.25
182.78	1718.25
183.00	1746.92
183.22	1685.48
183.44	1662.95
183.66	1890.28
183.89	1771.49
184.11	1724.39
184.33	1783.78
184.55	1759.21
184.77	1720.29
184.99	1718.25
185.21	1710.05
185.43	1937.38
185.65	1640.42
185.87	1769.44
186.10	1794.02
186.32	1839.08
186.54	1755.11
186.76	1695.72
186.98	1738.73
187.20	1693.67
187.42	1656.81
187.64	1718.25
187.86	1726.44
188.08	1787.88
188.30	1665.00
188.52	1701.86
188.75	1671.14
188.97	1796.07
189.19	1669.09
189.41	1615.85
189.63	1765.35
189.85	1701.86
190.07	1595.37
190.29	1648.61
190.51	1757.16
190.73	1640.42
190.95	1855.46
191.17	1671.14
191.39	1638.38
191.61	1665.00
191.84	1748.97
192.06	1740.77
192.28	1597.42
192.50	1920.99
192.72	1763.30
192.94	1615.85
193.16	1794.02
193.38	1777.64
193.60	1585.13
193.82	1732.58
194.04	1769.44
194.26	1767.40
194.48	1738.73
194.70	1740.77
194.92	1697.77
195.14	1789.92
195.36	1693.67
195.58	1683.43
195.80	1667.05
196.02	1665.00
196.24	1697.77
196.46	1732.58
196.69	1656.81
196.91	1822.69
197.13	1708.01
197.35	1677.29
197.57	1777.64
197.79	1757.16
198.01	1791.97
198.23	1837.03
198.45	1769.44
198.67	1685.48
198.89	1689.57
199.11	1642.47
199.33	1658.85
199.55	1560.55
199.77	1667.05
199.99	1779.68
200.21	1736.68
200.43	1746.92
200.65	1751.01
200.87	1667.05
201.09	1732.58
201.31	1665.00
201.53	1763.30
201.75	1755.11
201.97	1640.42
202.19	1734.63
202.41	1775.59
202.63	1816.55
202.85	1687.53
203.07	1753.06
203.29	1697.77
203.51	1693.67
203.73	1718.25
203.95	1873.89
204.17	1765.35
204.39	1769.44
204.61	1753.06
204.83	1732.58
205.05	1730.53
205.27	1757.16
205.49	1789.92
205.71	1724.39
205.93	1701.86
206.15	1687.53
206.37	1691.62
206.59	1742.82
206.81	1681.38
207.03	1726.44
207.25	1621.99
207.47	1714.15
207.69	1734.63
207.91	1896.42
208.13	1802.21
208.34	1746.92
208.56	1662.95
208.78	1736.68
209.00	1738.73
209.22	1636.33
209.44	1734.63
209.66	1656.81
209.88	1701.86
210.10	1697.77
210.32	1701.86
210.54	1775.59
210.76	1705.96
210.98	1794.02
211.20	1679.33
211.42	1751.01
211.64	1730.53
211.86	1748.97
212.08	1697.77
212.30	1746.92
212.52	1751.01
212.74	1685.48
212.96	1740.77
213.17	1751.01
213.39	1728.49
213.61	1816.55
213.83	1708.01
214.05	1660.90
214.27	1740.77
214.49	1613.80
214.71	1619.94
214.93	1724.39
215.15	1767.40
215.37	1740.77
215.59	1632.23
215.81	1740.77
216.03	1806.31
216.24	1722.34
216.46	1708.01
216.68	1742.82
216.90	1765.35
217.12	1787.88
217.34	1746.92
217.56	1708.01
217.78	1804.26
218.00	1771.49
218.22	1765.35
218.44	1763.30
218.66	1718.25
218.87	1705.96
219.09	1593.32
219.31	1748.97
219.53	1703.91
219.75	1646.57
219.97	1726.44
220.19	1767.40
220.41	1652.71
220.63	1718.25
220.85	1744.87
221.06	1705.96
221.28	1884.13
221.50	1714.15
221.72	1673.19
221.94	1660.90
222.16	1738.73
222.38	1679.33
222.60	1738.73
222.82	1722.34
223.03	1734.63
223.25	1697.77
223.47	1703.91
223.69	1853.41
223.91	1742.82
224.13	1677.29
224.35	1740.77
224.57	1734.63
224.78	1779.68
225.00	1658.85
225.22	1652.71
225.44	1746.92
225.66	1685.48
225.88	1775.59
226.10	1724.39
226.32	1769.44
226.53	1746.92
226.75	1722.34
226.97	1710.05
227.19	1767.40
227.41	1765.35
227.63	1695.72
227.85	1667.05
228.06	1759.21
228.28	1685.48
228.50	1781.73
228.72	1669.09
228.94	1673.19
229.16	1597.42
229.37	1644.52
229.59	1675.24
229.81	1742.82
230.03	1685.48
230.25	1578.98
230.47	1708.01
230.69	1640.42
230.90	1787.88
231.12	1693.67
231.34	1751.01
231.56	1736.68
231.78	1578.98
232.00	1665.00
232.21	1693.67
232.43	1613.80
232.65	1652.71
232.87	1728.49
233.09	1693.67
233.30	1626.09
233.52	1785.83
233.74	1667.05
233.96	1740.77
234.18	1806.31
234.40	1677.29
234.61	1855.46
234.83	1671.14
235.05	1595.37
235.27	1882.08
235.49	1757.16
235.70	1669.09
235.92	1791.97
236.14	1732.58
236.36	1894.37
236.58	1589.22
236.79	1787.88
237.01	1660.90
237.23	1697.77
237.45	1810.40
237.67	1728.49
237.88	1685.48
238.10	1851.36
238.32	1652.71
238.54	1685.48
238.76	1712.10
238.97	1673.19
239.19	1677.29
239.41	1755.11
239.63	1818.60
239.85	1726.44
240.06	1730.53
240.28	1755.11
240.50	1687.53
240.72	1703.91
240.93	1699.81
241.15	1769.44
241.37	1687.53
241.59	1787.88
241.81	1683.43
242.02	1714.15
242.24	1824.74
242.46	1712.10
242.68	1660.90
242.89	1779.68
243.11	1746.92
243.33	1675.24
243.55	1701.86
243.76	1820.64
243.98	1683.43
244.20	1728.49
244.42	1769.44
244.64	1716.20
244.85	1658.85
245.07	1689.57
245.29	1720.29
245.51	1671.14
245.72	1683.43
245.94	1748.97
246.16	1681.38
246.38	1767.40
246.59	1673.19
246.81	1732.58
247.03	1748.97
247.24	1583.08
247.46	1644.52
247.68	1732.58
247.90	1673.19
248.11	1689.57
248.33	1789.92
248.55	1714.15
248.77	1722.34
248.98	1777.64
249.20	1789.92
249.42	1769.44
249.64	1773.54
249.85	1738.73
250.07	1728.49
250.29	1732.58
250.50	1779.68
250.72	1611.75
250.94	1789.92
251.16	1845.22
251.37	1761.25
251.59	1742.82
251.81	1675.24
252.02	1794.02
252.24	1728.49
252.46	1718.25
252.68	1673.19
252.89	1693.67
253.11	1660.90
253.33	1851.36
253.54	1834.98
253.76	1695.72
253.98	1701.86
254.20	1724.39
254.41	1683.43
254.63	1744.87
254.85	1585.13
255.06	1669.09
255.28	1783.78
255.50	1701.86
255.71	1683.43
255.93	1665.00
256.15	1689.57
256.36	1748.97
256.58	1673.19
256.80	1724.39
257.02	1703.91
257.23	1662.95
257.45	1765.35
257.67	1808.36
257.88	1705.96
258.10	1759.21
258.32	1665.00
258.53	1779.68
258.75	1804.26
258.97	1716.20
259.18	1716.20
259.40	1771.49
259.62	1837.03
259.83	1763.30
260.05	1712.10
260.27	2013.15
260.48	1841.12
260.70	1730.53
260.92	1681.38
261.13	1689.57
261.35	1624.04
261.57	1722.34
261.78	1642.47
262.00	1687.53
262.22	1796.07
262.43	1701.86
262.65	1685.48
262.86	1736.68
263.08	1851.36
263.30	1720.29
263.51	1593.32
263.73	1714.15
263.95	1804.26
264.16	1726.44
264.38	1722.34
264.60	1771.49
264.81	1791.97
265.03	1740.77
265.25	1759.21
265.46	1708.01
265.68	1734.63
265.89	1726.44
266.11	1689.57
266.33	1767.40
266.54	1736.68
266.76	1714.15
266.98	1796.07
267.19	1802.21
267.41	1828.84
267.62	1736.68
267.84	1611.75
268.06	1806.31
268.27	1761.25
268.49	1783.78
268.70	1761.25
268.92	1775.59
269.14	1669.09
269.35	1609.70
269.57	1755.11
269.79	1748.97
270.00	1687.53
270.22	1808.36
270.43	1665.00
270.65	1662.95
270.87	1738.73
271.08	1714.15
271.30	1796.07
271.51	1705.96
271.73	1763.30
271.95	1738.73
272.16	1757.16
272.38	1722.34
272.59	1726.44
272.81	1724.39
273.02	1712.10
273.24	1800.16
273.46	1763.30
273.67	1673.19
273.89	1722.34
274.10	1611.75
274.32	1728.49
274.54	1748.97
274.75	1824.74
274.97	1689.57
275.18	1777.64
275.40	1738.73
275.61	1683.43
275.83	1779.68
276.05	1617.90
276.26	1615.85
276.48	1710.05
276.69	1693.67
276.91	1638.38
277.12	1832.93
277.34	1755.11
277.55	1806.31
277.77	1712.10
277.99	1656.81
278.20	1501.16
278.42	1648.61
278.63	1667.05
278.85	1619.94
279.06	1697.77
279.28	1773.54
279.49	1714.15
279.71	1763.30
279.93	1681.38
280.14	1748.97
280.36	1673.19
280.57	1812.45
280.79	1736.68
281.00	1603.56
281.22	1679.33
281.43	1728.49
281.65	1673.19
281.86	1681.38
282.08	1662.95
282.29	1787.88
282.51	1615.85
282.73	1601.51
282.94	1634.28
283.16	1714.15
283.37	1816.55
283.59	1751.01
283.80	1783.78
284.02	1726.44
284.23	1669.09
284.45	1617.90
284.66	1677.29
284.88	1652.71
285.09	1732.58
285.31	1742.82
285.52	1748.97
285.74	1619.94
285.95	1734.63
286.17	1740.77
286.38	1861.60
286.60	1734.63
286.81	1714.15
287.03	1683.43
287.24	1742.82
287.46	1716.20
287.67	1728.49
287.89	1804.26
288.10	1716.20
288.32	1687.53
288.53	1861.60
288.75	1671.14
288.96	1773.54
289.18	1738.73
289.39	1736.68
289.61	1787.88
289.82	1837.03
290.04	1800.16
290.25	1730.53
290.47	1732.58
290.68	1705.96
290.90	1775.59
291.11	1650.66
291.33	1763.30
291.54	1730.53
291.76	1617.90
291.97	1763.30
292.18	1677.29
292.40	1710.05
292.61	1710.05
292.83	1834.98
293.04	1726.44
293.26	1708.01
293.47	1705.96
293.69	1628.14
293.90	1746.92
294.12	1806.31
294.33	1757.16
294.55	1703.91
294.76	1804.26
294.97	1757.16
295.19	1820.64
295.40	1667.05
295.62	1746.92
295.83	1794.02
296.05	1591.27
296.26	1718.25
296.48	1687.53
296.69	1800.16
296.90	1724.39
297.12	1777.64
297.33	1722.34
297.55	1675.24
297.76	1734.63
297.98	1796.07
298.19	1718.25
298.41	1726.44
298.62	1675.24
298.83	1767.40
299.05	1720.29
299.26	1714.15
299.48	1708.01
299.69	1687.53
299.90	1763.30
300.12	1722.34
300.33	1804.26
300.55	1798.12
300.76	1734.63
300.98	1755.11
301.19	1785.83
301.40	1742.82
301.62	1654.76
301.83	1783.78
302.05	1796.07
302.26	1640.42
302.47	1755.11
302.69	1691.62
302.90	1705.96
303.12	1624.04
303.33	1763.30
303.54	1824.74
303.76	1658.85
303.97	1732.58
304.19	1765.35
304.40	1654.76
304.61	1734.63
304.83	1837.03
305.04	1865.70
305.26	1648.61
305.47	1718.25
305.68	1755.11
305.90	1681.38
306.11	1738.73
306.33	1718.25
306.54	1716.20
306.75	1685.48
306.97	1650.66
307.18	1705.96
307.39	1701.86
307.61	1751.01
307.82	1744.87
308.04	1722.34
308.25	1687.53
308.46	1812.45
308.68	1701.86
308.89	1673.19
309.10	1779.68
309.32	1751.01
309.53	1716.20
309.74	1697.77
309.96	1712.10
310.17	1775.59
310.39	1673.19
310.60	1812.45
310.81	1734.63
311.03	1658.85
311.24	1742.82
311.45	1638.38
311.67	1841.12
311.88	1755.11
312.09	1662.95
312.31	1687.53
312.52	1656.81
312.73	1736.68
312.95	1673.19
313.16	1697.77
313.37	1810.40
313.59	1751.01
313.80	1726.44
314.01	1773.54
314.23	1675.24
314.44	1748.97
314.65	1665.00
314.87	1667.05
315.08	1644.52
315.29	1753.06
315.51	1587.18
315.72	1644.52
315.93	1814.50
316.15	1796.07
316.36	1675.24
316.57	1626.09
316.79	1796.07
317.00	1681.38
317.21	1757.16
317.43	1638.38
317.64	1683.43
317.85	1650.66
318.07	1779.68
318.28	1665.00
318.49	1875.94
318.70	1933.28
318.92	1787.88
319.13	1939.43
319.34	1904.61
319.56	1830.88
319.77	1779.68
319.98	1724.39
320.20	1767.40
320.41	1722.34
320.62	1732.58
320.83	1693.67
321.05	1865.70
321.26	1791.97
321.47	1673.19
321.69	1816.55
321.90	1621.99
322.11	1705.96
322.32	1732.58
322.54	1746.92
322.75	1718.25
322.96	1847.27
323.18	1646.57
323.39	1675.24
323.60	1660.90
323.81	1785.83
324.03	1603.56
324.24	1755.11
324.45	1705.96
324.66	1669.09
324.88	1751.01
325.09	1806.31
325.30	1722.34
325.52	1746.92
325.73	1724.39
325.94	1703.91
326.15	1605.61
326.37	1630.18
326.58	1765.35
326.79	1769.44
327.00	1695.72
327.22	1734.63
327.43	1673.19
327.64	1681.38
327.85	1726.44
328.07	1757.16
328.28	1798.12
328.49	1626.09
328.70	1658.85
328.92	1785.83
329.13	1669.09
329.34	1820.64
329.55	1822.69
329.76	1773.54
329.98	1615.85
330.19	1757.16
330.40	1712.10
330.61	1734.63
330.83	1781.73
331.04	1695.72
331.25	1765.35
331.46	1744.87
331.68	1626.09
331.89	1845.22
332.10	1720.29
332.31	1652.71
332.52	1671.14
332.74	1773.54
332.95	1640.42
333.16	1687.53
333.37	1757.16
333.58	1767.40
333.80	1734.63
334.01	1675.24
334.22	1703.91
334.43	1742.82
334.64	1708.01
334.86	1652.71
335.07	1703.91
335.28	1800.16
335.49	1658.85
335.70	1834.98
335.92	1765.35
336.13	1839.08
336.34	1722.34
336.55	1689.57
336.76	1753.06
336.98	1570.79
337.19	1761.25
337.40	1871.84
337.61	1808.36
337.82	1724.39
338.04	1763.30
338.25	1632.23
338.46	1705.96
338.67	1710.05
338.88	1677.29
339.09	1699.81
339.31	1654.76
339.52	1648.61
339.73	1746.92
339.94	1785.83
340.15	1824.74
340.36	1632.23
340.58	1767.40
340.79	1679.33
341.00	1830.88
341.21	1665.00
341.42	1855.46
341.63	1708.01
341.85	1775.59
342.06	1671.14
342.27	1691.62
342.48	1759.21
342.69	1656.81
342.90	1791.97
343.12	1765.35
343.33	1648.61
343.54	1701.86
343.75	1775.59
343.96	1701.86
344.17	1730.53
344.38	1722.34
344.60	1722.34
344.81	1644.52
345.02	1685.48
345.23	1724.39
345.44	1796.07
345.65	1759.21
345.86	1738.73
346.07	1675.24
346.29	1710.05
346.50	1695.72
346.71	1742.82
346.92	1820.64
347.13	1806.31
347.34	1785.83
347.55	1705.96
347.76	1785.83
347.98	1583.08
348.19	1677.29
348.40	1775.59
348.61	1699.81
348.82	1796.07
349.03	1714.15
349.24	1673.19
349.45	1800.16
349.66	1716.20
349.88	1650.66
350.09	1697.77
350.30	1826.79
350.51	1765.35
350.72	1738.73
350.93	1652.71
351.14	1701.86
351.35	1753.06
351.56	1714.15
351.77	1753.06
351.99	1736.68
352.20	1804.26
352.41	1726.44
352.62	1621.99
352.83	1685.48
353.04	1714.15
353.25	1742.82
353.46	1751.01
353.67	1761.25
353.88	1609.70
354.09	1722.34
354.30	1718.25
354.52	1755.11
354.73	1720.29
354.94	1748.97
355.15	1710.05
355.36	1849.32
355.57	1642.47
355.78	1734.63
355.99	1681.38
356.20	1687.53
356.41	1826.79
356.62	1748.97
356.83	1714.15
357.04	1767.40
357.25	1687.53
357.46	1693.67
357.68	1642.47
357.89	1703.91
358.10	1679.33
358.31	1697.77
358.52	1720.29
358.73	1644.52
358.94	1626.09
359.15	1658.85
359.36	1759.21
359.57	1671.14
359.78	1714.15
359.99	1781.73
360.20	1689.57
360.41	1685.48
360.62	1730.53
360.83	1693.67
361.04	1712.10
361.25	1791.97
361.46	1818.60
361.67	1828.84
361.88	1822.69
362.09	1710.05
362.30	1785.83
362.51	1685.48
362.72	1681.38
362.93	1759.21
363.14	1765.35
363.35	1761.25
363.56	1675.24
363.78	1759.21
363.99	1751.01
364.20	1654.76
364.41	1652.71
364.62	1828.84
364.83	1669.09
365.04	1718.25
365.25	1675.24
365.46	1888.23
365.67	1652.71
365.88	1685.48
366.09	1660.90
366.30	1701.86
366.51	1730.53
366.72	1683.43
366.93	1691.62
367.14	1759.21
367.35	1869.80
367.56	1734.63
367.77	1816.55
367.98	1738.73
368.18	1742.82
368.39	1771.49
368.60	1626.09
368.81	1810.40
369.02	1722.34
369.23	1689.57
369.44	1662.95
369.65	1644.52
369.86	1699.81
370.07	1804.26
370.28	1634.28
370.49	1660.90
370.70	1687.53
370.91	1701.86
371.12	1646.57
371.33	1773.54
371.54	1683.43
371.75	1855.46
371.96	1599.46
372.17	1751.01
372.38	1710.05
372.59	1757.16
372.80	1708.01
373.01	1699.81
373.22	1730.53
373.43	1818.60
373.64	1636.33
373.85	1781.73
374.06	1738.73
374.26	1695.72
374.47	1714.15
374.68	1804.26
374.89	1691.62
375.10	1705.96
375.31	1744.87
375.52	1714.15
375.73	1732.58
375.94	1656.81
376.15	1822.69
376.36	1726.44
376.57	1691.62
376.78	1675.24
376.99	1726.44
377.20	1720.29
377.40	1667.05
377.61	1828.84
377.82	1636.33
378.03	1841.12
378.24	1732.58
378.45	1789.92
378.66	1683.43
378.87	1558.50
379.08	1617.90
379.29	1720.29
379.50	1804.26
379.71	1701.86
379.91	1773.54
380.12	1722.34
380.33	1681.38
380.54	1728.49
380.75	1710.05
380.96	1667.05
381.17	1826.79
381.38	1726.44
381.59	1691.62
381.80	1796.07
382.00	1898.47
382.21	1818.60
382.42	1763.30
382.63	1871.84
382.84	1802.21
383.05	1806.31
383.26	1808.36
383.47	1779.68
383.68	1775.59
383.88	1746.92
384.09	1705.96
384.30	1826.79
384.51	1718.25
384.72	1693.67
384.93	1609.70
385.14	1802.21
385.35	1812.45
385.55	1626.09
385.76	1759.21
385.97	1693.67
386.18	1591.27
386.39	1695.72
386.60	1708.01
386.81	1736.68
387.02	1730.53
387.22	1748.97
387.43	1828.84
387.64	1837.03
387.85	1818.60
388.06	2181.09
388.27	4149.18
388.48	6840.22
388.68	7974.79
388.89	9588.59
389.10	9572.21
389.31	8396.67
389.52	7671.69
389.73	6731.67
389.93	6154.15
390.14	5846.95
390.35	5179.31
390.56	4589.50
390.77	3829.70
390.98	3082.19
391.18	2478.04
391.39	2160.61
391.60	1927.14
391.81	1816.55
392.02	1652.71
392.23	1791.97
392.43	1763.30
392.64	1751.01
392.85	1736.68
393.06	1820.64
393.27	1751.01
393.47	1722.34
393.68	1736.68
393.89	1673.19
394.10	1861.60
394.31	1699.81
394.52	1628.14
394.72	1607.66
394.93	1853.41
395.14	1648.61
395.35	1728.49
395.56	1689.57
395.76	1755.11
395.97	1843.17
396.18	1902.56
396.39	1843.17
396.60	2021.35
396.80	1851.36
397.01	1923.04
397.22	1810.40
397.43	1873.89
397.64	1759.21
397.84	1771.49
398.05	1947.62
398.26	1742.82
398.47	1763.30
398.67	1875.94
398.88	1757.16
399.09	1753.06
399.30	1636.33
399.51	1650.66
399.71	1695.72
399.92	1710.05
400.13	1734.63
400.34	1720.29
400.54	1804.26
400.75	1822.69
400.96	1714.15
401.17	1787.88
401.37	1781.73
401.58	1740.77
401.79	1796.07
402.00	1888.23
402.21	2035.68
402.41	2023.39
402.62	2025.44
402.83	2076.64
403.04	2013.15
403.24	2103.26
403.45	1943.52
403.66	1959.91
403.87	1953.76
404.07	1871.84
404.28	1914.85
404.49	1904.61
404.70	1765.35
404.90	1728.49
405.11	1763.30
405.32	1791.97
405.52	1683.43
405.73	1671.14
405.94	1671.14
406.15	1748.97
406.35	1746.92
406.56	1656.81
406.77	1701.86
406.98	1681.38
407.18	1683.43
407.39	1830.88
407.60	1714.15
407.80	1779.68
408.01	1701.86
408.22	1708.01
408.43	1656.81
408.63	1738.73
408.84	1761.25
409.05	1798.12
409.25	1695.72
409.46	1617.90
409.67	1767.40
409.88	1722.34
410.08	1800.16
410.29	1703.91
410.50	1755.11
410.70	1773.54
410.91	1722.34
411.12	1759.21
411.32	1728.49
411.53	1681.38
411.74	1808.36
411.95	1816.55
412.15	1804.26
412.36	1830.88
412.57	1820.64
412.77	1820.64
412.98	1703.91
413.19	1726.44
413.39	1767.40
413.60	1728.49
413.81	1771.49
414.01	1660.90
414.22	1789.92
414.43	1861.60
414.63	1667.05
414.84	1757.16
415.05	1804.26
415.25	1630.18
415.46	1746.92
415.67	1718.25
415.87	1771.49
416.08	1636.33
416.29	1662.95
416.49	1759.21
416.70	1693.67
416.91	1701.86
417.11	1796.07
417.32	1722.34
417.53	1800.16
417.73	1759.21
417.94	1755.11
418.15	1771.49
418.35	1699.81
418.56	1712.10
418.77	1771.49
418.97	1693.67
419.18	1761.25
419.38	1628.14
419.59	1734.63
419.80	1849.32
420.00	1722.34
420.21	1728.49
420.42	1820.64
420.62	1753.06
420.83	1708.01
421.04	1712.10
421.24	1697.77
421.45	1718.25
421.65	1738.73
421.86	1718.25
422.07	1773.54
422.27	1773.54
422.48	1703.91
422.69	1630.18
422.89	1708.01
423.10	1740.77
423.30	1665.00
423.51	1783.78
423.72	1763.30
423.92	1755.11
424.13	1675.24
424.33	1728.49
424.54	1832.93
424.75	1658.85
424.95	1859.56
425.16	1705.96
425.36	1722.34
425.57	1785.83
425.78	1705.96
425.98	1845.22
426.19	1722.34
426.39	1632.23
426.60	1767.40
426.81	1732.58
427.01	1800.16
427.22	1734.63
427.42	1636.33
427.63	1654.76
427.83	1763.30
428.04	1920.99
428.25	1757.16
428.45	1791.97
428.66	1734.63
428.86	1722.34
429.07	1761.25
429.28	1781.73
429.48	1748.97
429.69	1642.47
429.89	1771.49
430.10	1673.19
430.30	1742.82
430.51	1834.98
430.71	1712.10
430.92	1730.53
431.13	1734.63
431.33	1783.78
431.54	1734.63
431.74	1738.73
431.95	1849.32
432.15	1615.85
432.36	1736.68
432.56	1751.01
432.77	1757.16
432.98	1873.89
433.18	1759.21
433.39	1681.38
433.59	1787.88
433.80	1787.88
434.00	1869.80
434.21	1716.20
434.41	1701.86
434.62	1859.56
434.82	1705.96
435.03	1626.09
435.23	1785.83
435.44	1601.51
435.64	1738.73
435.85	1763.30
436.06	1818.60
436.26	1810.40
436.47	1716.20
436.67	1673.19
436.88	1746.92
437.08	1787.88
437.29	1794.02
437.49	1691.62
437.70	1748.97
437.90	1714.15
438.11	1865.70
438.31	1773.54
438.52	1824.74
438.72	1861.60
438.93	1890.28
439.13	1847.27
439.34	1832.93
439.54	1767.40
439.75	1753.06
439.95	1851.36
440.16	1751.01
440.36	1798.12
440.57	1787.88
440.77	1853.41
440.98	1742.82
441.18	1789.92
441.39	1742.82
441.59	1701.86
441.80	1855.46
442.00	1724.39
442.21	1863.65
442.41	1730.53
442.62	1751.01
442.82	1644.52
443.02	1656.81
443.23	1708.01
443.43	1705.96
443.64	1767.40
443.84	1701.86
444.05	1832.93
444.25	1832.93
444.46	1722.34
444.66	1736.68
444.87	1871.84
445.07	1648.61
445.28	1810.40
445.48	1800.16
445.69	1763.30
445.89	1884.13
446.09	1742.82
446.30	2031.58
446.50	2680.79
446.71	3780.55
446.91	4376.51
447.12	4712.38
447.32	4794.29
447.53	4417.47
447.73	3837.89
447.93	3504.07
448.14	3387.34
448.34	3178.45
448.55	3008.47
448.75	2854.87
448.96	2707.41
449.16	2387.93
449.36	2230.24
449.57	2078.69
449.77	1896.42
449.98	1820.64
450.18	1861.60
450.39	1845.22
450.59	1783.78
450.79	1794.02
451.00	1779.68
451.20	1779.68
451.41	1703.91
451.61	1748.97
451.81	1742.82
452.02	1722.34
452.22	1714.15
452.43	1656.81
452.63	1665.00
452.84	1771.49
453.04	1771.49
453.24	1703.91
453.45	1699.81
453.65	1667.05
453.86	1779.68
454.06	1791.97
454.26	1753.06
454.47	1771.49
454.67	1785.83
454.87	1697.77
455.08	1816.55
455.28	1865.70
455.49	1771.49
455.69	1669.09
455.89	1939.43
456.10	1865.70
456.30	1669.09
456.51	1738.73
456.71	1781.73
456.91	1740.77
457.12	1769.44
457.32	1779.68
457.52	1673.19
457.73	1826.79
457.93	1822.69
458.14	1718.25
458.34	1697.77
458.54	1718.25
458.75	1755.11
458.95	1789.92
459.15	1738.73
459.36	1728.49
459.56	1779.68
459.76	1861.60
459.97	1783.78
460.17	1748.97
460.37	1783.78
460.58	1710.05
460.78	1785.83
460.99	1669.09
461.19	1644.52
461.39	1695.72
461.60	1763.30
461.80	1828.84
462.00	1656.81
462.21	1744.87
462.41	1712.10
462.61	1689.57
462.82	1689.57
463.02	1693.67
463.22	1736.68
463.43	1765.35
463.63	1724.39
463.83	1920.99
464.04	1777.64
464.24	1767.40
464.44	1718.25
464.64	1683.43
464.85	1779.68
465.05	1742.82
465.25	1763.30
465.46	1755.11
465.66	1726.44
465.86	1783.78
466.07	1718.25
466.27	1708.01
466.47	1669.09
466.68	1705.96
466.88	1918.95
467.08	1818.60
467.29	1822.69
467.49	1697.77
467.69	1791.97
467.89	1816.55
468.10	1740.77
468.30	1791.97
468.50	1765.35
468.71	1759.21
468.91	1679.33
469.11	1884.13
469.31	1804.26
469.52	1673.19
469.72	1865.70
469.92	1832.93
470.13	1757.16
470.33	1734.63
470.53	1880.04
470.73	2072.54
470.94	2310.11
471.14	2416.60
471.34	2635.74
471.54	2469.85
471.75	2250.72
471.95	2129.89
472.15	2011.11
472.36	2129.89
472.56	2013.15
472.76	1980.39
472.96	2054.11
473.17	1955.81
473.37	1980.39
473.57	1849.32
473.77	1804.26
473.98	1804.26
474.18	1710.05
474.38	1941.47
474.58	1665.00
474.79	1667.05
474.99	1816.55
475.19	1753.06
475.39	1708.01
475.60	1783.78
475.80	1765.35
476.00	1753.06
476.20	1789.92
476.41	1722.34
476.61	1830.88
476.81	1802.21
477.01	1728.49
477.21	1908.71
477.42	1775.59
477.62	1689.57
477.82	1742.82
478.02	1683.43
478.23	1718.25
478.43	1701.86
478.63	1701.86
478.83	1716.20
479.03	1755.11
479.24	1712.10
479.44	1863.65
479.64	1720.29
479.84	1640.42
480.04	1703.91
480.25	1751.01
480.45	1767.40
480.65	1726.44
480.85	1810.40
481.06	1740.77
481.26	1814.50
481.46	1689.57
481.66	1757.16
481.86	1724.39
482.06	1789.92
482.27	1722.34
482.47	1660.90
482.67	1759.21
482.87	1746.92
483.07	1806.31
483.28	1705.96
483.48	1687.53
483.68	1671.14
483.88	1646.57
484.08	1652.71
484.29	1593.32
484.49	1744.87
484.69	1617.90
484.89	1812.45
485.09	1742.82
485.29	1787.88
485.50	1800.16
485.70	1703.91
485.90	1755.11
486.10	1814.50
486.30	1783.78
486.50	1738.73
486.71	1812.45
486.91	1787.88
487.11	1751.01
487.31	1675.24
487.51	1804.26
487.71	1755.11
487.91	1683.43
488.12	1669.09
488.32	1583.08
488.52	1693.67
488.72	1587.18
488.92	1662.95
489.12	1724.39
489.32	1800.16
489.53	1789.92
489.73	1724.39
489.93	1751.01
490.13	1689.57
490.33	1611.75
490.53	1767.40
490.73	1781.73
490.94	1722.34
491.14	1804.26
491.34	1824.74
491.54	2105.31
491.74	2623.45
491.94	2934.74
492.14	3096.53
492.34	2936.79
492.54	2775.00
492.75	2574.30
492.95	2519.00
493.15	2320.35
493.35	2252.77
493.55	2265.05
493.75	2242.53
493.95	2097.12
494.15	1918.95
494.35	1908.71
494.56	1894.37
494.76	1828.84
494.96	1769.44
495.16	1781.73
495.36	1710.05
495.56	1763.30
495.76	1791.97
495.96	1753.06
496.16	1738.73
496.36	1763.30
496.56	1714.15
496.77	1744.87
496.97	1640.42
497.17	1834.98
497.37	1693.67
497.57	1789.92
497.77	1744.87
497.97	1708.01
498.17	1697.77
498.37	1751.01
498.57	1837.03
498.77	1714.15
498.97	1763.30
499.17	1861.60
499.38	1673.19
499.58	1796.07
499.78	1880.04
499.98	1814.50
500.18	1763.30
500.38	1679.33
500.58	1957.86
500.78	2570.20
500.98	4421.56
501.18	5715.88
501.38	6901.65
501.58	7145.36
501.78	6530.97
501.98	5638.06
502.18	5023.67
502.38	4392.89
502.58	4097.99
502.78	3817.41
502.98	3749.83
503.18	3510.22
503.38	3164.11
503.59	2904.02
503.79	2574.30
503.99	2400.22
504.19	2316.25
504.39	2263.01
504.59	2191.33
504.79	2193.37
504.99	2148.32
505.19	1869.80
505.39	1886.18
505.59	2009.06
505.79	1900.52
505.99	1961.95
506.19	1787.88
506.39	1859.56
506.59	1796.07
506.79	1837.03
506.99	1810.40
507.19	1763.30
507.39	1755.11
507.59	1669.09
507.79	1755.11
507.99	1669.09
508.19	1761.25
508.39	1748.97
508.59	1751.01
508.79	1820.64
508.99	1841.12
509.19	1775.59
509.39	1804.26
509.59	1816.55
509.79	1716.20
509.99	1791.97
510.19	1751.01
510.39	1812.45
510.59	1712.10
510.79	1714.15
510.99	1619.94
511.19	1767.40
511.39	1830.88
511.59	1796.07
511.79	1775.59
511.99	1767.40
512.19	1837.03
512.38	1771.49
512.58	1744.87
512.78	1775.59
512.98	1806.31
513.18	1857.51
513.38	1656.81
513.58	1832.93
513.78	1720.29
513.98	1763.30
514.18	1714.15
514.38	1722.34
514.58	1742.82
514.78	1689.57
514.98	1777.64
515.18	1744.87
515.38	1695.72
515.58	1789.92
515.78	1619.94
515.98	1748.97
516.18	1708.01
516.38	1781.73
516.57	1695.72
516.77	1722.34
516.97	1728.49
517.17	1728.49
517.37	1617.90
517.57	1767.40
517.77	1800.16
517.97	1705.96
518.17	1804.26
518.37	1632.23
518.57	1689.57
518.77	1734.63
518.97	1685.48
519.16	1753.06
519.36	1787.88
519.56	1693.67
519.76	1722.34
519.96	1789.92
520.16	1789.92
520.36	1665.00
520.56	1818.60
520.76	1728.49
520.96	1693.67
521.16	1773.54
521.35	1798.12
521.55	1818.60
521.75	1837.03
521.95	1740.77
522.15	1775.59
522.35	1634.28
522.55	1685.48
522.75	1859.56
522.95	1693.67
523.14	1753.06
523.34	1705.96
523.54	1640.42
523.74	1777.64
523.94	1748.97
524.14	1718.25
524.34	1773.54
524.54	1849.32
524.73	1746.92
524.93	1742.82
525.13	1660.90
525.33	1689.57
525.53	1845.22
525.73	1791.97
525.93	1800.16
526.13	1773.54
526.32	1679.33
526.52	1837.03
526.72	1787.88
526.92	1720.29
527.12	1763.30
527.32	1581.03
527.52	1726.44
527.71	1849.32
527.91	1701.86
528.11	1771.49
528.31	1710.05
528.51	1640.42
528.71	1761.25
528.90	1824.74
529.10	1789.92
529.30	1808.36
529.50	1673.19
529.70	1759.21
529.90	1763.30
530.09	1808.36
530.29	1695.72
530.49	1705.96
530.69	1855.46
530.89	1753.06
531.09	1812.45
531.28	1710.05
531.48	1826.79
531.68	1748.97
531.88	1834.98
532.08	1787.88
532.28	1687.53
532.47	1759.21
532.67	1849.32
532.87	1773.54
533.07	1718.25
533.27	1808.36
533.46	1808.36
533.66	1697.77
533.86	1771.49
534.06	1705.96
534.26	1699.81
534.45	1767.40
534.65	1779.68
534.85	1705.96
535.05	1699.81
535.25	1791.97
535.44	1669.09
535.64	1718.25
535.84	1738.73
536.04	1744.87
536.24	1716.20
536.43	1626.09
536.63	1810.40
536.83	1712.10
537.03	1753.06
537.22	1617.90
537.42	1691.62
537.62	1759.21
537.82	1718.25
538.02	1806.31
538.21	1902.56
538.41	1947.62
538.61	1740.77
538.81	1714.15
539.00	1798.12
539.20	1662.95
539.40	1714.15
539.60	1789.92
539.79	1767.40
539.99	1708.01
540.19	1689.57
540.39	1718.25
540.58	1734.63
540.78	1822.69
540.98	1791.97
541.18	1800.16
541.37	1851.36
541.57	1763.30
541.77	1746.92
541.97	1634.28
542.16	1640.42
542.36	1738.73
542.56	1849.32
542.76	1810.40
542.95	1763.30
543.15	1726.44
543.35	1751.01
543.54	1679.33
543.74	1722.34
543.94	1820.64
544.14	1687.53
544.33	1710.05
544.53	1714.15
544.73	1712.10
544.93	1734.63
545.12	1775.59
545.32	1761.25
545.52	1740.77
545.71	1673.19
545.91	1722.34
546.11	1691.62
546.30	1712.10
546.50	1763.30
546.70	1808.36
546.90	1804.26
547.09	1646.57
547.29	1738.73
547.49	1724.39
547.68	1755.11
547.88	1652.71
548.08	1775.59
548.27	2101.22
548.47	1798.12
548.67	1720.29
548.87	1761.25
549.06	1757.16
549.26	1843.17
549.46	1783.78
549.65	1689.57
549.85	1804.26
550.05	1791.97
550.24	1638.38
550.44	1775.59
550.64	1779.68
550.83	1777.64
551.03	1822.69
551.23	1818.60
551.42	1816.55
551.62	1763.30
551.82	1757.16
552.01	1773.54
552.21	1726.44
552.41	1777.64
552.60	1773.54
552.80	1740.77
553.00	1646.57
553.19	1742.82
553.39	1890.28
553.59	1656.81
553.78	1781.73
553.98	1767.40
554.17	1705.96
554.37	1746.92
554.57	1812.45
554.76	1697.77
554.96	1759.21
555.16	1800.16
555.35	1710.05
555.55	1751.01
555.75	1800.16
555.94	1767.40
556.14	1673.19
556.33	1757.16
556.53	1759.21
556.73	1722.34
556.92	1761.25
557.12	1847.27
557.32	1865.70
557.51	1873.89
557.71	1730.53
557.90	1812.45
558.10	1798.12
558.30	1699.81
558.49	1759.21
558.69	1708.01
558.88	1865.70
559.08	1798.12
559.28	1814.50
559.47	1765.35
559.67	1824.74
559.86	1945.57
560.06	1791.97
560.26	1834.98
560.45	1775.59
560.65	1710.05
560.84	1861.60
561.04	1742.82
561.24	1779.68
561.43	1728.49
561.63	1880.04
561.82	1804.26
562.02	1794.02
562.22	1771.49
562.41	1673.19
562.61	1804.26
562.80	1689.57
563.00	1910.75
563.19	1812.45
563.39	1787.88
563.59	1798.12
563.78	1677.29
563.98	1624.04
564.17	1712.10
564.37	1701.86
564.56	1677.29
564.76	1677.29
564.96	1851.36
565.15	1865.70
565.35	1851.36
565.54	1703.91
565.74	1896.42
565.93	1775.59
566.13	1763.30
566.32	1720.29
566.52	1757.16
566.71	1779.68
566.91	1834.98
567.11	1763.30
567.30	1693.67
567.50	1759.21
567.69	1828.84
567.89	1759.21
568.08	1642.47
568.28	1746.92
568.47	1726.44
568.67	1763.30
568.86	1646.57
569.06	1767.40
569.25	1675.24
569.45	1693.67
569.64	1773.54
569.84	1751.01
570.04	1722.34
570.23	1746.92
570.43	1714.15
570.62	1791.97
570.82	1832.93
571.01	1746.92
571.21	1681.38
571.40	1660.90
571.60	1759.21
571.79	1798.12
571.99	1781.73
572.18	1716.20
572.38	1810.40
572.57	1773.54
572.77	1759.21
572.96	1877.99
573.16	1802.21
573.35	1708.01
573.55	1816.55
573.74	1748.97
573.94	1765.35
574.13	1744.87
574.33	1824.74
574.52	1808.36
574.71	1736.68
574.91	1781.73
575.10	1656.81
575.30	1800.16
575.49	1703.91
575.69	1693.67
575.88	1781.73
576.08	1720.29
576.27	1806.31
576.47	1705.96
576.66	1847.27
576.86	1820.64
577.05	1822.69
577.25	1834.98
577.44	1841.12
577.64	1755.11
577.83	1785.83
578.02	1677.29
578.22	1853.41
578.41	1902.56
578.61	1775.59
578.80	1705.96
579.00	1794.02
579.19	1787.88
579.39	1896.42
579.58	1775.59
579.77	1712.10
579.97	1849.32
580.16	1812.45
580.36	1869.80
580.55	1828.84
580.75	1816.55
580.94	1759.21
581.13	1796.07
581.33	1877.99
581.52	1746.92
581.72	1853.41
581.91	1920.99
582.11	1724.39
582.30	1822.69
582.49	1755.11
582.69	1912.80
582.88	1812.45
583.08	1800.16
583.27	1828.84
583.47	1779.68
583.66	1740.77
583.85	1699.81
584.05	1787.88
584.24	1802.21
584.44	1863.65
584.63	1845.22
584.82	1828.84
585.02	1751.01
585.21	1785.83
585.41	1857.51
585.60	1824.74
585.79	1939.43
585.99	1916.90
586.18	1859.56
586.37	2197.47
586.57	3446.73
586.76	9987.94
586.96	23881.36
587.15	33652.22
587.34	39554.47
587.54	41229.71
587.73	35788.25
587.93	25806.45
588.12	21477.05
588.31	17862.38
588.51	16023.31
588.70	14929.69
588.89	13715.25
589.09	12508.99
589.28	10874.71
589.47	9262.96
589.67	7903.11
589.86	6309.79
590.06	4775.86
590.25	3872.71
590.44	3049.43
590.64	2549.72
590.83	2291.68
591.02	2138.08
591.22	2045.92
591.41	1871.84
591.60	1904.61
591.80	1941.47
591.99	1789.92
592.18	1822.69
592.38	1867.75
592.57	1738.73
592.76	1767.40
592.96	1828.84
593.15	1744.87
593.34	1832.93
593.54	1828.84
593.73	1748.97
593.92	1794.02
594.12	1746.92
594.31	1734.63
594.50	1820.64
594.70	1834.98
594.89	2002.91
595.08	1728.49
595.28	1789.92
595.47	1992.67
595.66	1847.27
595.86	1712.10
596.05	1824.74
596.24	1689.57
596.43	1832.93
596.63	1843.17
596.82	1816.55
597.01	1720.29
597.21	1818.60
597.40	1800.16
597.59	1742.82
597.79	1738.73
597.98	1820.64
598.17	1757.16
598.36	1800.16
598.56	1738.73
598.75	1755.11
598.94	1753.06
599.14	1787.88
599.33	1730.53
599.52	1759.21
599.71	1769.44
599.91	1751.01
600.10	1802.21
600.29	1744.87
600.48	1845.22
600.68	1683.43
600.87	1787.88
601.06	1691.62
601.26	1681.38
601.45	1791.97
601.64	1705.96
601.83	1781.73
602.03	1804.26
602.22	1665.00
602.41	1765.35
602.60	1812.45
602.80	1863.65
602.99	1759.21
603.18	1820.64
603.37	1824.74
603.57	1818.60
603.76	1806.31
603.95	1796.07
604.14	1730.53
604.34	1636.33
604.53	1734.63
604.72	1826.79
604.91	1800.16
605.10	1841.12
605.30	1658.85
605.49	1865.70
605.68	1812.45
605.87	1763.30
606.07	1708.01
606.26	1789.92
606.45	1771.49
606.64	1855.46
606.84	1679.33
607.03	1697.77
607.22	1804.26
607.41	1726.44
607.60	1742.82
607.80	1849.32
607.99	1740.77
608.18	1759.21
608.37	1746.92
608.56	1699.81
608.76	1775.59
608.95	1837.03
609.14	1730.53
609.33	1789.92
609.52	1763.30
609.72	1820.64
609.91	1888.23
610.10	1744.87
610.29	1832.93
610.48	1730.53
610.68	1787.88
610.87	1712.10
611.06	1830.88
611.25	1730.53
611.44	1798.12
611.63	1673.19
611.83	1847.27
612.02	1712.10
612.21	1855.46
612.40	1619.94
612.59	1722.34
612.79	1619.94
612.98	1783.78
613.17	1802.21
613.36	1755.11
613.55	1834.98
613.74	1650.66
613.93	1720.29
614.13	1732.58
614.32	1812.45
614.51	1753.06
614.70	1703.91
614.89	1669.09
615.08	1724.39
615.28	2111.46
615.47	1646.57
615.66	1777.64
615.85	1734.63
616.04	1845.22
616.23	1814.50
616.42	1722.34
616.62	1697.77
616.81	1755.11
617.00	1726.44
617.19	1798.12
617.38	1591.27
617.57	1730.53
617.76	1771.49
617.95	1818.60
618.15	1746.92
618.34	1953.76
618.53	1716.20
618.72	1843.17
618.91	1834.98
619.10	1785.83
619.29	1742.82
619.48	1777.64
619.68	1669.09
619.87	1726.44
620.06	1665.00
620.25	1787.88
620.44	1734.63
620.63	1746.92
620.82	1744.87
621.01	1753.06
621.20	1806.31
621.39	1701.86
621.59	1812.45
621.78	1718.25
621.97	1761.25
622.16	1759.21
622.35	1677.29
622.54	1802.21
622.73	1789.92
622.92	1634.28
623.11	1791.97
623.30	1736.68
623.49	1771.49
623.68	1689.57
623.88	1826.79
624.07	1722.34
624.26	1738.73
624.45	1697.77
624.64	1746.92
624.83	1755.11
625.02	1738.73
625.21	1671.14
625.40	1783.78
625.59	1785.83
625.78	1701.86
625.97	1869.80
626.16	1726.44
626.35	1748.97
626.54	1705.96
626.74	1861.60
626.93	1771.49
627.12	1740.77
627.31	1828.84
627.50	1794.02
627.69	1822.69
627.88	1685.48
628.07	1755.11
628.26	1648.61
628.45	1728.49
628.64	1679.33
628.83	1738.73
629.02	1748.97
629.21	1822.69
629.40	1691.62
629.59	1701.86
629.78	1767.40
629.97	1667.05
630.16	1695.72
630.35	1697.77
630.54	1671.14
630.73	1783.78
630.92	1701.86
631.11	1708.01
631.30	1730.53
631.49	1779.68
631.68	1759.21
631.87	1781.73
632.06	1685.48
632.25	1890.28
632.44	1732.58
632.63	1730.53
632.82	1660.90
633.01	1705.96
633.20	1714.15
633.39	1642.47
633.58	1658.85
633.77	1746.92
633.96	1730.53
634.15	1824.74
634.34	1683.43
634.53	1791.97
634.72	1724.39
634.91	1689.57
635.10	1716.20
635.29	1755.11
635.48	1746.92
635.67	1740.77
635.86	1720.29
636.05	1814.50
636.24	1705.96
636.43	1681.38
636.62	1751.01
636.81	1642.47
637.00	1755.11
637.19	1843.17
637.38	1740.77
637.57	1708.01
637.76	1791.97
637.95	1701.86
638.14	1753.06
638.33	1789.92
638.52	1716.20
638.71	1667.05
638.89	1648.61
639.08	1869.80
639.27	1789.92
639.46	1667.05
639.65	1773.54
639.84	1746.92
640.03	1765.35
640.22	1763.30
640.41	1871.84
640.60	1716.20
640.79	1718.25
640.98	1683.43
641.17	1834.98
641.36	1746.92
641.55	1744.87
641.74	1654.76
641.92	1624.04
642.11	1716.20
642.30	1679.33
642.49	1726.44
642.68	1675.24
642.87	1740.77
643.06	1724.39
643.25	1658.85
643.44	1673.19
643.63	1683.43
643.82	1716.20
644.00	1646.57
644.19	1675.24
644.38	1660.90
644.57	1718.25
644.76	1689.57
644.95	1710.05
645.14	1789.92
645.33	1730.53
645.52	1695.72
645.71	1683.43
645.89	1685.48
646.08	1693.67
646.27	1736.68
646.46	1851.36
646.65	1675.24
646.84	1718.25
647.03	1800.16
647.22	1810.40
647.40	1775.59
647.59	1697.77
647.78	1675.24
647.97	1691.62
648.16	1646.57
648.35	1820.64
648.54	1845.22
648.73	1693.67
648.91	1755.11
649.10	1740.77
649.29	1683.43
649.48	1738.73
649.67	1718.25
649.86	1703.91
650.05	1681.38
650.23	1730.53
650.42	1736.68
650.61	1763.30
650.80	1814.50
650.99	1785.83
651.18	1732.58
651.36	1806.31
651.55	1669.09
651.74	1746.92
651.93	1687.53
652.12	1712.10
652.31	1638.38
652.49	1755.11
652.68	1693.67
652.87	1849.32
653.06	1720.29
653.25	1822.69
653.44	1632.23
653.62	1859.56
653.81	1710.05
654.00	1759.21
654.19	1761.25
654.38	1859.56
654.56	1751.01
654.75	1697.77
654.94	1740.77
655.13	1736.68
655.32	1734.63
655.51	1771.49
655.69	1675.24
655.88	1775.59
656.07	1718.25
656.26	1765.35
656.45	1683.43
656.63	1718.25
656.82	1771.49
657.01	1765.35
657.20	1728.49
657.38	1794.02
657.57	1730.53
657.76	1697.77
657.95	1755.11
658.14	1753.06
658.32	1669.09
658.51	1687.53
658.70	1685.48
658.89	1759.21
659.08	1726.44
659.26	1830.88
659.45	1660.90
659.64	1740.77
659.83	1675.24
660.01	1849.32
660.20	1773.54
660.39	1826.79
660.58	1624.04
660.76	1722.34
660.95	1714.15
661.14	1789.92
661.33	1710.05
661.51	1710.05
661.70	1781.73
661.89	1703.91
662.08	1779.68
662.26	1667.05
662.45	1669.09
662.64	1847.27
662.83	1777.64
663.01	1673.19
663.20	1746.92
663.39	1851.36
663.58	1716.20
663.76	1755.11
663.95	1765.35
664.14	1634.28
664.32	1720.29
664.51	1683.43
664.70	1685.48
664.89	1742.82
665.07	1662.95
665.26	1849.32
665.45	1699.81
665.64	1845.22
665.82	1806.31
666.01	1785.83
666.20	1722.34
666.38	1847.27
666.57	1767.40
666.76	2254.81
666.95	4618.17
667.13	10483.55
667.32	15122.20
667.51	17909.49
667.69	18990.81
667.88	17647.35
668.07	12281.67
668.25	9572.21
668.44	8138.63
668.63	7333.78
668.81	6795.16
669.00	6193.06
669.19	5814.18
669.38	5091.25
669.56	4564.92
669.75	4016.07
669.94	3475.40
670.12	2959.31
670.31	2432.99
670.50	2336.73
670.68	1982.43
670.87	1918.95
671.06	1837.03
671.24	1746.92
671.43	1849.32
671.62	1734.63
671.80	1736.68
671.99	1828.84
672.18	1748.97
672.36	1794.02
672.55	1759.21
672.74	1636.33
672.92	1677.29
673.11	1771.49
673.29	1742.82
673.48	1877.99
673.67	1755.11
673.85	1877.99
674.04	1673.19
674.23	1814.50
674.41	1787.88
674.60	1673.19
674.79	1648.61
674.97	1683.43
675.16	1814.50
675.34	1783.78
675.53	1595.37
675.72	1796.07
675.90	1816.55
676.09	1779.68
676.28	1751.01
676.46	1642.47
676.65	1796.07
676.83	1634.28
677.02	1816.55
677.21	1634.28
677.39	1732.58
677.58	1718.25
677.77	1705.96
677.95	1718.25
678.14	1716.20
678.32	1744.87
678.51	1677.29
678.70	1890.28
678.88	1665.00
679.07	1736.68
679.25	1746.92
679.44	1714.15
679.63	1687.53
679.81	1806.31
680.00	1814.50
680.18	1748.97
680.37	1796.07
680.55	1732.58
680.74	1689.57
680.93	1732.58
681.11	1773.54
681.30	1751.01
681.48	1738.73
681.67	1705.96
681.85	1660.90
682.04	1652.71
682.23	1665.00
682.41	1685.48
682.60	1652.71
682.78	1748.97
682.97	1671.14
683.15	1699.81
683.34	1734.63
683.53	1802.21
683.71	1665.00
683.90	1853.41
684.08	1798.12
684.27	1640.42
684.45	1738.73
684.64	1767.40
684.82	1712.10
685.01	1771.49
685.19	1718.25
685.38	1837.03
685.57	1802.21
685.75	1638.38
685.94	1734.63
686.12	1761.25
686.31	1695.72
686.49	1738.73
686.68	1681.38
686.86	1853.41
687.05	1660.90
687.23	1751.01
687.42	1755.11
687.60	1665.00
687.79	1804.26
687.97	1783.78
688.16	1800.16
688.34	1738.73
688.53	1609.70
688.71	1693.67
688.90	1822.69
689.08	1689.57
689.27	1669.09
689.45	1816.55
689.64	1847.27
689.82	1791.97
690.01	1740.77
690.19	1728.49
690.38	1675.24
690.56	1845.22
690.75	1683.43
690.93	1644.52
691.12	1638.38
691.30	1693.67
691.49	1685.48
691.67	1726.44
691.86	1871.84
692.04	1705.96
692.23	1679.33
692.41	1683.43
692.60	1818.60
692.78	1808.36
692.97	1716.20
693.15	1730.53
693.34	1865.70
693.52	1785.83
693.71	1753.06
693.89	1671.14
694.08	1656.81
694.26	1732.58
694.44	1791.97
694.63	1705.96
694.81	1660.90
695.00	1621.99
695.18	1775.59
695.37	1775.59
695.55	1681.38
695.74	1722.34
695.92	1691.62
696.10	1734.63
696.29	1632.23
696.47	1675.24
696.66	1712.10
696.84	1587.18
697.03	1714.15
697.21	1871.84
697.40	2316.25
697.58	1785.83
697.76	1677.29
697.95	1665.00
698.13	1677.29
698.32	1675.24
698.50	1740.77
698.68	1697.77
698.87	1671.14
699.05	1740.77
699.24	1730.53
699.42	1730.53
699.61	1755.11
699.79	1722.34
699.97	1806.31
700.16	1705.96
700.34	1658.85
700.53	1753.06
700.71	1779.68
700.89	1845.22
701.08	1720.29
701.26	1675.24
701.45	2209.76
701.63	1615.85
701.81	1738.73
702.00	1593.32
702.18	1689.57
702.37	1644.52
702.55	1773.54
702.73	1640.42
702.92	1665.00
703.10	1734.63
703.28	1742.82
703.47	1714.15
703.65	1773.54
703.84	1839.08
704.02	1685.48
704.20	1781.73
704.39	1697.77
704.57	1748.97
704.75	1814.50
704.94	1757.16
705.12	1710.05
705.30	1763.30
705.49	2207.71
705.67	4626.36
705.86	9389.94
706.04	12490.56
706.22	14135.08
706.41	14991.13
706.59	13512.50
706.77	9293.68
706.96	7245.71
707.14	6393.76
707.32	5787.56
707.51	5386.16
707.69	4847.54
707.87	4173.76
708.06	3569.61
708.24	2916.31
708.42	2363.36
708.61	2238.43
708.79	1927.14
708.97	1912.80
709.16	1822.69
709.34	1755.11
709.52	1753.06
709.71	1660.90
709.89	1746.92
710.07	1679.33
710.26	1652.71
710.44	1730.53
710.62	1742.82
710.80	1710.05
710.99	1654.76
711.17	1767.40
711.35	1695.72
711.54	1714.15
711.72	1771.49
711.90	1769.44
712.09	1695.72
712.27	1591.27
712.45	1677.29
712.63	1710.05
712.82	1789.92
713.00	1648.61
713.18	1742.82
713.37	1757.16
713.55	1738.73
713.73	1714.15
713.91	1775.59
714.10	1769.44
714.28	1808.36
714.46	1710.05
714.65	1816.55
714.83	1755.11
715.01	1671.14
715.19	1724.39
715.38	1734.63
715.56	1742.82
715.74	1697.77
715.92	1746.92
716.11	1814.50
716.29	1624.04
716.47	1742.82
716.65	1724.39
716.84	1607.66
717.02	1787.88
717.20	1570.79
717.38	1677.29
717.57	1740.77
717.75	1703.91
717.93	1634.28
718.11	1744.87
718.30	1701.86
718.48	1826.79
718.66	1816.55
718.84	1824.74
719.03	1748.97
719.21	1624.04
719.39	1824.74
719.57	1755.11
719.75	1738.73
719.94	1728.49
720.12	1667.05
720.30	1755.11
720.48	1769.44
720.67	1730.53
720.85	1650.66
721.03	1722.34
721.21	1675.24
721.39	1826.79
721.58	1761.25
721.76	1693.67
721.94	1767.40
722.12	1730.53
722.30	1873.89
722.49	1699.81
722.67	1775.59
722.85	1746.92
723.03	1632.23
723.21	1654.76
723.40	1738.73
723.58	1822.69
723.76	1738.73
723.94	1712.10
724.12	1804.26
724.30	1806.31
724.49	1714.15
724.67	1632.23
724.85	1794.02
725.03	1644.52
725.21	1695.72
725.40	1722.34
725.58	1705.96
725.76	1804.26
725.94	1779.68
726.12	1710.05
726.30	1718.25
726.49	1783.78
726.67	1648.61
726.85	1773.54
727.03	1755.11
727.21	2152.42
727.39	2942.93
727.57	3825.61
727.76	4212.67
727.94	4470.72
728.12	4411.32
728.30	3727.30
728.48	3030.99
728.66	2836.44
728.84	2576.34
729.03	2383.84
729.21	2179.04
729.39	2019.30
729.57	1841.12
729.75	1888.23
729.93	1779.68
730.11	1683.43
730.30	1761.25
730.48	1751.01
730.66	1773.54
730.84	1732.58
731.02	1730.53
731.20	1650.66
731.38	1738.73
731.56	1578.98
731.74	1650.66
731.93	1722.34
732.11	1755.11
732.29	1759.21
732.47	1785.83
732.65	1789.92
732.83	1761.25
733.01	1722.34
733.19	1755.11
733.37	1720.29
733.56	1710.05
733.74	1662.95
733.92	1783.78
734.10	1671.14
734.28	1806.31
734.46	1634.28
734.64	1740.77
734.82	1732.58
735.00	1734.63
735.18	1632.23
735.36	1714.15
735.54	1691.62
735.73	1734.63
735.91	1726.44
736.09	1771.49
736.27	1695.72
736.45	1800.16
736.63	1621.99
736.81	1732.58
736.99	1748.97
737.17	1832.93
737.35	1712.10
737.53	1763.30
737.71	1656.81
737.89	1800.16
738.07	1703.91
738.25	1624.04
738.43	1611.75
738.61	1660.90
738.80	1648.61
738.98	1609.70
739.16	1691.62
739.34	1660.90
739.52	1785.83
739.70	1667.05
739.88	1753.06
740.06	1824.74
740.24	1605.61
740.42	1775.59
740.60	1583.08
740.78	1689.57
740.96	1624.04
741.14	1738.73
741.32	1769.44
741.50	1605.61
741.68	1834.98
741.86	1724.39
742.04	1697.77
742.22	1689.57
742.40	1685.48
742.58	1800.16
742.76	1650.66
742.94	1783.78
743.12	1662.95
743.30	1697.77
743.48	1787.88
743.66	1669.09
743.84	1779.68
744.02	1775.59
744.20	1771.49
744.38	1654.76
744.56	1642.47
744.74	1818.60
744.92	1779.68
745.10	1800.16
745.28	1718.25
745.46	1763.30
745.64	1669.09
745.82	1755.11
746.00	1718.25
746.18	1730.53
746.36	1751.01
746.54	1650.66
746.72	1732.58
746.90	1712.10
747.08	1785.83
747.26	1703.91
747.44	1722.34
747.62	1695.72
747.80	1705.96
747.98	1695.72
748.15	1673.19
748.33	1851.36
748.51	1648.61
748.69	1726.44
748.87	1669.09
749.05	1624.04
749.23	1748.97
749.41	1841.12
749.59	1677.29
749.77	1816.55
749.95	1703.91
750.13	1718.25
750.31	1771.49
750.49	1685.48
750.67	1773.54
750.85	1779.68
751.03	1736.68
751.20	1867.75
751.38	1726.44
751.56	1646.57
751.74	1740.77
751.92	1710.05
752.10	1677.29
752.28	1796.07
752.46	1683.43
752.64	1753.06
752.82	1703.91
753.00	1720.29
753.18	1591.27
753.35	1718.25
753.53	1748.97
753.71	1662.95
753.89	1757.16
754.07	1716.20
754.25	1787.88
754.43	1808.36
754.61	1667.05
754.79	1826.79
754.97	1665.00
755.14	1843.17
755.32	1658.85
755.50	1738.73
755.68	1748.97
755.86	1589.22
756.04	1679.33
756.22	1669.09
756.40	1769.44
756.57	1802.21
756.75	1691.62
756.93	1695.72
757.11	1804.26
757.29	1671.14
757.47	1628.14
757.65	1615.85
757.82	1607.66
758.00	1720.29
758.18	1705.96
758.36	1710.05
758.54	1740.77
758.72	1685.48
758.90	1791.97
759.07	1730.53
759.25	1634.28
759.43	1689.57
759.61	1705.96
759.79	2203.61
759.97	1785.83
760.15	1712.10
760.32	1697.77
760.50	1708.01
760.68	1787.88
760.86	1632.23
761.04	1796.07
761.22	1816.55
761.39	1685.48
761.57	1755.11
761.75	1738.73
761.93	1693.67
762.11	1720.29
762.28	1705.96
762.46	1615.85
762.64	1802.21
762.82	1671.14
763.00	1730.53
763.18	1724.39
763.35	1628.14
763.53	1877.99
763.71	1697.77
763.89	1722.34
764.07	1722.34
764.24	1681.38
764.42	1798.12
764.60	1703.91
764.78	1765.35
764.96	1759.21
765.13	1724.39
765.31	1808.36
765.49	1736.68
765.67	1652.71
765.84	1710.05
766.02	1632.23
766.20	1581.03
766.38	1693.67
766.56	1808.36
766.73	1767.40
766.91	1714.15
767.09	1781.73
767.27	1744.87
767.44	1644.52
767.62	1828.84
767.80	1722.34
767.98	1701.86
768.15	1718.25
768.33	1810.40
768.51	1869.80
768.69	1738.73
768.87	1699.81
769.04	1705.96
769.22	1773.54
769.40	1791.97
769.58	1818.60
769.75	1714.15
769.93	1865.70
770.11	1734.63
770.28	1697.77
770.46	1755.11
770.64	1744.87
770.82	1636.33
770.99	1619.94
771.17	1671.14
771.35	1699.81
771.53	1744.87
771.70	1738.73
771.88	1771.49
772.06	1691.62
772.23	1714.15
772.41	1781.73
772.59	1695.72
772.77	1714.15
772.94	1679.33
773.12	1695.72
773.30	1710.05
773.47	1638.38
773.65	1716.20
773.83	1765.35
774.01	1705.96
774.18	1646.57
774.36	1775.59
774.54	1718.25
774.71	1748.97
774.89	1636.33
775.07	1665.00
775.24	1665.00
775.42	1656.81
775.60	1798.12
775.78	1697.77
775.95	1558.50
776.13	1564.65
776.31	1568.74
776.48	1742.82
776.66	1804.26
776.84	1699.81
777.01	1693.67
777.19	1681.38
777.37	1630.18
777.54	1751.01
777.72	1779.68
777.90	1714.15
778.07	1646.57
778.25	1943.52
778.43	1753.06
778.60	1734.63
778.78	1728.49
778.96	1779.68
779.13	1646.57
779.31	1730.53
779.49	1771.49
779.66	1685.48
779.84	1708.01
780.01	1701.86
780.19	1658.85
780.37	1843.17
780.54	1710.05
780.72	1714.15
780.90	1773.54
781.07	1697.77
781.25	1714.15
781.43	1789.92
781.60	1708.01
781.78	1779.68
781.95	1732.58
782.13	1648.61
782.31	1685.48
782.48	1581.03
782.66	1769.44
782.83	1800.16
783.01	1675.24
783.19	1757.16
783.36	1667.05
783.54	1585.13
783.72	1800.16
783.89	1708.01
784.07	1689.57
784.24	1746.92
784.42	1816.55
784.60	1728.49
784.77	1740.77
784.95	1685.48
785.12	1667.05
785.30	1808.36
785.47	1697.77
785.65	1595.37
785.83	1767.40
786.00	1705.96
786.18	1669.09
786.35	1632.23
786.53	1650.66
786.71	1771.49
786.88	1773.54
787.06	1705.96
787.23	1718.25
787.41	1722.34
787.58	1665.00
787.76	1630.18
787.94	1740.77
788.11	1683.43
788.29	1683.43
788.46	1720.29
788.64	1615.85
788.81	1697.77
788.99	1652.71
789.16	1658.85
789.34	1796.07
789.52	1642.47
789.69	1640.42
789.87	1669.09
790.04	1677.29
790.22	1658.85
790.39	1824.74
790.57	1662.95
790.74	1683.43
790.92	1834.98
791.09	1693.67
791.27	1761.25
791.44	1800.16
791.62	1705.96
791.79	1814.50
791.97	1781.73
792.15	1910.75
792.32	1779.68
792.50	1800.16
792.67	1771.49
792.85	1828.84
793.02	1708.01
793.20	1675.24
793.37	1640.42
793.55	1685.48
793.72	1583.08
793.90	1789.92
794.07	1738.73
794.25	1675.24
794.42	1673.19
794.60	1658.85
794.77	1691.62
794.95	1808.36
795.12	1718.25
795.30	1642.47
795.47	1665.00
795.65	1869.80
795.82	1763.30
796.00	1736.68
796.17	1677.29
796.34	1675.24
796.52	1658.85
796.69	1695.72
796.87	1779.68
797.04	1777.64
797.22	1794.02
797.39	1695.72
797.57	1734.63
797.74	1708.01
797.92	1617.90
798.09	1705.96
798.27	1705.96
798.44	1746.92
798.62	1705.96
798.79	1701.86
798.96	1787.88
799.14	1773.54
799.31	1830.88
799.49	1759.21
799.66	1740.77
799.84	1697.77
800.01	1583.08
800.19	1742.82
800.36	1607.66
800.53	1728.49
800.71	1763.30
800.88	1757.16
801.06	1763.30
801.23	1640.42
801.41	1712.10
801.58	1665.00
801.75	1640.42
801.93	1722.34
802.10	1773.54
802.28	1712.10
802.45	1677.29
802.63	1753.06
802.80	1832.93
802.97	1644.52
803.15	1675.24
803.32	1714.15
803.50	1679.33
803.67	1611.75
803.84	1714.15
804.02	1701.86
804.19	1716.20
804.37	1558.50
804.54	1621.99
804.71	1763.30
804.89	1708.01
805.06	1658.85
805.24	1691.62
805.41	1640.42
805.58	1685.48
805.76	1871.84
805.93	1714.15
806.10	1822.69
806.28	1705.96
806.45	1722.34
806.63	1755.11
806.80	1742.82
806.97	1722.34
807.15	1763.30
807.32	1705.96
807.49	1615.85
807.67	1675.24
807.84	1767.40
808.01	1656.81
808.19	1857.51
808.36	1894.37
808.54	1716.20
808.71	1607.66
808.88	1718.25
809.06	1691.62
809.23	1847.27
809.40	1677.29
809.58	1824.74
809.75	1742.82
809.92	1658.85
810.10	1826.79
810.27	1769.44
810.44	1701.86
810.62	1738.73
810.79	1712.10
810.96	1708.01
811.14	1671.14
811.31	1730.53
811.48	1730.53
811.66	1744.87
811.83	1787.88
812.00	1734.63
812.18	1804.26
812.35	1892.32
812.52	1681.38
812.69	1679.33
812.87	1660.90
813.04	1660.90
813.21	1673.19
813.39	1611.75
813.56	1693.67
813.73	1755.11
813.91	1701.86
814.08	1734.63
814.25	1771.49
814.42	1593.32
814.60	1720.29
814.77	1744.87
814.94	1703.91
815.12	1685.48
815.29	1728.49
815.46	1695.72
815.63	1767.40
815.81	1732.58
815.98	1746.92
816.15	1726.44
816.33	1722.34
816.50	1716.20
816.67	1697.77
816.84	1732.58
817.02	1632.23
817.19	1769.44
817.36	1669.09
817.53	1765.35
817.71	1644.52
817.88	1675.24
818.05	1746.92
818.22	1705.96
818.40	1845.22
818.57	1716.20
818.74	1708.01
818.91	1720.29
819.09	1787.88
819.26	1759.21
819.43	1705.96
819.60	1730.53
819.78	1767.40
819.95	1759.21
820.12	1652.71
820.29	1812.45
820.47	1734.63
820.64	1673.19
820.81	1624.04
820.98	1681.38
821.15	1695.72
821.33	1810.40
821.50	1634.28
821.67	1796.07
821.84	1642.47
822.02	1781.73
822.19	1759.21
822.36	1705.96
822.53	1710.05
822.70	1708.01
822.88	1701.86
823.05	1746.92
823.22	1677.29
823.39	1789.92
823.56	1646.57
823.74	1755.11
823.91	1617.90
824.08	1640.42
824.25	1746.92
824.42	1751.01
824.60	1640.42
824.77	1738.73
824.94	1679.33
825.11	1708.01
825.28	1693.67
825.45	1714.15
825.63	1767.40
825.80	1626.09
825.97	1710.05
826.14	1767.40
826.31	1662.95
826.48	1775.59
826.66	1630.18
826.83	1705.96
827.00	1740.77
827.17	1591.27
827.34	1789.92
827.51	1679.33
827.69	1716.20
827.86	1662.95
828.03	1732.58
828.20	1753.06
828.37	1662.95
828.54	1753.06
828.71	1740.77
828.89	1787.88
829.06	1746.92
829.23	1763.30
829.40	1697.77
829.57	1720.29
829.74	1742.82
829.91	1761.25
830.09	1718.25
830.26	1761.25
830.43	1867.75
830.60	1687.53
830.77	1716.20
830.94	1738.73
831.11	1800.16
831.28	1677.29
831.46	1767.40
831.63	1650.66
831.80	1763.30
831.97	1701.86
832.14	1728.49
832.31	1765.35
832.48	1673.19
832.65	1789.92
832.82	1724.39
832.99	1738.73
833.17	1660.90
833.34	1806.31
833.51	1804.26
833.68	1538.02
833.85	1726.44
834.02	1697.77
834.19	1695.72
834.36	1636.33
834.53	1796.07
834.70	1734.63
834.87	1804.26
835.04	1703.91
835.22	1619.94
835.39	1697.77
835.56	1705.96
835.73	1621.99
835.90	1728.49
836.07	1576.94
836.24	1724.39
836.41	1665.00
836.58	1665.00
836.75	1775.59
836.92	1796.07
837.09	1648.61
837.26	1689.57
837.43	1791.97
837.60	1652.71
837.77	1699.81
837.94	1740.77
838.12	1757.16
838.29	1751.01
838.46	1617.90
838.63	1763.30
838.80	1748.97
838.97	1767.40
839.14	1724.39
839.31	1771.49
839.48	1736.68
839.65	1716.20
839.82	1773.54
839.99	1800.16
840.16	1755.11
840.33	1705.96
840.50	1716.20
840.67	1687.53
840.84	1662.95
841.01	1740.77
841.18	1714.15
841.35	1726.44
841.52	1783.78
841.69	1861.60
841.86	1730.53
842.03	1730.53
842.20	1703.91
842.37	1658.85
842.54	1665.00
842.71	1703.91
842.88	1671.14
843.05	1703.91
843.22	1759.21
843.39	1699.81
843.56	1701.86
843.73	1710.05
843.90	1691.62
844.07	1677.29
844.24	1777.64
844.41	1759.21
844.58	1673.19
844.75	1624.04
844.92	1734.63
845.09	1779.68
845.26	1607.66
845.43	1714.15
845.60	1673.19
845.77	1834.98
845.94	1779.68
846.10	1775.59
846.27	1619.94
846.44	1652.71
846.61	1595.37
846.78	1693.67
846.95	1888.23
847.12	1658.85
847.29	1708.01
847.46	1669.09
847.63	1734.63
847.80	1693.67
847.97	1796.07
848.14	1830.88
848.31	1716.20
848.48	1658.85
848.65	1689.57
848.82	1626.09
848.98	1871.84
849.15	1695.72
849.32	1746.92
849.49	1761.25
849.66	1722.34
849.83	1748.97
850.00	1691.62
850.17	1767.40
850.34	1695.72
850.51	1683.43
850.68	1740.77
850.85	1767.40
851.01	1751.01
851.18	1753.06
851.35	1685.48
851.52	1722.34
851.69	1923.04
851.86	1673.19
852.03	1687.53
852.20	1787.88
852.37	1652.71
852.53	1603.56
852.70	1753.06
852.87	1652.71
853.04	1708.01
853.21	1687.53
853.38	1777.64
853.55	1742.82
853.72	1759.21
853.89	1671.14
854.05	1667.05
854.22	1718.25
854.39	1724.39
854.56	1783.78
854.73	1812.45
854.90	1671.14
855.07	1697.77
855.23	1765.35
855.40	1744.87
855.57	1691.62
855.74	1628.14
855.91	1873.89
856.08	1685.48
856.25	1628.14
856.41	1638.38
856.58	1646.57
856.75	1740.77
856.92	1576.94
857.09	1759.21
857.26	1615.85
857.42	1705.96
857.59	1816.55
857.76	1642.47
857.93	1720.29
858.10	1714.15
858.27	1673.19
858.43	1736.68
858.60	1687.53
858.77	1665.00
858.94	1697.77
859.11	1687.53
859.27	1662.95
859.44	1673.19
859.61	1781.73
859.78	1802.21
859.95	1722.34
860.12	1769.44
860.28	1884.13
860.45	1830.88
860.62	1705.96
860.79	1771.49
860.95	1624.04
861.12	1671.14
861.29	1652.71
861.46	1724.39
861.63	1677.29
861.79	1660.90
861.96	1718.25
862.13	1716.20
862.30	1814.50
862.47	1716.20
862.63	1701.86
862.80	1777.64
862.97	1851.36
863.14	1759.21
863.30	1673.19
863.47	1714.15
863.64	1746.92
863.81	1765.35
863.97	1753.06
864.14	1738.73
864.31	1710.05
864.48	1791.97
864.65	1744.87
864.81	1757.16
864.98	1652.71
865.15	1765.35
865.32	1761.25
865.48	1781.73
865.65	1832.93
865.82	1685.48
865.98	1679.33
866.15	1748.97
866.32	1703.91
866.49	1718.25
866.65	1751.01
866.82	1650.66
866.99	1687.53
867.16	1683.43
867.32	1675.24
867.49	1716.20
867.66	1681.38
867.83	1726.44
867.99	1710.05
868.16	1697.77
868.33	1572.84
868.49	1675.24
868.66	1718.25
868.83	1736.68
868.99	1738.73
869.16	1691.62
869.33	1787.88
869.50	1783.78
869.66	1679.33
869.83	1685.48
870.00	1621.99
870.16	1773.54
870.33	1714.15
870.50	1804.26
870.66	1691.62
870.83	1814.50
871.00	1730.53
871.17	1744.87
871.33	1714.15
871.50	1685.48
871.67	1677.29
871.83	1585.13
872.00	1730.53
872.17	1671.14
872.33	1773.54
872.50	1755.11
872.67	1654.76
872.83	1708.01
873.00	1714.15
873.17	1712.10
873.33	1748.97
873.50	1716.20
873.67	1689.57
873.83	1667.05
874.00	1726.44
874.16	1812.45
874.33	1714.15
874.50	1673.19
874.66	1761.25
874.83	1710.05
875.00	1773.54
875.16	1789.92
875.33	1738.73
875.50	1675.24
875.66	1644.52
875.83	1802.21
875.99	1683.43
876.16	1716.20
876.33	1619.94
876.49	1755.11
876.66	1720.29
876.83	1759.21
876.99	1646.57
877.16	1681.38
877.32	1679.33
877.49	1660.90
877.66	1734.63
877.82	1794.02
877.99	1755.11
878.15	1796.07
878.32	1738.73
878.49	1669.09
878.65	1714.15
878.82	1771.49
878.98	1658.85
879.15	1781.73
879.32	1734.63
879.48	1767.40
879.65	1740.77
879.81	1658.85
879.98	1701.86
880.15	1712.10
880.31	1773.54
880.48	1710.05
880.64	1736.68
880.81	1775.59
880.97	1863.65
881.14	1759.21
881.31	1720.29
881.47	1828.84
881.64	1716.20
881.80	1619.94
881.97	1675.24
882.13	1748.97
882.30	1669.09
882.47	1660.90
882.63	1669.09
882.80	1703.91
882.96	1685.48
883.13	1751.01
883.29	1669.09
883.46	1624.04
883.62	1808.36
883.79	1687.53
883.95	1767.40
884.12	1748.97
884.29	1781.73
884.45	1703.91
884.62	1812.45
884.78	1685.48
884.95	1779.68
885.11	1638.38
885.28	1714.15
885.44	1673.19
885.61	1744.87
885.77	1763.30
885.94	1726.44
886.10	1769.44
886.27	1751.01
886.43	1738.73
886.60	1746.92
886.76	1789.92
886.93	1656.81
887.09	1740.77
887.26	1605.61
887.42	1671.14
887.59	1701.86
887.75	1834.98
887.92	1753.06
888.08	1724.39
888.25	1865.70
888.41	1767.40
888.58	1800.16
888.74	1660.90
888.91	1779.68
>>>>>End Processed Spectral Data<<<<<
