SpectraSuite Data File
++++++++++++++++++++++++++++++++++++
Date: Mon Jun 06 12:10:17 CEST 2016
User: root
Dark Spectrum Present: No
Reference Spectrum Present: No
Number of Sampled Component Spectra: 1
Spectrometers: USB4C02835
Integration Time (usec): 100000 (USB4C02835)
Spectra Averaged: 1 (USB4C02835)
Boxcar Smoothing: 0 (USB4C02835)
Correct for Electrical Dark: No (USB4C02835)
Strobe/Lamp Enabled: No (USB4C02835)
Correct for Detector Non-linearity: No (USB4C02835)
Correct for Stray Light: No (USB4C02835)
Number of Pixels in Processed Spectrum: 3648
>>>>>Begin Processed Spectral Data<<<<<
177.47	1447.91
177.69	1447.91
177.91	1447.91
178.13	1445.87
178.36	1443.82
178.58	1632.23
178.80	1591.27
179.02	1640.42
179.24	1660.90
179.46	1673.19
179.68	1808.36
179.90	1722.34
180.13	1708.01
180.35	1578.98
180.57	1708.01
180.79	1673.19
181.01	1644.52
181.23	1765.35
181.45	1812.45
181.67	1740.77
181.90	1834.98
182.12	1677.29
182.34	1591.27
182.56	1699.81
182.78	1699.81
183.00	1628.14
183.22	1710.05
183.44	1603.56
183.66	1812.45
183.89	1755.11
184.11	1677.29
184.33	1710.05
184.55	1720.29
184.77	1716.20
184.99	1771.49
185.21	1660.90
185.43	1804.26
185.65	1638.38
185.87	1675.24
186.10	1785.83
186.32	1804.26
186.54	1732.58
186.76	1671.14
186.98	1798.12
187.20	1660.90
187.42	1722.34
187.64	1722.34
187.86	1714.15
188.08	1685.48
188.30	1648.61
188.52	1644.52
188.75	1757.16
188.97	1769.44
189.19	1703.91
189.41	1607.66
189.63	1734.63
189.85	1667.05
190.07	1599.46
190.29	1492.97
190.51	1705.96
190.73	1607.66
190.95	1716.20
191.17	1683.43
191.39	1617.90
191.61	1673.19
191.84	1658.85
192.06	1748.97
192.28	1581.03
192.50	1857.51
192.72	1759.21
192.94	1665.00
193.16	1791.97
193.38	1667.05
193.60	1628.14
193.82	1693.67
194.04	1800.16
194.26	1738.73
194.48	1697.77
194.70	1658.85
194.92	1619.94
195.14	1693.67
195.36	1656.81
195.58	1710.05
195.80	1650.66
196.02	1568.74
196.24	1644.52
196.46	1681.38
196.69	1665.00
196.91	1828.84
197.13	1710.05
197.35	1638.38
197.57	1753.06
197.79	1712.10
198.01	1728.49
198.23	1736.68
198.45	1701.86
198.67	1617.90
198.89	1712.10
199.11	1714.15
199.33	1658.85
199.55	1640.42
199.77	1681.38
199.99	1705.96
200.21	1595.37
200.43	1654.76
200.65	1576.94
200.87	1548.26
201.09	1695.72
201.31	1701.86
201.53	1720.29
201.75	1744.87
201.97	1705.96
202.19	1718.25
202.41	1650.66
202.63	1814.50
202.85	1691.62
203.07	1714.15
203.29	1642.47
203.51	1677.29
203.73	1658.85
203.95	1896.42
204.17	1714.15
204.39	1705.96
204.61	1689.57
204.83	1642.47
205.05	1681.38
205.27	1691.62
205.49	1837.03
205.71	1710.05
205.93	1658.85
206.15	1665.00
206.37	1701.86
206.59	1679.33
206.81	1591.27
207.03	1683.43
207.25	1667.05
207.47	1708.01
207.69	1675.24
207.91	1683.43
208.13	1837.03
208.34	1578.98
208.56	1710.05
208.78	1791.97
209.00	1636.33
209.22	1650.66
209.44	1681.38
209.66	1697.77
209.88	1683.43
210.10	1767.40
210.32	1726.44
210.54	1769.44
210.76	1626.09
210.98	1671.14
211.20	1587.18
211.42	1763.30
211.64	1716.20
211.86	1734.63
212.08	1728.49
212.30	1734.63
212.52	1683.43
212.74	1751.01
212.96	1730.53
213.17	1757.16
213.39	1753.06
213.61	1751.01
213.83	1775.59
214.05	1593.32
214.27	1734.63
214.49	1652.71
214.71	1619.94
214.93	1773.54
215.15	1673.19
215.37	1785.83
215.59	1630.18
215.81	1734.63
216.03	1771.49
216.24	1718.25
216.46	1660.90
216.68	1701.86
216.90	1746.92
217.12	1767.40
217.34	1810.40
217.56	1730.53
217.78	1740.77
218.00	1724.39
218.22	1705.96
218.44	1677.29
218.66	1759.21
218.87	1773.54
219.09	1652.71
219.31	1753.06
219.53	1755.11
219.75	1701.86
219.97	1720.29
220.19	1724.39
220.41	1648.61
220.63	1787.88
220.85	1675.24
221.06	1642.47
221.28	1708.01
221.50	1814.50
221.72	1669.09
221.94	1662.95
222.16	1654.76
222.38	1699.81
222.60	1701.86
222.82	1697.77
223.03	1791.97
223.25	1583.08
223.47	1783.78
223.69	1894.37
223.91	1687.53
224.13	1689.57
224.35	1650.66
224.57	1738.73
224.78	1751.01
225.00	1705.96
225.22	1613.80
225.44	1667.05
225.66	1806.31
225.88	1607.66
226.10	1773.54
226.32	1730.53
226.53	1785.83
226.75	1722.34
226.97	1609.70
227.19	1705.96
227.41	1626.09
227.63	1581.03
227.85	1605.61
228.06	1642.47
228.28	1669.09
228.50	1724.39
228.72	1630.18
228.94	1648.61
229.16	1679.33
229.37	1624.04
229.59	1720.29
229.81	1742.82
230.03	1699.81
230.25	1626.09
230.47	1578.98
230.69	1673.19
230.90	1732.58
231.12	1617.90
231.34	1693.67
231.56	1675.24
231.78	1642.47
232.00	1705.96
232.21	1763.30
232.43	1669.09
232.65	1691.62
232.87	1660.90
233.09	1630.18
233.30	1646.57
233.52	1828.84
233.74	1748.97
233.96	1644.52
234.18	1757.16
234.40	1732.58
234.61	1822.69
234.83	1603.56
235.05	1638.38
235.27	1857.51
235.49	1775.59
235.70	1687.53
235.92	1757.16
236.14	1720.29
236.36	1873.89
236.58	1578.98
236.79	1691.62
237.01	1640.42
237.23	1712.10
237.45	1771.49
237.67	1720.29
237.88	1634.28
238.10	1832.93
238.32	1708.01
238.54	1658.85
238.76	1695.72
238.97	1679.33
239.19	1605.61
239.41	1689.57
239.63	1802.21
239.85	1705.96
240.06	1636.33
240.28	1677.29
240.50	1746.92
240.72	1705.96
240.93	1726.44
241.15	1705.96
241.37	1650.66
241.59	1699.81
241.81	1681.38
242.02	1667.05
242.24	1751.01
242.46	1771.49
242.68	1550.31
242.89	1738.73
243.11	1734.63
243.33	1718.25
243.55	1710.05
243.76	1742.82
243.98	1624.04
244.20	1710.05
244.42	1742.82
244.64	1724.39
244.85	1597.42
245.07	1585.13
245.29	1746.92
245.51	1652.71
245.72	1738.73
245.94	1699.81
246.16	1728.49
246.38	1681.38
246.59	1638.38
246.81	1656.81
247.03	1613.80
247.24	1642.47
247.46	1638.38
247.68	1714.15
247.90	1642.47
248.11	1705.96
248.33	1640.42
248.55	1718.25
248.77	1665.00
248.98	1689.57
249.20	1757.16
249.42	1730.53
249.64	1607.66
249.85	1763.30
250.07	1701.86
250.29	1738.73
250.50	1812.45
250.72	1538.02
250.94	1757.16
251.16	1824.74
251.37	1677.29
251.59	1728.49
251.81	1757.16
252.02	1734.63
252.24	1753.06
252.46	1822.69
252.68	1626.09
252.89	1677.29
253.11	1621.99
253.33	1783.78
253.54	1746.92
253.76	1636.33
253.98	1648.61
254.20	1640.42
254.41	1591.27
254.63	1630.18
254.85	1615.85
255.06	1687.53
255.28	1691.62
255.50	1722.34
255.71	1642.47
255.93	1601.51
256.15	1662.95
256.36	1734.63
256.58	1597.42
256.80	1746.92
257.02	1777.64
257.23	1697.77
257.45	1652.71
257.67	1789.92
257.88	1656.81
258.10	1748.97
258.32	1751.01
258.53	1728.49
258.75	1757.16
258.97	1675.24
259.18	1691.62
259.40	1652.71
259.62	1800.16
259.83	1742.82
260.05	1644.52
260.27	1939.43
260.48	1755.11
260.70	1753.06
260.92	1673.19
261.13	1640.42
261.35	1660.90
261.57	1765.35
261.78	1599.46
262.00	1675.24
262.22	1714.15
262.43	1665.00
262.65	1621.99
262.86	1712.10
263.08	1849.32
263.30	1697.77
263.51	1570.79
263.73	1624.04
263.95	1732.58
264.16	1693.67
264.38	1628.14
264.60	1697.77
264.81	1732.58
265.03	1824.74
265.25	1740.77
265.46	1679.33
265.68	1740.77
265.89	1779.68
266.11	1607.66
266.33	1681.38
266.54	1767.40
266.76	1644.52
266.98	1683.43
267.19	1785.83
267.41	1810.40
267.62	1732.58
267.84	1607.66
268.06	1665.00
268.27	1718.25
268.49	1746.92
268.70	1755.11
268.92	1728.49
269.14	1589.22
269.35	1617.90
269.57	1673.19
269.79	1681.38
270.00	1673.19
270.22	1783.78
270.43	1703.91
270.65	1531.88
270.87	1665.00
271.08	1785.83
271.30	1703.91
271.51	1632.23
271.73	1671.14
271.95	1718.25
272.16	1724.39
272.38	1722.34
272.59	1695.72
272.81	1667.05
273.02	1691.62
273.24	1728.49
273.46	1665.00
273.67	1609.70
273.89	1660.90
274.10	1671.14
274.32	1673.19
274.54	1712.10
274.75	1658.85
274.97	1673.19
275.18	1691.62
275.40	1728.49
275.61	1681.38
275.83	1667.05
276.05	1669.09
276.26	1695.72
276.48	1685.48
276.69	1669.09
276.91	1693.67
277.12	1761.25
277.34	1683.43
277.55	1738.73
277.77	1730.53
277.99	1554.41
278.20	1587.18
278.42	1597.42
278.63	1624.04
278.85	1642.47
279.06	1568.74
279.28	1617.90
279.49	1701.86
279.71	1730.53
279.93	1767.40
280.14	1689.57
280.36	1705.96
280.57	1738.73
280.79	1781.73
281.00	1576.94
281.22	1638.38
281.43	1736.68
281.65	1583.08
281.86	1617.90
282.08	1736.68
282.29	1834.98
282.51	1662.95
282.73	1613.80
282.94	1574.89
283.16	1726.44
283.37	1751.01
283.59	1757.16
283.80	1695.72
284.02	1669.09
284.23	1720.29
284.45	1681.38
284.66	1613.80
284.88	1628.14
285.09	1693.67
285.31	1728.49
285.52	1650.66
285.74	1605.61
285.95	1683.43
286.17	1681.38
286.38	1771.49
286.60	1697.77
286.81	1667.05
287.03	1695.72
287.24	1609.70
287.46	1732.58
287.67	1667.05
287.89	1757.16
288.10	1697.77
288.32	1714.15
288.53	1740.77
288.75	1697.77
288.96	1665.00
289.18	1689.57
289.39	1732.58
289.61	1738.73
289.82	1781.73
290.04	1716.20
290.25	1634.28
290.47	1669.09
290.68	1708.01
290.90	1763.30
291.11	1589.22
291.33	1755.11
291.54	1720.29
291.76	1609.70
291.97	1662.95
292.18	1705.96
292.40	1658.85
292.61	1546.22
292.83	1779.68
293.04	1669.09
293.26	1712.10
293.47	1689.57
293.69	1628.14
293.90	1673.19
294.12	1742.82
294.33	1681.38
294.55	1718.25
294.76	1802.21
294.97	1693.67
295.19	1834.98
295.40	1646.57
295.62	1710.05
295.83	1695.72
296.05	1591.27
296.26	1730.53
296.48	1652.71
296.69	1654.76
296.90	1744.87
297.12	1724.39
297.33	1675.24
297.55	1644.52
297.76	1675.24
297.98	1779.68
298.19	1716.20
298.41	1626.09
298.62	1656.81
298.83	1808.36
299.05	1656.81
299.26	1658.85
299.48	1636.33
299.69	1773.54
299.90	1697.77
300.12	1638.38
300.33	1648.61
300.55	1689.57
300.76	1675.24
300.98	1636.33
301.19	1710.05
301.40	1677.29
301.62	1720.29
301.83	1658.85
302.05	1675.24
302.26	1634.28
302.47	1693.67
302.69	1669.09
302.90	1736.68
303.12	1603.56
303.33	1691.62
303.54	1779.68
303.76	1767.40
303.97	1683.43
304.19	1705.96
304.40	1591.27
304.61	1724.39
304.83	1757.16
305.04	1757.16
305.26	1765.35
305.47	1671.14
305.68	1636.33
305.90	1638.38
306.11	1736.68
306.33	1714.15
306.54	1656.81
306.75	1689.57
306.97	1560.55
307.18	1687.53
307.39	1679.33
307.61	1714.15
307.82	1730.53
308.04	1740.77
308.25	1642.47
308.46	1716.20
308.68	1671.14
308.89	1746.92
309.10	1761.25
309.32	1642.47
309.53	1708.01
309.74	1650.66
309.96	1650.66
310.17	1746.92
310.39	1646.57
310.60	1865.70
310.81	1638.38
311.03	1728.49
311.24	1691.62
311.45	1677.29
311.67	1832.93
311.88	1701.86
312.09	1763.30
312.31	1638.38
312.52	1671.14
312.73	1677.29
312.95	1574.89
313.16	1601.51
313.37	1701.86
313.59	1691.62
313.80	1693.67
314.01	1765.35
314.23	1630.18
314.44	1621.99
314.65	1695.72
314.87	1624.04
315.08	1648.61
315.29	1677.29
315.51	1656.81
315.72	1595.37
315.93	1806.31
316.15	1699.81
316.36	1671.14
316.57	1646.57
316.79	1744.87
317.00	1724.39
317.21	1736.68
317.43	1652.71
317.64	1679.33
317.85	1626.09
318.07	1626.09
318.28	1673.19
318.49	1767.40
318.70	1886.18
318.92	1810.40
319.13	1761.25
319.34	1814.50
319.56	1763.30
319.77	1728.49
319.98	1767.40
320.20	1806.31
320.41	1738.73
320.62	1763.30
320.83	1665.00
321.05	1832.93
321.26	1703.91
321.47	1660.90
321.69	1730.53
321.90	1609.70
322.11	1683.43
322.32	1708.01
322.54	1685.48
322.75	1697.77
322.96	1820.64
323.18	1617.90
323.39	1609.70
323.60	1656.81
323.81	1718.25
324.03	1644.52
324.24	1675.24
324.45	1699.81
324.66	1714.15
324.88	1734.63
325.09	1761.25
325.30	1636.33
325.52	1669.09
325.73	1716.20
325.94	1576.94
326.15	1589.22
326.37	1642.47
326.58	1753.06
326.79	1708.01
327.00	1652.71
327.22	1675.24
327.43	1617.90
327.64	1646.57
327.85	1781.73
328.07	1722.34
328.28	1826.79
328.49	1697.77
328.70	1644.52
328.92	1691.62
329.13	1701.86
329.34	1751.01
329.55	1804.26
329.76	1771.49
329.98	1734.63
330.19	1820.64
330.40	1734.63
330.61	1703.91
330.83	1775.59
331.04	1601.51
331.25	1697.77
331.46	1689.57
331.68	1636.33
331.89	1765.35
332.10	1716.20
332.31	1609.70
332.52	1718.25
332.74	1761.25
332.95	1652.71
333.16	1716.20
333.37	1759.21
333.58	1621.99
333.80	1636.33
334.01	1640.42
334.22	1734.63
334.43	1658.85
334.64	1681.38
334.86	1640.42
335.07	1665.00
335.28	1761.25
335.49	1626.09
335.70	1718.25
335.92	1716.20
336.13	1882.08
336.34	1667.05
336.55	1740.77
336.76	1683.43
336.98	1605.61
337.19	1603.56
337.40	1783.78
337.61	1814.50
337.82	1724.39
338.04	1687.53
338.25	1587.18
338.46	1632.23
338.67	1681.38
338.88	1646.57
339.09	1652.71
339.31	1658.85
339.52	1650.66
339.73	1554.41
339.94	1652.71
340.15	1742.82
340.36	1685.48
340.58	1665.00
340.79	1628.14
341.00	1738.73
341.21	1701.86
341.42	1783.78
341.63	1697.77
341.85	1753.06
342.06	1685.48
342.27	1660.90
342.48	1722.34
342.69	1603.56
342.90	1699.81
343.12	1761.25
343.33	1630.18
343.54	1798.12
343.75	1798.12
343.96	1695.72
344.17	1628.14
344.38	1642.47
344.60	1660.90
344.81	1728.49
345.02	1605.61
345.23	1767.40
345.44	1769.44
345.65	1738.73
345.86	1767.40
346.07	1615.85
346.29	1675.24
346.50	1738.73
346.71	1814.50
346.92	1759.21
347.13	1814.50
347.34	1689.57
347.55	1675.24
347.76	1742.82
347.98	1646.57
348.19	1636.33
348.40	1781.73
348.61	1671.14
348.82	1822.69
349.03	1771.49
349.24	1648.61
349.45	1755.11
349.66	1585.13
349.88	1673.19
350.09	1681.38
350.30	1728.49
350.51	1716.20
350.72	1716.20
350.93	1656.81
351.14	1611.75
351.35	1785.83
351.56	1757.16
351.77	1628.14
351.99	1640.42
352.20	1806.31
352.41	1820.64
352.62	1613.80
352.83	1683.43
353.04	1615.85
353.25	1689.57
353.46	1806.31
353.67	1755.11
353.88	1619.94
354.09	1751.01
354.30	1691.62
354.52	1675.24
354.73	1673.19
354.94	1677.29
355.15	1722.34
355.36	1779.68
355.57	1677.29
355.78	1695.72
355.99	1648.61
356.20	1654.76
356.41	1732.58
356.62	1679.33
356.83	1734.63
357.04	1828.84
357.25	1638.38
357.46	1583.08
357.68	1665.00
357.89	1689.57
358.10	1642.47
358.31	1656.81
358.52	1720.29
358.73	1599.46
358.94	1665.00
359.15	1691.62
359.36	1753.06
359.57	1644.52
359.78	1675.24
359.99	1708.01
360.20	1636.33
360.41	1648.61
360.62	1660.90
360.83	1646.57
361.04	1677.29
361.25	1826.79
361.46	1751.01
361.67	1716.20
361.88	1736.68
362.09	1742.82
362.30	1753.06
362.51	1646.57
362.72	1607.66
362.93	1712.10
363.14	1724.39
363.35	1697.77
363.56	1699.81
363.78	1759.21
363.99	1812.45
364.20	1665.00
364.41	1665.00
364.62	1777.64
364.83	1736.68
365.04	1671.14
365.25	1681.38
365.46	1800.16
365.67	1677.29
365.88	1603.56
366.09	1681.38
366.30	1603.56
366.51	1648.61
366.72	1652.71
366.93	1697.77
367.14	1656.81
367.35	1722.34
367.56	1771.49
367.77	1806.31
367.98	1712.10
368.18	1648.61
368.39	1675.24
368.60	1615.85
368.81	1761.25
369.02	1685.48
369.23	1701.86
369.44	1564.65
369.65	1662.95
369.86	1742.82
370.07	1710.05
370.28	1644.52
370.49	1734.63
370.70	1738.73
370.91	1632.23
371.12	1619.94
371.33	1722.34
371.54	1660.90
371.75	1726.44
371.96	1601.51
372.17	1699.81
372.38	1726.44
372.59	1667.05
372.80	1746.92
373.01	1679.33
373.22	1714.15
373.43	1732.58
373.64	1697.77
373.85	1769.44
374.06	1714.15
374.26	1738.73
374.47	1708.01
374.68	1744.87
374.89	1693.67
375.10	1640.42
375.31	1693.67
375.52	1748.97
375.73	1695.72
375.94	1636.33
376.15	1746.92
376.36	1667.05
376.57	1621.99
376.78	1693.67
376.99	1697.77
377.20	1794.02
377.40	1724.39
377.61	1816.55
377.82	1630.18
378.03	1740.77
378.24	1771.49
378.45	1685.48
378.66	1660.90
378.87	1587.18
379.08	1613.80
379.29	1626.09
379.50	1710.05
379.71	1687.53
379.91	1734.63
380.12	1689.57
380.33	1761.25
380.54	1632.23
380.75	1679.33
380.96	1679.33
381.17	1705.96
381.38	1728.49
381.59	1644.52
381.80	1714.15
382.00	1779.68
382.21	1726.44
382.42	1794.02
382.63	1847.27
382.84	1726.44
383.05	1738.73
383.26	1830.88
383.47	1740.77
383.68	1730.53
383.88	1791.97
384.09	1673.19
384.30	1837.03
384.51	1742.82
384.72	1689.57
384.93	1693.67
385.14	1646.57
385.35	1730.53
385.55	1673.19
385.76	1691.62
385.97	1777.64
386.18	1595.37
386.39	1660.90
386.60	1673.19
386.81	1753.06
387.02	1656.81
387.22	1581.03
387.43	1705.96
387.64	1732.58
387.85	1832.93
388.06	2224.09
388.27	4470.72
388.48	6924.18
388.68	8429.44
388.89	9756.52
389.10	10227.56
389.31	8707.96
389.52	7729.03
389.73	6784.92
389.93	6283.17
390.14	5959.59
390.35	5181.36
390.56	4583.35
390.77	3868.61
390.98	3037.14
391.18	2553.82
391.39	2127.84
391.60	1886.18
391.81	1802.21
392.02	1654.76
392.23	1808.36
392.43	1738.73
392.64	1730.53
392.85	1767.40
393.06	1757.16
393.27	1699.81
393.47	1656.81
393.68	1687.53
393.89	1671.14
394.10	1718.25
394.31	1689.57
394.52	1656.81
394.72	1679.33
394.93	1769.44
395.14	1619.94
395.35	1652.71
395.56	1646.57
395.76	1722.34
395.97	1791.97
396.18	1855.46
396.39	1775.59
396.60	1992.67
396.80	1851.36
397.01	1785.83
397.22	1834.98
397.43	1859.56
397.64	1738.73
397.84	1763.30
398.05	1890.28
398.26	1785.83
398.47	1841.12
398.67	1796.07
398.88	1660.90
399.09	1720.29
399.30	1773.54
399.51	1779.68
399.71	1654.76
399.92	1712.10
400.13	1734.63
400.34	1597.42
400.54	1669.09
400.75	1787.88
400.96	1718.25
401.17	1787.88
401.37	1744.87
401.58	1720.29
401.79	1759.21
402.00	1853.41
402.21	1974.24
402.41	1931.23
402.62	1951.71
402.83	1992.67
403.04	1933.28
403.24	2025.44
403.45	1839.08
403.66	1867.75
403.87	1912.80
404.07	1886.18
404.28	1927.14
404.49	1863.65
404.70	1742.82
404.90	1742.82
405.11	1763.30
405.32	1716.20
405.52	1687.53
405.73	1640.42
405.94	1564.65
406.15	1687.53
406.35	1726.44
406.56	1779.68
406.77	1718.25
406.98	1675.24
407.18	1609.70
407.39	1724.39
407.60	1648.61
407.80	1677.29
408.01	1660.90
408.22	1685.48
408.43	1665.00
408.63	1730.53
408.84	1802.21
409.05	1728.49
409.25	1675.24
409.46	1697.77
409.67	1669.09
409.88	1648.61
410.08	1734.63
410.29	1624.04
410.50	1669.09
410.70	1726.44
410.91	1662.95
411.12	1667.05
411.32	1699.81
411.53	1710.05
411.74	1812.45
411.95	1712.10
412.15	1699.81
412.36	1726.44
412.57	1757.16
412.77	1751.01
412.98	1763.30
413.19	1746.92
413.39	1736.68
413.60	1765.35
413.81	1769.44
414.01	1634.28
414.22	1724.39
414.43	1705.96
414.63	1718.25
414.84	1796.07
415.05	1705.96
415.25	1617.90
415.46	1722.34
415.67	1687.53
415.87	1716.20
416.08	1656.81
416.29	1665.00
416.49	1699.81
416.70	1650.66
416.91	1662.95
417.11	1662.95
417.32	1742.82
417.53	1791.97
417.73	1665.00
417.94	1785.83
418.15	1671.14
418.35	1740.77
418.56	1693.67
418.77	1857.51
418.97	1689.57
419.18	1718.25
419.38	1640.42
419.59	1693.67
419.80	1787.88
420.00	1679.33
420.21	1669.09
420.42	1732.58
420.62	1693.67
420.83	1611.75
421.04	1699.81
421.24	1689.57
421.45	1703.91
421.65	1691.62
421.86	1679.33
422.07	1746.92
422.27	1724.39
422.48	1671.14
422.69	1662.95
422.89	1691.62
423.10	1677.29
423.30	1695.72
423.51	1699.81
423.72	1699.81
423.92	1730.53
424.13	1568.74
424.33	1679.33
424.54	1744.87
424.75	1716.20
424.95	1763.30
425.16	1771.49
425.36	1615.85
425.57	1691.62
425.78	1732.58
425.98	1755.11
426.19	1669.09
426.39	1673.19
426.60	1726.44
426.81	1814.50
427.01	1740.77
427.22	1660.90
427.42	1609.70
427.63	1658.85
427.83	1728.49
428.04	1763.30
428.25	1808.36
428.45	1755.11
428.66	1738.73
428.86	1701.86
429.07	1665.00
429.28	1693.67
429.48	1638.38
429.69	1687.53
429.89	1748.97
430.10	1566.70
430.30	1636.33
430.51	1705.96
430.71	1619.94
430.92	1724.39
431.13	1677.29
431.33	1734.63
431.54	1669.09
431.74	1699.81
431.95	1767.40
432.15	1646.57
432.36	1693.67
432.56	1783.78
432.77	1800.16
432.98	1753.06
433.18	1708.01
433.39	1634.28
433.59	1767.40
433.80	1773.54
434.00	1814.50
434.21	1763.30
434.41	1624.04
434.62	1814.50
434.82	1626.09
435.03	1658.85
435.23	1720.29
435.44	1566.70
435.64	1654.76
435.85	1691.62
436.06	1703.91
436.26	1730.53
436.47	1701.86
436.67	1691.62
436.88	1714.15
437.08	1722.34
437.29	1757.16
437.49	1671.14
437.70	1755.11
437.90	1681.38
438.11	1816.55
438.31	1722.34
438.52	1769.44
438.72	1837.03
438.93	1820.64
439.13	1736.68
439.34	1791.97
439.54	1785.83
439.75	1787.88
439.95	1824.74
440.16	1671.14
440.36	1748.97
440.57	1763.30
440.77	1783.78
440.98	1771.49
441.18	1683.43
441.39	1710.05
441.59	1697.77
441.80	1828.84
442.00	1675.24
442.21	1759.21
442.41	1667.05
442.62	1740.77
442.82	1658.85
443.02	1722.34
443.23	1773.54
443.43	1728.49
443.64	1779.68
443.84	1648.61
444.05	1800.16
444.25	1724.39
444.46	1761.25
444.66	1718.25
444.87	1751.01
445.07	1667.05
445.28	1673.19
445.48	1734.63
445.69	1763.30
445.89	1822.69
446.09	1783.78
446.30	2088.93
446.50	2678.74
446.71	3831.75
446.91	4413.37
447.12	4779.96
447.32	4902.84
447.53	4407.23
447.73	3923.91
447.93	3528.65
448.14	3323.85
448.34	3219.41
448.55	2832.34
448.75	2848.72
448.96	2715.61
449.16	2389.98
449.36	2275.29
449.57	2027.49
449.77	1837.03
449.98	1800.16
450.18	1857.51
450.39	1886.18
450.59	1783.78
450.79	1763.30
451.00	1708.01
451.20	1712.10
451.41	1699.81
451.61	1748.97
451.81	1693.67
452.02	1732.58
452.22	1710.05
452.43	1650.66
452.63	1695.72
452.84	1718.25
453.04	1726.44
453.24	1699.81
453.45	1624.04
453.65	1736.68
453.86	1755.11
454.06	1712.10
454.26	1703.91
454.47	1701.86
454.67	1828.84
454.87	1732.58
455.08	1714.15
455.28	1851.36
455.49	1765.35
455.69	1683.43
455.89	1794.02
456.10	1738.73
456.30	1714.15
456.51	1738.73
456.71	1689.57
456.91	1722.34
457.12	1755.11
457.32	1734.63
457.52	1705.96
457.73	1775.59
457.93	1783.78
458.14	1748.97
458.34	1644.52
458.54	1724.39
458.75	1726.44
458.95	1777.64
459.15	1644.52
459.36	1691.62
459.56	1769.44
459.76	1847.27
459.97	1656.81
460.17	1677.29
460.37	1804.26
460.58	1667.05
460.78	1681.38
460.99	1675.24
461.19	1738.73
461.39	1736.68
461.60	1728.49
461.80	1769.44
462.00	1656.81
462.21	1630.18
462.41	1613.80
462.61	1683.43
462.82	1650.66
463.02	1794.02
463.22	1761.25
463.43	1759.21
463.63	1755.11
463.83	1724.39
464.04	1724.39
464.24	1708.01
464.44	1796.07
464.64	1695.72
464.85	1796.07
465.05	1708.01
465.25	1679.33
465.46	1720.29
465.66	1716.20
465.86	1832.93
466.07	1675.24
466.27	1751.01
466.47	1613.80
466.68	1667.05
466.88	1779.68
467.08	1724.39
467.29	1746.92
467.49	1714.15
467.69	1703.91
467.89	1740.77
468.10	1654.76
468.30	1796.07
468.50	1845.22
468.71	1791.97
468.91	1652.71
469.11	1859.56
469.31	1787.88
469.52	1701.86
469.72	1818.60
469.92	1843.17
470.13	1689.57
470.33	1767.40
470.53	1802.21
470.73	2140.13
470.94	2326.49
471.14	2326.49
471.34	2502.62
471.54	2557.91
471.75	2269.15
471.95	2072.54
472.15	2111.46
472.36	2152.42
472.56	2058.21
472.76	2058.21
472.96	1972.19
473.17	1890.28
473.37	1935.33
473.57	1800.16
473.77	1765.35
473.98	1714.15
474.18	1714.15
474.38	1853.41
474.58	1685.48
474.79	1607.66
474.99	1656.81
475.19	1789.92
475.39	1673.19
475.60	1691.62
475.80	1703.91
476.00	1675.24
476.20	1679.33
476.41	1675.24
476.61	1812.45
476.81	1812.45
477.01	1619.94
477.21	1800.16
477.42	1875.94
477.62	1712.10
477.82	1714.15
478.02	1697.77
478.23	1685.48
478.43	1710.05
478.63	1687.53
478.83	1708.01
479.03	1740.77
479.24	1714.15
479.44	1822.69
479.64	1642.47
479.84	1615.85
480.04	1689.57
480.25	1763.30
480.45	1662.95
480.65	1730.53
480.85	1771.49
481.06	1673.19
481.26	1746.92
481.46	1781.73
481.66	1699.81
481.86	1695.72
482.06	1763.30
482.27	1683.43
482.47	1779.68
482.67	1818.60
482.87	1648.61
483.07	1794.02
483.28	1726.44
483.48	1695.72
483.68	1722.34
483.88	1605.61
484.08	1587.18
484.29	1658.85
484.49	1732.58
484.69	1626.09
484.89	1820.64
485.09	1773.54
485.29	1763.30
485.50	1712.10
485.70	1744.87
485.90	1767.40
486.10	1755.11
486.30	1726.44
486.50	1699.81
486.71	1705.96
486.91	1677.29
487.11	1783.78
487.31	1697.77
487.51	1691.62
487.71	1581.03
487.91	1685.48
488.12	1611.75
488.32	1626.09
488.52	1644.52
488.72	1617.90
488.92	1658.85
489.12	1787.88
489.32	1800.16
489.53	1718.25
489.73	1595.37
489.93	1794.02
490.13	1652.71
490.33	1681.38
490.53	1679.33
490.73	1728.49
490.94	1566.70
491.14	1796.07
491.34	1845.22
491.54	2019.30
491.74	2574.30
491.94	2934.74
492.14	3000.27
492.34	2992.08
492.54	2676.70
492.75	2478.04
492.95	2488.28
493.15	2355.16
493.35	2322.40
493.55	2263.01
493.75	2176.99
493.95	2172.89
494.15	2025.44
494.35	1968.10
494.56	1826.79
494.76	1779.68
494.96	1755.11
495.16	1804.26
495.36	1697.77
495.56	1708.01
495.76	1693.67
495.96	1771.49
496.16	1697.77
496.36	1818.60
496.56	1669.09
496.77	1683.43
496.97	1658.85
497.17	1759.21
497.37	1665.00
497.57	1703.91
497.77	1714.15
497.97	1662.95
498.17	1720.29
498.37	1699.81
498.57	1708.01
498.77	1730.53
498.97	1740.77
499.17	1808.36
499.38	1648.61
499.58	1751.01
499.78	1746.92
499.98	1869.80
500.18	1705.96
500.38	1701.86
500.58	1890.28
500.78	2598.87
500.98	4593.59
501.18	5851.05
501.38	7010.20
501.58	7260.05
501.78	6633.37
501.98	5453.74
502.18	5050.29
502.38	4403.13
502.58	4184.00
502.78	3829.70
502.98	3647.43
503.18	3391.44
503.38	3180.50
503.59	2809.81
503.79	2656.22
503.99	2559.96
504.19	2310.11
504.39	2138.08
504.59	2205.66
504.79	2068.45
504.99	2025.44
505.19	1892.32
505.39	1865.70
505.59	1953.76
505.79	1855.46
505.99	1882.08
506.19	1763.30
506.39	1898.47
506.59	1757.16
506.79	1746.92
506.99	1855.46
507.19	1669.09
507.39	1732.58
507.59	1755.11
507.79	1724.39
507.99	1628.14
508.19	1783.78
508.39	1621.99
508.59	1732.58
508.79	1812.45
508.99	1834.98
509.19	1673.19
509.39	1753.06
509.59	1708.01
509.79	1599.46
509.99	1771.49
510.19	1771.49
510.39	1689.57
510.59	1744.87
510.79	1693.67
510.99	1646.57
511.19	1738.73
511.39	1769.44
511.59	1818.60
511.79	1763.30
511.99	1765.35
512.19	1853.41
512.38	1675.24
512.58	1726.44
512.78	1701.86
512.98	1724.39
513.18	1851.36
513.38	1705.96
513.58	1771.49
513.78	1718.25
513.98	1804.26
514.18	1652.71
514.38	1708.01
514.58	1734.63
514.78	1632.23
514.98	1656.81
515.18	1695.72
515.38	1662.95
515.58	1900.52
515.78	1710.05
515.98	1677.29
516.18	1773.54
516.38	1708.01
516.57	1714.15
516.77	1705.96
516.97	1740.77
517.17	1714.15
517.37	1624.04
517.57	1783.78
517.77	1648.61
517.97	1689.57
518.17	1736.68
518.37	1658.85
518.57	1673.19
518.77	1781.73
518.97	1765.35
519.16	1781.73
519.36	1699.81
519.56	1736.68
519.76	1751.01
519.96	1794.02
520.16	1716.20
520.36	1681.38
520.56	1734.63
520.76	1724.39
520.96	1689.57
521.16	1771.49
521.35	1791.97
521.55	1855.46
521.75	1736.68
521.95	1761.25
522.15	1734.63
522.35	1665.00
522.55	1640.42
522.75	1738.73
522.95	1665.00
523.14	1685.48
523.34	1730.53
523.54	1656.81
523.74	1726.44
523.94	1783.78
524.14	1673.19
524.34	1726.44
524.54	1714.15
524.73	1619.94
524.93	1787.88
525.13	1685.48
525.33	1693.67
525.53	1877.99
525.73	1822.69
525.93	1660.90
526.13	1638.38
526.32	1701.86
526.52	1779.68
526.72	1767.40
526.92	1638.38
527.12	1734.63
527.32	1546.22
527.52	1720.29
527.71	1802.21
527.91	1697.77
528.11	1687.53
528.31	1783.78
528.51	1595.37
528.71	1755.11
528.90	1693.67
529.10	1763.30
529.30	1775.59
529.50	1640.42
529.70	1728.49
529.90	1710.05
530.09	1716.20
530.29	1689.57
530.49	1740.77
530.69	1910.75
530.89	1726.44
531.09	1771.49
531.28	1712.10
531.48	1695.72
531.68	1689.57
531.88	1597.42
532.08	1742.82
532.28	1665.00
532.47	1798.12
532.67	1650.66
532.87	1740.77
533.07	1673.19
533.27	1742.82
533.46	1804.26
533.66	1716.20
533.86	1724.39
534.06	1720.29
534.26	1671.14
534.45	1767.40
534.65	1755.11
534.85	1687.53
535.05	1705.96
535.25	1753.06
535.44	1624.04
535.64	1759.21
535.84	1683.43
536.04	1683.43
536.24	1759.21
536.43	1697.77
536.63	1689.57
536.83	1699.81
537.03	1732.58
537.22	1687.53
537.42	1679.33
537.62	1705.96
537.82	1609.70
538.02	1767.40
538.21	1755.11
538.41	1882.08
538.61	1722.34
538.81	1708.01
539.00	1767.40
539.20	1634.28
539.40	1718.25
539.60	1789.92
539.79	1755.11
539.99	1640.42
540.19	1708.01
540.39	1660.90
540.58	1779.68
540.78	1730.53
540.98	1681.38
541.18	1884.13
541.37	1751.01
541.57	1796.07
541.77	1755.11
541.97	1671.14
542.16	1638.38
542.36	1722.34
542.56	1755.11
542.76	1796.07
542.95	1718.25
543.15	1695.72
543.35	1736.68
543.54	1669.09
543.74	1722.34
543.94	1839.08
544.14	1644.52
544.33	1779.68
544.53	1679.33
544.73	1669.09
544.93	1665.00
545.12	1681.38
545.32	1716.20
545.52	1665.00
545.71	1667.05
545.91	1730.53
546.11	1744.87
546.30	1697.77
546.50	1761.25
546.70	1757.16
546.90	1794.02
547.09	1609.70
547.29	1720.29
547.49	1769.44
547.68	1789.92
547.88	1742.82
548.08	1767.40
548.27	2197.47
548.47	1716.20
548.67	1703.91
548.87	1744.87
549.06	1679.33
549.26	1845.22
549.46	1746.92
549.65	1648.61
549.85	1720.29
550.05	1789.92
550.24	1718.25
550.44	1701.86
550.64	1662.95
550.83	1650.66
551.03	1742.82
551.23	1705.96
551.42	1767.40
551.62	1683.43
551.82	1738.73
552.01	1656.81
552.21	1824.74
552.41	1753.06
552.60	1798.12
552.80	1730.53
553.00	1712.10
553.19	1759.21
553.39	1796.07
553.59	1671.14
553.78	1783.78
553.98	1740.77
554.17	1619.94
554.37	1789.92
554.57	1673.19
554.76	1609.70
554.96	1671.14
555.16	1673.19
555.35	1734.63
555.55	1720.29
555.75	1736.68
555.94	1824.74
556.14	1646.57
556.33	1748.97
556.53	1726.44
556.73	1718.25
556.92	1771.49
557.12	1710.05
557.32	1779.68
557.51	1818.60
557.71	1781.73
557.90	1798.12
558.10	1828.84
558.30	1697.77
558.49	1685.48
558.69	1691.62
558.88	1759.21
559.08	1736.68
559.28	1771.49
559.47	1724.39
559.67	1710.05
559.86	1853.41
560.06	1765.35
560.26	1777.64
560.45	1847.27
560.65	1736.68
560.84	1779.68
561.04	1705.96
561.24	1730.53
561.43	1638.38
561.63	1828.84
561.82	1767.40
562.02	1701.86
562.22	1763.30
562.41	1630.18
562.61	1677.29
562.80	1701.86
563.00	1849.32
563.19	1712.10
563.39	1759.21
563.59	1720.29
563.78	1675.24
563.98	1634.28
564.17	1679.33
564.37	1636.33
564.56	1658.85
564.76	1654.76
564.96	1845.22
565.15	1828.84
565.35	1892.32
565.54	1673.19
565.74	1783.78
565.93	1742.82
566.13	1722.34
566.32	1699.81
566.52	1814.50
566.71	1687.53
566.91	1667.05
567.11	1669.09
567.30	1697.77
567.50	1712.10
567.69	1789.92
567.89	1806.31
568.08	1716.20
568.28	1718.25
568.47	1675.24
568.67	1798.12
568.86	1652.71
569.06	1763.30
569.25	1746.92
569.45	1613.80
569.64	1613.80
569.84	1718.25
570.04	1796.07
570.23	1675.24
570.43	1640.42
570.62	1718.25
570.82	1814.50
571.01	1626.09
571.21	1650.66
571.40	1669.09
571.60	1740.77
571.79	1755.11
571.99	1837.03
572.18	1644.52
572.38	1785.83
572.57	1720.29
572.77	1677.29
572.96	1863.65
573.16	1728.49
573.35	1828.84
573.55	1837.03
573.74	1777.64
573.94	1742.82
574.13	1691.62
574.33	1746.92
574.52	1867.75
574.71	1738.73
574.91	1755.11
575.10	1644.52
575.30	1730.53
575.49	1740.77
575.69	1697.77
575.88	1714.15
576.08	1738.73
576.27	1722.34
576.47	1736.68
576.66	1828.84
576.86	1755.11
577.05	1818.60
577.25	1820.64
577.44	1861.60
577.64	1703.91
577.83	1773.54
578.02	1677.29
578.22	1798.12
578.41	1841.12
578.61	1730.53
578.80	1744.87
579.00	1738.73
579.19	1667.05
579.39	1765.35
579.58	1853.41
579.77	1738.73
579.97	1785.83
580.16	1810.40
580.36	1783.78
580.55	1845.22
580.75	1820.64
580.94	1751.01
581.13	1796.07
581.33	1849.32
581.52	1736.68
581.72	1812.45
581.91	1818.60
582.11	1679.33
582.30	1757.16
582.49	1712.10
582.69	1845.22
582.88	1755.11
583.08	1816.55
583.27	1804.26
583.47	1728.49
583.66	1783.78
583.85	1751.01
584.05	1716.20
584.24	1810.40
584.44	1730.53
584.63	1806.31
584.82	1820.64
585.02	1830.88
585.21	1781.73
585.41	1783.78
585.60	1779.68
585.79	1904.61
585.99	1943.52
586.18	1896.42
586.37	2191.33
586.57	3299.28
586.76	9942.89
586.96	25093.76
587.15	35620.32
587.34	41506.18
587.54	43173.23
587.73	37541.32
587.93	27119.20
588.12	22087.34
588.31	18693.86
588.51	16822.02
588.70	15601.43
588.89	14624.54
589.09	12820.28
589.28	11433.81
589.47	9699.18
589.67	8228.74
589.86	6535.07
590.06	4999.09
590.25	3962.82
590.44	3076.05
590.64	2629.59
590.83	2246.62
591.02	2136.03
591.22	1906.66
591.41	1908.71
591.60	1789.92
591.80	1904.61
591.99	1732.58
592.18	1820.64
592.38	1738.73
592.57	1746.92
592.76	1787.88
592.96	1738.73
593.15	1734.63
593.34	1863.65
593.54	1656.81
593.73	1785.83
593.92	1744.87
594.12	1701.86
594.31	1761.25
594.50	1828.84
594.70	1724.39
594.89	1892.32
595.08	1718.25
595.28	1732.58
595.47	1927.14
595.66	1771.49
595.86	1644.52
596.05	1701.86
596.24	1662.95
596.43	1841.12
596.63	1699.81
596.82	1783.78
597.01	1759.21
597.21	1804.26
597.40	1716.20
597.59	1732.58
597.79	1671.14
597.98	1699.81
598.17	1773.54
598.36	1632.23
598.56	1757.16
598.75	1693.67
598.94	1718.25
599.14	1765.35
599.33	1687.53
599.52	1769.44
599.71	1667.05
599.91	1736.68
600.10	1716.20
600.29	1673.19
600.48	1714.15
600.68	1722.34
600.87	1816.55
601.06	1714.15
601.26	1740.77
601.45	1755.11
601.64	1691.62
601.83	1847.27
602.03	1720.29
602.22	1669.09
602.41	1748.97
602.60	1855.46
602.80	1759.21
602.99	1677.29
603.18	1671.14
603.37	1708.01
603.57	1728.49
603.76	1783.78
603.95	1796.07
604.14	1781.73
604.34	1656.81
604.53	1722.34
604.72	1697.77
604.91	1718.25
605.10	1761.25
605.30	1656.81
605.49	1861.60
605.68	1781.73
605.87	1818.60
606.07	1699.81
606.26	1783.78
606.45	1701.86
606.64	1705.96
606.84	1703.91
607.03	1701.86
607.22	1791.97
607.41	1644.52
607.60	1765.35
607.80	1777.64
607.99	1705.96
608.18	1701.86
608.37	1771.49
608.56	1738.73
608.76	1718.25
608.95	1808.36
609.14	1740.77
609.33	1744.87
609.52	1783.78
609.72	1667.05
609.91	1763.30
610.10	1624.04
610.29	1882.08
610.48	1808.36
610.68	1734.63
610.87	1732.58
611.06	1720.29
611.25	1705.96
611.44	1816.55
611.63	1693.67
611.83	1781.73
612.02	1669.09
612.21	1830.88
612.40	1634.28
612.59	1611.75
612.79	1746.92
612.98	1746.92
613.17	1720.29
613.36	1716.20
613.55	1820.64
613.74	1738.73
613.93	1697.77
614.13	1679.33
614.32	1642.47
614.51	1765.35
614.70	1726.44
614.89	1681.38
615.08	1712.10
615.28	2045.92
615.47	1607.66
615.66	1771.49
615.85	1773.54
616.04	1816.55
616.23	1697.77
616.42	1697.77
616.62	1722.34
616.81	1773.54
617.00	1742.82
617.19	1701.86
617.38	1728.49
617.57	1726.44
617.76	1798.12
617.95	1798.12
618.15	1716.20
618.34	1902.56
618.53	1656.81
618.72	1787.88
618.91	1769.44
619.10	1746.92
619.29	1761.25
619.48	1740.77
619.68	1708.01
619.87	1734.63
620.06	1601.51
620.25	1746.92
620.44	1656.81
620.63	1652.71
620.82	1724.39
621.01	1718.25
621.20	1572.84
621.39	1710.05
621.59	1753.06
621.78	1648.61
621.97	1726.44
622.16	1746.92
622.35	1759.21
622.54	1757.16
622.73	1785.83
622.92	1693.67
623.11	1726.44
623.30	1656.81
623.49	1787.88
623.68	1636.33
623.88	1837.03
624.07	1708.01
624.26	1718.25
624.45	1734.63
624.64	1632.23
624.83	1726.44
625.02	1675.24
625.21	1724.39
625.40	1726.44
625.59	1763.30
625.78	1665.00
625.97	1746.92
626.16	1804.26
626.35	1722.34
626.54	1624.04
626.74	1787.88
626.93	1708.01
627.12	1701.86
627.31	1812.45
627.50	1683.43
627.69	1773.54
627.88	1658.85
628.07	1640.42
628.26	1576.94
628.45	1632.23
628.64	1708.01
628.83	1615.85
629.02	1685.48
629.21	1781.73
629.40	1714.15
629.59	1703.91
629.78	1703.91
629.97	1677.29
630.16	1683.43
630.35	1703.91
630.54	1681.38
630.73	1624.04
630.92	1650.66
631.11	1701.86
631.30	1789.92
631.49	1773.54
631.68	1722.34
631.87	1767.40
632.06	1656.81
632.25	1851.36
632.44	1771.49
632.63	1681.38
632.82	1710.05
633.01	1665.00
633.20	1718.25
633.39	1654.76
633.58	1669.09
633.77	1665.00
633.96	1669.09
634.15	1693.67
634.34	1775.59
634.53	1724.39
634.72	1603.56
634.91	1660.90
635.10	1648.61
635.29	1753.06
635.48	1701.86
635.67	1667.05
635.86	1605.61
636.05	1757.16
636.24	1658.85
636.43	1673.19
636.62	1689.57
636.81	1531.88
637.00	1712.10
637.19	1802.21
637.38	1728.49
637.57	1650.66
637.76	1652.71
637.95	1740.77
638.14	1703.91
638.33	1716.20
638.52	1699.81
638.71	1660.90
638.89	1654.76
639.08	1787.88
639.27	1691.62
639.46	1624.04
639.65	1783.78
639.84	1714.15
640.03	1744.87
640.22	1705.96
640.41	1843.17
640.60	1626.09
640.79	1677.29
640.98	1722.34
641.17	1720.29
641.36	1755.11
641.55	1734.63
641.74	1576.94
641.92	1665.00
642.11	1662.95
642.30	1671.14
642.49	1708.01
642.68	1693.67
642.87	1693.67
643.06	1748.97
643.25	1687.53
643.44	1665.00
643.63	1679.33
643.82	1722.34
644.00	1638.38
644.19	1691.62
644.38	1671.14
644.57	1816.55
644.76	1701.86
644.95	1736.68
645.14	1714.15
645.33	1667.05
645.52	1675.24
645.71	1744.87
645.89	1642.47
646.08	1689.57
646.27	1671.14
646.46	1830.88
646.65	1601.51
646.84	1722.34
647.03	1613.80
647.22	1767.40
647.40	1730.53
647.59	1646.57
647.78	1613.80
647.97	1691.62
648.16	1640.42
648.35	1765.35
648.54	1757.16
648.73	1708.01
648.91	1765.35
649.10	1724.39
649.29	1683.43
649.48	1710.05
649.67	1757.16
649.86	1689.57
650.05	1685.48
650.23	1724.39
650.42	1673.19
650.61	1724.39
650.80	1689.57
650.99	1804.26
651.18	1722.34
651.36	1738.73
651.55	1658.85
651.74	1730.53
651.93	1648.61
652.12	1697.77
652.31	1652.71
652.49	1681.38
652.68	1679.33
652.87	1794.02
653.06	1681.38
653.25	1759.21
653.44	1656.81
653.62	1796.07
653.81	1638.38
654.00	1646.57
654.19	1746.92
654.38	1880.04
654.56	1685.48
654.75	1701.86
654.94	1796.07
655.13	1722.34
655.32	1710.05
655.51	1699.81
655.69	1656.81
655.88	1783.78
656.07	1605.61
656.26	1728.49
656.45	1597.42
656.63	1695.72
656.82	1695.72
657.01	1697.77
657.20	1636.33
657.38	1748.97
657.57	1665.00
657.76	1640.42
657.95	1757.16
658.14	1662.95
658.32	1693.67
658.51	1640.42
658.70	1697.77
658.89	1742.82
659.08	1738.73
659.26	1908.71
659.45	1652.71
659.64	1726.44
659.83	1624.04
660.01	1857.51
660.20	1744.87
660.39	1888.23
660.58	1576.94
660.76	1697.77
660.95	1640.42
661.14	1644.52
661.33	1644.52
661.51	1701.86
661.70	1636.33
661.89	1785.83
662.08	1638.38
662.26	1650.66
662.45	1658.85
662.64	1785.83
662.83	1783.78
663.01	1662.95
663.20	1689.57
663.39	1658.85
663.58	1687.53
663.76	1677.29
663.95	1675.24
664.14	1611.75
664.32	1650.66
664.51	1671.14
664.70	1617.90
664.89	1726.44
665.07	1632.23
665.26	1757.16
665.45	1624.04
665.64	1804.26
665.82	1701.86
666.01	1757.16
666.20	1673.19
666.38	1785.83
666.57	1814.50
666.76	2213.85
666.95	4495.29
667.13	10534.75
667.32	15621.91
667.51	18282.22
667.69	19637.97
667.88	18095.85
668.07	12517.18
668.25	9578.35
668.44	8306.56
668.63	7403.41
668.81	7006.10
669.00	6334.37
669.19	5832.62
669.38	5294.00
669.56	4718.52
669.75	4024.26
669.94	3549.13
670.12	2944.98
670.31	2627.54
670.50	2336.73
670.68	2080.74
670.87	1880.04
671.06	1832.93
671.24	1787.88
671.43	1705.96
671.62	1740.77
671.80	1656.81
671.99	1746.92
672.18	1783.78
672.36	1746.92
672.55	1703.91
672.74	1687.53
672.92	1677.29
673.11	1742.82
673.29	1591.27
673.48	1746.92
673.67	1697.77
673.85	1837.03
674.04	1636.33
674.23	1748.97
674.41	1808.36
674.60	1609.70
674.79	1648.61
674.97	1695.72
675.16	1753.06
675.34	1732.58
675.53	1665.00
675.72	1710.05
675.90	1779.68
676.09	1640.42
676.28	1699.81
676.46	1607.66
676.65	1738.73
676.83	1695.72
677.02	1667.05
677.21	1650.66
677.39	1710.05
677.58	1722.34
677.77	1677.29
677.95	1691.62
678.14	1660.90
678.32	1724.39
678.51	1681.38
678.70	1855.46
678.88	1648.61
679.07	1730.53
679.25	1710.05
679.44	1603.56
679.63	1636.33
679.81	1744.87
680.00	1757.16
680.18	1708.01
680.37	1771.49
680.55	1658.85
680.74	1650.66
680.93	1634.28
681.11	1665.00
681.30	1667.05
681.48	1710.05
681.67	1662.95
681.85	1660.90
682.04	1738.73
682.23	1683.43
682.41	1669.09
682.60	1705.96
682.78	1716.20
682.97	1654.76
683.15	1757.16
683.34	1673.19
683.53	1820.64
683.71	1636.33
683.90	1853.41
684.08	1753.06
684.27	1595.37
684.45	1689.57
684.64	1724.39
684.82	1642.47
685.01	1669.09
685.19	1697.77
685.38	1757.16
685.57	1705.96
685.75	1603.56
685.94	1722.34
686.12	1708.01
686.31	1603.56
686.49	1789.92
686.68	1685.48
686.86	1763.30
687.05	1638.38
687.23	1794.02
687.42	1671.14
687.60	1632.23
687.79	1800.16
687.97	1736.68
688.16	1665.00
688.34	1767.40
688.53	1621.99
688.71	1753.06
688.90	1740.77
689.08	1587.18
689.27	1636.33
689.45	1755.11
689.64	1738.73
689.82	1650.66
690.01	1712.10
690.19	1730.53
690.38	1644.52
690.56	1744.87
690.75	1591.27
690.93	1681.38
691.12	1679.33
691.30	1802.21
691.49	1615.85
691.67	1662.95
691.86	1814.50
692.04	1662.95
692.23	1701.86
692.41	1708.01
692.60	1814.50
692.78	1718.25
692.97	1675.24
693.15	1738.73
693.34	1822.69
693.52	1812.45
693.71	1689.57
693.89	1644.52
694.08	1589.22
694.26	1753.06
694.44	1748.97
694.63	1624.04
694.81	1648.61
695.00	1642.47
695.18	1775.59
695.37	1837.03
695.55	1732.58
695.74	1677.29
695.92	1642.47
696.10	1738.73
696.29	1701.86
696.47	1689.57
696.66	1665.00
696.84	1683.43
697.03	1744.87
697.21	1794.02
697.40	2246.62
697.58	1820.64
697.76	1640.42
697.95	1673.19
698.13	1587.18
698.32	1638.38
698.50	1652.71
698.68	1689.57
698.87	1689.57
699.05	1787.88
699.24	1705.96
699.42	1642.47
699.61	1742.82
699.79	1701.86
699.97	1710.05
700.16	1675.24
700.34	1624.04
700.53	1697.77
700.71	1738.73
700.89	1802.21
701.08	1720.29
701.26	1710.05
701.45	2027.49
701.63	1671.14
701.81	1708.01
702.00	1722.34
702.18	1687.53
702.37	1656.81
702.55	1699.81
702.73	1673.19
702.92	1654.76
703.10	1675.24
703.28	1728.49
703.47	1603.56
703.65	1771.49
703.84	1771.49
704.02	1673.19
704.20	1769.44
704.39	1654.76
704.57	1708.01
704.75	1765.35
704.94	1773.54
705.12	1677.29
705.30	1796.07
705.49	2263.01
705.67	4503.48
705.86	9824.11
706.04	13010.75
706.22	15062.81
706.41	15834.89
706.59	14151.46
706.77	9967.46
706.96	7579.53
707.14	6782.87
707.32	6160.29
707.51	5699.50
707.69	4995.00
707.87	4394.94
708.06	3682.25
708.24	2994.13
708.42	2500.57
708.61	2334.68
708.79	1945.57
708.97	1894.37
709.16	1757.16
709.34	1724.39
709.52	1722.34
709.71	1714.15
709.89	1775.59
710.07	1746.92
710.26	1714.15
710.44	1726.44
710.62	1759.21
710.80	1695.72
710.99	1796.07
711.17	1736.68
711.35	1621.99
711.54	1644.52
711.72	1736.68
711.90	1785.83
712.09	1605.61
712.27	1730.53
712.45	1683.43
712.63	1677.29
712.82	1667.05
713.00	1697.77
713.18	1720.29
713.37	1748.97
713.55	1800.16
713.73	1734.63
713.91	1751.01
714.10	1683.43
714.28	1650.66
714.46	1726.44
714.65	1615.85
714.83	1669.09
715.01	1742.82
715.19	1681.38
715.38	1665.00
715.56	1720.29
715.74	1621.99
715.92	1626.09
716.11	1781.73
716.29	1572.84
716.47	1626.09
716.65	1634.28
716.84	1578.98
717.02	1728.49
717.20	1566.70
717.38	1703.91
717.57	1611.75
717.75	1718.25
717.93	1681.38
718.11	1656.81
718.30	1644.52
718.48	1800.16
718.66	1691.62
718.84	1804.26
719.03	1621.99
719.21	1648.61
719.39	1828.84
719.57	1705.96
719.75	1718.25
719.94	1619.94
720.12	1656.81
720.30	1720.29
720.48	1775.59
720.67	1693.67
720.85	1691.62
721.03	1695.72
721.21	1630.18
721.39	1785.83
721.58	1703.91
721.76	1701.86
721.94	1673.19
722.12	1736.68
722.30	1703.91
722.49	1644.52
722.67	1671.14
722.85	1720.29
723.03	1687.53
723.21	1609.70
723.40	1785.83
723.58	1740.77
723.76	1724.39
723.94	1705.96
724.12	1757.16
724.30	1771.49
724.49	1652.71
724.67	1646.57
724.85	1765.35
725.03	1599.46
725.21	1826.79
725.40	1746.92
725.58	1624.04
725.76	1810.40
725.94	1730.53
726.12	1648.61
726.30	1714.15
726.49	1624.04
726.67	1693.67
726.85	1755.11
727.03	1789.92
727.21	2160.61
727.39	2893.78
727.57	3839.94
727.76	4278.21
727.94	4609.98
728.12	4319.17
728.30	3815.37
728.48	3055.57
728.66	2611.16
728.84	2506.71
729.03	2267.10
729.21	2158.56
729.39	1912.80
729.57	1837.03
729.75	1845.22
729.93	1877.99
730.11	1685.48
730.30	1654.76
730.48	1701.86
730.66	1759.21
730.84	1757.16
731.02	1701.86
731.20	1658.85
731.38	1648.61
731.56	1624.04
731.74	1607.66
731.93	1695.72
732.11	1679.33
732.29	1658.85
732.47	1699.81
732.65	1734.63
732.83	1773.54
733.01	1730.53
733.19	1679.33
733.37	1765.35
733.56	1712.10
733.74	1632.23
733.92	1808.36
734.10	1755.11
734.28	1665.00
734.46	1665.00
734.64	1671.14
734.82	1710.05
735.00	1695.72
735.18	1648.61
735.36	1742.82
735.54	1689.57
735.73	1710.05
735.91	1722.34
736.09	1738.73
736.27	1675.24
736.45	1599.46
736.63	1675.24
736.81	1677.29
736.99	1699.81
737.17	1669.09
737.35	1660.90
737.53	1718.25
737.71	1615.85
737.89	1720.29
738.07	1705.96
738.25	1665.00
738.43	1601.51
738.61	1611.75
738.80	1624.04
738.98	1611.75
739.16	1675.24
739.34	1658.85
739.52	1769.44
739.70	1722.34
739.88	1699.81
740.06	1779.68
740.24	1624.04
740.42	1812.45
740.60	1640.42
740.78	1695.72
740.96	1605.61
741.14	1611.75
741.32	1632.23
741.50	1624.04
741.68	1861.60
741.86	1757.16
742.04	1705.96
742.22	1642.47
742.40	1701.86
742.58	1759.21
742.76	1650.66
742.94	1740.77
743.12	1640.42
743.30	1798.12
743.48	1728.49
743.66	1630.18
743.84	1722.34
744.02	1693.67
744.20	1589.22
744.38	1662.95
744.56	1585.13
744.74	1748.97
744.92	1785.83
745.10	1722.34
745.28	1732.58
745.46	1738.73
745.64	1681.38
745.82	1691.62
746.00	1753.06
746.18	1705.96
746.36	1615.85
746.54	1689.57
746.72	1654.76
746.90	1671.14
747.08	1718.25
747.26	1724.39
747.44	1705.96
747.62	1761.25
747.80	1724.39
747.98	1650.66
748.15	1621.99
748.33	1820.64
748.51	1701.86
748.69	1714.15
748.87	1597.42
749.05	1681.38
749.23	1658.85
749.41	1742.82
749.59	1720.29
749.77	1662.95
749.95	1701.86
750.13	1667.05
750.31	1757.16
750.49	1619.94
750.67	1740.77
750.85	1742.82
751.03	1730.53
751.20	1814.50
751.38	1705.96
751.56	1593.32
751.74	1669.09
751.92	1691.62
752.10	1624.04
752.28	1712.10
752.46	1638.38
752.64	1587.18
752.82	1775.59
753.00	1761.25
753.18	1681.38
753.35	1705.96
753.53	1656.81
753.71	1669.09
753.89	1683.43
754.07	1638.38
754.25	1697.77
754.43	1662.95
754.61	1654.76
754.79	1665.00
754.97	1656.81
755.14	1761.25
755.32	1593.32
755.50	1736.68
755.68	1763.30
755.86	1624.04
756.04	1691.62
756.22	1570.79
756.40	1742.82
756.57	1830.88
756.75	1746.92
756.93	1732.58
757.11	1751.01
757.29	1650.66
757.47	1617.90
757.65	1621.99
757.82	1581.03
758.00	1681.38
758.18	1665.00
758.36	1621.99
758.54	1775.59
758.72	1585.13
758.90	1738.73
759.07	1691.62
759.25	1613.80
759.43	1726.44
759.61	1570.79
759.79	2152.42
759.97	1742.82
760.15	1714.15
760.32	1658.85
760.50	1763.30
760.68	1744.87
760.86	1628.14
761.04	1642.47
761.22	1748.97
761.39	1626.09
761.57	1720.29
761.75	1685.48
761.93	1699.81
762.11	1697.77
762.28	1734.63
762.46	1632.23
762.64	1806.31
762.82	1574.89
763.00	1671.14
763.18	1777.64
763.35	1538.02
763.53	1699.81
763.71	1712.10
763.89	1687.53
764.07	1740.77
764.24	1697.77
764.42	1775.59
764.60	1726.44
764.78	1746.92
764.96	1681.38
765.13	1808.36
765.31	1675.24
765.49	1763.30
765.67	1589.22
765.84	1669.09
766.02	1673.19
766.20	1648.61
766.38	1705.96
766.56	1724.39
766.73	1755.11
766.91	1685.48
767.09	1746.92
767.27	1687.53
767.44	1611.75
767.62	1665.00
767.80	1728.49
767.98	1660.90
768.15	1660.90
768.33	1720.29
768.51	1746.92
768.69	1695.72
768.87	1736.68
769.04	1621.99
769.22	1767.40
769.40	1781.73
769.58	1863.65
769.75	1783.78
769.93	1804.26
770.11	1640.42
770.28	1628.14
770.46	1767.40
770.64	1685.48
770.82	1660.90
770.99	1689.57
771.17	1718.25
771.35	1646.57
771.53	1730.53
771.70	1732.58
771.88	1691.62
772.06	1673.19
772.23	1673.19
772.41	1708.01
772.59	1583.08
772.77	1632.23
772.94	1675.24
773.12	1691.62
773.30	1701.86
773.47	1712.10
773.65	1665.00
773.83	1794.02
774.01	1701.86
774.18	1624.04
774.36	1658.85
774.54	1640.42
774.71	1658.85
774.89	1648.61
775.07	1546.22
775.24	1677.29
775.42	1708.01
775.60	1775.59
775.78	1677.29
775.95	1636.33
776.13	1533.93
776.31	1634.28
776.48	1697.77
776.66	1744.87
776.84	1617.90
777.01	1650.66
777.19	1624.04
777.37	1718.25
777.54	1703.91
777.72	1818.60
777.90	1781.73
778.07	1621.99
778.25	1900.52
778.43	1710.05
778.60	1726.44
778.78	1759.21
778.96	1765.35
779.13	1722.34
779.31	1693.67
779.49	1687.53
779.66	1753.06
779.84	1730.53
780.01	1605.61
780.19	1611.75
780.37	1753.06
780.54	1646.57
780.72	1624.04
780.90	1662.95
781.07	1761.25
781.25	1671.14
781.43	1714.15
781.60	1671.14
781.78	1767.40
781.95	1685.48
782.13	1712.10
782.31	1640.42
782.48	1654.76
782.66	1656.81
782.83	1818.60
783.01	1775.59
783.19	1689.57
783.36	1679.33
783.54	1593.32
783.72	1751.01
783.89	1742.82
784.07	1683.43
784.24	1724.39
784.42	1736.68
784.60	1710.05
784.77	1724.39
784.95	1533.93
785.12	1677.29
785.30	1679.33
785.47	1652.71
785.65	1642.47
785.83	1667.05
786.00	1628.14
786.18	1644.52
786.35	1589.22
786.53	1619.94
786.71	1697.77
786.88	1710.05
787.06	1802.21
787.23	1728.49
787.41	1585.13
787.58	1630.18
787.76	1687.53
787.94	1695.72
788.11	1630.18
788.29	1613.80
788.46	1703.91
788.64	1638.38
788.81	1689.57
788.99	1632.23
789.16	1548.26
789.34	1630.18
789.52	1642.47
789.69	1679.33
789.87	1646.57
790.04	1720.29
790.22	1615.85
790.39	1787.88
790.57	1632.23
790.74	1593.32
790.92	1791.97
791.09	1662.95
791.27	1710.05
791.44	1740.77
791.62	1669.09
791.79	1769.44
791.97	1710.05
792.15	1791.97
792.32	1742.82
792.50	1703.91
792.67	1818.60
792.85	1744.87
793.02	1679.33
793.20	1665.00
793.37	1693.67
793.55	1701.86
793.72	1603.56
793.90	1654.76
794.07	1658.85
794.25	1654.76
794.42	1769.44
794.60	1730.53
794.77	1683.43
794.95	1796.07
795.12	1736.68
795.30	1624.04
795.47	1576.94
795.65	1910.75
795.82	1720.29
796.00	1673.19
796.17	1777.64
796.34	1673.19
796.52	1683.43
796.69	1687.53
796.87	1708.01
797.04	1689.57
797.22	1769.44
797.39	1636.33
797.57	1662.95
797.74	1708.01
797.92	1748.97
798.09	1681.38
798.27	1763.30
798.44	1648.61
798.62	1646.57
798.79	1697.77
798.96	1681.38
799.14	1691.62
799.31	1888.23
799.49	1617.90
799.66	1660.90
799.84	1751.01
800.01	1591.27
800.19	1724.39
800.36	1542.12
800.53	1673.19
800.71	1648.61
800.88	1798.12
801.06	1628.14
801.23	1687.53
801.41	1638.38
801.58	1656.81
801.75	1689.57
801.93	1693.67
802.10	1746.92
802.28	1662.95
802.45	1603.56
802.63	1767.40
802.80	1769.44
802.97	1669.09
803.15	1621.99
803.32	1615.85
803.50	1644.52
803.67	1667.05
803.84	1626.09
804.02	1654.76
804.19	1683.43
804.37	1521.64
804.54	1654.76
804.71	1665.00
804.89	1742.82
805.06	1658.85
805.24	1624.04
805.41	1656.81
805.58	1630.18
805.76	1834.98
805.93	1677.29
806.10	1834.98
806.28	1730.53
806.45	1689.57
806.63	1685.48
806.80	1644.52
806.97	1689.57
807.15	1652.71
807.32	1728.49
807.49	1673.19
807.67	1640.42
807.84	1646.57
808.01	1589.22
808.19	1757.16
808.36	1808.36
808.54	1603.56
808.71	1671.14
808.88	1689.57
809.06	1699.81
809.23	1757.16
809.40	1650.66
809.58	1769.44
809.75	1673.19
809.92	1652.71
810.10	1820.64
810.27	1705.96
810.44	1699.81
810.62	1726.44
810.79	1691.62
810.96	1540.07
811.14	1691.62
811.31	1724.39
811.48	1724.39
811.66	1693.67
811.83	1806.31
812.00	1708.01
812.18	1744.87
812.35	1742.82
812.52	1611.75
812.69	1683.43
812.87	1685.48
813.04	1689.57
813.21	1624.04
813.39	1644.52
813.56	1617.90
813.73	1701.86
813.91	1640.42
814.08	1683.43
814.25	1710.05
814.42	1599.46
814.60	1699.81
814.77	1726.44
814.94	1697.77
815.12	1693.67
815.29	1748.97
815.46	1685.48
815.63	1673.19
815.81	1617.90
815.98	1607.66
816.15	1658.85
816.33	1683.43
816.50	1708.01
816.67	1650.66
816.84	1714.15
817.02	1585.13
817.19	1630.18
817.36	1634.28
817.53	1679.33
817.71	1574.89
817.88	1771.49
818.05	1652.71
818.22	1642.47
818.40	1738.73
818.57	1703.91
818.74	1718.25
818.91	1605.61
819.09	1802.21
819.26	1695.72
819.43	1628.14
819.60	1632.23
819.78	1685.48
819.95	1775.59
820.12	1601.51
820.29	1746.92
820.47	1796.07
820.64	1765.35
820.81	1628.14
820.98	1675.24
821.15	1599.46
821.33	1705.96
821.50	1624.04
821.67	1730.53
821.84	1642.47
822.02	1685.48
822.19	1712.10
822.36	1619.94
822.53	1607.66
822.70	1621.99
822.88	1648.61
823.05	1755.11
823.22	1630.18
823.39	1648.61
823.56	1665.00
823.74	1771.49
823.91	1708.01
824.08	1640.42
824.25	1607.66
824.42	1839.08
824.60	1626.09
824.77	1675.24
824.94	1705.96
825.11	1660.90
825.28	1497.07
825.45	1712.10
825.63	1640.42
825.80	1621.99
825.97	1730.53
826.14	1710.05
826.31	1621.99
826.48	1746.92
826.66	1595.37
826.83	1665.00
827.00	1662.95
827.17	1648.61
827.34	1646.57
827.51	1652.71
827.69	1656.81
827.86	1650.66
828.03	1677.29
828.20	1642.47
828.37	1710.05
828.54	1656.81
828.71	1681.38
828.89	1718.25
829.06	1697.77
829.23	1759.21
829.40	1675.24
829.57	1636.33
829.74	1746.92
829.91	1689.57
830.09	1652.71
830.26	1677.29
830.43	1722.34
830.60	1660.90
830.77	1771.49
830.94	1685.48
831.11	1775.59
831.28	1626.09
831.46	1718.25
831.63	1646.57
831.80	1742.82
831.97	1646.57
832.14	1503.21
832.31	1685.48
832.48	1738.73
832.65	1708.01
832.82	1683.43
832.99	1773.54
833.17	1617.90
833.34	1775.59
833.51	1689.57
833.68	1658.85
833.85	1691.62
834.02	1599.46
834.19	1658.85
834.36	1656.81
834.53	1689.57
834.70	1740.77
834.87	1753.06
835.04	1677.29
835.22	1595.37
835.39	1693.67
835.56	1603.56
835.73	1642.47
835.90	1767.40
836.07	1691.62
836.24	1736.68
836.41	1603.56
836.58	1656.81
836.75	1728.49
836.92	1679.33
837.09	1683.43
837.26	1736.68
837.43	1697.77
837.60	1757.16
837.77	1689.57
837.94	1734.63
838.12	1777.64
838.29	1712.10
838.46	1644.52
838.63	1599.46
838.80	1757.16
838.97	1693.67
839.14	1724.39
839.31	1632.23
839.48	1697.77
839.65	1648.61
839.82	1716.20
839.99	1677.29
840.16	1710.05
840.33	1679.33
840.50	1675.24
840.67	1615.85
840.84	1578.98
841.01	1603.56
841.18	1630.18
841.35	1693.67
841.52	1718.25
841.69	1812.45
841.86	1636.33
842.03	1722.34
842.20	1695.72
842.37	1728.49
842.54	1724.39
842.71	1718.25
842.88	1679.33
843.05	1763.30
843.22	1628.14
843.39	1701.86
843.56	1603.56
843.73	1671.14
843.90	1648.61
844.07	1718.25
844.24	1685.48
844.41	1710.05
844.58	1656.81
844.75	1693.67
844.92	1716.20
845.09	1652.71
845.26	1753.06
845.43	1751.01
845.60	1675.24
845.77	1742.82
845.94	1705.96
846.10	1769.44
846.27	1554.41
846.44	1599.46
846.61	1568.74
846.78	1689.57
846.95	1781.73
847.12	1624.04
847.29	1681.38
847.46	1656.81
847.63	1742.82
847.80	1669.09
847.97	1636.33
848.14	1734.63
848.31	1748.97
848.48	1640.42
848.65	1748.97
848.82	1615.85
848.98	1757.16
849.15	1689.57
849.32	1703.91
849.49	1697.77
849.66	1730.53
849.83	1654.76
850.00	1621.99
850.17	1703.91
850.34	1722.34
850.51	1650.66
850.68	1732.58
850.85	1812.45
851.01	1699.81
851.18	1740.77
851.35	1738.73
851.52	1689.57
851.69	1787.88
851.86	1652.71
852.03	1712.10
852.20	1669.09
852.37	1681.38
852.53	1644.52
852.70	1720.29
852.87	1742.82
853.04	1624.04
853.21	1665.00
853.38	1689.57
853.55	1767.40
853.72	1685.48
853.89	1599.46
854.05	1720.29
854.22	1585.13
854.39	1644.52
854.56	1646.57
854.73	1734.63
854.90	1683.43
855.07	1652.71
855.23	1578.98
855.40	1726.44
855.57	1685.48
855.74	1562.60
855.91	1877.99
856.08	1652.71
856.25	1583.08
856.41	1632.23
856.58	1669.09
856.75	1693.67
856.92	1615.85
857.09	1769.44
857.26	1552.36
857.42	1658.85
857.59	1742.82
857.76	1572.84
857.93	1654.76
858.10	1714.15
858.27	1654.76
858.43	1640.42
858.60	1662.95
858.77	1542.12
858.94	1699.81
859.11	1736.68
859.27	1751.01
859.44	1744.87
859.61	1800.16
859.78	1746.92
859.95	1601.51
860.12	1673.19
860.28	1783.78
860.45	1767.40
860.62	1642.47
860.79	1687.53
860.95	1677.29
861.12	1654.76
861.29	1699.81
861.46	1591.27
861.63	1652.71
861.79	1716.20
861.96	1632.23
862.13	1665.00
862.30	1759.21
862.47	1640.42
862.63	1746.92
862.80	1746.92
862.97	1759.21
863.14	1681.38
863.30	1673.19
863.47	1689.57
863.64	1708.01
863.81	1673.19
863.97	1695.72
864.14	1691.62
864.31	1654.76
864.48	1718.25
864.65	1646.57
864.81	1673.19
864.98	1660.90
865.15	1734.63
865.32	1734.63
865.48	1712.10
865.65	1730.53
865.82	1634.28
865.98	1648.61
866.15	1755.11
866.32	1683.43
866.49	1621.99
866.65	1791.97
866.82	1634.28
866.99	1689.57
867.16	1656.81
867.32	1638.38
867.49	1689.57
867.66	1669.09
867.83	1658.85
867.99	1638.38
868.16	1652.71
868.33	1634.28
868.49	1681.38
868.66	1615.85
868.83	1818.60
868.99	1685.48
869.16	1689.57
869.33	1726.44
869.50	1710.05
869.66	1726.44
869.83	1578.98
870.00	1648.61
870.16	1773.54
870.33	1691.62
870.50	1742.82
870.66	1632.23
870.83	1859.56
871.00	1701.86
871.17	1675.24
871.33	1705.96
871.50	1726.44
871.67	1714.15
871.83	1640.42
872.00	1744.87
872.17	1716.20
872.33	1742.82
872.50	1658.85
872.67	1605.61
872.83	1644.52
873.00	1746.92
873.17	1658.85
873.33	1800.16
873.50	1751.01
873.67	1609.70
873.83	1691.62
874.00	1656.81
874.16	1714.15
874.33	1656.81
874.50	1650.66
874.66	1691.62
874.83	1732.58
875.00	1697.77
875.16	1685.48
875.33	1742.82
875.50	1646.57
875.66	1656.81
875.83	1658.85
875.99	1667.05
876.16	1675.24
876.33	1675.24
876.49	1671.14
876.66	1755.11
876.83	1732.58
876.99	1658.85
877.16	1669.09
877.32	1652.71
877.49	1787.88
877.66	1736.68
877.82	1693.67
877.99	1722.34
878.15	1736.68
878.32	1742.82
878.49	1767.40
878.65	1681.38
878.82	1748.97
878.98	1693.67
879.15	1777.64
879.32	1689.57
879.48	1703.91
879.65	1673.19
879.81	1699.81
879.98	1701.86
880.15	1656.81
880.31	1771.49
880.48	1578.98
880.64	1730.53
880.81	1822.69
880.97	1732.58
881.14	1794.02
881.31	1650.66
881.47	1789.92
881.64	1677.29
881.80	1632.23
881.97	1667.05
882.13	1816.55
882.30	1667.05
882.47	1708.01
882.63	1712.10
882.80	1681.38
882.96	1691.62
883.13	1783.78
883.29	1619.94
883.46	1712.10
883.62	1736.68
883.79	1652.71
883.95	1759.21
884.12	1785.83
884.29	1681.38
884.45	1669.09
884.62	1757.16
884.78	1654.76
884.95	1726.44
885.11	1671.14
885.28	1724.39
885.44	1691.62
885.61	1673.19
885.77	1656.81
885.94	1671.14
886.10	1679.33
886.27	1683.43
886.43	1804.26
886.60	1689.57
886.76	1701.86
886.93	1681.38
887.09	1685.48
887.26	1601.51
887.42	1701.86
887.59	1636.33
887.75	1781.73
887.92	1757.16
888.08	1699.81
888.25	1804.26
888.41	1802.21
888.58	1718.25
888.74	1669.09
888.91	1640.42
>>>>>End Processed Spectral Data<<<<<
