SpectraSuite Data File
++++++++++++++++++++++++++++++++++++
Date: Mon Jun 06 16:14:57 CEST 2016
User: root
Dark Spectrum Present: No
Reference Spectrum Present: No
Number of Sampled Component Spectra: 1
Spectrometers: USB4C02835
Integration Time (usec): 100000 (USB4C02835)
Spectra Averaged: 1 (USB4C02835)
Boxcar Smoothing: 0 (USB4C02835)
Correct for Electrical Dark: No (USB4C02835)
Strobe/Lamp Enabled: No (USB4C02835)
Correct for Detector Non-linearity: No (USB4C02835)
Correct for Stray Light: No (USB4C02835)
Number of Pixels in Processed Spectrum: 3648
>>>>>Begin Processed Spectral Data<<<<<
177.47	1509.35
177.69	1509.35
177.91	1509.35
178.13	1449.96
178.36	1482.73
178.58	1691.62
178.80	1759.21
179.02	1585.13
179.24	1671.14
179.46	1669.09
179.68	1814.50
179.90	1677.29
180.13	1699.81
180.35	1728.49
180.57	1650.66
180.79	1683.43
181.01	1716.20
181.23	1748.97
181.45	1779.68
181.67	1767.40
181.90	1794.02
182.12	1642.47
182.34	1556.46
182.56	1763.30
182.78	1775.59
183.00	1677.29
183.22	1708.01
183.44	1630.18
183.66	1851.36
183.89	1804.26
184.11	1705.96
184.33	1740.77
184.55	1763.30
184.77	1683.43
184.99	1710.05
185.21	1722.34
185.43	1789.92
185.65	1669.09
185.87	1710.05
186.10	1861.60
186.32	1863.65
186.54	1746.92
186.76	1802.21
186.98	1662.95
187.20	1681.38
187.42	1656.81
187.64	1708.01
187.86	1728.49
188.08	1726.44
188.30	1628.14
188.52	1722.34
188.75	1837.03
188.97	1796.07
189.19	1642.47
189.41	1708.01
189.63	1744.87
189.85	1708.01
190.07	1710.05
190.29	1613.80
190.51	1785.83
190.73	1628.14
190.95	1851.36
191.17	1701.86
191.39	1689.57
191.61	1695.72
191.84	1685.48
192.06	1757.16
192.28	1628.14
192.50	1845.22
192.72	1728.49
192.94	1716.20
193.16	1822.69
193.38	1769.44
193.60	1597.42
193.82	1748.97
194.04	1740.77
194.26	1730.53
194.48	1753.06
194.70	1671.14
194.92	1658.85
195.14	1701.86
195.36	1621.99
195.58	1687.53
195.80	1712.10
196.02	1716.20
196.24	1689.57
196.46	1748.97
196.69	1654.76
196.91	1873.89
197.13	1759.21
197.35	1648.61
197.57	1779.68
197.79	1816.55
198.01	1757.16
198.23	1728.49
198.45	1781.73
198.67	1656.81
198.89	1673.19
199.11	1742.82
199.33	1710.05
199.55	1615.85
199.77	1740.77
199.99	1769.44
200.21	1642.47
200.43	1753.06
200.65	1621.99
200.87	1566.70
201.09	1689.57
201.31	1699.81
201.53	1781.73
201.75	1753.06
201.97	1777.64
202.19	1650.66
202.41	1779.68
202.63	1863.65
202.85	1720.29
203.07	1783.78
203.29	1677.29
203.51	1587.18
203.73	1599.46
203.95	1916.90
204.17	1763.30
204.39	1710.05
204.61	1646.57
204.83	1710.05
205.05	1732.58
205.27	1705.96
205.49	1859.56
205.71	1724.39
205.93	1738.73
206.15	1763.30
206.37	1767.40
206.59	1708.01
206.81	1646.57
207.03	1679.33
207.25	1708.01
207.47	1759.21
207.69	1726.44
207.91	1789.92
208.13	1834.98
208.34	1703.91
208.56	1748.97
208.78	1753.06
209.00	1730.53
209.22	1738.73
209.44	1744.87
209.66	1648.61
209.88	1724.39
210.10	1740.77
210.32	1703.91
210.54	1779.68
210.76	1724.39
210.98	1763.30
211.20	1613.80
211.42	1671.14
211.64	1751.01
211.86	1781.73
212.08	1828.84
212.30	1746.92
212.52	1755.11
212.74	1734.63
212.96	1742.82
213.17	1777.64
213.39	1771.49
213.61	1730.53
213.83	1689.57
214.05	1632.23
214.27	1757.16
214.49	1701.86
214.71	1675.24
214.93	1759.21
215.15	1777.64
215.37	1730.53
215.59	1652.71
215.81	1740.77
216.03	1738.73
216.24	1742.82
216.46	1683.43
216.68	1728.49
216.90	1714.15
217.12	1697.77
217.34	1751.01
217.56	1755.11
217.78	1767.40
218.00	1718.25
218.22	1742.82
218.44	1699.81
218.66	1722.34
218.87	1886.18
219.09	1699.81
219.31	1771.49
219.53	1746.92
219.75	1681.38
219.97	1689.57
220.19	1648.61
220.41	1658.85
220.63	1771.49
220.85	1761.25
221.06	1654.76
221.28	1742.82
221.50	1800.16
221.72	1787.88
221.94	1751.01
222.16	1701.86
222.38	1753.06
222.60	1857.51
222.82	1671.14
223.03	1677.29
223.25	1601.51
223.47	1804.26
223.69	1839.08
223.91	1794.02
224.13	1683.43
224.35	1726.44
224.57	1753.06
224.78	1669.09
225.00	1621.99
225.22	1681.38
225.44	1726.44
225.66	1765.35
225.88	1714.15
226.10	1705.96
226.32	1751.01
226.53	1755.11
226.75	1734.63
226.97	1744.87
227.19	1708.01
227.41	1705.96
227.63	1650.66
227.85	1564.65
228.06	1722.34
228.28	1685.48
228.50	1794.02
228.72	1714.15
228.94	1699.81
229.16	1587.18
229.37	1632.23
229.59	1708.01
229.81	1761.25
230.03	1603.56
230.25	1624.04
230.47	1689.57
230.69	1650.66
230.90	1742.82
231.12	1695.72
231.34	1755.11
231.56	1777.64
231.78	1669.09
232.00	1855.46
232.21	1667.05
232.43	1714.15
232.65	1538.02
232.87	1806.31
233.09	1656.81
233.30	1578.98
233.52	1804.26
233.74	1730.53
233.96	1687.53
234.18	1748.97
234.40	1732.58
234.61	1812.45
234.83	1685.48
235.05	1626.09
235.27	1812.45
235.49	1728.49
235.70	1755.11
235.92	1855.46
236.14	1781.73
236.36	1791.97
236.58	1656.81
236.79	1769.44
237.01	1710.05
237.23	1624.04
237.45	1857.51
237.67	1728.49
237.88	1691.62
238.10	1789.92
238.32	1595.37
238.54	1701.86
238.76	1679.33
238.97	1646.57
239.19	1701.86
239.41	1759.21
239.63	1777.64
239.85	1687.53
240.06	1714.15
240.28	1693.67
240.50	1746.92
240.72	1730.53
240.93	1767.40
241.15	1796.07
241.37	1699.81
241.59	1796.07
241.81	1656.81
242.02	1658.85
242.24	1755.11
242.46	1730.53
242.68	1705.96
242.89	1732.58
243.11	1767.40
243.33	1687.53
243.55	1712.10
243.76	1695.72
243.98	1630.18
244.20	1656.81
244.42	1718.25
244.64	1654.76
244.85	1615.85
245.07	1632.23
245.29	1726.44
245.51	1656.81
245.72	1751.01
245.94	1765.35
246.16	1726.44
246.38	1701.86
246.59	1732.58
246.81	1722.34
247.03	1638.38
247.24	1587.18
247.46	1767.40
247.68	1679.33
247.90	1738.73
248.11	1652.71
248.33	1781.73
248.55	1683.43
248.77	1687.53
248.98	1834.98
249.20	1763.30
249.42	1644.52
249.64	1689.57
249.85	1665.00
250.07	1654.76
250.29	1779.68
250.50	1767.40
250.72	1613.80
250.94	1695.72
251.16	1732.58
251.37	1796.07
251.59	1839.08
251.81	1808.36
252.02	1787.88
252.24	1734.63
252.46	1775.59
252.68	1640.42
252.89	1701.86
253.11	1636.33
253.33	1849.32
253.54	1816.55
253.76	1621.99
253.98	1773.54
254.20	1708.01
254.41	1640.42
254.63	1685.48
254.85	1636.33
255.06	1755.11
255.28	1787.88
255.50	1679.33
255.71	1675.24
255.93	1595.37
256.15	1726.44
256.36	1767.40
256.58	1748.97
256.80	1769.44
257.02	1730.53
257.23	1669.09
257.45	1716.20
257.67	1691.62
257.88	1689.57
258.10	1699.81
258.32	1759.21
258.53	1648.61
258.75	1820.64
258.97	1660.90
259.18	1751.01
259.40	1757.16
259.62	1783.78
259.83	1847.27
260.05	1675.24
260.27	1968.10
260.48	1687.53
260.70	1665.00
260.92	1677.29
261.13	1759.21
261.35	1726.44
261.57	1755.11
261.78	1652.71
262.00	1683.43
262.22	1773.54
262.43	1718.25
262.65	1716.20
262.86	1673.19
263.08	1808.36
263.30	1738.73
263.51	1624.04
263.73	1665.00
263.95	1804.26
264.16	1597.42
264.38	1615.85
264.60	1687.53
264.81	1687.53
265.03	1808.36
265.25	1744.87
265.46	1693.67
265.68	1736.68
265.89	1771.49
266.11	1636.33
266.33	1693.67
266.54	1791.97
266.76	1751.01
266.98	1734.63
267.19	1769.44
267.41	1699.81
267.62	1681.38
267.84	1738.73
268.06	1701.86
268.27	1699.81
268.49	1820.64
268.70	1734.63
268.92	1675.24
269.14	1628.14
269.35	1687.53
269.57	1656.81
269.79	1722.34
270.00	1632.23
270.22	1837.03
270.43	1662.95
270.65	1538.02
270.87	1710.05
271.08	1691.62
271.30	1755.11
271.51	1708.01
271.73	1730.53
271.95	1804.26
272.16	1660.90
272.38	1730.53
272.59	1732.58
272.81	1621.99
273.02	1689.57
273.24	1740.77
273.46	1703.91
273.67	1697.77
273.89	1617.90
274.10	1724.39
274.32	1777.64
274.54	1728.49
274.75	1753.06
274.97	1681.38
275.18	1785.83
275.40	1671.14
275.61	1632.23
275.83	1726.44
276.05	1644.52
276.26	1708.01
276.48	1746.92
276.69	1621.99
276.91	1722.34
277.12	1697.77
277.34	1705.96
277.55	1824.74
277.77	1755.11
277.99	1652.71
278.20	1648.61
278.42	1585.13
278.63	1681.38
278.85	1705.96
279.06	1624.04
279.28	1726.44
279.49	1779.68
279.71	1804.26
279.93	1656.81
280.14	1699.81
280.36	1687.53
280.57	1802.21
280.79	1783.78
281.00	1585.13
281.22	1638.38
281.43	1765.35
281.65	1638.38
281.86	1689.57
282.08	1669.09
282.29	1871.84
282.51	1572.84
282.73	1636.33
282.94	1669.09
283.16	1730.53
283.37	1822.69
283.59	1673.19
283.80	1779.68
284.02	1691.62
284.23	1730.53
284.45	1675.24
284.66	1640.42
284.88	1673.19
285.09	1705.96
285.31	1712.10
285.52	1767.40
285.74	1601.51
285.95	1769.44
286.17	1746.92
286.38	1761.25
286.60	1669.09
286.81	1705.96
287.03	1759.21
287.24	1736.68
287.46	1701.86
287.67	1742.82
287.89	1857.51
288.10	1701.86
288.32	1656.81
288.53	1816.55
288.75	1658.85
288.96	1718.25
289.18	1595.37
289.39	1763.30
289.61	1789.92
289.82	1880.04
290.04	1814.50
290.25	1640.42
290.47	1744.87
290.68	1761.25
290.90	1748.97
291.11	1587.18
291.33	1791.97
291.54	1548.26
291.76	1677.29
291.97	1734.63
292.18	1650.66
292.40	1683.43
292.61	1730.53
292.83	1865.70
293.04	1712.10
293.26	1748.97
293.47	1718.25
293.69	1603.56
293.90	1734.63
294.12	1818.60
294.33	1724.39
294.55	1679.33
294.76	1798.12
294.97	1714.15
295.19	1851.36
295.40	1685.48
295.62	1738.73
295.83	1746.92
296.05	1677.29
296.26	1777.64
296.48	1681.38
296.69	1658.85
296.90	1658.85
297.12	1703.91
297.33	1808.36
297.55	1722.34
297.76	1771.49
297.98	1755.11
298.19	1718.25
298.41	1730.53
298.62	1607.66
298.83	1771.49
299.05	1746.92
299.26	1691.62
299.48	1624.04
299.69	1787.88
299.90	1689.57
300.12	1720.29
300.33	1771.49
300.55	1761.25
300.76	1769.44
300.98	1603.56
301.19	1763.30
301.40	1783.78
301.62	1611.75
301.83	1751.01
302.05	1697.77
302.26	1759.21
302.47	1689.57
302.69	1613.80
302.90	1693.67
303.12	1615.85
303.33	1732.58
303.54	1791.97
303.76	1705.96
303.97	1767.40
304.19	1882.08
304.40	1617.90
304.61	1869.80
304.83	1880.04
305.04	1759.21
305.26	1730.53
305.47	1724.39
305.68	1671.14
305.90	1599.46
306.11	1791.97
306.33	1703.91
306.54	1687.53
306.75	1730.53
306.97	1669.09
307.18	1642.47
307.39	1632.23
307.61	1769.44
307.82	1697.77
308.04	1687.53
308.25	1695.72
308.46	1728.49
308.68	1773.54
308.89	1681.38
309.10	1818.60
309.32	1767.40
309.53	1646.57
309.74	1685.48
309.96	1712.10
310.17	1767.40
310.39	1671.14
310.60	1740.77
310.81	1781.73
311.03	1624.04
311.24	1791.97
311.45	1693.67
311.67	1802.21
311.88	1728.49
312.09	1671.14
312.31	1644.52
312.52	1712.10
312.73	1718.25
312.95	1642.47
313.16	1695.72
313.37	1779.68
313.59	1730.53
313.80	1800.16
314.01	1802.21
314.23	1646.57
314.44	1736.68
314.65	1640.42
314.87	1755.11
315.08	1705.96
315.29	1740.77
315.51	1718.25
315.72	1642.47
315.93	1759.21
316.15	1697.77
316.36	1675.24
316.57	1697.77
316.79	1740.77
317.00	1695.72
317.21	1710.05
317.43	1628.14
317.64	1677.29
317.85	1662.95
318.07	1722.34
318.28	1708.01
318.49	1830.88
318.70	1894.37
318.92	1832.93
319.13	1900.52
319.34	1923.04
319.56	1824.74
319.77	1787.88
319.98	1753.06
320.20	1787.88
320.41	1730.53
320.62	1759.21
320.83	1681.38
321.05	1871.84
321.26	1863.65
321.47	1736.68
321.69	1808.36
321.90	1689.57
322.11	1681.38
322.32	1755.11
322.54	1777.64
322.75	1693.67
322.96	1839.08
323.18	1673.19
323.39	1599.46
323.60	1705.96
323.81	1746.92
324.03	1650.66
324.24	1656.81
324.45	1726.44
324.66	1648.61
324.88	1703.91
325.09	1767.40
325.30	1656.81
325.52	1751.01
325.73	1800.16
325.94	1624.04
326.15	1613.80
326.37	1722.34
326.58	1812.45
326.79	1789.92
327.00	1669.09
327.22	1724.39
327.43	1677.29
327.64	1648.61
327.85	1791.97
328.07	1738.73
328.28	1755.11
328.49	1652.71
328.70	1652.71
328.92	1626.09
329.13	1720.29
329.34	1726.44
329.55	1865.70
329.76	1828.84
329.98	1669.09
330.19	1742.82
330.40	1738.73
330.61	1722.34
330.83	1775.59
331.04	1730.53
331.25	1753.06
331.46	1685.48
331.68	1646.57
331.89	1748.97
332.10	1736.68
332.31	1705.96
332.52	1724.39
332.74	1710.05
332.95	1646.57
333.16	1730.53
333.37	1742.82
333.58	1757.16
333.80	1759.21
334.01	1662.95
334.22	1644.52
334.43	1665.00
334.64	1630.18
334.86	1630.18
335.07	1656.81
335.28	1771.49
335.49	1624.04
335.70	1757.16
335.92	1832.93
336.13	1841.12
336.34	1777.64
336.55	1683.43
336.76	1759.21
336.98	1658.85
337.19	1730.53
337.40	1757.16
337.61	1890.28
337.82	1761.25
338.04	1734.63
338.25	1652.71
338.46	1742.82
338.67	1683.43
338.88	1705.96
339.09	1671.14
339.31	1722.34
339.52	1722.34
339.73	1671.14
339.94	1705.96
340.15	1783.78
340.36	1673.19
340.58	1734.63
340.79	1738.73
341.00	1779.68
341.21	1714.15
341.42	1810.40
341.63	1730.53
341.85	1748.97
342.06	1757.16
342.27	1669.09
342.48	1845.22
342.69	1687.53
342.90	1740.77
343.12	1751.01
343.33	1693.67
343.54	1757.16
343.75	1781.73
343.96	1724.39
344.17	1689.57
344.38	1708.01
344.60	1652.71
344.81	1669.09
345.02	1718.25
345.23	1751.01
345.44	1767.40
345.65	1761.25
345.86	1665.00
346.07	1722.34
346.29	1732.58
346.50	1726.44
346.71	1751.01
346.92	1806.31
347.13	1767.40
347.34	1683.43
347.55	1705.96
347.76	1708.01
347.98	1683.43
348.19	1671.14
348.40	1828.84
348.61	1755.11
348.82	1800.16
349.03	1767.40
349.24	1695.72
349.45	1861.60
349.66	1599.46
349.88	1695.72
350.09	1660.90
350.30	1783.78
350.51	1804.26
350.72	1632.23
350.93	1691.62
351.14	1658.85
351.35	1787.88
351.56	1763.30
351.77	1759.21
351.99	1757.16
352.20	1796.07
352.41	1912.80
352.62	1505.26
352.83	1671.14
353.04	1726.44
353.25	1683.43
353.46	1800.16
353.67	1681.38
353.88	1554.41
354.09	1794.02
354.30	1673.19
354.52	1843.17
354.73	1722.34
354.94	1675.24
355.15	1789.92
355.36	1834.98
355.57	1746.92
355.78	1751.01
355.99	1642.47
356.20	1671.14
356.41	1851.36
356.62	1755.11
356.83	1718.25
357.04	1810.40
357.25	1603.56
357.46	1710.05
357.68	1619.94
357.89	1646.57
358.10	1679.33
358.31	1808.36
358.52	1710.05
358.73	1701.86
358.94	1554.41
359.15	1669.09
359.36	1775.59
359.57	1632.23
359.78	1724.39
359.99	1796.07
360.20	1675.24
360.41	1767.40
360.62	1763.30
360.83	1744.87
361.04	1755.11
361.25	1705.96
361.46	1824.74
361.67	1691.62
361.88	1812.45
362.09	1748.97
362.30	1730.53
362.51	1695.72
362.72	1714.15
362.93	1791.97
363.14	1816.55
363.35	1691.62
363.56	1675.24
363.78	1701.86
363.99	1697.77
364.20	1705.96
364.41	1753.06
364.62	1757.16
364.83	1658.85
365.04	1681.38
365.25	1773.54
365.46	1785.83
365.67	1683.43
365.88	1552.36
366.09	1746.92
366.30	1679.33
366.51	1693.67
366.72	1646.57
366.93	1705.96
367.14	1765.35
367.35	1744.87
367.56	1716.20
367.77	1806.31
367.98	1763.30
368.18	1779.68
368.39	1818.60
368.60	1632.23
368.81	1777.64
369.02	1814.50
369.23	1712.10
369.44	1689.57
369.65	1654.76
369.86	1736.68
370.07	1755.11
370.28	1685.48
370.49	1718.25
370.70	1718.25
370.91	1613.80
371.12	1621.99
371.33	1771.49
371.54	1724.39
371.75	1693.67
371.96	1630.18
372.17	1662.95
372.38	1736.68
372.59	1734.63
372.80	1648.61
373.01	1703.91
373.22	1722.34
373.43	1818.60
373.64	1667.05
373.85	1796.07
374.06	1771.49
374.26	1675.24
374.47	1701.86
374.68	1761.25
374.89	1718.25
375.10	1673.19
375.31	1832.93
375.52	1753.06
375.73	1773.54
375.94	1681.38
376.15	1785.83
376.36	1599.46
376.57	1667.05
376.78	1681.38
376.99	1718.25
377.20	1759.21
377.40	1640.42
377.61	1884.13
377.82	1695.72
378.03	1855.46
378.24	1775.59
378.45	1685.48
378.66	1806.31
378.87	1607.66
379.08	1740.77
379.29	1689.57
379.50	1871.84
379.71	1726.44
379.91	1755.11
380.12	1697.77
380.33	1751.01
380.54	1646.57
380.75	1742.82
380.96	1736.68
381.17	1851.36
381.38	1738.73
381.59	1771.49
381.80	1699.81
382.00	1877.99
382.21	1703.91
382.42	1837.03
382.63	1916.90
382.84	1769.44
383.05	1794.02
383.26	1761.25
383.47	1736.68
383.68	1757.16
383.88	1800.16
384.09	1701.86
384.30	1865.70
384.51	1761.25
384.72	1626.09
384.93	1652.71
385.14	1720.29
385.35	1740.77
385.55	1697.77
385.76	1746.92
385.97	1748.97
386.18	1665.00
386.39	1679.33
386.60	1705.96
386.81	1783.78
387.02	1718.25
387.22	1624.04
387.43	1816.55
387.64	1751.01
387.85	1853.41
388.06	2230.24
388.27	4229.06
388.48	6793.11
388.68	8310.66
388.89	9674.60
389.10	9774.95
389.31	8783.74
389.52	7567.24
389.73	6680.47
389.93	6309.79
390.14	5746.60
390.35	5164.98
390.56	4671.42
390.77	3762.12
390.98	3033.04
391.18	2508.76
391.39	2125.79
391.60	1908.71
391.81	1849.32
392.02	1722.34
392.23	1900.52
392.43	1742.82
392.64	1736.68
392.85	1732.58
393.06	1853.41
393.27	1734.63
393.47	1714.15
393.68	1671.14
393.89	1703.91
394.10	1763.30
394.31	1730.53
394.52	1693.67
394.72	1638.38
394.93	1775.59
395.14	1689.57
395.35	1763.30
395.56	1619.94
395.76	1720.29
395.97	1783.78
396.18	1808.36
396.39	1871.84
396.60	2039.78
396.80	1943.52
397.01	1849.32
397.22	1857.51
397.43	1898.47
397.64	1748.97
397.84	1765.35
398.05	1828.84
398.26	1755.11
398.47	1785.83
398.67	1738.73
398.88	1798.12
399.09	1779.68
399.30	1697.77
399.51	1787.88
399.71	1662.95
399.92	1748.97
400.13	1697.77
400.34	1615.85
400.54	1755.11
400.75	1787.88
400.96	1757.16
401.17	1859.56
401.37	1763.30
401.58	1742.82
401.79	1742.82
402.00	1822.69
402.21	2121.70
402.41	1990.63
402.62	1996.77
402.83	2103.26
403.04	2029.54
403.24	2052.06
403.45	1818.60
403.66	1966.05
403.87	1861.60
404.07	1902.56
404.28	1906.66
404.49	1920.99
404.70	1753.06
404.90	1755.11
405.11	1798.12
405.32	1730.53
405.52	1701.86
405.73	1705.96
405.94	1642.47
406.15	1617.90
406.35	1740.77
406.56	1796.07
406.77	1759.21
406.98	1718.25
407.18	1771.49
407.39	1775.59
407.60	1736.68
407.80	1773.54
408.01	1693.67
408.22	1722.34
408.43	1669.09
408.63	1691.62
408.84	1769.44
409.05	1738.73
409.25	1652.71
409.46	1669.09
409.67	1656.81
409.88	1654.76
410.08	1802.21
410.29	1681.38
410.50	1751.01
410.70	1761.25
410.91	1693.67
411.12	1677.29
411.32	1695.72
411.53	1652.71
411.74	1882.08
411.95	1798.12
412.15	1863.65
412.36	1880.04
412.57	1775.59
412.77	1744.87
412.98	1787.88
413.19	1740.77
413.39	1724.39
413.60	1761.25
413.81	1814.50
414.01	1646.57
414.22	1789.92
414.43	1832.93
414.63	1691.62
414.84	1867.75
415.05	1755.11
415.25	1624.04
415.46	1744.87
415.67	1660.90
415.87	1775.59
416.08	1658.85
416.29	1720.29
416.49	1746.92
416.70	1769.44
416.91	1667.05
417.11	1785.83
417.32	1796.07
417.53	1751.01
417.73	1771.49
417.94	1697.77
418.15	1837.03
418.35	1738.73
418.56	1720.29
418.77	1857.51
418.97	1695.72
419.18	1681.38
419.38	1652.71
419.59	1736.68
419.80	1804.26
420.00	1736.68
420.21	1787.88
420.42	1746.92
420.62	1849.32
420.83	1681.38
421.04	1705.96
421.24	1650.66
421.45	1746.92
421.65	1738.73
421.86	1654.76
422.07	1789.92
422.27	1796.07
422.48	1730.53
422.69	1675.24
422.89	1669.09
423.10	1681.38
423.30	1656.81
423.51	1796.07
423.72	1687.53
423.92	1779.68
424.13	1691.62
424.33	1791.97
424.54	1781.73
424.75	1730.53
424.95	1804.26
425.16	1757.16
425.36	1794.02
425.57	1734.63
425.78	1728.49
425.98	1738.73
426.19	1714.15
426.39	1648.61
426.60	1732.58
426.81	1875.94
427.01	1779.68
427.22	1634.28
427.42	1617.90
427.63	1654.76
427.83	1800.16
428.04	1810.40
428.25	1849.32
428.45	1826.79
428.66	1845.22
428.86	1742.82
429.07	1746.92
429.28	1697.77
429.48	1781.73
429.69	1652.71
429.89	1730.53
430.10	1640.42
430.30	1763.30
430.51	1732.58
430.71	1722.34
430.92	1683.43
431.13	1720.29
431.33	1730.53
431.54	1748.97
431.74	1775.59
431.95	1853.41
432.15	1654.76
432.36	1734.63
432.56	1751.01
432.77	1787.88
432.98	1773.54
433.18	1726.44
433.39	1736.68
433.59	1648.61
433.80	1843.17
434.00	1916.90
434.21	1605.61
434.41	1701.86
434.62	1826.79
434.82	1644.52
435.03	1644.52
435.23	1746.92
435.44	1632.23
435.64	1730.53
435.85	1765.35
436.06	1755.11
436.26	1785.83
436.47	1714.15
436.67	1589.22
436.88	1751.01
437.08	1763.30
437.29	1837.03
437.49	1744.87
437.70	1767.40
437.90	1751.01
438.11	1853.41
438.31	1773.54
438.52	1810.40
438.72	1857.51
438.93	1908.71
439.13	1789.92
439.34	1789.92
439.54	1830.88
439.75	1787.88
439.95	1812.45
440.16	1705.96
440.36	1824.74
440.57	1759.21
440.77	1789.92
440.98	1761.25
441.18	1763.30
441.39	1726.44
441.59	1693.67
441.80	1843.17
442.00	1779.68
442.21	1843.17
442.41	1624.04
442.62	1775.59
442.82	1648.61
443.02	1820.64
443.23	1740.77
443.43	1695.72
443.64	1863.65
443.84	1675.24
444.05	1794.02
444.25	1765.35
444.46	1679.33
444.66	1683.43
444.87	1869.80
445.07	1726.44
445.28	1667.05
445.48	1824.74
445.69	1761.25
445.89	1949.67
446.09	1751.01
446.30	2074.59
446.50	2584.54
446.71	3725.26
446.91	4372.41
447.12	4720.57
447.32	4904.89
447.53	4308.93
447.73	3907.52
447.93	3596.23
448.14	3473.36
448.34	3313.61
448.55	2836.44
448.75	2754.52
448.96	2748.37
449.16	2426.84
449.36	2320.35
449.57	2002.91
449.77	1880.04
449.98	1775.59
450.18	1820.64
450.39	1816.55
450.59	1841.12
450.79	1728.49
451.00	1759.21
451.20	1751.01
451.41	1701.86
451.61	1755.11
451.81	1785.83
452.02	1779.68
452.22	1734.63
452.43	1726.44
452.63	1697.77
452.84	1753.06
453.04	1708.01
453.24	1722.34
453.45	1683.43
453.65	1808.36
453.86	1765.35
454.06	1722.34
454.26	1728.49
454.47	1714.15
454.67	1863.65
454.87	1845.22
455.08	1740.77
455.28	1857.51
455.49	1773.54
455.69	1677.29
455.89	1839.08
456.10	1806.31
456.30	1738.73
456.51	1724.39
456.71	1812.45
456.91	1705.96
457.12	1763.30
457.32	1791.97
457.52	1710.05
457.73	1867.75
457.93	1769.44
458.14	1630.18
458.34	1648.61
458.54	1701.86
458.75	1714.15
458.95	1748.97
459.15	1771.49
459.36	1789.92
459.56	1798.12
459.76	1855.46
459.97	1763.30
460.17	1746.92
460.37	1857.51
460.58	1683.43
460.78	1761.25
460.99	1738.73
461.19	1773.54
461.39	1755.11
461.60	1734.63
461.80	1738.73
462.00	1796.07
462.21	1693.67
462.41	1728.49
462.61	1687.53
462.82	1722.34
463.02	1791.97
463.22	1814.50
463.43	1824.74
463.63	1730.53
463.83	1853.41
464.04	1746.92
464.24	1765.35
464.44	1697.77
464.64	1736.68
464.85	1734.63
465.05	1791.97
465.25	1767.40
465.46	1697.77
465.66	1787.88
465.86	1763.30
466.07	1738.73
466.27	1744.87
466.47	1628.14
466.68	1734.63
466.88	1757.16
467.08	1761.25
467.29	1818.60
467.49	1748.97
467.69	1736.68
467.89	1701.86
468.10	1689.57
468.30	1732.58
468.50	1861.60
468.71	1794.02
468.91	1658.85
469.11	1869.80
469.31	1730.53
469.52	1714.15
469.72	1863.65
469.92	1892.32
470.13	1751.01
470.33	1736.68
470.53	1845.22
470.73	2111.46
470.94	2330.59
471.14	2256.86
471.34	2527.19
471.54	2471.90
471.75	2209.76
471.95	2152.42
472.15	2125.79
472.36	2076.64
472.56	2093.02
472.76	1955.81
472.96	2023.39
473.17	1912.80
473.37	1935.33
473.57	1814.50
473.77	1822.69
473.98	1785.83
474.18	1714.15
474.38	1937.38
474.58	1646.57
474.79	1701.86
474.99	1724.39
475.19	1738.73
475.39	1679.33
475.60	1816.55
475.80	1718.25
476.00	1802.21
476.20	1755.11
476.41	1730.53
476.61	1828.84
476.81	1800.16
477.01	1705.96
477.21	1847.27
477.42	1861.60
477.62	1697.77
477.82	1734.63
478.02	1642.47
478.23	1787.88
478.43	1652.71
478.63	1779.68
478.83	1714.15
479.03	1736.68
479.24	1875.94
479.44	1818.60
479.64	1671.14
479.84	1613.80
480.04	1781.73
480.25	1830.88
480.45	1665.00
480.65	1681.38
480.85	1849.32
481.06	1683.43
481.26	1773.54
481.46	1773.54
481.66	1771.49
481.86	1677.29
482.06	1837.03
482.27	1648.61
482.47	1765.35
482.67	1771.49
482.87	1767.40
483.07	1773.54
483.28	1712.10
483.48	1699.81
483.68	1697.77
483.88	1703.91
484.08	1648.61
484.29	1644.52
484.49	1689.57
484.69	1722.34
484.89	1818.60
485.09	1740.77
485.29	1712.10
485.50	1683.43
485.70	1679.33
485.90	1822.69
486.10	1800.16
486.30	1771.49
486.50	1736.68
486.71	1722.34
486.91	1636.33
487.11	1775.59
487.31	1632.23
487.51	1720.29
487.71	1689.57
487.91	1683.43
488.12	1665.00
488.32	1550.31
488.52	1703.91
488.72	1560.55
488.92	1730.53
489.12	1834.98
489.32	1722.34
489.53	1738.73
489.73	1714.15
489.93	1802.21
490.13	1751.01
490.33	1685.48
490.53	1742.82
490.73	1789.92
490.94	1669.09
491.14	1832.93
491.34	1902.56
491.54	2105.31
491.74	2543.58
491.94	2928.60
492.14	3123.15
492.34	3024.85
492.54	2711.51
492.75	2463.71
492.95	2529.24
493.15	2344.92
493.35	2287.58
493.55	2228.19
493.75	2148.32
493.95	2193.37
494.15	2037.73
494.35	1961.95
494.56	1880.04
494.76	1777.64
494.96	1808.36
495.16	1791.97
495.36	1722.34
495.56	1751.01
495.76	1699.81
495.96	1665.00
496.16	1742.82
496.36	1812.45
496.56	1728.49
496.77	1667.05
496.97	1789.92
497.17	1871.84
497.37	1640.42
497.57	1789.92
497.77	1757.16
497.97	1695.72
498.17	1753.06
498.37	1665.00
498.57	1800.16
498.77	1736.68
498.97	1763.30
499.17	1828.84
499.38	1736.68
499.58	1871.84
499.78	1779.68
499.98	1837.03
500.18	1705.96
500.38	1701.86
500.58	1910.75
500.78	2592.73
500.98	4433.85
501.18	5754.79
501.38	6772.63
501.58	7006.10
501.78	6746.01
501.98	5511.08
502.18	4945.84
502.38	4427.71
502.58	4192.19
502.78	3848.13
502.98	3678.15
503.18	3450.83
503.38	3141.58
503.59	2826.20
503.79	2648.02
503.99	2475.99
504.19	2332.64
504.39	2222.05
504.59	2189.28
504.79	2170.85
504.99	2017.25
505.19	1908.71
505.39	1947.62
505.59	2009.06
505.79	1998.82
505.99	1748.97
506.19	1806.31
506.39	1865.70
506.59	1718.25
506.79	1761.25
506.99	1763.30
507.19	1787.88
507.39	1837.03
507.59	1730.53
507.79	1683.43
507.99	1687.53
508.19	1701.86
508.39	1677.29
508.59	1728.49
508.79	1845.22
508.99	1857.51
509.19	1767.40
509.39	1773.54
509.59	1730.53
509.79	1748.97
509.99	1738.73
510.19	1796.07
510.39	1865.70
510.59	1806.31
510.79	1665.00
510.99	1662.95
511.19	1769.44
511.39	1746.92
511.59	1791.97
511.79	1828.84
511.99	1724.39
512.19	1855.46
512.38	1738.73
512.58	1650.66
512.78	1708.01
512.98	1816.55
513.18	1830.88
513.38	1683.43
513.58	1757.16
513.78	1703.91
513.98	1816.55
514.18	1753.06
514.38	1712.10
514.58	1740.77
514.78	1777.64
514.98	1689.57
515.18	1718.25
515.38	1671.14
515.58	1861.60
515.78	1724.39
515.98	1763.30
516.18	1759.21
516.38	1744.87
516.57	1677.29
516.77	1673.19
516.97	1746.92
517.17	1724.39
517.37	1607.66
517.57	1744.87
517.77	1755.11
517.97	1708.01
518.17	1736.68
518.37	1710.05
518.57	1726.44
518.77	1648.61
518.97	1796.07
519.16	1789.92
519.36	1882.08
519.56	1773.54
519.76	1744.87
519.96	1667.05
520.16	1839.08
520.36	1718.25
520.56	1734.63
520.76	1785.83
520.96	1763.30
521.16	1806.31
521.35	1880.04
521.55	1902.56
521.75	1744.87
521.95	1785.83
522.15	1677.29
522.35	1660.90
522.55	1738.73
522.75	1861.60
522.95	1695.72
523.14	1740.77
523.34	1751.01
523.54	1712.10
523.74	1808.36
523.94	1738.73
524.14	1613.80
524.34	1746.92
524.54	1765.35
524.73	1746.92
524.93	1775.59
525.13	1677.29
525.33	1714.15
525.53	1857.51
525.73	1769.44
525.93	1771.49
526.13	1730.53
526.32	1732.58
526.52	1763.30
526.72	1726.44
526.92	1769.44
527.12	1708.01
527.32	1605.61
527.52	1812.45
527.71	1787.88
527.91	1738.73
528.11	1710.05
528.31	1716.20
528.51	1759.21
528.71	1814.50
528.90	1818.60
529.10	1800.16
529.30	1898.47
529.50	1689.57
529.70	1804.26
529.90	1732.58
530.09	1769.44
530.29	1669.09
530.49	1697.77
530.69	1884.13
530.89	1775.59
531.09	1775.59
531.28	1738.73
531.48	1865.70
531.68	1775.59
531.88	1722.34
532.08	1839.08
532.28	1730.53
532.47	1716.20
532.67	1722.34
532.87	1777.64
533.07	1710.05
533.27	1777.64
533.46	1796.07
533.66	1781.73
533.86	1728.49
534.06	1718.25
534.26	1689.57
534.45	1761.25
534.65	1783.78
534.85	1630.18
535.05	1710.05
535.25	1748.97
535.44	1720.29
535.64	1814.50
535.84	1705.96
536.04	1695.72
536.24	1759.21
536.43	1738.73
536.63	1769.44
536.83	1779.68
537.03	1775.59
537.22	1665.00
537.42	1636.33
537.62	1761.25
537.82	1642.47
538.02	1810.40
538.21	1822.69
538.41	1933.28
538.61	1767.40
538.81	1665.00
539.00	1779.68
539.20	1701.86
539.40	1773.54
539.60	1820.64
539.79	1742.82
539.99	1765.35
540.19	1775.59
540.39	1705.96
540.58	1789.92
540.78	1787.88
540.98	1744.87
541.18	1738.73
541.37	1787.88
541.57	1740.77
541.77	1882.08
541.97	1699.81
542.16	1673.19
542.36	1726.44
542.56	1763.30
542.76	1861.60
542.95	1779.68
543.15	1777.64
543.35	1730.53
543.54	1697.77
543.74	1722.34
543.94	1818.60
544.14	1681.38
544.33	1820.64
544.53	1781.73
544.73	1726.44
544.93	1892.32
545.12	1734.63
545.32	1771.49
545.52	1730.53
545.71	1671.14
545.91	1726.44
546.11	1738.73
546.30	1722.34
546.50	1785.83
546.70	1755.11
546.90	1865.70
547.09	1728.49
547.29	1785.83
547.49	1763.30
547.68	1748.97
547.88	1724.39
548.08	1761.25
548.27	2193.37
548.47	1740.77
548.67	1695.72
548.87	1695.72
549.06	1769.44
549.26	1777.64
549.46	1714.15
549.65	1708.01
549.85	1748.97
550.05	1779.68
550.24	1677.29
550.44	1773.54
550.64	1679.33
550.83	1699.81
551.03	1880.04
551.23	1773.54
551.42	1777.64
551.62	1675.24
551.82	1740.77
552.01	1724.39
552.21	1839.08
552.41	1662.95
552.60	1796.07
552.80	1716.20
553.00	1693.67
553.19	1736.68
553.39	1839.08
553.59	1675.24
553.78	1796.07
553.98	1769.44
554.17	1708.01
554.37	1718.25
554.57	1789.92
554.76	1601.51
554.96	1708.01
555.16	1708.01
555.35	1802.21
555.55	1689.57
555.75	1730.53
555.94	1810.40
556.14	1640.42
556.33	1775.59
556.53	1824.74
556.73	1689.57
556.92	1777.64
557.12	1789.92
557.32	1869.80
557.51	1746.92
557.71	1785.83
557.90	1757.16
558.10	1742.82
558.30	1726.44
558.49	1748.97
558.69	1697.77
558.88	1816.55
559.08	1863.65
559.28	1728.49
559.47	1726.44
559.67	1810.40
559.86	1826.79
560.06	1748.97
560.26	1763.30
560.45	1826.79
560.65	1742.82
560.84	1839.08
561.04	1669.09
561.24	1796.07
561.43	1669.09
561.63	1861.60
561.82	1775.59
562.02	1806.31
562.22	1615.85
562.41	1705.96
562.61	1695.72
562.80	1697.77
563.00	1902.56
563.19	1771.49
563.39	1798.12
563.59	1726.44
563.78	1705.96
563.98	1691.62
564.17	1714.15
564.37	1654.76
564.56	1757.16
564.76	1744.87
564.96	1826.79
565.15	1755.11
565.35	1894.37
565.54	1632.23
565.74	1697.77
565.93	1816.55
566.13	1779.68
566.32	1734.63
566.52	1732.58
566.71	1724.39
566.91	1818.60
567.11	1734.63
567.30	1736.68
567.50	1818.60
567.69	1724.39
567.89	1720.29
568.08	1677.29
568.28	1759.21
568.47	1673.19
568.67	1789.92
568.86	1781.73
569.06	1822.69
569.25	1834.98
569.45	1742.82
569.64	1744.87
569.84	1800.16
570.04	1802.21
570.23	1720.29
570.43	1787.88
570.62	1701.86
570.82	1816.55
571.01	1642.47
571.21	1681.38
571.40	1681.38
571.60	1812.45
571.79	1767.40
571.99	1691.62
572.18	1742.82
572.38	1806.31
572.57	1701.86
572.77	1808.36
572.96	1908.71
573.16	1820.64
573.35	1802.21
573.55	1875.94
573.74	1783.78
573.94	1708.01
574.13	1785.83
574.33	1806.31
574.52	1826.79
574.71	1740.77
574.91	1783.78
575.10	1675.24
575.30	1722.34
575.49	1685.48
575.69	1658.85
575.88	1755.11
576.08	1753.06
576.27	1751.01
576.47	1791.97
576.66	1849.32
576.86	1806.31
577.05	1773.54
577.25	1857.51
577.44	1822.69
577.64	1654.76
577.83	1822.69
578.02	1736.68
578.22	1789.92
578.41	1830.88
578.61	1763.30
578.80	1753.06
579.00	1748.97
579.19	1771.49
579.39	1820.64
579.58	1880.04
579.77	1796.07
579.97	1798.12
580.16	1785.83
580.36	1773.54
580.55	1841.12
580.75	1820.64
580.94	1673.19
581.13	1898.47
581.33	1841.12
581.52	1783.78
581.72	1853.41
581.91	1837.03
582.11	1769.44
582.30	1810.40
582.49	1787.88
582.69	1839.08
582.88	1791.97
583.08	1808.36
583.27	1781.73
583.47	1740.77
583.66	1699.81
583.85	1757.16
584.05	1761.25
584.24	1748.97
584.44	1849.32
584.63	1865.70
584.82	1814.50
585.02	1755.11
585.21	1877.99
585.41	1843.17
585.60	1832.93
585.79	1900.52
585.99	1880.04
586.18	1904.61
586.37	2256.86
586.57	3418.06
586.76	9994.09
586.96	24073.87
587.15	34342.39
587.34	40365.46
587.54	42315.13
587.73	36445.65
587.93	26293.87
588.12	21548.73
588.31	18345.70
588.51	16383.75
588.70	15005.47
588.89	14239.53
589.09	12613.44
589.28	10983.26
589.47	9500.53
589.67	7995.27
589.86	6428.57
590.06	4851.64
590.25	3999.68
590.44	3141.58
590.64	2691.03
590.83	2246.62
591.02	2000.87
591.22	1986.53
591.41	1920.99
591.60	1769.44
591.80	2007.01
591.99	1730.53
592.18	1761.25
592.38	1904.61
592.57	1705.96
592.76	1841.12
592.96	1863.65
593.15	1779.68
593.34	1843.17
593.54	1828.84
593.73	1771.49
593.92	1882.08
594.12	1767.40
594.31	1794.02
594.50	1847.27
594.70	1757.16
594.89	1839.08
595.08	1656.81
595.28	1759.21
595.47	1955.81
595.66	1785.83
595.86	1687.53
596.05	1837.03
596.24	1765.35
596.43	1884.13
596.63	1892.32
596.82	1877.99
597.01	1701.86
597.21	1853.41
597.40	1796.07
597.59	1767.40
597.79	1701.86
597.98	1748.97
598.17	1732.58
598.36	1757.16
598.56	1751.01
598.75	1751.01
598.94	1849.32
599.14	1681.38
599.33	1705.96
599.52	1806.31
599.71	1767.40
599.91	1783.78
600.10	1775.59
600.29	1718.25
600.48	1863.65
600.68	1802.21
600.87	1789.92
601.06	1705.96
601.26	1724.39
601.45	1738.73
601.64	1783.78
601.83	1822.69
602.03	1791.97
602.22	1695.72
602.41	1794.02
602.60	1894.37
602.80	1783.78
602.99	1789.92
603.18	1759.21
603.37	1789.92
603.57	1775.59
603.76	1787.88
603.95	1775.59
604.14	1734.63
604.34	1748.97
604.53	1734.63
604.72	1748.97
604.91	1789.92
605.10	1828.84
605.30	1677.29
605.49	1785.83
605.68	1834.98
605.87	1828.84
606.07	1693.67
606.26	1765.35
606.45	1796.07
606.64	1830.88
606.84	1738.73
607.03	1718.25
607.22	1720.29
607.41	1718.25
607.60	1787.88
607.80	1802.21
607.99	1845.22
608.18	1763.30
608.37	1742.82
608.56	1755.11
608.76	1814.50
608.95	1808.36
609.14	1738.73
609.33	1789.92
609.52	1830.88
609.72	1728.49
609.91	1757.16
610.10	1804.26
610.29	1920.99
610.48	1710.05
610.68	1757.16
610.87	1746.92
611.06	1767.40
611.25	1732.58
611.44	1816.55
611.63	1746.92
611.83	1810.40
612.02	1726.44
612.21	1834.98
612.40	1642.47
612.59	1755.11
612.79	1644.52
612.98	1730.53
613.17	1841.12
613.36	1775.59
613.55	1769.44
613.74	1751.01
613.93	1816.55
614.13	1736.68
614.32	1734.63
614.51	1726.44
614.70	1757.16
614.89	1710.05
615.08	1720.29
615.28	2107.36
615.47	1675.24
615.66	1728.49
615.85	1710.05
616.04	1845.22
616.23	1703.91
616.42	1699.81
616.62	1718.25
616.81	1806.31
617.00	1699.81
617.19	1783.78
617.38	1720.29
617.57	1818.60
617.76	1722.34
617.95	1765.35
618.15	1757.16
618.34	1828.84
618.53	1648.61
618.72	1810.40
618.91	1789.92
619.10	1804.26
619.29	1773.54
619.48	1703.91
619.68	1642.47
619.87	1765.35
620.06	1654.76
620.25	1865.70
620.44	1697.77
620.63	1722.34
620.82	1759.21
621.01	1722.34
621.20	1755.11
621.39	1730.53
621.59	1742.82
621.78	1695.72
621.97	1689.57
622.16	1773.54
622.35	1697.77
622.54	1759.21
622.73	1781.73
622.92	1652.71
623.11	1839.08
623.30	1669.09
623.49	1710.05
623.68	1716.20
623.88	1820.64
624.07	1681.38
624.26	1751.01
624.45	1787.88
624.64	1755.11
624.83	1744.87
625.02	1708.01
625.21	1730.53
625.40	1730.53
625.59	1806.31
625.78	1697.77
625.97	1791.97
626.16	1791.97
626.35	1804.26
626.54	1691.62
626.74	1812.45
626.93	1705.96
627.12	1753.06
627.31	1757.16
627.50	1765.35
627.69	1843.17
627.88	1701.86
628.07	1736.68
628.26	1656.81
628.45	1667.05
628.64	1638.38
628.83	1693.67
629.02	1669.09
629.21	1769.44
629.40	1708.01
629.59	1683.43
629.78	1726.44
629.97	1744.87
630.16	1671.14
630.35	1730.53
630.54	1681.38
630.73	1722.34
630.92	1656.81
631.11	1734.63
631.30	1734.63
631.49	1763.30
631.68	1757.16
631.87	1781.73
632.06	1753.06
632.25	1867.75
632.44	1722.34
632.63	1814.50
632.82	1748.97
633.01	1654.76
633.20	1744.87
633.39	1708.01
633.58	1708.01
633.77	1755.11
633.96	1742.82
634.15	1728.49
634.34	1773.54
634.53	1701.86
634.72	1722.34
634.91	1589.22
635.10	1751.01
635.29	1728.49
635.48	1660.90
635.67	1654.76
635.86	1570.79
636.05	1812.45
636.24	1775.59
636.43	1722.34
636.62	1779.68
636.81	1689.57
637.00	1673.19
637.19	1759.21
637.38	1697.77
637.57	1691.62
637.76	1736.68
637.95	1701.86
638.14	1722.34
638.33	1691.62
638.52	1722.34
638.71	1636.33
638.89	1583.08
639.08	1920.99
639.27	1724.39
639.46	1755.11
639.65	1808.36
639.84	1759.21
640.03	1808.36
640.22	1718.25
640.41	1798.12
640.60	1718.25
640.79	1685.48
640.98	1726.44
641.17	1789.92
641.36	1740.77
641.55	1732.58
641.74	1687.53
641.92	1630.18
642.11	1691.62
642.30	1720.29
642.49	1728.49
642.68	1699.81
642.87	1767.40
643.06	1785.83
643.25	1708.01
643.44	1705.96
643.63	1701.86
643.82	1755.11
644.00	1646.57
644.19	1734.63
644.38	1703.91
644.57	1736.68
644.76	1667.05
644.95	1710.05
645.14	1712.10
645.33	1744.87
645.52	1740.77
645.71	1675.24
645.89	1714.15
646.08	1779.68
646.27	1691.62
646.46	1841.12
646.65	1665.00
646.84	1746.92
647.03	1658.85
647.22	1767.40
647.40	1755.11
647.59	1730.53
647.78	1585.13
647.97	1673.19
648.16	1574.89
648.35	1824.74
648.54	1757.16
648.73	1757.16
648.91	1771.49
649.10	1796.07
649.29	1730.53
649.48	1669.09
649.67	1722.34
649.86	1734.63
650.05	1642.47
650.23	1828.84
650.42	1660.90
650.61	1755.11
650.80	1740.77
650.99	1853.41
651.18	1800.16
651.36	1703.91
651.55	1581.03
651.74	1757.16
651.93	1689.57
652.12	1699.81
652.31	1736.68
652.49	1665.00
652.68	1767.40
652.87	1732.58
653.06	1765.35
653.25	1773.54
653.44	1728.49
653.62	1755.11
653.81	1718.25
654.00	1767.40
654.19	1806.31
654.38	1896.42
654.56	1742.82
654.75	1703.91
654.94	1826.79
655.13	1689.57
655.32	1734.63
655.51	1781.73
655.69	1681.38
655.88	1769.44
656.07	1656.81
656.26	1771.49
656.45	1650.66
656.63	1732.58
656.82	1728.49
657.01	1802.21
657.20	1675.24
657.38	1759.21
657.57	1787.88
657.76	1665.00
657.95	1775.59
658.14	1724.39
658.32	1765.35
658.51	1665.00
658.70	1734.63
658.89	1724.39
659.08	1761.25
659.26	1798.12
659.45	1697.77
659.64	1746.92
659.83	1665.00
660.01	1964.00
660.20	1736.68
660.39	1826.79
660.58	1587.18
660.76	1734.63
660.95	1599.46
661.14	1777.64
661.33	1628.14
661.51	1736.68
661.70	1607.66
661.89	1771.49
662.08	1691.62
662.26	1675.24
662.45	1642.47
662.64	1802.21
662.83	1746.92
663.01	1665.00
663.20	1724.39
663.39	1845.22
663.58	1746.92
663.76	1714.15
663.95	1785.83
664.14	1818.60
664.32	1695.72
664.51	1730.53
664.70	1656.81
664.89	1759.21
665.07	1697.77
665.26	1884.13
665.45	1648.61
665.64	1781.73
665.82	1734.63
666.01	1763.30
666.20	1669.09
666.38	1816.55
666.57	1771.49
666.76	2248.67
666.95	4628.41
667.13	10422.11
667.32	15142.68
667.51	18116.33
667.69	19166.94
667.88	17645.30
668.07	12384.07
668.25	9428.85
668.44	8028.04
668.63	7403.41
668.81	6889.37
669.00	6113.19
669.19	5769.13
669.38	5035.96
669.56	4499.39
669.75	3987.40
669.94	3430.35
670.12	2947.03
670.31	2533.34
670.50	2271.20
670.68	2045.92
670.87	1892.32
671.06	1826.79
671.24	1767.40
671.43	1859.56
671.62	1763.30
671.80	1693.67
671.99	1771.49
672.18	1748.97
672.36	1787.88
672.55	1746.92
672.74	1779.68
672.92	1685.48
673.11	1742.82
673.29	1669.09
673.48	1746.92
673.67	1746.92
673.85	1779.68
674.04	1738.73
674.23	1710.05
674.41	1869.80
674.60	1673.19
674.79	1642.47
674.97	1660.90
675.16	1726.44
675.34	1783.78
675.53	1720.29
675.72	1765.35
675.90	1853.41
676.09	1691.62
676.28	1708.01
676.46	1673.19
676.65	1779.68
676.83	1599.46
677.02	1642.47
677.21	1671.14
677.39	1708.01
677.58	1611.75
677.77	1693.67
677.95	1652.71
678.14	1722.34
678.32	1718.25
678.51	1636.33
678.70	1855.46
678.88	1710.05
679.07	1708.01
679.25	1730.53
679.44	1783.78
679.63	1597.42
679.81	1691.62
680.00	1751.01
680.18	1687.53
680.37	1808.36
680.55	1759.21
680.74	1738.73
680.93	1685.48
681.11	1724.39
681.30	1669.09
681.48	1757.16
681.67	1681.38
681.85	1734.63
682.04	1683.43
682.23	1845.22
682.41	1763.30
682.60	1677.29
682.78	1732.58
682.97	1685.48
683.15	1767.40
683.34	1675.24
683.53	1773.54
683.71	1701.86
683.90	1796.07
684.08	1753.06
684.27	1693.67
684.45	1734.63
684.64	1783.78
684.82	1732.58
685.01	1775.59
685.19	1710.05
685.38	1796.07
685.57	1738.73
685.75	1632.23
685.94	1712.10
686.12	1714.15
686.31	1669.09
686.49	1734.63
686.68	1652.71
686.86	1730.53
687.05	1791.97
687.23	1855.46
687.42	1730.53
687.60	1646.57
687.79	1820.64
687.97	1783.78
688.16	1798.12
688.34	1732.58
688.53	1660.90
688.71	1689.57
688.90	1761.25
689.08	1818.60
689.27	1660.90
689.45	1837.03
689.64	1767.40
689.82	1699.81
690.01	1667.05
690.19	1724.39
690.38	1708.01
690.56	1779.68
690.75	1667.05
690.93	1611.75
691.12	1619.94
691.30	1746.92
691.49	1636.33
691.67	1705.96
691.86	1884.13
692.04	1656.81
692.23	1722.34
692.41	1648.61
692.60	1783.78
692.78	1744.87
692.97	1699.81
693.15	1718.25
693.34	1857.51
693.52	1708.01
693.71	1722.34
693.89	1708.01
694.08	1611.75
694.26	1779.68
694.44	1699.81
694.63	1710.05
694.81	1714.15
695.00	1685.48
695.18	1779.68
695.37	1779.68
695.55	1781.73
695.74	1708.01
695.92	1687.53
696.10	1683.43
696.29	1640.42
696.47	1689.57
696.66	1693.67
696.84	1691.62
697.03	1689.57
697.21	1691.62
697.40	2324.44
697.58	1730.53
697.76	1646.57
697.95	1636.33
698.13	1683.43
698.32	1767.40
698.50	1693.67
698.68	1708.01
698.87	1751.01
699.05	1812.45
699.24	1652.71
699.42	1691.62
699.61	1687.53
699.79	1853.41
699.97	1646.57
700.16	1689.57
700.34	1712.10
700.53	1681.38
700.71	1859.56
700.89	1771.49
701.08	1783.78
701.26	1755.11
701.45	2070.50
701.63	1691.62
701.81	1687.53
702.00	1689.57
702.18	1775.59
702.37	1724.39
702.55	1703.91
702.73	1767.40
702.92	1624.04
703.10	1755.11
703.28	1720.29
703.47	1640.42
703.65	1798.12
703.84	1753.06
704.02	1662.95
704.20	1828.84
704.39	1615.85
704.57	1685.48
704.75	1751.01
704.94	1687.53
705.12	1722.34
705.30	1798.12
705.49	2205.66
705.67	4448.19
705.86	9336.69
706.04	12824.38
706.22	14694.18
706.41	15382.29
706.59	13791.02
706.77	9592.69
706.96	7253.91
707.14	6543.26
707.32	5978.02
707.51	5556.14
707.69	4835.25
707.87	4165.57
708.06	3485.64
708.24	3041.23
708.42	2392.03
708.61	2195.42
708.79	1882.08
708.97	1843.17
709.16	1845.22
709.34	1732.58
709.52	1767.40
709.71	1781.73
709.89	1738.73
710.07	1703.91
710.26	1652.71
710.44	1667.05
710.62	1820.64
710.80	1734.63
710.99	1828.84
711.17	1685.48
711.35	1689.57
711.54	1701.86
711.72	1843.17
711.90	1701.86
712.09	1744.87
712.27	1644.52
712.45	1818.60
712.63	1775.59
712.82	1703.91
713.00	1732.58
713.18	1753.06
713.37	1746.92
713.55	1710.05
713.73	1789.92
713.91	1738.73
714.10	1679.33
714.28	1695.72
714.46	1810.40
714.65	1826.79
714.83	1726.44
715.01	1683.43
715.19	1714.15
715.38	1693.67
715.56	1724.39
715.74	1634.28
715.92	1660.90
716.11	1736.68
716.29	1615.85
716.47	1736.68
716.65	1781.73
716.84	1605.61
717.02	1705.96
717.20	1677.29
717.38	1708.01
717.57	1796.07
717.75	1660.90
717.93	1751.01
718.11	1753.06
718.30	1658.85
718.48	1732.58
718.66	1781.73
718.84	1759.21
719.03	1773.54
719.21	1619.94
719.39	1861.60
719.57	1828.84
719.75	1781.73
719.94	1683.43
720.12	1628.14
720.30	1691.62
720.48	1722.34
720.67	1646.57
720.85	1652.71
721.03	1708.01
721.21	1699.81
721.39	1839.08
721.58	1710.05
721.76	1730.53
721.94	1808.36
722.12	1845.22
722.30	1769.44
722.49	1691.62
722.67	1800.16
722.85	1787.88
723.03	1656.81
723.21	1681.38
723.40	1746.92
723.58	1728.49
723.76	1734.63
723.94	1701.86
724.12	1740.77
724.30	1744.87
724.49	1677.29
724.67	1656.81
724.85	1808.36
725.03	1656.81
725.21	1736.68
725.40	1763.30
725.58	1683.43
725.76	1777.64
725.94	1748.97
726.12	1669.09
726.30	1693.67
726.49	1746.92
726.67	1675.24
726.85	1734.63
727.03	1806.31
727.21	2164.70
727.39	3033.04
727.57	3858.37
727.76	4214.72
727.94	4452.28
728.12	4429.76
728.30	3682.25
728.48	2951.12
728.66	2713.56
728.84	2543.58
729.03	2273.25
729.21	2199.52
729.39	1996.77
729.57	1837.03
729.75	1746.92
729.93	1785.83
730.11	1716.20
730.30	1759.21
730.48	1693.67
730.66	1804.26
730.84	1703.91
731.02	1701.86
731.20	1736.68
731.38	1720.29
731.56	1642.47
731.74	1669.09
731.93	1724.39
732.11	1722.34
732.29	1720.29
732.47	1751.01
732.65	1697.77
732.83	1798.12
733.01	1726.44
733.19	1591.27
733.37	1714.15
733.56	1810.40
733.74	1685.48
733.92	1800.16
734.10	1763.30
734.28	1730.53
734.46	1669.09
734.64	1640.42
734.82	1712.10
735.00	1671.14
735.18	1691.62
735.36	1689.57
735.54	1742.82
735.73	1734.63
735.91	1685.48
736.09	1744.87
736.27	1638.38
736.45	1708.01
736.63	1662.95
736.81	1624.04
736.99	1783.78
737.17	1789.92
737.35	1624.04
737.53	1722.34
737.71	1642.47
737.89	1736.68
738.07	1648.61
738.25	1710.05
738.43	1642.47
738.61	1763.30
738.80	1648.61
738.98	1687.53
739.16	1685.48
739.34	1648.61
739.52	1736.68
739.70	1701.86
739.88	1808.36
740.06	1861.60
740.24	1609.70
740.42	1734.63
740.60	1667.05
740.78	1669.09
740.96	1615.85
741.14	1673.19
741.32	1759.21
741.50	1658.85
741.68	1791.97
741.86	1708.01
742.04	1693.67
742.22	1699.81
742.40	1753.06
742.58	1746.92
742.76	1673.19
742.94	1748.97
743.12	1626.09
743.30	1705.96
743.48	1773.54
743.66	1650.66
743.84	1726.44
744.02	1787.88
744.20	1718.25
744.38	1656.81
744.56	1722.34
744.74	1810.40
744.92	1757.16
745.10	1703.91
745.28	1730.53
745.46	1820.64
745.64	1796.07
745.82	1722.34
746.00	1642.47
746.18	1751.01
746.36	1710.05
746.54	1710.05
746.72	1679.33
746.90	1587.18
747.08	1787.88
747.26	1751.01
747.44	1701.86
747.62	1771.49
747.80	1724.39
747.98	1720.29
748.15	1652.71
748.33	1810.40
748.51	1763.30
748.69	1759.21
748.87	1685.48
749.05	1683.43
749.23	1691.62
749.41	1742.82
749.59	1652.71
749.77	1824.74
749.95	1716.20
750.13	1642.47
750.31	1744.87
750.49	1728.49
750.67	1746.92
750.85	1839.08
751.03	1767.40
751.20	1794.02
751.38	1734.63
751.56	1732.58
751.74	1740.77
751.92	1714.15
752.10	1669.09
752.28	1746.92
752.46	1632.23
752.64	1683.43
752.82	1714.15
753.00	1812.45
753.18	1654.76
753.35	1621.99
753.53	1705.96
753.71	1656.81
753.89	1759.21
754.07	1710.05
754.25	1783.78
754.43	1757.16
754.61	1636.33
754.79	1787.88
754.97	1673.19
755.14	1720.29
755.32	1572.84
755.50	1726.44
755.68	1630.18
755.86	1578.98
756.04	1652.71
756.22	1640.42
756.40	1724.39
756.57	1869.80
756.75	1742.82
756.93	1767.40
757.11	1767.40
757.29	1665.00
757.47	1652.71
757.65	1732.58
757.82	1642.47
758.00	1550.31
758.18	1671.14
758.36	1650.66
758.54	1884.13
758.72	1644.52
758.90	1722.34
759.07	1751.01
759.25	1718.25
759.43	1771.49
759.61	1701.86
759.79	2246.62
759.97	1779.68
760.15	1703.91
760.32	1728.49
760.50	1755.11
760.68	1802.21
760.86	1621.99
761.04	1826.79
761.22	1755.11
761.39	1771.49
761.57	1714.15
761.75	1740.77
761.93	1691.62
762.11	1603.56
762.28	1763.30
762.46	1634.28
762.64	1720.29
762.82	1699.81
763.00	1681.38
763.18	1832.93
763.35	1662.95
763.53	1716.20
763.71	1751.01
763.89	1714.15
764.07	1710.05
764.24	1763.30
764.42	1693.67
764.60	1734.63
764.78	1720.29
764.96	1861.60
765.13	1689.57
765.31	1697.77
765.49	1738.73
765.67	1673.19
765.84	1665.00
766.02	1611.75
766.20	1603.56
766.38	1722.34
766.56	1841.12
766.73	1730.53
766.91	1744.87
767.09	1724.39
767.27	1738.73
767.44	1685.48
767.62	1759.21
767.80	1746.92
767.98	1652.71
768.15	1697.77
768.33	1751.01
768.51	1730.53
768.69	1804.26
768.87	1804.26
769.04	1716.20
769.22	1839.08
769.40	1847.27
769.58	1773.54
769.75	1740.77
769.93	1789.92
770.11	1738.73
770.28	1689.57
770.46	1734.63
770.64	1734.63
770.82	1755.11
770.99	1708.01
771.17	1724.39
771.35	1695.72
771.53	1673.19
771.70	1685.48
771.88	1808.36
772.06	1658.85
772.23	1693.67
772.41	1806.31
772.59	1718.25
772.77	1638.38
772.94	1738.73
773.12	1783.78
773.30	1691.62
773.47	1724.39
773.65	1755.11
773.83	1810.40
774.01	1710.05
774.18	1701.86
774.36	1757.16
774.54	1593.32
774.71	1703.91
774.89	1652.71
775.07	1673.19
775.24	1748.97
775.42	1652.71
775.60	1822.69
775.78	1673.19
775.95	1648.61
776.13	1636.33
776.31	1560.55
776.48	1669.09
776.66	1800.16
776.84	1710.05
777.01	1685.48
777.19	1734.63
777.37	1652.71
777.54	1812.45
777.72	1820.64
777.90	1726.44
778.07	1591.27
778.25	1857.51
778.43	1746.92
778.60	1712.10
778.78	1796.07
778.96	1730.53
779.13	1634.28
779.31	1763.30
779.49	1601.51
779.66	1722.34
779.84	1681.38
780.01	1757.16
780.19	1621.99
780.37	1783.78
780.54	1765.35
780.72	1691.62
780.90	1708.01
781.07	1730.53
781.25	1732.58
781.43	1775.59
781.60	1642.47
781.78	1832.93
781.95	1689.57
782.13	1693.67
782.31	1679.33
782.48	1550.31
782.66	1681.38
782.83	1841.12
783.01	1751.01
783.19	1728.49
783.36	1697.77
783.54	1689.57
783.72	1746.92
783.89	1654.76
784.07	1734.63
784.24	1691.62
784.42	1824.74
784.60	1734.63
784.77	1775.59
784.95	1599.46
785.12	1724.39
785.30	1802.21
785.47	1646.57
785.65	1570.79
785.83	1773.54
786.00	1703.91
786.18	1761.25
786.35	1648.61
786.53	1683.43
786.71	1703.91
786.88	1722.34
787.06	1689.57
787.23	1736.68
787.41	1544.17
787.58	1677.29
787.76	1669.09
787.94	1742.82
788.11	1726.44
788.29	1642.47
788.46	1685.48
788.64	1687.53
788.81	1718.25
788.99	1624.04
789.16	1626.09
789.34	1746.92
789.52	1626.09
789.69	1710.05
789.87	1578.98
790.04	1732.58
790.22	1771.49
790.39	1873.89
790.57	1701.86
790.74	1712.10
790.92	1726.44
791.09	1615.85
791.27	1740.77
791.44	1814.50
791.62	1691.62
791.79	1740.77
791.97	1708.01
792.15	1839.08
792.32	1751.01
792.50	1714.15
792.67	1841.12
792.85	1742.82
793.02	1742.82
793.20	1693.67
793.37	1675.24
793.55	1783.78
793.72	1638.38
793.90	1736.68
794.07	1703.91
794.25	1638.38
794.42	1718.25
794.60	1740.77
794.77	1748.97
794.95	1796.07
795.12	1724.39
795.30	1779.68
795.47	1656.81
795.65	1896.42
795.82	1765.35
796.00	1624.04
796.17	1742.82
796.34	1652.71
796.52	1687.53
796.69	1765.35
796.87	1814.50
797.04	1683.43
797.22	1761.25
797.39	1685.48
797.57	1748.97
797.74	1691.62
797.92	1718.25
798.09	1632.23
798.27	1804.26
798.44	1789.92
798.62	1714.15
798.79	1656.81
798.96	1787.88
799.14	1695.72
799.31	1828.84
799.49	1689.57
799.66	1650.66
799.84	1738.73
800.01	1617.90
800.19	1761.25
800.36	1767.40
800.53	1734.63
800.71	1705.96
800.88	1791.97
801.06	1726.44
801.23	1716.20
801.41	1759.21
801.58	1603.56
801.75	1708.01
801.93	1753.06
802.10	1722.34
802.28	1771.49
802.45	1693.67
802.63	1773.54
802.80	1896.42
802.97	1728.49
803.15	1734.63
803.32	1718.25
803.50	1710.05
803.67	1650.66
803.84	1722.34
804.02	1732.58
804.19	1677.29
804.37	1644.52
804.54	1673.19
804.71	1671.14
804.89	1636.33
805.06	1681.38
805.24	1656.81
805.41	1613.80
805.58	1671.14
805.76	1843.17
805.93	1695.72
806.10	1857.51
806.28	1689.57
806.45	1763.30
806.63	1742.82
806.80	1693.67
806.97	1724.39
807.15	1783.78
807.32	1701.86
807.49	1755.11
807.67	1570.79
807.84	1662.95
808.01	1562.60
808.19	1837.03
808.36	1843.17
808.54	1687.53
808.71	1656.81
808.88	1703.91
809.06	1705.96
809.23	1781.73
809.40	1734.63
809.58	1781.73
809.75	1771.49
809.92	1662.95
810.10	1886.18
810.27	1708.01
810.44	1767.40
810.62	1757.16
810.79	1736.68
810.96	1638.38
811.14	1662.95
811.31	1773.54
811.48	1775.59
811.66	1673.19
811.83	1773.54
812.00	1720.29
812.18	1710.05
812.35	1783.78
812.52	1677.29
812.69	1718.25
812.87	1689.57
813.04	1675.24
813.21	1726.44
813.39	1669.09
813.56	1605.61
813.73	1718.25
813.91	1593.32
814.08	1775.59
814.25	1736.68
814.42	1630.18
814.60	1689.57
814.77	1746.92
814.94	1656.81
815.12	1695.72
815.29	1806.31
815.46	1669.09
815.63	1755.11
815.81	1712.10
815.98	1695.72
816.15	1685.48
816.33	1781.73
816.50	1675.24
816.67	1671.14
816.84	1689.57
817.02	1656.81
817.19	1685.48
817.36	1712.10
817.53	1693.67
817.71	1652.71
817.88	1814.50
818.05	1712.10
818.22	1658.85
818.40	1828.84
818.57	1728.49
818.74	1781.73
818.91	1699.81
819.09	1738.73
819.26	1738.73
819.43	1626.09
819.60	1632.23
819.78	1699.81
819.95	1785.83
820.12	1640.42
820.29	1794.02
820.47	1777.64
820.64	1693.67
820.81	1658.85
820.98	1705.96
821.15	1675.24
821.33	1718.25
821.50	1607.66
821.67	1769.44
821.84	1667.05
822.02	1763.30
822.19	1714.15
822.36	1734.63
822.53	1660.90
822.70	1626.09
822.88	1720.29
823.05	1824.74
823.22	1740.77
823.39	1759.21
823.56	1687.53
823.74	1853.41
823.91	1599.46
824.08	1681.38
824.25	1624.04
824.42	1851.36
824.60	1677.29
824.77	1681.38
824.94	1677.29
825.11	1728.49
825.28	1621.99
825.45	1738.73
825.63	1796.07
825.80	1669.09
825.97	1687.53
826.14	1740.77
826.31	1667.05
826.48	1755.11
826.66	1669.09
826.83	1675.24
827.00	1783.78
827.17	1765.35
827.34	1697.77
827.51	1689.57
827.69	1660.90
827.86	1607.66
828.03	1695.72
828.20	1720.29
828.37	1660.90
828.54	1771.49
828.71	1669.09
828.89	1787.88
829.06	1689.57
829.23	1787.88
829.40	1677.29
829.57	1665.00
829.74	1734.63
829.91	1732.58
830.09	1697.77
830.26	1689.57
830.43	1824.74
830.60	1685.48
830.77	1798.12
830.94	1767.40
831.11	1763.30
831.28	1669.09
831.46	1796.07
831.63	1677.29
831.80	1814.50
831.97	1738.73
832.14	1728.49
832.31	1732.58
832.48	1703.91
832.65	1820.64
832.82	1724.39
832.99	1722.34
833.17	1648.61
833.34	1775.59
833.51	1726.44
833.68	1626.09
833.85	1812.45
834.02	1667.05
834.19	1689.57
834.36	1748.97
834.53	1677.29
834.70	1806.31
834.87	1804.26
835.04	1716.20
835.22	1650.66
835.39	1726.44
835.56	1716.20
835.73	1689.57
835.90	1791.97
836.07	1619.94
836.24	1839.08
836.41	1650.66
836.58	1607.66
836.75	1738.73
836.92	1767.40
837.09	1660.90
837.26	1751.01
837.43	1699.81
837.60	1705.96
837.77	1646.57
837.94	1714.15
838.12	1724.39
838.29	1802.21
838.46	1648.61
838.63	1611.75
838.80	1865.70
838.97	1677.29
839.14	1728.49
839.31	1755.11
839.48	1816.55
839.65	1642.47
839.82	1720.29
839.99	1730.53
840.16	1701.86
840.33	1710.05
840.50	1740.77
840.67	1701.86
840.84	1511.40
841.01	1669.09
841.18	1687.53
841.35	1687.53
841.52	1730.53
841.69	1841.12
841.86	1626.09
842.03	1773.54
842.20	1708.01
842.37	1716.20
842.54	1748.97
842.71	1716.20
842.88	1636.33
843.05	1662.95
843.22	1675.24
843.39	1662.95
843.56	1685.48
843.73	1687.53
843.90	1693.67
844.07	1730.53
844.24	1757.16
844.41	1777.64
844.58	1771.49
844.75	1834.98
844.92	1710.05
845.09	1671.14
845.26	1728.49
845.43	1746.92
845.60	1765.35
845.77	1783.78
845.94	1722.34
846.10	1785.83
846.27	1693.67
846.44	1675.24
846.61	1679.33
846.78	1714.15
846.95	1736.68
847.12	1621.99
847.29	1712.10
847.46	1734.63
847.63	1800.16
847.80	1613.80
847.97	1716.20
848.14	1810.40
848.31	1658.85
848.48	1652.71
848.65	1718.25
848.82	1679.33
848.98	1828.84
849.15	1771.49
849.32	1820.64
849.49	1767.40
849.66	1722.34
849.83	1693.67
850.00	1718.25
850.17	1767.40
850.34	1779.68
850.51	1570.79
850.68	1759.21
850.85	1834.98
851.01	1738.73
851.18	1722.34
851.35	1615.85
851.52	1763.30
851.69	1834.98
851.86	1607.66
852.03	1693.67
852.20	1773.54
852.37	1703.91
852.53	1617.90
852.70	1726.44
852.87	1699.81
853.04	1787.88
853.21	1726.44
853.38	1777.64
853.55	1734.63
853.72	1695.72
853.89	1644.52
854.05	1572.84
854.22	1607.66
854.39	1744.87
854.56	1781.73
854.73	1728.49
854.90	1693.67
855.07	1705.96
855.23	1667.05
855.40	1755.11
855.57	1683.43
855.74	1673.19
855.91	1902.56
856.08	1683.43
856.25	1644.52
856.41	1658.85
856.58	1685.48
856.75	1708.01
856.92	1628.14
857.09	1722.34
857.26	1662.95
857.42	1730.53
857.59	1789.92
857.76	1722.34
857.93	1785.83
858.10	1787.88
858.27	1644.52
858.43	1765.35
858.60	1724.39
858.77	1652.71
858.94	1611.75
859.11	1771.49
859.27	1660.90
859.44	1738.73
859.61	1855.46
859.78	1791.97
859.95	1603.56
860.12	1603.56
860.28	1757.16
860.45	1828.84
860.62	1617.90
860.79	1763.30
860.95	1742.82
861.12	1673.19
861.29	1595.37
861.46	1619.94
861.63	1755.11
861.79	1724.39
861.96	1636.33
862.13	1681.38
862.30	1759.21
862.47	1677.29
862.63	1720.29
862.80	1783.78
862.97	1734.63
863.14	1705.96
863.30	1726.44
863.47	1642.47
863.64	1746.92
863.81	1701.86
863.97	1630.18
864.14	1720.29
864.31	1685.48
864.48	1693.67
864.65	1701.86
864.81	1636.33
864.98	1726.44
865.15	1767.40
865.32	1710.05
865.48	1798.12
865.65	1781.73
865.82	1720.29
865.98	1671.14
866.15	1734.63
866.32	1669.09
866.49	1615.85
866.65	1853.41
866.82	1648.61
866.99	1740.77
867.16	1701.86
867.32	1718.25
867.49	1642.47
867.66	1744.87
867.83	1675.24
867.99	1705.96
868.16	1740.77
868.33	1624.04
868.49	1697.77
868.66	1671.14
868.83	1751.01
868.99	1716.20
869.16	1726.44
869.33	1798.12
869.50	1757.16
869.66	1699.81
869.83	1748.97
870.00	1652.71
870.16	1751.01
870.33	1630.18
870.50	1779.68
870.66	1638.38
870.83	1822.69
871.00	1691.62
871.17	1783.78
871.33	1703.91
871.50	1714.15
871.67	1738.73
871.83	1656.81
872.00	1796.07
872.17	1609.70
872.33	1763.30
872.50	1712.10
872.67	1710.05
872.83	1697.77
873.00	1757.16
873.17	1738.73
873.33	1812.45
873.50	1710.05
873.67	1644.52
873.83	1710.05
874.00	1734.63
874.16	1791.97
874.33	1796.07
874.50	1615.85
874.66	1742.82
874.83	1689.57
875.00	1730.53
875.16	1791.97
875.33	1855.46
875.50	1595.37
875.66	1710.05
875.83	1648.61
875.99	1769.44
876.16	1748.97
876.33	1673.19
876.49	1730.53
876.66	1722.34
876.83	1718.25
876.99	1716.20
877.16	1656.81
877.32	1728.49
877.49	1665.00
877.66	1699.81
877.82	1810.40
877.99	1738.73
878.15	1757.16
878.32	1767.40
878.49	1755.11
878.65	1583.08
878.82	1761.25
878.98	1626.09
879.15	1761.25
879.32	1783.78
879.48	1751.01
879.65	1724.39
879.81	1673.19
879.98	1656.81
880.15	1703.91
880.31	1763.30
880.48	1658.85
880.64	1748.97
880.81	1685.48
880.97	1871.84
881.14	1738.73
881.31	1652.71
881.47	1789.92
881.64	1695.72
881.80	1632.23
881.97	1716.20
882.13	1746.92
882.30	1632.23
882.47	1628.14
882.63	1703.91
882.80	1660.90
882.96	1718.25
883.13	1738.73
883.29	1767.40
883.46	1753.06
883.62	1781.73
883.79	1734.63
883.95	1714.15
884.12	1834.98
884.29	1808.36
884.45	1767.40
884.62	1722.34
884.78	1757.16
884.95	1771.49
885.11	1667.05
885.28	1705.96
885.44	1667.05
885.61	1748.97
885.77	1734.63
885.94	1732.58
886.10	1687.53
886.27	1705.96
886.43	1785.83
886.60	1751.01
886.76	1638.38
886.93	1632.23
887.09	1734.63
887.26	1632.23
887.42	1726.44
887.59	1736.68
887.75	1859.56
887.92	1718.25
888.08	1748.97
888.25	1824.74
888.41	1761.25
888.58	1683.43
888.74	1615.85
888.91	1671.14
>>>>>End Processed Spectral Data<<<<<
