SpectraSuite Data File
++++++++++++++++++++++++++++++++++++
Date: Mon Jun 06 13:05:17 CEST 2016
User: root
Dark Spectrum Present: No
Reference Spectrum Present: No
Number of Sampled Component Spectra: 1
Spectrometers: USB4C02835
Integration Time (usec): 100000 (USB4C02835)
Spectra Averaged: 1 (USB4C02835)
Boxcar Smoothing: 0 (USB4C02835)
Correct for Electrical Dark: No (USB4C02835)
Strobe/Lamp Enabled: No (USB4C02835)
Correct for Detector Non-linearity: No (USB4C02835)
Correct for Stray Light: No (USB4C02835)
Number of Pixels in Processed Spectrum: 3648
>>>>>Begin Processed Spectral Data<<<<<
177.47	1419.24
177.69	1419.24
177.91	1419.24
178.13	1482.73
178.36	1501.16
178.58	1617.90
178.80	1703.91
179.02	1550.31
179.24	1685.48
179.46	1636.33
179.68	1705.96
179.90	1638.38
180.13	1687.53
180.35	1667.05
180.57	1675.24
180.79	1677.29
181.01	1673.19
181.23	1791.97
181.45	1718.25
181.67	1759.21
181.90	1761.25
182.12	1624.04
182.34	1632.23
182.56	1660.90
182.78	1689.57
183.00	1695.72
183.22	1759.21
183.44	1589.22
183.66	1796.07
183.89	1789.92
184.11	1683.43
184.33	1767.40
184.55	1804.26
184.77	1724.39
184.99	1708.01
185.21	1701.86
185.43	1869.80
185.65	1703.91
185.87	1730.53
186.10	1806.31
186.32	1804.26
186.54	1693.67
186.76	1765.35
186.98	1820.64
187.20	1626.09
187.42	1640.42
187.64	1693.67
187.86	1814.50
188.08	1710.05
188.30	1652.71
188.52	1642.47
188.75	1800.16
188.97	1812.45
189.19	1607.66
189.41	1640.42
189.63	1703.91
189.85	1624.04
190.07	1607.66
190.29	1689.57
190.51	1779.68
190.73	1697.77
190.95	1787.88
191.17	1732.58
191.39	1646.57
191.61	1718.25
191.84	1656.81
192.06	1763.30
192.28	1619.94
192.50	1857.51
192.72	1757.16
192.94	1691.62
193.16	1869.80
193.38	1662.95
193.60	1654.76
193.82	1607.66
194.04	1832.93
194.26	1648.61
194.48	1757.16
194.70	1673.19
194.92	1751.01
195.14	1697.77
195.36	1665.00
195.58	1675.24
195.80	1695.72
196.02	1638.38
196.24	1816.55
196.46	1703.91
196.69	1730.53
196.91	1847.27
197.13	1730.53
197.35	1667.05
197.57	1705.96
197.79	1839.08
198.01	1714.15
198.23	1773.54
198.45	1673.19
198.67	1714.15
198.89	1689.57
199.11	1677.29
199.33	1605.61
199.55	1621.99
199.77	1613.80
199.99	1765.35
200.21	1806.31
200.43	1755.11
200.65	1644.52
200.87	1611.75
201.09	1716.20
201.31	1642.47
201.53	1697.77
201.75	1746.92
201.97	1716.20
202.19	1742.82
202.41	1730.53
202.63	1775.59
202.85	1724.39
203.07	1677.29
203.29	1675.24
203.51	1662.95
203.73	1693.67
203.95	1834.98
204.17	1783.78
204.39	1652.71
204.61	1689.57
204.83	1693.67
205.05	1728.49
205.27	1730.53
205.49	1796.07
205.71	1746.92
205.93	1644.52
206.15	1607.66
206.37	1738.73
206.59	1615.85
206.81	1675.24
207.03	1601.51
207.25	1703.91
207.47	1697.77
207.69	1677.29
207.91	1849.32
208.13	1806.31
208.34	1712.10
208.56	1605.61
208.78	1712.10
209.00	1718.25
209.22	1679.33
209.44	1705.96
209.66	1656.81
209.88	1712.10
210.10	1665.00
210.32	1654.76
210.54	1746.92
210.76	1656.81
210.98	1765.35
211.20	1621.99
211.42	1712.10
211.64	1777.64
211.86	1662.95
212.08	1728.49
212.30	1740.77
212.52	1701.86
212.74	1677.29
212.96	1726.44
213.17	1767.40
213.39	1804.26
213.61	1753.06
213.83	1705.96
214.05	1650.66
214.27	1671.14
214.49	1574.89
214.71	1667.05
214.93	1763.30
215.15	1685.48
215.37	1665.00
215.59	1591.27
215.81	1681.38
216.03	1785.83
216.24	1697.77
216.46	1638.38
216.68	1671.14
216.90	1757.16
217.12	1775.59
217.34	1732.58
217.56	1789.92
217.78	1851.36
218.00	1785.83
218.22	1712.10
218.44	1789.92
218.66	1742.82
218.87	1734.63
219.09	1677.29
219.31	1681.38
219.53	1744.87
219.75	1650.66
219.97	1673.19
220.19	1738.73
220.41	1763.30
220.63	1744.87
220.85	1714.15
221.06	1744.87
221.28	1779.68
221.50	1783.78
221.72	1681.38
221.94	1689.57
222.16	1685.48
222.38	1732.58
222.60	1785.83
222.82	1722.34
223.03	1722.34
223.25	1621.99
223.47	1681.38
223.69	1851.36
223.91	1814.50
224.13	1669.09
224.35	1693.67
224.57	1761.25
224.78	1808.36
225.00	1673.19
225.22	1597.42
225.44	1638.38
225.66	1828.84
225.88	1701.86
226.10	1740.77
226.32	1681.38
226.53	1763.30
226.75	1628.14
226.97	1701.86
227.19	1712.10
227.41	1677.29
227.63	1572.84
227.85	1660.90
228.06	1677.29
228.28	1685.48
228.50	1746.92
228.72	1658.85
228.94	1652.71
229.16	1591.27
229.37	1673.19
229.59	1576.94
229.81	1763.30
230.03	1638.38
230.25	1597.42
230.47	1630.18
230.69	1671.14
230.90	1742.82
231.12	1638.38
231.34	1683.43
231.56	1689.57
231.78	1628.14
232.00	1669.09
232.21	1667.05
232.43	1699.81
232.65	1601.51
232.87	1681.38
233.09	1634.28
233.30	1744.87
233.52	1722.34
233.74	1619.94
233.96	1638.38
234.18	1695.72
234.40	1708.01
234.61	1832.93
234.83	1628.14
235.05	1679.33
235.27	1853.41
235.49	1724.39
235.70	1697.77
235.92	1671.14
236.14	1703.91
236.36	1867.75
236.58	1648.61
236.79	1759.21
237.01	1691.62
237.23	1660.90
237.45	1814.50
237.67	1681.38
237.88	1689.57
238.10	1767.40
238.32	1603.56
238.54	1619.94
238.76	1662.95
238.97	1589.22
239.19	1701.86
239.41	1738.73
239.63	1738.73
239.85	1665.00
240.06	1644.52
240.28	1742.82
240.50	1732.58
240.72	1726.44
240.93	1650.66
241.15	1781.73
241.37	1644.52
241.59	1785.83
241.81	1681.38
242.02	1660.90
242.24	1689.57
242.46	1798.12
242.68	1701.86
242.89	1765.35
243.11	1738.73
243.33	1675.24
243.55	1767.40
243.76	1753.06
243.98	1691.62
244.20	1708.01
244.42	1646.57
244.64	1656.81
244.85	1685.48
245.07	1566.70
245.29	1791.97
245.51	1691.62
245.72	1771.49
245.94	1773.54
246.16	1742.82
246.38	1730.53
246.59	1677.29
246.81	1681.38
247.03	1708.01
247.24	1634.28
247.46	1673.19
247.68	1767.40
247.90	1531.88
248.11	1611.75
248.33	1703.91
248.55	1767.40
248.77	1671.14
248.98	1789.92
249.20	1814.50
249.42	1669.09
249.64	1708.01
249.85	1714.15
250.07	1665.00
250.29	1841.12
250.50	1753.06
250.72	1646.57
250.94	1642.47
251.16	1851.36
251.37	1701.86
251.59	1691.62
251.81	1767.40
252.02	1812.45
252.24	1583.08
252.46	1783.78
252.68	1693.67
252.89	1626.09
253.11	1658.85
253.33	1767.40
253.54	1767.40
253.76	1581.03
253.98	1691.62
254.20	1679.33
254.41	1705.96
254.63	1662.95
254.85	1624.04
255.06	1665.00
255.28	1740.77
255.50	1691.62
255.71	1667.05
255.93	1648.61
256.15	1626.09
256.36	1691.62
256.58	1679.33
256.80	1769.44
257.02	1677.29
257.23	1669.09
257.45	1738.73
257.67	1744.87
257.88	1630.18
258.10	1718.25
258.32	1732.58
258.53	1730.53
258.75	1783.78
258.97	1677.29
259.18	1734.63
259.40	1746.92
259.62	1785.83
259.83	1789.92
260.05	1730.53
260.27	1931.23
260.48	1738.73
260.70	1638.38
260.92	1634.28
261.13	1724.39
261.35	1720.29
261.57	1763.30
261.78	1630.18
262.00	1685.48
262.22	1724.39
262.43	1642.47
262.65	1660.90
262.86	1615.85
263.08	1828.84
263.30	1712.10
263.51	1660.90
263.73	1660.90
263.95	1818.60
264.16	1648.61
264.38	1675.24
264.60	1765.35
264.81	1603.56
265.03	1769.44
265.25	1787.88
265.46	1675.24
265.68	1814.50
265.89	1738.73
266.11	1595.37
266.33	1710.05
266.54	1761.25
266.76	1730.53
266.98	1746.92
267.19	1755.11
267.41	1810.40
267.62	1718.25
267.84	1603.56
268.06	1759.21
268.27	1667.05
268.49	1757.16
268.70	1732.58
268.92	1722.34
269.14	1658.85
269.35	1585.13
269.57	1718.25
269.79	1708.01
270.00	1681.38
270.22	1763.30
270.43	1662.95
270.65	1613.80
270.87	1746.92
271.08	1662.95
271.30	1759.21
271.51	1634.28
271.73	1767.40
271.95	1755.11
272.16	1675.24
272.38	1660.90
272.59	1669.09
272.81	1730.53
273.02	1699.81
273.24	1753.06
273.46	1748.97
273.67	1699.81
273.89	1677.29
274.10	1705.96
274.32	1789.92
274.54	1810.40
274.75	1753.06
274.97	1708.01
275.18	1767.40
275.40	1748.97
275.61	1734.63
275.83	1716.20
276.05	1644.52
276.26	1671.14
276.48	1767.40
276.69	1554.41
276.91	1679.33
277.12	1765.35
277.34	1724.39
277.55	1828.84
277.77	1681.38
277.99	1601.51
278.20	1681.38
278.42	1708.01
278.63	1609.70
278.85	1646.57
279.06	1636.33
279.28	1703.91
279.49	1665.00
279.71	1724.39
279.93	1777.64
280.14	1685.48
280.36	1642.47
280.57	1689.57
280.79	1705.96
281.00	1619.94
281.22	1654.76
281.43	1736.68
281.65	1591.27
281.86	1695.72
282.08	1763.30
282.29	1841.12
282.51	1626.09
282.73	1634.28
282.94	1697.77
283.16	1757.16
283.37	1794.02
283.59	1714.15
283.80	1773.54
284.02	1710.05
284.23	1755.11
284.45	1677.29
284.66	1652.71
284.88	1673.19
285.09	1648.61
285.31	1744.87
285.52	1681.38
285.74	1593.32
285.95	1796.07
286.17	1720.29
286.38	1746.92
286.60	1644.52
286.81	1656.81
287.03	1669.09
287.24	1708.01
287.46	1787.88
287.67	1732.58
287.89	1787.88
288.10	1716.20
288.32	1675.24
288.53	1767.40
288.75	1675.24
288.96	1712.10
289.18	1667.05
289.39	1742.82
289.61	1710.05
289.82	1783.78
290.04	1804.26
290.25	1638.38
290.47	1652.71
290.68	1669.09
290.90	1714.15
291.11	1624.04
291.33	1718.25
291.54	1611.75
291.76	1656.81
291.97	1720.29
292.18	1738.73
292.40	1634.28
292.61	1736.68
292.83	1751.01
293.04	1718.25
293.26	1714.15
293.47	1685.48
293.69	1724.39
293.90	1650.66
294.12	1841.12
294.33	1693.67
294.55	1732.58
294.76	1787.88
294.97	1753.06
295.19	1736.68
295.40	1636.33
295.62	1728.49
295.83	1695.72
296.05	1619.94
296.26	1796.07
296.48	1705.96
296.69	1665.00
296.90	1689.57
297.12	1720.29
297.33	1777.64
297.55	1685.48
297.76	1730.53
297.98	1728.49
298.19	1624.04
298.41	1650.66
298.62	1665.00
298.83	1748.97
299.05	1757.16
299.26	1601.51
299.48	1662.95
299.69	1667.05
299.90	1740.77
300.12	1652.71
300.33	1693.67
300.55	1697.77
300.76	1738.73
300.98	1648.61
301.19	1693.67
301.40	1665.00
301.62	1617.90
301.83	1748.97
302.05	1695.72
302.26	1814.50
302.47	1714.15
302.69	1669.09
302.90	1624.04
303.12	1609.70
303.33	1693.67
303.54	1847.27
303.76	1642.47
303.97	1738.73
304.19	1771.49
304.40	1636.33
304.61	1722.34
304.83	1763.30
305.04	1761.25
305.26	1683.43
305.47	1689.57
305.68	1765.35
305.90	1578.98
306.11	1734.63
306.33	1660.90
306.54	1648.61
306.75	1665.00
306.97	1648.61
307.18	1669.09
307.39	1650.66
307.61	1755.11
307.82	1755.11
308.04	1728.49
308.25	1654.76
308.46	1779.68
308.68	1734.63
308.89	1740.77
309.10	1751.01
309.32	1667.05
309.53	1697.77
309.74	1656.81
309.96	1644.52
310.17	1808.36
310.39	1710.05
310.60	1742.82
310.81	1777.64
311.03	1611.75
311.24	1705.96
311.45	1667.05
311.67	1863.65
311.88	1679.33
312.09	1685.48
312.31	1660.90
312.52	1648.61
312.73	1716.20
312.95	1636.33
313.16	1650.66
313.37	1814.50
313.59	1759.21
313.80	1767.40
314.01	1765.35
314.23	1701.86
314.44	1683.43
314.65	1640.42
314.87	1679.33
315.08	1665.00
315.29	1708.01
315.51	1667.05
315.72	1658.85
315.93	1740.77
316.15	1814.50
316.36	1667.05
316.57	1691.62
316.79	1685.48
317.00	1718.25
317.21	1685.48
317.43	1617.90
317.64	1660.90
317.85	1644.52
318.07	1652.71
318.28	1673.19
318.49	1814.50
318.70	1931.23
318.92	1718.25
319.13	1787.88
319.34	1791.97
319.56	1787.88
319.77	1716.20
319.98	1794.02
320.20	1671.14
320.41	1765.35
320.62	1777.64
320.83	1734.63
321.05	1855.46
321.26	1677.29
321.47	1652.71
321.69	1757.16
321.90	1695.72
322.11	1628.14
322.32	1763.30
322.54	1746.92
322.75	1630.18
322.96	1855.46
323.18	1603.56
323.39	1607.66
323.60	1630.18
323.81	1728.49
324.03	1636.33
324.24	1660.90
324.45	1673.19
324.66	1740.77
324.88	1800.16
325.09	1806.31
325.30	1683.43
325.52	1691.62
325.73	1748.97
325.94	1720.29
326.15	1585.13
326.37	1626.09
326.58	1734.63
326.79	1800.16
327.00	1613.80
327.22	1740.77
327.43	1714.15
327.64	1646.57
327.85	1699.81
328.07	1667.05
328.28	1798.12
328.49	1693.67
328.70	1730.53
328.92	1640.42
329.13	1628.14
329.34	1691.62
329.55	1744.87
329.76	1734.63
329.98	1667.05
330.19	1789.92
330.40	1722.34
330.61	1746.92
330.83	1740.77
331.04	1675.24
331.25	1654.76
331.46	1697.77
331.68	1701.86
331.89	1800.16
332.10	1654.76
332.31	1599.46
332.52	1628.14
332.74	1794.02
332.95	1615.85
333.16	1642.47
333.37	1767.40
333.58	1658.85
333.80	1710.05
334.01	1640.42
334.22	1714.15
334.43	1617.90
334.64	1685.48
334.86	1658.85
335.07	1665.00
335.28	1771.49
335.49	1611.75
335.70	1611.75
335.92	1800.16
336.13	1787.88
336.34	1744.87
336.55	1718.25
336.76	1697.77
336.98	1574.89
337.19	1755.11
337.40	1802.21
337.61	1787.88
337.82	1687.53
338.04	1732.58
338.25	1628.14
338.46	1695.72
338.67	1685.48
338.88	1650.66
339.09	1644.52
339.31	1642.47
339.52	1689.57
339.73	1554.41
339.94	1757.16
340.15	1759.21
340.36	1658.85
340.58	1693.67
340.79	1597.42
341.00	1742.82
341.21	1667.05
341.42	1824.74
341.63	1705.96
341.85	1794.02
342.06	1660.90
342.27	1583.08
342.48	1697.77
342.69	1646.57
342.90	1679.33
343.12	1671.14
343.33	1693.67
343.54	1642.47
343.75	1761.25
343.96	1632.23
344.17	1619.94
344.38	1701.86
344.60	1628.14
344.81	1660.90
345.02	1701.86
345.23	1720.29
345.44	1738.73
345.65	1710.05
345.86	1685.48
346.07	1673.19
346.29	1636.33
346.50	1726.44
346.71	1677.29
346.92	1681.38
347.13	1841.12
347.34	1689.57
347.55	1648.61
347.76	1712.10
347.98	1669.09
348.19	1679.33
348.40	1824.74
348.61	1667.05
348.82	1834.98
349.03	1746.92
349.24	1615.85
349.45	1818.60
349.66	1644.52
349.88	1654.76
350.09	1701.86
350.30	1796.07
350.51	1748.97
350.72	1767.40
350.93	1705.96
351.14	1687.53
351.35	1697.77
351.56	1744.87
351.77	1671.14
351.99	1753.06
352.20	1847.27
352.41	1726.44
352.62	1587.18
352.83	1671.14
353.04	1691.62
353.25	1699.81
353.46	1724.39
353.67	1759.21
353.88	1626.09
354.09	1791.97
354.30	1714.15
354.52	1724.39
354.73	1724.39
354.94	1691.62
355.15	1751.01
355.36	1800.16
355.57	1656.81
355.78	1744.87
355.99	1669.09
356.20	1691.62
356.41	1763.30
356.62	1740.77
356.83	1738.73
357.04	1804.26
357.25	1685.48
357.46	1714.15
357.68	1632.23
357.89	1677.29
358.10	1681.38
358.31	1652.71
358.52	1652.71
358.73	1679.33
358.94	1669.09
359.15	1665.00
359.36	1791.97
359.57	1669.09
359.78	1609.70
359.99	1714.15
360.20	1644.52
360.41	1650.66
360.62	1732.58
360.83	1755.11
361.04	1757.16
361.25	1691.62
361.46	1759.21
361.67	1757.16
361.88	1796.07
362.09	1712.10
362.30	1779.68
362.51	1683.43
362.72	1671.14
362.93	1673.19
363.14	1724.39
363.35	1673.19
363.56	1611.75
363.78	1783.78
363.99	1712.10
364.20	1626.09
364.41	1732.58
364.62	1841.12
364.83	1751.01
365.04	1650.66
365.25	1722.34
365.46	1769.44
365.67	1689.57
365.88	1662.95
366.09	1683.43
366.30	1671.14
366.51	1697.77
366.72	1630.18
366.93	1632.23
367.14	1740.77
367.35	1785.83
367.56	1621.99
367.77	1787.88
367.98	1732.58
368.18	1773.54
368.39	1701.86
368.60	1615.85
368.81	1771.49
369.02	1658.85
369.23	1671.14
369.44	1624.04
369.65	1728.49
369.86	1722.34
370.07	1832.93
370.28	1658.85
370.49	1671.14
370.70	1753.06
370.91	1609.70
371.12	1615.85
371.33	1767.40
371.54	1675.24
371.75	1808.36
371.96	1540.07
372.17	1669.09
372.38	1644.52
372.59	1796.07
372.80	1638.38
373.01	1650.66
373.22	1757.16
373.43	1701.86
373.64	1628.14
373.85	1753.06
374.06	1798.12
374.26	1767.40
374.47	1710.05
374.68	1748.97
374.89	1632.23
375.10	1634.28
375.31	1800.16
375.52	1746.92
375.73	1699.81
375.94	1630.18
376.15	1748.97
376.36	1689.57
376.57	1642.47
376.78	1687.53
376.99	1718.25
377.20	1796.07
377.40	1665.00
377.61	1800.16
377.82	1650.66
378.03	1865.70
378.24	1757.16
378.45	1587.18
378.66	1734.63
378.87	1603.56
379.08	1699.81
379.29	1687.53
379.50	1718.25
379.71	1687.53
379.91	1728.49
380.12	1730.53
380.33	1662.95
380.54	1748.97
380.75	1775.59
380.96	1771.49
381.17	1781.73
381.38	1722.34
381.59	1697.77
381.80	1677.29
382.00	1771.49
382.21	1689.57
382.42	1785.83
382.63	1855.46
382.84	1789.92
383.05	1763.30
383.26	1824.74
383.47	1775.59
383.68	1722.34
383.88	1769.44
384.09	1683.43
384.30	1816.55
384.51	1697.77
384.72	1714.15
384.93	1658.85
385.14	1697.77
385.35	1757.16
385.55	1591.27
385.76	1718.25
385.97	1738.73
386.18	1593.32
386.39	1716.20
386.60	1658.85
386.81	1597.42
387.02	1697.77
387.22	1615.85
387.43	1730.53
387.64	1798.12
387.85	1902.56
388.06	2181.09
388.27	4280.25
388.48	6694.81
388.68	8255.36
388.89	9594.73
389.10	9774.95
389.31	8617.85
389.52	7491.47
389.73	6850.46
389.93	6279.07
390.14	5992.36
390.35	5304.24
390.56	4671.42
390.77	3831.75
390.98	3088.34
391.18	2531.29
391.39	2172.89
391.60	1820.64
391.81	1804.26
392.02	1640.42
392.23	1839.08
392.43	1724.39
392.64	1777.64
392.85	1708.01
393.06	1732.58
393.27	1699.81
393.47	1699.81
393.68	1675.24
393.89	1699.81
394.10	1837.03
394.31	1691.62
394.52	1656.81
394.72	1644.52
394.93	1738.73
395.14	1611.75
395.35	1781.73
395.56	1630.18
395.76	1757.16
395.97	1787.88
396.18	1822.69
396.39	1824.74
396.60	2019.30
396.80	1900.52
397.01	1875.94
397.22	1824.74
397.43	1798.12
397.64	1714.15
397.84	1804.26
398.05	1896.42
398.26	1759.21
398.47	1791.97
398.67	1820.64
398.88	1673.19
399.09	1767.40
399.30	1738.73
399.51	1703.91
399.71	1650.66
399.92	1675.24
400.13	1703.91
400.34	1728.49
400.54	1683.43
400.75	1855.46
400.96	1767.40
401.17	1845.22
401.37	1722.34
401.58	1644.52
401.79	1814.50
402.00	1912.80
402.21	2033.63
402.41	1968.10
402.62	2007.01
402.83	2033.63
403.04	1972.19
403.24	2064.35
403.45	1884.13
403.66	1837.03
403.87	1814.50
404.07	1853.41
404.28	1900.52
404.49	1843.17
404.70	1734.63
404.90	1708.01
405.11	1763.30
405.32	1712.10
405.52	1773.54
405.73	1708.01
405.94	1624.04
406.15	1662.95
406.35	1736.68
406.56	1738.73
406.77	1755.11
406.98	1787.88
407.18	1740.77
407.39	1810.40
407.60	1730.53
407.80	1669.09
408.01	1757.16
408.22	1673.19
408.43	1667.05
408.63	1665.00
408.84	1824.74
409.05	1775.59
409.25	1652.71
409.46	1673.19
409.67	1656.81
409.88	1617.90
410.08	1740.77
410.29	1761.25
410.50	1753.06
410.70	1757.16
410.91	1619.94
411.12	1718.25
411.32	1722.34
411.53	1660.90
411.74	1699.81
411.95	1748.97
412.15	1757.16
412.36	1740.77
412.57	1716.20
412.77	1816.55
412.98	1763.30
413.19	1722.34
413.39	1769.44
413.60	1705.96
413.81	1781.73
414.01	1656.81
414.22	1742.82
414.43	1722.34
414.63	1732.58
414.84	1804.26
415.05	1697.77
415.25	1658.85
415.46	1705.96
415.67	1660.90
415.87	1703.91
416.08	1689.57
416.29	1646.57
416.49	1712.10
416.70	1660.90
416.91	1705.96
417.11	1726.44
417.32	1708.01
417.53	1693.67
417.73	1691.62
417.94	1675.24
418.15	1718.25
418.35	1712.10
418.56	1740.77
418.77	1832.93
418.97	1714.15
419.18	1621.99
419.38	1574.89
419.59	1722.34
419.80	1869.80
420.00	1660.90
420.21	1720.29
420.42	1763.30
420.62	1720.29
420.83	1710.05
421.04	1677.29
421.24	1589.22
421.45	1759.21
421.65	1810.40
421.86	1677.29
422.07	1710.05
422.27	1708.01
422.48	1798.12
422.69	1656.81
422.89	1646.57
423.10	1699.81
423.30	1648.61
423.51	1615.85
423.72	1716.20
423.92	1730.53
424.13	1628.14
424.33	1724.39
424.54	1787.88
424.75	1703.91
424.95	1873.89
425.16	1798.12
425.36	1771.49
425.57	1693.67
425.78	1742.82
425.98	1734.63
426.19	1617.90
426.39	1673.19
426.60	1740.77
426.81	1791.97
427.01	1697.77
427.22	1781.73
427.42	1644.52
427.63	1705.96
427.83	1665.00
428.04	1791.97
428.25	1730.53
428.45	1732.58
428.66	1742.82
428.86	1716.20
429.07	1687.53
429.28	1759.21
429.48	1736.68
429.69	1632.23
429.89	1759.21
430.10	1683.43
430.30	1738.73
430.51	1820.64
430.71	1658.85
430.92	1632.23
431.13	1705.96
431.33	1695.72
431.54	1726.44
431.74	1812.45
431.95	1806.31
432.15	1624.04
432.36	1648.61
432.56	1837.03
432.77	1851.36
432.98	1824.74
433.18	1757.16
433.39	1689.57
433.59	1665.00
433.80	1824.74
434.00	1810.40
434.21	1724.39
434.41	1669.09
434.62	1794.02
434.82	1634.28
435.03	1697.77
435.23	1755.11
435.44	1642.47
435.64	1658.85
435.85	1748.97
436.06	1775.59
436.26	1765.35
436.47	1675.24
436.67	1630.18
436.88	1732.58
437.08	1761.25
437.29	1769.44
437.49	1730.53
437.70	1759.21
437.90	1708.01
438.11	1906.66
438.31	1783.78
438.52	1855.46
438.72	1796.07
438.93	1898.47
439.13	1728.49
439.34	1787.88
439.54	1771.49
439.75	1767.40
439.95	1730.53
440.16	1734.63
440.36	1720.29
440.57	1714.15
440.77	1748.97
440.98	1679.33
441.18	1765.35
441.39	1734.63
441.59	1708.01
441.80	1791.97
442.00	1771.49
442.21	1765.35
442.41	1667.05
442.62	1755.11
442.82	1697.77
443.02	1695.72
443.23	1765.35
443.43	1642.47
443.64	1742.82
443.84	1767.40
444.05	1789.92
444.25	1730.53
444.46	1740.77
444.66	1746.92
444.87	1781.73
445.07	1644.52
445.28	1689.57
445.48	1769.44
445.69	1757.16
445.89	1843.17
446.09	1767.40
446.30	2045.92
446.50	2723.80
446.71	3704.78
446.91	4286.40
447.12	4788.15
447.32	4911.03
447.53	4394.94
447.73	3895.24
447.93	3549.13
448.14	3317.71
448.34	3223.50
448.55	2879.44
448.75	2803.67
448.96	2684.89
449.16	2435.03
449.36	2222.05
449.57	2000.87
449.77	1945.57
449.98	1841.12
450.18	1812.45
450.39	1886.18
450.59	1757.16
450.79	1732.58
451.00	1718.25
451.20	1722.34
451.41	1710.05
451.61	1736.68
451.81	1697.77
452.02	1751.01
452.22	1736.68
452.43	1730.53
452.63	1683.43
452.84	1722.34
453.04	1673.19
453.24	1703.91
453.45	1628.14
453.65	1677.29
453.86	1761.25
454.06	1710.05
454.26	1722.34
454.47	1646.57
454.67	1773.54
454.87	1771.49
455.08	1689.57
455.28	1824.74
455.49	1667.05
455.69	1724.39
455.89	1859.56
456.10	1800.16
456.30	1716.20
456.51	1769.44
456.71	1751.01
456.91	1763.30
457.12	1802.21
457.32	1691.62
457.52	1642.47
457.73	1783.78
457.93	1675.24
458.14	1671.14
458.34	1595.37
458.54	1789.92
458.75	1722.34
458.95	1751.01
459.15	1699.81
459.36	1773.54
459.56	1701.86
459.76	1855.46
459.97	1746.92
460.17	1767.40
460.37	1808.36
460.58	1701.86
460.78	1775.59
460.99	1728.49
461.19	1828.84
461.39	1718.25
461.60	1611.75
461.80	1701.86
462.00	1652.71
462.21	1693.67
462.41	1634.28
462.61	1652.71
462.82	1689.57
463.02	1806.31
463.22	1726.44
463.43	1712.10
463.63	1796.07
463.83	1843.17
464.04	1738.73
464.24	1738.73
464.44	1691.62
464.64	1667.05
464.85	1724.39
465.05	1816.55
465.25	1753.06
465.46	1677.29
465.66	1804.26
465.86	1734.63
466.07	1734.63
466.27	1693.67
466.47	1667.05
466.68	1665.00
466.88	1806.31
467.08	1740.77
467.29	1748.97
467.49	1681.38
467.69	1751.01
467.89	1785.83
468.10	1742.82
468.30	1722.34
468.50	1847.27
468.71	1812.45
468.91	1642.47
469.11	1851.36
469.31	1677.29
469.52	1726.44
469.72	1798.12
469.92	1882.08
470.13	1732.58
470.33	1751.01
470.53	1822.69
470.73	2080.74
470.94	2359.26
471.14	2373.60
471.34	2418.65
471.54	2381.79
471.75	2232.29
471.95	2111.46
472.15	2060.26
472.36	2107.36
472.56	2115.55
472.76	2076.64
472.96	1957.86
473.17	1970.15
473.37	1847.27
473.57	1810.40
473.77	1789.92
473.98	1812.45
474.18	1621.99
474.38	1892.32
474.58	1681.38
474.79	1722.34
474.99	1804.26
475.19	1787.88
475.39	1636.33
475.60	1761.25
475.80	1744.87
476.00	1703.91
476.20	1669.09
476.41	1734.63
476.61	1808.36
476.81	1779.68
477.01	1667.05
477.21	1822.69
477.42	1763.30
477.62	1665.00
477.82	1738.73
478.02	1724.39
478.23	1724.39
478.43	1638.38
478.63	1691.62
478.83	1705.96
479.03	1695.72
479.24	1796.07
479.44	1771.49
479.64	1675.24
479.84	1665.00
480.04	1644.52
480.25	1765.35
480.45	1683.43
480.65	1716.20
480.85	1761.25
481.06	1667.05
481.26	1685.48
481.46	1705.96
481.66	1714.15
481.86	1669.09
482.06	1757.16
482.27	1708.01
482.47	1736.68
482.67	1746.92
482.87	1728.49
483.07	1753.06
483.28	1656.81
483.48	1595.37
483.68	1648.61
483.88	1685.48
484.08	1609.70
484.29	1660.90
484.49	1732.58
484.69	1570.79
484.89	1714.15
485.09	1837.03
485.29	1751.01
485.50	1748.97
485.70	1697.77
485.90	1830.88
486.10	1757.16
486.30	1751.01
486.50	1804.26
486.71	1771.49
486.91	1751.01
487.11	1814.50
487.31	1626.09
487.51	1701.86
487.71	1710.05
487.91	1632.23
488.12	1658.85
488.32	1533.93
488.52	1689.57
488.72	1650.66
488.92	1708.01
489.12	1753.06
489.32	1804.26
489.53	1751.01
489.73	1669.09
489.93	1773.54
490.13	1636.33
490.33	1581.03
490.53	1681.38
490.73	1812.45
490.94	1665.00
491.14	1791.97
491.34	1779.68
491.54	2060.26
491.74	2650.07
491.94	2811.86
492.14	3045.33
492.34	2990.03
492.54	2738.13
492.75	2494.43
492.95	2389.98
493.15	2293.72
493.35	2277.34
493.55	2238.43
493.75	2078.69
493.95	2193.37
494.15	2039.78
494.35	1837.03
494.56	1875.94
494.76	1708.01
494.96	1847.27
495.16	1816.55
495.36	1673.19
495.56	1751.01
495.76	1714.15
495.96	1710.05
496.16	1675.24
496.36	1902.56
496.56	1716.20
496.77	1718.25
496.97	1697.77
497.17	1796.07
497.37	1671.14
497.57	1808.36
497.77	1722.34
497.97	1679.33
498.17	1708.01
498.37	1724.39
498.57	1771.49
498.77	1716.20
498.97	1806.31
499.17	1896.42
499.38	1775.59
499.58	1705.96
499.78	1751.01
499.98	1816.55
500.18	1634.28
500.38	1679.33
500.58	1978.34
500.78	2572.25
500.98	4499.39
501.18	5797.80
501.38	6840.22
501.58	7014.29
501.78	6653.85
501.98	5615.53
502.18	5091.25
502.38	4501.44
502.58	4163.52
502.78	3821.51
502.98	3647.43
503.18	3377.10
503.38	3164.11
503.59	2895.83
503.79	2672.60
503.99	2527.19
504.19	2287.58
504.39	2228.19
504.59	2224.09
504.79	2082.78
504.99	2004.96
505.19	1851.36
505.39	1900.52
505.59	1884.13
505.79	1961.95
505.99	1888.23
506.19	1798.12
506.39	1869.80
506.59	1710.05
506.79	1751.01
506.99	1828.84
507.19	1775.59
507.39	1748.97
507.59	1689.57
507.79	1689.57
507.99	1679.33
508.19	1695.72
508.39	1685.48
508.59	1738.73
508.79	1877.99
508.99	1898.47
509.19	1652.71
509.39	1738.73
509.59	1734.63
509.79	1660.90
509.99	1675.24
510.19	1718.25
510.39	1779.68
510.59	1769.44
510.79	1605.61
510.99	1607.66
511.19	1791.97
511.39	1794.02
511.59	1820.64
511.79	1890.28
511.99	1814.50
512.19	1822.69
512.38	1738.73
512.58	1701.86
512.78	1738.73
512.98	1728.49
513.18	1818.60
513.38	1722.34
513.58	1822.69
513.78	1753.06
513.98	1718.25
514.18	1695.72
514.38	1771.49
514.58	1708.01
514.78	1675.24
514.98	1646.57
515.18	1687.53
515.38	1701.86
515.58	1837.03
515.78	1685.48
515.98	1744.87
516.18	1753.06
516.38	1781.73
516.57	1726.44
516.77	1699.81
516.97	1812.45
517.17	1695.72
517.37	1595.37
517.57	1791.97
517.77	1695.72
517.97	1669.09
518.17	1787.88
518.37	1699.81
518.57	1710.05
518.77	1685.48
518.97	1732.58
519.16	1732.58
519.36	1789.92
519.56	1685.48
519.76	1716.20
519.96	1718.25
520.16	1847.27
520.36	1673.19
520.56	1810.40
520.76	1767.40
520.96	1722.34
521.16	1716.20
521.35	1791.97
521.55	1744.87
521.75	1705.96
521.95	1730.53
522.15	1791.97
522.35	1615.85
522.55	1669.09
522.75	1769.44
522.95	1718.25
523.14	1685.48
523.34	1740.77
523.54	1673.19
523.74	1730.53
523.94	1794.02
524.14	1632.23
524.34	1812.45
524.54	1748.97
524.73	1732.58
524.93	1757.16
525.13	1732.58
525.33	1718.25
525.53	1945.57
525.73	1822.69
525.93	1730.53
526.13	1689.57
526.32	1767.40
526.52	1773.54
526.72	1763.30
526.92	1693.67
527.12	1681.38
527.32	1712.10
527.52	1767.40
527.71	1730.53
527.91	1697.77
528.11	1687.53
528.31	1718.25
528.51	1712.10
528.71	1822.69
528.90	1744.87
529.10	1796.07
529.30	1730.53
529.50	1662.95
529.70	1703.91
529.90	1691.62
530.09	1716.20
530.29	1691.62
530.49	1642.47
530.69	1937.38
530.89	1720.29
531.09	1751.01
531.28	1785.83
531.48	1773.54
531.68	1732.58
531.88	1763.30
532.08	1742.82
532.28	1726.44
532.47	1720.29
532.67	1791.97
532.87	1742.82
533.07	1714.15
533.27	1804.26
533.46	1755.11
533.66	1746.92
533.86	1665.00
534.06	1685.48
534.26	1744.87
534.45	1689.57
534.65	1808.36
534.85	1742.82
535.05	1726.44
535.25	1802.21
535.44	1667.05
535.64	1777.64
535.84	1787.88
536.04	1679.33
536.24	1748.97
536.43	1683.43
536.63	1722.34
536.83	1712.10
537.03	1689.57
537.22	1667.05
537.42	1673.19
537.62	1796.07
537.82	1683.43
538.02	1855.46
538.21	1767.40
538.41	1873.89
538.61	1771.49
538.81	1665.00
539.00	1708.01
539.20	1597.42
539.40	1667.05
539.60	1761.25
539.79	1791.97
539.99	1697.77
540.19	1724.39
540.39	1654.76
540.58	1777.64
540.78	1722.34
540.98	1740.77
541.18	1787.88
541.37	1789.92
541.57	1693.67
541.77	1724.39
541.97	1710.05
542.16	1595.37
542.36	1679.33
542.56	1804.26
542.76	1865.70
542.95	1748.97
543.15	1812.45
543.35	1736.68
543.54	1640.42
543.74	1660.90
543.94	1855.46
544.14	1710.05
544.33	1800.16
544.53	1734.63
544.73	1681.38
544.93	1732.58
545.12	1720.29
545.32	1812.45
545.52	1701.86
545.71	1740.77
545.91	1732.58
546.11	1781.73
546.30	1650.66
546.50	1755.11
546.70	1757.16
546.90	1759.21
547.09	1716.20
547.29	1710.05
547.49	1716.20
547.68	1794.02
547.88	1720.29
548.08	1701.86
548.27	2131.94
548.47	1742.82
548.67	1691.62
548.87	1734.63
549.06	1771.49
549.26	1820.64
549.46	1767.40
549.65	1699.81
549.85	1730.53
550.05	1822.69
550.24	1603.56
550.44	1714.15
550.64	1763.30
550.83	1806.31
551.03	1824.74
551.23	1798.12
551.42	1789.92
551.62	1708.01
551.82	1730.53
552.01	1728.49
552.21	1738.73
552.41	1726.44
552.60	1830.88
552.80	1781.73
553.00	1701.86
553.19	1769.44
553.39	1804.26
553.59	1740.77
553.78	1791.97
553.98	1705.96
554.17	1646.57
554.37	1748.97
554.57	1716.20
554.76	1775.59
554.96	1710.05
555.16	1765.35
555.35	1691.62
555.55	1855.46
555.75	1740.77
555.94	1794.02
556.14	1691.62
556.33	1771.49
556.53	1689.57
556.73	1742.82
556.92	1718.25
557.12	1828.84
557.32	1812.45
557.51	1783.78
557.71	1789.92
557.90	1777.64
558.10	1871.84
558.30	1667.05
558.49	1761.25
558.69	1751.01
558.88	1763.30
559.08	1732.58
559.28	1708.01
559.47	1800.16
559.67	1744.87
559.86	1828.84
560.06	1738.73
560.26	1710.05
560.45	1738.73
560.65	1755.11
560.84	1818.60
561.04	1697.77
561.24	1744.87
561.43	1679.33
561.63	1794.02
561.82	1681.38
562.02	1798.12
562.22	1738.73
562.41	1683.43
562.61	1734.63
562.80	1718.25
563.00	1900.52
563.19	1642.47
563.39	1765.35
563.59	1796.07
563.78	1675.24
563.98	1646.57
564.17	1693.67
564.37	1628.14
564.56	1732.58
564.76	1718.25
564.96	1824.74
565.15	1730.53
565.35	1859.56
565.54	1703.91
565.74	1697.77
565.93	1769.44
566.13	1722.34
566.32	1716.20
566.52	1732.58
566.71	1726.44
566.91	1796.07
567.11	1726.44
567.30	1611.75
567.50	1755.11
567.69	1763.30
567.89	1748.97
568.08	1730.53
568.28	1742.82
568.47	1685.48
568.67	1828.84
568.86	1708.01
569.06	1703.91
569.25	1785.83
569.45	1634.28
569.64	1753.06
569.84	1697.77
570.04	1734.63
570.23	1810.40
570.43	1724.39
570.62	1810.40
570.82	1867.75
571.01	1636.33
571.21	1755.11
571.40	1673.19
571.60	1863.65
571.79	1802.21
571.99	1748.97
572.18	1759.21
572.38	1718.25
572.57	1787.88
572.77	1800.16
572.96	1869.80
573.16	1816.55
573.35	1769.44
573.55	1875.94
573.74	1736.68
573.94	1685.48
574.13	1746.92
574.33	1771.49
574.52	1656.81
574.71	1744.87
574.91	1765.35
575.10	1695.72
575.30	1710.05
575.49	1683.43
575.69	1763.30
575.88	1748.97
576.08	1703.91
576.27	1828.84
576.47	1720.29
576.66	1839.08
576.86	1808.36
577.05	1775.59
577.25	1757.16
577.44	1931.23
577.64	1691.62
577.83	1841.12
578.02	1730.53
578.22	1714.15
578.41	1777.64
578.61	1701.86
578.80	1734.63
579.00	1708.01
579.19	1765.35
579.39	1816.55
579.58	1777.64
579.77	1767.40
579.97	1853.41
580.16	1794.02
580.36	1759.21
580.55	1943.52
580.75	1804.26
580.94	1689.57
581.13	1867.75
581.33	1828.84
581.52	1722.34
581.72	1865.70
581.91	1841.12
582.11	1753.06
582.30	1716.20
582.49	1746.92
582.69	1761.25
582.88	1826.79
583.08	1683.43
583.27	1771.49
583.47	1763.30
583.66	1697.77
583.85	1642.47
584.05	1724.39
584.24	1775.59
584.44	1888.23
584.63	1832.93
584.82	1820.64
585.02	1808.36
585.21	1869.80
585.41	1849.32
585.60	1816.55
585.79	1925.09
585.99	1900.52
586.18	1912.80
586.37	2187.23
586.57	3356.62
586.76	9828.20
586.96	24546.95
587.15	34774.51
587.34	41024.91
587.54	42730.87
587.73	37490.12
587.93	26564.20
588.12	21956.27
588.31	18685.67
588.51	16609.03
588.70	15339.29
588.89	14260.01
589.09	12707.65
589.28	11040.60
589.47	9623.41
589.67	8019.85
589.86	6356.90
590.06	4818.87
590.25	3917.76
590.44	3192.78
590.64	2658.26
590.83	2263.01
591.02	2168.80
591.22	1916.90
591.41	1877.99
591.60	1851.36
591.80	1992.67
591.99	1736.68
592.18	1761.25
592.38	1832.93
592.57	1806.31
592.76	1771.49
592.96	1763.30
593.15	1841.12
593.34	1830.88
593.54	1802.21
593.73	1798.12
593.92	1820.64
594.12	1810.40
594.31	1759.21
594.50	1853.41
594.70	1777.64
594.89	1824.74
595.08	1628.14
595.28	1763.30
595.47	1929.19
595.66	1777.64
595.86	1683.43
596.05	1771.49
596.24	1712.10
596.43	1853.41
596.63	1837.03
596.82	1773.54
597.01	1806.31
597.21	1837.03
597.40	1744.87
597.59	1748.97
597.79	1732.58
597.98	1751.01
598.17	1779.68
598.36	1730.53
598.56	1822.69
598.75	1738.73
598.94	1804.26
599.14	1791.97
599.33	1669.09
599.52	1755.11
599.71	1796.07
599.91	1818.60
600.10	1771.49
600.29	1642.47
600.48	1769.44
600.68	1791.97
600.87	1806.31
601.06	1677.29
601.26	1685.48
601.45	1734.63
601.64	1695.72
601.83	1837.03
602.03	1662.95
602.22	1718.25
602.41	1814.50
602.60	1802.21
602.80	1751.01
602.99	1730.53
603.18	1726.44
603.37	1728.49
603.57	1773.54
603.76	1769.44
603.95	1851.36
604.14	1699.81
604.34	1703.91
604.53	1705.96
604.72	1773.54
604.91	1699.81
605.10	1744.87
605.30	1665.00
605.49	1812.45
605.68	1744.87
605.87	1783.78
606.07	1728.49
606.26	1767.40
606.45	1806.31
606.64	1703.91
606.84	1714.15
607.03	1757.16
607.22	1710.05
607.41	1646.57
607.60	1712.10
607.80	1763.30
607.99	1658.85
608.18	1757.16
608.37	1748.97
608.56	1703.91
608.76	1783.78
608.95	1847.27
609.14	1779.68
609.33	1804.26
609.52	1734.63
609.72	1738.73
609.91	1773.54
610.10	1703.91
610.29	1837.03
610.48	1779.68
610.68	1783.78
610.87	1714.15
611.06	1828.84
611.25	1697.77
611.44	1804.26
611.63	1634.28
611.83	1830.88
612.02	1673.19
612.21	1781.73
612.40	1667.05
612.59	1697.77
612.79	1634.28
612.98	1734.63
613.17	1796.07
613.36	1683.43
613.55	1777.64
613.74	1665.00
613.93	1785.83
614.13	1683.43
614.32	1681.38
614.51	1742.82
614.70	1751.01
614.89	1662.95
615.08	1732.58
615.28	2045.92
615.47	1593.32
615.66	1796.07
615.85	1748.97
616.04	1843.17
616.23	1748.97
616.42	1794.02
616.62	1681.38
616.81	1746.92
617.00	1722.34
617.19	1708.01
617.38	1701.86
617.57	1755.11
617.76	1740.77
617.95	1787.88
618.15	1791.97
618.34	1759.21
618.53	1677.29
618.72	1818.60
618.91	1783.78
619.10	1781.73
619.29	1771.49
619.48	1681.38
619.68	1728.49
619.87	1691.62
620.06	1681.38
620.25	1685.48
620.44	1640.42
620.63	1703.91
620.82	1714.15
621.01	1751.01
621.20	1689.57
621.39	1703.91
621.59	1669.09
621.78	1669.09
621.97	1728.49
622.16	1832.93
622.35	1710.05
622.54	1740.77
622.73	1796.07
622.92	1648.61
623.11	1796.07
623.30	1681.38
623.49	1763.30
623.68	1685.48
623.88	1877.99
624.07	1689.57
624.26	1693.67
624.45	1789.92
624.64	1705.96
624.83	1683.43
625.02	1755.11
625.21	1714.15
625.40	1730.53
625.59	1861.60
625.78	1773.54
625.97	1806.31
626.16	1796.07
626.35	1816.55
626.54	1626.09
626.74	1779.68
626.93	1703.91
627.12	1720.29
627.31	1808.36
627.50	1722.34
627.69	1798.12
627.88	1679.33
628.07	1712.10
628.26	1634.28
628.45	1763.30
628.64	1691.62
628.83	1746.92
629.02	1689.57
629.21	1789.92
629.40	1738.73
629.59	1701.86
629.78	1662.95
629.97	1654.76
630.16	1673.19
630.35	1710.05
630.54	1658.85
630.73	1720.29
630.92	1701.86
631.11	1689.57
631.30	1748.97
631.49	1771.49
631.68	1740.77
631.87	1841.12
632.06	1609.70
632.25	1869.80
632.44	1736.68
632.63	1705.96
632.82	1720.29
633.01	1705.96
633.20	1656.81
633.39	1751.01
633.58	1675.24
633.77	1728.49
633.96	1689.57
634.15	1716.20
634.34	1816.55
634.53	1679.33
634.72	1658.85
634.91	1615.85
635.10	1755.11
635.29	1724.39
635.48	1736.68
635.67	1683.43
635.86	1595.37
636.05	1810.40
636.24	1769.44
636.43	1753.06
636.62	1656.81
636.81	1603.56
637.00	1677.29
637.19	1816.55
637.38	1751.01
637.57	1701.86
637.76	1660.90
637.95	1742.82
638.14	1675.24
638.33	1726.44
638.52	1787.88
638.71	1691.62
638.89	1568.74
639.08	1781.73
639.27	1779.68
639.46	1656.81
639.65	1830.88
639.84	1703.91
640.03	1806.31
640.22	1662.95
640.41	1834.98
640.60	1648.61
640.79	1773.54
640.98	1755.11
641.17	1732.58
641.36	1716.20
641.55	1710.05
641.74	1724.39
641.92	1710.05
642.11	1619.94
642.30	1710.05
642.49	1724.39
642.68	1714.15
642.87	1701.86
643.06	1685.48
643.25	1619.94
643.44	1640.42
643.63	1697.77
643.82	1787.88
644.00	1656.81
644.19	1726.44
644.38	1720.29
644.57	1714.15
644.76	1765.35
644.95	1791.97
645.14	1667.05
645.33	1681.38
645.52	1785.83
645.71	1609.70
645.89	1695.72
646.08	1693.67
646.27	1681.38
646.46	1769.44
646.65	1685.48
646.84	1757.16
647.03	1613.80
647.22	1740.77
647.40	1691.62
647.59	1753.06
647.78	1662.95
647.97	1701.86
648.16	1630.18
648.35	1761.25
648.54	1785.83
648.73	1634.28
648.91	1794.02
649.10	1779.68
649.29	1695.72
649.48	1736.68
649.67	1710.05
649.86	1734.63
650.05	1619.94
650.23	1757.16
650.42	1607.66
650.61	1683.43
650.80	1787.88
650.99	1912.80
651.18	1710.05
651.36	1761.25
651.55	1781.73
651.74	1681.38
651.93	1660.90
652.12	1650.66
652.31	1724.39
652.49	1673.19
652.68	1650.66
652.87	1732.58
653.06	1691.62
653.25	1806.31
653.44	1705.96
653.62	1849.32
653.81	1679.33
654.00	1705.96
654.19	1763.30
654.38	1955.81
654.56	1742.82
654.75	1732.58
654.94	1751.01
655.13	1728.49
655.32	1677.29
655.51	1783.78
655.69	1685.48
655.88	1832.93
656.07	1720.29
656.26	1732.58
656.45	1701.86
656.63	1697.77
656.82	1718.25
657.01	1746.92
657.20	1687.53
657.38	1794.02
657.57	1648.61
657.76	1675.24
657.95	1679.33
658.14	1652.71
658.32	1667.05
658.51	1667.05
658.70	1720.29
658.89	1761.25
659.08	1658.85
659.26	1777.64
659.45	1726.44
659.64	1757.16
659.83	1673.19
660.01	1853.41
660.20	1775.59
660.39	1839.08
660.58	1587.18
660.76	1751.01
660.95	1574.89
661.14	1751.01
661.33	1611.75
661.51	1693.67
661.70	1761.25
661.89	1775.59
662.08	1628.14
662.26	1601.51
662.45	1642.47
662.64	1837.03
662.83	1689.57
663.01	1591.27
663.20	1576.94
663.39	1746.92
663.58	1675.24
663.76	1646.57
663.95	1757.16
664.14	1640.42
664.32	1705.96
664.51	1624.04
664.70	1632.23
664.89	1675.24
665.07	1697.77
665.26	1791.97
665.45	1650.66
665.64	1765.35
665.82	1794.02
666.01	1789.92
666.20	1744.87
666.38	1857.51
666.57	1834.98
666.76	2140.13
666.95	4493.24
667.13	10475.36
667.32	15378.20
667.51	17880.82
667.69	19209.95
667.88	18104.04
668.07	12461.89
668.25	9817.96
668.44	8339.33
668.63	7413.65
668.81	7018.39
669.00	6160.29
669.19	5744.55
669.38	5078.96
669.56	4618.17
669.75	3934.15
669.94	3454.92
670.12	2928.60
670.31	2572.25
670.50	2283.49
670.68	2047.97
670.87	1863.65
671.06	1816.55
671.24	1853.41
671.43	1822.69
671.62	1757.16
671.80	1689.57
671.99	1746.92
672.18	1730.53
672.36	1767.40
672.55	1763.30
672.74	1777.64
672.92	1718.25
673.11	1705.96
673.29	1626.09
673.48	1726.44
673.67	1650.66
673.85	1877.99
674.04	1677.29
674.23	1677.29
674.41	1812.45
674.60	1638.38
674.79	1617.90
674.97	1615.85
675.16	1753.06
675.34	1847.27
675.53	1662.95
675.72	1763.30
675.90	1787.88
676.09	1669.09
676.28	1689.57
676.46	1658.85
676.65	1724.39
676.83	1687.53
677.02	1697.77
677.21	1710.05
677.39	1708.01
677.58	1695.72
677.77	1726.44
677.95	1669.09
678.14	1644.52
678.32	1648.61
678.51	1685.48
678.70	1849.32
678.88	1603.56
679.07	1744.87
679.25	1671.14
679.44	1662.95
679.63	1611.75
679.81	1675.24
680.00	1755.11
680.18	1755.11
680.37	1755.11
680.55	1703.91
680.74	1656.81
680.93	1689.57
681.11	1751.01
681.30	1693.67
681.48	1671.14
681.67	1654.76
681.85	1722.34
682.04	1640.42
682.23	1830.88
682.41	1751.01
682.60	1628.14
682.78	1662.95
682.97	1617.90
683.15	1751.01
683.34	1738.73
683.53	1757.16
683.71	1605.61
683.90	1767.40
684.08	1751.01
684.27	1597.42
684.45	1685.48
684.64	1738.73
684.82	1628.14
685.01	1716.20
685.19	1708.01
685.38	1779.68
685.57	1595.37
685.75	1595.37
685.94	1603.56
686.12	1697.77
686.31	1732.58
686.49	1826.79
686.68	1632.23
686.86	1755.11
687.05	1681.38
687.23	1851.36
687.42	1769.44
687.60	1642.47
687.79	1757.16
687.97	1804.26
688.16	1751.01
688.34	1771.49
688.53	1628.14
688.71	1624.04
688.90	1785.83
689.08	1683.43
689.27	1646.57
689.45	1726.44
689.64	1730.53
689.82	1722.34
690.01	1714.15
690.19	1726.44
690.38	1662.95
690.56	1773.54
690.75	1681.38
690.93	1660.90
691.12	1599.46
691.30	1683.43
691.49	1677.29
691.67	1662.95
691.86	1742.82
692.04	1689.57
692.23	1685.48
692.41	1703.91
692.60	1841.12
692.78	1757.16
692.97	1617.90
693.15	1751.01
693.34	1902.56
693.52	1748.97
693.71	1703.91
693.89	1644.52
694.08	1654.76
694.26	1746.92
694.44	1730.53
694.63	1781.73
694.81	1665.00
695.00	1693.67
695.18	1728.49
695.37	1804.26
695.55	1753.06
695.74	1632.23
695.92	1683.43
696.10	1759.21
696.29	1671.14
696.47	1708.01
696.66	1654.76
696.84	1607.66
697.03	1701.86
697.21	1763.30
697.40	2271.20
697.58	1775.59
697.76	1673.19
697.95	1705.96
698.13	1603.56
698.32	1718.25
698.50	1628.14
698.68	1738.73
698.87	1673.19
699.05	1816.55
699.24	1671.14
699.42	1720.29
699.61	1667.05
699.79	1771.49
699.97	1701.86
700.16	1607.66
700.34	1669.09
700.53	1787.88
700.71	1712.10
700.89	1771.49
701.08	1722.34
701.26	1691.62
701.45	2111.46
701.63	1685.48
701.81	1697.77
702.00	1734.63
702.18	1634.28
702.37	1603.56
702.55	1753.06
702.73	1728.49
702.92	1710.05
703.10	1714.15
703.28	1703.91
703.47	1697.77
703.65	1775.59
703.84	1748.97
704.02	1671.14
704.20	1732.58
704.39	1593.32
704.57	1669.09
704.75	1716.20
704.94	1816.55
705.12	1753.06
705.30	1837.03
705.49	2193.37
705.67	4396.99
705.86	9465.71
706.04	12652.35
706.22	14735.14
706.41	15548.18
706.59	14094.12
706.77	9684.84
706.96	7485.33
707.14	6690.71
707.32	6039.46
707.51	5656.49
707.69	4892.60
707.87	4231.10
708.06	3540.94
708.24	2983.89
708.42	2453.47
708.61	2258.91
708.79	1869.80
708.97	1877.99
709.16	1853.41
709.34	1712.10
709.52	1720.29
709.71	1775.59
709.89	1763.30
710.07	1734.63
710.26	1720.29
710.44	1669.09
710.62	1726.44
710.80	1720.29
710.99	1689.57
711.17	1765.35
711.35	1619.94
711.54	1669.09
711.72	1755.11
711.90	1673.19
712.09	1722.34
712.27	1640.42
712.45	1769.44
712.63	1699.81
712.82	1738.73
713.00	1632.23
713.18	1648.61
713.37	1705.96
713.55	1718.25
713.73	1777.64
713.91	1667.05
714.10	1691.62
714.28	1665.00
714.46	1701.86
714.65	1734.63
714.83	1734.63
715.01	1738.73
715.19	1695.72
715.38	1646.57
715.56	1703.91
715.74	1607.66
715.92	1671.14
716.11	1726.44
716.29	1628.14
716.47	1656.81
716.65	1724.39
716.84	1605.61
717.02	1796.07
717.20	1619.94
717.38	1658.85
717.57	1771.49
717.75	1689.57
717.93	1644.52
718.11	1757.16
718.30	1581.03
718.48	1751.01
718.66	1728.49
718.84	1767.40
719.03	1742.82
719.21	1667.05
719.39	1800.16
719.57	1806.31
719.75	1718.25
719.94	1679.33
720.12	1632.23
720.30	1699.81
720.48	1716.20
720.67	1712.10
720.85	1636.33
721.03	1636.33
721.21	1763.30
721.39	1791.97
721.58	1763.30
721.76	1681.38
721.94	1767.40
722.12	1798.12
722.30	1751.01
722.49	1669.09
722.67	1716.20
722.85	1708.01
723.03	1566.70
723.21	1695.72
723.40	1712.10
723.58	1802.21
723.76	1677.29
723.94	1798.12
724.12	1650.66
724.30	1716.20
724.49	1693.67
724.67	1761.25
724.85	1759.21
725.03	1613.80
725.21	1828.84
725.40	1738.73
725.58	1716.20
725.76	1751.01
725.94	1705.96
726.12	1626.09
726.30	1744.87
726.49	1757.16
726.67	1714.15
726.85	1697.77
727.03	1759.21
727.21	2148.32
727.39	2949.08
727.57	3694.54
727.76	4245.44
727.94	4491.20
728.12	4368.32
728.30	3622.86
728.48	2852.82
728.66	2803.67
728.84	2545.63
729.03	2238.43
729.21	2136.03
729.39	1961.95
729.57	1867.75
729.75	1818.60
729.93	1773.54
730.11	1683.43
730.30	1652.71
730.48	1714.15
730.66	1755.11
730.84	1687.53
731.02	1699.81
731.20	1652.71
731.38	1781.73
731.56	1626.09
731.74	1640.42
731.93	1708.01
732.11	1662.95
732.29	1697.77
732.47	1736.68
732.65	1689.57
732.83	1855.46
733.01	1718.25
733.19	1587.18
733.37	1677.29
733.56	1734.63
733.74	1699.81
733.92	1820.64
734.10	1722.34
734.28	1736.68
734.46	1658.85
734.64	1636.33
734.82	1640.42
735.00	1603.56
735.18	1726.44
735.36	1703.91
735.54	1611.75
735.73	1677.29
735.91	1718.25
736.09	1742.82
736.27	1726.44
736.45	1724.39
736.63	1642.47
736.81	1669.09
736.99	1740.77
737.17	1740.77
737.35	1638.38
737.53	1787.88
737.71	1665.00
737.89	1865.70
738.07	1697.77
738.25	1619.94
738.43	1626.09
738.61	1730.53
738.80	1593.32
738.98	1712.10
739.16	1671.14
739.34	1701.86
739.52	1787.88
739.70	1718.25
739.88	1720.29
740.06	1742.82
740.24	1585.13
740.42	1732.58
740.60	1601.51
740.78	1624.04
740.96	1662.95
741.14	1648.61
741.32	1693.67
741.50	1560.55
741.68	1855.46
741.86	1755.11
742.04	1665.00
742.22	1593.32
742.40	1769.44
742.58	1703.91
742.76	1691.62
742.94	1820.64
743.12	1540.07
743.30	1638.38
743.48	1710.05
743.66	1619.94
743.84	1712.10
744.02	1652.71
744.20	1695.72
744.38	1687.53
744.56	1648.61
744.74	1839.08
744.92	1703.91
745.10	1726.44
745.28	1759.21
745.46	1765.35
745.64	1746.92
745.82	1757.16
746.00	1763.30
746.18	1712.10
746.36	1708.01
746.54	1687.53
746.72	1617.90
746.90	1640.42
747.08	1744.87
747.26	1748.97
747.44	1763.30
747.62	1705.96
747.80	1759.21
747.98	1701.86
748.15	1644.52
748.33	1785.83
748.51	1736.68
748.69	1722.34
748.87	1624.04
749.05	1650.66
749.23	1691.62
749.41	1728.49
749.59	1673.19
749.77	1769.44
749.95	1632.23
750.13	1697.77
750.31	1738.73
750.49	1703.91
750.67	1767.40
750.85	1841.12
751.03	1738.73
751.20	1800.16
751.38	1703.91
751.56	1673.19
751.74	1656.81
751.92	1765.35
752.10	1650.66
752.28	1771.49
752.46	1624.04
752.64	1644.52
752.82	1767.40
753.00	1771.49
753.18	1720.29
753.35	1626.09
753.53	1638.38
753.71	1683.43
753.89	1751.01
754.07	1640.42
754.25	1695.72
754.43	1757.16
754.61	1656.81
754.79	1755.11
754.97	1730.53
755.14	1744.87
755.32	1658.85
755.50	1726.44
755.68	1748.97
755.86	1605.61
756.04	1650.66
756.22	1667.05
756.40	1724.39
756.57	1832.93
756.75	1697.77
756.93	1728.49
757.11	1851.36
757.29	1648.61
757.47	1621.99
757.65	1609.70
757.82	1540.07
758.00	1683.43
758.18	1710.05
758.36	1681.38
758.54	1738.73
758.72	1634.28
758.90	1767.40
759.07	1748.97
759.25	1732.58
759.43	1683.43
759.61	1675.24
759.79	2195.42
759.97	1779.68
760.15	1738.73
760.32	1705.96
760.50	1667.05
760.68	1808.36
760.86	1691.62
761.04	1779.68
761.22	1769.44
761.39	1716.20
761.57	1724.39
761.75	1796.07
761.93	1708.01
762.11	1722.34
762.28	1771.49
762.46	1656.81
762.64	1804.26
762.82	1636.33
763.00	1669.09
763.18	1789.92
763.35	1687.53
763.53	1767.40
763.71	1648.61
763.89	1695.72
764.07	1677.29
764.24	1679.33
764.42	1767.40
764.60	1687.53
764.78	1685.48
764.96	1751.01
765.13	1662.95
765.31	1734.63
765.49	1767.40
765.67	1638.38
765.84	1669.09
766.02	1748.97
766.20	1638.38
766.38	1753.06
766.56	1716.20
766.73	1720.29
766.91	1648.61
767.09	1720.29
767.27	1689.57
767.44	1617.90
767.62	1744.87
767.80	1753.06
767.98	1753.06
768.15	1757.16
768.33	1818.60
768.51	1724.39
768.69	1755.11
768.87	1755.11
769.04	1665.00
769.22	1771.49
769.40	1820.64
769.58	1820.64
769.75	1710.05
769.93	1765.35
770.11	1720.29
770.28	1660.90
770.46	1767.40
770.64	1708.01
770.82	1751.01
770.99	1650.66
771.17	1689.57
771.35	1738.73
771.53	1677.29
771.70	1757.16
771.88	1767.40
772.06	1732.58
772.23	1640.42
772.41	1665.00
772.59	1712.10
772.77	1550.31
772.94	1677.29
773.12	1738.73
773.30	1746.92
773.47	1738.73
773.65	1662.95
773.83	1820.64
774.01	1710.05
774.18	1556.46
774.36	1683.43
774.54	1626.09
774.71	1650.66
774.89	1578.98
775.07	1697.77
775.24	1660.90
775.42	1640.42
775.60	1783.78
775.78	1738.73
775.95	1640.42
776.13	1509.35
776.31	1609.70
776.48	1660.90
776.66	1789.92
776.84	1675.24
777.01	1634.28
777.19	1646.57
777.37	1679.33
777.54	1761.25
777.72	1810.40
777.90	1720.29
778.07	1677.29
778.25	1875.94
778.43	1800.16
778.60	1691.62
778.78	1820.64
778.96	1787.88
779.13	1705.96
779.31	1822.69
779.49	1669.09
779.66	1763.30
779.84	1669.09
780.01	1681.38
780.19	1593.32
780.37	1783.78
780.54	1753.06
780.72	1708.01
780.90	1656.81
781.07	1730.53
781.25	1638.38
781.43	1699.81
781.60	1634.28
781.78	1722.34
781.95	1703.91
782.13	1607.66
782.31	1718.25
782.48	1583.08
782.66	1724.39
782.83	1789.92
783.01	1689.57
783.19	1710.05
783.36	1744.87
783.54	1634.28
783.72	1800.16
783.89	1681.38
784.07	1710.05
784.24	1730.53
784.42	1759.21
784.60	1658.85
784.77	1660.90
784.95	1673.19
785.12	1652.71
785.30	1693.67
785.47	1695.72
785.65	1646.57
785.83	1630.18
786.00	1650.66
786.18	1689.57
786.35	1646.57
786.53	1554.41
786.71	1763.30
786.88	1759.21
787.06	1763.30
787.23	1648.61
787.41	1652.71
787.58	1691.62
787.76	1566.70
787.94	1687.53
788.11	1701.86
788.29	1601.51
788.46	1669.09
788.64	1593.32
788.81	1671.14
788.99	1681.38
789.16	1624.04
789.34	1691.62
789.52	1693.67
789.69	1705.96
789.87	1581.03
790.04	1687.53
790.22	1697.77
790.39	1826.79
790.57	1601.51
790.74	1718.25
790.92	1765.35
791.09	1654.76
791.27	1724.39
791.44	1730.53
791.62	1820.64
791.79	1783.78
791.97	1652.71
792.15	1892.32
792.32	1796.07
792.50	1771.49
792.67	1789.92
792.85	1773.54
793.02	1634.28
793.20	1673.19
793.37	1667.05
793.55	1701.86
793.72	1595.37
793.90	1705.96
794.07	1656.81
794.25	1591.27
794.42	1644.52
794.60	1736.68
794.77	1703.91
794.95	1724.39
795.12	1738.73
795.30	1660.90
795.47	1634.28
795.65	1890.28
795.82	1751.01
796.00	1724.39
796.17	1710.05
796.34	1685.48
796.52	1722.34
796.69	1746.92
796.87	1746.92
797.04	1730.53
797.22	1683.43
797.39	1697.77
797.57	1820.64
797.74	1679.33
797.92	1701.86
798.09	1648.61
798.27	1802.21
798.44	1703.91
798.62	1734.63
798.79	1681.38
798.96	1689.57
799.14	1634.28
799.31	1851.36
799.49	1687.53
799.66	1632.23
799.84	1734.63
800.01	1671.14
800.19	1644.52
800.36	1613.80
800.53	1759.21
800.71	1656.81
800.88	1769.44
801.06	1656.81
801.23	1660.90
801.41	1751.01
801.58	1675.24
801.75	1648.61
801.93	1654.76
802.10	1746.92
802.28	1718.25
802.45	1738.73
802.63	1687.53
802.80	1724.39
802.97	1708.01
803.15	1671.14
803.32	1675.24
803.50	1634.28
803.67	1687.53
803.84	1654.76
804.02	1642.47
804.19	1734.63
804.37	1587.18
804.54	1626.09
804.71	1734.63
804.89	1624.04
805.06	1689.57
805.24	1671.14
805.41	1658.85
805.58	1630.18
805.76	1830.88
805.93	1660.90
806.10	1738.73
806.28	1681.38
806.45	1742.82
806.63	1695.72
806.80	1697.77
806.97	1701.86
807.15	1732.58
807.32	1667.05
807.49	1763.30
807.67	1603.56
807.84	1748.97
808.01	1646.57
808.19	1738.73
808.36	1802.21
808.54	1634.28
808.71	1634.28
808.88	1714.15
809.06	1701.86
809.23	1763.30
809.40	1650.66
809.58	1697.77
809.75	1755.11
809.92	1640.42
810.10	1830.88
810.27	1746.92
810.44	1648.61
810.62	1826.79
810.79	1791.97
810.96	1656.81
811.14	1613.80
811.31	1740.77
811.48	1734.63
811.66	1642.47
811.83	1773.54
812.00	1722.34
812.18	1699.81
812.35	1810.40
812.52	1695.72
812.69	1699.81
812.87	1648.61
813.04	1624.04
813.21	1669.09
813.39	1665.00
813.56	1677.29
813.73	1734.63
813.91	1607.66
814.08	1708.01
814.25	1712.10
814.42	1644.52
814.60	1607.66
814.77	1632.23
814.94	1738.73
815.12	1640.42
815.29	1744.87
815.46	1687.53
815.63	1791.97
815.81	1699.81
815.98	1718.25
816.15	1648.61
816.33	1744.87
816.50	1665.00
816.67	1640.42
816.84	1644.52
817.02	1697.77
817.19	1699.81
817.36	1728.49
817.53	1720.29
817.71	1665.00
817.88	1806.31
818.05	1697.77
818.22	1656.81
818.40	1843.17
818.57	1662.95
818.74	1722.34
818.91	1746.92
819.09	1763.30
819.26	1806.31
819.43	1650.66
819.60	1634.28
819.78	1794.02
819.95	1771.49
820.12	1703.91
820.29	1746.92
820.47	1722.34
820.64	1650.66
820.81	1591.27
820.98	1677.29
821.15	1626.09
821.33	1783.78
821.50	1595.37
821.67	1705.96
821.84	1675.24
822.02	1726.44
822.19	1669.09
822.36	1679.33
822.53	1722.34
822.70	1611.75
822.88	1695.72
823.05	1775.59
823.22	1761.25
823.39	1777.64
823.56	1656.81
823.74	1787.88
823.91	1650.66
824.08	1632.23
824.25	1710.05
824.42	1712.10
824.60	1677.29
824.77	1714.15
824.94	1697.77
825.11	1714.15
825.28	1636.33
825.45	1718.25
825.63	1744.87
825.80	1611.75
825.97	1714.15
826.14	1714.15
826.31	1673.19
826.48	1650.66
826.66	1642.47
826.83	1708.01
827.00	1689.57
827.17	1630.18
827.34	1673.19
827.51	1699.81
827.69	1636.33
827.86	1738.73
828.03	1755.11
828.20	1640.42
828.37	1626.09
828.54	1669.09
828.71	1648.61
828.89	1810.40
829.06	1683.43
829.23	1779.68
829.40	1679.33
829.57	1619.94
829.74	1705.96
829.91	1665.00
830.09	1701.86
830.26	1695.72
830.43	1787.88
830.60	1685.48
830.77	1683.43
830.94	1755.11
831.11	1751.01
831.28	1742.82
831.46	1730.53
831.63	1742.82
831.80	1734.63
831.97	1660.90
832.14	1714.15
832.31	1742.82
832.48	1724.39
832.65	1775.59
832.82	1705.96
832.99	1681.38
833.17	1683.43
833.34	1730.53
833.51	1724.39
833.68	1640.42
833.85	1732.58
834.02	1646.57
834.19	1628.14
834.36	1685.48
834.53	1732.58
834.70	1697.77
834.87	1785.83
835.04	1685.48
835.22	1593.32
835.39	1683.43
835.56	1693.67
835.73	1574.89
835.90	1724.39
836.07	1599.46
836.24	1730.53
836.41	1607.66
836.58	1722.34
836.75	1742.82
836.92	1794.02
837.09	1642.47
837.26	1648.61
837.43	1689.57
837.60	1705.96
837.77	1624.04
837.94	1751.01
838.12	1781.73
838.29	1738.73
838.46	1626.09
838.63	1609.70
838.80	1800.16
838.97	1658.85
839.14	1746.92
839.31	1742.82
839.48	1736.68
839.65	1576.94
839.82	1710.05
839.99	1705.96
840.16	1656.81
840.33	1656.81
840.50	1714.15
840.67	1673.19
840.84	1513.45
841.01	1740.77
841.18	1667.05
841.35	1665.00
841.52	1726.44
841.69	1920.99
841.86	1732.58
842.03	1687.53
842.20	1675.24
842.37	1767.40
842.54	1722.34
842.71	1751.01
842.88	1607.66
843.05	1699.81
843.22	1718.25
843.39	1710.05
843.56	1654.76
843.73	1779.68
843.90	1730.53
844.07	1701.86
844.24	1751.01
844.41	1714.15
844.58	1699.81
844.75	1636.33
844.92	1728.49
845.09	1634.28
845.26	1699.81
845.43	1703.91
845.60	1681.38
845.77	1755.11
845.94	1624.04
846.10	1781.73
846.27	1636.33
846.44	1660.90
846.61	1662.95
846.78	1611.75
846.95	1693.67
847.12	1697.77
847.29	1744.87
847.46	1603.56
847.63	1781.73
847.80	1708.01
847.97	1689.57
848.14	1822.69
848.31	1734.63
848.48	1591.27
848.65	1712.10
848.82	1697.77
848.98	1777.64
849.15	1726.44
849.32	1761.25
849.49	1753.06
849.66	1652.71
849.83	1695.72
850.00	1642.47
850.17	1771.49
850.34	1658.85
850.51	1587.18
850.68	1673.19
850.85	1716.20
851.01	1662.95
851.18	1714.15
851.35	1738.73
851.52	1712.10
851.69	1773.54
851.86	1597.42
852.03	1667.05
852.20	1720.29
852.37	1687.53
852.53	1538.02
852.70	1583.08
852.87	1732.58
853.04	1755.11
853.21	1679.33
853.38	1742.82
853.55	1777.64
853.72	1822.69
853.89	1677.29
854.05	1658.85
854.22	1701.86
854.39	1699.81
854.56	1759.21
854.73	1687.53
854.90	1695.72
855.07	1693.67
855.23	1624.04
855.40	1761.25
855.57	1728.49
855.74	1599.46
855.91	1800.16
856.08	1673.19
856.25	1650.66
856.41	1574.89
856.58	1726.44
856.75	1677.29
856.92	1703.91
857.09	1796.07
857.26	1689.57
857.42	1673.19
857.59	1744.87
857.76	1677.29
857.93	1708.01
858.10	1783.78
858.27	1656.81
858.43	1689.57
858.60	1646.57
858.77	1644.52
858.94	1669.09
859.11	1724.39
859.27	1681.38
859.44	1583.08
859.61	1742.82
859.78	1648.61
859.95	1658.85
860.12	1632.23
860.28	1769.44
860.45	1847.27
860.62	1683.43
860.79	1714.15
860.95	1669.09
861.12	1648.61
861.29	1687.53
861.46	1626.09
861.63	1667.05
861.79	1689.57
861.96	1595.37
862.13	1578.98
862.30	1726.44
862.47	1628.14
862.63	1679.33
862.80	1701.86
862.97	1751.01
863.14	1777.64
863.30	1730.53
863.47	1603.56
863.64	1767.40
863.81	1667.05
863.97	1636.33
864.14	1734.63
864.31	1677.29
864.48	1671.14
864.65	1574.89
864.81	1748.97
864.98	1734.63
865.15	1689.57
865.32	1779.68
865.48	1736.68
865.65	1779.68
865.82	1724.39
865.98	1691.62
866.15	1726.44
866.32	1712.10
866.49	1656.81
866.65	1751.01
866.82	1671.14
866.99	1748.97
867.16	1611.75
867.32	1589.22
867.49	1646.57
867.66	1679.33
867.83	1660.90
867.99	1585.13
868.16	1658.85
868.33	1656.81
868.49	1693.67
868.66	1665.00
868.83	1708.01
868.99	1726.44
869.16	1695.72
869.33	1755.11
869.50	1689.57
869.66	1591.27
869.83	1685.48
870.00	1634.28
870.16	1757.16
870.33	1736.68
870.50	1730.53
870.66	1705.96
870.83	1773.54
871.00	1769.44
871.17	1714.15
871.33	1687.53
871.50	1693.67
871.67	1714.15
871.83	1705.96
872.00	1767.40
872.17	1685.48
872.33	1789.92
872.50	1736.68
872.67	1605.61
872.83	1675.24
873.00	1687.53
873.17	1742.82
873.33	1748.97
873.50	1675.24
873.67	1665.00
873.83	1632.23
874.00	1761.25
874.16	1742.82
874.33	1669.09
874.50	1656.81
874.66	1724.39
874.83	1705.96
875.00	1748.97
875.16	1710.05
875.33	1712.10
875.50	1595.37
875.66	1560.55
875.83	1679.33
875.99	1726.44
876.16	1720.29
876.33	1697.77
876.49	1675.24
876.66	1710.05
876.83	1665.00
876.99	1607.66
877.16	1673.19
877.32	1648.61
877.49	1675.24
877.66	1720.29
877.82	1787.88
877.99	1689.57
878.15	1738.73
878.32	1665.00
878.49	1693.67
878.65	1767.40
878.82	1714.15
878.98	1640.42
879.15	1769.44
879.32	1681.38
879.48	1708.01
879.65	1740.77
879.81	1689.57
879.98	1697.77
880.15	1595.37
880.31	1691.62
880.48	1669.09
880.64	1716.20
880.81	1769.44
880.97	1734.63
881.14	1820.64
881.31	1581.03
881.47	1845.22
881.64	1681.38
881.80	1630.18
881.97	1667.05
882.13	1779.68
882.30	1691.62
882.47	1714.15
882.63	1687.53
882.80	1624.04
882.96	1701.86
883.13	1740.77
883.29	1673.19
883.46	1675.24
883.62	1781.73
883.79	1716.20
883.95	1763.30
884.12	1767.40
884.29	1734.63
884.45	1726.44
884.62	1724.39
884.78	1607.66
884.95	1712.10
885.11	1640.42
885.28	1781.73
885.44	1669.09
885.61	1759.21
885.77	1851.36
885.94	1730.53
886.10	1689.57
886.27	1685.48
886.43	1800.16
886.60	1685.48
886.76	1683.43
886.93	1638.38
887.09	1722.34
887.26	1617.90
887.42	1775.59
887.59	1773.54
887.75	1873.89
887.92	1800.16
888.08	1748.97
888.25	1820.64
888.41	1806.31
888.58	1671.14
888.74	1642.47
888.91	1703.91
>>>>>End Processed Spectral Data<<<<<
