SpectraSuite Data File
++++++++++++++++++++++++++++++++++++
Date: Mon Jun 06 13:05:37 CEST 2016
User: root
Dark Spectrum Present: No
Reference Spectrum Present: No
Number of Sampled Component Spectra: 1
Spectrometers: USB4C02835
Integration Time (usec): 100000 (USB4C02835)
Spectra Averaged: 1 (USB4C02835)
Boxcar Smoothing: 0 (USB4C02835)
Correct for Electrical Dark: No (USB4C02835)
Strobe/Lamp Enabled: No (USB4C02835)
Correct for Detector Non-linearity: No (USB4C02835)
Correct for Stray Light: No (USB4C02835)
Number of Pixels in Processed Spectrum: 3648
>>>>>Begin Processed Spectral Data<<<<<
177.47	1501.16
177.69	1501.16
177.91	1501.16
178.13	1421.29
178.36	1456.11
178.58	1710.05
178.80	1746.92
179.02	1642.47
179.24	1642.47
179.46	1761.25
179.68	1746.92
179.90	1699.81
180.13	1705.96
180.35	1562.60
180.57	1619.94
180.79	1669.09
181.01	1701.86
181.23	1783.78
181.45	1744.87
181.67	1748.97
181.90	1759.21
182.12	1683.43
182.34	1585.13
182.56	1705.96
182.78	1681.38
183.00	1689.57
183.22	1722.34
183.44	1648.61
183.66	1869.80
183.89	1777.64
184.11	1691.62
184.33	1775.59
184.55	1775.59
184.77	1738.73
184.99	1662.95
185.21	1689.57
185.43	1871.84
185.65	1708.01
185.87	1722.34
186.10	1789.92
186.32	1875.94
186.54	1718.25
186.76	1722.34
186.98	1794.02
187.20	1732.58
187.42	1603.56
187.64	1767.40
187.86	1675.24
188.08	1755.11
188.30	1656.81
188.52	1679.33
188.75	1753.06
188.97	1703.91
189.19	1691.62
189.41	1671.14
189.63	1697.77
189.85	1736.68
190.07	1640.42
190.29	1675.24
190.51	1726.44
190.73	1691.62
190.95	1789.92
191.17	1751.01
191.39	1652.71
191.61	1654.76
191.84	1677.29
192.06	1716.20
192.28	1669.09
192.50	1841.12
192.72	1761.25
192.94	1669.09
193.16	1724.39
193.38	1728.49
193.60	1761.25
193.82	1619.94
194.04	1681.38
194.26	1777.64
194.48	1640.42
194.70	1574.89
194.92	1677.29
195.14	1718.25
195.36	1644.52
195.58	1755.11
195.80	1689.57
196.02	1738.73
196.24	1697.77
196.46	1748.97
196.69	1605.61
196.91	1777.64
197.13	1648.61
197.35	1667.05
197.57	1765.35
197.79	1685.48
198.01	1728.49
198.23	1703.91
198.45	1701.86
198.67	1624.04
198.89	1697.77
199.11	1677.29
199.33	1634.28
199.55	1507.30
199.77	1652.71
199.99	1689.57
200.21	1587.18
200.43	1669.09
200.65	1687.53
200.87	1572.84
201.09	1654.76
201.31	1773.54
201.53	1712.10
201.75	1658.85
201.97	1697.77
202.19	1748.97
202.41	1701.86
202.63	1720.29
202.85	1630.18
203.07	1671.14
203.29	1689.57
203.51	1701.86
203.73	1656.81
203.95	1959.91
204.17	1667.05
204.39	1722.34
204.61	1689.57
204.83	1732.58
205.05	1751.01
205.27	1703.91
205.49	1814.50
205.71	1693.67
205.93	1611.75
206.15	1648.61
206.37	1742.82
206.59	1732.58
206.81	1562.60
207.03	1701.86
207.25	1681.38
207.47	1703.91
207.69	1589.22
207.91	1724.39
208.13	1716.20
208.34	1673.19
208.56	1728.49
208.78	1808.36
209.00	1701.86
209.22	1632.23
209.44	1718.25
209.66	1662.95
209.88	1662.95
210.10	1673.19
210.32	1716.20
210.54	1652.71
210.76	1658.85
210.98	1796.07
211.20	1589.22
211.42	1724.39
211.64	1777.64
211.86	1697.77
212.08	1699.81
212.30	1818.60
212.52	1691.62
212.74	1791.97
212.96	1687.53
213.17	1751.01
213.39	1796.07
213.61	1816.55
213.83	1738.73
214.05	1652.71
214.27	1798.12
214.49	1628.14
214.71	1685.48
214.93	1839.08
215.15	1703.91
215.37	1759.21
215.59	1554.41
215.81	1722.34
216.03	1736.68
216.24	1708.01
216.46	1671.14
216.68	1667.05
216.90	1689.57
217.12	1740.77
217.34	1671.14
217.56	1744.87
217.78	1732.58
218.00	1654.76
218.22	1771.49
218.44	1714.15
218.66	1691.62
218.87	1755.11
219.09	1640.42
219.31	1689.57
219.53	1615.85
219.75	1662.95
219.97	1683.43
220.19	1703.91
220.41	1683.43
220.63	1748.97
220.85	1779.68
221.06	1621.99
221.28	1798.12
221.50	1724.39
221.72	1679.33
221.94	1777.64
222.16	1710.05
222.38	1746.92
222.60	1734.63
222.82	1677.29
223.03	1779.68
223.25	1695.72
223.47	1808.36
223.69	1822.69
223.91	1730.53
224.13	1695.72
224.35	1705.96
224.57	1779.68
224.78	1703.91
225.00	1681.38
225.22	1710.05
225.44	1705.96
225.66	1761.25
225.88	1683.43
226.10	1734.63
226.32	1675.24
226.53	1748.97
226.75	1708.01
226.97	1683.43
227.19	1652.71
227.41	1695.72
227.63	1662.95
227.85	1621.99
228.06	1660.90
228.28	1693.67
228.50	1736.68
228.72	1689.57
228.94	1669.09
229.16	1703.91
229.37	1628.14
229.59	1669.09
229.81	1683.43
230.03	1669.09
230.25	1619.94
230.47	1595.37
230.69	1656.81
230.90	1789.92
231.12	1646.57
231.34	1677.29
231.56	1845.22
231.78	1574.89
232.00	1660.90
232.21	1742.82
232.43	1665.00
232.65	1597.42
232.87	1738.73
233.09	1705.96
233.30	1671.14
233.52	1722.34
233.74	1714.15
233.96	1669.09
234.18	1732.58
234.40	1677.29
234.61	1824.74
234.83	1677.29
235.05	1644.52
235.27	1798.12
235.49	1796.07
235.70	1742.82
235.92	1746.92
236.14	1607.66
236.36	1796.07
236.58	1662.95
236.79	1714.15
237.01	1683.43
237.23	1705.96
237.45	1787.88
237.67	1652.71
237.88	1689.57
238.10	1773.54
238.32	1677.29
238.54	1681.38
238.76	1710.05
238.97	1644.52
239.19	1722.34
239.41	1730.53
239.63	1814.50
239.85	1679.33
240.06	1757.16
240.28	1644.52
240.50	1877.99
240.72	1695.72
240.93	1648.61
241.15	1777.64
241.37	1673.19
241.59	1783.78
241.81	1644.52
242.02	1722.34
242.24	1742.82
242.46	1748.97
242.68	1677.29
242.89	1675.24
243.11	1703.91
243.33	1734.63
243.55	1779.68
243.76	1771.49
243.98	1632.23
244.20	1800.16
244.42	1710.05
244.64	1677.29
244.85	1687.53
245.07	1757.16
245.29	1710.05
245.51	1689.57
245.72	1714.15
245.94	1755.11
246.16	1794.02
246.38	1738.73
246.59	1650.66
246.81	1628.14
247.03	1691.62
247.24	1636.33
247.46	1800.16
247.68	1697.77
247.90	1697.77
248.11	1730.53
248.33	1767.40
248.55	1685.48
248.77	1660.90
248.98	1753.06
249.20	1841.12
249.42	1667.05
249.64	1732.58
249.85	1736.68
250.07	1660.90
250.29	1732.58
250.50	1746.92
250.72	1632.23
250.94	1681.38
251.16	1865.70
251.37	1763.30
251.59	1732.58
251.81	1775.59
252.02	1812.45
252.24	1671.14
252.46	1783.78
252.68	1640.42
252.89	1716.20
253.11	1687.53
253.33	1804.26
253.54	1724.39
253.76	1597.42
253.98	1638.38
254.20	1642.47
254.41	1636.33
254.63	1701.86
254.85	1669.09
255.06	1671.14
255.28	1689.57
255.50	1671.14
255.71	1691.62
255.93	1656.81
256.15	1738.73
256.36	1730.53
256.58	1677.29
256.80	1724.39
257.02	1595.37
257.23	1669.09
257.45	1681.38
257.67	1724.39
257.88	1667.05
258.10	1730.53
258.32	1705.96
258.53	1681.38
258.75	1781.73
258.97	1705.96
259.18	1593.32
259.40	1683.43
259.62	1775.59
259.83	1763.30
260.05	1753.06
260.27	1914.85
260.48	1730.53
260.70	1665.00
260.92	1660.90
261.13	1617.90
261.35	1710.05
261.57	1699.81
261.78	1677.29
262.00	1605.61
262.22	1718.25
262.43	1697.77
262.65	1624.04
262.86	1683.43
263.08	1818.60
263.30	1697.77
263.51	1576.94
263.73	1671.14
263.95	1824.74
264.16	1628.14
264.38	1658.85
264.60	1720.29
264.81	1681.38
265.03	1722.34
265.25	1781.73
265.46	1738.73
265.68	1806.31
265.89	1730.53
266.11	1681.38
266.33	1701.86
266.54	1804.26
266.76	1724.39
266.98	1712.10
267.19	1769.44
267.41	1720.29
267.62	1679.33
267.84	1662.95
268.06	1712.10
268.27	1730.53
268.49	1789.92
268.70	1751.01
268.92	1726.44
269.14	1671.14
269.35	1624.04
269.57	1705.96
269.79	1755.11
270.00	1673.19
270.22	1820.64
270.43	1642.47
270.65	1624.04
270.87	1728.49
271.08	1804.26
271.30	1751.01
271.51	1757.16
271.73	1730.53
271.95	1863.65
272.16	1724.39
272.38	1685.48
272.59	1642.47
272.81	1820.64
273.02	1710.05
273.24	1658.85
273.46	1716.20
273.67	1652.71
273.89	1744.87
274.10	1626.09
274.32	1748.97
274.54	1644.52
274.75	1748.97
274.97	1605.61
275.18	1746.92
275.40	1738.73
275.61	1744.87
275.83	1763.30
276.05	1675.24
276.26	1640.42
276.48	1783.78
276.69	1665.00
276.91	1693.67
277.12	1789.92
277.34	1748.97
277.55	1726.44
277.77	1771.49
277.99	1660.90
278.20	1558.50
278.42	1658.85
278.63	1675.24
278.85	1701.86
279.06	1648.61
279.28	1730.53
279.49	1791.97
279.71	1738.73
279.93	1673.19
280.14	1675.24
280.36	1736.68
280.57	1787.88
280.79	1771.49
281.00	1687.53
281.22	1705.96
281.43	1759.21
281.65	1597.42
281.86	1705.96
282.08	1744.87
282.29	1806.31
282.51	1652.71
282.73	1662.95
282.94	1642.47
283.16	1769.44
283.37	1826.79
283.59	1714.15
283.80	1781.73
284.02	1693.67
284.23	1681.38
284.45	1685.48
284.66	1673.19
284.88	1732.58
285.09	1718.25
285.31	1689.57
285.52	1699.81
285.74	1634.28
285.95	1755.11
286.17	1720.29
286.38	1818.60
286.60	1658.85
286.81	1667.05
287.03	1642.47
287.24	1681.38
287.46	1683.43
287.67	1630.18
287.89	1675.24
288.10	1683.43
288.32	1701.86
288.53	1837.03
288.75	1705.96
288.96	1785.83
289.18	1611.75
289.39	1640.42
289.61	1767.40
289.82	1824.74
290.04	1787.88
290.25	1605.61
290.47	1726.44
290.68	1689.57
290.90	1808.36
291.11	1632.23
291.33	1763.30
291.54	1648.61
291.76	1730.53
291.97	1683.43
292.18	1724.39
292.40	1722.34
292.61	1619.94
292.83	1824.74
293.04	1777.64
293.26	1794.02
293.47	1767.40
293.69	1609.70
293.90	1681.38
294.12	1755.11
294.33	1724.39
294.55	1701.86
294.76	1742.82
294.97	1765.35
295.19	1851.36
295.40	1650.66
295.62	1734.63
295.83	1783.78
296.05	1714.15
296.26	1804.26
296.48	1712.10
296.69	1699.81
296.90	1638.38
297.12	1734.63
297.33	1724.39
297.55	1687.53
297.76	1736.68
297.98	1773.54
298.19	1636.33
298.41	1697.77
298.62	1636.33
298.83	1773.54
299.05	1722.34
299.26	1722.34
299.48	1624.04
299.69	1712.10
299.90	1728.49
300.12	1644.52
300.33	1712.10
300.55	1720.29
300.76	1740.77
300.98	1683.43
301.19	1708.01
301.40	1665.00
301.62	1652.71
301.83	1748.97
302.05	1667.05
302.26	1726.44
302.47	1759.21
302.69	1765.35
302.90	1634.28
303.12	1576.94
303.33	1722.34
303.54	1800.16
303.76	1660.90
303.97	1644.52
304.19	1865.70
304.40	1669.09
304.61	1769.44
304.83	1834.98
305.04	1746.92
305.26	1734.63
305.47	1667.05
305.68	1689.57
305.90	1640.42
306.11	1740.77
306.33	1658.85
306.54	1556.46
306.75	1636.33
306.97	1574.89
307.18	1689.57
307.39	1730.53
307.61	1730.53
307.82	1671.14
308.04	1724.39
308.25	1640.42
308.46	1710.05
308.68	1748.97
308.89	1775.59
309.10	1828.84
309.32	1746.92
309.53	1722.34
309.74	1791.97
309.96	1673.19
310.17	1761.25
310.39	1658.85
310.60	1716.20
310.81	1763.30
311.03	1636.33
311.24	1714.15
311.45	1712.10
311.67	1818.60
311.88	1726.44
312.09	1619.94
312.31	1630.18
312.52	1675.24
312.73	1644.52
312.95	1636.33
313.16	1662.95
313.37	1783.78
313.59	1744.87
313.80	1755.11
314.01	1820.64
314.23	1687.53
314.44	1691.62
314.65	1677.29
314.87	1716.20
315.08	1658.85
315.29	1718.25
315.51	1656.81
315.72	1611.75
315.93	1818.60
316.15	1769.44
316.36	1644.52
316.57	1773.54
316.79	1744.87
317.00	1740.77
317.21	1736.68
317.43	1685.48
317.64	1748.97
317.85	1673.19
318.07	1781.73
318.28	1738.73
318.49	1755.11
318.70	1980.39
318.92	1802.21
319.13	1820.64
319.34	1841.12
319.56	1714.15
319.77	1802.21
319.98	1738.73
320.20	1779.68
320.41	1744.87
320.62	1722.34
320.83	1630.18
321.05	1843.17
321.26	1714.15
321.47	1632.23
321.69	1783.78
321.90	1675.24
322.11	1677.29
322.32	1708.01
322.54	1800.16
322.75	1699.81
322.96	1871.84
323.18	1605.61
323.39	1640.42
323.60	1660.90
323.81	1712.10
324.03	1630.18
324.24	1695.72
324.45	1679.33
324.66	1662.95
324.88	1759.21
325.09	1740.77
325.30	1771.49
325.52	1708.01
325.73	1800.16
325.94	1640.42
326.15	1669.09
326.37	1652.71
326.58	1773.54
326.79	1765.35
327.00	1652.71
327.22	1699.81
327.43	1699.81
327.64	1599.46
327.85	1755.11
328.07	1742.82
328.28	1779.68
328.49	1619.94
328.70	1681.38
328.92	1714.15
329.13	1722.34
329.34	1691.62
329.55	1726.44
329.76	1738.73
329.98	1726.44
330.19	1734.63
330.40	1728.49
330.61	1710.05
330.83	1695.72
331.04	1710.05
331.25	1667.05
331.46	1714.15
331.68	1642.47
331.89	1769.44
332.10	1697.77
332.31	1656.81
332.52	1703.91
332.74	1783.78
332.95	1617.90
333.16	1601.51
333.37	1779.68
333.58	1611.75
333.80	1761.25
334.01	1689.57
334.22	1681.38
334.43	1675.24
334.64	1718.25
334.86	1656.81
335.07	1685.48
335.28	1830.88
335.49	1626.09
335.70	1746.92
335.92	1738.73
336.13	1857.51
336.34	1660.90
336.55	1658.85
336.76	1734.63
336.98	1615.85
337.19	1724.39
337.40	1767.40
337.61	1867.75
337.82	1794.02
338.04	1800.16
338.25	1718.25
338.46	1757.16
338.67	1667.05
338.88	1656.81
339.09	1613.80
339.31	1695.72
339.52	1683.43
339.73	1675.24
339.94	1648.61
340.15	1818.60
340.36	1636.33
340.58	1665.00
340.79	1640.42
341.00	1769.44
341.21	1628.14
341.42	1777.64
341.63	1703.91
341.85	1724.39
342.06	1779.68
342.27	1658.85
342.48	1800.16
342.69	1617.90
342.90	1755.11
343.12	1681.38
343.33	1669.09
343.54	1769.44
343.75	1775.59
343.96	1660.90
344.17	1695.72
344.38	1638.38
344.60	1679.33
344.81	1626.09
345.02	1718.25
345.23	1705.96
345.44	1798.12
345.65	1787.88
345.86	1687.53
346.07	1658.85
346.29	1763.30
346.50	1703.91
346.71	1705.96
346.92	1804.26
347.13	1808.36
347.34	1748.97
347.55	1771.49
347.76	1683.43
347.98	1675.24
348.19	1617.90
348.40	1796.07
348.61	1636.33
348.82	1726.44
349.03	1777.64
349.24	1632.23
349.45	1771.49
349.66	1669.09
349.88	1761.25
350.09	1644.52
350.30	1746.92
350.51	1773.54
350.72	1748.97
350.93	1740.77
351.14	1660.90
351.35	1755.11
351.56	1789.92
351.77	1632.23
351.99	1695.72
352.20	1740.77
352.41	1701.86
352.62	1587.18
352.83	1644.52
353.04	1759.21
353.25	1728.49
353.46	1789.92
353.67	1796.07
353.88	1628.14
354.09	1681.38
354.30	1708.01
354.52	1703.91
354.73	1746.92
354.94	1658.85
355.15	1675.24
355.36	1773.54
355.57	1712.10
355.78	1669.09
355.99	1660.90
356.20	1673.19
356.41	1718.25
356.62	1753.06
356.83	1726.44
357.04	1810.40
357.25	1658.85
357.46	1693.67
357.68	1615.85
357.89	1677.29
358.10	1695.72
358.31	1683.43
358.52	1703.91
358.73	1677.29
358.94	1683.43
359.15	1636.33
359.36	1781.73
359.57	1701.86
359.78	1708.01
359.99	1763.30
360.20	1640.42
360.41	1646.57
360.62	1722.34
360.83	1693.67
361.04	1693.67
361.25	1759.21
361.46	1820.64
361.67	1710.05
361.88	1787.88
362.09	1662.95
362.30	1703.91
362.51	1714.15
362.72	1730.53
362.93	1785.83
363.14	1656.81
363.35	1796.07
363.56	1640.42
363.78	1763.30
363.99	1800.16
364.20	1636.33
364.41	1697.77
364.62	1830.88
364.83	1699.81
365.04	1703.91
365.25	1705.96
365.46	1787.88
365.67	1689.57
365.88	1656.81
366.09	1660.90
366.30	1722.34
366.51	1660.90
366.72	1687.53
366.93	1722.34
367.14	1691.62
367.35	1789.92
367.56	1685.48
367.77	1798.12
367.98	1728.49
368.18	1665.00
368.39	1683.43
368.60	1523.69
368.81	1738.73
369.02	1783.78
369.23	1703.91
369.44	1624.04
369.65	1669.09
369.86	1757.16
370.07	1757.16
370.28	1660.90
370.49	1767.40
370.70	1746.92
370.91	1677.29
371.12	1626.09
371.33	1730.53
371.54	1689.57
371.75	1753.06
371.96	1583.08
372.17	1771.49
372.38	1695.72
372.59	1755.11
372.80	1718.25
373.01	1738.73
373.22	1708.01
373.43	1728.49
373.64	1673.19
373.85	1724.39
374.06	1853.41
374.26	1744.87
374.47	1691.62
374.68	1791.97
374.89	1681.38
375.10	1753.06
375.31	1736.68
375.52	1669.09
375.73	1718.25
375.94	1607.66
376.15	1810.40
376.36	1572.84
376.57	1695.72
376.78	1665.00
376.99	1699.81
377.20	1740.77
377.40	1730.53
377.61	1804.26
377.82	1699.81
378.03	1826.79
378.24	1742.82
378.45	1705.96
378.66	1742.82
378.87	1593.32
379.08	1656.81
379.29	1669.09
379.50	1798.12
379.71	1665.00
379.91	1734.63
380.12	1673.19
380.33	1767.40
380.54	1689.57
380.75	1652.71
380.96	1714.15
381.17	1794.02
381.38	1714.15
381.59	1738.73
381.80	1748.97
382.00	1869.80
382.21	1746.92
382.42	1849.32
382.63	1845.22
382.84	1800.16
383.05	1830.88
383.26	1703.91
383.47	1718.25
383.68	1705.96
383.88	1773.54
384.09	1720.29
384.30	1777.64
384.51	1738.73
384.72	1662.95
384.93	1574.89
385.14	1734.63
385.35	1769.44
385.55	1587.18
385.76	1791.97
385.97	1669.09
386.18	1640.42
386.39	1642.47
386.60	1679.33
386.81	1671.14
387.02	1685.48
387.22	1642.47
387.43	1773.54
387.64	1724.39
387.85	1918.95
388.06	2174.94
388.27	4188.10
388.48	6772.63
388.68	8204.16
388.89	9627.50
389.10	9971.56
389.31	8638.33
389.52	7602.06
389.73	6793.11
389.93	6148.00
390.14	5836.71
390.35	5226.42
390.56	4663.22
390.77	3831.75
390.98	2994.13
391.18	2691.03
391.39	2131.94
391.60	1949.67
391.81	1853.41
392.02	1753.06
392.23	1783.78
392.43	1757.16
392.64	1816.55
392.85	1724.39
393.06	1855.46
393.27	1677.29
393.47	1689.57
393.68	1746.92
393.89	1667.05
394.10	1708.01
394.31	1679.33
394.52	1609.70
394.72	1632.23
394.93	1800.16
395.14	1701.86
395.35	1658.85
395.56	1654.76
395.76	1710.05
395.97	1796.07
396.18	1800.16
396.39	1826.79
396.60	2000.87
396.80	1918.95
397.01	1773.54
397.22	1812.45
397.43	1826.79
397.64	1763.30
397.84	1826.79
398.05	1843.17
398.26	1656.81
398.47	1736.68
398.67	1798.12
398.88	1691.62
399.09	1800.16
399.30	1705.96
399.51	1697.77
399.71	1699.81
399.92	1669.09
400.13	1753.06
400.34	1640.42
400.54	1656.81
400.75	1800.16
400.96	1718.25
401.17	1814.50
401.37	1767.40
401.58	1642.47
401.79	1751.01
402.00	1845.22
402.21	1955.81
402.41	1937.38
402.62	2011.11
402.83	2002.91
403.04	1927.14
403.24	2109.41
403.45	1763.30
403.66	1875.94
403.87	1767.40
404.07	1955.81
404.28	1896.42
404.49	1832.93
404.70	1779.68
404.90	1830.88
405.11	1757.16
405.32	1730.53
405.52	1665.00
405.73	1683.43
405.94	1730.53
406.15	1779.68
406.35	1796.07
406.56	1746.92
406.77	1609.70
406.98	1755.11
407.18	1673.19
407.39	1845.22
407.60	1742.82
407.80	1722.34
408.01	1605.61
408.22	1693.67
408.43	1701.86
408.63	1779.68
408.84	1736.68
409.05	1697.77
409.25	1595.37
409.46	1628.14
409.67	1621.99
409.88	1605.61
410.08	1761.25
410.29	1681.38
410.50	1697.77
410.70	1759.21
410.91	1636.33
411.12	1722.34
411.32	1703.91
411.53	1632.23
411.74	1822.69
411.95	1787.88
412.15	1683.43
412.36	1771.49
412.57	1738.73
412.77	1804.26
412.98	1771.49
413.19	1732.58
413.39	1769.44
413.60	1740.77
413.81	1834.98
414.01	1714.15
414.22	1746.92
414.43	1828.84
414.63	1767.40
414.84	1740.77
415.05	1683.43
415.25	1648.61
415.46	1755.11
415.67	1681.38
415.87	1744.87
416.08	1728.49
416.29	1628.14
416.49	1691.62
416.70	1665.00
416.91	1640.42
417.11	1742.82
417.32	1732.58
417.53	1746.92
417.73	1787.88
417.94	1705.96
418.15	1652.71
418.35	1701.86
418.56	1669.09
418.77	1800.16
418.97	1714.15
419.18	1679.33
419.38	1560.55
419.59	1724.39
419.80	1824.74
420.00	1656.81
420.21	1738.73
420.42	1810.40
420.62	1757.16
420.83	1716.20
421.04	1648.61
421.24	1740.77
421.45	1791.97
421.65	1689.57
421.86	1693.67
422.07	1724.39
422.27	1708.01
422.48	1677.29
422.69	1679.33
422.89	1687.53
423.10	1677.29
423.30	1658.85
423.51	1667.05
423.72	1726.44
423.92	1757.16
424.13	1656.81
424.33	1697.77
424.54	1773.54
424.75	1687.53
424.95	1830.88
425.16	1724.39
425.36	1675.24
425.57	1765.35
425.78	1683.43
425.98	1794.02
426.19	1712.10
426.39	1644.52
426.60	1732.58
426.81	1773.54
427.01	1753.06
427.22	1699.81
427.42	1595.37
427.63	1683.43
427.83	1779.68
428.04	1853.41
428.25	1746.92
428.45	1781.73
428.66	1738.73
428.86	1730.53
429.07	1726.44
429.28	1697.77
429.48	1732.58
429.69	1654.76
429.89	1695.72
430.10	1673.19
430.30	1832.93
430.51	1804.26
430.71	1714.15
430.92	1693.67
431.13	1673.19
431.33	1781.73
431.54	1712.10
431.74	1783.78
431.95	1759.21
432.15	1634.28
432.36	1669.09
432.56	1636.33
432.77	1857.51
432.98	1796.07
433.18	1720.29
433.39	1630.18
433.59	1724.39
433.80	1843.17
434.00	1757.16
434.21	1667.05
434.41	1675.24
434.62	1867.75
434.82	1714.15
435.03	1726.44
435.23	1699.81
435.44	1609.70
435.64	1761.25
435.85	1730.53
436.06	1777.64
436.26	1767.40
436.47	1632.23
436.67	1703.91
436.88	1710.05
437.08	1751.01
437.29	1812.45
437.49	1722.34
437.70	1814.50
437.90	1693.67
438.11	1925.09
438.31	1738.73
438.52	1841.12
438.72	1961.95
438.93	1906.66
439.13	1746.92
439.34	1814.50
439.54	1753.06
439.75	1751.01
439.95	1861.60
440.16	1740.77
440.36	1732.58
440.57	1769.44
440.77	1812.45
440.98	1728.49
441.18	1785.83
441.39	1679.33
441.59	1679.33
441.80	1781.73
442.00	1710.05
442.21	1843.17
442.41	1636.33
442.62	1710.05
442.82	1587.18
443.02	1673.19
443.23	1816.55
443.43	1712.10
443.64	1867.75
443.84	1681.38
444.05	1863.65
444.25	1650.66
444.46	1701.86
444.66	1673.19
444.87	1839.08
445.07	1636.33
445.28	1667.05
445.48	1791.97
445.69	1777.64
445.89	1851.36
446.09	1720.29
446.30	2011.11
446.50	2705.37
446.71	3719.11
446.91	4401.08
447.12	4706.23
447.32	4853.69
447.53	4421.56
447.73	3917.76
447.93	3502.03
448.14	3235.79
448.34	3121.10
448.55	2906.07
448.75	2719.70
448.96	2715.61
449.16	2512.86
449.36	2303.96
449.57	2058.21
449.77	1871.84
449.98	1855.46
450.18	1789.92
450.39	1849.32
450.59	1744.87
450.79	1761.25
451.00	1603.56
451.20	1830.88
451.41	1740.77
451.61	1705.96
451.81	1763.30
452.02	1712.10
452.22	1812.45
452.43	1697.77
452.63	1703.91
452.84	1746.92
453.04	1693.67
453.24	1755.11
453.45	1640.42
453.65	1734.63
453.86	1734.63
454.06	1703.91
454.26	1816.55
454.47	1740.77
454.67	1826.79
454.87	1728.49
455.08	1710.05
455.28	1832.93
455.49	1748.97
455.69	1710.05
455.89	1849.32
456.10	1826.79
456.30	1800.16
456.51	1748.97
456.71	1714.15
456.91	1769.44
457.12	1736.68
457.32	1771.49
457.52	1714.15
457.73	1781.73
457.93	1816.55
458.14	1779.68
458.34	1640.42
458.54	1685.48
458.75	1734.63
458.95	1818.60
459.15	1685.48
459.36	1652.71
459.56	1753.06
459.76	1816.55
459.97	1720.29
460.17	1742.82
460.37	1775.59
460.58	1734.63
460.78	1740.77
460.99	1763.30
461.19	1701.86
461.39	1683.43
461.60	1812.45
461.80	1808.36
462.00	1667.05
462.21	1681.38
462.41	1742.82
462.61	1681.38
462.82	1636.33
463.02	1742.82
463.22	1681.38
463.43	1714.15
463.63	1824.74
463.83	1783.78
464.04	1724.39
464.24	1673.19
464.44	1667.05
464.64	1701.86
464.85	1779.68
465.05	1771.49
465.25	1648.61
465.46	1730.53
465.66	1783.78
465.86	1660.90
466.07	1771.49
466.27	1755.11
466.47	1665.00
466.68	1687.53
466.88	1773.54
467.08	1736.68
467.29	1718.25
467.49	1728.49
467.69	1642.47
467.89	1722.34
468.10	1787.88
468.30	1683.43
468.50	1800.16
468.71	1812.45
468.91	1634.28
469.11	1877.99
469.31	1773.54
469.52	1665.00
469.72	1820.64
469.92	1824.74
470.13	1701.86
470.33	1689.57
470.53	1847.27
470.73	2140.13
470.94	2287.58
471.14	2263.01
471.34	2547.67
471.54	2428.89
471.75	2220.00
471.95	2172.89
472.15	2047.97
472.36	2090.98
472.56	2078.69
472.76	2070.50
472.96	2078.69
473.17	1908.71
473.37	1888.23
473.57	1761.25
473.77	1873.89
473.98	1675.24
474.18	1691.62
474.38	1955.81
474.58	1738.73
474.79	1710.05
474.99	1726.44
475.19	1726.44
475.39	1673.19
475.60	1697.77
475.80	1722.34
476.00	1753.06
476.20	1705.96
476.41	1746.92
476.61	1804.26
476.81	1812.45
477.01	1675.24
477.21	1791.97
477.42	1781.73
477.62	1656.81
477.82	1689.57
478.02	1738.73
478.23	1767.40
478.43	1673.19
478.63	1708.01
478.83	1703.91
479.03	1685.48
479.24	1720.29
479.44	1830.88
479.64	1587.18
479.84	1628.14
480.04	1722.34
480.25	1742.82
480.45	1728.49
480.65	1730.53
480.85	1789.92
481.06	1648.61
481.26	1701.86
481.46	1746.92
481.66	1757.16
481.86	1644.52
482.06	1802.21
482.27	1691.62
482.47	1677.29
482.67	1755.11
482.87	1685.48
483.07	1820.64
483.28	1712.10
483.48	1560.55
483.68	1615.85
483.88	1669.09
484.08	1626.09
484.29	1632.23
484.49	1705.96
484.69	1708.01
484.89	1802.21
485.09	1763.30
485.29	1697.77
485.50	1755.11
485.70	1701.86
485.90	1857.51
486.10	1748.97
486.30	1714.15
486.50	1748.97
486.71	1773.54
486.91	1708.01
487.11	1810.40
487.31	1716.20
487.51	1771.49
487.71	1636.33
487.91	1683.43
488.12	1685.48
488.32	1523.69
488.52	1611.75
488.72	1583.08
488.92	1665.00
489.12	1787.88
489.32	1722.34
489.53	1746.92
489.73	1607.66
489.93	1738.73
490.13	1718.25
490.33	1576.94
490.53	1689.57
490.73	1742.82
490.94	1615.85
491.14	1816.55
491.34	1796.07
491.54	2121.70
491.74	2535.39
491.94	2820.05
492.14	2996.18
492.34	3041.23
492.54	2830.29
492.75	2525.15
492.95	2492.38
493.15	2281.44
493.35	2285.53
493.55	2156.51
493.75	2199.52
493.95	2082.78
494.15	1908.71
494.35	1886.18
494.56	1837.03
494.76	1773.54
494.96	1796.07
495.16	1798.12
495.36	1796.07
495.56	1722.34
495.76	1796.07
495.96	1722.34
496.16	1716.20
496.36	1853.41
496.56	1761.25
496.77	1708.01
496.97	1703.91
497.17	1804.26
497.37	1644.52
497.57	1708.01
497.77	1744.87
497.97	1701.86
498.17	1726.44
498.37	1665.00
498.57	1763.30
498.77	1677.29
498.97	1765.35
499.17	1853.41
499.38	1763.30
499.58	1796.07
499.78	1791.97
499.98	1796.07
500.18	1726.44
500.38	1734.63
500.58	1929.19
500.78	2457.56
500.98	4554.68
501.18	5871.53
501.38	6782.87
501.58	7214.99
501.78	6596.51
501.98	5570.48
502.18	4919.22
502.38	4466.62
502.58	4097.99
502.78	3725.26
502.98	3669.96
503.18	3385.29
503.38	3149.78
503.59	2805.72
503.79	2680.79
503.99	2422.75
504.19	2240.48
504.39	2103.26
504.59	2193.37
504.79	2119.65
504.99	2021.35
505.19	1937.38
505.39	1873.89
505.59	1990.63
505.79	1865.70
505.99	1839.08
506.19	1757.16
506.39	1894.37
506.59	1794.02
506.79	1777.64
506.99	1875.94
507.19	1857.51
507.39	1705.96
507.59	1757.16
507.79	1689.57
507.99	1705.96
508.19	1796.07
508.39	1603.56
508.59	1736.68
508.79	1818.60
508.99	1845.22
509.19	1748.97
509.39	1773.54
509.59	1703.91
509.79	1636.33
509.99	1785.83
510.19	1742.82
510.39	1724.39
510.59	1800.16
510.79	1675.24
510.99	1718.25
511.19	1761.25
511.39	1859.56
511.59	1812.45
511.79	1769.44
511.99	1828.84
512.19	1753.06
512.38	1708.01
512.58	1708.01
512.78	1732.58
512.98	1710.05
513.18	1800.16
513.38	1617.90
513.58	1785.83
513.78	1683.43
513.98	1683.43
514.18	1714.15
514.38	1642.47
514.58	1783.78
514.78	1656.81
514.98	1638.38
515.18	1767.40
515.38	1701.86
515.58	1775.59
515.78	1658.85
515.98	1765.35
516.18	1759.21
516.38	1699.81
516.57	1722.34
516.77	1744.87
516.97	1759.21
517.17	1748.97
517.37	1667.05
517.57	1771.49
517.77	1705.96
517.97	1710.05
518.17	1738.73
518.37	1636.33
518.57	1734.63
518.77	1683.43
518.97	1710.05
519.16	1761.25
519.36	1871.84
519.56	1699.81
519.76	1691.62
519.96	1740.77
520.16	1820.64
520.36	1626.09
520.56	1914.85
520.76	1632.23
520.96	1648.61
521.16	1781.73
521.35	1857.51
521.55	1814.50
521.75	1697.77
521.95	1728.49
522.15	1697.77
522.35	1646.57
522.55	1710.05
522.75	1787.88
522.95	1787.88
523.14	1724.39
523.34	1761.25
523.54	1695.72
523.74	1779.68
523.94	1757.16
524.14	1726.44
524.34	1681.38
524.54	1839.08
524.73	1761.25
524.93	1751.01
525.13	1738.73
525.33	1634.28
525.53	1918.95
525.73	1734.63
525.93	1748.97
526.13	1744.87
526.32	1742.82
526.52	1748.97
526.72	1728.49
526.92	1798.12
527.12	1773.54
527.32	1658.85
527.52	1738.73
527.71	1763.30
527.91	1794.02
528.11	1695.72
528.31	1742.82
528.51	1755.11
528.71	1789.92
528.90	1757.16
529.10	1832.93
529.30	1740.77
529.50	1648.61
529.70	1804.26
529.90	1665.00
530.09	1738.73
530.29	1630.18
530.49	1665.00
530.69	1904.61
530.89	1736.68
531.09	1757.16
531.28	1701.86
531.48	1796.07
531.68	1722.34
531.88	1777.64
532.08	1724.39
532.28	1767.40
532.47	1751.01
532.67	1867.75
532.87	1810.40
533.07	1656.81
533.27	1726.44
533.46	1779.68
533.66	1796.07
533.86	1734.63
534.06	1726.44
534.26	1761.25
534.45	1714.15
534.65	1845.22
534.85	1699.81
535.05	1738.73
535.25	1757.16
535.44	1681.38
535.64	1802.21
535.84	1638.38
536.04	1728.49
536.24	1665.00
536.43	1781.73
536.63	1744.87
536.83	1746.92
537.03	1636.33
537.22	1718.25
537.42	1658.85
537.62	1726.44
537.82	1691.62
538.02	1771.49
538.21	1882.08
538.41	1951.71
538.61	1769.44
538.81	1738.73
539.00	1863.65
539.20	1652.71
539.40	1695.72
539.60	1742.82
539.79	1773.54
539.99	1689.57
540.19	1710.05
540.39	1726.44
540.58	1751.01
540.78	1787.88
540.98	1820.64
541.18	1810.40
541.37	1771.49
541.57	1708.01
541.77	1787.88
541.97	1689.57
542.16	1681.38
542.36	1767.40
542.56	1755.11
542.76	1851.36
542.95	1804.26
543.15	1748.97
543.35	1853.41
543.54	1644.52
543.74	1624.04
543.94	1798.12
544.14	1673.19
544.33	1761.25
544.53	1705.96
544.73	1755.11
544.93	1794.02
545.12	1767.40
545.32	1796.07
545.52	1730.53
545.71	1708.01
545.91	1714.15
546.11	1640.42
546.30	1675.24
546.50	1841.12
546.70	1728.49
546.90	1746.92
547.09	1728.49
547.29	1767.40
547.49	1794.02
547.68	1759.21
547.88	1677.29
548.08	1820.64
548.27	2181.09
548.47	1722.34
548.67	1671.14
548.87	1753.06
549.06	1697.77
549.26	1763.30
549.46	1724.39
549.65	1714.15
549.85	1767.40
550.05	1783.78
550.24	1650.66
550.44	1769.44
550.64	1708.01
550.83	1720.29
551.03	1738.73
551.23	1820.64
551.42	1734.63
551.62	1718.25
551.82	1693.67
552.01	1730.53
552.21	1849.32
552.41	1820.64
552.60	1834.98
552.80	1832.93
553.00	1734.63
553.19	1648.61
553.39	1843.17
553.59	1632.23
553.78	1685.48
553.98	1738.73
554.17	1681.38
554.37	1769.44
554.57	1777.64
554.76	1665.00
554.96	1621.99
555.16	1746.92
555.35	1732.58
555.55	1722.34
555.75	1822.69
555.94	1794.02
556.14	1695.72
556.33	1869.80
556.53	1759.21
556.73	1683.43
556.92	1730.53
557.12	1804.26
557.32	1845.22
557.51	1724.39
557.71	1751.01
557.90	1894.37
558.10	1886.18
558.30	1779.68
558.49	1755.11
558.69	1703.91
558.88	1812.45
559.08	1736.68
559.28	1791.97
559.47	1765.35
559.67	1886.18
559.86	1767.40
560.06	1736.68
560.26	1751.01
560.45	1841.12
560.65	1710.05
560.84	1857.51
561.04	1632.23
561.24	1757.16
561.43	1681.38
561.63	1880.04
561.82	1783.78
562.02	1757.16
562.22	1720.29
562.41	1665.00
562.61	1675.24
562.80	1740.77
563.00	1837.03
563.19	1734.63
563.39	1732.58
563.59	1804.26
563.78	1708.01
563.98	1681.38
564.17	1679.33
564.37	1593.32
564.56	1714.15
564.76	1687.53
564.96	1779.68
565.15	1751.01
565.35	1925.09
565.54	1710.05
565.74	1779.68
565.93	1796.07
566.13	1742.82
566.32	1804.26
566.52	1787.88
566.71	1708.01
566.91	1822.69
567.11	1726.44
567.30	1703.91
567.50	1808.36
567.69	1742.82
567.89	1701.86
568.08	1648.61
568.28	1804.26
568.47	1652.71
568.67	1751.01
568.86	1724.39
569.06	1748.97
569.25	1693.67
569.45	1644.52
569.64	1679.33
569.84	1693.67
570.04	1751.01
570.23	1665.00
570.43	1779.68
570.62	1755.11
570.82	1787.88
571.01	1705.96
571.21	1738.73
571.40	1697.77
571.60	1734.63
571.79	1753.06
571.99	1751.01
572.18	1689.57
572.38	1714.15
572.57	1712.10
572.77	1822.69
572.96	1863.65
573.16	1783.78
573.35	1767.40
573.55	1763.30
573.74	1794.02
573.94	1730.53
574.13	1718.25
574.33	1779.68
574.52	1808.36
574.71	1748.97
574.91	1740.77
575.10	1662.95
575.30	1695.72
575.49	1679.33
575.69	1689.57
575.88	1755.11
576.08	1685.48
576.27	1734.63
576.47	1714.15
576.66	1789.92
576.86	1814.50
577.05	1771.49
577.25	1791.97
577.44	1871.84
577.64	1654.76
577.83	1834.98
578.02	1724.39
578.22	1826.79
578.41	1896.42
578.61	1769.44
578.80	1734.63
579.00	1761.25
579.19	1767.40
579.39	1787.88
579.58	1789.92
579.77	1748.97
579.97	1861.60
580.16	1804.26
580.36	1800.16
580.55	1826.79
580.75	1837.03
580.94	1761.25
581.13	1892.32
581.33	1847.27
581.52	1746.92
581.72	1832.93
581.91	1810.40
582.11	1787.88
582.30	1746.92
582.49	1724.39
582.69	1820.64
582.88	1812.45
583.08	1804.26
583.27	1820.64
583.47	1740.77
583.66	1710.05
583.85	1665.00
584.05	1714.15
584.24	1832.93
584.44	1826.79
584.63	1763.30
584.82	1812.45
585.02	1912.80
585.21	1898.47
585.41	1853.41
585.60	1841.12
585.79	1964.00
585.99	1898.47
586.18	1861.60
586.37	2217.95
586.57	3387.34
586.76	9975.66
586.96	24798.85
587.15	35091.94
587.34	40998.29
587.54	42745.20
587.73	37346.76
587.93	26467.95
588.12	21812.92
588.31	18460.39
588.51	16598.79
588.70	15140.63
588.89	14247.72
589.09	12482.37
589.28	11061.08
589.47	9484.14
589.67	7886.73
589.86	6514.59
590.06	4933.56
590.25	3874.76
590.44	3123.15
590.64	2617.30
590.83	2236.38
591.02	2072.54
591.22	1970.15
591.41	1890.28
591.60	1841.12
591.80	1996.77
591.99	1771.49
592.18	1763.30
592.38	1781.73
592.57	1773.54
592.76	1763.30
592.96	1771.49
593.15	1662.95
593.34	1771.49
593.54	1740.77
593.73	1796.07
593.92	1732.58
594.12	1675.24
594.31	1662.95
594.50	1828.84
594.70	1867.75
594.89	1914.85
595.08	1552.36
595.28	1732.58
595.47	1898.47
595.66	1742.82
595.86	1656.81
596.05	1738.73
596.24	1796.07
596.43	1877.99
596.63	1884.13
596.82	1806.31
597.01	1775.59
597.21	1802.21
597.40	1798.12
597.59	1730.53
597.79	1718.25
597.98	1708.01
598.17	1781.73
598.36	1763.30
598.56	1798.12
598.75	1740.77
598.94	1765.35
599.14	1765.35
599.33	1714.15
599.52	1740.77
599.71	1834.98
599.91	1800.16
600.10	1765.35
600.29	1716.20
600.48	1834.98
600.68	1796.07
600.87	1697.77
601.06	1757.16
601.26	1624.04
601.45	1761.25
601.64	1691.62
601.83	1718.25
602.03	1632.23
602.22	1626.09
602.41	1814.50
602.60	1843.17
602.80	1751.01
602.99	1703.91
603.18	1665.00
603.37	1734.63
603.57	1851.36
603.76	1775.59
603.95	1744.87
604.14	1689.57
604.34	1636.33
604.53	1800.16
604.72	1726.44
604.91	1740.77
605.10	1787.88
605.30	1685.48
605.49	1787.88
605.68	1757.16
605.87	1763.30
606.07	1712.10
606.26	1726.44
606.45	1787.88
606.64	1724.39
606.84	1738.73
607.03	1650.66
607.22	1773.54
607.41	1656.81
607.60	1748.97
607.80	1789.92
607.99	1697.77
608.18	1771.49
608.37	1724.39
608.56	1755.11
608.76	1791.97
608.95	1812.45
609.14	1705.96
609.33	1832.93
609.52	1734.63
609.72	1744.87
609.91	1742.82
610.10	1673.19
610.29	1845.22
610.48	1791.97
610.68	1767.40
610.87	1693.67
611.06	1812.45
611.25	1775.59
611.44	1769.44
611.63	1683.43
611.83	1820.64
612.02	1656.81
612.21	1820.64
612.40	1640.42
612.59	1697.77
612.79	1636.33
612.98	1705.96
613.17	1808.36
613.36	1744.87
613.55	1794.02
613.74	1650.66
613.93	1751.01
614.13	1708.01
614.32	1675.24
614.51	1712.10
614.70	1689.57
614.89	1665.00
615.08	1787.88
615.28	2041.82
615.47	1624.04
615.66	1705.96
615.85	1746.92
616.04	1828.84
616.23	1773.54
616.42	1714.15
616.62	1781.73
616.81	1710.05
617.00	1703.91
617.19	1798.12
617.38	1746.92
617.57	1775.59
617.76	1710.05
617.95	1806.31
618.15	1742.82
618.34	1818.60
618.53	1626.09
618.72	1724.39
618.91	1787.88
619.10	1765.35
619.29	1697.77
619.48	1781.73
619.68	1703.91
619.87	1728.49
620.06	1671.14
620.25	1746.92
620.44	1667.05
620.63	1728.49
620.82	1720.29
621.01	1767.40
621.20	1769.44
621.39	1791.97
621.59	1775.59
621.78	1757.16
621.97	1677.29
622.16	1771.49
622.35	1701.86
622.54	1761.25
622.73	1787.88
622.92	1632.23
623.11	1705.96
623.30	1738.73
623.49	1677.29
623.68	1710.05
623.88	1763.30
624.07	1746.92
624.26	1736.68
624.45	1761.25
624.64	1697.77
624.83	1708.01
625.02	1679.33
625.21	1705.96
625.40	1757.16
625.59	1794.02
625.78	1826.79
625.97	1742.82
626.16	1761.25
626.35	1787.88
626.54	1714.15
626.74	1800.16
626.93	1720.29
627.12	1726.44
627.31	1783.78
627.50	1730.53
627.69	1714.15
627.88	1656.81
628.07	1734.63
628.26	1564.65
628.45	1726.44
628.64	1642.47
628.83	1699.81
629.02	1640.42
629.21	1757.16
629.40	1712.10
629.59	1652.71
629.78	1785.83
629.97	1742.82
630.16	1671.14
630.35	1734.63
630.54	1683.43
630.73	1705.96
630.92	1798.12
631.11	1636.33
631.30	1726.44
631.49	1738.73
631.68	1681.38
631.87	1720.29
632.06	1689.57
632.25	1892.32
632.44	1681.38
632.63	1742.82
632.82	1636.33
633.01	1605.61
633.20	1777.64
633.39	1681.38
633.58	1599.46
633.77	1701.86
633.96	1640.42
634.15	1804.26
634.34	1710.05
634.53	1736.68
634.72	1691.62
634.91	1669.09
635.10	1708.01
635.29	1761.25
635.48	1755.11
635.67	1746.92
635.86	1601.51
636.05	1650.66
636.24	1724.39
636.43	1734.63
636.62	1693.67
636.81	1574.89
637.00	1744.87
637.19	1740.77
637.38	1716.20
637.57	1662.95
637.76	1683.43
637.95	1720.29
638.14	1650.66
638.33	1744.87
638.52	1722.34
638.71	1693.67
638.89	1652.71
639.08	1882.08
639.27	1730.53
639.46	1687.53
639.65	1808.36
639.84	1742.82
640.03	1744.87
640.22	1624.04
640.41	1796.07
640.60	1665.00
640.79	1716.20
640.98	1765.35
641.17	1783.78
641.36	1703.91
641.55	1732.58
641.74	1656.81
641.92	1644.52
642.11	1675.24
642.30	1640.42
642.49	1748.97
642.68	1716.20
642.87	1716.20
643.06	1800.16
643.25	1728.49
643.44	1611.75
643.63	1693.67
643.82	1783.78
644.00	1615.85
644.19	1726.44
644.38	1681.38
644.57	1738.73
644.76	1757.16
644.95	1665.00
645.14	1665.00
645.33	1658.85
645.52	1757.16
645.71	1685.48
645.89	1705.96
646.08	1646.57
646.27	1722.34
646.46	1828.84
646.65	1656.81
646.84	1642.47
647.03	1675.24
647.22	1828.84
647.40	1646.57
647.59	1652.71
647.78	1576.94
647.97	1658.85
648.16	1714.15
648.35	1767.40
648.54	1814.50
648.73	1740.77
648.91	1783.78
649.10	1744.87
649.29	1675.24
649.48	1701.86
649.67	1738.73
649.86	1722.34
650.05	1714.15
650.23	1710.05
650.42	1699.81
650.61	1771.49
650.80	1748.97
650.99	1843.17
651.18	1716.20
651.36	1759.21
651.55	1673.19
651.74	1718.25
651.93	1720.29
652.12	1705.96
652.31	1644.52
652.49	1710.05
652.68	1673.19
652.87	1714.15
653.06	1611.75
653.25	1683.43
653.44	1683.43
653.62	1800.16
653.81	1730.53
654.00	1730.53
654.19	1738.73
654.38	1849.32
654.56	1728.49
654.75	1697.77
654.94	1767.40
655.13	1751.01
655.32	1646.57
655.51	1771.49
655.69	1681.38
655.88	1738.73
656.07	1589.22
656.26	1697.77
656.45	1650.66
656.63	1734.63
656.82	1759.21
657.01	1796.07
657.20	1669.09
657.38	1826.79
657.57	1697.77
657.76	1554.41
657.95	1818.60
658.14	1710.05
658.32	1673.19
658.51	1642.47
658.70	1708.01
658.89	1734.63
659.08	1679.33
659.26	1800.16
659.45	1703.91
659.64	1746.92
659.83	1693.67
660.01	1877.99
660.20	1708.01
660.39	1824.74
660.58	1574.89
660.76	1775.59
660.95	1597.42
661.14	1787.88
661.33	1642.47
661.51	1753.06
661.70	1667.05
661.89	1751.01
662.08	1681.38
662.26	1581.03
662.45	1642.47
662.64	1877.99
662.83	1738.73
663.01	1615.85
663.20	1673.19
663.39	1810.40
663.58	1738.73
663.76	1687.53
663.95	1767.40
664.14	1648.61
664.32	1736.68
664.51	1695.72
664.70	1611.75
664.89	1740.77
665.07	1665.00
665.26	1744.87
665.45	1691.62
665.64	1771.49
665.82	1755.11
666.01	1779.68
666.20	1769.44
666.38	1798.12
666.57	1818.60
666.76	2197.47
666.95	4495.29
667.13	10364.77
667.32	15550.23
667.51	17821.42
667.69	18906.85
667.88	18020.08
668.07	12439.36
668.25	9639.79
668.44	8216.45
668.63	7315.34
668.81	6948.76
669.00	6373.28
669.19	5699.50
669.38	5101.49
669.56	4630.46
669.75	4046.79
669.94	3454.92
670.12	2916.31
670.31	2592.73
670.50	2265.05
670.68	2140.13
670.87	1822.69
671.06	1736.68
671.24	1824.74
671.43	1863.65
671.62	1730.53
671.80	1759.21
671.99	1748.97
672.18	1736.68
672.36	1769.44
672.55	1789.92
672.74	1716.20
672.92	1736.68
673.11	1652.71
673.29	1673.19
673.48	1730.53
673.67	1681.38
673.85	1712.10
674.04	1605.61
674.23	1759.21
674.41	1810.40
674.60	1626.09
674.79	1597.42
674.97	1660.90
675.16	1708.01
675.34	1740.77
675.53	1720.29
675.72	1705.96
675.90	1810.40
676.09	1687.53
676.28	1654.76
676.46	1619.94
676.65	1763.30
676.83	1683.43
677.02	1714.15
677.21	1714.15
677.39	1724.39
677.58	1669.09
677.77	1691.62
677.95	1712.10
678.14	1671.14
678.32	1701.86
678.51	1583.08
678.70	1751.01
678.88	1705.96
679.07	1722.34
679.25	1716.20
679.44	1665.00
679.63	1673.19
679.81	1703.91
680.00	1818.60
680.18	1779.68
680.37	1806.31
680.55	1675.24
680.74	1558.50
680.93	1611.75
681.11	1726.44
681.30	1673.19
681.48	1705.96
681.67	1728.49
681.85	1810.40
682.04	1611.75
682.23	1806.31
682.41	1732.58
682.60	1609.70
682.78	1695.72
682.97	1671.14
683.15	1687.53
683.34	1669.09
683.53	1759.21
683.71	1714.15
683.90	1871.84
684.08	1751.01
684.27	1740.77
684.45	1681.38
684.64	1755.11
684.82	1708.01
685.01	1714.15
685.19	1742.82
685.38	1755.11
685.57	1677.29
685.75	1560.55
685.94	1654.76
686.12	1632.23
686.31	1669.09
686.49	1753.06
686.68	1648.61
686.86	1734.63
687.05	1705.96
687.23	1681.38
687.42	1624.04
687.60	1628.14
687.79	1775.59
687.97	1716.20
688.16	1779.68
688.34	1814.50
688.53	1650.66
688.71	1796.07
688.90	1748.97
689.08	1724.39
689.27	1636.33
689.45	1728.49
689.64	1689.57
689.82	1720.29
690.01	1701.86
690.19	1769.44
690.38	1714.15
690.56	1740.77
690.75	1634.28
690.93	1662.95
691.12	1626.09
691.30	1685.48
691.49	1644.52
691.67	1714.15
691.86	1859.56
692.04	1675.24
692.23	1646.57
692.41	1607.66
692.60	1882.08
692.78	1761.25
692.97	1660.90
693.15	1681.38
693.34	1802.21
693.52	1771.49
693.71	1644.52
693.89	1665.00
694.08	1683.43
694.26	1828.84
694.44	1714.15
694.63	1769.44
694.81	1650.66
695.00	1718.25
695.18	1773.54
695.37	1865.70
695.55	1740.77
695.74	1687.53
695.92	1632.23
696.10	1785.83
696.29	1615.85
696.47	1693.67
696.66	1689.57
696.84	1681.38
697.03	1705.96
697.21	1884.13
697.40	2336.73
697.58	1785.83
697.76	1617.90
697.95	1693.67
698.13	1671.14
698.32	1689.57
698.50	1665.00
698.68	1722.34
698.87	1669.09
699.05	1869.80
699.24	1697.77
699.42	1734.63
699.61	1665.00
699.79	1740.77
699.97	1779.68
700.16	1624.04
700.34	1669.09
700.53	1673.19
700.71	1828.84
700.89	1718.25
701.08	1619.94
701.26	1730.53
701.45	2097.12
701.63	1673.19
701.81	1751.01
702.00	1669.09
702.18	1681.38
702.37	1679.33
702.55	1759.21
702.73	1656.81
702.92	1712.10
703.10	1755.11
703.28	1802.21
703.47	1656.81
703.65	1712.10
703.84	1755.11
704.02	1730.53
704.20	1771.49
704.39	1675.24
704.57	1658.85
704.75	1740.77
704.94	1613.80
705.12	1716.20
705.30	1773.54
705.49	2318.30
705.67	4423.61
705.86	9545.58
706.04	12793.66
706.22	14655.26
706.41	15554.32
706.59	13938.48
706.77	9631.60
706.96	7454.61
707.14	6748.06
707.32	5875.62
707.51	5625.77
707.69	4999.09
707.87	4220.86
708.06	3575.75
708.24	2863.06
708.42	2373.60
708.61	2254.81
708.79	1945.57
708.97	1861.60
709.16	1785.83
709.34	1759.21
709.52	1718.25
709.71	1710.05
709.89	1736.68
710.07	1742.82
710.26	1593.32
710.44	1691.62
710.62	1710.05
710.80	1705.96
710.99	1730.53
711.17	1701.86
711.35	1656.81
711.54	1734.63
711.72	1755.11
711.90	1712.10
712.09	1708.01
712.27	1632.23
712.45	1759.21
712.63	1665.00
712.82	1597.42
713.00	1742.82
713.18	1757.16
713.37	1693.67
713.55	1697.77
713.73	1699.81
713.91	1738.73
714.10	1691.62
714.28	1693.67
714.46	1697.77
714.65	1705.96
714.83	1654.76
715.01	1728.49
715.19	1624.04
715.38	1714.15
715.56	1740.77
715.74	1630.18
715.92	1662.95
716.11	1718.25
716.29	1570.79
716.47	1652.71
716.65	1687.53
716.84	1607.66
717.02	1812.45
717.20	1628.14
717.38	1665.00
717.57	1742.82
717.75	1798.12
717.93	1558.50
718.11	1738.73
718.30	1583.08
718.48	1632.23
718.66	1804.26
718.84	1808.36
719.03	1771.49
719.21	1619.94
719.39	1845.22
719.57	1773.54
719.75	1812.45
719.94	1695.72
720.12	1763.30
720.30	1726.44
720.48	1816.55
720.67	1599.46
720.85	1650.66
721.03	1746.92
721.21	1712.10
721.39	1814.50
721.58	1703.91
721.76	1740.77
721.94	1787.88
722.12	1697.77
722.30	1810.40
722.49	1658.85
722.67	1728.49
722.85	1685.48
723.03	1660.90
723.21	1644.52
723.40	1767.40
723.58	1699.81
723.76	1757.16
723.94	1730.53
724.12	1726.44
724.30	1740.77
724.49	1787.88
724.67	1660.90
724.85	1812.45
725.03	1626.09
725.21	1695.72
725.40	1705.96
725.58	1628.14
725.76	1771.49
725.94	1761.25
726.12	1665.00
726.30	1634.28
726.49	1652.71
726.67	1697.77
726.85	1748.97
727.03	1742.82
727.21	2191.33
727.39	2961.36
727.57	3938.24
727.76	4175.81
727.94	4411.32
728.12	4159.42
728.30	3710.92
728.48	3012.56
728.66	2861.01
728.84	2633.69
729.03	2260.96
729.21	2154.46
729.39	2050.02
729.57	1873.89
729.75	1865.70
729.93	1886.18
730.11	1834.98
730.30	1634.28
730.48	1630.18
730.66	1765.35
730.84	1755.11
731.02	1773.54
731.20	1685.48
731.38	1716.20
731.56	1656.81
731.74	1669.09
731.93	1699.81
732.11	1640.42
732.29	1728.49
732.47	1679.33
732.65	1820.64
732.83	1804.26
733.01	1693.67
733.19	1712.10
733.37	1708.01
733.56	1757.16
733.74	1605.61
733.92	1832.93
734.10	1624.04
734.28	1712.10
734.46	1619.94
734.64	1689.57
734.82	1660.90
735.00	1677.29
735.18	1634.28
735.36	1675.24
735.54	1722.34
735.73	1755.11
735.91	1673.19
736.09	1753.06
736.27	1683.43
736.45	1769.44
736.63	1644.52
736.81	1677.29
736.99	1779.68
737.17	1791.97
737.35	1722.34
737.53	1648.61
737.71	1662.95
737.89	1779.68
738.07	1697.77
738.25	1708.01
738.43	1607.66
738.61	1652.71
738.80	1675.24
738.98	1728.49
739.16	1648.61
739.34	1675.24
739.52	1783.78
739.70	1806.31
739.88	1716.20
740.06	1755.11
740.24	1646.57
740.42	1779.68
740.60	1632.23
740.78	1634.28
740.96	1576.94
741.14	1634.28
741.32	1691.62
741.50	1662.95
741.68	1828.84
741.86	1779.68
742.04	1708.01
742.22	1685.48
742.40	1724.39
742.58	1730.53
742.76	1583.08
742.94	1755.11
743.12	1566.70
743.30	1703.91
743.48	1779.68
743.66	1630.18
743.84	1767.40
744.02	1681.38
744.20	1697.77
744.38	1660.90
744.56	1609.70
744.74	1791.97
744.92	1708.01
745.10	1810.40
745.28	1748.97
745.46	1683.43
745.64	1662.95
745.82	1763.30
746.00	1785.83
746.18	1726.44
746.36	1626.09
746.54	1710.05
746.72	1779.68
746.90	1650.66
747.08	1738.73
747.26	1617.90
747.44	1837.03
747.62	1697.77
747.80	1753.06
747.98	1703.91
748.15	1708.01
748.33	1771.49
748.51	1736.68
748.69	1712.10
748.87	1615.85
749.05	1658.85
749.23	1671.14
749.41	1765.35
749.59	1671.14
749.77	1710.05
749.95	1689.57
750.13	1656.81
750.31	1697.77
750.49	1677.29
750.67	1763.30
750.85	1763.30
751.03	1718.25
751.20	1834.98
751.38	1658.85
751.56	1681.38
751.74	1708.01
751.92	1660.90
752.10	1654.76
752.28	1714.15
752.46	1628.14
752.64	1755.11
752.82	1703.91
753.00	1755.11
753.18	1591.27
753.35	1699.81
753.53	1691.62
753.71	1607.66
753.89	1767.40
754.07	1718.25
754.25	1843.17
754.43	1621.99
754.61	1634.28
754.79	1777.64
754.97	1681.38
755.14	1808.36
755.32	1648.61
755.50	1718.25
755.68	1714.15
755.86	1652.71
756.04	1697.77
756.22	1681.38
756.40	1695.72
756.57	1779.68
756.75	1652.71
756.93	1751.01
757.11	1699.81
757.29	1642.47
757.47	1691.62
757.65	1574.89
757.82	1599.46
758.00	1638.38
758.18	1646.57
758.36	1607.66
758.54	1814.50
758.72	1656.81
758.90	1736.68
759.07	1718.25
759.25	1656.81
759.43	1841.12
759.61	1615.85
759.79	2123.74
759.97	1771.49
760.15	1716.20
760.32	1648.61
760.50	1636.33
760.68	1775.59
760.86	1626.09
761.04	1724.39
761.22	1720.29
761.39	1646.57
761.57	1748.97
761.75	1667.05
761.93	1755.11
762.11	1703.91
762.28	1753.06
762.46	1689.57
762.64	1718.25
762.82	1593.32
763.00	1703.91
763.18	1777.64
763.35	1642.47
763.53	1783.78
763.71	1660.90
763.89	1806.31
764.07	1677.29
764.24	1697.77
764.42	1712.10
764.60	1669.09
764.78	1703.91
764.96	1751.01
765.13	1794.02
765.31	1671.14
765.49	1701.86
765.67	1605.61
765.84	1613.80
766.02	1634.28
766.20	1693.67
766.38	1787.88
766.56	1736.68
766.73	1708.01
766.91	1691.62
767.09	1716.20
767.27	1693.67
767.44	1601.51
767.62	1796.07
767.80	1703.91
767.98	1669.09
768.15	1669.09
768.33	1718.25
768.51	1757.16
768.69	1703.91
768.87	1775.59
769.04	1703.91
769.22	1830.88
769.40	1765.35
769.58	1767.40
769.75	1650.66
769.93	1734.63
770.11	1662.95
770.28	1581.03
770.46	1677.29
770.64	1656.81
770.82	1669.09
770.99	1718.25
771.17	1806.31
771.35	1646.57
771.53	1697.77
771.70	1665.00
771.88	1701.86
772.06	1701.86
772.23	1730.53
772.41	1724.39
772.59	1748.97
772.77	1671.14
772.94	1648.61
773.12	1730.53
773.30	1665.00
773.47	1722.34
773.65	1761.25
773.83	1773.54
774.01	1734.63
774.18	1599.46
774.36	1742.82
774.54	1632.23
774.71	1757.16
774.89	1607.66
775.07	1648.61
775.24	1648.61
775.42	1642.47
775.60	1818.60
775.78	1671.14
775.95	1650.66
776.13	1570.79
776.31	1603.56
776.48	1650.66
776.66	1746.92
776.84	1699.81
777.01	1669.09
777.19	1607.66
777.37	1656.81
777.54	1716.20
777.72	1818.60
777.90	1771.49
778.07	1689.57
778.25	1894.37
778.43	1755.11
778.60	1669.09
778.78	1810.40
778.96	1714.15
779.13	1607.66
779.31	1769.44
779.49	1660.90
779.66	1687.53
779.84	1689.57
780.01	1691.62
780.19	1669.09
780.37	1740.77
780.54	1746.92
780.72	1558.50
780.90	1708.01
781.07	1675.24
781.25	1578.98
781.43	1769.44
781.60	1673.19
781.78	1765.35
781.95	1646.57
782.13	1683.43
782.31	1705.96
782.48	1640.42
782.66	1705.96
782.83	1800.16
783.01	1726.44
783.19	1775.59
783.36	1652.71
783.54	1634.28
783.72	1759.21
783.89	1615.85
784.07	1656.81
784.24	1767.40
784.42	1755.11
784.60	1744.87
784.77	1695.72
784.95	1599.46
785.12	1718.25
785.30	1810.40
785.47	1720.29
785.65	1658.85
785.83	1839.08
786.00	1691.62
786.18	1714.15
786.35	1605.61
786.53	1585.13
786.71	1755.11
786.88	1724.39
787.06	1701.86
787.23	1648.61
787.41	1595.37
787.58	1714.15
787.76	1607.66
787.94	1687.53
788.11	1691.62
788.29	1599.46
788.46	1632.23
788.64	1601.51
788.81	1662.95
788.99	1611.75
789.16	1626.09
789.34	1644.52
789.52	1671.14
789.69	1736.68
789.87	1675.24
790.04	1673.19
790.22	1656.81
790.39	1861.60
790.57	1632.23
790.74	1599.46
790.92	1740.77
791.09	1644.52
791.27	1695.72
791.44	1689.57
791.62	1683.43
791.79	1789.92
791.97	1726.44
792.15	1888.23
792.32	1710.05
792.50	1751.01
792.67	1720.29
792.85	1681.38
793.02	1751.01
793.20	1753.06
793.37	1617.90
793.55	1626.09
793.72	1617.90
793.90	1773.54
794.07	1681.38
794.25	1687.53
794.42	1775.59
794.60	1599.46
794.77	1650.66
794.95	1730.53
795.12	1736.68
795.30	1695.72
795.47	1669.09
795.65	1847.27
795.82	1705.96
796.00	1691.62
796.17	1701.86
796.34	1701.86
796.52	1748.97
796.69	1837.03
796.87	1800.16
797.04	1708.01
797.22	1775.59
797.39	1697.77
797.57	1773.54
797.74	1728.49
797.92	1703.91
798.09	1712.10
798.27	1744.87
798.44	1720.29
798.62	1720.29
798.79	1716.20
798.96	1691.62
799.14	1763.30
799.31	1826.79
799.49	1730.53
799.66	1654.76
799.84	1732.58
800.01	1607.66
800.19	1605.61
800.36	1609.70
800.53	1779.68
800.71	1650.66
800.88	1789.92
801.06	1619.94
801.23	1732.58
801.41	1687.53
801.58	1626.09
801.75	1693.67
801.93	1771.49
802.10	1705.96
802.28	1740.77
802.45	1728.49
802.63	1683.43
802.80	1757.16
802.97	1648.61
803.15	1687.53
803.32	1593.32
803.50	1646.57
803.67	1675.24
803.84	1665.00
804.02	1701.86
804.19	1665.00
804.37	1558.50
804.54	1683.43
804.71	1726.44
804.89	1722.34
805.06	1675.24
805.24	1718.25
805.41	1656.81
805.58	1697.77
805.76	1820.64
805.93	1712.10
806.10	1818.60
806.28	1746.92
806.45	1753.06
806.63	1742.82
806.80	1765.35
806.97	1726.44
807.15	1738.73
807.32	1636.33
807.49	1738.73
807.67	1671.14
807.84	1705.96
808.01	1708.01
808.19	1816.55
808.36	1785.83
808.54	1609.70
808.71	1591.27
808.88	1656.81
809.06	1751.01
809.23	1779.68
809.40	1675.24
809.58	1673.19
809.75	1718.25
809.92	1595.37
810.10	1845.22
810.27	1718.25
810.44	1714.15
810.62	1810.40
810.79	1722.34
810.96	1624.04
811.14	1677.29
811.31	1726.44
811.48	1738.73
811.66	1673.19
811.83	1683.43
812.00	1744.87
812.18	1734.63
812.35	1812.45
812.52	1685.48
812.69	1759.21
812.87	1703.91
813.04	1718.25
813.21	1724.39
813.39	1697.77
813.56	1619.94
813.73	1669.09
813.91	1720.29
814.08	1732.58
814.25	1685.48
814.42	1669.09
814.60	1701.86
814.77	1714.15
814.94	1695.72
815.12	1771.49
815.29	1779.68
815.46	1595.37
815.63	1744.87
815.81	1685.48
815.98	1693.67
816.15	1687.53
816.33	1746.92
816.50	1636.33
816.67	1648.61
816.84	1730.53
817.02	1669.09
817.19	1751.01
817.36	1773.54
817.53	1701.86
817.71	1648.61
817.88	1816.55
818.05	1728.49
818.22	1685.48
818.40	1802.21
818.57	1603.56
818.74	1677.29
818.91	1722.34
819.09	1732.58
819.26	1751.01
819.43	1722.34
819.60	1648.61
819.78	1652.71
819.95	1734.63
820.12	1638.38
820.29	1650.66
820.47	1759.21
820.64	1632.23
820.81	1578.98
820.98	1683.43
821.15	1609.70
821.33	1669.09
821.50	1587.18
821.67	1742.82
821.84	1703.91
822.02	1812.45
822.19	1828.84
822.36	1619.94
822.53	1640.42
822.70	1605.61
822.88	1730.53
823.05	1759.21
823.22	1665.00
823.39	1673.19
823.56	1679.33
823.74	1763.30
823.91	1660.90
824.08	1593.32
824.25	1609.70
824.42	1783.78
824.60	1665.00
824.77	1771.49
824.94	1634.28
825.11	1738.73
825.28	1585.13
825.45	1730.53
825.63	1687.53
825.80	1665.00
825.97	1808.36
826.14	1705.96
826.31	1693.67
826.48	1720.29
826.66	1667.05
826.83	1705.96
827.00	1708.01
827.17	1705.96
827.34	1705.96
827.51	1722.34
827.69	1716.20
827.86	1605.61
828.03	1781.73
828.20	1648.61
828.37	1615.85
828.54	1718.25
828.71	1695.72
828.89	1734.63
829.06	1669.09
829.23	1746.92
829.40	1744.87
829.57	1689.57
829.74	1714.15
829.91	1615.85
830.09	1640.42
830.26	1683.43
830.43	1714.15
830.60	1701.86
830.77	1757.16
830.94	1746.92
831.11	1705.96
831.28	1648.61
831.46	1761.25
831.63	1656.81
831.80	1689.57
831.97	1683.43
832.14	1667.05
832.31	1796.07
832.48	1753.06
832.65	1728.49
832.82	1806.31
832.99	1767.40
833.17	1636.33
833.34	1845.22
833.51	1728.49
833.68	1533.93
833.85	1746.92
834.02	1710.05
834.19	1687.53
834.36	1615.85
834.53	1701.86
834.70	1779.68
834.87	1722.34
835.04	1697.77
835.22	1683.43
835.39	1730.53
835.56	1714.15
835.73	1613.80
835.90	1744.87
836.07	1697.77
836.24	1699.81
836.41	1626.09
836.58	1697.77
836.75	1757.16
836.92	1675.24
837.09	1632.23
837.26	1712.10
837.43	1736.68
837.60	1642.47
837.77	1673.19
837.94	1689.57
838.12	1740.77
838.29	1777.64
838.46	1630.18
838.63	1630.18
838.80	1759.21
838.97	1708.01
839.14	1701.86
839.31	1699.81
839.48	1710.05
839.65	1656.81
839.82	1728.49
839.99	1671.14
840.16	1753.06
840.33	1705.96
840.50	1718.25
840.67	1628.14
840.84	1589.22
841.01	1687.53
841.18	1624.04
841.35	1613.80
841.52	1691.62
841.69	1820.64
841.86	1736.68
842.03	1703.91
842.20	1763.30
842.37	1730.53
842.54	1689.57
842.71	1632.23
842.88	1671.14
843.05	1753.06
843.22	1751.01
843.39	1720.29
843.56	1689.57
843.73	1646.57
843.90	1746.92
844.07	1716.20
844.24	1705.96
844.41	1728.49
844.58	1671.14
844.75	1693.67
844.92	1748.97
845.09	1683.43
845.26	1607.66
845.43	1810.40
845.60	1763.30
845.77	1714.15
845.94	1677.29
846.10	1712.10
846.27	1576.94
846.44	1677.29
846.61	1689.57
846.78	1734.63
846.95	1769.44
847.12	1777.64
847.29	1662.95
847.46	1773.54
847.63	1710.05
847.80	1669.09
847.97	1660.90
848.14	1789.92
848.31	1722.34
848.48	1621.99
848.65	1718.25
848.82	1695.72
848.98	1894.37
849.15	1693.67
849.32	1820.64
849.49	1765.35
849.66	1730.53
849.83	1728.49
850.00	1640.42
850.17	1800.16
850.34	1673.19
850.51	1624.04
850.68	1673.19
850.85	1789.92
851.01	1720.29
851.18	1660.90
851.35	1722.34
851.52	1736.68
851.69	1820.64
851.86	1572.84
852.03	1683.43
852.20	1757.16
852.37	1665.00
852.53	1646.57
852.70	1667.05
852.87	1705.96
853.04	1783.78
853.21	1671.14
853.38	1779.68
853.55	1701.86
853.72	1759.21
853.89	1724.39
854.05	1675.24
854.22	1705.96
854.39	1705.96
854.56	1685.48
854.73	1763.30
854.90	1693.67
855.07	1738.73
855.23	1697.77
855.40	1675.24
855.57	1673.19
855.74	1552.36
855.91	1910.75
856.08	1607.66
856.25	1710.05
856.41	1703.91
856.58	1681.38
856.75	1642.47
856.92	1619.94
857.09	1742.82
857.26	1640.42
857.42	1640.42
857.59	1746.92
857.76	1705.96
857.93	1730.53
858.10	1738.73
858.27	1640.42
858.43	1710.05
858.60	1615.85
858.77	1660.90
858.94	1736.68
859.11	1724.39
859.27	1603.56
859.44	1714.15
859.61	1783.78
859.78	1673.19
859.95	1605.61
860.12	1650.66
860.28	1935.33
860.45	1779.68
860.62	1656.81
860.79	1630.18
860.95	1591.27
861.12	1675.24
861.29	1665.00
861.46	1644.52
861.63	1681.38
861.79	1671.14
861.96	1699.81
862.13	1609.70
862.30	1701.86
862.47	1628.14
862.63	1642.47
862.80	1810.40
862.97	1798.12
863.14	1726.44
863.30	1814.50
863.47	1630.18
863.64	1816.55
863.81	1767.40
863.97	1716.20
864.14	1677.29
864.31	1609.70
864.48	1779.68
864.65	1671.14
864.81	1763.30
864.98	1744.87
865.15	1769.44
865.32	1763.30
865.48	1798.12
865.65	1746.92
865.82	1697.77
865.98	1718.25
866.15	1753.06
866.32	1726.44
866.49	1736.68
866.65	1720.29
866.82	1685.48
866.99	1675.24
867.16	1728.49
867.32	1638.38
867.49	1640.42
867.66	1710.05
867.83	1640.42
867.99	1601.51
868.16	1722.34
868.33	1593.32
868.49	1759.21
868.66	1671.14
868.83	1810.40
868.99	1703.91
869.16	1769.44
869.33	1730.53
869.50	1779.68
869.66	1701.86
869.83	1751.01
870.00	1669.09
870.16	1755.11
870.33	1626.09
870.50	1722.34
870.66	1693.67
870.83	1800.16
871.00	1734.63
871.17	1691.62
871.33	1796.07
871.50	1619.94
871.67	1673.19
871.83	1726.44
872.00	1771.49
872.17	1632.23
872.33	1783.78
872.50	1734.63
872.67	1636.33
872.83	1634.28
873.00	1650.66
873.17	1728.49
873.33	1730.53
873.50	1744.87
873.67	1662.95
873.83	1656.81
874.00	1689.57
874.16	1687.53
874.33	1742.82
874.50	1687.53
874.66	1718.25
874.83	1732.58
875.00	1693.67
875.16	1777.64
875.33	1775.59
875.50	1634.28
875.66	1640.42
875.83	1748.97
875.99	1759.21
876.16	1671.14
876.33	1673.19
876.49	1695.72
876.66	1763.30
876.83	1710.05
876.99	1572.84
877.16	1763.30
877.32	1656.81
877.49	1601.51
877.66	1675.24
877.82	1755.11
877.99	1710.05
878.15	1685.48
878.32	1716.20
878.49	1718.25
878.65	1644.52
878.82	1722.34
878.98	1662.95
879.15	1785.83
879.32	1771.49
879.48	1736.68
879.65	1675.24
879.81	1716.20
879.98	1656.81
880.15	1675.24
880.31	1746.92
880.48	1712.10
880.64	1683.43
880.81	1767.40
880.97	1824.74
881.14	1751.01
881.31	1621.99
881.47	1888.23
881.64	1628.14
881.80	1624.04
881.97	1722.34
882.13	1767.40
882.30	1667.05
882.47	1671.14
882.63	1691.62
882.80	1722.34
882.96	1669.09
883.13	1765.35
883.29	1734.63
883.46	1740.77
883.62	1775.59
883.79	1677.29
883.95	1798.12
884.12	1615.85
884.29	1753.06
884.45	1632.23
884.62	1669.09
884.78	1624.04
884.95	1787.88
885.11	1658.85
885.28	1726.44
885.44	1656.81
885.61	1781.73
885.77	1761.25
885.94	1763.30
886.10	1726.44
886.27	1701.86
886.43	1830.88
886.60	1740.77
886.76	1669.09
886.93	1697.77
887.09	1732.58
887.26	1636.33
887.42	1730.53
887.59	1726.44
887.75	1796.07
887.92	1742.82
888.08	1712.10
888.25	1787.88
888.41	1748.97
888.58	1755.11
888.74	1566.70
888.91	1753.06
>>>>>End Processed Spectral Data<<<<<
