SpectraSuite Data File
++++++++++++++++++++++++++++++++++++
Date: Mon Jun 06 13:53:57 CEST 2016
User: root
Dark Spectrum Present: No
Reference Spectrum Present: No
Number of Sampled Component Spectra: 1
Spectrometers: USB4C02835
Integration Time (usec): 100000 (USB4C02835)
Spectra Averaged: 1 (USB4C02835)
Boxcar Smoothing: 0 (USB4C02835)
Correct for Electrical Dark: No (USB4C02835)
Strobe/Lamp Enabled: No (USB4C02835)
Correct for Detector Non-linearity: No (USB4C02835)
Correct for Stray Light: No (USB4C02835)
Number of Pixels in Processed Spectrum: 3648
>>>>>Begin Processed Spectral Data<<<<<
177.47	1533.93
177.69	1533.93
177.91	1533.93
178.13	1492.97
178.36	1445.87
178.58	1632.23
178.80	1671.14
179.02	1697.77
179.24	1609.70
179.46	1683.43
179.68	1794.02
179.90	1677.29
180.13	1626.09
180.35	1654.76
180.57	1677.29
180.79	1785.83
181.01	1775.59
181.23	1693.67
181.45	1728.49
181.67	1755.11
181.90	1751.01
182.12	1691.62
182.34	1671.14
182.56	1712.10
182.78	1742.82
183.00	1683.43
183.22	1763.30
183.44	1642.47
183.66	1869.80
183.89	1685.48
184.11	1634.28
184.33	1720.29
184.55	1839.08
184.77	1769.44
184.99	1714.15
185.21	1652.71
185.43	1888.23
185.65	1640.42
185.87	1634.28
186.10	1863.65
186.32	1820.64
186.54	1724.39
186.76	1748.97
186.98	1800.16
187.20	1689.57
187.42	1738.73
187.64	1652.71
187.86	1730.53
188.08	1806.31
188.30	1669.09
188.52	1738.73
188.75	1703.91
188.97	1812.45
189.19	1730.53
189.41	1665.00
189.63	1660.90
189.85	1746.92
190.07	1648.61
190.29	1591.27
190.51	1656.81
190.73	1652.71
190.95	1791.97
191.17	1687.53
191.39	1644.52
191.61	1755.11
191.84	1652.71
192.06	1791.97
192.28	1650.66
192.50	1824.74
192.72	1759.21
192.94	1728.49
193.16	1718.25
193.38	1781.73
193.60	1650.66
193.82	1708.01
194.04	1806.31
194.26	1658.85
194.48	1689.57
194.70	1662.95
194.92	1638.38
195.14	1619.94
195.36	1650.66
195.58	1744.87
195.80	1734.63
196.02	1699.81
196.24	1722.34
196.46	1638.38
196.69	1689.57
196.91	1861.60
197.13	1699.81
197.35	1640.42
197.57	1724.39
197.79	1755.11
198.01	1681.38
198.23	1804.26
198.45	1775.59
198.67	1648.61
198.89	1683.43
199.11	1751.01
199.33	1679.33
199.55	1548.26
199.77	1722.34
199.99	1748.97
200.21	1779.68
200.43	1644.52
200.65	1689.57
200.87	1570.79
201.09	1755.11
201.31	1681.38
201.53	1755.11
201.75	1705.96
201.97	1746.92
202.19	1695.72
202.41	1665.00
202.63	1806.31
202.85	1697.77
203.07	1710.05
203.29	1687.53
203.51	1605.61
203.73	1630.18
203.95	1806.31
204.17	1701.86
204.39	1748.97
204.61	1679.33
204.83	1677.29
205.05	1699.81
205.27	1757.16
205.49	1765.35
205.71	1671.14
205.93	1677.29
206.15	1705.96
206.37	1634.28
206.59	1673.19
206.81	1595.37
207.03	1587.18
207.25	1595.37
207.47	1751.01
207.69	1718.25
207.91	1796.07
208.13	1777.64
208.34	1685.48
208.56	1611.75
208.78	1765.35
209.00	1624.04
209.22	1691.62
209.44	1675.24
209.66	1669.09
209.88	1656.81
210.10	1673.19
210.32	1671.14
210.54	1671.14
210.76	1763.30
210.98	1710.05
211.20	1556.46
211.42	1628.14
211.64	1691.62
211.86	1656.81
212.08	1693.67
212.30	1718.25
212.52	1662.95
212.74	1773.54
212.96	1740.77
213.17	1714.15
213.39	1681.38
213.61	1773.54
213.83	1761.25
214.05	1527.78
214.27	1789.92
214.49	1701.86
214.71	1619.94
214.93	1757.16
215.15	1724.39
215.37	1767.40
215.59	1628.14
215.81	1746.92
216.03	1761.25
216.24	1724.39
216.46	1691.62
216.68	1697.77
216.90	1740.77
217.12	1660.90
217.34	1794.02
217.56	1779.68
217.78	1804.26
218.00	1667.05
218.22	1689.57
218.44	1695.72
218.66	1748.97
218.87	1869.80
219.09	1693.67
219.31	1648.61
219.53	1728.49
219.75	1724.39
219.97	1722.34
220.19	1718.25
220.41	1705.96
220.63	1751.01
220.85	1703.91
221.06	1744.87
221.28	1753.06
221.50	1615.85
221.72	1662.95
221.94	1755.11
222.16	1742.82
222.38	1720.29
222.60	1720.29
222.82	1699.81
223.03	1716.20
223.25	1581.03
223.47	1755.11
223.69	1818.60
223.91	1748.97
224.13	1740.77
224.35	1642.47
224.57	1791.97
224.78	1691.62
225.00	1705.96
225.22	1683.43
225.44	1691.62
225.66	1705.96
225.88	1695.72
226.10	1726.44
226.32	1732.58
226.53	1849.32
226.75	1691.62
226.97	1699.81
227.19	1665.00
227.41	1628.14
227.63	1617.90
227.85	1640.42
228.06	1697.77
228.28	1730.53
228.50	1714.15
228.72	1687.53
228.94	1677.29
229.16	1642.47
229.37	1671.14
229.59	1560.55
229.81	1730.53
230.03	1685.48
230.25	1699.81
230.47	1617.90
230.69	1591.27
230.90	1759.21
231.12	1671.14
231.34	1683.43
231.56	1724.39
231.78	1636.33
232.00	1730.53
232.21	1689.57
232.43	1683.43
232.65	1609.70
232.87	1771.49
233.09	1603.56
233.30	1617.90
233.52	1734.63
233.74	1691.62
233.96	1710.05
234.18	1740.77
234.40	1681.38
234.61	1871.84
234.83	1626.09
235.05	1726.44
235.27	1855.46
235.49	1824.74
235.70	1800.16
235.92	1763.30
236.14	1775.59
236.36	1871.84
236.58	1714.15
236.79	1693.67
237.01	1744.87
237.23	1679.33
237.45	1802.21
237.67	1685.48
237.88	1693.67
238.10	1787.88
238.32	1685.48
238.54	1675.24
238.76	1650.66
238.97	1691.62
239.19	1617.90
239.41	1703.91
239.63	1714.15
239.85	1722.34
240.06	1726.44
240.28	1738.73
240.50	1757.16
240.72	1703.91
240.93	1726.44
241.15	1699.81
241.37	1701.86
241.59	1726.44
241.81	1642.47
242.02	1699.81
242.24	1689.57
242.46	1732.58
242.68	1611.75
242.89	1718.25
243.11	1732.58
243.33	1644.52
243.55	1710.05
243.76	1699.81
243.98	1677.29
244.20	1693.67
244.42	1687.53
244.64	1669.09
244.85	1607.66
245.07	1656.81
245.29	1693.67
245.51	1642.47
245.72	1687.53
245.94	1808.36
246.16	1763.30
246.38	1830.88
246.59	1720.29
246.81	1585.13
247.03	1748.97
247.24	1558.50
247.46	1699.81
247.68	1738.73
247.90	1615.85
248.11	1708.01
248.33	1765.35
248.55	1746.92
248.77	1775.59
248.98	1785.83
249.20	1775.59
249.42	1726.44
249.64	1757.16
249.85	1685.48
250.07	1685.48
250.29	1732.58
250.50	1767.40
250.72	1640.42
250.94	1716.20
251.16	1765.35
251.37	1773.54
251.59	1705.96
251.81	1679.33
252.02	1779.68
252.24	1656.81
252.46	1738.73
252.68	1652.71
252.89	1638.38
253.11	1662.95
253.33	1759.21
253.54	1742.82
253.76	1609.70
253.98	1730.53
254.20	1656.81
254.41	1624.04
254.63	1712.10
254.85	1599.46
255.06	1716.20
255.28	1671.14
255.50	1634.28
255.71	1626.09
255.93	1632.23
256.15	1662.95
256.36	1781.73
256.58	1591.27
256.80	1710.05
257.02	1581.03
257.23	1644.52
257.45	1699.81
257.67	1738.73
257.88	1587.18
258.10	1648.61
258.32	1716.20
258.53	1757.16
258.75	1767.40
258.97	1714.15
259.18	1681.38
259.40	1654.76
259.62	1781.73
259.83	1851.36
260.05	1742.82
260.27	1988.58
260.48	1748.97
260.70	1669.09
260.92	1681.38
261.13	1671.14
261.35	1742.82
261.57	1720.29
261.78	1599.46
262.00	1560.55
262.22	1736.68
262.43	1691.62
262.65	1705.96
262.86	1669.09
263.08	1841.12
263.30	1705.96
263.51	1621.99
263.73	1640.42
263.95	1837.03
264.16	1599.46
264.38	1632.23
264.60	1685.48
264.81	1693.67
265.03	1877.99
265.25	1689.57
265.46	1712.10
265.68	1722.34
265.89	1720.29
266.11	1683.43
266.33	1722.34
266.54	1830.88
266.76	1673.19
266.98	1693.67
267.19	1855.46
267.41	1751.01
267.62	1681.38
267.84	1654.76
268.06	1718.25
268.27	1744.87
268.49	1703.91
268.70	1738.73
268.92	1734.63
269.14	1619.94
269.35	1587.18
269.57	1679.33
269.79	1773.54
270.00	1658.85
270.22	1777.64
270.43	1728.49
270.65	1607.66
270.87	1683.43
271.08	1697.77
271.30	1757.16
271.51	1714.15
271.73	1755.11
271.95	1783.78
272.16	1650.66
272.38	1636.33
272.59	1632.23
272.81	1753.06
273.02	1710.05
273.24	1755.11
273.46	1740.77
273.67	1591.27
273.89	1642.47
274.10	1624.04
274.32	1794.02
274.54	1800.16
274.75	1677.29
274.97	1757.16
275.18	1708.01
275.40	1722.34
275.61	1683.43
275.83	1697.77
276.05	1667.05
276.26	1669.09
276.48	1765.35
276.69	1638.38
276.91	1634.28
277.12	1746.92
277.34	1837.03
277.55	1781.73
277.77	1685.48
277.99	1681.38
278.20	1652.71
278.42	1628.14
278.63	1644.52
278.85	1601.51
279.06	1581.03
279.28	1730.53
279.49	1767.40
279.71	1693.67
279.93	1689.57
280.14	1644.52
280.36	1673.19
280.57	1695.72
280.79	1775.59
281.00	1669.09
281.22	1634.28
281.43	1746.92
281.65	1626.09
281.86	1689.57
282.08	1769.44
282.29	1787.88
282.51	1615.85
282.73	1683.43
282.94	1634.28
283.16	1697.77
283.37	1828.84
283.59	1685.48
283.80	1732.58
284.02	1701.86
284.23	1730.53
284.45	1714.15
284.66	1660.90
284.88	1701.86
285.09	1785.83
285.31	1714.15
285.52	1742.82
285.74	1644.52
285.95	1718.25
286.17	1728.49
286.38	1744.87
286.60	1712.10
286.81	1673.19
287.03	1669.09
287.24	1687.53
287.46	1738.73
287.67	1669.09
287.89	1748.97
288.10	1689.57
288.32	1714.15
288.53	1787.88
288.75	1654.76
288.96	1748.97
289.18	1716.20
289.39	1751.01
289.61	1783.78
289.82	1837.03
290.04	1779.68
290.25	1591.27
290.47	1740.77
290.68	1722.34
290.90	1734.63
291.11	1681.38
291.33	1728.49
291.54	1656.81
291.76	1691.62
291.97	1740.77
292.18	1746.92
292.40	1673.19
292.61	1617.90
292.83	1808.36
293.04	1724.39
293.26	1724.39
293.47	1658.85
293.69	1738.73
293.90	1648.61
294.12	1806.31
294.33	1697.77
294.55	1730.53
294.76	1710.05
294.97	1693.67
295.19	1851.36
295.40	1699.81
295.62	1701.86
295.83	1722.34
296.05	1669.09
296.26	1800.16
296.48	1615.85
296.69	1689.57
296.90	1662.95
297.12	1812.45
297.33	1822.69
297.55	1669.09
297.76	1708.01
297.98	1748.97
298.19	1755.11
298.41	1701.86
298.62	1650.66
298.83	1763.30
299.05	1708.01
299.26	1685.48
299.48	1675.24
299.69	1681.38
299.90	1830.88
300.12	1607.66
300.33	1703.91
300.55	1710.05
300.76	1705.96
300.98	1628.14
301.19	1708.01
301.40	1665.00
301.62	1695.72
301.83	1724.39
302.05	1652.71
302.26	1687.53
302.47	1751.01
302.69	1665.00
302.90	1687.53
303.12	1576.94
303.33	1720.29
303.54	1828.84
303.76	1736.68
303.97	1667.05
304.19	1832.93
304.40	1691.62
304.61	1718.25
304.83	1808.36
305.04	1787.88
305.26	1640.42
305.47	1634.28
305.68	1759.21
305.90	1562.60
306.11	1769.44
306.33	1691.62
306.54	1712.10
306.75	1658.85
306.97	1615.85
307.18	1642.47
307.39	1691.62
307.61	1734.63
307.82	1654.76
308.04	1734.63
308.25	1656.81
308.46	1744.87
308.68	1736.68
308.89	1626.09
309.10	1742.82
309.32	1746.92
309.53	1665.00
309.74	1644.52
309.96	1683.43
310.17	1724.39
310.39	1695.72
310.60	1662.95
310.81	1710.05
311.03	1607.66
311.24	1714.15
311.45	1712.10
311.67	1837.03
311.88	1753.06
312.09	1710.05
312.31	1699.81
312.52	1716.20
312.73	1667.05
312.95	1628.14
313.16	1617.90
313.37	1796.07
313.59	1728.49
313.80	1728.49
314.01	1732.58
314.23	1740.77
314.44	1638.38
314.65	1619.94
314.87	1632.23
315.08	1728.49
315.29	1673.19
315.51	1656.81
315.72	1646.57
315.93	1804.26
316.15	1724.39
316.36	1669.09
316.57	1652.71
316.79	1728.49
317.00	1695.72
317.21	1710.05
317.43	1634.28
317.64	1679.33
317.85	1603.56
318.07	1687.53
318.28	1791.97
318.49	1791.97
318.70	1877.99
318.92	1798.12
319.13	1802.21
319.34	1830.88
319.56	1787.88
319.77	1753.06
319.98	1777.64
320.20	1691.62
320.41	1837.03
320.62	1730.53
320.83	1689.57
321.05	1853.41
321.26	1748.97
321.47	1806.31
321.69	1724.39
321.90	1650.66
322.11	1683.43
322.32	1748.97
322.54	1753.06
322.75	1697.77
322.96	1814.50
323.18	1583.08
323.39	1650.66
323.60	1703.91
323.81	1789.92
324.03	1660.90
324.24	1697.77
324.45	1781.73
324.66	1642.47
324.88	1685.48
325.09	1783.78
325.30	1687.53
325.52	1699.81
325.73	1767.40
325.94	1660.90
326.15	1601.51
326.37	1689.57
326.58	1783.78
326.79	1757.16
327.00	1658.85
327.22	1740.77
327.43	1556.46
327.64	1632.23
327.85	1609.70
328.07	1658.85
328.28	1789.92
328.49	1642.47
328.70	1667.05
328.92	1675.24
329.13	1640.42
329.34	1697.77
329.55	1710.05
329.76	1755.11
329.98	1740.77
330.19	1718.25
330.40	1769.44
330.61	1697.77
330.83	1757.16
331.04	1671.14
331.25	1677.29
331.46	1652.71
331.68	1558.50
331.89	1765.35
332.10	1705.96
332.31	1687.53
332.52	1619.94
332.74	1828.84
332.95	1693.67
333.16	1644.52
333.37	1724.39
333.58	1621.99
333.80	1726.44
334.01	1542.12
334.22	1753.06
334.43	1656.81
334.64	1665.00
334.86	1609.70
335.07	1613.80
335.28	1796.07
335.49	1611.75
335.70	1759.21
335.92	1691.62
336.13	1859.56
336.34	1701.86
336.55	1771.49
336.76	1701.86
336.98	1650.66
337.19	1697.77
337.40	1738.73
337.61	1880.04
337.82	1662.95
338.04	1716.20
338.25	1560.55
338.46	1689.57
338.67	1665.00
338.88	1626.09
339.09	1656.81
339.31	1624.04
339.52	1673.19
339.73	1624.04
339.94	1673.19
340.15	1730.53
340.36	1658.85
340.58	1640.42
340.79	1660.90
341.00	1712.10
341.21	1665.00
341.42	1794.02
341.63	1679.33
341.85	1658.85
342.06	1667.05
342.27	1667.05
342.48	1796.07
342.69	1607.66
342.90	1658.85
343.12	1728.49
343.33	1671.14
343.54	1789.92
343.75	1800.16
343.96	1701.86
344.17	1671.14
344.38	1605.61
344.60	1603.56
344.81	1705.96
345.02	1640.42
345.23	1732.58
345.44	1775.59
345.65	1763.30
345.86	1712.10
346.07	1679.33
346.29	1650.66
346.50	1816.55
346.71	1730.53
346.92	1724.39
347.13	1820.64
347.34	1650.66
347.55	1632.23
347.76	1726.44
347.98	1665.00
348.19	1714.15
348.40	1847.27
348.61	1677.29
348.82	1871.84
349.03	1681.38
349.24	1669.09
349.45	1796.07
349.66	1538.02
349.88	1755.11
350.09	1624.04
350.30	1800.16
350.51	1820.64
350.72	1730.53
350.93	1753.06
351.14	1726.44
351.35	1789.92
351.56	1726.44
351.77	1710.05
351.99	1759.21
352.20	1845.22
352.41	1718.25
352.62	1646.57
352.83	1683.43
353.04	1624.04
353.25	1656.81
353.46	1732.58
353.67	1708.01
353.88	1550.31
354.09	1738.73
354.30	1677.29
354.52	1660.90
354.73	1689.57
354.94	1632.23
355.15	1632.23
355.36	1734.63
355.57	1685.48
355.78	1767.40
355.99	1658.85
356.20	1708.01
356.41	1734.63
356.62	1705.96
356.83	1619.94
357.04	1812.45
357.25	1525.74
357.46	1673.19
357.68	1683.43
357.89	1724.39
358.10	1683.43
358.31	1689.57
358.52	1683.43
358.73	1658.85
358.94	1613.80
359.15	1638.38
359.36	1773.54
359.57	1660.90
359.78	1697.77
359.99	1730.53
360.20	1675.24
360.41	1650.66
360.62	1703.91
360.83	1681.38
361.04	1652.71
361.25	1720.29
361.46	1812.45
361.67	1677.29
361.88	1742.82
362.09	1687.53
362.30	1740.77
362.51	1685.48
362.72	1708.01
362.93	1718.25
363.14	1755.11
363.35	1751.01
363.56	1751.01
363.78	1726.44
363.99	1810.40
364.20	1626.09
364.41	1738.73
364.62	1820.64
364.83	1757.16
365.04	1728.49
365.25	1773.54
365.46	1742.82
365.67	1652.71
365.88	1677.29
366.09	1646.57
366.30	1665.00
366.51	1718.25
366.72	1679.33
366.93	1632.23
367.14	1701.86
367.35	1769.44
367.56	1677.29
367.77	1755.11
367.98	1654.76
368.18	1722.34
368.39	1736.68
368.60	1691.62
368.81	1759.21
369.02	1685.48
369.23	1685.48
369.44	1652.71
369.65	1720.29
369.86	1667.05
370.07	1822.69
370.28	1632.23
370.49	1720.29
370.70	1769.44
370.91	1687.53
371.12	1630.18
371.33	1742.82
371.54	1738.73
371.75	1828.84
371.96	1677.29
372.17	1730.53
372.38	1648.61
372.59	1726.44
372.80	1646.57
373.01	1708.01
373.22	1716.20
373.43	1691.62
373.64	1753.06
373.85	1716.20
374.06	1755.11
374.26	1740.77
374.47	1751.01
374.68	1738.73
374.89	1646.57
375.10	1656.81
375.31	1746.92
375.52	1599.46
375.73	1720.29
375.94	1669.09
376.15	1748.97
376.36	1638.38
376.57	1652.71
376.78	1677.29
376.99	1601.51
377.20	1880.04
377.40	1734.63
377.61	1773.54
377.82	1648.61
378.03	1787.88
378.24	1722.34
378.45	1654.76
378.66	1656.81
378.87	1570.79
379.08	1558.50
379.29	1695.72
379.50	1744.87
379.71	1744.87
379.91	1718.25
380.12	1652.71
380.33	1662.95
380.54	1720.29
380.75	1699.81
380.96	1738.73
381.17	1742.82
381.38	1693.67
381.59	1708.01
381.80	1673.19
382.00	1783.78
382.21	1742.82
382.42	1802.21
382.63	1857.51
382.84	1742.82
383.05	1753.06
383.26	1841.12
383.47	1691.62
383.68	1695.72
383.88	1732.58
384.09	1716.20
384.30	1843.17
384.51	1771.49
384.72	1621.99
384.93	1599.46
385.14	1642.47
385.35	1705.96
385.55	1636.33
385.76	1740.77
385.97	1652.71
386.18	1697.77
386.39	1708.01
386.60	1677.29
386.81	1660.90
387.02	1720.29
387.22	1642.47
387.43	1886.18
387.64	1800.16
387.85	1920.99
388.06	2232.29
388.27	4274.11
388.48	6848.41
388.68	8241.03
388.89	9623.41
389.10	10041.19
389.31	8650.62
389.52	7614.35
389.73	6805.40
389.93	6387.61
390.14	5885.86
390.35	5158.83
390.56	4554.68
390.77	3792.84
390.98	3026.90
391.18	2543.58
391.39	2213.85
391.60	1906.66
391.81	1820.64
392.02	1722.34
392.23	1837.03
392.43	1722.34
392.64	1837.03
392.85	1726.44
393.06	1787.88
393.27	1693.67
393.47	1687.53
393.68	1652.71
393.89	1730.53
394.10	1759.21
394.31	1648.61
394.52	1646.57
394.72	1697.77
394.93	1787.88
395.14	1609.70
395.35	1703.91
395.56	1669.09
395.76	1697.77
395.97	1763.30
396.18	1830.88
396.39	1871.84
396.60	1992.67
396.80	1857.51
397.01	1837.03
397.22	1740.77
397.43	1871.84
397.64	1699.81
397.84	1798.12
398.05	1824.74
398.26	1738.73
398.47	1785.83
398.67	1744.87
398.88	1763.30
399.09	1710.05
399.30	1712.10
399.51	1791.97
399.71	1636.33
399.92	1703.91
400.13	1751.01
400.34	1656.81
400.54	1720.29
400.75	1853.41
400.96	1775.59
401.17	1839.08
401.37	1734.63
401.58	1624.04
401.79	1712.10
402.00	1904.61
402.21	1957.86
402.41	1953.76
402.62	2054.11
402.83	1935.33
403.04	2037.73
403.24	2072.54
403.45	1841.12
403.66	1849.32
403.87	1920.99
404.07	1929.19
404.28	1871.84
404.49	1898.47
404.70	1708.01
404.90	1771.49
405.11	1705.96
405.32	1765.35
405.52	1644.52
405.73	1689.57
405.94	1660.90
406.15	1718.25
406.35	1755.11
406.56	1779.68
406.77	1759.21
406.98	1644.52
407.18	1621.99
407.39	1771.49
407.60	1648.61
407.80	1712.10
408.01	1650.66
408.22	1771.49
408.43	1636.33
408.63	1753.06
408.84	1710.05
409.05	1746.92
409.25	1671.14
409.46	1630.18
409.67	1697.77
409.88	1693.67
410.08	1722.34
410.29	1607.66
410.50	1689.57
410.70	1734.63
410.91	1697.77
411.12	1708.01
411.32	1712.10
411.53	1648.61
411.74	1720.29
411.95	1785.83
412.15	1738.73
412.36	1771.49
412.57	1783.78
412.77	1818.60
412.98	1712.10
413.19	1662.95
413.39	1849.32
413.60	1773.54
413.81	1861.60
414.01	1675.24
414.22	1660.90
414.43	1732.58
414.63	1619.94
414.84	1830.88
415.05	1689.57
415.25	1636.33
415.46	1837.03
415.67	1669.09
415.87	1730.53
416.08	1697.77
416.29	1699.81
416.49	1734.63
416.70	1732.58
416.91	1669.09
417.11	1705.96
417.32	1757.16
417.53	1783.78
417.73	1683.43
417.94	1751.01
418.15	1734.63
418.35	1697.77
418.56	1677.29
418.77	1839.08
418.97	1722.34
419.18	1742.82
419.38	1589.22
419.59	1660.90
419.80	1755.11
420.00	1638.38
420.21	1669.09
420.42	1738.73
420.62	1761.25
420.83	1638.38
421.04	1660.90
421.24	1675.24
421.45	1693.67
421.65	1697.77
421.86	1693.67
422.07	1802.21
422.27	1658.85
422.48	1687.53
422.69	1785.83
422.89	1726.44
423.10	1753.06
423.30	1681.38
423.51	1611.75
423.72	1669.09
423.92	1658.85
424.13	1665.00
424.33	1787.88
424.54	1681.38
424.75	1697.77
424.95	1814.50
425.16	1722.34
425.36	1699.81
425.57	1798.12
425.78	1773.54
425.98	1771.49
426.19	1681.38
426.39	1658.85
426.60	1673.19
426.81	1871.84
427.01	1738.73
427.22	1685.48
427.42	1624.04
427.63	1691.62
427.83	1720.29
428.04	1746.92
428.25	1794.02
428.45	1763.30
428.66	1675.24
428.86	1718.25
429.07	1619.94
429.28	1669.09
429.48	1701.86
429.69	1617.90
429.89	1660.90
430.10	1632.23
430.30	1755.11
430.51	1802.21
430.71	1646.57
430.92	1726.44
431.13	1677.29
431.33	1718.25
431.54	1703.91
431.74	1787.88
431.95	1761.25
432.15	1581.03
432.36	1628.14
432.56	1812.45
432.77	1695.72
432.98	1830.88
433.18	1732.58
433.39	1718.25
433.59	1710.05
433.80	1820.64
434.00	1890.28
434.21	1697.77
434.41	1646.57
434.62	1824.74
434.82	1621.99
435.03	1705.96
435.23	1699.81
435.44	1599.46
435.64	1708.01
435.85	1755.11
436.06	1755.11
436.26	1810.40
436.47	1722.34
436.67	1722.34
436.88	1714.15
437.08	1783.78
437.29	1794.02
437.49	1718.25
437.70	1771.49
437.90	1751.01
438.11	1871.84
438.31	1822.69
438.52	1892.32
438.72	1798.12
438.93	1916.90
439.13	1738.73
439.34	1796.07
439.54	1716.20
439.75	1800.16
439.95	1814.50
440.16	1671.14
440.36	1759.21
440.57	1714.15
440.77	1699.81
440.98	1677.29
441.18	1746.92
441.39	1730.53
441.59	1599.46
441.80	1814.50
442.00	1771.49
442.21	1845.22
442.41	1673.19
442.62	1736.68
442.82	1718.25
443.02	1748.97
443.23	1783.78
443.43	1746.92
443.64	1730.53
443.84	1679.33
444.05	1826.79
444.25	1761.25
444.46	1726.44
444.66	1742.82
444.87	1804.26
445.07	1650.66
445.28	1714.15
445.48	1820.64
445.69	1662.95
445.89	1867.75
446.09	1716.20
446.30	1976.29
446.50	2693.08
446.71	3696.58
446.91	4341.69
447.12	4822.97
447.32	4753.34
447.53	4364.22
447.73	3874.76
447.93	3581.90
448.14	3278.80
448.34	3243.98
448.55	2901.97
448.75	2889.68
448.96	2713.56
449.16	2453.47
449.36	2303.96
449.57	2027.49
449.77	1923.04
449.98	1781.73
450.18	1794.02
450.39	1841.12
450.59	1675.24
450.79	1703.91
451.00	1691.62
451.20	1701.86
451.41	1730.53
451.61	1734.63
451.81	1726.44
452.02	1755.11
452.22	1705.96
452.43	1665.00
452.63	1697.77
452.84	1820.64
453.04	1746.92
453.24	1759.21
453.45	1763.30
453.65	1740.77
453.86	1779.68
454.06	1724.39
454.26	1753.06
454.47	1728.49
454.67	1830.88
454.87	1728.49
455.08	1689.57
455.28	1898.47
455.49	1755.11
455.69	1646.57
455.89	1814.50
456.10	1798.12
456.30	1685.48
456.51	1757.16
456.71	1716.20
456.91	1757.16
457.12	1732.58
457.32	1730.53
457.52	1687.53
457.73	1808.36
457.93	1828.84
458.14	1679.33
458.34	1640.42
458.54	1730.53
458.75	1703.91
458.95	1824.74
459.15	1693.67
459.36	1775.59
459.56	1720.29
459.76	1820.64
459.97	1771.49
460.17	1820.64
460.37	1744.87
460.58	1730.53
460.78	1734.63
460.99	1677.29
461.19	1703.91
461.39	1646.57
461.60	1785.83
461.80	1787.88
462.00	1665.00
462.21	1687.53
462.41	1695.72
462.61	1650.66
462.82	1591.27
463.02	1812.45
463.22	1730.53
463.43	1814.50
463.63	1736.68
463.83	1800.16
464.04	1718.25
464.24	1708.01
464.44	1699.81
464.64	1652.71
464.85	1695.72
465.05	1763.30
465.25	1740.77
465.46	1755.11
465.66	1705.96
465.86	1681.38
466.07	1818.60
466.27	1751.01
466.47	1693.67
466.68	1695.72
466.88	1830.88
467.08	1814.50
467.29	1806.31
467.49	1693.67
467.69	1753.06
467.89	1783.78
468.10	1800.16
468.30	1773.54
468.50	1845.22
468.71	1757.16
468.91	1591.27
469.11	1773.54
469.31	1685.48
469.52	1671.14
469.72	1937.38
469.92	1812.45
470.13	1773.54
470.33	1771.49
470.53	1812.45
470.73	2037.73
470.94	2346.97
471.14	2265.05
471.34	2508.76
471.54	2432.99
471.75	2217.95
471.95	2117.60
472.15	2045.92
472.36	2107.36
472.56	2101.22
472.76	2021.35
472.96	2017.25
473.17	1980.39
473.37	1941.47
473.57	1732.58
473.77	1806.31
473.98	1742.82
474.18	1730.53
474.38	1898.47
474.58	1742.82
474.79	1669.09
474.99	1744.87
475.19	1779.68
475.39	1689.57
475.60	1755.11
475.80	1798.12
476.00	1693.67
476.20	1679.33
476.41	1697.77
476.61	1732.58
476.81	1732.58
477.01	1658.85
477.21	1910.75
477.42	1767.40
477.62	1722.34
477.82	1789.92
478.02	1693.67
478.23	1794.02
478.43	1658.85
478.63	1621.99
478.83	1689.57
479.03	1667.05
479.24	1812.45
479.44	1859.56
479.64	1673.19
479.84	1603.56
480.04	1687.53
480.25	1781.73
480.45	1677.29
480.65	1714.15
480.85	1826.79
481.06	1677.29
481.26	1783.78
481.46	1779.68
481.66	1738.73
481.86	1615.85
482.06	1757.16
482.27	1599.46
482.47	1703.91
482.67	1673.19
482.87	1652.71
483.07	1767.40
483.28	1777.64
483.48	1673.19
483.68	1708.01
483.88	1640.42
484.08	1636.33
484.29	1671.14
484.49	1722.34
484.69	1730.53
484.89	1753.06
485.09	1722.34
485.29	1789.92
485.50	1730.53
485.70	1677.29
485.90	1804.26
486.10	1755.11
486.30	1755.11
486.50	1716.20
486.71	1738.73
486.91	1767.40
487.11	1863.65
487.31	1613.80
487.51	1800.16
487.71	1650.66
487.91	1591.27
488.12	1669.09
488.32	1648.61
488.52	1650.66
488.72	1615.85
488.92	1689.57
489.12	1808.36
489.32	1769.44
489.53	1736.68
489.73	1656.81
489.93	1757.16
490.13	1708.01
490.33	1673.19
490.53	1787.88
490.73	1791.97
490.94	1599.46
491.14	1832.93
491.34	1855.46
491.54	2072.54
491.74	2623.45
491.94	2885.59
492.14	3067.86
492.34	3110.86
492.54	2805.72
492.75	2484.19
492.95	2484.19
493.15	2310.11
493.35	2318.30
493.55	2199.52
493.75	2105.31
493.95	2140.13
494.15	2025.44
494.35	1920.99
494.56	1845.22
494.76	1755.11
494.96	1763.30
495.16	1804.26
495.36	1705.96
495.56	1708.01
495.76	1726.44
495.96	1697.77
496.16	1652.71
496.36	1785.83
496.56	1691.62
496.77	1777.64
496.97	1722.34
497.17	1767.40
497.37	1673.19
497.57	1763.30
497.77	1720.29
497.97	1624.04
498.17	1681.38
498.37	1685.48
498.57	1755.11
498.77	1714.15
498.97	1785.83
499.17	1796.07
499.38	1708.01
499.58	1796.07
499.78	1785.83
499.98	1820.64
500.18	1695.72
500.38	1701.86
500.58	1908.71
500.78	2570.20
500.98	4564.92
501.18	5777.32
501.38	6887.32
501.58	7110.55
501.78	6694.81
501.98	5511.08
502.18	5031.86
502.38	4374.46
502.58	4194.24
502.78	3788.74
502.98	3680.20
503.18	3540.94
503.38	3147.73
503.59	2965.46
503.79	2723.80
503.99	2576.34
504.19	2371.55
504.39	2160.61
504.59	2193.37
504.79	2170.85
504.99	2140.13
505.19	1918.95
505.39	1920.99
505.59	1980.39
505.79	1902.56
505.99	1849.32
506.19	1734.63
506.39	1869.80
506.59	1716.20
506.79	1724.39
506.99	1826.79
507.19	1710.05
507.39	1773.54
507.59	1621.99
507.79	1714.15
507.99	1613.80
508.19	1757.16
508.39	1734.63
508.59	1644.52
508.79	1849.32
508.99	1830.88
509.19	1708.01
509.39	1744.87
509.59	1693.67
509.79	1679.33
509.99	1722.34
510.19	1822.69
510.39	1691.62
510.59	1730.53
510.79	1624.04
510.99	1593.32
511.19	1724.39
511.39	1736.68
511.59	1751.01
511.79	1804.26
511.99	1685.48
512.19	1794.02
512.38	1710.05
512.58	1677.29
512.78	1738.73
512.98	1742.82
513.18	1748.97
513.38	1632.23
513.58	1751.01
513.78	1703.91
513.98	1710.05
514.18	1701.86
514.38	1689.57
514.58	1787.88
514.78	1740.77
514.98	1679.33
515.18	1656.81
515.38	1660.90
515.58	1816.55
515.78	1724.39
515.98	1787.88
516.18	1701.86
516.38	1673.19
516.57	1660.90
516.77	1699.81
516.97	1742.82
517.17	1703.91
517.37	1654.76
517.57	1894.37
517.77	1755.11
517.97	1619.94
518.17	1732.58
518.37	1720.29
518.57	1726.44
518.77	1687.53
518.97	1716.20
519.16	1693.67
519.36	1781.73
519.56	1689.57
519.76	1697.77
519.96	1830.88
520.16	1826.79
520.36	1716.20
520.56	1806.31
520.76	1697.77
520.96	1718.25
521.16	1814.50
521.35	1791.97
521.55	1806.31
521.75	1820.64
521.95	1732.58
522.15	1679.33
522.35	1644.52
522.55	1732.58
522.75	1771.49
522.95	1691.62
523.14	1689.57
523.34	1703.91
523.54	1753.06
523.74	1808.36
523.94	1777.64
524.14	1705.96
524.34	1757.16
524.54	1785.83
524.73	1804.26
524.93	1755.11
525.13	1767.40
525.33	1671.14
525.53	1861.60
525.73	1769.44
525.93	1781.73
526.13	1697.77
526.32	1777.64
526.52	1828.84
526.72	1695.72
526.92	1665.00
527.12	1685.48
527.32	1611.75
527.52	1693.67
527.71	1720.29
527.91	1714.15
528.11	1738.73
528.31	1730.53
528.51	1681.38
528.71	1753.06
528.90	1724.39
529.10	1806.31
529.30	1742.82
529.50	1607.66
529.70	1759.21
529.90	1708.01
530.09	1603.56
530.29	1722.34
530.49	1746.92
530.69	1849.32
530.89	1769.44
531.09	1798.12
531.28	1736.68
531.48	1738.73
531.68	1775.59
531.88	1705.96
532.08	1779.68
532.28	1644.52
532.47	1720.29
532.67	1734.63
532.87	1800.16
533.07	1685.48
533.27	1771.49
533.46	1877.99
533.66	1732.58
533.86	1732.58
534.06	1753.06
534.26	1843.17
534.45	1712.10
534.65	1738.73
534.85	1806.31
535.05	1744.87
535.25	1714.15
535.44	1673.19
535.64	1722.34
535.84	1705.96
536.04	1810.40
536.24	1744.87
536.43	1701.86
536.63	1828.84
536.83	1701.86
537.03	1685.48
537.22	1591.27
537.42	1658.85
537.62	1697.77
537.82	1685.48
538.02	1820.64
538.21	1839.08
538.41	1894.37
538.61	1753.06
538.81	1863.65
539.00	1855.46
539.20	1583.08
539.40	1716.20
539.60	1740.77
539.79	1767.40
539.99	1714.15
540.19	1712.10
540.39	1769.44
540.58	1789.92
540.78	1853.41
540.98	1796.07
541.18	1722.34
541.37	1771.49
541.57	1689.57
541.77	1726.44
541.97	1718.25
542.16	1640.42
542.36	1714.15
542.56	1722.34
542.76	1830.88
542.95	1714.15
543.15	1734.63
543.35	1746.92
543.54	1693.67
543.74	1769.44
543.94	1830.88
544.14	1718.25
544.33	1783.78
544.53	1660.90
544.73	1722.34
544.93	1683.43
545.12	1732.58
545.32	1722.34
545.52	1726.44
545.71	1669.09
545.91	1736.68
546.11	1736.68
546.30	1687.53
546.50	1779.68
546.70	1708.01
546.90	1732.58
547.09	1722.34
547.29	1759.21
547.49	1771.49
547.68	1730.53
547.88	1617.90
548.08	1798.12
548.27	2181.09
548.47	1642.47
548.67	1677.29
548.87	1714.15
549.06	1669.09
549.26	1648.61
549.46	1763.30
549.65	1658.85
549.85	1796.07
550.05	1771.49
550.24	1675.24
550.44	1734.63
550.64	1718.25
550.83	1677.29
551.03	1767.40
551.23	1779.68
551.42	1787.88
551.62	1718.25
551.82	1734.63
552.01	1755.11
552.21	1785.83
552.41	1806.31
552.60	1769.44
552.80	1783.78
553.00	1714.15
553.19	1665.00
553.39	1832.93
553.59	1656.81
553.78	1787.88
553.98	1765.35
554.17	1718.25
554.37	1771.49
554.57	1791.97
554.76	1601.51
554.96	1744.87
555.16	1765.35
555.35	1718.25
555.55	1650.66
555.75	1716.20
555.94	1765.35
556.14	1658.85
556.33	1701.86
556.53	1757.16
556.73	1755.11
556.92	1705.96
557.12	1804.26
557.32	1859.56
557.51	1843.17
557.71	1775.59
557.90	1839.08
558.10	1765.35
558.30	1736.68
558.49	1665.00
558.69	1736.68
558.88	1771.49
559.08	1755.11
559.28	1681.38
559.47	1693.67
559.67	1800.16
559.86	1865.70
560.06	1695.72
560.26	1722.34
560.45	1765.35
560.65	1736.68
560.84	1857.51
561.04	1726.44
561.24	1779.68
561.43	1699.81
561.63	1828.84
561.82	1716.20
562.02	1855.46
562.22	1699.81
562.41	1667.05
562.61	1746.92
562.80	1591.27
563.00	1853.41
563.19	1697.77
563.39	1705.96
563.59	1679.33
563.78	1699.81
563.98	1615.85
564.17	1658.85
564.37	1738.73
564.56	1814.50
564.76	1665.00
564.96	1785.83
565.15	1779.68
565.35	1898.47
565.54	1722.34
565.74	1783.78
565.93	1738.73
566.13	1755.11
566.32	1710.05
566.52	1824.74
566.71	1681.38
566.91	1755.11
567.11	1828.84
567.30	1755.11
567.50	1802.21
567.69	1828.84
567.89	1765.35
568.08	1679.33
568.28	1726.44
568.47	1660.90
568.67	1769.44
568.86	1783.78
569.06	1724.39
569.25	1714.15
569.45	1665.00
569.64	1798.12
569.84	1777.64
570.04	1732.58
570.23	1634.28
570.43	1669.09
570.62	1685.48
570.82	1867.75
571.01	1640.42
571.21	1644.52
571.40	1689.57
571.60	1798.12
571.79	1779.68
571.99	1742.82
572.18	1771.49
572.38	1773.54
572.57	1712.10
572.77	1767.40
572.96	1775.59
573.16	1732.58
573.35	1738.73
573.55	1757.16
573.74	1701.86
573.94	1632.23
574.13	1689.57
574.33	1824.74
574.52	1734.63
574.71	1746.92
574.91	1767.40
575.10	1697.77
575.30	1740.77
575.49	1667.05
575.69	1695.72
575.88	1765.35
576.08	1748.97
576.27	1798.12
576.47	1716.20
576.66	1839.08
576.86	1730.53
577.05	1732.58
577.25	1812.45
577.44	1841.12
577.64	1697.77
577.83	1865.70
578.02	1765.35
578.22	1789.92
578.41	1828.84
578.61	1681.38
578.80	1644.52
579.00	1767.40
579.19	1660.90
579.39	1708.01
579.58	1761.25
579.77	1701.86
579.97	1802.21
580.16	1892.32
580.36	1806.31
580.55	1847.27
580.75	1773.54
580.94	1656.81
581.13	1775.59
581.33	1822.69
581.52	1730.53
581.72	1953.76
581.91	1755.11
582.11	1708.01
582.30	1771.49
582.49	1787.88
582.69	1929.19
582.88	1732.58
583.08	1738.73
583.27	1716.20
583.47	1738.73
583.66	1742.82
583.85	1734.63
584.05	1771.49
584.24	1730.53
584.44	1751.01
584.63	1765.35
584.82	1851.36
585.02	1810.40
585.21	1783.78
585.41	1802.21
585.60	1818.60
585.79	1851.36
585.99	1994.72
586.18	1849.32
586.37	2189.28
586.57	3303.37
586.76	10125.16
586.96	24675.98
587.15	34704.88
587.34	40926.61
587.54	42253.69
587.73	36787.66
587.93	26723.94
588.12	21776.05
588.31	18357.99
588.51	16539.40
588.70	15484.69
588.89	14057.26
589.09	12642.11
589.28	11237.20
589.47	9406.32
589.67	7905.16
589.86	6432.67
590.06	4904.89
590.25	3792.84
590.44	3125.20
590.64	2504.67
590.83	2314.20
591.02	2121.70
591.22	1882.08
591.41	1863.65
591.60	1839.08
591.80	1918.95
591.99	1693.67
592.18	1759.21
592.38	1810.40
592.57	1787.88
592.76	1830.88
592.96	1730.53
593.15	1779.68
593.34	1830.88
593.54	1681.38
593.73	1744.87
593.92	1789.92
594.12	1767.40
594.31	1738.73
594.50	1855.46
594.70	1746.92
594.89	1845.22
595.08	1755.11
595.28	1800.16
595.47	1998.82
595.66	1877.99
595.86	1665.00
596.05	1673.19
596.24	1703.91
596.43	1812.45
596.63	1740.77
596.82	1791.97
597.01	1812.45
597.21	1830.88
597.40	1738.73
597.59	1785.83
597.79	1794.02
597.98	1732.58
598.17	1787.88
598.36	1783.78
598.56	1751.01
598.75	1648.61
598.94	1716.20
599.14	1718.25
599.33	1726.44
599.52	1810.40
599.71	1775.59
599.91	1820.64
600.10	1722.34
600.29	1755.11
600.48	1738.73
600.68	1763.30
600.87	1724.39
601.06	1665.00
601.26	1769.44
601.45	1722.34
601.64	1708.01
601.83	1791.97
602.03	1687.53
602.22	1689.57
602.41	1775.59
602.60	1845.22
602.80	1796.07
602.99	1763.30
603.18	1675.24
603.37	1738.73
603.57	1773.54
603.76	1744.87
603.95	1824.74
604.14	1759.21
604.34	1665.00
604.53	1787.88
604.72	1773.54
604.91	1718.25
605.10	1763.30
605.30	1607.66
605.49	1920.99
605.68	1763.30
605.87	1779.68
606.07	1703.91
606.26	1677.29
606.45	1804.26
606.64	1751.01
606.84	1677.29
607.03	1681.38
607.22	1699.81
607.41	1673.19
607.60	1701.86
607.80	1798.12
607.99	1695.72
608.18	1789.92
608.37	1761.25
608.56	1705.96
608.76	1808.36
608.95	1837.03
609.14	1736.68
609.33	1730.53
609.52	1785.83
609.72	1708.01
609.91	1775.59
610.10	1695.72
610.29	1753.06
610.48	1738.73
610.68	1718.25
610.87	1665.00
611.06	1783.78
611.25	1724.39
611.44	1777.64
611.63	1648.61
611.83	1779.68
612.02	1621.99
612.21	1787.88
612.40	1654.76
612.59	1624.04
612.79	1669.09
612.98	1730.53
613.17	1834.98
613.36	1718.25
613.55	1806.31
613.74	1681.38
613.93	1624.04
614.13	1775.59
614.32	1703.91
614.51	1771.49
614.70	1746.92
614.89	1665.00
615.08	1650.66
615.28	1986.53
615.47	1716.20
615.66	1695.72
615.85	1703.91
616.04	1818.60
616.23	1679.33
616.42	1708.01
616.62	1699.81
616.81	1740.77
617.00	1687.53
617.19	1751.01
617.38	1677.29
617.57	1640.42
617.76	1722.34
617.95	1773.54
618.15	1677.29
618.34	1806.31
618.53	1595.37
618.72	1779.68
618.91	1865.70
619.10	1810.40
619.29	1751.01
619.48	1771.49
619.68	1656.81
619.87	1732.58
620.06	1673.19
620.25	1791.97
620.44	1693.67
620.63	1708.01
620.82	1769.44
621.01	1730.53
621.20	1656.81
621.39	1851.36
621.59	1767.40
621.78	1699.81
621.97	1783.78
622.16	1763.30
622.35	1718.25
622.54	1787.88
622.73	1728.49
622.92	1650.66
623.11	1765.35
623.30	1708.01
623.49	1744.87
623.68	1697.77
623.88	1722.34
624.07	1734.63
624.26	1755.11
624.45	1763.30
624.64	1716.20
624.83	1712.10
625.02	1671.14
625.21	1765.35
625.40	1738.73
625.59	1802.21
625.78	1748.97
625.97	1759.21
626.16	1665.00
626.35	1746.92
626.54	1703.91
626.74	1742.82
626.93	1681.38
627.12	1714.15
627.31	1730.53
627.50	1763.30
627.69	1746.92
627.88	1667.05
628.07	1671.14
628.26	1636.33
628.45	1640.42
628.64	1634.28
628.83	1712.10
629.02	1665.00
629.21	1767.40
629.40	1705.96
629.59	1621.99
629.78	1714.15
629.97	1767.40
630.16	1748.97
630.35	1689.57
630.54	1685.48
630.73	1646.57
630.92	1681.38
631.11	1652.71
631.30	1730.53
631.49	1783.78
631.68	1671.14
631.87	1787.88
632.06	1652.71
632.25	1841.12
632.44	1689.57
632.63	1671.14
632.82	1765.35
633.01	1654.76
633.20	1730.53
633.39	1667.05
633.58	1687.53
633.77	1708.01
633.96	1748.97
634.15	1853.41
634.34	1765.35
634.53	1697.77
634.72	1689.57
634.91	1607.66
635.10	1716.20
635.29	1679.33
635.48	1705.96
635.67	1708.01
635.86	1652.71
636.05	1849.32
636.24	1718.25
636.43	1785.83
636.62	1744.87
636.81	1632.23
637.00	1720.29
637.19	1751.01
637.38	1720.29
637.57	1662.95
637.76	1705.96
637.95	1773.54
638.14	1687.53
638.33	1697.77
638.52	1665.00
638.71	1603.56
638.89	1662.95
639.08	1931.23
639.27	1714.15
639.46	1685.48
639.65	1796.07
639.84	1685.48
640.03	1794.02
640.22	1697.77
640.41	1865.70
640.60	1658.85
640.79	1789.92
640.98	1689.57
641.17	1681.38
641.36	1693.67
641.55	1722.34
641.74	1675.24
641.92	1695.72
642.11	1640.42
642.30	1771.49
642.49	1677.29
642.68	1632.23
642.87	1755.11
643.06	1716.20
643.25	1687.53
643.44	1689.57
643.63	1734.63
643.82	1769.44
644.00	1617.90
644.19	1708.01
644.38	1644.52
644.57	1806.31
644.76	1695.72
644.95	1753.06
645.14	1732.58
645.33	1740.77
645.52	1740.77
645.71	1724.39
645.89	1607.66
646.08	1677.29
646.27	1671.14
646.46	1843.17
646.65	1662.95
646.84	1681.38
647.03	1630.18
647.22	1802.21
647.40	1781.73
647.59	1753.06
647.78	1658.85
647.97	1636.33
648.16	1712.10
648.35	1826.79
648.54	1765.35
648.73	1726.44
648.91	1748.97
649.10	1667.05
649.29	1699.81
649.48	1689.57
649.67	1730.53
649.86	1751.01
650.05	1708.01
650.23	1716.20
650.42	1626.09
650.61	1740.77
650.80	1787.88
650.99	1830.88
651.18	1746.92
651.36	1779.68
651.55	1730.53
651.74	1798.12
651.93	1716.20
652.12	1730.53
652.31	1740.77
652.49	1701.86
652.68	1693.67
652.87	1763.30
653.06	1718.25
653.25	1890.28
653.44	1701.86
653.62	1781.73
653.81	1701.86
654.00	1734.63
654.19	1775.59
654.38	1865.70
654.56	1746.92
654.75	1681.38
654.94	1710.05
655.13	1751.01
655.32	1685.48
655.51	1724.39
655.69	1660.90
655.88	1738.73
656.07	1673.19
656.26	1710.05
656.45	1712.10
656.63	1787.88
656.82	1681.38
657.01	1759.21
657.20	1685.48
657.38	1753.06
657.57	1648.61
657.76	1658.85
657.95	1789.92
658.14	1687.53
658.32	1738.73
658.51	1677.29
658.70	1746.92
658.89	1658.85
659.08	1775.59
659.26	1824.74
659.45	1601.51
659.64	1689.57
659.83	1646.57
660.01	1865.70
660.20	1703.91
660.39	1810.40
660.58	1572.84
660.76	1718.25
660.95	1665.00
661.14	1744.87
661.33	1632.23
661.51	1640.42
661.70	1710.05
661.89	1789.92
662.08	1787.88
662.26	1648.61
662.45	1712.10
662.64	1804.26
662.83	1783.78
663.01	1628.14
663.20	1708.01
663.39	1857.51
663.58	1656.81
663.76	1710.05
663.95	1779.68
664.14	1630.18
664.32	1701.86
664.51	1605.61
664.70	1576.94
664.89	1746.92
665.07	1585.13
665.26	1691.62
665.45	1673.19
665.64	1845.22
665.82	1710.05
666.01	1746.92
666.20	1685.48
666.38	1738.73
666.57	1867.75
666.76	2189.28
666.95	4483.00
667.13	10348.39
667.32	15529.75
667.51	17987.31
667.69	19308.25
667.88	17964.78
668.07	12322.63
668.25	9439.09
668.44	8206.21
668.63	7266.19
668.81	6879.13
669.00	6209.44
669.19	5633.96
669.38	5181.36
669.56	4513.72
669.75	4018.11
669.94	3407.82
670.12	3022.80
670.31	2600.92
670.50	2252.77
670.68	2074.59
670.87	1912.80
671.06	1810.40
671.24	1781.73
671.43	1812.45
671.62	1740.77
671.80	1693.67
671.99	1738.73
672.18	1718.25
672.36	1755.11
672.55	1718.25
672.74	1675.24
672.92	1734.63
673.11	1771.49
673.29	1673.19
673.48	1773.54
673.67	1736.68
673.85	1767.40
674.04	1589.22
674.23	1714.15
674.41	1841.12
674.60	1703.91
674.79	1613.80
674.97	1679.33
675.16	1685.48
675.34	1748.97
675.53	1728.49
675.72	1705.96
675.90	1734.63
676.09	1675.24
676.28	1710.05
676.46	1648.61
676.65	1626.09
676.83	1689.57
677.02	1697.77
677.21	1740.77
677.39	1724.39
677.58	1683.43
677.77	1613.80
677.95	1628.14
678.14	1679.33
678.32	1658.85
678.51	1755.11
678.70	1834.98
678.88	1714.15
679.07	1683.43
679.25	1779.68
679.44	1722.34
679.63	1646.57
679.81	1767.40
680.00	1734.63
680.18	1734.63
680.37	1775.59
680.55	1673.19
680.74	1650.66
680.93	1587.18
681.11	1665.00
681.30	1722.34
681.48	1689.57
681.67	1746.92
681.85	1773.54
682.04	1597.42
682.23	1771.49
682.41	1697.77
682.60	1718.25
682.78	1705.96
682.97	1646.57
683.15	1654.76
683.34	1712.10
683.53	1732.58
683.71	1617.90
683.90	1736.68
684.08	1783.78
684.27	1720.29
684.45	1703.91
684.64	1738.73
684.82	1619.94
685.01	1837.03
685.19	1654.76
685.38	1841.12
685.57	1673.19
685.75	1724.39
685.94	1665.00
686.12	1714.15
686.31	1636.33
686.49	1828.84
686.68	1630.18
686.86	1746.92
687.05	1624.04
687.23	1804.26
687.42	1699.81
687.60	1581.03
687.79	1708.01
687.97	1800.16
688.16	1740.77
688.34	1759.21
688.53	1570.79
688.71	1781.73
688.90	1812.45
689.08	1679.33
689.27	1650.66
689.45	1755.11
689.64	1683.43
689.82	1626.09
690.01	1763.30
690.19	1738.73
690.38	1769.44
690.56	1832.93
690.75	1734.63
690.93	1652.71
691.12	1654.76
691.30	1724.39
691.49	1630.18
691.67	1736.68
691.86	1769.44
692.04	1632.23
692.23	1636.33
692.41	1595.37
692.60	1841.12
692.78	1796.07
692.97	1746.92
693.15	1818.60
693.34	1853.41
693.52	1757.16
693.71	1626.09
693.89	1701.86
694.08	1644.52
694.26	1751.01
694.44	1775.59
694.63	1648.61
694.81	1638.38
695.00	1712.10
695.18	1695.72
695.37	1828.84
695.55	1705.96
695.74	1724.39
695.92	1624.04
696.10	1763.30
696.29	1595.37
696.47	1685.48
696.66	1587.18
696.84	1673.19
697.03	1703.91
697.21	1845.22
697.40	2303.96
697.58	1787.88
697.76	1589.22
697.95	1828.84
698.13	1648.61
698.32	1699.81
698.50	1669.09
698.68	1736.68
698.87	1761.25
699.05	1746.92
699.24	1730.53
699.42	1703.91
699.61	1712.10
699.79	1642.47
699.97	1677.29
700.16	1726.44
700.34	1695.72
700.53	1712.10
700.71	1736.68
700.89	1765.35
701.08	1671.14
701.26	1673.19
701.45	2103.26
701.63	1718.25
701.81	1740.77
702.00	1687.53
702.18	1669.09
702.37	1658.85
702.55	1781.73
702.73	1720.29
702.92	1621.99
703.10	1771.49
703.28	1710.05
703.47	1609.70
703.65	1826.79
703.84	1738.73
704.02	1607.66
704.20	1771.49
704.39	1628.14
704.57	1689.57
704.75	1810.40
704.94	1824.74
705.12	1773.54
705.30	1746.92
705.49	2181.09
705.67	4495.29
705.86	9250.67
706.04	12490.56
706.22	14419.75
706.41	15521.56
706.59	13942.57
706.77	9729.90
706.96	7458.70
707.14	6653.85
707.32	6164.39
707.51	5490.60
707.69	4982.71
707.87	4239.30
708.06	3520.46
708.24	3039.19
708.42	2400.22
708.61	2205.66
708.79	1916.90
708.97	1875.94
709.16	1812.45
709.34	1785.83
709.52	1867.75
709.71	1738.73
709.89	1779.68
710.07	1626.09
710.26	1714.15
710.44	1789.92
710.62	1708.01
710.80	1732.58
710.99	1714.15
711.17	1904.61
711.35	1615.85
711.54	1646.57
711.72	1740.77
711.90	1724.39
712.09	1716.20
712.27	1697.77
712.45	1701.86
712.63	1644.52
712.82	1695.72
713.00	1787.88
713.18	1689.57
713.37	1800.16
713.55	1765.35
713.73	1697.77
713.91	1660.90
714.10	1699.81
714.28	1681.38
714.46	1794.02
714.65	1734.63
714.83	1677.29
715.01	1738.73
715.19	1689.57
715.38	1548.26
715.56	1722.34
715.74	1703.91
715.92	1697.77
716.11	1710.05
716.29	1603.56
716.47	1665.00
716.65	1726.44
716.84	1648.61
717.02	1726.44
717.20	1572.84
717.38	1722.34
717.57	1738.73
717.75	1679.33
717.93	1673.19
718.11	1701.86
718.30	1626.09
718.48	1748.97
718.66	1724.39
718.84	1787.88
719.03	1701.86
719.21	1648.61
719.39	1779.68
719.57	1714.15
719.75	1802.21
719.94	1714.15
720.12	1683.43
720.30	1705.96
720.48	1728.49
720.67	1654.76
720.85	1619.94
721.03	1660.90
721.21	1613.80
721.39	1748.97
721.58	1689.57
721.76	1783.78
721.94	1718.25
722.12	1701.86
722.30	1746.92
722.49	1765.35
722.67	1628.14
722.85	1720.29
723.03	1636.33
723.21	1705.96
723.40	1734.63
723.58	1732.58
723.76	1804.26
723.94	1708.01
724.12	1660.90
724.30	1773.54
724.49	1691.62
724.67	1613.80
724.85	1779.68
725.03	1667.05
725.21	1789.92
725.40	1712.10
725.58	1669.09
725.76	1732.58
725.94	1673.19
726.12	1654.76
726.30	1662.95
726.49	1697.77
726.67	1712.10
726.85	1769.44
727.03	1777.64
727.21	2109.41
727.39	2863.06
727.57	3760.07
727.76	4253.63
727.94	4503.48
728.12	4378.56
728.30	3690.44
728.48	3024.85
728.66	2781.14
728.84	2521.05
729.03	2310.11
729.21	2183.13
729.39	2064.35
729.57	1843.17
729.75	1794.02
729.93	1810.40
730.11	1632.23
730.30	1724.39
730.48	1732.58
730.66	1794.02
730.84	1755.11
731.02	1705.96
731.20	1632.23
731.38	1736.68
731.56	1595.37
731.74	1677.29
731.93	1705.96
732.11	1665.00
732.29	1671.14
732.47	1751.01
732.65	1685.48
732.83	1724.39
733.01	1732.58
733.19	1642.47
733.37	1781.73
733.56	1710.05
733.74	1712.10
733.92	1738.73
734.10	1759.21
734.28	1798.12
734.46	1619.94
734.64	1708.01
734.82	1656.81
735.00	1658.85
735.18	1626.09
735.36	1630.18
735.54	1742.82
735.73	1744.87
735.91	1699.81
736.09	1751.01
736.27	1718.25
736.45	1742.82
736.63	1619.94
736.81	1714.15
736.99	1763.30
737.17	1787.88
737.35	1660.90
737.53	1746.92
737.71	1697.77
737.89	1812.45
738.07	1632.23
738.25	1685.48
738.43	1673.19
738.61	1683.43
738.80	1609.70
738.98	1658.85
739.16	1697.77
739.34	1626.09
739.52	1695.72
739.70	1595.37
739.88	1779.68
740.06	1841.12
740.24	1619.94
740.42	1734.63
740.60	1648.61
740.78	1640.42
740.96	1632.23
741.14	1722.34
741.32	1712.10
741.50	1738.73
741.68	1779.68
741.86	1759.21
742.04	1638.38
742.22	1681.38
742.40	1695.72
742.58	1759.21
742.76	1642.47
742.94	1755.11
743.12	1644.52
743.30	1681.38
743.48	1695.72
743.66	1724.39
743.84	1746.92
744.02	1714.15
744.20	1708.01
744.38	1615.85
744.56	1611.75
744.74	1748.97
744.92	1705.96
745.10	1814.50
745.28	1751.01
745.46	1738.73
745.64	1675.24
745.82	1783.78
746.00	1619.94
746.18	1740.77
746.36	1628.14
746.54	1720.29
746.72	1697.77
746.90	1656.81
747.08	1830.88
747.26	1683.43
747.44	1789.92
747.62	1751.01
747.80	1712.10
747.98	1665.00
748.15	1605.61
748.33	1726.44
748.51	1658.85
748.69	1718.25
748.87	1689.57
749.05	1712.10
749.23	1671.14
749.41	1757.16
749.59	1753.06
749.77	1730.53
749.95	1753.06
750.13	1603.56
750.31	1705.96
750.49	1714.15
750.67	1781.73
750.85	1746.92
751.03	1724.39
751.20	1828.84
751.38	1734.63
751.56	1656.81
751.74	1677.29
751.92	1722.34
752.10	1685.48
752.28	1742.82
752.46	1626.09
752.64	1777.64
752.82	1667.05
753.00	1718.25
753.18	1642.47
753.35	1712.10
753.53	1703.91
753.71	1685.48
753.89	1740.77
754.07	1701.86
754.25	1708.01
754.43	1736.68
754.61	1660.90
754.79	1724.39
754.97	1685.48
755.14	1812.45
755.32	1673.19
755.50	1720.29
755.68	1732.58
755.86	1521.64
756.04	1683.43
756.22	1578.98
756.40	1718.25
756.57	1843.17
756.75	1656.81
756.93	1812.45
757.11	1806.31
757.29	1597.42
757.47	1673.19
757.65	1617.90
757.82	1640.42
758.00	1708.01
758.18	1665.00
758.36	1650.66
758.54	1802.21
758.72	1662.95
758.90	1742.82
759.07	1785.83
759.25	1605.61
759.43	1703.91
759.61	1619.94
759.79	2152.42
759.97	1681.38
760.15	1744.87
760.32	1652.71
760.50	1712.10
760.68	1779.68
760.86	1665.00
761.04	1734.63
761.22	1761.25
761.39	1746.92
761.57	1624.04
761.75	1693.67
761.93	1669.09
762.11	1665.00
762.28	1656.81
762.46	1650.66
762.64	1779.68
762.82	1611.75
763.00	1624.04
763.18	1812.45
763.35	1640.42
763.53	1761.25
763.71	1675.24
763.89	1681.38
764.07	1746.92
764.24	1695.72
764.42	1775.59
764.60	1667.05
764.78	1701.86
764.96	1720.29
765.13	1781.73
765.31	1679.33
765.49	1695.72
765.67	1710.05
765.84	1574.89
766.02	1677.29
766.20	1667.05
766.38	1677.29
766.56	1820.64
766.73	1753.06
766.91	1638.38
767.09	1687.53
767.27	1767.40
767.44	1628.14
767.62	1773.54
767.80	1697.77
767.98	1699.81
768.15	1624.04
768.33	1732.58
768.51	1755.11
768.69	1763.30
768.87	1712.10
769.04	1673.19
769.22	1779.68
769.40	1761.25
769.58	1822.69
769.75	1724.39
769.93	1767.40
770.11	1691.62
770.28	1636.33
770.46	1789.92
770.64	1693.67
770.82	1701.86
770.99	1734.63
771.17	1755.11
771.35	1701.86
771.53	1734.63
771.70	1617.90
771.88	1689.57
772.06	1687.53
772.23	1712.10
772.41	1722.34
772.59	1634.28
772.77	1693.67
772.94	1611.75
773.12	1708.01
773.30	1671.14
773.47	1712.10
773.65	1691.62
773.83	1689.57
774.01	1648.61
774.18	1648.61
774.36	1665.00
774.54	1642.47
774.71	1818.60
774.89	1607.66
775.07	1589.22
775.24	1679.33
775.42	1654.76
775.60	1781.73
775.78	1718.25
775.95	1595.37
776.13	1632.23
776.31	1550.31
776.48	1724.39
776.66	1796.07
776.84	1671.14
777.01	1585.13
777.19	1626.09
777.37	1685.48
777.54	1732.58
777.72	1742.82
777.90	1697.77
778.07	1650.66
778.25	1900.52
778.43	1757.16
778.60	1744.87
778.78	1730.53
778.96	1746.92
779.13	1714.15
779.31	1703.91
779.49	1722.34
779.66	1677.29
779.84	1662.95
780.01	1705.96
780.19	1632.23
780.37	1761.25
780.54	1683.43
780.72	1689.57
780.90	1779.68
781.07	1658.85
781.25	1757.16
781.43	1712.10
781.60	1728.49
781.78	1771.49
781.95	1732.58
782.13	1609.70
782.31	1728.49
782.48	1644.52
782.66	1685.48
782.83	1759.21
783.01	1697.77
783.19	1734.63
783.36	1751.01
783.54	1644.52
783.72	1738.73
783.89	1628.14
784.07	1685.48
784.24	1699.81
784.42	1744.87
784.60	1716.20
784.77	1748.97
784.95	1624.04
785.12	1695.72
785.30	1699.81
785.47	1599.46
785.65	1650.66
785.83	1699.81
786.00	1658.85
786.18	1787.88
786.35	1603.56
786.53	1669.09
786.71	1767.40
786.88	1726.44
787.06	1675.24
787.23	1751.01
787.41	1652.71
787.58	1722.34
787.76	1701.86
787.94	1675.24
788.11	1683.43
788.29	1708.01
788.46	1640.42
788.64	1617.90
788.81	1660.90
788.99	1734.63
789.16	1630.18
789.34	1644.52
789.52	1673.19
789.69	1708.01
789.87	1599.46
790.04	1683.43
790.22	1656.81
790.39	1806.31
790.57	1591.27
790.74	1667.05
790.92	1787.88
791.09	1599.46
791.27	1710.05
791.44	1761.25
791.62	1689.57
791.79	1740.77
791.97	1730.53
792.15	1925.09
792.32	1683.43
792.50	1667.05
792.67	1800.16
792.85	1822.69
793.02	1738.73
793.20	1722.34
793.37	1607.66
793.55	1656.81
793.72	1611.75
793.90	1720.29
794.07	1669.09
794.25	1591.27
794.42	1673.19
794.60	1697.77
794.77	1781.73
794.95	1708.01
795.12	1785.83
795.30	1611.75
795.47	1628.14
795.65	1947.62
795.82	1652.71
796.00	1738.73
796.17	1675.24
796.34	1787.88
796.52	1679.33
796.69	1718.25
796.87	1738.73
797.04	1683.43
797.22	1683.43
797.39	1697.77
797.57	1673.19
797.74	1734.63
797.92	1634.28
798.09	1634.28
798.27	1824.74
798.44	1689.57
798.62	1626.09
798.79	1630.18
798.96	1738.73
799.14	1701.86
799.31	1769.44
799.49	1708.01
799.66	1685.48
799.84	1716.20
800.01	1642.47
800.19	1773.54
800.36	1687.53
800.53	1746.92
800.71	1734.63
800.88	1781.73
801.06	1611.75
801.23	1658.85
801.41	1624.04
801.58	1597.42
801.75	1626.09
801.93	1712.10
802.10	1720.29
802.28	1693.67
802.45	1699.81
802.63	1693.67
802.80	1812.45
802.97	1646.57
803.15	1673.19
803.32	1701.86
803.50	1621.99
803.67	1679.33
803.84	1685.48
804.02	1644.52
804.19	1638.38
804.37	1626.09
804.54	1652.71
804.71	1722.34
804.89	1634.28
805.06	1632.23
805.24	1656.81
805.41	1689.57
805.58	1681.38
805.76	1847.27
805.93	1671.14
806.10	1804.26
806.28	1775.59
806.45	1796.07
806.63	1726.44
806.80	1724.39
806.97	1677.29
807.15	1699.81
807.32	1673.19
807.49	1689.57
807.67	1691.62
807.84	1781.73
808.01	1564.65
808.19	1814.50
808.36	1845.22
808.54	1619.94
808.71	1609.70
808.88	1746.92
809.06	1679.33
809.23	1822.69
809.40	1667.05
809.58	1650.66
809.75	1787.88
809.92	1687.53
810.10	1927.14
810.27	1665.00
810.44	1761.25
810.62	1673.19
810.79	1767.40
810.96	1697.77
811.14	1687.53
811.31	1673.19
811.48	1726.44
811.66	1673.19
811.83	1785.83
812.00	1775.59
812.18	1720.29
812.35	1802.21
812.52	1732.58
812.69	1636.33
812.87	1697.77
813.04	1738.73
813.21	1634.28
813.39	1681.38
813.56	1703.91
813.73	1775.59
813.91	1564.65
814.08	1667.05
814.25	1765.35
814.42	1705.96
814.60	1730.53
814.77	1724.39
814.94	1673.19
815.12	1718.25
815.29	1761.25
815.46	1683.43
815.63	1714.15
815.81	1673.19
815.98	1632.23
816.15	1691.62
816.33	1775.59
816.50	1658.85
816.67	1685.48
816.84	1667.05
817.02	1644.52
817.19	1689.57
817.36	1642.47
817.53	1724.39
817.71	1648.61
817.88	1671.14
818.05	1748.97
818.22	1662.95
818.40	1808.36
818.57	1746.92
818.74	1781.73
818.91	1705.96
819.09	1777.64
819.26	1730.53
819.43	1710.05
819.60	1705.96
819.78	1767.40
819.95	1773.54
820.12	1652.71
820.29	1791.97
820.47	1736.68
820.64	1660.90
820.81	1621.99
820.98	1638.38
821.15	1665.00
821.33	1767.40
821.50	1624.04
821.67	1761.25
821.84	1665.00
822.02	1710.05
822.19	1839.08
822.36	1705.96
822.53	1621.99
822.70	1615.85
822.88	1679.33
823.05	1804.26
823.22	1685.48
823.39	1691.62
823.56	1701.86
823.74	1773.54
823.91	1630.18
824.08	1642.47
824.25	1648.61
824.42	1796.07
824.60	1705.96
824.77	1720.29
824.94	1687.53
825.11	1732.58
825.28	1611.75
825.45	1748.97
825.63	1708.01
825.80	1679.33
825.97	1734.63
826.14	1720.29
826.31	1585.13
826.48	1761.25
826.66	1701.86
826.83	1681.38
827.00	1722.34
827.17	1630.18
827.34	1669.09
827.51	1640.42
827.69	1775.59
827.86	1570.79
828.03	1675.24
828.20	1753.06
828.37	1599.46
828.54	1712.10
828.71	1716.20
828.89	1769.44
829.06	1671.14
829.23	1712.10
829.40	1656.81
829.57	1687.53
829.74	1730.53
829.91	1640.42
830.09	1699.81
830.26	1701.86
830.43	1730.53
830.60	1703.91
830.77	1753.06
830.94	1771.49
831.11	1783.78
831.28	1689.57
831.46	1773.54
831.63	1736.68
831.80	1716.20
831.97	1722.34
832.14	1703.91
832.31	1779.68
832.48	1794.02
832.65	1796.07
832.82	1652.71
832.99	1796.07
833.17	1578.98
833.34	1824.74
833.51	1791.97
833.68	1562.60
833.85	1738.73
834.02	1607.66
834.19	1640.42
834.36	1695.72
834.53	1691.62
834.70	1796.07
834.87	1808.36
835.04	1654.76
835.22	1652.71
835.39	1689.57
835.56	1621.99
835.73	1699.81
835.90	1828.84
836.07	1619.94
836.24	1789.92
836.41	1656.81
836.58	1675.24
836.75	1724.39
836.92	1705.96
837.09	1656.81
837.26	1812.45
837.43	1701.86
837.60	1607.66
837.77	1652.71
837.94	1689.57
838.12	1730.53
838.29	1753.06
838.46	1597.42
838.63	1656.81
838.80	1738.73
838.97	1791.97
839.14	1724.39
839.31	1712.10
839.48	1753.06
839.65	1687.53
839.82	1746.92
839.99	1720.29
840.16	1730.53
840.33	1611.75
840.50	1685.48
840.67	1644.52
840.84	1505.26
841.01	1728.49
841.18	1687.53
841.35	1642.47
841.52	1712.10
841.69	1783.78
841.86	1656.81
842.03	1660.90
842.20	1808.36
842.37	1626.09
842.54	1681.38
842.71	1712.10
842.88	1578.98
843.05	1779.68
843.22	1738.73
843.39	1767.40
843.56	1665.00
843.73	1693.67
843.90	1744.87
844.07	1767.40
844.24	1755.11
844.41	1660.90
844.58	1660.90
844.75	1736.68
844.92	1736.68
845.09	1683.43
845.26	1728.49
845.43	1701.86
845.60	1697.77
845.77	1742.82
845.94	1660.90
846.10	1773.54
846.27	1568.74
846.44	1642.47
846.61	1689.57
846.78	1689.57
846.95	1718.25
847.12	1601.51
847.29	1730.53
847.46	1769.44
847.63	1724.39
847.80	1669.09
847.97	1697.77
848.14	1810.40
848.31	1718.25
848.48	1630.18
848.65	1720.29
848.82	1701.86
848.98	1806.31
849.15	1697.77
849.32	1730.53
849.49	1759.21
849.66	1732.58
849.83	1677.29
850.00	1517.54
850.17	1712.10
850.34	1669.09
850.51	1673.19
850.68	1636.33
850.85	1771.49
851.01	1755.11
851.18	1759.21
851.35	1726.44
851.52	1693.67
851.69	1794.02
851.86	1619.94
852.03	1652.71
852.20	1738.73
852.37	1691.62
852.53	1589.22
852.70	1632.23
852.87	1718.25
853.04	1646.57
853.21	1695.72
853.38	1767.40
853.55	1761.25
853.72	1724.39
853.89	1697.77
854.05	1650.66
854.22	1718.25
854.39	1667.05
854.56	1652.71
854.73	1765.35
854.90	1617.90
855.07	1712.10
855.23	1656.81
855.40	1607.66
855.57	1675.24
855.74	1538.02
855.91	1939.43
856.08	1615.85
856.25	1636.33
856.41	1640.42
856.58	1665.00
856.75	1681.38
856.92	1650.66
857.09	1673.19
857.26	1652.71
857.42	1591.27
857.59	1736.68
857.76	1699.81
857.93	1736.68
858.10	1679.33
858.27	1642.47
858.43	1650.66
858.60	1677.29
858.77	1593.32
858.94	1738.73
859.11	1681.38
859.27	1660.90
859.44	1658.85
859.61	1767.40
859.78	1722.34
859.95	1703.91
860.12	1662.95
860.28	1746.92
860.45	1867.75
860.62	1669.09
860.79	1761.25
860.95	1701.86
861.12	1695.72
861.29	1607.66
861.46	1640.42
861.63	1656.81
861.79	1691.62
861.96	1665.00
862.13	1728.49
862.30	1826.79
862.47	1701.86
862.63	1607.66
862.80	1773.54
862.97	1746.92
863.14	1705.96
863.30	1660.90
863.47	1675.24
863.64	1646.57
863.81	1697.77
863.97	1740.77
864.14	1673.19
864.31	1712.10
864.48	1810.40
864.65	1693.67
864.81	1724.39
864.98	1748.97
865.15	1708.01
865.32	1763.30
865.48	1771.49
865.65	1751.01
865.82	1658.85
865.98	1712.10
866.15	1787.88
866.32	1658.85
866.49	1654.76
866.65	1802.21
866.82	1624.04
866.99	1673.19
867.16	1652.71
867.32	1636.33
867.49	1677.29
867.66	1675.24
867.83	1691.62
867.99	1611.75
868.16	1689.57
868.33	1656.81
868.49	1685.48
868.66	1632.23
868.83	1767.40
868.99	1628.14
869.16	1712.10
869.33	1718.25
869.50	1751.01
869.66	1693.67
869.83	1689.57
870.00	1605.61
870.16	1763.30
870.33	1665.00
870.50	1738.73
870.66	1720.29
870.83	1853.41
871.00	1693.67
871.17	1808.36
871.33	1720.29
871.50	1759.21
871.67	1683.43
871.83	1603.56
872.00	1775.59
872.17	1691.62
872.33	1781.73
872.50	1720.29
872.67	1654.76
872.83	1669.09
873.00	1714.15
873.17	1695.72
873.33	1781.73
873.50	1660.90
873.67	1593.32
873.83	1675.24
874.00	1699.81
874.16	1742.82
874.33	1759.21
874.50	1703.91
874.66	1746.92
874.83	1732.58
875.00	1767.40
875.16	1779.68
875.33	1730.53
875.50	1550.31
875.66	1665.00
875.83	1716.20
875.99	1796.07
876.16	1648.61
876.33	1679.33
876.49	1677.29
876.66	1761.25
876.83	1755.11
876.99	1611.75
877.16	1697.77
877.32	1628.14
877.49	1669.09
877.66	1710.05
877.82	1816.55
877.99	1763.30
878.15	1732.58
878.32	1703.91
878.49	1777.64
878.65	1626.09
878.82	1718.25
878.98	1689.57
879.15	1712.10
879.32	1705.96
879.48	1746.92
879.65	1652.71
879.81	1767.40
879.98	1724.39
880.15	1697.77
880.31	1693.67
880.48	1587.18
880.64	1738.73
880.81	1714.15
880.97	1753.06
881.14	1730.53
881.31	1640.42
881.47	1857.51
881.64	1683.43
881.80	1621.99
881.97	1708.01
882.13	1667.05
882.30	1605.61
882.47	1630.18
882.63	1654.76
882.80	1699.81
882.96	1691.62
883.13	1734.63
883.29	1679.33
883.46	1689.57
883.62	1841.12
883.79	1640.42
883.95	1693.67
884.12	1632.23
884.29	1751.01
884.45	1687.53
884.62	1818.60
884.78	1726.44
884.95	1787.88
885.11	1626.09
885.28	1730.53
885.44	1689.57
885.61	1710.05
885.77	1796.07
885.94	1759.21
886.10	1734.63
886.27	1744.87
886.43	1691.62
886.60	1783.78
886.76	1658.85
886.93	1607.66
887.09	1740.77
887.26	1599.46
887.42	1828.84
887.59	1814.50
887.75	1828.84
887.92	1705.96
888.08	1722.34
888.25	1814.50
888.41	1736.68
888.58	1648.61
888.74	1636.33
888.91	1701.86
>>>>>End Processed Spectral Data<<<<<
