SpectraSuite Data File
++++++++++++++++++++++++++++++++++++
Date: Mon Jun 06 17:04:57 CEST 2016
User: root
Dark Spectrum Present: No
Reference Spectrum Present: No
Number of Sampled Component Spectra: 1
Spectrometers: USB4C02835
Integration Time (usec): 100000 (USB4C02835)
Spectra Averaged: 1 (USB4C02835)
Boxcar Smoothing: 0 (USB4C02835)
Correct for Electrical Dark: No (USB4C02835)
Strobe/Lamp Enabled: No (USB4C02835)
Correct for Detector Non-linearity: No (USB4C02835)
Correct for Stray Light: No (USB4C02835)
Number of Pixels in Processed Spectrum: 3648
>>>>>Begin Processed Spectral Data<<<<<
177.47	1470.44
177.69	1470.44
177.91	1470.44
178.13	1429.48
178.36	1525.74
178.58	1617.90
178.80	1740.77
179.02	1644.52
179.24	1656.81
179.46	1720.29
179.68	1779.68
179.90	1736.68
180.13	1791.97
180.35	1624.04
180.57	1673.19
180.79	1736.68
181.01	1632.23
181.23	1724.39
181.45	1767.40
181.67	1660.90
181.90	1802.21
182.12	1644.52
182.34	1675.24
182.56	1775.59
182.78	1738.73
183.00	1658.85
183.22	1753.06
183.44	1615.85
183.66	1853.41
183.89	1826.79
184.11	1718.25
184.33	1660.90
184.55	1902.56
184.77	1736.68
184.99	1742.82
185.21	1658.85
185.43	1837.03
185.65	1679.33
185.87	1701.86
186.10	1880.04
186.32	1787.88
186.54	1785.83
186.76	1800.16
186.98	1724.39
187.20	1634.28
187.42	1810.40
187.64	1703.91
187.86	1746.92
188.08	1726.44
188.30	1728.49
188.52	1724.39
188.75	1779.68
188.97	1839.08
189.19	1701.86
189.41	1738.73
189.63	1671.14
189.85	1634.28
190.07	1660.90
190.29	1650.66
190.51	1748.97
190.73	1689.57
190.95	1791.97
191.17	1705.96
191.39	1599.46
191.61	1697.77
191.84	1644.52
192.06	1755.11
192.28	1644.52
192.50	1865.70
192.72	1710.05
192.94	1671.14
193.16	1779.68
193.38	1650.66
193.60	1701.86
193.82	1693.67
194.04	1832.93
194.26	1742.82
194.48	1753.06
194.70	1685.48
194.92	1642.47
195.14	1726.44
195.36	1656.81
195.58	1705.96
195.80	1613.80
196.02	1677.29
196.24	1703.91
196.46	1753.06
196.69	1673.19
196.91	1830.88
197.13	1650.66
197.35	1720.29
197.57	1787.88
197.79	1732.58
198.01	1734.63
198.23	1722.34
198.45	1722.34
198.67	1693.67
198.89	1660.90
199.11	1798.12
199.33	1669.09
199.55	1638.38
199.77	1697.77
199.99	1732.58
200.21	1658.85
200.43	1783.78
200.65	1628.14
200.87	1595.37
201.09	1746.92
201.31	1654.76
201.53	1734.63
201.75	1734.63
201.97	1697.77
202.19	1714.15
202.41	1740.77
202.63	1890.28
202.85	1728.49
203.07	1777.64
203.29	1710.05
203.51	1619.94
203.73	1677.29
203.95	1896.42
204.17	1742.82
204.39	1773.54
204.61	1701.86
204.83	1681.38
205.05	1748.97
205.27	1675.24
205.49	1828.84
205.71	1732.58
205.93	1624.04
206.15	1632.23
206.37	1712.10
206.59	1712.10
206.81	1617.90
207.03	1646.57
207.25	1652.71
207.47	1720.29
207.69	1636.33
207.91	1820.64
208.13	1738.73
208.34	1685.48
208.56	1734.63
208.78	1759.21
209.00	1687.53
209.22	1746.92
209.44	1660.90
209.66	1705.96
209.88	1697.77
210.10	1726.44
210.32	1642.47
210.54	1769.44
210.76	1701.86
210.98	1695.72
211.20	1587.18
211.42	1712.10
211.64	1791.97
211.86	1624.04
212.08	1699.81
212.30	1781.73
212.52	1697.77
212.74	1685.48
212.96	1722.34
213.17	1679.33
213.39	1767.40
213.61	1728.49
213.83	1734.63
214.05	1634.28
214.27	1730.53
214.49	1677.29
214.71	1665.00
214.93	1751.01
215.15	1722.34
215.37	1769.44
215.59	1640.42
215.81	1699.81
216.03	1683.43
216.24	1716.20
216.46	1611.75
216.68	1665.00
216.90	1722.34
217.12	1763.30
217.34	1703.91
217.56	1691.62
217.78	1785.83
218.00	1730.53
218.22	1732.58
218.44	1763.30
218.66	1697.77
218.87	1771.49
219.09	1703.91
219.31	1714.15
219.53	1759.21
219.75	1626.09
219.97	1646.57
220.19	1669.09
220.41	1654.76
220.63	1769.44
220.85	1765.35
221.06	1695.72
221.28	1822.69
221.50	1753.06
221.72	1718.25
221.94	1685.48
222.16	1742.82
222.38	1804.26
222.60	1759.21
222.82	1615.85
223.03	1755.11
223.25	1607.66
223.47	1759.21
223.69	1830.88
223.91	1728.49
224.13	1677.29
224.35	1705.96
224.57	1742.82
224.78	1697.77
225.00	1703.91
225.22	1630.18
225.44	1789.92
225.66	1712.10
225.88	1656.81
226.10	1822.69
226.32	1744.87
226.53	1789.92
226.75	1693.67
226.97	1755.11
227.19	1689.57
227.41	1665.00
227.63	1738.73
227.85	1662.95
228.06	1671.14
228.28	1744.87
228.50	1773.54
228.72	1679.33
228.94	1640.42
229.16	1605.61
229.37	1615.85
229.59	1665.00
229.81	1767.40
230.03	1589.22
230.25	1701.86
230.47	1638.38
230.69	1689.57
230.90	1777.64
231.12	1738.73
231.34	1781.73
231.56	1763.30
231.78	1681.38
232.00	1753.06
232.21	1683.43
232.43	1712.10
232.65	1597.42
232.87	1681.38
233.09	1703.91
233.30	1689.57
233.52	1798.12
233.74	1669.09
233.96	1736.68
234.18	1722.34
234.40	1685.48
234.61	1855.46
234.83	1595.37
235.05	1658.85
235.27	1849.32
235.49	1718.25
235.70	1746.92
235.92	1693.67
236.14	1736.68
236.36	1804.26
236.58	1654.76
236.79	1742.82
237.01	1695.72
237.23	1740.77
237.45	1775.59
237.67	1685.48
237.88	1757.16
238.10	1839.08
238.32	1654.76
238.54	1748.97
238.76	1744.87
238.97	1689.57
239.19	1677.29
239.41	1730.53
239.63	1742.82
239.85	1720.29
240.06	1636.33
240.28	1695.72
240.50	1728.49
240.72	1738.73
240.93	1675.24
241.15	1787.88
241.37	1742.82
241.59	1773.54
241.81	1742.82
242.02	1718.25
242.24	1656.81
242.46	1783.78
242.68	1755.11
242.89	1685.48
243.11	1789.92
243.33	1605.61
243.55	1699.81
243.76	1673.19
243.98	1701.86
244.20	1734.63
244.42	1787.88
244.64	1656.81
244.85	1687.53
245.07	1574.89
245.29	1703.91
245.51	1718.25
245.72	1746.92
245.94	1763.30
246.16	1691.62
246.38	1761.25
246.59	1667.05
246.81	1652.71
247.03	1761.25
247.24	1599.46
247.46	1669.09
247.68	1753.06
247.90	1683.43
248.11	1648.61
248.33	1765.35
248.55	1720.29
248.77	1818.60
248.98	1738.73
249.20	1832.93
249.42	1734.63
249.64	1693.67
249.85	1697.77
250.07	1685.48
250.29	1742.82
250.50	1785.83
250.72	1640.42
250.94	1732.58
251.16	1800.16
251.37	1738.73
251.59	1697.77
251.81	1693.67
252.02	1771.49
252.24	1642.47
252.46	1806.31
252.68	1632.23
252.89	1615.85
253.11	1574.89
253.33	1781.73
253.54	1767.40
253.76	1683.43
253.98	1654.76
254.20	1701.86
254.41	1665.00
254.63	1751.01
254.85	1648.61
255.06	1703.91
255.28	1753.06
255.50	1732.58
255.71	1695.72
255.93	1644.52
256.15	1701.86
256.36	1712.10
256.58	1738.73
256.80	1804.26
257.02	1693.67
257.23	1724.39
257.45	1681.38
257.67	1806.31
257.88	1740.77
258.10	1718.25
258.32	1755.11
258.53	1705.96
258.75	1818.60
258.97	1626.09
259.18	1710.05
259.40	1714.15
259.62	1857.51
259.83	1804.26
260.05	1820.64
260.27	1943.52
260.48	1824.74
260.70	1630.18
260.92	1644.52
261.13	1671.14
261.35	1710.05
261.57	1718.25
261.78	1615.85
262.00	1740.77
262.22	1701.86
262.43	1656.81
262.65	1683.43
262.86	1751.01
263.08	1871.84
263.30	1732.58
263.51	1720.29
263.73	1667.05
263.95	1804.26
264.16	1732.58
264.38	1708.01
264.60	1718.25
264.81	1695.72
265.03	1775.59
265.25	1742.82
265.46	1730.53
265.68	1753.06
265.89	1703.91
266.11	1632.23
266.33	1771.49
266.54	1814.50
266.76	1744.87
266.98	1722.34
267.19	1761.25
267.41	1820.64
267.62	1685.48
267.84	1626.09
268.06	1728.49
268.27	1697.77
268.49	1761.25
268.70	1720.29
268.92	1718.25
269.14	1701.86
269.35	1705.96
269.57	1710.05
269.79	1716.20
270.00	1701.86
270.22	1796.07
270.43	1640.42
270.65	1626.09
270.87	1746.92
271.08	1681.38
271.30	1748.97
271.51	1683.43
271.73	1775.59
271.95	1746.92
272.16	1769.44
272.38	1732.58
272.59	1689.57
272.81	1730.53
273.02	1753.06
273.24	1779.68
273.46	1734.63
273.67	1648.61
273.89	1669.09
274.10	1689.57
274.32	1746.92
274.54	1757.16
274.75	1720.29
274.97	1667.05
275.18	1755.11
275.40	1773.54
275.61	1722.34
275.83	1693.67
276.05	1644.52
276.26	1697.77
276.48	1738.73
276.69	1624.04
276.91	1710.05
277.12	1771.49
277.34	1746.92
277.55	1761.25
277.77	1773.54
277.99	1673.19
278.20	1601.51
278.42	1708.01
278.63	1734.63
278.85	1662.95
279.06	1574.89
279.28	1794.02
279.49	1757.16
279.71	1722.34
279.93	1699.81
280.14	1798.12
280.36	1722.34
280.57	1712.10
280.79	1705.96
281.00	1693.67
281.22	1695.72
281.43	1753.06
281.65	1667.05
281.86	1679.33
282.08	1724.39
282.29	1832.93
282.51	1619.94
282.73	1605.61
282.94	1650.66
283.16	1814.50
283.37	1810.40
283.59	1673.19
283.80	1736.68
284.02	1757.16
284.23	1732.58
284.45	1677.29
284.66	1691.62
284.88	1679.33
285.09	1753.06
285.31	1742.82
285.52	1697.77
285.74	1677.29
285.95	1802.21
286.17	1773.54
286.38	1759.21
286.60	1695.72
286.81	1662.95
287.03	1673.19
287.24	1744.87
287.46	1755.11
287.67	1685.48
287.89	1802.21
288.10	1705.96
288.32	1726.44
288.53	1763.30
288.75	1708.01
288.96	1744.87
289.18	1658.85
289.39	1738.73
289.61	1724.39
289.82	1865.70
290.04	1751.01
290.25	1656.81
290.47	1705.96
290.68	1753.06
290.90	1787.88
291.11	1662.95
291.33	1785.83
291.54	1652.71
291.76	1738.73
291.97	1703.91
292.18	1757.16
292.40	1652.71
292.61	1665.00
292.83	1761.25
293.04	1658.85
293.26	1681.38
293.47	1722.34
293.69	1652.71
293.90	1701.86
294.12	1767.40
294.33	1677.29
294.55	1726.44
294.76	1714.15
294.97	1736.68
295.19	1861.60
295.40	1681.38
295.62	1751.01
295.83	1746.92
296.05	1656.81
296.26	1814.50
296.48	1642.47
296.69	1714.15
296.90	1658.85
297.12	1779.68
297.33	1738.73
297.55	1759.21
297.76	1724.39
297.98	1812.45
298.19	1734.63
298.41	1628.14
298.62	1699.81
298.83	1716.20
299.05	1736.68
299.26	1656.81
299.48	1695.72
299.69	1734.63
299.90	1763.30
300.12	1703.91
300.33	1738.73
300.55	1693.67
300.76	1705.96
300.98	1597.42
301.19	1722.34
301.40	1615.85
301.62	1679.33
301.83	1759.21
302.05	1703.91
302.26	1734.63
302.47	1718.25
302.69	1636.33
302.90	1734.63
303.12	1613.80
303.33	1738.73
303.54	1759.21
303.76	1748.97
303.97	1755.11
304.19	1767.40
304.40	1642.47
304.61	1697.77
304.83	1757.16
305.04	1720.29
305.26	1689.57
305.47	1671.14
305.68	1726.44
305.90	1683.43
306.11	1783.78
306.33	1660.90
306.54	1646.57
306.75	1679.33
306.97	1671.14
307.18	1611.75
307.39	1708.01
307.61	1746.92
307.82	1689.57
308.04	1753.06
308.25	1650.66
308.46	1759.21
308.68	1775.59
308.89	1755.11
309.10	1761.25
309.32	1697.77
309.53	1748.97
309.74	1710.05
309.96	1632.23
310.17	1808.36
310.39	1693.67
310.60	1740.77
310.81	1695.72
311.03	1689.57
311.24	1708.01
311.45	1722.34
311.67	1841.12
311.88	1701.86
312.09	1712.10
312.31	1636.33
312.52	1738.73
312.73	1671.14
312.95	1599.46
313.16	1716.20
313.37	1798.12
313.59	1689.57
313.80	1746.92
314.01	1832.93
314.23	1738.73
314.44	1636.33
314.65	1699.81
314.87	1693.67
315.08	1759.21
315.29	1595.37
315.51	1576.94
315.72	1673.19
315.93	1798.12
316.15	1826.79
316.36	1665.00
316.57	1667.05
316.79	1748.97
317.00	1648.61
317.21	1730.53
317.43	1710.05
317.64	1697.77
317.85	1673.19
318.07	1685.48
318.28	1742.82
318.49	1757.16
318.70	1976.29
318.92	1753.06
319.13	1771.49
319.34	1902.56
319.56	1716.20
319.77	1830.88
319.98	1873.89
320.20	1716.20
320.41	1708.01
320.62	1693.67
320.83	1624.04
321.05	1834.98
321.26	1726.44
321.47	1705.96
321.69	1718.25
321.90	1648.61
322.11	1650.66
322.32	1693.67
322.54	1810.40
322.75	1630.18
322.96	1796.07
323.18	1667.05
323.39	1679.33
323.60	1652.71
323.81	1787.88
324.03	1685.48
324.24	1726.44
324.45	1806.31
324.66	1730.53
324.88	1767.40
325.09	1816.55
325.30	1660.90
325.52	1742.82
325.73	1738.73
325.94	1732.58
326.15	1671.14
326.37	1738.73
326.58	1771.49
326.79	1742.82
327.00	1617.90
327.22	1732.58
327.43	1763.30
327.64	1656.81
327.85	1806.31
328.07	1722.34
328.28	1732.58
328.49	1605.61
328.70	1783.78
328.92	1669.09
329.13	1697.77
329.34	1722.34
329.55	1769.44
329.76	1779.68
329.98	1753.06
330.19	1789.92
330.40	1794.02
330.61	1734.63
330.83	1841.12
331.04	1607.66
331.25	1769.44
331.46	1703.91
331.68	1656.81
331.89	1814.50
332.10	1830.88
332.31	1722.34
332.52	1665.00
332.74	1730.53
332.95	1640.42
333.16	1785.83
333.37	1748.97
333.58	1699.81
333.80	1720.29
334.01	1587.18
334.22	1736.68
334.43	1689.57
334.64	1818.60
334.86	1648.61
335.07	1634.28
335.28	1761.25
335.49	1574.89
335.70	1773.54
335.92	1718.25
336.13	1861.60
336.34	1705.96
336.55	1710.05
336.76	1740.77
336.98	1591.27
337.19	1665.00
337.40	1824.74
337.61	1816.55
337.82	1697.77
338.04	1746.92
338.25	1642.47
338.46	1705.96
338.67	1746.92
338.88	1636.33
339.09	1660.90
339.31	1632.23
339.52	1597.42
339.73	1693.67
339.94	1673.19
340.15	1771.49
340.36	1613.80
340.58	1718.25
340.79	1689.57
341.00	1712.10
341.21	1636.33
341.42	1791.97
341.63	1703.91
341.85	1701.86
342.06	1697.77
342.27	1611.75
342.48	1800.16
342.69	1626.09
342.90	1736.68
343.12	1652.71
343.33	1730.53
343.54	1720.29
343.75	1830.88
343.96	1660.90
344.17	1701.86
344.38	1740.77
344.60	1632.23
344.81	1716.20
345.02	1687.53
345.23	1683.43
345.44	1755.11
345.65	1716.20
345.86	1740.77
346.07	1626.09
346.29	1634.28
346.50	1705.96
346.71	1697.77
346.92	1720.29
347.13	1837.03
347.34	1644.52
347.55	1705.96
347.76	1730.53
347.98	1660.90
348.19	1673.19
348.40	1740.77
348.61	1656.81
348.82	1775.59
349.03	1660.90
349.24	1685.48
349.45	1863.65
349.66	1578.98
349.88	1755.11
350.09	1658.85
350.30	1746.92
350.51	1791.97
350.72	1648.61
350.93	1785.83
351.14	1642.47
351.35	1656.81
351.56	1734.63
351.77	1667.05
351.99	1714.15
352.20	1804.26
352.41	1765.35
352.62	1628.14
352.83	1775.59
353.04	1730.53
353.25	1689.57
353.46	1783.78
353.67	1806.31
353.88	1601.51
354.09	1665.00
354.30	1718.25
354.52	1765.35
354.73	1679.33
354.94	1730.53
355.15	1660.90
355.36	1724.39
355.57	1728.49
355.78	1689.57
355.99	1611.75
356.20	1697.77
356.41	1787.88
356.62	1660.90
356.83	1730.53
357.04	1714.15
357.25	1685.48
357.46	1728.49
357.68	1662.95
357.89	1665.00
358.10	1689.57
358.31	1697.77
358.52	1648.61
358.73	1662.95
358.94	1646.57
359.15	1615.85
359.36	1714.15
359.57	1695.72
359.78	1699.81
359.99	1705.96
360.20	1665.00
360.41	1740.77
360.62	1691.62
360.83	1710.05
361.04	1730.53
361.25	1773.54
361.46	1828.84
361.67	1699.81
361.88	1740.77
362.09	1808.36
362.30	1744.87
362.51	1714.15
362.72	1794.02
362.93	1736.68
363.14	1796.07
363.35	1789.92
363.56	1685.48
363.78	1730.53
363.99	1753.06
364.20	1689.57
364.41	1798.12
364.62	1787.88
364.83	1667.05
365.04	1761.25
365.25	1679.33
365.46	1820.64
365.67	1665.00
365.88	1638.38
366.09	1685.48
366.30	1621.99
366.51	1759.21
366.72	1615.85
366.93	1771.49
367.14	1722.34
367.35	1791.97
367.56	1710.05
367.77	1826.79
367.98	1599.46
368.18	1775.59
368.39	1738.73
368.60	1636.33
368.81	1757.16
369.02	1685.48
369.23	1652.71
369.44	1640.42
369.65	1697.77
369.86	1716.20
370.07	1699.81
370.28	1705.96
370.49	1660.90
370.70	1748.97
370.91	1660.90
371.12	1689.57
371.33	1757.16
371.54	1728.49
371.75	1777.64
371.96	1634.28
372.17	1687.53
372.38	1714.15
372.59	1757.16
372.80	1687.53
373.01	1742.82
373.22	1748.97
373.43	1771.49
373.64	1740.77
373.85	1820.64
374.06	1787.88
374.26	1796.07
374.47	1697.77
374.68	1724.39
374.89	1677.29
375.10	1716.20
375.31	1796.07
375.52	1746.92
375.73	1710.05
375.94	1638.38
376.15	1830.88
376.36	1634.28
376.57	1595.37
376.78	1667.05
376.99	1751.01
377.20	1773.54
377.40	1689.57
377.61	1832.93
377.82	1689.57
378.03	1705.96
378.24	1771.49
378.45	1679.33
378.66	1691.62
378.87	1601.51
379.08	1630.18
379.29	1656.81
379.50	1839.08
379.71	1732.58
379.91	1730.53
380.12	1722.34
380.33	1697.77
380.54	1691.62
380.75	1744.87
380.96	1746.92
381.17	1763.30
381.38	1765.35
381.59	1740.77
381.80	1742.82
382.00	1789.92
382.21	1722.34
382.42	1789.92
382.63	1869.80
382.84	1710.05
383.05	1796.07
383.26	1751.01
383.47	1736.68
383.68	1822.69
383.88	1761.25
384.09	1726.44
384.30	1826.79
384.51	1714.15
384.72	1761.25
384.93	1587.18
385.14	1681.38
385.35	1720.29
385.55	1632.23
385.76	1826.79
385.97	1771.49
386.18	1658.85
386.39	1673.19
386.60	1712.10
386.81	1775.59
387.02	1712.10
387.22	1675.24
387.43	1800.16
387.64	1771.49
387.85	1910.75
388.06	2217.95
388.27	4229.06
388.48	6703.00
388.68	8161.16
388.89	9660.27
389.10	9639.79
389.31	8451.97
389.52	7657.36
389.73	6737.82
389.93	6129.57
390.14	5767.08
390.35	5173.17
390.56	4466.62
390.77	3704.78
390.98	3082.19
391.18	2486.23
391.39	2129.89
391.60	1902.56
391.81	1845.22
392.02	1753.06
392.23	1861.60
392.43	1777.64
392.64	1771.49
392.85	1800.16
393.06	1822.69
393.27	1710.05
393.47	1726.44
393.68	1665.00
393.89	1605.61
394.10	1802.21
394.31	1669.09
394.52	1744.87
394.72	1701.86
394.93	1773.54
395.14	1691.62
395.35	1687.53
395.56	1685.48
395.76	1779.68
395.97	1769.44
396.18	1886.18
396.39	1834.98
396.60	2090.98
396.80	1869.80
397.01	1812.45
397.22	1855.46
397.43	1896.42
397.64	1730.53
397.84	1837.03
398.05	1834.98
398.26	1763.30
398.47	1751.01
398.67	1791.97
398.88	1742.82
399.09	1732.58
399.30	1691.62
399.51	1720.29
399.71	1654.76
399.92	1640.42
400.13	1734.63
400.34	1699.81
400.54	1759.21
400.75	1771.49
400.96	1665.00
401.17	1763.30
401.37	1769.44
401.58	1722.34
401.79	1779.68
402.00	1855.46
402.21	1986.53
402.41	1935.33
402.62	1980.39
402.83	2072.54
403.04	1996.77
403.24	2066.40
403.45	1849.32
403.66	1927.14
403.87	1884.13
404.07	1912.80
404.28	1929.19
404.49	1961.95
404.70	1800.16
404.90	1763.30
405.11	1777.64
405.32	1716.20
405.52	1695.72
405.73	1656.81
405.94	1728.49
406.15	1652.71
406.35	1658.85
406.56	1765.35
406.77	1726.44
406.98	1814.50
407.18	1687.53
407.39	1787.88
407.60	1648.61
407.80	1769.44
408.01	1701.86
408.22	1767.40
408.43	1675.24
408.63	1718.25
408.84	1763.30
409.05	1722.34
409.25	1742.82
409.46	1656.81
409.67	1732.58
409.88	1667.05
410.08	1665.00
410.29	1714.15
410.50	1779.68
410.70	1691.62
410.91	1748.97
411.12	1708.01
411.32	1679.33
411.53	1740.77
411.74	1767.40
411.95	1832.93
412.15	1824.74
412.36	1746.92
412.57	1796.07
412.77	1808.36
412.98	1673.19
413.19	1654.76
413.39	1744.87
413.60	1665.00
413.81	1837.03
414.01	1624.04
414.22	1718.25
414.43	1753.06
414.63	1736.68
414.84	1779.68
415.05	1748.97
415.25	1583.08
415.46	1751.01
415.67	1732.58
415.87	1728.49
416.08	1728.49
416.29	1748.97
416.49	1697.77
416.70	1738.73
416.91	1685.48
417.11	1697.77
417.32	1804.26
417.53	1853.41
417.73	1779.68
417.94	1742.82
418.15	1697.77
418.35	1693.67
418.56	1632.23
418.77	1804.26
418.97	1757.16
419.18	1753.06
419.38	1556.46
419.59	1718.25
419.80	1781.73
420.00	1751.01
420.21	1691.62
420.42	1800.16
420.62	1708.01
420.83	1697.77
421.04	1740.77
421.24	1722.34
421.45	1751.01
421.65	1714.15
421.86	1716.20
422.07	1712.10
422.27	1753.06
422.48	1722.34
422.69	1642.47
422.89	1636.33
423.10	1732.58
423.30	1681.38
423.51	1722.34
423.72	1734.63
423.92	1685.48
424.13	1656.81
424.33	1724.39
424.54	1742.82
424.75	1724.39
424.95	1857.51
425.16	1767.40
425.36	1662.95
425.57	1783.78
425.78	1736.68
425.98	1734.63
426.19	1677.29
426.39	1638.38
426.60	1689.57
426.81	1785.83
427.01	1802.21
427.22	1660.90
427.42	1621.99
427.63	1662.95
427.83	1734.63
428.04	1802.21
428.25	1777.64
428.45	1785.83
428.66	1724.39
428.86	1703.91
429.07	1730.53
429.28	1712.10
429.48	1701.86
429.69	1667.05
429.89	1759.21
430.10	1650.66
430.30	1773.54
430.51	1791.97
430.71	1658.85
430.92	1693.67
431.13	1681.38
431.33	1755.11
431.54	1736.68
431.74	1826.79
431.95	1851.36
432.15	1593.32
432.36	1679.33
432.56	1800.16
432.77	1781.73
432.98	1890.28
433.18	1753.06
433.39	1714.15
433.59	1740.77
433.80	1880.04
434.00	1890.28
434.21	1662.95
434.41	1771.49
434.62	1847.27
434.82	1673.19
435.03	1617.90
435.23	1767.40
435.44	1644.52
435.64	1740.77
435.85	1695.72
436.06	1648.61
436.26	1675.24
436.47	1683.43
436.67	1642.47
436.88	1736.68
437.08	1730.53
437.29	1798.12
437.49	1763.30
437.70	1828.84
437.90	1765.35
438.11	1814.50
438.31	1787.88
438.52	1920.99
438.72	1923.04
438.93	1976.29
439.13	1781.73
439.34	1753.06
439.54	1779.68
439.75	1828.84
439.95	1789.92
440.16	1722.34
440.36	1728.49
440.57	1740.77
440.77	1775.59
440.98	1773.54
441.18	1763.30
441.39	1673.19
441.59	1691.62
441.80	1826.79
442.00	1710.05
442.21	1798.12
442.41	1654.76
442.62	1779.68
442.82	1667.05
443.02	1748.97
443.23	1796.07
443.43	1738.73
443.64	1814.50
443.84	1675.24
444.05	1798.12
444.25	1705.96
444.46	1665.00
444.66	1755.11
444.87	1865.70
445.07	1677.29
445.28	1824.74
445.48	1865.70
445.69	1746.92
445.89	1904.61
446.09	1767.40
446.30	2062.30
446.50	2697.17
446.71	3825.61
446.91	4349.89
447.12	4739.00
447.32	4859.83
447.53	4257.73
447.73	3841.99
447.93	3516.36
448.14	3205.07
448.34	3225.55
448.55	2965.46
448.75	2791.38
448.96	2674.65
449.16	2408.41
449.36	2248.67
449.57	2064.35
449.77	1880.04
449.98	1771.49
450.18	1783.78
450.39	1830.88
450.59	1830.88
450.79	1779.68
451.00	1632.23
451.20	1769.44
451.41	1656.81
451.61	1810.40
451.81	1783.78
452.02	1794.02
452.22	1722.34
452.43	1669.09
452.63	1726.44
452.84	1730.53
453.04	1716.20
453.24	1734.63
453.45	1771.49
453.65	1665.00
453.86	1712.10
454.06	1748.97
454.26	1751.01
454.47	1689.57
454.67	1794.02
454.87	1730.53
455.08	1759.21
455.28	1875.94
455.49	1689.57
455.69	1677.29
455.89	1841.12
456.10	1804.26
456.30	1689.57
456.51	1824.74
456.71	1830.88
456.91	1769.44
457.12	1826.79
457.32	1734.63
457.52	1650.66
457.73	1769.44
457.93	1800.16
458.14	1630.18
458.34	1562.60
458.54	1744.87
458.75	1738.73
458.95	1794.02
459.15	1726.44
459.36	1689.57
459.56	1744.87
459.76	1890.28
459.97	1710.05
460.17	1726.44
460.37	1753.06
460.58	1683.43
460.78	1779.68
460.99	1703.91
461.19	1755.11
461.39	1720.29
461.60	1812.45
461.80	1812.45
462.00	1701.86
462.21	1771.49
462.41	1679.33
462.61	1675.24
462.82	1681.38
463.02	1716.20
463.22	1734.63
463.43	1714.15
463.63	1738.73
463.83	1837.03
464.04	1681.38
464.24	1732.58
464.44	1642.47
464.64	1718.25
464.85	1773.54
465.05	1873.89
465.25	1720.29
465.46	1681.38
465.66	1806.31
465.86	1814.50
466.07	1789.92
466.27	1712.10
466.47	1538.02
466.68	1638.38
466.88	1847.27
467.08	1748.97
467.29	1822.69
467.49	1814.50
467.69	1759.21
467.89	1689.57
468.10	1693.67
468.30	1759.21
468.50	1851.36
468.71	1773.54
468.91	1617.90
469.11	1888.23
469.31	1693.67
469.52	1646.57
469.72	1892.32
469.92	1834.98
470.13	1695.72
470.33	1705.96
470.53	1869.80
470.73	2252.77
470.94	2269.15
471.14	2336.73
471.34	2639.83
471.54	2394.08
471.75	2250.72
471.95	2148.32
472.15	2019.30
472.36	2160.61
472.56	2115.55
472.76	2043.87
472.96	1998.82
473.17	1898.47
473.37	1880.04
473.57	1810.40
473.77	1763.30
473.98	1808.36
474.18	1699.81
474.38	1902.56
474.58	1708.01
474.79	1748.97
474.99	1751.01
475.19	1748.97
475.39	1611.75
475.60	1765.35
475.80	1699.81
476.00	1687.53
476.20	1720.29
476.41	1724.39
476.61	1832.93
476.81	1783.78
477.01	1677.29
477.21	1877.99
477.42	1871.84
477.62	1691.62
477.82	1757.16
478.02	1667.05
478.23	1765.35
478.43	1701.86
478.63	1736.68
478.83	1697.77
479.03	1683.43
479.24	1785.83
479.44	1869.80
479.64	1755.11
479.84	1607.66
480.04	1646.57
480.25	1753.06
480.45	1742.82
480.65	1732.58
480.85	1804.26
481.06	1660.90
481.26	1734.63
481.46	1740.77
481.66	1683.43
481.86	1703.91
482.06	1738.73
482.27	1726.44
482.47	1665.00
482.67	1665.00
482.87	1685.48
483.07	1775.59
483.28	1689.57
483.48	1644.52
483.68	1701.86
483.88	1662.95
484.08	1632.23
484.29	1640.42
484.49	1794.02
484.69	1675.24
484.89	1781.73
485.09	1814.50
485.29	1824.74
485.50	1699.81
485.70	1794.02
485.90	1798.12
486.10	1734.63
486.30	1796.07
486.50	1781.73
486.71	1757.16
486.91	1781.73
487.11	1779.68
487.31	1730.53
487.51	1671.14
487.71	1677.29
487.91	1671.14
488.12	1708.01
488.32	1595.37
488.52	1755.11
488.72	1648.61
488.92	1744.87
489.12	1800.16
489.32	1800.16
489.53	1751.01
489.73	1652.71
489.93	1802.21
490.13	1734.63
490.33	1718.25
490.53	1738.73
490.73	1699.81
490.94	1650.66
491.14	1761.25
491.34	1859.56
491.54	2093.02
491.74	2635.74
491.94	2953.17
492.14	3094.48
492.34	3059.67
492.54	2809.81
492.75	2422.75
492.95	2455.51
493.15	2396.12
493.35	2279.39
493.55	2271.20
493.75	2183.13
493.95	2170.85
494.15	1998.82
494.35	1886.18
494.56	1806.31
494.76	1732.58
494.96	1789.92
495.16	1785.83
495.36	1791.97
495.56	1771.49
495.76	1769.44
495.96	1796.07
496.16	1679.33
496.36	1775.59
496.56	1783.78
496.77	1746.92
496.97	1753.06
497.17	1748.97
497.37	1705.96
497.57	1697.77
497.77	1718.25
497.97	1679.33
498.17	1736.68
498.37	1722.34
498.57	1730.53
498.77	1689.57
498.97	1837.03
499.17	1742.82
499.38	1697.77
499.58	1759.21
499.78	1740.77
499.98	1822.69
500.18	1736.68
500.38	1667.05
500.58	1914.85
500.78	2510.81
500.98	4618.17
501.18	5963.68
501.38	6741.91
501.58	7139.22
501.78	6723.48
501.98	5449.64
502.18	5091.25
502.38	4358.08
502.58	4200.38
502.78	3805.13
502.98	3852.23
503.18	3528.65
503.38	3131.34
503.59	2852.82
503.79	2652.12
503.99	2478.04
504.19	2203.61
504.39	2330.59
504.59	2197.47
504.79	2109.41
504.99	2101.22
505.19	1929.19
505.39	1802.21
505.59	1927.14
505.79	1920.99
505.99	1873.89
506.19	1746.92
506.39	1873.89
506.59	1781.73
506.79	1837.03
506.99	1837.03
507.19	1759.21
507.39	1746.92
507.59	1656.81
507.79	1708.01
507.99	1683.43
508.19	1732.58
508.39	1691.62
508.59	1710.05
508.79	1820.64
508.99	1951.71
509.19	1656.81
509.39	1802.21
509.59	1716.20
509.79	1632.23
509.99	1751.01
510.19	1816.55
510.39	1806.31
510.59	1652.71
510.79	1685.48
510.99	1746.92
511.19	1691.62
511.39	1880.04
511.59	1794.02
511.79	1742.82
511.99	1812.45
512.19	1789.92
512.38	1791.97
512.58	1697.77
512.78	1757.16
512.98	1781.73
513.18	1808.36
513.38	1691.62
513.58	1730.53
513.78	1767.40
513.98	1837.03
514.18	1714.15
514.38	1767.40
514.58	1720.29
514.78	1691.62
514.98	1677.29
515.18	1705.96
515.38	1650.66
515.58	1898.47
515.78	1701.86
515.98	1828.84
516.18	1761.25
516.38	1781.73
516.57	1734.63
516.77	1697.77
516.97	1816.55
517.17	1714.15
517.37	1646.57
517.57	1751.01
517.77	1761.25
517.97	1732.58
518.17	1814.50
518.37	1755.11
518.57	1703.91
518.77	1691.62
518.97	1697.77
519.16	1798.12
519.36	1880.04
519.56	1763.30
519.76	1771.49
519.96	1759.21
520.16	1826.79
520.36	1738.73
520.56	1759.21
520.76	1724.39
520.96	1636.33
521.16	1763.30
521.35	1781.73
521.55	1845.22
521.75	1777.64
521.95	1677.29
522.15	1732.58
522.35	1714.15
522.55	1695.72
522.75	1804.26
522.95	1759.21
523.14	1675.24
523.34	1761.25
523.54	1693.67
523.74	1755.11
523.94	1734.63
524.14	1699.81
524.34	1642.47
524.54	1816.55
524.73	1759.21
524.93	1740.77
525.13	1724.39
525.33	1669.09
525.53	1851.36
525.73	1769.44
525.93	1757.16
526.13	1728.49
526.32	1763.30
526.52	1798.12
526.72	1783.78
526.92	1615.85
527.12	1701.86
527.32	1804.26
527.52	1724.39
527.71	1744.87
527.91	1699.81
528.11	1763.30
528.31	1720.29
528.51	1736.68
528.71	1757.16
528.90	1744.87
529.10	1802.21
529.30	1744.87
529.50	1630.18
529.70	1751.01
529.90	1695.72
530.09	1759.21
530.29	1689.57
530.49	1726.44
530.69	1859.56
530.89	1744.87
531.09	1798.12
531.28	1771.49
531.48	1773.54
531.68	1820.64
531.88	1687.53
532.08	1845.22
532.28	1712.10
532.47	1753.06
532.67	1746.92
532.87	1787.88
533.07	1712.10
533.27	1843.17
533.46	1785.83
533.66	1791.97
533.86	1658.85
534.06	1673.19
534.26	1853.41
534.45	1679.33
534.65	1779.68
534.85	1785.83
535.05	1640.42
535.25	1775.59
535.44	1587.18
535.64	1658.85
535.84	1699.81
536.04	1716.20
536.24	1738.73
536.43	1726.44
536.63	1789.92
536.83	1759.21
537.03	1775.59
537.22	1718.25
537.42	1628.14
537.62	1757.16
537.82	1701.86
538.02	1867.75
538.21	1843.17
538.41	1906.66
538.61	1820.64
538.81	1761.25
539.00	1798.12
539.20	1681.38
539.40	1699.81
539.60	1738.73
539.79	1787.88
539.99	1753.06
540.19	1685.48
540.39	1753.06
540.58	1730.53
540.78	1804.26
540.98	1800.16
541.18	1734.63
541.37	1828.84
541.57	1726.44
541.77	1779.68
541.97	1699.81
542.16	1683.43
542.36	1695.72
542.56	1738.73
542.76	1800.16
542.95	1818.60
543.15	1757.16
543.35	1740.77
543.54	1716.20
543.74	1781.73
543.94	1814.50
544.14	1708.01
544.33	1777.64
544.53	1724.39
544.73	1716.20
544.93	1755.11
545.12	1781.73
545.32	1712.10
545.52	1642.47
545.71	1716.20
545.91	1646.57
546.11	1769.44
546.30	1712.10
546.50	1726.44
546.70	1802.21
546.90	1761.25
547.09	1574.89
547.29	1695.72
547.49	1814.50
547.68	1734.63
547.88	1687.53
548.08	1794.02
548.27	2172.89
548.47	1705.96
548.67	1650.66
548.87	1773.54
549.06	1761.25
549.26	1796.07
549.46	1724.39
549.65	1701.86
549.85	1812.45
550.05	1791.97
550.24	1677.29
550.44	1693.67
550.64	1730.53
550.83	1722.34
551.03	1818.60
551.23	1798.12
551.42	1812.45
551.62	1705.96
551.82	1769.44
552.01	1804.26
552.21	1705.96
552.41	1748.97
552.60	1873.89
552.80	1773.54
553.00	1724.39
553.19	1791.97
553.39	1808.36
553.59	1714.15
553.78	1779.68
553.98	1771.49
554.17	1722.34
554.37	1783.78
554.57	1769.44
554.76	1665.00
554.96	1675.24
555.16	1767.40
555.35	1730.53
555.55	1820.64
555.75	1755.11
555.94	1800.16
556.14	1691.62
556.33	1781.73
556.53	1765.35
556.73	1716.20
556.92	1767.40
557.12	1871.84
557.32	1830.88
557.51	1834.98
557.71	1820.64
557.90	1779.68
558.10	1927.14
558.30	1732.58
558.49	1714.15
558.69	1714.15
558.88	1751.01
559.08	1740.77
559.28	1654.76
559.47	1748.97
559.67	1757.16
559.86	1892.32
560.06	1769.44
560.26	1708.01
560.45	1822.69
560.65	1730.53
560.84	1814.50
561.04	1724.39
561.24	1738.73
561.43	1681.38
561.63	1841.12
561.82	1744.87
562.02	1728.49
562.22	1726.44
562.41	1697.77
562.61	1783.78
562.80	1699.81
563.00	1853.41
563.19	1710.05
563.39	1716.20
563.59	1796.07
563.78	1632.23
563.98	1665.00
564.17	1712.10
564.37	1734.63
564.56	1791.97
564.76	1667.05
564.96	1880.04
565.15	1804.26
565.35	1859.56
565.54	1761.25
565.74	1767.40
565.93	1757.16
566.13	1740.77
566.32	1751.01
566.52	1771.49
566.71	1767.40
566.91	1791.97
567.11	1712.10
567.30	1693.67
567.50	1785.83
567.69	1773.54
567.89	1810.40
568.08	1763.30
568.28	1728.49
568.47	1697.77
568.67	1834.98
568.86	1697.77
569.06	1787.88
569.25	1746.92
569.45	1621.99
569.64	1718.25
569.84	1748.97
570.04	1843.17
570.23	1658.85
570.43	1757.16
570.62	1748.97
570.82	1771.49
571.01	1644.52
571.21	1679.33
571.40	1669.09
571.60	1802.21
571.79	1787.88
571.99	1773.54
572.18	1695.72
572.38	1767.40
572.57	1673.19
572.77	1710.05
572.96	1929.19
573.16	1779.68
573.35	1695.72
573.55	1839.08
573.74	1708.01
573.94	1755.11
574.13	1667.05
574.33	1845.22
574.52	1824.74
574.71	1677.29
574.91	1767.40
575.10	1703.91
575.30	1673.19
575.49	1683.43
575.69	1662.95
575.88	1763.30
576.08	1814.50
576.27	1767.40
576.47	1681.38
576.66	1837.03
576.86	1800.16
577.05	1781.73
577.25	1787.88
577.44	1892.32
577.64	1763.30
577.83	1810.40
578.02	1689.57
578.22	1877.99
578.41	1763.30
578.61	1769.44
578.80	1675.24
579.00	1812.45
579.19	1742.82
579.39	1785.83
579.58	1832.93
579.77	1812.45
579.97	1746.92
580.16	1818.60
580.36	1877.99
580.55	1847.27
580.75	1818.60
580.94	1824.74
581.13	1896.42
581.33	1898.47
581.52	1728.49
581.72	1904.61
581.91	1830.88
582.11	1726.44
582.30	1789.92
582.49	1736.68
582.69	1812.45
582.88	1769.44
583.08	1689.57
583.27	1775.59
583.47	1656.81
583.66	1697.77
583.85	1722.34
584.05	1718.25
584.24	1861.60
584.44	1841.12
584.63	1906.66
584.82	1855.46
585.02	1920.99
585.21	1820.64
585.41	1837.03
585.60	1812.45
585.79	1974.24
585.99	1953.76
586.18	1812.45
586.37	2170.85
586.57	3356.62
586.76	9742.19
586.96	24620.68
587.15	34207.22
587.34	40449.43
587.54	41878.91
587.73	36310.49
587.93	26027.63
588.12	21440.18
588.31	18138.86
588.51	16228.10
588.70	14950.17
588.89	14098.22
589.09	12468.03
589.28	10950.49
589.47	9324.40
589.67	7935.88
589.86	6432.67
590.06	4829.11
590.25	4040.64
590.44	3051.47
590.64	2529.24
590.83	2291.68
591.02	2084.83
591.22	1976.29
591.41	1902.56
591.60	1812.45
591.80	1906.66
591.99	1789.92
592.18	1720.29
592.38	1826.79
592.57	1863.65
592.76	1785.83
592.96	1810.40
593.15	1767.40
593.34	1812.45
593.54	1681.38
593.73	1806.31
593.92	1904.61
594.12	1699.81
594.31	1751.01
594.50	1761.25
594.70	1822.69
594.89	1980.39
595.08	1714.15
595.28	1746.92
595.47	1908.71
595.66	1812.45
595.86	1728.49
596.05	1789.92
596.24	1736.68
596.43	1765.35
596.63	1863.65
596.82	1798.12
597.01	1722.34
597.21	1884.13
597.40	1812.45
597.59	1740.77
597.79	1781.73
597.98	1783.78
598.17	1769.44
598.36	1742.82
598.56	1759.21
598.75	1691.62
598.94	1757.16
599.14	1779.68
599.33	1656.81
599.52	1787.88
599.71	1697.77
599.91	1796.07
600.10	1728.49
600.29	1763.30
600.48	1783.78
600.68	1720.29
600.87	1767.40
601.06	1679.33
601.26	1806.31
601.45	1740.77
601.64	1691.62
601.83	1845.22
602.03	1693.67
602.22	1632.23
602.41	1738.73
602.60	1863.65
602.80	1769.44
602.99	1732.58
603.18	1730.53
603.37	1757.16
603.57	1769.44
603.76	1814.50
603.95	1740.77
604.14	1677.29
604.34	1796.07
604.53	1751.01
604.72	1687.53
604.91	1802.21
605.10	1814.50
605.30	1630.18
605.49	1810.40
605.68	1816.55
605.87	1746.92
606.07	1695.72
606.26	1605.61
606.45	1851.36
606.64	1779.68
606.84	1730.53
607.03	1703.91
607.22	1785.83
607.41	1613.80
607.60	1691.62
607.80	1800.16
607.99	1730.53
608.18	1777.64
608.37	1662.95
608.56	1728.49
608.76	1826.79
608.95	1873.89
609.14	1701.86
609.33	1757.16
609.52	1763.30
609.72	1789.92
609.91	1847.27
610.10	1757.16
610.29	1794.02
610.48	1757.16
610.68	1812.45
610.87	1652.71
611.06	1822.69
611.25	1767.40
611.44	1808.36
611.63	1773.54
611.83	1771.49
612.02	1677.29
612.21	1837.03
612.40	1605.61
612.59	1712.10
612.79	1654.76
612.98	1714.15
613.17	1814.50
613.36	1697.77
613.55	1886.18
613.74	1665.00
613.93	1738.73
614.13	1712.10
614.32	1738.73
614.51	1808.36
614.70	1748.97
614.89	1667.05
615.08	1783.78
615.28	1998.82
615.47	1654.76
615.66	1767.40
615.85	1703.91
616.04	1810.40
616.23	1685.48
616.42	1728.49
616.62	1791.97
616.81	1712.10
617.00	1718.25
617.19	1757.16
617.38	1654.76
617.57	1681.38
617.76	1769.44
617.95	1671.14
618.15	1732.58
618.34	1787.88
618.53	1656.81
618.72	1785.83
618.91	1824.74
619.10	1853.41
619.29	1714.15
619.48	1748.97
619.68	1714.15
619.87	1738.73
620.06	1742.82
620.25	1742.82
620.44	1701.86
620.63	1701.86
620.82	1697.77
621.01	1759.21
621.20	1738.73
621.39	1763.30
621.59	1759.21
621.78	1673.19
621.97	1757.16
622.16	1779.68
622.35	1736.68
622.54	1699.81
622.73	1740.77
622.92	1679.33
623.11	1734.63
623.30	1714.15
623.49	1785.83
623.68	1720.29
623.88	1654.76
624.07	1687.53
624.26	1683.43
624.45	1728.49
624.64	1705.96
624.83	1816.55
625.02	1714.15
625.21	1787.88
625.40	1806.31
625.59	1773.54
625.78	1781.73
625.97	1855.46
626.16	1828.84
626.35	1667.05
626.54	1769.44
626.74	1769.44
626.93	1718.25
627.12	1701.86
627.31	1714.15
627.50	1816.55
627.69	1763.30
627.88	1632.23
628.07	1708.01
628.26	1585.13
628.45	1669.09
628.64	1740.77
628.83	1714.15
629.02	1662.95
629.21	1748.97
629.40	1714.15
629.59	1646.57
629.78	1730.53
629.97	1742.82
630.16	1671.14
630.35	1775.59
630.54	1751.01
630.73	1699.81
630.92	1744.87
631.11	1677.29
631.30	1765.35
631.49	1808.36
631.68	1695.72
631.87	1751.01
632.06	1689.57
632.25	1890.28
632.44	1681.38
632.63	1689.57
632.82	1607.66
633.01	1628.14
633.20	1691.62
633.39	1665.00
633.58	1705.96
633.77	1781.73
633.96	1789.92
634.15	1765.35
634.34	1791.97
634.53	1755.11
634.72	1732.58
634.91	1617.90
635.10	1769.44
635.29	1744.87
635.48	1730.53
635.67	1728.49
635.86	1609.70
636.05	1783.78
636.24	1693.67
636.43	1736.68
636.62	1755.11
636.81	1640.42
637.00	1763.30
637.19	1761.25
637.38	1783.78
637.57	1728.49
637.76	1720.29
637.95	1718.25
638.14	1644.52
638.33	1650.66
638.52	1665.00
638.71	1644.52
638.89	1630.18
639.08	1851.36
639.27	1832.93
639.46	1695.72
639.65	1779.68
639.84	1728.49
640.03	1783.78
640.22	1673.19
640.41	1884.13
640.60	1677.29
640.79	1796.07
640.98	1650.66
641.17	1875.94
641.36	1677.29
641.55	1759.21
641.74	1662.95
641.92	1636.33
642.11	1703.91
642.30	1667.05
642.49	1652.71
642.68	1642.47
642.87	1781.73
643.06	1728.49
643.25	1650.66
643.44	1681.38
643.63	1753.06
643.82	1771.49
644.00	1689.57
644.19	1736.68
644.38	1593.32
644.57	1796.07
644.76	1708.01
644.95	1804.26
645.14	1728.49
645.33	1685.48
645.52	1701.86
645.71	1724.39
645.89	1671.14
646.08	1660.90
646.27	1671.14
646.46	1855.46
646.65	1615.85
646.84	1730.53
647.03	1646.57
647.22	1765.35
647.40	1689.57
647.59	1648.61
647.78	1701.86
647.97	1644.52
648.16	1685.48
648.35	1777.64
648.54	1857.51
648.73	1679.33
648.91	1783.78
649.10	1722.34
649.29	1589.22
649.48	1650.66
649.67	1800.16
649.86	1689.57
650.05	1648.61
650.23	1732.58
650.42	1681.38
650.61	1779.68
650.80	1757.16
650.99	1869.80
651.18	1765.35
651.36	1689.57
651.55	1677.29
651.74	1767.40
651.93	1638.38
652.12	1677.29
652.31	1714.15
652.49	1656.81
652.68	1738.73
652.87	1732.58
653.06	1691.62
653.25	1783.78
653.44	1748.97
653.62	1763.30
653.81	1708.01
654.00	1667.05
654.19	1757.16
654.38	1849.32
654.56	1789.92
654.75	1630.18
654.94	1751.01
655.13	1820.64
655.32	1708.01
655.51	1699.81
655.69	1689.57
655.88	1759.21
656.07	1730.53
656.26	1841.12
656.45	1638.38
656.63	1783.78
656.82	1789.92
657.01	1765.35
657.20	1628.14
657.38	1834.98
657.57	1640.42
657.76	1665.00
657.95	1728.49
658.14	1634.28
658.32	1705.96
658.51	1681.38
658.70	1695.72
658.89	1738.73
659.08	1812.45
659.26	1814.50
659.45	1679.33
659.64	1755.11
659.83	1669.09
660.01	1867.75
660.20	1701.86
660.39	1773.54
660.58	1656.81
660.76	1773.54
660.95	1642.47
661.14	1751.01
661.33	1673.19
661.51	1695.72
661.70	1699.81
661.89	1742.82
662.08	1736.68
662.26	1665.00
662.45	1650.66
662.64	1824.74
662.83	1789.92
663.01	1689.57
663.20	1787.88
663.39	1810.40
663.58	1705.96
663.76	1673.19
663.95	1779.68
664.14	1699.81
664.32	1665.00
664.51	1656.81
664.70	1665.00
664.89	1744.87
665.07	1673.19
665.26	1734.63
665.45	1699.81
665.64	1787.88
665.82	1767.40
666.01	1759.21
666.20	1724.39
666.38	1738.73
666.57	1816.55
666.76	2166.75
666.95	4485.05
667.13	10456.93
667.32	15288.09
667.51	17952.49
667.69	19218.14
667.88	17549.04
668.07	12404.55
668.25	9635.69
668.44	8114.05
668.63	7368.59
668.81	6758.30
669.00	6268.83
669.19	5842.85
669.38	5005.24
669.56	4542.39
669.75	3911.62
669.94	3340.24
670.12	2916.31
670.31	2549.72
670.50	2265.05
670.68	2047.97
670.87	1916.90
671.06	1806.31
671.24	1863.65
671.43	1865.70
671.62	1685.48
671.80	1585.13
671.99	1789.92
672.18	1742.82
672.36	1763.30
672.55	1724.39
672.74	1771.49
672.92	1742.82
673.11	1683.43
673.29	1638.38
673.48	1839.08
673.67	1742.82
673.85	1755.11
674.04	1673.19
674.23	1699.81
674.41	1828.84
674.60	1634.28
674.79	1607.66
674.97	1689.57
675.16	1771.49
675.34	1753.06
675.53	1665.00
675.72	1761.25
675.90	1824.74
676.09	1673.19
676.28	1689.57
676.46	1714.15
676.65	1742.82
676.83	1652.71
677.02	1671.14
677.21	1718.25
677.39	1738.73
677.58	1697.77
677.77	1695.72
677.95	1685.48
678.14	1714.15
678.32	1714.15
678.51	1693.67
678.70	1798.12
678.88	1716.20
679.07	1691.62
679.25	1673.19
679.44	1697.77
679.63	1636.33
679.81	1734.63
680.00	1804.26
680.18	1736.68
680.37	1769.44
680.55	1689.57
680.74	1632.23
680.93	1599.46
681.11	1734.63
681.30	1675.24
681.48	1708.01
681.67	1775.59
681.85	1689.57
682.04	1779.68
682.23	1820.64
682.41	1726.44
682.60	1685.48
682.78	1683.43
682.97	1621.99
683.15	1712.10
683.34	1728.49
683.53	1779.68
683.71	1677.29
683.90	1806.31
684.08	1800.16
684.27	1712.10
684.45	1736.68
684.64	1759.21
684.82	1597.42
685.01	1746.92
685.19	1675.24
685.38	1781.73
685.57	1695.72
685.75	1689.57
685.94	1720.29
686.12	1714.15
686.31	1671.14
686.49	1851.36
686.68	1609.70
686.86	1712.10
687.05	1642.47
687.23	1853.41
687.42	1712.10
687.60	1607.66
687.79	1847.27
687.97	1804.26
688.16	1718.25
688.34	1738.73
688.53	1689.57
688.71	1689.57
688.90	1761.25
689.08	1697.77
689.27	1669.09
689.45	1730.53
689.64	1732.58
689.82	1679.33
690.01	1730.53
690.19	1732.58
690.38	1740.77
690.56	1796.07
690.75	1665.00
690.93	1640.42
691.12	1640.42
691.30	1712.10
691.49	1591.27
691.67	1775.59
691.86	1738.73
692.04	1654.76
692.23	1619.94
692.41	1753.06
692.60	1890.28
692.78	1757.16
692.97	1636.33
693.15	1796.07
693.34	1796.07
693.52	1736.68
693.71	1693.67
693.89	1626.09
694.08	1564.65
694.26	1789.92
694.44	1710.05
694.63	1773.54
694.81	1634.28
695.00	1648.61
695.18	1710.05
695.37	1873.89
695.55	1734.63
695.74	1683.43
695.92	1677.29
696.10	1742.82
696.29	1581.03
696.47	1734.63
696.66	1703.91
696.84	1693.67
697.03	1716.20
697.21	1773.54
697.40	2250.72
697.58	1740.77
697.76	1683.43
697.95	1703.91
698.13	1689.57
698.32	1779.68
698.50	1685.48
698.68	1779.68
698.87	1779.68
699.05	1796.07
699.24	1675.24
699.42	1642.47
699.61	1712.10
699.79	1710.05
699.97	1732.58
700.16	1740.77
700.34	1703.91
700.53	1640.42
700.71	1826.79
700.89	1791.97
701.08	1611.75
701.26	1724.39
701.45	2199.52
701.63	1628.14
701.81	1759.21
702.00	1634.28
702.18	1718.25
702.37	1730.53
702.55	1718.25
702.73	1640.42
702.92	1697.77
703.10	1798.12
703.28	1748.97
703.47	1714.15
703.65	1816.55
703.84	1705.96
704.02	1644.52
704.20	1730.53
704.39	1605.61
704.57	1701.86
704.75	1777.64
704.94	1757.16
705.12	1814.50
705.30	1847.27
705.49	2269.15
705.67	4370.37
705.86	9201.52
706.04	12517.18
706.22	14284.58
706.41	15030.04
706.59	13735.73
706.77	9641.84
706.96	7352.21
707.14	6453.15
707.32	5914.53
707.51	5633.96
707.69	4734.90
707.87	4329.41
708.06	3512.27
708.24	2887.64
708.42	2385.88
708.61	2312.16
708.79	1906.66
708.97	1757.16
709.16	1869.80
709.34	1771.49
709.52	1673.19
709.71	1763.30
709.89	1802.21
710.07	1681.38
710.26	1689.57
710.44	1744.87
710.62	1841.12
710.80	1705.96
710.99	1736.68
711.17	1816.55
711.35	1630.18
711.54	1675.24
711.72	1867.75
711.90	1779.68
712.09	1730.53
712.27	1667.05
712.45	1716.20
712.63	1640.42
712.82	1716.20
713.00	1808.36
713.18	1808.36
713.37	1777.64
713.55	1695.72
713.73	1755.11
713.91	1716.20
714.10	1689.57
714.28	1740.77
714.46	1712.10
714.65	1775.59
714.83	1722.34
715.01	1736.68
715.19	1681.38
715.38	1732.58
715.56	1736.68
715.74	1705.96
715.92	1699.81
716.11	1918.95
716.29	1601.51
716.47	1769.44
716.65	1783.78
716.84	1669.09
717.02	1787.88
717.20	1660.90
717.38	1642.47
717.57	1658.85
717.75	1804.26
717.93	1710.05
718.11	1714.15
718.30	1705.96
718.48	1656.81
718.66	1716.20
718.84	1740.77
719.03	1660.90
719.21	1632.23
719.39	1796.07
719.57	1722.34
719.75	1787.88
719.94	1648.61
720.12	1730.53
720.30	1689.57
720.48	1701.86
720.67	1787.88
720.85	1724.39
721.03	1658.85
721.21	1677.29
721.39	1841.12
721.58	1691.62
721.76	1732.58
721.94	1693.67
722.12	1685.48
722.30	1763.30
722.49	1722.34
722.67	1714.15
722.85	1779.68
723.03	1591.27
723.21	1689.57
723.40	1738.73
723.58	1794.02
723.76	1757.16
723.94	1763.30
724.12	1705.96
724.30	1816.55
724.49	1824.74
724.67	1656.81
724.85	1779.68
725.03	1626.09
725.21	1742.82
725.40	1738.73
725.58	1699.81
725.76	1751.01
725.94	1728.49
726.12	1718.25
726.30	1708.01
726.49	1718.25
726.67	1665.00
726.85	1751.01
727.03	1751.01
727.21	2152.42
727.39	2998.23
727.57	3837.89
727.76	4249.54
727.94	4476.86
728.12	4405.18
728.30	3715.02
728.48	2979.79
728.66	2793.43
728.84	2637.78
729.03	2316.25
729.21	2129.89
729.39	1970.15
729.57	1861.60
729.75	1769.44
729.93	1787.88
730.11	1738.73
730.30	1769.44
730.48	1726.44
730.66	1669.09
730.84	1771.49
731.02	1708.01
731.20	1732.58
731.38	1687.53
731.56	1697.77
731.74	1656.81
731.93	1769.44
732.11	1767.40
732.29	1726.44
732.47	1818.60
732.65	1703.91
732.83	1802.21
733.01	1769.44
733.19	1748.97
733.37	1740.77
733.56	1767.40
733.74	1712.10
733.92	1824.74
734.10	1710.05
734.28	1755.11
734.46	1740.77
734.64	1671.14
734.82	1615.85
735.00	1697.77
735.18	1595.37
735.36	1701.86
735.54	1689.57
735.73	1705.96
735.91	1755.11
736.09	1746.92
736.27	1714.15
736.45	1796.07
736.63	1650.66
736.81	1642.47
736.99	1730.53
737.17	1771.49
737.35	1658.85
737.53	1724.39
737.71	1714.15
737.89	1761.25
738.07	1751.01
738.25	1617.90
738.43	1611.75
738.61	1726.44
738.80	1658.85
738.98	1689.57
739.16	1632.23
739.34	1728.49
739.52	1806.31
739.70	1757.16
739.88	1726.44
740.06	1847.27
740.24	1587.18
740.42	1810.40
740.60	1562.60
740.78	1738.73
740.96	1591.27
741.14	1763.30
741.32	1789.92
741.50	1681.38
741.68	1843.17
741.86	1818.60
742.04	1667.05
742.22	1650.66
742.40	1761.25
742.58	1751.01
742.76	1630.18
742.94	1796.07
743.12	1689.57
743.30	1751.01
743.48	1798.12
743.66	1677.29
743.84	1736.68
744.02	1714.15
744.20	1744.87
744.38	1673.19
744.56	1609.70
744.74	1755.11
744.92	1675.24
745.10	1818.60
745.28	1804.26
745.46	1683.43
745.64	1744.87
745.82	1812.45
746.00	1734.63
746.18	1660.90
746.36	1658.85
746.54	1789.92
746.72	1724.39
746.90	1685.48
747.08	1763.30
747.26	1697.77
747.44	1814.50
747.62	1785.83
747.80	1726.44
747.98	1714.15
748.15	1691.62
748.33	1765.35
748.51	1773.54
748.69	1742.82
748.87	1574.89
749.05	1630.18
749.23	1716.20
749.41	1742.82
749.59	1681.38
749.77	1708.01
749.95	1679.33
750.13	1730.53
750.31	1732.58
750.49	1771.49
750.67	1761.25
750.85	1873.89
751.03	1732.58
751.20	1820.64
751.38	1685.48
751.56	1755.11
751.74	1654.76
751.92	1669.09
752.10	1691.62
752.28	1757.16
752.46	1689.57
752.64	1701.86
752.82	1791.97
753.00	1794.02
753.18	1628.14
753.35	1660.90
753.53	1652.71
753.71	1675.24
753.89	1783.78
754.07	1757.16
754.25	1705.96
754.43	1816.55
754.61	1591.27
754.79	1705.96
754.97	1693.67
755.14	1726.44
755.32	1626.09
755.50	1767.40
755.68	1695.72
755.86	1689.57
756.04	1675.24
756.22	1566.70
756.40	1716.20
756.57	1849.32
756.75	1660.90
756.93	1853.41
757.11	1783.78
757.29	1673.19
757.47	1685.48
757.65	1640.42
757.82	1542.12
758.00	1673.19
758.18	1669.09
758.36	1726.44
758.54	1826.79
758.72	1662.95
758.90	1804.26
759.07	1767.40
759.25	1705.96
759.43	1773.54
759.61	1652.71
759.79	2199.52
759.97	1740.77
760.15	1640.42
760.32	1648.61
760.50	1703.91
760.68	1755.11
760.86	1638.38
761.04	1759.21
761.22	1742.82
761.39	1703.91
761.57	1804.26
761.75	1720.29
761.93	1787.88
762.11	1753.06
762.28	1789.92
762.46	1722.34
762.64	1763.30
762.82	1591.27
763.00	1683.43
763.18	1783.78
763.35	1667.05
763.53	1708.01
763.71	1736.68
763.89	1667.05
764.07	1710.05
764.24	1728.49
764.42	1710.05
764.60	1685.48
764.78	1722.34
764.96	1742.82
765.13	1724.39
765.31	1781.73
765.49	1671.14
765.67	1634.28
765.84	1654.76
766.02	1656.81
766.20	1669.09
766.38	1744.87
766.56	1804.26
766.73	1712.10
766.91	1658.85
767.09	1742.82
767.27	1689.57
767.44	1654.76
767.62	1708.01
767.80	1763.30
767.98	1673.19
768.15	1759.21
768.33	1734.63
768.51	1740.77
768.69	1671.14
768.87	1740.77
769.04	1638.38
769.22	1839.08
769.40	1810.40
769.58	1933.28
769.75	1716.20
769.93	1787.88
770.11	1748.97
770.28	1574.89
770.46	1740.77
770.64	1734.63
770.82	1638.38
770.99	1701.86
771.17	1705.96
771.35	1722.34
771.53	1730.53
771.70	1759.21
771.88	1738.73
772.06	1644.52
772.23	1732.58
772.41	1701.86
772.59	1708.01
772.77	1621.99
772.94	1697.77
773.12	1730.53
773.30	1761.25
773.47	1738.73
773.65	1746.92
773.83	1802.21
774.01	1714.15
774.18	1634.28
774.36	1720.29
774.54	1621.99
774.71	1775.59
774.89	1671.14
775.07	1654.76
775.24	1701.86
775.42	1673.19
775.60	1855.46
775.78	1748.97
775.95	1732.58
776.13	1630.18
776.31	1560.55
776.48	1757.16
776.66	1798.12
776.84	1587.18
777.01	1716.20
777.19	1656.81
777.37	1708.01
777.54	1697.77
777.72	1830.88
777.90	1728.49
778.07	1671.14
778.25	1908.71
778.43	1734.63
778.60	1697.77
778.78	1746.92
778.96	1728.49
779.13	1697.77
779.31	1763.30
779.49	1667.05
779.66	1783.78
779.84	1689.57
780.01	1683.43
780.19	1632.23
780.37	1787.88
780.54	1728.49
780.72	1703.91
780.90	1771.49
781.07	1673.19
781.25	1763.30
781.43	1740.77
781.60	1644.52
781.78	1783.78
781.95	1738.73
782.13	1708.01
782.31	1726.44
782.48	1634.28
782.66	1675.24
782.83	1837.03
783.01	1775.59
783.19	1777.64
783.36	1736.68
783.54	1652.71
783.72	1830.88
783.89	1701.86
784.07	1699.81
784.24	1783.78
784.42	1742.82
784.60	1665.00
784.77	1746.92
784.95	1554.41
785.12	1667.05
785.30	1714.15
785.47	1667.05
785.65	1681.38
785.83	1714.15
786.00	1771.49
786.18	1828.84
786.35	1609.70
786.53	1607.66
786.71	1886.18
786.88	1761.25
787.06	1789.92
787.23	1677.29
787.41	1640.42
787.58	1701.86
787.76	1691.62
787.94	1755.11
788.11	1646.57
788.29	1667.05
788.46	1755.11
788.64	1656.81
788.81	1689.57
788.99	1665.00
789.16	1701.86
789.34	1665.00
789.52	1755.11
789.69	1697.77
789.87	1591.27
790.04	1636.33
790.22	1673.19
790.39	1806.31
790.57	1638.38
790.74	1671.14
790.92	1742.82
791.09	1669.09
791.27	1701.86
791.44	1714.15
791.62	1630.18
791.79	1818.60
791.97	1736.68
792.15	1834.98
792.32	1781.73
792.50	1820.64
792.67	1802.21
792.85	1861.60
793.02	1695.72
793.20	1667.05
793.37	1693.67
793.55	1708.01
793.72	1644.52
793.90	1742.82
794.07	1714.15
794.25	1638.38
794.42	1697.77
794.60	1775.59
794.77	1728.49
794.95	1789.92
795.12	1822.69
795.30	1669.09
795.47	1609.70
795.65	1871.84
795.82	1675.24
796.00	1621.99
796.17	1673.19
796.34	1656.81
796.52	1701.86
796.69	1720.29
796.87	1701.86
797.04	1681.38
797.22	1714.15
797.39	1728.49
797.57	1712.10
797.74	1744.87
797.92	1710.05
798.09	1673.19
798.27	1740.77
798.44	1738.73
798.62	1740.77
798.79	1665.00
798.96	1685.48
799.14	1673.19
799.31	1935.33
799.49	1746.92
799.66	1693.67
799.84	1783.78
800.01	1566.70
800.19	1638.38
800.36	1617.90
800.53	1720.29
800.71	1726.44
800.88	1814.50
801.06	1718.25
801.23	1708.01
801.41	1779.68
801.58	1638.38
801.75	1673.19
801.93	1634.28
802.10	1742.82
802.28	1671.14
802.45	1722.34
802.63	1800.16
802.80	1738.73
802.97	1714.15
803.15	1671.14
803.32	1679.33
803.50	1679.33
803.67	1660.90
803.84	1693.67
804.02	1730.53
804.19	1703.91
804.37	1576.94
804.54	1693.67
804.71	1722.34
804.89	1693.67
805.06	1693.67
805.24	1673.19
805.41	1599.46
805.58	1656.81
805.76	1834.98
805.93	1720.29
806.10	1746.92
806.28	1738.73
806.45	1755.11
806.63	1691.62
806.80	1613.80
806.97	1738.73
807.15	1728.49
807.32	1734.63
807.49	1802.21
807.67	1669.09
807.84	1701.86
808.01	1632.23
808.19	1843.17
808.36	1812.45
808.54	1624.04
808.71	1632.23
808.88	1751.01
809.06	1683.43
809.23	1845.22
809.40	1658.85
809.58	1753.06
809.75	1763.30
809.92	1617.90
810.10	1800.16
810.27	1671.14
810.44	1724.39
810.62	1800.16
810.79	1744.87
810.96	1662.95
811.14	1665.00
811.31	1783.78
811.48	1859.56
811.66	1730.53
811.83	1794.02
812.00	1730.53
812.18	1769.44
812.35	1839.08
812.52	1714.15
812.69	1658.85
812.87	1644.52
813.04	1705.96
813.21	1648.61
813.39	1648.61
813.56	1644.52
813.73	1783.78
813.91	1630.18
814.08	1705.96
814.25	1722.34
814.42	1589.22
814.60	1689.57
814.77	1714.15
814.94	1689.57
815.12	1621.99
815.29	1759.21
815.46	1699.81
815.63	1753.06
815.81	1693.67
815.98	1767.40
816.15	1675.24
816.33	1673.19
816.50	1726.44
816.67	1683.43
816.84	1708.01
817.02	1619.94
817.19	1658.85
817.36	1748.97
817.53	1720.29
817.71	1628.14
817.88	1679.33
818.05	1597.42
818.22	1705.96
818.40	1781.73
818.57	1683.43
818.74	1724.39
818.91	1671.14
819.09	1814.50
819.26	1808.36
819.43	1705.96
819.60	1695.72
819.78	1761.25
819.95	1720.29
820.12	1634.28
820.29	1794.02
820.47	1810.40
820.64	1667.05
820.81	1595.37
820.98	1634.28
821.15	1720.29
821.33	1714.15
821.50	1595.37
821.67	1773.54
821.84	1634.28
822.02	1693.67
822.19	1738.73
822.36	1685.48
822.53	1697.77
822.70	1701.86
822.88	1755.11
823.05	1763.30
823.22	1689.57
823.39	1734.63
823.56	1705.96
823.74	1841.12
823.91	1607.66
824.08	1673.19
824.25	1581.03
824.42	1796.07
824.60	1615.85
824.77	1742.82
824.94	1662.95
825.11	1769.44
825.28	1646.57
825.45	1779.68
825.63	1701.86
825.80	1632.23
825.97	1732.58
826.14	1765.35
826.31	1574.89
826.48	1722.34
826.66	1695.72
826.83	1728.49
827.00	1648.61
827.17	1658.85
827.34	1681.38
827.51	1759.21
827.69	1665.00
827.86	1630.18
828.03	1806.31
828.20	1730.53
828.37	1689.57
828.54	1703.91
828.71	1611.75
828.89	1832.93
829.06	1718.25
829.23	1693.67
829.40	1712.10
829.57	1693.67
829.74	1732.58
829.91	1685.48
830.09	1585.13
830.26	1673.19
830.43	1728.49
830.60	1685.48
830.77	1703.91
830.94	1755.11
831.11	1806.31
831.28	1726.44
831.46	1757.16
831.63	1705.96
831.80	1712.10
831.97	1695.72
832.14	1669.09
832.31	1734.63
832.48	1732.58
832.65	1728.49
832.82	1728.49
832.99	1798.12
833.17	1660.90
833.34	1794.02
833.51	1677.29
833.68	1630.18
833.85	1824.74
834.02	1673.19
834.19	1636.33
834.36	1658.85
834.53	1738.73
834.70	1800.16
834.87	1761.25
835.04	1632.23
835.22	1570.79
835.39	1617.90
835.56	1712.10
835.73	1730.53
835.90	1748.97
836.07	1640.42
836.24	1761.25
836.41	1574.89
836.58	1667.05
836.75	1785.83
836.92	1855.46
837.09	1665.00
837.26	1710.05
837.43	1681.38
837.60	1751.01
837.77	1669.09
837.94	1660.90
838.12	1796.07
838.29	1753.06
838.46	1617.90
838.63	1646.57
838.80	1820.64
838.97	1689.57
839.14	1710.05
839.31	1724.39
839.48	1783.78
839.65	1669.09
839.82	1791.97
839.99	1703.91
840.16	1712.10
840.33	1665.00
840.50	1691.62
840.67	1662.95
840.84	1511.40
841.01	1695.72
841.18	1660.90
841.35	1699.81
841.52	1732.58
841.69	1857.51
841.86	1703.91
842.03	1714.15
842.20	1818.60
842.37	1644.52
842.54	1685.48
842.71	1720.29
842.88	1597.42
843.05	1800.16
843.22	1714.15
843.39	1832.93
843.56	1673.19
843.73	1689.57
843.90	1703.91
844.07	1746.92
844.24	1802.21
844.41	1806.31
844.58	1626.09
844.75	1693.67
844.92	1658.85
845.09	1683.43
845.26	1650.66
845.43	1732.58
845.60	1656.81
845.77	1736.68
845.94	1738.73
846.10	1705.96
846.27	1648.61
846.44	1632.23
846.61	1648.61
846.78	1732.58
846.95	1736.68
847.12	1699.81
847.29	1650.66
847.46	1687.53
847.63	1779.68
847.80	1669.09
847.97	1724.39
848.14	1814.50
848.31	1785.83
848.48	1654.76
848.65	1738.73
848.82	1642.47
848.98	1920.99
849.15	1742.82
849.32	1794.02
849.49	1710.05
849.66	1791.97
849.83	1716.20
850.00	1665.00
850.17	1738.73
850.34	1716.20
850.51	1695.72
850.68	1679.33
850.85	1746.92
851.01	1671.14
851.18	1681.38
851.35	1736.68
851.52	1738.73
851.69	1724.39
851.86	1593.32
852.03	1689.57
852.20	1724.39
852.37	1718.25
852.53	1681.38
852.70	1701.86
852.87	1673.19
853.04	1722.34
853.21	1712.10
853.38	1705.96
853.55	1759.21
853.72	1753.06
853.89	1632.23
854.05	1607.66
854.22	1703.91
854.39	1697.77
854.56	1742.82
854.73	1783.78
854.90	1597.42
855.07	1658.85
855.23	1574.89
855.40	1683.43
855.57	1742.82
855.74	1601.51
855.91	1849.32
856.08	1591.27
856.25	1601.51
856.41	1693.67
856.58	1685.48
856.75	1742.82
856.92	1609.70
857.09	1789.92
857.26	1687.53
857.42	1705.96
857.59	1738.73
857.76	1726.44
857.93	1742.82
858.10	1734.63
858.27	1617.90
858.43	1703.91
858.60	1705.96
858.77	1585.13
858.94	1689.57
859.11	1730.53
859.27	1701.86
859.44	1693.67
859.61	1859.56
859.78	1671.14
859.95	1703.91
860.12	1742.82
860.28	1794.02
860.45	1826.79
860.62	1693.67
860.79	1740.77
860.95	1634.28
861.12	1650.66
861.29	1662.95
861.46	1695.72
861.63	1722.34
861.79	1734.63
861.96	1603.56
862.13	1607.66
862.30	1820.64
862.47	1683.43
862.63	1683.43
862.80	1685.48
862.97	1867.75
863.14	1642.47
863.30	1685.48
863.47	1669.09
863.64	1785.83
863.81	1714.15
863.97	1617.90
864.14	1763.30
864.31	1695.72
864.48	1646.57
864.65	1695.72
864.81	1714.15
864.98	1800.16
865.15	1718.25
865.32	1746.92
865.48	1789.92
865.65	1751.01
865.82	1675.24
865.98	1757.16
866.15	1671.14
866.32	1775.59
866.49	1607.66
866.65	1703.91
866.82	1714.15
866.99	1738.73
867.16	1632.23
867.32	1605.61
867.49	1699.81
867.66	1658.85
867.83	1689.57
867.99	1656.81
868.16	1751.01
868.33	1652.71
868.49	1724.39
868.66	1736.68
868.83	1701.86
868.99	1658.85
869.16	1644.52
869.33	1722.34
869.50	1798.12
869.66	1718.25
869.83	1796.07
870.00	1642.47
870.16	1746.92
870.33	1648.61
870.50	1714.15
870.66	1691.62
870.83	1759.21
871.00	1755.11
871.17	1716.20
871.33	1699.81
871.50	1746.92
871.67	1773.54
871.83	1687.53
872.00	1783.78
872.17	1705.96
872.33	1791.97
872.50	1701.86
872.67	1722.34
872.83	1701.86
873.00	1767.40
873.17	1689.57
873.33	1710.05
873.50	1677.29
873.67	1703.91
873.83	1689.57
874.00	1722.34
874.16	1724.39
874.33	1697.77
874.50	1681.38
874.66	1748.97
874.83	1662.95
875.00	1757.16
875.16	1761.25
875.33	1755.11
875.50	1609.70
875.66	1681.38
875.83	1757.16
875.99	1771.49
876.16	1722.34
876.33	1562.60
876.49	1671.14
876.66	1800.16
876.83	1728.49
876.99	1646.57
877.16	1757.16
877.32	1761.25
877.49	1681.38
877.66	1695.72
877.82	1730.53
877.99	1716.20
878.15	1759.21
878.32	1705.96
878.49	1677.29
878.65	1656.81
878.82	1748.97
878.98	1722.34
879.15	1720.29
879.32	1775.59
879.48	1662.95
879.65	1722.34
879.81	1665.00
879.98	1757.16
880.15	1628.14
880.31	1687.53
880.48	1572.84
880.64	1779.68
880.81	1755.11
880.97	1847.27
881.14	1753.06
881.31	1734.63
881.47	1761.25
881.64	1654.76
881.80	1683.43
881.97	1787.88
882.13	1689.57
882.30	1617.90
882.47	1693.67
882.63	1671.14
882.80	1646.57
882.96	1632.23
883.13	1871.84
883.29	1755.11
883.46	1644.52
883.62	1839.08
883.79	1679.33
883.95	1667.05
884.12	1718.25
884.29	1789.92
884.45	1798.12
884.62	1708.01
884.78	1632.23
884.95	1841.12
885.11	1681.38
885.28	1783.78
885.44	1607.66
885.61	1734.63
885.77	1818.60
885.94	1708.01
886.10	1710.05
886.27	1791.97
886.43	1757.16
886.60	1779.68
886.76	1693.67
886.93	1636.33
887.09	1697.77
887.26	1681.38
887.42	1656.81
887.59	1785.83
887.75	1822.69
887.92	1740.77
888.08	1763.30
888.25	1787.88
888.41	1773.54
888.58	1732.58
888.74	1613.80
888.91	1648.61
>>>>>End Processed Spectral Data<<<<<
