SpectraSuite Data File
++++++++++++++++++++++++++++++++++++
Date: Mon Jun 06 12:49:17 CEST 2016
User: root
Dark Spectrum Present: No
Reference Spectrum Present: No
Number of Sampled Component Spectra: 1
Spectrometers: USB4C02835
Integration Time (usec): 100000 (USB4C02835)
Spectra Averaged: 1 (USB4C02835)
Boxcar Smoothing: 0 (USB4C02835)
Correct for Electrical Dark: No (USB4C02835)
Strobe/Lamp Enabled: No (USB4C02835)
Correct for Detector Non-linearity: No (USB4C02835)
Correct for Stray Light: No (USB4C02835)
Number of Pixels in Processed Spectrum: 3648
>>>>>Begin Processed Spectral Data<<<<<
177.47	1472.49
177.69	1472.49
177.91	1472.49
178.13	1425.39
178.36	1411.05
178.58	1673.19
178.80	1730.53
179.02	1601.51
179.24	1619.94
179.46	1648.61
179.68	1761.25
179.90	1634.28
180.13	1691.62
180.35	1712.10
180.57	1716.20
180.79	1734.63
181.01	1642.47
181.23	1746.92
181.45	1775.59
181.67	1724.39
181.90	1652.71
182.12	1710.05
182.34	1660.90
182.56	1714.15
182.78	1748.97
183.00	1697.77
183.22	1736.68
183.44	1578.98
183.66	1789.92
183.89	1787.88
184.11	1708.01
184.33	1769.44
184.55	1804.26
184.77	1763.30
184.99	1775.59
185.21	1626.09
185.43	1828.84
185.65	1728.49
185.87	1691.62
186.10	1839.08
186.32	1787.88
186.54	1718.25
186.76	1781.73
186.98	1718.25
187.20	1634.28
187.42	1703.91
187.64	1628.14
187.86	1718.25
188.08	1689.57
188.30	1638.38
188.52	1699.81
188.75	1775.59
188.97	1759.21
189.19	1722.34
189.41	1650.66
189.63	1732.58
189.85	1724.39
190.07	1646.57
190.29	1646.57
190.51	1660.90
190.73	1615.85
190.95	1736.68
191.17	1654.76
191.39	1611.75
191.61	1755.11
191.84	1611.75
192.06	1720.29
192.28	1628.14
192.50	1804.26
192.72	1701.86
192.94	1716.20
193.16	1818.60
193.38	1738.73
193.60	1675.24
193.82	1687.53
194.04	1781.73
194.26	1716.20
194.48	1744.87
194.70	1667.05
194.92	1716.20
195.14	1761.25
195.36	1624.04
195.58	1730.53
195.80	1734.63
196.02	1656.81
196.24	1734.63
196.46	1710.05
196.69	1699.81
196.91	1886.18
197.13	1699.81
197.35	1626.09
197.57	1761.25
197.79	1765.35
198.01	1669.09
198.23	1724.39
198.45	1744.87
198.67	1591.27
198.89	1726.44
199.11	1710.05
199.33	1693.67
199.55	1626.09
199.77	1726.44
199.99	1693.67
200.21	1683.43
200.43	1652.71
200.65	1658.85
200.87	1585.13
201.09	1712.10
201.31	1714.15
201.53	1724.39
201.75	1771.49
201.97	1738.73
202.19	1693.67
202.41	1734.63
202.63	1855.46
202.85	1746.92
203.07	1701.86
203.29	1675.24
203.51	1671.14
203.73	1642.47
203.95	1898.47
204.17	1771.49
204.39	1644.52
204.61	1722.34
204.83	1691.62
205.05	1714.15
205.27	1828.84
205.49	1808.36
205.71	1796.07
205.93	1601.51
206.15	1626.09
206.37	1699.81
206.59	1656.81
206.81	1619.94
207.03	1632.23
207.25	1624.04
207.47	1701.86
207.69	1642.47
207.91	1742.82
208.13	1779.68
208.34	1658.85
208.56	1642.47
208.78	1718.25
209.00	1669.09
209.22	1640.42
209.44	1667.05
209.66	1650.66
209.88	1654.76
210.10	1652.71
210.32	1748.97
210.54	1767.40
210.76	1679.33
210.98	1728.49
211.20	1628.14
211.42	1740.77
211.64	1755.11
211.86	1714.15
212.08	1695.72
212.30	1710.05
212.52	1605.61
212.74	1687.53
212.96	1742.82
213.17	1718.25
213.39	1705.96
213.61	1744.87
213.83	1673.19
214.05	1656.81
214.27	1785.83
214.49	1644.52
214.71	1665.00
214.93	1736.68
215.15	1730.53
215.37	1798.12
215.59	1687.53
215.81	1730.53
216.03	1751.01
216.24	1685.48
216.46	1689.57
216.68	1724.39
216.90	1748.97
217.12	1824.74
217.34	1775.59
217.56	1759.21
217.78	1742.82
218.00	1722.34
218.22	1716.20
218.44	1720.29
218.66	1794.02
218.87	1796.07
219.09	1689.57
219.31	1681.38
219.53	1810.40
219.75	1689.57
219.97	1705.96
220.19	1650.66
220.41	1677.29
220.63	1738.73
220.85	1763.30
221.06	1705.96
221.28	1748.97
221.50	1785.83
221.72	1714.15
221.94	1769.44
222.16	1748.97
222.38	1732.58
222.60	1753.06
222.82	1634.28
223.03	1757.16
223.25	1624.04
223.47	1781.73
223.69	1804.26
223.91	1736.68
224.13	1708.01
224.35	1656.81
224.57	1777.64
224.78	1705.96
225.00	1619.94
225.22	1667.05
225.44	1677.29
225.66	1691.62
225.88	1675.24
226.10	1775.59
226.32	1769.44
226.53	1794.02
226.75	1693.67
226.97	1644.52
227.19	1677.29
227.41	1724.39
227.63	1662.95
227.85	1570.79
228.06	1724.39
228.28	1689.57
228.50	1800.16
228.72	1683.43
228.94	1642.47
229.16	1638.38
229.37	1566.70
229.59	1673.19
229.81	1800.16
230.03	1736.68
230.25	1621.99
230.47	1665.00
230.69	1648.61
230.90	1740.77
231.12	1603.56
231.34	1763.30
231.56	1736.68
231.78	1656.81
232.00	1716.20
232.21	1722.34
232.43	1609.70
232.65	1615.85
232.87	1699.81
233.09	1609.70
233.30	1656.81
233.52	1642.47
233.74	1667.05
233.96	1681.38
234.18	1728.49
234.40	1683.43
234.61	1816.55
234.83	1634.28
235.05	1617.90
235.27	1822.69
235.49	1724.39
235.70	1724.39
235.92	1722.34
236.14	1714.15
236.36	1865.70
236.58	1624.04
236.79	1724.39
237.01	1755.11
237.23	1683.43
237.45	1693.67
237.67	1652.71
237.88	1681.38
238.10	1783.78
238.32	1681.38
238.54	1685.48
238.76	1673.19
238.97	1673.19
239.19	1742.82
239.41	1718.25
239.63	1773.54
239.85	1720.29
240.06	1705.96
240.28	1644.52
240.50	1814.50
240.72	1705.96
240.93	1703.91
241.15	1744.87
241.37	1675.24
241.59	1759.21
241.81	1718.25
242.02	1734.63
242.24	1722.34
242.46	1732.58
242.68	1646.57
242.89	1744.87
243.11	1738.73
243.33	1679.33
243.55	1683.43
243.76	1757.16
243.98	1687.53
244.20	1701.86
244.42	1742.82
244.64	1691.62
244.85	1673.19
245.07	1560.55
245.29	1728.49
245.51	1673.19
245.72	1722.34
245.94	1783.78
246.16	1669.09
246.38	1726.44
246.59	1648.61
246.81	1652.71
247.03	1640.42
247.24	1703.91
247.46	1634.28
247.68	1710.05
247.90	1578.98
248.11	1714.15
248.33	1775.59
248.55	1787.88
248.77	1705.96
248.98	1724.39
249.20	1787.88
249.42	1673.19
249.64	1693.67
249.85	1701.86
250.07	1683.43
250.29	1722.34
250.50	1720.29
250.72	1626.09
250.94	1724.39
251.16	1818.60
251.37	1767.40
251.59	1738.73
251.81	1736.68
252.02	1767.40
252.24	1650.66
252.46	1804.26
252.68	1640.42
252.89	1671.14
253.11	1624.04
253.33	1865.70
253.54	1722.34
253.76	1566.70
253.98	1755.11
254.20	1779.68
254.41	1626.09
254.63	1691.62
254.85	1611.75
255.06	1693.67
255.28	1673.19
255.50	1722.34
255.71	1648.61
255.93	1636.33
256.15	1681.38
256.36	1656.81
256.58	1621.99
256.80	1765.35
257.02	1697.77
257.23	1650.66
257.45	1685.48
257.67	1779.68
257.88	1679.33
258.10	1669.09
258.32	1642.47
258.53	1748.97
258.75	1843.17
258.97	1728.49
259.18	1705.96
259.40	1679.33
259.62	1796.07
259.83	1730.53
260.05	1712.10
260.27	1918.95
260.48	1742.82
260.70	1640.42
260.92	1718.25
261.13	1716.20
261.35	1779.68
261.57	1751.01
261.78	1599.46
262.00	1656.81
262.22	1677.29
262.43	1632.23
262.65	1646.57
262.86	1712.10
263.08	1841.12
263.30	1720.29
263.51	1617.90
263.73	1642.47
263.95	1828.84
264.16	1603.56
264.38	1685.48
264.60	1757.16
264.81	1710.05
265.03	1753.06
265.25	1660.90
265.46	1722.34
265.68	1744.87
265.89	1720.29
266.11	1529.83
266.33	1746.92
266.54	1775.59
266.76	1755.11
266.98	1724.39
267.19	1742.82
267.41	1796.07
267.62	1621.99
267.84	1650.66
268.06	1701.86
268.27	1667.05
268.49	1748.97
268.70	1773.54
268.92	1679.33
269.14	1617.90
269.35	1552.36
269.57	1673.19
269.79	1650.66
270.00	1662.95
270.22	1781.73
270.43	1675.24
270.65	1556.46
270.87	1669.09
271.08	1806.31
271.30	1804.26
271.51	1724.39
271.73	1773.54
271.95	1757.16
272.16	1685.48
272.38	1751.01
272.59	1642.47
272.81	1761.25
273.02	1730.53
273.24	1714.15
273.46	1759.21
273.67	1660.90
273.89	1611.75
274.10	1658.85
274.32	1806.31
274.54	1785.83
274.75	1697.77
274.97	1718.25
275.18	1808.36
275.40	1771.49
275.61	1632.23
275.83	1730.53
276.05	1624.04
276.26	1744.87
276.48	1751.01
276.69	1648.61
276.91	1652.71
277.12	1763.30
277.34	1699.81
277.55	1757.16
277.77	1710.05
277.99	1624.04
278.20	1669.09
278.42	1681.38
278.63	1722.34
278.85	1748.97
279.06	1630.18
279.28	1734.63
279.49	1736.68
279.71	1693.67
279.93	1712.10
280.14	1691.62
280.36	1646.57
280.57	1812.45
280.79	1748.97
281.00	1656.81
281.22	1632.23
281.43	1740.77
281.65	1615.85
281.86	1558.50
282.08	1644.52
282.29	1806.31
282.51	1665.00
282.73	1624.04
282.94	1607.66
283.16	1691.62
283.37	1820.64
283.59	1644.52
283.80	1744.87
284.02	1701.86
284.23	1746.92
284.45	1673.19
284.66	1673.19
284.88	1683.43
285.09	1681.38
285.31	1734.63
285.52	1755.11
285.74	1689.57
285.95	1796.07
286.17	1787.88
286.38	1734.63
286.60	1603.56
286.81	1669.09
287.03	1699.81
287.24	1697.77
287.46	1662.95
287.67	1697.77
287.89	1761.25
288.10	1783.78
288.32	1714.15
288.53	1789.92
288.75	1644.52
288.96	1744.87
289.18	1728.49
289.39	1714.15
289.61	1722.34
289.82	1794.02
290.04	1769.44
290.25	1665.00
290.47	1699.81
290.68	1560.55
290.90	1726.44
291.11	1626.09
291.33	1851.36
291.54	1705.96
291.76	1609.70
291.97	1740.77
292.18	1746.92
292.40	1724.39
292.61	1640.42
292.83	1851.36
293.04	1755.11
293.26	1681.38
293.47	1611.75
293.69	1667.05
293.90	1714.15
294.12	1720.29
294.33	1716.20
294.55	1658.85
294.76	1740.77
294.97	1689.57
295.19	1830.88
295.40	1722.34
295.62	1665.00
295.83	1734.63
296.05	1765.35
296.26	1728.49
296.48	1685.48
296.69	1730.53
296.90	1654.76
297.12	1787.88
297.33	1636.33
297.55	1673.19
297.76	1685.48
297.98	1761.25
298.19	1736.68
298.41	1693.67
298.62	1621.99
298.83	1810.40
299.05	1675.24
299.26	1740.77
299.48	1681.38
299.69	1703.91
299.90	1683.43
300.12	1654.76
300.33	1730.53
300.55	1724.39
300.76	1724.39
300.98	1724.39
301.19	1765.35
301.40	1681.38
301.62	1703.91
301.83	1746.92
302.05	1759.21
302.26	1671.14
302.47	1679.33
302.69	1646.57
302.90	1736.68
303.12	1619.94
303.33	1718.25
303.54	1742.82
303.76	1738.73
303.97	1773.54
304.19	1816.55
304.40	1599.46
304.61	1716.20
304.83	1816.55
305.04	1742.82
305.26	1767.40
305.47	1640.42
305.68	1734.63
305.90	1542.12
306.11	1830.88
306.33	1669.09
306.54	1693.67
306.75	1619.94
306.97	1609.70
307.18	1667.05
307.39	1675.24
307.61	1716.20
307.82	1685.48
308.04	1724.39
308.25	1585.13
308.46	1726.44
308.68	1724.39
308.89	1748.97
309.10	1781.73
309.32	1714.15
309.53	1703.91
309.74	1773.54
309.96	1724.39
310.17	1808.36
310.39	1689.57
310.60	1669.09
310.81	1675.24
311.03	1611.75
311.24	1742.82
311.45	1703.91
311.67	1818.60
311.88	1767.40
312.09	1632.23
312.31	1658.85
312.52	1712.10
312.73	1648.61
312.95	1607.66
313.16	1650.66
313.37	1794.02
313.59	1720.29
313.80	1740.77
314.01	1804.26
314.23	1726.44
314.44	1675.24
314.65	1640.42
314.87	1636.33
315.08	1667.05
315.29	1689.57
315.51	1646.57
315.72	1626.09
315.93	1746.92
316.15	1732.58
316.36	1714.15
316.57	1673.19
316.79	1767.40
317.00	1722.34
317.21	1683.43
317.43	1708.01
317.64	1685.48
317.85	1665.00
318.07	1683.43
318.28	1730.53
318.49	1794.02
318.70	1904.61
318.92	1771.49
319.13	1800.16
319.34	1849.32
319.56	1863.65
319.77	1789.92
319.98	1810.40
320.20	1806.31
320.41	1802.21
320.62	1726.44
320.83	1751.01
321.05	1865.70
321.26	1695.72
321.47	1718.25
321.69	1767.40
321.90	1673.19
322.11	1685.48
322.32	1673.19
322.54	1763.30
322.75	1611.75
322.96	1789.92
323.18	1650.66
323.39	1581.03
323.60	1685.48
323.81	1746.92
324.03	1656.81
324.24	1630.18
324.45	1705.96
324.66	1724.39
324.88	1753.06
325.09	1800.16
325.30	1697.77
325.52	1665.00
325.73	1697.77
325.94	1634.28
326.15	1603.56
326.37	1626.09
326.58	1759.21
326.79	1843.17
327.00	1665.00
327.22	1705.96
327.43	1677.29
327.64	1599.46
327.85	1742.82
328.07	1714.15
328.28	1765.35
328.49	1650.66
328.70	1640.42
328.92	1744.87
329.13	1642.47
329.34	1718.25
329.55	1718.25
329.76	1744.87
329.98	1669.09
330.19	1738.73
330.40	1644.52
330.61	1748.97
330.83	1740.77
331.04	1693.67
331.25	1722.34
331.46	1710.05
331.68	1562.60
331.89	1722.34
332.10	1646.57
332.31	1605.61
332.52	1742.82
332.74	1828.84
332.95	1605.61
333.16	1652.71
333.37	1673.19
333.58	1626.09
333.80	1697.77
334.01	1685.48
334.22	1656.81
334.43	1714.15
334.64	1665.00
334.86	1714.15
335.07	1660.90
335.28	1716.20
335.49	1650.66
335.70	1746.92
335.92	1675.24
336.13	1837.03
336.34	1705.96
336.55	1671.14
336.76	1693.67
336.98	1566.70
337.19	1753.06
337.40	1794.02
337.61	1828.84
337.82	1636.33
338.04	1722.34
338.25	1689.57
338.46	1660.90
338.67	1724.39
338.88	1671.14
339.09	1654.76
339.31	1716.20
339.52	1585.13
339.73	1673.19
339.94	1689.57
340.15	1744.87
340.36	1722.34
340.58	1685.48
340.79	1697.77
341.00	1742.82
341.21	1646.57
341.42	1789.92
341.63	1693.67
341.85	1734.63
342.06	1767.40
342.27	1609.70
342.48	1708.01
342.69	1546.22
342.90	1744.87
343.12	1755.11
343.33	1658.85
343.54	1781.73
343.75	1728.49
343.96	1681.38
344.17	1673.19
344.38	1718.25
344.60	1669.09
344.81	1605.61
345.02	1705.96
345.23	1714.15
345.44	1773.54
345.65	1740.77
345.86	1740.77
346.07	1671.14
346.29	1669.09
346.50	1785.83
346.71	1757.16
346.92	1697.77
347.13	1714.15
347.34	1626.09
347.55	1701.86
347.76	1742.82
347.98	1599.46
348.19	1681.38
348.40	1847.27
348.61	1701.86
348.82	1695.72
349.03	1699.81
349.24	1675.24
349.45	1851.36
349.66	1593.32
349.88	1726.44
350.09	1601.51
350.30	1849.32
350.51	1748.97
350.72	1699.81
350.93	1744.87
351.14	1697.77
351.35	1742.82
351.56	1695.72
351.77	1667.05
351.99	1669.09
352.20	1843.17
352.41	1800.16
352.62	1665.00
352.83	1705.96
353.04	1730.53
353.25	1714.15
353.46	1714.15
353.67	1765.35
353.88	1624.04
354.09	1734.63
354.30	1742.82
354.52	1726.44
354.73	1740.77
354.94	1734.63
355.15	1691.62
355.36	1834.98
355.57	1624.04
355.78	1673.19
355.99	1624.04
356.20	1722.34
356.41	1816.55
356.62	1744.87
356.83	1734.63
357.04	1802.21
357.25	1607.66
357.46	1693.67
357.68	1638.38
357.89	1652.71
358.10	1656.81
358.31	1705.96
358.52	1718.25
358.73	1703.91
358.94	1642.47
359.15	1683.43
359.36	1722.34
359.57	1718.25
359.78	1757.16
359.99	1642.47
360.20	1648.61
360.41	1695.72
360.62	1781.73
360.83	1701.86
361.04	1693.67
361.25	1796.07
361.46	1791.97
361.67	1712.10
361.88	1683.43
362.09	1685.48
362.30	1724.39
362.51	1673.19
362.72	1712.10
362.93	1724.39
363.14	1675.24
363.35	1628.14
363.56	1652.71
363.78	1748.97
363.99	1730.53
364.20	1628.14
364.41	1656.81
364.62	1785.83
364.83	1669.09
365.04	1644.52
365.25	1687.53
365.46	1834.98
365.67	1693.67
365.88	1587.18
366.09	1693.67
366.30	1646.57
366.51	1730.53
366.72	1644.52
366.93	1751.01
367.14	1595.37
367.35	1722.34
367.56	1691.62
367.77	1732.58
367.98	1673.19
368.18	1722.34
368.39	1767.40
368.60	1597.42
368.81	1761.25
369.02	1695.72
369.23	1708.01
369.44	1603.56
369.65	1654.76
369.86	1736.68
370.07	1783.78
370.28	1599.46
370.49	1771.49
370.70	1779.68
370.91	1603.56
371.12	1642.47
371.33	1708.01
371.54	1738.73
371.75	1751.01
371.96	1728.49
372.17	1708.01
372.38	1728.49
372.59	1761.25
372.80	1732.58
373.01	1611.75
373.22	1720.29
373.43	1808.36
373.64	1615.85
373.85	1736.68
374.06	1888.23
374.26	1705.96
374.47	1683.43
374.68	1800.16
374.89	1820.64
375.10	1691.62
375.31	1726.44
375.52	1734.63
375.73	1701.86
375.94	1611.75
376.15	1746.92
376.36	1681.38
376.57	1705.96
376.78	1712.10
376.99	1679.33
377.20	1755.11
377.40	1599.46
377.61	1796.07
377.82	1726.44
378.03	1812.45
378.24	1660.90
378.45	1669.09
378.66	1724.39
378.87	1591.27
379.08	1617.90
379.29	1714.15
379.50	1800.16
379.71	1677.29
379.91	1738.73
380.12	1683.43
380.33	1660.90
380.54	1681.38
380.75	1691.62
380.96	1597.42
381.17	1767.40
381.38	1716.20
381.59	1789.92
381.80	1748.97
382.00	1806.31
382.21	1710.05
382.42	1775.59
382.63	1888.23
382.84	1800.16
383.05	1777.64
383.26	1806.31
383.47	1761.25
383.68	1755.11
383.88	1775.59
384.09	1669.09
384.30	1875.94
384.51	1763.30
384.72	1712.10
384.93	1722.34
385.14	1675.24
385.35	1787.88
385.55	1634.28
385.76	1746.92
385.97	1652.71
386.18	1665.00
386.39	1697.77
386.60	1624.04
386.81	1607.66
387.02	1708.01
387.22	1710.05
387.43	1714.15
387.64	1775.59
387.85	1888.23
388.06	2166.75
388.27	4306.88
388.48	6762.39
388.68	8501.12
388.89	9840.49
389.10	9959.27
389.31	8720.25
389.52	7669.64
389.73	6868.89
389.93	6137.76
390.14	5912.49
390.35	5093.30
390.56	4632.51
390.77	3753.93
390.98	3061.71
391.18	2455.51
391.39	2172.89
391.60	1869.80
391.81	1787.88
392.02	1699.81
392.23	1839.08
392.43	1728.49
392.64	1816.55
392.85	1746.92
393.06	1808.36
393.27	1675.24
393.47	1609.70
393.68	1673.19
393.89	1681.38
394.10	1763.30
394.31	1726.44
394.52	1628.14
394.72	1755.11
394.93	1734.63
395.14	1701.86
395.35	1800.16
395.56	1617.90
395.76	1728.49
395.97	1865.70
396.18	1867.75
396.39	1843.17
396.60	2013.15
396.80	1898.47
397.01	1798.12
397.22	1783.78
397.43	1773.54
397.64	1779.68
397.84	1794.02
398.05	1857.51
398.26	1769.44
398.47	1800.16
398.67	1789.92
398.88	1746.92
399.09	1689.57
399.30	1720.29
399.51	1742.82
399.71	1591.27
399.92	1736.68
400.13	1701.86
400.34	1660.90
400.54	1765.35
400.75	1779.68
400.96	1718.25
401.17	1859.56
401.37	1742.82
401.58	1773.54
401.79	1718.25
402.00	1822.69
402.21	1984.48
402.41	1888.23
402.62	2074.59
402.83	2025.44
403.04	1929.19
403.24	2111.46
403.45	1843.17
403.66	1918.95
403.87	1814.50
404.07	1863.65
404.28	1880.04
404.49	1828.84
404.70	1769.44
404.90	1742.82
405.11	1734.63
405.32	1646.57
405.52	1738.73
405.73	1650.66
405.94	1689.57
406.15	1685.48
406.35	1763.30
406.56	1669.09
406.77	1773.54
406.98	1748.97
407.18	1693.67
407.39	1843.17
407.60	1652.71
407.80	1740.77
408.01	1671.14
408.22	1699.81
408.43	1642.47
408.63	1748.97
408.84	1751.01
409.05	1722.34
409.25	1726.44
409.46	1611.75
409.67	1687.53
409.88	1654.76
410.08	1714.15
410.29	1724.39
410.50	1730.53
410.70	1828.84
410.91	1646.57
411.12	1697.77
411.32	1751.01
411.53	1703.91
411.74	1824.74
411.95	1822.69
412.15	1718.25
412.36	1771.49
412.57	1814.50
412.77	1798.12
412.98	1751.01
413.19	1728.49
413.39	1710.05
413.60	1826.79
413.81	1787.88
414.01	1665.00
414.22	1781.73
414.43	1736.68
414.63	1716.20
414.84	1738.73
415.05	1712.10
415.25	1677.29
415.46	1779.68
415.67	1611.75
415.87	1753.06
416.08	1753.06
416.29	1681.38
416.49	1808.36
416.70	1634.28
416.91	1753.06
417.11	1726.44
417.32	1746.92
417.53	1753.06
417.73	1677.29
417.94	1652.71
418.15	1757.16
418.35	1675.24
418.56	1697.77
418.77	1822.69
418.97	1732.58
419.18	1751.01
419.38	1611.75
419.59	1681.38
419.80	1781.73
420.00	1632.23
420.21	1728.49
420.42	1736.68
420.62	1757.16
420.83	1718.25
421.04	1683.43
421.24	1693.67
421.45	1751.01
421.65	1746.92
421.86	1652.71
422.07	1771.49
422.27	1673.19
422.48	1705.96
422.69	1724.39
422.89	1751.01
423.10	1728.49
423.30	1679.33
423.51	1722.34
423.72	1703.91
423.92	1685.48
424.13	1615.85
424.33	1667.05
424.54	1736.68
424.75	1728.49
424.95	1781.73
425.16	1804.26
425.36	1685.48
425.57	1775.59
425.78	1771.49
425.98	1785.83
426.19	1755.11
426.39	1619.94
426.60	1665.00
426.81	1847.27
427.01	1763.30
427.22	1718.25
427.42	1693.67
427.63	1701.86
427.83	1730.53
428.04	1814.50
428.25	1732.58
428.45	1816.55
428.66	1710.05
428.86	1665.00
429.07	1714.15
429.28	1744.87
429.48	1656.81
429.69	1640.42
429.89	1744.87
430.10	1642.47
430.30	1761.25
430.51	1779.68
430.71	1746.92
430.92	1724.39
431.13	1628.14
431.33	1785.83
431.54	1691.62
431.74	1802.21
431.95	1744.87
432.15	1673.19
432.36	1687.53
432.56	1691.62
432.77	1771.49
432.98	1839.08
433.18	1753.06
433.39	1714.15
433.59	1730.53
433.80	1767.40
434.00	1804.26
434.21	1728.49
434.41	1662.95
434.62	1785.83
434.82	1636.33
435.03	1583.08
435.23	1726.44
435.44	1689.57
435.64	1726.44
435.85	1798.12
436.06	1781.73
436.26	1722.34
436.47	1757.16
436.67	1763.30
436.88	1665.00
437.08	1787.88
437.29	1746.92
437.49	1724.39
437.70	1759.21
437.90	1742.82
438.11	1890.28
438.31	1734.63
438.52	1791.97
438.72	1853.41
438.93	1828.84
439.13	1800.16
439.34	1759.21
439.54	1759.21
439.75	1753.06
439.95	1804.26
440.16	1642.47
440.36	1714.15
440.57	1802.21
440.77	1783.78
440.98	1769.44
441.18	1748.97
441.39	1656.81
441.59	1685.48
441.80	1847.27
442.00	1673.19
442.21	1773.54
442.41	1609.70
442.62	1742.82
442.82	1638.38
443.02	1644.52
443.23	1794.02
443.43	1695.72
443.64	1837.03
443.84	1699.81
444.05	1779.68
444.25	1726.44
444.46	1765.35
444.66	1746.92
444.87	1746.92
445.07	1624.04
445.28	1732.58
445.48	1820.64
445.69	1794.02
445.89	1908.71
446.09	1791.97
446.30	2029.54
446.50	2719.70
446.71	3723.21
446.91	4401.08
447.12	4702.14
447.32	4984.76
447.53	4356.03
447.73	3841.99
447.93	3545.03
448.14	3446.73
448.34	3250.13
448.55	2932.69
448.75	2914.26
448.96	2713.56
449.16	2363.36
449.36	2172.89
449.57	2039.78
449.77	1828.84
449.98	1738.73
450.18	1787.88
450.39	1861.60
450.59	1822.69
450.79	1685.48
451.00	1726.44
451.20	1837.03
451.41	1703.91
451.61	1697.77
451.81	1714.15
452.02	1718.25
452.22	1675.24
452.43	1695.72
452.63	1634.28
452.84	1705.96
453.04	1779.68
453.24	1775.59
453.45	1740.77
453.65	1705.96
453.86	1779.68
454.06	1789.92
454.26	1828.84
454.47	1656.81
454.67	1738.73
454.87	1716.20
455.08	1746.92
455.28	1832.93
455.49	1732.58
455.69	1654.76
455.89	1888.23
456.10	1755.11
456.30	1757.16
456.51	1695.72
456.71	1718.25
456.91	1753.06
457.12	1718.25
457.32	1736.68
457.52	1708.01
457.73	1748.97
457.93	1767.40
458.14	1646.57
458.34	1621.99
458.54	1685.48
458.75	1716.20
458.95	1791.97
459.15	1744.87
459.36	1753.06
459.56	1785.83
459.76	1857.51
459.97	1765.35
460.17	1753.06
460.37	1785.83
460.58	1691.62
460.78	1771.49
460.99	1671.14
461.19	1761.25
461.39	1681.38
461.60	1703.91
461.80	1820.64
462.00	1642.47
462.21	1779.68
462.41	1646.57
462.61	1665.00
462.82	1640.42
463.02	1781.73
463.22	1710.05
463.43	1781.73
463.63	1714.15
463.83	1814.50
464.04	1740.77
464.24	1748.97
464.44	1660.90
464.64	1697.77
464.85	1779.68
465.05	1849.32
465.25	1734.63
465.46	1654.76
465.66	1818.60
465.86	1753.06
466.07	1685.48
466.27	1697.77
466.47	1656.81
466.68	1615.85
466.88	1810.40
467.08	1783.78
467.29	1708.01
467.49	1767.40
467.69	1732.58
467.89	1779.68
468.10	1783.78
468.30	1710.05
468.50	1722.34
468.71	1816.55
468.91	1619.94
469.11	1865.70
469.31	1738.73
469.52	1736.68
469.72	1765.35
469.92	1828.84
470.13	1779.68
470.33	1734.63
470.53	1781.73
470.73	2107.36
470.94	2232.29
471.14	2332.64
471.34	2541.53
471.54	2475.99
471.75	2174.94
471.95	2142.18
472.15	2064.35
472.36	2127.84
472.56	2027.49
472.76	2068.45
472.96	1925.09
473.17	1976.29
473.37	1867.75
473.57	1720.29
473.77	1812.45
473.98	1759.21
474.18	1796.07
474.38	1920.99
474.58	1714.15
474.79	1748.97
474.99	1796.07
475.19	1708.01
475.39	1646.57
475.60	1667.05
475.80	1755.11
476.00	1685.48
476.20	1705.96
476.41	1734.63
476.61	1787.88
476.81	1798.12
477.01	1644.52
477.21	1877.99
477.42	1771.49
477.62	1654.76
477.82	1744.87
478.02	1732.58
478.23	1736.68
478.43	1646.57
478.63	1615.85
478.83	1695.72
479.03	1689.57
479.24	1765.35
479.44	1796.07
479.64	1626.09
479.84	1656.81
480.04	1687.53
480.25	1722.34
480.45	1673.19
480.65	1724.39
480.85	1828.84
481.06	1781.73
481.26	1742.82
481.46	1783.78
481.66	1718.25
481.86	1736.68
482.06	1710.05
482.27	1771.49
482.47	1736.68
482.67	1857.51
482.87	1718.25
483.07	1740.77
483.28	1689.57
483.48	1662.95
483.68	1679.33
483.88	1691.62
484.08	1607.66
484.29	1611.75
484.49	1712.10
484.69	1720.29
484.89	1787.88
485.09	1804.26
485.29	1808.36
485.50	1728.49
485.70	1691.62
485.90	1812.45
486.10	1746.92
486.30	1761.25
486.50	1800.16
486.71	1769.44
486.91	1742.82
487.11	1834.98
487.31	1597.42
487.51	1796.07
487.71	1748.97
487.91	1677.29
488.12	1691.62
488.32	1611.75
488.52	1646.57
488.72	1607.66
488.92	1769.44
489.12	1761.25
489.32	1751.01
489.53	1810.40
489.73	1652.71
489.93	1730.53
490.13	1660.90
490.33	1640.42
490.53	1650.66
490.73	1783.78
490.94	1648.61
491.14	1839.08
491.34	1865.70
491.54	2195.42
491.74	2484.19
491.94	2899.92
492.14	3086.29
492.34	3080.14
492.54	2795.48
492.75	2553.82
492.95	2484.19
493.15	2324.44
493.35	2228.19
493.55	2267.10
493.75	2084.83
493.95	2078.69
494.15	2027.49
494.35	1927.14
494.56	1832.93
494.76	1777.64
494.96	1810.40
495.16	1822.69
495.36	1755.11
495.56	1601.51
495.76	1730.53
495.96	1687.53
496.16	1669.09
496.36	1789.92
496.56	1703.91
496.77	1730.53
496.97	1681.38
497.17	1781.73
497.37	1710.05
497.57	1761.25
497.77	1689.57
497.97	1591.27
498.17	1687.53
498.37	1689.57
498.57	1746.92
498.77	1714.15
498.97	1767.40
499.17	1839.08
499.38	1796.07
499.58	1781.73
499.78	1787.88
499.98	1841.12
500.18	1775.59
500.38	1652.71
500.58	1877.99
500.78	2494.43
500.98	4489.15
501.18	5906.34
501.38	6813.59
501.58	7200.66
501.78	6768.54
501.98	5552.04
502.18	5089.20
502.38	4485.05
502.58	4057.03
502.78	3868.61
502.98	3616.71
503.18	3518.41
503.38	3147.73
503.59	2856.92
503.79	2631.64
503.99	2396.12
504.19	2326.49
504.39	2220.00
504.59	2168.80
504.79	2060.26
504.99	2025.44
505.19	1992.67
505.39	1908.71
505.59	2011.11
505.79	1867.75
505.99	1871.84
506.19	1779.68
506.39	1863.65
506.59	1775.59
506.79	1695.72
506.99	1843.17
507.19	1767.40
507.39	1746.92
507.59	1703.91
507.79	1710.05
507.99	1648.61
508.19	1677.29
508.39	1732.58
508.59	1761.25
508.79	1818.60
508.99	1787.88
509.19	1710.05
509.39	1802.21
509.59	1671.14
509.79	1759.21
509.99	1683.43
510.19	1751.01
510.39	1736.68
510.59	1718.25
510.79	1679.33
510.99	1718.25
511.19	1816.55
511.39	1839.08
511.59	1763.30
511.79	1738.73
511.99	1722.34
512.19	1773.54
512.38	1708.01
512.58	1697.77
512.78	1738.73
512.98	1744.87
513.18	1841.12
513.38	1648.61
513.58	1730.53
513.78	1796.07
513.98	1787.88
514.18	1701.86
514.38	1714.15
514.58	1787.88
514.78	1703.91
514.98	1691.62
515.18	1693.67
515.38	1652.71
515.58	1802.21
515.78	1673.19
515.98	1718.25
516.18	1765.35
516.38	1738.73
516.57	1703.91
516.77	1816.55
516.97	1806.31
517.17	1738.73
517.37	1572.84
517.57	1738.73
517.77	1748.97
517.97	1740.77
518.17	1818.60
518.37	1642.47
518.57	1658.85
518.77	1660.90
518.97	1806.31
519.16	1781.73
519.36	1767.40
519.56	1730.53
519.76	1822.69
519.96	1681.38
520.16	1841.12
520.36	1710.05
520.56	1789.92
520.76	1695.72
520.96	1685.48
521.16	1714.15
521.35	1828.84
521.55	1759.21
521.75	1705.96
521.95	1689.57
522.15	1679.33
522.35	1640.42
522.55	1703.91
522.75	1800.16
522.95	1697.77
523.14	1759.21
523.34	1685.48
523.54	1724.39
523.74	1759.21
523.94	1726.44
524.14	1734.63
524.34	1753.06
524.54	1839.08
524.73	1775.59
524.93	1753.06
525.13	1767.40
525.33	1671.14
525.53	1880.04
525.73	1705.96
525.93	1710.05
526.13	1691.62
526.32	1759.21
526.52	1822.69
526.72	1837.03
526.92	1710.05
527.12	1689.57
527.32	1630.18
527.52	1804.26
527.71	1759.21
527.91	1726.44
528.11	1763.30
528.31	1757.16
528.51	1636.33
528.71	1808.36
528.90	1734.63
529.10	1767.40
529.30	1794.02
529.50	1587.18
529.70	1785.83
529.90	1726.44
530.09	1773.54
530.29	1658.85
530.49	1640.42
530.69	1839.08
530.89	1712.10
531.09	1783.78
531.28	1705.96
531.48	1781.73
531.68	1787.88
531.88	1796.07
532.08	1734.63
532.28	1658.85
532.47	1689.57
532.67	1734.63
532.87	1710.05
533.07	1738.73
533.27	1697.77
533.46	1677.29
533.66	1708.01
533.86	1683.43
534.06	1693.67
534.26	1699.81
534.45	1691.62
534.65	1812.45
534.85	1755.11
535.05	1701.86
535.25	1734.63
535.44	1740.77
535.64	1777.64
535.84	1703.91
536.04	1650.66
536.24	1665.00
536.43	1636.33
536.63	1779.68
536.83	1716.20
537.03	1677.29
537.22	1648.61
537.42	1640.42
537.62	1757.16
537.82	1652.71
538.02	1759.21
538.21	1824.74
538.41	1927.14
538.61	1685.48
538.81	1767.40
539.00	1789.92
539.20	1763.30
539.40	1703.91
539.60	1699.81
539.79	1779.68
539.99	1732.58
540.19	1730.53
540.39	1662.95
540.58	1781.73
540.78	1755.11
540.98	1705.96
541.18	1806.31
541.37	1757.16
541.57	1730.53
541.77	1755.11
541.97	1683.43
542.16	1595.37
542.36	1708.01
542.56	1681.38
542.76	1783.78
542.95	1746.92
543.15	1771.49
543.35	1812.45
543.54	1677.29
543.74	1705.96
543.94	1753.06
544.14	1675.24
544.33	1794.02
544.53	1740.77
544.73	1738.73
544.93	1703.91
545.12	1665.00
545.32	1718.25
545.52	1714.15
545.71	1671.14
545.91	1800.16
546.11	1734.63
546.30	1681.38
546.50	1722.34
546.70	1693.67
546.90	1796.07
547.09	1677.29
547.29	1763.30
547.49	1746.92
547.68	1775.59
547.88	1636.33
548.08	1828.84
548.27	2217.95
548.47	1701.86
548.67	1724.39
548.87	1791.97
549.06	1732.58
549.26	1777.64
549.46	1755.11
549.65	1689.57
549.85	1746.92
550.05	1714.15
550.24	1609.70
550.44	1744.87
550.64	1751.01
550.83	1755.11
551.03	1841.12
551.23	1806.31
551.42	1728.49
551.62	1783.78
551.82	1779.68
552.01	1738.73
552.21	1818.60
552.41	1781.73
552.60	1787.88
552.80	1738.73
553.00	1705.96
553.19	1732.58
553.39	1753.06
553.59	1697.77
553.78	1755.11
553.98	1734.63
554.17	1630.18
554.37	1777.64
554.57	1806.31
554.76	1636.33
554.96	1665.00
555.16	1740.77
555.35	1759.21
555.55	1748.97
555.75	1804.26
555.94	1816.55
556.14	1574.89
556.33	1732.58
556.53	1746.92
556.73	1759.21
556.92	1812.45
557.12	1794.02
557.32	1949.67
557.51	1730.53
557.71	1761.25
557.90	1828.84
558.10	1791.97
558.30	1736.68
558.49	1687.53
558.69	1738.73
558.88	1763.30
559.08	1787.88
559.28	1699.81
559.47	1722.34
559.67	1724.39
559.86	1839.08
560.06	1748.97
560.26	1732.58
560.45	1761.25
560.65	1806.31
560.84	1779.68
561.04	1662.95
561.24	1785.83
561.43	1634.28
561.63	1847.27
561.82	1742.82
562.02	1687.53
562.22	1761.25
562.41	1687.53
562.61	1746.92
562.80	1626.09
563.00	1814.50
563.19	1777.64
563.39	1796.07
563.59	1716.20
563.78	1677.29
563.98	1617.90
564.17	1691.62
564.37	1665.00
564.56	1716.20
564.76	1675.24
564.96	1816.55
565.15	1703.91
565.35	1886.18
565.54	1679.33
565.74	1705.96
565.93	1697.77
566.13	1738.73
566.32	1648.61
566.52	1773.54
566.71	1685.48
566.91	1759.21
567.11	1699.81
567.30	1695.72
567.50	1789.92
567.69	1677.29
567.89	1794.02
568.08	1705.96
568.28	1722.34
568.47	1705.96
568.67	1812.45
568.86	1667.05
569.06	1787.88
569.25	1740.77
569.45	1716.20
569.64	1683.43
569.84	1705.96
570.04	1826.79
570.23	1722.34
570.43	1718.25
570.62	1777.64
570.82	1726.44
571.01	1638.38
571.21	1724.39
571.40	1732.58
571.60	1796.07
571.79	1773.54
571.99	1771.49
572.18	1705.96
572.38	1679.33
572.57	1701.86
572.77	1734.63
572.96	1841.12
573.16	1753.06
573.35	1683.43
573.55	1808.36
573.74	1724.39
573.94	1691.62
574.13	1691.62
574.33	1722.34
574.52	1789.92
574.71	1748.97
574.91	1724.39
575.10	1714.15
575.30	1662.95
575.49	1658.85
575.69	1665.00
575.88	1648.61
576.08	1691.62
576.27	1763.30
576.47	1720.29
576.66	1826.79
576.86	1771.49
577.05	1705.96
577.25	1714.15
577.44	1869.80
577.64	1699.81
577.83	1855.46
578.02	1736.68
578.22	1888.23
578.41	1849.32
578.61	1640.42
578.80	1638.38
579.00	1738.73
579.19	1720.29
579.39	1796.07
579.58	1892.32
579.77	1734.63
579.97	1820.64
580.16	1791.97
580.36	1861.60
580.55	1857.51
580.75	1736.68
580.94	1781.73
581.13	1845.22
581.33	1871.84
581.52	1703.91
581.72	1857.51
581.91	1755.11
582.11	1863.65
582.30	1798.12
582.49	1785.83
582.69	1851.36
582.88	1775.59
583.08	1671.14
583.27	1783.78
583.47	1759.21
583.66	1755.11
583.85	1726.44
584.05	1728.49
584.24	1832.93
584.44	1814.50
584.63	1802.21
584.82	1804.26
585.02	1787.88
585.21	1814.50
585.41	1796.07
585.60	1802.21
585.79	1800.16
585.99	1880.04
586.18	1834.98
586.37	2148.32
586.57	3362.76
586.76	10123.11
586.96	24696.46
587.15	35337.70
587.34	41211.28
587.54	42794.36
587.73	37430.72
587.93	26787.43
588.12	21851.83
588.31	18501.35
588.51	16664.32
588.70	15361.81
588.89	14284.58
589.09	12846.91
589.28	11312.98
589.47	9568.11
589.67	7995.27
589.86	6424.48
590.06	4982.71
590.25	3979.20
590.44	3078.10
590.64	2512.86
590.83	2263.01
591.02	2045.92
591.22	1949.67
591.41	2033.63
591.60	1843.17
591.80	1886.18
591.99	1796.07
592.18	1712.10
592.38	1804.26
592.57	1773.54
592.76	1746.92
592.96	1849.32
593.15	1761.25
593.34	1814.50
593.54	1785.83
593.73	1763.30
593.92	1769.44
594.12	1718.25
594.31	1740.77
594.50	1867.75
594.70	1806.31
594.89	1865.70
595.08	1673.19
595.28	1705.96
595.47	1927.14
595.66	1830.88
595.86	1593.32
596.05	1814.50
596.24	1765.35
596.43	1896.42
596.63	1771.49
596.82	1759.21
597.01	1757.16
597.21	1896.42
597.40	1716.20
597.59	1767.40
597.79	1783.78
597.98	1789.92
598.17	1761.25
598.36	1728.49
598.56	1816.55
598.75	1632.23
598.94	1751.01
599.14	1710.05
599.33	1701.86
599.52	1859.56
599.71	1742.82
599.91	1849.32
600.10	1701.86
600.29	1697.77
600.48	1722.34
600.68	1802.21
600.87	1843.17
601.06	1744.87
601.26	1638.38
601.45	1767.40
601.64	1775.59
601.83	1880.04
602.03	1685.48
602.22	1714.15
602.41	1800.16
602.60	1865.70
602.80	1777.64
602.99	1773.54
603.18	1699.81
603.37	1742.82
603.57	1736.68
603.76	1714.15
603.95	1757.16
604.14	1771.49
604.34	1667.05
604.53	1726.44
604.72	1726.44
604.91	1732.58
605.10	1683.43
605.30	1701.86
605.49	1845.22
605.68	1736.68
605.87	1730.53
606.07	1673.19
606.26	1742.82
606.45	1765.35
606.64	1675.24
606.84	1689.57
607.03	1761.25
607.22	1755.11
607.41	1650.66
607.60	1685.48
607.80	1720.29
607.99	1775.59
608.18	1746.92
608.37	1738.73
608.56	1708.01
608.76	1779.68
608.95	1886.18
609.14	1740.77
609.33	1771.49
609.52	1767.40
609.72	1714.15
609.91	1738.73
610.10	1751.01
610.29	1798.12
610.48	1808.36
610.68	1710.05
610.87	1689.57
611.06	1689.57
611.25	1777.64
611.44	1820.64
611.63	1677.29
611.83	1839.08
612.02	1675.24
612.21	1845.22
612.40	1624.04
612.59	1722.34
612.79	1650.66
612.98	1755.11
613.17	1791.97
613.36	1724.39
613.55	1791.97
613.74	1650.66
613.93	1748.97
614.13	1693.67
614.32	1753.06
614.51	1839.08
614.70	1630.18
614.89	1654.76
615.08	1703.91
615.28	2101.22
615.47	1640.42
615.66	1714.15
615.85	1607.66
616.04	1820.64
616.23	1751.01
616.42	1734.63
616.62	1728.49
616.81	1767.40
617.00	1691.62
617.19	1789.92
617.38	1648.61
617.57	1726.44
617.76	1669.09
617.95	1779.68
618.15	1761.25
618.34	1757.16
618.53	1683.43
618.72	1763.30
618.91	1699.81
619.10	1779.68
619.29	1673.19
619.48	1753.06
619.68	1609.70
619.87	1736.68
620.06	1640.42
620.25	1751.01
620.44	1744.87
620.63	1673.19
620.82	1759.21
621.01	1746.92
621.20	1714.15
621.39	1824.74
621.59	1810.40
621.78	1683.43
621.97	1726.44
622.16	1771.49
622.35	1701.86
622.54	1742.82
622.73	1742.82
622.92	1624.04
623.11	1771.49
623.30	1722.34
623.49	1781.73
623.68	1755.11
623.88	1736.68
624.07	1673.19
624.26	1675.24
624.45	1755.11
624.64	1669.09
624.83	1701.86
625.02	1724.39
625.21	1660.90
625.40	1714.15
625.59	1798.12
625.78	1767.40
625.97	1724.39
626.16	1720.29
626.35	1794.02
626.54	1691.62
626.74	1804.26
626.93	1644.52
627.12	1695.72
627.31	1708.01
627.50	1751.01
627.69	1751.01
627.88	1665.00
628.07	1781.73
628.26	1638.38
628.45	1705.96
628.64	1675.24
628.83	1679.33
629.02	1624.04
629.21	1705.96
629.40	1865.70
629.59	1652.71
629.78	1669.09
629.97	1708.01
630.16	1794.02
630.35	1703.91
630.54	1742.82
630.73	1673.19
630.92	1609.70
631.11	1669.09
631.30	1746.92
631.49	1789.92
631.68	1761.25
631.87	1714.15
632.06	1634.28
632.25	1777.64
632.44	1718.25
632.63	1708.01
632.82	1681.38
633.01	1644.52
633.20	1683.43
633.39	1669.09
633.58	1632.23
633.77	1703.91
633.96	1730.53
634.15	1755.11
634.34	1716.20
634.53	1779.68
634.72	1652.71
634.91	1673.19
635.10	1765.35
635.29	1740.77
635.48	1667.05
635.67	1656.81
635.86	1636.33
636.05	1787.88
636.24	1652.71
636.43	1783.78
636.62	1734.63
636.81	1570.79
637.00	1734.63
637.19	1755.11
637.38	1738.73
637.57	1691.62
637.76	1720.29
637.95	1699.81
638.14	1724.39
638.33	1757.16
638.52	1763.30
638.71	1628.14
638.89	1677.29
639.08	1853.41
639.27	1757.16
639.46	1671.14
639.65	1812.45
639.84	1687.53
640.03	1767.40
640.22	1730.53
640.41	1804.26
640.60	1656.81
640.79	1771.49
640.98	1732.58
641.17	1751.01
641.36	1718.25
641.55	1806.31
641.74	1626.09
641.92	1640.42
642.11	1697.77
642.30	1626.09
642.49	1646.57
642.68	1746.92
642.87	1777.64
643.06	1796.07
643.25	1675.24
643.44	1691.62
643.63	1701.86
643.82	1751.01
644.00	1685.48
644.19	1738.73
644.38	1685.48
644.57	1753.06
644.76	1777.64
644.95	1748.97
645.14	1732.58
645.33	1656.81
645.52	1693.67
645.71	1748.97
645.89	1734.63
646.08	1732.58
646.27	1775.59
646.46	1804.26
646.65	1656.81
646.84	1734.63
647.03	1701.86
647.22	1675.24
647.40	1738.73
647.59	1718.25
647.78	1613.80
647.97	1624.04
648.16	1763.30
648.35	1773.54
648.54	1843.17
648.73	1771.49
648.91	1755.11
649.10	1746.92
649.29	1742.82
649.48	1718.25
649.67	1695.72
649.86	1576.94
650.05	1626.09
650.23	1812.45
650.42	1697.77
650.61	1722.34
650.80	1794.02
650.99	1845.22
651.18	1802.21
651.36	1771.49
651.55	1634.28
651.74	1789.92
651.93	1693.67
652.12	1742.82
652.31	1703.91
652.49	1652.71
652.68	1681.38
652.87	1779.68
653.06	1798.12
653.25	1822.69
653.44	1658.85
653.62	1812.45
653.81	1712.10
654.00	1687.53
654.19	1755.11
654.38	1859.56
654.56	1757.16
654.75	1689.57
654.94	1802.21
655.13	1701.86
655.32	1740.77
655.51	1722.34
655.69	1730.53
655.88	1734.63
656.07	1658.85
656.26	1705.96
656.45	1632.23
656.63	1718.25
656.82	1730.53
657.01	1742.82
657.20	1646.57
657.38	1751.01
657.57	1703.91
657.76	1615.85
657.95	1728.49
658.14	1712.10
658.32	1767.40
658.51	1691.62
658.70	1701.86
658.89	1734.63
659.08	1691.62
659.26	1728.49
659.45	1685.48
659.64	1667.05
659.83	1673.19
660.01	1904.61
660.20	1744.87
660.39	1806.31
660.58	1624.04
660.76	1726.44
660.95	1685.48
661.14	1712.10
661.33	1574.89
661.51	1689.57
661.70	1660.90
661.89	1789.92
662.08	1705.96
662.26	1585.13
662.45	1632.23
662.64	1853.41
662.83	1771.49
663.01	1681.38
663.20	1718.25
663.39	1802.21
663.58	1656.81
663.76	1683.43
663.95	1824.74
664.14	1648.61
664.32	1673.19
664.51	1615.85
664.70	1632.23
664.89	1806.31
665.07	1662.95
665.26	1763.30
665.45	1550.31
665.64	1771.49
665.82	1732.58
666.01	1769.44
666.20	1619.94
666.38	1863.65
666.57	1794.02
666.76	2181.09
666.95	4540.35
667.13	10647.39
667.32	15437.59
667.51	18034.41
667.69	19457.75
667.88	17751.79
668.07	12560.19
668.25	9627.50
668.44	8312.71
668.63	7509.90
668.81	6938.52
669.00	6311.84
669.19	5832.62
669.38	5023.67
669.56	4597.69
669.75	4022.21
669.94	3411.92
670.12	2916.31
670.31	2514.91
670.50	2260.96
670.68	2140.13
670.87	1947.62
671.06	1814.50
671.24	1796.07
671.43	1814.50
671.62	1738.73
671.80	1738.73
671.99	1697.77
672.18	1777.64
672.36	1712.10
672.55	1728.49
672.74	1667.05
672.92	1742.82
673.11	1757.16
673.29	1697.77
673.48	1804.26
673.67	1716.20
673.85	1775.59
674.04	1697.77
674.23	1722.34
674.41	1755.11
674.60	1642.47
674.79	1619.94
674.97	1710.05
675.16	1744.87
675.34	1791.97
675.53	1585.13
675.72	1701.86
675.90	1888.23
676.09	1654.76
676.28	1693.67
676.46	1611.75
676.65	1705.96
676.83	1687.53
677.02	1726.44
677.21	1814.50
677.39	1716.20
677.58	1699.81
677.77	1753.06
677.95	1710.05
678.14	1751.01
678.32	1673.19
678.51	1689.57
678.70	1890.28
678.88	1671.14
679.07	1744.87
679.25	1720.29
679.44	1757.16
679.63	1619.94
679.81	1685.48
680.00	1691.62
680.18	1781.73
680.37	1802.21
680.55	1757.16
680.74	1632.23
680.93	1630.18
681.11	1658.85
681.30	1751.01
681.48	1691.62
681.67	1699.81
681.85	1705.96
682.04	1755.11
682.23	1779.68
682.41	1699.81
682.60	1705.96
682.78	1681.38
682.97	1654.76
683.15	1677.29
683.34	1712.10
683.53	1730.53
683.71	1632.23
683.90	1847.27
684.08	1765.35
684.27	1787.88
684.45	1734.63
684.64	1818.60
684.82	1679.33
685.01	1714.15
685.19	1755.11
685.38	1695.72
685.57	1703.91
685.75	1687.53
685.94	1722.34
686.12	1660.90
686.31	1654.76
686.49	1820.64
686.68	1646.57
686.86	1787.88
687.05	1603.56
687.23	1816.55
687.42	1665.00
687.60	1591.27
687.79	1734.63
687.97	1761.25
688.16	1769.44
688.34	1783.78
688.53	1593.32
688.71	1744.87
688.90	1826.79
689.08	1679.33
689.27	1597.42
689.45	1677.29
689.64	1746.92
689.82	1738.73
690.01	1824.74
690.19	1677.29
690.38	1667.05
690.56	1689.57
690.75	1687.53
690.93	1685.48
691.12	1650.66
691.30	1697.77
691.49	1636.33
691.67	1710.05
691.86	1746.92
692.04	1609.70
692.23	1705.96
692.41	1654.76
692.60	1865.70
692.78	1697.77
692.97	1697.77
693.15	1718.25
693.34	1845.22
693.52	1812.45
693.71	1714.15
693.89	1683.43
694.08	1603.56
694.26	1687.53
694.44	1705.96
694.63	1865.70
694.81	1642.47
695.00	1730.53
695.18	1769.44
695.37	1863.65
695.55	1697.77
695.74	1701.86
695.92	1660.90
696.10	1746.92
696.29	1636.33
696.47	1714.15
696.66	1660.90
696.84	1701.86
697.03	1748.97
697.21	1810.40
697.40	2310.11
697.58	1841.12
697.76	1669.09
697.95	1685.48
698.13	1701.86
698.32	1642.47
698.50	1665.00
698.68	1748.97
698.87	1728.49
699.05	1820.64
699.24	1734.63
699.42	1708.01
699.61	1761.25
699.79	1773.54
699.97	1646.57
700.16	1605.61
700.34	1669.09
700.53	1755.11
700.71	1785.83
700.89	1761.25
701.08	1718.25
701.26	1681.38
701.45	2064.35
701.63	1603.56
701.81	1654.76
702.00	1642.47
702.18	1640.42
702.37	1658.85
702.55	1810.40
702.73	1712.10
702.92	1648.61
703.10	1710.05
703.28	1849.32
703.47	1601.51
703.65	1759.21
703.84	1757.16
704.02	1701.86
704.20	1802.21
704.39	1691.62
704.57	1781.73
704.75	1767.40
704.94	1697.77
705.12	1771.49
705.30	1714.15
705.49	2260.96
705.67	4450.24
705.86	9521.01
706.04	13023.03
706.22	14685.98
706.41	15607.57
706.59	14139.18
706.77	9865.07
706.96	7544.72
707.14	6717.34
707.32	5908.39
707.51	5654.44
707.69	5109.68
707.87	4233.15
708.06	3516.36
708.24	2953.17
708.42	2443.23
708.61	2211.81
708.79	1955.81
708.97	1918.95
709.16	1830.88
709.34	1783.78
709.52	1660.90
709.71	1759.21
709.89	1726.44
710.07	1687.53
710.26	1609.70
710.44	1656.81
710.62	1738.73
710.80	1728.49
710.99	1740.77
711.17	1779.68
711.35	1710.05
711.54	1626.09
711.72	1751.01
711.90	1789.92
712.09	1734.63
712.27	1751.01
712.45	1765.35
712.63	1730.53
712.82	1744.87
713.00	1660.90
713.18	1630.18
713.37	1753.06
713.55	1728.49
713.73	1701.86
713.91	1730.53
714.10	1662.95
714.28	1714.15
714.46	1724.39
714.65	1681.38
714.83	1667.05
715.01	1703.91
715.19	1687.53
715.38	1652.71
715.56	1798.12
715.74	1628.14
715.92	1699.81
716.11	1806.31
716.29	1525.74
716.47	1679.33
716.65	1705.96
716.84	1683.43
717.02	1787.88
717.20	1591.27
717.38	1562.60
717.57	1730.53
717.75	1656.81
717.93	1691.62
718.11	1787.88
718.30	1716.20
718.48	1767.40
718.66	1669.09
718.84	1828.84
719.03	1718.25
719.21	1734.63
719.39	1828.84
719.57	1714.15
719.75	1771.49
719.94	1671.14
720.12	1746.92
720.30	1773.54
720.48	1714.15
720.67	1689.57
720.85	1662.95
721.03	1710.05
721.21	1679.33
721.39	1777.64
721.58	1746.92
721.76	1708.01
721.94	1701.86
722.12	1689.57
722.30	1765.35
722.49	1722.34
722.67	1650.66
722.85	1771.49
723.03	1636.33
723.21	1656.81
723.40	1681.38
723.58	1744.87
723.76	1712.10
723.94	1751.01
724.12	1746.92
724.30	1791.97
724.49	1712.10
724.67	1595.37
724.85	1718.25
725.03	1632.23
725.21	1742.82
725.40	1728.49
725.58	1574.89
725.76	1755.11
725.94	1744.87
726.12	1630.18
726.30	1701.86
726.49	1695.72
726.67	1640.42
726.85	1685.48
727.03	1732.58
727.21	2129.89
727.39	2983.89
727.57	3827.65
727.76	4253.63
727.94	4452.28
728.12	4544.44
728.30	3694.54
728.48	2951.12
728.66	2713.56
728.84	2545.63
729.03	2271.20
729.21	2172.89
729.39	2045.92
729.57	1822.69
729.75	1765.35
729.93	1828.84
730.11	1687.53
730.30	1679.33
730.48	1621.99
730.66	1820.64
730.84	1777.64
731.02	1732.58
731.20	1712.10
731.38	1738.73
731.56	1697.77
731.74	1658.85
731.93	1679.33
732.11	1726.44
732.29	1630.18
732.47	1675.24
732.65	1746.92
732.83	1738.73
733.01	1671.14
733.19	1638.38
733.37	1767.40
733.56	1740.77
733.74	1730.53
733.92	1746.92
734.10	1701.86
734.28	1708.01
734.46	1621.99
734.64	1595.37
734.82	1746.92
735.00	1621.99
735.18	1718.25
735.36	1736.68
735.54	1734.63
735.73	1720.29
735.91	1738.73
736.09	1685.48
736.27	1638.38
736.45	1691.62
736.63	1611.75
736.81	1613.80
736.99	1736.68
737.17	1796.07
737.35	1638.38
737.53	1703.91
737.71	1695.72
737.89	1722.34
738.07	1613.80
738.25	1628.14
738.43	1642.47
738.61	1677.29
738.80	1656.81
738.98	1624.04
739.16	1755.11
739.34	1703.91
739.52	1830.88
739.70	1673.19
739.88	1748.97
740.06	1789.92
740.24	1669.09
740.42	1796.07
740.60	1617.90
740.78	1728.49
740.96	1630.18
741.14	1681.38
741.32	1695.72
741.50	1591.27
741.68	1826.79
741.86	1757.16
742.04	1712.10
742.22	1650.66
742.40	1677.29
742.58	1722.34
742.76	1693.67
742.94	1755.11
743.12	1609.70
743.30	1697.77
743.48	1751.01
743.66	1667.05
743.84	1783.78
744.02	1734.63
744.20	1712.10
744.38	1535.98
744.56	1611.75
744.74	1791.97
744.92	1703.91
745.10	1789.92
745.28	1732.58
745.46	1791.97
745.64	1585.13
745.82	1783.78
746.00	1710.05
746.18	1685.48
746.36	1656.81
746.54	1769.44
746.72	1789.92
746.90	1648.61
747.08	1789.92
747.26	1691.62
747.44	1751.01
747.62	1738.73
747.80	1777.64
747.98	1701.86
748.15	1617.90
748.33	1783.78
748.51	1611.75
748.69	1759.21
748.87	1591.27
749.05	1619.94
749.23	1714.15
749.41	1708.01
749.59	1585.13
749.77	1779.68
749.95	1718.25
750.13	1656.81
750.31	1716.20
750.49	1648.61
750.67	1789.92
750.85	1771.49
751.03	1619.94
751.20	1777.64
751.38	1624.04
751.56	1708.01
751.74	1736.68
751.92	1654.76
752.10	1671.14
752.28	1785.83
752.46	1701.86
752.64	1642.47
752.82	1718.25
753.00	1673.19
753.18	1601.51
753.35	1621.99
753.53	1701.86
753.71	1710.05
753.89	1763.30
754.07	1621.99
754.25	1732.58
754.43	1740.77
754.61	1660.90
754.79	1726.44
754.97	1640.42
755.14	1738.73
755.32	1611.75
755.50	1697.77
755.68	1607.66
755.86	1722.34
756.04	1787.88
756.22	1632.23
756.40	1744.87
756.57	1716.20
756.75	1636.33
756.93	1812.45
757.11	1671.14
757.29	1552.36
757.47	1658.85
757.65	1574.89
757.82	1542.12
758.00	1630.18
758.18	1656.81
758.36	1581.03
758.54	1738.73
758.72	1601.51
758.90	1771.49
759.07	1712.10
759.25	1718.25
759.43	1779.68
759.61	1701.86
759.79	2205.66
759.97	1732.58
760.15	1779.68
760.32	1732.58
760.50	1650.66
760.68	1748.97
760.86	1705.96
761.04	1773.54
761.22	1748.97
761.39	1748.97
761.57	1740.77
761.75	1699.81
761.93	1748.97
762.11	1763.30
762.28	1755.11
762.46	1667.05
762.64	1755.11
762.82	1636.33
763.00	1638.38
763.18	1767.40
763.35	1656.81
763.53	1699.81
763.71	1652.71
763.89	1683.43
764.07	1730.53
764.24	1703.91
764.42	1830.88
764.60	1660.90
764.78	1675.24
764.96	1728.49
765.13	1716.20
765.31	1718.25
765.49	1689.57
765.67	1689.57
765.84	1642.47
766.02	1767.40
766.20	1642.47
766.38	1701.86
766.56	1703.91
766.73	1724.39
766.91	1691.62
767.09	1705.96
767.27	1816.55
767.44	1611.75
767.62	1791.97
767.80	1763.30
767.98	1634.28
768.15	1658.85
768.33	1810.40
768.51	1755.11
768.69	1652.71
768.87	1787.88
769.04	1669.09
769.22	1884.13
769.40	1789.92
769.58	1732.58
769.75	1794.02
769.93	1699.81
770.11	1683.43
770.28	1656.81
770.46	1751.01
770.64	1703.91
770.82	1658.85
770.99	1705.96
771.17	1759.21
771.35	1732.58
771.53	1675.24
771.70	1656.81
771.88	1724.39
772.06	1689.57
772.23	1689.57
772.41	1689.57
772.59	1705.96
772.77	1624.04
772.94	1763.30
773.12	1765.35
773.30	1685.48
773.47	1722.34
773.65	1693.67
773.83	1820.64
774.01	1726.44
774.18	1601.51
774.36	1667.05
774.54	1599.46
774.71	1658.85
774.89	1628.14
775.07	1759.21
775.24	1673.19
775.42	1646.57
775.60	1861.60
775.78	1648.61
775.95	1628.14
776.13	1685.48
776.31	1587.18
776.48	1736.68
776.66	1691.62
776.84	1669.09
777.01	1697.77
777.19	1703.91
777.37	1691.62
777.54	1693.67
777.72	1800.16
777.90	1785.83
778.07	1624.04
778.25	1884.13
778.43	1800.16
778.60	1619.94
778.78	1718.25
778.96	1767.40
779.13	1638.38
779.31	1751.01
779.49	1800.16
779.66	1679.33
779.84	1640.42
780.01	1695.72
780.19	1585.13
780.37	1763.30
780.54	1669.09
780.72	1658.85
780.90	1632.23
781.07	1644.52
781.25	1658.85
781.43	1769.44
781.60	1660.90
781.78	1794.02
781.95	1765.35
782.13	1628.14
782.31	1708.01
782.48	1611.75
782.66	1708.01
782.83	1828.84
783.01	1787.88
783.19	1673.19
783.36	1689.57
783.54	1654.76
783.72	1718.25
783.89	1638.38
784.07	1722.34
784.24	1765.35
784.42	1730.53
784.60	1699.81
784.77	1652.71
784.95	1585.13
785.12	1679.33
785.30	1685.48
785.47	1648.61
785.65	1638.38
785.83	1699.81
786.00	1720.29
786.18	1689.57
786.35	1601.51
786.53	1679.33
786.71	1710.05
786.88	1724.39
787.06	1726.44
787.23	1654.76
787.41	1611.75
787.58	1748.97
787.76	1681.38
787.94	1673.19
788.11	1683.43
788.29	1685.48
788.46	1650.66
788.64	1716.20
788.81	1644.52
788.99	1662.95
789.16	1673.19
789.34	1744.87
789.52	1652.71
789.69	1578.98
789.87	1593.32
790.04	1691.62
790.22	1730.53
790.39	1740.77
790.57	1693.67
790.74	1662.95
790.92	1773.54
791.09	1576.94
791.27	1658.85
791.44	1800.16
791.62	1652.71
791.79	1816.55
791.97	1718.25
792.15	1857.51
792.32	1705.96
792.50	1755.11
792.67	1691.62
792.85	1730.53
793.02	1689.57
793.20	1607.66
793.37	1603.56
793.55	1681.38
793.72	1636.33
793.90	1714.15
794.07	1675.24
794.25	1667.05
794.42	1718.25
794.60	1695.72
794.77	1720.29
794.95	1671.14
795.12	1646.57
795.30	1722.34
795.47	1652.71
795.65	1925.09
795.82	1734.63
796.00	1619.94
796.17	1753.06
796.34	1689.57
796.52	1716.20
796.69	1679.33
796.87	1710.05
797.04	1763.30
797.22	1757.16
797.39	1671.14
797.57	1718.25
797.74	1675.24
797.92	1652.71
798.09	1701.86
798.27	1687.53
798.44	1744.87
798.62	1667.05
798.79	1738.73
798.96	1824.74
799.14	1632.23
799.31	1832.93
799.49	1787.88
799.66	1679.33
799.84	1679.33
800.01	1687.53
800.19	1755.11
800.36	1542.12
800.53	1732.58
800.71	1677.29
800.88	1751.01
801.06	1626.09
801.23	1730.53
801.41	1685.48
801.58	1708.01
801.75	1687.53
801.93	1677.29
802.10	1804.26
802.28	1683.43
802.45	1650.66
802.63	1722.34
802.80	1830.88
802.97	1679.33
803.15	1716.20
803.32	1730.53
803.50	1673.19
803.67	1611.75
803.84	1626.09
804.02	1732.58
804.19	1638.38
804.37	1527.78
804.54	1685.48
804.71	1673.19
804.89	1773.54
805.06	1669.09
805.24	1603.56
805.41	1671.14
805.58	1611.75
805.76	1839.08
805.93	1697.77
806.10	1800.16
806.28	1753.06
806.45	1689.57
806.63	1660.90
806.80	1748.97
806.97	1695.72
807.15	1689.57
807.32	1730.53
807.49	1683.43
807.67	1683.43
807.84	1677.29
808.01	1595.37
808.19	1841.12
808.36	1798.12
808.54	1619.94
808.71	1665.00
808.88	1638.38
809.06	1646.57
809.23	1771.49
809.40	1632.23
809.58	1730.53
809.75	1665.00
809.92	1644.52
810.10	1886.18
810.27	1660.90
810.44	1757.16
810.62	1798.12
810.79	1675.24
810.96	1775.59
811.14	1652.71
811.31	1679.33
811.48	1718.25
811.66	1769.44
811.83	1691.62
812.00	1728.49
812.18	1716.20
812.35	1923.04
812.52	1609.70
812.69	1656.81
812.87	1744.87
813.04	1624.04
813.21	1640.42
813.39	1607.66
813.56	1636.33
813.73	1708.01
813.91	1644.52
814.08	1730.53
814.25	1703.91
814.42	1572.84
814.60	1675.24
814.77	1675.24
814.94	1728.49
815.12	1705.96
815.29	1781.73
815.46	1656.81
815.63	1591.27
815.81	1685.48
815.98	1626.09
816.15	1708.01
816.33	1757.16
816.50	1673.19
816.67	1689.57
816.84	1656.81
817.02	1638.38
817.19	1626.09
817.36	1775.59
817.53	1708.01
817.71	1697.77
817.88	1843.17
818.05	1591.27
818.22	1648.61
818.40	1765.35
818.57	1730.53
818.74	1718.25
818.91	1718.25
819.09	1669.09
819.26	1677.29
819.43	1642.47
819.60	1624.04
819.78	1671.14
819.95	1771.49
820.12	1673.19
820.29	1757.16
820.47	1781.73
820.64	1665.00
820.81	1650.66
820.98	1681.38
821.15	1669.09
821.33	1855.46
821.50	1617.90
821.67	1742.82
821.84	1681.38
822.02	1740.77
822.19	1767.40
822.36	1681.38
822.53	1705.96
822.70	1617.90
822.88	1705.96
823.05	1634.28
823.22	1718.25
823.39	1693.67
823.56	1718.25
823.74	1757.16
823.91	1624.04
824.08	1689.57
824.25	1609.70
824.42	1740.77
824.60	1662.95
824.77	1679.33
824.94	1607.66
825.11	1726.44
825.28	1605.61
825.45	1705.96
825.63	1646.57
825.80	1636.33
825.97	1794.02
826.14	1789.92
826.31	1576.94
826.48	1728.49
826.66	1689.57
826.83	1665.00
827.00	1738.73
827.17	1640.42
827.34	1675.24
827.51	1789.92
827.69	1693.67
827.86	1660.90
828.03	1695.72
828.20	1710.05
828.37	1589.22
828.54	1748.97
828.71	1673.19
828.89	1800.16
829.06	1640.42
829.23	1796.07
829.40	1675.24
829.57	1650.66
829.74	1773.54
829.91	1716.20
830.09	1669.09
830.26	1677.29
830.43	1712.10
830.60	1681.38
830.77	1697.77
830.94	1773.54
831.11	1730.53
831.28	1654.76
831.46	1767.40
831.63	1712.10
831.80	1753.06
831.97	1624.04
832.14	1714.15
832.31	1738.73
832.48	1644.52
832.65	1722.34
832.82	1693.67
832.99	1730.53
833.17	1660.90
833.34	1775.59
833.51	1669.09
833.68	1669.09
833.85	1746.92
834.02	1724.39
834.19	1587.18
834.36	1681.38
834.53	1685.48
834.70	1812.45
834.87	1665.00
835.04	1603.56
835.22	1703.91
835.39	1665.00
835.56	1566.70
835.73	1624.04
835.90	1679.33
836.07	1673.19
836.24	1759.21
836.41	1654.76
836.58	1648.61
836.75	1701.86
836.92	1648.61
837.09	1624.04
837.26	1738.73
837.43	1658.85
837.60	1660.90
837.77	1681.38
837.94	1757.16
838.12	1763.30
838.29	1746.92
838.46	1621.99
838.63	1628.14
838.80	1810.40
838.97	1738.73
839.14	1720.29
839.31	1730.53
839.48	1763.30
839.65	1703.91
839.82	1710.05
839.99	1746.92
840.16	1718.25
840.33	1679.33
840.50	1652.71
840.67	1681.38
840.84	1640.42
841.01	1683.43
841.18	1671.14
841.35	1609.70
841.52	1759.21
841.69	1853.41
841.86	1785.83
842.03	1714.15
842.20	1814.50
842.37	1650.66
842.54	1708.01
842.71	1718.25
842.88	1648.61
843.05	1644.52
843.22	1669.09
843.39	1740.77
843.56	1640.42
843.73	1665.00
843.90	1710.05
844.07	1652.71
844.24	1736.68
844.41	1806.31
844.58	1765.35
844.75	1646.57
844.92	1738.73
845.09	1658.85
845.26	1619.94
845.43	1671.14
845.60	1675.24
845.77	1708.01
845.94	1730.53
846.10	1728.49
846.27	1617.90
846.44	1581.03
846.61	1617.90
846.78	1677.29
846.95	1742.82
847.12	1632.23
847.29	1648.61
847.46	1585.13
847.63	1660.90
847.80	1656.81
847.97	1726.44
848.14	1824.74
848.31	1646.57
848.48	1689.57
848.65	1650.66
848.82	1617.90
848.98	1742.82
849.15	1718.25
849.32	1716.20
849.49	1763.30
849.66	1650.66
849.83	1775.59
850.00	1624.04
850.17	1708.01
850.34	1689.57
850.51	1595.37
850.68	1652.71
850.85	1855.46
851.01	1775.59
851.18	1742.82
851.35	1656.81
851.52	1740.77
851.69	1832.93
851.86	1650.66
852.03	1697.77
852.20	1685.48
852.37	1710.05
852.53	1583.08
852.70	1748.97
852.87	1701.86
853.04	1673.19
853.21	1652.71
853.38	1699.81
853.55	1742.82
853.72	1771.49
853.89	1736.68
854.05	1642.47
854.22	1624.04
854.39	1697.77
854.56	1710.05
854.73	1728.49
854.90	1689.57
855.07	1722.34
855.23	1675.24
855.40	1640.42
855.57	1724.39
855.74	1517.54
855.91	1853.41
856.08	1615.85
856.25	1564.65
856.41	1683.43
856.58	1714.15
856.75	1730.53
856.92	1654.76
857.09	1751.01
857.26	1665.00
857.42	1728.49
857.59	1644.52
857.76	1759.21
857.93	1736.68
858.10	1722.34
858.27	1669.09
858.43	1736.68
858.60	1654.76
858.77	1574.89
858.94	1624.04
859.11	1814.50
859.27	1673.19
859.44	1816.55
859.61	1843.17
859.78	1656.81
859.95	1669.09
860.12	1585.13
860.28	1830.88
860.45	1753.06
860.62	1636.33
860.79	1613.80
860.95	1693.67
861.12	1591.27
861.29	1615.85
861.46	1673.19
861.63	1654.76
861.79	1779.68
861.96	1632.23
862.13	1746.92
862.30	1863.65
862.47	1699.81
862.63	1701.86
862.80	1658.85
862.97	1732.58
863.14	1693.67
863.30	1679.33
863.47	1609.70
863.64	1710.05
863.81	1628.14
863.97	1691.62
864.14	1703.91
864.31	1630.18
864.48	1738.73
864.65	1669.09
864.81	1716.20
864.98	1748.97
865.15	1847.27
865.32	1787.88
865.48	1683.43
865.65	1789.92
865.82	1667.05
865.98	1695.72
866.15	1716.20
866.32	1632.23
866.49	1632.23
866.65	1824.74
866.82	1681.38
866.99	1619.94
867.16	1667.05
867.32	1730.53
867.49	1665.00
867.66	1619.94
867.83	1660.90
867.99	1568.74
868.16	1693.67
868.33	1624.04
868.49	1744.87
868.66	1617.90
868.83	1722.34
868.99	1689.57
869.16	1783.78
869.33	1716.20
869.50	1798.12
869.66	1675.24
869.83	1695.72
870.00	1677.29
870.16	1742.82
870.33	1705.96
870.50	1763.30
870.66	1628.14
870.83	1767.40
871.00	1662.95
871.17	1710.05
871.33	1656.81
871.50	1593.32
871.67	1689.57
871.83	1673.19
872.00	1773.54
872.17	1601.51
872.33	1773.54
872.50	1732.58
872.67	1689.57
872.83	1665.00
873.00	1755.11
873.17	1689.57
873.33	1738.73
873.50	1695.72
873.67	1626.09
873.83	1789.92
874.00	1714.15
874.16	1718.25
874.33	1705.96
874.50	1660.90
874.66	1767.40
874.83	1650.66
875.00	1783.78
875.16	1701.86
875.33	1744.87
875.50	1656.81
875.66	1605.61
875.83	1740.77
875.99	1748.97
876.16	1779.68
876.33	1632.23
876.49	1646.57
876.66	1732.58
876.83	1695.72
876.99	1636.33
877.16	1679.33
877.32	1726.44
877.49	1685.48
877.66	1677.29
877.82	1712.10
877.99	1677.29
878.15	1730.53
878.32	1769.44
878.49	1724.39
878.65	1714.15
878.82	1746.92
878.98	1660.90
879.15	1724.39
879.32	1714.15
879.48	1681.38
879.65	1714.15
879.81	1658.85
879.98	1656.81
880.15	1697.77
880.31	1728.49
880.48	1755.11
880.64	1726.44
880.81	1738.73
880.97	1877.99
881.14	1804.26
881.31	1615.85
881.47	1853.41
881.64	1722.34
881.80	1562.60
881.97	1730.53
882.13	1708.01
882.30	1665.00
882.47	1730.53
882.63	1632.23
882.80	1634.28
882.96	1646.57
883.13	1726.44
883.29	1679.33
883.46	1708.01
883.62	1718.25
883.79	1714.15
883.95	1726.44
884.12	1693.67
884.29	1746.92
884.45	1785.83
884.62	1816.55
884.78	1636.33
884.95	1777.64
885.11	1701.86
885.28	1759.21
885.44	1740.77
885.61	1748.97
885.77	1740.77
885.94	1716.20
886.10	1632.23
886.27	1640.42
886.43	1802.21
886.60	1718.25
886.76	1656.81
886.93	1546.22
887.09	1685.48
887.26	1646.57
887.42	1638.38
887.59	1785.83
887.75	1847.27
887.92	1738.73
888.08	1779.68
888.25	1800.16
888.41	1787.88
888.58	1726.44
888.74	1587.18
888.91	1611.75
>>>>>End Processed Spectral Data<<<<<
