SpectraSuite Data File
++++++++++++++++++++++++++++++++++++
Date: Mon Jun 06 16:09:37 CEST 2016
User: root
Dark Spectrum Present: No
Reference Spectrum Present: No
Number of Sampled Component Spectra: 1
Spectrometers: USB4C02835
Integration Time (usec): 100000 (USB4C02835)
Spectra Averaged: 1 (USB4C02835)
Boxcar Smoothing: 0 (USB4C02835)
Correct for Electrical Dark: No (USB4C02835)
Strobe/Lamp Enabled: No (USB4C02835)
Correct for Detector Non-linearity: No (USB4C02835)
Correct for Stray Light: No (USB4C02835)
Number of Pixels in Processed Spectrum: 3648
>>>>>Begin Processed Spectral Data<<<<<
177.47	1476.59
177.69	1476.59
177.91	1476.59
178.13	1437.67
178.36	1411.05
178.58	1677.29
178.80	1738.73
179.02	1646.57
179.24	1740.77
179.46	1683.43
179.68	1665.00
179.90	1617.90
180.13	1712.10
180.35	1671.14
180.57	1691.62
180.79	1773.54
181.01	1701.86
181.23	1751.01
181.45	1765.35
181.67	1710.05
181.90	1732.58
182.12	1685.48
182.34	1665.00
182.56	1654.76
182.78	1744.87
183.00	1705.96
183.22	1751.01
183.44	1677.29
183.66	1748.97
183.89	1800.16
184.11	1773.54
184.33	1802.21
184.55	1851.36
184.77	1742.82
184.99	1730.53
185.21	1693.67
185.43	1845.22
185.65	1669.09
185.87	1779.68
186.10	1849.32
186.32	1804.26
186.54	1730.53
186.76	1753.06
186.98	1736.68
187.20	1693.67
187.42	1615.85
187.64	1763.30
187.86	1730.53
188.08	1820.64
188.30	1800.16
188.52	1718.25
188.75	1724.39
188.97	1779.68
189.19	1693.67
189.41	1691.62
189.63	1822.69
189.85	1665.00
190.07	1566.70
190.29	1638.38
190.51	1716.20
190.73	1656.81
190.95	1781.73
191.17	1771.49
191.39	1611.75
191.61	1654.76
191.84	1722.34
192.06	1718.25
192.28	1656.81
192.50	1933.28
192.72	1779.68
192.94	1736.68
193.16	1753.06
193.38	1669.09
193.60	1669.09
193.82	1656.81
194.04	1777.64
194.26	1798.12
194.48	1773.54
194.70	1660.90
194.92	1681.38
195.14	1777.64
195.36	1722.34
195.58	1755.11
195.80	1738.73
196.02	1679.33
196.24	1771.49
196.46	1726.44
196.69	1660.90
196.91	1830.88
197.13	1669.09
197.35	1601.51
197.57	1820.64
197.79	1757.16
198.01	1732.58
198.23	1724.39
198.45	1738.73
198.67	1722.34
198.89	1677.29
199.11	1669.09
199.33	1697.77
199.55	1548.26
199.77	1705.96
199.99	1804.26
200.21	1624.04
200.43	1708.01
200.65	1697.77
200.87	1636.33
201.09	1744.87
201.31	1740.77
201.53	1640.42
201.75	1744.87
201.97	1742.82
202.19	1689.57
202.41	1718.25
202.63	1822.69
202.85	1755.11
203.07	1714.15
203.29	1722.34
203.51	1656.81
203.73	1673.19
203.95	1857.51
204.17	1708.01
204.39	1785.83
204.61	1673.19
204.83	1681.38
205.05	1673.19
205.27	1841.12
205.49	1902.56
205.71	1724.39
205.93	1697.77
206.15	1671.14
206.37	1697.77
206.59	1767.40
206.81	1593.32
207.03	1710.05
207.25	1646.57
207.47	1751.01
207.69	1708.01
207.91	1779.68
208.13	1816.55
208.34	1708.01
208.56	1595.37
208.78	1779.68
209.00	1691.62
209.22	1730.53
209.44	1705.96
209.66	1746.92
209.88	1728.49
210.10	1689.57
210.32	1712.10
210.54	1830.88
210.76	1697.77
210.98	1742.82
211.20	1644.52
211.42	1726.44
211.64	1771.49
211.86	1779.68
212.08	1738.73
212.30	1677.29
212.52	1681.38
212.74	1787.88
212.96	1755.11
213.17	1722.34
213.39	1710.05
213.61	1789.92
213.83	1722.34
214.05	1685.48
214.27	1806.31
214.49	1671.14
214.71	1648.61
214.93	1859.56
215.15	1685.48
215.37	1804.26
215.59	1617.90
215.81	1769.44
216.03	1785.83
216.24	1687.53
216.46	1726.44
216.68	1755.11
216.90	1757.16
217.12	1732.58
217.34	1757.16
217.56	1716.20
217.78	1816.55
218.00	1781.73
218.22	1753.06
218.44	1748.97
218.66	1767.40
218.87	1777.64
219.09	1726.44
219.31	1730.53
219.53	1660.90
219.75	1687.53
219.97	1740.77
220.19	1755.11
220.41	1720.29
220.63	1837.03
220.85	1685.48
221.06	1705.96
221.28	1761.25
221.50	1751.01
221.72	1763.30
221.94	1726.44
222.16	1726.44
222.38	1720.29
222.60	1751.01
222.82	1642.47
223.03	1804.26
223.25	1662.95
223.47	1751.01
223.69	1800.16
223.91	1767.40
224.13	1734.63
224.35	1714.15
224.57	1779.68
224.78	1804.26
225.00	1656.81
225.22	1742.82
225.44	1751.01
225.66	1781.73
225.88	1669.09
226.10	1798.12
226.32	1681.38
226.53	1834.98
226.75	1718.25
226.97	1636.33
227.19	1765.35
227.41	1626.09
227.63	1673.19
227.85	1626.09
228.06	1791.97
228.28	1650.66
228.50	1826.79
228.72	1714.15
228.94	1708.01
229.16	1562.60
229.37	1701.86
229.59	1601.51
229.81	1834.98
230.03	1669.09
230.25	1722.34
230.47	1628.14
230.69	1646.57
230.90	1687.53
231.12	1675.24
231.34	1761.25
231.56	1755.11
231.78	1646.57
232.00	1691.62
232.21	1714.15
232.43	1769.44
232.65	1595.37
232.87	1779.68
233.09	1665.00
233.30	1689.57
233.52	1732.58
233.74	1636.33
233.96	1701.86
234.18	1783.78
234.40	1732.58
234.61	1834.98
234.83	1652.71
235.05	1630.18
235.27	1886.18
235.49	1755.11
235.70	1673.19
235.92	1796.07
236.14	1662.95
236.36	1904.61
236.58	1628.14
236.79	1763.30
237.01	1636.33
237.23	1632.23
237.45	1841.12
237.67	1705.96
237.88	1724.39
238.10	1789.92
238.32	1712.10
238.54	1714.15
238.76	1693.67
238.97	1636.33
239.19	1732.58
239.41	1712.10
239.63	1783.78
239.85	1748.97
240.06	1681.38
240.28	1730.53
240.50	1689.57
240.72	1714.15
240.93	1685.48
241.15	1736.68
241.37	1722.34
241.59	1834.98
241.81	1722.34
242.02	1730.53
242.24	1714.15
242.46	1759.21
242.68	1640.42
242.89	1789.92
243.11	1660.90
243.33	1787.88
243.55	1753.06
243.76	1665.00
243.98	1689.57
244.20	1683.43
244.42	1714.15
244.64	1712.10
244.85	1650.66
245.07	1679.33
245.29	1757.16
245.51	1746.92
245.72	1742.82
245.94	1810.40
246.16	1685.48
246.38	1777.64
246.59	1685.48
246.81	1665.00
247.03	1722.34
247.24	1626.09
247.46	1722.34
247.68	1722.34
247.90	1636.33
248.11	1689.57
248.33	1757.16
248.55	1753.06
248.77	1656.81
248.98	1744.87
249.20	1816.55
249.42	1730.53
249.64	1763.30
249.85	1789.92
250.07	1654.76
250.29	1771.49
250.50	1806.31
250.72	1671.14
250.94	1820.64
251.16	1839.08
251.37	1832.93
251.59	1712.10
251.81	1789.92
252.02	1759.21
252.24	1708.01
252.46	1785.83
252.68	1722.34
252.89	1724.39
253.11	1626.09
253.33	1863.65
253.54	1757.16
253.76	1671.14
253.98	1691.62
254.20	1708.01
254.41	1660.90
254.63	1687.53
254.85	1697.77
255.06	1757.16
255.28	1763.30
255.50	1736.68
255.71	1611.75
255.93	1601.51
256.15	1689.57
256.36	1724.39
256.58	1681.38
256.80	1726.44
257.02	1712.10
257.23	1730.53
257.45	1701.86
257.67	1730.53
257.88	1763.30
258.10	1755.11
258.32	1742.82
258.53	1701.86
258.75	1810.40
258.97	1767.40
259.18	1677.29
259.40	1765.35
259.62	1798.12
259.83	1771.49
260.05	1800.16
260.27	1996.77
260.48	1732.58
260.70	1703.91
260.92	1675.24
261.13	1708.01
261.35	1697.77
261.57	1730.53
261.78	1652.71
262.00	1654.76
262.22	1759.21
262.43	1675.24
262.65	1650.66
262.86	1796.07
263.08	1873.89
263.30	1744.87
263.51	1660.90
263.73	1705.96
263.95	1826.79
264.16	1671.14
264.38	1693.67
264.60	1812.45
264.81	1660.90
265.03	1787.88
265.25	1728.49
265.46	1730.53
265.68	1757.16
265.89	1705.96
266.11	1638.38
266.33	1720.29
266.54	1738.73
266.76	1712.10
266.98	1759.21
267.19	1845.22
267.41	1728.49
267.62	1765.35
267.84	1626.09
268.06	1701.86
268.27	1716.20
268.49	1753.06
268.70	1855.46
268.92	1697.77
269.14	1695.72
269.35	1689.57
269.57	1634.28
269.79	1726.44
270.00	1673.19
270.22	1849.32
270.43	1681.38
270.65	1601.51
270.87	1744.87
271.08	1746.92
271.30	1669.09
271.51	1669.09
271.73	1744.87
271.95	1812.45
272.16	1710.05
272.38	1718.25
272.59	1681.38
272.81	1812.45
273.02	1675.24
273.24	1705.96
273.46	1722.34
273.67	1673.19
273.89	1601.51
274.10	1685.48
274.32	1773.54
274.54	1791.97
274.75	1732.58
274.97	1632.23
275.18	1767.40
275.40	1728.49
275.61	1683.43
275.83	1732.58
276.05	1662.95
276.26	1753.06
276.48	1683.43
276.69	1689.57
276.91	1671.14
277.12	1804.26
277.34	1789.92
277.55	1826.79
277.77	1748.97
277.99	1740.77
278.20	1667.05
278.42	1710.05
278.63	1759.21
278.85	1689.57
279.06	1576.94
279.28	1742.82
279.49	1751.01
279.71	1726.44
279.93	1660.90
280.14	1675.24
280.36	1658.85
280.57	1757.16
280.79	1695.72
281.00	1667.05
281.22	1712.10
281.43	1796.07
281.65	1589.22
281.86	1714.15
282.08	1734.63
282.29	1814.50
282.51	1603.56
282.73	1703.91
282.94	1519.59
283.16	1757.16
283.37	1746.92
283.59	1675.24
283.80	1710.05
284.02	1746.92
284.23	1785.83
284.45	1681.38
284.66	1638.38
284.88	1763.30
285.09	1800.16
285.31	1812.45
285.52	1771.49
285.74	1669.09
285.95	1775.59
286.17	1775.59
286.38	1748.97
286.60	1697.77
286.81	1621.99
287.03	1738.73
287.24	1738.73
287.46	1757.16
287.67	1658.85
287.89	1824.74
288.10	1714.15
288.32	1685.48
288.53	1765.35
288.75	1701.86
288.96	1748.97
289.18	1677.29
289.39	1714.15
289.61	1777.64
289.82	1843.17
290.04	1845.22
290.25	1632.23
290.47	1726.44
290.68	1685.48
290.90	1781.73
291.11	1611.75
291.33	1753.06
291.54	1660.90
291.76	1593.32
291.97	1683.43
292.18	1746.92
292.40	1687.53
292.61	1656.81
292.83	1949.67
293.04	1730.53
293.26	1769.44
293.47	1734.63
293.69	1665.00
293.90	1781.73
294.12	1734.63
294.33	1771.49
294.55	1705.96
294.76	1789.92
294.97	1841.12
295.19	1861.60
295.40	1681.38
295.62	1767.40
295.83	1753.06
296.05	1619.94
296.26	1771.49
296.48	1669.09
296.69	1771.49
296.90	1671.14
297.12	1751.01
297.33	1771.49
297.55	1693.67
297.76	1697.77
297.98	1845.22
298.19	1787.88
298.41	1777.64
298.62	1626.09
298.83	1798.12
299.05	1673.19
299.26	1665.00
299.48	1660.90
299.69	1757.16
299.90	1759.21
300.12	1587.18
300.33	1734.63
300.55	1759.21
300.76	1765.35
300.98	1591.27
301.19	1683.43
301.40	1695.72
301.62	1693.67
301.83	1730.53
302.05	1728.49
302.26	1820.64
302.47	1714.15
302.69	1638.38
302.90	1742.82
303.12	1617.90
303.33	1742.82
303.54	1849.32
303.76	1716.20
303.97	1753.06
304.19	1771.49
304.40	1671.14
304.61	1740.77
304.83	1832.93
305.04	1804.26
305.26	1785.83
305.47	1691.62
305.68	1767.40
305.90	1691.62
306.11	1796.07
306.33	1720.29
306.54	1681.38
306.75	1640.42
306.97	1626.09
307.18	1640.42
307.39	1712.10
307.61	1791.97
307.82	1660.90
308.04	1701.86
308.25	1621.99
308.46	1724.39
308.68	1701.86
308.89	1673.19
309.10	1787.88
309.32	1693.67
309.53	1765.35
309.74	1779.68
309.96	1699.81
310.17	1775.59
310.39	1624.04
310.60	1697.77
310.81	1779.68
311.03	1660.90
311.24	1714.15
311.45	1675.24
311.67	1802.21
311.88	1716.20
312.09	1730.53
312.31	1642.47
312.52	1847.27
312.73	1740.77
312.95	1630.18
313.16	1693.67
313.37	1753.06
313.59	1763.30
313.80	1701.86
314.01	1724.39
314.23	1671.14
314.44	1785.83
314.65	1636.33
314.87	1689.57
315.08	1697.77
315.29	1687.53
315.51	1638.38
315.72	1597.42
315.93	1783.78
316.15	1810.40
316.36	1744.87
316.57	1740.77
316.79	1730.53
317.00	1683.43
317.21	1808.36
317.43	1740.77
317.64	1716.20
317.85	1689.57
318.07	1636.33
318.28	1748.97
318.49	1916.90
318.70	2004.96
318.92	1818.60
319.13	1800.16
319.34	1812.45
319.56	1816.55
319.77	1828.84
319.98	1832.93
320.20	1804.26
320.41	1798.12
320.62	1763.30
320.83	1714.15
321.05	1818.60
321.26	1751.01
321.47	1767.40
321.69	1855.46
321.90	1738.73
322.11	1603.56
322.32	1716.20
322.54	1767.40
322.75	1667.05
322.96	1890.28
323.18	1624.04
323.39	1644.52
323.60	1773.54
323.81	1775.59
324.03	1726.44
324.24	1734.63
324.45	1699.81
324.66	1665.00
324.88	1796.07
325.09	1785.83
325.30	1667.05
325.52	1804.26
325.73	1812.45
325.94	1667.05
326.15	1538.02
326.37	1697.77
326.58	1845.22
326.79	1783.78
327.00	1687.53
327.22	1705.96
327.43	1712.10
327.64	1605.61
327.85	1781.73
328.07	1705.96
328.28	1779.68
328.49	1714.15
328.70	1714.15
328.92	1697.77
329.13	1669.09
329.34	1677.29
329.55	1863.65
329.76	1740.77
329.98	1720.29
330.19	1769.44
330.40	1742.82
330.61	1730.53
330.83	1742.82
331.04	1681.38
331.25	1763.30
331.46	1730.53
331.68	1638.38
331.89	1775.59
332.10	1705.96
332.31	1673.19
332.52	1601.51
332.74	1789.92
332.95	1626.09
333.16	1755.11
333.37	1740.77
333.58	1656.81
333.80	1814.50
334.01	1695.72
334.22	1677.29
334.43	1673.19
334.64	1578.98
334.86	1660.90
335.07	1619.94
335.28	1806.31
335.49	1648.61
335.70	1730.53
335.92	1773.54
336.13	1834.98
336.34	1720.29
336.55	1652.71
336.76	1681.38
336.98	1615.85
337.19	1734.63
337.40	1818.60
337.61	1822.69
337.82	1650.66
338.04	1718.25
338.25	1611.75
338.46	1687.53
338.67	1660.90
338.88	1675.24
339.09	1650.66
339.31	1705.96
339.52	1595.37
339.73	1650.66
339.94	1789.92
340.15	1798.12
340.36	1615.85
340.58	1718.25
340.79	1685.48
341.00	1796.07
341.21	1599.46
341.42	1765.35
341.63	1736.68
341.85	1730.53
342.06	1779.68
342.27	1703.91
342.48	1767.40
342.69	1708.01
342.90	1748.97
343.12	1701.86
343.33	1667.05
343.54	1744.87
343.75	1796.07
343.96	1671.14
344.17	1632.23
344.38	1742.82
344.60	1718.25
344.81	1658.85
345.02	1689.57
345.23	1730.53
345.44	1892.32
345.65	1732.58
345.86	1742.82
346.07	1679.33
346.29	1712.10
346.50	1689.57
346.71	1736.68
346.92	1771.49
347.13	1796.07
347.34	1673.19
347.55	1636.33
347.76	1777.64
347.98	1648.61
348.19	1609.70
348.40	1783.78
348.61	1722.34
348.82	1832.93
349.03	1748.97
349.24	1693.67
349.45	1841.12
349.66	1628.14
349.88	1675.24
350.09	1689.57
350.30	1808.36
350.51	1808.36
350.72	1744.87
350.93	1781.73
351.14	1748.97
351.35	1783.78
351.56	1730.53
351.77	1691.62
351.99	1746.92
352.20	1875.94
352.41	1714.15
352.62	1542.12
352.83	1697.77
353.04	1802.21
353.25	1689.57
353.46	1794.02
353.67	1755.11
353.88	1562.60
354.09	1708.01
354.30	1708.01
354.52	1732.58
354.73	1720.29
354.94	1734.63
355.15	1662.95
355.36	1828.84
355.57	1744.87
355.78	1812.45
355.99	1658.85
356.20	1705.96
356.41	1785.83
356.62	1714.15
356.83	1650.66
357.04	1748.97
357.25	1611.75
357.46	1667.05
357.68	1619.94
357.89	1652.71
358.10	1730.53
358.31	1687.53
358.52	1648.61
358.73	1681.38
358.94	1683.43
359.15	1708.01
359.36	1771.49
359.57	1710.05
359.78	1742.82
359.99	1726.44
360.20	1691.62
360.41	1665.00
360.62	1656.81
360.83	1683.43
361.04	1761.25
361.25	1691.62
361.46	1789.92
361.67	1710.05
361.88	1683.43
362.09	1761.25
362.30	1673.19
362.51	1701.86
362.72	1624.04
362.93	1734.63
363.14	1718.25
363.35	1787.88
363.56	1656.81
363.78	1828.84
363.99	1810.40
364.20	1693.67
364.41	1761.25
364.62	1800.16
364.83	1634.28
365.04	1689.57
365.25	1757.16
365.46	1822.69
365.67	1701.86
365.88	1667.05
366.09	1697.77
366.30	1689.57
366.51	1730.53
366.72	1658.85
366.93	1714.15
367.14	1751.01
367.35	1775.59
367.56	1687.53
367.77	1800.16
367.98	1738.73
368.18	1697.77
368.39	1775.59
368.60	1714.15
368.81	1751.01
369.02	1708.01
369.23	1748.97
369.44	1578.98
369.65	1806.31
369.86	1734.63
370.07	1744.87
370.28	1689.57
370.49	1781.73
370.70	1732.58
370.91	1665.00
371.12	1628.14
371.33	1767.40
371.54	1658.85
371.75	1863.65
371.96	1630.18
372.17	1673.19
372.38	1667.05
372.59	1759.21
372.80	1669.09
373.01	1724.39
373.22	1812.45
373.43	1726.44
373.64	1677.29
373.85	1822.69
374.06	1888.23
374.26	1763.30
374.47	1726.44
374.68	1843.17
374.89	1746.92
375.10	1679.33
375.31	1759.21
375.52	1730.53
375.73	1755.11
375.94	1660.90
376.15	1802.21
376.36	1640.42
376.57	1724.39
376.78	1691.62
376.99	1689.57
377.20	1794.02
377.40	1718.25
377.61	1804.26
377.82	1683.43
378.03	1855.46
378.24	1785.83
378.45	1722.34
378.66	1697.77
378.87	1617.90
379.08	1624.04
379.29	1730.53
379.50	1804.26
379.71	1773.54
379.91	1726.44
380.12	1691.62
380.33	1722.34
380.54	1691.62
380.75	1726.44
380.96	1732.58
381.17	1689.57
381.38	1642.47
381.59	1738.73
381.80	1695.72
382.00	1841.12
382.21	1708.01
382.42	1798.12
382.63	1941.47
382.84	1765.35
383.05	1755.11
383.26	1761.25
383.47	1783.78
383.68	1699.81
383.88	1767.40
384.09	1697.77
384.30	1837.03
384.51	1689.57
384.72	1720.29
384.93	1648.61
385.14	1708.01
385.35	1771.49
385.55	1685.48
385.76	1857.51
385.97	1617.90
386.18	1755.11
386.39	1681.38
386.60	1712.10
386.81	1640.42
387.02	1632.23
387.22	1656.81
387.43	1767.40
387.64	1785.83
387.85	1888.23
388.06	2226.14
388.27	4200.38
388.48	6659.99
388.68	8251.27
388.89	9551.73
389.10	9791.34
389.31	8607.61
389.52	7536.52
389.73	6737.82
389.93	6268.83
390.14	5894.05
390.35	5207.98
390.56	4630.46
390.77	3661.77
390.98	3004.37
391.18	2488.28
391.39	2185.18
391.60	1822.69
391.81	1796.07
392.02	1716.20
392.23	1859.56
392.43	1703.91
392.64	1757.16
392.85	1777.64
393.06	1830.88
393.27	1742.82
393.47	1740.77
393.68	1718.25
393.89	1699.81
394.10	1757.16
394.31	1683.43
394.52	1742.82
394.72	1771.49
394.93	1726.44
395.14	1699.81
395.35	1806.31
395.56	1642.47
395.76	1728.49
395.97	1763.30
396.18	1798.12
396.39	1818.60
396.60	2082.78
396.80	1896.42
397.01	1736.68
397.22	1859.56
397.43	1914.85
397.64	1746.92
397.84	1804.26
398.05	1886.18
398.26	1773.54
398.47	1771.49
398.67	1759.21
398.88	1808.36
399.09	1744.87
399.30	1718.25
399.51	1814.50
399.71	1636.33
399.92	1714.15
400.13	1695.72
400.34	1703.91
400.54	1669.09
400.75	1701.86
400.96	1757.16
401.17	1834.98
401.37	1740.77
401.58	1751.01
401.79	1769.44
402.00	1910.75
402.21	2009.06
402.41	1947.62
402.62	2023.39
402.83	2050.02
403.04	1994.72
403.24	2045.92
403.45	1845.22
403.66	1941.47
403.87	1906.66
404.07	1943.52
404.28	1945.57
404.49	1900.52
404.70	1785.83
404.90	1761.25
405.11	1771.49
405.32	1751.01
405.52	1710.05
405.73	1738.73
405.94	1675.24
406.15	1730.53
406.35	1759.21
406.56	1773.54
406.77	1669.09
406.98	1775.59
407.18	1669.09
407.39	1742.82
407.60	1687.53
407.80	1837.03
408.01	1669.09
408.22	1761.25
408.43	1708.01
408.63	1738.73
408.84	1755.11
409.05	1728.49
409.25	1703.91
409.46	1730.53
409.67	1669.09
409.88	1687.53
410.08	1771.49
410.29	1697.77
410.50	1789.92
410.70	1761.25
410.91	1669.09
411.12	1726.44
411.32	1724.39
411.53	1710.05
411.74	1890.28
411.95	1849.32
412.15	1712.10
412.36	1867.75
412.57	1847.27
412.77	1867.75
412.98	1681.38
413.19	1765.35
413.39	1794.02
413.60	1779.68
413.81	1880.04
414.01	1679.33
414.22	1769.44
414.43	1775.59
414.63	1695.72
414.84	1775.59
415.05	1716.20
415.25	1726.44
415.46	1791.97
415.67	1712.10
415.87	1777.64
416.08	1732.58
416.29	1736.68
416.49	1722.34
416.70	1732.58
416.91	1624.04
417.11	1720.29
417.32	1708.01
417.53	1705.96
417.73	1703.91
417.94	1738.73
418.15	1773.54
418.35	1777.64
418.56	1787.88
418.77	1886.18
418.97	1705.96
419.18	1724.39
419.38	1599.46
419.59	1753.06
419.80	1734.63
420.00	1699.81
420.21	1773.54
420.42	1798.12
420.62	1783.78
420.83	1779.68
421.04	1705.96
421.24	1740.77
421.45	1812.45
421.65	1720.29
421.86	1759.21
422.07	1748.97
422.27	1783.78
422.48	1615.85
422.69	1705.96
422.89	1746.92
423.10	1660.90
423.30	1714.15
423.51	1650.66
423.72	1746.92
423.92	1746.92
424.13	1681.38
424.33	1691.62
424.54	1839.08
424.75	1695.72
424.95	1828.84
425.16	1781.73
425.36	1665.00
425.57	1818.60
425.78	1748.97
425.98	1714.15
426.19	1656.81
426.39	1679.33
426.60	1730.53
426.81	1837.03
427.01	1753.06
427.22	1671.14
427.42	1578.98
427.63	1648.61
427.83	1808.36
428.04	1804.26
428.25	1828.84
428.45	1820.64
428.66	1681.38
428.86	1736.68
429.07	1667.05
429.28	1789.92
429.48	1689.57
429.69	1687.53
429.89	1755.11
430.10	1656.81
430.30	1736.68
430.51	1798.12
430.71	1632.23
430.92	1734.63
431.13	1718.25
431.33	1796.07
431.54	1822.69
431.74	1839.08
431.95	1796.07
432.15	1703.91
432.36	1728.49
432.56	1742.82
432.77	1857.51
432.98	1912.80
433.18	1738.73
433.39	1689.57
433.59	1751.01
433.80	1896.42
434.00	1804.26
434.21	1705.96
434.41	1697.77
434.62	1855.46
434.82	1619.94
435.03	1697.77
435.23	1791.97
435.44	1601.51
435.64	1779.68
435.85	1728.49
436.06	1779.68
436.26	1744.87
436.47	1771.49
436.67	1665.00
436.88	1732.58
437.08	1738.73
437.29	1783.78
437.49	1746.92
437.70	1824.74
437.90	1695.72
438.11	1904.61
438.31	1783.78
438.52	1816.55
438.72	1789.92
438.93	1943.52
439.13	1832.93
439.34	1736.68
439.54	1751.01
439.75	1861.60
439.95	1755.11
440.16	1718.25
440.36	1808.36
440.57	1818.60
440.77	1783.78
440.98	1748.97
441.18	1716.20
441.39	1767.40
441.59	1609.70
441.80	1855.46
442.00	1740.77
442.21	1771.49
442.41	1697.77
442.62	1845.22
442.82	1619.94
443.02	1740.77
443.23	1763.30
443.43	1732.58
443.64	1828.84
443.84	1693.67
444.05	1775.59
444.25	1712.10
444.46	1710.05
444.66	1755.11
444.87	1779.68
445.07	1693.67
445.28	1693.67
445.48	1824.74
445.69	1779.68
445.89	1902.56
446.09	1708.01
446.30	2058.21
446.50	2648.02
446.71	3608.52
446.91	4347.84
447.12	4753.34
447.32	4888.50
447.53	4376.51
447.73	3917.76
447.93	3428.30
448.14	3370.96
448.34	3248.08
448.55	2938.84
448.75	2836.44
448.96	2684.89
449.16	2406.36
449.36	2283.49
449.57	2121.70
449.77	1865.70
449.98	1839.08
450.18	1796.07
450.39	1818.60
450.59	1787.88
450.79	1712.10
451.00	1710.05
451.20	1712.10
451.41	1740.77
451.61	1724.39
451.81	1730.53
452.02	1710.05
452.22	1660.90
452.43	1718.25
452.63	1730.53
452.84	1716.20
453.04	1730.53
453.24	1767.40
453.45	1665.00
453.65	1720.29
453.86	1738.73
454.06	1738.73
454.26	1794.02
454.47	1691.62
454.67	1806.31
454.87	1740.77
455.08	1759.21
455.28	1796.07
455.49	1775.59
455.69	1740.77
455.89	1918.95
456.10	1820.64
456.30	1771.49
456.51	1720.29
456.71	1691.62
456.91	1800.16
457.12	1767.40
457.32	1763.30
457.52	1714.15
457.73	1746.92
457.93	1695.72
458.14	1804.26
458.34	1646.57
458.54	1701.86
458.75	1683.43
458.95	1806.31
459.15	1773.54
459.36	1777.64
459.56	1679.33
459.76	1783.78
459.97	1685.48
460.17	1716.20
460.37	1837.03
460.58	1736.68
460.78	1759.21
460.99	1675.24
461.19	1728.49
461.39	1675.24
461.60	1732.58
461.80	1798.12
462.00	1718.25
462.21	1736.68
462.41	1708.01
462.61	1665.00
462.82	1599.46
463.02	1779.68
463.22	1691.62
463.43	1771.49
463.63	1695.72
463.83	1732.58
464.04	1855.46
464.24	1716.20
464.44	1753.06
464.64	1646.57
464.85	1744.87
465.05	1763.30
465.25	1757.16
465.46	1705.96
465.66	1853.41
465.86	1771.49
466.07	1699.81
466.27	1755.11
466.47	1597.42
466.68	1578.98
466.88	1855.46
467.08	1826.79
467.29	1828.84
467.49	1808.36
467.69	1751.01
467.89	1748.97
468.10	1841.12
468.30	1697.77
468.50	1820.64
468.71	1855.46
468.91	1562.60
469.11	1798.12
469.31	1738.73
469.52	1703.91
469.72	1816.55
469.92	1886.18
470.13	1728.49
470.33	1677.29
470.53	1806.31
470.73	2050.02
470.94	2394.08
471.14	2320.35
471.34	2502.62
471.54	2412.51
471.75	2269.15
471.95	2133.98
472.15	2054.11
472.36	2140.13
472.56	2142.18
472.76	2117.60
472.96	2011.11
473.17	1865.70
473.37	1933.28
473.57	1789.92
473.77	1847.27
473.98	1736.68
474.18	1779.68
474.38	1955.81
474.58	1714.15
474.79	1753.06
474.99	1744.87
475.19	1773.54
475.39	1710.05
475.60	1697.77
475.80	1705.96
476.00	1761.25
476.20	1714.15
476.41	1773.54
476.61	1847.27
476.81	1857.51
477.01	1761.25
477.21	1888.23
477.42	1820.64
477.62	1613.80
477.82	1791.97
478.02	1689.57
478.23	1757.16
478.43	1736.68
478.63	1646.57
478.83	1703.91
479.03	1665.00
479.24	1794.02
479.44	1867.75
479.64	1648.61
479.84	1630.18
480.04	1757.16
480.25	1738.73
480.45	1642.47
480.65	1669.09
480.85	1824.74
481.06	1679.33
481.26	1808.36
481.46	1777.64
481.66	1765.35
481.86	1738.73
482.06	1726.44
482.27	1624.04
482.47	1652.71
482.67	1859.56
482.87	1667.05
483.07	1808.36
483.28	1681.38
483.48	1669.09
483.68	1744.87
483.88	1611.75
484.08	1619.94
484.29	1675.24
484.49	1656.81
484.69	1626.09
484.89	1820.64
485.09	1812.45
485.29	1771.49
485.50	1732.58
485.70	1726.44
485.90	1746.92
486.10	1718.25
486.30	1859.56
486.50	1771.49
486.71	1740.77
486.91	1761.25
487.11	1843.17
487.31	1644.52
487.51	1759.21
487.71	1787.88
487.91	1609.70
488.12	1654.76
488.32	1652.71
488.52	1732.58
488.72	1677.29
488.92	1660.90
489.12	1751.01
489.32	1802.21
489.53	1804.26
489.73	1595.37
489.93	1861.60
490.13	1652.71
490.33	1621.99
490.53	1697.77
490.73	1824.74
490.94	1613.80
491.14	1753.06
491.34	1761.25
491.54	2152.42
491.74	2500.57
491.94	2955.22
492.14	2977.75
492.34	3010.51
492.54	2828.24
492.75	2492.38
492.95	2512.86
493.15	2361.31
493.35	2185.18
493.55	2283.49
493.75	2170.85
493.95	2152.42
494.15	2105.31
494.35	1884.13
494.56	1839.08
494.76	1814.50
494.96	1810.40
495.16	1775.59
495.36	1689.57
495.56	1757.16
495.76	1699.81
495.96	1791.97
496.16	1689.57
496.36	1796.07
496.56	1710.05
496.77	1812.45
496.97	1671.14
497.17	1783.78
497.37	1605.61
497.57	1839.08
497.77	1794.02
497.97	1648.61
498.17	1785.83
498.37	1693.67
498.57	1804.26
498.77	1746.92
498.97	1742.82
499.17	1742.82
499.38	1742.82
499.58	1796.07
499.78	1830.88
499.98	1783.78
500.18	1773.54
500.38	1689.57
500.58	1994.72
500.78	2562.01
500.98	4468.67
501.18	5984.16
501.38	6684.57
501.58	7079.83
501.78	6633.37
501.98	5576.62
502.18	5048.24
502.38	4423.61
502.58	4108.23
502.78	3823.56
502.98	3524.55
503.18	3469.26
503.38	3133.39
503.59	2883.54
503.79	2631.64
503.99	2529.24
504.19	2344.92
504.39	2168.80
504.59	2240.48
504.79	2127.84
504.99	2004.96
505.19	1964.00
505.39	1972.19
505.59	1968.10
505.79	1900.52
505.99	1927.14
506.19	1789.92
506.39	1869.80
506.59	1808.36
506.79	1818.60
506.99	1736.68
507.19	1722.34
507.39	1787.88
507.59	1679.33
507.79	1742.82
507.99	1648.61
508.19	1730.53
508.39	1751.01
508.59	1734.63
508.79	1794.02
508.99	1898.47
509.19	1740.77
509.39	1783.78
509.59	1683.43
509.79	1804.26
509.99	1796.07
510.19	1843.17
510.39	1834.98
510.59	1755.11
510.79	1746.92
510.99	1699.81
511.19	1705.96
511.39	1900.52
511.59	1822.69
511.79	1789.92
511.99	1798.12
512.19	1873.89
512.38	1767.40
512.58	1761.25
512.78	1751.01
512.98	1818.60
513.18	1804.26
513.38	1601.51
513.58	1812.45
513.78	1665.00
513.98	1746.92
514.18	1679.33
514.38	1708.01
514.58	1794.02
514.78	1781.73
514.98	1650.66
515.18	1712.10
515.38	1697.77
515.58	1812.45
515.78	1662.95
515.98	1718.25
516.18	1751.01
516.38	1683.43
516.57	1714.15
516.77	1691.62
516.97	1755.11
517.17	1722.34
517.37	1599.46
517.57	1906.66
517.77	1742.82
517.97	1646.57
518.17	1779.68
518.37	1748.97
518.57	1607.66
518.77	1697.77
518.97	1796.07
519.16	1714.15
519.36	1869.80
519.56	1789.92
519.76	1808.36
519.96	1755.11
520.16	1834.98
520.36	1763.30
520.56	1845.22
520.76	1748.97
520.96	1626.09
521.16	1734.63
521.35	1834.98
521.55	1824.74
521.75	1746.92
521.95	1697.77
522.15	1748.97
522.35	1599.46
522.55	1746.92
522.75	1806.31
522.95	1814.50
523.14	1691.62
523.34	1734.63
523.54	1748.97
523.74	1816.55
523.94	1791.97
524.14	1636.33
524.34	1769.44
524.54	1847.27
524.73	1751.01
524.93	1845.22
525.13	1683.43
525.33	1697.77
525.53	1880.04
525.73	1726.44
525.93	1736.68
526.13	1742.82
526.32	1705.96
526.52	1673.19
526.72	1806.31
526.92	1757.16
527.12	1720.29
527.32	1675.24
527.52	1769.44
527.71	1804.26
527.91	1740.77
528.11	1757.16
528.31	1767.40
528.51	1667.05
528.71	1734.63
528.90	1773.54
529.10	1767.40
529.30	1857.51
529.50	1652.71
529.70	1718.25
529.90	1787.88
530.09	1769.44
530.29	1673.19
530.49	1640.42
530.69	1892.32
530.89	1697.77
531.09	1779.68
531.28	1755.11
531.48	1843.17
531.68	1787.88
531.88	1783.78
532.08	1812.45
532.28	1716.20
532.47	1775.59
532.67	1722.34
532.87	1767.40
533.07	1773.54
533.27	1783.78
533.46	1798.12
533.66	1763.30
533.86	1734.63
534.06	1703.91
534.26	1720.29
534.45	1644.52
534.65	1736.68
534.85	1697.77
535.05	1736.68
535.25	1830.88
535.44	1699.81
535.64	1818.60
535.84	1740.77
536.04	1773.54
536.24	1703.91
536.43	1775.59
536.63	1783.78
536.83	1665.00
537.03	1781.73
537.22	1673.19
537.42	1638.38
537.62	1738.73
537.82	1685.48
538.02	1818.60
538.21	1816.55
538.41	1869.80
538.61	1796.07
538.81	1720.29
539.00	1841.12
539.20	1697.77
539.40	1703.91
539.60	1791.97
539.79	1802.21
539.99	1818.60
540.19	1720.29
540.39	1681.38
540.58	1785.83
540.78	1824.74
540.98	1710.05
541.18	1779.68
541.37	1724.39
541.57	1761.25
541.77	1740.77
541.97	1677.29
542.16	1652.71
542.36	1734.63
542.56	1736.68
542.76	1830.88
542.95	1748.97
543.15	1771.49
543.35	1824.74
543.54	1703.91
543.74	1759.21
543.94	1828.84
544.14	1746.92
544.33	1751.01
544.53	1740.77
544.73	1779.68
544.93	1853.41
545.12	1652.71
545.32	1701.86
545.52	1691.62
545.71	1662.95
545.91	1804.26
546.11	1753.06
546.30	1656.81
546.50	1753.06
546.70	1763.30
546.90	1718.25
547.09	1587.18
547.29	1732.58
547.49	1804.26
547.68	1697.77
547.88	1720.29
548.08	1769.44
548.27	2105.31
548.47	1726.44
548.67	1712.10
548.87	1855.46
549.06	1771.49
549.26	1861.60
549.46	1867.75
549.65	1722.34
549.85	1791.97
550.05	1785.83
550.24	1673.19
550.44	1716.20
550.64	1767.40
550.83	1699.81
551.03	1826.79
551.23	1802.21
551.42	1740.77
551.62	1775.59
551.82	1759.21
552.01	1720.29
552.21	1769.44
552.41	1755.11
552.60	1882.08
552.80	1808.36
553.00	1687.53
553.19	1779.68
553.39	1779.68
553.59	1714.15
553.78	1800.16
553.98	1791.97
554.17	1642.47
554.37	1769.44
554.57	1736.68
554.76	1632.23
554.96	1693.67
555.16	1845.22
555.35	1787.88
555.55	1882.08
555.75	1837.03
555.94	1806.31
556.14	1693.67
556.33	1863.65
556.53	1724.39
556.73	1771.49
556.92	1810.40
557.12	1873.89
557.32	1853.41
557.51	1812.45
557.71	1777.64
557.90	1755.11
558.10	1783.78
558.30	1679.33
558.49	1675.24
558.69	1736.68
558.88	1847.27
559.08	1767.40
559.28	1679.33
559.47	1798.12
559.67	1783.78
559.86	1863.65
560.06	1769.44
560.26	1794.02
560.45	1810.40
560.65	1759.21
560.84	1812.45
561.04	1697.77
561.24	1767.40
561.43	1689.57
561.63	1802.21
561.82	1796.07
562.02	1748.97
562.22	1744.87
562.41	1722.34
562.61	1695.72
562.80	1730.53
563.00	1918.95
563.19	1751.01
563.39	1816.55
563.59	1902.56
563.78	1744.87
563.98	1603.56
564.17	1757.16
564.37	1699.81
564.56	1681.38
564.76	1607.66
564.96	1847.27
565.15	1800.16
565.35	1880.04
565.54	1722.34
565.74	1824.74
565.93	1800.16
566.13	1720.29
566.32	1773.54
566.52	1761.25
566.71	1716.20
566.91	1767.40
567.11	1837.03
567.30	1738.73
567.50	1753.06
567.69	1753.06
567.89	1742.82
568.08	1757.16
568.28	1755.11
568.47	1681.38
568.67	1759.21
568.86	1689.57
569.06	1789.92
569.25	1677.29
569.45	1765.35
569.64	1779.68
569.84	1636.33
570.04	1761.25
570.23	1781.73
570.43	1693.67
570.62	1785.83
570.82	1804.26
571.01	1683.43
571.21	1665.00
571.40	1787.88
571.60	1806.31
571.79	1771.49
571.99	1730.53
572.18	1681.38
572.38	1746.92
572.57	1671.14
572.77	1730.53
572.96	1857.51
573.16	1697.77
573.35	1740.77
573.55	1839.08
573.74	1834.98
573.94	1742.82
574.13	1681.38
574.33	1787.88
574.52	1779.68
574.71	1667.05
574.91	1755.11
575.10	1757.16
575.30	1757.16
575.49	1748.97
575.69	1728.49
575.88	1816.55
576.08	1755.11
576.27	1800.16
576.47	1810.40
576.66	1837.03
576.86	1873.89
577.05	1783.78
577.25	1804.26
577.44	1804.26
577.64	1736.68
577.83	1810.40
578.02	1697.77
578.22	1775.59
578.41	1855.46
578.61	1726.44
578.80	1697.77
579.00	1771.49
579.19	1710.05
579.39	1843.17
579.58	1757.16
579.77	1765.35
579.97	1755.11
580.16	1882.08
580.36	1830.88
580.55	1894.37
580.75	1869.80
580.94	1783.78
581.13	1800.16
581.33	1949.67
581.52	1740.77
581.72	1865.70
581.91	1810.40
582.11	1808.36
582.30	1806.31
582.49	1771.49
582.69	1912.80
582.88	1746.92
583.08	1716.20
583.27	1794.02
583.47	1767.40
583.66	1802.21
583.85	1767.40
584.05	1822.69
584.24	1759.21
584.44	1787.88
584.63	1794.02
584.82	1839.08
585.02	1851.36
585.21	1816.55
585.41	1816.55
585.60	1859.56
585.79	1906.66
585.99	1943.52
586.18	1869.80
586.37	2181.09
586.57	3422.16
586.76	10051.43
586.96	24452.75
587.15	34641.39
587.34	40072.60
587.54	42112.38
587.73	36328.92
587.93	25966.20
588.12	21546.68
588.31	18241.26
588.51	16217.86
588.70	15032.09
588.89	13979.43
589.09	12691.26
589.28	11128.66
589.47	9373.55
589.67	7907.21
589.86	6301.60
590.06	4941.75
590.25	3848.13
590.44	3028.95
590.64	2510.81
590.83	2170.85
591.02	2119.65
591.22	1996.77
591.41	1890.28
591.60	1937.38
591.80	1968.10
591.99	1822.69
592.18	1800.16
592.38	1925.09
592.57	1748.97
592.76	1753.06
592.96	1834.98
593.15	1816.55
593.34	1806.31
593.54	1820.64
593.73	1812.45
593.92	1783.78
594.12	1726.44
594.31	1730.53
594.50	1806.31
594.70	1861.60
594.89	1843.17
595.08	1671.14
595.28	1808.36
595.47	2017.25
595.66	1837.03
595.86	1712.10
596.05	1742.82
596.24	1726.44
596.43	1828.84
596.63	1837.03
596.82	1826.79
597.01	1775.59
597.21	1826.79
597.40	1800.16
597.59	1753.06
597.79	1730.53
597.98	1781.73
598.17	1740.77
598.36	1718.25
598.56	1779.68
598.75	1730.53
598.94	1791.97
599.14	1748.97
599.33	1689.57
599.52	1730.53
599.71	1740.77
599.91	1890.28
600.10	1775.59
600.29	1763.30
600.48	1806.31
600.68	1789.92
600.87	1769.44
601.06	1724.39
601.26	1777.64
601.45	1794.02
601.64	1755.11
601.83	1783.78
602.03	1708.01
602.22	1710.05
602.41	1826.79
602.60	1785.83
602.80	1759.21
602.99	1828.84
603.18	1773.54
603.37	1804.26
603.57	1814.50
603.76	1759.21
603.95	1814.50
604.14	1755.11
604.34	1716.20
604.53	1669.09
604.72	1746.92
604.91	1839.08
605.10	1740.77
605.30	1675.24
605.49	1767.40
605.68	1816.55
605.87	1767.40
606.07	1697.77
606.26	1767.40
606.45	1755.11
606.64	1812.45
606.84	1757.16
607.03	1767.40
607.22	1740.77
607.41	1695.72
607.60	1710.05
607.80	1814.50
607.99	1759.21
608.18	1746.92
608.37	1675.24
608.56	1714.15
608.76	1849.32
608.95	1910.75
609.14	1687.53
609.33	1798.12
609.52	1845.22
609.72	1742.82
609.91	1775.59
610.10	1847.27
610.29	1875.94
610.48	1828.84
610.68	1781.73
610.87	1738.73
611.06	1767.40
611.25	1679.33
611.44	1818.60
611.63	1744.87
611.83	1765.35
612.02	1695.72
612.21	1863.65
612.40	1636.33
612.59	1677.29
612.79	1732.58
612.98	1673.19
613.17	1789.92
613.36	1816.55
613.55	1855.46
613.74	1718.25
613.93	1693.67
614.13	1712.10
614.32	1765.35
614.51	1791.97
614.70	1757.16
614.89	1730.53
615.08	1775.59
615.28	2009.06
615.47	1689.57
615.66	1832.93
615.85	1697.77
616.04	1837.03
616.23	1832.93
616.42	1689.57
616.62	1736.68
616.81	1738.73
617.00	1726.44
617.19	1794.02
617.38	1630.18
617.57	1734.63
617.76	1761.25
617.95	1765.35
618.15	1759.21
618.34	1779.68
618.53	1697.77
618.72	1732.58
618.91	1791.97
619.10	1863.65
619.29	1730.53
619.48	1796.07
619.68	1630.18
619.87	1787.88
620.06	1714.15
620.25	1777.64
620.44	1728.49
620.63	1691.62
620.82	1681.38
621.01	1796.07
621.20	1697.77
621.39	1806.31
621.59	1759.21
621.78	1710.05
621.97	1738.73
622.16	1714.15
622.35	1808.36
622.54	1718.25
622.73	1816.55
622.92	1669.09
623.11	1847.27
623.30	1744.87
623.49	1714.15
623.68	1701.86
623.88	1730.53
624.07	1742.82
624.26	1734.63
624.45	1742.82
624.64	1738.73
624.83	1759.21
625.02	1646.57
625.21	1720.29
625.40	1703.91
625.59	1818.60
625.78	1810.40
625.97	1839.08
626.16	1800.16
626.35	1800.16
626.54	1738.73
626.74	1757.16
626.93	1775.59
627.12	1718.25
627.31	1726.44
627.50	1673.19
627.69	1728.49
627.88	1673.19
628.07	1683.43
628.26	1689.57
628.45	1705.96
628.64	1660.90
628.83	1783.78
629.02	1724.39
629.21	1742.82
629.40	1730.53
629.59	1632.23
629.78	1753.06
629.97	1693.67
630.16	1742.82
630.35	1685.48
630.54	1748.97
630.73	1728.49
630.92	1730.53
631.11	1656.81
631.30	1783.78
631.49	1744.87
631.68	1771.49
631.87	1763.30
632.06	1685.48
632.25	1992.67
632.44	1771.49
632.63	1730.53
632.82	1667.05
633.01	1673.19
633.20	1681.38
633.39	1785.83
633.58	1667.05
633.77	1712.10
633.96	1787.88
634.15	1699.81
634.34	1781.73
634.53	1675.24
634.72	1738.73
634.91	1609.70
635.10	1763.30
635.29	1798.12
635.48	1755.11
635.67	1710.05
635.86	1712.10
636.05	1800.16
636.24	1705.96
636.43	1742.82
636.62	1755.11
636.81	1607.66
637.00	1732.58
637.19	1732.58
637.38	1738.73
637.57	1667.05
637.76	1722.34
637.95	1773.54
638.14	1683.43
638.33	1777.64
638.52	1724.39
638.71	1656.81
638.89	1683.43
639.08	1882.08
639.27	1771.49
639.46	1726.44
639.65	1865.70
639.84	1763.30
640.03	1734.63
640.22	1640.42
640.41	1841.12
640.60	1636.33
640.79	1697.77
640.98	1681.38
641.17	1757.16
641.36	1736.68
641.55	1736.68
641.74	1601.51
641.92	1710.05
642.11	1691.62
642.30	1720.29
642.49	1712.10
642.68	1714.15
642.87	1724.39
643.06	1806.31
643.25	1689.57
643.44	1601.51
643.63	1824.74
643.82	1746.92
644.00	1728.49
644.19	1722.34
644.38	1658.85
644.57	1744.87
644.76	1708.01
644.95	1705.96
645.14	1726.44
645.33	1710.05
645.52	1658.85
645.71	1703.91
645.89	1683.43
646.08	1730.53
646.27	1705.96
646.46	1865.70
646.65	1708.01
646.84	1755.11
647.03	1648.61
647.22	1857.51
647.40	1710.05
647.59	1720.29
647.78	1630.18
647.97	1677.29
648.16	1621.99
648.35	1828.84
648.54	1748.97
648.73	1718.25
648.91	1800.16
649.10	1763.30
649.29	1697.77
649.48	1738.73
649.67	1779.68
649.86	1644.52
650.05	1687.53
650.23	1824.74
650.42	1652.71
650.61	1832.93
650.80	1781.73
650.99	1861.60
651.18	1740.77
651.36	1773.54
651.55	1681.38
651.74	1781.73
651.93	1669.09
652.12	1734.63
652.31	1689.57
652.49	1755.11
652.68	1742.82
652.87	1742.82
653.06	1716.20
653.25	1812.45
653.44	1665.00
653.62	1834.98
653.81	1607.66
654.00	1783.78
654.19	1740.77
654.38	1923.04
654.56	1712.10
654.75	1740.77
654.94	1695.72
655.13	1820.64
655.32	1791.97
655.51	1759.21
655.69	1611.75
655.88	1767.40
656.07	1679.33
656.26	1746.92
656.45	1673.19
656.63	1779.68
656.82	1755.11
657.01	1765.35
657.20	1703.91
657.38	1882.08
657.57	1681.38
657.76	1687.53
657.95	1783.78
658.14	1689.57
658.32	1712.10
658.51	1693.67
658.70	1712.10
658.89	1675.24
659.08	1710.05
659.26	1824.74
659.45	1746.92
659.64	1720.29
659.83	1673.19
660.01	2013.15
660.20	1722.34
660.39	1822.69
660.58	1589.22
660.76	1769.44
660.95	1708.01
661.14	1615.85
661.33	1640.42
661.51	1701.86
661.70	1691.62
661.89	1755.11
662.08	1689.57
662.26	1648.61
662.45	1714.15
662.64	1783.78
662.83	1765.35
663.01	1587.18
663.20	1685.48
663.39	1849.32
663.58	1722.34
663.76	1759.21
663.95	1748.97
664.14	1767.40
664.32	1722.34
664.51	1716.20
664.70	1677.29
664.89	1837.03
665.07	1619.94
665.26	1783.78
665.45	1605.61
665.64	1816.55
665.82	1800.16
666.01	1746.92
666.20	1667.05
666.38	1804.26
666.57	1828.84
666.76	2205.66
666.95	4663.22
667.13	10563.42
667.32	15202.07
667.51	17868.53
667.69	19267.29
667.88	17536.76
668.07	12199.75
668.25	9475.95
668.44	8058.76
668.63	7354.26
668.81	6780.82
669.00	6127.52
669.19	5793.70
669.38	5191.60
669.56	4581.31
669.75	4030.40
669.94	3506.12
670.12	2799.57
670.31	2551.77
670.50	2189.28
670.68	2082.78
670.87	1918.95
671.06	1863.65
671.24	1800.16
671.43	1785.83
671.62	1738.73
671.80	1777.64
671.99	1814.50
672.18	1773.54
672.36	1789.92
672.55	1763.30
672.74	1697.77
672.92	1640.42
673.11	1804.26
673.29	1671.14
673.48	1812.45
673.67	1683.43
673.85	1841.12
674.04	1708.01
674.23	1814.50
674.41	1830.88
674.60	1667.05
674.79	1681.38
674.97	1751.01
675.16	1736.68
675.34	1828.84
675.53	1677.29
675.72	1785.83
675.90	1847.27
676.09	1701.86
676.28	1732.58
676.46	1662.95
676.65	1753.06
676.83	1652.71
677.02	1718.25
677.21	1730.53
677.39	1781.73
677.58	1572.84
677.77	1626.09
677.95	1705.96
678.14	1714.15
678.32	1660.90
678.51	1726.44
678.70	1884.13
678.88	1720.29
679.07	1681.38
679.25	1791.97
679.44	1751.01
679.63	1654.76
679.81	1669.09
680.00	1861.60
680.18	1687.53
680.37	1771.49
680.55	1712.10
680.74	1642.47
680.93	1652.71
681.11	1742.82
681.30	1675.24
681.48	1816.55
681.67	1761.25
681.85	1738.73
682.04	1677.29
682.23	1779.68
682.41	1744.87
682.60	1710.05
682.78	1744.87
682.97	1675.24
683.15	1732.58
683.34	1748.97
683.53	1832.93
683.71	1685.48
683.90	1789.92
684.08	1818.60
684.27	1697.77
684.45	1693.67
684.64	1816.55
684.82	1685.48
685.01	1703.91
685.19	1765.35
685.38	1845.22
685.57	1746.92
685.75	1785.83
685.94	1740.77
686.12	1587.18
686.31	1646.57
686.49	1724.39
686.68	1585.13
686.86	1724.39
687.05	1679.33
687.23	1783.78
687.42	1642.47
687.60	1611.75
687.79	1771.49
687.97	1771.49
688.16	1779.68
688.34	1794.02
688.53	1652.71
688.71	1826.79
688.90	1800.16
689.08	1673.19
689.27	1701.86
689.45	1740.77
689.64	1759.21
689.82	1740.77
690.01	1738.73
690.19	1771.49
690.38	1710.05
690.56	1791.97
690.75	1617.90
690.93	1660.90
691.12	1720.29
691.30	1695.72
691.49	1679.33
691.67	1708.01
691.86	1771.49
692.04	1720.29
692.23	1634.28
692.41	1667.05
692.60	1832.93
692.78	1730.53
692.97	1689.57
693.15	1773.54
693.34	1828.84
693.52	1791.97
693.71	1669.09
693.89	1718.25
694.08	1671.14
694.26	1824.74
694.44	1703.91
694.63	1783.78
694.81	1755.11
695.00	1708.01
695.18	1798.12
695.37	1865.70
695.55	1689.57
695.74	1689.57
695.92	1708.01
696.10	1814.50
696.29	1601.51
696.47	1603.56
696.66	1689.57
696.84	1675.24
697.03	1718.25
697.21	1834.98
697.40	2316.25
697.58	1787.88
697.76	1667.05
697.95	1624.04
698.13	1607.66
698.32	1779.68
698.50	1720.29
698.68	1779.68
698.87	1767.40
699.05	1845.22
699.24	1765.35
699.42	1658.85
699.61	1654.76
699.79	1753.06
699.97	1794.02
700.16	1710.05
700.34	1658.85
700.53	1744.87
700.71	1830.88
700.89	1783.78
701.08	1708.01
701.26	1671.14
701.45	2090.98
701.63	1669.09
701.81	1763.30
702.00	1746.92
702.18	1732.58
702.37	1748.97
702.55	1759.21
702.73	1759.21
702.92	1632.23
703.10	1753.06
703.28	1708.01
703.47	1624.04
703.65	1808.36
703.84	1755.11
704.02	1683.43
704.20	1814.50
704.39	1712.10
704.57	1710.05
704.75	1800.16
704.94	1802.21
705.12	1751.01
705.30	1824.74
705.49	2265.05
705.67	4413.37
705.86	9549.68
706.04	12425.03
706.22	14540.58
706.41	15347.48
706.59	13727.53
706.77	9584.49
706.96	7368.59
707.14	6647.71
707.32	5959.59
707.51	5457.84
707.69	4767.67
707.87	4122.56
708.06	3585.99
708.24	2949.08
708.42	2377.69
708.61	2332.64
708.79	1974.24
708.97	1910.75
709.16	1816.55
709.34	1732.58
709.52	1734.63
709.71	1665.00
709.89	1740.77
710.07	1679.33
710.26	1718.25
710.44	1740.77
710.62	1771.49
710.80	1779.68
710.99	1736.68
711.17	1796.07
711.35	1650.66
711.54	1677.29
711.72	1816.55
711.90	1839.08
712.09	1763.30
712.27	1738.73
712.45	1787.88
712.63	1726.44
712.82	1669.09
713.00	1732.58
713.18	1767.40
713.37	1771.49
713.55	1705.96
713.73	1785.83
713.91	1755.11
714.10	1681.38
714.28	1722.34
714.46	1781.73
714.65	1751.01
714.83	1736.68
715.01	1759.21
715.19	1751.01
715.38	1648.61
715.56	1806.31
715.74	1681.38
715.92	1626.09
716.11	1802.21
716.29	1626.09
716.47	1685.48
716.65	1722.34
716.84	1679.33
717.02	1751.01
717.20	1638.38
717.38	1736.68
717.57	1740.77
717.75	1736.68
717.93	1693.67
718.11	1736.68
718.30	1595.37
718.48	1824.74
718.66	1763.30
718.84	1740.77
719.03	1669.09
719.21	1720.29
719.39	1814.50
719.57	1763.30
719.75	1798.12
719.94	1662.95
720.12	1636.33
720.30	1718.25
720.48	1744.87
720.67	1628.14
720.85	1624.04
721.03	1656.81
721.21	1619.94
721.39	1800.16
721.58	1771.49
721.76	1751.01
721.94	1757.16
722.12	1687.53
722.30	1802.21
722.49	1689.57
722.67	1736.68
722.85	1714.15
723.03	1685.48
723.21	1681.38
723.40	1779.68
723.58	1757.16
723.76	1728.49
723.94	1671.14
724.12	1748.97
724.30	1779.68
724.49	1781.73
724.67	1632.23
724.85	1804.26
725.03	1632.23
725.21	1785.83
725.40	1798.12
725.58	1650.66
725.76	1781.73
725.94	1796.07
726.12	1669.09
726.30	1710.05
726.49	1677.29
726.67	1687.53
726.85	1769.44
727.03	1742.82
727.21	2303.96
727.39	2994.13
727.57	3860.42
727.76	4126.66
727.94	4358.08
728.12	4476.86
728.30	3641.29
728.48	2924.50
728.66	2682.84
728.84	2596.82
729.03	2326.49
729.21	2207.71
729.39	2045.92
729.57	1904.61
729.75	1855.46
729.93	1857.51
730.11	1746.92
730.30	1683.43
730.48	1705.96
730.66	1832.93
730.84	1779.68
731.02	1740.77
731.20	1708.01
731.38	1796.07
731.56	1593.32
731.74	1685.48
731.93	1705.96
732.11	1728.49
732.29	1738.73
732.47	1705.96
732.65	1798.12
732.83	1720.29
733.01	1765.35
733.19	1761.25
733.37	1730.53
733.56	1783.78
733.74	1693.67
733.92	1771.49
734.10	1652.71
734.28	1763.30
734.46	1685.48
734.64	1662.95
734.82	1730.53
735.00	1710.05
735.18	1677.29
735.36	1695.72
735.54	1748.97
735.73	1773.54
735.91	1740.77
736.09	1755.11
736.27	1759.21
736.45	1765.35
736.63	1615.85
736.81	1677.29
736.99	1796.07
737.17	1804.26
737.35	1693.67
737.53	1667.05
737.71	1697.77
737.89	1759.21
738.07	1697.77
738.25	1652.71
738.43	1640.42
738.61	1591.27
738.80	1677.29
738.98	1681.38
739.16	1656.81
739.34	1603.56
739.52	1798.12
739.70	1687.53
739.88	1798.12
740.06	1834.98
740.24	1578.98
740.42	1734.63
740.60	1632.23
740.78	1626.09
740.96	1624.04
741.14	1732.58
741.32	1763.30
741.50	1642.47
741.68	1834.98
741.86	1886.18
742.04	1654.76
742.22	1767.40
742.40	1724.39
742.58	1748.97
742.76	1624.04
742.94	1757.16
743.12	1611.75
743.30	1726.44
743.48	1722.34
743.66	1667.05
743.84	1787.88
744.02	1667.05
744.20	1744.87
744.38	1624.04
744.56	1660.90
744.74	1810.40
744.92	1697.77
745.10	1816.55
745.28	1650.66
745.46	1826.79
745.64	1746.92
745.82	1759.21
746.00	1718.25
746.18	1695.72
746.36	1675.24
746.54	1718.25
746.72	1675.24
746.90	1675.24
747.08	1685.48
747.26	1720.29
747.44	1757.16
747.62	1703.91
747.80	1738.73
747.98	1820.64
748.15	1746.92
748.33	1900.52
748.51	1746.92
748.69	1685.48
748.87	1724.39
749.05	1685.48
749.23	1716.20
749.41	1748.97
749.59	1679.33
749.77	1730.53
749.95	1757.16
750.13	1708.01
750.31	1712.10
750.49	1699.81
750.67	1738.73
750.85	1716.20
751.03	1759.21
751.20	1851.36
751.38	1662.95
751.56	1673.19
751.74	1714.15
751.92	1714.15
752.10	1628.14
752.28	1789.92
752.46	1632.23
752.64	1779.68
752.82	1716.20
753.00	1875.94
753.18	1724.39
753.35	1740.77
753.53	1701.86
753.71	1697.77
753.89	1757.16
754.07	1722.34
754.25	1796.07
754.43	1685.48
754.61	1654.76
754.79	1685.48
754.97	1695.72
755.14	1783.78
755.32	1632.23
755.50	1689.57
755.68	1734.63
755.86	1685.48
756.04	1714.15
756.22	1566.70
756.40	1789.92
756.57	1832.93
756.75	1746.92
756.93	1796.07
757.11	1761.25
757.29	1697.77
757.47	1646.57
757.65	1695.72
757.82	1583.08
758.00	1685.48
758.18	1681.38
758.36	1689.57
758.54	1826.79
758.72	1605.61
758.90	1787.88
759.07	1683.43
759.25	1677.29
759.43	1775.59
759.61	1724.39
759.79	2209.76
759.97	1765.35
760.15	1687.53
760.32	1636.33
760.50	1765.35
760.68	1841.12
760.86	1621.99
761.04	1800.16
761.22	1769.44
761.39	1740.77
761.57	1775.59
761.75	1701.86
761.93	1718.25
762.11	1642.47
762.28	1748.97
762.46	1667.05
762.64	1787.88
762.82	1644.52
763.00	1753.06
763.18	1775.59
763.35	1630.18
763.53	1746.92
763.71	1712.10
763.89	1685.48
764.07	1820.64
764.24	1781.73
764.42	1744.87
764.60	1728.49
764.78	1767.40
764.96	1828.84
765.13	1769.44
765.31	1757.16
765.49	1763.30
765.67	1695.72
765.84	1701.86
766.02	1722.34
766.20	1632.23
766.38	1726.44
766.56	1742.82
766.73	1755.11
766.91	1722.34
767.09	1689.57
767.27	1677.29
767.44	1665.00
767.62	1736.68
767.80	1701.86
767.98	1654.76
768.15	1712.10
768.33	1763.30
768.51	1791.97
768.69	1693.67
768.87	1685.48
769.04	1769.44
769.22	1886.18
769.40	1767.40
769.58	1830.88
769.75	1796.07
769.93	1759.21
770.11	1771.49
770.28	1697.77
770.46	1759.21
770.64	1701.86
770.82	1701.86
770.99	1789.92
771.17	1751.01
771.35	1632.23
771.53	1710.05
771.70	1806.31
771.88	1673.19
772.06	1681.38
772.23	1695.72
772.41	1816.55
772.59	1705.96
772.77	1644.52
772.94	1695.72
773.12	1837.03
773.30	1673.19
773.47	1714.15
773.65	1679.33
773.83	1814.50
774.01	1710.05
774.18	1562.60
774.36	1818.60
774.54	1650.66
774.71	1771.49
774.89	1667.05
775.07	1691.62
775.24	1642.47
775.42	1601.51
775.60	1892.32
775.78	1673.19
775.95	1705.96
776.13	1660.90
776.31	1662.95
776.48	1677.29
776.66	1828.84
776.84	1658.85
777.01	1685.48
777.19	1628.14
777.37	1718.25
777.54	1703.91
777.72	1787.88
777.90	1830.88
778.07	1695.72
778.25	1882.08
778.43	1751.01
778.60	1708.01
778.78	1759.21
778.96	1832.93
779.13	1644.52
779.31	1769.44
779.49	1812.45
779.66	1738.73
779.84	1634.28
780.01	1732.58
780.19	1679.33
780.37	1761.25
780.54	1708.01
780.72	1654.76
780.90	1705.96
781.07	1722.34
781.25	1673.19
781.43	1769.44
781.60	1660.90
781.78	1859.56
781.95	1654.76
782.13	1654.76
782.31	1654.76
782.48	1640.42
782.66	1705.96
782.83	1814.50
783.01	1728.49
783.19	1785.83
783.36	1640.42
783.54	1632.23
783.72	1904.61
783.89	1738.73
784.07	1724.39
784.24	1691.62
784.42	1834.98
784.60	1734.63
784.77	1699.81
784.95	1626.09
785.12	1654.76
785.30	1732.58
785.47	1648.61
785.65	1640.42
785.83	1701.86
786.00	1712.10
786.18	1716.20
786.35	1685.48
786.53	1660.90
786.71	1785.83
786.88	1757.16
787.06	1646.57
787.23	1738.73
787.41	1562.60
787.58	1718.25
787.76	1679.33
787.94	1652.71
788.11	1765.35
788.29	1601.51
788.46	1615.85
788.64	1626.09
788.81	1617.90
788.99	1658.85
789.16	1685.48
789.34	1730.53
789.52	1667.05
789.69	1722.34
789.87	1665.00
790.04	1685.48
790.22	1705.96
790.39	1765.35
790.57	1710.05
790.74	1646.57
790.92	1781.73
791.09	1593.32
791.27	1730.53
791.44	1775.59
791.62	1716.20
791.79	1796.07
791.97	1658.85
792.15	1916.90
792.32	1716.20
792.50	1820.64
792.67	1742.82
792.85	1808.36
793.02	1779.68
793.20	1652.71
793.37	1640.42
793.55	1658.85
793.72	1648.61
793.90	1693.67
794.07	1701.86
794.25	1665.00
794.42	1742.82
794.60	1699.81
794.77	1710.05
794.95	1689.57
795.12	1781.73
795.30	1675.24
795.47	1677.29
795.65	1837.03
795.82	1710.05
796.00	1665.00
796.17	1662.95
796.34	1632.23
796.52	1693.67
796.69	1816.55
796.87	1822.69
797.04	1783.78
797.22	1689.57
797.39	1742.82
797.57	1804.26
797.74	1675.24
797.92	1691.62
798.09	1689.57
798.27	1738.73
798.44	1714.15
798.62	1617.90
798.79	1738.73
798.96	1699.81
799.14	1726.44
799.31	1800.16
799.49	1718.25
799.66	1662.95
799.84	1794.02
800.01	1605.61
800.19	1757.16
800.36	1642.47
800.53	1722.34
800.71	1765.35
800.88	1814.50
801.06	1665.00
801.23	1693.67
801.41	1683.43
801.58	1656.81
801.75	1673.19
801.93	1746.92
802.10	1656.81
802.28	1703.91
802.45	1665.00
802.63	1796.07
802.80	1783.78
802.97	1695.72
803.15	1732.58
803.32	1656.81
803.50	1677.29
803.67	1640.42
803.84	1701.86
804.02	1728.49
804.19	1767.40
804.37	1599.46
804.54	1660.90
804.71	1685.48
804.89	1695.72
805.06	1654.76
805.24	1703.91
805.41	1642.47
805.58	1624.04
805.76	1853.41
805.93	1687.53
806.10	1802.21
806.28	1771.49
806.45	1671.14
806.63	1683.43
806.80	1804.26
806.97	1742.82
807.15	1761.25
807.32	1728.49
807.49	1791.97
807.67	1656.81
807.84	1812.45
808.01	1615.85
808.19	1859.56
808.36	1755.11
808.54	1646.57
808.71	1673.19
808.88	1720.29
809.06	1761.25
809.23	1800.16
809.40	1689.57
809.58	1757.16
809.75	1736.68
809.92	1710.05
810.10	1832.93
810.27	1714.15
810.44	1705.96
810.62	1748.97
810.79	1718.25
810.96	1730.53
811.14	1732.58
811.31	1632.23
811.48	1818.60
811.66	1763.30
811.83	1744.87
812.00	1722.34
812.18	1753.06
812.35	1861.60
812.52	1714.15
812.69	1642.47
812.87	1603.56
813.04	1701.86
813.21	1703.91
813.39	1712.10
813.56	1605.61
813.73	1746.92
813.91	1669.09
814.08	1759.21
814.25	1746.92
814.42	1615.85
814.60	1753.06
814.77	1705.96
814.94	1773.54
815.12	1714.15
815.29	1789.92
815.46	1675.24
815.63	1693.67
815.81	1738.73
815.98	1730.53
816.15	1755.11
816.33	1720.29
816.50	1685.48
816.67	1693.67
816.84	1609.70
817.02	1660.90
817.19	1708.01
817.36	1724.39
817.53	1689.57
817.71	1650.66
817.88	1751.01
818.05	1648.61
818.22	1697.77
818.40	1808.36
818.57	1718.25
818.74	1736.68
818.91	1650.66
819.09	1712.10
819.26	1767.40
819.43	1689.57
819.60	1662.95
819.78	1718.25
819.95	1697.77
820.12	1675.24
820.29	1830.88
820.47	1660.90
820.64	1755.11
820.81	1656.81
820.98	1630.18
821.15	1595.37
821.33	1787.88
821.50	1636.33
821.67	1777.64
821.84	1669.09
822.02	1705.96
822.19	1777.64
822.36	1691.62
822.53	1691.62
822.70	1693.67
822.88	1710.05
823.05	1839.08
823.22	1646.57
823.39	1767.40
823.56	1755.11
823.74	1822.69
823.91	1595.37
824.08	1738.73
824.25	1583.08
824.42	1779.68
824.60	1595.37
824.77	1755.11
824.94	1660.90
825.11	1619.94
825.28	1581.03
825.45	1816.55
825.63	1722.34
825.80	1644.52
825.97	1769.44
826.14	1697.77
826.31	1658.85
826.48	1746.92
826.66	1695.72
826.83	1746.92
827.00	1687.53
827.17	1687.53
827.34	1728.49
827.51	1697.77
827.69	1695.72
827.86	1644.52
828.03	1689.57
828.20	1689.57
828.37	1685.48
828.54	1681.38
828.71	1742.82
828.89	1804.26
829.06	1769.44
829.23	1820.64
829.40	1697.77
829.57	1708.01
829.74	1783.78
829.91	1677.29
830.09	1640.42
830.26	1724.39
830.43	1746.92
830.60	1662.95
830.77	1748.97
830.94	1783.78
831.11	1800.16
831.28	1662.95
831.46	1746.92
831.63	1640.42
831.80	1837.03
831.97	1683.43
832.14	1695.72
832.31	1744.87
832.48	1712.10
832.65	1869.80
832.82	1691.62
832.99	1732.58
833.17	1630.18
833.34	1783.78
833.51	1718.25
833.68	1613.80
833.85	1712.10
834.02	1654.76
834.19	1636.33
834.36	1689.57
834.53	1646.57
834.70	1740.77
834.87	1763.30
835.04	1660.90
835.22	1671.14
835.39	1710.05
835.56	1624.04
835.73	1755.11
835.90	1742.82
836.07	1621.99
836.24	1744.87
836.41	1660.90
836.58	1648.61
836.75	1669.09
836.92	1730.53
837.09	1665.00
837.26	1687.53
837.43	1691.62
837.60	1720.29
837.77	1624.04
837.94	1705.96
838.12	1796.07
838.29	1730.53
838.46	1658.85
838.63	1619.94
838.80	1775.59
838.97	1738.73
839.14	1738.73
839.31	1751.01
839.48	1624.04
839.65	1671.14
839.82	1734.63
839.99	1744.87
840.16	1714.15
840.33	1650.66
840.50	1773.54
840.67	1671.14
840.84	1624.04
841.01	1712.10
841.18	1626.09
841.35	1689.57
841.52	1734.63
841.69	1839.08
841.86	1730.53
842.03	1798.12
842.20	1699.81
842.37	1775.59
842.54	1691.62
842.71	1744.87
842.88	1650.66
843.05	1757.16
843.22	1634.28
843.39	1779.68
843.56	1791.97
843.73	1769.44
843.90	1611.75
844.07	1703.91
844.24	1697.77
844.41	1710.05
844.58	1714.15
844.75	1673.19
844.92	1800.16
845.09	1691.62
845.26	1685.48
845.43	1740.77
845.60	1699.81
845.77	1716.20
845.94	1787.88
846.10	1730.53
846.27	1640.42
846.44	1714.15
846.61	1691.62
846.78	1751.01
846.95	1798.12
847.12	1619.94
847.29	1624.04
847.46	1650.66
847.63	1802.21
847.80	1650.66
847.97	1650.66
848.14	1787.88
848.31	1716.20
848.48	1677.29
848.65	1804.26
848.82	1722.34
848.98	1869.80
849.15	1736.68
849.32	1742.82
849.49	1753.06
849.66	1712.10
849.83	1708.01
850.00	1675.24
850.17	1787.88
850.34	1732.58
850.51	1656.81
850.68	1667.05
850.85	1824.74
851.01	1779.68
851.18	1746.92
851.35	1726.44
851.52	1771.49
851.69	1748.97
851.86	1593.32
852.03	1710.05
852.20	1724.39
852.37	1628.14
852.53	1591.27
852.70	1765.35
852.87	1671.14
853.04	1787.88
853.21	1718.25
853.38	1738.73
853.55	1736.68
853.72	1794.02
853.89	1660.90
854.05	1671.14
854.22	1675.24
854.39	1669.09
854.56	1738.73
854.73	1787.88
854.90	1703.91
855.07	1703.91
855.23	1687.53
855.40	1628.14
855.57	1687.53
855.74	1617.90
855.91	1875.94
856.08	1681.38
856.25	1624.04
856.41	1705.96
856.58	1716.20
856.75	1779.68
856.92	1710.05
857.09	1787.88
857.26	1636.33
857.42	1738.73
857.59	1685.48
857.76	1646.57
857.93	1730.53
858.10	1734.63
858.27	1671.14
858.43	1759.21
858.60	1621.99
858.77	1613.80
858.94	1722.34
859.11	1787.88
859.27	1644.52
859.44	1656.81
859.61	1886.18
859.78	1748.97
859.95	1767.40
860.12	1746.92
860.28	1863.65
860.45	1796.07
860.62	1660.90
860.79	1685.48
860.95	1773.54
861.12	1648.61
861.29	1675.24
861.46	1617.90
861.63	1665.00
861.79	1748.97
861.96	1679.33
862.13	1691.62
862.30	1728.49
862.47	1712.10
862.63	1687.53
862.80	1746.92
862.97	1751.01
863.14	1781.73
863.30	1767.40
863.47	1568.74
863.64	1730.53
863.81	1763.30
863.97	1632.23
864.14	1789.92
864.31	1691.62
864.48	1742.82
864.65	1759.21
864.81	1771.49
864.98	1667.05
865.15	1751.01
865.32	1710.05
865.48	1810.40
865.65	1796.07
865.82	1699.81
865.98	1761.25
866.15	1783.78
866.32	1705.96
866.49	1697.77
866.65	1742.82
866.82	1675.24
866.99	1751.01
867.16	1667.05
867.32	1673.19
867.49	1722.34
867.66	1677.29
867.83	1759.21
867.99	1605.61
868.16	1701.86
868.33	1626.09
868.49	1685.48
868.66	1681.38
868.83	1722.34
868.99	1675.24
869.16	1695.72
869.33	1724.39
869.50	1718.25
869.66	1734.63
869.83	1738.73
870.00	1615.85
870.16	1740.77
870.33	1703.91
870.50	1734.63
870.66	1720.29
870.83	1812.45
871.00	1665.00
871.17	1777.64
871.33	1710.05
871.50	1724.39
871.67	1691.62
871.83	1621.99
872.00	1730.53
872.17	1736.68
872.33	1736.68
872.50	1755.11
872.67	1722.34
872.83	1722.34
873.00	1685.48
873.17	1734.63
873.33	1798.12
873.50	1718.25
873.67	1675.24
873.83	1642.47
874.00	1775.59
874.16	1757.16
874.33	1759.21
874.50	1673.19
874.66	1789.92
874.83	1687.53
875.00	1826.79
875.16	1765.35
875.33	1751.01
875.50	1552.36
875.66	1644.52
875.83	1759.21
875.99	1810.40
876.16	1687.53
876.33	1724.39
876.49	1691.62
876.66	1785.83
876.83	1648.61
876.99	1648.61
877.16	1763.30
877.32	1669.09
877.49	1705.96
877.66	1726.44
877.82	1755.11
877.99	1726.44
878.15	1800.16
878.32	1785.83
878.49	1771.49
878.65	1654.76
878.82	1865.70
878.98	1687.53
879.15	1800.16
879.32	1714.15
879.48	1644.52
879.65	1759.21
879.81	1656.81
879.98	1695.72
880.15	1724.39
880.31	1748.97
880.48	1648.61
880.64	1837.03
880.81	1732.58
880.97	1751.01
881.14	1742.82
881.31	1648.61
881.47	1787.88
881.64	1738.73
881.80	1607.66
881.97	1744.87
882.13	1777.64
882.30	1665.00
882.47	1691.62
882.63	1708.01
882.80	1685.48
882.96	1667.05
883.13	1767.40
883.29	1714.15
883.46	1777.64
883.62	1804.26
883.79	1730.53
883.95	1787.88
884.12	1765.35
884.29	1689.57
884.45	1695.72
884.62	1765.35
884.78	1681.38
884.95	1806.31
885.11	1605.61
885.28	1644.52
885.44	1656.81
885.61	1734.63
885.77	1746.92
885.94	1812.45
886.10	1730.53
886.27	1660.90
886.43	1785.83
886.60	1771.49
886.76	1705.96
886.93	1695.72
887.09	1744.87
887.26	1611.75
887.42	1728.49
887.59	1738.73
887.75	1796.07
887.92	1710.05
888.08	1761.25
888.25	1871.84
888.41	1796.07
888.58	1650.66
888.74	1689.57
888.91	1730.53
>>>>>End Processed Spectral Data<<<<<
