SpectraSuite Data File
++++++++++++++++++++++++++++++++++++
Date: Mon Jun 06 13:29:37 CEST 2016
User: root
Dark Spectrum Present: No
Reference Spectrum Present: No
Number of Sampled Component Spectra: 1
Spectrometers: USB4C02835
Integration Time (usec): 100000 (USB4C02835)
Spectra Averaged: 1 (USB4C02835)
Boxcar Smoothing: 0 (USB4C02835)
Correct for Electrical Dark: No (USB4C02835)
Strobe/Lamp Enabled: No (USB4C02835)
Correct for Detector Non-linearity: No (USB4C02835)
Correct for Stray Light: No (USB4C02835)
Number of Pixels in Processed Spectrum: 3648
>>>>>Begin Processed Spectral Data<<<<<
177.47	1478.63
177.69	1478.63
177.91	1478.63
178.13	1480.68
178.36	1462.25
178.58	1660.90
178.80	1746.92
179.02	1644.52
179.24	1724.39
179.46	1646.57
179.68	1738.73
179.90	1753.06
180.13	1699.81
180.35	1685.48
180.57	1744.87
180.79	1665.00
181.01	1652.71
181.23	1746.92
181.45	1789.92
181.67	1794.02
181.90	1748.97
182.12	1671.14
182.34	1630.18
182.56	1712.10
182.78	1726.44
183.00	1716.20
183.22	1703.91
183.44	1617.90
183.66	1845.22
183.89	1863.65
184.11	1720.29
184.33	1777.64
184.55	1697.77
184.77	1728.49
184.99	1665.00
185.21	1695.72
185.43	1867.75
185.65	1599.46
185.87	1746.92
186.10	1781.73
186.32	1845.22
186.54	1681.38
186.76	1699.81
186.98	1771.49
187.20	1638.38
187.42	1675.24
187.64	1644.52
187.86	1740.77
188.08	1728.49
188.30	1634.28
188.52	1705.96
188.75	1761.25
188.97	1816.55
189.19	1634.28
189.41	1746.92
189.63	1728.49
189.85	1662.95
190.07	1681.38
190.29	1617.90
190.51	1734.63
190.73	1634.28
190.95	1716.20
191.17	1681.38
191.39	1632.23
191.61	1720.29
191.84	1554.41
192.06	1734.63
192.28	1572.84
192.50	1890.28
192.72	1675.24
192.94	1746.92
193.16	1730.53
193.38	1753.06
193.60	1728.49
193.82	1576.94
194.04	1738.73
194.26	1652.71
194.48	1746.92
194.70	1611.75
194.92	1708.01
195.14	1771.49
195.36	1665.00
195.58	1675.24
195.80	1658.85
196.02	1656.81
196.24	1710.05
196.46	1687.53
196.69	1646.57
196.91	1875.94
197.13	1650.66
197.35	1640.42
197.57	1800.16
197.79	1689.57
198.01	1740.77
198.23	1689.57
198.45	1740.77
198.67	1695.72
198.89	1648.61
199.11	1669.09
199.33	1654.76
199.55	1574.89
199.77	1763.30
199.99	1730.53
200.21	1593.32
200.43	1796.07
200.65	1665.00
200.87	1576.94
201.09	1679.33
201.31	1695.72
201.53	1708.01
201.75	1771.49
201.97	1603.56
202.19	1667.05
202.41	1751.01
202.63	1814.50
202.85	1714.15
203.07	1681.38
203.29	1720.29
203.51	1613.80
203.73	1656.81
203.95	1789.92
204.17	1683.43
204.39	1769.44
204.61	1673.19
204.83	1681.38
205.05	1759.21
205.27	1703.91
205.49	1812.45
205.71	1689.57
205.93	1562.60
206.15	1654.76
206.37	1683.43
206.59	1699.81
206.81	1677.29
207.03	1665.00
207.25	1656.81
207.47	1757.16
207.69	1691.62
207.91	1781.73
208.13	1855.46
208.34	1677.29
208.56	1640.42
208.78	1734.63
209.00	1693.67
209.22	1697.77
209.44	1675.24
209.66	1675.24
209.88	1685.48
210.10	1621.99
210.32	1660.90
210.54	1812.45
210.76	1572.84
210.98	1714.15
211.20	1538.02
211.42	1695.72
211.64	1746.92
211.86	1763.30
212.08	1755.11
212.30	1730.53
212.52	1658.85
212.74	1697.77
212.96	1669.09
213.17	1791.97
213.39	1695.72
213.61	1789.92
213.83	1791.97
214.05	1691.62
214.27	1761.25
214.49	1654.76
214.71	1605.61
214.93	1816.55
215.15	1742.82
215.37	1710.05
215.59	1578.98
215.81	1705.96
216.03	1771.49
216.24	1648.61
216.46	1677.29
216.68	1730.53
216.90	1757.16
217.12	1755.11
217.34	1691.62
217.56	1748.97
217.78	1828.84
218.00	1718.25
218.22	1796.07
218.44	1675.24
218.66	1740.77
218.87	1771.49
219.09	1685.48
219.31	1765.35
219.53	1755.11
219.75	1599.46
219.97	1669.09
220.19	1716.20
220.41	1685.48
220.63	1769.44
220.85	1656.81
221.06	1675.24
221.28	1740.77
221.50	1775.59
221.72	1763.30
221.94	1689.57
222.16	1693.67
222.38	1755.11
222.60	1736.68
222.82	1697.77
223.03	1699.81
223.25	1665.00
223.47	1810.40
223.69	1820.64
223.91	1722.34
224.13	1662.95
224.35	1630.18
224.57	1777.64
224.78	1746.92
225.00	1654.76
225.22	1699.81
225.44	1744.87
225.66	1742.82
225.88	1673.19
226.10	1769.44
226.32	1654.76
226.53	1736.68
226.75	1685.48
226.97	1642.47
227.19	1665.00
227.41	1667.05
227.63	1675.24
227.85	1617.90
228.06	1724.39
228.28	1677.29
228.50	1832.93
228.72	1636.33
228.94	1710.05
229.16	1578.98
229.37	1636.33
229.59	1662.95
229.81	1759.21
230.03	1703.91
230.25	1652.71
230.47	1572.84
230.69	1566.70
230.90	1759.21
231.12	1619.94
231.34	1708.01
231.56	1681.38
231.78	1591.27
232.00	1740.77
232.21	1638.38
232.43	1640.42
232.65	1583.08
232.87	1740.77
233.09	1617.90
233.30	1662.95
233.52	1740.77
233.74	1697.77
233.96	1656.81
234.18	1761.25
234.40	1763.30
234.61	1751.01
234.83	1671.14
235.05	1611.75
235.27	1828.84
235.49	1730.53
235.70	1718.25
235.92	1886.18
236.14	1705.96
236.36	1855.46
236.58	1638.38
236.79	1728.49
237.01	1660.90
237.23	1716.20
237.45	1888.23
237.67	1648.61
237.88	1681.38
238.10	1845.22
238.32	1607.66
238.54	1761.25
238.76	1595.37
238.97	1619.94
239.19	1691.62
239.41	1730.53
239.63	1785.83
239.85	1615.85
240.06	1736.68
240.28	1689.57
240.50	1732.58
240.72	1693.67
240.93	1687.53
241.15	1757.16
241.37	1728.49
241.59	1837.03
241.81	1701.86
242.02	1601.51
242.24	1787.88
242.46	1753.06
242.68	1710.05
242.89	1740.77
243.11	1720.29
243.33	1708.01
243.55	1708.01
243.76	1751.01
243.98	1720.29
244.20	1675.24
244.42	1658.85
244.64	1693.67
244.85	1656.81
245.07	1656.81
245.29	1767.40
245.51	1689.57
245.72	1699.81
245.94	1724.39
246.16	1673.19
246.38	1687.53
246.59	1660.90
246.81	1636.33
247.03	1734.63
247.24	1599.46
247.46	1611.75
247.68	1605.61
247.90	1665.00
248.11	1695.72
248.33	1759.21
248.55	1658.85
248.77	1689.57
248.98	1734.63
249.20	1730.53
249.42	1724.39
249.64	1796.07
249.85	1763.30
250.07	1697.77
250.29	1763.30
250.50	1810.40
250.72	1607.66
250.94	1728.49
251.16	1785.83
251.37	1783.78
251.59	1705.96
251.81	1722.34
252.02	1759.21
252.24	1751.01
252.46	1787.88
252.68	1656.81
252.89	1708.01
253.11	1593.32
253.33	1806.31
253.54	1742.82
253.76	1540.07
253.98	1648.61
254.20	1673.19
254.41	1626.09
254.63	1679.33
254.85	1617.90
255.06	1681.38
255.28	1681.38
255.50	1697.77
255.71	1593.32
255.93	1646.57
256.15	1685.48
256.36	1693.67
256.58	1677.29
256.80	1699.81
257.02	1722.34
257.23	1613.80
257.45	1763.30
257.67	1744.87
257.88	1687.53
258.10	1630.18
258.32	1765.35
258.53	1738.73
258.75	1773.54
258.97	1671.14
259.18	1720.29
259.40	1734.63
259.62	1832.93
259.83	1751.01
260.05	1800.16
260.27	1953.76
260.48	1751.01
260.70	1634.28
260.92	1642.47
261.13	1728.49
261.35	1734.63
261.57	1740.77
261.78	1660.90
262.00	1660.90
262.22	1751.01
262.43	1691.62
262.65	1679.33
262.86	1718.25
263.08	1845.22
263.30	1669.09
263.51	1605.61
263.73	1667.05
263.95	1763.30
264.16	1587.18
264.38	1710.05
264.60	1730.53
264.81	1671.14
265.03	1718.25
265.25	1679.33
265.46	1685.48
265.68	1746.92
265.89	1722.34
266.11	1660.90
266.33	1703.91
266.54	1785.83
266.76	1650.66
266.98	1710.05
267.19	1804.26
267.41	1783.78
267.62	1705.96
267.84	1640.42
268.06	1746.92
268.27	1665.00
268.49	1751.01
268.70	1775.59
268.92	1708.01
269.14	1589.22
269.35	1644.52
269.57	1769.44
269.79	1765.35
270.00	1595.37
270.22	1779.68
270.43	1585.13
270.65	1578.98
270.87	1736.68
271.08	1728.49
271.30	1726.44
271.51	1673.19
271.73	1738.73
271.95	1828.84
272.16	1757.16
272.38	1703.91
272.59	1716.20
272.81	1742.82
273.02	1742.82
273.24	1732.58
273.46	1728.49
273.67	1607.66
273.89	1708.01
274.10	1634.28
274.32	1757.16
274.54	1720.29
274.75	1718.25
274.97	1736.68
275.18	1685.48
275.40	1761.25
275.61	1699.81
275.83	1673.19
276.05	1646.57
276.26	1693.67
276.48	1712.10
276.69	1634.28
276.91	1597.42
277.12	1761.25
277.34	1734.63
277.55	1718.25
277.77	1683.43
277.99	1640.42
278.20	1621.99
278.42	1650.66
278.63	1621.99
278.85	1685.48
279.06	1599.46
279.28	1800.16
279.49	1720.29
279.71	1779.68
279.93	1748.97
280.14	1681.38
280.36	1681.38
280.57	1765.35
280.79	1785.83
281.00	1642.47
281.22	1632.23
281.43	1843.17
281.65	1556.46
281.86	1732.58
282.08	1665.00
282.29	1800.16
282.51	1621.99
282.73	1644.52
282.94	1605.61
283.16	1724.39
283.37	1826.79
283.59	1626.09
283.80	1724.39
284.02	1751.01
284.23	1691.62
284.45	1578.98
284.66	1673.19
284.88	1681.38
285.09	1742.82
285.31	1734.63
285.52	1734.63
285.74	1648.61
285.95	1753.06
286.17	1730.53
286.38	1751.01
286.60	1669.09
286.81	1734.63
287.03	1673.19
287.24	1753.06
287.46	1746.92
287.67	1732.58
287.89	1802.21
288.10	1705.96
288.32	1748.97
288.53	1830.88
288.75	1677.29
288.96	1720.29
289.18	1665.00
289.39	1783.78
289.61	1769.44
289.82	1841.12
290.04	1765.35
290.25	1636.33
290.47	1642.47
290.68	1712.10
290.90	1781.73
291.11	1654.76
291.33	1796.07
291.54	1597.42
291.76	1689.57
291.97	1734.63
292.18	1669.09
292.40	1726.44
292.61	1710.05
292.83	1853.41
293.04	1722.34
293.26	1691.62
293.47	1693.67
293.69	1677.29
293.90	1697.77
294.12	1763.30
294.33	1787.88
294.55	1720.29
294.76	1767.40
294.97	1773.54
295.19	1845.22
295.40	1689.57
295.62	1732.58
295.83	1687.53
296.05	1642.47
296.26	1751.01
296.48	1628.14
296.69	1648.61
296.90	1716.20
297.12	1679.33
297.33	1755.11
297.55	1669.09
297.76	1730.53
297.98	1761.25
298.19	1658.85
298.41	1662.95
298.62	1648.61
298.83	1779.68
299.05	1736.68
299.26	1642.47
299.48	1683.43
299.69	1759.21
299.90	1738.73
300.12	1726.44
300.33	1775.59
300.55	1658.85
300.76	1681.38
300.98	1605.61
301.19	1724.39
301.40	1689.57
301.62	1691.62
301.83	1681.38
302.05	1648.61
302.26	1732.58
302.47	1728.49
302.69	1662.95
302.90	1732.58
303.12	1642.47
303.33	1748.97
303.54	1783.78
303.76	1585.13
303.97	1822.69
304.19	1828.84
304.40	1654.76
304.61	1755.11
304.83	1751.01
305.04	1736.68
305.26	1744.87
305.47	1679.33
305.68	1720.29
305.90	1667.05
306.11	1720.29
306.33	1660.90
306.54	1689.57
306.75	1640.42
306.97	1626.09
307.18	1638.38
307.39	1708.01
307.61	1751.01
307.82	1648.61
308.04	1673.19
308.25	1685.48
308.46	1744.87
308.68	1730.53
308.89	1673.19
309.10	1761.25
309.32	1726.44
309.53	1687.53
309.74	1718.25
309.96	1578.98
310.17	1667.05
310.39	1718.25
310.60	1691.62
310.81	1681.38
311.03	1615.85
311.24	1796.07
311.45	1724.39
311.67	1865.70
311.88	1738.73
312.09	1687.53
312.31	1642.47
312.52	1753.06
312.73	1681.38
312.95	1656.81
313.16	1638.38
313.37	1662.95
313.59	1730.53
313.80	1716.20
314.01	1746.92
314.23	1619.94
314.44	1658.85
314.65	1671.14
314.87	1646.57
315.08	1624.04
315.29	1683.43
315.51	1701.86
315.72	1699.81
315.93	1853.41
316.15	1800.16
316.36	1681.38
316.57	1718.25
316.79	1716.20
317.00	1628.14
317.21	1769.44
317.43	1751.01
317.64	1689.57
317.85	1673.19
318.07	1675.24
318.28	1720.29
318.49	1763.30
318.70	1923.04
318.92	1841.12
319.13	1794.02
319.34	1906.66
319.56	1791.97
319.77	1800.16
319.98	1777.64
320.20	1779.68
320.41	1720.29
320.62	1683.43
320.83	1671.14
321.05	1822.69
321.26	1751.01
321.47	1701.86
321.69	1804.26
321.90	1679.33
322.11	1597.42
322.32	1714.15
322.54	1755.11
322.75	1632.23
322.96	1861.60
323.18	1628.14
323.39	1632.23
323.60	1669.09
323.81	1728.49
324.03	1681.38
324.24	1697.77
324.45	1673.19
324.66	1648.61
324.88	1783.78
325.09	1728.49
325.30	1714.15
325.52	1724.39
325.73	1689.57
325.94	1652.71
326.15	1669.09
326.37	1687.53
326.58	1779.68
326.79	1693.67
327.00	1656.81
327.22	1724.39
327.43	1697.77
327.64	1705.96
327.85	1650.66
328.07	1720.29
328.28	1810.40
328.49	1699.81
328.70	1775.59
328.92	1669.09
329.13	1695.72
329.34	1785.83
329.55	1779.68
329.76	1759.21
329.98	1675.24
330.19	1755.11
330.40	1662.95
330.61	1701.86
330.83	1757.16
331.04	1677.29
331.25	1695.72
331.46	1681.38
331.68	1603.56
331.89	1746.92
332.10	1671.14
332.31	1597.42
332.52	1751.01
332.74	1859.56
332.95	1605.61
333.16	1697.77
333.37	1724.39
333.58	1652.71
333.80	1691.62
334.01	1675.24
334.22	1677.29
334.43	1699.81
334.64	1671.14
334.86	1621.99
335.07	1638.38
335.28	1742.82
335.49	1585.13
335.70	1685.48
335.92	1767.40
336.13	1820.64
336.34	1726.44
336.55	1687.53
336.76	1777.64
336.98	1660.90
337.19	1660.90
337.40	1781.73
337.61	1796.07
337.82	1667.05
338.04	1744.87
338.25	1544.17
338.46	1697.77
338.67	1765.35
338.88	1626.09
339.09	1654.76
339.31	1591.27
339.52	1665.00
339.73	1685.48
339.94	1736.68
340.15	1771.49
340.36	1626.09
340.58	1673.19
340.79	1665.00
341.00	1648.61
341.21	1685.48
341.42	1769.44
341.63	1718.25
341.85	1705.96
342.06	1628.14
342.27	1665.00
342.48	1744.87
342.69	1581.03
342.90	1730.53
343.12	1720.29
343.33	1628.14
343.54	1759.21
343.75	1773.54
343.96	1697.77
344.17	1693.67
344.38	1783.78
344.60	1646.57
344.81	1630.18
345.02	1730.53
345.23	1720.29
345.44	1714.15
345.65	1697.77
345.86	1720.29
346.07	1757.16
346.29	1687.53
346.50	1746.92
346.71	1697.77
346.92	1746.92
347.13	1734.63
347.34	1699.81
347.55	1656.81
347.76	1656.81
347.98	1603.56
348.19	1636.33
348.40	1755.11
348.61	1681.38
348.82	1769.44
349.03	1794.02
349.24	1640.42
349.45	1796.07
349.66	1550.31
349.88	1673.19
350.09	1634.28
350.30	1730.53
350.51	1789.92
350.72	1658.85
350.93	1779.68
351.14	1691.62
351.35	1744.87
351.56	1693.67
351.77	1689.57
351.99	1722.34
352.20	1777.64
352.41	1820.64
352.62	1581.03
352.83	1656.81
353.04	1753.06
353.25	1722.34
353.46	1726.44
353.67	1738.73
353.88	1568.74
354.09	1769.44
354.30	1693.67
354.52	1714.15
354.73	1710.05
354.94	1687.53
355.15	1642.47
355.36	1826.79
355.57	1646.57
355.78	1726.44
355.99	1681.38
356.20	1609.70
356.41	1660.90
356.62	1728.49
356.83	1669.09
357.04	1781.73
357.25	1669.09
357.46	1732.58
357.68	1689.57
357.89	1726.44
358.10	1710.05
358.31	1652.71
358.52	1685.48
358.73	1681.38
358.94	1685.48
359.15	1662.95
359.36	1810.40
359.57	1693.67
359.78	1728.49
359.99	1787.88
360.20	1652.71
360.41	1710.05
360.62	1724.39
360.83	1734.63
361.04	1671.14
361.25	1679.33
361.46	1746.92
361.67	1712.10
361.88	1783.78
362.09	1736.68
362.30	1671.14
362.51	1681.38
362.72	1658.85
362.93	1798.12
363.14	1746.92
363.35	1705.96
363.56	1677.29
363.78	1767.40
363.99	1669.09
364.20	1669.09
364.41	1765.35
364.62	1761.25
364.83	1673.19
365.04	1609.70
365.25	1755.11
365.46	1740.77
365.67	1677.29
365.88	1583.08
366.09	1679.33
366.30	1658.85
366.51	1703.91
366.72	1632.23
366.93	1751.01
367.14	1708.01
367.35	1802.21
367.56	1714.15
367.77	1787.88
367.98	1656.81
368.18	1714.15
368.39	1718.25
368.60	1611.75
368.81	1697.77
369.02	1701.86
369.23	1679.33
369.44	1634.28
369.65	1601.51
369.86	1714.15
370.07	1734.63
370.28	1648.61
370.49	1812.45
370.70	1714.15
370.91	1730.53
371.12	1607.66
371.33	1755.11
371.54	1736.68
371.75	1822.69
371.96	1578.98
372.17	1675.24
372.38	1695.72
372.59	1806.31
372.80	1740.77
373.01	1628.14
373.22	1722.34
373.43	1755.11
373.64	1673.19
373.85	1761.25
374.06	1796.07
374.26	1701.86
374.47	1697.77
374.68	1802.21
374.89	1691.62
375.10	1693.67
375.31	1726.44
375.52	1705.96
375.73	1724.39
375.94	1656.81
376.15	1806.31
376.36	1656.81
376.57	1701.86
376.78	1621.99
376.99	1712.10
377.20	1787.88
377.40	1685.48
377.61	1845.22
377.82	1548.26
378.03	1808.36
378.24	1669.09
378.45	1660.90
378.66	1705.96
378.87	1617.90
379.08	1687.53
379.29	1632.23
379.50	1757.16
379.71	1693.67
379.91	1710.05
380.12	1708.01
380.33	1783.78
380.54	1642.47
380.75	1691.62
380.96	1714.15
381.17	1755.11
381.38	1740.77
381.59	1677.29
381.80	1716.20
382.00	1847.27
382.21	1736.68
382.42	1769.44
382.63	1882.08
382.84	1726.44
383.05	1746.92
383.26	1781.73
383.47	1677.29
383.68	1697.77
383.88	1791.97
384.09	1695.72
384.30	1880.04
384.51	1751.01
384.72	1636.33
384.93	1642.47
385.14	1689.57
385.35	1765.35
385.55	1624.04
385.76	1773.54
385.97	1650.66
386.18	1632.23
386.39	1669.09
386.60	1605.61
386.81	1673.19
387.02	1697.77
387.22	1578.98
387.43	1783.78
387.64	1843.17
387.85	1839.08
388.06	2174.94
388.27	4212.67
388.48	6604.70
388.68	8214.40
388.89	9508.72
389.10	9625.45
389.31	8687.48
389.52	7483.28
389.73	6573.98
389.93	6285.22
390.14	5781.42
390.35	5156.79
390.56	4548.54
390.77	3854.28
390.98	3010.51
391.18	2516.95
391.39	2086.88
391.60	1884.13
391.81	1800.16
392.02	1736.68
392.23	1834.98
392.43	1710.05
392.64	1738.73
392.85	1734.63
393.06	1765.35
393.27	1798.12
393.47	1613.80
393.68	1673.19
393.89	1683.43
394.10	1767.40
394.31	1722.34
394.52	1642.47
394.72	1646.57
394.93	1701.86
395.14	1660.90
395.35	1771.49
395.56	1732.58
395.76	1667.05
395.97	1816.55
396.18	1861.60
396.39	1787.88
396.60	2058.21
396.80	1861.60
397.01	1779.68
397.22	1787.88
397.43	1822.69
397.64	1753.06
397.84	1783.78
398.05	1742.82
398.26	1681.38
398.47	1810.40
398.67	1820.64
398.88	1669.09
399.09	1746.92
399.30	1667.05
399.51	1726.44
399.71	1626.09
399.92	1689.57
400.13	1699.81
400.34	1630.18
400.54	1738.73
400.75	1837.03
400.96	1763.30
401.17	1781.73
401.37	1771.49
401.58	1757.16
401.79	1740.77
402.00	1822.69
402.21	1978.34
402.41	1890.28
402.62	1980.39
402.83	1998.82
403.04	1978.34
403.24	1988.58
403.45	1847.27
403.66	1896.42
403.87	1935.33
404.07	1855.46
404.28	1912.80
404.49	1923.04
404.70	1800.16
404.90	1791.97
405.11	1763.30
405.32	1710.05
405.52	1689.57
405.73	1652.71
405.94	1605.61
406.15	1703.91
406.35	1701.86
406.56	1736.68
406.77	1726.44
406.98	1697.77
407.18	1669.09
407.39	1763.30
407.60	1646.57
407.80	1748.97
408.01	1669.09
408.22	1791.97
408.43	1669.09
408.63	1753.06
408.84	1673.19
409.05	1761.25
409.25	1628.14
409.46	1628.14
409.67	1669.09
409.88	1669.09
410.08	1695.72
410.29	1667.05
410.50	1685.48
410.70	1794.02
410.91	1697.77
411.12	1634.28
411.32	1679.33
411.53	1677.29
411.74	1759.21
411.95	1761.25
412.15	1767.40
412.36	1746.92
412.57	1773.54
412.77	1789.92
412.98	1718.25
413.19	1685.48
413.39	1669.09
413.60	1718.25
413.81	1777.64
414.01	1662.95
414.22	1765.35
414.43	1734.63
414.63	1595.37
414.84	1763.30
415.05	1683.43
415.25	1675.24
415.46	1783.78
415.67	1662.95
415.87	1734.63
416.08	1691.62
416.29	1718.25
416.49	1763.30
416.70	1689.57
416.91	1687.53
417.11	1726.44
417.32	1734.63
417.53	1810.40
417.73	1730.53
417.94	1640.42
418.15	1714.15
418.35	1638.38
418.56	1640.42
418.77	1908.71
418.97	1705.96
419.18	1695.72
419.38	1628.14
419.59	1656.81
419.80	1789.92
420.00	1656.81
420.21	1609.70
420.42	1779.68
420.62	1689.57
420.83	1697.77
421.04	1691.62
421.24	1681.38
421.45	1746.92
421.65	1732.58
421.86	1730.53
422.07	1732.58
422.27	1730.53
422.48	1634.28
422.69	1619.94
422.89	1710.05
423.10	1632.23
423.30	1611.75
423.51	1763.30
423.72	1734.63
423.92	1746.92
424.13	1648.61
424.33	1730.53
424.54	1796.07
424.75	1710.05
424.95	1810.40
425.16	1759.21
425.36	1669.09
425.57	1761.25
425.78	1734.63
425.98	1724.39
426.19	1722.34
426.39	1632.23
426.60	1748.97
426.81	1806.31
427.01	1732.58
427.22	1665.00
427.42	1574.89
427.63	1705.96
427.83	1783.78
428.04	1769.44
428.25	1728.49
428.45	1775.59
428.66	1775.59
428.86	1767.40
429.07	1626.09
429.28	1665.00
429.48	1693.67
429.69	1665.00
429.89	1730.53
430.10	1673.19
430.30	1681.38
430.51	1726.44
430.71	1626.09
430.92	1716.20
431.13	1607.66
431.33	1826.79
431.54	1675.24
431.74	1708.01
431.95	1861.60
432.15	1638.38
432.36	1652.71
432.56	1755.11
432.77	1845.22
432.98	1918.95
433.18	1734.63
433.39	1724.39
433.59	1710.05
433.80	1816.55
434.00	1849.32
434.21	1701.86
434.41	1736.68
434.62	1822.69
434.82	1720.29
435.03	1673.19
435.23	1708.01
435.44	1591.27
435.64	1660.90
435.85	1769.44
436.06	1740.77
436.26	1687.53
436.47	1667.05
436.67	1671.14
436.88	1695.72
437.08	1675.24
437.29	1726.44
437.49	1755.11
437.70	1732.58
437.90	1746.92
438.11	1906.66
438.31	1849.32
438.52	1845.22
438.72	1812.45
438.93	1824.74
439.13	1826.79
439.34	1751.01
439.54	1767.40
439.75	1765.35
439.95	1812.45
440.16	1714.15
440.36	1701.86
440.57	1802.21
440.77	1767.40
440.98	1705.96
441.18	1748.97
441.39	1767.40
441.59	1621.99
441.80	1884.13
442.00	1673.19
442.21	1724.39
442.41	1617.90
442.62	1712.10
442.82	1691.62
443.02	1738.73
443.23	1710.05
443.43	1705.96
443.64	1779.68
443.84	1710.05
444.05	1759.21
444.25	1843.17
444.46	1656.81
444.66	1716.20
444.87	1837.03
445.07	1701.86
445.28	1724.39
445.48	1828.84
445.69	1736.68
445.89	1888.23
446.09	1722.34
446.30	1984.48
446.50	2709.46
446.71	3624.90
446.91	4343.74
447.12	4626.36
447.32	4966.32
447.53	4366.27
447.73	3753.93
447.93	3477.45
448.14	3356.62
448.34	3180.50
448.55	2926.55
448.75	2770.90
448.96	2615.26
449.16	2297.82
449.36	2342.88
449.57	1980.39
449.77	1910.75
449.98	1806.31
450.18	1843.17
450.39	1877.99
450.59	1642.47
450.79	1814.50
451.00	1697.77
451.20	1763.30
451.41	1693.67
451.61	1783.78
451.81	1763.30
452.02	1722.34
452.22	1673.19
452.43	1669.09
452.63	1761.25
452.84	1775.59
453.04	1634.28
453.24	1738.73
453.45	1673.19
453.65	1675.24
453.86	1677.29
454.06	1767.40
454.26	1771.49
454.47	1689.57
454.67	1783.78
454.87	1765.35
455.08	1771.49
455.28	1853.41
455.49	1785.83
455.69	1697.77
455.89	1857.51
456.10	1824.74
456.30	1652.71
456.51	1824.74
456.71	1744.87
456.91	1763.30
457.12	1714.15
457.32	1697.77
457.52	1716.20
457.73	1814.50
457.93	1830.88
458.14	1722.34
458.34	1603.56
458.54	1748.97
458.75	1697.77
458.95	1734.63
459.15	1746.92
459.36	1783.78
459.56	1730.53
459.76	1843.17
459.97	1708.01
460.17	1789.92
460.37	1839.08
460.58	1677.29
460.78	1746.92
460.99	1654.76
461.19	1654.76
461.39	1697.77
461.60	1665.00
461.80	1771.49
462.00	1626.09
462.21	1798.12
462.41	1687.53
462.61	1583.08
462.82	1658.85
463.02	1806.31
463.22	1755.11
463.43	1787.88
463.63	1753.06
463.83	1871.84
464.04	1777.64
464.24	1611.75
464.44	1677.29
464.64	1675.24
464.85	1771.49
465.05	1724.39
465.25	1751.01
465.46	1671.14
465.66	1802.21
465.86	1669.09
466.07	1740.77
466.27	1705.96
466.47	1624.04
466.68	1611.75
466.88	1826.79
467.08	1779.68
467.29	1726.44
467.49	1691.62
467.69	1730.53
467.89	1701.86
468.10	1685.48
468.30	1751.01
468.50	1710.05
468.71	1753.06
468.91	1611.75
469.11	1816.55
469.31	1712.10
469.52	1662.95
469.72	1830.88
469.92	1851.36
470.13	1624.04
470.33	1751.01
470.53	1810.40
470.73	2136.03
470.94	2228.19
471.14	2340.83
471.34	2455.51
471.54	2408.41
471.75	2250.72
471.95	2103.26
472.15	2068.45
472.36	2090.98
472.56	2035.68
472.76	2011.11
472.96	1972.19
473.17	1988.58
473.37	1884.13
473.57	1740.77
473.77	1746.92
473.98	1734.63
474.18	1746.92
474.38	1882.08
474.58	1746.92
474.79	1669.09
474.99	1791.97
475.19	1820.64
475.39	1636.33
475.60	1773.54
475.80	1722.34
476.00	1693.67
476.20	1742.82
476.41	1783.78
476.61	1843.17
476.81	1775.59
477.01	1611.75
477.21	1902.56
477.42	1798.12
477.62	1716.20
477.82	1742.82
478.02	1660.90
478.23	1710.05
478.43	1679.33
478.63	1699.81
478.83	1705.96
479.03	1755.11
479.24	1742.82
479.44	1849.32
479.64	1646.57
479.84	1591.27
480.04	1644.52
480.25	1783.78
480.45	1683.43
480.65	1691.62
480.85	1830.88
481.06	1722.34
481.26	1732.58
481.46	1699.81
481.66	1656.81
481.86	1742.82
482.06	1726.44
482.27	1689.57
482.47	1701.86
482.67	1779.68
482.87	1648.61
483.07	1796.07
483.28	1701.86
483.48	1640.42
483.68	1689.57
483.88	1646.57
484.08	1671.14
484.29	1638.38
484.49	1736.68
484.69	1644.52
484.89	1738.73
485.09	1773.54
485.29	1802.21
485.50	1757.16
485.70	1677.29
485.90	1714.15
486.10	1816.55
486.30	1781.73
486.50	1777.64
486.71	1720.29
486.91	1802.21
487.11	1771.49
487.31	1691.62
487.51	1726.44
487.71	1648.61
487.91	1626.09
488.12	1720.29
488.32	1591.27
488.52	1642.47
488.72	1662.95
488.92	1699.81
489.12	1828.84
489.32	1765.35
489.53	1685.48
489.73	1714.15
489.93	1841.12
490.13	1716.20
490.33	1656.81
490.53	1679.33
490.73	1791.97
490.94	1642.47
491.14	1742.82
491.34	1875.94
491.54	2181.09
491.74	2514.91
491.94	2938.84
492.14	2963.41
492.34	2979.79
492.54	2676.70
492.75	2437.08
492.95	2418.65
493.15	2269.15
493.35	2275.29
493.55	2207.71
493.75	2056.16
493.95	2099.17
494.15	2009.06
494.35	1863.65
494.56	1880.04
494.76	1781.73
494.96	1808.36
495.16	1763.30
495.36	1712.10
495.56	1740.77
495.76	1705.96
495.96	1714.15
496.16	1609.70
496.36	1794.02
496.56	1763.30
496.77	1806.31
496.97	1763.30
497.17	1789.92
497.37	1728.49
497.57	1763.30
497.77	1701.86
497.97	1689.57
498.17	1708.01
498.37	1607.66
498.57	1720.29
498.77	1718.25
498.97	1759.21
499.17	1845.22
499.38	1730.53
499.58	1730.53
499.78	1781.73
499.98	1791.97
500.18	1728.49
500.38	1703.91
500.58	1880.04
500.78	2451.42
500.98	4450.24
501.18	5785.51
501.38	6655.90
501.58	6989.72
501.78	6619.04
501.98	5392.30
502.18	4833.21
502.38	4399.04
502.58	4095.94
502.78	3809.22
502.98	3680.20
503.18	3426.25
503.38	3145.68
503.59	2889.68
503.79	2672.60
503.99	2527.19
504.19	2246.62
504.39	2293.72
504.59	2119.65
504.79	2142.18
504.99	2086.88
505.19	1875.94
505.39	1824.74
505.59	1955.81
505.79	1875.94
505.99	1884.13
506.19	1753.06
506.39	1945.57
506.59	1710.05
506.79	1714.15
506.99	1873.89
507.19	1779.68
507.39	1765.35
507.59	1685.48
507.79	1753.06
507.99	1746.92
508.19	1757.16
508.39	1785.83
508.59	1658.85
508.79	1808.36
508.99	1824.74
509.19	1714.15
509.39	1753.06
509.59	1681.38
509.79	1665.00
509.99	1740.77
510.19	1740.77
510.39	1783.78
510.59	1636.33
510.79	1798.12
510.99	1652.71
511.19	1710.05
511.39	1837.03
511.59	1763.30
511.79	1771.49
511.99	1746.92
512.19	1857.51
512.38	1736.68
512.58	1748.97
512.78	1681.38
512.98	1771.49
513.18	1818.60
513.38	1658.85
513.58	1732.58
513.78	1703.91
513.98	1716.20
514.18	1722.34
514.38	1732.58
514.58	1763.30
514.78	1773.54
514.98	1634.28
515.18	1654.76
515.38	1613.80
515.58	1855.46
515.78	1734.63
515.98	1718.25
516.18	1779.68
516.38	1718.25
516.57	1718.25
516.77	1681.38
516.97	1789.92
517.17	1705.96
517.37	1626.09
517.57	1767.40
517.77	1714.15
517.97	1642.47
518.17	1761.25
518.37	1691.62
518.57	1683.43
518.77	1722.34
518.97	1796.07
519.16	1785.83
519.36	1783.78
519.56	1800.16
519.76	1753.06
519.96	1781.73
520.16	1890.28
520.36	1718.25
520.56	1734.63
520.76	1710.05
520.96	1665.00
521.16	1779.68
521.35	1785.83
521.55	1777.64
521.75	1705.96
521.95	1654.76
522.15	1763.30
522.35	1677.29
522.55	1703.91
522.75	1705.96
522.95	1652.71
523.14	1656.81
523.34	1779.68
523.54	1718.25
523.74	1820.64
523.94	1841.12
524.14	1613.80
524.34	1812.45
524.54	1814.50
524.73	1701.86
524.93	1726.44
525.13	1734.63
525.33	1679.33
525.53	1822.69
525.73	1738.73
525.93	1748.97
526.13	1718.25
526.32	1767.40
526.52	1705.96
526.72	1796.07
526.92	1742.82
527.12	1732.58
527.32	1615.85
527.52	1763.30
527.71	1763.30
527.91	1763.30
528.11	1703.91
528.31	1730.53
528.51	1675.24
528.71	1785.83
528.90	1732.58
529.10	1748.97
529.30	1742.82
529.50	1644.52
529.70	1843.17
529.90	1693.67
530.09	1779.68
530.29	1613.80
530.49	1699.81
530.69	1857.51
530.89	1810.40
531.09	1759.21
531.28	1681.38
531.48	1748.97
531.68	1736.68
531.88	1697.77
532.08	1765.35
532.28	1691.62
532.47	1783.78
532.67	1769.44
532.87	1789.92
533.07	1673.19
533.27	1681.38
533.46	1802.21
533.66	1769.44
533.86	1689.57
534.06	1763.30
534.26	1767.40
534.45	1767.40
534.65	1775.59
534.85	1785.83
535.05	1767.40
535.25	1716.20
535.44	1617.90
535.64	1832.93
535.84	1658.85
536.04	1705.96
536.24	1724.39
536.43	1681.38
536.63	1783.78
536.83	1740.77
537.03	1751.01
537.22	1605.61
537.42	1527.78
537.62	1683.43
537.82	1601.51
538.02	1822.69
538.21	1787.88
538.41	1906.66
538.61	1769.44
538.81	1734.63
539.00	1822.69
539.20	1644.52
539.40	1716.20
539.60	1748.97
539.79	1763.30
539.99	1736.68
540.19	1660.90
540.39	1734.63
540.58	1734.63
540.78	1740.77
540.98	1738.73
541.18	1751.01
541.37	1804.26
541.57	1722.34
541.77	1773.54
541.97	1695.72
542.16	1712.10
542.36	1751.01
542.56	1693.67
542.76	1810.40
542.95	1746.92
543.15	1748.97
543.35	1800.16
543.54	1689.57
543.74	1710.05
543.94	1800.16
544.14	1697.77
544.33	1732.58
544.53	1632.23
544.73	1677.29
544.93	1683.43
545.12	1687.53
545.32	1769.44
545.52	1718.25
545.71	1665.00
545.91	1589.22
546.11	1621.99
546.30	1716.20
546.50	1708.01
546.70	1757.16
546.90	1722.34
547.09	1660.90
547.29	1656.81
547.49	1736.68
547.68	1658.85
547.88	1716.20
548.08	1720.29
548.27	2172.89
548.47	1710.05
548.67	1626.09
548.87	1751.01
549.06	1724.39
549.26	1714.15
549.46	1705.96
549.65	1693.67
549.85	1763.30
550.05	1837.03
550.24	1660.90
550.44	1748.97
550.64	1761.25
550.83	1718.25
551.03	1841.12
551.23	1767.40
551.42	1724.39
551.62	1669.09
551.82	1683.43
552.01	1816.55
552.21	1748.97
552.41	1656.81
552.60	1781.73
552.80	1759.21
553.00	1656.81
553.19	1718.25
553.39	1843.17
553.59	1714.15
553.78	1742.82
553.98	1791.97
554.17	1687.53
554.37	1787.88
554.57	1753.06
554.76	1636.33
554.96	1732.58
555.16	1779.68
555.35	1763.30
555.55	1683.43
555.75	1761.25
555.94	1763.30
556.14	1603.56
556.33	1746.92
556.53	1734.63
556.73	1755.11
556.92	1767.40
557.12	1798.12
557.32	1865.70
557.51	1753.06
557.71	1773.54
557.90	1824.74
558.10	1877.99
558.30	1728.49
558.49	1710.05
558.69	1626.09
558.88	1769.44
559.08	1798.12
559.28	1720.29
559.47	1665.00
559.67	1748.97
559.86	1861.60
560.06	1724.39
560.26	1746.92
560.45	1800.16
560.65	1781.73
560.84	1800.16
561.04	1681.38
561.24	1734.63
561.43	1636.33
561.63	1773.54
561.82	1734.63
562.02	1798.12
562.22	1681.38
562.41	1689.57
562.61	1710.05
562.80	1685.48
563.00	1806.31
563.19	1710.05
563.39	1712.10
563.59	1757.16
563.78	1656.81
563.98	1617.90
564.17	1755.11
564.37	1652.71
564.56	1685.48
564.76	1662.95
564.96	1877.99
565.15	1832.93
565.35	1849.32
565.54	1789.92
565.74	1757.16
565.93	1812.45
566.13	1697.77
566.32	1722.34
566.52	1818.60
566.71	1740.77
566.91	1824.74
567.11	1783.78
567.30	1742.82
567.50	1789.92
567.69	1726.44
567.89	1710.05
568.08	1675.24
568.28	1718.25
568.47	1746.92
568.67	1734.63
568.86	1742.82
569.06	1730.53
569.25	1730.53
569.45	1648.61
569.64	1708.01
569.84	1705.96
570.04	1740.77
570.23	1634.28
570.43	1724.39
570.62	1771.49
570.82	1828.84
571.01	1667.05
571.21	1734.63
571.40	1675.24
571.60	1800.16
571.79	1779.68
571.99	1789.92
572.18	1662.95
572.38	1832.93
572.57	1759.21
572.77	1802.21
572.96	1808.36
573.16	1802.21
573.35	1791.97
573.55	1773.54
573.74	1781.73
573.94	1697.77
574.13	1730.53
574.33	1798.12
574.52	1748.97
574.71	1771.49
574.91	1773.54
575.10	1550.31
575.30	1738.73
575.49	1767.40
575.69	1742.82
575.88	1703.91
576.08	1716.20
576.27	1802.21
576.47	1775.59
576.66	1802.21
576.86	1816.55
577.05	1722.34
577.25	1779.68
577.44	1849.32
577.64	1652.71
577.83	1759.21
578.02	1689.57
578.22	1853.41
578.41	1851.36
578.61	1695.72
578.80	1658.85
579.00	1800.16
579.19	1669.09
579.39	1791.97
579.58	1902.56
579.77	1724.39
579.97	1812.45
580.16	1785.83
580.36	1763.30
580.55	1777.64
580.75	1740.77
580.94	1763.30
581.13	1796.07
581.33	1820.64
581.52	1742.82
581.72	1808.36
581.91	1826.79
582.11	1757.16
582.30	1853.41
582.49	1710.05
582.69	1824.74
582.88	1789.92
583.08	1722.34
583.27	1804.26
583.47	1843.17
583.66	1716.20
583.85	1708.01
584.05	1787.88
584.24	1814.50
584.44	1830.88
584.63	1779.68
584.82	1822.69
585.02	1816.55
585.21	1837.03
585.41	1873.89
585.60	1871.84
585.79	1892.32
585.99	1927.14
586.18	1828.84
586.37	2189.28
586.57	3332.05
586.76	9746.28
586.96	24303.25
587.15	33828.35
587.34	40074.65
587.54	41475.46
587.73	36396.50
587.93	26156.66
588.12	21487.29
588.31	18134.76
588.51	16215.82
588.70	15169.30
588.89	13997.87
589.09	12527.42
589.28	10872.67
589.47	9342.83
589.67	7974.79
589.86	6492.06
590.06	4863.93
590.25	4040.64
590.44	3188.69
590.64	2582.49
590.83	2260.96
591.02	2203.61
591.22	1957.86
591.41	1984.48
591.60	1832.93
591.80	2035.68
591.99	1746.92
592.18	1736.68
592.38	1789.92
592.57	1734.63
592.76	1769.44
592.96	1734.63
593.15	1880.04
593.34	1822.69
593.54	1804.26
593.73	1722.34
593.92	1718.25
594.12	1742.82
594.31	1744.87
594.50	1808.36
594.70	1736.68
594.89	1865.70
595.08	1730.53
595.28	1839.08
595.47	1935.33
595.66	1746.92
595.86	1564.65
596.05	1738.73
596.24	1646.57
596.43	1802.21
596.63	1865.70
596.82	1740.77
597.01	1759.21
597.21	1865.70
597.40	1771.49
597.59	1818.60
597.79	1669.09
597.98	1789.92
598.17	1730.53
598.36	1802.21
598.56	1726.44
598.75	1751.01
598.94	1779.68
599.14	1710.05
599.33	1722.34
599.52	1781.73
599.71	1765.35
599.91	1796.07
600.10	1730.53
600.29	1753.06
600.48	1779.68
600.68	1789.92
600.87	1769.44
601.06	1730.53
601.26	1691.62
601.45	1785.83
601.64	1748.97
601.83	1798.12
602.03	1738.73
602.22	1673.19
602.41	1859.56
602.60	1945.57
602.80	1800.16
602.99	1804.26
603.18	1703.91
603.37	1773.54
603.57	1769.44
603.76	1828.84
603.95	1800.16
604.14	1716.20
604.34	1693.67
604.53	1763.30
604.72	1714.15
604.91	1794.02
605.10	1785.83
605.30	1617.90
605.49	1843.17
605.68	1773.54
605.87	1769.44
606.07	1691.62
606.26	1757.16
606.45	1716.20
606.64	1689.57
606.84	1652.71
607.03	1763.30
607.22	1701.86
607.41	1724.39
607.60	1716.20
607.80	1720.29
607.99	1730.53
608.18	1720.29
608.37	1791.97
608.56	1699.81
608.76	1705.96
608.95	1808.36
609.14	1787.88
609.33	1701.86
609.52	1722.34
609.72	1757.16
609.91	1740.77
610.10	1746.92
610.29	1773.54
610.48	1789.92
610.68	1740.77
610.87	1720.29
611.06	1769.44
611.25	1730.53
611.44	1798.12
611.63	1708.01
611.83	1804.26
612.02	1611.75
612.21	1814.50
612.40	1675.24
612.59	1628.14
612.79	1705.96
612.98	1722.34
613.17	1818.60
613.36	1722.34
613.55	1814.50
613.74	1687.53
613.93	1705.96
614.13	1656.81
614.32	1673.19
614.51	1742.82
614.70	1708.01
614.89	1742.82
615.08	1800.16
615.28	2050.02
615.47	1626.09
615.66	1765.35
615.85	1712.10
616.04	1818.60
616.23	1738.73
616.42	1675.24
616.62	1785.83
616.81	1767.40
617.00	1828.84
617.19	1734.63
617.38	1746.92
617.57	1769.44
617.76	1794.02
617.95	1830.88
618.15	1718.25
618.34	1845.22
618.53	1652.71
618.72	1810.40
618.91	1800.16
619.10	1818.60
619.29	1658.85
619.48	1740.77
619.68	1712.10
619.87	1738.73
620.06	1636.33
620.25	1742.82
620.44	1689.57
620.63	1757.16
620.82	1667.05
621.01	1722.34
621.20	1810.40
621.39	1806.31
621.59	1767.40
621.78	1644.52
621.97	1730.53
622.16	1804.26
622.35	1828.84
622.54	1753.06
622.73	1689.57
622.92	1656.81
623.11	1820.64
623.30	1730.53
623.49	1798.12
623.68	1673.19
623.88	1796.07
624.07	1615.85
624.26	1667.05
624.45	1732.58
624.64	1724.39
624.83	1699.81
625.02	1703.91
625.21	1667.05
625.40	1740.77
625.59	1708.01
625.78	1744.87
625.97	1800.16
626.16	1734.63
626.35	1714.15
626.54	1738.73
626.74	1685.48
626.93	1624.04
627.12	1685.48
627.31	1783.78
627.50	1724.39
627.69	1748.97
627.88	1628.14
628.07	1658.85
628.26	1677.29
628.45	1685.48
628.64	1730.53
628.83	1751.01
629.02	1662.95
629.21	1822.69
629.40	1732.58
629.59	1703.91
629.78	1703.91
629.97	1742.82
630.16	1751.01
630.35	1718.25
630.54	1742.82
630.73	1697.77
630.92	1720.29
631.11	1714.15
631.30	1705.96
631.49	1777.64
631.68	1724.39
631.87	1699.81
632.06	1728.49
632.25	1851.36
632.44	1716.20
632.63	1714.15
632.82	1671.14
633.01	1642.47
633.20	1693.67
633.39	1617.90
633.58	1681.38
633.77	1701.86
633.96	1740.77
634.15	1757.16
634.34	1808.36
634.53	1775.59
634.72	1693.67
634.91	1599.46
635.10	1708.01
635.29	1785.83
635.48	1656.81
635.67	1710.05
635.86	1718.25
636.05	1781.73
636.24	1693.67
636.43	1753.06
636.62	1714.15
636.81	1591.27
637.00	1634.28
637.19	1712.10
637.38	1718.25
637.57	1687.53
637.76	1777.64
637.95	1751.01
638.14	1662.95
638.33	1650.66
638.52	1746.92
638.71	1671.14
638.89	1671.14
639.08	1867.75
639.27	1763.30
639.46	1658.85
639.65	1806.31
639.84	1718.25
640.03	1665.00
640.22	1736.68
640.41	1824.74
640.60	1683.43
640.79	1722.34
640.98	1689.57
641.17	1781.73
641.36	1634.28
641.55	1695.72
641.74	1662.95
641.92	1712.10
642.11	1644.52
642.30	1779.68
642.49	1695.72
642.68	1652.71
642.87	1771.49
643.06	1783.78
643.25	1755.11
643.44	1740.77
643.63	1708.01
643.82	1738.73
644.00	1669.09
644.19	1767.40
644.38	1665.00
644.57	1763.30
644.76	1681.38
644.95	1687.53
645.14	1730.53
645.33	1767.40
645.52	1662.95
645.71	1624.04
645.89	1746.92
646.08	1734.63
646.27	1687.53
646.46	1798.12
646.65	1699.81
646.84	1736.68
647.03	1679.33
647.22	1779.68
647.40	1689.57
647.59	1652.71
647.78	1617.90
647.97	1683.43
648.16	1669.09
648.35	1804.26
648.54	1804.26
648.73	1714.15
648.91	1751.01
649.10	1744.87
649.29	1658.85
649.48	1687.53
649.67	1763.30
649.86	1701.86
650.05	1654.76
650.23	1751.01
650.42	1644.52
650.61	1685.48
650.80	1728.49
650.99	1783.78
651.18	1767.40
651.36	1767.40
651.55	1771.49
651.74	1681.38
651.93	1646.57
652.12	1689.57
652.31	1736.68
652.49	1697.77
652.68	1738.73
652.87	1849.32
653.06	1720.29
653.25	1798.12
653.44	1708.01
653.62	1820.64
653.81	1775.59
654.00	1693.67
654.19	1738.73
654.38	1816.55
654.56	1761.25
654.75	1671.14
654.94	1736.68
655.13	1728.49
655.32	1677.29
655.51	1824.74
655.69	1648.61
655.88	1771.49
656.07	1689.57
656.26	1720.29
656.45	1665.00
656.63	1730.53
656.82	1796.07
657.01	1726.44
657.20	1689.57
657.38	1722.34
657.57	1673.19
657.76	1607.66
657.95	1644.52
658.14	1695.72
658.32	1689.57
658.51	1652.71
658.70	1683.43
658.89	1558.50
659.08	1650.66
659.26	1779.68
659.45	1646.57
659.64	1685.48
659.83	1654.76
660.01	1945.57
660.20	1691.62
660.39	1718.25
660.58	1591.27
660.76	1767.40
660.95	1595.37
661.14	1722.34
661.33	1656.81
661.51	1691.62
661.70	1751.01
661.89	1705.96
662.08	1681.38
662.26	1634.28
662.45	1611.75
662.64	1820.64
662.83	1824.74
663.01	1652.71
663.20	1665.00
663.39	1791.97
663.58	1671.14
663.76	1695.72
663.95	1720.29
664.14	1581.03
664.32	1708.01
664.51	1660.90
664.70	1609.70
664.89	1685.48
665.07	1671.14
665.26	1806.31
665.45	1646.57
665.64	1714.15
665.82	1697.77
666.01	1794.02
666.20	1650.66
666.38	1826.79
666.57	1791.97
666.76	2193.37
666.95	4415.42
667.13	10262.37
667.32	14917.40
667.51	17463.03
667.69	18880.22
667.88	17661.68
668.07	12224.33
668.25	9238.39
668.44	8140.68
668.63	7272.34
668.81	6854.55
669.00	6260.64
669.19	5611.43
669.38	5064.63
669.56	4388.80
669.75	4020.16
669.94	3565.51
670.12	2953.17
670.31	2564.06
670.50	2267.10
670.68	2041.82
670.87	1961.95
671.06	1804.26
671.24	1787.88
671.43	1812.45
671.62	1746.92
671.80	1738.73
671.99	1736.68
672.18	1701.86
672.36	1714.15
672.55	1802.21
672.74	1695.72
672.92	1734.63
673.11	1783.78
673.29	1562.60
673.48	1763.30
673.67	1679.33
673.85	1789.92
674.04	1624.04
674.23	1779.68
674.41	1859.56
674.60	1673.19
674.79	1632.23
674.97	1619.94
675.16	1746.92
675.34	1789.92
675.53	1638.38
675.72	1701.86
675.90	1759.21
676.09	1746.92
676.28	1757.16
676.46	1624.04
676.65	1738.73
676.83	1662.95
677.02	1665.00
677.21	1671.14
677.39	1619.94
677.58	1699.81
677.77	1753.06
677.95	1662.95
678.14	1677.29
678.32	1716.20
678.51	1699.81
678.70	1834.98
678.88	1689.57
679.07	1748.97
679.25	1708.01
679.44	1689.57
679.63	1650.66
679.81	1746.92
680.00	1841.12
680.18	1734.63
680.37	1781.73
680.55	1755.11
680.74	1675.24
680.93	1546.22
681.11	1740.77
681.30	1732.58
681.48	1744.87
681.67	1634.28
681.85	1697.77
682.04	1636.33
682.23	1791.97
682.41	1681.38
682.60	1681.38
682.78	1626.09
682.97	1683.43
683.15	1748.97
683.34	1744.87
683.53	1785.83
683.71	1671.14
683.90	1804.26
684.08	1834.98
684.27	1650.66
684.45	1744.87
684.64	1720.29
684.82	1716.20
685.01	1728.49
685.19	1660.90
685.38	1687.53
685.57	1687.53
685.75	1646.57
685.94	1675.24
686.12	1675.24
686.31	1583.08
686.49	1773.54
686.68	1677.29
686.86	1753.06
687.05	1708.01
687.23	1804.26
687.42	1644.52
687.60	1652.71
687.79	1734.63
687.97	1812.45
688.16	1744.87
688.34	1771.49
688.53	1593.32
688.71	1705.96
688.90	1722.34
689.08	1724.39
689.27	1558.50
689.45	1693.67
689.64	1738.73
689.82	1734.63
690.01	1656.81
690.19	1767.40
690.38	1705.96
690.56	1740.77
690.75	1720.29
690.93	1761.25
691.12	1681.38
691.30	1693.67
691.49	1669.09
691.67	1806.31
691.86	1787.88
692.04	1671.14
692.23	1728.49
692.41	1740.77
692.60	1777.64
692.78	1765.35
692.97	1693.67
693.15	1820.64
693.34	1759.21
693.52	1769.44
693.71	1650.66
693.89	1710.05
694.08	1607.66
694.26	1697.77
694.44	1759.21
694.63	1744.87
694.81	1609.70
695.00	1636.33
695.18	1736.68
695.37	1855.46
695.55	1753.06
695.74	1710.05
695.92	1662.95
696.10	1736.68
696.29	1578.98
696.47	1724.39
696.66	1681.38
696.84	1617.90
697.03	1677.29
697.21	1794.02
697.40	2326.49
697.58	1843.17
697.76	1665.00
697.95	1753.06
698.13	1624.04
698.32	1718.25
698.50	1767.40
698.68	1703.91
698.87	1740.77
699.05	1738.73
699.24	1708.01
699.42	1583.08
699.61	1687.53
699.79	1742.82
699.97	1685.48
700.16	1646.57
700.34	1603.56
700.53	1742.82
700.71	1771.49
700.89	1705.96
701.08	1697.77
701.26	1679.33
701.45	2093.02
701.63	1705.96
701.81	1626.09
702.00	1732.58
702.18	1667.05
702.37	1642.47
702.55	1753.06
702.73	1714.15
702.92	1624.04
703.10	1791.97
703.28	1732.58
703.47	1677.29
703.65	1736.68
703.84	1734.63
704.02	1630.18
704.20	1763.30
704.39	1648.61
704.57	1753.06
704.75	1722.34
704.94	1748.97
705.12	1679.33
705.30	1738.73
705.49	2291.68
705.67	4282.30
705.86	9299.83
706.04	12609.34
706.22	14333.73
706.41	15218.46
706.59	13684.53
706.77	9635.69
706.96	7372.69
707.14	6633.37
707.32	5715.88
707.51	5537.71
707.69	4929.46
707.87	4202.43
708.06	3526.60
708.24	2910.16
708.42	2414.56
708.61	2238.43
708.79	1902.56
708.97	1884.13
709.16	1898.47
709.34	1724.39
709.52	1646.57
709.71	1728.49
709.89	1691.62
710.07	1755.11
710.26	1681.38
710.44	1693.67
710.62	1720.29
710.80	1671.14
710.99	1812.45
711.17	1691.62
711.35	1654.76
711.54	1712.10
711.72	1730.53
711.90	1761.25
712.09	1726.44
712.27	1638.38
712.45	1726.44
712.63	1724.39
712.82	1740.77
713.00	1673.19
713.18	1751.01
713.37	1710.05
713.55	1681.38
713.73	1804.26
713.91	1724.39
714.10	1720.29
714.28	1736.68
714.46	1730.53
714.65	1697.77
714.83	1773.54
715.01	1744.87
715.19	1708.01
715.38	1755.11
715.56	1665.00
715.74	1687.53
715.92	1671.14
716.11	1775.59
716.29	1632.23
716.47	1640.42
716.65	1712.10
716.84	1621.99
717.02	1789.92
717.20	1638.38
717.38	1615.85
717.57	1689.57
717.75	1654.76
717.93	1716.20
718.11	1673.19
718.30	1662.95
718.48	1748.97
718.66	1794.02
718.84	1777.64
719.03	1665.00
719.21	1605.61
719.39	1695.72
719.57	1687.53
719.75	1734.63
719.94	1621.99
720.12	1654.76
720.30	1703.91
720.48	1769.44
720.67	1646.57
720.85	1681.38
721.03	1632.23
721.21	1662.95
721.39	1722.34
721.58	1646.57
721.76	1728.49
721.94	1722.34
722.12	1798.12
722.30	1763.30
722.49	1703.91
722.67	1640.42
722.85	1730.53
723.03	1671.14
723.21	1679.33
723.40	1765.35
723.58	1785.83
723.76	1691.62
723.94	1675.24
724.12	1732.58
724.30	1771.49
724.49	1763.30
724.67	1601.51
724.85	1820.64
725.03	1634.28
725.21	1730.53
725.40	1734.63
725.58	1675.24
725.76	1740.77
725.94	1742.82
726.12	1611.75
726.30	1683.43
726.49	1650.66
726.67	1632.23
726.85	1671.14
727.03	1812.45
727.21	2099.17
727.39	2881.49
727.57	3700.68
727.76	4071.36
727.94	4325.31
728.12	4231.10
728.30	3731.40
728.48	2838.48
728.66	2672.60
728.84	2590.68
729.03	2324.44
729.21	2183.13
729.39	2000.87
729.57	1812.45
729.75	1738.73
729.93	1830.88
730.11	1738.73
730.30	1691.62
730.48	1722.34
730.66	1781.73
730.84	1779.68
731.02	1699.81
731.20	1742.82
731.38	1710.05
731.56	1652.71
731.74	1626.09
731.93	1738.73
732.11	1734.63
732.29	1650.66
732.47	1669.09
732.65	1687.53
732.83	1820.64
733.01	1728.49
733.19	1660.90
733.37	1738.73
733.56	1775.59
733.74	1718.25
733.92	1746.92
734.10	1703.91
734.28	1687.53
734.46	1638.38
734.64	1697.77
734.82	1724.39
735.00	1624.04
735.18	1724.39
735.36	1720.29
735.54	1763.30
735.73	1675.24
735.91	1701.86
736.09	1853.41
736.27	1695.72
736.45	1716.20
736.63	1656.81
736.81	1681.38
736.99	1746.92
737.17	1794.02
737.35	1701.86
737.53	1734.63
737.71	1636.33
737.89	1806.31
738.07	1695.72
738.25	1710.05
738.43	1611.75
738.61	1648.61
738.80	1607.66
738.98	1642.47
739.16	1697.77
739.34	1673.19
739.52	1703.91
739.70	1701.86
739.88	1619.94
740.06	1738.73
740.24	1533.93
740.42	1761.25
740.60	1597.42
740.78	1628.14
740.96	1615.85
741.14	1660.90
741.32	1714.15
741.50	1640.42
741.68	1863.65
741.86	1771.49
742.04	1648.61
742.22	1640.42
742.40	1677.29
742.58	1753.06
742.76	1675.24
742.94	1710.05
743.12	1615.85
743.30	1724.39
743.48	1722.34
743.66	1685.48
743.84	1714.15
744.02	1634.28
744.20	1654.76
744.38	1697.77
744.56	1695.72
744.74	1820.64
744.92	1767.40
745.10	1771.49
745.28	1732.58
745.46	1791.97
745.64	1722.34
745.82	1755.11
746.00	1742.82
746.18	1755.11
746.36	1581.03
746.54	1665.00
746.72	1648.61
746.90	1570.79
747.08	1718.25
747.26	1697.77
747.44	1726.44
747.62	1724.39
747.80	1673.19
747.98	1759.21
748.15	1771.49
748.33	1744.87
748.51	1699.81
748.69	1677.29
748.87	1665.00
749.05	1662.95
749.23	1716.20
749.41	1763.30
749.59	1591.27
749.77	1820.64
749.95	1656.81
750.13	1716.20
750.31	1714.15
750.49	1693.67
750.67	1691.62
750.85	1826.79
751.03	1744.87
751.20	1851.36
751.38	1693.67
751.56	1759.21
751.74	1699.81
751.92	1722.34
752.10	1705.96
752.28	1742.82
752.46	1701.86
752.64	1632.23
752.82	1681.38
753.00	1767.40
753.18	1642.47
753.35	1687.53
753.53	1751.01
753.71	1615.85
753.89	1753.06
754.07	1744.87
754.25	1656.81
754.43	1705.96
754.61	1634.28
754.79	1796.07
754.97	1671.14
755.14	1767.40
755.32	1683.43
755.50	1738.73
755.68	1781.73
755.86	1617.90
756.04	1638.38
756.22	1566.70
756.40	1691.62
756.57	1796.07
756.75	1699.81
756.93	1726.44
757.11	1787.88
757.29	1654.76
757.47	1691.62
757.65	1585.13
757.82	1619.94
758.00	1609.70
758.18	1669.09
758.36	1603.56
758.54	1791.97
758.72	1642.47
758.90	1759.21
759.07	1767.40
759.25	1595.37
759.43	1734.63
759.61	1634.28
759.79	2203.61
759.97	1724.39
760.15	1681.38
760.32	1656.81
760.50	1703.91
760.68	1785.83
760.86	1646.57
761.04	1748.97
761.22	1722.34
761.39	1703.91
761.57	1714.15
761.75	1681.38
761.93	1710.05
762.11	1667.05
762.28	1748.97
762.46	1673.19
762.64	1761.25
762.82	1642.47
763.00	1617.90
763.18	1716.20
763.35	1644.52
763.53	1730.53
763.71	1759.21
763.89	1738.73
764.07	1746.92
764.24	1714.15
764.42	1730.53
764.60	1685.48
764.78	1671.14
764.96	1748.97
765.13	1732.58
765.31	1658.85
765.49	1722.34
765.67	1671.14
765.84	1605.61
766.02	1697.77
766.20	1632.23
766.38	1714.15
766.56	1748.97
766.73	1736.68
766.91	1716.20
767.09	1720.29
767.27	1697.77
767.44	1654.76
767.62	1695.72
767.80	1740.77
767.98	1675.24
768.15	1693.67
768.33	1787.88
768.51	1714.15
768.69	1736.68
768.87	1699.81
769.04	1753.06
769.22	1796.07
769.40	1808.36
769.58	1794.02
769.75	1681.38
769.93	1724.39
770.11	1665.00
770.28	1662.95
770.46	1718.25
770.64	1703.91
770.82	1673.19
770.99	1734.63
771.17	1708.01
771.35	1677.29
771.53	1699.81
771.70	1644.52
771.88	1658.85
772.06	1724.39
772.23	1626.09
772.41	1746.92
772.59	1617.90
772.77	1685.48
772.94	1685.48
773.12	1753.06
773.30	1570.79
773.47	1660.90
773.65	1656.81
773.83	1837.03
774.01	1689.57
774.18	1648.61
774.36	1677.29
774.54	1525.74
774.71	1761.25
774.89	1648.61
775.07	1578.98
775.24	1681.38
775.42	1697.77
775.60	1841.12
775.78	1673.19
775.95	1636.33
776.13	1593.32
776.31	1546.22
776.48	1638.38
776.66	1783.78
776.84	1669.09
777.01	1648.61
777.19	1654.76
777.37	1714.15
777.54	1738.73
777.72	1804.26
777.90	1771.49
778.07	1607.66
778.25	1904.61
778.43	1724.39
778.60	1642.47
778.78	1736.68
778.96	1794.02
779.13	1703.91
779.31	1708.01
779.49	1636.33
779.66	1681.38
779.84	1656.81
780.01	1718.25
780.19	1632.23
780.37	1875.94
780.54	1677.29
780.72	1650.66
780.90	1679.33
781.07	1660.90
781.25	1667.05
781.43	1652.71
781.60	1607.66
781.78	1718.25
781.95	1675.24
782.13	1650.66
782.31	1677.29
782.48	1564.65
782.66	1726.44
782.83	1841.12
783.01	1773.54
783.19	1708.01
783.36	1671.14
783.54	1636.33
783.72	1744.87
783.89	1667.05
784.07	1742.82
784.24	1761.25
784.42	1789.92
784.60	1644.52
784.77	1720.29
784.95	1583.08
785.12	1665.00
785.30	1705.96
785.47	1730.53
785.65	1613.80
785.83	1619.94
786.00	1734.63
786.18	1736.68
786.35	1558.50
786.53	1677.29
786.71	1742.82
786.88	1783.78
787.06	1691.62
787.23	1665.00
787.41	1658.85
787.58	1665.00
787.76	1716.20
787.94	1742.82
788.11	1628.14
788.29	1744.87
788.46	1648.61
788.64	1578.98
788.81	1712.10
788.99	1626.09
789.16	1689.57
789.34	1660.90
789.52	1650.66
789.69	1640.42
789.87	1665.00
790.04	1699.81
790.22	1681.38
790.39	1886.18
790.57	1667.05
790.74	1671.14
790.92	1726.44
791.09	1681.38
791.27	1767.40
791.44	1789.92
791.62	1667.05
791.79	1736.68
791.97	1710.05
792.15	1837.03
792.32	1718.25
792.50	1804.26
792.67	1841.12
792.85	1791.97
793.02	1744.87
793.20	1630.18
793.37	1581.03
793.55	1652.71
793.72	1609.70
793.90	1640.42
794.07	1548.26
794.25	1730.53
794.42	1726.44
794.60	1718.25
794.77	1683.43
794.95	1708.01
795.12	1767.40
795.30	1699.81
795.47	1665.00
795.65	1847.27
795.82	1761.25
796.00	1611.75
796.17	1740.77
796.34	1675.24
796.52	1671.14
796.69	1736.68
796.87	1738.73
797.04	1785.83
797.22	1781.73
797.39	1734.63
797.57	1734.63
797.74	1755.11
797.92	1636.33
798.09	1693.67
798.27	1773.54
798.44	1742.82
798.62	1644.52
798.79	1724.39
798.96	1677.29
799.14	1783.78
799.31	1812.45
799.49	1673.19
799.66	1677.29
799.84	1687.53
800.01	1640.42
800.19	1708.01
800.36	1566.70
800.53	1722.34
800.71	1632.23
800.88	1748.97
801.06	1656.81
801.23	1632.23
801.41	1695.72
801.58	1642.47
801.75	1683.43
801.93	1708.01
802.10	1718.25
802.28	1632.23
802.45	1613.80
802.63	1724.39
802.80	1703.91
802.97	1650.66
803.15	1691.62
803.32	1689.57
803.50	1650.66
803.67	1656.81
803.84	1699.81
804.02	1705.96
804.19	1658.85
804.37	1585.13
804.54	1656.81
804.71	1681.38
804.89	1742.82
805.06	1634.28
805.24	1583.08
805.41	1665.00
805.58	1648.61
805.76	1804.26
805.93	1757.16
806.10	1771.49
806.28	1753.06
806.45	1722.34
806.63	1767.40
806.80	1667.05
806.97	1677.29
807.15	1640.42
807.32	1626.09
807.49	1732.58
807.67	1654.76
807.84	1734.63
808.01	1658.85
808.19	1757.16
808.36	1781.73
808.54	1640.42
808.71	1576.94
808.88	1703.91
809.06	1742.82
809.23	1744.87
809.40	1654.76
809.58	1761.25
809.75	1650.66
809.92	1667.05
810.10	1816.55
810.27	1634.28
810.44	1763.30
810.62	1765.35
810.79	1708.01
810.96	1658.85
811.14	1658.85
811.31	1771.49
811.48	1726.44
811.66	1673.19
811.83	1726.44
812.00	1714.15
812.18	1730.53
812.35	1894.37
812.52	1708.01
812.69	1593.32
812.87	1654.76
813.04	1648.61
813.21	1578.98
813.39	1685.48
813.56	1652.71
813.73	1783.78
813.91	1609.70
814.08	1738.73
814.25	1738.73
814.42	1570.79
814.60	1656.81
814.77	1685.48
814.94	1673.19
815.12	1685.48
815.29	1732.58
815.46	1599.46
815.63	1636.33
815.81	1685.48
815.98	1665.00
816.15	1712.10
816.33	1710.05
816.50	1691.62
816.67	1640.42
816.84	1648.61
817.02	1650.66
817.19	1624.04
817.36	1724.39
817.53	1710.05
817.71	1630.18
817.88	1716.20
818.05	1660.90
818.22	1665.00
818.40	1832.93
818.57	1679.33
818.74	1777.64
818.91	1708.01
819.09	1714.15
819.26	1683.43
819.43	1605.61
819.60	1644.52
819.78	1710.05
819.95	1722.34
820.12	1689.57
820.29	1775.59
820.47	1765.35
820.64	1642.47
820.81	1611.75
820.98	1685.48
821.15	1617.90
821.33	1763.30
821.50	1548.26
821.67	1716.20
821.84	1626.09
822.02	1714.15
822.19	1701.86
822.36	1685.48
822.53	1671.14
822.70	1652.71
822.88	1732.58
823.05	1765.35
823.22	1751.01
823.39	1681.38
823.56	1712.10
823.74	1880.04
823.91	1624.04
824.08	1607.66
824.25	1648.61
824.42	1769.44
824.60	1599.46
824.77	1716.20
824.94	1673.19
825.11	1656.81
825.28	1589.22
825.45	1679.33
825.63	1697.77
825.80	1712.10
825.97	1728.49
826.14	1722.34
826.31	1591.27
826.48	1703.91
826.66	1683.43
826.83	1636.33
827.00	1738.73
827.17	1642.47
827.34	1624.04
827.51	1683.43
827.69	1736.68
827.86	1669.09
828.03	1734.63
828.20	1658.85
828.37	1601.51
828.54	1738.73
828.71	1630.18
828.89	1800.16
829.06	1630.18
829.23	1785.83
829.40	1644.52
829.57	1603.56
829.74	1740.77
829.91	1671.14
830.09	1658.85
830.26	1644.52
830.43	1765.35
830.60	1679.33
830.77	1783.78
830.94	1755.11
831.11	1726.44
831.28	1714.15
831.46	1775.59
831.63	1599.46
831.80	1726.44
831.97	1644.52
832.14	1716.20
832.31	1708.01
832.48	1697.77
832.65	1728.49
832.82	1665.00
832.99	1699.81
833.17	1621.99
833.34	1736.68
833.51	1720.29
833.68	1640.42
833.85	1734.63
834.02	1611.75
834.19	1677.29
834.36	1652.71
834.53	1642.47
834.70	1800.16
834.87	1726.44
835.04	1718.25
835.22	1632.23
835.39	1607.66
835.56	1650.66
835.73	1685.48
835.90	1710.05
836.07	1748.97
836.24	1720.29
836.41	1566.70
836.58	1671.14
836.75	1742.82
836.92	1767.40
837.09	1667.05
837.26	1742.82
837.43	1730.53
837.60	1742.82
837.77	1716.20
837.94	1718.25
838.12	1845.22
838.29	1628.14
838.46	1578.98
838.63	1624.04
838.80	1746.92
838.97	1722.34
839.14	1734.63
839.31	1730.53
839.48	1714.15
839.65	1679.33
839.82	1701.86
839.99	1701.86
840.16	1732.58
840.33	1617.90
840.50	1718.25
840.67	1595.37
840.84	1564.65
841.01	1681.38
841.18	1634.28
841.35	1658.85
841.52	1714.15
841.69	1783.78
841.86	1755.11
842.03	1693.67
842.20	1777.64
842.37	1669.09
842.54	1685.48
842.71	1708.01
842.88	1656.81
843.05	1787.88
843.22	1646.57
843.39	1736.68
843.56	1628.14
843.73	1656.81
843.90	1675.24
844.07	1705.96
844.24	1708.01
844.41	1753.06
844.58	1705.96
844.75	1730.53
844.92	1697.77
845.09	1691.62
845.26	1689.57
845.43	1732.58
845.60	1681.38
845.77	1763.30
845.94	1687.53
846.10	1757.16
846.27	1603.56
846.44	1605.61
846.61	1619.94
846.78	1751.01
846.95	1730.53
847.12	1648.61
847.29	1759.21
847.46	1701.86
847.63	1705.96
847.80	1712.10
847.97	1630.18
848.14	1742.82
848.31	1675.24
848.48	1621.99
848.65	1687.53
848.82	1703.91
848.98	1789.92
849.15	1753.06
849.32	1738.73
849.49	1787.88
849.66	1710.05
849.83	1718.25
850.00	1640.42
850.17	1736.68
850.34	1714.15
850.51	1677.29
850.68	1671.14
850.85	1757.16
851.01	1730.53
851.18	1720.29
851.35	1671.14
851.52	1695.72
851.69	1705.96
851.86	1656.81
852.03	1644.52
852.20	1771.49
852.37	1638.38
852.53	1681.38
852.70	1632.23
852.87	1720.29
853.04	1781.73
853.21	1689.57
853.38	1730.53
853.55	1722.34
853.72	1744.87
853.89	1669.09
854.05	1650.66
854.22	1679.33
854.39	1581.03
854.56	1755.11
854.73	1728.49
854.90	1662.95
855.07	1693.67
855.23	1660.90
855.40	1734.63
855.57	1673.19
855.74	1558.50
855.91	1886.18
856.08	1646.57
856.25	1665.00
856.41	1687.53
856.58	1695.72
856.75	1753.06
856.92	1562.60
857.09	1738.73
857.26	1513.45
857.42	1714.15
857.59	1796.07
857.76	1656.81
857.93	1701.86
858.10	1708.01
858.27	1634.28
858.43	1679.33
858.60	1667.05
858.77	1615.85
858.94	1730.53
859.11	1783.78
859.27	1677.29
859.44	1665.00
859.61	1859.56
859.78	1636.33
859.95	1695.72
860.12	1593.32
860.28	1789.92
860.45	1765.35
860.62	1619.94
860.79	1662.95
860.95	1742.82
861.12	1630.18
861.29	1695.72
861.46	1646.57
861.63	1640.42
861.79	1642.47
861.96	1662.95
862.13	1660.90
862.30	1785.83
862.47	1650.66
862.63	1687.53
862.80	1798.12
862.97	1734.63
863.14	1710.05
863.30	1697.77
863.47	1705.96
863.64	1828.84
863.81	1671.14
863.97	1665.00
864.14	1802.21
864.31	1751.01
864.48	1732.58
864.65	1665.00
864.81	1710.05
864.98	1703.91
865.15	1757.16
865.32	1701.86
865.48	1705.96
865.65	1824.74
865.82	1642.47
865.98	1644.52
866.15	1714.15
866.32	1751.01
866.49	1787.88
866.65	1769.44
866.82	1644.52
866.99	1693.67
867.16	1673.19
867.32	1660.90
867.49	1697.77
867.66	1644.52
867.83	1669.09
867.99	1607.66
868.16	1781.73
868.33	1677.29
868.49	1703.91
868.66	1671.14
868.83	1761.25
868.99	1642.47
869.16	1648.61
869.33	1705.96
869.50	1763.30
869.66	1646.57
869.83	1665.00
870.00	1597.42
870.16	1724.39
870.33	1699.81
870.50	1693.67
870.66	1742.82
870.83	1830.88
871.00	1673.19
871.17	1714.15
871.33	1757.16
871.50	1650.66
871.67	1697.77
871.83	1624.04
872.00	1798.12
872.17	1572.84
872.33	1730.53
872.50	1798.12
872.67	1673.19
872.83	1628.14
873.00	1646.57
873.17	1691.62
873.33	1712.10
873.50	1781.73
873.67	1705.96
873.83	1632.23
874.00	1673.19
874.16	1783.78
874.33	1771.49
874.50	1660.90
874.66	1734.63
874.83	1740.77
875.00	1738.73
875.16	1695.72
875.33	1794.02
875.50	1671.14
875.66	1626.09
875.83	1685.48
875.99	1720.29
876.16	1621.99
876.33	1671.14
876.49	1697.77
876.66	1738.73
876.83	1685.48
876.99	1583.08
877.16	1642.47
877.32	1720.29
877.49	1695.72
877.66	1722.34
877.82	1787.88
877.99	1738.73
878.15	1720.29
878.32	1714.15
878.49	1710.05
878.65	1703.91
878.82	1775.59
878.98	1673.19
879.15	1732.58
879.32	1738.73
879.48	1691.62
879.65	1640.42
879.81	1667.05
879.98	1662.95
880.15	1626.09
880.31	1777.64
880.48	1615.85
880.64	1744.87
880.81	1681.38
880.97	1794.02
881.14	1697.77
881.31	1691.62
881.47	1767.40
881.64	1685.48
881.80	1626.09
881.97	1689.57
882.13	1701.86
882.30	1642.47
882.47	1665.00
882.63	1617.90
882.80	1671.14
882.96	1617.90
883.13	1740.77
883.29	1667.05
883.46	1746.92
883.62	1798.12
883.79	1710.05
883.95	1796.07
884.12	1716.20
884.29	1720.29
884.45	1744.87
884.62	1746.92
884.78	1632.23
884.95	1802.21
885.11	1662.95
885.28	1681.38
885.44	1722.34
885.61	1769.44
885.77	1808.36
885.94	1716.20
886.10	1652.71
886.27	1708.01
886.43	1736.68
886.60	1705.96
886.76	1687.53
886.93	1644.52
887.09	1710.05
887.26	1601.51
887.42	1738.73
887.59	1656.81
887.75	1839.08
887.92	1742.82
888.08	1759.21
888.25	1769.44
888.41	1693.67
888.58	1660.90
888.74	1613.80
888.91	1648.61
>>>>>End Processed Spectral Data<<<<<
