SpectraSuite Data File
++++++++++++++++++++++++++++++++++++
Date: Mon Jun 06 14:16:17 CEST 2016
User: root
Dark Spectrum Present: No
Reference Spectrum Present: No
Number of Sampled Component Spectra: 1
Spectrometers: USB4C02835
Integration Time (usec): 100000 (USB4C02835)
Spectra Averaged: 1 (USB4C02835)
Boxcar Smoothing: 0 (USB4C02835)
Correct for Electrical Dark: No (USB4C02835)
Strobe/Lamp Enabled: No (USB4C02835)
Correct for Detector Non-linearity: No (USB4C02835)
Correct for Stray Light: No (USB4C02835)
Number of Pixels in Processed Spectrum: 3648
>>>>>Begin Processed Spectral Data<<<<<
177.47	1490.92
177.69	1490.92
177.91	1490.92
178.13	1468.39
178.36	1419.24
178.58	1609.70
178.80	1714.15
179.02	1595.37
179.24	1685.48
179.46	1660.90
179.68	1789.92
179.90	1796.07
180.13	1710.05
180.35	1699.81
180.57	1703.91
180.79	1689.57
181.01	1726.44
181.23	1703.91
181.45	1773.54
181.67	1699.81
181.90	1746.92
182.12	1712.10
182.34	1570.79
182.56	1683.43
182.78	1746.92
183.00	1705.96
183.22	1703.91
183.44	1636.33
183.66	1861.60
183.89	1802.21
184.11	1720.29
184.33	1695.72
184.55	1808.36
184.77	1683.43
184.99	1714.15
185.21	1583.08
185.43	1824.74
185.65	1640.42
185.87	1685.48
186.10	1748.97
186.32	1841.12
186.54	1687.53
186.76	1734.63
186.98	1726.44
187.20	1632.23
187.42	1705.96
187.64	1796.07
187.86	1718.25
188.08	1746.92
188.30	1660.90
188.52	1679.33
188.75	1755.11
188.97	1746.92
189.19	1617.90
189.41	1732.58
189.63	1785.83
189.85	1644.52
190.07	1550.31
190.29	1574.89
190.51	1701.86
190.73	1642.47
190.95	1781.73
191.17	1708.01
191.39	1619.94
191.61	1679.33
191.84	1662.95
192.06	1714.15
192.28	1638.38
192.50	1896.42
192.72	1751.01
192.94	1665.00
193.16	1777.64
193.38	1695.72
193.60	1667.05
193.82	1660.90
194.04	1757.16
194.26	1769.44
194.48	1685.48
194.70	1703.91
194.92	1716.20
195.14	1697.77
195.36	1767.40
195.58	1642.47
195.80	1652.71
196.02	1656.81
196.24	1714.15
196.46	1757.16
196.69	1726.44
196.91	1820.64
197.13	1617.90
197.35	1658.85
197.57	1839.08
197.79	1787.88
198.01	1732.58
198.23	1769.44
198.45	1677.29
198.67	1708.01
198.89	1654.76
199.11	1732.58
199.33	1697.77
199.55	1583.08
199.77	1667.05
199.99	1757.16
200.21	1708.01
200.43	1732.58
200.65	1636.33
200.87	1558.50
201.09	1761.25
201.31	1669.09
201.53	1708.01
201.75	1800.16
201.97	1693.67
202.19	1703.91
202.41	1687.53
202.63	1787.88
202.85	1718.25
203.07	1662.95
203.29	1603.56
203.51	1599.46
203.73	1597.42
203.95	1894.37
204.17	1673.19
204.39	1742.82
204.61	1683.43
204.83	1619.94
205.05	1787.88
205.27	1697.77
205.49	1791.97
205.71	1691.62
205.93	1662.95
206.15	1718.25
206.37	1714.15
206.59	1658.85
206.81	1679.33
207.03	1644.52
207.25	1601.51
207.47	1697.77
207.69	1662.95
207.91	1779.68
208.13	1785.83
208.34	1710.05
208.56	1646.57
208.78	1705.96
209.00	1697.77
209.22	1742.82
209.44	1679.33
209.66	1624.04
209.88	1718.25
210.10	1732.58
210.32	1742.82
210.54	1796.07
210.76	1646.57
210.98	1740.77
211.20	1632.23
211.42	1748.97
211.64	1724.39
211.86	1687.53
212.08	1761.25
212.30	1693.67
212.52	1708.01
212.74	1697.77
212.96	1681.38
213.17	1734.63
213.39	1781.73
213.61	1757.16
213.83	1830.88
214.05	1634.28
214.27	1787.88
214.49	1611.75
214.71	1716.20
214.93	1796.07
215.15	1640.42
215.37	1714.15
215.59	1636.33
215.81	1701.86
216.03	1779.68
216.24	1665.00
216.46	1679.33
216.68	1722.34
216.90	1720.29
217.12	1708.01
217.34	1720.29
217.56	1642.47
217.78	1650.66
218.00	1783.78
218.22	1708.01
218.44	1755.11
218.66	1730.53
218.87	1865.70
219.09	1718.25
219.31	1693.67
219.53	1689.57
219.75	1644.52
219.97	1638.38
220.19	1693.67
220.41	1673.19
220.63	1775.59
220.85	1718.25
221.06	1697.77
221.28	1679.33
221.50	1701.86
221.72	1669.09
221.94	1746.92
222.16	1648.61
222.38	1763.30
222.60	1656.81
222.82	1665.00
223.03	1755.11
223.25	1624.04
223.47	1744.87
223.69	1810.40
223.91	1724.39
224.13	1665.00
224.35	1609.70
224.57	1814.50
224.78	1683.43
225.00	1665.00
225.22	1708.01
225.44	1662.95
225.66	1773.54
225.88	1734.63
226.10	1808.36
226.32	1746.92
226.53	1738.73
226.75	1619.94
226.97	1626.09
227.19	1660.90
227.41	1624.04
227.63	1728.49
227.85	1642.47
228.06	1712.10
228.28	1722.34
228.50	1730.53
228.72	1691.62
228.94	1677.29
229.16	1609.70
229.37	1576.94
229.59	1630.18
229.81	1671.14
230.03	1673.19
230.25	1640.42
230.47	1638.38
230.69	1636.33
230.90	1718.25
231.12	1601.51
231.34	1742.82
231.56	1775.59
231.78	1632.23
232.00	1789.92
232.21	1730.53
232.43	1593.32
232.65	1640.42
232.87	1796.07
233.09	1646.57
233.30	1601.51
233.52	1794.02
233.74	1724.39
233.96	1697.77
234.18	1648.61
234.40	1677.29
234.61	1794.02
234.83	1665.00
235.05	1642.47
235.27	1843.17
235.49	1820.64
235.70	1736.68
235.92	1779.68
236.14	1728.49
236.36	1857.51
236.58	1642.47
236.79	1775.59
237.01	1695.72
237.23	1671.14
237.45	1812.45
237.67	1648.61
237.88	1693.67
238.10	1810.40
238.32	1679.33
238.54	1699.81
238.76	1650.66
238.97	1597.42
239.19	1689.57
239.41	1720.29
239.63	1832.93
239.85	1714.15
240.06	1656.81
240.28	1656.81
240.50	1779.68
240.72	1720.29
240.93	1689.57
241.15	1740.77
241.37	1701.86
241.59	1802.21
241.81	1636.33
242.02	1648.61
242.24	1708.01
242.46	1691.62
242.68	1640.42
242.89	1810.40
243.11	1695.72
243.33	1632.23
243.55	1691.62
243.76	1734.63
243.98	1703.91
244.20	1646.57
244.42	1673.19
244.64	1755.11
244.85	1642.47
245.07	1740.77
245.29	1802.21
245.51	1701.86
245.72	1718.25
245.94	1757.16
246.16	1748.97
246.38	1757.16
246.59	1609.70
246.81	1656.81
247.03	1726.44
247.24	1648.61
247.46	1689.57
247.68	1681.38
247.90	1683.43
248.11	1667.05
248.33	1794.02
248.55	1751.01
248.77	1683.43
248.98	1730.53
249.20	1808.36
249.42	1677.29
249.64	1689.57
249.85	1730.53
250.07	1665.00
250.29	1777.64
250.50	1710.05
250.72	1621.99
250.94	1726.44
251.16	1853.41
251.37	1810.40
251.59	1744.87
251.81	1708.01
252.02	1818.60
252.24	1705.96
252.46	1755.11
252.68	1640.42
252.89	1615.85
253.11	1701.86
253.33	1765.35
253.54	1734.63
253.76	1642.47
253.98	1669.09
254.20	1673.19
254.41	1648.61
254.63	1710.05
254.85	1634.28
255.06	1734.63
255.28	1673.19
255.50	1642.47
255.71	1685.48
255.93	1593.32
256.15	1578.98
256.36	1691.62
256.58	1615.85
256.80	1783.78
257.02	1644.52
257.23	1699.81
257.45	1658.85
257.67	1759.21
257.88	1740.77
258.10	1732.58
258.32	1687.53
258.53	1712.10
258.75	1789.92
258.97	1615.85
259.18	1640.42
259.40	1804.26
259.62	1837.03
259.83	1757.16
260.05	1642.47
260.27	1972.19
260.48	1808.36
260.70	1671.14
260.92	1687.53
261.13	1677.29
261.35	1681.38
261.57	1708.01
261.78	1738.73
262.00	1742.82
262.22	1740.77
262.43	1607.66
262.65	1658.85
262.86	1728.49
263.08	1865.70
263.30	1767.40
263.51	1572.84
263.73	1685.48
263.95	1812.45
264.16	1642.47
264.38	1648.61
264.60	1720.29
264.81	1677.29
265.03	1800.16
265.25	1693.67
265.46	1624.04
265.68	1816.55
265.89	1673.19
266.11	1660.90
266.33	1796.07
266.54	1720.29
266.76	1783.78
266.98	1765.35
267.19	1730.53
267.41	1800.16
267.62	1632.23
267.84	1607.66
268.06	1757.16
268.27	1718.25
268.49	1736.68
268.70	1732.58
268.92	1722.34
269.14	1599.46
269.35	1585.13
269.57	1728.49
269.79	1763.30
270.00	1677.29
270.22	1716.20
270.43	1671.14
270.65	1613.80
270.87	1681.38
271.08	1818.60
271.30	1769.44
271.51	1701.86
271.73	1718.25
271.95	1757.16
272.16	1683.43
272.38	1794.02
272.59	1681.38
272.81	1710.05
273.02	1738.73
273.24	1728.49
273.46	1785.83
273.67	1609.70
273.89	1628.14
274.10	1671.14
274.32	1828.84
274.54	1779.68
274.75	1724.39
274.97	1761.25
275.18	1767.40
275.40	1681.38
275.61	1652.71
275.83	1755.11
276.05	1658.85
276.26	1642.47
276.48	1744.87
276.69	1654.76
276.91	1617.90
277.12	1785.83
277.34	1773.54
277.55	1771.49
277.77	1693.67
277.99	1671.14
278.20	1693.67
278.42	1757.16
278.63	1726.44
278.85	1632.23
279.06	1681.38
279.28	1673.19
279.49	1714.15
279.71	1703.91
279.93	1724.39
280.14	1658.85
280.36	1644.52
280.57	1701.86
280.79	1757.16
281.00	1681.38
281.22	1591.27
281.43	1822.69
281.65	1542.12
281.86	1595.37
282.08	1718.25
282.29	1755.11
282.51	1615.85
282.73	1595.37
282.94	1714.15
283.16	1740.77
283.37	1730.53
283.59	1720.29
283.80	1691.62
284.02	1634.28
284.23	1734.63
284.45	1632.23
284.66	1662.95
284.88	1628.14
285.09	1695.72
285.31	1718.25
285.52	1689.57
285.74	1585.13
285.95	1722.34
286.17	1740.77
286.38	1802.21
286.60	1689.57
286.81	1726.44
287.03	1708.01
287.24	1779.68
287.46	1728.49
287.67	1791.97
287.89	1828.84
288.10	1681.38
288.32	1671.14
288.53	1796.07
288.75	1744.87
288.96	1691.62
289.18	1677.29
289.39	1734.63
289.61	1771.49
289.82	1746.92
290.04	1753.06
290.25	1667.05
290.47	1640.42
290.68	1675.24
290.90	1728.49
291.11	1576.94
291.33	1773.54
291.54	1626.09
291.76	1679.33
291.97	1716.20
292.18	1705.96
292.40	1701.86
292.61	1726.44
292.83	1826.79
293.04	1771.49
293.26	1757.16
293.47	1665.00
293.69	1591.27
293.90	1714.15
294.12	1781.73
294.33	1794.02
294.55	1697.77
294.76	1665.00
294.97	1785.83
295.19	1816.55
295.40	1677.29
295.62	1722.34
295.83	1771.49
296.05	1646.57
296.26	1765.35
296.48	1712.10
296.69	1662.95
296.90	1695.72
297.12	1742.82
297.33	1832.93
297.55	1789.92
297.76	1673.19
297.98	1726.44
298.19	1660.90
298.41	1695.72
298.62	1685.48
298.83	1800.16
299.05	1761.25
299.26	1607.66
299.48	1650.66
299.69	1738.73
299.90	1753.06
300.12	1662.95
300.33	1714.15
300.55	1677.29
300.76	1722.34
300.98	1714.15
301.19	1687.53
301.40	1626.09
301.62	1683.43
301.83	1728.49
302.05	1701.86
302.26	1710.05
302.47	1716.20
302.69	1675.24
302.90	1724.39
303.12	1583.08
303.33	1660.90
303.54	1789.92
303.76	1630.18
303.97	1765.35
304.19	1746.92
304.40	1634.28
304.61	1753.06
304.83	1779.68
305.04	1693.67
305.26	1697.77
305.47	1632.23
305.68	1697.77
305.90	1640.42
306.11	1775.59
306.33	1673.19
306.54	1689.57
306.75	1660.90
306.97	1636.33
307.18	1634.28
307.39	1671.14
307.61	1697.77
307.82	1673.19
308.04	1759.21
308.25	1603.56
308.46	1726.44
308.68	1671.14
308.89	1712.10
309.10	1751.01
309.32	1722.34
309.53	1748.97
309.74	1728.49
309.96	1660.90
310.17	1693.67
310.39	1685.48
310.60	1662.95
310.81	1708.01
311.03	1628.14
311.24	1767.40
311.45	1708.01
311.67	1789.92
311.88	1716.20
312.09	1656.81
312.31	1669.09
312.52	1718.25
312.73	1654.76
312.95	1652.71
313.16	1634.28
313.37	1822.69
313.59	1742.82
313.80	1722.34
314.01	1728.49
314.23	1718.25
314.44	1697.77
314.65	1740.77
314.87	1626.09
315.08	1703.91
315.29	1675.24
315.51	1699.81
315.72	1665.00
315.93	1767.40
316.15	1771.49
316.36	1656.81
316.57	1675.24
316.79	1640.42
317.00	1693.67
317.21	1650.66
317.43	1658.85
317.64	1767.40
317.85	1744.87
318.07	1626.09
318.28	1705.96
318.49	1804.26
318.70	1920.99
318.92	1802.21
319.13	1796.07
319.34	1871.84
319.56	1740.77
319.77	1816.55
319.98	1798.12
320.20	1826.79
320.41	1783.78
320.62	1771.49
320.83	1683.43
321.05	1845.22
321.26	1794.02
321.47	1677.29
321.69	1730.53
321.90	1691.62
322.11	1722.34
322.32	1724.39
322.54	1724.39
322.75	1718.25
322.96	1810.40
323.18	1619.94
323.39	1660.90
323.60	1662.95
323.81	1789.92
324.03	1652.71
324.24	1689.57
324.45	1746.92
324.66	1746.92
324.88	1732.58
325.09	1759.21
325.30	1695.72
325.52	1722.34
325.73	1798.12
325.94	1578.98
326.15	1603.56
326.37	1656.81
326.58	1732.58
326.79	1798.12
327.00	1617.90
327.22	1755.11
327.43	1656.81
327.64	1656.81
327.85	1777.64
328.07	1716.20
328.28	1845.22
328.49	1691.62
328.70	1714.15
328.92	1712.10
329.13	1681.38
329.34	1697.77
329.55	1787.88
329.76	1728.49
329.98	1660.90
330.19	1832.93
330.40	1769.44
330.61	1701.86
330.83	1697.77
331.04	1708.01
331.25	1820.64
331.46	1705.96
331.68	1613.80
331.89	1724.39
332.10	1708.01
332.31	1650.66
332.52	1640.42
332.74	1800.16
332.95	1685.48
333.16	1689.57
333.37	1730.53
333.58	1652.71
333.80	1636.33
334.01	1576.94
334.22	1595.37
334.43	1691.62
334.64	1660.90
334.86	1619.94
335.07	1591.27
335.28	1802.21
335.49	1636.33
335.70	1669.09
335.92	1765.35
336.13	1785.83
336.34	1714.15
336.55	1630.18
336.76	1697.77
336.98	1609.70
337.19	1753.06
337.40	1828.84
337.61	1820.64
337.82	1574.89
338.04	1777.64
338.25	1642.47
338.46	1624.04
338.67	1736.68
338.88	1665.00
339.09	1626.09
339.31	1679.33
339.52	1687.53
339.73	1619.94
339.94	1683.43
340.15	1738.73
340.36	1683.43
340.58	1703.91
340.79	1621.99
341.00	1808.36
341.21	1660.90
341.42	1744.87
341.63	1632.23
341.85	1761.25
342.06	1736.68
342.27	1654.76
342.48	1714.15
342.69	1615.85
342.90	1683.43
343.12	1810.40
343.33	1662.95
343.54	1744.87
343.75	1755.11
343.96	1697.77
344.17	1712.10
344.38	1744.87
344.60	1650.66
344.81	1660.90
345.02	1769.44
345.23	1712.10
345.44	1681.38
345.65	1722.34
345.86	1722.34
346.07	1710.05
346.29	1667.05
346.50	1767.40
346.71	1724.39
346.92	1771.49
347.13	1822.69
347.34	1748.97
347.55	1703.91
347.76	1685.48
347.98	1652.71
348.19	1730.53
348.40	1767.40
348.61	1699.81
348.82	1742.82
349.03	1667.05
349.24	1685.48
349.45	1765.35
349.66	1560.55
349.88	1675.24
350.09	1568.74
350.30	1685.48
350.51	1722.34
350.72	1726.44
350.93	1708.01
351.14	1595.37
351.35	1716.20
351.56	1712.10
351.77	1699.81
351.99	1701.86
352.20	1746.92
352.41	1789.92
352.62	1509.35
352.83	1732.58
353.04	1720.29
353.25	1681.38
353.46	1798.12
353.67	1796.07
353.88	1621.99
354.09	1695.72
354.30	1689.57
354.52	1746.92
354.73	1683.43
354.94	1665.00
355.15	1716.20
355.36	1810.40
355.57	1652.71
355.78	1736.68
355.99	1660.90
356.20	1691.62
356.41	1740.77
356.62	1720.29
356.83	1665.00
357.04	1816.55
357.25	1587.18
357.46	1691.62
357.68	1621.99
357.89	1587.18
358.10	1718.25
358.31	1714.15
358.52	1767.40
358.73	1638.38
358.94	1652.71
359.15	1667.05
359.36	1787.88
359.57	1679.33
359.78	1718.25
359.99	1734.63
360.20	1718.25
360.41	1673.19
360.62	1742.82
360.83	1728.49
361.04	1681.38
361.25	1648.61
361.46	1812.45
361.67	1665.00
361.88	1757.16
362.09	1771.49
362.30	1748.97
362.51	1689.57
362.72	1632.23
362.93	1769.44
363.14	1728.49
363.35	1626.09
363.56	1685.48
363.78	1728.49
363.99	1708.01
364.20	1710.05
364.41	1685.48
364.62	1755.11
364.83	1761.25
365.04	1660.90
365.25	1730.53
365.46	1867.75
365.67	1703.91
365.88	1597.42
366.09	1644.52
366.30	1746.92
366.51	1728.49
366.72	1609.70
366.93	1587.18
367.14	1730.53
367.35	1769.44
367.56	1710.05
367.77	1773.54
367.98	1734.63
368.18	1718.25
368.39	1718.25
368.60	1638.38
368.81	1701.86
369.02	1746.92
369.23	1640.42
369.44	1658.85
369.65	1621.99
369.86	1714.15
370.07	1771.49
370.28	1642.47
370.49	1708.01
370.70	1693.67
370.91	1675.24
371.12	1648.61
371.33	1810.40
371.54	1669.09
371.75	1779.68
371.96	1587.18
372.17	1736.68
372.38	1732.58
372.59	1744.87
372.80	1726.44
373.01	1669.09
373.22	1656.81
373.43	1748.97
373.64	1675.24
373.85	1775.59
374.06	1673.19
374.26	1785.83
374.47	1726.44
374.68	1787.88
374.89	1722.34
375.10	1763.30
375.31	1728.49
375.52	1740.77
375.73	1665.00
375.94	1642.47
376.15	1771.49
376.36	1679.33
376.57	1703.91
376.78	1738.73
376.99	1701.86
377.20	1771.49
377.40	1687.53
377.61	1720.29
377.82	1681.38
378.03	1751.01
378.24	1755.11
378.45	1712.10
378.66	1685.48
378.87	1605.61
379.08	1667.05
379.29	1681.38
379.50	1771.49
379.71	1638.38
379.91	1718.25
380.12	1716.20
380.33	1730.53
380.54	1703.91
380.75	1744.87
380.96	1667.05
381.17	1763.30
381.38	1697.77
381.59	1734.63
381.80	1665.00
382.00	1855.46
382.21	1703.91
382.42	1796.07
382.63	1841.12
382.84	1841.12
383.05	1806.31
383.26	1779.68
383.47	1669.09
383.68	1748.97
383.88	1769.44
384.09	1708.01
384.30	1775.59
384.51	1775.59
384.72	1685.48
384.93	1679.33
385.14	1689.57
385.35	1722.34
385.55	1621.99
385.76	1781.73
385.97	1673.19
386.18	1609.70
386.39	1650.66
386.60	1738.73
386.81	1712.10
387.02	1652.71
387.22	1642.47
387.43	1742.82
387.64	1767.40
387.85	1773.54
388.06	2160.61
388.27	4210.62
388.48	6969.24
388.68	8529.79
388.89	9897.83
389.10	9949.03
389.31	8712.06
389.52	7769.99
389.73	6723.48
389.93	6162.34
390.14	5873.57
390.35	5238.70
390.56	4601.79
390.77	3809.22
390.98	3030.99
391.18	2469.85
391.39	2107.36
391.60	1871.84
391.81	1888.23
392.02	1751.01
392.23	1814.50
392.43	1769.44
392.64	1730.53
392.85	1673.19
393.06	1785.83
393.27	1660.90
393.47	1695.72
393.68	1726.44
393.89	1677.29
394.10	1765.35
394.31	1757.16
394.52	1644.52
394.72	1640.42
394.93	1753.06
395.14	1644.52
395.35	1720.29
395.56	1624.04
395.76	1744.87
395.97	1890.28
396.18	1800.16
396.39	1847.27
396.60	2000.87
396.80	1855.46
397.01	1892.32
397.22	1863.65
397.43	1808.36
397.64	1748.97
397.84	1859.56
398.05	1796.07
398.26	1718.25
398.47	1785.83
398.67	1800.16
398.88	1705.96
399.09	1695.72
399.30	1730.53
399.51	1730.53
399.71	1708.01
399.92	1744.87
400.13	1746.92
400.34	1697.77
400.54	1769.44
400.75	1791.97
400.96	1726.44
401.17	1818.60
401.37	1716.20
401.58	1724.39
401.79	1656.81
402.00	1916.90
402.21	1939.43
402.41	1988.58
402.62	1863.65
402.83	1986.53
403.04	2000.87
403.24	1996.77
403.45	1814.50
403.66	1949.67
403.87	1853.41
404.07	1882.08
404.28	1912.80
404.49	1869.80
404.70	1806.31
404.90	1705.96
405.11	1779.68
405.32	1763.30
405.52	1681.38
405.73	1660.90
405.94	1683.43
406.15	1712.10
406.35	1769.44
406.56	1755.11
406.77	1685.48
406.98	1654.76
407.18	1615.85
407.39	1748.97
407.60	1681.38
407.80	1699.81
408.01	1695.72
408.22	1697.77
408.43	1669.09
408.63	1714.15
408.84	1720.29
409.05	1746.92
409.25	1636.33
409.46	1634.28
409.67	1650.66
409.88	1691.62
410.08	1685.48
410.29	1671.14
410.50	1777.64
410.70	1751.01
410.91	1611.75
411.12	1757.16
411.32	1746.92
411.53	1654.76
411.74	1808.36
411.95	1753.06
412.15	1791.97
412.36	1763.30
412.57	1763.30
412.77	1791.97
412.98	1728.49
413.19	1669.09
413.39	1734.63
413.60	1787.88
413.81	1818.60
414.01	1757.16
414.22	1656.81
414.43	1804.26
414.63	1720.29
414.84	1742.82
415.05	1626.09
415.25	1667.05
415.46	1699.81
415.67	1722.34
415.87	1759.21
416.08	1628.14
416.29	1693.67
416.49	1708.01
416.70	1703.91
416.91	1716.20
417.11	1718.25
417.32	1771.49
417.53	1796.07
417.73	1796.07
417.94	1646.57
418.15	1759.21
418.35	1675.24
418.56	1650.66
418.77	1826.79
418.97	1652.71
419.18	1734.63
419.38	1609.70
419.59	1619.94
419.80	1828.84
420.00	1685.48
420.21	1685.48
420.42	1810.40
420.62	1724.39
420.83	1710.05
421.04	1697.77
421.24	1677.29
421.45	1673.19
421.65	1746.92
421.86	1640.42
422.07	1757.16
422.27	1705.96
422.48	1656.81
422.69	1648.61
422.89	1660.90
423.10	1662.95
423.30	1617.90
423.51	1677.29
423.72	1765.35
423.92	1804.26
424.13	1640.42
424.33	1679.33
424.54	1818.60
424.75	1728.49
424.95	1769.44
425.16	1757.16
425.36	1665.00
425.57	1716.20
425.78	1628.14
425.98	1796.07
426.19	1660.90
426.39	1656.81
426.60	1718.25
426.81	1826.79
427.01	1658.85
427.22	1642.47
427.42	1648.61
427.63	1660.90
427.83	1822.69
428.04	1759.21
428.25	1794.02
428.45	1718.25
428.66	1810.40
428.86	1701.86
429.07	1703.91
429.28	1724.39
429.48	1675.24
429.69	1628.14
429.89	1701.86
430.10	1644.52
430.30	1701.86
430.51	1810.40
430.71	1732.58
430.92	1734.63
431.13	1654.76
431.33	1787.88
431.54	1720.29
431.74	1824.74
431.95	1824.74
432.15	1671.14
432.36	1716.20
432.56	1781.73
432.77	1800.16
432.98	1763.30
433.18	1787.88
433.39	1783.78
433.59	1689.57
433.80	1744.87
434.00	1832.93
434.21	1689.57
434.41	1587.18
434.62	1820.64
434.82	1675.24
435.03	1726.44
435.23	1710.05
435.44	1570.79
435.64	1677.29
435.85	1761.25
436.06	1744.87
436.26	1779.68
436.47	1619.94
436.67	1685.48
436.88	1695.72
437.08	1767.40
437.29	1744.87
437.49	1773.54
437.70	1830.88
437.90	1689.57
438.11	1894.37
438.31	1828.84
438.52	1865.70
438.72	1863.65
438.93	1910.75
439.13	1814.50
439.34	1841.12
439.54	1734.63
439.75	1810.40
439.95	1746.92
440.16	1796.07
440.36	1695.72
440.57	1769.44
440.77	1728.49
440.98	1765.35
441.18	1804.26
441.39	1617.90
441.59	1689.57
441.80	1865.70
442.00	1654.76
442.21	1789.92
442.41	1720.29
442.62	1808.36
442.82	1617.90
443.02	1736.68
443.23	1732.58
443.43	1652.71
443.64	1677.29
443.84	1714.15
444.05	1798.12
444.25	1773.54
444.46	1738.73
444.66	1720.29
444.87	1834.98
445.07	1609.70
445.28	1654.76
445.48	1763.30
445.69	1796.07
445.89	1800.16
446.09	1789.92
446.30	2017.25
446.50	2688.98
446.71	3835.85
446.91	4343.74
447.12	4728.76
447.32	4941.75
447.53	4483.00
447.73	3975.11
447.93	3575.75
448.14	3301.33
448.34	3243.98
448.55	2938.84
448.75	2863.06
448.96	2693.08
449.16	2457.56
449.36	2279.39
449.57	2074.59
449.77	1945.57
449.98	1683.43
450.18	1789.92
450.39	1828.84
450.59	1761.25
450.79	1699.81
451.00	1673.19
451.20	1699.81
451.41	1736.68
451.61	1769.44
451.81	1679.33
452.02	1718.25
452.22	1730.53
452.43	1718.25
452.63	1619.94
452.84	1742.82
453.04	1714.15
453.24	1746.92
453.45	1609.70
453.65	1812.45
453.86	1773.54
454.06	1806.31
454.26	1718.25
454.47	1585.13
454.67	1851.36
454.87	1773.54
455.08	1677.29
455.28	1785.83
455.49	1785.83
455.69	1710.05
455.89	1806.31
456.10	1777.64
456.30	1738.73
456.51	1832.93
456.71	1710.05
456.91	1755.11
457.12	1720.29
457.32	1753.06
457.52	1673.19
457.73	1730.53
457.93	1751.01
458.14	1640.42
458.34	1710.05
458.54	1757.16
458.75	1734.63
458.95	1771.49
459.15	1746.92
459.36	1734.63
459.56	1857.51
459.76	1748.97
459.97	1791.97
460.17	1759.21
460.37	1820.64
460.58	1765.35
460.78	1777.64
460.99	1726.44
461.19	1710.05
461.39	1720.29
461.60	1718.25
461.80	1785.83
462.00	1687.53
462.21	1732.58
462.41	1724.39
462.61	1779.68
462.82	1691.62
463.02	1757.16
463.22	1730.53
463.43	1759.21
463.63	1767.40
463.83	1789.92
464.04	1814.50
464.24	1701.86
464.44	1697.77
464.64	1699.81
464.85	1722.34
465.05	1683.43
465.25	1781.73
465.46	1691.62
465.66	1771.49
465.86	1701.86
466.07	1726.44
466.27	1607.66
466.47	1544.17
466.68	1490.92
466.88	1898.47
467.08	1656.81
467.29	1748.97
467.49	1791.97
467.69	1712.10
467.89	1775.59
468.10	1669.09
468.30	1742.82
468.50	1751.01
468.71	1742.82
468.91	1734.63
469.11	1826.79
469.31	1718.25
469.52	1667.05
469.72	1806.31
469.92	1826.79
470.13	1722.34
470.33	1714.15
470.53	1822.69
470.73	2050.02
470.94	2316.25
471.14	2328.54
471.34	2385.88
471.54	2389.98
471.75	2187.23
471.95	2076.64
472.15	2140.13
472.36	2099.17
472.56	2070.50
472.76	2058.21
472.96	1984.48
473.17	2007.01
473.37	1959.91
473.57	1787.88
473.77	1820.64
473.98	1751.01
474.18	1732.58
474.38	1931.23
474.58	1744.87
474.79	1736.68
474.99	1775.59
475.19	1812.45
475.39	1630.18
475.60	1695.72
475.80	1746.92
476.00	1669.09
476.20	1687.53
476.41	1701.86
476.61	1765.35
476.81	1845.22
477.01	1755.11
477.21	1814.50
477.42	1767.40
477.62	1665.00
477.82	1763.30
478.02	1683.43
478.23	1892.32
478.43	1701.86
478.63	1695.72
478.83	1763.30
479.03	1710.05
479.24	1783.78
479.44	1753.06
479.64	1662.95
479.84	1599.46
480.04	1607.66
480.25	1740.77
480.45	1646.57
480.65	1644.52
480.85	1726.44
481.06	1634.28
481.26	1751.01
481.46	1781.73
481.66	1773.54
481.86	1638.38
482.06	1753.06
482.27	1716.20
482.47	1617.90
482.67	1746.92
482.87	1681.38
483.07	1701.86
483.28	1679.33
483.48	1650.66
483.68	1658.85
483.88	1585.13
484.08	1656.81
484.29	1650.66
484.49	1656.81
484.69	1685.48
484.89	1880.04
485.09	1781.73
485.29	1738.73
485.50	1742.82
485.70	1677.29
485.90	1804.26
486.10	1699.81
486.30	1757.16
486.50	1746.92
486.71	1765.35
486.91	1755.11
487.11	1859.56
487.31	1765.35
487.51	1789.92
487.71	1685.48
487.91	1652.71
488.12	1632.23
488.32	1644.52
488.52	1695.72
488.72	1652.71
488.92	1665.00
489.12	1738.73
489.32	1796.07
489.53	1726.44
489.73	1644.52
489.93	1808.36
490.13	1595.37
490.33	1613.80
490.53	1796.07
490.73	1791.97
490.94	1636.33
491.14	1787.88
491.34	1808.36
491.54	2152.42
491.74	2562.01
491.94	2893.78
492.14	3059.67
492.34	2992.08
492.54	2762.71
492.75	2514.91
492.95	2426.84
493.15	2371.55
493.35	2240.48
493.55	2240.48
493.75	2107.36
493.95	2136.03
494.15	2088.93
494.35	1933.28
494.56	1839.08
494.76	1773.54
494.96	1818.60
495.16	1781.73
495.36	1763.30
495.56	1695.72
495.76	1748.97
495.96	1734.63
496.16	1691.62
496.36	1812.45
496.56	1767.40
496.77	1744.87
496.97	1732.58
497.17	1785.83
497.37	1673.19
497.57	1728.49
497.77	1796.07
497.97	1660.90
498.17	1769.44
498.37	1689.57
498.57	1732.58
498.77	1671.14
498.97	1812.45
499.17	1771.49
499.38	1738.73
499.58	1779.68
499.78	1871.84
499.98	1791.97
500.18	1769.44
500.38	1746.92
500.58	1886.18
500.78	2553.82
500.98	4566.97
501.18	5762.98
501.38	6741.91
501.58	7221.14
501.78	6690.71
501.98	5670.83
502.18	5001.14
502.38	4448.19
502.58	4147.14
502.78	3870.66
502.98	3561.42
503.18	3483.59
503.38	3192.78
503.59	2908.12
503.79	2654.17
503.99	2455.51
504.19	2355.16
504.39	2201.57
504.59	2228.19
504.79	2117.60
504.99	1994.72
505.19	1847.27
505.39	1908.71
505.59	1943.52
505.79	1980.39
505.99	1875.94
506.19	1877.99
506.39	1869.80
506.59	1757.16
506.79	1720.29
506.99	1812.45
507.19	1685.48
507.39	1742.82
507.59	1654.76
507.79	1712.10
507.99	1726.44
508.19	1757.16
508.39	1753.06
508.59	1689.57
508.79	1722.34
508.99	1781.73
509.19	1736.68
509.39	1720.29
509.59	1722.34
509.79	1587.18
509.99	1716.20
510.19	1855.46
510.39	1837.03
510.59	1728.49
510.79	1708.01
510.99	1705.96
511.19	1718.25
511.39	1800.16
511.59	1724.39
511.79	1771.49
511.99	1724.39
512.19	1736.68
512.38	1726.44
512.58	1697.77
512.78	1740.77
512.98	1779.68
513.18	1751.01
513.38	1644.52
513.58	1816.55
513.78	1732.58
513.98	1769.44
514.18	1705.96
514.38	1669.09
514.58	1644.52
514.78	1673.19
514.98	1761.25
515.18	1685.48
515.38	1638.38
515.58	1886.18
515.78	1728.49
515.98	1714.15
516.18	1746.92
516.38	1718.25
516.57	1720.29
516.77	1761.25
516.97	1732.58
517.17	1714.15
517.37	1662.95
517.57	1814.50
517.77	1800.16
517.97	1650.66
518.17	1777.64
518.37	1712.10
518.57	1619.94
518.77	1701.86
518.97	1654.76
519.16	1734.63
519.36	1744.87
519.56	1675.24
519.76	1652.71
519.96	1650.66
520.16	1783.78
520.36	1665.00
520.56	1875.94
520.76	1726.44
520.96	1689.57
521.16	1851.36
521.35	1796.07
521.55	1822.69
521.75	1744.87
521.95	1642.47
522.15	1652.71
522.35	1656.81
522.55	1732.58
522.75	1759.21
522.95	1671.14
523.14	1665.00
523.34	1677.29
523.54	1734.63
523.74	1810.40
523.94	1748.97
524.14	1722.34
524.34	1730.53
524.54	1865.70
524.73	1740.77
524.93	1742.82
525.13	1753.06
525.33	1710.05
525.53	1880.04
525.73	1779.68
525.93	1697.77
526.13	1710.05
526.32	1693.67
526.52	1787.88
526.72	1779.68
526.92	1708.01
527.12	1683.43
527.32	1654.76
527.52	1818.60
527.71	1724.39
527.91	1730.53
528.11	1718.25
528.31	1679.33
528.51	1701.86
528.71	1802.21
528.90	1746.92
529.10	1769.44
529.30	1777.64
529.50	1677.29
529.70	1728.49
529.90	1652.71
530.09	1693.67
530.29	1673.19
530.49	1714.15
530.69	1877.99
530.89	1746.92
531.09	1769.44
531.28	1697.77
531.48	1783.78
531.68	1728.49
531.88	1769.44
532.08	1757.16
532.28	1667.05
532.47	1714.15
532.67	1650.66
532.87	1779.68
533.07	1662.95
533.27	1714.15
533.46	1746.92
533.66	1755.11
533.86	1726.44
534.06	1714.15
534.26	1671.14
534.45	1693.67
534.65	1753.06
534.85	1744.87
535.05	1650.66
535.25	1824.74
535.44	1648.61
535.64	1763.30
535.84	1638.38
536.04	1683.43
536.24	1677.29
536.43	1691.62
536.63	1804.26
536.83	1703.91
537.03	1681.38
537.22	1640.42
537.42	1652.71
537.62	1697.77
537.82	1687.53
538.02	1728.49
538.21	1781.73
538.41	1964.00
538.61	1771.49
538.81	1646.57
539.00	1834.98
539.20	1617.90
539.40	1703.91
539.60	1734.63
539.79	1767.40
539.99	1716.20
540.19	1624.04
540.39	1746.92
540.58	1734.63
540.78	1775.59
540.98	1740.77
541.18	1814.50
541.37	1796.07
541.57	1777.64
541.77	1730.53
541.97	1714.15
542.16	1689.57
542.36	1638.38
542.56	1693.67
542.76	1873.89
542.95	1740.77
543.15	1781.73
543.35	1843.17
543.54	1691.62
543.74	1705.96
543.94	1867.75
544.14	1761.25
544.33	1712.10
544.53	1724.39
544.73	1714.15
544.93	1705.96
545.12	1722.34
545.32	1718.25
545.52	1650.66
545.71	1632.23
545.91	1746.92
546.11	1744.87
546.30	1675.24
546.50	1667.05
546.70	1693.67
546.90	1710.05
547.09	1662.95
547.29	1796.07
547.49	1798.12
547.68	1738.73
547.88	1763.30
548.08	1787.88
548.27	2119.65
548.47	1599.46
548.67	1787.88
548.87	1785.83
549.06	1660.90
549.26	1851.36
549.46	1746.92
549.65	1695.72
549.85	1779.68
550.05	1771.49
550.24	1677.29
550.44	1675.24
550.64	1771.49
550.83	1730.53
551.03	1843.17
551.23	1800.16
551.42	1814.50
551.62	1738.73
551.82	1722.34
552.01	1763.30
552.21	1746.92
552.41	1720.29
552.60	1832.93
552.80	1728.49
553.00	1697.77
553.19	1800.16
553.39	1834.98
553.59	1613.80
553.78	1732.58
553.98	1730.53
554.17	1632.23
554.37	1806.31
554.57	1748.97
554.76	1718.25
554.96	1763.30
555.16	1755.11
555.35	1757.16
555.55	1779.68
555.75	1738.73
555.94	1736.68
556.14	1642.47
556.33	1740.77
556.53	1773.54
556.73	1777.64
556.92	1798.12
557.12	1837.03
557.32	1861.60
557.51	1810.40
557.71	1755.11
557.90	1763.30
558.10	1841.12
558.30	1730.53
558.49	1751.01
558.69	1691.62
558.88	1875.94
559.08	1691.62
559.28	1732.58
559.47	1763.30
559.67	1726.44
559.86	1804.26
560.06	1783.78
560.26	1697.77
560.45	1732.58
560.65	1736.68
560.84	1837.03
561.04	1746.92
561.24	1751.01
561.43	1652.71
561.63	1812.45
561.82	1761.25
562.02	1726.44
562.22	1691.62
562.41	1650.66
562.61	1705.96
562.80	1630.18
563.00	1853.41
563.19	1748.97
563.39	1744.87
563.59	1708.01
563.78	1714.15
563.98	1683.43
564.17	1695.72
564.37	1607.66
564.56	1763.30
564.76	1667.05
564.96	1763.30
565.15	1882.08
565.35	1820.64
565.54	1712.10
565.74	1789.92
565.93	1798.12
566.13	1658.85
566.32	1796.07
566.52	1798.12
566.71	1701.86
566.91	1800.16
567.11	1714.15
567.30	1673.19
567.50	1763.30
567.69	1759.21
567.89	1720.29
568.08	1681.38
568.28	1720.29
568.47	1642.47
568.67	1781.73
568.86	1802.21
569.06	1742.82
569.25	1734.63
569.45	1716.20
569.64	1691.62
569.84	1648.61
570.04	1841.12
570.23	1736.68
570.43	1796.07
570.62	1734.63
570.82	1882.08
571.01	1681.38
571.21	1683.43
571.40	1699.81
571.60	1802.21
571.79	1742.82
571.99	1742.82
572.18	1705.96
572.38	1679.33
572.57	1665.00
572.77	1785.83
572.96	1810.40
573.16	1769.44
573.35	1726.44
573.55	1763.30
573.74	1755.11
573.94	1701.86
574.13	1730.53
574.33	1771.49
574.52	1738.73
574.71	1759.21
574.91	1759.21
575.10	1632.23
575.30	1744.87
575.49	1695.72
575.69	1703.91
575.88	1789.92
576.08	1728.49
576.27	1755.11
576.47	1742.82
576.66	1857.51
576.86	1861.60
577.05	1697.77
577.25	1779.68
577.44	1865.70
577.64	1636.33
577.83	1777.64
578.02	1708.01
578.22	1822.69
578.41	1789.92
578.61	1814.50
578.80	1636.33
579.00	1796.07
579.19	1832.93
579.39	1824.74
579.58	1851.36
579.77	1779.68
579.97	1859.56
580.16	1814.50
580.36	1798.12
580.55	1783.78
580.75	1755.11
580.94	1765.35
581.13	1820.64
581.33	1920.99
581.52	1689.57
581.72	1914.85
581.91	1826.79
582.11	1757.16
582.30	1814.50
582.49	1751.01
582.69	1789.92
582.88	1808.36
583.08	1761.25
583.27	1828.84
583.47	1796.07
583.66	1740.77
583.85	1697.77
584.05	1710.05
584.24	1800.16
584.44	1804.26
584.63	1800.16
584.82	1843.17
585.02	1820.64
585.21	1798.12
585.41	1796.07
585.60	1812.45
585.79	1955.81
585.99	1916.90
586.18	1837.03
586.37	2154.46
586.57	3434.44
586.76	10073.96
586.96	24876.68
587.15	34969.07
587.34	41117.07
587.54	42515.83
587.73	36832.72
587.93	26822.25
588.12	22046.38
588.31	18765.54
588.51	16623.36
588.70	15263.51
588.89	14446.37
589.09	12717.89
589.28	11249.49
589.47	9738.09
589.67	8007.56
589.86	6457.25
590.06	4925.36
590.25	3973.06
590.44	3104.72
590.64	2559.96
590.83	2342.88
591.02	2052.06
591.22	2025.44
591.41	1892.32
591.60	1779.68
591.80	1951.71
591.99	1722.34
592.18	1736.68
592.38	1832.93
592.57	1734.63
592.76	1742.82
592.96	1828.84
593.15	1726.44
593.34	1820.64
593.54	1802.21
593.73	1769.44
593.92	1716.20
594.12	1806.31
594.31	1796.07
594.50	1798.12
594.70	1734.63
594.89	1910.75
595.08	1656.81
595.28	1791.97
595.47	1865.70
595.66	1853.41
595.86	1720.29
596.05	1800.16
596.24	1699.81
596.43	1800.16
596.63	1814.50
596.82	1824.74
597.01	1765.35
597.21	1851.36
597.40	1826.79
597.59	1710.05
597.79	1771.49
597.98	1757.16
598.17	1775.59
598.36	1806.31
598.56	1673.19
598.75	1705.96
598.94	1738.73
599.14	1804.26
599.33	1734.63
599.52	1794.02
599.71	1787.88
599.91	1806.31
600.10	1824.74
600.29	1748.97
600.48	1789.92
600.68	1734.63
600.87	1660.90
601.06	1691.62
601.26	1689.57
601.45	1806.31
601.64	1736.68
601.83	1861.60
602.03	1734.63
602.22	1720.29
602.41	1796.07
602.60	1773.54
602.80	1794.02
602.99	1787.88
603.18	1695.72
603.37	1767.40
603.57	1732.58
603.76	1824.74
603.95	1779.68
604.14	1658.85
604.34	1693.67
604.53	1814.50
604.72	1708.01
604.91	1777.64
605.10	1785.83
605.30	1689.57
605.49	1855.46
605.68	1724.39
605.87	1703.91
606.07	1683.43
606.26	1757.16
606.45	1783.78
606.64	1730.53
606.84	1660.90
607.03	1724.39
607.22	1765.35
607.41	1624.04
607.60	1685.48
607.80	1718.25
607.99	1722.34
608.18	1746.92
608.37	1728.49
608.56	1726.44
608.76	1775.59
608.95	1837.03
609.14	1689.57
609.33	1736.68
609.52	1712.10
609.72	1722.34
609.91	1779.68
610.10	1705.96
610.29	1892.32
610.48	1738.73
610.68	1781.73
610.87	1763.30
611.06	1767.40
611.25	1728.49
611.44	1746.92
611.63	1738.73
611.83	1726.44
612.02	1730.53
612.21	1759.21
612.40	1554.41
612.59	1665.00
612.79	1660.90
612.98	1671.14
613.17	1759.21
613.36	1669.09
613.55	1822.69
613.74	1677.29
613.93	1691.62
614.13	1705.96
614.32	1699.81
614.51	1808.36
614.70	1619.94
614.89	1699.81
615.08	1742.82
615.28	2093.02
615.47	1624.04
615.66	1697.77
615.85	1710.05
616.04	1783.78
616.23	1730.53
616.42	1738.73
616.62	1724.39
616.81	1751.01
617.00	1691.62
617.19	1726.44
617.38	1703.91
617.57	1738.73
617.76	1820.64
617.95	1669.09
618.15	1689.57
618.34	1757.16
618.53	1691.62
618.72	1757.16
618.91	1771.49
619.10	1773.54
619.29	1644.52
619.48	1681.38
619.68	1720.29
619.87	1820.64
620.06	1667.05
620.25	1839.08
620.44	1562.60
620.63	1755.11
620.82	1708.01
621.01	1773.54
621.20	1785.83
621.39	1716.20
621.59	1777.64
621.78	1742.82
621.97	1753.06
622.16	1769.44
622.35	1765.35
622.54	1736.68
622.73	1804.26
622.92	1652.71
623.11	1771.49
623.30	1675.24
623.49	1779.68
623.68	1738.73
623.88	1804.26
624.07	1671.14
624.26	1726.44
624.45	1765.35
624.64	1648.61
624.83	1718.25
625.02	1736.68
625.21	1767.40
625.40	1755.11
625.59	1779.68
625.78	1726.44
625.97	1783.78
626.16	1746.92
626.35	1796.07
626.54	1724.39
626.74	1757.16
626.93	1775.59
627.12	1726.44
627.31	1796.07
627.50	1746.92
627.69	1857.51
627.88	1681.38
628.07	1687.53
628.26	1595.37
628.45	1652.71
628.64	1638.38
628.83	1771.49
629.02	1726.44
629.21	1730.53
629.40	1748.97
629.59	1689.57
629.78	1703.91
629.97	1636.33
630.16	1728.49
630.35	1619.94
630.54	1724.39
630.73	1621.99
630.92	1652.71
631.11	1642.47
631.30	1665.00
631.49	1828.84
631.68	1705.96
631.87	1748.97
632.06	1685.48
632.25	1748.97
632.44	1740.77
632.63	1724.39
632.82	1701.86
633.01	1652.71
633.20	1769.44
633.39	1675.24
633.58	1697.77
633.77	1732.58
633.96	1736.68
634.15	1802.21
634.34	1738.73
634.53	1769.44
634.72	1660.90
634.91	1587.18
635.10	1726.44
635.29	1728.49
635.48	1736.68
635.67	1728.49
635.86	1665.00
636.05	1746.92
636.24	1738.73
636.43	1693.67
636.62	1701.86
636.81	1591.27
637.00	1755.11
637.19	1751.01
637.38	1685.48
637.57	1658.85
637.76	1720.29
637.95	1781.73
638.14	1593.32
638.33	1748.97
638.52	1755.11
638.71	1658.85
638.89	1589.22
639.08	1849.32
639.27	1695.72
639.46	1753.06
639.65	1775.59
639.84	1689.57
640.03	1822.69
640.22	1787.88
640.41	1843.17
640.60	1681.38
640.79	1736.68
640.98	1687.53
641.17	1746.92
641.36	1656.81
641.55	1691.62
641.74	1581.03
641.92	1621.99
642.11	1615.85
642.30	1763.30
642.49	1695.72
642.68	1734.63
642.87	1716.20
643.06	1744.87
643.25	1673.19
643.44	1744.87
643.63	1660.90
643.82	1679.33
644.00	1716.20
644.19	1718.25
644.38	1621.99
644.57	1720.29
644.76	1771.49
644.95	1722.34
645.14	1685.48
645.33	1669.09
645.52	1685.48
645.71	1587.18
645.89	1624.04
646.08	1710.05
646.27	1751.01
646.46	1847.27
646.65	1628.14
646.84	1701.86
647.03	1628.14
647.22	1785.83
647.40	1710.05
647.59	1738.73
647.78	1695.72
647.97	1683.43
648.16	1671.14
648.35	1791.97
648.54	1806.31
648.73	1720.29
648.91	1712.10
649.10	1785.83
649.29	1650.66
649.48	1652.71
649.67	1650.66
649.86	1679.33
650.05	1701.86
650.23	1730.53
650.42	1624.04
650.61	1800.16
650.80	1662.95
650.99	1834.98
651.18	1800.16
651.36	1781.73
651.55	1693.67
651.74	1800.16
651.93	1609.70
652.12	1689.57
652.31	1669.09
652.49	1697.77
652.68	1611.75
652.87	1734.63
653.06	1724.39
653.25	1798.12
653.44	1744.87
653.62	1781.73
653.81	1740.77
654.00	1710.05
654.19	1761.25
654.38	1839.08
654.56	1781.73
654.75	1703.91
654.94	1761.25
655.13	1777.64
655.32	1712.10
655.51	1675.24
655.69	1671.14
655.88	1796.07
656.07	1695.72
656.26	1720.29
656.45	1626.09
656.63	1763.30
656.82	1789.92
657.01	1773.54
657.20	1638.38
657.38	1773.54
657.57	1681.38
657.76	1626.09
657.95	1734.63
658.14	1732.58
658.32	1701.86
658.51	1630.18
658.70	1755.11
658.89	1556.46
659.08	1701.86
659.26	1894.37
659.45	1650.66
659.64	1708.01
659.83	1634.28
660.01	1800.16
660.20	1753.06
660.39	1798.12
660.58	1628.14
660.76	1720.29
660.95	1646.57
661.14	1746.92
661.33	1679.33
661.51	1679.33
661.70	1744.87
661.89	1730.53
662.08	1755.11
662.26	1621.99
662.45	1701.86
662.64	1714.15
662.83	1841.12
663.01	1691.62
663.20	1636.33
663.39	1775.59
663.58	1677.29
663.76	1673.19
663.95	1693.67
664.14	1746.92
664.32	1640.42
664.51	1648.61
664.70	1691.62
664.89	1794.02
665.07	1712.10
665.26	1736.68
665.45	1705.96
665.64	1820.64
665.82	1787.88
666.01	1748.97
666.20	1671.14
666.38	1781.73
666.57	1751.01
666.76	2170.85
666.95	4470.72
667.13	10442.59
667.32	15425.30
667.51	18327.27
667.69	19162.84
667.88	17796.85
668.07	12590.91
668.25	9678.70
668.44	8159.11
668.63	7559.05
668.81	6889.37
669.00	6311.84
669.19	5781.42
669.38	5162.93
669.56	4624.31
669.75	4134.85
669.94	3319.76
670.12	2914.26
670.31	2586.58
670.50	2256.86
670.68	2080.74
670.87	1959.91
671.06	1771.49
671.24	1888.23
671.43	1880.04
671.62	1730.53
671.80	1679.33
671.99	1683.43
672.18	1730.53
672.36	1732.58
672.55	1738.73
672.74	1638.38
672.92	1759.21
673.11	1730.53
673.29	1716.20
673.48	1763.30
673.67	1689.57
673.85	1763.30
674.04	1656.81
674.23	1732.58
674.41	1873.89
674.60	1640.42
674.79	1587.18
674.97	1703.91
675.16	1683.43
675.34	1693.67
675.53	1646.57
675.72	1742.82
675.90	1701.86
676.09	1665.00
676.28	1636.33
676.46	1613.80
676.65	1771.49
676.83	1710.05
677.02	1753.06
677.21	1789.92
677.39	1722.34
677.58	1665.00
677.77	1650.66
677.95	1767.40
678.14	1603.56
678.32	1695.72
678.51	1705.96
678.70	1820.64
678.88	1671.14
679.07	1691.62
679.25	1667.05
679.44	1744.87
679.63	1656.81
679.81	1667.05
680.00	1746.92
680.18	1693.67
680.37	1757.16
680.55	1685.48
680.74	1597.42
680.93	1599.46
681.11	1730.53
681.30	1632.23
681.48	1755.11
681.67	1734.63
681.85	1746.92
682.04	1730.53
682.23	1767.40
682.41	1697.77
682.60	1775.59
682.78	1722.34
682.97	1669.09
683.15	1746.92
683.34	1697.77
683.53	1802.21
683.71	1644.52
683.90	1732.58
684.08	1837.03
684.27	1697.77
684.45	1697.77
684.64	1804.26
684.82	1660.90
685.01	1767.40
685.19	1708.01
685.38	1830.88
685.57	1726.44
685.75	1703.91
685.94	1689.57
686.12	1675.24
686.31	1685.48
686.49	1781.73
686.68	1691.62
686.86	1742.82
687.05	1671.14
687.23	1767.40
687.42	1712.10
687.60	1572.84
687.79	1812.45
687.97	1814.50
688.16	1777.64
688.34	1703.91
688.53	1615.85
688.71	1763.30
688.90	1779.68
689.08	1701.86
689.27	1581.03
689.45	1710.05
689.64	1736.68
689.82	1683.43
690.01	1738.73
690.19	1761.25
690.38	1718.25
690.56	1765.35
690.75	1632.23
690.93	1652.71
691.12	1689.57
691.30	1613.80
691.49	1716.20
691.67	1724.39
691.86	1787.88
692.04	1583.08
692.23	1560.55
692.41	1644.52
692.60	1828.84
692.78	1730.53
692.97	1701.86
693.15	1763.30
693.34	1794.02
693.52	1767.40
693.71	1677.29
693.89	1675.24
694.08	1605.61
694.26	1730.53
694.44	1722.34
694.63	1757.16
694.81	1642.47
695.00	1650.66
695.18	1701.86
695.37	1834.98
695.55	1681.38
695.74	1640.42
695.92	1681.38
696.10	1824.74
696.29	1601.51
696.47	1714.15
696.66	1708.01
696.84	1591.27
697.03	1720.29
697.21	1771.49
697.40	2263.01
697.58	1861.60
697.76	1640.42
697.95	1679.33
698.13	1634.28
698.32	1667.05
698.50	1732.58
698.68	1732.58
698.87	1705.96
699.05	1851.36
699.24	1673.19
699.42	1648.61
699.61	1660.90
699.79	1689.57
699.97	1728.49
700.16	1576.94
700.34	1642.47
700.53	1695.72
700.71	1804.26
700.89	1771.49
701.08	1701.86
701.26	1681.38
701.45	2142.18
701.63	1703.91
701.81	1681.38
702.00	1660.90
702.18	1714.15
702.37	1679.33
702.55	1746.92
702.73	1740.77
702.92	1656.81
703.10	1710.05
703.28	1759.21
703.47	1632.23
703.65	1744.87
703.84	1771.49
704.02	1650.66
704.20	1779.68
704.39	1708.01
704.57	1697.77
704.75	1751.01
704.94	1830.88
705.12	1677.29
705.30	1775.59
705.49	2330.59
705.67	4380.61
705.86	9408.37
706.04	12502.85
706.22	14626.59
706.41	15558.42
706.59	13932.33
706.77	9785.19
706.96	7360.40
707.14	6719.39
707.32	5853.09
707.51	5621.67
707.69	5038.00
707.87	4229.06
708.06	3583.95
708.24	3014.61
708.42	2480.09
708.61	2301.92
708.79	1898.47
708.97	1882.08
709.16	1771.49
709.34	1724.39
709.52	1710.05
709.71	1710.05
709.89	1755.11
710.07	1615.85
710.26	1710.05
710.44	1705.96
710.62	1757.16
710.80	1796.07
710.99	1718.25
711.17	1757.16
711.35	1683.43
711.54	1714.15
711.72	1769.44
711.90	1691.62
712.09	1695.72
712.27	1685.48
712.45	1738.73
712.63	1607.66
712.82	1720.29
713.00	1685.48
713.18	1779.68
713.37	1771.49
713.55	1777.64
713.73	1720.29
713.91	1761.25
714.10	1679.33
714.28	1611.75
714.46	1742.82
714.65	1740.77
714.83	1736.68
715.01	1734.63
715.19	1624.04
715.38	1642.47
715.56	1789.92
715.74	1669.09
715.92	1572.84
716.11	1763.30
716.29	1677.29
716.47	1681.38
716.65	1687.53
716.84	1611.75
717.02	1763.30
717.20	1572.84
717.38	1671.14
717.57	1710.05
717.75	1751.01
717.93	1630.18
718.11	1701.86
718.30	1673.19
718.48	1714.15
718.66	1722.34
718.84	1738.73
719.03	1726.44
719.21	1708.01
719.39	1800.16
719.57	1738.73
719.75	1791.97
719.94	1613.80
720.12	1665.00
720.30	1644.52
720.48	1738.73
720.67	1626.09
720.85	1697.77
721.03	1687.53
721.21	1667.05
721.39	1814.50
721.58	1740.77
721.76	1740.77
721.94	1734.63
722.12	1685.48
722.30	1822.69
722.49	1703.91
722.67	1742.82
722.85	1705.96
723.03	1611.75
723.21	1615.85
723.40	1810.40
723.58	1802.21
723.76	1738.73
723.94	1763.30
724.12	1755.11
724.30	1818.60
724.49	1738.73
724.67	1644.52
724.85	1816.55
725.03	1673.19
725.21	1732.58
725.40	1740.77
725.58	1634.28
725.76	1716.20
725.94	1673.19
726.12	1652.71
726.30	1751.01
726.49	1771.49
726.67	1740.77
726.85	1753.06
727.03	1796.07
727.21	2121.70
727.39	2889.68
727.57	3819.46
727.76	4196.29
727.94	4497.34
728.12	4347.84
728.30	3737.54
728.48	2934.74
728.66	2678.74
728.84	2500.57
729.03	2271.20
729.21	2224.09
729.39	1984.48
729.57	1757.16
729.75	1796.07
729.93	1796.07
730.11	1671.14
730.30	1701.86
730.48	1714.15
730.66	1757.16
730.84	1828.84
731.02	1648.61
731.20	1703.91
731.38	1699.81
731.56	1607.66
731.74	1660.90
731.93	1697.77
732.11	1755.11
732.29	1671.14
732.47	1720.29
732.65	1773.54
732.83	1769.44
733.01	1691.62
733.19	1636.33
733.37	1765.35
733.56	1726.44
733.74	1640.42
733.92	1730.53
734.10	1744.87
734.28	1726.44
734.46	1673.19
734.64	1636.33
734.82	1714.15
735.00	1658.85
735.18	1662.95
735.36	1839.08
735.54	1665.00
735.73	1689.57
735.91	1652.71
736.09	1730.53
736.27	1726.44
736.45	1722.34
736.63	1632.23
736.81	1675.24
736.99	1763.30
737.17	1812.45
737.35	1619.94
737.53	1693.67
737.71	1683.43
737.89	1746.92
738.07	1636.33
738.25	1710.05
738.43	1609.70
738.61	1767.40
738.80	1593.32
738.98	1630.18
739.16	1677.29
739.34	1611.75
739.52	1740.77
739.70	1724.39
739.88	1751.01
740.06	1796.07
740.24	1566.70
740.42	1800.16
740.60	1646.57
740.78	1650.66
740.96	1505.26
741.14	1599.46
741.32	1697.77
741.50	1574.89
741.68	1824.74
741.86	1751.01
742.04	1632.23
742.22	1667.05
742.40	1734.63
742.58	1832.93
742.76	1710.05
742.94	1753.06
743.12	1591.27
743.30	1726.44
743.48	1722.34
743.66	1609.70
743.84	1705.96
744.02	1718.25
744.20	1755.11
744.38	1621.99
744.56	1697.77
744.74	1753.06
744.92	1695.72
745.10	1712.10
745.28	1730.53
745.46	1755.11
745.64	1765.35
745.82	1781.73
746.00	1697.77
746.18	1687.53
746.36	1691.62
746.54	1726.44
746.72	1675.24
746.90	1595.37
747.08	1751.01
747.26	1642.47
747.44	1773.54
747.62	1804.26
747.80	1695.72
747.98	1783.78
748.15	1675.24
748.33	1806.31
748.51	1697.77
748.69	1746.92
748.87	1652.71
749.05	1669.09
749.23	1673.19
749.41	1738.73
749.59	1693.67
749.77	1800.16
749.95	1673.19
750.13	1656.81
750.31	1763.30
750.49	1679.33
750.67	1722.34
750.85	1787.88
751.03	1636.33
751.20	1783.78
751.38	1671.14
751.56	1644.52
751.74	1687.53
751.92	1691.62
752.10	1538.02
752.28	1734.63
752.46	1648.61
752.64	1705.96
752.82	1746.92
753.00	1677.29
753.18	1658.85
753.35	1648.61
753.53	1644.52
753.71	1636.33
753.89	1759.21
754.07	1701.86
754.25	1728.49
754.43	1687.53
754.61	1591.27
754.79	1712.10
754.97	1673.19
755.14	1783.78
755.32	1642.47
755.50	1730.53
755.68	1757.16
755.86	1699.81
756.04	1736.68
756.22	1640.42
756.40	1742.82
756.57	1794.02
756.75	1683.43
756.93	1771.49
757.11	1746.92
757.29	1665.00
757.47	1644.52
757.65	1615.85
757.82	1585.13
758.00	1720.29
758.18	1685.48
758.36	1689.57
758.54	1804.26
758.72	1601.51
758.90	1777.64
759.07	1665.00
759.25	1681.38
759.43	1634.28
759.61	1669.09
759.79	2162.66
759.97	1728.49
760.15	1632.23
760.32	1638.38
760.50	1718.25
760.68	1802.21
760.86	1615.85
761.04	1818.60
761.22	1740.77
761.39	1716.20
761.57	1738.73
761.75	1689.57
761.93	1724.39
762.11	1658.85
762.28	1718.25
762.46	1648.61
762.64	1820.64
762.82	1617.90
763.00	1665.00
763.18	1685.48
763.35	1560.55
763.53	1685.48
763.71	1683.43
763.89	1705.96
764.07	1796.07
764.24	1626.09
764.42	1787.88
764.60	1703.91
764.78	1703.91
764.96	1703.91
765.13	1785.83
765.31	1724.39
765.49	1769.44
765.67	1679.33
765.84	1601.51
766.02	1658.85
766.20	1595.37
766.38	1734.63
766.56	1781.73
766.73	1744.87
766.91	1734.63
767.09	1642.47
767.27	1773.54
767.44	1683.43
767.62	1712.10
767.80	1701.86
767.98	1646.57
768.15	1714.15
768.33	1757.16
768.51	1757.16
768.69	1798.12
768.87	1648.61
769.04	1656.81
769.22	1771.49
769.40	1855.46
769.58	1820.64
769.75	1705.96
769.93	1732.58
770.11	1681.38
770.28	1738.73
770.46	1746.92
770.64	1724.39
770.82	1644.52
770.99	1716.20
771.17	1722.34
771.35	1732.58
771.53	1724.39
771.70	1642.47
771.88	1787.88
772.06	1722.34
772.23	1630.18
772.41	1613.80
772.59	1699.81
772.77	1665.00
772.94	1701.86
773.12	1718.25
773.30	1673.19
773.47	1634.28
773.65	1589.22
773.83	1812.45
774.01	1701.86
774.18	1591.27
774.36	1787.88
774.54	1621.99
774.71	1677.29
774.89	1644.52
775.07	1724.39
775.24	1619.94
775.42	1644.52
775.60	1730.53
775.78	1662.95
775.95	1654.76
776.13	1619.94
776.31	1574.89
776.48	1710.05
776.66	1779.68
776.84	1665.00
777.01	1660.90
777.19	1636.33
777.37	1734.63
777.54	1755.11
777.72	1773.54
777.90	1703.91
778.07	1621.99
778.25	1865.70
778.43	1695.72
778.60	1728.49
778.78	1720.29
778.96	1757.16
779.13	1646.57
779.31	1744.87
779.49	1712.10
779.66	1734.63
779.84	1734.63
780.01	1695.72
780.19	1675.24
780.37	1728.49
780.54	1751.01
780.72	1591.27
780.90	1691.62
781.07	1757.16
781.25	1683.43
781.43	1736.68
781.60	1669.09
781.78	1816.55
781.95	1755.11
782.13	1695.72
782.31	1722.34
782.48	1585.13
782.66	1701.86
782.83	1824.74
783.01	1751.01
783.19	1785.83
783.36	1671.14
783.54	1710.05
783.72	1730.53
783.89	1732.58
784.07	1650.66
784.24	1736.68
784.42	1730.53
784.60	1734.63
784.77	1665.00
784.95	1601.51
785.12	1613.80
785.30	1767.40
785.47	1667.05
785.65	1677.29
785.83	1689.57
786.00	1726.44
786.18	1673.19
786.35	1675.24
786.53	1587.18
786.71	1759.21
786.88	1705.96
787.06	1675.24
787.23	1701.86
787.41	1662.95
787.58	1703.91
787.76	1705.96
787.94	1777.64
788.11	1710.05
788.29	1640.42
788.46	1701.86
788.64	1619.94
788.81	1693.67
788.99	1632.23
789.16	1652.71
789.34	1671.14
789.52	1703.91
789.69	1636.33
789.87	1564.65
790.04	1669.09
790.22	1722.34
790.39	1849.32
790.57	1630.18
790.74	1685.48
790.92	1716.20
791.09	1693.67
791.27	1748.97
791.44	1814.50
791.62	1699.81
791.79	1689.57
791.97	1730.53
792.15	1802.21
792.32	1691.62
792.50	1693.67
792.67	1738.73
792.85	1763.30
793.02	1705.96
793.20	1656.81
793.37	1558.50
793.55	1695.72
793.72	1615.85
793.90	1775.59
794.07	1722.34
794.25	1632.23
794.42	1714.15
794.60	1652.71
794.77	1732.58
794.95	1775.59
795.12	1779.68
795.30	1665.00
795.47	1621.99
795.65	1818.60
795.82	1779.68
796.00	1660.90
796.17	1650.66
796.34	1716.20
796.52	1736.68
796.69	1699.81
796.87	1775.59
797.04	1701.86
797.22	1759.21
797.39	1685.48
797.57	1740.77
797.74	1759.21
797.92	1681.38
798.09	1708.01
798.27	1740.77
798.44	1751.01
798.62	1603.56
798.79	1710.05
798.96	1767.40
799.14	1697.77
799.31	1763.30
799.49	1701.86
799.66	1658.85
799.84	1669.09
800.01	1613.80
800.19	1730.53
800.36	1558.50
800.53	1693.67
800.71	1648.61
800.88	1769.44
801.06	1689.57
801.23	1724.39
801.41	1615.85
801.58	1642.47
801.75	1660.90
801.93	1685.48
802.10	1767.40
802.28	1714.15
802.45	1669.09
802.63	1624.04
802.80	1794.02
802.97	1669.09
803.15	1720.29
803.32	1630.18
803.50	1671.14
803.67	1652.71
803.84	1609.70
804.02	1765.35
804.19	1638.38
804.37	1601.51
804.54	1689.57
804.71	1697.77
804.89	1738.73
805.06	1624.04
805.24	1689.57
805.41	1701.86
805.58	1658.85
805.76	1847.27
805.93	1703.91
806.10	1728.49
806.28	1675.24
806.45	1724.39
806.63	1710.05
806.80	1730.53
806.97	1765.35
807.15	1720.29
807.32	1710.05
807.49	1763.30
807.67	1628.14
807.84	1722.34
808.01	1650.66
808.19	1818.60
808.36	1853.41
808.54	1691.62
808.71	1771.49
808.88	1701.86
809.06	1701.86
809.23	1789.92
809.40	1632.23
809.58	1755.11
809.75	1675.24
809.92	1619.94
810.10	1818.60
810.27	1669.09
810.44	1601.51
810.62	1609.70
810.79	1714.15
810.96	1658.85
811.14	1695.72
811.31	1757.16
811.48	1751.01
811.66	1675.24
811.83	1746.92
812.00	1808.36
812.18	1615.85
812.35	1804.26
812.52	1665.00
812.69	1669.09
812.87	1665.00
813.04	1685.48
813.21	1714.15
813.39	1652.71
813.56	1597.42
813.73	1748.97
813.91	1570.79
814.08	1812.45
814.25	1681.38
814.42	1615.85
814.60	1665.00
814.77	1626.09
814.94	1671.14
815.12	1730.53
815.29	1783.78
815.46	1662.95
815.63	1744.87
815.81	1634.28
815.98	1675.24
816.15	1683.43
816.33	1695.72
816.50	1693.67
816.67	1755.11
816.84	1740.77
817.02	1681.38
817.19	1662.95
817.36	1640.42
817.53	1712.10
817.71	1621.99
817.88	1708.01
818.05	1652.71
818.22	1683.43
818.40	1832.93
818.57	1695.72
818.74	1701.86
818.91	1724.39
819.09	1730.53
819.26	1642.47
819.43	1656.81
819.60	1617.90
819.78	1701.86
819.95	1746.92
820.12	1705.96
820.29	1732.58
820.47	1808.36
820.64	1615.85
820.81	1609.70
820.98	1632.23
821.15	1757.16
821.33	1718.25
821.50	1605.61
821.67	1693.67
821.84	1673.19
822.02	1703.91
822.19	1740.77
822.36	1689.57
822.53	1669.09
822.70	1603.56
822.88	1683.43
823.05	1718.25
823.22	1763.30
823.39	1744.87
823.56	1691.62
823.74	1765.35
823.91	1646.57
824.08	1669.09
824.25	1621.99
824.42	1777.64
824.60	1677.29
824.77	1720.29
824.94	1665.00
825.11	1658.85
825.28	1628.14
825.45	1714.15
825.63	1673.19
825.80	1634.28
825.97	1646.57
826.14	1775.59
826.31	1646.57
826.48	1751.01
826.66	1691.62
826.83	1695.72
827.00	1708.01
827.17	1646.57
827.34	1710.05
827.51	1673.19
827.69	1667.05
827.86	1599.46
828.03	1675.24
828.20	1638.38
828.37	1595.37
828.54	1728.49
828.71	1701.86
828.89	1826.79
829.06	1722.34
829.23	1765.35
829.40	1640.42
829.57	1603.56
829.74	1710.05
829.91	1619.94
830.09	1662.95
830.26	1685.48
830.43	1724.39
830.60	1683.43
830.77	1742.82
830.94	1804.26
831.11	1814.50
831.28	1626.09
831.46	1746.92
831.63	1624.04
831.80	1714.15
831.97	1660.90
832.14	1650.66
832.31	1718.25
832.48	1806.31
832.65	1710.05
832.82	1648.61
832.99	1779.68
833.17	1611.75
833.34	1816.55
833.51	1777.64
833.68	1650.66
833.85	1722.34
834.02	1652.71
834.19	1673.19
834.36	1589.22
834.53	1746.92
834.70	1753.06
834.87	1722.34
835.04	1722.34
835.22	1630.18
835.39	1685.48
835.56	1689.57
835.73	1632.23
835.90	1716.20
836.07	1675.24
836.24	1726.44
836.41	1605.61
836.58	1634.28
836.75	1718.25
836.92	1753.06
837.09	1665.00
837.26	1787.88
837.43	1705.96
837.60	1808.36
837.77	1665.00
837.94	1730.53
838.12	1746.92
838.29	1648.61
838.46	1566.70
838.63	1626.09
838.80	1804.26
838.97	1787.88
839.14	1736.68
839.31	1697.77
839.48	1738.73
839.65	1675.24
839.82	1785.83
839.99	1798.12
840.16	1710.05
840.33	1591.27
840.50	1740.77
840.67	1617.90
840.84	1642.47
841.01	1720.29
841.18	1652.71
841.35	1763.30
841.52	1785.83
841.69	1796.07
841.86	1724.39
842.03	1724.39
842.20	1773.54
842.37	1703.91
842.54	1716.20
842.71	1644.52
842.88	1712.10
843.05	1824.74
843.22	1648.61
843.39	1734.63
843.56	1687.53
843.73	1607.66
843.90	1751.01
844.07	1679.33
844.24	1730.53
844.41	1708.01
844.58	1681.38
844.75	1751.01
844.92	1701.86
845.09	1642.47
845.26	1705.96
845.43	1755.11
845.60	1660.90
845.77	1748.97
845.94	1607.66
846.10	1742.82
846.27	1642.47
846.44	1615.85
846.61	1671.14
846.78	1701.86
846.95	1722.34
847.12	1662.95
847.29	1740.77
847.46	1617.90
847.63	1724.39
847.80	1705.96
847.97	1669.09
848.14	1871.84
848.31	1615.85
848.48	1665.00
848.65	1783.78
848.82	1697.77
848.98	1812.45
849.15	1734.63
849.32	1789.92
849.49	1714.15
849.66	1697.77
849.83	1671.14
850.00	1619.94
850.17	1740.77
850.34	1742.82
850.51	1734.63
850.68	1613.80
850.85	1802.21
851.01	1687.53
851.18	1660.90
851.35	1679.33
851.52	1763.30
851.69	1779.68
851.86	1603.56
852.03	1644.52
852.20	1771.49
852.37	1638.38
852.53	1615.85
852.70	1619.94
852.87	1738.73
853.04	1832.93
853.21	1716.20
853.38	1763.30
853.55	1730.53
853.72	1701.86
853.89	1650.66
854.05	1705.96
854.22	1691.62
854.39	1699.81
854.56	1755.11
854.73	1779.68
854.90	1611.75
855.07	1650.66
855.23	1669.09
855.40	1652.71
855.57	1638.38
855.74	1611.75
855.91	1929.19
856.08	1656.81
856.25	1656.81
856.41	1687.53
856.58	1630.18
856.75	1687.53
856.92	1630.18
857.09	1767.40
857.26	1638.38
857.42	1613.80
857.59	1724.39
857.76	1593.32
857.93	1746.92
858.10	1669.09
858.27	1607.66
858.43	1708.01
858.60	1685.48
858.77	1652.71
858.94	1636.33
859.11	1736.68
859.27	1732.58
859.44	1691.62
859.61	1796.07
859.78	1824.74
859.95	1677.29
860.12	1630.18
860.28	1804.26
860.45	1787.88
860.62	1648.61
860.79	1646.57
860.95	1648.61
861.12	1642.47
861.29	1615.85
861.46	1611.75
861.63	1714.15
861.79	1712.10
861.96	1542.12
862.13	1714.15
862.30	1697.77
862.47	1691.62
862.63	1607.66
862.80	1779.68
862.97	1753.06
863.14	1689.57
863.30	1712.10
863.47	1656.81
863.64	1785.83
863.81	1689.57
863.97	1685.48
864.14	1683.43
864.31	1656.81
864.48	1746.92
864.65	1736.68
864.81	1798.12
864.98	1681.38
865.15	1742.82
865.32	1748.97
865.48	1783.78
865.65	1777.64
865.82	1638.38
865.98	1699.81
866.15	1724.39
866.32	1677.29
866.49	1697.77
866.65	1730.53
866.82	1646.57
866.99	1662.95
867.16	1644.52
867.32	1689.57
867.49	1759.21
867.66	1697.77
867.83	1642.47
867.99	1595.37
868.16	1730.53
868.33	1656.81
868.49	1609.70
868.66	1648.61
868.83	1652.71
868.99	1656.81
869.16	1710.05
869.33	1746.92
869.50	1746.92
869.66	1689.57
869.83	1665.00
870.00	1662.95
870.16	1787.88
870.33	1728.49
870.50	1716.20
870.66	1701.86
870.83	1781.73
871.00	1728.49
871.17	1703.91
871.33	1675.24
871.50	1751.01
871.67	1712.10
871.83	1775.59
872.00	1773.54
872.17	1734.63
872.33	1755.11
872.50	1753.06
872.67	1693.67
872.83	1718.25
873.00	1716.20
873.17	1695.72
873.33	1712.10
873.50	1689.57
873.67	1630.18
873.83	1669.09
874.00	1685.48
874.16	1681.38
874.33	1716.20
874.50	1626.09
874.66	1705.96
874.83	1738.73
875.00	1714.15
875.16	1787.88
875.33	1667.05
875.50	1642.47
875.66	1660.90
875.83	1679.33
875.99	1695.72
876.16	1677.29
876.33	1656.81
876.49	1765.35
876.66	1667.05
876.83	1701.86
876.99	1544.17
877.16	1699.81
877.32	1662.95
877.49	1677.29
877.66	1701.86
877.82	1834.98
877.99	1652.71
878.15	1726.44
878.32	1691.62
878.49	1687.53
878.65	1687.53
878.82	1744.87
878.98	1679.33
879.15	1746.92
879.32	1755.11
879.48	1712.10
879.65	1673.19
879.81	1640.42
879.98	1638.38
880.15	1665.00
880.31	1712.10
880.48	1699.81
880.64	1701.86
880.81	1673.19
880.97	1839.08
881.14	1712.10
881.31	1656.81
881.47	1804.26
881.64	1685.48
881.80	1673.19
881.97	1705.96
882.13	1732.58
882.30	1648.61
882.47	1748.97
882.63	1716.20
882.80	1718.25
882.96	1732.58
883.13	1734.63
883.29	1644.52
883.46	1693.67
883.62	1814.50
883.79	1685.48
883.95	1767.40
884.12	1628.14
884.29	1734.63
884.45	1773.54
884.62	1720.29
884.78	1671.14
884.95	1740.77
885.11	1691.62
885.28	1701.86
885.44	1728.49
885.61	1771.49
885.77	1779.68
885.94	1767.40
886.10	1708.01
886.27	1755.11
886.43	1767.40
886.60	1722.34
886.76	1658.85
886.93	1619.94
887.09	1656.81
887.26	1621.99
887.42	1755.11
887.59	1716.20
887.75	1771.49
887.92	1791.97
888.08	1828.84
888.25	1787.88
888.41	1769.44
888.58	1642.47
888.74	1710.05
888.91	1648.61
>>>>>End Processed Spectral Data<<<<<
