SpectraSuite Data File
++++++++++++++++++++++++++++++++++++
Date: Mon Jun 06 17:36:37 CEST 2016
User: root
Dark Spectrum Present: No
Reference Spectrum Present: No
Number of Sampled Component Spectra: 1
Spectrometers: USB4C02835
Integration Time (usec): 100000 (USB4C02835)
Spectra Averaged: 1 (USB4C02835)
Boxcar Smoothing: 0 (USB4C02835)
Correct for Electrical Dark: No (USB4C02835)
Strobe/Lamp Enabled: No (USB4C02835)
Correct for Detector Non-linearity: No (USB4C02835)
Correct for Stray Light: No (USB4C02835)
Number of Pixels in Processed Spectrum: 3648
>>>>>Begin Processed Spectral Data<<<<<
177.47	1454.06
177.69	1454.06
177.91	1454.06
178.13	1415.15
178.36	1423.34
178.58	1640.42
178.80	1777.64
179.02	1648.61
179.24	1652.71
179.46	1632.23
179.68	1869.80
179.90	1689.57
180.13	1746.92
180.35	1652.71
180.57	1746.92
180.79	1800.16
181.01	1710.05
181.23	1742.82
181.45	1710.05
181.67	1759.21
181.90	1785.83
182.12	1691.62
182.34	1624.04
182.56	1736.68
182.78	1718.25
183.00	1734.63
183.22	1789.92
183.44	1581.03
183.66	1888.23
183.89	1763.30
184.11	1763.30
184.33	1757.16
184.55	1705.96
184.77	1703.91
184.99	1691.62
185.21	1689.57
185.43	1884.13
185.65	1722.34
185.87	1734.63
186.10	1857.51
186.32	1888.23
186.54	1685.48
186.76	1767.40
186.98	1773.54
187.20	1767.40
187.42	1755.11
187.64	1726.44
187.86	1746.92
188.08	1820.64
188.30	1687.53
188.52	1673.19
188.75	1699.81
188.97	1863.65
189.19	1669.09
189.41	1658.85
189.63	1673.19
189.85	1683.43
190.07	1591.27
190.29	1701.86
190.51	1695.72
190.73	1644.52
190.95	1816.55
191.17	1738.73
191.39	1708.01
191.61	1714.15
191.84	1716.20
192.06	1648.61
192.28	1630.18
192.50	1980.39
192.72	1716.20
192.94	1744.87
193.16	1757.16
193.38	1730.53
193.60	1708.01
193.82	1685.48
194.04	1794.02
194.26	1669.09
194.48	1675.24
194.70	1746.92
194.92	1693.67
195.14	1734.63
195.36	1650.66
195.58	1697.77
195.80	1789.92
196.02	1644.52
196.24	1775.59
196.46	1718.25
196.69	1734.63
196.91	1884.13
197.13	1712.10
197.35	1724.39
197.57	1773.54
197.79	1710.05
198.01	1740.77
198.23	1710.05
198.45	1781.73
198.67	1710.05
198.89	1665.00
199.11	1814.50
199.33	1693.67
199.55	1605.61
199.77	1724.39
199.99	1757.16
200.21	1695.72
200.43	1703.91
200.65	1619.94
200.87	1564.65
201.09	1777.64
201.31	1695.72
201.53	1687.53
201.75	1669.09
201.97	1705.96
202.19	1744.87
202.41	1738.73
202.63	1855.46
202.85	1662.95
203.07	1779.68
203.29	1726.44
203.51	1660.90
203.73	1630.18
203.95	1918.95
204.17	1710.05
204.39	1757.16
204.61	1728.49
204.83	1697.77
205.05	1832.93
205.27	1783.78
205.49	1789.92
205.71	1714.15
205.93	1683.43
206.15	1773.54
206.37	1738.73
206.59	1667.05
206.81	1646.57
207.03	1669.09
207.25	1628.14
207.47	1787.88
207.69	1658.85
207.91	1740.77
208.13	1822.69
208.34	1728.49
208.56	1716.20
208.78	1800.16
209.00	1650.66
209.22	1738.73
209.44	1705.96
209.66	1732.58
209.88	1728.49
210.10	1646.57
210.32	1699.81
210.54	1822.69
210.76	1732.58
210.98	1722.34
211.20	1640.42
211.42	1755.11
211.64	1742.82
211.86	1781.73
212.08	1775.59
212.30	1736.68
212.52	1630.18
212.74	1751.01
212.96	1775.59
213.17	1751.01
213.39	1796.07
213.61	1785.83
213.83	1730.53
214.05	1667.05
214.27	1859.56
214.49	1599.46
214.71	1736.68
214.93	1781.73
215.15	1763.30
215.37	1771.49
215.59	1632.23
215.81	1779.68
216.03	1710.05
216.24	1769.44
216.46	1724.39
216.68	1804.26
216.90	1726.44
217.12	1724.39
217.34	1697.77
217.56	1785.83
217.78	1892.32
218.00	1748.97
218.22	1710.05
218.44	1710.05
218.66	1734.63
218.87	1781.73
219.09	1665.00
219.31	1695.72
219.53	1734.63
219.75	1714.15
219.97	1701.86
220.19	1691.62
220.41	1714.15
220.63	1851.36
220.85	1779.68
221.06	1732.58
221.28	1744.87
221.50	1722.34
221.72	1753.06
221.94	1751.01
222.16	1781.73
222.38	1753.06
222.60	1787.88
222.82	1705.96
223.03	1718.25
223.25	1650.66
223.47	1812.45
223.69	1837.03
223.91	1765.35
224.13	1738.73
224.35	1718.25
224.57	1761.25
224.78	1814.50
225.00	1665.00
225.22	1660.90
225.44	1675.24
225.66	1802.21
225.88	1652.71
226.10	1787.88
226.32	1740.77
226.53	1796.07
226.75	1730.53
226.97	1761.25
227.19	1765.35
227.41	1640.42
227.63	1699.81
227.85	1693.67
228.06	1818.60
228.28	1730.53
228.50	1734.63
228.72	1687.53
228.94	1687.53
229.16	1628.14
229.37	1648.61
229.59	1697.77
229.81	1775.59
230.03	1660.90
230.25	1691.62
230.47	1607.66
230.69	1630.18
230.90	1722.34
231.12	1699.81
231.34	1722.34
231.56	1861.60
231.78	1619.94
232.00	1705.96
232.21	1753.06
232.43	1771.49
232.65	1630.18
232.87	1755.11
233.09	1740.77
233.30	1683.43
233.52	1755.11
233.74	1720.29
233.96	1728.49
234.18	1710.05
234.40	1769.44
234.61	1820.64
234.83	1662.95
235.05	1665.00
235.27	1853.41
235.49	1800.16
235.70	1693.67
235.92	1761.25
236.14	1642.47
236.36	1796.07
236.58	1658.85
236.79	1640.42
237.01	1646.57
237.23	1722.34
237.45	1787.88
237.67	1669.09
237.88	1744.87
238.10	1857.51
238.32	1636.33
238.54	1751.01
238.76	1708.01
238.97	1658.85
239.19	1574.89
239.41	1685.48
239.63	1755.11
239.85	1705.96
240.06	1716.20
240.28	1716.20
240.50	1714.15
240.72	1708.01
240.93	1761.25
241.15	1736.68
241.37	1716.20
241.59	1830.88
241.81	1656.81
242.02	1771.49
242.24	1777.64
242.46	1839.08
242.68	1748.97
242.89	1757.16
243.11	1820.64
243.33	1683.43
243.55	1716.20
243.76	1771.49
243.98	1746.92
244.20	1699.81
244.42	1693.67
244.64	1730.53
244.85	1679.33
245.07	1683.43
245.29	1740.77
245.51	1783.78
245.72	1691.62
245.94	1726.44
246.16	1718.25
246.38	1765.35
246.59	1660.90
246.81	1595.37
247.03	1642.47
247.24	1626.09
247.46	1718.25
247.68	1712.10
247.90	1712.10
248.11	1708.01
248.33	1740.77
248.55	1681.38
248.77	1730.53
248.98	1773.54
249.20	1787.88
249.42	1763.30
249.64	1669.09
249.85	1697.77
250.07	1617.90
250.29	1718.25
250.50	1789.92
250.72	1691.62
250.94	1759.21
251.16	1820.64
251.37	1812.45
251.59	1759.21
251.81	1697.77
252.02	1804.26
252.24	1699.81
252.46	1787.88
252.68	1714.15
252.89	1691.62
253.11	1648.61
253.33	1779.68
253.54	1871.84
253.76	1632.23
253.98	1691.62
254.20	1708.01
254.41	1619.94
254.63	1714.15
254.85	1687.53
255.06	1785.83
255.28	1738.73
255.50	1679.33
255.71	1718.25
255.93	1712.10
256.15	1658.85
256.36	1714.15
256.58	1710.05
256.80	1720.29
257.02	1751.01
257.23	1701.86
257.45	1624.04
257.67	1689.57
257.88	1673.19
258.10	1820.64
258.32	1697.77
258.53	1687.53
258.75	1890.28
258.97	1638.38
259.18	1679.33
259.40	1714.15
259.62	1873.89
259.83	1867.75
260.05	1705.96
260.27	2009.06
260.48	1849.32
260.70	1722.34
260.92	1716.20
261.13	1701.86
261.35	1724.39
261.57	1751.01
261.78	1671.14
262.00	1638.38
262.22	1771.49
262.43	1671.14
262.65	1718.25
262.86	1734.63
263.08	1832.93
263.30	1744.87
263.51	1642.47
263.73	1628.14
263.95	1853.41
264.16	1646.57
264.38	1742.82
264.60	1722.34
264.81	1732.58
265.03	1718.25
265.25	1746.92
265.46	1689.57
265.68	1716.20
265.89	1783.78
266.11	1591.27
266.33	1748.97
266.54	1679.33
266.76	1751.01
266.98	1773.54
267.19	1779.68
267.41	1755.11
267.62	1687.53
267.84	1583.08
268.06	1738.73
268.27	1724.39
268.49	1783.78
268.70	1771.49
268.92	1720.29
269.14	1673.19
269.35	1654.76
269.57	1740.77
269.79	1773.54
270.00	1691.62
270.22	1849.32
270.43	1603.56
270.65	1591.27
270.87	1722.34
271.08	1710.05
271.30	1746.92
271.51	1777.64
271.73	1845.22
271.95	1810.40
272.16	1652.71
272.38	1740.77
272.59	1667.05
272.81	1710.05
273.02	1800.16
273.24	1730.53
273.46	1771.49
273.67	1697.77
273.89	1644.52
274.10	1648.61
274.32	1828.84
274.54	1724.39
274.75	1742.82
274.97	1710.05
275.18	1761.25
275.40	1738.73
275.61	1650.66
275.83	1671.14
276.05	1621.99
276.26	1740.77
276.48	1800.16
276.69	1738.73
276.91	1658.85
277.12	1732.58
277.34	1777.64
277.55	1804.26
277.77	1816.55
277.99	1705.96
278.20	1650.66
278.42	1701.86
278.63	1671.14
278.85	1736.68
279.06	1638.38
279.28	1787.88
279.49	1830.88
279.71	1757.16
279.93	1714.15
280.14	1714.15
280.36	1644.52
280.57	1791.97
280.79	1722.34
281.00	1662.95
281.22	1718.25
281.43	1683.43
281.65	1609.70
281.86	1673.19
282.08	1691.62
282.29	1834.98
282.51	1677.29
282.73	1697.77
282.94	1593.32
283.16	1724.39
283.37	1810.40
283.59	1714.15
283.80	1738.73
284.02	1714.15
284.23	1718.25
284.45	1701.86
284.66	1660.90
284.88	1669.09
285.09	1646.57
285.31	1720.29
285.52	1689.57
285.74	1646.57
285.95	1757.16
286.17	1716.20
286.38	1742.82
286.60	1669.09
286.81	1667.05
287.03	1732.58
287.24	1644.52
287.46	1753.06
287.67	1705.96
287.89	1837.03
288.10	1746.92
288.32	1728.49
288.53	1808.36
288.75	1683.43
288.96	1734.63
289.18	1685.48
289.39	1665.00
289.61	1732.58
289.82	1847.27
290.04	1759.21
290.25	1646.57
290.47	1724.39
290.68	1718.25
290.90	1806.31
291.11	1619.94
291.33	1757.16
291.54	1681.38
291.76	1742.82
291.97	1728.49
292.18	1697.77
292.40	1708.01
292.61	1665.00
292.83	1837.03
293.04	1755.11
293.26	1728.49
293.47	1701.86
293.69	1695.72
293.90	1697.77
294.12	1804.26
294.33	1744.87
294.55	1708.01
294.76	1798.12
294.97	1765.35
295.19	1834.98
295.40	1689.57
295.62	1732.58
295.83	1740.77
296.05	1773.54
296.26	1798.12
296.48	1675.24
296.69	1710.05
296.90	1699.81
297.12	1744.87
297.33	1765.35
297.55	1738.73
297.76	1757.16
297.98	1775.59
298.19	1697.77
298.41	1683.43
298.62	1673.19
298.83	1787.88
299.05	1703.91
299.26	1677.29
299.48	1632.23
299.69	1771.49
299.90	1648.61
300.12	1621.99
300.33	1787.88
300.55	1748.97
300.76	1771.49
300.98	1566.70
301.19	1730.53
301.40	1755.11
301.62	1697.77
301.83	1697.77
302.05	1714.15
302.26	1693.67
302.47	1740.77
302.69	1617.90
302.90	1748.97
303.12	1634.28
303.33	1771.49
303.54	1769.44
303.76	1648.61
303.97	1812.45
304.19	1755.11
304.40	1626.09
304.61	1757.16
304.83	1855.46
305.04	1767.40
305.26	1785.83
305.47	1681.38
305.68	1722.34
305.90	1648.61
306.11	1742.82
306.33	1724.39
306.54	1662.95
306.75	1654.76
306.97	1581.03
307.18	1652.71
307.39	1683.43
307.61	1794.02
307.82	1669.09
308.04	1724.39
308.25	1708.01
308.46	1796.07
308.68	1728.49
308.89	1798.12
309.10	1791.97
309.32	1763.30
309.53	1722.34
309.74	1714.15
309.96	1748.97
310.17	1755.11
310.39	1697.77
310.60	1703.91
310.81	1665.00
311.03	1716.20
311.24	1751.01
311.45	1740.77
311.67	1857.51
311.88	1697.77
312.09	1767.40
312.31	1619.94
312.52	1732.58
312.73	1755.11
312.95	1650.66
313.16	1685.48
313.37	1771.49
313.59	1703.91
313.80	1734.63
314.01	1769.44
314.23	1708.01
314.44	1683.43
314.65	1638.38
314.87	1665.00
315.08	1636.33
315.29	1712.10
315.51	1712.10
315.72	1665.00
315.93	1863.65
316.15	1783.78
316.36	1695.72
316.57	1740.77
316.79	1722.34
317.00	1720.29
317.21	1718.25
317.43	1609.70
317.64	1640.42
317.85	1630.18
318.07	1681.38
318.28	1728.49
318.49	1789.92
318.70	1898.47
318.92	1789.92
319.13	1810.40
319.34	1863.65
319.56	1789.92
319.77	1826.79
319.98	1845.22
320.20	1779.68
320.41	1740.77
320.62	1765.35
320.83	1705.96
321.05	1877.99
321.26	1812.45
321.47	1695.72
321.69	1759.21
321.90	1615.85
322.11	1722.34
322.32	1828.84
322.54	1740.77
322.75	1660.90
322.96	1896.42
323.18	1675.24
323.39	1636.33
323.60	1654.76
323.81	1718.25
324.03	1632.23
324.24	1738.73
324.45	1787.88
324.66	1767.40
324.88	1730.53
325.09	1740.77
325.30	1705.96
325.52	1742.82
325.73	1658.85
325.94	1673.19
326.15	1574.89
326.37	1697.77
326.58	1734.63
326.79	1781.73
327.00	1658.85
327.22	1759.21
327.43	1697.77
327.64	1691.62
327.85	1724.39
328.07	1607.66
328.28	1802.21
328.49	1693.67
328.70	1726.44
328.92	1724.39
329.13	1716.20
329.34	1763.30
329.55	1880.04
329.76	1798.12
329.98	1697.77
330.19	1746.92
330.40	1744.87
330.61	1716.20
330.83	1744.87
331.04	1644.52
331.25	1728.49
331.46	1607.66
331.68	1687.53
331.89	1722.34
332.10	1675.24
332.31	1712.10
332.52	1648.61
332.74	1820.64
332.95	1607.66
333.16	1693.67
333.37	1818.60
333.58	1742.82
333.80	1765.35
334.01	1697.77
334.22	1728.49
334.43	1718.25
334.64	1771.49
334.86	1685.48
335.07	1703.91
335.28	1890.28
335.49	1646.57
335.70	1822.69
335.92	1802.21
336.13	1853.41
336.34	1726.44
336.55	1693.67
336.76	1740.77
336.98	1572.84
337.19	1736.68
337.40	1753.06
337.61	1861.60
337.82	1677.29
338.04	1730.53
338.25	1626.09
338.46	1775.59
338.67	1773.54
338.88	1662.95
339.09	1656.81
339.31	1679.33
339.52	1718.25
339.73	1677.29
339.94	1677.29
340.15	1759.21
340.36	1685.48
340.58	1738.73
340.79	1669.09
341.00	1789.92
341.21	1673.19
341.42	1791.97
341.63	1699.81
341.85	1740.77
342.06	1722.34
342.27	1691.62
342.48	1722.34
342.69	1609.70
342.90	1730.53
343.12	1732.58
343.33	1703.91
343.54	1636.33
343.75	1820.64
343.96	1683.43
344.17	1681.38
344.38	1771.49
344.60	1652.71
344.81	1703.91
345.02	1673.19
345.23	1798.12
345.44	1740.77
345.65	1763.30
345.86	1720.29
346.07	1728.49
346.29	1660.90
346.50	1726.44
346.71	1742.82
346.92	1785.83
347.13	1855.46
347.34	1732.58
347.55	1728.49
347.76	1710.05
347.98	1556.46
348.19	1652.71
348.40	1798.12
348.61	1689.57
348.82	1796.07
349.03	1781.73
349.24	1736.68
349.45	1843.17
349.66	1646.57
349.88	1744.87
350.09	1638.38
350.30	1810.40
350.51	1781.73
350.72	1779.68
350.93	1677.29
351.14	1665.00
351.35	1746.92
351.56	1708.01
351.77	1583.08
351.99	1705.96
352.20	1843.17
352.41	1757.16
352.62	1595.37
352.83	1728.49
353.04	1636.33
353.25	1712.10
353.46	1816.55
353.67	1810.40
353.88	1665.00
354.09	1767.40
354.30	1771.49
354.52	1714.15
354.73	1667.05
354.94	1748.97
355.15	1798.12
355.36	1892.32
355.57	1626.09
355.78	1757.16
355.99	1714.15
356.20	1740.77
356.41	1742.82
356.62	1751.01
356.83	1771.49
357.04	1771.49
357.25	1685.48
357.46	1726.44
357.68	1574.89
357.89	1716.20
358.10	1646.57
358.31	1710.05
358.52	1708.01
358.73	1683.43
358.94	1683.43
359.15	1603.56
359.36	1777.64
359.57	1783.78
359.78	1708.01
359.99	1755.11
360.20	1695.72
360.41	1736.68
360.62	1744.87
360.83	1738.73
361.04	1718.25
361.25	1845.22
361.46	1906.66
361.67	1820.64
361.88	1740.77
362.09	1794.02
362.30	1783.78
362.51	1652.71
362.72	1765.35
362.93	1746.92
363.14	1689.57
363.35	1738.73
363.56	1730.53
363.78	1751.01
363.99	1726.44
364.20	1679.33
364.41	1724.39
364.62	1841.12
364.83	1740.77
365.04	1685.48
365.25	1648.61
365.46	1822.69
365.67	1662.95
365.88	1611.75
366.09	1685.48
366.30	1736.68
366.51	1722.34
366.72	1669.09
366.93	1681.38
367.14	1757.16
367.35	1738.73
367.56	1701.86
367.77	1808.36
367.98	1699.81
368.18	1669.09
368.39	1738.73
368.60	1648.61
368.81	1765.35
369.02	1705.96
369.23	1705.96
369.44	1650.66
369.65	1566.70
369.86	1755.11
370.07	1775.59
370.28	1660.90
370.49	1789.92
370.70	1683.43
370.91	1624.04
371.12	1613.80
371.33	1685.48
371.54	1673.19
371.75	1832.93
371.96	1632.23
372.17	1673.19
372.38	1667.05
372.59	1718.25
372.80	1734.63
373.01	1726.44
373.22	1755.11
373.43	1705.96
373.64	1703.91
373.85	1818.60
374.06	1871.84
374.26	1769.44
374.47	1798.12
374.68	1787.88
374.89	1701.86
375.10	1667.05
375.31	1822.69
375.52	1671.14
375.73	1763.30
375.94	1605.61
376.15	1763.30
376.36	1732.58
376.57	1751.01
376.78	1667.05
376.99	1736.68
377.20	1814.50
377.40	1708.01
377.61	1744.87
377.82	1660.90
378.03	1841.12
378.24	1781.73
378.45	1777.64
378.66	1722.34
378.87	1611.75
379.08	1630.18
379.29	1665.00
379.50	1748.97
379.71	1748.97
379.91	1751.01
380.12	1652.71
380.33	1703.91
380.54	1736.68
380.75	1755.11
380.96	1714.15
381.17	1796.07
381.38	1740.77
381.59	1822.69
381.80	1755.11
382.00	1849.32
382.21	1705.96
382.42	1880.04
382.63	1951.71
382.84	1753.06
383.05	1791.97
383.26	1892.32
383.47	1796.07
383.68	1781.73
383.88	1791.97
384.09	1771.49
384.30	1869.80
384.51	1771.49
384.72	1601.51
384.93	1654.76
385.14	1695.72
385.35	1703.91
385.55	1621.99
385.76	1820.64
385.97	1652.71
386.18	1628.14
386.39	1710.05
386.60	1695.72
386.81	1734.63
387.02	1632.23
387.22	1699.81
387.43	1744.87
387.64	1867.75
387.85	1855.46
388.06	2271.20
388.27	4151.23
388.48	6715.29
388.68	8365.95
388.89	9736.04
389.10	10098.53
389.31	8570.75
389.52	7669.64
389.73	6766.49
389.93	6336.42
390.14	5967.78
390.35	5130.16
390.56	4489.15
390.77	3766.21
390.98	3059.67
391.18	2574.30
391.39	2015.20
391.60	1880.04
391.81	1779.68
392.02	1773.54
392.23	1964.00
392.43	1736.68
392.64	1810.40
392.85	1718.25
393.06	1832.93
393.27	1746.92
393.47	1726.44
393.68	1785.83
393.89	1662.95
394.10	1884.13
394.31	1646.57
394.52	1710.05
394.72	1703.91
394.93	1806.31
395.14	1718.25
395.35	1794.02
395.56	1691.62
395.76	1671.14
395.97	1808.36
396.18	1847.27
396.39	1898.47
396.60	2045.92
396.80	1925.09
397.01	1826.79
397.22	1871.84
397.43	1873.89
397.64	1744.87
397.84	1820.64
398.05	1941.47
398.26	1724.39
398.47	1855.46
398.67	1818.60
398.88	1757.16
399.09	1777.64
399.30	1732.58
399.51	1712.10
399.71	1632.23
399.92	1697.77
400.13	1751.01
400.34	1767.40
400.54	1685.48
400.75	1886.18
400.96	1726.44
401.17	1697.77
401.37	1763.30
401.58	1701.86
401.79	1695.72
402.00	1886.18
402.21	1990.63
402.41	1959.91
402.62	1955.81
402.83	2066.40
403.04	2039.78
403.24	2056.16
403.45	1910.75
403.66	1984.48
403.87	1865.70
404.07	1855.46
404.28	1923.04
404.49	1916.90
404.70	1812.45
404.90	1771.49
405.11	1785.83
405.32	1718.25
405.52	1669.09
405.73	1732.58
405.94	1648.61
406.15	1703.91
406.35	1724.39
406.56	1787.88
406.77	1746.92
406.98	1785.83
407.18	1648.61
407.39	1806.31
407.60	1679.33
407.80	1769.44
408.01	1716.20
408.22	1767.40
408.43	1740.77
408.63	1757.16
408.84	1753.06
409.05	1738.73
409.25	1736.68
409.46	1697.77
409.67	1773.54
409.88	1691.62
410.08	1847.27
410.29	1673.19
410.50	1753.06
410.70	1730.53
410.91	1595.37
411.12	1773.54
411.32	1791.97
411.53	1753.06
411.74	1822.69
411.95	1728.49
412.15	1828.84
412.36	1748.97
412.57	1800.16
412.77	1822.69
412.98	1720.29
413.19	1632.23
413.39	1816.55
413.60	1837.03
413.81	1853.41
414.01	1705.96
414.22	1828.84
414.43	1796.07
414.63	1703.91
414.84	1755.11
415.05	1771.49
415.25	1634.28
415.46	1841.12
415.67	1710.05
415.87	1771.49
416.08	1767.40
416.29	1724.39
416.49	1773.54
416.70	1673.19
416.91	1763.30
417.11	1732.58
417.32	1777.64
417.53	1751.01
417.73	1695.72
417.94	1769.44
418.15	1712.10
418.35	1714.15
418.56	1701.86
418.77	1834.98
418.97	1679.33
419.18	1708.01
419.38	1640.42
419.59	1722.34
419.80	1867.75
420.00	1779.68
420.21	1710.05
420.42	1796.07
420.62	1718.25
420.83	1720.29
421.04	1642.47
421.24	1687.53
421.45	1783.78
421.65	1804.26
421.86	1681.38
422.07	1808.36
422.27	1806.31
422.48	1656.81
422.69	1642.47
422.89	1742.82
423.10	1714.15
423.30	1667.05
423.51	1697.77
423.72	1761.25
423.92	1781.73
424.13	1683.43
424.33	1632.23
424.54	1671.14
424.75	1738.73
424.95	1841.12
425.16	1687.53
425.36	1755.11
425.57	1771.49
425.78	1755.11
425.98	1738.73
426.19	1677.29
426.39	1697.77
426.60	1761.25
426.81	1779.68
427.01	1759.21
427.22	1617.90
427.42	1656.81
427.63	1675.24
427.83	1738.73
428.04	1834.98
428.25	1796.07
428.45	1798.12
428.66	1720.29
428.86	1640.42
429.07	1734.63
429.28	1699.81
429.48	1679.33
429.69	1648.61
429.89	1767.40
430.10	1714.15
430.30	1681.38
430.51	1785.83
430.71	1724.39
430.92	1812.45
431.13	1730.53
431.33	1806.31
431.54	1779.68
431.74	1777.64
431.95	1834.98
432.15	1632.23
432.36	1783.78
432.56	1740.77
432.77	1816.55
432.98	1851.36
433.18	1708.01
433.39	1652.71
433.59	1726.44
433.80	1894.37
434.00	1816.55
434.21	1673.19
434.41	1640.42
434.62	1828.84
434.82	1671.14
435.03	1619.94
435.23	1708.01
435.44	1687.53
435.64	1740.77
435.85	1761.25
436.06	1810.40
436.26	1779.68
436.47	1714.15
436.67	1730.53
436.88	1677.29
437.08	1722.34
437.29	1845.22
437.49	1683.43
437.70	1763.30
437.90	1705.96
438.11	1781.73
438.31	1794.02
438.52	1910.75
438.72	1869.80
438.93	1931.23
439.13	1791.97
439.34	1857.51
439.54	1744.87
439.75	1802.21
439.95	1804.26
440.16	1748.97
440.36	1841.12
440.57	1757.16
440.77	1755.11
440.98	1800.16
441.18	1810.40
441.39	1751.01
441.59	1650.66
441.80	1853.41
442.00	1724.39
442.21	1857.51
442.41	1691.62
442.62	1738.73
442.82	1705.96
443.02	1755.11
443.23	1763.30
443.43	1701.86
443.64	1789.92
443.84	1671.14
444.05	1877.99
444.25	1730.53
444.46	1710.05
444.66	1785.83
444.87	1806.31
445.07	1712.10
445.28	1783.78
445.48	1779.68
445.69	1787.88
445.89	1845.22
446.09	1771.49
446.30	2101.22
446.50	2607.06
446.71	3762.12
446.91	4380.61
447.12	4773.82
447.32	4919.22
447.53	4411.32
447.73	3839.94
447.93	3499.98
448.14	3309.52
448.34	3274.70
448.55	2867.16
448.75	2770.90
448.96	2654.17
449.16	2406.36
449.36	2342.88
449.57	2125.79
449.77	2000.87
449.98	1681.38
450.18	1886.18
450.39	1828.84
450.59	1802.21
450.79	1736.68
451.00	1746.92
451.20	1873.89
451.41	1748.97
451.61	1820.64
451.81	1746.92
452.02	1740.77
452.22	1642.47
452.43	1701.86
452.63	1732.58
452.84	1736.68
453.04	1726.44
453.24	1736.68
453.45	1677.29
453.65	1708.01
453.86	1794.02
454.06	1761.25
454.26	1742.82
454.47	1708.01
454.67	1791.97
454.87	1796.07
455.08	1724.39
455.28	1884.13
455.49	1787.88
455.69	1656.81
455.89	1859.56
456.10	1765.35
456.30	1701.86
456.51	1732.58
456.71	1781.73
456.91	1896.42
457.12	1767.40
457.32	1798.12
457.52	1675.24
457.73	1767.40
457.93	1824.74
458.14	1734.63
458.34	1710.05
458.54	1728.49
458.75	1701.86
458.95	1812.45
459.15	1787.88
459.36	1722.34
459.56	1851.36
459.76	1855.46
459.97	1714.15
460.17	1771.49
460.37	1806.31
460.58	1755.11
460.78	1769.44
460.99	1695.72
461.19	1800.16
461.39	1765.35
461.60	1726.44
461.80	1812.45
462.00	1726.44
462.21	1728.49
462.41	1658.85
462.61	1693.67
462.82	1675.24
463.02	1742.82
463.22	1734.63
463.43	1816.55
463.63	1708.01
463.83	1826.79
464.04	1703.91
464.24	1787.88
464.44	1710.05
464.64	1781.73
464.85	1808.36
465.05	1755.11
465.25	1751.01
465.46	1716.20
465.66	1820.64
465.86	1726.44
466.07	1775.59
466.27	1785.83
466.47	1687.53
466.68	1648.61
466.88	1779.68
467.08	1816.55
467.29	1751.01
467.49	1767.40
467.69	1773.54
467.89	1785.83
468.10	1683.43
468.30	1751.01
468.50	1755.11
468.71	1777.64
468.91	1640.42
469.11	1902.56
469.31	1761.25
469.52	1720.29
469.72	1863.65
469.92	1822.69
470.13	1769.44
470.33	1755.11
470.53	1900.52
470.73	2041.82
470.94	2336.73
471.14	2336.73
471.34	2553.82
471.54	2389.98
471.75	2312.16
471.95	2172.89
472.15	2119.65
472.36	2109.41
472.56	2029.54
472.76	2082.78
472.96	1994.72
473.17	1929.19
473.37	1974.24
473.57	1798.12
473.77	1804.26
473.98	1814.50
474.18	1716.20
474.38	1918.95
474.58	1779.68
474.79	1662.95
474.99	1703.91
475.19	1863.65
475.39	1634.28
475.60	1732.58
475.80	1689.57
476.00	1712.10
476.20	1759.21
476.41	1716.20
476.61	1824.74
476.81	1734.63
477.01	1720.29
477.21	1884.13
477.42	1714.15
477.62	1665.00
477.82	1841.12
478.02	1724.39
478.23	1806.31
478.43	1710.05
478.63	1794.02
478.83	1751.01
479.03	1691.62
479.24	1808.36
479.44	1751.01
479.64	1607.66
479.84	1624.04
480.04	1701.86
480.25	1771.49
480.45	1679.33
480.65	1689.57
480.85	1806.31
481.06	1751.01
481.26	1748.97
481.46	1722.34
481.66	1751.01
481.86	1636.33
482.06	1757.16
482.27	1802.21
482.47	1695.72
482.67	1824.74
482.87	1730.53
483.07	1857.51
483.28	1728.49
483.48	1646.57
483.68	1753.06
483.88	1736.68
484.08	1630.18
484.29	1685.48
484.49	1785.83
484.69	1685.48
484.89	1830.88
485.09	1822.69
485.29	1800.16
485.50	1740.77
485.70	1718.25
485.90	1722.34
486.10	1722.34
486.30	1800.16
486.50	1822.69
486.71	1724.39
486.91	1816.55
487.11	1777.64
487.31	1656.81
487.51	1730.53
487.71	1691.62
487.91	1703.91
488.12	1685.48
488.32	1650.66
488.52	1701.86
488.72	1644.52
488.92	1660.90
489.12	1802.21
489.32	1816.55
489.53	1767.40
489.73	1652.71
489.93	1779.68
490.13	1705.96
490.33	1724.39
490.53	1712.10
490.73	1789.92
490.94	1691.62
491.14	1730.53
491.34	1837.03
491.54	2146.27
491.74	2598.87
491.94	2922.45
492.14	3147.73
492.34	3020.75
492.54	2873.30
492.75	2545.63
492.95	2539.48
493.15	2303.96
493.35	2320.35
493.55	2234.33
493.75	2166.75
493.95	2109.41
494.15	1947.62
494.35	1898.47
494.56	1832.93
494.76	1826.79
494.96	1832.93
495.16	1814.50
495.36	1779.68
495.56	1671.14
495.76	1695.72
495.96	1691.62
496.16	1710.05
496.36	1943.52
496.56	1798.12
496.77	1679.33
496.97	1720.29
497.17	1808.36
497.37	1660.90
497.57	1806.31
497.77	1695.72
497.97	1728.49
498.17	1759.21
498.37	1687.53
498.57	1730.53
498.77	1724.39
498.97	1837.03
499.17	1826.79
499.38	1789.92
499.58	1753.06
499.78	1705.96
499.98	1828.84
500.18	1779.68
500.38	1744.87
500.58	1931.23
500.78	2572.25
500.98	4474.81
501.18	5889.96
501.38	6840.22
501.58	7227.28
501.78	6649.75
501.98	5699.50
502.18	5031.86
502.38	4483.00
502.58	4261.82
502.78	3778.50
502.98	3624.90
503.18	3536.84
503.38	3223.50
503.59	2895.83
503.79	2725.85
503.99	2586.58
504.19	2258.91
504.39	2205.66
504.59	2226.14
504.79	2074.59
504.99	2164.70
505.19	1880.04
505.39	1877.99
505.59	1996.77
505.79	1912.80
505.99	1896.42
506.19	1701.86
506.39	1898.47
506.59	1744.87
506.79	1732.58
506.99	1806.31
507.19	1800.16
507.39	1810.40
507.59	1703.91
507.79	1691.62
507.99	1685.48
508.19	1740.77
508.39	1738.73
508.59	1789.92
508.79	1880.04
508.99	1816.55
509.19	1714.15
509.39	1841.12
509.59	1740.77
509.79	1732.58
509.99	1722.34
510.19	1769.44
510.39	1787.88
510.59	1716.20
510.79	1654.76
510.99	1656.81
511.19	1748.97
511.39	1826.79
511.59	1845.22
511.79	1746.92
511.99	1789.92
512.19	1845.22
512.38	1775.59
512.58	1687.53
512.78	1753.06
512.98	1767.40
513.18	1853.41
513.38	1650.66
513.58	1781.73
513.78	1710.05
513.98	1757.16
514.18	1744.87
514.38	1615.85
514.58	1740.77
514.78	1726.44
514.98	1642.47
515.18	1726.44
515.38	1691.62
515.58	1851.36
515.78	1757.16
515.98	1751.01
516.18	1755.11
516.38	1642.47
516.57	1755.11
516.77	1673.19
516.97	1738.73
517.17	1675.24
517.37	1642.47
517.57	1775.59
517.77	1746.92
517.97	1703.91
518.17	1763.30
518.37	1662.95
518.57	1685.48
518.77	1689.57
518.97	1802.21
519.16	1763.30
519.36	1763.30
519.56	1669.09
519.76	1822.69
519.96	1701.86
520.16	1800.16
520.36	1703.91
520.56	1806.31
520.76	1746.92
520.96	1744.87
521.16	1808.36
521.35	1763.30
521.55	1830.88
521.75	1773.54
521.95	1765.35
522.15	1789.92
522.35	1679.33
522.55	1679.33
522.75	1701.86
522.95	1732.58
523.14	1759.21
523.34	1777.64
523.54	1738.73
523.74	1802.21
523.94	1769.44
524.14	1710.05
524.34	1904.61
524.54	1861.60
524.73	1748.97
524.93	1796.07
525.13	1787.88
525.33	1640.42
525.53	1888.23
525.73	1830.88
525.93	1716.20
526.13	1783.78
526.32	1755.11
526.52	1794.02
526.72	1796.07
526.92	1783.78
527.12	1681.38
527.32	1677.29
527.52	1812.45
527.71	1736.68
527.91	1626.09
528.11	1689.57
528.31	1736.68
528.51	1677.29
528.71	1832.93
528.90	1746.92
529.10	1779.68
529.30	1888.23
529.50	1615.85
529.70	1763.30
529.90	1751.01
530.09	1773.54
530.29	1638.38
530.49	1658.85
530.69	1890.28
530.89	1726.44
531.09	1787.88
531.28	1638.38
531.48	1859.56
531.68	1837.03
531.88	1710.05
532.08	1728.49
532.28	1652.71
532.47	1845.22
532.67	1773.54
532.87	1789.92
533.07	1628.14
533.27	1818.60
533.46	1808.36
533.66	1732.58
533.86	1685.48
534.06	1726.44
534.26	1769.44
534.45	1728.49
534.65	1773.54
534.85	1796.07
535.05	1701.86
535.25	1798.12
535.44	1628.14
535.64	1800.16
535.84	1693.67
536.04	1681.38
536.24	1751.01
536.43	1728.49
536.63	1769.44
536.83	1794.02
537.03	1677.29
537.22	1636.33
537.42	1705.96
537.62	1783.78
537.82	1759.21
538.02	1892.32
538.21	1732.58
538.41	1877.99
538.61	1757.16
538.81	1785.83
539.00	1814.50
539.20	1701.86
539.40	1781.73
539.60	1828.84
539.79	1802.21
539.99	1785.83
540.19	1765.35
540.39	1785.83
540.58	1730.53
540.78	1767.40
540.98	1681.38
541.18	1761.25
541.37	1769.44
541.57	1775.59
541.77	1732.58
541.97	1626.09
542.16	1621.99
542.36	1757.16
542.56	1724.39
542.76	1912.80
542.95	1826.79
543.15	1814.50
543.35	1765.35
543.54	1642.47
543.74	1714.15
543.94	1812.45
544.14	1615.85
544.33	1708.01
544.53	1652.71
544.73	1703.91
544.93	1716.20
545.12	1779.68
545.32	1800.16
545.52	1714.15
545.71	1665.00
545.91	1669.09
546.11	1687.53
546.30	1701.86
546.50	1740.77
546.70	1820.64
546.90	1861.60
547.09	1644.52
547.29	1808.36
547.49	1841.12
547.68	1738.73
547.88	1701.86
548.08	1841.12
548.27	2170.85
548.47	1712.10
548.67	1699.81
548.87	1804.26
549.06	1734.63
549.26	1748.97
549.46	1759.21
549.65	1720.29
549.85	1810.40
550.05	1871.84
550.24	1746.92
550.44	1679.33
550.64	1724.39
550.83	1763.30
551.03	1857.51
551.23	1871.84
551.42	1834.98
551.62	1691.62
551.82	1722.34
552.01	1859.56
552.21	1873.89
552.41	1785.83
552.60	1851.36
552.80	1726.44
553.00	1755.11
553.19	1722.34
553.39	1861.60
553.59	1669.09
553.78	1775.59
553.98	1714.15
554.17	1638.38
554.37	1779.68
554.57	1796.07
554.76	1796.07
554.96	1730.53
555.16	1775.59
555.35	1771.49
555.55	1771.49
555.75	1708.01
555.94	1736.68
556.14	1677.29
556.33	1787.88
556.53	1712.10
556.73	1824.74
556.92	1804.26
557.12	1849.32
557.32	1890.28
557.51	1849.32
557.71	1820.64
557.90	1884.13
558.10	1791.97
558.30	1730.53
558.49	1712.10
558.69	1732.58
558.88	1812.45
559.08	1744.87
559.28	1763.30
559.47	1773.54
559.67	1806.31
559.86	1859.56
560.06	1763.30
560.26	1685.48
560.45	1800.16
560.65	1798.12
560.84	1841.12
561.04	1701.86
561.24	1839.08
561.43	1740.77
561.63	1814.50
561.82	1759.21
562.02	1763.30
562.22	1736.68
562.41	1751.01
562.61	1697.77
562.80	1685.48
563.00	1818.60
563.19	1783.78
563.39	1808.36
563.59	1783.78
563.78	1726.44
563.98	1705.96
564.17	1740.77
564.37	1708.01
564.56	1779.68
564.76	1742.82
564.96	1861.60
565.15	1744.87
565.35	1916.90
565.54	1671.14
565.74	1794.02
565.93	1736.68
566.13	1773.54
566.32	1765.35
566.52	1832.93
566.71	1693.67
566.91	1855.46
567.11	1722.34
567.30	1708.01
567.50	1769.44
567.69	1718.25
567.89	1705.96
568.08	1718.25
568.28	1822.69
568.47	1697.77
568.67	1783.78
568.86	1693.67
569.06	1841.12
569.25	1718.25
569.45	1728.49
569.64	1703.91
569.84	1779.68
570.04	1765.35
570.23	1714.15
570.43	1812.45
570.62	1744.87
570.82	1861.60
571.01	1689.57
571.21	1728.49
571.40	1736.68
571.60	1755.11
571.79	1746.92
571.99	1732.58
572.18	1740.77
572.38	1746.92
572.57	1693.67
572.77	1800.16
572.96	1986.53
573.16	1789.92
573.35	1763.30
573.55	1806.31
573.74	1830.88
573.94	1746.92
574.13	1810.40
574.33	1800.16
574.52	1861.60
574.71	1839.08
574.91	1759.21
575.10	1763.30
575.30	1697.77
575.49	1740.77
575.69	1744.87
575.88	1746.92
576.08	1746.92
576.27	1697.77
576.47	1697.77
576.66	1812.45
576.86	1904.61
577.05	1783.78
577.25	1806.31
577.44	1816.55
577.64	1775.59
577.83	1886.18
578.02	1679.33
578.22	1906.66
578.41	1947.62
578.61	1730.53
578.80	1691.62
579.00	1798.12
579.19	1779.68
579.39	1816.55
579.58	1826.79
579.77	1763.30
579.97	1894.37
580.16	1871.84
580.36	1822.69
580.55	1941.47
580.75	1828.84
580.94	1812.45
581.13	1859.56
581.33	1806.31
581.52	1748.97
581.72	1865.70
581.91	1798.12
582.11	1728.49
582.30	1808.36
582.49	1818.60
582.69	1841.12
582.88	1855.46
583.08	1755.11
583.27	1802.21
583.47	1794.02
583.66	1648.61
583.85	1783.78
584.05	1785.83
584.24	1837.03
584.44	1871.84
584.63	1849.32
584.82	1920.99
585.02	1851.36
585.21	1810.40
585.41	1822.69
585.60	1751.01
585.79	1925.09
585.99	1880.04
586.18	1865.70
586.37	2279.39
586.57	3377.10
586.76	10153.83
586.96	24630.92
587.15	34600.43
587.34	40541.59
587.54	42298.75
587.73	36658.64
587.93	26502.76
588.12	21647.03
588.31	18425.57
588.51	16385.80
588.70	15091.48
588.89	14122.79
589.09	12513.09
589.28	11083.61
589.47	9375.60
589.67	8019.85
589.86	6367.13
590.06	5029.81
590.25	3956.68
590.44	3125.20
590.64	2596.82
590.83	2265.05
591.02	2125.79
591.22	1955.81
591.41	1912.80
591.60	1877.99
591.80	1964.00
591.99	1755.11
592.18	1873.89
592.38	1816.55
592.57	1773.54
592.76	1802.21
592.96	1857.51
593.15	1789.92
593.34	1779.68
593.54	1861.60
593.73	1812.45
593.92	1751.01
594.12	1689.57
594.31	1734.63
594.50	1834.98
594.70	1802.21
594.89	1923.04
595.08	1740.77
595.28	1855.46
595.47	1929.19
595.66	1763.30
595.86	1726.44
596.05	1771.49
596.24	1742.82
596.43	1863.65
596.63	1841.12
596.82	1830.88
597.01	1812.45
597.21	1855.46
597.40	1732.58
597.59	1716.20
597.79	1785.83
597.98	1759.21
598.17	1751.01
598.36	1812.45
598.56	1791.97
598.75	1658.85
598.94	1777.64
599.14	1732.58
599.33	1751.01
599.52	1781.73
599.71	1796.07
599.91	1808.36
600.10	1761.25
600.29	1779.68
600.48	1843.17
600.68	1794.02
600.87	1839.08
601.06	1687.53
601.26	1677.29
601.45	1877.99
601.64	1722.34
601.83	1783.78
602.03	1679.33
602.22	1699.81
602.41	1824.74
602.60	1873.89
602.80	1787.88
602.99	1800.16
603.18	1769.44
603.37	1759.21
603.57	1824.74
603.76	1808.36
603.95	1730.53
604.14	1718.25
604.34	1730.53
604.53	1798.12
604.72	1744.87
604.91	1812.45
605.10	1816.55
605.30	1708.01
605.49	1806.31
605.68	1738.73
605.87	1755.11
606.07	1746.92
606.26	1767.40
606.45	1871.84
606.64	1806.31
606.84	1714.15
607.03	1728.49
607.22	1789.92
607.41	1667.05
607.60	1677.29
607.80	1796.07
607.99	1773.54
608.18	1757.16
608.37	1791.97
608.56	1742.82
608.76	1916.90
608.95	1892.32
609.14	1755.11
609.33	1822.69
609.52	1851.36
609.72	1810.40
609.91	1763.30
610.10	1732.58
610.29	1851.36
610.48	1855.46
610.68	1787.88
610.87	1681.38
611.06	1783.78
611.25	1802.21
611.44	1787.88
611.63	1677.29
611.83	1804.26
612.02	1640.42
612.21	1810.40
612.40	1630.18
612.59	1677.29
612.79	1751.01
612.98	1775.59
613.17	1843.17
613.36	1757.16
613.55	1787.88
613.74	1787.88
613.93	1712.10
614.13	1730.53
614.32	1722.34
614.51	1822.69
614.70	1728.49
614.89	1712.10
615.08	1789.92
615.28	2119.65
615.47	1699.81
615.66	1710.05
615.85	1755.11
616.04	1806.31
616.23	1720.29
616.42	1656.81
616.62	1716.20
616.81	1699.81
617.00	1689.57
617.19	1757.16
617.38	1757.16
617.57	1810.40
617.76	1826.79
617.95	1791.97
618.15	1789.92
618.34	1810.40
618.53	1675.24
618.72	1873.89
618.91	1847.27
619.10	1763.30
619.29	1740.77
619.48	1783.78
619.68	1632.23
619.87	1789.92
620.06	1732.58
620.25	1783.78
620.44	1658.85
620.63	1662.95
620.82	1730.53
621.01	1708.01
621.20	1742.82
621.39	1755.11
621.59	1736.68
621.78	1755.11
621.97	1736.68
622.16	1718.25
622.35	1794.02
622.54	1732.58
622.73	1800.16
622.92	1658.85
623.11	1841.12
623.30	1757.16
623.49	1736.68
623.68	1689.57
623.88	1802.21
624.07	1648.61
624.26	1800.16
624.45	1787.88
624.64	1722.34
624.83	1804.26
625.02	1734.63
625.21	1697.77
625.40	1853.41
625.59	1808.36
625.78	1798.12
625.97	1816.55
626.16	1791.97
626.35	1791.97
626.54	1746.92
626.74	1822.69
626.93	1726.44
627.12	1703.91
627.31	1847.27
627.50	1796.07
627.69	1808.36
627.88	1654.76
628.07	1714.15
628.26	1648.61
628.45	1759.21
628.64	1689.57
628.83	1695.72
629.02	1728.49
629.21	1791.97
629.40	1757.16
629.59	1714.15
629.78	1724.39
629.97	1679.33
630.16	1724.39
630.35	1693.67
630.54	1722.34
630.73	1720.29
630.92	1685.48
631.11	1658.85
631.30	1695.72
631.49	1753.06
631.68	1689.57
631.87	1783.78
632.06	1708.01
632.25	1898.47
632.44	1708.01
632.63	1701.86
632.82	1691.62
633.01	1785.83
633.20	1804.26
633.39	1734.63
633.58	1619.94
633.77	1742.82
633.96	1804.26
634.15	1843.17
634.34	1820.64
634.53	1759.21
634.72	1716.20
634.91	1581.03
635.10	1767.40
635.29	1796.07
635.48	1734.63
635.67	1683.43
635.86	1669.09
636.05	1763.30
636.24	1705.96
636.43	1830.88
636.62	1818.60
636.81	1597.42
637.00	1769.44
637.19	1751.01
637.38	1783.78
637.57	1701.86
637.76	1722.34
637.95	1810.40
638.14	1662.95
638.33	1753.06
638.52	1718.25
638.71	1607.66
638.89	1642.47
639.08	1884.13
639.27	1843.17
639.46	1693.67
639.65	1781.73
639.84	1726.44
640.03	1824.74
640.22	1753.06
640.41	1869.80
640.60	1705.96
640.79	1800.16
640.98	1726.44
641.17	1789.92
641.36	1753.06
641.55	1832.93
641.74	1658.85
641.92	1642.47
642.11	1710.05
642.30	1681.38
642.49	1669.09
642.68	1697.77
642.87	1705.96
643.06	1751.01
643.25	1798.12
643.44	1681.38
643.63	1783.78
643.82	1849.32
644.00	1658.85
644.19	1736.68
644.38	1675.24
644.57	1685.48
644.76	1779.68
644.95	1734.63
645.14	1736.68
645.33	1753.06
645.52	1773.54
645.71	1699.81
645.89	1673.19
646.08	1691.62
646.27	1675.24
646.46	1849.32
646.65	1654.76
646.84	1736.68
647.03	1634.28
647.22	1814.50
647.40	1857.51
647.59	1765.35
647.78	1634.28
647.97	1628.14
648.16	1689.57
648.35	1787.88
648.54	1746.92
648.73	1714.15
648.91	1699.81
649.10	1708.01
649.29	1673.19
649.48	1748.97
649.67	1744.87
649.86	1691.62
650.05	1742.82
650.23	1783.78
650.42	1701.86
650.61	1783.78
650.80	1697.77
650.99	1892.32
651.18	1722.34
651.36	1761.25
651.55	1753.06
651.74	1763.30
651.93	1761.25
652.12	1699.81
652.31	1759.21
652.49	1691.62
652.68	1734.63
652.87	1765.35
653.06	1794.02
653.25	1759.21
653.44	1699.81
653.62	1800.16
653.81	1761.25
654.00	1718.25
654.19	1761.25
654.38	1837.03
654.56	1806.31
654.75	1699.81
654.94	1796.07
655.13	1839.08
655.32	1748.97
655.51	1730.53
655.69	1681.38
655.88	1863.65
656.07	1650.66
656.26	1755.11
656.45	1619.94
656.63	1748.97
656.82	1779.68
657.01	1855.46
657.20	1703.91
657.38	1837.03
657.57	1703.91
657.76	1703.91
657.95	1781.73
658.14	1746.92
658.32	1738.73
658.51	1732.58
658.70	1751.01
658.89	1798.12
659.08	1771.49
659.26	1789.92
659.45	1796.07
659.64	1679.33
659.83	1634.28
660.01	1947.62
660.20	1677.29
660.39	1851.36
660.58	1712.10
660.76	1720.29
660.95	1626.09
661.14	1746.92
661.33	1652.71
661.51	1724.39
661.70	1701.86
661.89	1757.16
662.08	1804.26
662.26	1748.97
662.45	1615.85
662.64	1826.79
662.83	1759.21
663.01	1732.58
663.20	1726.44
663.39	1804.26
663.58	1589.22
663.76	1740.77
663.95	1701.86
664.14	1701.86
664.32	1716.20
664.51	1601.51
664.70	1687.53
664.89	1769.44
665.07	1708.01
665.26	1775.59
665.45	1728.49
665.64	1753.06
665.82	1716.20
666.01	1787.88
666.20	1753.06
666.38	1802.21
666.57	1880.04
666.76	2265.05
666.95	4655.03
667.13	10757.98
667.32	15363.86
667.51	18161.39
667.69	19396.31
667.88	17667.83
668.07	12412.74
668.25	9697.13
668.44	8255.36
668.63	7489.42
668.81	6811.54
669.00	6309.79
669.19	5633.96
669.38	5169.07
669.56	4532.15
669.75	4100.03
669.94	3442.64
670.12	2918.36
670.31	2490.33
670.50	2373.60
670.68	2054.11
670.87	1968.10
671.06	1824.74
671.24	1796.07
671.43	1748.97
671.62	1714.15
671.80	1728.49
671.99	1779.68
672.18	1779.68
672.36	1730.53
672.55	1761.25
672.74	1687.53
672.92	1730.53
673.11	1755.11
673.29	1646.57
673.48	1818.60
673.67	1779.68
673.85	1818.60
674.04	1669.09
674.23	1789.92
674.41	1791.97
674.60	1714.15
674.79	1574.89
674.97	1669.09
675.16	1755.11
675.34	1859.56
675.53	1710.05
675.72	1716.20
675.90	1814.50
676.09	1728.49
676.28	1730.53
676.46	1714.15
676.65	1744.87
676.83	1681.38
677.02	1818.60
677.21	1728.49
677.39	1718.25
677.58	1640.42
677.77	1691.62
677.95	1714.15
678.14	1689.57
678.32	1624.04
678.51	1615.85
678.70	1837.03
678.88	1734.63
679.07	1669.09
679.25	1720.29
679.44	1734.63
679.63	1687.53
679.81	1755.11
680.00	1751.01
680.18	1779.68
680.37	1843.17
680.55	1718.25
680.74	1665.00
680.93	1595.37
681.11	1775.59
681.30	1736.68
681.48	1791.97
681.67	1787.88
681.85	1761.25
682.04	1654.76
682.23	1804.26
682.41	1652.71
682.60	1675.24
682.78	1771.49
682.97	1660.90
683.15	1736.68
683.34	1689.57
683.53	1822.69
683.71	1638.38
683.90	1751.01
684.08	1839.08
684.27	1636.33
684.45	1757.16
684.64	1763.30
684.82	1656.81
685.01	1841.12
685.19	1703.91
685.38	1853.41
685.57	1804.26
685.75	1679.33
685.94	1685.48
686.12	1751.01
686.31	1722.34
686.49	1724.39
686.68	1650.66
686.86	1730.53
687.05	1753.06
687.23	1761.25
687.42	1697.77
687.60	1644.52
687.79	1748.97
687.97	1783.78
688.16	1796.07
688.34	1849.32
688.53	1578.98
688.71	1781.73
688.90	1769.44
689.08	1767.40
689.27	1742.82
689.45	1755.11
689.64	1732.58
689.82	1757.16
690.01	1728.49
690.19	1757.16
690.38	1722.34
690.56	1775.59
690.75	1675.24
690.93	1652.71
691.12	1738.73
691.30	1691.62
691.49	1714.15
691.67	1738.73
691.86	1810.40
692.04	1658.85
692.23	1638.38
692.41	1730.53
692.60	1855.46
692.78	1847.27
692.97	1648.61
693.15	1712.10
693.34	1882.08
693.52	1759.21
693.71	1742.82
693.89	1624.04
694.08	1619.94
694.26	1808.36
694.44	1763.30
694.63	1738.73
694.81	1697.77
695.00	1665.00
695.18	1724.39
695.37	1853.41
695.55	1673.19
695.74	1714.15
695.92	1656.81
696.10	1798.12
696.29	1714.15
696.47	1716.20
696.66	1687.53
696.84	1652.71
697.03	1718.25
697.21	1775.59
697.40	2293.72
697.58	1789.92
697.76	1734.63
697.95	1693.67
698.13	1658.85
698.32	1669.09
698.50	1779.68
698.68	1730.53
698.87	1761.25
699.05	1812.45
699.24	1757.16
699.42	1691.62
699.61	1693.67
699.79	1748.97
699.97	1665.00
700.16	1714.15
700.34	1636.33
700.53	1636.33
700.71	1830.88
700.89	1804.26
701.08	1765.35
701.26	1708.01
701.45	2125.79
701.63	1683.43
701.81	1689.57
702.00	1669.09
702.18	1691.62
702.37	1675.24
702.55	1791.97
702.73	1667.05
702.92	1589.22
703.10	1767.40
703.28	1718.25
703.47	1728.49
703.65	1755.11
703.84	1882.08
704.02	1763.30
704.20	1771.49
704.39	1669.09
704.57	1714.15
704.75	1824.74
704.94	1748.97
705.12	1804.26
705.30	1832.93
705.49	2334.68
705.67	4530.11
705.86	9557.87
706.04	12652.35
706.22	14542.63
706.41	15482.64
706.59	13711.15
706.77	9357.17
706.96	7282.58
707.14	6674.33
707.32	6000.55
707.51	5466.03
707.69	4949.94
707.87	4102.08
708.06	3581.90
708.24	2885.59
708.42	2381.79
708.61	2303.96
708.79	1900.52
708.97	1896.42
709.16	1918.95
709.34	1753.06
709.52	1705.96
709.71	1755.11
709.89	1763.30
710.07	1763.30
710.26	1636.33
710.44	1781.73
710.62	1834.98
710.80	1726.44
710.99	1812.45
711.17	1796.07
711.35	1718.25
711.54	1703.91
711.72	1830.88
711.90	1677.29
712.09	1785.83
712.27	1746.92
712.45	1785.83
712.63	1724.39
712.82	1734.63
713.00	1781.73
713.18	1748.97
713.37	1757.16
713.55	1849.32
713.73	1794.02
713.91	1746.92
714.10	1708.01
714.28	1708.01
714.46	1724.39
714.65	1628.14
714.83	1783.78
715.01	1673.19
715.19	1714.15
715.38	1724.39
715.56	1798.12
715.74	1667.05
715.92	1658.85
716.11	1798.12
716.29	1648.61
716.47	1736.68
716.65	1738.73
716.84	1611.75
717.02	1728.49
717.20	1660.90
717.38	1728.49
717.57	1751.01
717.75	1730.53
717.93	1581.03
718.11	1779.68
718.30	1632.23
718.48	1720.29
718.66	1759.21
718.84	1751.01
719.03	1671.14
719.21	1595.37
719.39	1828.84
719.57	1710.05
719.75	1748.97
719.94	1689.57
720.12	1734.63
720.30	1724.39
720.48	1734.63
720.67	1656.81
720.85	1673.19
721.03	1675.24
721.21	1660.90
721.39	1724.39
721.58	1779.68
721.76	1781.73
721.94	1763.30
722.12	1748.97
722.30	1767.40
722.49	1703.91
722.67	1798.12
722.85	1783.78
723.03	1646.57
723.21	1742.82
723.40	1751.01
723.58	1736.68
723.76	1781.73
723.94	1800.16
724.12	1720.29
724.30	1767.40
724.49	1775.59
724.67	1689.57
724.85	1814.50
725.03	1646.57
725.21	1804.26
725.40	1796.07
725.58	1695.72
725.76	1744.87
725.94	1781.73
726.12	1736.68
726.30	1755.11
726.49	1689.57
726.67	1673.19
726.85	1714.15
727.03	1837.03
727.21	2174.94
727.39	2940.88
727.57	3917.76
727.76	4218.82
727.94	4593.59
728.12	4437.95
728.30	3690.44
728.48	2977.75
728.66	2721.75
728.84	2545.63
729.03	2271.20
729.21	2140.13
729.39	1996.77
729.57	1773.54
729.75	1761.25
729.93	1806.31
730.11	1789.92
730.30	1738.73
730.48	1726.44
730.66	1796.07
730.84	1736.68
731.02	1818.60
731.20	1675.24
731.38	1744.87
731.56	1611.75
731.74	1671.14
731.93	1751.01
732.11	1732.58
732.29	1671.14
732.47	1687.53
732.65	1742.82
732.83	1794.02
733.01	1732.58
733.19	1693.67
733.37	1804.26
733.56	1791.97
733.74	1669.09
733.92	1832.93
734.10	1730.53
734.28	1740.77
734.46	1662.95
734.64	1730.53
734.82	1718.25
735.00	1716.20
735.18	1734.63
735.36	1777.64
735.54	1679.33
735.73	1646.57
735.91	1740.77
736.09	1751.01
736.27	1746.92
736.45	1757.16
736.63	1591.27
736.81	1669.09
736.99	1740.77
737.17	1716.20
737.35	1720.29
737.53	1673.19
737.71	1675.24
737.89	1857.51
738.07	1683.43
738.25	1705.96
738.43	1609.70
738.61	1736.68
738.80	1718.25
738.98	1675.24
739.16	1722.34
739.34	1693.67
739.52	1828.84
739.70	1640.42
739.88	1697.77
740.06	1763.30
740.24	1574.89
740.42	1820.64
740.60	1687.53
740.78	1761.25
740.96	1697.77
741.14	1691.62
741.32	1708.01
741.50	1654.76
741.68	1892.32
741.86	1796.07
742.04	1648.61
742.22	1646.57
742.40	1759.21
742.58	1705.96
742.76	1660.90
742.94	1767.40
743.12	1636.33
743.30	1697.77
743.48	1740.77
743.66	1753.06
743.84	1718.25
744.02	1787.88
744.20	1773.54
744.38	1695.72
744.56	1650.66
744.74	1814.50
744.92	1787.88
745.10	1812.45
745.28	1742.82
745.46	1841.12
745.64	1681.38
745.82	1740.77
746.00	1746.92
746.18	1771.49
746.36	1691.62
746.54	1724.39
746.72	1744.87
746.90	1757.16
747.08	1763.30
747.26	1671.14
747.44	1791.97
747.62	1771.49
747.80	1775.59
747.98	1771.49
748.15	1607.66
748.33	1834.98
748.51	1697.77
748.69	1832.93
748.87	1621.99
749.05	1753.06
749.23	1705.96
749.41	1716.20
749.59	1691.62
749.77	1734.63
749.95	1738.73
750.13	1689.57
750.31	1773.54
750.49	1724.39
750.67	1722.34
750.85	1814.50
751.03	1710.05
751.20	1830.88
751.38	1636.33
751.56	1746.92
751.74	1734.63
751.92	1740.77
752.10	1628.14
752.28	1757.16
752.46	1601.51
752.64	1679.33
752.82	1714.15
753.00	1755.11
753.18	1665.00
753.35	1687.53
753.53	1703.91
753.71	1669.09
753.89	1755.11
754.07	1619.94
754.25	1771.49
754.43	1703.91
754.61	1605.61
754.79	1712.10
754.97	1716.20
755.14	1834.98
755.32	1697.77
755.50	1773.54
755.68	1796.07
755.86	1636.33
756.04	1642.47
756.22	1624.04
756.40	1808.36
756.57	1865.70
756.75	1693.67
756.93	1773.54
757.11	1757.16
757.29	1693.67
757.47	1591.27
757.65	1650.66
757.82	1638.38
758.00	1595.37
758.18	1665.00
758.36	1644.52
758.54	1873.89
758.72	1621.99
758.90	1748.97
759.07	1744.87
759.25	1710.05
759.43	1712.10
759.61	1728.49
759.79	2211.81
759.97	1794.02
760.15	1681.38
760.32	1722.34
760.50	1693.67
760.68	1785.83
760.86	1767.40
761.04	1724.39
761.22	1832.93
761.39	1746.92
761.57	1755.11
761.75	1693.67
761.93	1679.33
762.11	1705.96
762.28	1718.25
762.46	1644.52
762.64	1804.26
762.82	1630.18
763.00	1691.62
763.18	1804.26
763.35	1724.39
763.53	1732.58
763.71	1681.38
763.89	1742.82
764.07	1646.57
764.24	1740.77
764.42	1834.98
764.60	1714.15
764.78	1753.06
764.96	1683.43
765.13	1755.11
765.31	1683.43
765.49	1751.01
765.67	1652.71
765.84	1665.00
766.02	1701.86
766.20	1658.85
766.38	1796.07
766.56	1759.21
766.73	1818.60
766.91	1716.20
767.09	1681.38
767.27	1744.87
767.44	1689.57
767.62	1734.63
767.80	1775.59
767.98	1689.57
768.15	1726.44
768.33	1699.81
768.51	1789.92
768.69	1779.68
768.87	1751.01
769.04	1675.24
769.22	1826.79
769.40	1814.50
769.58	1853.41
769.75	1740.77
769.93	1748.97
770.11	1701.86
770.28	1712.10
770.46	1810.40
770.64	1710.05
770.82	1730.53
770.99	1685.48
771.17	1722.34
771.35	1671.14
771.53	1693.67
771.70	1708.01
771.88	1771.49
772.06	1687.53
772.23	1693.67
772.41	1755.11
772.59	1697.77
772.77	1714.15
772.94	1699.81
773.12	1712.10
773.30	1794.02
773.47	1744.87
773.65	1656.81
773.83	1785.83
774.01	1761.25
774.18	1626.09
774.36	1656.81
774.54	1667.05
774.71	1755.11
774.89	1636.33
775.07	1755.11
775.24	1722.34
775.42	1693.67
775.60	1812.45
775.78	1648.61
775.95	1658.85
776.13	1597.42
776.31	1611.75
776.48	1679.33
776.66	1789.92
776.84	1646.57
777.01	1708.01
777.19	1601.51
777.37	1626.09
777.54	1781.73
777.72	1884.13
777.90	1712.10
778.07	1685.48
778.25	1869.80
778.43	1746.92
778.60	1632.23
778.78	1738.73
778.96	1726.44
779.13	1652.71
779.31	1783.78
779.49	1730.53
779.66	1701.86
779.84	1714.15
780.01	1691.62
780.19	1656.81
780.37	1773.54
780.54	1767.40
780.72	1683.43
780.90	1734.63
781.07	1685.48
781.25	1685.48
781.43	1781.73
781.60	1751.01
781.78	1691.62
781.95	1701.86
782.13	1644.52
782.31	1746.92
782.48	1677.29
782.66	1759.21
782.83	1865.70
783.01	1689.57
783.19	1734.63
783.36	1703.91
783.54	1601.51
783.72	1761.25
783.89	1665.00
784.07	1730.53
784.24	1716.20
784.42	1820.64
784.60	1675.24
784.77	1716.20
784.95	1613.80
785.12	1662.95
785.30	1734.63
785.47	1656.81
785.65	1671.14
785.83	1773.54
786.00	1718.25
786.18	1714.15
786.35	1613.80
786.53	1763.30
786.71	1771.49
786.88	1746.92
787.06	1738.73
787.23	1714.15
787.41	1689.57
787.58	1683.43
787.76	1656.81
787.94	1691.62
788.11	1728.49
788.29	1609.70
788.46	1632.23
788.64	1613.80
788.81	1699.81
788.99	1656.81
789.16	1720.29
789.34	1734.63
789.52	1648.61
789.69	1730.53
789.87	1583.08
790.04	1730.53
790.22	1703.91
790.39	1837.03
790.57	1699.81
790.74	1574.89
790.92	1785.83
791.09	1699.81
791.27	1712.10
791.44	1869.80
791.62	1705.96
791.79	1787.88
791.97	1701.86
792.15	1902.56
792.32	1781.73
792.50	1777.64
792.67	1763.30
792.85	1748.97
793.02	1701.86
793.20	1720.29
793.37	1628.14
793.55	1665.00
793.72	1624.04
793.90	1724.39
794.07	1710.05
794.25	1630.18
794.42	1724.39
794.60	1648.61
794.77	1751.01
794.95	1740.77
795.12	1732.58
795.30	1738.73
795.47	1665.00
795.65	1861.60
795.82	1695.72
796.00	1619.94
796.17	1705.96
796.34	1626.09
796.52	1765.35
796.69	1789.92
796.87	1759.21
797.04	1679.33
797.22	1773.54
797.39	1738.73
797.57	1757.16
797.74	1710.05
797.92	1751.01
798.09	1611.75
798.27	1753.06
798.44	1787.88
798.62	1665.00
798.79	1732.58
798.96	1736.68
799.14	1667.05
799.31	1877.99
799.49	1759.21
799.66	1642.47
799.84	1734.63
800.01	1710.05
800.19	1755.11
800.36	1607.66
800.53	1849.32
800.71	1703.91
800.88	1812.45
801.06	1619.94
801.23	1662.95
801.41	1703.91
801.58	1685.48
801.75	1685.48
801.93	1712.10
802.10	1777.64
802.28	1804.26
802.45	1671.14
802.63	1777.64
802.80	1785.83
802.97	1634.28
803.15	1685.48
803.32	1665.00
803.50	1679.33
803.67	1701.86
803.84	1708.01
804.02	1710.05
804.19	1716.20
804.37	1591.27
804.54	1669.09
804.71	1716.20
804.89	1708.01
805.06	1732.58
805.24	1679.33
805.41	1638.38
805.58	1640.42
805.76	1808.36
805.93	1734.63
806.10	1802.21
806.28	1736.68
806.45	1744.87
806.63	1730.53
806.80	1740.77
806.97	1763.30
807.15	1748.97
807.32	1716.20
807.49	1638.38
807.67	1611.75
807.84	1673.19
808.01	1656.81
808.19	1765.35
808.36	1853.41
808.54	1699.81
808.71	1708.01
808.88	1726.44
809.06	1746.92
809.23	1796.07
809.40	1632.23
809.58	1697.77
809.75	1722.34
809.92	1669.09
810.10	1800.16
810.27	1757.16
810.44	1714.15
810.62	1759.21
810.79	1757.16
810.96	1740.77
811.14	1695.72
811.31	1654.76
811.48	1699.81
811.66	1708.01
811.83	1824.74
812.00	1667.05
812.18	1734.63
812.35	1841.12
812.52	1722.34
812.69	1703.91
812.87	1695.72
813.04	1601.51
813.21	1773.54
813.39	1603.56
813.56	1665.00
813.73	1718.25
813.91	1673.19
814.08	1677.29
814.25	1734.63
814.42	1644.52
814.60	1736.68
814.77	1746.92
814.94	1712.10
815.12	1751.01
815.29	1863.65
815.46	1642.47
815.63	1765.35
815.81	1681.38
815.98	1730.53
816.15	1660.90
816.33	1783.78
816.50	1753.06
816.67	1753.06
816.84	1630.18
817.02	1665.00
817.19	1773.54
817.36	1781.73
817.53	1742.82
817.71	1648.61
817.88	1748.97
818.05	1744.87
818.22	1755.11
818.40	1877.99
818.57	1699.81
818.74	1722.34
818.91	1644.52
819.09	1763.30
819.26	1740.77
819.43	1632.23
819.60	1732.58
819.78	1650.66
819.95	1738.73
820.12	1693.67
820.29	1837.03
820.47	1769.44
820.64	1665.00
820.81	1652.71
820.98	1671.14
821.15	1718.25
821.33	1834.98
821.50	1650.66
821.67	1802.21
821.84	1742.82
822.02	1781.73
822.19	1722.34
822.36	1615.85
822.53	1644.52
822.70	1667.05
822.88	1681.38
823.05	1746.92
823.22	1654.76
823.39	1734.63
823.56	1689.57
823.74	1777.64
823.91	1675.24
824.08	1607.66
824.25	1681.38
824.42	1757.16
824.60	1617.90
824.77	1697.77
824.94	1630.18
825.11	1722.34
825.28	1652.71
825.45	1753.06
825.63	1761.25
825.80	1708.01
825.97	1732.58
826.14	1757.16
826.31	1683.43
826.48	1738.73
826.66	1699.81
826.83	1710.05
827.00	1685.48
827.17	1685.48
827.34	1675.24
827.51	1667.05
827.69	1730.53
827.86	1609.70
828.03	1742.82
828.20	1683.43
828.37	1619.94
828.54	1763.30
828.71	1708.01
828.89	1748.97
829.06	1718.25
829.23	1775.59
829.40	1708.01
829.57	1673.19
829.74	1746.92
829.91	1746.92
830.09	1554.41
830.26	1703.91
830.43	1771.49
830.60	1730.53
830.77	1812.45
830.94	1710.05
831.11	1789.92
831.28	1669.09
831.46	1716.20
831.63	1755.11
831.80	1755.11
831.97	1681.38
832.14	1714.15
832.31	1746.92
832.48	1810.40
832.65	1742.82
832.82	1691.62
832.99	1751.01
833.17	1671.14
833.34	1830.88
833.51	1806.31
833.68	1656.81
833.85	1832.93
834.02	1630.18
834.19	1611.75
834.36	1712.10
834.53	1662.95
834.70	1767.40
834.87	1775.59
835.04	1691.62
835.22	1603.56
835.39	1794.02
835.56	1669.09
835.73	1746.92
835.90	1796.07
836.07	1603.56
836.24	1755.11
836.41	1660.90
836.58	1662.95
836.75	1751.01
836.92	1705.96
837.09	1722.34
837.26	1759.21
837.43	1734.63
837.60	1812.45
837.77	1679.33
837.94	1832.93
838.12	1755.11
838.29	1644.52
838.46	1644.52
838.63	1652.71
838.80	1783.78
838.97	1718.25
839.14	1775.59
839.31	1708.01
839.48	1681.38
839.65	1665.00
839.82	1742.82
839.99	1753.06
840.16	1753.06
840.33	1646.57
840.50	1740.77
840.67	1693.67
840.84	1603.56
841.01	1679.33
841.18	1689.57
841.35	1679.33
841.52	1755.11
841.69	1804.26
841.86	1710.05
842.03	1757.16
842.20	1800.16
842.37	1644.52
842.54	1765.35
842.71	1644.52
842.88	1628.14
843.05	1773.54
843.22	1736.68
843.39	1724.39
843.56	1779.68
843.73	1667.05
843.90	1775.59
844.07	1654.76
844.24	1734.63
844.41	1763.30
844.58	1796.07
844.75	1714.15
844.92	1769.44
845.09	1718.25
845.26	1656.81
845.43	1724.39
845.60	1701.86
845.77	1771.49
845.94	1777.64
846.10	1705.96
846.27	1679.33
846.44	1691.62
846.61	1632.23
846.78	1767.40
846.95	1695.72
847.12	1724.39
847.29	1738.73
847.46	1671.14
847.63	1804.26
847.80	1648.61
847.97	1732.58
848.14	1843.17
848.31	1701.86
848.48	1730.53
848.65	1710.05
848.82	1697.77
848.98	1837.03
849.15	1734.63
849.32	1800.16
849.49	1771.49
849.66	1744.87
849.83	1703.91
850.00	1722.34
850.17	1667.05
850.34	1638.38
850.51	1689.57
850.68	1736.68
850.85	1855.46
851.01	1701.86
851.18	1748.97
851.35	1687.53
851.52	1761.25
851.69	1798.12
851.86	1675.24
852.03	1738.73
852.20	1783.78
852.37	1716.20
852.53	1679.33
852.70	1771.49
852.87	1662.95
853.04	1873.89
853.21	1712.10
853.38	1705.96
853.55	1818.60
853.72	1826.79
853.89	1699.81
854.05	1726.44
854.22	1753.06
854.39	1697.77
854.56	1658.85
854.73	1753.06
854.90	1619.94
855.07	1716.20
855.23	1656.81
855.40	1642.47
855.57	1677.29
855.74	1587.18
855.91	1925.09
856.08	1697.77
856.25	1671.14
856.41	1693.67
856.58	1660.90
856.75	1675.24
856.92	1605.61
857.09	1695.72
857.26	1595.37
857.42	1726.44
857.59	1812.45
857.76	1691.62
857.93	1687.53
858.10	1757.16
858.27	1652.71
858.43	1736.68
858.60	1685.48
858.77	1566.70
858.94	1701.86
859.11	1787.88
859.27	1701.86
859.44	1791.97
859.61	1847.27
859.78	1722.34
859.95	1691.62
860.12	1654.76
860.28	1796.07
860.45	1871.84
860.62	1769.44
860.79	1697.77
860.95	1685.48
861.12	1689.57
861.29	1658.85
861.46	1771.49
861.63	1691.62
861.79	1771.49
861.96	1615.85
862.13	1691.62
862.30	1777.64
862.47	1697.77
862.63	1683.43
862.80	1851.36
862.97	1712.10
863.14	1773.54
863.30	1728.49
863.47	1708.01
863.64	1783.78
863.81	1724.39
863.97	1712.10
864.14	1730.53
864.31	1734.63
864.48	1738.73
864.65	1783.78
864.81	1771.49
864.98	1746.92
865.15	1665.00
865.32	1785.83
865.48	1873.89
865.65	1753.06
865.82	1685.48
865.98	1701.86
866.15	1771.49
866.32	1693.67
866.49	1705.96
866.65	1757.16
866.82	1722.34
866.99	1718.25
867.16	1718.25
867.32	1685.48
867.49	1626.09
867.66	1744.87
867.83	1710.05
867.99	1624.04
868.16	1681.38
868.33	1675.24
868.49	1697.77
868.66	1710.05
868.83	1730.53
868.99	1742.82
869.16	1695.72
869.33	1773.54
869.50	1765.35
869.66	1705.96
869.83	1667.05
870.00	1654.76
870.16	1746.92
870.33	1787.88
870.50	1816.55
870.66	1687.53
870.83	1867.75
871.00	1783.78
871.17	1736.68
871.33	1800.16
871.50	1601.51
871.67	1656.81
871.83	1675.24
872.00	1796.07
872.17	1660.90
872.33	1849.32
872.50	1755.11
872.67	1665.00
872.83	1701.86
873.00	1769.44
873.17	1718.25
873.33	1775.59
873.50	1703.91
873.67	1656.81
873.83	1673.19
874.00	1712.10
874.16	1773.54
874.33	1726.44
874.50	1705.96
874.66	1726.44
874.83	1714.15
875.00	1775.59
875.16	1761.25
875.33	1779.68
875.50	1638.38
875.66	1679.33
875.83	1734.63
875.99	1665.00
876.16	1740.77
876.33	1660.90
876.49	1673.19
876.66	1705.96
876.83	1646.57
876.99	1587.18
877.16	1677.29
877.32	1681.38
877.49	1691.62
877.66	1681.38
877.82	1775.59
877.99	1748.97
878.15	1724.39
878.32	1755.11
878.49	1714.15
878.65	1642.47
878.82	1806.31
878.98	1751.01
879.15	1763.30
879.32	1742.82
879.48	1816.55
879.65	1720.29
879.81	1667.05
879.98	1726.44
880.15	1681.38
880.31	1705.96
880.48	1634.28
880.64	1767.40
880.81	1740.77
880.97	1775.59
881.14	1759.21
881.31	1728.49
881.47	1853.41
881.64	1701.86
881.80	1601.51
881.97	1701.86
882.13	1773.54
882.30	1564.65
882.47	1687.53
882.63	1652.71
882.80	1732.58
882.96	1701.86
883.13	1794.02
883.29	1660.90
883.46	1757.16
883.62	1800.16
883.79	1734.63
883.95	1771.49
884.12	1656.81
884.29	1751.01
884.45	1736.68
884.62	1705.96
884.78	1632.23
884.95	1734.63
885.11	1648.61
885.28	1726.44
885.44	1701.86
885.61	1730.53
885.77	1744.87
885.94	1746.92
886.10	1708.01
886.27	1734.63
886.43	1845.22
886.60	1755.11
886.76	1675.24
886.93	1662.95
887.09	1753.06
887.26	1628.14
887.42	1746.92
887.59	1726.44
887.75	1785.83
887.92	1808.36
888.08	1798.12
888.25	1746.92
888.41	1738.73
888.58	1716.20
888.74	1705.96
888.91	1632.23
>>>>>End Processed Spectral Data<<<<<
