SpectraSuite Data File
++++++++++++++++++++++++++++++++++++
Date: Mon Jun 06 12:40:17 CEST 2016
User: root
Dark Spectrum Present: No
Reference Spectrum Present: No
Number of Sampled Component Spectra: 1
Spectrometers: USB4C02835
Integration Time (usec): 100000 (USB4C02835)
Spectra Averaged: 1 (USB4C02835)
Boxcar Smoothing: 0 (USB4C02835)
Correct for Electrical Dark: No (USB4C02835)
Strobe/Lamp Enabled: No (USB4C02835)
Correct for Detector Non-linearity: No (USB4C02835)
Correct for Stray Light: No (USB4C02835)
Number of Pixels in Processed Spectrum: 3648
>>>>>Begin Processed Spectral Data<<<<<
177.47	1429.48
177.69	1429.48
177.91	1429.48
178.13	1423.34
178.36	1472.49
178.58	1730.53
178.80	1714.15
179.02	1609.70
179.24	1583.08
179.46	1656.81
179.68	1765.35
179.90	1710.05
180.13	1699.81
180.35	1605.61
180.57	1658.85
180.79	1691.62
181.01	1654.76
181.23	1724.39
181.45	1734.63
181.67	1695.72
181.90	1658.85
182.12	1677.29
182.34	1681.38
182.56	1730.53
182.78	1714.15
183.00	1636.33
183.22	1679.33
183.44	1587.18
183.66	1765.35
183.89	1775.59
184.11	1773.54
184.33	1753.06
184.55	1652.71
184.77	1691.62
184.99	1638.38
185.21	1656.81
185.43	1824.74
185.65	1662.95
185.87	1763.30
186.10	1826.79
186.32	1849.32
186.54	1665.00
186.76	1697.77
186.98	1761.25
187.20	1708.01
187.42	1654.76
187.64	1689.57
187.86	1677.29
188.08	1748.97
188.30	1712.10
188.52	1742.82
188.75	1720.29
188.97	1722.34
189.19	1611.75
189.41	1687.53
189.63	1748.97
189.85	1703.91
190.07	1687.53
190.29	1599.46
190.51	1734.63
190.73	1695.72
190.95	1720.29
191.17	1714.15
191.39	1654.76
191.61	1679.33
191.84	1669.09
192.06	1757.16
192.28	1603.56
192.50	1857.51
192.72	1777.64
192.94	1767.40
193.16	1691.62
193.38	1673.19
193.60	1626.09
193.82	1687.53
194.04	1818.60
194.26	1656.81
194.48	1769.44
194.70	1660.90
194.92	1660.90
195.14	1742.82
195.36	1619.94
195.58	1726.44
195.80	1634.28
196.02	1675.24
196.24	1679.33
196.46	1675.24
196.69	1669.09
196.91	1783.78
197.13	1621.99
197.35	1558.50
197.57	1775.59
197.79	1755.11
198.01	1726.44
198.23	1681.38
198.45	1738.73
198.67	1617.90
198.89	1697.77
199.11	1726.44
199.33	1699.81
199.55	1544.17
199.77	1628.14
199.99	1765.35
200.21	1644.52
200.43	1708.01
200.65	1667.05
200.87	1654.76
201.09	1675.24
201.31	1652.71
201.53	1730.53
201.75	1697.77
201.97	1732.58
202.19	1644.52
202.41	1773.54
202.63	1783.78
202.85	1626.09
203.07	1751.01
203.29	1658.85
203.51	1619.94
203.73	1652.71
203.95	1834.98
204.17	1746.92
204.39	1712.10
204.61	1656.81
204.83	1708.01
205.05	1744.87
205.27	1716.20
205.49	1791.97
205.71	1748.97
205.93	1644.52
206.15	1595.37
206.37	1665.00
206.59	1679.33
206.81	1615.85
207.03	1652.71
207.25	1595.37
207.47	1714.15
207.69	1677.29
207.91	1757.16
208.13	1798.12
208.34	1708.01
208.56	1624.04
208.78	1757.16
209.00	1728.49
209.22	1652.71
209.44	1669.09
209.66	1656.81
209.88	1697.77
210.10	1626.09
210.32	1665.00
210.54	1769.44
210.76	1722.34
210.98	1763.30
211.20	1603.56
211.42	1712.10
211.64	1742.82
211.86	1701.86
212.08	1665.00
212.30	1644.52
212.52	1730.53
212.74	1769.44
212.96	1742.82
213.17	1679.33
213.39	1828.84
213.61	1796.07
213.83	1726.44
214.05	1570.79
214.27	1781.73
214.49	1595.37
214.71	1667.05
214.93	1714.15
215.15	1761.25
215.37	1726.44
215.59	1613.80
215.81	1726.44
216.03	1732.58
216.24	1652.71
216.46	1648.61
216.68	1740.77
216.90	1697.77
217.12	1767.40
217.34	1699.81
217.56	1693.67
217.78	1751.01
218.00	1708.01
218.22	1736.68
218.44	1761.25
218.66	1697.77
218.87	1798.12
219.09	1703.91
219.31	1765.35
219.53	1722.34
219.75	1587.18
219.97	1681.38
220.19	1654.76
220.41	1619.94
220.63	1695.72
220.85	1748.97
221.06	1675.24
221.28	1763.30
221.50	1759.21
221.72	1777.64
221.94	1689.57
222.16	1665.00
222.38	1753.06
222.60	1734.63
222.82	1660.90
223.03	1736.68
223.25	1718.25
223.47	1761.25
223.69	1826.79
223.91	1763.30
224.13	1716.20
224.35	1669.09
224.57	1759.21
224.78	1746.92
225.00	1669.09
225.22	1679.33
225.44	1751.01
225.66	1742.82
225.88	1648.61
226.10	1726.44
226.32	1732.58
226.53	1714.15
226.75	1673.19
226.97	1685.48
227.19	1697.77
227.41	1673.19
227.63	1669.09
227.85	1529.83
228.06	1701.86
228.28	1646.57
228.50	1816.55
228.72	1656.81
228.94	1628.14
229.16	1576.94
229.37	1558.50
229.59	1683.43
229.81	1673.19
230.03	1705.96
230.25	1574.89
230.47	1589.22
230.69	1650.66
230.90	1751.01
231.12	1609.70
231.34	1642.47
231.56	1759.21
231.78	1587.18
232.00	1675.24
232.21	1744.87
232.43	1683.43
232.65	1548.26
232.87	1665.00
233.09	1660.90
233.30	1644.52
233.52	1744.87
233.74	1716.20
233.96	1673.19
234.18	1693.67
234.40	1652.71
234.61	1779.68
234.83	1609.70
235.05	1585.13
235.27	1839.08
235.49	1773.54
235.70	1720.29
235.92	1722.34
236.14	1716.20
236.36	1935.33
236.58	1679.33
236.79	1710.05
237.01	1648.61
237.23	1783.78
237.45	1730.53
237.67	1660.90
237.88	1683.43
238.10	1757.16
238.32	1683.43
238.54	1642.47
238.76	1673.19
238.97	1675.24
239.19	1693.67
239.41	1787.88
239.63	1730.53
239.85	1652.71
240.06	1726.44
240.28	1677.29
240.50	1595.37
240.72	1771.49
240.93	1671.14
241.15	1779.68
241.37	1693.67
241.59	1794.02
241.81	1697.77
242.02	1667.05
242.24	1701.86
242.46	1691.62
242.68	1734.63
242.89	1652.71
243.11	1742.82
243.33	1650.66
243.55	1697.77
243.76	1708.01
243.98	1644.52
244.20	1718.25
244.42	1765.35
244.64	1701.86
244.85	1656.81
245.07	1636.33
245.29	1775.59
245.51	1742.82
245.72	1630.18
245.94	1748.97
246.16	1681.38
246.38	1730.53
246.59	1691.62
246.81	1695.72
247.03	1716.20
247.24	1576.94
247.46	1685.48
247.68	1673.19
247.90	1648.61
248.11	1673.19
248.33	1751.01
248.55	1691.62
248.77	1714.15
248.98	1701.86
249.20	1804.26
249.42	1753.06
249.64	1736.68
249.85	1695.72
250.07	1687.53
250.29	1775.59
250.50	1703.91
250.72	1628.14
250.94	1683.43
251.16	1839.08
251.37	1796.07
251.59	1662.95
251.81	1677.29
252.02	1812.45
252.24	1665.00
252.46	1777.64
252.68	1599.46
252.89	1675.24
253.11	1609.70
253.33	1806.31
253.54	1722.34
253.76	1642.47
253.98	1603.56
254.20	1611.75
254.41	1603.56
254.63	1644.52
254.85	1642.47
255.06	1683.43
255.28	1726.44
255.50	1673.19
255.71	1683.43
255.93	1710.05
256.15	1701.86
256.36	1802.21
256.58	1679.33
256.80	1759.21
257.02	1748.97
257.23	1683.43
257.45	1689.57
257.67	1781.73
257.88	1644.52
258.10	1671.14
258.32	1679.33
258.53	1628.14
258.75	1773.54
258.97	1628.14
259.18	1650.66
259.40	1630.18
259.62	1832.93
259.83	1746.92
260.05	1697.77
260.27	2058.21
260.48	1708.01
260.70	1644.52
260.92	1757.16
261.13	1636.33
261.35	1693.67
261.57	1736.68
261.78	1652.71
262.00	1626.09
262.22	1734.63
262.43	1708.01
262.65	1587.18
262.86	1683.43
263.08	1841.12
263.30	1640.42
263.51	1607.66
263.73	1642.47
263.95	1826.79
264.16	1652.71
264.38	1589.22
264.60	1742.82
264.81	1691.62
265.03	1736.68
265.25	1800.16
265.46	1660.90
265.68	1884.13
265.89	1755.11
266.11	1617.90
266.33	1816.55
266.54	1736.68
266.76	1736.68
266.98	1710.05
267.19	1701.86
267.41	1746.92
267.62	1619.94
267.84	1642.47
268.06	1755.11
268.27	1675.24
268.49	1732.58
268.70	1812.45
268.92	1718.25
269.14	1595.37
269.35	1640.42
269.57	1646.57
269.79	1757.16
270.00	1644.52
270.22	1798.12
270.43	1665.00
270.65	1628.14
270.87	1646.57
271.08	1671.14
271.30	1777.64
271.51	1697.77
271.73	1720.29
271.95	1785.83
272.16	1699.81
272.38	1679.33
272.59	1617.90
272.81	1736.68
273.02	1718.25
273.24	1720.29
273.46	1804.26
273.67	1656.81
273.89	1673.19
274.10	1667.05
274.32	1783.78
274.54	1763.30
274.75	1660.90
274.97	1648.61
275.18	1722.34
275.40	1710.05
275.61	1695.72
275.83	1695.72
276.05	1685.48
276.26	1624.04
276.48	1695.72
276.69	1736.68
276.91	1624.04
277.12	1832.93
277.34	1779.68
277.55	1744.87
277.77	1683.43
277.99	1626.09
278.20	1644.52
278.42	1578.98
278.63	1656.81
278.85	1634.28
279.06	1611.75
279.28	1685.48
279.49	1744.87
279.71	1705.96
279.93	1708.01
280.14	1773.54
280.36	1628.14
280.57	1736.68
280.79	1787.88
281.00	1685.48
281.22	1665.00
281.43	1794.02
281.65	1626.09
281.86	1599.46
282.08	1763.30
282.29	1812.45
282.51	1650.66
282.73	1599.46
282.94	1613.80
283.16	1748.97
283.37	1757.16
283.59	1671.14
283.80	1779.68
284.02	1667.05
284.23	1751.01
284.45	1628.14
284.66	1609.70
284.88	1646.57
285.09	1718.25
285.31	1759.21
285.52	1738.73
285.74	1587.18
285.95	1705.96
286.17	1755.11
286.38	1798.12
286.60	1728.49
286.81	1677.29
287.03	1744.87
287.24	1730.53
287.46	1732.58
287.67	1736.68
287.89	1753.06
288.10	1677.29
288.32	1720.29
288.53	1812.45
288.75	1658.85
288.96	1691.62
289.18	1677.29
289.39	1630.18
289.61	1751.01
289.82	1820.64
290.04	1697.77
290.25	1628.14
290.47	1644.52
290.68	1703.91
290.90	1738.73
291.11	1572.84
291.33	1732.58
291.54	1689.57
291.76	1656.81
291.97	1738.73
292.18	1708.01
292.40	1640.42
292.61	1681.38
292.83	1849.32
293.04	1724.39
293.26	1699.81
293.47	1675.24
293.69	1722.34
293.90	1658.85
294.12	1775.59
294.33	1673.19
294.55	1697.77
294.76	1683.43
294.97	1746.92
295.19	1865.70
295.40	1662.95
295.62	1714.15
295.83	1812.45
296.05	1718.25
296.26	1687.53
296.48	1677.29
296.69	1683.43
296.90	1603.56
297.12	1794.02
297.33	1738.73
297.55	1683.43
297.76	1705.96
297.98	1761.25
298.19	1722.34
298.41	1740.77
298.62	1648.61
298.83	1710.05
299.05	1732.58
299.26	1685.48
299.48	1642.47
299.69	1720.29
299.90	1714.15
300.12	1681.38
300.33	1689.57
300.55	1718.25
300.76	1673.19
300.98	1728.49
301.19	1787.88
301.40	1687.53
301.62	1685.48
301.83	1656.81
302.05	1689.57
302.26	1773.54
302.47	1728.49
302.69	1650.66
302.90	1771.49
303.12	1634.28
303.33	1757.16
303.54	1832.93
303.76	1648.61
303.97	1740.77
304.19	1806.31
304.40	1658.85
304.61	1691.62
304.83	1818.60
305.04	1716.20
305.26	1759.21
305.47	1693.67
305.68	1652.71
305.90	1581.03
306.11	1689.57
306.33	1724.39
306.54	1689.57
306.75	1599.46
306.97	1630.18
307.18	1642.47
307.39	1755.11
307.61	1734.63
307.82	1681.38
308.04	1693.67
308.25	1646.57
308.46	1730.53
308.68	1767.40
308.89	1705.96
309.10	1822.69
309.32	1808.36
309.53	1654.76
309.74	1751.01
309.96	1665.00
310.17	1785.83
310.39	1611.75
310.60	1773.54
310.81	1691.62
311.03	1683.43
311.24	1771.49
311.45	1697.77
311.67	1789.92
311.88	1744.87
312.09	1642.47
312.31	1677.29
312.52	1644.52
312.73	1726.44
312.95	1607.66
313.16	1656.81
313.37	1685.48
313.59	1791.97
313.80	1705.96
314.01	1794.02
314.23	1658.85
314.44	1675.24
314.65	1640.42
314.87	1642.47
315.08	1621.99
315.29	1587.18
315.51	1665.00
315.72	1558.50
315.93	1824.74
316.15	1765.35
316.36	1669.09
316.57	1693.67
316.79	1648.61
317.00	1669.09
317.21	1738.73
317.43	1648.61
317.64	1730.53
317.85	1685.48
318.07	1636.33
318.28	1728.49
318.49	1796.07
318.70	1896.42
318.92	1814.50
319.13	1859.56
319.34	1902.56
319.56	1828.84
319.77	1798.12
319.98	1787.88
320.20	1828.84
320.41	1757.16
320.62	1775.59
320.83	1642.47
321.05	1783.78
321.26	1650.66
321.47	1753.06
321.69	1796.07
321.90	1675.24
322.11	1712.10
322.32	1734.63
322.54	1783.78
322.75	1626.09
322.96	1904.61
323.18	1652.71
323.39	1601.51
323.60	1642.47
323.81	1785.83
324.03	1667.05
324.24	1738.73
324.45	1693.67
324.66	1669.09
324.88	1748.97
325.09	1746.92
325.30	1665.00
325.52	1695.72
325.73	1675.24
325.94	1705.96
326.15	1552.36
326.37	1619.94
326.58	1742.82
326.79	1802.21
327.00	1734.63
327.22	1628.14
327.43	1687.53
327.64	1609.70
327.85	1800.16
328.07	1703.91
328.28	1718.25
328.49	1683.43
328.70	1679.33
328.92	1640.42
329.13	1665.00
329.34	1828.84
329.55	1796.07
329.76	1732.58
329.98	1724.39
330.19	1740.77
330.40	1789.92
330.61	1697.77
330.83	1738.73
331.04	1593.32
331.25	1726.44
331.46	1665.00
331.68	1665.00
331.89	1787.88
332.10	1712.10
332.31	1564.65
332.52	1621.99
332.74	1830.88
332.95	1636.33
333.16	1697.77
333.37	1708.01
333.58	1691.62
333.80	1736.68
334.01	1624.04
334.22	1689.57
334.43	1708.01
334.64	1734.63
334.86	1607.66
335.07	1667.05
335.28	1689.57
335.49	1566.70
335.70	1716.20
335.92	1712.10
336.13	1898.47
336.34	1628.14
336.55	1689.57
336.76	1675.24
336.98	1646.57
337.19	1677.29
337.40	1830.88
337.61	1857.51
337.82	1673.19
338.04	1759.21
338.25	1609.70
338.46	1695.72
338.67	1726.44
338.88	1656.81
339.09	1699.81
339.31	1570.79
339.52	1669.09
339.73	1636.33
339.94	1738.73
340.15	1701.86
340.36	1697.77
340.58	1718.25
340.79	1626.09
341.00	1650.66
341.21	1632.23
341.42	1863.65
341.63	1708.01
341.85	1730.53
342.06	1730.53
342.27	1716.20
342.48	1818.60
342.69	1638.38
342.90	1703.91
343.12	1658.85
343.33	1705.96
343.54	1703.91
343.75	1814.50
343.96	1703.91
344.17	1695.72
344.38	1697.77
344.60	1677.29
344.81	1673.19
345.02	1695.72
345.23	1789.92
345.44	1773.54
345.65	1673.19
345.86	1665.00
346.07	1646.57
346.29	1691.62
346.50	1703.91
346.71	1687.53
346.92	1732.58
347.13	1748.97
347.34	1634.28
347.55	1652.71
347.76	1738.73
347.98	1701.86
348.19	1681.38
348.40	1746.92
348.61	1738.73
348.82	1789.92
349.03	1785.83
349.24	1656.81
349.45	1800.16
349.66	1611.75
349.88	1703.91
350.09	1644.52
350.30	1763.30
350.51	1763.30
350.72	1650.66
350.93	1710.05
351.14	1693.67
351.35	1730.53
351.56	1736.68
351.77	1697.77
351.99	1667.05
352.20	1781.73
352.41	1820.64
352.62	1626.09
352.83	1669.09
353.04	1669.09
353.25	1726.44
353.46	1732.58
353.67	1738.73
353.88	1646.57
354.09	1726.44
354.30	1738.73
354.52	1740.77
354.73	1716.20
354.94	1626.09
355.15	1665.00
355.36	1753.06
355.57	1599.46
355.78	1662.95
355.99	1685.48
356.20	1607.66
356.41	1720.29
356.62	1654.76
356.83	1652.71
357.04	1810.40
357.25	1615.85
357.46	1699.81
357.68	1662.95
357.89	1585.13
358.10	1658.85
358.31	1708.01
358.52	1708.01
358.73	1654.76
358.94	1560.55
359.15	1648.61
359.36	1742.82
359.57	1662.95
359.78	1677.29
359.99	1714.15
360.20	1730.53
360.41	1626.09
360.62	1771.49
360.83	1689.57
361.04	1730.53
361.25	1710.05
361.46	1746.92
361.67	1724.39
361.88	1705.96
362.09	1761.25
362.30	1712.10
362.51	1685.48
362.72	1650.66
362.93	1687.53
363.14	1783.78
363.35	1759.21
363.56	1646.57
363.78	1800.16
363.99	1705.96
364.20	1779.68
364.41	1726.44
364.62	1767.40
364.83	1726.44
365.04	1757.16
365.25	1652.71
365.46	1759.21
365.67	1599.46
365.88	1609.70
366.09	1714.15
366.30	1771.49
366.51	1638.38
366.72	1677.29
366.93	1634.28
367.14	1621.99
367.35	1806.31
367.56	1665.00
367.77	1787.88
367.98	1681.38
368.18	1740.77
368.39	1732.58
368.60	1630.18
368.81	1771.49
369.02	1658.85
369.23	1652.71
369.44	1628.14
369.65	1683.43
369.86	1705.96
370.07	1736.68
370.28	1619.94
370.49	1685.48
370.70	1679.33
370.91	1652.71
371.12	1667.05
371.33	1804.26
371.54	1714.15
371.75	1748.97
371.96	1624.04
372.17	1710.05
372.38	1683.43
372.59	1714.15
372.80	1685.48
373.01	1693.67
373.22	1648.61
373.43	1681.38
373.64	1691.62
373.85	1736.68
374.06	1681.38
374.26	1808.36
374.47	1732.58
374.68	1771.49
374.89	1775.59
375.10	1646.57
375.31	1755.11
375.52	1675.24
375.73	1757.16
375.94	1658.85
376.15	1755.11
376.36	1667.05
376.57	1628.14
376.78	1656.81
376.99	1759.21
377.20	1714.15
377.40	1609.70
377.61	1748.97
377.82	1626.09
378.03	1783.78
378.24	1693.67
378.45	1726.44
378.66	1740.77
378.87	1507.30
379.08	1640.42
379.29	1703.91
379.50	1771.49
379.71	1654.76
379.91	1673.19
380.12	1667.05
380.33	1753.06
380.54	1679.33
380.75	1660.90
380.96	1638.38
381.17	1691.62
381.38	1740.77
381.59	1658.85
381.80	1728.49
382.00	1753.06
382.21	1742.82
382.42	1779.68
382.63	1884.13
382.84	1759.21
383.05	1708.01
383.26	1800.16
383.47	1628.14
383.68	1685.48
383.88	1746.92
384.09	1705.96
384.30	1853.41
384.51	1787.88
384.72	1673.19
384.93	1624.04
385.14	1718.25
385.35	1714.15
385.55	1630.18
385.76	1804.26
385.97	1708.01
386.18	1671.14
386.39	1738.73
386.60	1746.92
386.81	1644.52
387.02	1734.63
387.22	1681.38
387.43	1781.73
387.64	1796.07
387.85	1839.08
388.06	2213.85
388.27	4298.69
388.48	6838.17
388.68	8189.83
388.89	9611.12
389.10	9981.80
389.31	8566.65
389.52	7520.14
389.73	6799.26
389.93	6342.56
390.14	5932.97
390.35	5126.07
390.56	4560.83
390.77	3665.86
390.98	3035.09
391.18	2537.43
391.39	2115.55
391.60	1830.88
391.81	1777.64
392.02	1769.44
392.23	1814.50
392.43	1748.97
392.64	1812.45
392.85	1703.91
393.06	1857.51
393.27	1656.81
393.47	1675.24
393.68	1775.59
393.89	1667.05
394.10	1734.63
394.31	1691.62
394.52	1658.85
394.72	1708.01
394.93	1794.02
395.14	1603.56
395.35	1755.11
395.56	1693.67
395.76	1746.92
395.97	1798.12
396.18	1849.32
396.39	1837.03
396.60	2033.63
396.80	1837.03
397.01	1855.46
397.22	1877.99
397.43	1867.75
397.64	1734.63
397.84	1796.07
398.05	1951.71
398.26	1744.87
398.47	1787.88
398.67	1734.63
398.88	1703.91
399.09	1720.29
399.30	1693.67
399.51	1695.72
399.71	1638.38
399.92	1701.86
400.13	1734.63
400.34	1660.90
400.54	1648.61
400.75	1843.17
400.96	1753.06
401.17	1734.63
401.37	1718.25
401.58	1697.77
401.79	1796.07
402.00	1867.75
402.21	1968.10
402.41	1994.72
402.62	2013.15
402.83	2009.06
403.04	2054.11
403.24	2136.03
403.45	1834.98
403.66	1843.17
403.87	1886.18
404.07	1877.99
404.28	1859.56
404.49	1920.99
404.70	1765.35
404.90	1738.73
405.11	1832.93
405.32	1667.05
405.52	1636.33
405.73	1689.57
405.94	1716.20
406.15	1689.57
406.35	1796.07
406.56	1734.63
406.77	1654.76
406.98	1730.53
407.18	1712.10
407.39	1796.07
407.60	1607.66
407.80	1732.58
408.01	1665.00
408.22	1716.20
408.43	1658.85
408.63	1705.96
408.84	1654.76
409.05	1753.06
409.25	1654.76
409.46	1714.15
409.67	1632.23
409.88	1695.72
410.08	1755.11
410.29	1763.30
410.50	1761.25
410.70	1755.11
410.91	1681.38
411.12	1746.92
411.32	1701.86
411.53	1697.77
411.74	1851.36
411.95	1746.92
412.15	1746.92
412.36	1857.51
412.57	1787.88
412.77	1882.08
412.98	1681.38
413.19	1689.57
413.39	1701.86
413.60	1675.24
413.81	1771.49
414.01	1714.15
414.22	1767.40
414.43	1705.96
414.63	1632.23
414.84	1726.44
415.05	1712.10
415.25	1656.81
415.46	1771.49
415.67	1722.34
415.87	1736.68
416.08	1730.53
416.29	1742.82
416.49	1693.67
416.70	1665.00
416.91	1595.37
417.11	1679.33
417.32	1726.44
417.53	1742.82
417.73	1732.58
417.94	1660.90
418.15	1726.44
418.35	1656.81
418.56	1681.38
418.77	1877.99
418.97	1710.05
419.18	1679.33
419.38	1601.51
419.59	1650.66
419.80	1695.72
420.00	1701.86
420.21	1613.80
420.42	1789.92
420.62	1697.77
420.83	1691.62
421.04	1687.53
421.24	1634.28
421.45	1763.30
421.65	1761.25
421.86	1646.57
422.07	1722.34
422.27	1744.87
422.48	1794.02
422.69	1636.33
422.89	1751.01
423.10	1617.90
423.30	1605.61
423.51	1667.05
423.72	1724.39
423.92	1736.68
424.13	1671.14
424.33	1652.71
424.54	1736.68
424.75	1753.06
424.95	1771.49
425.16	1691.62
425.36	1722.34
425.57	1740.77
425.78	1728.49
425.98	1738.73
426.19	1705.96
426.39	1572.84
426.60	1789.92
426.81	1734.63
427.01	1677.29
427.22	1642.47
427.42	1695.72
427.63	1656.81
427.83	1761.25
428.04	1791.97
428.25	1740.77
428.45	1775.59
428.66	1800.16
428.86	1656.81
429.07	1652.71
429.28	1738.73
429.48	1665.00
429.69	1708.01
429.89	1726.44
430.10	1583.08
430.30	1671.14
430.51	1708.01
430.71	1607.66
430.92	1685.48
431.13	1716.20
431.33	1669.09
431.54	1791.97
431.74	1798.12
431.95	1824.74
432.15	1652.71
432.36	1628.14
432.56	1695.72
432.77	1804.26
432.98	1738.73
433.18	1705.96
433.39	1691.62
433.59	1761.25
433.80	1853.41
434.00	1849.32
434.21	1689.57
434.41	1687.53
434.62	1789.92
434.82	1683.43
435.03	1681.38
435.23	1740.77
435.44	1558.50
435.64	1671.14
435.85	1669.09
436.06	1832.93
436.26	1828.84
436.47	1697.77
436.67	1689.57
436.88	1716.20
437.08	1714.15
437.29	1789.92
437.49	1761.25
437.70	1828.84
437.90	1691.62
438.11	1832.93
438.31	1787.88
438.52	1804.26
438.72	1796.07
438.93	1810.40
439.13	1777.64
439.34	1699.81
439.54	1773.54
439.75	1794.02
439.95	1808.36
440.16	1687.53
440.36	1699.81
440.57	1794.02
440.77	1744.87
440.98	1660.90
441.18	1607.66
441.39	1683.43
441.59	1677.29
441.80	1814.50
442.00	1699.81
442.21	1869.80
442.41	1591.27
442.62	1665.00
442.82	1738.73
443.02	1748.97
443.23	1722.34
443.43	1652.71
443.64	1781.73
443.84	1695.72
444.05	1859.56
444.25	1724.39
444.46	1642.47
444.66	1730.53
444.87	1742.82
445.07	1675.24
445.28	1806.31
445.48	1771.49
445.69	1798.12
445.89	1873.89
446.09	1673.19
446.30	2023.39
446.50	2594.78
446.71	3846.09
446.91	4270.01
447.12	4767.67
447.32	4882.36
447.53	4216.77
447.73	4003.78
447.93	3598.28
448.14	3418.06
448.34	3211.22
448.55	2938.84
448.75	2867.16
448.96	2779.09
449.16	2406.36
449.36	2238.43
449.57	2039.78
449.77	1875.94
449.98	1757.16
450.18	1808.36
450.39	1742.82
450.59	1693.67
450.79	1683.43
451.00	1617.90
451.20	1830.88
451.41	1757.16
451.61	1738.73
451.81	1681.38
452.02	1748.97
452.22	1701.86
452.43	1728.49
452.63	1669.09
452.84	1753.06
453.04	1736.68
453.24	1730.53
453.45	1720.29
453.65	1732.58
453.86	1820.64
454.06	1681.38
454.26	1714.15
454.47	1658.85
454.67	1839.08
454.87	1753.06
455.08	1701.86
455.28	1845.22
455.49	1703.91
455.69	1646.57
455.89	1855.46
456.10	1812.45
456.30	1718.25
456.51	1769.44
456.71	1771.49
456.91	1820.64
457.12	1746.92
457.32	1658.85
457.52	1699.81
457.73	1834.98
457.93	1796.07
458.14	1671.14
458.34	1640.42
458.54	1671.14
458.75	1685.48
458.95	1783.78
459.15	1732.58
459.36	1736.68
459.56	1783.78
459.76	1902.56
459.97	1736.68
460.17	1667.05
460.37	1771.49
460.58	1705.96
460.78	1828.84
460.99	1710.05
461.19	1699.81
461.39	1656.81
461.60	1701.86
461.80	1732.58
462.00	1683.43
462.21	1710.05
462.41	1642.47
462.61	1716.20
462.82	1640.42
463.02	1681.38
463.22	1720.29
463.43	1777.64
463.63	1748.97
463.83	1832.93
464.04	1738.73
464.24	1738.73
464.44	1644.52
464.64	1724.39
464.85	1722.34
465.05	1787.88
465.25	1695.72
465.46	1673.19
465.66	1787.88
465.86	1779.68
466.07	1716.20
466.27	1697.77
466.47	1677.29
466.68	1642.47
466.88	1869.80
467.08	1751.01
467.29	1769.44
467.49	1824.74
467.69	1665.00
467.89	1763.30
468.10	1748.97
468.30	1624.04
468.50	1751.01
468.71	1722.34
468.91	1677.29
469.11	1798.12
469.31	1730.53
469.52	1710.05
469.72	1779.68
469.92	1828.84
470.13	1705.96
470.33	1777.64
470.53	1781.73
470.73	2066.40
470.94	2320.35
471.14	2328.54
471.34	2451.42
471.54	2396.12
471.75	2230.24
471.95	2093.02
472.15	2068.45
472.36	2142.18
472.56	2115.55
472.76	2064.35
472.96	2023.39
473.17	1910.75
473.37	1888.23
473.57	1804.26
473.77	1724.39
473.98	1779.68
474.18	1767.40
474.38	1888.23
474.58	1718.25
474.79	1665.00
474.99	1673.19
475.19	1746.92
475.39	1669.09
475.60	1744.87
475.80	1767.40
476.00	1708.01
476.20	1738.73
476.41	1730.53
476.61	1748.97
476.81	1832.93
477.01	1650.66
477.21	1839.08
477.42	1779.68
477.62	1726.44
477.82	1761.25
478.02	1720.29
478.23	1697.77
478.43	1656.81
478.63	1705.96
478.83	1740.77
479.03	1708.01
479.24	1867.75
479.44	1845.22
479.64	1591.27
479.84	1667.05
480.04	1654.76
480.25	1800.16
480.45	1617.90
480.65	1665.00
480.85	1746.92
481.06	1665.00
481.26	1783.78
481.46	1738.73
481.66	1677.29
481.86	1710.05
482.06	1734.63
482.27	1683.43
482.47	1650.66
482.67	1753.06
482.87	1748.97
483.07	1755.11
483.28	1673.19
483.48	1615.85
483.68	1652.71
483.88	1673.19
484.08	1611.75
484.29	1695.72
484.49	1785.83
484.69	1642.47
484.89	1781.73
485.09	1751.01
485.29	1818.60
485.50	1777.64
485.70	1683.43
485.90	1828.84
486.10	1675.24
486.30	1730.53
486.50	1753.06
486.71	1712.10
486.91	1789.92
487.11	1722.34
487.31	1617.90
487.51	1751.01
487.71	1603.56
487.91	1671.14
488.12	1626.09
488.32	1621.99
488.52	1699.81
488.72	1677.29
488.92	1722.34
489.12	1755.11
489.32	1798.12
489.53	1738.73
489.73	1675.24
489.93	1824.74
490.13	1648.61
490.33	1583.08
490.53	1697.77
490.73	1787.88
490.94	1624.04
491.14	1718.25
491.34	1791.97
491.54	2103.26
491.74	2607.06
491.94	2899.92
492.14	3012.56
492.34	3016.66
492.54	2695.13
492.75	2457.56
492.95	2443.23
493.15	2291.68
493.35	2254.81
493.55	2269.15
493.75	2203.61
493.95	2168.80
494.15	2066.40
494.35	1920.99
494.56	1820.64
494.76	1748.97
494.96	1775.59
495.16	1796.07
495.36	1734.63
495.56	1728.49
495.76	1732.58
495.96	1740.77
496.16	1581.03
496.36	1773.54
496.56	1697.77
496.77	1724.39
496.97	1742.82
497.17	1818.60
497.37	1609.70
497.57	1753.06
497.77	1636.33
497.97	1697.77
498.17	1697.77
498.37	1767.40
498.57	1748.97
498.77	1748.97
498.97	1728.49
499.17	1863.65
499.38	1740.77
499.58	1728.49
499.78	1716.20
499.98	1759.21
500.18	1744.87
500.38	1746.92
500.58	1882.08
500.78	2527.19
500.98	4616.12
501.18	5849.00
501.38	6836.12
501.58	6977.43
501.78	6616.99
501.98	5609.39
502.18	4843.45
502.38	4366.27
502.58	4235.20
502.78	3807.17
502.98	3669.96
503.18	3502.03
503.38	3157.97
503.59	2879.44
503.79	2658.26
503.99	2533.34
504.19	2318.30
504.39	2211.81
504.59	2148.32
504.79	2166.75
504.99	1988.58
505.19	1931.23
505.39	1890.28
505.59	1892.32
505.79	1957.86
505.99	1925.09
506.19	1757.16
506.39	1900.52
506.59	1837.03
506.79	1691.62
506.99	1794.02
507.19	1767.40
507.39	1695.72
507.59	1628.14
507.79	1787.88
507.99	1656.81
508.19	1691.62
508.39	1738.73
508.59	1732.58
508.79	1796.07
508.99	1826.79
509.19	1714.15
509.39	1830.88
509.59	1767.40
509.79	1722.34
509.99	1675.24
510.19	1880.04
510.39	1771.49
510.59	1662.95
510.79	1640.42
510.99	1578.98
511.19	1632.23
511.39	1738.73
511.59	1789.92
511.79	1802.21
511.99	1761.25
512.19	1839.08
512.38	1691.62
512.58	1673.19
512.78	1748.97
512.98	1728.49
513.18	1886.18
513.38	1630.18
513.58	1781.73
513.78	1732.58
513.98	1718.25
514.18	1693.67
514.38	1685.48
514.58	1775.59
514.78	1642.47
514.98	1705.96
515.18	1744.87
515.38	1734.63
515.58	1882.08
515.78	1681.38
515.98	1697.77
516.18	1796.07
516.38	1732.58
516.57	1644.52
516.77	1675.24
516.97	1753.06
517.17	1734.63
517.37	1658.85
517.57	1777.64
517.77	1683.43
517.97	1712.10
518.17	1820.64
518.37	1665.00
518.57	1724.39
518.77	1718.25
518.97	1705.96
519.16	1771.49
519.36	1789.92
519.56	1634.28
519.76	1710.05
519.96	1728.49
520.16	1890.28
520.36	1679.33
520.56	1738.73
520.76	1755.11
520.96	1714.15
521.16	1849.32
521.35	1748.97
521.55	1832.93
521.75	1697.77
521.95	1677.29
522.15	1636.33
522.35	1681.38
522.55	1798.12
522.75	1789.92
522.95	1712.10
523.14	1681.38
523.34	1769.44
523.54	1681.38
523.74	1687.53
523.94	1746.92
524.14	1640.42
524.34	1791.97
524.54	1822.69
524.73	1734.63
524.93	1712.10
525.13	1738.73
525.33	1619.94
525.53	1910.75
525.73	1816.55
525.93	1757.16
526.13	1679.33
526.32	1763.30
526.52	1802.21
526.72	1800.16
526.92	1695.72
527.12	1748.97
527.32	1671.14
527.52	1738.73
527.71	1667.05
527.91	1751.01
528.11	1626.09
528.31	1705.96
528.51	1708.01
528.71	1785.83
528.90	1693.67
529.10	1755.11
529.30	1783.78
529.50	1599.46
529.70	1669.09
529.90	1753.06
530.09	1751.01
530.29	1703.91
530.49	1665.00
530.69	1820.64
530.89	1697.77
531.09	1789.92
531.28	1648.61
531.48	1812.45
531.68	1757.16
531.88	1769.44
532.08	1800.16
532.28	1677.29
532.47	1789.92
532.67	1769.44
532.87	1726.44
533.07	1693.67
533.27	1755.11
533.46	1722.34
533.66	1763.30
533.86	1753.06
534.06	1720.29
534.26	1722.34
534.45	1624.04
534.65	1798.12
534.85	1767.40
535.05	1695.72
535.25	1734.63
535.44	1638.38
535.64	1746.92
535.84	1662.95
536.04	1697.77
536.24	1656.81
536.43	1748.97
536.63	1753.06
536.83	1730.53
537.03	1744.87
537.22	1673.19
537.42	1691.62
537.62	1787.88
537.82	1714.15
538.02	1765.35
538.21	1789.92
538.41	1957.86
538.61	1785.83
538.81	1697.77
539.00	1796.07
539.20	1681.38
539.40	1722.34
539.60	1724.39
539.79	1759.21
539.99	1732.58
540.19	1617.90
540.39	1814.50
540.58	1689.57
540.78	1777.64
540.98	1695.72
541.18	1824.74
541.37	1824.74
541.57	1650.66
541.77	1775.59
541.97	1726.44
542.16	1665.00
542.36	1740.77
542.56	1699.81
542.76	1796.07
542.95	1791.97
543.15	1771.49
543.35	1814.50
543.54	1656.81
543.74	1646.57
543.94	1865.70
544.14	1613.80
544.33	1769.44
544.53	1716.20
544.73	1710.05
544.93	1720.29
545.12	1722.34
545.32	1693.67
545.52	1695.72
545.71	1669.09
545.91	1710.05
546.11	1675.24
546.30	1685.48
546.50	1710.05
546.70	1804.26
546.90	1822.69
547.09	1574.89
547.29	1796.07
547.49	1738.73
547.68	1742.82
547.88	1740.77
548.08	1767.40
548.27	2125.79
548.47	1726.44
548.67	1716.20
548.87	1751.01
549.06	1697.77
549.26	1689.57
549.46	1783.78
549.65	1689.57
549.85	1775.59
550.05	1722.34
550.24	1660.90
550.44	1769.44
550.64	1679.33
550.83	1640.42
551.03	1667.05
551.23	1781.73
551.42	1714.15
551.62	1757.16
551.82	1691.62
552.01	1744.87
552.21	1789.92
552.41	1732.58
552.60	1804.26
552.80	1810.40
553.00	1730.53
553.19	1779.68
553.39	1736.68
553.59	1712.10
553.78	1794.02
553.98	1740.77
554.17	1671.14
554.37	1705.96
554.57	1794.02
554.76	1740.77
554.96	1705.96
555.16	1708.01
555.35	1753.06
555.55	1755.11
555.75	1673.19
555.94	1865.70
556.14	1658.85
556.33	1738.73
556.53	1789.92
556.73	1767.40
556.92	1755.11
557.12	1853.41
557.32	1818.60
557.51	1812.45
557.71	1779.68
557.90	1779.68
558.10	1783.78
558.30	1669.09
558.49	1685.48
558.69	1708.01
558.88	1675.24
559.08	1669.09
559.28	1673.19
559.47	1841.12
559.67	1726.44
559.86	1820.64
560.06	1769.44
560.26	1728.49
560.45	1693.67
560.65	1722.34
560.84	1839.08
561.04	1705.96
561.24	1777.64
561.43	1697.77
561.63	1820.64
561.82	1789.92
562.02	1777.64
562.22	1710.05
562.41	1699.81
562.61	1724.39
562.80	1665.00
563.00	1925.09
563.19	1726.44
563.39	1765.35
563.59	1781.73
563.78	1636.33
563.98	1689.57
564.17	1705.96
564.37	1677.29
564.56	1806.31
564.76	1701.86
564.96	1785.83
565.15	1710.05
565.35	1939.43
565.54	1710.05
565.74	1714.15
565.93	1710.05
566.13	1744.87
566.32	1714.15
566.52	1804.26
566.71	1730.53
566.91	1798.12
567.11	1710.05
567.30	1665.00
567.50	1759.21
567.69	1720.29
567.89	1740.77
568.08	1722.34
568.28	1734.63
568.47	1730.53
568.67	1804.26
568.86	1669.09
569.06	1726.44
569.25	1693.67
569.45	1634.28
569.64	1703.91
569.84	1705.96
570.04	1824.74
570.23	1732.58
570.43	1722.34
570.62	1746.92
570.82	1816.55
571.01	1730.53
571.21	1656.81
571.40	1652.71
571.60	1828.84
571.79	1691.62
571.99	1718.25
572.18	1703.91
572.38	1703.91
572.57	1718.25
572.77	1740.77
572.96	1845.22
573.16	1609.70
573.35	1701.86
573.55	1814.50
573.74	1703.91
573.94	1779.68
574.13	1587.18
574.33	1767.40
574.52	1730.53
574.71	1652.71
574.91	1742.82
575.10	1699.81
575.30	1701.86
575.49	1699.81
575.69	1669.09
575.88	1785.83
576.08	1720.29
576.27	1839.08
576.47	1714.15
576.66	1781.73
576.86	1785.83
577.05	1669.09
577.25	1800.16
577.44	1853.41
577.64	1705.96
577.83	1746.92
578.02	1798.12
578.22	1787.88
578.41	1832.93
578.61	1691.62
578.80	1650.66
579.00	1796.07
579.19	1763.30
579.39	1787.88
579.58	1810.40
579.77	1761.25
579.97	1861.60
580.16	1828.84
580.36	1791.97
580.55	1773.54
580.75	1767.40
580.94	1808.36
581.13	1859.56
581.33	1853.41
581.52	1759.21
581.72	1912.80
581.91	1861.60
582.11	1689.57
582.30	1804.26
582.49	1753.06
582.69	1802.21
582.88	1710.05
583.08	1789.92
583.27	1812.45
583.47	1730.53
583.66	1714.15
583.85	1687.53
584.05	1767.40
584.24	1818.60
584.44	1693.67
584.63	1785.83
584.82	1861.60
585.02	1900.52
585.21	1787.88
585.41	1791.97
585.60	1802.21
585.79	1914.85
585.99	1935.33
586.18	1912.80
586.37	2115.55
586.57	3368.91
586.76	10141.54
586.96	24977.03
587.15	35171.82
587.34	41588.10
587.54	42726.77
587.73	37373.38
587.93	26723.94
588.12	21776.05
588.31	18564.84
588.51	16664.32
588.70	15517.46
588.89	14454.56
589.09	12777.28
589.28	10983.26
589.47	9336.69
589.67	8116.10
589.86	6422.43
590.06	4968.37
590.25	3956.68
590.44	3114.96
590.64	2545.63
590.83	2244.57
591.02	2107.36
591.22	1865.70
591.41	1810.40
591.60	1865.70
591.80	1920.99
591.99	1763.30
592.18	1742.82
592.38	1746.92
592.57	1820.64
592.76	1787.88
592.96	1779.68
593.15	1837.03
593.34	1830.88
593.54	1785.83
593.73	1796.07
593.92	1769.44
594.12	1701.86
594.31	1804.26
594.50	1849.32
594.70	1763.30
594.89	1916.90
595.08	1648.61
595.28	1845.22
595.47	1814.50
595.66	1769.44
595.86	1689.57
596.05	1746.92
596.24	1687.53
596.43	1869.80
596.63	1777.64
596.82	1761.25
597.01	1814.50
597.21	1865.70
597.40	1802.21
597.59	1777.64
597.79	1738.73
597.98	1751.01
598.17	1767.40
598.36	1705.96
598.56	1812.45
598.75	1677.29
598.94	1751.01
599.14	1759.21
599.33	1822.69
599.52	1726.44
599.71	1718.25
599.91	1785.83
600.10	1746.92
600.29	1783.78
600.48	1732.58
600.68	1771.49
600.87	1763.30
601.06	1757.16
601.26	1730.53
601.45	1701.86
601.64	1730.53
601.83	1800.16
602.03	1683.43
602.22	1693.67
602.41	1884.13
602.60	1812.45
602.80	1767.40
602.99	1773.54
603.18	1671.14
603.37	1703.91
603.57	1783.78
603.76	1769.44
603.95	1763.30
604.14	1703.91
604.34	1722.34
604.53	1759.21
604.72	1763.30
604.91	1804.26
605.10	1804.26
605.30	1665.00
605.49	1867.75
605.68	1732.58
605.87	1791.97
606.07	1697.77
606.26	1699.81
606.45	1789.92
606.64	1701.86
606.84	1763.30
607.03	1714.15
607.22	1759.21
607.41	1667.05
607.60	1716.20
607.80	1789.92
607.99	1781.73
608.18	1632.23
608.37	1716.20
608.56	1703.91
608.76	1753.06
608.95	1861.60
609.14	1697.77
609.33	1675.24
609.52	1779.68
609.72	1714.15
609.91	1806.31
610.10	1755.11
610.29	1841.12
610.48	1804.26
610.68	1734.63
610.87	1695.72
611.06	1806.31
611.25	1703.91
611.44	1808.36
611.63	1738.73
611.83	1855.46
612.02	1581.03
612.21	1773.54
612.40	1626.09
612.59	1697.77
612.79	1777.64
612.98	1744.87
613.17	1802.21
613.36	1755.11
613.55	1796.07
613.74	1685.48
613.93	1691.62
614.13	1767.40
614.32	1755.11
614.51	1767.40
614.70	1742.82
614.89	1699.81
615.08	1730.53
615.28	2093.02
615.47	1660.90
615.66	1718.25
615.85	1748.97
616.04	1861.60
616.23	1755.11
616.42	1669.09
616.62	1798.12
616.81	1775.59
617.00	1728.49
617.19	1812.45
617.38	1679.33
617.57	1677.29
617.76	1753.06
617.95	1695.72
618.15	1685.48
618.34	1869.80
618.53	1640.42
618.72	1755.11
618.91	1820.64
619.10	1791.97
619.29	1791.97
619.48	1738.73
619.68	1724.39
619.87	1730.53
620.06	1708.01
620.25	1738.73
620.44	1730.53
620.63	1740.77
620.82	1724.39
621.01	1736.68
621.20	1761.25
621.39	1781.73
621.59	1726.44
621.78	1714.15
621.97	1738.73
622.16	1732.58
622.35	1658.85
622.54	1789.92
622.73	1761.25
622.92	1667.05
623.11	1791.97
623.30	1714.15
623.49	1769.44
623.68	1630.18
623.88	1814.50
624.07	1681.38
624.26	1656.81
624.45	1691.62
624.64	1705.96
624.83	1742.82
625.02	1740.77
625.21	1667.05
625.40	1767.40
625.59	1765.35
625.78	1669.09
625.97	1773.54
626.16	1767.40
626.35	1730.53
626.54	1648.61
626.74	1798.12
626.93	1632.23
627.12	1708.01
627.31	1798.12
627.50	1724.39
627.69	1802.21
627.88	1667.05
628.07	1679.33
628.26	1662.95
628.45	1624.04
628.64	1662.95
628.83	1687.53
629.02	1662.95
629.21	1779.68
629.40	1787.88
629.59	1634.28
629.78	1673.19
629.97	1656.81
630.16	1812.45
630.35	1724.39
630.54	1736.68
630.73	1705.96
630.92	1689.57
631.11	1648.61
631.30	1712.10
631.49	1814.50
631.68	1730.53
631.87	1687.53
632.06	1703.91
632.25	1826.79
632.44	1730.53
632.63	1765.35
632.82	1724.39
633.01	1593.32
633.20	1755.11
633.39	1636.33
633.58	1558.50
633.77	1703.91
633.96	1720.29
634.15	1738.73
634.34	1753.06
634.53	1691.62
634.72	1695.72
634.91	1619.94
635.10	1685.48
635.29	1771.49
635.48	1724.39
635.67	1759.21
635.86	1601.51
636.05	1808.36
636.24	1681.38
636.43	1656.81
636.62	1759.21
636.81	1601.51
637.00	1671.14
637.19	1748.97
637.38	1673.19
637.57	1632.23
637.76	1640.42
637.95	1708.01
638.14	1597.42
638.33	1728.49
638.52	1703.91
638.71	1654.76
638.89	1667.05
639.08	1804.26
639.27	1796.07
639.46	1638.38
639.65	1791.97
639.84	1812.45
640.03	1751.01
640.22	1712.10
640.41	1761.25
640.60	1658.85
640.79	1732.58
640.98	1632.23
641.17	1775.59
641.36	1675.24
641.55	1771.49
641.74	1648.61
641.92	1665.00
642.11	1681.38
642.30	1763.30
642.49	1714.15
642.68	1738.73
642.87	1691.62
643.06	1779.68
643.25	1765.35
643.44	1671.14
643.63	1626.09
643.82	1679.33
644.00	1683.43
644.19	1658.85
644.38	1650.66
644.57	1712.10
644.76	1783.78
644.95	1724.39
645.14	1785.83
645.33	1765.35
645.52	1759.21
645.71	1652.71
645.89	1712.10
646.08	1642.47
646.27	1691.62
646.46	1871.84
646.65	1662.95
646.84	1697.77
647.03	1671.14
647.22	1714.15
647.40	1689.57
647.59	1724.39
647.78	1558.50
647.97	1724.39
648.16	1665.00
648.35	1730.53
648.54	1773.54
648.73	1667.05
648.91	1693.67
649.10	1611.75
649.29	1703.91
649.48	1755.11
649.67	1740.77
649.86	1730.53
650.05	1691.62
650.23	1712.10
650.42	1640.42
650.61	1753.06
650.80	1710.05
650.99	1818.60
651.18	1804.26
651.36	1736.68
651.55	1654.76
651.74	1757.16
651.93	1714.15
652.12	1746.92
652.31	1722.34
652.49	1693.67
652.68	1673.19
652.87	1687.53
653.06	1746.92
653.25	1800.16
653.44	1716.20
653.62	1820.64
653.81	1724.39
654.00	1714.15
654.19	1718.25
654.38	1798.12
654.56	1695.72
654.75	1693.67
654.94	1781.73
655.13	1677.29
655.32	1724.39
655.51	1800.16
655.69	1722.34
655.88	1714.15
656.07	1718.25
656.26	1689.57
656.45	1665.00
656.63	1642.47
656.82	1730.53
657.01	1767.40
657.20	1669.09
657.38	1832.93
657.57	1708.01
657.76	1660.90
657.95	1769.44
658.14	1669.09
658.32	1705.96
658.51	1601.51
658.70	1730.53
658.89	1701.86
659.08	1669.09
659.26	1826.79
659.45	1716.20
659.64	1716.20
659.83	1722.34
660.01	1929.19
660.20	1775.59
660.39	1804.26
660.58	1640.42
660.76	1722.34
660.95	1626.09
661.14	1720.29
661.33	1613.80
661.51	1701.86
661.70	1708.01
661.89	1820.64
662.08	1695.72
662.26	1712.10
662.45	1726.44
662.64	1802.21
662.83	1763.30
663.01	1593.32
663.20	1732.58
663.39	1857.51
663.58	1671.14
663.76	1703.91
663.95	1703.91
664.14	1718.25
664.32	1718.25
664.51	1677.29
664.70	1652.71
664.89	1763.30
665.07	1591.27
665.26	1771.49
665.45	1658.85
665.64	1810.40
665.82	1677.29
666.01	1796.07
666.20	1689.57
666.38	1839.08
666.57	1818.60
666.76	2230.24
666.95	4687.80
667.13	10434.40
667.32	15494.93
667.51	18224.87
667.69	19406.55
667.88	17768.18
668.07	12332.87
668.25	9590.64
668.44	8298.37
668.63	7348.11
668.81	6942.61
669.00	6301.60
669.19	5805.99
669.38	5203.89
669.56	4564.92
669.75	3948.48
669.94	3473.36
670.12	2934.74
670.31	2590.68
670.50	2303.96
670.68	2082.78
670.87	1953.76
671.06	1810.40
671.24	1787.88
671.43	1834.98
671.62	1722.34
671.80	1681.38
671.99	1761.25
672.18	1744.87
672.36	1779.68
672.55	1689.57
672.74	1746.92
672.92	1689.57
673.11	1755.11
673.29	1726.44
673.48	1802.21
673.67	1687.53
673.85	1746.92
674.04	1710.05
674.23	1693.67
674.41	1775.59
674.60	1662.95
674.79	1585.13
674.97	1755.11
675.16	1714.15
675.34	1730.53
675.53	1689.57
675.72	1701.86
675.90	1865.70
676.09	1646.57
676.28	1708.01
676.46	1673.19
676.65	1765.35
676.83	1673.19
677.02	1691.62
677.21	1689.57
677.39	1656.81
677.58	1656.81
677.77	1708.01
677.95	1656.81
678.14	1605.61
678.32	1720.29
678.51	1699.81
678.70	1839.08
678.88	1652.71
679.07	1673.19
679.25	1746.92
679.44	1728.49
679.63	1671.14
679.81	1675.24
680.00	1697.77
680.18	1746.92
680.37	1822.69
680.55	1679.33
680.74	1638.38
680.93	1632.23
681.11	1689.57
681.30	1660.90
681.48	1648.61
681.67	1732.58
681.85	1677.29
682.04	1736.68
682.23	1710.05
682.41	1744.87
682.60	1656.81
682.78	1642.47
682.97	1691.62
683.15	1699.81
683.34	1738.73
683.53	1701.86
683.71	1751.01
683.90	1794.02
684.08	1845.22
684.27	1728.49
684.45	1808.36
684.64	1783.78
684.82	1751.01
685.01	1708.01
685.19	1720.29
685.38	1802.21
685.57	1738.73
685.75	1624.04
685.94	1685.48
686.12	1605.61
686.31	1726.44
686.49	1755.11
686.68	1632.23
686.86	1732.58
687.05	1654.76
687.23	1710.05
687.42	1753.06
687.60	1652.71
687.79	1773.54
687.97	1722.34
688.16	1779.68
688.34	1834.98
688.53	1599.46
688.71	1732.58
688.90	1791.97
689.08	1624.04
689.27	1710.05
689.45	1718.25
689.64	1798.12
689.82	1718.25
690.01	1728.49
690.19	1738.73
690.38	1701.86
690.56	1726.44
690.75	1613.80
690.93	1693.67
691.12	1638.38
691.30	1679.33
691.49	1638.38
691.67	1642.47
691.86	1751.01
692.04	1636.33
692.23	1681.38
692.41	1634.28
692.60	1808.36
692.78	1701.86
692.97	1755.11
693.15	1710.05
693.34	1730.53
693.52	1804.26
693.71	1656.81
693.89	1677.29
694.08	1552.36
694.26	1755.11
694.44	1726.44
694.63	1656.81
694.81	1667.05
695.00	1640.42
695.18	1736.68
695.37	1816.55
695.55	1687.53
695.74	1652.71
695.92	1736.68
696.10	1748.97
696.29	1712.10
696.47	1642.47
696.66	1712.10
696.84	1665.00
697.03	1685.48
697.21	1896.42
697.40	2336.73
697.58	1738.73
697.76	1722.34
697.95	1626.09
698.13	1675.24
698.32	1634.28
698.50	1658.85
698.68	1693.67
698.87	1718.25
699.05	1794.02
699.24	1667.05
699.42	1634.28
699.61	1771.49
699.79	1689.57
699.97	1720.29
700.16	1619.94
700.34	1619.94
700.53	1699.81
700.71	1800.16
700.89	1724.39
701.08	1705.96
701.26	1677.29
701.45	2054.11
701.63	1652.71
701.81	1716.20
702.00	1599.46
702.18	1708.01
702.37	1630.18
702.55	1802.21
702.73	1732.58
702.92	1644.52
703.10	1724.39
703.28	1685.48
703.47	1603.56
703.65	1763.30
703.84	1757.16
704.02	1660.90
704.20	1710.05
704.39	1681.38
704.57	1699.81
704.75	1771.49
704.94	1683.43
705.12	1759.21
705.30	1755.11
705.49	2164.70
705.67	4534.20
705.86	9615.21
706.04	12883.77
706.22	14829.34
706.41	15503.12
706.59	13903.66
706.77	9693.04
706.96	7278.48
707.14	6670.23
707.32	6119.33
707.51	5597.10
707.69	4966.32
707.87	4317.12
708.06	3430.35
708.24	2928.60
708.42	2457.56
708.61	2303.96
708.79	1929.19
708.97	1859.56
709.16	1832.93
709.34	1755.11
709.52	1746.92
709.71	1699.81
709.89	1714.15
710.07	1675.24
710.26	1646.57
710.44	1783.78
710.62	1787.88
710.80	1705.96
710.99	1820.64
711.17	1816.55
711.35	1648.61
711.54	1710.05
711.72	1771.49
711.90	1677.29
712.09	1761.25
712.27	1705.96
712.45	1734.63
712.63	1689.57
712.82	1755.11
713.00	1626.09
713.18	1738.73
713.37	1755.11
713.55	1773.54
713.73	1775.59
713.91	1771.49
714.10	1671.14
714.28	1714.15
714.46	1665.00
714.65	1738.73
714.83	1753.06
715.01	1748.97
715.19	1718.25
715.38	1656.81
715.56	1783.78
715.74	1669.09
715.92	1652.71
716.11	1701.86
716.29	1574.89
716.47	1710.05
716.65	1687.53
716.84	1615.85
717.02	1789.92
717.20	1558.50
717.38	1712.10
717.57	1677.29
717.75	1703.91
717.93	1611.75
718.11	1699.81
718.30	1673.19
718.48	1724.39
718.66	1697.77
718.84	1748.97
719.03	1699.81
719.21	1734.63
719.39	1769.44
719.57	1751.01
719.75	1789.92
719.94	1673.19
720.12	1644.52
720.30	1742.82
720.48	1759.21
720.67	1644.52
720.85	1671.14
721.03	1662.95
721.21	1634.28
721.39	1826.79
721.58	1701.86
721.76	1660.90
721.94	1765.35
722.12	1685.48
722.30	1779.68
722.49	1681.38
722.67	1683.43
722.85	1648.61
723.03	1587.18
723.21	1654.76
723.40	1751.01
723.58	1714.15
723.76	1679.33
723.94	1738.73
724.12	1716.20
724.30	1718.25
724.49	1869.80
724.67	1609.70
724.85	1736.68
725.03	1685.48
725.21	1748.97
725.40	1767.40
725.58	1630.18
725.76	1765.35
725.94	1714.15
726.12	1701.86
726.30	1665.00
726.49	1763.30
726.67	1718.25
726.85	1677.29
727.03	1791.97
727.21	2228.19
727.39	2887.64
727.57	3866.56
727.76	4218.82
727.94	4491.20
728.12	4530.11
728.30	3661.77
728.48	3002.32
728.66	2803.67
728.84	2547.67
729.03	2246.62
729.21	2215.90
729.39	2033.63
729.57	1806.31
729.75	1818.60
729.93	1853.41
730.11	1593.32
730.30	1634.28
730.48	1712.10
730.66	1820.64
730.84	1816.55
731.02	1566.70
731.20	1693.67
731.38	1746.92
731.56	1677.29
731.74	1619.94
731.93	1677.29
732.11	1708.01
732.29	1687.53
732.47	1714.15
732.65	1765.35
732.83	1738.73
733.01	1662.95
733.19	1646.57
733.37	1687.53
733.56	1710.05
733.74	1624.04
733.92	1812.45
734.10	1650.66
734.28	1677.29
734.46	1648.61
734.64	1597.42
734.82	1748.97
735.00	1636.33
735.18	1624.04
735.36	1708.01
735.54	1662.95
735.73	1705.96
735.91	1742.82
736.09	1638.38
736.27	1767.40
736.45	1800.16
736.63	1611.75
736.81	1724.39
736.99	1716.20
737.17	1757.16
737.35	1695.72
737.53	1632.23
737.71	1705.96
737.89	1767.40
738.07	1683.43
738.25	1679.33
738.43	1705.96
738.61	1644.52
738.80	1658.85
738.98	1630.18
739.16	1640.42
739.34	1619.94
739.52	1726.44
739.70	1665.00
739.88	1732.58
740.06	1699.81
740.24	1636.33
740.42	1773.54
740.60	1615.85
740.78	1595.37
740.96	1626.09
741.14	1624.04
741.32	1712.10
741.50	1681.38
741.68	1875.94
741.86	1820.64
742.04	1630.18
742.22	1644.52
742.40	1738.73
742.58	1697.77
742.76	1665.00
742.94	1796.07
743.12	1597.42
743.30	1685.48
743.48	1761.25
743.66	1656.81
743.84	1742.82
744.02	1679.33
744.20	1726.44
744.38	1667.05
744.56	1648.61
744.74	1802.21
744.92	1708.01
745.10	1738.73
745.28	1648.61
745.46	1896.42
745.64	1642.47
745.82	1794.02
746.00	1740.77
746.18	1714.15
746.36	1656.81
746.54	1714.15
746.72	1685.48
746.90	1656.81
747.08	1751.01
747.26	1675.24
747.44	1751.01
747.62	1804.26
747.80	1761.25
747.98	1765.35
748.15	1642.47
748.33	1810.40
748.51	1779.68
748.69	1691.62
748.87	1671.14
749.05	1632.23
749.23	1667.05
749.41	1718.25
749.59	1718.25
749.77	1679.33
749.95	1718.25
750.13	1656.81
750.31	1718.25
750.49	1656.81
750.67	1763.30
750.85	1742.82
751.03	1644.52
751.20	1841.12
751.38	1648.61
751.56	1751.01
751.74	1757.16
751.92	1742.82
752.10	1591.27
752.28	1681.38
752.46	1771.49
752.64	1660.90
752.82	1701.86
753.00	1816.55
753.18	1708.01
753.35	1667.05
753.53	1673.19
753.71	1681.38
753.89	1638.38
754.07	1652.71
754.25	1812.45
754.43	1693.67
754.61	1677.29
754.79	1691.62
754.97	1708.01
755.14	1710.05
755.32	1697.77
755.50	1746.92
755.68	1814.50
755.86	1703.91
756.04	1695.72
756.22	1607.66
756.40	1724.39
756.57	1808.36
756.75	1662.95
756.93	1689.57
757.11	1775.59
757.29	1736.68
757.47	1638.38
757.65	1572.84
757.82	1626.09
758.00	1662.95
758.18	1642.47
758.36	1665.00
758.54	1783.78
758.72	1566.70
758.90	1757.16
759.07	1757.16
759.25	1615.85
759.43	1765.35
759.61	1587.18
759.79	2269.15
759.97	1755.11
760.15	1650.66
760.32	1716.20
760.50	1724.39
760.68	1728.49
760.86	1685.48
761.04	1787.88
761.22	1677.29
761.39	1669.09
761.57	1714.15
761.75	1642.47
761.93	1740.77
762.11	1685.48
762.28	1705.96
762.46	1654.76
762.64	1759.21
762.82	1689.57
763.00	1697.77
763.18	1787.88
763.35	1681.38
763.53	1658.85
763.71	1605.61
763.89	1751.01
764.07	1716.20
764.24	1681.38
764.42	1785.83
764.60	1785.83
764.78	1753.06
764.96	1708.01
765.13	1746.92
765.31	1705.96
765.49	1648.61
765.67	1626.09
765.84	1671.14
766.02	1660.90
766.20	1673.19
766.38	1695.72
766.56	1767.40
766.73	1771.49
766.91	1705.96
767.09	1689.57
767.27	1740.77
767.44	1607.66
767.62	1726.44
767.80	1761.25
767.98	1628.14
768.15	1675.24
768.33	1734.63
768.51	1693.67
768.69	1732.58
768.87	1726.44
769.04	1693.67
769.22	1845.22
769.40	1820.64
769.58	1839.08
769.75	1763.30
769.93	1785.83
770.11	1746.92
770.28	1601.51
770.46	1669.09
770.64	1710.05
770.82	1693.67
770.99	1658.85
771.17	1796.07
771.35	1636.33
771.53	1660.90
771.70	1705.96
771.88	1714.15
772.06	1646.57
772.23	1691.62
772.41	1701.86
772.59	1574.89
772.77	1689.57
772.94	1665.00
773.12	1685.48
773.30	1744.87
773.47	1710.05
773.65	1636.33
773.83	1802.21
774.01	1691.62
774.18	1621.99
774.36	1740.77
774.54	1660.90
774.71	1720.29
774.89	1626.09
775.07	1679.33
775.24	1718.25
775.42	1679.33
775.60	1834.98
775.78	1644.52
775.95	1656.81
776.13	1617.90
776.31	1585.13
776.48	1683.43
776.66	1769.44
776.84	1648.61
777.01	1724.39
777.19	1687.53
777.37	1650.66
777.54	1757.16
777.72	1716.20
777.90	1748.97
778.07	1701.86
778.25	1826.79
778.43	1761.25
778.60	1662.95
778.78	1816.55
778.96	1761.25
779.13	1581.03
779.31	1728.49
779.49	1665.00
779.66	1681.38
779.84	1634.28
780.01	1689.57
780.19	1662.95
780.37	1820.64
780.54	1759.21
780.72	1691.62
780.90	1712.10
781.07	1701.86
781.25	1644.52
781.43	1724.39
781.60	1677.29
781.78	1777.64
781.95	1757.16
782.13	1658.85
782.31	1671.14
782.48	1585.13
782.66	1734.63
782.83	1845.22
783.01	1697.77
783.19	1726.44
783.36	1701.86
783.54	1695.72
783.72	1773.54
783.89	1652.71
784.07	1681.38
784.24	1701.86
784.42	1867.75
784.60	1699.81
784.77	1685.48
784.95	1574.89
785.12	1722.34
785.30	1675.24
785.47	1572.84
785.65	1693.67
785.83	1695.72
786.00	1673.19
786.18	1748.97
786.35	1589.22
786.53	1578.98
786.71	1695.72
786.88	1708.01
787.06	1658.85
787.23	1675.24
787.41	1660.90
787.58	1671.14
787.76	1581.03
787.94	1724.39
788.11	1753.06
788.29	1626.09
788.46	1714.15
788.64	1701.86
788.81	1714.15
788.99	1683.43
789.16	1609.70
789.34	1685.48
789.52	1658.85
789.69	1712.10
789.87	1607.66
790.04	1732.58
790.22	1685.48
790.39	1873.89
790.57	1669.09
790.74	1656.81
790.92	1771.49
791.09	1642.47
791.27	1712.10
791.44	1763.30
791.62	1673.19
791.79	1695.72
791.97	1650.66
792.15	1812.45
792.32	1820.64
792.50	1779.68
792.67	1775.59
792.85	1761.25
793.02	1687.53
793.20	1642.47
793.37	1558.50
793.55	1712.10
793.72	1669.09
793.90	1726.44
794.07	1673.19
794.25	1697.77
794.42	1697.77
794.60	1712.10
794.77	1679.33
794.95	1712.10
795.12	1714.15
795.30	1681.38
795.47	1640.42
795.65	1918.95
795.82	1665.00
796.00	1624.04
796.17	1650.66
796.34	1665.00
796.52	1773.54
796.69	1742.82
796.87	1720.29
797.04	1791.97
797.22	1708.01
797.39	1759.21
797.57	1732.58
797.74	1685.48
797.92	1638.38
798.09	1671.14
798.27	1751.01
798.44	1742.82
798.62	1632.23
798.79	1744.87
798.96	1712.10
799.14	1714.15
799.31	1824.74
799.49	1685.48
799.66	1662.95
799.84	1746.92
800.01	1628.14
800.19	1712.10
800.36	1621.99
800.53	1677.29
800.71	1705.96
800.88	1761.25
801.06	1648.61
801.23	1671.14
801.41	1687.53
801.58	1648.61
801.75	1669.09
801.93	1613.80
802.10	1738.73
802.28	1708.01
802.45	1611.75
802.63	1669.09
802.80	1800.16
802.97	1673.19
803.15	1609.70
803.32	1691.62
803.50	1621.99
803.67	1634.28
803.84	1662.95
804.02	1773.54
804.19	1656.81
804.37	1601.51
804.54	1599.46
804.71	1636.33
804.89	1660.90
805.06	1619.94
805.24	1636.33
805.41	1621.99
805.58	1681.38
805.76	1871.84
805.93	1693.67
806.10	1800.16
806.28	1669.09
806.45	1765.35
806.63	1710.05
806.80	1751.01
806.97	1673.19
807.15	1703.91
807.32	1705.96
807.49	1724.39
807.67	1599.46
807.84	1681.38
808.01	1609.70
808.19	1812.45
808.36	1841.12
808.54	1632.23
808.71	1656.81
808.88	1720.29
809.06	1732.58
809.23	1759.21
809.40	1689.57
809.58	1763.30
809.75	1730.53
809.92	1632.23
810.10	1783.78
810.27	1677.29
810.44	1746.92
810.62	1720.29
810.79	1767.40
810.96	1654.76
811.14	1710.05
811.31	1693.67
811.48	1742.82
811.66	1746.92
811.83	1722.34
812.00	1744.87
812.18	1691.62
812.35	1785.83
812.52	1578.98
812.69	1628.14
812.87	1626.09
813.04	1626.09
813.21	1679.33
813.39	1683.43
813.56	1714.15
813.73	1691.62
813.91	1578.98
814.08	1710.05
814.25	1673.19
814.42	1669.09
814.60	1691.62
814.77	1665.00
814.94	1687.53
815.12	1703.91
815.29	1791.97
815.46	1712.10
815.63	1691.62
815.81	1681.38
815.98	1728.49
816.15	1646.57
816.33	1691.62
816.50	1644.52
816.67	1679.33
816.84	1652.71
817.02	1617.90
817.19	1677.29
817.36	1708.01
817.53	1701.86
817.71	1599.46
817.88	1746.92
818.05	1660.90
818.22	1699.81
818.40	1820.64
818.57	1693.67
818.74	1699.81
818.91	1746.92
819.09	1724.39
819.26	1763.30
819.43	1628.14
819.60	1626.09
819.78	1722.34
819.95	1800.16
820.12	1710.05
820.29	1806.31
820.47	1669.09
820.64	1685.48
820.81	1617.90
820.98	1589.22
821.15	1626.09
821.33	1687.53
821.50	1667.05
821.67	1693.67
821.84	1587.18
822.02	1724.39
822.19	1679.33
822.36	1648.61
822.53	1789.92
822.70	1632.23
822.88	1683.43
823.05	1759.21
823.22	1644.52
823.39	1736.68
823.56	1652.71
823.74	1791.97
823.91	1660.90
824.08	1548.26
824.25	1671.14
824.42	1894.37
824.60	1626.09
824.77	1701.86
824.94	1683.43
825.11	1701.86
825.28	1603.56
825.45	1660.90
825.63	1646.57
825.80	1644.52
825.97	1730.53
826.14	1642.47
826.31	1558.50
826.48	1699.81
826.66	1665.00
826.83	1677.29
827.00	1675.24
827.17	1611.75
827.34	1652.71
827.51	1628.14
827.69	1710.05
827.86	1699.81
828.03	1626.09
828.20	1669.09
828.37	1691.62
828.54	1724.39
828.71	1558.50
828.89	1769.44
829.06	1652.71
829.23	1791.97
829.40	1556.46
829.57	1640.42
829.74	1734.63
829.91	1667.05
830.09	1628.14
830.26	1691.62
830.43	1824.74
830.60	1718.25
830.77	1724.39
830.94	1794.02
831.11	1687.53
831.28	1673.19
831.46	1816.55
831.63	1667.05
831.80	1734.63
831.97	1665.00
832.14	1685.48
832.31	1785.83
832.48	1759.21
832.65	1769.44
832.82	1654.76
832.99	1802.21
833.17	1624.04
833.34	1822.69
833.51	1742.82
833.68	1587.18
833.85	1748.97
834.02	1656.81
834.19	1626.09
834.36	1609.70
834.53	1718.25
834.70	1804.26
834.87	1751.01
835.04	1722.34
835.22	1617.90
835.39	1640.42
835.56	1660.90
835.73	1652.71
835.90	1722.34
836.07	1626.09
836.24	1763.30
836.41	1656.81
836.58	1669.09
836.75	1802.21
836.92	1746.92
837.09	1642.47
837.26	1742.82
837.43	1708.01
837.60	1730.53
837.77	1673.19
837.94	1800.16
838.12	1775.59
838.29	1681.38
838.46	1642.47
838.63	1683.43
838.80	1767.40
838.97	1644.52
839.14	1710.05
839.31	1722.34
839.48	1746.92
839.65	1652.71
839.82	1720.29
839.99	1640.42
840.16	1689.57
840.33	1611.75
840.50	1734.63
840.67	1583.08
840.84	1562.60
841.01	1671.14
841.18	1607.66
841.35	1740.77
841.52	1679.33
841.69	1798.12
841.86	1726.44
842.03	1746.92
842.20	1714.15
842.37	1730.53
842.54	1683.43
842.71	1726.44
842.88	1701.86
843.05	1742.82
843.22	1683.43
843.39	1712.10
843.56	1675.24
843.73	1648.61
843.90	1753.06
844.07	1712.10
844.24	1693.67
844.41	1777.64
844.58	1665.00
844.75	1687.53
844.92	1767.40
845.09	1667.05
845.26	1656.81
845.43	1691.62
845.60	1679.33
845.77	1748.97
845.94	1695.72
846.10	1705.96
846.27	1617.90
846.44	1755.11
846.61	1718.25
846.78	1689.57
846.95	1728.49
847.12	1636.33
847.29	1681.38
847.46	1589.22
847.63	1724.39
847.80	1667.05
847.97	1726.44
848.14	1853.41
848.31	1587.18
848.48	1679.33
848.65	1679.33
848.82	1632.23
848.98	1812.45
849.15	1705.96
849.32	1814.50
849.49	1773.54
849.66	1732.58
849.83	1632.23
850.00	1609.70
850.17	1679.33
850.34	1677.29
850.51	1669.09
850.68	1691.62
850.85	1837.03
851.01	1724.39
851.18	1687.53
851.35	1683.43
851.52	1744.87
851.69	1701.86
851.86	1650.66
852.03	1697.77
852.20	1730.53
852.37	1728.49
852.53	1638.38
852.70	1751.01
852.87	1714.15
853.04	1660.90
853.21	1701.86
853.38	1787.88
853.55	1810.40
853.72	1777.64
853.89	1665.00
854.05	1712.10
854.22	1642.47
854.39	1644.52
854.56	1755.11
854.73	1746.92
854.90	1642.47
855.07	1630.18
855.23	1624.04
855.40	1624.04
855.57	1687.53
855.74	1603.56
855.91	1847.27
856.08	1562.60
856.25	1634.28
856.41	1689.57
856.58	1630.18
856.75	1683.43
856.92	1617.90
857.09	1685.48
857.26	1615.85
857.42	1607.66
857.59	1732.58
857.76	1779.68
857.93	1771.49
858.10	1710.05
858.27	1595.37
858.43	1710.05
858.60	1693.67
858.77	1531.88
858.94	1654.76
859.11	1802.21
859.27	1683.43
859.44	1720.29
859.61	1886.18
859.78	1740.77
859.95	1640.42
860.12	1597.42
860.28	1853.41
860.45	1839.08
860.62	1615.85
860.79	1689.57
860.95	1724.39
861.12	1665.00
861.29	1654.76
861.46	1605.61
861.63	1695.72
861.79	1783.78
861.96	1675.24
862.13	1535.98
862.30	1728.49
862.47	1697.77
862.63	1581.03
862.80	1748.97
862.97	1665.00
863.14	1738.73
863.30	1658.85
863.47	1685.48
863.64	1738.73
863.81	1726.44
863.97	1722.34
864.14	1703.91
864.31	1761.25
864.48	1697.77
864.65	1624.04
864.81	1730.53
864.98	1656.81
865.15	1697.77
865.32	1730.53
865.48	1771.49
865.65	1751.01
865.82	1628.14
865.98	1675.24
866.15	1732.58
866.32	1650.66
866.49	1697.77
866.65	1791.97
866.82	1640.42
866.99	1599.46
867.16	1656.81
867.32	1665.00
867.49	1642.47
867.66	1730.53
867.83	1703.91
867.99	1560.55
868.16	1634.28
868.33	1681.38
868.49	1685.48
868.66	1742.82
868.83	1759.21
868.99	1646.57
869.16	1689.57
869.33	1759.21
869.50	1763.30
869.66	1689.57
869.83	1689.57
870.00	1619.94
870.16	1691.62
870.33	1689.57
870.50	1720.29
870.66	1587.18
870.83	1787.88
871.00	1691.62
871.17	1730.53
871.33	1789.92
871.50	1658.85
871.67	1687.53
871.83	1697.77
872.00	1781.73
872.17	1673.19
872.33	1787.88
872.50	1748.97
872.67	1654.76
872.83	1658.85
873.00	1650.66
873.17	1689.57
873.33	1720.29
873.50	1648.61
873.67	1642.47
873.83	1673.19
874.00	1744.87
874.16	1763.30
874.33	1708.01
874.50	1607.66
874.66	1796.07
874.83	1681.38
875.00	1720.29
875.16	1783.78
875.33	1710.05
875.50	1533.93
875.66	1718.25
875.83	1654.76
875.99	1705.96
876.16	1656.81
876.33	1697.77
876.49	1658.85
876.66	1722.34
876.83	1691.62
876.99	1578.98
877.16	1669.09
877.32	1673.19
877.49	1705.96
877.66	1728.49
877.82	1748.97
877.99	1695.72
878.15	1767.40
878.32	1677.29
878.49	1673.19
878.65	1636.33
878.82	1787.88
878.98	1644.52
879.15	1624.04
879.32	1751.01
879.48	1685.48
879.65	1677.29
879.81	1687.53
879.98	1693.67
880.15	1679.33
880.31	1673.19
880.48	1671.14
880.64	1642.47
880.81	1710.05
880.97	1812.45
881.14	1744.87
881.31	1564.65
881.47	1839.08
881.64	1675.24
881.80	1634.28
881.97	1767.40
882.13	1773.54
882.30	1648.61
882.47	1642.47
882.63	1615.85
882.80	1726.44
882.96	1583.08
883.13	1779.68
883.29	1667.05
883.46	1710.05
883.62	1751.01
883.79	1683.43
883.95	1722.34
884.12	1646.57
884.29	1755.11
884.45	1677.29
884.62	1763.30
884.78	1673.19
884.95	1720.29
885.11	1673.19
885.28	1753.06
885.44	1677.29
885.61	1675.24
885.77	1808.36
885.94	1759.21
886.10	1724.39
886.27	1763.30
886.43	1775.59
886.60	1660.90
886.76	1665.00
886.93	1718.25
887.09	1791.97
887.26	1644.52
887.42	1736.68
887.59	1755.11
887.75	1826.79
887.92	1712.10
888.08	1748.97
888.25	1769.44
888.41	1802.21
888.58	1673.19
888.74	1640.42
888.91	1665.00
>>>>>End Processed Spectral Data<<<<<
