SpectraSuite Data File
++++++++++++++++++++++++++++++++++++
Date: Mon Jun 06 17:06:57 CEST 2016
User: root
Dark Spectrum Present: No
Reference Spectrum Present: No
Number of Sampled Component Spectra: 1
Spectrometers: USB4C02835
Integration Time (usec): 100000 (USB4C02835)
Spectra Averaged: 1 (USB4C02835)
Boxcar Smoothing: 0 (USB4C02835)
Correct for Electrical Dark: No (USB4C02835)
Strobe/Lamp Enabled: No (USB4C02835)
Correct for Detector Non-linearity: No (USB4C02835)
Correct for Stray Light: No (USB4C02835)
Number of Pixels in Processed Spectrum: 3648
>>>>>Begin Processed Spectral Data<<<<<
177.47	1376.24
177.69	1376.24
177.91	1376.24
178.13	1443.82
178.36	1456.11
178.58	1728.49
178.80	1712.10
179.02	1578.98
179.24	1656.81
179.46	1681.38
179.68	1662.95
179.90	1644.52
180.13	1626.09
180.35	1712.10
180.57	1636.33
180.79	1779.68
181.01	1730.53
181.23	1730.53
181.45	1746.92
181.67	1722.34
181.90	1812.45
182.12	1673.19
182.34	1748.97
182.56	1763.30
182.78	1687.53
183.00	1669.09
183.22	1714.15
183.44	1621.99
183.66	1804.26
183.89	1847.27
184.11	1699.81
184.33	1755.11
184.55	1845.22
184.77	1691.62
184.99	1785.83
185.21	1656.81
185.43	1822.69
185.65	1732.58
185.87	1720.29
186.10	1802.21
186.32	1877.99
186.54	1753.06
186.76	1736.68
186.98	1705.96
187.20	1695.72
187.42	1687.53
187.64	1640.42
187.86	1765.35
188.08	1710.05
188.30	1716.20
188.52	1644.52
188.75	1800.16
188.97	1701.86
189.19	1671.14
189.41	1761.25
189.63	1718.25
189.85	1671.14
190.07	1611.75
190.29	1681.38
190.51	1767.40
190.73	1542.12
190.95	1771.49
191.17	1746.92
191.39	1626.09
191.61	1728.49
191.84	1681.38
192.06	1816.55
192.28	1609.70
192.50	1886.18
192.72	1763.30
192.94	1724.39
193.16	1814.50
193.38	1744.87
193.60	1660.90
193.82	1726.44
194.04	1746.92
194.26	1665.00
194.48	1732.58
194.70	1730.53
194.92	1691.62
195.14	1755.11
195.36	1681.38
195.58	1701.86
195.80	1720.29
196.02	1673.19
196.24	1705.96
196.46	1710.05
196.69	1585.13
196.91	1886.18
197.13	1626.09
197.35	1679.33
197.57	1826.79
197.79	1714.15
198.01	1718.25
198.23	1748.97
198.45	1734.63
198.67	1685.48
198.89	1642.47
199.11	1697.77
199.33	1621.99
199.55	1566.70
199.77	1765.35
199.99	1724.39
200.21	1755.11
200.43	1742.82
200.65	1624.04
200.87	1589.22
201.09	1710.05
201.31	1718.25
201.53	1779.68
201.75	1736.68
201.97	1697.77
202.19	1734.63
202.41	1732.58
202.63	1773.54
202.85	1787.88
203.07	1748.97
203.29	1673.19
203.51	1671.14
203.73	1652.71
203.95	1912.80
204.17	1759.21
204.39	1701.86
204.61	1693.67
204.83	1673.19
205.05	1787.88
205.27	1767.40
205.49	1853.41
205.71	1691.62
205.93	1681.38
206.15	1652.71
206.37	1687.53
206.59	1769.44
206.81	1621.99
207.03	1568.74
207.25	1679.33
207.47	1746.92
207.69	1738.73
207.91	1759.21
208.13	1781.73
208.34	1578.98
208.56	1632.23
208.78	1714.15
209.00	1699.81
209.22	1691.62
209.44	1658.85
209.66	1621.99
209.88	1681.38
210.10	1730.53
210.32	1656.81
210.54	1783.78
210.76	1646.57
210.98	1765.35
211.20	1574.89
211.42	1726.44
211.64	1820.64
211.86	1693.67
212.08	1705.96
212.30	1736.68
212.52	1736.68
212.74	1744.87
212.96	1748.97
213.17	1716.20
213.39	1753.06
213.61	1796.07
213.83	1785.83
214.05	1652.71
214.27	1888.23
214.49	1613.80
214.71	1658.85
214.93	1849.32
215.15	1687.53
215.37	1783.78
215.59	1619.94
215.81	1771.49
216.03	1804.26
216.24	1708.01
216.46	1726.44
216.68	1677.29
216.90	1796.07
217.12	1751.01
217.34	1773.54
217.56	1683.43
217.78	1763.30
218.00	1800.16
218.22	1718.25
218.44	1769.44
218.66	1714.15
218.87	1832.93
219.09	1662.95
219.31	1730.53
219.53	1785.83
219.75	1744.87
219.97	1681.38
220.19	1779.68
220.41	1687.53
220.63	1853.41
220.85	1681.38
221.06	1634.28
221.28	1722.34
221.50	1736.68
221.72	1669.09
221.94	1617.90
222.16	1654.76
222.38	1759.21
222.60	1791.97
222.82	1787.88
223.03	1763.30
223.25	1589.22
223.47	1781.73
223.69	1828.84
223.91	1753.06
224.13	1669.09
224.35	1673.19
224.57	1746.92
224.78	1800.16
225.00	1652.71
225.22	1705.96
225.44	1681.38
225.66	1791.97
225.88	1712.10
226.10	1841.12
226.32	1701.86
226.53	1730.53
226.75	1624.04
226.97	1658.85
227.19	1650.66
227.41	1710.05
227.63	1734.63
227.85	1648.61
228.06	1781.73
228.28	1660.90
228.50	1839.08
228.72	1716.20
228.94	1673.19
229.16	1615.85
229.37	1677.29
229.59	1728.49
229.81	1767.40
230.03	1730.53
230.25	1609.70
230.47	1669.09
230.69	1660.90
230.90	1771.49
231.12	1650.66
231.34	1757.16
231.56	1746.92
231.78	1685.48
232.00	1699.81
232.21	1724.39
232.43	1730.53
232.65	1581.03
232.87	1624.04
233.09	1615.85
233.30	1710.05
233.52	1722.34
233.74	1693.67
233.96	1757.16
234.18	1695.72
234.40	1628.14
234.61	1769.44
234.83	1654.76
235.05	1576.94
235.27	1906.66
235.49	1783.78
235.70	1728.49
235.92	1746.92
236.14	1761.25
236.36	1894.37
236.58	1583.08
236.79	1697.77
237.01	1665.00
237.23	1730.53
237.45	1826.79
237.67	1652.71
237.88	1685.48
238.10	1861.60
238.32	1626.09
238.54	1740.77
238.76	1806.31
238.97	1665.00
239.19	1656.81
239.41	1744.87
239.63	1804.26
239.85	1730.53
240.06	1730.53
240.28	1708.01
240.50	1728.49
240.72	1816.55
240.93	1689.57
241.15	1800.16
241.37	1671.14
241.59	1667.05
241.81	1714.15
242.02	1716.20
242.24	1687.53
242.46	1734.63
242.68	1669.09
242.89	1781.73
243.11	1710.05
243.33	1689.57
243.55	1683.43
243.76	1787.88
243.98	1632.23
244.20	1800.16
244.42	1722.34
244.64	1734.63
244.85	1597.42
245.07	1671.14
245.29	1771.49
245.51	1753.06
245.72	1695.72
245.94	1775.59
246.16	1705.96
246.38	1748.97
246.59	1615.85
246.81	1701.86
247.03	1669.09
247.24	1595.37
247.46	1683.43
247.68	1718.25
247.90	1671.14
248.11	1722.34
248.33	1718.25
248.55	1640.42
248.77	1638.38
248.98	1796.07
249.20	1779.68
249.42	1730.53
249.64	1777.64
249.85	1667.05
250.07	1705.96
250.29	1757.16
250.50	1779.68
250.72	1589.22
250.94	1681.38
251.16	1902.56
251.37	1734.63
251.59	1820.64
251.81	1718.25
252.02	1863.65
252.24	1722.34
252.46	1859.56
252.68	1589.22
252.89	1660.90
253.11	1593.32
253.33	1765.35
253.54	1705.96
253.76	1626.09
253.98	1708.01
254.20	1710.05
254.41	1697.77
254.63	1697.77
254.85	1660.90
255.06	1679.33
255.28	1720.29
255.50	1640.42
255.71	1691.62
255.93	1589.22
256.15	1718.25
256.36	1755.11
256.58	1673.19
256.80	1763.30
257.02	1767.40
257.23	1724.39
257.45	1730.53
257.67	1789.92
257.88	1669.09
258.10	1753.06
258.32	1714.15
258.53	1738.73
258.75	1775.59
258.97	1656.81
259.18	1705.96
259.40	1697.77
259.62	1814.50
259.83	1820.64
260.05	1748.97
260.27	2052.06
260.48	1689.57
260.70	1650.66
260.92	1685.48
261.13	1656.81
261.35	1734.63
261.57	1806.31
261.78	1693.67
262.00	1724.39
262.22	1679.33
262.43	1722.34
262.65	1689.57
262.86	1683.43
263.08	1892.32
263.30	1724.39
263.51	1660.90
263.73	1712.10
263.95	1796.07
264.16	1712.10
264.38	1687.53
264.60	1742.82
264.81	1705.96
265.03	1775.59
265.25	1775.59
265.46	1701.86
265.68	1755.11
265.89	1742.82
266.11	1685.48
266.33	1728.49
266.54	1685.48
266.76	1755.11
266.98	1765.35
267.19	1753.06
267.41	1755.11
267.62	1718.25
267.84	1656.81
268.06	1763.30
268.27	1687.53
268.49	1830.88
268.70	1736.68
268.92	1714.15
269.14	1619.94
269.35	1603.56
269.57	1767.40
269.79	1771.49
270.00	1669.09
270.22	1853.41
270.43	1687.53
270.65	1554.41
270.87	1769.44
271.08	1673.19
271.30	1718.25
271.51	1718.25
271.73	1691.62
271.95	1814.50
272.16	1744.87
272.38	1746.92
272.59	1701.86
272.81	1740.77
273.02	1751.01
273.24	1673.19
273.46	1779.68
273.67	1630.18
273.89	1671.14
274.10	1650.66
274.32	1761.25
274.54	1695.72
274.75	1800.16
274.97	1708.01
275.18	1751.01
275.40	1730.53
275.61	1695.72
275.83	1691.62
276.05	1601.51
276.26	1732.58
276.48	1789.92
276.69	1687.53
276.91	1679.33
277.12	1783.78
277.34	1726.44
277.55	1763.30
277.77	1685.48
277.99	1697.77
278.20	1636.33
278.42	1642.47
278.63	1714.15
278.85	1710.05
279.06	1671.14
279.28	1732.58
279.49	1718.25
279.71	1724.39
279.93	1771.49
280.14	1742.82
280.36	1650.66
280.57	1871.84
280.79	1767.40
281.00	1671.14
281.22	1681.38
281.43	1783.78
281.65	1619.94
281.86	1609.70
282.08	1726.44
282.29	1796.07
282.51	1650.66
282.73	1626.09
282.94	1660.90
283.16	1740.77
283.37	1849.32
283.59	1726.44
283.80	1787.88
284.02	1644.52
284.23	1660.90
284.45	1697.77
284.66	1630.18
284.88	1673.19
285.09	1796.07
285.31	1751.01
285.52	1724.39
285.74	1572.84
285.95	1726.44
286.17	1640.42
286.38	1771.49
286.60	1714.15
286.81	1687.53
287.03	1712.10
287.24	1589.22
287.46	1687.53
287.67	1697.77
287.89	1771.49
288.10	1683.43
288.32	1705.96
288.53	1779.68
288.75	1681.38
288.96	1753.06
289.18	1673.19
289.39	1726.44
289.61	1796.07
289.82	1810.40
290.04	1871.84
290.25	1642.47
290.47	1720.29
290.68	1673.19
290.90	1746.92
291.11	1701.86
291.33	1740.77
291.54	1683.43
291.76	1683.43
291.97	1683.43
292.18	1677.29
292.40	1699.81
292.61	1718.25
292.83	1849.32
293.04	1755.11
293.26	1716.20
293.47	1603.56
293.69	1660.90
293.90	1773.54
294.12	1748.97
294.33	1656.81
294.55	1669.09
294.76	1798.12
294.97	1785.83
295.19	1746.92
295.40	1728.49
295.62	1765.35
295.83	1738.73
296.05	1636.33
296.26	1800.16
296.48	1675.24
296.69	1753.06
296.90	1746.92
297.12	1759.21
297.33	1789.92
297.55	1718.25
297.76	1697.77
297.98	1791.97
298.19	1681.38
298.41	1716.20
298.62	1665.00
298.83	1810.40
299.05	1710.05
299.26	1740.77
299.48	1701.86
299.69	1751.01
299.90	1699.81
300.12	1644.52
300.33	1742.82
300.55	1646.57
300.76	1765.35
300.98	1642.47
301.19	1732.58
301.40	1681.38
301.62	1621.99
301.83	1806.31
302.05	1691.62
302.26	1691.62
302.47	1777.64
302.69	1679.33
302.90	1728.49
303.12	1632.23
303.33	1634.28
303.54	1830.88
303.76	1677.29
303.97	1681.38
304.19	1761.25
304.40	1646.57
304.61	1720.29
304.83	1884.13
305.04	1755.11
305.26	1810.40
305.47	1652.71
305.68	1738.73
305.90	1652.71
306.11	1740.77
306.33	1652.71
306.54	1724.39
306.75	1652.71
306.97	1648.61
307.18	1681.38
307.39	1687.53
307.61	1699.81
307.82	1720.29
308.04	1757.16
308.25	1701.86
308.46	1785.83
308.68	1767.40
308.89	1693.67
309.10	1804.26
309.32	1779.68
309.53	1693.67
309.74	1757.16
309.96	1621.99
310.17	1771.49
310.39	1652.71
310.60	1722.34
310.81	1738.73
311.03	1640.42
311.24	1777.64
311.45	1708.01
311.67	1843.17
311.88	1736.68
312.09	1671.14
312.31	1695.72
312.52	1675.24
312.73	1708.01
312.95	1615.85
313.16	1691.62
313.37	1734.63
313.59	1703.91
313.80	1759.21
314.01	1777.64
314.23	1673.19
314.44	1609.70
314.65	1685.48
314.87	1644.52
315.08	1667.05
315.29	1689.57
315.51	1712.10
315.72	1607.66
315.93	1724.39
316.15	1779.68
316.36	1650.66
316.57	1642.47
316.79	1765.35
317.00	1697.77
317.21	1751.01
317.43	1656.81
317.64	1708.01
317.85	1669.09
318.07	1755.11
318.28	1738.73
318.49	1814.50
318.70	1906.66
318.92	1751.01
319.13	1818.60
319.34	1744.87
319.56	1851.36
319.77	1771.49
319.98	1804.26
320.20	1794.02
320.41	1767.40
320.62	1757.16
320.83	1650.66
321.05	1898.47
321.26	1748.97
321.47	1796.07
321.69	1746.92
321.90	1587.18
322.11	1648.61
322.32	1675.24
322.54	1810.40
322.75	1714.15
322.96	1773.54
323.18	1665.00
323.39	1611.75
323.60	1679.33
323.81	1763.30
324.03	1677.29
324.24	1697.77
324.45	1705.96
324.66	1695.72
324.88	1701.86
325.09	1751.01
325.30	1712.10
325.52	1708.01
325.73	1638.38
325.94	1691.62
326.15	1636.33
326.37	1695.72
326.58	1728.49
326.79	1767.40
327.00	1636.33
327.22	1718.25
327.43	1695.72
327.64	1697.77
327.85	1660.90
328.07	1767.40
328.28	1896.42
328.49	1697.77
328.70	1712.10
328.92	1695.72
329.13	1679.33
329.34	1744.87
329.55	1714.15
329.76	1843.17
329.98	1677.29
330.19	1738.73
330.40	1746.92
330.61	1697.77
330.83	1791.97
331.04	1679.33
331.25	1679.33
331.46	1683.43
331.68	1640.42
331.89	1841.12
332.10	1671.14
332.31	1677.29
332.52	1667.05
332.74	1771.49
332.95	1581.03
333.16	1722.34
333.37	1755.11
333.58	1691.62
333.80	1732.58
334.01	1640.42
334.22	1753.06
334.43	1640.42
334.64	1705.96
334.86	1701.86
335.07	1748.97
335.28	1804.26
335.49	1718.25
335.70	1716.20
335.92	1816.55
336.13	1771.49
336.34	1693.67
336.55	1785.83
336.76	1738.73
336.98	1576.94
337.19	1697.77
337.40	1773.54
337.61	1806.31
337.82	1738.73
338.04	1724.39
338.25	1601.51
338.46	1644.52
338.67	1714.15
338.88	1685.48
339.09	1685.48
339.31	1710.05
339.52	1636.33
339.73	1681.38
339.94	1693.67
340.15	1763.30
340.36	1687.53
340.58	1794.02
340.79	1626.09
341.00	1716.20
341.21	1712.10
341.42	1816.55
341.63	1720.29
341.85	1794.02
342.06	1773.54
342.27	1624.04
342.48	1693.67
342.69	1697.77
342.90	1693.67
343.12	1800.16
343.33	1718.25
343.54	1773.54
343.75	1837.03
343.96	1708.01
344.17	1714.15
344.38	1736.68
344.60	1652.71
344.81	1669.09
345.02	1705.96
345.23	1726.44
345.44	1812.45
345.65	1734.63
345.86	1800.16
346.07	1681.38
346.29	1691.62
346.50	1763.30
346.71	1716.20
346.92	1728.49
347.13	1843.17
347.34	1701.86
347.55	1673.19
347.76	1693.67
347.98	1681.38
348.19	1722.34
348.40	1740.77
348.61	1705.96
348.82	1783.78
349.03	1804.26
349.24	1650.66
349.45	1794.02
349.66	1593.32
349.88	1775.59
350.09	1630.18
350.30	1820.64
350.51	1787.88
350.72	1779.68
350.93	1708.01
351.14	1732.58
351.35	1783.78
351.56	1685.48
351.77	1693.67
351.99	1697.77
352.20	1791.97
352.41	1720.29
352.62	1632.23
352.83	1675.24
353.04	1687.53
353.25	1677.29
353.46	1804.26
353.67	1728.49
353.88	1658.85
354.09	1677.29
354.30	1695.72
354.52	1791.97
354.73	1746.92
354.94	1617.90
355.15	1751.01
355.36	1798.12
355.57	1660.90
355.78	1726.44
355.99	1640.42
356.20	1677.29
356.41	1759.21
356.62	1724.39
356.83	1648.61
357.04	1798.12
357.25	1628.14
357.46	1761.25
357.68	1583.08
357.89	1638.38
358.10	1726.44
358.31	1685.48
358.52	1695.72
358.73	1662.95
358.94	1587.18
359.15	1660.90
359.36	1695.72
359.57	1738.73
359.78	1665.00
359.99	1748.97
360.20	1595.37
360.41	1662.95
360.62	1810.40
360.83	1642.47
361.04	1767.40
361.25	1742.82
361.46	1732.58
361.67	1691.62
361.88	1703.91
362.09	1710.05
362.30	1796.07
362.51	1697.77
362.72	1767.40
362.93	1751.01
363.14	1763.30
363.35	1789.92
363.56	1650.66
363.78	1736.68
363.99	1726.44
364.20	1683.43
364.41	1732.58
364.62	1789.92
364.83	1716.20
365.04	1722.34
365.25	1710.05
365.46	1781.73
365.67	1665.00
365.88	1628.14
366.09	1658.85
366.30	1638.38
366.51	1665.00
366.72	1531.88
366.93	1744.87
367.14	1701.86
367.35	1755.11
367.56	1746.92
367.77	1841.12
367.98	1652.71
368.18	1779.68
368.39	1785.83
368.60	1621.99
368.81	1748.97
369.02	1722.34
369.23	1763.30
369.44	1619.94
369.65	1665.00
369.86	1748.97
370.07	1783.78
370.28	1681.38
370.49	1740.77
370.70	1753.06
370.91	1624.04
371.12	1597.42
371.33	1783.78
371.54	1679.33
371.75	1812.45
371.96	1603.56
372.17	1755.11
372.38	1701.86
372.59	1765.35
372.80	1667.05
373.01	1669.09
373.22	1710.05
373.43	1710.05
373.64	1617.90
373.85	1763.30
374.06	1826.79
374.26	1783.78
374.47	1738.73
374.68	1781.73
374.89	1691.62
375.10	1689.57
375.31	1775.59
375.52	1710.05
375.73	1716.20
375.94	1636.33
376.15	1796.07
376.36	1603.56
376.57	1656.81
376.78	1693.67
376.99	1689.57
377.20	1716.20
377.40	1667.05
377.61	1839.08
377.82	1738.73
378.03	1826.79
378.24	1699.81
378.45	1775.59
378.66	1732.58
378.87	1673.19
379.08	1685.48
379.29	1712.10
379.50	1791.97
379.71	1693.67
379.91	1775.59
380.12	1701.86
380.33	1789.92
380.54	1718.25
380.75	1677.29
380.96	1791.97
381.17	1767.40
381.38	1751.01
381.59	1705.96
381.80	1728.49
382.00	1812.45
382.21	1695.72
382.42	1863.65
382.63	1896.42
382.84	1699.81
383.05	1802.21
383.26	1828.84
383.47	1732.58
383.68	1861.60
383.88	1849.32
384.09	1679.33
384.30	1802.21
384.51	1718.25
384.72	1679.33
384.93	1644.52
385.14	1703.91
385.35	1802.21
385.55	1658.85
385.76	1742.82
385.97	1646.57
386.18	1683.43
386.39	1687.53
386.60	1705.96
386.81	1665.00
387.02	1689.57
387.22	1652.71
387.43	1740.77
387.64	1859.56
387.85	1886.18
388.06	2152.42
388.27	4296.64
388.48	6807.45
388.68	8312.71
388.89	9336.69
389.10	9797.48
389.31	8419.20
389.52	7335.82
389.73	6719.39
389.93	6018.98
390.14	5932.97
390.35	5195.70
390.56	4491.20
390.77	3725.26
390.98	3022.80
391.18	2547.67
391.39	2107.36
391.60	1857.51
391.81	1791.97
392.02	1705.96
392.23	1869.80
392.43	1759.21
392.64	1845.22
392.85	1746.92
393.06	1857.51
393.27	1787.88
393.47	1626.09
393.68	1701.86
393.89	1660.90
394.10	1765.35
394.31	1693.67
394.52	1652.71
394.72	1652.71
394.93	1839.08
395.14	1658.85
395.35	1710.05
395.56	1718.25
395.76	1716.20
395.97	1832.93
396.18	1834.98
396.39	1845.22
396.60	2029.54
396.80	1912.80
397.01	1861.60
397.22	1839.08
397.43	1837.03
397.64	1746.92
397.84	1787.88
398.05	1857.51
398.26	1763.30
398.47	1742.82
398.67	1746.92
398.88	1742.82
399.09	1814.50
399.30	1710.05
399.51	1714.15
399.71	1665.00
399.92	1763.30
400.13	1787.88
400.34	1712.10
400.54	1638.38
400.75	1841.12
400.96	1820.64
401.17	1820.64
401.37	1783.78
401.58	1722.34
401.79	1726.44
402.00	1861.60
402.21	2060.26
402.41	1972.19
402.62	2099.17
402.83	1966.05
403.04	1904.61
403.24	2084.83
403.45	1855.46
403.66	1927.14
403.87	1880.04
404.07	1896.42
404.28	1898.47
404.49	1869.80
404.70	1794.02
404.90	1783.78
405.11	1728.49
405.32	1789.92
405.52	1665.00
405.73	1652.71
405.94	1693.67
406.15	1724.39
406.35	1787.88
406.56	1765.35
406.77	1730.53
406.98	1759.21
407.18	1679.33
407.39	1822.69
407.60	1726.44
407.80	1685.48
408.01	1636.33
408.22	1697.77
408.43	1613.80
408.63	1742.82
408.84	1757.16
409.05	1720.29
409.25	1658.85
409.46	1656.81
409.67	1652.71
409.88	1708.01
410.08	1748.97
410.29	1683.43
410.50	1808.36
410.70	1718.25
410.91	1681.38
411.12	1757.16
411.32	1675.24
411.53	1679.33
411.74	1767.40
411.95	1791.97
412.15	1771.49
412.36	1759.21
412.57	1753.06
412.77	1816.55
412.98	1740.77
413.19	1675.24
413.39	1732.58
413.60	1755.11
413.81	1789.92
414.01	1746.92
414.22	1710.05
414.43	1773.54
414.63	1714.15
414.84	1722.34
415.05	1697.77
415.25	1576.94
415.46	1705.96
415.67	1742.82
415.87	1783.78
416.08	1757.16
416.29	1654.76
416.49	1769.44
416.70	1652.71
416.91	1791.97
417.11	1726.44
417.32	1769.44
417.53	1734.63
417.73	1785.83
417.94	1746.92
418.15	1718.25
418.35	1757.16
418.56	1748.97
418.77	1923.04
418.97	1683.43
419.18	1730.53
419.38	1640.42
419.59	1673.19
419.80	1892.32
420.00	1763.30
420.21	1755.11
420.42	1824.74
420.62	1710.05
420.83	1785.83
421.04	1714.15
421.24	1689.57
421.45	1757.16
421.65	1708.01
421.86	1665.00
422.07	1769.44
422.27	1781.73
422.48	1654.76
422.69	1644.52
422.89	1728.49
423.10	1673.19
423.30	1746.92
423.51	1699.81
423.72	1796.07
423.92	1816.55
424.13	1638.38
424.33	1777.64
424.54	1732.58
424.75	1695.72
424.95	1714.15
425.16	1691.62
425.36	1722.34
425.57	1765.35
425.78	1734.63
425.98	1796.07
426.19	1701.86
426.39	1757.16
426.60	1714.15
426.81	1816.55
427.01	1748.97
427.22	1665.00
427.42	1673.19
427.63	1675.24
427.83	1820.64
428.04	1796.07
428.25	1722.34
428.45	1783.78
428.66	1742.82
428.86	1718.25
429.07	1777.64
429.28	1683.43
429.48	1656.81
429.69	1619.94
429.89	1755.11
430.10	1654.76
430.30	1802.21
430.51	1771.49
430.71	1630.18
430.92	1656.81
431.13	1613.80
431.33	1787.88
431.54	1738.73
431.74	1798.12
431.95	1855.46
432.15	1673.19
432.36	1763.30
432.56	1708.01
432.77	1851.36
432.98	1798.12
433.18	1738.73
433.39	1652.71
433.59	1658.85
433.80	1781.73
434.00	1806.31
434.21	1677.29
434.41	1667.05
434.62	1937.38
434.82	1705.96
435.03	1695.72
435.23	1705.96
435.44	1671.14
435.64	1767.40
435.85	1732.58
436.06	1755.11
436.26	1755.11
436.47	1691.62
436.67	1660.90
436.88	1701.86
437.08	1675.24
437.29	1900.52
437.49	1794.02
437.70	1757.16
437.90	1652.71
438.11	1849.32
438.31	1861.60
438.52	1845.22
438.72	1834.98
438.93	1896.42
439.13	1742.82
439.34	1810.40
439.54	1714.15
439.75	1794.02
439.95	1808.36
440.16	1685.48
440.36	1732.58
440.57	1703.91
440.77	1767.40
440.98	1757.16
441.18	1769.44
441.39	1722.34
441.59	1699.81
441.80	1880.04
442.00	1718.25
442.21	1832.93
442.41	1677.29
442.62	1828.84
442.82	1724.39
443.02	1783.78
443.23	1726.44
443.43	1662.95
443.64	1820.64
443.84	1732.58
444.05	1818.60
444.25	1740.77
444.46	1681.38
444.66	1730.53
444.87	1812.45
445.07	1742.82
445.28	1703.91
445.48	1726.44
445.69	1767.40
445.89	1853.41
446.09	1642.47
446.30	2013.15
446.50	2596.82
446.71	3626.95
446.91	4276.16
447.12	4581.31
447.32	4804.53
447.53	4329.41
447.73	3831.75
447.93	3588.04
448.14	3311.57
448.34	3213.26
448.55	2949.08
448.75	2785.24
448.96	2752.47
449.16	2430.94
449.36	2252.77
449.57	1990.63
449.77	1892.32
449.98	1775.59
450.18	1826.79
450.39	1886.18
450.59	1830.88
450.79	1726.44
451.00	1779.68
451.20	1814.50
451.41	1765.35
451.61	1730.53
451.81	1746.92
452.02	1769.44
452.22	1667.05
452.43	1759.21
452.63	1722.34
452.84	1677.29
453.04	1740.77
453.24	1722.34
453.45	1677.29
453.65	1740.77
453.86	1744.87
454.06	1724.39
454.26	1765.35
454.47	1619.94
454.67	1728.49
454.87	1734.63
455.08	1738.73
455.28	1871.84
455.49	1726.44
455.69	1753.06
455.89	1871.84
456.10	1804.26
456.30	1763.30
456.51	1802.21
456.71	1765.35
456.91	1783.78
457.12	1742.82
457.32	1802.21
457.52	1667.05
457.73	1771.49
457.93	1830.88
458.14	1710.05
458.34	1613.80
458.54	1740.77
458.75	1705.96
458.95	1759.21
459.15	1761.25
459.36	1769.44
459.56	1785.83
459.76	1847.27
459.97	1773.54
460.17	1726.44
460.37	1810.40
460.58	1673.19
460.78	1775.59
460.99	1720.29
461.19	1781.73
461.39	1683.43
461.60	1771.49
461.80	1728.49
462.00	1691.62
462.21	1718.25
462.41	1703.91
462.61	1697.77
462.82	1679.33
463.02	1812.45
463.22	1773.54
463.43	1820.64
463.63	1730.53
463.83	1804.26
464.04	1714.15
464.24	1775.59
464.44	1675.24
464.64	1748.97
464.85	1769.44
465.05	1808.36
465.25	1730.53
465.46	1642.47
465.66	1748.97
465.86	1775.59
466.07	1773.54
466.27	1744.87
466.47	1658.85
466.68	1667.05
466.88	1789.92
467.08	1751.01
467.29	1748.97
467.49	1736.68
467.69	1755.11
467.89	1738.73
468.10	1779.68
468.30	1736.68
468.50	1791.97
468.71	1775.59
468.91	1683.43
469.11	1812.45
469.31	1748.97
469.52	1726.44
469.72	1861.60
469.92	1841.12
470.13	1746.92
470.33	1763.30
470.53	1867.75
470.73	2095.07
470.94	2340.83
471.14	2410.46
471.34	2514.91
471.54	2402.27
471.75	2246.62
471.95	2144.22
472.15	2127.84
472.36	2111.46
472.56	2047.97
472.76	2078.69
472.96	2009.06
473.17	1959.91
473.37	1865.70
473.57	1761.25
473.77	1859.56
473.98	1728.49
474.18	1742.82
474.38	1935.33
474.58	1673.19
474.79	1712.10
474.99	1751.01
475.19	1794.02
475.39	1644.52
475.60	1742.82
475.80	1755.11
476.00	1812.45
476.20	1718.25
476.41	1763.30
476.61	1843.17
476.81	1781.73
477.01	1714.15
477.21	1863.65
477.42	1736.68
477.62	1642.47
477.82	1779.68
478.02	1681.38
478.23	1826.79
478.43	1695.72
478.63	1699.81
478.83	1691.62
479.03	1671.14
479.24	1765.35
479.44	1816.55
479.64	1691.62
479.84	1595.37
480.04	1597.42
480.25	1767.40
480.45	1705.96
480.65	1710.05
480.85	1783.78
481.06	1697.77
481.26	1787.88
481.46	1798.12
481.66	1796.07
481.86	1724.39
482.06	1820.64
482.27	1730.53
482.47	1705.96
482.67	1693.67
482.87	1740.77
483.07	1767.40
483.28	1699.81
483.48	1677.29
483.68	1693.67
483.88	1677.29
484.08	1638.38
484.29	1607.66
484.49	1705.96
484.69	1626.09
484.89	1802.21
485.09	1861.60
485.29	1822.69
485.50	1724.39
485.70	1662.95
485.90	1777.64
486.10	1753.06
486.30	1728.49
486.50	1773.54
486.71	1789.92
486.91	1863.65
487.11	1726.44
487.31	1648.61
487.51	1697.77
487.71	1691.62
487.91	1648.61
488.12	1660.90
488.32	1566.70
488.52	1705.96
488.72	1507.30
488.92	1736.68
489.12	1691.62
489.32	1726.44
489.53	1714.15
489.73	1718.25
489.93	1781.73
490.13	1701.86
490.33	1644.52
490.53	1748.97
490.73	1812.45
490.94	1699.81
491.14	1791.97
491.34	1832.93
491.54	2117.60
491.74	2611.16
491.94	2965.46
492.14	3057.62
492.34	3084.24
492.54	2727.89
492.75	2586.58
492.95	2480.09
493.15	2439.13
493.35	2324.44
493.55	2248.67
493.75	2172.89
493.95	2131.94
494.15	2037.73
494.35	1892.32
494.56	1904.61
494.76	1783.78
494.96	1839.08
495.16	1837.03
495.36	1714.15
495.56	1740.77
495.76	1767.40
495.96	1703.91
496.16	1654.76
496.36	1820.64
496.56	1787.88
496.77	1732.58
496.97	1761.25
497.17	1769.44
497.37	1689.57
497.57	1708.01
497.77	1769.44
497.97	1640.42
498.17	1677.29
498.37	1708.01
498.57	1789.92
498.77	1728.49
498.97	1791.97
499.17	1855.46
499.38	1693.67
499.58	1691.62
499.78	1826.79
499.98	1826.79
500.18	1714.15
500.38	1701.86
500.58	1939.43
500.78	2592.73
500.98	4433.85
501.18	5625.77
501.38	6668.19
501.58	6989.72
501.78	6596.51
501.98	5443.50
502.18	5044.15
502.38	4460.48
502.58	4216.77
502.78	3753.93
502.98	3637.19
503.18	3401.68
503.38	3041.23
503.59	2856.92
503.79	2652.12
503.99	2613.21
504.19	2353.12
504.39	2224.09
504.59	2187.23
504.79	2066.40
504.99	2074.59
505.19	1961.95
505.39	1886.18
505.59	2058.21
505.79	1937.38
505.99	1859.56
506.19	1789.92
506.39	1869.80
506.59	1751.01
506.79	1845.22
506.99	1785.83
507.19	1789.92
507.39	1794.02
507.59	1685.48
507.79	1796.07
507.99	1673.19
508.19	1804.26
508.39	1738.73
508.59	1775.59
508.79	1814.50
508.99	1890.28
509.19	1734.63
509.39	1806.31
509.59	1718.25
509.79	1689.57
509.99	1769.44
510.19	1843.17
510.39	1796.07
510.59	1726.44
510.79	1708.01
510.99	1642.47
511.19	1634.28
511.39	1826.79
511.59	1724.39
511.79	1781.73
511.99	1697.77
512.19	1761.25
512.38	1746.92
512.58	1726.44
512.78	1771.49
512.98	1693.67
513.18	1843.17
513.38	1671.14
513.58	1738.73
513.78	1736.68
513.98	1738.73
514.18	1759.21
514.38	1705.96
514.58	1724.39
514.78	1712.10
514.98	1658.85
515.18	1722.34
515.38	1650.66
515.58	1877.99
515.78	1763.30
515.98	1689.57
516.18	1787.88
516.38	1812.45
516.57	1701.86
516.77	1714.15
516.97	1818.60
517.17	1720.29
517.37	1673.19
517.57	1859.56
517.77	1669.09
517.97	1687.53
518.17	1800.16
518.37	1673.19
518.57	1701.86
518.77	1662.95
518.97	1718.25
519.16	1798.12
519.36	1748.97
519.56	1753.06
519.76	1695.72
519.96	1763.30
520.16	1828.84
520.36	1669.09
520.56	1820.64
520.76	1677.29
520.96	1697.77
521.16	1699.81
521.35	1798.12
521.55	1873.89
521.75	1802.21
521.95	1742.82
522.15	1779.68
522.35	1677.29
522.55	1677.29
522.75	1818.60
522.95	1695.72
523.14	1769.44
523.34	1740.77
523.54	1775.59
523.74	1769.44
523.94	1845.22
524.14	1644.52
524.34	1665.00
524.54	1794.02
524.73	1744.87
524.93	1804.26
525.13	1800.16
525.33	1734.63
525.53	1910.75
525.73	1736.68
525.93	1730.53
526.13	1746.92
526.32	1699.81
526.52	1820.64
526.72	1822.69
526.92	1777.64
527.12	1746.92
527.32	1693.67
527.52	1757.16
527.71	1736.68
527.91	1734.63
528.11	1691.62
528.31	1695.72
528.51	1708.01
528.71	1718.25
528.90	1845.22
529.10	1763.30
529.30	1800.16
529.50	1576.94
529.70	1791.97
529.90	1687.53
530.09	1789.92
530.29	1671.14
530.49	1644.52
530.69	1918.95
530.89	1755.11
531.09	1654.76
531.28	1714.15
531.48	1818.60
531.68	1759.21
531.88	1755.11
532.08	1812.45
532.28	1718.25
532.47	1759.21
532.67	1804.26
532.87	1773.54
533.07	1691.62
533.27	1794.02
533.46	1796.07
533.66	1736.68
533.86	1787.88
534.06	1734.63
534.26	1755.11
534.45	1685.48
534.65	1748.97
534.85	1818.60
535.05	1665.00
535.25	1787.88
535.44	1642.47
535.64	1742.82
535.84	1748.97
536.04	1701.86
536.24	1675.24
536.43	1617.90
536.63	1816.55
536.83	1687.53
537.03	1720.29
537.22	1701.86
537.42	1669.09
537.62	1791.97
537.82	1626.09
538.02	1769.44
538.21	1769.44
538.41	1867.75
538.61	1742.82
538.81	1767.40
539.00	1818.60
539.20	1597.42
539.40	1732.58
539.60	1705.96
539.79	1845.22
539.99	1759.21
540.19	1716.20
540.39	1748.97
540.58	1775.59
540.78	1744.87
540.98	1722.34
541.18	1812.45
541.37	1818.60
541.57	1734.63
541.77	1808.36
541.97	1693.67
542.16	1675.24
542.36	1654.76
542.56	1720.29
542.76	1871.84
542.95	1783.78
543.15	1791.97
543.35	1828.84
543.54	1716.20
543.74	1714.15
543.94	1785.83
544.14	1716.20
544.33	1779.68
544.53	1716.20
544.73	1746.92
544.93	1773.54
545.12	1718.25
545.32	1712.10
545.52	1714.15
545.71	1671.14
545.91	1810.40
546.11	1773.54
546.30	1753.06
546.50	1716.20
546.70	1744.87
546.90	1722.34
547.09	1746.92
547.29	1783.78
547.49	1777.64
547.68	1730.53
547.88	1642.47
548.08	1730.53
548.27	2217.95
548.47	1726.44
548.67	1705.96
548.87	1673.19
549.06	1699.81
549.26	1748.97
549.46	1845.22
549.65	1673.19
549.85	1742.82
550.05	1726.44
550.24	1654.76
550.44	1654.76
550.64	1783.78
550.83	1769.44
551.03	1877.99
551.23	1761.25
551.42	1748.97
551.62	1763.30
551.82	1757.16
552.01	1779.68
552.21	1785.83
552.41	1681.38
552.60	1779.68
552.80	1796.07
553.00	1712.10
553.19	1808.36
553.39	1763.30
553.59	1615.85
553.78	1738.73
553.98	1734.63
554.17	1667.05
554.37	1705.96
554.57	1755.11
554.76	1677.29
554.96	1738.73
555.16	1763.30
555.35	1775.59
555.55	1667.05
555.75	1865.70
555.94	1755.11
556.14	1679.33
556.33	1798.12
556.53	1710.05
556.73	1771.49
556.92	1796.07
557.12	1816.55
557.32	1898.47
557.51	1763.30
557.71	1763.30
557.90	1853.41
558.10	1832.93
558.30	1699.81
558.49	1781.73
558.69	1728.49
558.88	1841.12
559.08	1845.22
559.28	1687.53
559.47	1689.57
559.67	1785.83
559.86	1867.75
560.06	1742.82
560.26	1687.53
560.45	1755.11
560.65	1771.49
560.84	1789.92
561.04	1763.30
561.24	1779.68
561.43	1675.24
561.63	1826.79
561.82	1701.86
562.02	1738.73
562.22	1640.42
562.41	1673.19
562.61	1748.97
562.80	1751.01
563.00	1894.37
563.19	1767.40
563.39	1773.54
563.59	1753.06
563.78	1660.90
563.98	1665.00
564.17	1658.85
564.37	1656.81
564.56	1730.53
564.76	1689.57
564.96	1796.07
565.15	1742.82
565.35	1916.90
565.54	1660.90
565.74	1673.19
565.93	1779.68
566.13	1603.56
566.32	1728.49
566.52	1732.58
566.71	1763.30
566.91	1779.68
567.11	1738.73
567.30	1730.53
567.50	1740.77
567.69	1806.31
567.89	1777.64
568.08	1716.20
568.28	1787.88
568.47	1687.53
568.67	1746.92
568.86	1685.48
569.06	1740.77
569.25	1744.87
569.45	1652.71
569.64	1783.78
569.84	1638.38
570.04	1656.81
570.23	1748.97
570.43	1761.25
570.62	1714.15
570.82	1796.07
571.01	1662.95
571.21	1699.81
571.40	1615.85
571.60	1779.68
571.79	1730.53
571.99	1744.87
572.18	1775.59
572.38	1765.35
572.57	1751.01
572.77	1759.21
572.96	1937.38
573.16	1800.16
573.35	1753.06
573.55	1828.84
573.74	1773.54
573.94	1710.05
574.13	1699.81
574.33	1785.83
574.52	1800.16
574.71	1746.92
574.91	1808.36
575.10	1632.23
575.30	1718.25
575.49	1810.40
575.69	1748.97
575.88	1744.87
576.08	1746.92
576.27	1763.30
576.47	1759.21
576.66	1923.04
576.86	1808.36
577.05	1820.64
577.25	1781.73
577.44	1951.71
577.64	1695.72
577.83	1783.78
578.02	1742.82
578.22	1843.17
578.41	1877.99
578.61	1812.45
578.80	1681.38
579.00	1830.88
579.19	1755.11
579.39	1804.26
579.58	1787.88
579.77	1773.54
579.97	1851.36
580.16	1884.13
580.36	1779.68
580.55	1798.12
580.75	1820.64
580.94	1765.35
581.13	1859.56
581.33	1826.79
581.52	1734.63
581.72	1861.60
581.91	1865.70
582.11	1757.16
582.30	1751.01
582.49	1757.16
582.69	1816.55
582.88	1849.32
583.08	1742.82
583.27	1861.60
583.47	1687.53
583.66	1746.92
583.85	1665.00
584.05	1669.09
584.24	1789.92
584.44	1828.84
584.63	1865.70
584.82	1834.98
585.02	1800.16
585.21	1832.93
585.41	1789.92
585.60	1845.22
585.79	1933.28
585.99	1929.19
586.18	1912.80
586.37	2220.00
586.57	3387.34
586.76	9834.35
586.96	23922.32
587.15	33811.96
587.34	39792.03
587.54	41768.32
587.73	36582.87
587.93	26412.65
588.12	21247.68
588.31	18075.37
588.51	16049.93
588.70	15013.66
588.89	13905.71
589.09	12498.75
589.28	10864.47
589.47	9254.77
589.67	7915.40
589.86	6391.71
590.06	4868.02
590.25	3909.57
590.44	3112.91
590.64	2629.59
590.83	2265.05
591.02	2095.07
591.22	1943.52
591.41	1910.75
591.60	1824.74
591.80	1980.39
591.99	1777.64
592.18	1777.64
592.38	1800.16
592.57	1687.53
592.76	1787.88
592.96	1742.82
593.15	1781.73
593.34	1849.32
593.54	1839.08
593.73	1753.06
593.92	1851.36
594.12	1769.44
594.31	1826.79
594.50	1873.89
594.70	1748.97
594.89	1871.84
595.08	1675.24
595.28	1830.88
595.47	1886.18
595.66	1789.92
595.86	1624.04
596.05	1662.95
596.24	1740.77
596.43	1806.31
596.63	1818.60
596.82	1789.92
597.01	1804.26
597.21	1822.69
597.40	1800.16
597.59	1759.21
597.79	1720.29
597.98	1824.74
598.17	1802.21
598.36	1777.64
598.56	1738.73
598.75	1708.01
598.94	1751.01
599.14	1759.21
599.33	1734.63
599.52	1798.12
599.71	1808.36
599.91	1751.01
600.10	1794.02
600.29	1738.73
600.48	1767.40
600.68	1816.55
600.87	1794.02
601.06	1771.49
601.26	1683.43
601.45	1744.87
601.64	1751.01
601.83	1861.60
602.03	1646.57
602.22	1708.01
602.41	1834.98
602.60	1865.70
602.80	1714.15
602.99	1744.87
603.18	1677.29
603.37	1730.53
603.57	1789.92
603.76	1818.60
603.95	1736.68
604.14	1642.47
604.34	1650.66
604.53	1800.16
604.72	1804.26
604.91	1830.88
605.10	1755.11
605.30	1681.38
605.49	1837.03
605.68	1867.75
605.87	1703.91
606.07	1712.10
606.26	1736.68
606.45	1810.40
606.64	1724.39
606.84	1742.82
607.03	1748.97
607.22	1839.08
607.41	1761.25
607.60	1689.57
607.80	1746.92
607.99	1705.96
608.18	1701.86
608.37	1773.54
608.56	1720.29
608.76	1855.46
608.95	1853.41
609.14	1705.96
609.33	1798.12
609.52	1738.73
609.72	1771.49
609.91	1777.64
610.10	1773.54
610.29	1773.54
610.48	1734.63
610.68	1753.06
610.87	1687.53
611.06	1724.39
611.25	1755.11
611.44	1734.63
611.63	1761.25
611.83	1820.64
612.02	1683.43
612.21	1722.34
612.40	1712.10
612.59	1574.89
612.79	1730.53
612.98	1775.59
613.17	1869.80
613.36	1732.58
613.55	1814.50
613.74	1687.53
613.93	1642.47
614.13	1802.21
614.32	1710.05
614.51	1828.84
614.70	1730.53
614.89	1691.62
615.08	1697.77
615.28	2009.06
615.47	1681.38
615.66	1753.06
615.85	1755.11
616.04	1875.94
616.23	1779.68
616.42	1665.00
616.62	1705.96
616.81	1804.26
617.00	1763.30
617.19	1826.79
617.38	1732.58
617.57	1689.57
617.76	1804.26
617.95	1771.49
618.15	1812.45
618.34	1834.98
618.53	1646.57
618.72	1849.32
618.91	1877.99
619.10	1845.22
619.29	1716.20
619.48	1726.44
619.68	1681.38
619.87	1777.64
620.06	1628.14
620.25	1744.87
620.44	1652.71
620.63	1763.30
620.82	1726.44
621.01	1757.16
621.20	1759.21
621.39	1732.58
621.59	1744.87
621.78	1697.77
621.97	1656.81
622.16	1710.05
622.35	1781.73
622.54	1785.83
622.73	1757.16
622.92	1638.38
623.11	1781.73
623.30	1779.68
623.49	1816.55
623.68	1693.67
623.88	1890.28
624.07	1693.67
624.26	1728.49
624.45	1755.11
624.64	1646.57
624.83	1796.07
625.02	1685.48
625.21	1748.97
625.40	1654.76
625.59	1820.64
625.78	1779.68
625.97	1789.92
626.16	1732.58
626.35	1738.73
626.54	1781.73
626.74	1812.45
626.93	1726.44
627.12	1710.05
627.31	1810.40
627.50	1732.58
627.69	1794.02
627.88	1699.81
628.07	1699.81
628.26	1603.56
628.45	1630.18
628.64	1632.23
628.83	1685.48
629.02	1650.66
629.21	1798.12
629.40	1742.82
629.59	1662.95
629.78	1714.15
629.97	1714.15
630.16	1665.00
630.35	1691.62
630.54	1712.10
630.73	1662.95
630.92	1759.21
631.11	1597.42
631.30	1642.47
631.49	1841.12
631.68	1820.64
631.87	1730.53
632.06	1638.38
632.25	1855.46
632.44	1697.77
632.63	1679.33
632.82	1699.81
633.01	1705.96
633.20	1726.44
633.39	1734.63
633.58	1607.66
633.77	1724.39
633.96	1697.77
634.15	1761.25
634.34	1738.73
634.53	1701.86
634.72	1738.73
634.91	1681.38
635.10	1701.86
635.29	1810.40
635.48	1671.14
635.67	1738.73
635.86	1634.28
636.05	1714.15
636.24	1648.61
636.43	1681.38
636.62	1791.97
636.81	1564.65
637.00	1724.39
637.19	1673.19
637.38	1677.29
637.57	1728.49
637.76	1705.96
637.95	1718.25
638.14	1697.77
638.33	1646.57
638.52	1705.96
638.71	1650.66
638.89	1677.29
639.08	1791.97
639.27	1800.16
639.46	1673.19
639.65	1730.53
639.84	1746.92
640.03	1808.36
640.22	1689.57
640.41	1791.97
640.60	1740.77
640.79	1796.07
640.98	1722.34
641.17	1759.21
641.36	1683.43
641.55	1740.77
641.74	1648.61
641.92	1718.25
642.11	1656.81
642.30	1732.58
642.49	1705.96
642.68	1722.34
642.87	1761.25
643.06	1759.21
643.25	1724.39
643.44	1705.96
643.63	1695.72
643.82	1834.98
644.00	1654.76
644.19	1691.62
644.38	1716.20
644.57	1681.38
644.76	1785.83
644.95	1699.81
645.14	1687.53
645.33	1705.96
645.52	1736.68
645.71	1687.53
645.89	1640.42
646.08	1765.35
646.27	1722.34
646.46	1873.89
646.65	1683.43
646.84	1701.86
647.03	1689.57
647.22	1789.92
647.40	1759.21
647.59	1697.77
647.78	1607.66
647.97	1718.25
648.16	1673.19
648.35	1730.53
648.54	1843.17
648.73	1779.68
648.91	1775.59
649.10	1820.64
649.29	1681.38
649.48	1734.63
649.67	1701.86
649.86	1744.87
650.05	1626.09
650.23	1777.64
650.42	1679.33
650.61	1701.86
650.80	1722.34
650.99	1834.98
651.18	1751.01
651.36	1787.88
651.55	1734.63
651.74	1695.72
651.93	1767.40
652.12	1656.81
652.31	1744.87
652.49	1775.59
652.68	1691.62
652.87	1765.35
653.06	1703.91
653.25	1865.70
653.44	1763.30
653.62	1808.36
653.81	1697.77
654.00	1724.39
654.19	1769.44
654.38	1806.31
654.56	1697.77
654.75	1667.05
654.94	1796.07
655.13	1730.53
655.32	1722.34
655.51	1777.64
655.69	1681.38
655.88	1759.21
656.07	1662.95
656.26	1708.01
656.45	1689.57
656.63	1771.49
656.82	1802.21
657.01	1763.30
657.20	1679.33
657.38	1812.45
657.57	1667.05
657.76	1599.46
657.95	1675.24
658.14	1730.53
658.32	1658.85
658.51	1587.18
658.70	1759.21
658.89	1779.68
659.08	1757.16
659.26	1775.59
659.45	1681.38
659.64	1738.73
659.83	1605.61
660.01	1877.99
660.20	1712.10
660.39	1839.08
660.58	1585.13
660.76	1738.73
660.95	1642.47
661.14	1671.14
661.33	1708.01
661.51	1665.00
661.70	1628.14
661.89	1843.17
662.08	1751.01
662.26	1718.25
662.45	1650.66
662.64	1763.30
662.83	1779.68
663.01	1662.95
663.20	1708.01
663.39	1822.69
663.58	1710.05
663.76	1751.01
663.95	1738.73
664.14	1652.71
664.32	1681.38
664.51	1736.68
664.70	1599.46
664.89	1787.88
665.07	1691.62
665.26	1794.02
665.45	1738.73
665.64	1705.96
665.82	1800.16
666.01	1775.59
666.20	1738.73
666.38	1820.64
666.57	1832.93
666.76	2209.76
666.95	4433.85
667.13	10479.46
667.32	15136.54
667.51	18065.13
667.69	19009.25
667.88	17641.20
668.07	12240.71
668.25	9564.01
668.44	8136.58
668.63	7368.59
668.81	6692.76
669.00	6373.28
669.19	5650.35
669.38	5066.67
669.56	4620.22
669.75	3968.96
669.94	3424.20
670.12	2951.12
670.31	2582.49
670.50	2310.11
670.68	2082.78
670.87	2000.87
671.06	1853.41
671.24	1853.41
671.43	1820.64
671.62	1742.82
671.80	1699.81
671.99	1738.73
672.18	1714.15
672.36	1812.45
672.55	1691.62
672.74	1773.54
672.92	1726.44
673.11	1689.57
673.29	1665.00
673.48	1728.49
673.67	1701.86
673.85	1728.49
674.04	1652.71
674.23	1734.63
674.41	1767.40
674.60	1630.18
674.79	1683.43
674.97	1652.71
675.16	1871.84
675.34	1800.16
675.53	1671.14
675.72	1853.41
675.90	1832.93
676.09	1720.29
676.28	1621.99
676.46	1695.72
676.65	1667.05
676.83	1679.33
677.02	1748.97
677.21	1734.63
677.39	1699.81
677.58	1624.04
677.77	1665.00
677.95	1650.66
678.14	1720.29
678.32	1697.77
678.51	1708.01
678.70	1894.37
678.88	1677.29
679.07	1689.57
679.25	1705.96
679.44	1738.73
679.63	1691.62
679.81	1722.34
680.00	1710.05
680.18	1808.36
680.37	1800.16
680.55	1714.15
680.74	1728.49
680.93	1556.46
681.11	1683.43
681.30	1734.63
681.48	1683.43
681.67	1716.20
681.85	1761.25
682.04	1589.22
682.23	1794.02
682.41	1712.10
682.60	1746.92
682.78	1748.97
682.97	1673.19
683.15	1710.05
683.34	1652.71
683.53	1779.68
683.71	1617.90
683.90	1736.68
684.08	1800.16
684.27	1732.58
684.45	1787.88
684.64	1787.88
684.82	1648.61
685.01	1769.44
685.19	1734.63
685.38	1873.89
685.57	1669.09
685.75	1609.70
685.94	1699.81
686.12	1710.05
686.31	1636.33
686.49	1775.59
686.68	1619.94
686.86	1656.81
687.05	1746.92
687.23	1853.41
687.42	1712.10
687.60	1658.85
687.79	1789.92
687.97	1779.68
688.16	1695.72
688.34	1755.11
688.53	1599.46
688.71	1753.06
688.90	1738.73
689.08	1697.77
689.27	1628.14
689.45	1759.21
689.64	1769.44
689.82	1710.05
690.01	1718.25
690.19	1767.40
690.38	1660.90
690.56	1724.39
690.75	1636.33
690.93	1763.30
691.12	1730.53
691.30	1763.30
691.49	1646.57
691.67	1665.00
691.86	1818.60
692.04	1708.01
692.23	1763.30
692.41	1585.13
692.60	1810.40
692.78	1697.77
692.97	1751.01
693.15	1736.68
693.34	1808.36
693.52	1746.92
693.71	1609.70
693.89	1689.57
694.08	1650.66
694.26	1736.68
694.44	1738.73
694.63	1775.59
694.81	1730.53
695.00	1738.73
695.18	1751.01
695.37	1855.46
695.55	1716.20
695.74	1691.62
695.92	1710.05
696.10	1820.64
696.29	1662.95
696.47	1658.85
696.66	1597.42
696.84	1681.38
697.03	1779.68
697.21	1839.08
697.40	2346.97
697.58	1744.87
697.76	1689.57
697.95	1652.71
698.13	1761.25
698.32	1695.72
698.50	1789.92
698.68	1824.74
698.87	1742.82
699.05	1886.18
699.24	1763.30
699.42	1738.73
699.61	1697.77
699.79	1755.11
699.97	1708.01
700.16	1673.19
700.34	1677.29
700.53	1714.15
700.71	1818.60
700.89	1736.68
701.08	1710.05
701.26	1734.63
701.45	2076.64
701.63	1648.61
701.81	1759.21
702.00	1701.86
702.18	1722.34
702.37	1617.90
702.55	1753.06
702.73	1738.73
702.92	1634.28
703.10	1802.21
703.28	1738.73
703.47	1681.38
703.65	1814.50
703.84	1722.34
704.02	1748.97
704.20	1892.32
704.39	1595.37
704.57	1714.15
704.75	1781.73
704.94	1775.59
705.12	1775.59
705.30	1816.55
705.49	2189.28
705.67	4466.62
705.86	9234.29
706.04	12220.23
706.22	14343.97
706.41	15124.25
706.59	13692.72
706.77	9510.77
706.96	7286.67
707.14	6395.81
707.32	5924.77
707.51	5613.48
707.69	4851.64
707.87	4233.15
708.06	3469.26
708.24	2912.21
708.42	2453.47
708.61	2273.25
708.79	1941.47
708.97	1832.93
709.16	1869.80
709.34	1761.25
709.52	1769.44
709.71	1875.94
709.89	1751.01
710.07	1701.86
710.26	1642.47
710.44	1753.06
710.62	1716.20
710.80	1681.38
710.99	1781.73
711.17	1753.06
711.35	1630.18
711.54	1728.49
711.72	1779.68
711.90	1744.87
712.09	1742.82
712.27	1648.61
712.45	1724.39
712.63	1699.81
712.82	1751.01
713.00	1656.81
713.18	1816.55
713.37	1806.31
713.55	1738.73
713.73	1777.64
713.91	1761.25
714.10	1615.85
714.28	1734.63
714.46	1734.63
714.65	1667.05
714.83	1742.82
715.01	1746.92
715.19	1765.35
715.38	1654.76
715.56	1751.01
715.74	1644.52
715.92	1638.38
716.11	1800.16
716.29	1591.27
716.47	1722.34
716.65	1738.73
716.84	1599.46
717.02	1794.02
717.20	1607.66
717.38	1628.14
717.57	1718.25
717.75	1699.81
717.93	1669.09
718.11	1771.49
718.30	1679.33
718.48	1740.77
718.66	1806.31
718.84	1722.34
719.03	1658.85
719.21	1646.57
719.39	1824.74
719.57	1728.49
719.75	1791.97
719.94	1658.85
720.12	1734.63
720.30	1699.81
720.48	1714.15
720.67	1687.53
720.85	1617.90
721.03	1787.88
721.21	1675.24
721.39	1814.50
721.58	1765.35
721.76	1724.39
721.94	1798.12
722.12	1695.72
722.30	1851.36
722.49	1656.81
722.67	1654.76
722.85	1796.07
723.03	1617.90
723.21	1634.28
723.40	1718.25
723.58	1726.44
723.76	1734.63
723.94	1769.44
724.12	1765.35
724.30	1837.03
724.49	1748.97
724.67	1603.56
724.85	1769.44
725.03	1632.23
725.21	1705.96
725.40	1802.21
725.58	1695.72
725.76	1812.45
725.94	1630.18
726.12	1697.77
726.30	1746.92
726.49	1714.15
726.67	1665.00
726.85	1693.67
727.03	1804.26
727.21	2144.22
727.39	2893.78
727.57	3809.22
727.76	4235.20
727.94	4419.52
728.12	4267.97
728.30	3794.89
728.48	2965.46
728.66	2805.72
728.84	2547.67
729.03	2260.96
729.21	2168.80
729.39	1978.34
729.57	1865.70
729.75	1871.84
729.93	1867.75
730.11	1697.77
730.30	1640.42
730.48	1714.15
730.66	1732.58
730.84	1847.27
731.02	1619.94
731.20	1757.16
731.38	1710.05
731.56	1677.29
731.74	1689.57
731.93	1648.61
732.11	1669.09
732.29	1687.53
732.47	1734.63
732.65	1742.82
732.83	1751.01
733.01	1794.02
733.19	1675.24
733.37	1677.29
733.56	1673.19
733.74	1662.95
733.92	1837.03
734.10	1718.25
734.28	1746.92
734.46	1626.09
734.64	1654.76
734.82	1656.81
735.00	1652.71
735.18	1712.10
735.36	1683.43
735.54	1759.21
735.73	1751.01
735.91	1820.64
736.09	1742.82
736.27	1712.10
736.45	1724.39
736.63	1587.18
736.81	1632.23
736.99	1798.12
737.17	1736.68
737.35	1685.48
737.53	1722.34
737.71	1736.68
737.89	1755.11
738.07	1771.49
738.25	1644.52
738.43	1746.92
738.61	1617.90
738.80	1673.19
738.98	1675.24
739.16	1634.28
739.34	1658.85
739.52	1783.78
739.70	1746.92
739.88	1755.11
740.06	1812.45
740.24	1613.80
740.42	1761.25
740.60	1570.79
740.78	1630.18
740.96	1665.00
741.14	1751.01
741.32	1671.14
741.50	1619.94
741.68	1812.45
741.86	1761.25
742.04	1746.92
742.22	1638.38
742.40	1685.48
742.58	1761.25
742.76	1669.09
742.94	1783.78
743.12	1656.81
743.30	1681.38
743.48	1677.29
743.66	1615.85
743.84	1738.73
744.02	1679.33
744.20	1710.05
744.38	1669.09
744.56	1648.61
744.74	1855.46
744.92	1816.55
745.10	1722.34
745.28	1820.64
745.46	1796.07
745.64	1765.35
745.82	1736.68
746.00	1693.67
746.18	1695.72
746.36	1732.58
746.54	1777.64
746.72	1705.96
746.90	1615.85
747.08	1804.26
747.26	1726.44
747.44	1751.01
747.62	1779.68
747.80	1738.73
747.98	1832.93
748.15	1599.46
748.33	1765.35
748.51	1720.29
748.69	1755.11
748.87	1675.24
749.05	1746.92
749.23	1650.66
749.41	1779.68
749.59	1701.86
749.77	1763.30
749.95	1724.39
750.13	1701.86
750.31	1765.35
750.49	1708.01
750.67	1791.97
750.85	1695.72
751.03	1738.73
751.20	1832.93
751.38	1710.05
751.56	1693.67
751.74	1724.39
751.92	1646.57
752.10	1611.75
752.28	1771.49
752.46	1636.33
752.64	1708.01
752.82	1724.39
753.00	1740.77
753.18	1742.82
753.35	1685.48
753.53	1691.62
753.71	1687.53
753.89	1746.92
754.07	1748.97
754.25	1806.31
754.43	1675.24
754.61	1587.18
754.79	1697.77
754.97	1708.01
755.14	1802.21
755.32	1667.05
755.50	1660.90
755.68	1710.05
755.86	1609.70
756.04	1689.57
756.22	1669.09
756.40	1787.88
756.57	1865.70
756.75	1730.53
756.93	1783.78
757.11	1787.88
757.29	1597.42
757.47	1632.23
757.65	1572.84
757.82	1621.99
758.00	1722.34
758.18	1556.46
758.36	1642.47
758.54	1775.59
758.72	1656.81
758.90	1804.26
759.07	1767.40
759.25	1611.75
759.43	1689.57
759.61	1636.33
759.79	2199.52
759.97	1730.53
760.15	1716.20
760.32	1751.01
760.50	1716.20
760.68	1785.83
760.86	1654.76
761.04	1808.36
761.22	1781.73
761.39	1732.58
761.57	1718.25
761.75	1718.25
761.93	1832.93
762.11	1746.92
762.28	1757.16
762.46	1693.67
762.64	1748.97
762.82	1615.85
763.00	1634.28
763.18	1765.35
763.35	1566.70
763.53	1783.78
763.71	1734.63
763.89	1734.63
764.07	1656.81
764.24	1824.74
764.42	1720.29
764.60	1763.30
764.78	1765.35
764.96	1728.49
765.13	1800.16
765.31	1728.49
765.49	1748.97
765.67	1638.38
765.84	1646.57
766.02	1662.95
766.20	1673.19
766.38	1777.64
766.56	1804.26
766.73	1755.11
766.91	1736.68
767.09	1724.39
767.27	1759.21
767.44	1595.37
767.62	1716.20
767.80	1785.83
767.98	1722.34
768.15	1699.81
768.33	1755.11
768.51	1755.11
768.69	1753.06
768.87	1777.64
769.04	1685.48
769.22	1871.84
769.40	1787.88
769.58	1871.84
769.75	1726.44
769.93	1773.54
770.11	1685.48
770.28	1632.23
770.46	1763.30
770.64	1734.63
770.82	1677.29
770.99	1689.57
771.17	1708.01
771.35	1677.29
771.53	1705.96
771.70	1722.34
771.88	1738.73
772.06	1710.05
772.23	1683.43
772.41	1748.97
772.59	1669.09
772.77	1673.19
772.94	1687.53
773.12	1728.49
773.30	1665.00
773.47	1695.72
773.65	1644.52
773.83	1789.92
774.01	1767.40
774.18	1650.66
774.36	1652.71
774.54	1685.48
774.71	1736.68
774.89	1628.14
775.07	1730.53
775.24	1720.29
775.42	1685.48
775.60	1867.75
775.78	1669.09
775.95	1689.57
776.13	1578.98
776.31	1593.32
776.48	1753.06
776.66	1742.82
776.84	1724.39
777.01	1654.76
777.19	1699.81
777.37	1699.81
777.54	1765.35
777.72	1853.41
777.90	1697.77
778.07	1722.34
778.25	1869.80
778.43	1791.97
778.60	1621.99
778.78	1751.01
778.96	1775.59
779.13	1662.95
779.31	1708.01
779.49	1689.57
779.66	1722.34
779.84	1730.53
780.01	1718.25
780.19	1691.62
780.37	1765.35
780.54	1808.36
780.72	1710.05
780.90	1667.05
781.07	1665.00
781.25	1767.40
781.43	1753.06
781.60	1638.38
781.78	1816.55
781.95	1683.43
782.13	1763.30
782.31	1677.29
782.48	1677.29
782.66	1710.05
782.83	1781.73
783.01	1789.92
783.19	1777.64
783.36	1697.77
783.54	1601.51
783.72	1806.31
783.89	1701.86
784.07	1718.25
784.24	1744.87
784.42	1708.01
784.60	1642.47
784.77	1693.67
784.95	1689.57
785.12	1634.28
785.30	1701.86
785.47	1726.44
785.65	1660.90
785.83	1693.67
786.00	1689.57
786.18	1742.82
786.35	1642.47
786.53	1677.29
786.71	1742.82
786.88	1755.11
787.06	1681.38
787.23	1710.05
787.41	1628.14
787.58	1650.66
787.76	1703.91
787.94	1699.81
788.11	1738.73
788.29	1730.53
788.46	1646.57
788.64	1640.42
788.81	1679.33
788.99	1642.47
789.16	1636.33
789.34	1732.58
789.52	1671.14
789.69	1738.73
789.87	1667.05
790.04	1669.09
790.22	1740.77
790.39	1810.40
790.57	1675.24
790.74	1640.42
790.92	1763.30
791.09	1613.80
791.27	1701.86
791.44	1716.20
791.62	1722.34
791.79	1767.40
791.97	1759.21
792.15	1931.23
792.32	1730.53
792.50	1710.05
792.67	1763.30
792.85	1798.12
793.02	1714.15
793.20	1791.97
793.37	1617.90
793.55	1718.25
793.72	1671.14
793.90	1746.92
794.07	1714.15
794.25	1681.38
794.42	1689.57
794.60	1744.87
794.77	1748.97
794.95	1669.09
795.12	1744.87
795.30	1607.66
795.47	1576.94
795.65	1826.79
795.82	1814.50
796.00	1703.91
796.17	1742.82
796.34	1660.90
796.52	1732.58
796.69	1806.31
796.87	1712.10
797.04	1697.77
797.22	1708.01
797.39	1755.11
797.57	1734.63
797.74	1763.30
797.92	1722.34
798.09	1632.23
798.27	1785.83
798.44	1791.97
798.62	1728.49
798.79	1716.20
798.96	1728.49
799.14	1726.44
799.31	1863.65
799.49	1736.68
799.66	1617.90
799.84	1746.92
800.01	1658.85
800.19	1751.01
800.36	1660.90
800.53	1720.29
800.71	1677.29
800.88	1812.45
801.06	1669.09
801.23	1703.91
801.41	1734.63
801.58	1673.19
801.75	1718.25
801.93	1734.63
802.10	1771.49
802.28	1642.47
802.45	1669.09
802.63	1687.53
802.80	1767.40
802.97	1642.47
803.15	1761.25
803.32	1654.76
803.50	1587.18
803.67	1630.18
803.84	1652.71
804.02	1699.81
804.19	1609.70
804.37	1652.71
804.54	1693.67
804.71	1656.81
804.89	1669.09
805.06	1656.81
805.24	1638.38
805.41	1716.20
805.58	1695.72
805.76	1890.28
805.93	1667.05
806.10	1787.88
806.28	1824.74
806.45	1787.88
806.63	1689.57
806.80	1703.91
806.97	1783.78
807.15	1757.16
807.32	1720.29
807.49	1783.78
807.67	1683.43
807.84	1755.11
808.01	1654.76
808.19	1824.74
808.36	1861.60
808.54	1742.82
808.71	1621.99
808.88	1693.67
809.06	1771.49
809.23	1824.74
809.40	1708.01
809.58	1740.77
809.75	1753.06
809.92	1628.14
810.10	1877.99
810.27	1705.96
810.44	1714.15
810.62	1746.92
810.79	1726.44
810.96	1640.42
811.14	1619.94
811.31	1732.58
811.48	1730.53
811.66	1687.53
811.83	1787.88
812.00	1773.54
812.18	1611.75
812.35	1779.68
812.52	1693.67
812.69	1673.19
812.87	1671.14
813.04	1611.75
813.21	1689.57
813.39	1640.42
813.56	1695.72
813.73	1712.10
813.91	1693.67
814.08	1650.66
814.25	1677.29
814.42	1609.70
814.60	1677.29
814.77	1726.44
814.94	1705.96
815.12	1763.30
815.29	1851.36
815.46	1603.56
815.63	1718.25
815.81	1705.96
815.98	1740.77
816.15	1722.34
816.33	1683.43
816.50	1677.29
816.67	1718.25
816.84	1671.14
817.02	1634.28
817.19	1699.81
817.36	1808.36
817.53	1679.33
817.71	1742.82
817.88	1734.63
818.05	1718.25
818.22	1744.87
818.40	1843.17
818.57	1701.86
818.74	1687.53
818.91	1671.14
819.09	1755.11
819.26	1759.21
819.43	1724.39
819.60	1724.39
819.78	1724.39
819.95	1787.88
820.12	1705.96
820.29	1701.86
820.47	1699.81
820.64	1681.38
820.81	1615.85
820.98	1689.57
821.15	1726.44
821.33	1730.53
821.50	1667.05
821.67	1718.25
821.84	1732.58
822.02	1714.15
822.19	1771.49
822.36	1638.38
822.53	1683.43
822.70	1632.23
822.88	1738.73
823.05	1775.59
823.22	1714.15
823.39	1712.10
823.56	1734.63
823.74	1798.12
823.91	1701.86
824.08	1609.70
824.25	1767.40
824.42	1777.64
824.60	1630.18
824.77	1755.11
824.94	1679.33
825.11	1751.01
825.28	1658.85
825.45	1669.09
825.63	1681.38
825.80	1656.81
825.97	1771.49
826.14	1693.67
826.31	1679.33
826.48	1693.67
826.66	1687.53
826.83	1665.00
827.00	1763.30
827.17	1683.43
827.34	1673.19
827.51	1642.47
827.69	1626.09
827.86	1732.58
828.03	1654.76
828.20	1597.42
828.37	1703.91
828.54	1759.21
828.71	1718.25
828.89	1800.16
829.06	1624.04
829.23	1732.58
829.40	1648.61
829.57	1681.38
829.74	1753.06
829.91	1746.92
830.09	1691.62
830.26	1716.20
830.43	1798.12
830.60	1712.10
830.77	1693.67
830.94	1779.68
831.11	1736.68
831.28	1787.88
831.46	1736.68
831.63	1662.95
831.80	1804.26
831.97	1677.29
832.14	1705.96
832.31	1722.34
832.48	1720.29
832.65	1841.12
832.82	1667.05
832.99	1740.77
833.17	1644.52
833.34	1759.21
833.51	1765.35
833.68	1634.28
833.85	1765.35
834.02	1658.85
834.19	1671.14
834.36	1673.19
834.53	1722.34
834.70	1789.92
834.87	1675.24
835.04	1689.57
835.22	1626.09
835.39	1759.21
835.56	1642.47
835.73	1687.53
835.90	1761.25
836.07	1648.61
836.24	1783.78
836.41	1650.66
836.58	1615.85
836.75	1789.92
836.92	1677.29
837.09	1677.29
837.26	1783.78
837.43	1695.72
837.60	1757.16
837.77	1687.53
837.94	1710.05
838.12	1748.97
838.29	1744.87
838.46	1679.33
838.63	1724.39
838.80	1800.16
838.97	1748.97
839.14	1787.88
839.31	1665.00
839.48	1689.57
839.65	1632.23
839.82	1794.02
839.99	1714.15
840.16	1730.53
840.33	1726.44
840.50	1607.66
840.67	1681.38
840.84	1595.37
841.01	1767.40
841.18	1640.42
841.35	1718.25
841.52	1791.97
841.69	1787.88
841.86	1722.34
842.03	1652.71
842.20	1802.21
842.37	1714.15
842.54	1667.05
842.71	1740.77
842.88	1640.42
843.05	1714.15
843.22	1699.81
843.39	1728.49
843.56	1685.48
843.73	1720.29
843.90	1748.97
844.07	1716.20
844.24	1810.40
844.41	1736.68
844.58	1677.29
844.75	1783.78
844.92	1726.44
845.09	1644.52
845.26	1708.01
845.43	1701.86
845.60	1646.57
845.77	1798.12
845.94	1699.81
846.10	1732.58
846.27	1681.38
846.44	1683.43
846.61	1695.72
846.78	1742.82
846.95	1718.25
847.12	1730.53
847.29	1667.05
847.46	1693.67
847.63	1822.69
847.80	1646.57
847.97	1667.05
848.14	1783.78
848.31	1652.71
848.48	1654.76
848.65	1746.92
848.82	1716.20
848.98	1820.64
849.15	1826.79
849.32	1748.97
849.49	1726.44
849.66	1683.43
849.83	1726.44
850.00	1632.23
850.17	1769.44
850.34	1722.34
850.51	1652.71
850.68	1632.23
850.85	1808.36
851.01	1791.97
851.18	1744.87
851.35	1705.96
851.52	1701.86
851.69	1884.13
851.86	1640.42
852.03	1640.42
852.20	1703.91
852.37	1738.73
852.53	1648.61
852.70	1634.28
852.87	1730.53
853.04	1830.88
853.21	1726.44
853.38	1740.77
853.55	1791.97
853.72	1671.14
853.89	1660.90
854.05	1665.00
854.22	1605.61
854.39	1691.62
854.56	1681.38
854.73	1746.92
854.90	1722.34
855.07	1734.63
855.23	1638.38
855.40	1726.44
855.57	1730.53
855.74	1689.57
855.91	1892.32
856.08	1642.47
856.25	1644.52
856.41	1673.19
856.58	1701.86
856.75	1691.62
856.92	1695.72
857.09	1787.88
857.26	1697.77
857.42	1689.57
857.59	1814.50
857.76	1695.72
857.93	1722.34
858.10	1703.91
858.27	1652.71
858.43	1730.53
858.60	1701.86
858.77	1574.89
858.94	1638.38
859.11	1759.21
859.27	1699.81
859.44	1621.99
859.61	1781.73
859.78	1753.06
859.95	1720.29
860.12	1722.34
860.28	1806.31
860.45	1851.36
860.62	1675.24
860.79	1714.15
860.95	1720.29
861.12	1667.05
861.29	1669.09
861.46	1681.38
861.63	1718.25
861.79	1734.63
861.96	1695.72
862.13	1732.58
862.30	1763.30
862.47	1613.80
862.63	1699.81
862.80	1746.92
862.97	1759.21
863.14	1744.87
863.30	1751.01
863.47	1675.24
863.64	1785.83
863.81	1722.34
863.97	1714.15
864.14	1714.15
864.31	1667.05
864.48	1777.64
864.65	1775.59
864.81	1736.68
864.98	1708.01
865.15	1773.54
865.32	1712.10
865.48	1800.16
865.65	1806.31
865.82	1665.00
865.98	1656.81
866.15	1693.67
866.32	1777.64
866.49	1650.66
866.65	1746.92
866.82	1703.91
866.99	1728.49
867.16	1722.34
867.32	1669.09
867.49	1683.43
867.66	1726.44
867.83	1685.48
867.99	1648.61
868.16	1740.77
868.33	1595.37
868.49	1740.77
868.66	1652.71
868.83	1755.11
868.99	1689.57
869.16	1730.53
869.33	1773.54
869.50	1783.78
869.66	1703.91
869.83	1660.90
870.00	1603.56
870.16	1761.25
870.33	1724.39
870.50	1705.96
870.66	1699.81
870.83	1746.92
871.00	1656.81
871.17	1710.05
871.33	1699.81
871.50	1712.10
871.67	1677.29
871.83	1583.08
872.00	1710.05
872.17	1712.10
872.33	1802.21
872.50	1794.02
872.67	1681.38
872.83	1710.05
873.00	1708.01
873.17	1681.38
873.33	1697.77
873.50	1763.30
873.67	1679.33
873.83	1691.62
874.00	1695.72
874.16	1771.49
874.33	1716.20
874.50	1624.04
874.66	1767.40
874.83	1767.40
875.00	1777.64
875.16	1746.92
875.33	1845.22
875.50	1658.85
875.66	1675.24
875.83	1804.26
875.99	1755.11
876.16	1624.04
876.33	1660.90
876.49	1660.90
876.66	1740.77
876.83	1695.72
876.99	1665.00
877.16	1716.20
877.32	1628.14
877.49	1638.38
877.66	1730.53
877.82	1765.35
877.99	1695.72
878.15	1789.92
878.32	1804.26
878.49	1669.09
878.65	1703.91
878.82	1761.25
878.98	1689.57
879.15	1746.92
879.32	1718.25
879.48	1679.33
879.65	1701.86
879.81	1648.61
879.98	1656.81
880.15	1712.10
880.31	1687.53
880.48	1644.52
880.64	1771.49
880.81	1701.86
880.97	1834.98
881.14	1783.78
881.31	1640.42
881.47	1826.79
881.64	1642.47
881.80	1652.71
881.97	1681.38
882.13	1787.88
882.30	1603.56
882.47	1673.19
882.63	1621.99
882.80	1681.38
882.96	1701.86
883.13	1710.05
883.29	1697.77
883.46	1769.44
883.62	1779.68
883.79	1658.85
883.95	1759.21
884.12	1689.57
884.29	1777.64
884.45	1722.34
884.62	1783.78
884.78	1644.52
884.95	1794.02
885.11	1710.05
885.28	1726.44
885.44	1695.72
885.61	1765.35
885.77	1755.11
885.94	1783.78
886.10	1673.19
886.27	1714.15
886.43	1681.38
886.60	1742.82
886.76	1609.70
886.93	1677.29
887.09	1720.29
887.26	1552.36
887.42	1705.96
887.59	1816.55
887.75	1812.45
887.92	1738.73
888.08	1740.77
888.25	1812.45
888.41	1779.68
888.58	1652.71
888.74	1595.37
888.91	1703.91
>>>>>End Processed Spectral Data<<<<<
