SpectraSuite Data File
++++++++++++++++++++++++++++++++++++
Date: Mon Jun 06 15:09:17 CEST 2016
User: root
Dark Spectrum Present: No
Reference Spectrum Present: No
Number of Sampled Component Spectra: 1
Spectrometers: USB4C02835
Integration Time (usec): 100000 (USB4C02835)
Spectra Averaged: 1 (USB4C02835)
Boxcar Smoothing: 0 (USB4C02835)
Correct for Electrical Dark: No (USB4C02835)
Strobe/Lamp Enabled: No (USB4C02835)
Correct for Detector Non-linearity: No (USB4C02835)
Correct for Stray Light: No (USB4C02835)
Number of Pixels in Processed Spectrum: 3648
>>>>>Begin Processed Spectral Data<<<<<
177.47	1484.78
177.69	1484.78
177.91	1484.78
178.13	1501.16
178.36	1458.15
178.58	1636.33
178.80	1769.44
179.02	1581.03
179.24	1667.05
179.46	1683.43
179.68	1720.29
179.90	1765.35
180.13	1720.29
180.35	1656.81
180.57	1710.05
180.79	1648.61
181.01	1683.43
181.23	1726.44
181.45	1724.39
181.67	1740.77
181.90	1726.44
182.12	1675.24
182.34	1669.09
182.56	1697.77
182.78	1665.00
183.00	1734.63
183.22	1722.34
183.44	1585.13
183.66	1806.31
183.89	1798.12
184.11	1726.44
184.33	1699.81
184.55	1794.02
184.77	1755.11
184.99	1714.15
185.21	1685.48
185.43	1791.97
185.65	1687.53
185.87	1755.11
186.10	1820.64
186.32	1867.75
186.54	1730.53
186.76	1757.16
186.98	1742.82
187.20	1652.71
187.42	1716.20
187.64	1710.05
187.86	1697.77
188.08	1718.25
188.30	1728.49
188.52	1714.15
188.75	1798.12
188.97	1804.26
189.19	1650.66
189.41	1724.39
189.63	1759.21
189.85	1656.81
190.07	1638.38
190.29	1574.89
190.51	1697.77
190.73	1669.09
190.95	1714.15
191.17	1720.29
191.39	1611.75
191.61	1732.58
191.84	1658.85
192.06	1728.49
192.28	1540.07
192.50	1798.12
192.72	1658.85
192.94	1648.61
193.16	1800.16
193.38	1687.53
193.60	1642.47
193.82	1628.14
194.04	1722.34
194.26	1740.77
194.48	1714.15
194.70	1705.96
194.92	1691.62
195.14	1748.97
195.36	1703.91
195.58	1748.97
195.80	1669.09
196.02	1699.81
196.24	1724.39
196.46	1818.60
196.69	1701.86
196.91	1787.88
197.13	1712.10
197.35	1632.23
197.57	1722.34
197.79	1767.40
198.01	1677.29
198.23	1767.40
198.45	1734.63
198.67	1716.20
198.89	1705.96
199.11	1726.44
199.33	1687.53
199.55	1595.37
199.77	1718.25
199.99	1652.71
200.21	1728.49
200.43	1703.91
200.65	1548.26
200.87	1697.77
201.09	1710.05
201.31	1724.39
201.53	1755.11
201.75	1689.57
201.97	1740.77
202.19	1701.86
202.41	1632.23
202.63	1757.16
202.85	1734.63
203.07	1744.87
203.29	1689.57
203.51	1640.42
203.73	1728.49
203.95	1873.89
204.17	1748.97
204.39	1677.29
204.61	1714.15
204.83	1708.01
205.05	1851.36
205.27	1755.11
205.49	1804.26
205.71	1626.09
205.93	1628.14
206.15	1593.32
206.37	1722.34
206.59	1705.96
206.81	1611.75
207.03	1607.66
207.25	1699.81
207.47	1783.78
207.69	1691.62
207.91	1787.88
208.13	1796.07
208.34	1673.19
208.56	1650.66
208.78	1644.52
209.00	1712.10
209.22	1632.23
209.44	1636.33
209.66	1724.39
209.88	1818.60
210.10	1632.23
210.32	1705.96
210.54	1765.35
210.76	1636.33
210.98	1748.97
211.20	1595.37
211.42	1703.91
211.64	1767.40
211.86	1751.01
212.08	1718.25
212.30	1687.53
212.52	1601.51
212.74	1746.92
212.96	1701.86
213.17	1691.62
213.39	1755.11
213.61	1804.26
213.83	1722.34
214.05	1572.84
214.27	1837.03
214.49	1656.81
214.71	1677.29
214.93	1746.92
215.15	1687.53
215.37	1724.39
215.59	1660.90
215.81	1671.14
216.03	1779.68
216.24	1691.62
216.46	1691.62
216.68	1675.24
216.90	1722.34
217.12	1757.16
217.34	1660.90
217.56	1736.68
217.78	1761.25
218.00	1710.05
218.22	1716.20
218.44	1691.62
218.66	1669.09
218.87	1775.59
219.09	1673.19
219.31	1708.01
219.53	1646.57
219.75	1732.58
219.97	1744.87
220.19	1708.01
220.41	1701.86
220.63	1779.68
220.85	1714.15
221.06	1607.66
221.28	1796.07
221.50	1775.59
221.72	1638.38
221.94	1718.25
222.16	1697.77
222.38	1746.92
222.60	1736.68
222.82	1669.09
223.03	1699.81
223.25	1609.70
223.47	1751.01
223.69	1773.54
223.91	1728.49
224.13	1761.25
224.35	1689.57
224.57	1822.69
224.78	1708.01
225.00	1654.76
225.22	1660.90
225.44	1730.53
225.66	1714.15
225.88	1695.72
226.10	1791.97
226.32	1673.19
226.53	1691.62
226.75	1783.78
226.97	1679.33
227.19	1734.63
227.41	1652.71
227.63	1640.42
227.85	1556.46
228.06	1732.58
228.28	1724.39
228.50	1767.40
228.72	1603.56
228.94	1677.29
229.16	1660.90
229.37	1665.00
229.59	1691.62
229.81	1748.97
230.03	1667.05
230.25	1632.23
230.47	1578.98
230.69	1695.72
230.90	1714.15
231.12	1644.52
231.34	1744.87
231.56	1765.35
231.78	1615.85
232.00	1705.96
232.21	1798.12
232.43	1687.53
232.65	1656.81
232.87	1681.38
233.09	1681.38
233.30	1619.94
233.52	1632.23
233.74	1695.72
233.96	1685.48
234.18	1755.11
234.40	1644.52
234.61	1789.92
234.83	1615.85
235.05	1626.09
235.27	1824.74
235.49	1783.78
235.70	1710.05
235.92	1765.35
236.14	1751.01
236.36	1828.84
236.58	1619.94
236.79	1716.20
237.01	1705.96
237.23	1728.49
237.45	1861.60
237.67	1673.19
237.88	1775.59
238.10	1751.01
238.32	1705.96
238.54	1705.96
238.76	1730.53
238.97	1669.09
239.19	1656.81
239.41	1763.30
239.63	1769.44
239.85	1720.29
240.06	1726.44
240.28	1648.61
240.50	1742.82
240.72	1644.52
240.93	1730.53
241.15	1804.26
241.37	1761.25
241.59	1757.16
241.81	1679.33
242.02	1761.25
242.24	1703.91
242.46	1748.97
242.68	1656.81
242.89	1693.67
243.11	1767.40
243.33	1619.94
243.55	1748.97
243.76	1804.26
243.98	1685.48
244.20	1650.66
244.42	1638.38
244.64	1724.39
244.85	1667.05
245.07	1634.28
245.29	1806.31
245.51	1628.14
245.72	1818.60
245.94	1683.43
246.16	1755.11
246.38	1734.63
246.59	1638.38
246.81	1589.22
247.03	1726.44
247.24	1621.99
247.46	1683.43
247.68	1726.44
247.90	1665.00
248.11	1726.44
248.33	1783.78
248.55	1693.67
248.77	1730.53
248.98	1726.44
249.20	1761.25
249.42	1724.39
249.64	1775.59
249.85	1708.01
250.07	1611.75
250.29	1716.20
250.50	1732.58
250.72	1628.14
250.94	1734.63
251.16	1851.36
251.37	1773.54
251.59	1744.87
251.81	1769.44
252.02	1759.21
252.24	1683.43
252.46	1757.16
252.68	1648.61
252.89	1605.61
253.11	1544.17
253.33	1826.79
253.54	1841.12
253.76	1642.47
253.98	1701.86
254.20	1630.18
254.41	1632.23
254.63	1671.14
254.85	1650.66
255.06	1644.52
255.28	1724.39
255.50	1716.20
255.71	1710.05
255.93	1665.00
256.15	1779.68
256.36	1779.68
256.58	1644.52
256.80	1714.15
257.02	1621.99
257.23	1673.19
257.45	1720.29
257.67	1800.16
257.88	1650.66
258.10	1697.77
258.32	1724.39
258.53	1701.86
258.75	1744.87
258.97	1669.09
259.18	1681.38
259.40	1740.77
259.62	1767.40
259.83	1785.83
260.05	1765.35
260.27	1937.38
260.48	1738.73
260.70	1701.86
260.92	1665.00
261.13	1742.82
261.35	1771.49
261.57	1757.16
261.78	1574.89
262.00	1665.00
262.22	1726.44
262.43	1718.25
262.65	1638.38
262.86	1728.49
263.08	1787.88
263.30	1671.14
263.51	1669.09
263.73	1632.23
263.95	1697.77
264.16	1652.71
264.38	1681.38
264.60	1681.38
264.81	1699.81
265.03	1755.11
265.25	1769.44
265.46	1732.58
265.68	1812.45
265.89	1718.25
266.11	1585.13
266.33	1732.58
266.54	1783.78
266.76	1712.10
266.98	1718.25
267.19	1871.84
267.41	1789.92
267.62	1699.81
267.84	1617.90
268.06	1728.49
268.27	1705.96
268.49	1771.49
268.70	1757.16
268.92	1738.73
269.14	1665.00
269.35	1669.09
269.57	1714.15
269.79	1734.63
270.00	1677.29
270.22	1816.55
270.43	1644.52
270.65	1556.46
270.87	1755.11
271.08	1716.20
271.30	1791.97
271.51	1705.96
271.73	1671.14
271.95	1789.92
272.16	1767.40
272.38	1748.97
272.59	1658.85
272.81	1761.25
273.02	1669.09
273.24	1687.53
273.46	1716.20
273.67	1603.56
273.89	1617.90
274.10	1624.04
274.32	1695.72
274.54	1716.20
274.75	1681.38
274.97	1636.33
275.18	1726.44
275.40	1834.98
275.61	1732.58
275.83	1687.53
276.05	1693.67
276.26	1699.81
276.48	1773.54
276.69	1716.20
276.91	1648.61
277.12	1863.65
277.34	1769.44
277.55	1765.35
277.77	1714.15
277.99	1630.18
278.20	1658.85
278.42	1615.85
278.63	1636.33
278.85	1730.53
279.06	1613.80
279.28	1744.87
279.49	1722.34
279.71	1748.97
279.93	1665.00
280.14	1710.05
280.36	1724.39
280.57	1726.44
280.79	1740.77
281.00	1673.19
281.22	1701.86
281.43	1810.40
281.65	1611.75
281.86	1648.61
282.08	1685.48
282.29	1826.79
282.51	1671.14
282.73	1740.77
282.94	1638.38
283.16	1718.25
283.37	1783.78
283.59	1630.18
283.80	1763.30
284.02	1722.34
284.23	1798.12
284.45	1751.01
284.66	1617.90
284.88	1675.24
285.09	1787.88
285.31	1738.73
285.52	1767.40
285.74	1658.85
285.95	1714.15
286.17	1708.01
286.38	1716.20
286.60	1691.62
286.81	1695.72
287.03	1759.21
287.24	1791.97
287.46	1789.92
287.67	1693.67
287.89	1820.64
288.10	1693.67
288.32	1703.91
288.53	1832.93
288.75	1742.82
288.96	1787.88
289.18	1669.09
289.39	1708.01
289.61	1775.59
289.82	1804.26
290.04	1796.07
290.25	1691.62
290.47	1681.38
290.68	1662.95
290.90	1738.73
291.11	1626.09
291.33	1738.73
291.54	1644.52
291.76	1708.01
291.97	1785.83
292.18	1751.01
292.40	1683.43
292.61	1642.47
292.83	1859.56
293.04	1755.11
293.26	1738.73
293.47	1734.63
293.69	1617.90
293.90	1720.29
294.12	1832.93
294.33	1722.34
294.55	1665.00
294.76	1726.44
294.97	1701.86
295.19	1839.08
295.40	1693.67
295.62	1710.05
295.83	1771.49
296.05	1675.24
296.26	1798.12
296.48	1654.76
296.69	1730.53
296.90	1587.18
297.12	1746.92
297.33	1742.82
297.55	1685.48
297.76	1783.78
297.98	1779.68
298.19	1656.81
298.41	1689.57
298.62	1718.25
298.83	1851.36
299.05	1685.48
299.26	1693.67
299.48	1601.51
299.69	1759.21
299.90	1689.57
300.12	1636.33
300.33	1783.78
300.55	1687.53
300.76	1802.21
300.98	1658.85
301.19	1705.96
301.40	1658.85
301.62	1681.38
301.83	1767.40
302.05	1718.25
302.26	1685.48
302.47	1740.77
302.69	1751.01
302.90	1673.19
303.12	1581.03
303.33	1746.92
303.54	1789.92
303.76	1693.67
303.97	1728.49
304.19	1822.69
304.40	1587.18
304.61	1736.68
304.83	1757.16
305.04	1787.88
305.26	1691.62
305.47	1638.38
305.68	1701.86
305.90	1699.81
306.11	1722.34
306.33	1624.04
306.54	1697.77
306.75	1626.09
306.97	1605.61
307.18	1619.94
307.39	1617.90
307.61	1779.68
307.82	1722.34
308.04	1691.62
308.25	1656.81
308.46	1638.38
308.68	1693.67
308.89	1742.82
309.10	1708.01
309.32	1748.97
309.53	1701.86
309.74	1660.90
309.96	1658.85
310.17	1847.27
310.39	1712.10
310.60	1718.25
310.81	1656.81
311.03	1644.52
311.24	1730.53
311.45	1681.38
311.67	1783.78
311.88	1785.83
312.09	1687.53
312.31	1693.67
312.52	1697.77
312.73	1730.53
312.95	1607.66
313.16	1673.19
313.37	1767.40
313.59	1769.44
313.80	1736.68
314.01	1826.79
314.23	1656.81
314.44	1685.48
314.65	1597.42
314.87	1581.03
315.08	1626.09
315.29	1746.92
315.51	1638.38
315.72	1601.51
315.93	1822.69
316.15	1771.49
316.36	1640.42
316.57	1654.76
316.79	1769.44
317.00	1658.85
317.21	1665.00
317.43	1642.47
317.64	1673.19
317.85	1609.70
318.07	1685.48
318.28	1767.40
318.49	1902.56
318.70	1949.67
318.92	1802.21
319.13	1855.46
319.34	1798.12
319.56	1740.77
319.77	1812.45
319.98	1869.80
320.20	1740.77
320.41	1720.29
320.62	1789.92
320.83	1693.67
321.05	1777.64
321.26	1794.02
321.47	1705.96
321.69	1730.53
321.90	1621.99
322.11	1705.96
322.32	1695.72
322.54	1736.68
322.75	1665.00
322.96	1861.60
323.18	1640.42
323.39	1632.23
323.60	1562.60
323.81	1787.88
324.03	1665.00
324.24	1677.29
324.45	1693.67
324.66	1714.15
324.88	1787.88
325.09	1849.32
325.30	1744.87
325.52	1787.88
325.73	1726.44
325.94	1609.70
326.15	1677.29
326.37	1730.53
326.58	1695.72
326.79	1830.88
327.00	1693.67
327.22	1730.53
327.43	1679.33
327.64	1617.90
327.85	1742.82
328.07	1751.01
328.28	1755.11
328.49	1691.62
328.70	1773.54
328.92	1660.90
329.13	1681.38
329.34	1787.88
329.55	1812.45
329.76	1714.15
329.98	1691.62
330.19	1810.40
330.40	1812.45
330.61	1669.09
330.83	1681.38
331.04	1669.09
331.25	1730.53
331.46	1677.29
331.68	1703.91
331.89	1822.69
332.10	1697.77
332.31	1703.91
332.52	1685.48
332.74	1724.39
332.95	1650.66
333.16	1705.96
333.37	1757.16
333.58	1691.62
333.80	1695.72
334.01	1609.70
334.22	1621.99
334.43	1665.00
334.64	1691.62
334.86	1693.67
335.07	1736.68
335.28	1791.97
335.49	1585.13
335.70	1697.77
335.92	1705.96
336.13	1923.04
336.34	1699.81
336.55	1712.10
336.76	1761.25
336.98	1652.71
337.19	1748.97
337.40	1800.16
337.61	1914.85
337.82	1687.53
338.04	1767.40
338.25	1613.80
338.46	1714.15
338.67	1767.40
338.88	1701.86
339.09	1501.16
339.31	1705.96
339.52	1669.09
339.73	1576.94
339.94	1714.15
340.15	1755.11
340.36	1650.66
340.58	1740.77
340.79	1640.42
341.00	1683.43
341.21	1662.95
341.42	1828.84
341.63	1730.53
341.85	1724.39
342.06	1619.94
342.27	1644.52
342.48	1796.07
342.69	1609.70
342.90	1675.24
343.12	1691.62
343.33	1732.58
343.54	1763.30
343.75	1830.88
343.96	1748.97
344.17	1677.29
344.38	1689.57
344.60	1644.52
344.81	1646.57
345.02	1644.52
345.23	1767.40
345.44	1718.25
345.65	1673.19
345.86	1789.92
346.07	1638.38
346.29	1650.66
346.50	1822.69
346.71	1728.49
346.92	1742.82
347.13	1806.31
347.34	1697.77
347.55	1703.91
347.76	1728.49
347.98	1560.55
348.19	1689.57
348.40	1716.20
348.61	1611.75
348.82	1765.35
349.03	1730.53
349.24	1658.85
349.45	1763.30
349.66	1607.66
349.88	1730.53
350.09	1603.56
350.30	1773.54
350.51	1763.30
350.72	1630.18
350.93	1724.39
351.14	1681.38
351.35	1744.87
351.56	1679.33
351.77	1685.48
351.99	1759.21
352.20	1814.50
352.41	1802.21
352.62	1568.74
352.83	1697.77
353.04	1732.58
353.25	1640.42
353.46	1681.38
353.67	1789.92
353.88	1636.33
354.09	1697.77
354.30	1720.29
354.52	1736.68
354.73	1662.95
354.94	1726.44
355.15	1665.00
355.36	1730.53
355.57	1662.95
355.78	1736.68
355.99	1693.67
356.20	1626.09
356.41	1785.83
356.62	1742.82
356.83	1751.01
357.04	1769.44
357.25	1708.01
357.46	1626.09
357.68	1673.19
357.89	1621.99
358.10	1703.91
358.31	1775.59
358.52	1695.72
358.73	1644.52
358.94	1599.46
359.15	1675.24
359.36	1773.54
359.57	1681.38
359.78	1710.05
359.99	1773.54
360.20	1687.53
360.41	1765.35
360.62	1716.20
360.83	1724.39
361.04	1642.47
361.25	1675.24
361.46	1806.31
361.67	1744.87
361.88	1703.91
362.09	1783.78
362.30	1728.49
362.51	1726.44
362.72	1732.58
362.93	1759.21
363.14	1763.30
363.35	1722.34
363.56	1718.25
363.78	1826.79
363.99	1771.49
364.20	1576.94
364.41	1789.92
364.62	1769.44
364.83	1624.04
365.04	1697.77
365.25	1734.63
365.46	1843.17
365.67	1742.82
365.88	1611.75
366.09	1660.90
366.30	1638.38
366.51	1777.64
366.72	1675.24
366.93	1710.05
367.14	1685.48
367.35	1781.73
367.56	1675.24
367.77	1783.78
367.98	1626.09
368.18	1740.77
368.39	1689.57
368.60	1644.52
368.81	1720.29
369.02	1662.95
369.23	1689.57
369.44	1605.61
369.65	1667.05
369.86	1771.49
370.07	1796.07
370.28	1654.76
370.49	1720.29
370.70	1718.25
370.91	1644.52
371.12	1660.90
371.33	1789.92
371.54	1626.09
371.75	1845.22
371.96	1626.09
372.17	1738.73
372.38	1695.72
372.59	1736.68
372.80	1703.91
373.01	1759.21
373.22	1685.48
373.43	1642.47
373.64	1658.85
373.85	1751.01
374.06	1753.06
374.26	1751.01
374.47	1722.34
374.68	1746.92
374.89	1665.00
375.10	1742.82
375.31	1708.01
375.52	1722.34
375.73	1734.63
375.94	1681.38
376.15	1765.35
376.36	1703.91
376.57	1681.38
376.78	1689.57
376.99	1736.68
377.20	1732.58
377.40	1681.38
377.61	1693.67
377.82	1617.90
378.03	1738.73
378.24	1771.49
378.45	1669.09
378.66	1656.81
378.87	1652.71
379.08	1570.79
379.29	1632.23
379.50	1830.88
379.71	1642.47
379.91	1736.68
380.12	1724.39
380.33	1642.47
380.54	1695.72
380.75	1716.20
380.96	1683.43
381.17	1728.49
381.38	1714.15
381.59	1755.11
381.80	1732.58
382.00	1728.49
382.21	1726.44
382.42	1763.30
382.63	1806.31
382.84	1765.35
383.05	1736.68
383.26	1859.56
383.47	1791.97
383.68	1789.92
383.88	1634.28
384.09	1734.63
384.30	1818.60
384.51	1767.40
384.72	1681.38
384.93	1652.71
385.14	1744.87
385.35	1767.40
385.55	1638.38
385.76	1783.78
385.97	1693.67
386.18	1615.85
386.39	1570.79
386.60	1667.05
386.81	1701.86
387.02	1695.72
387.22	1677.29
387.43	1755.11
387.64	1857.51
387.85	1830.88
388.06	2230.24
388.27	4143.04
388.48	6502.30
388.68	7999.37
388.89	9279.35
389.10	9666.41
389.31	8427.39
389.52	7317.39
389.73	6586.27
389.93	6121.38
390.14	5564.33
390.35	5076.91
390.56	4364.22
390.77	3696.58
390.98	3018.71
391.18	2504.67
391.39	2074.59
391.60	1804.26
391.81	1796.07
392.02	1687.53
392.23	1775.59
392.43	1779.68
392.64	1738.73
392.85	1773.54
393.06	1751.01
393.27	1646.57
393.47	1755.11
393.68	1746.92
393.89	1730.53
394.10	1816.55
394.31	1705.96
394.52	1683.43
394.72	1673.19
394.93	1791.97
395.14	1609.70
395.35	1757.16
395.56	1669.09
395.76	1736.68
395.97	1832.93
396.18	1808.36
396.39	1843.17
396.60	2045.92
396.80	1892.32
397.01	1826.79
397.22	1796.07
397.43	1834.98
397.64	1681.38
397.84	1755.11
398.05	1873.89
398.26	1748.97
398.47	1783.78
398.67	1755.11
398.88	1691.62
399.09	1810.40
399.30	1695.72
399.51	1746.92
399.71	1667.05
399.92	1703.91
400.13	1710.05
400.34	1693.67
400.54	1765.35
400.75	1800.16
400.96	1759.21
401.17	1751.01
401.37	1722.34
401.58	1695.72
401.79	1751.01
402.00	1822.69
402.21	2004.96
402.41	1904.61
402.62	2000.87
402.83	1978.34
403.04	2002.91
403.24	2013.15
403.45	1857.51
403.66	1896.42
403.87	1916.90
404.07	1867.75
404.28	1877.99
404.49	1896.42
404.70	1767.40
404.90	1689.57
405.11	1775.59
405.32	1751.01
405.52	1681.38
405.73	1646.57
405.94	1744.87
406.15	1697.77
406.35	1802.21
406.56	1808.36
406.77	1736.68
406.98	1636.33
407.18	1648.61
407.39	1705.96
407.60	1628.14
407.80	1806.31
408.01	1654.76
408.22	1777.64
408.43	1601.51
408.63	1691.62
408.84	1789.92
409.05	1738.73
409.25	1656.81
409.46	1644.52
409.67	1703.91
409.88	1714.15
410.08	1779.68
410.29	1660.90
410.50	1697.77
410.70	1757.16
410.91	1654.76
411.12	1701.86
411.32	1636.33
411.53	1714.15
411.74	1759.21
411.95	1789.92
412.15	1736.68
412.36	1734.63
412.57	1767.40
412.77	1773.54
412.98	1742.82
413.19	1673.19
413.39	1714.15
413.60	1712.10
413.81	1716.20
414.01	1656.81
414.22	1791.97
414.43	1802.21
414.63	1763.30
414.84	1738.73
415.05	1755.11
415.25	1652.71
415.46	1705.96
415.67	1732.58
415.87	1724.39
416.08	1697.77
416.29	1681.38
416.49	1677.29
416.70	1697.77
416.91	1652.71
417.11	1673.19
417.32	1740.77
417.53	1759.21
417.73	1742.82
417.94	1660.90
418.15	1738.73
418.35	1701.86
418.56	1734.63
418.77	1794.02
418.97	1769.44
419.18	1708.01
419.38	1628.14
419.59	1656.81
419.80	1791.97
420.00	1748.97
420.21	1683.43
420.42	1757.16
420.62	1732.58
420.83	1597.42
421.04	1689.57
421.24	1697.77
421.45	1771.49
421.65	1808.36
421.86	1617.90
422.07	1695.72
422.27	1673.19
422.48	1738.73
422.69	1615.85
422.89	1759.21
423.10	1734.63
423.30	1574.89
423.51	1720.29
423.72	1755.11
423.92	1730.53
424.13	1628.14
424.33	1738.73
424.54	1779.68
424.75	1699.81
424.95	1810.40
425.16	1693.67
425.36	1718.25
425.57	1732.58
425.78	1736.68
425.98	1738.73
426.19	1722.34
426.39	1673.19
426.60	1673.19
426.81	1853.41
427.01	1671.14
427.22	1628.14
427.42	1650.66
427.63	1675.24
427.83	1726.44
428.04	1832.93
428.25	1808.36
428.45	1775.59
428.66	1708.01
428.86	1689.57
429.07	1755.11
429.28	1744.87
429.48	1693.67
429.69	1736.68
429.89	1718.25
430.10	1615.85
430.30	1716.20
430.51	1720.29
430.71	1642.47
430.92	1701.86
431.13	1669.09
431.33	1781.73
431.54	1695.72
431.74	1746.92
431.95	1839.08
432.15	1665.00
432.36	1673.19
432.56	1857.51
432.77	1828.84
432.98	1771.49
433.18	1746.92
433.39	1703.91
433.59	1748.97
433.80	1871.84
434.00	1826.79
434.21	1738.73
434.41	1710.05
434.62	1845.22
434.82	1712.10
435.03	1691.62
435.23	1755.11
435.44	1673.19
435.64	1730.53
435.85	1775.59
436.06	1808.36
436.26	1714.15
436.47	1658.85
436.67	1656.81
436.88	1701.86
437.08	1726.44
437.29	1789.92
437.49	1648.61
437.70	1738.73
437.90	1800.16
438.11	1783.78
438.31	1789.92
438.52	1822.69
438.72	1873.89
438.93	1857.51
439.13	1861.60
439.34	1814.50
439.54	1742.82
439.75	1794.02
439.95	1779.68
440.16	1691.62
440.36	1714.15
440.57	1769.44
440.77	1798.12
440.98	1779.68
441.18	1746.92
441.39	1701.86
441.59	1638.38
441.80	1812.45
442.00	1794.02
442.21	1843.17
442.41	1640.42
442.62	1814.50
442.82	1691.62
443.02	1699.81
443.23	1701.86
443.43	1687.53
443.64	1718.25
443.84	1644.52
444.05	1824.74
444.25	1759.21
444.46	1759.21
444.66	1757.16
444.87	1847.27
445.07	1665.00
445.28	1781.73
445.48	1849.32
445.69	1744.87
445.89	1759.21
446.09	1640.42
446.30	2007.01
446.50	2615.26
446.71	3614.66
446.91	4261.82
447.12	4685.75
447.32	4665.27
447.53	4315.07
447.73	3856.33
447.93	3555.27
448.14	3141.58
448.34	3252.17
448.55	2944.98
448.75	2766.81
448.96	2656.22
449.16	2353.12
449.36	2328.54
449.57	2115.55
449.77	1888.23
449.98	1800.16
450.18	1837.03
450.39	1828.84
450.59	1718.25
450.79	1751.01
451.00	1728.49
451.20	1722.34
451.41	1761.25
451.61	1734.63
451.81	1796.07
452.02	1654.76
452.22	1675.24
452.43	1679.33
452.63	1798.12
452.84	1628.14
453.04	1714.15
453.24	1775.59
453.45	1681.38
453.65	1656.81
453.86	1765.35
454.06	1759.21
454.26	1746.92
454.47	1714.15
454.67	1777.64
454.87	1777.64
455.08	1738.73
455.28	1841.12
455.49	1671.14
455.69	1730.53
455.89	1849.32
456.10	1777.64
456.30	1724.39
456.51	1699.81
456.71	1791.97
456.91	1687.53
457.12	1781.73
457.32	1746.92
457.52	1724.39
457.73	1822.69
457.93	1841.12
458.14	1761.25
458.34	1665.00
458.54	1703.91
458.75	1658.85
458.95	1777.64
459.15	1783.78
459.36	1771.49
459.56	1689.57
459.76	1853.41
459.97	1791.97
460.17	1716.20
460.37	1757.16
460.58	1755.11
460.78	1689.57
460.99	1687.53
461.19	1748.97
461.39	1689.57
461.60	1714.15
461.80	1820.64
462.00	1660.90
462.21	1757.16
462.41	1691.62
462.61	1748.97
462.82	1736.68
463.02	1759.21
463.22	1810.40
463.43	1734.63
463.63	1701.86
463.83	1800.16
464.04	1765.35
464.24	1722.34
464.44	1617.90
464.64	1695.72
464.85	1732.58
465.05	1814.50
465.25	1814.50
465.46	1712.10
465.66	1808.36
465.86	1769.44
466.07	1730.53
466.27	1705.96
466.47	1660.90
466.68	1646.57
466.88	1814.50
467.08	1789.92
467.29	1714.15
467.49	1753.06
467.69	1746.92
467.89	1761.25
468.10	1753.06
468.30	1781.73
468.50	1773.54
468.71	1746.92
468.91	1611.75
469.11	1851.36
469.31	1728.49
469.52	1693.67
469.72	1798.12
469.92	1869.80
470.13	1757.16
470.33	1648.61
470.53	1841.12
470.73	2160.61
470.94	2248.67
471.14	2283.49
471.34	2570.20
471.54	2516.95
471.75	2146.27
471.95	2090.98
472.15	2017.25
472.36	2021.35
472.56	2097.12
472.76	2031.58
472.96	1976.29
473.17	1947.62
473.37	1974.24
473.57	1775.59
473.77	1822.69
473.98	1744.87
474.18	1746.92
474.38	1906.66
474.58	1748.97
474.79	1652.71
474.99	1724.39
475.19	1753.06
475.39	1632.23
475.60	1771.49
475.80	1775.59
476.00	1720.29
476.20	1716.20
476.41	1665.00
476.61	1843.17
476.81	1732.58
477.01	1708.01
477.21	1929.19
477.42	1857.51
477.62	1742.82
477.82	1744.87
478.02	1722.34
478.23	1746.92
478.43	1619.94
478.63	1775.59
478.83	1705.96
479.03	1681.38
479.24	1877.99
479.44	1861.60
479.64	1591.27
479.84	1605.61
480.04	1701.86
480.25	1812.45
480.45	1660.90
480.65	1767.40
480.85	1781.73
481.06	1683.43
481.26	1695.72
481.46	1763.30
481.66	1705.96
481.86	1591.27
482.06	1800.16
482.27	1662.95
482.47	1693.67
482.67	1736.68
482.87	1730.53
483.07	1773.54
483.28	1617.90
483.48	1658.85
483.68	1650.66
483.88	1712.10
484.08	1654.76
484.29	1755.11
484.49	1755.11
484.69	1628.14
484.89	1802.21
485.09	1771.49
485.29	1720.29
485.50	1783.78
485.70	1787.88
485.90	1783.78
486.10	1746.92
486.30	1744.87
486.50	1755.11
486.71	1708.01
486.91	1740.77
487.11	1808.36
487.31	1660.90
487.51	1796.07
487.71	1662.95
487.91	1654.76
488.12	1669.09
488.32	1601.51
488.52	1722.34
488.72	1671.14
488.92	1734.63
489.12	1785.83
489.32	1759.21
489.53	1642.47
489.73	1683.43
489.93	1697.77
490.13	1746.92
490.33	1693.67
490.53	1751.01
490.73	1765.35
490.94	1656.81
491.14	1771.49
491.34	1880.04
491.54	2095.07
491.74	2510.81
491.94	2904.02
492.14	2904.02
492.34	2936.79
492.54	2777.05
492.75	2498.52
492.95	2422.75
493.15	2295.77
493.35	2250.72
493.55	2258.91
493.75	2117.60
493.95	2131.94
494.15	2037.73
494.35	1869.80
494.56	1873.89
494.76	1705.96
494.96	1771.49
495.16	1701.86
495.36	1812.45
495.56	1775.59
495.76	1773.54
495.96	1689.57
496.16	1716.20
496.36	1789.92
496.56	1730.53
496.77	1755.11
496.97	1701.86
497.17	1908.71
497.37	1658.85
497.57	1787.88
497.77	1732.58
497.97	1693.67
498.17	1665.00
498.37	1667.05
498.57	1636.33
498.77	1646.57
498.97	1757.16
499.17	1877.99
499.38	1693.67
499.58	1845.22
499.78	1802.21
499.98	1810.40
500.18	1667.05
500.38	1665.00
500.58	1871.84
500.78	2531.29
500.98	4458.43
501.18	5640.11
501.38	6584.22
501.58	6983.57
501.78	6471.58
501.98	5392.30
502.18	4857.78
502.38	4280.25
502.58	4024.26
502.78	3674.06
502.98	3684.30
503.18	3381.20
503.38	3119.06
503.59	2824.15
503.79	2590.68
503.99	2396.12
504.19	2281.44
504.39	2213.85
504.59	2275.29
504.79	2136.03
504.99	2025.44
505.19	1945.57
505.39	1830.88
505.59	2000.87
505.79	1877.99
505.99	1802.21
506.19	1742.82
506.39	1886.18
506.59	1722.34
506.79	1734.63
506.99	1808.36
507.19	1751.01
507.39	1744.87
507.59	1697.77
507.79	1714.15
507.99	1718.25
508.19	1761.25
508.39	1675.24
508.59	1769.44
508.79	1773.54
508.99	1800.16
509.19	1669.09
509.39	1757.16
509.59	1640.42
509.79	1714.15
509.99	1728.49
510.19	1832.93
510.39	1820.64
510.59	1757.16
510.79	1755.11
510.99	1730.53
511.19	1789.92
511.39	1796.07
511.59	1777.64
511.79	1816.55
511.99	1740.77
512.19	1843.17
512.38	1755.11
512.58	1736.68
512.78	1722.34
512.98	1787.88
513.18	1763.30
513.38	1714.15
513.58	1751.01
513.78	1746.92
513.98	1730.53
514.18	1714.15
514.38	1763.30
514.58	1728.49
514.78	1617.90
514.98	1679.33
515.18	1712.10
515.38	1755.11
515.58	1875.94
515.78	1738.73
515.98	1673.19
516.18	1687.53
516.38	1714.15
516.57	1769.44
516.77	1730.53
516.97	1708.01
517.17	1665.00
517.37	1710.05
517.57	1791.97
517.77	1734.63
517.97	1669.09
518.17	1816.55
518.37	1712.10
518.57	1755.11
518.77	1730.53
518.97	1746.92
519.16	1771.49
519.36	1781.73
519.56	1798.12
519.76	1738.73
519.96	1685.48
520.16	1834.98
520.36	1763.30
520.56	1841.12
520.76	1648.61
520.96	1726.44
521.16	1744.87
521.35	1763.30
521.55	1861.60
521.75	1751.01
521.95	1718.25
522.15	1703.91
522.35	1628.14
522.55	1689.57
522.75	1849.32
522.95	1716.20
523.14	1671.14
523.34	1736.68
523.54	1751.01
523.74	1773.54
523.94	1783.78
524.14	1716.20
524.34	1761.25
524.54	1882.08
524.73	1708.01
524.93	1765.35
525.13	1740.77
525.33	1781.73
525.53	1892.32
525.73	1800.16
525.93	1744.87
526.13	1681.38
526.32	1734.63
526.52	1798.12
526.72	1736.68
526.92	1781.73
527.12	1691.62
527.32	1701.86
527.52	1718.25
527.71	1802.21
527.91	1748.97
528.11	1800.16
528.31	1701.86
528.51	1617.90
528.71	1812.45
528.90	1787.88
529.10	1845.22
529.30	1744.87
529.50	1710.05
529.70	1730.53
529.90	1728.49
530.09	1701.86
530.29	1669.09
530.49	1695.72
530.69	1931.23
530.89	1759.21
531.09	1800.16
531.28	1665.00
531.48	1828.84
531.68	1761.25
531.88	1728.49
532.08	1785.83
532.28	1742.82
532.47	1787.88
532.67	1730.53
532.87	1841.12
533.07	1734.63
533.27	1748.97
533.46	1800.16
533.66	1837.03
533.86	1681.38
534.06	1673.19
534.26	1779.68
534.45	1765.35
534.65	1699.81
534.85	1722.34
535.05	1779.68
535.25	1787.88
535.44	1632.23
535.64	1769.44
535.84	1732.58
536.04	1705.96
536.24	1710.05
536.43	1716.20
536.63	1783.78
536.83	1699.81
537.03	1703.91
537.22	1658.85
537.42	1671.14
537.62	1771.49
537.82	1681.38
538.02	1777.64
538.21	1791.97
538.41	1890.28
538.61	1763.30
538.81	1742.82
539.00	1828.84
539.20	1724.39
539.40	1726.44
539.60	1783.78
539.79	1783.78
539.99	1761.25
540.19	1667.05
540.39	1681.38
540.58	1689.57
540.78	1705.96
540.98	1755.11
541.18	1798.12
541.37	1798.12
541.57	1679.33
541.77	1761.25
541.97	1708.01
542.16	1695.72
542.36	1658.85
542.56	1814.50
542.76	1810.40
542.95	1679.33
543.15	1744.87
543.35	1718.25
543.54	1757.16
543.74	1685.48
543.94	1859.56
544.14	1703.91
544.33	1757.16
544.53	1730.53
544.73	1732.58
544.93	1701.86
545.12	1705.96
545.32	1763.30
545.52	1740.77
545.71	1677.29
545.91	1644.52
546.11	1728.49
546.30	1646.57
546.50	1769.44
546.70	1730.53
546.90	1738.73
547.09	1646.57
547.29	1722.34
547.49	1826.79
547.68	1773.54
547.88	1714.15
548.08	1681.38
548.27	2156.51
548.47	1748.97
548.67	1796.07
548.87	1804.26
549.06	1693.67
549.26	1751.01
549.46	1732.58
549.65	1667.05
549.85	1701.86
550.05	1748.97
550.24	1730.53
550.44	1771.49
550.64	1761.25
550.83	1769.44
551.03	1839.08
551.23	1763.30
551.42	1824.74
551.62	1701.86
551.82	1759.21
552.01	1665.00
552.21	1767.40
552.41	1779.68
552.60	1757.16
552.80	1730.53
553.00	1652.71
553.19	1722.34
553.39	1826.79
553.59	1601.51
553.78	1718.25
553.98	1822.69
554.17	1671.14
554.37	1744.87
554.57	1808.36
554.76	1677.29
554.96	1667.05
555.16	1773.54
555.35	1771.49
555.55	1804.26
555.75	1720.29
555.94	1802.21
556.14	1566.70
556.33	1734.63
556.53	1746.92
556.73	1759.21
556.92	1796.07
557.12	1794.02
557.32	1865.70
557.51	1806.31
557.71	1734.63
557.90	1851.36
558.10	1798.12
558.30	1730.53
558.49	1710.05
558.69	1763.30
558.88	1785.83
559.08	1791.97
559.28	1705.96
559.47	1726.44
559.67	1779.68
559.86	1886.18
560.06	1738.73
560.26	1675.24
560.45	1814.50
560.65	1728.49
560.84	1740.77
561.04	1652.71
561.24	1744.87
561.43	1662.95
561.63	1751.01
561.82	1742.82
562.02	1818.60
562.22	1685.48
562.41	1652.71
562.61	1710.05
562.80	1667.05
563.00	1841.12
563.19	1789.92
563.39	1798.12
563.59	1763.30
563.78	1652.71
563.98	1656.81
564.17	1648.61
564.37	1609.70
564.56	1755.11
564.76	1710.05
564.96	1785.83
565.15	1830.88
565.35	1896.42
565.54	1689.57
565.74	1718.25
565.93	1751.01
566.13	1755.11
566.32	1724.39
566.52	1757.16
566.71	1710.05
566.91	1781.73
567.11	1701.86
567.30	1697.77
567.50	1724.39
567.69	1710.05
567.89	1751.01
568.08	1722.34
568.28	1746.92
568.47	1720.29
568.67	1726.44
568.86	1755.11
569.06	1675.24
569.25	1685.48
569.45	1734.63
569.64	1730.53
569.84	1714.15
570.04	1722.34
570.23	1751.01
570.43	1703.91
570.62	1781.73
570.82	1822.69
571.01	1669.09
571.21	1683.43
571.40	1673.19
571.60	1738.73
571.79	1839.08
571.99	1771.49
572.18	1705.96
572.38	1769.44
572.57	1712.10
572.77	1794.02
572.96	1882.08
573.16	1753.06
573.35	1732.58
573.55	1822.69
573.74	1828.84
573.94	1710.05
574.13	1673.19
574.33	1843.17
574.52	1777.64
574.71	1712.10
574.91	1742.82
575.10	1675.24
575.30	1718.25
575.49	1669.09
575.69	1730.53
575.88	1759.21
576.08	1732.58
576.27	1800.16
576.47	1746.92
576.66	1847.27
576.86	1779.68
577.05	1751.01
577.25	1787.88
577.44	1796.07
577.64	1710.05
577.83	1734.63
578.02	1722.34
578.22	1867.75
578.41	1906.66
578.61	1796.07
578.80	1656.81
579.00	1681.38
579.19	1656.81
579.39	1753.06
579.58	1765.35
579.77	1755.11
579.97	1906.66
580.16	1818.60
580.36	1873.89
580.55	1808.36
580.75	1742.82
580.94	1771.49
581.13	1755.11
581.33	1802.21
581.52	1701.86
581.72	1886.18
581.91	1837.03
582.11	1740.77
582.30	1830.88
582.49	1734.63
582.69	1925.09
582.88	1822.69
583.08	1791.97
583.27	1822.69
583.47	1787.88
583.66	1777.64
583.85	1695.72
584.05	1732.58
584.24	1734.63
584.44	1896.42
584.63	1785.83
584.82	1769.44
585.02	1882.08
585.21	1888.23
585.41	1779.68
585.60	1810.40
585.79	1937.38
585.99	1986.53
586.18	1890.28
586.37	2230.24
586.57	3319.76
586.76	9539.44
586.96	23836.31
587.15	33449.47
587.34	39122.35
587.54	40916.37
587.73	35585.50
587.93	25261.69
588.12	20664.00
588.31	17762.03
588.51	15808.27
588.70	14772.00
588.89	13586.22
589.09	12166.98
589.28	10624.86
589.47	9152.37
589.67	7786.38
589.86	6078.37
590.06	4751.29
590.25	3850.18
590.44	2987.99
590.64	2478.04
590.83	2281.44
591.02	2117.60
591.22	1925.09
591.41	1959.91
591.60	1808.36
591.80	1943.52
591.99	1746.92
592.18	1789.92
592.38	1859.56
592.57	1804.26
592.76	1853.41
592.96	1834.98
593.15	1724.39
593.34	1910.75
593.54	1781.73
593.73	1796.07
593.92	1808.36
594.12	1714.15
594.31	1763.30
594.50	1751.01
594.70	1800.16
594.89	1941.47
595.08	1697.77
595.28	1773.54
595.47	1918.95
595.66	1791.97
595.86	1714.15
596.05	1789.92
596.24	1675.24
596.43	1843.17
596.63	1841.12
596.82	1837.03
597.01	1740.77
597.21	1882.08
597.40	1808.36
597.59	1718.25
597.79	1748.97
597.98	1746.92
598.17	1734.63
598.36	1654.76
598.56	1791.97
598.75	1705.96
598.94	1779.68
599.14	1777.64
599.33	1638.38
599.52	1789.92
599.71	1779.68
599.91	1794.02
600.10	1810.40
600.29	1675.24
600.48	1761.25
600.68	1753.06
600.87	1720.29
601.06	1685.48
601.26	1685.48
601.45	1755.11
601.64	1640.42
601.83	1849.32
602.03	1654.76
602.22	1697.77
602.41	1736.68
602.60	1841.12
602.80	1837.03
602.99	1738.73
603.18	1705.96
603.37	1796.07
603.57	1779.68
603.76	1763.30
603.95	1773.54
604.14	1718.25
604.34	1691.62
604.53	1697.77
604.72	1716.20
604.91	1746.92
605.10	1804.26
605.30	1691.62
605.49	1855.46
605.68	1738.73
605.87	1748.97
606.07	1740.77
606.26	1726.44
606.45	1728.49
606.64	1683.43
606.84	1689.57
607.03	1712.10
607.22	1757.16
607.41	1648.61
607.60	1662.95
607.80	1787.88
607.99	1724.39
608.18	1796.07
608.37	1789.92
608.56	1683.43
608.76	1798.12
608.95	1822.69
609.14	1785.83
609.33	1794.02
609.52	1810.40
609.72	1738.73
609.91	1781.73
610.10	1826.79
610.29	1853.41
610.48	1738.73
610.68	1753.06
610.87	1722.34
611.06	1734.63
611.25	1703.91
611.44	1886.18
611.63	1691.62
611.83	1845.22
612.02	1687.53
612.21	1759.21
612.40	1617.90
612.59	1683.43
612.79	1636.33
612.98	1759.21
613.17	1875.94
613.36	1693.67
613.55	1814.50
613.74	1665.00
613.93	1730.53
614.13	1791.97
614.32	1748.97
614.51	1724.39
614.70	1646.57
614.89	1681.38
615.08	1779.68
615.28	2039.78
615.47	1660.90
615.66	1695.72
615.85	1720.29
616.04	1763.30
616.23	1742.82
616.42	1771.49
616.62	1703.91
616.81	1781.73
617.00	1720.29
617.19	1806.31
617.38	1683.43
617.57	1675.24
617.76	1740.77
617.95	1765.35
618.15	1779.68
618.34	1847.27
618.53	1650.66
618.72	1769.44
618.91	1853.41
619.10	1779.68
619.29	1722.34
619.48	1712.10
619.68	1648.61
619.87	1732.58
620.06	1628.14
620.25	1736.68
620.44	1615.85
620.63	1728.49
620.82	1771.49
621.01	1724.39
621.20	1667.05
621.39	1796.07
621.59	1806.31
621.78	1693.67
621.97	1771.49
622.16	1736.68
622.35	1697.77
622.54	1757.16
622.73	1851.36
622.92	1732.58
623.11	1773.54
623.30	1716.20
623.49	1746.92
623.68	1697.77
623.88	1800.16
624.07	1732.58
624.26	1705.96
624.45	1779.68
624.64	1716.20
624.83	1718.25
625.02	1712.10
625.21	1724.39
625.40	1712.10
625.59	1744.87
625.78	1724.39
625.97	1771.49
626.16	1699.81
626.35	1794.02
626.54	1781.73
626.74	1759.21
626.93	1714.15
627.12	1769.44
627.31	1753.06
627.50	1783.78
627.69	1773.54
627.88	1714.15
628.07	1687.53
628.26	1691.62
628.45	1658.85
628.64	1648.61
628.83	1693.67
629.02	1615.85
629.21	1769.44
629.40	1685.48
629.59	1656.81
629.78	1648.61
629.97	1703.91
630.16	1730.53
630.35	1708.01
630.54	1675.24
630.73	1753.06
630.92	1701.86
631.11	1726.44
631.30	1689.57
631.49	1701.86
631.68	1714.15
631.87	1687.53
632.06	1665.00
632.25	1814.50
632.44	1652.71
632.63	1714.15
632.82	1693.67
633.01	1642.47
633.20	1683.43
633.39	1771.49
633.58	1576.94
633.77	1667.05
633.96	1732.58
634.15	1744.87
634.34	1755.11
634.53	1763.30
634.72	1648.61
634.91	1603.56
635.10	1767.40
635.29	1744.87
635.48	1652.71
635.67	1710.05
635.86	1560.55
636.05	1751.01
636.24	1769.44
636.43	1765.35
636.62	1726.44
636.81	1601.51
637.00	1812.45
637.19	1777.64
637.38	1724.39
637.57	1712.10
637.76	1667.05
637.95	1818.60
638.14	1660.90
638.33	1679.33
638.52	1738.73
638.71	1615.85
638.89	1650.66
639.08	1943.52
639.27	1787.88
639.46	1726.44
639.65	1865.70
639.84	1726.44
640.03	1730.53
640.22	1677.29
640.41	1873.89
640.60	1705.96
640.79	1724.39
640.98	1646.57
641.17	1728.49
641.36	1677.29
641.55	1740.77
641.74	1591.27
641.92	1695.72
642.11	1654.76
642.30	1767.40
642.49	1697.77
642.68	1736.68
642.87	1714.15
643.06	1744.87
643.25	1646.57
643.44	1699.81
643.63	1699.81
643.82	1751.01
644.00	1685.48
644.19	1708.01
644.38	1710.05
644.57	1755.11
644.76	1697.77
644.95	1665.00
645.14	1740.77
645.33	1691.62
645.52	1675.24
645.71	1591.27
645.89	1558.50
646.08	1712.10
646.27	1693.67
646.46	1839.08
646.65	1654.76
646.84	1751.01
647.03	1568.74
647.22	1718.25
647.40	1777.64
647.59	1646.57
647.78	1593.32
647.97	1611.75
648.16	1583.08
648.35	1775.59
648.54	1775.59
648.73	1728.49
648.91	1710.05
649.10	1724.39
649.29	1734.63
649.48	1693.67
649.67	1738.73
649.86	1714.15
650.05	1671.14
650.23	1779.68
650.42	1654.76
650.61	1767.40
650.80	1753.06
650.99	1845.22
651.18	1769.44
651.36	1699.81
651.55	1671.14
651.74	1783.78
651.93	1634.28
652.12	1689.57
652.31	1683.43
652.49	1720.29
652.68	1705.96
652.87	1771.49
653.06	1740.77
653.25	1818.60
653.44	1738.73
653.62	1806.31
653.81	1798.12
654.00	1675.24
654.19	1785.83
654.38	1877.99
654.56	1800.16
654.75	1673.19
654.94	1794.02
655.13	1677.29
655.32	1712.10
655.51	1691.62
655.69	1708.01
655.88	1736.68
656.07	1644.52
656.26	1800.16
656.45	1683.43
656.63	1759.21
656.82	1738.73
657.01	1791.97
657.20	1724.39
657.38	1818.60
657.57	1703.91
657.76	1632.23
657.95	1734.63
658.14	1652.71
658.32	1800.16
658.51	1642.47
658.70	1632.23
658.89	1761.25
659.08	1751.01
659.26	1714.15
659.45	1671.14
659.64	1710.05
659.83	1740.77
660.01	1949.67
660.20	1759.21
660.39	1800.16
660.58	1636.33
660.76	1720.29
660.95	1587.18
661.14	1699.81
661.33	1689.57
661.51	1699.81
661.70	1740.77
661.89	1681.38
662.08	1691.62
662.26	1652.71
662.45	1628.14
662.64	1757.16
662.83	1730.53
663.01	1677.29
663.20	1617.90
663.39	1796.07
663.58	1671.14
663.76	1701.86
663.95	1759.21
664.14	1662.95
664.32	1691.62
664.51	1703.91
664.70	1677.29
664.89	1740.77
665.07	1665.00
665.26	1753.06
665.45	1669.09
665.64	1658.85
665.82	1683.43
666.01	1779.68
666.20	1710.05
666.38	1820.64
666.57	1779.68
666.76	2166.75
666.95	4614.07
667.13	10176.36
667.32	14982.94
667.51	17137.40
667.69	18413.29
667.88	17061.63
668.07	12056.39
668.25	9310.07
668.44	7827.34
668.63	7124.88
668.81	6602.65
669.00	6029.22
669.19	5582.76
669.38	4984.76
669.56	4409.28
669.75	3938.24
669.94	3459.02
670.12	2920.40
670.31	2559.96
670.50	2224.09
670.68	2023.39
670.87	1890.28
671.06	1847.27
671.24	1777.64
671.43	1843.17
671.62	1738.73
671.80	1693.67
671.99	1724.39
672.18	1716.20
672.36	1722.34
672.55	1755.11
672.74	1716.20
672.92	1708.01
673.11	1734.63
673.29	1585.13
673.48	1796.07
673.67	1662.95
673.85	1837.03
674.04	1693.67
674.23	1724.39
674.41	1775.59
674.60	1642.47
674.79	1652.71
674.97	1738.73
675.16	1755.11
675.34	1804.26
675.53	1681.38
675.72	1746.92
675.90	1837.03
676.09	1673.19
676.28	1740.77
676.46	1599.46
676.65	1718.25
676.83	1640.42
677.02	1726.44
677.21	1699.81
677.39	1722.34
677.58	1667.05
677.77	1675.24
677.95	1662.95
678.14	1740.77
678.32	1679.33
678.51	1685.48
678.70	1855.46
678.88	1738.73
679.07	1689.57
679.25	1736.68
679.44	1763.30
679.63	1660.90
679.81	1712.10
680.00	1800.16
680.18	1783.78
680.37	1800.16
680.55	1714.15
680.74	1650.66
680.93	1554.41
681.11	1646.57
681.30	1705.96
681.48	1765.35
681.67	1734.63
681.85	1695.72
682.04	1644.52
682.23	1853.41
682.41	1761.25
682.60	1675.24
682.78	1724.39
682.97	1705.96
683.15	1708.01
683.34	1695.72
683.53	1816.55
683.71	1667.05
683.90	1867.75
684.08	1794.02
684.27	1728.49
684.45	1716.20
684.64	1710.05
684.82	1701.86
685.01	1718.25
685.19	1740.77
685.38	1800.16
685.57	1771.49
685.75	1648.61
685.94	1740.77
686.12	1624.04
686.31	1703.91
686.49	1841.12
686.68	1613.80
686.86	1716.20
687.05	1667.05
687.23	1769.44
687.42	1734.63
687.60	1566.70
687.79	1773.54
687.97	1812.45
688.16	1853.41
688.34	1796.07
688.53	1648.61
688.71	1763.30
688.90	1781.73
689.08	1644.52
689.27	1599.46
689.45	1753.06
689.64	1708.01
689.82	1662.95
690.01	1785.83
690.19	1742.82
690.38	1759.21
690.56	1787.88
690.75	1626.09
690.93	1673.19
691.12	1703.91
691.30	1726.44
691.49	1712.10
691.67	1746.92
691.86	1832.93
692.04	1677.29
692.23	1650.66
692.41	1771.49
692.60	1763.30
692.78	1699.81
692.97	1683.43
693.15	1716.20
693.34	1763.30
693.52	1763.30
693.71	1710.05
693.89	1699.81
694.08	1646.57
694.26	1845.22
694.44	1775.59
694.63	1796.07
694.81	1634.28
695.00	1685.48
695.18	1730.53
695.37	1796.07
695.55	1765.35
695.74	1667.05
695.92	1673.19
696.10	1695.72
696.29	1673.19
696.47	1619.94
696.66	1697.77
696.84	1662.95
697.03	1742.82
697.21	1826.79
697.40	2381.79
697.58	1845.22
697.76	1730.53
697.95	1667.05
698.13	1687.53
698.32	1646.57
698.50	1751.01
698.68	1802.21
698.87	1716.20
699.05	1781.73
699.24	1746.92
699.42	1691.62
699.61	1677.29
699.79	1783.78
699.97	1695.72
700.16	1619.94
700.34	1699.81
700.53	1753.06
700.71	1730.53
700.89	1810.40
701.08	1654.76
701.26	1701.86
701.45	2195.42
701.63	1701.86
701.81	1673.19
702.00	1712.10
702.18	1708.01
702.37	1665.00
702.55	1787.88
702.73	1757.16
702.92	1673.19
703.10	1701.86
703.28	1730.53
703.47	1578.98
703.65	1738.73
703.84	1738.73
704.02	1689.57
704.20	1789.92
704.39	1646.57
704.57	1638.38
704.75	1748.97
704.94	1714.15
705.12	1703.91
705.30	1787.88
705.49	2207.71
705.67	4388.80
705.86	8959.86
706.04	12236.61
706.22	14047.02
706.41	14948.12
706.59	13428.53
706.77	9357.17
706.96	7141.27
707.14	6373.28
707.32	5767.08
707.51	5431.21
707.69	4839.35
707.87	4130.75
708.06	3416.01
708.24	2834.39
708.42	2381.79
708.61	2232.29
708.79	1894.37
708.97	1834.98
709.16	1783.78
709.34	1708.01
709.52	1726.44
709.71	1677.29
709.89	1714.15
710.07	1665.00
710.26	1662.95
710.44	1714.15
710.62	1757.16
710.80	1683.43
710.99	1781.73
711.17	1736.68
711.35	1689.57
711.54	1716.20
711.72	1746.92
711.90	1728.49
712.09	1712.10
712.27	1703.91
712.45	1796.07
712.63	1656.81
712.82	1742.82
713.00	1718.25
713.18	1716.20
713.37	1736.68
713.55	1814.50
713.73	1697.77
713.91	1691.62
714.10	1665.00
714.28	1665.00
714.46	1722.34
714.65	1763.30
714.83	1669.09
715.01	1718.25
715.19	1761.25
715.38	1689.57
715.56	1720.29
715.74	1705.96
715.92	1652.71
716.11	1794.02
716.29	1615.85
716.47	1763.30
716.65	1695.72
716.84	1687.53
717.02	1828.84
717.20	1636.33
717.38	1722.34
717.57	1705.96
717.75	1658.85
717.93	1654.76
718.11	1761.25
718.30	1675.24
718.48	1718.25
718.66	1753.06
718.84	1687.53
719.03	1761.25
719.21	1605.61
719.39	1763.30
719.57	1785.83
719.75	1699.81
719.94	1724.39
720.12	1626.09
720.30	1677.29
720.48	1779.68
720.67	1667.05
720.85	1658.85
721.03	1767.40
721.21	1671.14
721.39	1783.78
721.58	1724.39
721.76	1712.10
721.94	1675.24
722.12	1695.72
722.30	1812.45
722.49	1716.20
722.67	1783.78
722.85	1683.43
723.03	1615.85
723.21	1703.91
723.40	1748.97
723.58	1734.63
723.76	1708.01
723.94	1736.68
724.12	1751.01
724.30	1808.36
724.49	1697.77
724.67	1687.53
724.85	1781.73
725.03	1591.27
725.21	1781.73
725.40	1791.97
725.58	1701.86
725.76	1789.92
725.94	1746.92
726.12	1669.09
726.30	1632.23
726.49	1697.77
726.67	1716.20
726.85	1726.44
727.03	1814.50
727.21	2086.88
727.39	2899.92
727.57	3637.19
727.76	4054.98
727.94	4435.90
728.12	4290.49
728.30	3600.33
728.48	2942.93
728.66	2717.65
728.84	2502.62
729.03	2365.40
729.21	2115.55
729.39	1972.19
729.57	1812.45
729.75	1845.22
729.93	1865.70
730.11	1636.33
730.30	1734.63
730.48	1636.33
730.66	1855.46
730.84	1734.63
731.02	1701.86
731.20	1708.01
731.38	1701.86
731.56	1632.23
731.74	1609.70
731.93	1638.38
732.11	1740.77
732.29	1683.43
732.47	1714.15
732.65	1689.57
732.83	1783.78
733.01	1718.25
733.19	1689.57
733.37	1712.10
733.56	1816.55
733.74	1683.43
733.92	1697.77
734.10	1740.77
734.28	1748.97
734.46	1695.72
734.64	1650.66
734.82	1718.25
735.00	1689.57
735.18	1593.32
735.36	1736.68
735.54	1648.61
735.73	1662.95
735.91	1667.05
736.09	1794.02
736.27	1703.91
736.45	1773.54
736.63	1550.31
736.81	1683.43
736.99	1724.39
737.17	1705.96
737.35	1624.04
737.53	1726.44
737.71	1673.19
737.89	1828.84
738.07	1695.72
738.25	1677.29
738.43	1611.75
738.61	1718.25
738.80	1681.38
738.98	1722.34
739.16	1593.32
739.34	1589.22
739.52	1738.73
739.70	1652.71
739.88	1777.64
740.06	1740.77
740.24	1607.66
740.42	1746.92
740.60	1572.84
740.78	1687.53
740.96	1615.85
741.14	1634.28
741.32	1744.87
741.50	1679.33
741.68	1808.36
741.86	1828.84
742.04	1685.48
742.22	1681.38
742.40	1705.96
742.58	1714.15
742.76	1718.25
742.94	1746.92
743.12	1677.29
743.30	1699.81
743.48	1708.01
743.66	1710.05
743.84	1740.77
744.02	1675.24
744.20	1740.77
744.38	1638.38
744.56	1714.15
744.74	1748.97
744.92	1701.86
745.10	1875.94
745.28	1736.68
745.46	1806.31
745.64	1646.57
745.82	1730.53
746.00	1632.23
746.18	1642.47
746.36	1662.95
746.54	1675.24
746.72	1665.00
746.90	1609.70
747.08	1794.02
747.26	1677.29
747.44	1759.21
747.62	1742.82
747.80	1761.25
747.98	1748.97
748.15	1691.62
748.33	1830.88
748.51	1699.81
748.69	1718.25
748.87	1621.99
749.05	1714.15
749.23	1732.58
749.41	1773.54
749.59	1605.61
749.77	1716.20
749.95	1728.49
750.13	1699.81
750.31	1687.53
750.49	1681.38
750.67	1687.53
750.85	1830.88
751.03	1761.25
751.20	1843.17
751.38	1691.62
751.56	1632.23
751.74	1691.62
751.92	1677.29
752.10	1644.52
752.28	1779.68
752.46	1734.63
752.64	1667.05
752.82	1658.85
753.00	1765.35
753.18	1677.29
753.35	1687.53
753.53	1761.25
753.71	1665.00
753.89	1683.43
754.07	1683.43
754.25	1800.16
754.43	1687.53
754.61	1564.65
754.79	1695.72
754.97	1693.67
755.14	1814.50
755.32	1628.14
755.50	1644.52
755.68	1673.19
755.86	1615.85
756.04	1665.00
756.22	1671.14
756.40	1767.40
756.57	1804.26
756.75	1630.18
756.93	1765.35
757.11	1697.77
757.29	1667.05
757.47	1705.96
757.65	1617.90
757.82	1617.90
758.00	1644.52
758.18	1662.95
758.36	1669.09
758.54	1773.54
758.72	1611.75
758.90	1703.91
759.07	1738.73
759.25	1695.72
759.43	1628.14
759.61	1693.67
759.79	2148.32
759.97	1738.73
760.15	1689.57
760.32	1662.95
760.50	1759.21
760.68	1851.36
760.86	1601.51
761.04	1773.54
761.22	1804.26
761.39	1783.78
761.57	1695.72
761.75	1675.24
761.93	1722.34
762.11	1708.01
762.28	1736.68
762.46	1677.29
762.64	1759.21
762.82	1611.75
763.00	1685.48
763.18	1710.05
763.35	1638.38
763.53	1724.39
763.71	1726.44
763.89	1759.21
764.07	1724.39
764.24	1615.85
764.42	1757.16
764.60	1708.01
764.78	1734.63
764.96	1759.21
765.13	1677.29
765.31	1689.57
765.49	1753.06
765.67	1646.57
765.84	1693.67
766.02	1669.09
766.20	1669.09
766.38	1769.44
766.56	1824.74
766.73	1728.49
766.91	1662.95
767.09	1658.85
767.27	1787.88
767.44	1693.67
767.62	1699.81
767.80	1740.77
767.98	1617.90
768.15	1650.66
768.33	1755.11
768.51	1685.48
768.69	1683.43
768.87	1763.30
769.04	1751.01
769.22	1877.99
769.40	1796.07
769.58	1849.32
769.75	1695.72
769.93	1734.63
770.11	1673.19
770.28	1691.62
770.46	1763.30
770.64	1648.61
770.82	1695.72
770.99	1736.68
771.17	1787.88
771.35	1730.53
771.53	1712.10
771.70	1652.71
771.88	1732.58
772.06	1632.23
772.23	1650.66
772.41	1748.97
772.59	1708.01
772.77	1665.00
772.94	1767.40
773.12	1787.88
773.30	1615.85
773.47	1665.00
773.65	1667.05
773.83	1730.53
774.01	1705.96
774.18	1697.77
774.36	1644.52
774.54	1669.09
774.71	1728.49
774.89	1548.26
775.07	1640.42
775.24	1685.48
775.42	1675.24
775.60	1822.69
775.78	1697.77
775.95	1667.05
776.13	1589.22
776.31	1574.89
776.48	1726.44
776.66	1779.68
776.84	1740.77
777.01	1638.38
777.19	1667.05
777.37	1609.70
777.54	1738.73
777.72	1822.69
777.90	1701.86
778.07	1703.91
778.25	1896.42
778.43	1791.97
778.60	1722.34
778.78	1689.57
778.96	1738.73
779.13	1656.81
779.31	1744.87
779.49	1681.38
779.66	1759.21
779.84	1626.09
780.01	1742.82
780.19	1648.61
780.37	1736.68
780.54	1716.20
780.72	1685.48
780.90	1691.62
781.07	1683.43
781.25	1662.95
781.43	1658.85
781.60	1683.43
781.78	1746.92
781.95	1697.77
782.13	1724.39
782.31	1712.10
782.48	1632.23
782.66	1685.48
782.83	1867.75
783.01	1757.16
783.19	1763.30
783.36	1621.99
783.54	1593.32
783.72	1722.34
783.89	1685.48
784.07	1724.39
784.24	1716.20
784.42	1744.87
784.60	1759.21
784.77	1703.91
784.95	1566.70
785.12	1675.24
785.30	1705.96
785.47	1667.05
785.65	1626.09
785.83	1769.44
786.00	1677.29
786.18	1730.53
786.35	1656.81
786.53	1662.95
786.71	1720.29
786.88	1798.12
787.06	1730.53
787.23	1650.66
787.41	1669.09
787.58	1667.05
787.76	1708.01
787.94	1730.53
788.11	1675.24
788.29	1660.90
788.46	1695.72
788.64	1705.96
788.81	1646.57
788.99	1640.42
789.16	1667.05
789.34	1712.10
789.52	1675.24
789.69	1673.19
789.87	1640.42
790.04	1685.48
790.22	1701.86
790.39	1796.07
790.57	1652.71
790.74	1658.85
790.92	1755.11
791.09	1607.66
791.27	1722.34
791.44	1746.92
791.62	1619.94
791.79	1718.25
791.97	1660.90
792.15	1886.18
792.32	1796.07
792.50	1718.25
792.67	1791.97
792.85	1738.73
793.02	1710.05
793.20	1701.86
793.37	1656.81
793.55	1716.20
793.72	1626.09
793.90	1789.92
794.07	1681.38
794.25	1648.61
794.42	1687.53
794.60	1671.14
794.77	1751.01
794.95	1751.01
795.12	1822.69
795.30	1669.09
795.47	1603.56
795.65	1865.70
795.82	1761.25
796.00	1624.04
796.17	1734.63
796.34	1763.30
796.52	1714.15
796.69	1753.06
796.87	1787.88
797.04	1734.63
797.22	1798.12
797.39	1746.92
797.57	1730.53
797.74	1679.33
797.92	1757.16
798.09	1716.20
798.27	1728.49
798.44	1767.40
798.62	1718.25
798.79	1689.57
798.96	1712.10
799.14	1785.83
799.31	1810.40
799.49	1748.97
799.66	1634.28
799.84	1710.05
800.01	1603.56
800.19	1693.67
800.36	1552.36
800.53	1740.77
800.71	1685.48
800.88	1787.88
801.06	1658.85
801.23	1669.09
801.41	1705.96
801.58	1642.47
801.75	1652.71
801.93	1703.91
802.10	1691.62
802.28	1642.47
802.45	1642.47
802.63	1763.30
802.80	1808.36
802.97	1652.71
803.15	1654.76
803.32	1632.23
803.50	1687.53
803.67	1687.53
803.84	1583.08
804.02	1730.53
804.19	1673.19
804.37	1535.98
804.54	1599.46
804.71	1665.00
804.89	1732.58
805.06	1597.42
805.24	1675.24
805.41	1732.58
805.58	1644.52
805.76	1773.54
805.93	1710.05
806.10	1804.26
806.28	1705.96
806.45	1734.63
806.63	1730.53
806.80	1716.20
806.97	1714.15
807.15	1681.38
807.32	1691.62
807.49	1681.38
807.67	1638.38
807.84	1728.49
808.01	1591.27
808.19	1783.78
808.36	1855.46
808.54	1701.86
808.71	1626.09
808.88	1808.36
809.06	1736.68
809.23	1767.40
809.40	1710.05
809.58	1736.68
809.75	1730.53
809.92	1605.61
810.10	1822.69
810.27	1642.47
810.44	1675.24
810.62	1658.85
810.79	1763.30
810.96	1646.57
811.14	1671.14
811.31	1650.66
811.48	1781.73
811.66	1742.82
811.83	1783.78
812.00	1761.25
812.18	1781.73
812.35	1824.74
812.52	1693.67
812.69	1628.14
812.87	1632.23
813.04	1673.19
813.21	1675.24
813.39	1677.29
813.56	1619.94
813.73	1632.23
813.91	1628.14
814.08	1730.53
814.25	1705.96
814.42	1644.52
814.60	1730.53
814.77	1783.78
814.94	1646.57
815.12	1705.96
815.29	1738.73
815.46	1611.75
815.63	1703.91
815.81	1701.86
815.98	1671.14
816.15	1708.01
816.33	1697.77
816.50	1646.57
816.67	1724.39
816.84	1746.92
817.02	1642.47
817.19	1708.01
817.36	1722.34
817.53	1724.39
817.71	1640.42
817.88	1812.45
818.05	1628.14
818.22	1691.62
818.40	1865.70
818.57	1722.34
818.74	1665.00
818.91	1685.48
819.09	1740.77
819.26	1763.30
819.43	1697.77
819.60	1642.47
819.78	1800.16
819.95	1787.88
820.12	1642.47
820.29	1779.68
820.47	1671.14
820.64	1679.33
820.81	1683.43
820.98	1697.77
821.15	1691.62
821.33	1787.88
821.50	1611.75
821.67	1791.97
821.84	1650.66
822.02	1681.38
822.19	1748.97
822.36	1671.14
822.53	1648.61
822.70	1691.62
822.88	1699.81
823.05	1777.64
823.22	1716.20
823.39	1798.12
823.56	1679.33
823.74	1820.64
823.91	1634.28
824.08	1671.14
824.25	1697.77
824.42	1740.77
824.60	1574.89
824.77	1755.11
824.94	1634.28
825.11	1759.21
825.28	1658.85
825.45	1796.07
825.63	1691.62
825.80	1660.90
825.97	1789.92
826.14	1699.81
826.31	1617.90
826.48	1796.07
826.66	1593.32
826.83	1658.85
827.00	1783.78
827.17	1656.81
827.34	1705.96
827.51	1669.09
827.69	1744.87
827.86	1677.29
828.03	1693.67
828.20	1730.53
828.37	1654.76
828.54	1828.84
828.71	1626.09
828.89	1775.59
829.06	1689.57
829.23	1796.07
829.40	1705.96
829.57	1724.39
829.74	1697.77
829.91	1681.38
830.09	1603.56
830.26	1757.16
830.43	1740.77
830.60	1691.62
830.77	1730.53
830.94	1738.73
831.11	1722.34
831.28	1708.01
831.46	1722.34
831.63	1787.88
831.80	1763.30
831.97	1658.85
832.14	1697.77
832.31	1697.77
832.48	1740.77
832.65	1740.77
832.82	1665.00
832.99	1744.87
833.17	1654.76
833.34	1738.73
833.51	1699.81
833.68	1669.09
833.85	1712.10
834.02	1730.53
834.19	1705.96
834.36	1693.67
834.53	1781.73
834.70	1763.30
834.87	1728.49
835.04	1697.77
835.22	1712.10
835.39	1705.96
835.56	1640.42
835.73	1726.44
835.90	1765.35
836.07	1658.85
836.24	1644.52
836.41	1656.81
836.58	1726.44
836.75	1726.44
836.92	1736.68
837.09	1654.76
837.26	1746.92
837.43	1636.33
837.60	1683.43
837.77	1660.90
837.94	1718.25
838.12	1738.73
838.29	1732.58
838.46	1624.04
838.63	1628.14
838.80	1751.01
838.97	1705.96
839.14	1724.39
839.31	1701.86
839.48	1736.68
839.65	1656.81
839.82	1785.83
839.99	1703.91
840.16	1648.61
840.33	1640.42
840.50	1650.66
840.67	1734.63
840.84	1568.74
841.01	1705.96
841.18	1619.94
841.35	1748.97
841.52	1736.68
841.69	1804.26
841.86	1720.29
842.03	1701.86
842.20	1798.12
842.37	1648.61
842.54	1708.01
842.71	1687.53
842.88	1665.00
843.05	1662.95
843.22	1691.62
843.39	1804.26
843.56	1736.68
843.73	1699.81
843.90	1724.39
844.07	1681.38
844.24	1804.26
844.41	1708.01
844.58	1646.57
844.75	1656.81
844.92	1705.96
845.09	1734.63
845.26	1677.29
845.43	1734.63
845.60	1738.73
845.77	1720.29
845.94	1738.73
846.10	1742.82
846.27	1646.57
846.44	1605.61
846.61	1730.53
846.78	1726.44
846.95	1679.33
847.12	1691.62
847.29	1648.61
847.46	1669.09
847.63	1816.55
847.80	1662.95
847.97	1722.34
848.14	1837.03
848.31	1642.47
848.48	1624.04
848.65	1751.01
848.82	1650.66
848.98	1773.54
849.15	1767.40
849.32	1777.64
849.49	1759.21
849.66	1628.14
849.83	1724.39
850.00	1650.66
850.17	1763.30
850.34	1751.01
850.51	1626.09
850.68	1626.09
850.85	1863.65
851.01	1710.05
851.18	1703.91
851.35	1640.42
851.52	1640.42
851.69	1726.44
851.86	1646.57
852.03	1644.52
852.20	1775.59
852.37	1744.87
852.53	1669.09
852.70	1748.97
852.87	1755.11
853.04	1751.01
853.21	1636.33
853.38	1757.16
853.55	1757.16
853.72	1746.92
853.89	1646.57
854.05	1632.23
854.22	1574.89
854.39	1636.33
854.56	1679.33
854.73	1796.07
854.90	1615.85
855.07	1718.25
855.23	1730.53
855.40	1689.57
855.57	1675.24
855.74	1652.71
855.91	1861.60
856.08	1636.33
856.25	1624.04
856.41	1781.73
856.58	1689.57
856.75	1746.92
856.92	1619.94
857.09	1722.34
857.26	1619.94
857.42	1773.54
857.59	1746.92
857.76	1677.29
857.93	1720.29
858.10	1662.95
858.27	1677.29
858.43	1689.57
858.60	1691.62
858.77	1630.18
858.94	1701.86
859.11	1843.17
859.27	1673.19
859.44	1699.81
859.61	1818.60
859.78	1718.25
859.95	1689.57
860.12	1681.38
860.28	1800.16
860.45	1802.21
860.62	1732.58
860.79	1699.81
860.95	1671.14
861.12	1658.85
861.29	1673.19
861.46	1681.38
861.63	1716.20
861.79	1734.63
861.96	1656.81
862.13	1712.10
862.30	1748.97
862.47	1617.90
862.63	1658.85
862.80	1824.74
862.97	1783.78
863.14	1767.40
863.30	1718.25
863.47	1691.62
863.64	1791.97
863.81	1710.05
863.97	1701.86
864.14	1716.20
864.31	1652.71
864.48	1730.53
864.65	1642.47
864.81	1726.44
864.98	1732.58
865.15	1763.30
865.32	1814.50
865.48	1708.01
865.65	1796.07
865.82	1695.72
865.98	1703.91
866.15	1734.63
866.32	1742.82
866.49	1771.49
866.65	1718.25
866.82	1656.81
866.99	1742.82
867.16	1642.47
867.32	1632.23
867.49	1695.72
867.66	1693.67
867.83	1716.20
867.99	1578.98
868.16	1705.96
868.33	1599.46
868.49	1771.49
868.66	1660.90
868.83	1734.63
868.99	1656.81
869.16	1689.57
869.33	1714.15
869.50	1675.24
869.66	1669.09
869.83	1689.57
870.00	1681.38
870.16	1773.54
870.33	1658.85
870.50	1746.92
870.66	1724.39
870.83	1804.26
871.00	1732.58
871.17	1755.11
871.33	1759.21
871.50	1638.38
871.67	1667.05
871.83	1581.03
872.00	1785.83
872.17	1705.96
872.33	1783.78
872.50	1789.92
872.67	1714.15
872.83	1669.09
873.00	1785.83
873.17	1693.67
873.33	1751.01
873.50	1697.77
873.67	1697.77
873.83	1677.29
874.00	1718.25
874.16	1691.62
874.33	1667.05
874.50	1654.76
874.66	1781.73
874.83	1701.86
875.00	1738.73
875.16	1771.49
875.33	1703.91
875.50	1583.08
875.66	1652.71
875.83	1722.34
875.99	1771.49
876.16	1660.90
876.33	1640.42
876.49	1740.77
876.66	1740.77
876.83	1710.05
876.99	1624.04
877.16	1671.14
877.32	1720.29
877.49	1667.05
877.66	1722.34
877.82	1779.68
877.99	1787.88
878.15	1718.25
878.32	1652.71
878.49	1624.04
878.65	1685.48
878.82	1802.21
878.98	1679.33
879.15	1744.87
879.32	1755.11
879.48	1730.53
879.65	1642.47
879.81	1693.67
879.98	1628.14
880.15	1660.90
880.31	1755.11
880.48	1673.19
880.64	1808.36
880.81	1718.25
880.97	1757.16
881.14	1724.39
881.31	1683.43
881.47	1837.03
881.64	1648.61
881.80	1544.17
881.97	1716.20
882.13	1683.43
882.30	1669.09
882.47	1681.38
882.63	1574.89
882.80	1630.18
882.96	1691.62
883.13	1746.92
883.29	1755.11
883.46	1722.34
883.62	1853.41
883.79	1681.38
883.95	1771.49
884.12	1546.22
884.29	1746.92
884.45	1753.06
884.62	1759.21
884.78	1634.28
884.95	1742.82
885.11	1675.24
885.28	1726.44
885.44	1638.38
885.61	1722.34
885.77	1796.07
885.94	1734.63
886.10	1697.77
886.27	1695.72
886.43	1716.20
886.60	1806.31
886.76	1732.58
886.93	1613.80
887.09	1720.29
887.26	1560.55
887.42	1722.34
887.59	1677.29
887.75	1812.45
887.92	1832.93
888.08	1818.60
888.25	1724.39
888.41	1712.10
888.58	1751.01
888.74	1634.28
888.91	1687.53
>>>>>End Processed Spectral Data<<<<<
