SpectraSuite Data File
++++++++++++++++++++++++++++++++++++
Date: Mon Jun 06 16:26:17 CEST 2016
User: root
Dark Spectrum Present: No
Reference Spectrum Present: No
Number of Sampled Component Spectra: 1
Spectrometers: USB4C02835
Integration Time (usec): 100000 (USB4C02835)
Spectra Averaged: 1 (USB4C02835)
Boxcar Smoothing: 0 (USB4C02835)
Correct for Electrical Dark: No (USB4C02835)
Strobe/Lamp Enabled: No (USB4C02835)
Correct for Detector Non-linearity: No (USB4C02835)
Correct for Stray Light: No (USB4C02835)
Number of Pixels in Processed Spectrum: 3648
>>>>>Begin Processed Spectral Data<<<<<
177.47	1503.21
177.69	1503.21
177.91	1503.21
178.13	1443.82
178.36	1478.63
178.58	1638.38
178.80	1689.57
179.02	1628.14
179.24	1703.91
179.46	1708.01
179.68	1781.73
179.90	1683.43
180.13	1732.58
180.35	1665.00
180.57	1642.47
180.79	1658.85
181.01	1665.00
181.23	1769.44
181.45	1751.01
181.67	1755.11
181.90	1828.84
182.12	1732.58
182.34	1677.29
182.56	1716.20
182.78	1753.06
183.00	1648.61
183.22	1693.67
183.44	1644.52
183.66	1867.75
183.89	1722.34
184.11	1732.58
184.33	1746.92
184.55	1837.03
184.77	1701.86
184.99	1691.62
185.21	1650.66
185.43	1877.99
185.65	1615.85
185.87	1685.48
186.10	1888.23
186.32	1796.07
186.54	1759.21
186.76	1716.20
186.98	1791.97
187.20	1746.92
187.42	1738.73
187.64	1601.51
187.86	1746.92
188.08	1794.02
188.30	1687.53
188.52	1771.49
188.75	1794.02
188.97	1781.73
189.19	1728.49
189.41	1708.01
189.63	1703.91
189.85	1738.73
190.07	1638.38
190.29	1714.15
190.51	1720.29
190.73	1613.80
190.95	1748.97
191.17	1748.97
191.39	1642.47
191.61	1652.71
191.84	1742.82
192.06	1771.49
192.28	1671.14
192.50	1882.08
192.72	1718.25
192.94	1777.64
193.16	1791.97
193.38	1740.77
193.60	1609.70
193.82	1716.20
194.04	1736.68
194.26	1800.16
194.48	1763.30
194.70	1609.70
194.92	1630.18
195.14	1761.25
195.36	1656.81
195.58	1689.57
195.80	1656.81
196.02	1734.63
196.24	1730.53
196.46	1689.57
196.69	1638.38
196.91	1853.41
197.13	1669.09
197.35	1691.62
197.57	1753.06
197.79	1705.96
198.01	1767.40
198.23	1732.58
198.45	1777.64
198.67	1671.14
198.89	1728.49
199.11	1671.14
199.33	1640.42
199.55	1630.18
199.77	1708.01
199.99	1804.26
200.21	1701.86
200.43	1771.49
200.65	1718.25
200.87	1601.51
201.09	1681.38
201.31	1718.25
201.53	1738.73
201.75	1763.30
201.97	1736.68
202.19	1667.05
202.41	1759.21
202.63	1832.93
202.85	1757.16
203.07	1722.34
203.29	1755.11
203.51	1640.42
203.73	1644.52
203.95	1837.03
204.17	1695.72
204.39	1703.91
204.61	1744.87
204.83	1703.91
205.05	1761.25
205.27	1822.69
205.49	1791.97
205.71	1654.76
205.93	1609.70
206.15	1626.09
206.37	1673.19
206.59	1646.57
206.81	1632.23
207.03	1626.09
207.25	1689.57
207.47	1742.82
207.69	1728.49
207.91	1705.96
208.13	1775.59
208.34	1667.05
208.56	1673.19
208.78	1769.44
209.00	1662.95
209.22	1710.05
209.44	1714.15
209.66	1646.57
209.88	1728.49
210.10	1667.05
210.32	1730.53
210.54	1779.68
210.76	1697.77
210.98	1673.19
211.20	1611.75
211.42	1722.34
211.64	1769.44
211.86	1740.77
212.08	1781.73
212.30	1718.25
212.52	1775.59
212.74	1691.62
212.96	1712.10
213.17	1634.28
213.39	1714.15
213.61	1798.12
213.83	1757.16
214.05	1576.94
214.27	1800.16
214.49	1550.31
214.71	1665.00
214.93	1736.68
215.15	1769.44
215.37	1716.20
215.59	1538.02
215.81	1701.86
216.03	1816.55
216.24	1755.11
216.46	1710.05
216.68	1658.85
216.90	1763.30
217.12	1812.45
217.34	1734.63
217.56	1777.64
217.78	1816.55
218.00	1675.24
218.22	1736.68
218.44	1640.42
218.66	1728.49
218.87	1755.11
219.09	1718.25
219.31	1755.11
219.53	1775.59
219.75	1636.33
219.97	1738.73
220.19	1705.96
220.41	1630.18
220.63	1740.77
220.85	1804.26
221.06	1728.49
221.28	1757.16
221.50	1730.53
221.72	1732.58
221.94	1730.53
222.16	1691.62
222.38	1808.36
222.60	1718.25
222.82	1697.77
223.03	1759.21
223.25	1705.96
223.47	1822.69
223.69	1834.98
223.91	1716.20
224.13	1742.82
224.35	1644.52
224.57	1820.64
224.78	1734.63
225.00	1667.05
225.22	1693.67
225.44	1738.73
225.66	1759.21
225.88	1722.34
226.10	1806.31
226.32	1718.25
226.53	1816.55
226.75	1748.97
226.97	1722.34
227.19	1714.15
227.41	1626.09
227.63	1689.57
227.85	1632.23
228.06	1681.38
228.28	1714.15
228.50	1787.88
228.72	1734.63
228.94	1699.81
229.16	1630.18
229.37	1617.90
229.59	1652.71
229.81	1871.84
230.03	1748.97
230.25	1560.55
230.47	1687.53
230.69	1619.94
230.90	1800.16
231.12	1619.94
231.34	1775.59
231.56	1734.63
231.78	1687.53
232.00	1757.16
232.21	1771.49
232.43	1695.72
232.65	1665.00
232.87	1734.63
233.09	1652.71
233.30	1640.42
233.52	1748.97
233.74	1773.54
233.96	1738.73
234.18	1744.87
234.40	1746.92
234.61	1828.84
234.83	1662.95
235.05	1593.32
235.27	1822.69
235.49	1830.88
235.70	1757.16
235.92	1773.54
236.14	1677.29
236.36	1871.84
236.58	1654.76
236.79	1728.49
237.01	1677.29
237.23	1665.00
237.45	1914.85
237.67	1572.84
237.88	1689.57
238.10	1820.64
238.32	1660.90
238.54	1677.29
238.76	1648.61
238.97	1705.96
239.19	1665.00
239.41	1765.35
239.63	1767.40
239.85	1679.33
240.06	1691.62
240.28	1775.59
240.50	1701.86
240.72	1726.44
240.93	1654.76
241.15	1794.02
241.37	1705.96
241.59	1759.21
241.81	1693.67
242.02	1697.77
242.24	1689.57
242.46	1767.40
242.68	1748.97
242.89	1800.16
243.11	1722.34
243.33	1677.29
243.55	1740.77
243.76	1726.44
243.98	1697.77
244.20	1652.71
244.42	1724.39
244.64	1677.29
244.85	1564.65
245.07	1714.15
245.29	1808.36
245.51	1724.39
245.72	1738.73
245.94	1742.82
246.16	1730.53
246.38	1839.08
246.59	1781.73
246.81	1587.18
247.03	1734.63
247.24	1611.75
247.46	1753.06
247.68	1771.49
247.90	1697.77
248.11	1714.15
248.33	1751.01
248.55	1708.01
248.77	1728.49
248.98	1808.36
249.20	1783.78
249.42	1755.11
249.64	1705.96
249.85	1646.57
250.07	1691.62
250.29	1779.68
250.50	1802.21
250.72	1650.66
250.94	1716.20
251.16	1841.12
251.37	1742.82
251.59	1679.33
251.81	1789.92
252.02	1781.73
252.24	1669.09
252.46	1787.88
252.68	1605.61
252.89	1595.37
253.11	1669.09
253.33	1767.40
253.54	1777.64
253.76	1660.90
253.98	1654.76
254.20	1660.90
254.41	1703.91
254.63	1689.57
254.85	1546.22
255.06	1775.59
255.28	1728.49
255.50	1716.20
255.71	1703.91
255.93	1605.61
256.15	1673.19
256.36	1748.97
256.58	1730.53
256.80	1816.55
257.02	1699.81
257.23	1697.77
257.45	1755.11
257.67	1689.57
257.88	1732.58
258.10	1767.40
258.32	1724.39
258.53	1722.34
258.75	1791.97
258.97	1673.19
259.18	1665.00
259.40	1714.15
259.62	1779.68
259.83	1796.07
260.05	1789.92
260.27	1984.48
260.48	1705.96
260.70	1660.90
260.92	1654.76
261.13	1681.38
261.35	1740.77
261.57	1791.97
261.78	1595.37
262.00	1626.09
262.22	1775.59
262.43	1703.91
262.65	1654.76
262.86	1730.53
263.08	1861.60
263.30	1691.62
263.51	1624.04
263.73	1697.77
263.95	1796.07
264.16	1660.90
264.38	1685.48
264.60	1736.68
264.81	1658.85
265.03	1763.30
265.25	1789.92
265.46	1761.25
265.68	1798.12
265.89	1863.65
266.11	1646.57
266.33	1728.49
266.54	1779.68
266.76	1710.05
266.98	1773.54
267.19	1822.69
267.41	1802.21
267.62	1789.92
267.84	1628.14
268.06	1746.92
268.27	1695.72
268.49	1742.82
268.70	1757.16
268.92	1703.91
269.14	1642.47
269.35	1656.81
269.57	1669.09
269.79	1771.49
270.00	1677.29
270.22	1859.56
270.43	1673.19
270.65	1591.27
270.87	1767.40
271.08	1761.25
271.30	1748.97
271.51	1820.64
271.73	1753.06
271.95	1779.68
272.16	1687.53
272.38	1742.82
272.59	1744.87
272.81	1722.34
273.02	1701.86
273.24	1662.95
273.46	1714.15
273.67	1640.42
273.89	1683.43
274.10	1722.34
274.32	1718.25
274.54	1699.81
274.75	1746.92
274.97	1638.38
275.18	1769.44
275.40	1722.34
275.61	1712.10
275.83	1656.81
276.05	1642.47
276.26	1679.33
276.48	1718.25
276.69	1697.77
276.91	1660.90
277.12	1798.12
277.34	1757.16
277.55	1800.16
277.77	1656.81
277.99	1714.15
278.20	1646.57
278.42	1691.62
278.63	1693.67
278.85	1644.52
279.06	1646.57
279.28	1720.29
279.49	1705.96
279.71	1804.26
279.93	1685.48
280.14	1701.86
280.36	1665.00
280.57	1814.50
280.79	1781.73
281.00	1679.33
281.22	1640.42
281.43	1779.68
281.65	1611.75
281.86	1593.32
282.08	1777.64
282.29	1828.84
282.51	1630.18
282.73	1619.94
282.94	1585.13
283.16	1746.92
283.37	1808.36
283.59	1740.77
283.80	1730.53
284.02	1689.57
284.23	1816.55
284.45	1771.49
284.66	1671.14
284.88	1626.09
285.09	1759.21
285.31	1681.38
285.52	1810.40
285.74	1669.09
285.95	1802.21
286.17	1757.16
286.38	1791.97
286.60	1724.39
286.81	1640.42
287.03	1705.96
287.24	1691.62
287.46	1671.14
287.67	1730.53
287.89	1816.55
288.10	1671.14
288.32	1652.71
288.53	1869.80
288.75	1697.77
288.96	1808.36
289.18	1710.05
289.39	1650.66
289.61	1722.34
289.82	1892.32
290.04	1828.84
290.25	1677.29
290.47	1669.09
290.68	1681.38
290.90	1755.11
291.11	1705.96
291.33	1763.30
291.54	1650.66
291.76	1689.57
291.97	1701.86
292.18	1736.68
292.40	1746.92
292.61	1695.72
292.83	1855.46
293.04	1730.53
293.26	1767.40
293.47	1703.91
293.69	1636.33
293.90	1673.19
294.12	1818.60
294.33	1667.05
294.55	1675.24
294.76	1740.77
294.97	1796.07
295.19	1832.93
295.40	1667.05
295.62	1826.79
295.83	1744.87
296.05	1705.96
296.26	1748.97
296.48	1701.86
296.69	1746.92
296.90	1679.33
297.12	1732.58
297.33	1783.78
297.55	1681.38
297.76	1703.91
297.98	1744.87
298.19	1699.81
298.41	1751.01
298.62	1667.05
298.83	1753.06
299.05	1667.05
299.26	1746.92
299.48	1568.74
299.69	1665.00
299.90	1697.77
300.12	1705.96
300.33	1726.44
300.55	1732.58
300.76	1759.21
300.98	1693.67
301.19	1724.39
301.40	1677.29
301.62	1751.01
301.83	1794.02
302.05	1593.32
302.26	1705.96
302.47	1714.15
302.69	1652.71
302.90	1654.76
303.12	1619.94
303.33	1738.73
303.54	1755.11
303.76	1677.29
303.97	1687.53
304.19	1830.88
304.40	1716.20
304.61	1722.34
304.83	1785.83
305.04	1773.54
305.26	1718.25
305.47	1708.01
305.68	1718.25
305.90	1632.23
306.11	1808.36
306.33	1730.53
306.54	1701.86
306.75	1746.92
306.97	1687.53
307.18	1695.72
307.39	1689.57
307.61	1734.63
307.82	1687.53
308.04	1775.59
308.25	1609.70
308.46	1755.11
308.68	1714.15
308.89	1685.48
309.10	1865.70
309.32	1685.48
309.53	1796.07
309.74	1761.25
309.96	1722.34
310.17	1804.26
310.39	1716.20
310.60	1779.68
310.81	1767.40
311.03	1583.08
311.24	1736.68
311.45	1708.01
311.67	1791.97
311.88	1697.77
312.09	1748.97
312.31	1669.09
312.52	1718.25
312.73	1767.40
312.95	1738.73
313.16	1677.29
313.37	1851.36
313.59	1769.44
313.80	1863.65
314.01	1859.56
314.23	1730.53
314.44	1669.09
314.65	1673.19
314.87	1697.77
315.08	1753.06
315.29	1687.53
315.51	1617.90
315.72	1662.95
315.93	1794.02
316.15	1763.30
316.36	1753.06
316.57	1650.66
316.79	1775.59
317.00	1746.92
317.21	1710.05
317.43	1775.59
317.64	1691.62
317.85	1675.24
318.07	1689.57
318.28	1767.40
318.49	1808.36
318.70	1918.95
318.92	1828.84
319.13	1871.84
319.34	1822.69
319.56	1794.02
319.77	1705.96
319.98	1806.31
320.20	1705.96
320.41	1740.77
320.62	1753.06
320.83	1642.47
321.05	1873.89
321.26	1759.21
321.47	1646.57
321.69	1824.74
321.90	1665.00
322.11	1691.62
322.32	1781.73
322.54	1806.31
322.75	1716.20
322.96	1794.02
323.18	1671.14
323.39	1624.04
323.60	1695.72
323.81	1740.77
324.03	1642.47
324.24	1708.01
324.45	1820.64
324.66	1683.43
324.88	1757.16
325.09	1800.16
325.30	1746.92
325.52	1738.73
325.73	1746.92
325.94	1734.63
326.15	1628.14
326.37	1597.42
326.58	1751.01
326.79	1771.49
327.00	1671.14
327.22	1693.67
327.43	1673.19
327.64	1617.90
327.85	1771.49
328.07	1794.02
328.28	1816.55
328.49	1740.77
328.70	1669.09
328.92	1656.81
329.13	1705.96
329.34	1748.97
329.55	1740.77
329.76	1697.77
329.98	1703.91
330.19	1773.54
330.40	1732.58
330.61	1720.29
330.83	1697.77
331.04	1613.80
331.25	1689.57
331.46	1718.25
331.68	1742.82
331.89	1746.92
332.10	1734.63
332.31	1630.18
332.52	1738.73
332.74	1816.55
332.95	1648.61
333.16	1746.92
333.37	1689.57
333.58	1660.90
333.80	1761.25
334.01	1544.17
334.22	1742.82
334.43	1738.73
334.64	1681.38
334.86	1607.66
335.07	1646.57
335.28	1779.68
335.49	1607.66
335.70	1755.11
335.92	1755.11
336.13	1906.66
336.34	1722.34
336.55	1787.88
336.76	1798.12
336.98	1560.55
337.19	1722.34
337.40	1703.91
337.61	1806.31
337.82	1695.72
338.04	1759.21
338.25	1644.52
338.46	1798.12
338.67	1703.91
338.88	1632.23
339.09	1626.09
339.31	1710.05
339.52	1660.90
339.73	1697.77
339.94	1771.49
340.15	1771.49
340.36	1648.61
340.58	1724.39
340.79	1632.23
341.00	1730.53
341.21	1640.42
341.42	1894.37
341.63	1775.59
341.85	1785.83
342.06	1685.48
342.27	1683.43
342.48	1769.44
342.69	1673.19
342.90	1746.92
343.12	1783.78
343.33	1665.00
343.54	1732.58
343.75	1767.40
343.96	1697.77
344.17	1687.53
344.38	1714.15
344.60	1693.67
344.81	1593.32
345.02	1693.67
345.23	1837.03
345.44	1716.20
345.65	1736.68
345.86	1744.87
346.07	1687.53
346.29	1722.34
346.50	1740.77
346.71	1714.15
346.92	1791.97
347.13	1845.22
347.34	1761.25
347.55	1718.25
347.76	1701.86
347.98	1642.47
348.19	1730.53
348.40	1769.44
348.61	1675.24
348.82	1751.01
349.03	1755.11
349.24	1746.92
349.45	1712.10
349.66	1624.04
349.88	1701.86
350.09	1624.04
350.30	1787.88
350.51	1787.88
350.72	1734.63
350.93	1677.29
351.14	1724.39
351.35	1710.05
351.56	1628.14
351.77	1748.97
351.99	1732.58
352.20	1746.92
352.41	1822.69
352.62	1660.90
352.83	1652.71
353.04	1740.77
353.25	1679.33
353.46	1804.26
353.67	1779.68
353.88	1542.12
354.09	1691.62
354.30	1767.40
354.52	1808.36
354.73	1671.14
354.94	1742.82
355.15	1728.49
355.36	1771.49
355.57	1636.33
355.78	1738.73
355.99	1607.66
356.20	1679.33
356.41	1773.54
356.62	1685.48
356.83	1703.91
357.04	1769.44
357.25	1599.46
357.46	1679.33
357.68	1667.05
357.89	1593.32
358.10	1724.39
358.31	1697.77
358.52	1695.72
358.73	1652.71
358.94	1648.61
359.15	1630.18
359.36	1796.07
359.57	1712.10
359.78	1673.19
359.99	1716.20
360.20	1667.05
360.41	1607.66
360.62	1763.30
360.83	1697.77
361.04	1648.61
361.25	1699.81
361.46	1808.36
361.67	1697.77
361.88	1740.77
362.09	1775.59
362.30	1712.10
362.51	1734.63
362.72	1753.06
362.93	1816.55
363.14	1816.55
363.35	1689.57
363.56	1683.43
363.78	1695.72
363.99	1761.25
364.20	1699.81
364.41	1730.53
364.62	1820.64
364.83	1826.79
365.04	1722.34
365.25	1660.90
365.46	1820.64
365.67	1673.19
365.88	1615.85
366.09	1724.39
366.30	1720.29
366.51	1740.77
366.72	1648.61
366.93	1734.63
367.14	1718.25
367.35	1755.11
367.56	1689.57
367.77	1802.21
367.98	1787.88
368.18	1847.27
368.39	1726.44
368.60	1724.39
368.81	1775.59
369.02	1738.73
369.23	1652.71
369.44	1654.76
369.65	1646.57
369.86	1767.40
370.07	1779.68
370.28	1673.19
370.49	1800.16
370.70	1738.73
370.91	1691.62
371.12	1626.09
371.33	1714.15
371.54	1724.39
371.75	1791.97
371.96	1679.33
372.17	1701.86
372.38	1820.64
372.59	1693.67
372.80	1701.86
373.01	1675.24
373.22	1689.57
373.43	1722.34
373.64	1689.57
373.85	1798.12
374.06	1822.69
374.26	1646.57
374.47	1800.16
374.68	1796.07
374.89	1714.15
375.10	1640.42
375.31	1732.58
375.52	1650.66
375.73	1742.82
375.94	1695.72
376.15	1789.92
376.36	1693.67
376.57	1738.73
376.78	1693.67
376.99	1679.33
377.20	1800.16
377.40	1708.01
377.61	1837.03
377.82	1730.53
378.03	1763.30
378.24	1759.21
378.45	1736.68
378.66	1791.97
378.87	1673.19
379.08	1681.38
379.29	1732.58
379.50	1861.60
379.71	1677.29
379.91	1818.60
380.12	1800.16
380.33	1691.62
380.54	1705.96
380.75	1740.77
380.96	1636.33
381.17	1761.25
381.38	1730.53
381.59	1716.20
381.80	1656.81
382.00	1910.75
382.21	1716.20
382.42	1777.64
382.63	1927.14
382.84	1728.49
383.05	1771.49
383.26	1812.45
383.47	1785.83
383.68	1773.54
383.88	1757.16
384.09	1802.21
384.30	1824.74
384.51	1699.81
384.72	1624.04
384.93	1624.04
385.14	1781.73
385.35	1708.01
385.55	1705.96
385.76	1783.78
385.97	1742.82
386.18	1658.85
386.39	1628.14
386.60	1681.38
386.81	1728.49
387.02	1681.38
387.22	1710.05
387.43	1855.46
387.64	1791.97
387.85	1787.88
388.06	2265.05
388.27	4288.45
388.48	6717.34
388.68	8279.94
388.89	9709.42
389.10	9901.93
389.31	8646.52
389.52	7432.08
389.73	6762.39
389.93	6098.85
390.14	5857.19
390.35	5265.33
390.56	4640.70
390.77	3899.33
390.98	3008.47
391.18	2473.95
391.39	2140.13
391.60	1867.75
391.81	1837.03
392.02	1757.16
392.23	1861.60
392.43	1714.15
392.64	1869.80
392.85	1677.29
393.06	1753.06
393.27	1816.55
393.47	1675.24
393.68	1755.11
393.89	1701.86
394.10	1814.50
394.31	1728.49
394.52	1724.39
394.72	1732.58
394.93	1816.55
395.14	1642.47
395.35	1791.97
395.56	1685.48
395.76	1695.72
395.97	1714.15
396.18	1789.92
396.39	1859.56
396.60	2047.97
396.80	1882.08
397.01	1822.69
397.22	1771.49
397.43	1929.19
397.64	1775.59
397.84	1783.78
398.05	1857.51
398.26	1751.01
398.47	1738.73
398.67	1785.83
398.88	1763.30
399.09	1777.64
399.30	1720.29
399.51	1746.92
399.71	1740.77
399.92	1716.20
400.13	1841.12
400.34	1730.53
400.54	1761.25
400.75	1798.12
400.96	1812.45
401.17	1783.78
401.37	1755.11
401.58	1724.39
401.79	1757.16
402.00	1877.99
402.21	2058.21
402.41	1976.29
402.62	1970.15
402.83	2052.06
403.04	1988.58
403.24	2027.49
403.45	1945.57
403.66	1890.28
403.87	1877.99
404.07	1873.89
404.28	1877.99
404.49	1820.64
404.70	1808.36
404.90	1791.97
405.11	1796.07
405.32	1734.63
405.52	1685.48
405.73	1662.95
405.94	1638.38
406.15	1675.24
406.35	1812.45
406.56	1775.59
406.77	1814.50
406.98	1763.30
407.18	1689.57
407.39	1781.73
407.60	1679.33
407.80	1742.82
408.01	1679.33
408.22	1742.82
408.43	1642.47
408.63	1748.97
408.84	1652.71
409.05	1779.68
409.25	1757.16
409.46	1660.90
409.67	1689.57
409.88	1642.47
410.08	1800.16
410.29	1759.21
410.50	1820.64
410.70	1732.58
410.91	1746.92
411.12	1730.53
411.32	1730.53
411.53	1701.86
411.74	1812.45
411.95	1781.73
412.15	1689.57
412.36	1859.56
412.57	1820.64
412.77	1818.60
412.98	1740.77
413.19	1742.82
413.39	1791.97
413.60	1785.83
413.81	1810.40
414.01	1677.29
414.22	1685.48
414.43	1771.49
414.63	1689.57
414.84	1769.44
415.05	1724.39
415.25	1593.32
415.46	1705.96
415.67	1714.15
415.87	1757.16
416.08	1705.96
416.29	1630.18
416.49	1712.10
416.70	1615.85
416.91	1734.63
417.11	1697.77
417.32	1714.15
417.53	1671.14
417.73	1732.58
417.94	1736.68
418.15	1812.45
418.35	1773.54
418.56	1804.26
418.77	1886.18
418.97	1697.77
419.18	1724.39
419.38	1679.33
419.59	1734.63
419.80	1845.22
420.00	1693.67
420.21	1730.53
420.42	1785.83
420.62	1720.29
420.83	1673.19
421.04	1681.38
421.24	1679.33
421.45	1773.54
421.65	1808.36
421.86	1728.49
422.07	1814.50
422.27	1673.19
422.48	1789.92
422.69	1626.09
422.89	1652.71
423.10	1652.71
423.30	1722.34
423.51	1755.11
423.72	1742.82
423.92	1804.26
424.13	1726.44
424.33	1785.83
424.54	1767.40
424.75	1720.29
424.95	1812.45
425.16	1806.31
425.36	1701.86
425.57	1763.30
425.78	1742.82
425.98	1804.26
426.19	1665.00
426.39	1609.70
426.60	1697.77
426.81	1808.36
427.01	1728.49
427.22	1716.20
427.42	1591.27
427.63	1683.43
427.83	1769.44
428.04	1886.18
428.25	1757.16
428.45	1769.44
428.66	1779.68
428.86	1695.72
429.07	1665.00
429.28	1701.86
429.48	1724.39
429.69	1648.61
429.89	1748.97
430.10	1656.81
430.30	1779.68
430.51	1742.82
430.71	1746.92
430.92	1751.01
431.13	1796.07
431.33	1742.82
431.54	1740.77
431.74	1763.30
431.95	1818.60
432.15	1712.10
432.36	1718.25
432.56	1783.78
432.77	1818.60
432.98	1830.88
433.18	1794.02
433.39	1701.86
433.59	1730.53
433.80	1875.94
434.00	1826.79
434.21	1718.25
434.41	1689.57
434.62	1945.57
434.82	1669.09
435.03	1691.62
435.23	1714.15
435.44	1607.66
435.64	1796.07
435.85	1730.53
436.06	1798.12
436.26	1732.58
436.47	1705.96
436.67	1718.25
436.88	1734.63
437.08	1800.16
437.29	1826.79
437.49	1765.35
437.70	1798.12
437.90	1757.16
438.11	1875.94
438.31	1834.98
438.52	1896.42
438.72	1867.75
438.93	1880.04
439.13	1812.45
439.34	1812.45
439.54	1701.86
439.75	1746.92
439.95	1888.23
440.16	1736.68
440.36	1775.59
440.57	1736.68
440.77	1763.30
440.98	1771.49
441.18	1742.82
441.39	1759.21
441.59	1652.71
441.80	1785.83
442.00	1730.53
442.21	1837.03
442.41	1718.25
442.62	1746.92
442.82	1705.96
443.02	1708.01
443.23	1763.30
443.43	1687.53
443.64	1800.16
443.84	1607.66
444.05	1814.50
444.25	1742.82
444.46	1710.05
444.66	1699.81
444.87	1843.17
445.07	1646.57
445.28	1738.73
445.48	1822.69
445.69	1771.49
445.89	1888.23
446.09	1785.83
446.30	1964.00
446.50	2617.30
446.71	3624.90
446.91	4270.01
447.12	4773.82
447.32	4851.64
447.53	4431.80
447.73	3876.80
447.93	3534.79
448.14	3340.24
448.34	3157.97
448.55	2897.88
448.75	2863.06
448.96	2709.46
449.16	2437.08
449.36	2322.40
449.57	2117.60
449.77	1914.85
449.98	1789.92
450.18	1800.16
450.39	1804.26
450.59	1775.59
450.79	1751.01
451.00	1716.20
451.20	1781.73
451.41	1626.09
451.61	1787.88
451.81	1712.10
452.02	1716.20
452.22	1761.25
452.43	1693.67
452.63	1724.39
452.84	1714.15
453.04	1724.39
453.24	1734.63
453.45	1699.81
453.65	1628.14
453.86	1742.82
454.06	1779.68
454.26	1777.64
454.47	1675.24
454.67	1755.11
454.87	1755.11
455.08	1748.97
455.28	1771.49
455.49	1789.92
455.69	1728.49
455.89	1882.08
456.10	1781.73
456.30	1665.00
456.51	1759.21
456.71	1806.31
456.91	1789.92
457.12	1843.17
457.32	1744.87
457.52	1718.25
457.73	1818.60
457.93	1751.01
458.14	1726.44
458.34	1642.47
458.54	1683.43
458.75	1691.62
458.95	1722.34
459.15	1779.68
459.36	1781.73
459.56	1757.16
459.76	1886.18
459.97	1757.16
460.17	1789.92
460.37	1751.01
460.58	1755.11
460.78	1783.78
460.99	1691.62
461.19	1726.44
461.39	1722.34
461.60	1632.23
461.80	1697.77
462.00	1636.33
462.21	1765.35
462.41	1648.61
462.61	1779.68
462.82	1642.47
463.02	1763.30
463.22	1740.77
463.43	1794.02
463.63	1662.95
463.83	1834.98
464.04	1759.21
464.24	1738.73
464.44	1699.81
464.64	1669.09
464.85	1718.25
465.05	1796.07
465.25	1607.66
465.46	1658.85
465.66	1785.83
465.86	1789.92
466.07	1802.21
466.27	1722.34
466.47	1630.18
466.68	1675.24
466.88	1783.78
467.08	1738.73
467.29	1777.64
467.49	1802.21
467.69	1665.00
467.89	1738.73
468.10	1705.96
468.30	1814.50
468.50	1771.49
468.71	1783.78
468.91	1701.86
469.11	1900.52
469.31	1753.06
469.52	1730.53
469.72	1826.79
469.92	1892.32
470.13	1744.87
470.33	1732.58
470.53	1877.99
470.73	2080.74
470.94	2234.33
471.14	2361.31
471.34	2508.76
471.54	2426.84
471.75	2232.29
471.95	2142.18
472.15	2111.46
472.36	2172.89
472.56	2052.06
472.76	2054.11
472.96	1992.67
473.17	2017.25
473.37	1894.37
473.57	1863.65
473.77	1884.13
473.98	1812.45
474.18	1724.39
474.38	1894.37
474.58	1806.31
474.79	1746.92
474.99	1783.78
475.19	1787.88
475.39	1652.71
475.60	1755.11
475.80	1697.77
476.00	1746.92
476.20	1587.18
476.41	1701.86
476.61	1882.08
476.81	1853.41
477.01	1636.33
477.21	1843.17
477.42	1769.44
477.62	1634.28
477.82	1761.25
478.02	1755.11
478.23	1718.25
478.43	1722.34
478.63	1728.49
478.83	1728.49
479.03	1740.77
479.24	1837.03
479.44	1843.17
479.64	1697.77
479.84	1640.42
480.04	1789.92
480.25	1798.12
480.45	1640.42
480.65	1730.53
480.85	1757.16
481.06	1656.81
481.26	1726.44
481.46	1740.77
481.66	1759.21
481.86	1693.67
482.06	1796.07
482.27	1632.23
482.47	1710.05
482.67	1751.01
482.87	1642.47
483.07	1796.07
483.28	1744.87
483.48	1611.75
483.68	1646.57
483.88	1660.90
484.08	1607.66
484.29	1705.96
484.49	1730.53
484.69	1738.73
484.89	1794.02
485.09	1767.40
485.29	1734.63
485.50	1751.01
485.70	1697.77
485.90	1865.70
486.10	1730.53
486.30	1722.34
486.50	1773.54
486.71	1765.35
486.91	1728.49
487.11	1785.83
487.31	1652.71
487.51	1798.12
487.71	1675.24
487.91	1665.00
488.12	1755.11
488.32	1601.51
488.52	1771.49
488.72	1593.32
488.92	1771.49
489.12	1751.01
489.32	1779.68
489.53	1705.96
489.73	1607.66
489.93	1814.50
490.13	1765.35
490.33	1662.95
490.53	1781.73
490.73	1748.97
490.94	1671.14
491.14	1777.64
491.34	1806.31
491.54	2115.55
491.74	2609.11
491.94	2944.98
492.14	3121.10
492.34	3004.37
492.54	2775.00
492.75	2414.56
492.95	2484.19
493.15	2330.59
493.35	2299.87
493.55	2265.05
493.75	2115.55
493.95	2197.47
494.15	2004.96
494.35	1980.39
494.56	1892.32
494.76	1855.46
494.96	1783.78
495.16	1867.75
495.36	1781.73
495.56	1683.43
495.76	1787.88
495.96	1662.95
496.16	1697.77
496.36	1828.84
496.56	1689.57
496.77	1738.73
496.97	1748.97
497.17	1773.54
497.37	1640.42
497.57	1726.44
497.77	1742.82
497.97	1683.43
498.17	1691.62
498.37	1677.29
498.57	1775.59
498.77	1697.77
498.97	1796.07
499.17	1830.88
499.38	1777.64
499.58	1767.40
499.78	1728.49
499.98	1869.80
500.18	1798.12
500.38	1730.53
500.58	1912.80
500.78	2562.01
500.98	4560.83
501.18	5914.53
501.38	6633.37
501.58	7303.06
501.78	6670.23
501.98	5648.30
502.18	5072.82
502.38	4458.43
502.58	4104.13
502.78	3798.98
502.98	3708.87
503.18	3551.18
503.38	3200.98
503.59	2957.27
503.79	2660.31
503.99	2521.05
504.19	2291.68
504.39	2277.34
504.59	2220.00
504.79	2164.70
504.99	2045.92
505.19	1886.18
505.39	1894.37
505.59	1857.51
505.79	1964.00
505.99	1847.27
506.19	1918.95
506.39	1867.75
506.59	1730.53
506.79	1740.77
506.99	1824.74
507.19	1787.88
507.39	1779.68
507.59	1703.91
507.79	1699.81
507.99	1665.00
508.19	1763.30
508.39	1689.57
508.59	1773.54
508.79	1871.84
508.99	1877.99
509.19	1744.87
509.39	1875.94
509.59	1722.34
509.79	1728.49
509.99	1669.09
510.19	1814.50
510.39	1722.34
510.59	1763.30
510.79	1697.77
510.99	1617.90
511.19	1718.25
511.39	1914.85
511.59	1806.31
511.79	1814.50
511.99	1669.09
512.19	1906.66
512.38	1753.06
512.58	1662.95
512.78	1732.58
512.98	1691.62
513.18	1779.68
513.38	1669.09
513.58	1822.69
513.78	1712.10
513.98	1759.21
514.18	1699.81
514.38	1744.87
514.58	1751.01
514.78	1703.91
514.98	1740.77
515.18	1779.68
515.38	1621.99
515.58	1785.83
515.78	1742.82
515.98	1746.92
516.18	1834.98
516.38	1714.15
516.57	1681.38
516.77	1701.86
516.97	1726.44
517.17	1705.96
517.37	1660.90
517.57	1757.16
517.77	1828.84
517.97	1714.15
518.17	1787.88
518.37	1671.14
518.57	1693.67
518.77	1728.49
518.97	1751.01
519.16	1740.77
519.36	1841.12
519.56	1685.48
519.76	1746.92
519.96	1667.05
520.16	1853.41
520.36	1689.57
520.56	1791.97
520.76	1673.19
520.96	1705.96
521.16	1812.45
521.35	1877.99
521.55	1830.88
521.75	1796.07
521.95	1740.77
522.15	1667.05
522.35	1677.29
522.55	1691.62
522.75	1787.88
522.95	1714.15
523.14	1718.25
523.34	1779.68
523.54	1695.72
523.74	1769.44
523.94	1763.30
524.14	1656.81
524.34	1757.16
524.54	1802.21
524.73	1720.29
524.93	1710.05
525.13	1742.82
525.33	1708.01
525.53	1855.46
525.73	1744.87
525.93	1724.39
526.13	1759.21
526.32	1679.33
526.52	1794.02
526.72	1767.40
526.92	1720.29
527.12	1689.57
527.32	1677.29
527.52	1849.32
527.71	1767.40
527.91	1800.16
528.11	1701.86
528.31	1689.57
528.51	1718.25
528.71	1742.82
528.90	1753.06
529.10	1796.07
529.30	1857.51
529.50	1628.14
529.70	1761.25
529.90	1716.20
530.09	1695.72
530.29	1638.38
530.49	1665.00
530.69	1920.99
530.89	1734.63
531.09	1783.78
531.28	1779.68
531.48	1761.25
531.68	1777.64
531.88	1781.73
532.08	1804.26
532.28	1716.20
532.47	1730.53
532.67	1748.97
532.87	1796.07
533.07	1681.38
533.27	1714.15
533.46	1781.73
533.66	1685.48
533.86	1742.82
534.06	1722.34
534.26	1798.12
534.45	1632.23
534.65	1734.63
534.85	1820.64
535.05	1736.68
535.25	1697.77
535.44	1667.05
535.64	1781.73
535.84	1845.22
536.04	1703.91
536.24	1748.97
536.43	1683.43
536.63	1796.07
536.83	1751.01
537.03	1761.25
537.22	1716.20
537.42	1599.46
537.62	1794.02
537.82	1703.91
538.02	1869.80
538.21	1796.07
538.41	1966.05
538.61	1710.05
538.81	1728.49
539.00	1806.31
539.20	1646.57
539.40	1667.05
539.60	1771.49
539.79	1851.36
539.99	1757.16
540.19	1630.18
540.39	1763.30
540.58	1736.68
540.78	1832.93
540.98	1769.44
541.18	1830.88
541.37	1822.69
541.57	1722.34
541.77	1767.40
541.97	1642.47
542.16	1753.06
542.36	1734.63
542.56	1847.27
542.76	1898.47
542.95	1712.10
543.15	1720.29
543.35	1787.88
543.54	1734.63
543.74	1705.96
543.94	1834.98
544.14	1746.92
544.33	1787.88
544.53	1746.92
544.73	1734.63
544.93	1767.40
545.12	1730.53
545.32	1755.11
545.52	1693.67
545.71	1624.04
545.91	1667.05
546.11	1708.01
546.30	1679.33
546.50	1722.34
546.70	1794.02
546.90	1751.01
547.09	1634.28
547.29	1781.73
547.49	1736.68
547.68	1755.11
547.88	1693.67
548.08	1773.54
548.27	2191.33
548.47	1783.78
548.67	1693.67
548.87	1746.92
549.06	1720.29
549.26	1841.12
549.46	1804.26
549.65	1728.49
549.85	1748.97
550.05	1759.21
550.24	1654.76
550.44	1734.63
550.64	1783.78
550.83	1669.09
551.03	1802.21
551.23	1785.83
551.42	1810.40
551.62	1755.11
551.82	1802.21
552.01	1714.15
552.21	1834.98
552.41	1718.25
552.60	1824.74
552.80	1775.59
553.00	1710.05
553.19	1722.34
553.39	1898.47
553.59	1703.91
553.78	1804.26
553.98	1783.78
554.17	1638.38
554.37	1845.22
554.57	1771.49
554.76	1646.57
554.96	1738.73
555.16	1791.97
555.35	1734.63
555.55	1787.88
555.75	1693.67
555.94	1789.92
556.14	1681.38
556.33	1744.87
556.53	1703.91
556.73	1751.01
556.92	1783.78
557.12	1746.92
557.32	1818.60
557.51	1843.17
557.71	1843.17
557.90	1820.64
558.10	1837.03
558.30	1685.48
558.49	1677.29
558.69	1724.39
558.88	1826.79
559.08	1738.73
559.28	1708.01
559.47	1773.54
559.67	1779.68
559.86	1849.32
560.06	1734.63
560.26	1681.38
560.45	1832.93
560.65	1718.25
560.84	1871.84
561.04	1730.53
561.24	1824.74
561.43	1714.15
561.63	1742.82
561.82	1761.25
562.02	1761.25
562.22	1746.92
562.41	1697.77
562.61	1714.15
562.80	1683.43
563.00	1871.84
563.19	1763.30
563.39	1740.77
563.59	1865.70
563.78	1677.29
563.98	1636.33
564.17	1738.73
564.37	1583.08
564.56	1820.64
564.76	1613.80
564.96	1822.69
565.15	1736.68
565.35	1929.19
565.54	1755.11
565.74	1705.96
565.93	1845.22
566.13	1769.44
566.32	1804.26
566.52	1775.59
566.71	1718.25
566.91	1808.36
567.11	1734.63
567.30	1695.72
567.50	1775.59
567.69	1783.78
567.89	1779.68
568.08	1662.95
568.28	1763.30
568.47	1699.81
568.67	1791.97
568.86	1705.96
569.06	1824.74
569.25	1763.30
569.45	1660.90
569.64	1697.77
569.84	1683.43
570.04	1816.55
570.23	1708.01
570.43	1859.56
570.62	1718.25
570.82	1822.69
571.01	1701.86
571.21	1636.33
571.40	1753.06
571.60	1814.50
571.79	1703.91
571.99	1755.11
572.18	1654.76
572.38	1703.91
572.57	1802.21
572.77	1755.11
572.96	1886.18
573.16	1781.73
573.35	1732.58
573.55	1814.50
573.74	1837.03
573.94	1726.44
574.13	1751.01
574.33	1773.54
574.52	1837.03
574.71	1742.82
574.91	1775.59
575.10	1621.99
575.30	1722.34
575.49	1714.15
575.69	1730.53
575.88	1746.92
576.08	1761.25
576.27	1812.45
576.47	1665.00
576.66	1855.46
576.86	1806.31
577.05	1802.21
577.25	1822.69
577.44	1957.86
577.64	1710.05
577.83	1812.45
578.02	1677.29
578.22	1828.84
578.41	1863.65
578.61	1714.15
578.80	1609.70
579.00	1808.36
579.19	1787.88
579.39	1822.69
579.58	1796.07
579.77	1675.24
579.97	1800.16
580.16	1859.56
580.36	1806.31
580.55	1796.07
580.75	1761.25
580.94	1785.83
581.13	1892.32
581.33	1947.62
581.52	1691.62
581.72	1855.46
581.91	1859.56
582.11	1691.62
582.30	1785.83
582.49	1789.92
582.69	1769.44
582.88	1820.64
583.08	1742.82
583.27	1818.60
583.47	1746.92
583.66	1771.49
583.85	1734.63
584.05	1726.44
584.24	1746.92
584.44	1763.30
584.63	1822.69
584.82	1802.21
585.02	1759.21
585.21	1812.45
585.41	1798.12
585.60	1789.92
585.79	1945.57
585.99	1945.57
586.18	1869.80
586.37	2160.61
586.57	3409.87
586.76	9899.88
586.96	24807.05
587.15	34338.29
587.34	40850.83
587.54	42155.39
587.73	36834.77
587.93	26398.32
588.12	21821.11
588.31	18237.16
588.51	16563.97
588.70	15349.53
588.89	14128.94
589.09	12631.87
589.28	11022.17
589.47	9504.62
589.67	8169.35
589.86	6295.46
590.06	4995.00
590.25	3960.77
590.44	3082.19
590.64	2600.92
590.83	2351.07
591.02	2136.03
591.22	1916.90
591.41	1824.74
591.60	1832.93
591.80	1929.19
591.99	1728.49
592.18	1779.68
592.38	1847.27
592.57	1705.96
592.76	1822.69
592.96	1884.13
593.15	1654.76
593.34	1910.75
593.54	1722.34
593.73	1787.88
593.92	1755.11
594.12	1800.16
594.31	1783.78
594.50	1853.41
594.70	1785.83
594.89	1871.84
595.08	1699.81
595.28	1855.46
595.47	1906.66
595.66	1804.26
595.86	1665.00
596.05	1669.09
596.24	1753.06
596.43	1869.80
596.63	1869.80
596.82	1746.92
597.01	1796.07
597.21	1853.41
597.40	1804.26
597.59	1796.07
597.79	1771.49
597.98	1716.20
598.17	1798.12
598.36	1697.77
598.56	1769.44
598.75	1716.20
598.94	1734.63
599.14	1751.01
599.33	1677.29
599.52	1742.82
599.71	1775.59
599.91	1837.03
600.10	1808.36
600.29	1712.10
600.48	1839.08
600.68	1781.73
600.87	1761.25
601.06	1755.11
601.26	1814.50
601.45	1804.26
601.64	1689.57
601.83	1847.27
602.03	1642.47
602.22	1634.28
602.41	1783.78
602.60	1841.12
602.80	1834.98
602.99	1746.92
603.18	1652.71
603.37	1701.86
603.57	1818.60
603.76	1837.03
603.95	1826.79
604.14	1708.01
604.34	1714.15
604.53	1759.21
604.72	1832.93
604.91	1783.78
605.10	1746.92
605.30	1794.02
605.49	1802.21
605.68	1800.16
605.87	1781.73
606.07	1742.82
606.26	1767.40
606.45	1810.40
606.64	1775.59
606.84	1701.86
607.03	1726.44
607.22	1837.03
607.41	1744.87
607.60	1802.21
607.80	1744.87
607.99	1730.53
608.18	1759.21
608.37	1724.39
608.56	1718.25
608.76	1822.69
608.95	1931.23
609.14	1732.58
609.33	1740.77
609.52	1812.45
609.72	1755.11
609.91	1720.29
610.10	1771.49
610.29	1814.50
610.48	1728.49
610.68	1849.32
610.87	1728.49
611.06	1767.40
611.25	1671.14
611.44	1877.99
611.63	1730.53
611.83	1824.74
612.02	1630.18
612.21	1908.71
612.40	1710.05
612.59	1652.71
612.79	1742.82
612.98	1648.61
613.17	1816.55
613.36	1742.82
613.55	1837.03
613.74	1675.24
613.93	1683.43
614.13	1794.02
614.32	1753.06
614.51	1767.40
614.70	1689.57
614.89	1705.96
615.08	1773.54
615.28	2041.82
615.47	1638.38
615.66	1724.39
615.85	1703.91
616.04	1886.18
616.23	1738.73
616.42	1785.83
616.62	1742.82
616.81	1808.36
617.00	1802.21
617.19	1751.01
617.38	1665.00
617.57	1740.77
617.76	1763.30
617.95	1751.01
618.15	1714.15
618.34	1828.84
618.53	1667.05
618.72	1820.64
618.91	1763.30
619.10	1783.78
619.29	1708.01
619.48	1693.67
619.68	1695.72
619.87	1796.07
620.06	1667.05
620.25	1794.02
620.44	1626.09
620.63	1697.77
620.82	1699.81
621.01	1767.40
621.20	1814.50
621.39	1781.73
621.59	1744.87
621.78	1730.53
621.97	1771.49
622.16	1714.15
622.35	1769.44
622.54	1814.50
622.73	1826.79
622.92	1665.00
623.11	1755.11
623.30	1714.15
623.49	1767.40
623.68	1732.58
623.88	1796.07
624.07	1802.21
624.26	1767.40
624.45	1728.49
624.64	1679.33
624.83	1732.58
625.02	1701.86
625.21	1759.21
625.40	1763.30
625.59	1818.60
625.78	1773.54
625.97	1730.53
626.16	1849.32
626.35	1769.44
626.54	1691.62
626.74	1775.59
626.93	1681.38
627.12	1703.91
627.31	1796.07
627.50	1759.21
627.69	1810.40
627.88	1783.78
628.07	1771.49
628.26	1677.29
628.45	1648.61
628.64	1654.76
628.83	1742.82
629.02	1626.09
629.21	1728.49
629.40	1738.73
629.59	1677.29
629.78	1705.96
629.97	1716.20
630.16	1736.68
630.35	1742.82
630.54	1701.86
630.73	1681.38
630.92	1652.71
631.11	1665.00
631.30	1765.35
631.49	1773.54
631.68	1710.05
631.87	1726.44
632.06	1697.77
632.25	1843.17
632.44	1693.67
632.63	1783.78
632.82	1681.38
633.01	1685.48
633.20	1708.01
633.39	1722.34
633.58	1705.96
633.77	1740.77
633.96	1751.01
634.15	1722.34
634.34	1785.83
634.53	1730.53
634.72	1730.53
634.91	1665.00
635.10	1767.40
635.29	1810.40
635.48	1730.53
635.67	1683.43
635.86	1667.05
636.05	1738.73
636.24	1753.06
636.43	1728.49
636.62	1806.31
636.81	1576.94
637.00	1736.68
637.19	1804.26
637.38	1628.14
637.57	1599.46
637.76	1677.29
637.95	1753.06
638.14	1697.77
638.33	1718.25
638.52	1703.91
638.71	1679.33
638.89	1681.38
639.08	1843.17
639.27	1738.73
639.46	1685.48
639.65	1861.60
639.84	1753.06
640.03	1755.11
640.22	1728.49
640.41	1771.49
640.60	1619.94
640.79	1763.30
640.98	1656.81
641.17	1751.01
641.36	1732.58
641.55	1656.81
641.74	1624.04
641.92	1619.94
642.11	1638.38
642.30	1771.49
642.49	1601.51
642.68	1740.77
642.87	1746.92
643.06	1738.73
643.25	1732.58
643.44	1675.24
643.63	1751.01
643.82	1763.30
644.00	1701.86
644.19	1773.54
644.38	1734.63
644.57	1787.88
644.76	1714.15
644.95	1683.43
645.14	1724.39
645.33	1732.58
645.52	1724.39
645.71	1677.29
645.89	1642.47
646.08	1722.34
646.27	1665.00
646.46	1837.03
646.65	1718.25
646.84	1722.34
647.03	1646.57
647.22	1765.35
647.40	1757.16
647.59	1705.96
647.78	1656.81
647.97	1685.48
648.16	1652.71
648.35	1820.64
648.54	1849.32
648.73	1693.67
648.91	1753.06
649.10	1732.58
649.29	1665.00
649.48	1650.66
649.67	1765.35
649.86	1744.87
650.05	1638.38
650.23	1787.88
650.42	1685.48
650.61	1771.49
650.80	1775.59
650.99	1841.12
651.18	1712.10
651.36	1771.49
651.55	1779.68
651.74	1769.44
651.93	1673.19
652.12	1734.63
652.31	1681.38
652.49	1714.15
652.68	1697.77
652.87	1822.69
653.06	1744.87
653.25	1863.65
653.44	1789.92
653.62	1732.58
653.81	1679.33
654.00	1728.49
654.19	1773.54
654.38	1820.64
654.56	1753.06
654.75	1708.01
654.94	1740.77
655.13	1769.44
655.32	1773.54
655.51	1712.10
655.69	1791.97
655.88	1726.44
656.07	1730.53
656.26	1759.21
656.45	1681.38
656.63	1736.68
656.82	1681.38
657.01	1812.45
657.20	1742.82
657.38	1771.49
657.57	1671.14
657.76	1642.47
657.95	1765.35
658.14	1697.77
658.32	1767.40
658.51	1619.94
658.70	1734.63
658.89	1685.48
659.08	1789.92
659.26	1765.35
659.45	1660.90
659.64	1785.83
659.83	1689.57
660.01	1947.62
660.20	1720.29
660.39	1748.97
660.58	1646.57
660.76	1783.78
660.95	1626.09
661.14	1730.53
661.33	1699.81
661.51	1757.16
661.70	1689.57
661.89	1787.88
662.08	1736.68
662.26	1671.14
662.45	1636.33
662.64	1812.45
662.83	1783.78
663.01	1689.57
663.20	1679.33
663.39	1851.36
663.58	1718.25
663.76	1718.25
663.95	1757.16
664.14	1665.00
664.32	1652.71
664.51	1591.27
664.70	1671.14
664.89	1708.01
665.07	1710.05
665.26	1791.97
665.45	1652.71
665.64	1730.53
665.82	1757.16
666.01	1787.88
666.20	1712.10
666.38	1877.99
666.57	1822.69
666.76	2279.39
666.95	4601.79
667.13	10317.67
667.32	15392.53
667.51	17960.69
667.69	19318.49
667.88	17872.62
668.07	12617.54
668.25	9729.90
668.44	8398.72
668.63	7401.36
668.81	6952.85
669.00	6354.85
669.19	5719.98
669.38	5068.72
669.56	4566.97
669.75	4067.27
669.94	3413.96
670.12	2885.59
670.31	2553.82
670.50	2226.14
670.68	2027.49
670.87	1914.85
671.06	1824.74
671.24	1869.80
671.43	1796.07
671.62	1767.40
671.80	1730.53
671.99	1861.60
672.18	1746.92
672.36	1665.00
672.55	1755.11
672.74	1753.06
672.92	1703.91
673.11	1787.88
673.29	1656.81
673.48	1732.58
673.67	1716.20
673.85	1777.64
674.04	1705.96
674.23	1679.33
674.41	1771.49
674.60	1738.73
674.79	1642.47
674.97	1677.29
675.16	1796.07
675.34	1718.25
675.53	1726.44
675.72	1785.83
675.90	1847.27
676.09	1685.48
676.28	1800.16
676.46	1597.42
676.65	1785.83
676.83	1652.71
677.02	1734.63
677.21	1693.67
677.39	1775.59
677.58	1734.63
677.77	1796.07
677.95	1740.77
678.14	1644.52
678.32	1669.09
678.51	1730.53
678.70	1791.97
678.88	1701.86
679.07	1794.02
679.25	1679.33
679.44	1732.58
679.63	1634.28
679.81	1816.55
680.00	1718.25
680.18	1732.58
680.37	1834.98
680.55	1687.53
680.74	1658.85
680.93	1626.09
681.11	1613.80
681.30	1734.63
681.48	1751.01
681.67	1734.63
681.85	1734.63
682.04	1669.09
682.23	1740.77
682.41	1697.77
682.60	1765.35
682.78	1691.62
682.97	1718.25
683.15	1705.96
683.34	1753.06
683.53	1759.21
683.71	1734.63
683.90	1757.16
684.08	1816.55
684.27	1701.86
684.45	1804.26
684.64	1726.44
684.82	1673.19
685.01	1724.39
685.19	1732.58
685.38	1808.36
685.57	1701.86
685.75	1656.81
685.94	1669.09
686.12	1626.09
686.31	1699.81
686.49	1873.89
686.68	1662.95
686.86	1734.63
687.05	1648.61
687.23	1763.30
687.42	1775.59
687.60	1636.33
687.79	1753.06
687.97	1781.73
688.16	1789.92
688.34	1742.82
688.53	1646.57
688.71	1777.64
688.90	1800.16
689.08	1675.24
689.27	1613.80
689.45	1789.92
689.64	1794.02
689.82	1736.68
690.01	1769.44
690.19	1710.05
690.38	1720.29
690.56	1763.30
690.75	1638.38
690.93	1757.16
691.12	1640.42
691.30	1650.66
691.49	1652.71
691.67	1681.38
691.86	1763.30
692.04	1658.85
692.23	1675.24
692.41	1691.62
692.60	1875.94
692.78	1773.54
692.97	1734.63
693.15	1742.82
693.34	1849.32
693.52	1800.16
693.71	1826.79
693.89	1683.43
694.08	1687.53
694.26	1748.97
694.44	1732.58
694.63	1779.68
694.81	1742.82
695.00	1669.09
695.18	1751.01
695.37	1822.69
695.55	1693.67
695.74	1779.68
695.92	1673.19
696.10	1830.88
696.29	1552.36
696.47	1685.48
696.66	1574.89
696.84	1681.38
697.03	1761.25
697.21	1855.46
697.40	2265.05
697.58	1726.44
697.76	1689.57
697.95	1701.86
698.13	1708.01
698.32	1724.39
698.50	1806.31
698.68	1708.01
698.87	1724.39
699.05	1765.35
699.24	1757.16
699.42	1726.44
699.61	1642.47
699.79	1673.19
699.97	1652.71
700.16	1689.57
700.34	1658.85
700.53	1748.97
700.71	1769.44
700.89	1744.87
701.08	1701.86
701.26	1751.01
701.45	2107.36
701.63	1665.00
701.81	1716.20
702.00	1673.19
702.18	1728.49
702.37	1667.05
702.55	1718.25
702.73	1695.72
702.92	1628.14
703.10	1769.44
703.28	1673.19
703.47	1697.77
703.65	1773.54
703.84	1806.31
704.02	1632.23
704.20	1812.45
704.39	1695.72
704.57	1640.42
704.75	1714.15
704.94	1789.92
705.12	1736.68
705.30	1763.30
705.49	2385.88
705.67	4392.89
705.86	9351.03
706.04	12592.96
706.22	14466.85
706.41	15521.56
706.59	13741.87
706.77	9777.00
706.96	7450.51
707.14	6483.87
707.32	5947.30
707.51	5687.21
707.69	4908.98
707.87	4294.59
708.06	3620.81
708.24	2879.44
708.42	2445.27
708.61	2291.68
708.79	1837.03
708.97	1918.95
709.16	1828.84
709.34	1865.70
709.52	1841.12
709.71	1730.53
709.89	1718.25
710.07	1697.77
710.26	1746.92
710.44	1714.15
710.62	1806.31
710.80	1746.92
710.99	1753.06
711.17	1834.98
711.35	1724.39
711.54	1714.15
711.72	1714.15
711.90	1779.68
712.09	1744.87
712.27	1656.81
712.45	1732.58
712.63	1660.90
712.82	1607.66
713.00	1800.16
713.18	1789.92
713.37	1710.05
713.55	1804.26
713.73	1759.21
713.91	1730.53
714.10	1703.91
714.28	1773.54
714.46	1722.34
714.65	1722.34
714.83	1726.44
715.01	1693.67
715.19	1708.01
715.38	1675.24
715.56	1716.20
715.74	1654.76
715.92	1650.66
716.11	1710.05
716.29	1617.90
716.47	1681.38
716.65	1693.67
716.84	1689.57
717.02	1742.82
717.20	1634.28
717.38	1699.81
717.57	1742.82
717.75	1734.63
717.93	1746.92
718.11	1767.40
718.30	1636.33
718.48	1736.68
718.66	1726.44
718.84	1751.01
719.03	1720.29
719.21	1634.28
719.39	1789.92
719.57	1691.62
719.75	1771.49
719.94	1712.10
720.12	1714.15
720.30	1683.43
720.48	1728.49
720.67	1615.85
720.85	1660.90
721.03	1697.77
721.21	1673.19
721.39	1798.12
721.58	1712.10
721.76	1683.43
721.94	1755.11
722.12	1820.64
722.30	1748.97
722.49	1697.77
722.67	1775.59
722.85	1710.05
723.03	1648.61
723.21	1771.49
723.40	1740.77
723.58	1826.79
723.76	1710.05
723.94	1761.25
724.12	1744.87
724.30	1791.97
724.49	1769.44
724.67	1738.73
724.85	1748.97
725.03	1685.48
725.21	1802.21
725.40	1736.68
725.58	1617.90
725.76	1734.63
725.94	1720.29
726.12	1667.05
726.30	1732.58
726.49	1759.21
726.67	1644.52
726.85	1783.78
727.03	1771.49
727.21	2140.13
727.39	3030.99
727.57	3856.33
727.76	4222.91
727.94	4577.21
728.12	4454.33
728.30	3612.62
728.48	3069.91
728.66	2768.85
728.84	2469.85
729.03	2340.83
729.21	2090.98
729.39	1912.80
729.57	1890.28
729.75	1849.32
729.93	1777.64
730.11	1763.30
730.30	1675.24
730.48	1746.92
730.66	1757.16
730.84	1851.36
731.02	1701.86
731.20	1683.43
731.38	1673.19
731.56	1691.62
731.74	1585.13
731.93	1724.39
732.11	1787.88
732.29	1703.91
732.47	1689.57
732.65	1740.77
732.83	1796.07
733.01	1748.97
733.19	1701.86
733.37	1667.05
733.56	1714.15
733.74	1576.94
733.92	1816.55
734.10	1726.44
734.28	1720.29
734.46	1634.28
734.64	1769.44
734.82	1673.19
735.00	1591.27
735.18	1589.22
735.36	1738.73
735.54	1724.39
735.73	1767.40
735.91	1787.88
736.09	1748.97
736.27	1724.39
736.45	1742.82
736.63	1607.66
736.81	1677.29
736.99	1722.34
737.17	1787.88
737.35	1624.04
737.53	1746.92
737.71	1710.05
737.89	1744.87
738.07	1656.81
738.25	1734.63
738.43	1554.41
738.61	1712.10
738.80	1693.67
738.98	1716.20
739.16	1681.38
739.34	1681.38
739.52	1787.88
739.70	1632.23
739.88	1726.44
740.06	1761.25
740.24	1605.61
740.42	1720.29
740.60	1656.81
740.78	1660.90
740.96	1693.67
741.14	1683.43
741.32	1685.48
741.50	1677.29
741.68	1834.98
741.86	1763.30
742.04	1660.90
742.22	1689.57
742.40	1652.71
742.58	1691.62
742.76	1662.95
742.94	1779.68
743.12	1693.67
743.30	1701.86
743.48	1660.90
743.66	1689.57
743.84	1753.06
744.02	1732.58
744.20	1703.91
744.38	1736.68
744.56	1718.25
744.74	1802.21
744.92	1740.77
745.10	1832.93
745.28	1738.73
745.46	1785.83
745.64	1722.34
745.82	1779.68
746.00	1691.62
746.18	1796.07
746.36	1710.05
746.54	1757.16
746.72	1767.40
746.90	1712.10
747.08	1761.25
747.26	1697.77
747.44	1796.07
747.62	1720.29
747.80	1718.25
747.98	1765.35
748.15	1726.44
748.33	1708.01
748.51	1646.57
748.69	1796.07
748.87	1617.90
749.05	1677.29
749.23	1662.95
749.41	1771.49
749.59	1677.29
749.77	1857.51
749.95	1759.21
750.13	1671.14
750.31	1800.16
750.49	1781.73
750.67	1701.86
750.85	1761.25
751.03	1791.97
751.20	1873.89
751.38	1710.05
751.56	1673.19
751.74	1665.00
751.92	1656.81
752.10	1589.22
752.28	1656.81
752.46	1679.33
752.64	1695.72
752.82	1724.39
753.00	1818.60
753.18	1767.40
753.35	1740.77
753.53	1744.87
753.71	1722.34
753.89	1724.39
754.07	1718.25
754.25	1732.58
754.43	1789.92
754.61	1673.19
754.79	1755.11
754.97	1757.16
755.14	1798.12
755.32	1621.99
755.50	1681.38
755.68	1740.77
755.86	1671.14
756.04	1787.88
756.22	1587.18
756.40	1806.31
756.57	1851.36
756.75	1613.80
756.93	1681.38
757.11	1757.16
757.29	1732.58
757.47	1720.29
757.65	1613.80
757.82	1546.22
758.00	1740.77
758.18	1656.81
758.36	1652.71
758.54	1789.92
758.72	1564.65
758.90	1808.36
759.07	1734.63
759.25	1665.00
759.43	1822.69
759.61	1656.81
759.79	2189.28
759.97	1689.57
760.15	1703.91
760.32	1642.47
760.50	1726.44
760.68	1857.51
760.86	1681.38
761.04	1769.44
761.22	1781.73
761.39	1665.00
761.57	1751.01
761.75	1671.14
761.93	1794.02
762.11	1691.62
762.28	1667.05
762.46	1669.09
762.64	1738.73
762.82	1638.38
763.00	1716.20
763.18	1804.26
763.35	1703.91
763.53	1705.96
763.71	1753.06
763.89	1705.96
764.07	1724.39
764.24	1759.21
764.42	1748.97
764.60	1673.19
764.78	1796.07
764.96	1863.65
765.13	1779.68
765.31	1660.90
765.49	1779.68
765.67	1691.62
765.84	1628.14
766.02	1716.20
766.20	1673.19
766.38	1822.69
766.56	1656.81
766.73	1734.63
766.91	1705.96
767.09	1714.15
767.27	1714.15
767.44	1724.39
767.62	1773.54
767.80	1703.91
767.98	1681.38
768.15	1701.86
768.33	1744.87
768.51	1783.78
768.69	1746.92
768.87	1830.88
769.04	1775.59
769.22	1800.16
769.40	1746.92
769.58	1757.16
769.75	1628.14
769.93	1814.50
770.11	1818.60
770.28	1714.15
770.46	1757.16
770.64	1730.53
770.82	1767.40
770.99	1665.00
771.17	1742.82
771.35	1726.44
771.53	1783.78
771.70	1679.33
771.88	1738.73
772.06	1685.48
772.23	1753.06
772.41	1728.49
772.59	1716.20
772.77	1599.46
772.94	1736.68
773.12	1693.67
773.30	1675.24
773.47	1679.33
773.65	1632.23
773.83	1775.59
774.01	1658.85
774.18	1660.90
774.36	1785.83
774.54	1681.38
774.71	1746.92
774.89	1634.28
775.07	1710.05
775.24	1656.81
775.42	1669.09
775.60	1748.97
775.78	1665.00
775.95	1640.42
776.13	1650.66
776.31	1656.81
776.48	1751.01
776.66	1775.59
776.84	1710.05
777.01	1710.05
777.19	1648.61
777.37	1675.24
777.54	1724.39
777.72	1783.78
777.90	1763.30
778.07	1593.32
778.25	1777.64
778.43	1812.45
778.60	1660.90
778.78	1763.30
778.96	1705.96
779.13	1708.01
779.31	1724.39
779.49	1746.92
779.66	1765.35
779.84	1728.49
780.01	1648.61
780.19	1775.59
780.37	1748.97
780.54	1757.16
780.72	1677.29
780.90	1683.43
781.07	1718.25
781.25	1669.09
781.43	1783.78
781.60	1740.77
781.78	1728.49
781.95	1751.01
782.13	1667.05
782.31	1718.25
782.48	1669.09
782.66	1626.09
782.83	1834.98
783.01	1755.11
783.19	1781.73
783.36	1705.96
783.54	1650.66
783.72	1759.21
783.89	1685.48
784.07	1714.15
784.24	1662.95
784.42	1710.05
784.60	1703.91
784.77	1722.34
784.95	1656.81
785.12	1667.05
785.30	1687.53
785.47	1701.86
785.65	1660.90
785.83	1632.23
786.00	1642.47
786.18	1720.29
786.35	1695.72
786.53	1673.19
786.71	1759.21
786.88	1761.25
787.06	1785.83
787.23	1671.14
787.41	1681.38
787.58	1679.33
787.76	1736.68
787.94	1669.09
788.11	1650.66
788.29	1650.66
788.46	1548.26
788.64	1685.48
788.81	1697.77
788.99	1665.00
789.16	1693.67
789.34	1652.71
789.52	1705.96
789.69	1716.20
789.87	1609.70
790.04	1787.88
790.22	1722.34
790.39	1849.32
790.57	1705.96
790.74	1673.19
790.92	1757.16
791.09	1585.13
791.27	1710.05
791.44	1804.26
791.62	1710.05
791.79	1843.17
791.97	1673.19
792.15	1912.80
792.32	1775.59
792.50	1773.54
792.67	1761.25
792.85	1685.48
793.02	1681.38
793.20	1691.62
793.37	1634.28
793.55	1736.68
793.72	1640.42
793.90	1728.49
794.07	1714.15
794.25	1593.32
794.42	1699.81
794.60	1738.73
794.77	1746.92
794.95	1771.49
795.12	1714.15
795.30	1660.90
795.47	1605.61
795.65	1898.47
795.82	1755.11
796.00	1693.67
796.17	1724.39
796.34	1656.81
796.52	1656.81
796.69	1730.53
796.87	1730.53
797.04	1748.97
797.22	1796.07
797.39	1695.72
797.57	1759.21
797.74	1718.25
797.92	1685.48
798.09	1667.05
798.27	1773.54
798.44	1738.73
798.62	1644.52
798.79	1714.15
798.96	1751.01
799.14	1724.39
799.31	1896.42
799.49	1722.34
799.66	1675.24
799.84	1685.48
800.01	1708.01
800.19	1761.25
800.36	1693.67
800.53	1679.33
800.71	1740.77
800.88	1798.12
801.06	1638.38
801.23	1736.68
801.41	1808.36
801.58	1708.01
801.75	1648.61
801.93	1753.06
802.10	1812.45
802.28	1683.43
802.45	1679.33
802.63	1738.73
802.80	1763.30
802.97	1718.25
803.15	1630.18
803.32	1738.73
803.50	1589.22
803.67	1640.42
803.84	1621.99
804.02	1599.46
804.19	1605.61
804.37	1640.42
804.54	1609.70
804.71	1705.96
804.89	1724.39
805.06	1673.19
805.24	1605.61
805.41	1626.09
805.58	1650.66
805.76	1822.69
805.93	1699.81
806.10	1822.69
806.28	1697.77
806.45	1714.15
806.63	1785.83
806.80	1724.39
806.97	1708.01
807.15	1742.82
807.32	1703.91
807.49	1810.40
807.67	1658.85
807.84	1771.49
808.01	1660.90
808.19	1794.02
808.36	1828.84
808.54	1642.47
808.71	1607.66
808.88	1687.53
809.06	1767.40
809.23	1814.50
809.40	1689.57
809.58	1720.29
809.75	1726.44
809.92	1609.70
810.10	1877.99
810.27	1685.48
810.44	1746.92
810.62	1673.19
810.79	1701.86
810.96	1800.16
811.14	1667.05
811.31	1730.53
811.48	1769.44
811.66	1683.43
811.83	1759.21
812.00	1732.58
812.18	1701.86
812.35	1826.79
812.52	1716.20
812.69	1761.25
812.87	1710.05
813.04	1675.24
813.21	1742.82
813.39	1609.70
813.56	1589.22
813.73	1748.97
813.91	1587.18
814.08	1763.30
814.25	1716.20
814.42	1683.43
814.60	1730.53
814.77	1734.63
814.94	1671.14
815.12	1679.33
815.29	1791.97
815.46	1638.38
815.63	1746.92
815.81	1753.06
815.98	1751.01
816.15	1783.78
816.33	1824.74
816.50	1705.96
816.67	1656.81
816.84	1798.12
817.02	1615.85
817.19	1673.19
817.36	1701.86
817.53	1761.25
817.71	1675.24
817.88	1804.26
818.05	1654.76
818.22	1656.81
818.40	1837.03
818.57	1665.00
818.74	1738.73
818.91	1687.53
819.09	1789.92
819.26	1757.16
819.43	1566.70
819.60	1697.77
819.78	1763.30
819.95	1740.77
820.12	1652.71
820.29	1798.12
820.47	1726.44
820.64	1779.68
820.81	1634.28
820.98	1669.09
821.15	1619.94
821.33	1771.49
821.50	1640.42
821.67	1765.35
821.84	1703.91
822.02	1783.78
822.19	1765.35
822.36	1636.33
822.53	1648.61
822.70	1662.95
822.88	1683.43
823.05	1738.73
823.22	1710.05
823.39	1701.86
823.56	1691.62
823.74	1861.60
823.91	1617.90
824.08	1648.61
824.25	1613.80
824.42	1779.68
824.60	1648.61
824.77	1722.34
824.94	1691.62
825.11	1736.68
825.28	1630.18
825.45	1712.10
825.63	1757.16
825.80	1673.19
825.97	1783.78
826.14	1708.01
826.31	1673.19
826.48	1744.87
826.66	1611.75
826.83	1740.77
827.00	1667.05
827.17	1691.62
827.34	1724.39
827.51	1634.28
827.69	1716.20
827.86	1619.94
828.03	1689.57
828.20	1748.97
828.37	1693.67
828.54	1730.53
828.71	1665.00
828.89	1794.02
829.06	1695.72
829.23	1798.12
829.40	1667.05
829.57	1628.14
829.74	1720.29
829.91	1685.48
830.09	1673.19
830.26	1806.31
830.43	1732.58
830.60	1691.62
830.77	1753.06
830.94	1812.45
831.11	1773.54
831.28	1689.57
831.46	1771.49
831.63	1714.15
831.80	1794.02
831.97	1642.47
832.14	1765.35
832.31	1716.20
832.48	1775.59
832.65	1722.34
832.82	1640.42
832.99	1789.92
833.17	1720.29
833.34	1732.58
833.51	1808.36
833.68	1581.03
833.85	1718.25
834.02	1628.14
834.19	1626.09
834.36	1624.04
834.53	1683.43
834.70	1757.16
834.87	1804.26
835.04	1757.16
835.22	1658.85
835.39	1654.76
835.56	1693.67
835.73	1628.14
835.90	1751.01
836.07	1718.25
836.24	1794.02
836.41	1638.38
836.58	1703.91
836.75	1787.88
836.92	1683.43
837.09	1675.24
837.26	1761.25
837.43	1761.25
837.60	1765.35
837.77	1695.72
837.94	1800.16
838.12	1800.16
838.29	1753.06
838.46	1636.33
838.63	1615.85
838.80	1787.88
838.97	1693.67
839.14	1683.43
839.31	1693.67
839.48	1742.82
839.65	1656.81
839.82	1687.53
839.99	1779.68
840.16	1701.86
840.33	1662.95
840.50	1679.33
840.67	1638.38
840.84	1587.18
841.01	1679.33
841.18	1736.68
841.35	1617.90
841.52	1683.43
841.69	1822.69
841.86	1652.71
842.03	1708.01
842.20	1740.77
842.37	1722.34
842.54	1673.19
842.71	1665.00
842.88	1701.86
843.05	1796.07
843.22	1683.43
843.39	1685.48
843.56	1677.29
843.73	1679.33
843.90	1828.84
844.07	1654.76
844.24	1734.63
844.41	1816.55
844.58	1685.48
844.75	1746.92
844.92	1746.92
845.09	1734.63
845.26	1654.76
845.43	1656.81
845.60	1658.85
845.77	1720.29
845.94	1648.61
846.10	1751.01
846.27	1642.47
846.44	1615.85
846.61	1660.90
846.78	1777.64
846.95	1732.58
847.12	1734.63
847.29	1701.86
847.46	1581.03
847.63	1740.77
847.80	1730.53
847.97	1665.00
848.14	1857.51
848.31	1726.44
848.48	1689.57
848.65	1726.44
848.82	1626.09
848.98	1843.17
849.15	1714.15
849.32	1765.35
849.49	1732.58
849.66	1708.01
849.83	1705.96
850.00	1640.42
850.17	1712.10
850.34	1699.81
850.51	1701.86
850.68	1708.01
850.85	1830.88
851.01	1697.77
851.18	1734.63
851.35	1744.87
851.52	1742.82
851.69	1755.11
851.86	1611.75
852.03	1748.97
852.20	1730.53
852.37	1718.25
852.53	1669.09
852.70	1748.97
852.87	1685.48
853.04	1673.19
853.21	1640.42
853.38	1734.63
853.55	1804.26
853.72	1800.16
853.89	1658.85
854.05	1642.47
854.22	1701.86
854.39	1642.47
854.56	1779.68
854.73	1708.01
854.90	1708.01
855.07	1710.05
855.23	1607.66
855.40	1677.29
855.57	1673.19
855.74	1591.27
855.91	1859.56
856.08	1632.23
856.25	1560.55
856.41	1652.71
856.58	1652.71
856.75	1718.25
856.92	1681.38
857.09	1757.16
857.26	1613.80
857.42	1656.81
857.59	1791.97
857.76	1718.25
857.93	1675.24
858.10	1767.40
858.27	1701.86
858.43	1767.40
858.60	1673.19
858.77	1587.18
858.94	1687.53
859.11	1734.63
859.27	1710.05
859.44	1744.87
859.61	1820.64
859.78	1679.33
859.95	1556.46
860.12	1738.73
860.28	1812.45
860.45	1834.98
860.62	1740.77
860.79	1691.62
860.95	1703.91
861.12	1720.29
861.29	1722.34
861.46	1640.42
861.63	1671.14
861.79	1716.20
861.96	1640.42
862.13	1705.96
862.30	1798.12
862.47	1714.15
862.63	1615.85
862.80	1742.82
862.97	1791.97
863.14	1720.29
863.30	1726.44
863.47	1630.18
863.64	1834.98
863.81	1722.34
863.97	1683.43
864.14	1779.68
864.31	1673.19
864.48	1820.64
864.65	1658.85
864.81	1828.84
864.98	1763.30
865.15	1705.96
865.32	1716.20
865.48	1675.24
865.65	1869.80
865.82	1658.85
865.98	1753.06
866.15	1755.11
866.32	1767.40
866.49	1607.66
866.65	1816.55
866.82	1603.56
866.99	1724.39
867.16	1730.53
867.32	1712.10
867.49	1746.92
867.66	1652.71
867.83	1757.16
867.99	1679.33
868.16	1687.53
868.33	1638.38
868.49	1691.62
868.66	1685.48
868.83	1777.64
868.99	1710.05
869.16	1732.58
869.33	1757.16
869.50	1730.53
869.66	1753.06
869.83	1757.16
870.00	1658.85
870.16	1759.21
870.33	1621.99
870.50	1828.84
870.66	1697.77
870.83	1834.98
871.00	1685.48
871.17	1775.59
871.33	1740.77
871.50	1718.25
871.67	1714.15
871.83	1714.15
872.00	1771.49
872.17	1611.75
872.33	1818.60
872.50	1791.97
872.67	1689.57
872.83	1738.73
873.00	1701.86
873.17	1718.25
873.33	1796.07
873.50	1714.15
873.67	1714.15
873.83	1613.80
874.00	1691.62
874.16	1826.79
874.33	1738.73
874.50	1677.29
874.66	1718.25
874.83	1771.49
875.00	1830.88
875.16	1779.68
875.33	1726.44
875.50	1595.37
875.66	1646.57
875.83	1777.64
875.99	1783.78
876.16	1755.11
876.33	1636.33
876.49	1722.34
876.66	1718.25
876.83	1740.77
876.99	1574.89
877.16	1724.39
877.32	1742.82
877.49	1624.04
877.66	1681.38
877.82	1804.26
877.99	1703.91
878.15	1712.10
878.32	1714.15
878.49	1734.63
878.65	1796.07
878.82	1800.16
878.98	1691.62
879.15	1724.39
879.32	1777.64
879.48	1728.49
879.65	1675.24
879.81	1638.38
879.98	1691.62
880.15	1669.09
880.31	1689.57
880.48	1712.10
880.64	1771.49
880.81	1763.30
880.97	1767.40
881.14	1687.53
881.31	1654.76
881.47	1798.12
881.64	1763.30
881.80	1593.32
881.97	1716.20
882.13	1806.31
882.30	1648.61
882.47	1703.91
882.63	1583.08
882.80	1601.51
882.96	1689.57
883.13	1710.05
883.29	1716.20
883.46	1753.06
883.62	1800.16
883.79	1693.67
883.95	1757.16
884.12	1632.23
884.29	1740.77
884.45	1771.49
884.62	1734.63
884.78	1689.57
884.95	1759.21
885.11	1619.94
885.28	1755.11
885.44	1648.61
885.61	1798.12
885.77	1775.59
885.94	1710.05
886.10	1665.00
886.27	1679.33
886.43	1763.30
886.60	1734.63
886.76	1660.90
886.93	1718.25
887.09	1800.16
887.26	1673.19
887.42	1697.77
887.59	1785.83
887.75	1808.36
887.92	1761.25
888.08	1697.77
888.25	1757.16
888.41	1789.92
888.58	1773.54
888.74	1646.57
888.91	1677.29
>>>>>End Processed Spectral Data<<<<<
