SpectraSuite Data File
++++++++++++++++++++++++++++++++++++
Date: Mon Jun 06 15:08:57 CEST 2016
User: root
Dark Spectrum Present: No
Reference Spectrum Present: No
Number of Sampled Component Spectra: 1
Spectrometers: USB4C02835
Integration Time (usec): 100000 (USB4C02835)
Spectra Averaged: 1 (USB4C02835)
Boxcar Smoothing: 0 (USB4C02835)
Correct for Electrical Dark: No (USB4C02835)
Strobe/Lamp Enabled: No (USB4C02835)
Correct for Detector Non-linearity: No (USB4C02835)
Correct for Stray Light: No (USB4C02835)
Number of Pixels in Processed Spectrum: 3648
>>>>>Begin Processed Spectral Data<<<<<
177.47	1468.39
177.69	1468.39
177.91	1468.39
178.13	1441.77
178.36	1449.96
178.58	1732.58
178.80	1691.62
179.02	1640.42
179.24	1685.48
179.46	1691.62
179.68	1748.97
179.90	1642.47
180.13	1722.34
180.35	1710.05
180.57	1757.16
180.79	1705.96
181.01	1767.40
181.23	1730.53
181.45	1730.53
181.67	1742.82
181.90	1714.15
182.12	1662.95
182.34	1611.75
182.56	1763.30
182.78	1705.96
183.00	1642.47
183.22	1730.53
183.44	1619.94
183.66	1929.19
183.89	1722.34
184.11	1660.90
184.33	1734.63
184.55	1779.68
184.77	1755.11
184.99	1699.81
185.21	1787.88
185.43	1802.21
185.65	1710.05
185.87	1617.90
186.10	1832.93
186.32	1841.12
186.54	1685.48
186.76	1746.92
186.98	1689.57
187.20	1718.25
187.42	1705.96
187.64	1734.63
187.86	1669.09
188.08	1742.82
188.30	1705.96
188.52	1755.11
188.75	1701.86
188.97	1806.31
189.19	1630.18
189.41	1617.90
189.63	1765.35
189.85	1683.43
190.07	1710.05
190.29	1607.66
190.51	1691.62
190.73	1650.66
190.95	1732.58
191.17	1722.34
191.39	1656.81
191.61	1673.19
191.84	1697.77
192.06	1769.44
192.28	1640.42
192.50	1777.64
192.72	1777.64
192.94	1693.67
193.16	1808.36
193.38	1689.57
193.60	1662.95
193.82	1681.38
194.04	1753.06
194.26	1691.62
194.48	1718.25
194.70	1630.18
194.92	1714.15
195.14	1779.68
195.36	1689.57
195.58	1656.81
195.80	1701.86
196.02	1724.39
196.24	1675.24
196.46	1634.28
196.69	1675.24
196.91	1824.74
197.13	1746.92
197.35	1609.70
197.57	1783.78
197.79	1710.05
198.01	1728.49
198.23	1730.53
198.45	1734.63
198.67	1599.46
198.89	1714.15
199.11	1691.62
199.33	1677.29
199.55	1599.46
199.77	1710.05
199.99	1767.40
200.21	1630.18
200.43	1757.16
200.65	1628.14
200.87	1607.66
201.09	1708.01
201.31	1665.00
201.53	1841.12
201.75	1724.39
201.97	1628.14
202.19	1699.81
202.41	1716.20
202.63	1849.32
202.85	1740.77
203.07	1748.97
203.29	1742.82
203.51	1632.23
203.73	1607.66
203.95	1751.01
204.17	1695.72
204.39	1671.14
204.61	1632.23
204.83	1652.71
205.05	1763.30
205.27	1859.56
205.49	1771.49
205.71	1746.92
205.93	1681.38
206.15	1656.81
206.37	1697.77
206.59	1660.90
206.81	1617.90
207.03	1669.09
207.25	1693.67
207.47	1785.83
207.69	1714.15
207.91	1802.21
208.13	1701.86
208.34	1624.04
208.56	1722.34
208.78	1738.73
209.00	1634.28
209.22	1693.67
209.44	1656.81
209.66	1638.38
209.88	1734.63
210.10	1687.53
210.32	1621.99
210.54	1789.92
210.76	1607.66
210.98	1804.26
211.20	1552.36
211.42	1708.01
211.64	1730.53
211.86	1732.58
212.08	1742.82
212.30	1730.53
212.52	1691.62
212.74	1742.82
212.96	1726.44
213.17	1714.15
213.39	1730.53
213.61	1759.21
213.83	1722.34
214.05	1648.61
214.27	1787.88
214.49	1636.33
214.71	1652.71
214.93	1757.16
215.15	1714.15
215.37	1738.73
215.59	1615.85
215.81	1671.14
216.03	1804.26
216.24	1705.96
216.46	1665.00
216.68	1685.48
216.90	1693.67
217.12	1722.34
217.34	1681.38
217.56	1718.25
217.78	1837.03
218.00	1724.39
218.22	1734.63
218.44	1675.24
218.66	1650.66
218.87	1773.54
219.09	1697.77
219.31	1763.30
219.53	1673.19
219.75	1667.05
219.97	1724.39
220.19	1773.54
220.41	1634.28
220.63	1763.30
220.85	1683.43
221.06	1660.90
221.28	1734.63
221.50	1708.01
221.72	1697.77
221.94	1673.19
222.16	1710.05
222.38	1748.97
222.60	1746.92
222.82	1636.33
223.03	1753.06
223.25	1636.33
223.47	1728.49
223.69	1728.49
223.91	1738.73
224.13	1728.49
224.35	1714.15
224.57	1826.79
224.78	1751.01
225.00	1687.53
225.22	1675.24
225.44	1685.48
225.66	1734.63
225.88	1636.33
226.10	1720.29
226.32	1675.24
226.53	1857.51
226.75	1685.48
226.97	1648.61
227.19	1656.81
227.41	1613.80
227.63	1683.43
227.85	1597.42
228.06	1656.81
228.28	1746.92
228.50	1771.49
228.72	1632.23
228.94	1732.58
229.16	1589.22
229.37	1679.33
229.59	1708.01
229.81	1755.11
230.03	1638.38
230.25	1644.52
230.47	1605.61
230.69	1574.89
230.90	1697.77
231.12	1677.29
231.34	1662.95
231.56	1820.64
231.78	1615.85
232.00	1728.49
232.21	1642.47
232.43	1730.53
232.65	1603.56
232.87	1675.24
233.09	1697.77
233.30	1763.30
233.52	1738.73
233.74	1697.77
233.96	1660.90
234.18	1759.21
234.40	1712.10
234.61	1820.64
234.83	1628.14
235.05	1648.61
235.27	1869.80
235.49	1748.97
235.70	1693.67
235.92	1845.22
236.14	1759.21
236.36	1898.47
236.58	1581.03
236.79	1636.33
237.01	1681.38
237.23	1699.81
237.45	1837.03
237.67	1699.81
237.88	1710.05
238.10	1859.56
238.32	1679.33
238.54	1656.81
238.76	1652.71
238.97	1624.04
239.19	1679.33
239.41	1710.05
239.63	1779.68
239.85	1675.24
240.06	1669.09
240.28	1566.70
240.50	1804.26
240.72	1656.81
240.93	1634.28
241.15	1708.01
241.37	1728.49
241.59	1841.12
241.81	1656.81
242.02	1667.05
242.24	1740.77
242.46	1681.38
242.68	1613.80
242.89	1695.72
243.11	1726.44
243.33	1726.44
243.55	1794.02
243.76	1722.34
243.98	1683.43
244.20	1695.72
244.42	1716.20
244.64	1746.92
244.85	1710.05
245.07	1648.61
245.29	1744.87
245.51	1685.48
245.72	1697.77
245.94	1759.21
246.16	1683.43
246.38	1855.46
246.59	1619.94
246.81	1671.14
247.03	1722.34
247.24	1644.52
247.46	1716.20
247.68	1736.68
247.90	1681.38
248.11	1710.05
248.33	1771.49
248.55	1658.85
248.77	1730.53
248.98	1751.01
249.20	1837.03
249.42	1708.01
249.64	1777.64
249.85	1699.81
250.07	1693.67
250.29	1742.82
250.50	1726.44
250.72	1708.01
250.94	1665.00
251.16	1806.31
251.37	1732.58
251.59	1779.68
251.81	1736.68
252.02	1791.97
252.24	1654.76
252.46	1855.46
252.68	1599.46
252.89	1697.77
253.11	1613.80
253.33	1773.54
253.54	1767.40
253.76	1578.98
253.98	1712.10
254.20	1712.10
254.41	1619.94
254.63	1722.34
254.85	1726.44
255.06	1757.16
255.28	1740.77
255.50	1740.77
255.71	1693.67
255.93	1566.70
256.15	1652.71
256.36	1730.53
256.58	1615.85
256.80	1695.72
257.02	1683.43
257.23	1755.11
257.45	1714.15
257.67	1740.77
257.88	1675.24
258.10	1742.82
258.32	1658.85
258.53	1751.01
258.75	1865.70
258.97	1644.52
259.18	1677.29
259.40	1734.63
259.62	1814.50
259.83	1740.77
260.05	1738.73
260.27	1982.43
260.48	1779.68
260.70	1662.95
260.92	1669.09
261.13	1681.38
261.35	1648.61
261.57	1722.34
261.78	1652.71
262.00	1648.61
262.22	1708.01
262.43	1665.00
262.65	1669.09
262.86	1697.77
263.08	1773.54
263.30	1656.81
263.51	1689.57
263.73	1611.75
263.95	1728.49
264.16	1714.15
264.38	1675.24
264.60	1667.05
264.81	1705.96
265.03	1767.40
265.25	1710.05
265.46	1677.29
265.68	1712.10
265.89	1652.71
266.11	1617.90
266.33	1669.09
266.54	1794.02
266.76	1712.10
266.98	1746.92
267.19	1830.88
267.41	1753.06
267.62	1685.48
267.84	1634.28
268.06	1718.25
268.27	1677.29
268.49	1814.50
268.70	1744.87
268.92	1740.77
269.14	1697.77
269.35	1613.80
269.57	1746.92
269.79	1757.16
270.00	1751.01
270.22	1828.84
270.43	1578.98
270.65	1599.46
270.87	1767.40
271.08	1720.29
271.30	1728.49
271.51	1683.43
271.73	1703.91
271.95	1761.25
272.16	1677.29
272.38	1744.87
272.59	1757.16
272.81	1730.53
273.02	1675.24
273.24	1730.53
273.46	1804.26
273.67	1673.19
273.89	1689.57
274.10	1644.52
274.32	1755.11
274.54	1775.59
274.75	1728.49
274.97	1640.42
275.18	1724.39
275.40	1828.84
275.61	1703.91
275.83	1810.40
276.05	1660.90
276.26	1687.53
276.48	1732.58
276.69	1642.47
276.91	1636.33
277.12	1722.34
277.34	1804.26
277.55	1800.16
277.77	1693.67
277.99	1683.43
278.20	1638.38
278.42	1673.19
278.63	1628.14
278.85	1662.95
279.06	1705.96
279.28	1730.53
279.49	1710.05
279.71	1730.53
279.93	1720.29
280.14	1660.90
280.36	1615.85
280.57	1734.63
280.79	1777.64
281.00	1693.67
281.22	1712.10
281.43	1757.16
281.65	1613.80
281.86	1691.62
282.08	1705.96
282.29	1757.16
282.51	1640.42
282.73	1656.81
282.94	1634.28
283.16	1705.96
283.37	1746.92
283.59	1708.01
283.80	1695.72
284.02	1710.05
284.23	1781.73
284.45	1640.42
284.66	1583.08
284.88	1660.90
285.09	1708.01
285.31	1738.73
285.52	1720.29
285.74	1640.42
285.95	1722.34
286.17	1724.39
286.38	1783.78
286.60	1638.38
286.81	1607.66
287.03	1689.57
287.24	1685.48
287.46	1757.16
287.67	1771.49
287.89	1863.65
288.10	1726.44
288.32	1755.11
288.53	1802.21
288.75	1777.64
288.96	1726.44
289.18	1722.34
289.39	1714.15
289.61	1728.49
289.82	1863.65
290.04	1800.16
290.25	1630.18
290.47	1671.14
290.68	1718.25
290.90	1767.40
291.11	1605.61
291.33	1759.21
291.54	1628.14
291.76	1685.48
291.97	1738.73
292.18	1726.44
292.40	1691.62
292.61	1619.94
292.83	1851.36
293.04	1748.97
293.26	1667.05
293.47	1730.53
293.69	1691.62
293.90	1656.81
294.12	1851.36
294.33	1669.09
294.55	1701.86
294.76	1751.01
294.97	1787.88
295.19	1775.59
295.40	1714.15
295.62	1777.64
295.83	1783.78
296.05	1687.53
296.26	1804.26
296.48	1683.43
296.69	1695.72
296.90	1830.88
297.12	1722.34
297.33	1757.16
297.55	1703.91
297.76	1736.68
297.98	1779.68
298.19	1751.01
298.41	1714.15
298.62	1673.19
298.83	1798.12
299.05	1712.10
299.26	1730.53
299.48	1753.06
299.69	1720.29
299.90	1722.34
300.12	1638.38
300.33	1687.53
300.55	1628.14
300.76	1738.73
300.98	1710.05
301.19	1746.92
301.40	1703.91
301.62	1691.62
301.83	1689.57
302.05	1693.67
302.26	1722.34
302.47	1677.29
302.69	1583.08
302.90	1734.63
303.12	1595.37
303.33	1759.21
303.54	1800.16
303.76	1673.19
303.97	1761.25
304.19	1822.69
304.40	1705.96
304.61	1656.81
304.83	1824.74
305.04	1779.68
305.26	1757.16
305.47	1648.61
305.68	1695.72
305.90	1619.94
306.11	1687.53
306.33	1695.72
306.54	1718.25
306.75	1581.03
306.97	1595.37
307.18	1665.00
307.39	1640.42
307.61	1730.53
307.82	1701.86
308.04	1736.68
308.25	1679.33
308.46	1740.77
308.68	1740.77
308.89	1740.77
309.10	1681.38
309.32	1607.66
309.53	1826.79
309.74	1634.28
309.96	1591.27
310.17	1740.77
310.39	1757.16
310.60	1703.91
310.81	1724.39
311.03	1697.77
311.24	1773.54
311.45	1658.85
311.67	1789.92
311.88	1701.86
312.09	1714.15
312.31	1665.00
312.52	1687.53
312.73	1650.66
312.95	1644.52
313.16	1570.79
313.37	1802.21
313.59	1720.29
313.80	1765.35
314.01	1816.55
314.23	1701.86
314.44	1691.62
314.65	1652.71
314.87	1654.76
315.08	1665.00
315.29	1628.14
315.51	1599.46
315.72	1691.62
315.93	1763.30
316.15	1773.54
316.36	1648.61
316.57	1648.61
316.79	1681.38
317.00	1640.42
317.21	1652.71
317.43	1648.61
317.64	1748.97
317.85	1689.57
318.07	1689.57
318.28	1701.86
318.49	1804.26
318.70	1894.37
318.92	1896.42
319.13	1812.45
319.34	1843.17
319.56	1796.07
319.77	1830.88
319.98	1748.97
320.20	1779.68
320.41	1630.18
320.62	1726.44
320.83	1734.63
321.05	1820.64
321.26	1806.31
321.47	1673.19
321.69	1744.87
321.90	1621.99
322.11	1644.52
322.32	1705.96
322.54	1728.49
322.75	1673.19
322.96	1781.73
323.18	1642.47
323.39	1624.04
323.60	1652.71
323.81	1742.82
324.03	1581.03
324.24	1695.72
324.45	1716.20
324.66	1718.25
324.88	1697.77
325.09	1720.29
325.30	1757.16
325.52	1724.39
325.73	1705.96
325.94	1695.72
326.15	1701.86
326.37	1656.81
326.58	1812.45
326.79	1755.11
327.00	1621.99
327.22	1800.16
327.43	1665.00
327.64	1595.37
327.85	1728.49
328.07	1708.01
328.28	1812.45
328.49	1648.61
328.70	1730.53
328.92	1665.00
329.13	1746.92
329.34	1775.59
329.55	1763.30
329.76	1689.57
329.98	1671.14
330.19	1742.82
330.40	1728.49
330.61	1691.62
330.83	1708.01
331.04	1673.19
331.25	1730.53
331.46	1652.71
331.68	1673.19
331.89	1773.54
332.10	1691.62
332.31	1638.38
332.52	1708.01
332.74	1693.67
332.95	1728.49
333.16	1695.72
333.37	1775.59
333.58	1601.51
333.80	1640.42
334.01	1671.14
334.22	1744.87
334.43	1693.67
334.64	1748.97
334.86	1683.43
335.07	1665.00
335.28	1755.11
335.49	1601.51
335.70	1759.21
335.92	1763.30
336.13	1804.26
336.34	1716.20
336.55	1671.14
336.76	1705.96
336.98	1611.75
337.19	1568.74
337.40	1734.63
337.61	1828.84
337.82	1652.71
338.04	1763.30
338.25	1570.79
338.46	1689.57
338.67	1675.24
338.88	1638.38
339.09	1628.14
339.31	1693.67
339.52	1648.61
339.73	1660.90
339.94	1685.48
340.15	1738.73
340.36	1687.53
340.58	1777.64
340.79	1632.23
341.00	1732.58
341.21	1603.56
341.42	1816.55
341.63	1656.81
341.85	1753.06
342.06	1722.34
342.27	1722.34
342.48	1746.92
342.69	1601.51
342.90	1730.53
343.12	1734.63
343.33	1654.76
343.54	1734.63
343.75	1763.30
343.96	1656.81
344.17	1658.85
344.38	1679.33
344.60	1665.00
344.81	1667.05
345.02	1632.23
345.23	1775.59
345.44	1763.30
345.65	1773.54
345.86	1748.97
346.07	1718.25
346.29	1738.73
346.50	1744.87
346.71	1714.15
346.92	1714.15
347.13	1820.64
347.34	1693.67
347.55	1677.29
347.76	1740.77
347.98	1632.23
348.19	1681.38
348.40	1867.75
348.61	1734.63
348.82	1867.75
349.03	1712.10
349.24	1716.20
349.45	1808.36
349.66	1609.70
349.88	1714.15
350.09	1587.18
350.30	1796.07
350.51	1804.26
350.72	1751.01
350.93	1773.54
351.14	1730.53
351.35	1740.77
351.56	1748.97
351.77	1726.44
351.99	1705.96
352.20	1849.32
352.41	1761.25
352.62	1646.57
352.83	1681.38
353.04	1691.62
353.25	1689.57
353.46	1855.46
353.67	1763.30
353.88	1603.56
354.09	1728.49
354.30	1705.96
354.52	1755.11
354.73	1740.77
354.94	1691.62
355.15	1716.20
355.36	1759.21
355.57	1642.47
355.78	1742.82
355.99	1751.01
356.20	1665.00
356.41	1728.49
356.62	1691.62
356.83	1779.68
357.04	1818.60
357.25	1646.57
357.46	1705.96
357.68	1599.46
357.89	1669.09
358.10	1658.85
358.31	1693.67
358.52	1681.38
358.73	1660.90
358.94	1624.04
359.15	1691.62
359.36	1822.69
359.57	1689.57
359.78	1728.49
359.99	1687.53
360.20	1648.61
360.41	1576.94
360.62	1763.30
360.83	1710.05
361.04	1779.68
361.25	1701.86
361.46	1812.45
361.67	1773.54
361.88	1755.11
362.09	1722.34
362.30	1730.53
362.51	1691.62
362.72	1748.97
362.93	1802.21
363.14	1650.66
363.35	1697.77
363.56	1697.77
363.78	1783.78
363.99	1767.40
364.20	1669.09
364.41	1728.49
364.62	1800.16
364.83	1669.09
365.04	1705.96
365.25	1644.52
365.46	1873.89
365.67	1755.11
365.88	1693.67
366.09	1689.57
366.30	1681.38
366.51	1732.58
366.72	1609.70
366.93	1632.23
367.14	1701.86
367.35	1773.54
367.56	1714.15
367.77	1746.92
367.98	1718.25
368.18	1714.15
368.39	1736.68
368.60	1630.18
368.81	1808.36
369.02	1697.77
369.23	1650.66
369.44	1665.00
369.65	1681.38
369.86	1699.81
370.07	1759.21
370.28	1695.72
370.49	1726.44
370.70	1681.38
370.91	1650.66
371.12	1650.66
371.33	1834.98
371.54	1681.38
371.75	1771.49
371.96	1599.46
372.17	1675.24
372.38	1732.58
372.59	1832.93
372.80	1671.14
373.01	1726.44
373.22	1757.16
373.43	1714.15
373.64	1587.18
373.85	1718.25
374.06	1785.83
374.26	1705.96
374.47	1708.01
374.68	1781.73
374.89	1748.97
375.10	1724.39
375.31	1701.86
375.52	1691.62
375.73	1722.34
375.94	1701.86
376.15	1771.49
376.36	1644.52
376.57	1644.52
376.78	1740.77
376.99	1630.18
377.20	1845.22
377.40	1636.33
377.61	1781.73
377.82	1632.23
378.03	1865.70
378.24	1798.12
378.45	1656.81
378.66	1767.40
378.87	1628.14
379.08	1671.14
379.29	1673.19
379.50	1701.86
379.71	1703.91
379.91	1742.82
380.12	1785.83
380.33	1624.04
380.54	1601.51
380.75	1708.01
380.96	1705.96
381.17	1759.21
381.38	1742.82
381.59	1689.57
381.80	1734.63
382.00	1906.66
382.21	1634.28
382.42	1845.22
382.63	1853.41
382.84	1765.35
383.05	1693.67
383.26	1837.03
383.47	1736.68
383.68	1748.97
383.88	1701.86
384.09	1712.10
384.30	1812.45
384.51	1673.19
384.72	1769.44
384.93	1583.08
385.14	1660.90
385.35	1751.01
385.55	1587.18
385.76	1691.62
385.97	1669.09
386.18	1736.68
386.39	1648.61
386.60	1718.25
386.81	1802.21
387.02	1667.05
387.22	1650.66
387.43	1771.49
387.64	1789.92
387.85	1841.12
388.06	2109.41
388.27	4003.78
388.48	6641.56
388.68	7911.30
388.89	8996.73
389.10	9295.73
389.31	8167.30
389.52	7372.69
389.73	6516.64
389.93	6004.64
390.14	5578.67
390.35	4980.66
390.56	4425.66
390.77	3796.93
390.98	2936.79
391.18	2467.80
391.39	2129.89
391.60	1808.36
391.81	1826.79
392.02	1740.77
392.23	1861.60
392.43	1740.77
392.64	1800.16
392.85	1781.73
393.06	1843.17
393.27	1646.57
393.47	1669.09
393.68	1689.57
393.89	1720.29
394.10	1869.80
394.31	1681.38
394.52	1685.48
394.72	1677.29
394.93	1820.64
395.14	1693.67
395.35	1841.12
395.56	1697.77
395.76	1712.10
395.97	1798.12
396.18	1867.75
396.39	1834.98
396.60	2070.50
396.80	1849.32
397.01	1806.31
397.22	1773.54
397.43	1877.99
397.64	1728.49
397.84	1804.26
398.05	1929.19
398.26	1716.20
398.47	1730.53
398.67	1787.88
398.88	1726.44
399.09	1748.97
399.30	1691.62
399.51	1769.44
399.71	1667.05
399.92	1718.25
400.13	1781.73
400.34	1693.67
400.54	1701.86
400.75	1757.16
400.96	1695.72
401.17	1855.46
401.37	1708.01
401.58	1705.96
401.79	1720.29
402.00	1816.55
402.21	1951.71
402.41	1886.18
402.62	1992.67
402.83	2054.11
403.04	2019.30
403.24	2058.21
403.45	1800.16
403.66	1853.41
403.87	1800.16
404.07	1890.28
404.28	1890.28
404.49	1894.37
404.70	1775.59
404.90	1734.63
405.11	1773.54
405.32	1751.01
405.52	1607.66
405.73	1689.57
405.94	1679.33
406.15	1677.29
406.35	1726.44
406.56	1845.22
406.77	1691.62
406.98	1767.40
407.18	1683.43
407.39	1722.34
407.60	1630.18
407.80	1701.86
408.01	1673.19
408.22	1695.72
408.43	1632.23
408.63	1767.40
408.84	1640.42
409.05	1728.49
409.25	1662.95
409.46	1751.01
409.67	1658.85
409.88	1701.86
410.08	1720.29
410.29	1660.90
410.50	1695.72
410.70	1683.43
410.91	1613.80
411.12	1685.48
411.32	1781.73
411.53	1669.09
411.74	1748.97
411.95	1765.35
412.15	1654.76
412.36	1800.16
412.57	1804.26
412.77	1808.36
412.98	1730.53
413.19	1775.59
413.39	1802.21
413.60	1759.21
413.81	1839.08
414.01	1607.66
414.22	1697.77
414.43	1689.57
414.63	1613.80
414.84	1705.96
415.05	1779.68
415.25	1667.05
415.46	1714.15
415.67	1675.24
415.87	1699.81
416.08	1689.57
416.29	1730.53
416.49	1730.53
416.70	1636.33
416.91	1705.96
417.11	1685.48
417.32	1736.68
417.53	1779.68
417.73	1777.64
417.94	1705.96
418.15	1748.97
418.35	1746.92
418.56	1728.49
418.77	1855.46
418.97	1734.63
419.18	1675.24
419.38	1552.36
419.59	1701.86
419.80	1773.54
420.00	1687.53
420.21	1740.77
420.42	1787.88
420.62	1669.09
420.83	1673.19
421.04	1769.44
421.24	1705.96
421.45	1718.25
421.65	1783.78
421.86	1640.42
422.07	1789.92
422.27	1693.67
422.48	1679.33
422.69	1646.57
422.89	1722.34
423.10	1708.01
423.30	1621.99
423.51	1789.92
423.72	1697.77
423.92	1779.68
424.13	1677.29
424.33	1681.38
424.54	1804.26
424.75	1728.49
424.95	1800.16
425.16	1724.39
425.36	1730.53
425.57	1824.74
425.78	1748.97
425.98	1742.82
426.19	1669.09
426.39	1705.96
426.60	1738.73
426.81	1810.40
427.01	1689.57
427.22	1630.18
427.42	1681.38
427.63	1693.67
427.83	1734.63
428.04	1804.26
428.25	1796.07
428.45	1691.62
428.66	1763.30
428.86	1740.77
429.07	1755.11
429.28	1720.29
429.48	1695.72
429.69	1693.67
429.89	1671.14
430.10	1611.75
430.30	1718.25
430.51	1753.06
430.71	1636.33
430.92	1689.57
431.13	1691.62
431.33	1712.10
431.54	1714.15
431.74	1804.26
431.95	1832.93
432.15	1626.09
432.36	1736.68
432.56	1763.30
432.77	1740.77
432.98	1800.16
433.18	1726.44
433.39	1687.53
433.59	1751.01
433.80	1796.07
434.00	1853.41
434.21	1720.29
434.41	1697.77
434.62	1884.13
434.82	1761.25
435.03	1718.25
435.23	1744.87
435.44	1634.28
435.64	1738.73
435.85	1675.24
436.06	1779.68
436.26	1755.11
436.47	1769.44
436.67	1677.29
436.88	1689.57
437.08	1697.77
437.29	1796.07
437.49	1769.44
437.70	1828.84
437.90	1744.87
438.11	1935.33
438.31	1818.60
438.52	1806.31
438.72	1775.59
438.93	1851.36
439.13	1800.16
439.34	1832.93
439.54	1730.53
439.75	1824.74
439.95	1779.68
440.16	1726.44
440.36	1744.87
440.57	1769.44
440.77	1753.06
440.98	1683.43
441.18	1765.35
441.39	1685.48
441.59	1718.25
441.80	1877.99
442.00	1732.58
442.21	1830.88
442.41	1681.38
442.62	1753.06
442.82	1779.68
443.02	1734.63
443.23	1761.25
443.43	1705.96
443.64	1834.98
443.84	1699.81
444.05	1779.68
444.25	1710.05
444.46	1791.97
444.66	1765.35
444.87	1720.29
445.07	1675.24
445.28	1746.92
445.48	1816.55
445.69	1818.60
445.89	1841.12
446.09	1806.31
446.30	2060.26
446.50	2613.21
446.71	3612.62
446.91	4169.66
447.12	4622.27
447.32	4673.46
447.53	4284.35
447.73	3817.41
447.93	3364.81
448.14	3315.66
448.34	3119.06
448.55	2897.88
448.75	2807.77
448.96	2660.31
449.16	2357.21
449.36	2234.33
449.57	2062.30
449.77	1935.33
449.98	1851.36
450.18	1804.26
450.39	1841.12
450.59	1794.02
450.79	1662.95
451.00	1699.81
451.20	1669.09
451.41	1765.35
451.61	1697.77
451.81	1761.25
452.02	1777.64
452.22	1703.91
452.43	1734.63
452.63	1716.20
452.84	1738.73
453.04	1687.53
453.24	1738.73
453.45	1703.91
453.65	1746.92
453.86	1708.01
454.06	1722.34
454.26	1755.11
454.47	1761.25
454.67	1794.02
454.87	1763.30
455.08	1783.78
455.28	1808.36
455.49	1740.77
455.69	1722.34
455.89	1824.74
456.10	1832.93
456.30	1757.16
456.51	1751.01
456.71	1673.19
456.91	1806.31
457.12	1699.81
457.32	1796.07
457.52	1665.00
457.73	1837.03
457.93	1837.03
458.14	1724.39
458.34	1724.39
458.54	1810.40
458.75	1679.33
458.95	1916.90
459.15	1771.49
459.36	1779.68
459.56	1748.97
459.76	1855.46
459.97	1691.62
460.17	1773.54
460.37	1783.78
460.58	1751.01
460.78	1724.39
460.99	1671.14
461.19	1730.53
461.39	1708.01
461.60	1765.35
461.80	1677.29
462.00	1662.95
462.21	1701.86
462.41	1669.09
462.61	1679.33
462.82	1644.52
463.02	1761.25
463.22	1748.97
463.43	1753.06
463.63	1705.96
463.83	1822.69
464.04	1730.53
464.24	1734.63
464.44	1738.73
464.64	1759.21
464.85	1736.68
465.05	1730.53
465.25	1728.49
465.46	1722.34
465.66	1724.39
465.86	1759.21
466.07	1773.54
466.27	1718.25
466.47	1667.05
466.68	1564.65
466.88	1785.83
467.08	1755.11
467.29	1746.92
467.49	1734.63
467.69	1775.59
467.89	1734.63
468.10	1667.05
468.30	1773.54
468.50	1775.59
468.71	1773.54
468.91	1642.47
469.11	1863.65
469.31	1673.19
469.52	1708.01
469.72	1863.65
469.92	1918.95
470.13	1701.86
470.33	1740.77
470.53	1849.32
470.73	2027.49
470.94	2267.10
471.14	2346.97
471.34	2576.34
471.54	2381.79
471.75	2158.56
471.95	2111.46
472.15	2066.40
472.36	2119.65
472.56	2164.70
472.76	1988.58
472.96	2021.35
473.17	1908.71
473.37	1884.13
473.57	1765.35
473.77	1841.12
473.98	1818.60
474.18	1685.48
474.38	1886.18
474.58	1658.85
474.79	1753.06
474.99	1771.49
475.19	1708.01
475.39	1699.81
475.60	1732.58
475.80	1685.48
476.00	1687.53
476.20	1732.58
476.41	1736.68
476.61	1796.07
476.81	1847.27
477.01	1642.47
477.21	1810.40
477.42	1781.73
477.62	1648.61
477.82	1708.01
478.02	1726.44
478.23	1746.92
478.43	1669.09
478.63	1669.09
478.83	1798.12
479.03	1689.57
479.24	1757.16
479.44	1869.80
479.64	1650.66
479.84	1648.61
480.04	1695.72
480.25	1759.21
480.45	1681.38
480.65	1794.02
480.85	1771.49
481.06	1660.90
481.26	1701.86
481.46	1781.73
481.66	1753.06
481.86	1775.59
482.06	1777.64
482.27	1748.97
482.47	1800.16
482.67	1730.53
482.87	1667.05
483.07	1789.92
483.28	1714.15
483.48	1726.44
483.68	1716.20
483.88	1736.68
484.08	1560.55
484.29	1669.09
484.49	1724.39
484.69	1683.43
484.89	1828.84
485.09	1751.01
485.29	1769.44
485.50	1755.11
485.70	1710.05
485.90	1785.83
486.10	1787.88
486.30	1708.01
486.50	1804.26
486.71	1783.78
486.91	1742.82
487.11	1841.12
487.31	1699.81
487.51	1734.63
487.71	1654.76
487.91	1693.67
488.12	1636.33
488.32	1642.47
488.52	1730.53
488.72	1626.09
488.92	1744.87
489.12	1730.53
489.32	1746.92
489.53	1703.91
489.73	1656.81
489.93	1746.92
490.13	1738.73
490.33	1705.96
490.53	1736.68
490.73	1765.35
490.94	1718.25
491.14	1779.68
491.34	1849.32
491.54	2117.60
491.74	2496.47
491.94	2787.29
492.14	2877.40
492.34	2920.40
492.54	2748.37
492.75	2453.47
492.95	2463.71
493.15	2254.81
493.35	2275.29
493.55	2215.90
493.75	2062.30
493.95	2082.78
494.15	2002.91
494.35	1886.18
494.56	1847.27
494.76	1804.26
494.96	1787.88
495.16	1794.02
495.36	1744.87
495.56	1757.16
495.76	1828.84
495.96	1708.01
496.16	1722.34
496.36	1824.74
496.56	1718.25
496.77	1816.55
496.97	1718.25
497.17	1863.65
497.37	1681.38
497.57	1748.97
497.77	1746.92
497.97	1617.90
498.17	1746.92
498.37	1714.15
498.57	1789.92
498.77	1730.53
498.97	1769.44
499.17	1857.51
499.38	1722.34
499.58	1806.31
499.78	1679.33
499.98	1789.92
500.18	1730.53
500.38	1722.34
500.58	1955.81
500.78	2467.80
500.98	4351.93
501.18	5627.82
501.38	6524.83
501.58	6813.59
501.78	6467.49
501.98	5418.93
502.18	4835.25
502.38	4122.56
502.58	4054.98
502.78	3729.35
502.98	3538.89
503.18	3356.62
503.38	3047.38
503.59	2750.42
503.79	2707.41
503.99	2426.84
504.19	2310.11
504.39	2203.61
504.59	2152.42
504.79	2142.18
504.99	1951.71
505.19	1865.70
505.39	1820.64
505.59	1923.04
505.79	1902.56
505.99	1834.98
506.19	1830.88
506.39	1906.66
506.59	1703.91
506.79	1769.44
506.99	1818.60
507.19	1724.39
507.39	1724.39
507.59	1724.39
507.79	1638.38
507.99	1744.87
508.19	1775.59
508.39	1730.53
508.59	1832.93
508.79	1810.40
508.99	1746.92
509.19	1732.58
509.39	1832.93
509.59	1759.21
509.79	1675.24
509.99	1742.82
510.19	1779.68
510.39	1742.82
510.59	1693.67
510.79	1685.48
510.99	1677.29
511.19	1730.53
511.39	1765.35
511.59	1798.12
511.79	1773.54
511.99	1763.30
512.19	1808.36
512.38	1724.39
512.58	1658.85
512.78	1775.59
512.98	1849.32
513.18	1773.54
513.38	1621.99
513.58	1773.54
513.78	1708.01
513.98	1730.53
514.18	1685.48
514.38	1699.81
514.58	1812.45
514.78	1636.33
514.98	1730.53
515.18	1732.58
515.38	1595.37
515.58	1777.64
515.78	1665.00
515.98	1716.20
516.18	1751.01
516.38	1740.77
516.57	1769.44
516.77	1761.25
516.97	1773.54
517.17	1755.11
517.37	1638.38
517.57	1718.25
517.77	1726.44
517.97	1779.68
518.17	1765.35
518.37	1714.15
518.57	1697.77
518.77	1685.48
518.97	1703.91
519.16	1738.73
519.36	1757.16
519.56	1693.67
519.76	1755.11
519.96	1785.83
520.16	1767.40
520.36	1640.42
520.56	1783.78
520.76	1634.28
520.96	1744.87
521.16	1740.77
521.35	1875.94
521.55	1828.84
521.75	1767.40
521.95	1640.42
522.15	1665.00
522.35	1669.09
522.55	1636.33
522.75	1812.45
522.95	1712.10
523.14	1626.09
523.34	1767.40
523.54	1744.87
523.74	1789.92
523.94	1785.83
524.14	1667.05
524.34	1773.54
524.54	1826.79
524.73	1800.16
524.93	1789.92
525.13	1765.35
525.33	1687.53
525.53	1800.16
525.73	1816.55
525.93	1736.68
526.13	1689.57
526.32	1722.34
526.52	1783.78
526.72	1791.97
526.92	1730.53
527.12	1769.44
527.32	1654.76
527.52	1701.86
527.71	1839.08
527.91	1724.39
528.11	1675.24
528.31	1675.24
528.51	1671.14
528.71	1740.77
528.90	1777.64
529.10	1759.21
529.30	1796.07
529.50	1632.23
529.70	1712.10
529.90	1753.06
530.09	1705.96
530.29	1669.09
530.49	1677.29
530.69	1849.32
530.89	1738.73
531.09	1816.55
531.28	1689.57
531.48	1775.59
531.68	1794.02
531.88	1740.77
532.08	1759.21
532.28	1746.92
532.47	1771.49
532.67	1845.22
532.87	1738.73
533.07	1730.53
533.27	1841.12
533.46	1734.63
533.66	1777.64
533.86	1759.21
534.06	1691.62
534.26	1794.02
534.45	1681.38
534.65	1777.64
534.85	1785.83
535.05	1691.62
535.25	1789.92
535.44	1660.90
535.64	1771.49
535.84	1671.14
536.04	1669.09
536.24	1761.25
536.43	1720.29
536.63	1783.78
536.83	1722.34
537.03	1718.25
537.22	1611.75
537.42	1681.38
537.62	1720.29
537.82	1689.57
538.02	1751.01
538.21	1828.84
538.41	1865.70
538.61	1736.68
538.81	1822.69
539.00	1824.74
539.20	1722.34
539.40	1722.34
539.60	1796.07
539.79	1781.73
539.99	1673.19
540.19	1681.38
540.39	1691.62
540.58	1796.07
540.78	1832.93
540.98	1716.20
541.18	1779.68
541.37	1789.92
541.57	1787.88
541.77	1812.45
541.97	1591.27
542.16	1677.29
542.36	1677.29
542.56	1779.68
542.76	1828.84
542.95	1734.63
543.15	1781.73
543.35	1812.45
543.54	1673.19
543.74	1662.95
543.94	1875.94
544.14	1708.01
544.33	1732.58
544.53	1771.49
544.73	1722.34
544.93	1693.67
545.12	1781.73
545.32	1714.15
545.52	1730.53
545.71	1683.43
545.91	1714.15
546.11	1695.72
546.30	1712.10
546.50	1806.31
546.70	1779.68
546.90	1755.11
547.09	1691.62
547.29	1773.54
547.49	1767.40
547.68	1730.53
547.88	1703.91
548.08	1718.25
548.27	2142.18
548.47	1734.63
548.67	1736.68
548.87	1685.48
549.06	1695.72
549.26	1687.53
549.46	1787.88
549.65	1687.53
549.85	1798.12
550.05	1773.54
550.24	1685.48
550.44	1753.06
550.64	1724.39
550.83	1710.05
551.03	1767.40
551.23	1730.53
551.42	1746.92
551.62	1744.87
551.82	1701.86
552.01	1763.30
552.21	1751.01
552.41	1755.11
552.60	1914.85
552.80	1804.26
553.00	1732.58
553.19	1716.20
553.39	1855.46
553.59	1691.62
553.78	1773.54
553.98	1693.67
554.17	1662.95
554.37	1740.77
554.57	1808.36
554.76	1648.61
554.96	1689.57
555.16	1800.16
555.35	1683.43
555.55	1769.44
555.75	1816.55
555.94	1767.40
556.14	1601.51
556.33	1796.07
556.53	1736.68
556.73	1761.25
556.92	1800.16
557.12	1896.42
557.32	1882.08
557.51	1773.54
557.71	1712.10
557.90	1800.16
558.10	1886.18
558.30	1744.87
558.49	1660.90
558.69	1761.25
558.88	1736.68
559.08	1714.15
559.28	1787.88
559.47	1708.01
559.67	1724.39
559.86	1892.32
560.06	1759.21
560.26	1708.01
560.45	1779.68
560.65	1783.78
560.84	1822.69
561.04	1714.15
561.24	1769.44
561.43	1681.38
561.63	1826.79
561.82	1757.16
562.02	1753.06
562.22	1712.10
562.41	1718.25
562.61	1785.83
562.80	1681.38
563.00	1820.64
563.19	1742.82
563.39	1830.88
563.59	1701.86
563.78	1751.01
563.98	1685.48
564.17	1693.67
564.37	1689.57
564.56	1751.01
564.76	1660.90
564.96	1847.27
565.15	1828.84
565.35	1824.74
565.54	1708.01
565.74	1796.07
565.93	1748.97
566.13	1734.63
566.32	1779.68
566.52	1705.96
566.71	1804.26
566.91	1789.92
567.11	1785.83
567.30	1724.39
567.50	1789.92
567.69	1861.60
567.89	1708.01
568.08	1734.63
568.28	1730.53
568.47	1640.42
568.67	1765.35
568.86	1728.49
569.06	1757.16
569.25	1734.63
569.45	1636.33
569.64	1736.68
569.84	1685.48
570.04	1746.92
570.23	1677.29
570.43	1726.44
570.62	1828.84
570.82	1865.70
571.01	1732.58
571.21	1691.62
571.40	1701.86
571.60	1796.07
571.79	1757.16
571.99	1730.53
572.18	1724.39
572.38	1755.11
572.57	1710.05
572.77	1818.60
572.96	1843.17
573.16	1777.64
573.35	1783.78
573.55	1806.31
573.74	1863.65
573.94	1787.88
574.13	1779.68
574.33	1767.40
574.52	1714.15
574.71	1718.25
574.91	1791.97
575.10	1685.48
575.30	1726.44
575.49	1732.58
575.69	1689.57
575.88	1748.97
576.08	1708.01
576.27	1740.77
576.47	1718.25
576.66	1779.68
576.86	1832.93
577.05	1740.77
577.25	1726.44
577.44	1886.18
577.64	1730.53
577.83	1796.07
578.02	1734.63
578.22	1789.92
578.41	1869.80
578.61	1755.11
578.80	1791.97
579.00	1730.53
579.19	1753.06
579.39	1822.69
579.58	1841.12
579.77	1763.30
579.97	1847.27
580.16	1847.27
580.36	1812.45
580.55	1828.84
580.75	1783.78
580.94	1755.11
581.13	1845.22
581.33	1783.78
581.52	1800.16
581.72	1855.46
581.91	1873.89
582.11	1683.43
582.30	1751.01
582.49	1687.53
582.69	1822.69
582.88	1691.62
583.08	1714.15
583.27	1740.77
583.47	1751.01
583.66	1681.38
583.85	1685.48
584.05	1771.49
584.24	1744.87
584.44	1796.07
584.63	1804.26
584.82	1806.31
585.02	1759.21
585.21	1830.88
585.41	1820.64
585.60	1834.98
585.79	1935.33
585.99	1939.43
586.18	1896.42
586.37	2193.37
586.57	3260.37
586.76	9586.54
586.96	23465.63
587.15	32917.00
587.34	38469.04
587.54	40195.48
587.73	34661.87
587.93	25040.51
588.12	20680.39
588.31	17530.61
588.51	15550.23
588.70	14522.15
588.89	13293.37
589.09	12062.54
589.28	10651.49
589.47	9043.83
589.67	7686.03
589.86	6160.29
590.06	4722.62
590.25	3745.73
590.44	3014.61
590.64	2656.22
590.83	2242.53
591.02	2060.26
591.22	1959.91
591.41	1886.18
591.60	1834.98
591.80	1920.99
591.99	1767.40
592.18	1816.55
592.38	1834.98
592.57	1751.01
592.76	1761.25
592.96	1777.64
593.15	1779.68
593.34	1877.99
593.54	1751.01
593.73	1812.45
593.92	1794.02
594.12	1802.21
594.31	1746.92
594.50	1820.64
594.70	1714.15
594.89	1869.80
595.08	1726.44
595.28	1800.16
595.47	1947.62
595.66	1857.51
595.86	1689.57
596.05	1738.73
596.24	1708.01
596.43	1853.41
596.63	1865.70
596.82	1781.73
597.01	1857.51
597.21	1900.52
597.40	1738.73
597.59	1777.64
597.79	1714.15
597.98	1701.86
598.17	1675.24
598.36	1789.92
598.56	1771.49
598.75	1722.34
598.94	1738.73
599.14	1757.16
599.33	1785.83
599.52	1779.68
599.71	1714.15
599.91	1773.54
600.10	1845.22
600.29	1773.54
600.48	1832.93
600.68	1736.68
600.87	1740.77
601.06	1714.15
601.26	1691.62
601.45	1746.92
601.64	1695.72
601.83	1757.16
602.03	1712.10
602.22	1748.97
602.41	1759.21
602.60	1894.37
602.80	1669.09
602.99	1714.15
603.18	1691.62
603.37	1767.40
603.57	1808.36
603.76	1779.68
603.95	1781.73
604.14	1705.96
604.34	1673.19
604.53	1746.92
604.72	1781.73
604.91	1705.96
605.10	1816.55
605.30	1685.48
605.49	1839.08
605.68	1755.11
605.87	1759.21
606.07	1646.57
606.26	1734.63
606.45	1824.74
606.64	1695.72
606.84	1740.77
607.03	1802.21
607.22	1818.60
607.41	1693.67
607.60	1718.25
607.80	1837.03
607.99	1734.63
608.18	1820.64
608.37	1701.86
608.56	1695.72
608.76	1845.22
608.95	1826.79
609.14	1705.96
609.33	1804.26
609.52	1775.59
609.72	1755.11
609.91	1703.91
610.10	1796.07
610.29	1888.23
610.48	1753.06
610.68	1742.82
610.87	1742.82
611.06	1808.36
611.25	1726.44
611.44	1775.59
611.63	1714.15
611.83	1800.16
612.02	1746.92
612.21	1806.31
612.40	1611.75
612.59	1697.77
612.79	1675.24
612.98	1757.16
613.17	1867.75
613.36	1695.72
613.55	1742.82
613.74	1644.52
613.93	1781.73
614.13	1699.81
614.32	1800.16
614.51	1701.86
614.70	1742.82
614.89	1710.05
615.08	1767.40
615.28	2052.06
615.47	1691.62
615.66	1722.34
615.85	1746.92
616.04	1826.79
616.23	1718.25
616.42	1728.49
616.62	1785.83
616.81	1748.97
617.00	1734.63
617.19	1816.55
617.38	1699.81
617.57	1720.29
617.76	1755.11
617.95	1787.88
618.15	1742.82
618.34	1777.64
618.53	1638.38
618.72	1710.05
618.91	1853.41
619.10	1812.45
619.29	1742.82
619.48	1699.81
619.68	1599.46
619.87	1759.21
620.06	1652.71
620.25	1837.03
620.44	1667.05
620.63	1736.68
620.82	1748.97
621.01	1724.39
621.20	1748.97
621.39	1742.82
621.59	1765.35
621.78	1712.10
621.97	1761.25
622.16	1810.40
622.35	1705.96
622.54	1767.40
622.73	1808.36
622.92	1597.42
623.11	1789.92
623.30	1681.38
623.49	1798.12
623.68	1648.61
623.88	1826.79
624.07	1695.72
624.26	1669.09
624.45	1753.06
624.64	1701.86
624.83	1736.68
625.02	1681.38
625.21	1746.92
625.40	1718.25
625.59	1822.69
625.78	1708.01
625.97	1726.44
626.16	1820.64
626.35	1761.25
626.54	1753.06
626.74	1818.60
626.93	1665.00
627.12	1751.01
627.31	1699.81
627.50	1732.58
627.69	1748.97
627.88	1673.19
628.07	1697.77
628.26	1589.22
628.45	1681.38
628.64	1681.38
628.83	1722.34
629.02	1701.86
629.21	1785.83
629.40	1697.77
629.59	1689.57
629.78	1644.52
629.97	1724.39
630.16	1714.15
630.35	1679.33
630.54	1708.01
630.73	1677.29
630.92	1695.72
631.11	1624.04
631.30	1681.38
631.49	1761.25
631.68	1714.15
631.87	1697.77
632.06	1609.70
632.25	1875.94
632.44	1755.11
632.63	1744.87
632.82	1685.48
633.01	1662.95
633.20	1701.86
633.39	1681.38
633.58	1621.99
633.77	1710.05
633.96	1775.59
634.15	1826.79
634.34	1779.68
634.53	1767.40
634.72	1632.23
634.91	1673.19
635.10	1787.88
635.29	1753.06
635.48	1714.15
635.67	1585.13
635.86	1656.81
636.05	1785.83
636.24	1755.11
636.43	1728.49
636.62	1740.77
636.81	1576.94
637.00	1710.05
637.19	1705.96
637.38	1755.11
637.57	1710.05
637.76	1712.10
637.95	1751.01
638.14	1699.81
638.33	1658.85
638.52	1740.77
638.71	1665.00
638.89	1656.81
639.08	1898.47
639.27	1757.16
639.46	1681.38
639.65	1763.30
639.84	1732.58
640.03	1726.44
640.22	1740.77
640.41	1765.35
640.60	1714.15
640.79	1734.63
640.98	1767.40
641.17	1742.82
641.36	1755.11
641.55	1771.49
641.74	1634.28
641.92	1648.61
642.11	1566.70
642.30	1693.67
642.49	1626.09
642.68	1687.53
642.87	1781.73
643.06	1718.25
643.25	1660.90
643.44	1697.77
643.63	1718.25
643.82	1820.64
644.00	1624.04
644.19	1658.85
644.38	1603.56
644.57	1781.73
644.76	1794.02
644.95	1783.78
645.14	1705.96
645.33	1689.57
645.52	1738.73
645.71	1662.95
645.89	1654.76
646.08	1757.16
646.27	1679.33
646.46	1865.70
646.65	1710.05
646.84	1705.96
647.03	1677.29
647.22	1773.54
647.40	1755.11
647.59	1804.26
647.78	1624.04
647.97	1699.81
648.16	1617.90
648.35	1775.59
648.54	1796.07
648.73	1665.00
648.91	1683.43
649.10	1679.33
649.29	1722.34
649.48	1736.68
649.67	1736.68
649.86	1695.72
650.05	1697.77
650.23	1744.87
650.42	1673.19
650.61	1730.53
650.80	1705.96
650.99	1828.84
651.18	1781.73
651.36	1656.81
651.55	1744.87
651.74	1800.16
651.93	1703.91
652.12	1753.06
652.31	1693.67
652.49	1685.48
652.68	1718.25
652.87	1771.49
653.06	1701.86
653.25	1775.59
653.44	1667.05
653.62	1818.60
653.81	1632.23
654.00	1718.25
654.19	1810.40
654.38	1851.36
654.56	1796.07
654.75	1656.81
654.94	1683.43
655.13	1742.82
655.32	1734.63
655.51	1849.32
655.69	1724.39
655.88	1732.58
656.07	1648.61
656.26	1812.45
656.45	1673.19
656.63	1701.86
656.82	1748.97
657.01	1808.36
657.20	1628.14
657.38	1759.21
657.57	1675.24
657.76	1665.00
657.95	1751.01
658.14	1685.48
658.32	1769.44
658.51	1660.90
658.70	1683.43
658.89	1753.06
659.08	1712.10
659.26	1748.97
659.45	1716.20
659.64	1681.38
659.83	1662.95
660.01	1880.04
660.20	1724.39
660.39	1767.40
660.58	1538.02
660.76	1691.62
660.95	1587.18
661.14	1601.51
661.33	1693.67
661.51	1728.49
661.70	1738.73
661.89	1714.15
662.08	1726.44
662.26	1607.66
662.45	1689.57
662.64	1834.98
662.83	1718.25
663.01	1697.77
663.20	1636.33
663.39	1773.54
663.58	1738.73
663.76	1806.31
663.95	1763.30
664.14	1646.57
664.32	1730.53
664.51	1714.15
664.70	1640.42
664.89	1771.49
665.07	1728.49
665.26	1820.64
665.45	1724.39
665.64	1791.97
665.82	1730.53
666.01	1773.54
666.20	1687.53
666.38	1710.05
666.57	1855.46
666.76	2109.41
666.95	4317.12
667.13	10004.33
667.32	14698.27
667.51	17043.20
667.69	18228.97
667.88	17002.24
668.07	11808.59
668.25	9074.55
668.44	7612.30
668.63	7006.10
668.81	6447.01
669.00	5928.87
669.19	5414.83
669.38	4951.99
669.56	4435.90
669.75	3852.23
669.94	3325.90
670.12	2865.11
670.31	2496.47
670.50	2244.57
670.68	1992.67
670.87	1935.33
671.06	1818.60
671.24	1791.97
671.43	1789.92
671.62	1732.58
671.80	1656.81
671.99	1748.97
672.18	1681.38
672.36	1736.68
672.55	1785.83
672.74	1656.81
672.92	1679.33
673.11	1699.81
673.29	1675.24
673.48	1769.44
673.67	1753.06
673.85	1845.22
674.04	1736.68
674.23	1724.39
674.41	1898.47
674.60	1656.81
674.79	1695.72
674.97	1609.70
675.16	1724.39
675.34	1771.49
675.53	1757.16
675.72	1785.83
675.90	1757.16
676.09	1718.25
676.28	1746.92
676.46	1603.56
676.65	1753.06
676.83	1656.81
677.02	1689.57
677.21	1712.10
677.39	1677.29
677.58	1701.86
677.77	1699.81
677.95	1716.20
678.14	1748.97
678.32	1665.00
678.51	1677.29
678.70	1845.22
678.88	1660.90
679.07	1740.77
679.25	1689.57
679.44	1726.44
679.63	1660.90
679.81	1744.87
680.00	1783.78
680.18	1755.11
680.37	1726.44
680.55	1720.29
680.74	1685.48
680.93	1648.61
681.11	1701.86
681.30	1697.77
681.48	1691.62
681.67	1669.09
681.85	1697.77
682.04	1673.19
682.23	1765.35
682.41	1648.61
682.60	1685.48
682.78	1689.57
682.97	1673.19
683.15	1697.77
683.34	1748.97
683.53	1826.79
683.71	1603.56
683.90	1841.12
684.08	1767.40
684.27	1648.61
684.45	1767.40
684.64	1834.98
684.82	1708.01
685.01	1777.64
685.19	1675.24
685.38	1812.45
685.57	1703.91
685.75	1628.14
685.94	1710.05
686.12	1695.72
686.31	1660.90
686.49	1740.77
686.68	1558.50
686.86	1722.34
687.05	1734.63
687.23	1736.68
687.42	1652.71
687.60	1601.51
687.79	1783.78
687.97	1806.31
688.16	1810.40
688.34	1771.49
688.53	1652.71
688.71	1757.16
688.90	1806.31
689.08	1718.25
689.27	1626.09
689.45	1697.77
689.64	1736.68
689.82	1689.57
690.01	1755.11
690.19	1789.92
690.38	1667.05
690.56	1818.60
690.75	1658.85
690.93	1595.37
691.12	1669.09
691.30	1714.15
691.49	1665.00
691.67	1771.49
691.86	1802.21
692.04	1640.42
692.23	1660.90
692.41	1748.97
692.60	1736.68
692.78	1806.31
692.97	1677.29
693.15	1763.30
693.34	1865.70
693.52	1710.05
693.71	1710.05
693.89	1687.53
694.08	1576.94
694.26	1796.07
694.44	1693.67
694.63	1783.78
694.81	1648.61
695.00	1730.53
695.18	1763.30
695.37	1843.17
695.55	1681.38
695.74	1665.00
695.92	1630.18
696.10	1742.82
696.29	1644.52
696.47	1775.59
696.66	1646.57
696.84	1560.55
697.03	1642.47
697.21	1843.17
697.40	2242.53
697.58	1791.97
697.76	1677.29
697.95	1675.24
698.13	1724.39
698.32	1708.01
698.50	1736.68
698.68	1730.53
698.87	1718.25
699.05	1867.75
699.24	1773.54
699.42	1658.85
699.61	1771.49
699.79	1705.96
699.97	1748.97
700.16	1662.95
700.34	1646.57
700.53	1751.01
700.71	1791.97
700.89	1738.73
701.08	1699.81
701.26	1656.81
701.45	2078.69
701.63	1689.57
701.81	1796.07
702.00	1691.62
702.18	1746.92
702.37	1691.62
702.55	1699.81
702.73	1705.96
702.92	1632.23
703.10	1816.55
703.28	1728.49
703.47	1648.61
703.65	1669.09
703.84	1744.87
704.02	1648.61
704.20	1800.16
704.39	1716.20
704.57	1613.80
704.75	1800.16
704.94	1746.92
705.12	1681.38
705.30	1802.21
705.49	2209.76
705.67	4409.28
705.86	8943.48
706.04	11931.47
706.22	13723.44
706.41	14538.53
706.59	13006.65
706.77	9131.89
706.96	7124.88
707.14	6317.98
707.32	5691.31
707.51	5226.42
707.69	4698.04
707.87	3987.40
708.06	3407.82
708.24	2895.83
708.42	2328.54
708.61	2211.81
708.79	1892.32
708.97	1830.88
709.16	1845.22
709.34	1767.40
709.52	1771.49
709.71	1726.44
709.89	1781.73
710.07	1632.23
710.26	1642.47
710.44	1837.03
710.62	1789.92
710.80	1716.20
710.99	1718.25
711.17	1705.96
711.35	1744.87
711.54	1640.42
711.72	1748.97
711.90	1677.29
712.09	1771.49
712.27	1636.33
712.45	1822.69
712.63	1732.58
712.82	1689.57
713.00	1781.73
713.18	1771.49
713.37	1875.94
713.55	1718.25
713.73	1742.82
713.91	1685.48
714.10	1675.24
714.28	1728.49
714.46	1667.05
714.65	1673.19
714.83	1683.43
715.01	1810.40
715.19	1744.87
715.38	1642.47
715.56	1761.25
715.74	1693.67
715.92	1732.58
716.11	1822.69
716.29	1656.81
716.47	1751.01
716.65	1726.44
716.84	1628.14
717.02	1779.68
717.20	1626.09
717.38	1746.92
717.57	1695.72
717.75	1681.38
717.93	1660.90
718.11	1777.64
718.30	1607.66
718.48	1730.53
718.66	1779.68
718.84	1734.63
719.03	1646.57
719.21	1683.43
719.39	1822.69
719.57	1689.57
719.75	1783.78
719.94	1757.16
720.12	1789.92
720.30	1736.68
720.48	1724.39
720.67	1703.91
720.85	1669.09
721.03	1626.09
721.21	1701.86
721.39	1691.62
721.58	1685.48
721.76	1728.49
721.94	1716.20
722.12	1730.53
722.30	1787.88
722.49	1718.25
722.67	1722.34
722.85	1718.25
723.03	1677.29
723.21	1626.09
723.40	1685.48
723.58	1669.09
723.76	1693.67
723.94	1783.78
724.12	1650.66
724.30	1771.49
724.49	1808.36
724.67	1621.99
724.85	1771.49
725.03	1640.42
725.21	1773.54
725.40	1783.78
725.58	1626.09
725.76	1751.01
725.94	1812.45
726.12	1630.18
726.30	1656.81
726.49	1738.73
726.67	1662.95
726.85	1662.95
727.03	1783.78
727.21	2117.60
727.39	2811.86
727.57	3674.06
727.76	3968.96
727.94	4255.68
728.12	4335.55
728.30	3551.18
728.48	2936.79
728.66	2631.64
728.84	2439.13
729.03	2179.04
729.21	2150.37
729.39	1972.19
729.57	1826.79
729.75	1783.78
729.93	1806.31
730.11	1751.01
730.30	1728.49
730.48	1755.11
730.66	1785.83
730.84	1796.07
731.02	1667.05
731.20	1665.00
731.38	1703.91
731.56	1718.25
731.74	1716.20
731.93	1658.85
732.11	1662.95
732.29	1703.91
732.47	1708.01
732.65	1716.20
732.83	1783.78
733.01	1800.16
733.19	1667.05
733.37	1730.53
733.56	1695.72
733.74	1732.58
733.92	1779.68
734.10	1675.24
734.28	1759.21
734.46	1589.22
734.64	1724.39
734.82	1611.75
735.00	1705.96
735.18	1665.00
735.36	1705.96
735.54	1710.05
735.73	1730.53
735.91	1796.07
736.09	1804.26
736.27	1763.30
736.45	1738.73
736.63	1626.09
736.81	1634.28
736.99	1744.87
737.17	1751.01
737.35	1708.01
737.53	1726.44
737.71	1685.48
737.89	1738.73
738.07	1617.90
738.25	1656.81
738.43	1626.09
738.61	1675.24
738.80	1599.46
738.98	1665.00
739.16	1650.66
739.34	1705.96
739.52	1812.45
739.70	1687.53
739.88	1746.92
740.06	1712.10
740.24	1538.02
740.42	1763.30
740.60	1652.71
740.78	1701.86
740.96	1669.09
741.14	1703.91
741.32	1679.33
741.50	1619.94
741.68	1781.73
741.86	1796.07
742.04	1656.81
742.22	1665.00
742.40	1708.01
742.58	1710.05
742.76	1609.70
742.94	1708.01
743.12	1587.18
743.30	1742.82
743.48	1826.79
743.66	1642.47
743.84	1796.07
744.02	1716.20
744.20	1714.15
744.38	1630.18
744.56	1673.19
744.74	1779.68
744.92	1710.05
745.10	1683.43
745.28	1832.93
745.46	1736.68
745.64	1761.25
745.82	1689.57
746.00	1699.81
746.18	1734.63
746.36	1673.19
746.54	1660.90
746.72	1689.57
746.90	1660.90
747.08	1812.45
747.26	1697.77
747.44	1718.25
747.62	1736.68
747.80	1693.67
747.98	1775.59
748.15	1755.11
748.33	1857.51
748.51	1644.52
748.69	1779.68
748.87	1679.33
749.05	1705.96
749.23	1681.38
749.41	1734.63
749.59	1658.85
749.77	1761.25
749.95	1716.20
750.13	1615.85
750.31	1755.11
750.49	1708.01
750.67	1732.58
750.85	1851.36
751.03	1685.48
751.20	1789.92
751.38	1740.77
751.56	1677.29
751.74	1712.10
751.92	1699.81
752.10	1697.77
752.28	1779.68
752.46	1640.42
752.64	1679.33
752.82	1769.44
753.00	1699.81
753.18	1675.24
753.35	1701.86
753.53	1671.14
753.71	1574.89
753.89	1726.44
754.07	1675.24
754.25	1771.49
754.43	1689.57
754.61	1636.33
754.79	1681.38
754.97	1699.81
755.14	1783.78
755.32	1597.42
755.50	1716.20
755.68	1759.21
755.86	1681.38
756.04	1605.61
756.22	1599.46
756.40	1689.57
756.57	1857.51
756.75	1742.82
756.93	1736.68
757.11	1693.67
757.29	1650.66
757.47	1738.73
757.65	1624.04
757.82	1591.27
758.00	1621.99
758.18	1730.53
758.36	1691.62
758.54	1755.11
758.72	1632.23
758.90	1781.73
759.07	1699.81
759.25	1681.38
759.43	1769.44
759.61	1607.66
759.79	2164.70
759.97	1683.43
760.15	1654.76
760.32	1669.09
760.50	1748.97
760.68	1705.96
760.86	1583.08
761.04	1787.88
761.22	1722.34
761.39	1658.85
761.57	1755.11
761.75	1697.77
761.93	1712.10
762.11	1730.53
762.28	1665.00
762.46	1695.72
762.64	1759.21
762.82	1642.47
763.00	1726.44
763.18	1736.68
763.35	1607.66
763.53	1802.21
763.71	1773.54
763.89	1703.91
764.07	1689.57
764.24	1648.61
764.42	1789.92
764.60	1665.00
764.78	1652.71
764.96	1730.53
765.13	1765.35
765.31	1734.63
765.49	1724.39
765.67	1673.19
765.84	1708.01
766.02	1667.05
766.20	1621.99
766.38	1697.77
766.56	1746.92
766.73	1734.63
766.91	1736.68
767.09	1658.85
767.27	1685.48
767.44	1683.43
767.62	1714.15
767.80	1783.78
767.98	1591.27
768.15	1677.29
768.33	1728.49
768.51	1675.24
768.69	1695.72
768.87	1710.05
769.04	1742.82
769.22	1834.98
769.40	1767.40
769.58	1845.22
769.75	1671.14
769.93	1738.73
770.11	1648.61
770.28	1662.95
770.46	1785.83
770.64	1767.40
770.82	1744.87
770.99	1720.29
771.17	1736.68
771.35	1740.77
771.53	1730.53
771.70	1738.73
771.88	1667.05
772.06	1755.11
772.23	1599.46
772.41	1714.15
772.59	1730.53
772.77	1619.94
772.94	1669.09
773.12	1722.34
773.30	1757.16
773.47	1783.78
773.65	1685.48
773.83	1849.32
774.01	1652.71
774.18	1497.07
774.36	1673.19
774.54	1656.81
774.71	1708.01
774.89	1648.61
775.07	1638.38
775.24	1718.25
775.42	1669.09
775.60	1804.26
775.78	1671.14
775.95	1673.19
776.13	1669.09
776.31	1566.70
776.48	1738.73
776.66	1853.41
776.84	1687.53
777.01	1665.00
777.19	1642.47
777.37	1724.39
777.54	1710.05
777.72	1761.25
777.90	1701.86
778.07	1705.96
778.25	1867.75
778.43	1779.68
778.60	1617.90
778.78	1751.01
778.96	1751.01
779.13	1693.67
779.31	1771.49
779.49	1724.39
779.66	1701.86
779.84	1718.25
780.01	1720.29
780.19	1728.49
780.37	1744.87
780.54	1738.73
780.72	1660.90
780.90	1699.81
781.07	1730.53
781.25	1738.73
781.43	1736.68
781.60	1722.34
781.78	1736.68
781.95	1767.40
782.13	1652.71
782.31	1642.47
782.48	1587.18
782.66	1734.63
782.83	1804.26
783.01	1683.43
783.19	1794.02
783.36	1638.38
783.54	1660.90
783.72	1746.92
783.89	1673.19
784.07	1722.34
784.24	1736.68
784.42	1820.64
784.60	1734.63
784.77	1742.82
784.95	1564.65
785.12	1722.34
785.30	1665.00
785.47	1628.14
785.65	1599.46
785.83	1636.33
786.00	1599.46
786.18	1802.21
786.35	1636.33
786.53	1691.62
786.71	1728.49
786.88	1724.39
787.06	1746.92
787.23	1681.38
787.41	1619.94
787.58	1751.01
787.76	1691.62
787.94	1755.11
788.11	1753.06
788.29	1671.14
788.46	1644.52
788.64	1624.04
788.81	1593.32
788.99	1675.24
789.16	1591.27
789.34	1730.53
789.52	1710.05
789.69	1712.10
789.87	1634.28
790.04	1656.81
790.22	1689.57
790.39	1781.73
790.57	1648.61
790.74	1677.29
790.92	1734.63
791.09	1574.89
791.27	1763.30
791.44	1822.69
791.62	1654.76
791.79	1710.05
791.97	1640.42
792.15	1884.13
792.32	1667.05
792.50	1798.12
792.67	1826.79
792.85	1779.68
793.02	1720.29
793.20	1751.01
793.37	1619.94
793.55	1720.29
793.72	1701.86
793.90	1724.39
794.07	1705.96
794.25	1660.90
794.42	1757.16
794.60	1714.15
794.77	1755.11
794.95	1777.64
795.12	1738.73
795.30	1671.14
795.47	1652.71
795.65	1837.03
795.82	1767.40
796.00	1699.81
796.17	1773.54
796.34	1683.43
796.52	1804.26
796.69	1773.54
796.87	1714.15
797.04	1759.21
797.22	1755.11
797.39	1701.86
797.57	1671.14
797.74	1732.58
797.92	1814.50
798.09	1638.38
798.27	1746.92
798.44	1726.44
798.62	1636.33
798.79	1783.78
798.96	1673.19
799.14	1736.68
799.31	1814.50
799.49	1730.53
799.66	1628.14
799.84	1736.68
800.01	1607.66
800.19	1755.11
800.36	1652.71
800.53	1755.11
800.71	1759.21
800.88	1837.03
801.06	1675.24
801.23	1652.71
801.41	1644.52
801.58	1621.99
801.75	1662.95
801.93	1746.92
802.10	1716.20
802.28	1751.01
802.45	1652.71
802.63	1771.49
802.80	1816.55
802.97	1619.94
803.15	1695.72
803.32	1724.39
803.50	1634.28
803.67	1652.71
803.84	1632.23
804.02	1710.05
804.19	1802.21
804.37	1578.98
804.54	1685.48
804.71	1689.57
804.89	1699.81
805.06	1714.15
805.24	1687.53
805.41	1669.09
805.58	1701.86
805.76	1847.27
805.93	1714.15
806.10	1814.50
806.28	1683.43
806.45	1761.25
806.63	1712.10
806.80	1732.58
806.97	1693.67
807.15	1646.57
807.32	1703.91
807.49	1705.96
807.67	1689.57
807.84	1742.82
808.01	1599.46
808.19	1787.88
808.36	1775.59
808.54	1773.54
808.71	1646.57
808.88	1722.34
809.06	1748.97
809.23	1765.35
809.40	1595.37
809.58	1791.97
809.75	1679.33
809.92	1607.66
810.10	1814.50
810.27	1667.05
810.44	1699.81
810.62	1740.77
810.79	1718.25
810.96	1638.38
811.14	1689.57
811.31	1800.16
811.48	1720.29
811.66	1722.34
811.83	1746.92
812.00	1679.33
812.18	1734.63
812.35	1806.31
812.52	1720.29
812.69	1615.85
812.87	1658.85
813.04	1693.67
813.21	1771.49
813.39	1742.82
813.56	1615.85
813.73	1740.77
813.91	1615.85
814.08	1757.16
814.25	1650.66
814.42	1636.33
814.60	1722.34
814.77	1699.81
814.94	1705.96
815.12	1687.53
815.29	1779.68
815.46	1640.42
815.63	1714.15
815.81	1705.96
815.98	1718.25
816.15	1746.92
816.33	1781.73
816.50	1726.44
816.67	1687.53
816.84	1615.85
817.02	1705.96
817.19	1689.57
817.36	1718.25
817.53	1718.25
817.71	1638.38
817.88	1685.48
818.05	1642.47
818.22	1691.62
818.40	1812.45
818.57	1642.47
818.74	1738.73
818.91	1703.91
819.09	1710.05
819.26	1804.26
819.43	1681.38
819.60	1624.04
819.78	1742.82
819.95	1746.92
820.12	1638.38
820.29	1787.88
820.47	1826.79
820.64	1613.80
820.81	1626.09
820.98	1619.94
821.15	1665.00
821.33	1724.39
821.50	1640.42
821.67	1824.74
821.84	1630.18
822.02	1738.73
822.19	1789.92
822.36	1644.52
822.53	1636.33
822.70	1693.67
822.88	1677.29
823.05	1730.53
823.22	1646.57
823.39	1722.34
823.56	1675.24
823.74	1761.25
823.91	1687.53
824.08	1626.09
824.25	1681.38
824.42	1759.21
824.60	1585.13
824.77	1722.34
824.94	1679.33
825.11	1701.86
825.28	1654.76
825.45	1787.88
825.63	1701.86
825.80	1640.42
825.97	1779.68
826.14	1732.58
826.31	1525.74
826.48	1656.81
826.66	1611.75
826.83	1738.73
827.00	1673.19
827.17	1632.23
827.34	1675.24
827.51	1665.00
827.69	1675.24
827.86	1759.21
828.03	1726.44
828.20	1673.19
828.37	1681.38
828.54	1636.33
828.71	1667.05
828.89	1839.08
829.06	1687.53
829.23	1849.32
829.40	1611.75
829.57	1718.25
829.74	1738.73
829.91	1720.29
830.09	1681.38
830.26	1681.38
830.43	1724.39
830.60	1765.35
830.77	1771.49
830.94	1800.16
831.11	1746.92
831.28	1644.52
831.46	1802.21
831.63	1662.95
831.80	1705.96
831.97	1734.63
832.14	1736.68
832.31	1738.73
832.48	1726.44
832.65	1689.57
832.82	1720.29
832.99	1800.16
833.17	1665.00
833.34	1742.82
833.51	1693.67
833.68	1619.94
833.85	1705.96
834.02	1667.05
834.19	1652.71
834.36	1675.24
834.53	1705.96
834.70	1689.57
834.87	1738.73
835.04	1765.35
835.22	1648.61
835.39	1726.44
835.56	1609.70
835.73	1671.14
835.90	1791.97
836.07	1607.66
836.24	1714.15
836.41	1687.53
836.58	1687.53
836.75	1691.62
836.92	1755.11
837.09	1742.82
837.26	1785.83
837.43	1730.53
837.60	1726.44
837.77	1720.29
837.94	1689.57
838.12	1730.53
838.29	1710.05
838.46	1656.81
838.63	1613.80
838.80	1830.88
838.97	1689.57
839.14	1675.24
839.31	1724.39
839.48	1701.86
839.65	1804.26
839.82	1722.34
839.99	1673.19
840.16	1654.76
840.33	1724.39
840.50	1710.05
840.67	1654.76
840.84	1587.18
841.01	1740.77
841.18	1679.33
841.35	1634.28
841.52	1755.11
841.69	1785.83
841.86	1640.42
842.03	1701.86
842.20	1759.21
842.37	1732.58
842.54	1705.96
842.71	1718.25
842.88	1603.56
843.05	1654.76
843.22	1714.15
843.39	1685.48
843.56	1675.24
843.73	1662.95
843.90	1757.16
844.07	1755.11
844.24	1679.33
844.41	1730.53
844.58	1697.77
844.75	1712.10
844.92	1734.63
845.09	1669.09
845.26	1621.99
845.43	1810.40
845.60	1734.63
845.77	1734.63
845.94	1652.71
846.10	1744.87
846.27	1628.14
846.44	1626.09
846.61	1669.09
846.78	1789.92
846.95	1828.84
847.12	1673.19
847.29	1718.25
847.46	1673.19
847.63	1775.59
847.80	1634.28
847.97	1726.44
848.14	1755.11
848.31	1697.77
848.48	1640.42
848.65	1751.01
848.82	1693.67
848.98	1802.21
849.15	1753.06
849.32	1779.68
849.49	1736.68
849.66	1718.25
849.83	1767.40
850.00	1695.72
850.17	1796.07
850.34	1753.06
850.51	1665.00
850.68	1615.85
850.85	1794.02
851.01	1714.15
851.18	1773.54
851.35	1656.81
851.52	1673.19
851.69	1748.97
851.86	1615.85
852.03	1728.49
852.20	1669.09
852.37	1683.43
852.53	1675.24
852.70	1712.10
852.87	1660.90
853.04	1775.59
853.21	1734.63
853.38	1773.54
853.55	1734.63
853.72	1791.97
853.89	1638.38
854.05	1650.66
854.22	1730.53
854.39	1697.77
854.56	1660.90
854.73	1761.25
854.90	1748.97
855.07	1716.20
855.23	1632.23
855.40	1687.53
855.57	1705.96
855.74	1650.66
855.91	1923.04
856.08	1548.26
856.25	1626.09
856.41	1650.66
856.58	1685.48
856.75	1748.97
856.92	1613.80
857.09	1693.67
857.26	1679.33
857.42	1689.57
857.59	1757.16
857.76	1699.81
857.93	1753.06
858.10	1726.44
858.27	1656.81
858.43	1722.34
858.60	1679.33
858.77	1636.33
858.94	1644.52
859.11	1761.25
859.27	1705.96
859.44	1699.81
859.61	1767.40
859.78	1738.73
859.95	1691.62
860.12	1671.14
860.28	1814.50
860.45	1796.07
860.62	1640.42
860.79	1738.73
860.95	1658.85
861.12	1656.81
861.29	1665.00
861.46	1644.52
861.63	1677.29
861.79	1673.19
861.96	1701.86
862.13	1564.65
862.30	1791.97
862.47	1677.29
862.63	1626.09
862.80	1759.21
862.97	1740.77
863.14	1800.16
863.30	1710.05
863.47	1632.23
863.64	1794.02
863.81	1681.38
863.97	1581.03
864.14	1753.06
864.31	1624.04
864.48	1740.77
864.65	1611.75
864.81	1763.30
864.98	1716.20
865.15	1732.58
865.32	1699.81
865.48	1726.44
865.65	1812.45
865.82	1691.62
865.98	1773.54
866.15	1701.86
866.32	1710.05
866.49	1587.18
866.65	1751.01
866.82	1638.38
866.99	1716.20
867.16	1626.09
867.32	1798.12
867.49	1753.06
867.66	1736.68
867.83	1640.42
867.99	1658.85
868.16	1628.14
868.33	1683.43
868.49	1677.29
868.66	1685.48
868.83	1769.44
868.99	1724.39
869.16	1726.44
869.33	1855.46
869.50	1693.67
869.66	1736.68
869.83	1603.56
870.00	1626.09
870.16	1828.84
870.33	1642.47
870.50	1785.83
870.66	1714.15
870.83	1859.56
871.00	1691.62
871.17	1767.40
871.33	1718.25
871.50	1726.44
871.67	1714.15
871.83	1681.38
872.00	1791.97
872.17	1650.66
872.33	1824.74
872.50	1763.30
872.67	1710.05
872.83	1609.70
873.00	1712.10
873.17	1726.44
873.33	1775.59
873.50	1712.10
873.67	1683.43
873.83	1638.38
874.00	1712.10
874.16	1716.20
874.33	1730.53
874.50	1677.29
874.66	1730.53
874.83	1671.14
875.00	1775.59
875.16	1730.53
875.33	1802.21
875.50	1550.31
875.66	1677.29
875.83	1669.09
875.99	1796.07
876.16	1673.19
876.33	1656.81
876.49	1685.48
876.66	1669.09
876.83	1730.53
876.99	1656.81
877.16	1710.05
877.32	1675.24
877.49	1734.63
877.66	1632.23
877.82	1855.46
877.99	1628.14
878.15	1716.20
878.32	1660.90
878.49	1683.43
878.65	1738.73
878.82	1724.39
878.98	1656.81
879.15	1787.88
879.32	1728.49
879.48	1736.68
879.65	1615.85
879.81	1665.00
879.98	1683.43
880.15	1751.01
880.31	1730.53
880.48	1607.66
880.64	1734.63
880.81	1691.62
880.97	1789.92
881.14	1769.44
881.31	1679.33
881.47	1779.68
881.64	1769.44
881.80	1607.66
881.97	1644.52
882.13	1718.25
882.30	1699.81
882.47	1671.14
882.63	1697.77
882.80	1619.94
882.96	1669.09
883.13	1759.21
883.29	1679.33
883.46	1712.10
883.62	1808.36
883.79	1732.58
883.95	1726.44
884.12	1624.04
884.29	1755.11
884.45	1658.85
884.62	1714.15
884.78	1726.44
884.95	1761.25
885.11	1687.53
885.28	1636.33
885.44	1681.38
885.61	1761.25
885.77	1759.21
885.94	1716.20
886.10	1648.61
886.27	1730.53
886.43	1794.02
886.60	1748.97
886.76	1773.54
886.93	1685.48
887.09	1712.10
887.26	1660.90
887.42	1718.25
887.59	1775.59
887.75	1877.99
887.92	1673.19
888.08	1744.87
888.25	1771.49
888.41	1667.05
888.58	1738.73
888.74	1652.71
888.91	1699.81
>>>>>End Processed Spectral Data<<<<<
