SpectraSuite Data File
++++++++++++++++++++++++++++++++++++
Date: Mon Jun 06 16:26:37 CEST 2016
User: root
Dark Spectrum Present: No
Reference Spectrum Present: No
Number of Sampled Component Spectra: 1
Spectrometers: USB4C02835
Integration Time (usec): 100000 (USB4C02835)
Spectra Averaged: 1 (USB4C02835)
Boxcar Smoothing: 0 (USB4C02835)
Correct for Electrical Dark: No (USB4C02835)
Strobe/Lamp Enabled: No (USB4C02835)
Correct for Detector Non-linearity: No (USB4C02835)
Correct for Stray Light: No (USB4C02835)
Number of Pixels in Processed Spectrum: 3648
>>>>>Begin Processed Spectral Data<<<<<
177.47	1435.63
177.69	1435.63
177.91	1435.63
178.13	1505.26
178.36	1419.24
178.58	1675.24
178.80	1761.25
179.02	1615.85
179.24	1621.99
179.46	1726.44
179.68	1730.53
179.90	1652.71
180.13	1744.87
180.35	1728.49
180.57	1652.71
180.79	1794.02
181.01	1730.53
181.23	1722.34
181.45	1816.55
181.67	1800.16
181.90	1834.98
182.12	1738.73
182.34	1705.96
182.56	1767.40
182.78	1771.49
183.00	1683.43
183.22	1716.20
183.44	1636.33
183.66	1886.18
183.89	1822.69
184.11	1669.09
184.33	1773.54
184.55	1787.88
184.77	1714.15
184.99	1691.62
185.21	1630.18
185.43	1904.61
185.65	1652.71
185.87	1703.91
186.10	1812.45
186.32	1828.84
186.54	1767.40
186.76	1744.87
186.98	1734.63
187.20	1673.19
187.42	1740.77
187.64	1689.57
187.86	1744.87
188.08	1689.57
188.30	1644.52
188.52	1738.73
188.75	1769.44
188.97	1800.16
189.19	1650.66
189.41	1718.25
189.63	1748.97
189.85	1656.81
190.07	1603.56
190.29	1630.18
190.51	1654.76
190.73	1730.53
190.95	1771.49
191.17	1730.53
191.39	1599.46
191.61	1607.66
191.84	1677.29
192.06	1667.05
192.28	1638.38
192.50	1884.13
192.72	1734.63
192.94	1699.81
193.16	1720.29
193.38	1736.68
193.60	1685.48
193.82	1695.72
194.04	1804.26
194.26	1763.30
194.48	1777.64
194.70	1665.00
194.92	1609.70
195.14	1783.78
195.36	1605.61
195.58	1722.34
195.80	1685.48
196.02	1722.34
196.24	1695.72
196.46	1775.59
196.69	1734.63
196.91	1828.84
197.13	1628.14
197.35	1710.05
197.57	1814.50
197.79	1765.35
198.01	1779.68
198.23	1816.55
198.45	1761.25
198.67	1660.90
198.89	1654.76
199.11	1724.39
199.33	1716.20
199.55	1609.70
199.77	1677.29
199.99	1730.53
200.21	1736.68
200.43	1763.30
200.65	1675.24
200.87	1607.66
201.09	1794.02
201.31	1714.15
201.53	1689.57
201.75	1708.01
201.97	1736.68
202.19	1755.11
202.41	1671.14
202.63	1847.27
202.85	1755.11
203.07	1703.91
203.29	1667.05
203.51	1593.32
203.73	1691.62
203.95	1849.32
204.17	1767.40
204.39	1736.68
204.61	1724.39
204.83	1691.62
205.05	1781.73
205.27	1732.58
205.49	1824.74
205.71	1726.44
205.93	1708.01
206.15	1626.09
206.37	1671.14
206.59	1755.11
206.81	1609.70
207.03	1599.46
207.25	1665.00
207.47	1751.01
207.69	1595.37
207.91	1841.12
208.13	1789.92
208.34	1708.01
208.56	1617.90
208.78	1757.16
209.00	1654.76
209.22	1738.73
209.44	1650.66
209.66	1675.24
209.88	1755.11
210.10	1714.15
210.32	1615.85
210.54	1812.45
210.76	1697.77
210.98	1783.78
211.20	1648.61
211.42	1671.14
211.64	1796.07
211.86	1720.29
212.08	1734.63
212.30	1787.88
212.52	1628.14
212.74	1755.11
212.96	1767.40
213.17	1761.25
213.39	1777.64
213.61	1728.49
213.83	1755.11
214.05	1660.90
214.27	1800.16
214.49	1712.10
214.71	1615.85
214.93	1796.07
215.15	1673.19
215.37	1681.38
215.59	1626.09
215.81	1648.61
216.03	1789.92
216.24	1724.39
216.46	1689.57
216.68	1708.01
216.90	1744.87
217.12	1759.21
217.34	1615.85
217.56	1751.01
217.78	1746.92
218.00	1748.97
218.22	1742.82
218.44	1775.59
218.66	1771.49
218.87	1806.31
219.09	1617.90
219.31	1767.40
219.53	1722.34
219.75	1671.14
219.97	1646.57
220.19	1820.64
220.41	1660.90
220.63	1794.02
220.85	1695.72
221.06	1683.43
221.28	1748.97
221.50	1720.29
221.72	1636.33
221.94	1714.15
222.16	1718.25
222.38	1828.84
222.60	1699.81
222.82	1714.15
223.03	1724.39
223.25	1667.05
223.47	1775.59
223.69	1781.73
223.91	1714.15
224.13	1720.29
224.35	1699.81
224.57	1732.58
224.78	1779.68
225.00	1681.38
225.22	1683.43
225.44	1683.43
225.66	1753.06
225.88	1710.05
226.10	1826.79
226.32	1699.81
226.53	1843.17
226.75	1609.70
226.97	1638.38
227.19	1636.33
227.41	1673.19
227.63	1697.77
227.85	1642.47
228.06	1748.97
228.28	1748.97
228.50	1818.60
228.72	1740.77
228.94	1763.30
229.16	1656.81
229.37	1562.60
229.59	1660.90
229.81	1812.45
230.03	1718.25
230.25	1712.10
230.47	1628.14
230.69	1726.44
230.90	1812.45
231.12	1595.37
231.34	1814.50
231.56	1800.16
231.78	1703.91
232.00	1716.20
232.21	1691.62
232.43	1634.28
232.65	1634.28
232.87	1763.30
233.09	1665.00
233.30	1628.14
233.52	1761.25
233.74	1660.90
233.96	1705.96
234.18	1667.05
234.40	1761.25
234.61	1841.12
234.83	1632.23
235.05	1654.76
235.27	1757.16
235.49	1740.77
235.70	1837.03
235.92	1787.88
236.14	1673.19
236.36	1877.99
236.58	1574.89
236.79	1751.01
237.01	1724.39
237.23	1740.77
237.45	1804.26
237.67	1740.77
237.88	1660.90
238.10	1791.97
238.32	1628.14
238.54	1687.53
238.76	1738.73
238.97	1648.61
239.19	1701.86
239.41	1720.29
239.63	1744.87
239.85	1697.77
240.06	1755.11
240.28	1695.72
240.50	1767.40
240.72	1718.25
240.93	1748.97
241.15	1791.97
241.37	1693.67
241.59	1763.30
241.81	1767.40
242.02	1701.86
242.24	1673.19
242.46	1732.58
242.68	1708.01
242.89	1726.44
243.11	1816.55
243.33	1730.53
243.55	1796.07
243.76	1665.00
243.98	1619.94
244.20	1654.76
244.42	1712.10
244.64	1722.34
244.85	1640.42
245.07	1646.57
245.29	1677.29
245.51	1783.78
245.72	1710.05
245.94	1853.41
246.16	1812.45
246.38	1773.54
246.59	1667.05
246.81	1726.44
247.03	1722.34
247.24	1656.81
247.46	1697.77
247.68	1738.73
247.90	1742.82
248.11	1640.42
248.33	1710.05
248.55	1675.24
248.77	1705.96
248.98	1773.54
249.20	1843.17
249.42	1783.78
249.64	1703.91
249.85	1728.49
250.07	1716.20
250.29	1773.54
250.50	1671.14
250.72	1593.32
250.94	1753.06
251.16	1861.60
251.37	1796.07
251.59	1705.96
251.81	1724.39
252.02	1789.92
252.24	1728.49
252.46	1697.77
252.68	1675.24
252.89	1701.86
253.11	1646.57
253.33	1843.17
253.54	1738.73
253.76	1667.05
253.98	1738.73
254.20	1699.81
254.41	1642.47
254.63	1705.96
254.85	1683.43
255.06	1673.19
255.28	1734.63
255.50	1624.04
255.71	1636.33
255.93	1597.42
256.15	1673.19
256.36	1738.73
256.58	1665.00
256.80	1689.57
257.02	1701.86
257.23	1693.67
257.45	1701.86
257.67	1763.30
257.88	1765.35
258.10	1748.97
258.32	1742.82
258.53	1808.36
258.75	1830.88
258.97	1675.24
259.18	1712.10
259.40	1642.47
259.62	1789.92
259.83	1773.54
260.05	1787.88
260.27	2023.39
260.48	1716.20
260.70	1697.77
260.92	1708.01
261.13	1708.01
261.35	1753.06
261.57	1714.15
261.78	1701.86
262.00	1712.10
262.22	1755.11
262.43	1662.95
262.65	1712.10
262.86	1683.43
263.08	1800.16
263.30	1689.57
263.51	1630.18
263.73	1607.66
263.95	1822.69
264.16	1724.39
264.38	1683.43
264.60	1789.92
264.81	1675.24
265.03	1712.10
265.25	1826.79
265.46	1656.81
265.68	1812.45
265.89	1791.97
266.11	1632.23
266.33	1744.87
266.54	1722.34
266.76	1718.25
266.98	1724.39
267.19	1779.68
267.41	1800.16
267.62	1785.83
267.84	1630.18
268.06	1689.57
268.27	1730.53
268.49	1849.32
268.70	1740.77
268.92	1685.48
269.14	1669.09
269.35	1570.79
269.57	1728.49
269.79	1751.01
270.00	1697.77
270.22	1777.64
270.43	1638.38
270.65	1611.75
270.87	1675.24
271.08	1740.77
271.30	1775.59
271.51	1751.01
271.73	1728.49
271.95	1677.29
272.16	1720.29
272.38	1759.21
272.59	1656.81
272.81	1779.68
273.02	1697.77
273.24	1710.05
273.46	1736.68
273.67	1683.43
273.89	1705.96
274.10	1701.86
274.32	1798.12
274.54	1718.25
274.75	1728.49
274.97	1673.19
275.18	1761.25
275.40	1777.64
275.61	1687.53
275.83	1656.81
276.05	1687.53
276.26	1718.25
276.48	1777.64
276.69	1699.81
276.91	1630.18
277.12	1767.40
277.34	1808.36
277.55	1771.49
277.77	1710.05
277.99	1634.28
278.20	1748.97
278.42	1654.76
278.63	1658.85
278.85	1746.92
279.06	1685.48
279.28	1755.11
279.49	1759.21
279.71	1746.92
279.93	1693.67
280.14	1746.92
280.36	1689.57
280.57	1806.31
280.79	1736.68
281.00	1665.00
281.22	1636.33
281.43	1748.97
281.65	1619.94
281.86	1644.52
282.08	1791.97
282.29	1763.30
282.51	1644.52
282.73	1658.85
282.94	1615.85
283.16	1753.06
283.37	1798.12
283.59	1697.77
283.80	1753.06
284.02	1681.38
284.23	1724.39
284.45	1734.63
284.66	1636.33
284.88	1787.88
285.09	1710.05
285.31	1722.34
285.52	1703.91
285.74	1685.48
285.95	1740.77
286.17	1796.07
286.38	1714.15
286.60	1712.10
286.81	1734.63
287.03	1703.91
287.24	1736.68
287.46	1773.54
287.67	1681.38
287.89	1837.03
288.10	1710.05
288.32	1800.16
288.53	1830.88
288.75	1665.00
288.96	1722.34
289.18	1683.43
289.39	1689.57
289.61	1804.26
289.82	1789.92
290.04	1722.34
290.25	1710.05
290.47	1736.68
290.68	1658.85
290.90	1789.92
291.11	1714.15
291.33	1689.57
291.54	1648.61
291.76	1683.43
291.97	1744.87
292.18	1730.53
292.40	1683.43
292.61	1714.15
292.83	1880.04
293.04	1753.06
293.26	1779.68
293.47	1673.19
293.69	1697.77
293.90	1636.33
294.12	1740.77
294.33	1714.15
294.55	1763.30
294.76	1759.21
294.97	1814.50
295.19	1865.70
295.40	1732.58
295.62	1732.58
295.83	1763.30
296.05	1654.76
296.26	1712.10
296.48	1638.38
296.69	1687.53
296.90	1724.39
297.12	1769.44
297.33	1796.07
297.55	1660.90
297.76	1761.25
297.98	1832.93
298.19	1652.71
298.41	1718.25
298.62	1671.14
298.83	1753.06
299.05	1724.39
299.26	1714.15
299.48	1683.43
299.69	1761.25
299.90	1746.92
300.12	1689.57
300.33	1804.26
300.55	1710.05
300.76	1748.97
300.98	1611.75
301.19	1822.69
301.40	1654.76
301.62	1720.29
301.83	1675.24
302.05	1675.24
302.26	1726.44
302.47	1724.39
302.69	1646.57
302.90	1724.39
303.12	1605.61
303.33	1650.66
303.54	1892.32
303.76	1695.72
303.97	1724.39
304.19	1763.30
304.40	1609.70
304.61	1685.48
304.83	1783.78
305.04	1693.67
305.26	1763.30
305.47	1695.72
305.68	1724.39
305.90	1656.81
306.11	1796.07
306.33	1716.20
306.54	1708.01
306.75	1712.10
306.97	1578.98
307.18	1689.57
307.39	1697.77
307.61	1701.86
307.82	1716.20
308.04	1779.68
308.25	1656.81
308.46	1755.11
308.68	1654.76
308.89	1728.49
309.10	1824.74
309.32	1767.40
309.53	1689.57
309.74	1759.21
309.96	1738.73
310.17	1845.22
310.39	1701.86
310.60	1736.68
310.81	1724.39
311.03	1636.33
311.24	1755.11
311.45	1714.15
311.67	1841.12
311.88	1732.58
312.09	1660.90
312.31	1626.09
312.52	1703.91
312.73	1726.44
312.95	1689.57
313.16	1673.19
313.37	1845.22
313.59	1755.11
313.80	1771.49
314.01	1869.80
314.23	1722.34
314.44	1599.46
314.65	1660.90
314.87	1681.38
315.08	1689.57
315.29	1656.81
315.51	1646.57
315.72	1763.30
315.93	1777.64
316.15	1849.32
316.36	1714.15
316.57	1718.25
316.79	1779.68
317.00	1669.09
317.21	1755.11
317.43	1738.73
317.64	1767.40
317.85	1718.25
318.07	1650.66
318.28	1755.11
318.49	1837.03
318.70	1935.33
318.92	1857.51
319.13	1832.93
319.34	1886.18
319.56	1800.16
319.77	1816.55
319.98	1773.54
320.20	1794.02
320.41	1746.92
320.62	1769.44
320.83	1767.40
321.05	1904.61
321.26	1753.06
321.47	1740.77
321.69	1837.03
321.90	1699.81
322.11	1746.92
322.32	1667.05
322.54	1804.26
322.75	1712.10
322.96	1834.98
323.18	1601.51
323.39	1654.76
323.60	1652.71
323.81	1767.40
324.03	1681.38
324.24	1683.43
324.45	1685.48
324.66	1703.91
324.88	1765.35
325.09	1820.64
325.30	1730.53
325.52	1804.26
325.73	1714.15
325.94	1589.22
326.15	1630.18
326.37	1662.95
326.58	1677.29
326.79	1769.44
327.00	1603.56
327.22	1667.05
327.43	1648.61
327.64	1644.52
327.85	1689.57
328.07	1755.11
328.28	1884.13
328.49	1751.01
328.70	1628.14
328.92	1767.40
329.13	1619.94
329.34	1697.77
329.55	1812.45
329.76	1761.25
329.98	1720.29
330.19	1791.97
330.40	1738.73
330.61	1699.81
330.83	1787.88
331.04	1646.57
331.25	1689.57
331.46	1601.51
331.68	1558.50
331.89	1748.97
332.10	1734.63
332.31	1751.01
332.52	1736.68
332.74	1787.88
332.95	1615.85
333.16	1675.24
333.37	1777.64
333.58	1693.67
333.80	1726.44
334.01	1648.61
334.22	1708.01
334.43	1654.76
334.64	1675.24
334.86	1595.37
335.07	1634.28
335.28	1740.77
335.49	1619.94
335.70	1734.63
335.92	1771.49
336.13	1816.55
336.34	1718.25
336.55	1755.11
336.76	1734.63
336.98	1617.90
337.19	1736.68
337.40	1847.27
337.61	1900.52
337.82	1701.86
338.04	1775.59
338.25	1595.37
338.46	1730.53
338.67	1724.39
338.88	1660.90
339.09	1679.33
339.31	1712.10
339.52	1538.02
339.73	1597.42
339.94	1720.29
340.15	1753.06
340.36	1708.01
340.58	1603.56
340.79	1646.57
341.00	1742.82
341.21	1734.63
341.42	1880.04
341.63	1681.38
341.85	1798.12
342.06	1724.39
342.27	1681.38
342.48	1710.05
342.69	1576.94
342.90	1804.26
343.12	1812.45
343.33	1708.01
343.54	1712.10
343.75	1722.34
343.96	1746.92
344.17	1646.57
344.38	1703.91
344.60	1617.90
344.81	1636.33
345.02	1669.09
345.23	1796.07
345.44	1763.30
345.65	1781.73
345.86	1718.25
346.07	1671.14
346.29	1644.52
346.50	1742.82
346.71	1740.77
346.92	1761.25
347.13	1828.84
347.34	1669.09
347.55	1710.05
347.76	1712.10
347.98	1570.79
348.19	1716.20
348.40	1800.16
348.61	1730.53
348.82	1855.46
349.03	1759.21
349.24	1718.25
349.45	1767.40
349.66	1597.42
349.88	1738.73
350.09	1755.11
350.30	1726.44
350.51	1791.97
350.72	1742.82
350.93	1769.44
351.14	1695.72
351.35	1759.21
351.56	1730.53
351.77	1705.96
351.99	1751.01
352.20	1791.97
352.41	1789.92
352.62	1574.89
352.83	1705.96
353.04	1740.77
353.25	1712.10
353.46	1689.57
353.67	1787.88
353.88	1691.62
354.09	1722.34
354.30	1640.42
354.52	1744.87
354.73	1699.81
354.94	1675.24
355.15	1681.38
355.36	1888.23
355.57	1691.62
355.78	1744.87
355.99	1656.81
356.20	1714.15
356.41	1812.45
356.62	1763.30
356.83	1683.43
357.04	1853.41
357.25	1636.33
357.46	1720.29
357.68	1603.56
357.89	1636.33
358.10	1611.75
358.31	1675.24
358.52	1736.68
358.73	1646.57
358.94	1701.86
359.15	1755.11
359.36	1787.88
359.57	1648.61
359.78	1716.20
359.99	1759.21
360.20	1714.15
360.41	1607.66
360.62	1720.29
360.83	1726.44
361.04	1722.34
361.25	1765.35
361.46	1773.54
361.67	1775.59
361.88	1777.64
362.09	1720.29
362.30	1734.63
362.51	1673.19
362.72	1703.91
362.93	1695.72
363.14	1740.77
363.35	1789.92
363.56	1632.23
363.78	1767.40
363.99	1753.06
364.20	1609.70
364.41	1708.01
364.62	1794.02
364.83	1646.57
365.04	1628.14
365.25	1724.39
365.46	1857.51
365.67	1662.95
365.88	1669.09
366.09	1746.92
366.30	1703.91
366.51	1654.76
366.72	1671.14
366.93	1730.53
367.14	1669.09
367.35	1767.40
367.56	1685.48
367.77	1714.15
367.98	1669.09
368.18	1744.87
368.39	1781.73
368.60	1710.05
368.81	1849.32
369.02	1720.29
369.23	1748.97
369.44	1665.00
369.65	1677.29
369.86	1699.81
370.07	1794.02
370.28	1744.87
370.49	1726.44
370.70	1789.92
370.91	1619.94
371.12	1671.14
371.33	1832.93
371.54	1615.85
371.75	1802.21
371.96	1705.96
372.17	1695.72
372.38	1722.34
372.59	1724.39
372.80	1662.95
373.01	1703.91
373.22	1769.44
373.43	1779.68
373.64	1691.62
373.85	1802.21
374.06	1794.02
374.26	1789.92
374.47	1685.48
374.68	1765.35
374.89	1722.34
375.10	1693.67
375.31	1794.02
375.52	1748.97
375.73	1697.77
375.94	1677.29
376.15	1755.11
376.36	1644.52
376.57	1650.66
376.78	1718.25
376.99	1685.48
377.20	1802.21
377.40	1726.44
377.61	1857.51
377.82	1587.18
378.03	1785.83
378.24	1753.06
378.45	1689.57
378.66	1689.57
378.87	1677.29
379.08	1656.81
379.29	1660.90
379.50	1787.88
379.71	1693.67
379.91	1734.63
380.12	1681.38
380.33	1804.26
380.54	1714.15
380.75	1753.06
380.96	1740.77
381.17	1761.25
381.38	1728.49
381.59	1734.63
381.80	1781.73
382.00	1855.46
382.21	1753.06
382.42	1865.70
382.63	1812.45
382.84	1773.54
383.05	1789.92
383.26	1751.01
383.47	1724.39
383.68	1812.45
383.88	1689.57
384.09	1716.20
384.30	1820.64
384.51	1732.58
384.72	1705.96
384.93	1626.09
385.14	1742.82
385.35	1710.05
385.55	1654.76
385.76	1751.01
385.97	1722.34
386.18	1656.81
386.39	1734.63
386.60	1673.19
386.81	1802.21
387.02	1595.37
387.22	1642.47
387.43	1755.11
387.64	1783.78
387.85	1939.43
388.06	2189.28
388.27	4138.94
388.48	6631.32
388.68	7987.08
388.89	9250.67
389.10	9527.15
389.31	8345.47
389.52	7358.35
389.73	6541.21
389.93	6229.92
390.14	5623.72
390.35	5103.54
390.56	4456.38
390.77	3798.98
390.98	2940.88
391.18	2443.23
391.39	2150.37
391.60	1877.99
391.81	1804.26
392.02	1695.72
392.23	1816.55
392.43	1714.15
392.64	1769.44
392.85	1746.92
393.06	1802.21
393.27	1810.40
393.47	1652.71
393.68	1794.02
393.89	1658.85
394.10	1798.12
394.31	1689.57
394.52	1738.73
394.72	1724.39
394.93	1767.40
395.14	1681.38
395.35	1705.96
395.56	1732.58
395.76	1763.30
395.97	1783.78
396.18	1855.46
396.39	1824.74
396.60	1974.24
396.80	1869.80
397.01	1929.19
397.22	1865.70
397.43	1857.51
397.64	1681.38
397.84	1779.68
398.05	1904.61
398.26	1761.25
398.47	1783.78
398.67	1757.16
398.88	1724.39
399.09	1769.44
399.30	1660.90
399.51	1796.07
399.71	1703.91
399.92	1761.25
400.13	1736.68
400.34	1697.77
400.54	1677.29
400.75	1787.88
400.96	1834.98
401.17	1783.78
401.37	1755.11
401.58	1605.61
401.79	1669.09
402.00	1843.17
402.21	2078.69
402.41	2000.87
402.62	2009.06
402.83	2050.02
403.04	1988.58
403.24	2176.99
403.45	1984.48
403.66	1853.41
403.87	1880.04
404.07	1865.70
404.28	1896.42
404.49	1816.55
404.70	1808.36
404.90	1769.44
405.11	1722.34
405.32	1812.45
405.52	1732.58
405.73	1689.57
405.94	1683.43
406.15	1615.85
406.35	1787.88
406.56	1806.31
406.77	1720.29
406.98	1771.49
407.18	1636.33
407.39	1820.64
407.60	1748.97
407.80	1751.01
408.01	1669.09
408.22	1736.68
408.43	1738.73
408.63	1791.97
408.84	1705.96
409.05	1757.16
409.25	1654.76
409.46	1677.29
409.67	1646.57
409.88	1673.19
410.08	1736.68
410.29	1640.42
410.50	1781.73
410.70	1759.21
410.91	1605.61
411.12	1685.48
411.32	1730.53
411.53	1609.70
411.74	1761.25
411.95	1736.68
412.15	1810.40
412.36	1859.56
412.57	1677.29
412.77	1806.31
412.98	1734.63
413.19	1751.01
413.39	1759.21
413.60	1757.16
413.81	1781.73
414.01	1642.47
414.22	1773.54
414.43	1904.61
414.63	1757.16
414.84	1656.81
415.05	1708.01
415.25	1695.72
415.46	1705.96
415.67	1654.76
415.87	1669.09
416.08	1753.06
416.29	1677.29
416.49	1800.16
416.70	1632.23
416.91	1720.29
417.11	1722.34
417.32	1730.53
417.53	1800.16
417.73	1761.25
417.94	1742.82
418.15	1746.92
418.35	1755.11
418.56	1693.67
418.77	1839.08
418.97	1683.43
419.18	1636.33
419.38	1669.09
419.59	1740.77
419.80	1800.16
420.00	1665.00
420.21	1746.92
420.42	1763.30
420.62	1685.48
420.83	1611.75
421.04	1757.16
421.24	1699.81
421.45	1769.44
421.65	1806.31
421.86	1691.62
422.07	1736.68
422.27	1708.01
422.48	1769.44
422.69	1630.18
422.89	1669.09
423.10	1732.58
423.30	1710.05
423.51	1687.53
423.72	1726.44
423.92	1755.11
424.13	1648.61
424.33	1705.96
424.54	1814.50
424.75	1734.63
424.95	1816.55
425.16	1767.40
425.36	1748.97
425.57	1837.03
425.78	1763.30
425.98	1789.92
426.19	1687.53
426.39	1669.09
426.60	1710.05
426.81	1804.26
427.01	1718.25
427.22	1603.56
427.42	1617.90
427.63	1699.81
427.83	1845.22
428.04	1845.22
428.25	1814.50
428.45	1822.69
428.66	1751.01
428.86	1738.73
429.07	1626.09
429.28	1691.62
429.48	1691.62
429.69	1642.47
429.89	1726.44
430.10	1746.92
430.30	1759.21
430.51	1691.62
430.71	1701.86
430.92	1708.01
431.13	1724.39
431.33	1810.40
431.54	1771.49
431.74	1787.88
431.95	1822.69
432.15	1656.81
432.36	1714.15
432.56	1820.64
432.77	1845.22
432.98	1814.50
433.18	1730.53
433.39	1746.92
433.59	1740.77
433.80	1869.80
434.00	1867.75
434.21	1691.62
434.41	1652.71
434.62	1951.71
434.82	1673.19
435.03	1609.70
435.23	1689.57
435.44	1656.81
435.64	1787.88
435.85	1740.77
436.06	1742.82
436.26	1742.82
436.47	1740.77
436.67	1722.34
436.88	1755.11
437.08	1751.01
437.29	1796.07
437.49	1685.48
437.70	1724.39
437.90	1693.67
438.11	1816.55
438.31	1794.02
438.52	1855.46
438.72	1828.84
438.93	1847.27
439.13	1845.22
439.34	1818.60
439.54	1748.97
439.75	1746.92
439.95	1775.59
440.16	1724.39
440.36	1728.49
440.57	1789.92
440.77	1810.40
440.98	1730.53
441.18	1787.88
441.39	1751.01
441.59	1738.73
441.80	1781.73
442.00	1730.53
442.21	1845.22
442.41	1619.94
442.62	1787.88
442.82	1658.85
443.02	1712.10
443.23	1744.87
443.43	1716.20
443.64	1777.64
443.84	1644.52
444.05	1748.97
444.25	1822.69
444.46	1716.20
444.66	1714.15
444.87	1853.41
445.07	1644.52
445.28	1732.58
445.48	1798.12
445.69	1769.44
445.89	1814.50
446.09	1818.60
446.30	1961.95
446.50	2666.46
446.71	3682.25
446.91	4272.06
447.12	4636.60
447.32	4802.49
447.53	4280.25
447.73	3784.65
447.93	3540.94
448.14	3424.20
448.34	3131.34
448.55	2830.29
448.75	2889.68
448.96	2680.79
449.16	2420.70
449.36	2297.82
449.57	1992.67
449.77	1918.95
449.98	1759.21
450.18	1814.50
450.39	1781.73
450.59	1814.50
450.79	1730.53
451.00	1738.73
451.20	1839.08
451.41	1728.49
451.61	1791.97
451.81	1791.97
452.02	1699.81
452.22	1716.20
452.43	1683.43
452.63	1722.34
452.84	1759.21
453.04	1705.96
453.24	1769.44
453.45	1665.00
453.65	1744.87
453.86	1787.88
454.06	1748.97
454.26	1714.15
454.47	1628.14
454.67	1806.31
454.87	1812.45
455.08	1730.53
455.28	1839.08
455.49	1716.20
455.69	1660.90
455.89	1865.70
456.10	1855.46
456.30	1748.97
456.51	1767.40
456.71	1732.58
456.91	1814.50
457.12	1765.35
457.32	1701.86
457.52	1613.80
457.73	1755.11
457.93	1834.98
458.14	1746.92
458.34	1640.42
458.54	1787.88
458.75	1726.44
458.95	1763.30
459.15	1769.44
459.36	1806.31
459.56	1746.92
459.76	1806.31
459.97	1828.84
460.17	1742.82
460.37	1791.97
460.58	1798.12
460.78	1822.69
460.99	1710.05
461.19	1787.88
461.39	1740.77
461.60	1783.78
461.80	1753.06
462.00	1667.05
462.21	1699.81
462.41	1566.70
462.61	1699.81
462.82	1628.14
463.02	1779.68
463.22	1822.69
463.43	1769.44
463.63	1738.73
463.83	1781.73
464.04	1847.27
464.24	1775.59
464.44	1669.09
464.64	1812.45
464.85	1710.05
465.05	1800.16
465.25	1660.90
465.46	1753.06
465.66	1771.49
465.86	1742.82
466.07	1734.63
466.27	1757.16
466.47	1615.85
466.68	1572.84
466.88	1873.89
467.08	1791.97
467.29	1789.92
467.49	1847.27
467.69	1718.25
467.89	1763.30
468.10	1703.91
468.30	1787.88
468.50	1828.84
468.71	1763.30
468.91	1654.76
469.11	1867.75
469.31	1714.15
469.52	1611.75
469.72	1812.45
469.92	1857.51
470.13	1671.14
470.33	1726.44
470.53	1834.98
470.73	2142.18
470.94	2265.05
471.14	2389.98
471.34	2463.71
471.54	2375.64
471.75	2242.53
471.95	2193.37
472.15	2144.22
472.36	2109.41
472.56	2019.30
472.76	2037.73
472.96	2070.50
473.17	1968.10
473.37	1890.28
473.57	1814.50
473.77	1773.54
473.98	1742.82
474.18	1718.25
474.38	1814.50
474.58	1695.72
474.79	1642.47
474.99	1777.64
475.19	1765.35
475.39	1738.73
475.60	1675.24
475.80	1759.21
476.00	1740.77
476.20	1642.47
476.41	1712.10
476.61	1914.85
476.81	1806.31
477.01	1748.97
477.21	1828.84
477.42	1824.74
477.62	1761.25
477.82	1679.33
478.02	1751.01
478.23	1708.01
478.43	1728.49
478.63	1687.53
478.83	1710.05
479.03	1703.91
479.24	1734.63
479.44	1847.27
479.64	1685.48
479.84	1624.04
480.04	1662.95
480.25	1759.21
480.45	1773.54
480.65	1722.34
480.85	1834.98
481.06	1785.83
481.26	1697.77
481.46	1744.87
481.66	1765.35
481.86	1656.81
482.06	1791.97
482.27	1742.82
482.47	1724.39
482.67	1845.22
482.87	1716.20
483.07	1783.78
483.28	1718.25
483.48	1746.92
483.68	1837.03
483.88	1724.39
484.08	1638.38
484.29	1660.90
484.49	1771.49
484.69	1687.53
484.89	1802.21
485.09	1880.04
485.29	1744.87
485.50	1755.11
485.70	1675.24
485.90	1714.15
486.10	1767.40
486.30	1730.53
486.50	1773.54
486.71	1724.39
486.91	1816.55
487.11	1837.03
487.31	1703.91
487.51	1722.34
487.71	1679.33
487.91	1660.90
488.12	1654.76
488.32	1646.57
488.52	1685.48
488.72	1634.28
488.92	1710.05
489.12	1828.84
489.32	1789.92
489.53	1810.40
489.73	1669.09
489.93	1871.84
490.13	1714.15
490.33	1734.63
490.53	1689.57
490.73	1763.30
490.94	1642.47
491.14	1798.12
491.34	1826.79
491.54	2195.42
491.74	2559.96
491.94	2897.88
492.14	2994.13
492.34	3082.19
492.54	2781.14
492.75	2465.75
492.95	2564.06
493.15	2379.74
493.35	2289.63
493.55	2242.53
493.75	2181.09
493.95	2199.52
494.15	2017.25
494.35	1910.75
494.56	1828.84
494.76	1763.30
494.96	1781.73
495.16	1837.03
495.36	1716.20
495.56	1714.15
495.76	1689.57
495.96	1724.39
496.16	1751.01
496.36	1785.83
496.56	1689.57
496.77	1781.73
496.97	1697.77
497.17	1804.26
497.37	1691.62
497.57	1806.31
497.77	1716.20
497.97	1736.68
498.17	1677.29
498.37	1751.01
498.57	1748.97
498.77	1681.38
498.97	1740.77
499.17	1759.21
499.38	1753.06
499.58	1716.20
499.78	1763.30
499.98	1789.92
500.18	1675.24
500.38	1722.34
500.58	1912.80
500.78	2519.00
500.98	4483.00
501.18	5853.09
501.38	6571.93
501.58	6944.66
501.78	6684.57
501.98	5474.22
502.18	4941.75
502.38	4329.41
502.58	4022.21
502.78	3770.31
502.98	3598.28
503.18	3395.53
503.38	3121.10
503.59	2836.44
503.79	2703.32
503.99	2435.03
504.19	2267.10
504.39	2176.99
504.59	2101.22
504.79	2156.51
504.99	2056.16
505.19	1869.80
505.39	1957.86
505.59	2023.39
505.79	1898.47
505.99	1841.12
506.19	1769.44
506.39	1914.85
506.59	1755.11
506.79	1740.77
506.99	1785.83
507.19	1771.49
507.39	1720.29
507.59	1744.87
507.79	1718.25
507.99	1769.44
508.19	1730.53
508.39	1699.81
508.59	1736.68
508.79	1742.82
508.99	1867.75
509.19	1660.90
509.39	1722.34
509.59	1763.30
509.79	1718.25
509.99	1787.88
510.19	1681.38
510.39	1765.35
510.59	1783.78
510.79	1757.16
510.99	1761.25
511.19	1712.10
511.39	1808.36
511.59	1814.50
511.79	1896.42
511.99	1761.25
512.19	1777.64
512.38	1732.58
512.58	1697.77
512.78	1716.20
512.98	1744.87
513.18	1734.63
513.38	1681.38
513.58	1738.73
513.78	1662.95
513.98	1648.61
514.18	1800.16
514.38	1791.97
514.58	1703.91
514.78	1712.10
514.98	1681.38
515.18	1720.29
515.38	1675.24
515.58	1798.12
515.78	1701.86
515.98	1740.77
516.18	1746.92
516.38	1775.59
516.57	1705.96
516.77	1693.67
516.97	1746.92
517.17	1671.14
517.37	1654.76
517.57	1820.64
517.77	1701.86
517.97	1777.64
518.17	1800.16
518.37	1740.77
518.57	1777.64
518.77	1628.14
518.97	1734.63
519.16	1740.77
519.36	1834.98
519.56	1640.42
519.76	1730.53
519.96	1662.95
520.16	1865.70
520.36	1624.04
520.56	1800.16
520.76	1742.82
520.96	1744.87
521.16	1816.55
521.35	1804.26
521.55	1783.78
521.75	1783.78
521.95	1746.92
522.15	1730.53
522.35	1685.48
522.55	1738.73
522.75	1796.07
522.95	1683.43
523.14	1728.49
523.34	1810.40
523.54	1685.48
523.74	1796.07
523.94	1798.12
524.14	1685.48
524.34	1818.60
524.54	1845.22
524.73	1718.25
524.93	1701.86
525.13	1765.35
525.33	1630.18
525.53	1871.84
525.73	1863.65
525.93	1763.30
526.13	1710.05
526.32	1687.53
526.52	1808.36
526.72	1746.92
526.92	1724.39
527.12	1685.48
527.32	1681.38
527.52	1718.25
527.71	1714.15
527.91	1736.68
528.11	1724.39
528.31	1722.34
528.51	1724.39
528.71	1730.53
528.90	1759.21
529.10	1851.36
529.30	1865.70
529.50	1630.18
529.70	1697.77
529.90	1804.26
530.09	1724.39
530.29	1673.19
530.49	1783.78
530.69	1927.14
530.89	1701.86
531.09	1763.30
531.28	1734.63
531.48	1763.30
531.68	1787.88
531.88	1746.92
532.08	1816.55
532.28	1699.81
532.47	1753.06
532.67	1800.16
532.87	1742.82
533.07	1701.86
533.27	1785.83
533.46	1763.30
533.66	1828.84
533.86	1789.92
534.06	1732.58
534.26	1708.01
534.45	1689.57
534.65	1742.82
534.85	1755.11
535.05	1699.81
535.25	1826.79
535.44	1621.99
535.64	1773.54
535.84	1703.91
536.04	1720.29
536.24	1763.30
536.43	1669.09
536.63	1730.53
536.83	1746.92
537.03	1695.72
537.22	1648.61
537.42	1699.81
537.62	1734.63
537.82	1773.54
538.02	1834.98
538.21	1683.43
538.41	1927.14
538.61	1734.63
538.81	1775.59
539.00	1810.40
539.20	1691.62
539.40	1718.25
539.60	1710.05
539.79	1841.12
539.99	1660.90
540.19	1722.34
540.39	1722.34
540.58	1849.32
540.78	1781.73
540.98	1796.07
541.18	1814.50
541.37	1787.88
541.57	1800.16
541.77	1832.93
541.97	1695.72
542.16	1689.57
542.36	1644.52
542.56	1769.44
542.76	1839.08
542.95	1763.30
543.15	1841.12
543.35	1822.69
543.54	1695.72
543.74	1689.57
543.94	1757.16
544.14	1703.91
544.33	1765.35
544.53	1744.87
544.73	1720.29
544.93	1738.73
545.12	1736.68
545.32	1708.01
545.52	1763.30
545.71	1644.52
545.91	1726.44
546.11	1763.30
546.30	1714.15
546.50	1751.01
546.70	1738.73
546.90	1748.97
547.09	1628.14
547.29	1738.73
547.49	1761.25
547.68	1728.49
547.88	1675.24
548.08	1775.59
548.27	2246.62
548.47	1656.81
548.67	1708.01
548.87	1746.92
549.06	1724.39
549.26	1777.64
549.46	1746.92
549.65	1685.48
549.85	1699.81
550.05	1755.11
550.24	1767.40
550.44	1751.01
550.64	1783.78
550.83	1748.97
551.03	1812.45
551.23	1853.41
551.42	1742.82
551.62	1722.34
551.82	1775.59
552.01	1718.25
552.21	1841.12
552.41	1742.82
552.60	1798.12
552.80	1767.40
553.00	1738.73
553.19	1714.15
553.39	1888.23
553.59	1767.40
553.78	1769.44
553.98	1738.73
554.17	1673.19
554.37	1814.50
554.57	1746.92
554.76	1755.11
554.96	1714.15
555.16	1740.77
555.35	1777.64
555.55	1757.16
555.75	1796.07
555.94	1818.60
556.14	1730.53
556.33	1757.16
556.53	1783.78
556.73	1748.97
556.92	1695.72
557.12	1804.26
557.32	1818.60
557.51	1816.55
557.71	1789.92
557.90	1826.79
558.10	1734.63
558.30	1753.06
558.49	1746.92
558.69	1751.01
558.88	1724.39
559.08	1708.01
559.28	1748.97
559.47	1755.11
559.67	1822.69
559.86	1781.73
560.06	1808.36
560.26	1730.53
560.45	1757.16
560.65	1816.55
560.84	1796.07
561.04	1705.96
561.24	1804.26
561.43	1710.05
561.63	1898.47
561.82	1720.29
562.02	1781.73
562.22	1685.48
562.41	1593.32
562.61	1714.15
562.80	1746.92
563.00	1884.13
563.19	1794.02
563.39	1736.68
563.59	1853.41
563.78	1728.49
563.98	1656.81
564.17	1662.95
564.37	1621.99
564.56	1730.53
564.76	1701.86
564.96	1808.36
565.15	1775.59
565.35	1890.28
565.54	1736.68
565.74	1777.64
565.93	1761.25
566.13	1779.68
566.32	1771.49
566.52	1742.82
566.71	1785.83
566.91	1783.78
567.11	1652.71
567.30	1730.53
567.50	1767.40
567.69	1779.68
567.89	1794.02
568.08	1646.57
568.28	1812.45
568.47	1636.33
568.67	1798.12
568.86	1796.07
569.06	1771.49
569.25	1736.68
569.45	1734.63
569.64	1705.96
569.84	1798.12
570.04	1759.21
570.23	1671.14
570.43	1742.82
570.62	1794.02
570.82	1814.50
571.01	1697.77
571.21	1671.14
571.40	1708.01
571.60	1744.87
571.79	1775.59
571.99	1759.21
572.18	1681.38
572.38	1748.97
572.57	1679.33
572.77	1779.68
572.96	1857.51
573.16	1730.53
573.35	1626.09
573.55	1826.79
573.74	1832.93
573.94	1732.58
574.13	1751.01
574.33	1830.88
574.52	1845.22
574.71	1794.02
574.91	1765.35
575.10	1660.90
575.30	1689.57
575.49	1742.82
575.69	1736.68
575.88	1771.49
576.08	1773.54
576.27	1814.50
576.47	1734.63
576.66	1834.98
576.86	1773.54
577.05	1730.53
577.25	1785.83
577.44	1822.69
577.64	1699.81
577.83	1796.07
578.02	1757.16
578.22	1789.92
578.41	1806.31
578.61	1732.58
578.80	1677.29
579.00	1765.35
579.19	1748.97
579.39	1779.68
579.58	1785.83
579.77	1806.31
579.97	1890.28
580.16	1886.18
580.36	1822.69
580.55	1863.65
580.75	1857.51
580.94	1730.53
581.13	1880.04
581.33	1832.93
581.52	1724.39
581.72	1880.04
581.91	1855.46
582.11	1724.39
582.30	1804.26
582.49	1783.78
582.69	1867.75
582.88	1812.45
583.08	1753.06
583.27	1828.84
583.47	1730.53
583.66	1652.71
583.85	1693.67
584.05	1738.73
584.24	1824.74
584.44	1851.36
584.63	1837.03
584.82	1869.80
585.02	1812.45
585.21	1779.68
585.41	1890.28
585.60	1789.92
585.79	1861.60
585.99	1961.95
586.18	1939.43
586.37	2207.71
586.57	3254.22
586.76	9645.93
586.96	23692.95
587.15	33250.82
587.34	39181.74
587.54	40830.35
587.73	35671.52
587.93	25816.69
588.12	21092.03
588.31	17839.86
588.51	15820.56
588.70	14804.77
588.89	13739.82
589.09	12234.57
589.28	10676.06
589.47	9168.76
589.67	7819.14
589.86	6274.98
590.06	4792.25
590.25	3825.61
590.44	3071.95
590.64	2582.49
590.83	2224.09
591.02	2181.09
591.22	1966.05
591.41	1949.67
591.60	1812.45
591.80	1988.58
591.99	1839.08
592.18	1763.30
592.38	1781.73
592.57	1771.49
592.76	1728.49
592.96	1787.88
593.15	1677.29
593.34	1834.98
593.54	1832.93
593.73	1804.26
593.92	1832.93
594.12	1761.25
594.31	1902.56
594.50	1765.35
594.70	1808.36
594.89	1970.15
595.08	1683.43
595.28	1816.55
595.47	1953.76
595.66	1869.80
595.86	1673.19
596.05	1746.92
596.24	1744.87
596.43	1871.84
596.63	1871.84
596.82	1759.21
597.01	1808.36
597.21	1837.03
597.40	1773.54
597.59	1775.59
597.79	1720.29
597.98	1773.54
598.17	1708.01
598.36	1736.68
598.56	1783.78
598.75	1769.44
598.94	1652.71
599.14	1783.78
599.33	1718.25
599.52	1751.01
599.71	1726.44
599.91	1841.12
600.10	1812.45
600.29	1773.54
600.48	1804.26
600.68	1728.49
600.87	1732.58
601.06	1687.53
601.26	1738.73
601.45	1738.73
601.64	1767.40
601.83	1730.53
602.03	1794.02
602.22	1675.24
602.41	1830.88
602.60	1865.70
602.80	1822.69
602.99	1755.11
603.18	1714.15
603.37	1765.35
603.57	1740.77
603.76	1789.92
603.95	1769.44
604.14	1646.57
604.34	1660.90
604.53	1736.68
604.72	1701.86
604.91	1791.97
605.10	1738.73
605.30	1730.53
605.49	1832.93
605.68	1812.45
605.87	1849.32
606.07	1658.85
606.26	1734.63
606.45	1767.40
606.64	1716.20
606.84	1687.53
607.03	1724.39
607.22	1843.17
607.41	1691.62
607.60	1699.81
607.80	1802.21
607.99	1740.77
608.18	1693.67
608.37	1779.68
608.56	1710.05
608.76	1812.45
608.95	1834.98
609.14	1761.25
609.33	1714.15
609.52	1804.26
609.72	1789.92
609.91	1861.60
610.10	1730.53
610.29	1769.44
610.48	1771.49
610.68	1759.21
610.87	1722.34
611.06	1718.25
611.25	1619.94
611.44	1761.25
611.63	1730.53
611.83	1800.16
612.02	1738.73
612.21	1804.26
612.40	1624.04
612.59	1718.25
612.79	1693.67
612.98	1675.24
613.17	1892.32
613.36	1669.09
613.55	1794.02
613.74	1665.00
613.93	1730.53
614.13	1716.20
614.32	1728.49
614.51	1755.11
614.70	1734.63
614.89	1683.43
615.08	1830.88
615.28	2033.63
615.47	1687.53
615.66	1732.58
615.85	1722.34
616.04	1808.36
616.23	1779.68
616.42	1751.01
616.62	1757.16
616.81	1748.97
617.00	1814.50
617.19	1789.92
617.38	1720.29
617.57	1671.14
617.76	1742.82
617.95	1761.25
618.15	1810.40
618.34	1828.84
618.53	1705.96
618.72	1849.32
618.91	1904.61
619.10	1822.69
619.29	1787.88
619.48	1802.21
619.68	1675.24
619.87	1705.96
620.06	1603.56
620.25	1779.68
620.44	1710.05
620.63	1718.25
620.82	1785.83
621.01	1796.07
621.20	1730.53
621.39	1785.83
621.59	1763.30
621.78	1804.26
621.97	1726.44
622.16	1775.59
622.35	1783.78
622.54	1746.92
622.73	1796.07
622.92	1599.46
623.11	1746.92
623.30	1705.96
623.49	1783.78
623.68	1689.57
623.88	1904.61
624.07	1673.19
624.26	1742.82
624.45	1714.15
624.64	1667.05
624.83	1728.49
625.02	1714.15
625.21	1695.72
625.40	1781.73
625.59	1826.79
625.78	1726.44
625.97	1701.86
626.16	1787.88
626.35	1763.30
626.54	1724.39
626.74	1796.07
626.93	1730.53
627.12	1640.42
627.31	1810.40
627.50	1779.68
627.69	1697.77
627.88	1777.64
628.07	1673.19
628.26	1691.62
628.45	1708.01
628.64	1667.05
628.83	1775.59
629.02	1718.25
629.21	1789.92
629.40	1726.44
629.59	1636.33
629.78	1681.38
629.97	1761.25
630.16	1767.40
630.35	1761.25
630.54	1763.30
630.73	1626.09
630.92	1777.64
631.11	1673.19
631.30	1708.01
631.49	1705.96
631.68	1720.29
631.87	1742.82
632.06	1613.80
632.25	1898.47
632.44	1703.91
632.63	1728.49
632.82	1746.92
633.01	1632.23
633.20	1705.96
633.39	1660.90
633.58	1677.29
633.77	1740.77
633.96	1757.16
634.15	1677.29
634.34	1765.35
634.53	1726.44
634.72	1769.44
634.91	1665.00
635.10	1785.83
635.29	1798.12
635.48	1751.01
635.67	1675.24
635.86	1675.24
636.05	1814.50
636.24	1742.82
636.43	1781.73
636.62	1763.30
636.81	1628.14
637.00	1755.11
637.19	1814.50
637.38	1669.09
637.57	1662.95
637.76	1671.14
637.95	1759.21
638.14	1617.90
638.33	1730.53
638.52	1705.96
638.71	1693.67
638.89	1636.33
639.08	1865.70
639.27	1667.05
639.46	1753.06
639.65	1759.21
639.84	1699.81
640.03	1755.11
640.22	1662.95
640.41	1806.31
640.60	1705.96
640.79	1730.53
640.98	1703.91
641.17	1728.49
641.36	1783.78
641.55	1685.48
641.74	1751.01
641.92	1665.00
642.11	1667.05
642.30	1699.81
642.49	1662.95
642.68	1732.58
642.87	1728.49
643.06	1800.16
643.25	1685.48
643.44	1695.72
643.63	1714.15
643.82	1753.06
644.00	1634.28
644.19	1710.05
644.38	1708.01
644.57	1796.07
644.76	1718.25
644.95	1767.40
645.14	1716.20
645.33	1738.73
645.52	1718.25
645.71	1585.13
645.89	1613.80
646.08	1763.30
646.27	1714.15
646.46	1748.97
646.65	1624.04
646.84	1736.68
647.03	1703.91
647.22	1718.25
647.40	1714.15
647.59	1740.77
647.78	1654.76
647.97	1746.92
648.16	1691.62
648.35	1779.68
648.54	1787.88
648.73	1724.39
648.91	1701.86
649.10	1746.92
649.29	1730.53
649.48	1779.68
649.67	1705.96
649.86	1720.29
650.05	1751.01
650.23	1775.59
650.42	1583.08
650.61	1773.54
650.80	1779.68
650.99	1828.84
651.18	1755.11
651.36	1789.92
651.55	1687.53
651.74	1773.54
651.93	1712.10
652.12	1746.92
652.31	1755.11
652.49	1679.33
652.68	1712.10
652.87	1880.04
653.06	1791.97
653.25	1828.84
653.44	1624.04
653.62	1894.37
653.81	1689.57
654.00	1789.92
654.19	1765.35
654.38	1826.79
654.56	1767.40
654.75	1759.21
654.94	1755.11
655.13	1673.19
655.32	1683.43
655.51	1712.10
655.69	1695.72
655.88	1771.49
656.07	1667.05
656.26	1732.58
656.45	1712.10
656.63	1812.45
656.82	1697.77
657.01	1769.44
657.20	1689.57
657.38	1822.69
657.57	1615.85
657.76	1730.53
657.95	1822.69
658.14	1660.90
658.32	1701.86
658.51	1722.34
658.70	1765.35
658.89	1701.86
659.08	1724.39
659.26	1781.73
659.45	1703.91
659.64	1775.59
659.83	1669.09
660.01	1894.37
660.20	1746.92
660.39	1851.36
660.58	1714.15
660.76	1818.60
660.95	1646.57
661.14	1753.06
661.33	1652.71
661.51	1632.23
661.70	1718.25
661.89	1720.29
662.08	1773.54
662.26	1677.29
662.45	1660.90
662.64	1757.16
662.83	1771.49
663.01	1652.71
663.20	1697.77
663.39	1810.40
663.58	1746.92
663.76	1787.88
663.95	1730.53
664.14	1701.86
664.32	1646.57
664.51	1703.91
664.70	1597.42
664.89	1769.44
665.07	1722.34
665.26	1787.88
665.45	1685.48
665.64	1746.92
665.82	1716.20
666.01	1755.11
666.20	1662.95
666.38	1789.92
666.57	1824.74
666.76	2199.52
666.95	4390.84
667.13	10069.86
667.32	15025.95
667.51	17559.28
667.69	18417.38
667.88	17209.08
668.07	12181.32
668.25	9480.05
668.44	7849.86
668.63	7192.47
668.81	6676.38
669.00	6074.28
669.19	5601.19
669.38	5113.78
669.56	4423.61
669.75	3901.38
669.94	3389.39
670.12	2863.06
670.31	2578.39
670.50	2295.77
670.68	2181.09
670.87	1875.94
671.06	1767.40
671.24	1843.17
671.43	1832.93
671.62	1779.68
671.80	1669.09
671.99	1765.35
672.18	1667.05
672.36	1736.68
672.55	1787.88
672.74	1675.24
672.92	1695.72
673.11	1753.06
673.29	1648.61
673.48	1802.21
673.67	1656.81
673.85	1822.69
674.04	1777.64
674.23	1773.54
674.41	1773.54
674.60	1658.85
674.79	1642.47
674.97	1671.14
675.16	1753.06
675.34	1732.58
675.53	1722.34
675.72	1783.78
675.90	1777.64
676.09	1662.95
676.28	1769.44
676.46	1640.42
676.65	1759.21
676.83	1654.76
677.02	1748.97
677.21	1773.54
677.39	1708.01
677.58	1656.81
677.77	1687.53
677.95	1699.81
678.14	1714.15
678.32	1710.05
678.51	1714.15
678.70	1828.84
678.88	1746.92
679.07	1759.21
679.25	1705.96
679.44	1726.44
679.63	1746.92
679.81	1732.58
680.00	1800.16
680.18	1757.16
680.37	1734.63
680.55	1675.24
680.74	1687.53
680.93	1648.61
681.11	1783.78
681.30	1718.25
681.48	1789.92
681.67	1697.77
681.85	1658.85
682.04	1734.63
682.23	1757.16
682.41	1718.25
682.60	1681.38
682.78	1724.39
682.97	1675.24
683.15	1714.15
683.34	1728.49
683.53	1814.50
683.71	1581.03
683.90	1789.92
684.08	1791.97
684.27	1701.86
684.45	1683.43
684.64	1769.44
684.82	1658.85
685.01	1798.12
685.19	1685.48
685.38	1851.36
685.57	1722.34
685.75	1658.85
685.94	1714.15
686.12	1667.05
686.31	1705.96
686.49	1779.68
686.68	1650.66
686.86	1751.01
687.05	1699.81
687.23	1865.70
687.42	1638.38
687.60	1679.33
687.79	1824.74
687.97	1775.59
688.16	1773.54
688.34	1855.46
688.53	1634.28
688.71	1796.07
688.90	1837.03
689.08	1689.57
689.27	1665.00
689.45	1804.26
689.64	1757.16
689.82	1783.78
690.01	1791.97
690.19	1681.38
690.38	1769.44
690.56	1740.77
690.75	1677.29
690.93	1583.08
691.12	1677.29
691.30	1726.44
691.49	1615.85
691.67	1646.57
691.86	1769.44
692.04	1726.44
692.23	1724.39
692.41	1689.57
692.60	1744.87
692.78	1757.16
692.97	1718.25
693.15	1644.52
693.34	1865.70
693.52	1765.35
693.71	1769.44
693.89	1638.38
694.08	1615.85
694.26	1726.44
694.44	1845.22
694.63	1714.15
694.81	1681.38
695.00	1724.39
695.18	1839.08
695.37	1937.38
695.55	1695.72
695.74	1718.25
695.92	1658.85
696.10	1765.35
696.29	1675.24
696.47	1699.81
696.66	1699.81
696.84	1665.00
697.03	1751.01
697.21	1857.51
697.40	2361.31
697.58	1763.30
697.76	1734.63
697.95	1699.81
698.13	1669.09
698.32	1712.10
698.50	1765.35
698.68	1769.44
698.87	1753.06
699.05	1806.31
699.24	1685.48
699.42	1656.81
699.61	1720.29
699.79	1697.77
699.97	1708.01
700.16	1701.86
700.34	1656.81
700.53	1652.71
700.71	1851.36
700.89	1746.92
701.08	1658.85
701.26	1701.86
701.45	2105.31
701.63	1724.39
701.81	1742.82
702.00	1673.19
702.18	1687.53
702.37	1771.49
702.55	1697.77
702.73	1667.05
702.92	1689.57
703.10	1710.05
703.28	1791.97
703.47	1619.94
703.65	1658.85
703.84	1781.73
704.02	1820.64
704.20	1787.88
704.39	1701.86
704.57	1703.91
704.75	1755.11
704.94	1734.63
705.12	1697.77
705.30	1824.74
705.49	2281.44
705.67	4380.61
705.86	9301.87
706.04	12164.93
706.22	14040.87
706.41	14978.84
706.59	13668.14
706.77	9129.84
706.96	7212.95
707.14	6428.57
707.32	5818.28
707.51	5410.73
707.69	4790.20
707.87	4134.85
708.06	3461.07
708.24	2904.02
708.42	2385.88
708.61	2267.10
708.79	1925.09
708.97	1877.99
709.16	1927.14
709.34	1818.60
709.52	1730.53
709.71	1775.59
709.89	1767.40
710.07	1714.15
710.26	1683.43
710.44	1765.35
710.62	1839.08
710.80	1636.33
710.99	1886.18
711.17	1841.12
711.35	1644.52
711.54	1677.29
711.72	1837.03
711.90	1791.97
712.09	1675.24
712.27	1757.16
712.45	1783.78
712.63	1746.92
712.82	1779.68
713.00	1697.77
713.18	1718.25
713.37	1724.39
713.55	1681.38
713.73	1718.25
713.91	1712.10
714.10	1751.01
714.28	1644.52
714.46	1708.01
714.65	1746.92
714.83	1693.67
715.01	1689.57
715.19	1693.67
715.38	1681.38
715.56	1708.01
715.74	1693.67
715.92	1665.00
716.11	1849.32
716.29	1673.19
716.47	1777.64
716.65	1683.43
716.84	1673.19
717.02	1830.88
717.20	1619.94
717.38	1628.14
717.57	1773.54
717.75	1806.31
717.93	1613.80
718.11	1779.68
718.30	1585.13
718.48	1751.01
718.66	1712.10
718.84	1828.84
719.03	1728.49
719.21	1638.38
719.39	1775.59
719.57	1710.05
719.75	1834.98
719.94	1640.42
720.12	1658.85
720.30	1708.01
720.48	1720.29
720.67	1609.70
720.85	1652.71
721.03	1746.92
721.21	1650.66
721.39	1781.73
721.58	1751.01
721.76	1728.49
721.94	1751.01
722.12	1722.34
722.30	1771.49
722.49	1734.63
722.67	1744.87
722.85	1783.78
723.03	1621.99
723.21	1763.30
723.40	1787.88
723.58	1724.39
723.76	1675.24
723.94	1746.92
724.12	1738.73
724.30	1775.59
724.49	1775.59
724.67	1667.05
724.85	1832.93
725.03	1632.23
725.21	1779.68
725.40	1746.92
725.58	1751.01
725.76	1767.40
725.94	1734.63
726.12	1630.18
726.30	1619.94
726.49	1646.57
726.67	1695.72
726.85	1746.92
727.03	1832.93
727.21	2197.47
727.39	2840.53
727.57	3708.87
727.76	4210.62
727.94	4515.77
728.12	4153.28
728.30	3665.86
728.48	3043.28
728.66	2775.00
728.84	2592.73
729.03	2312.16
729.21	2090.98
729.39	2033.63
729.57	1863.65
729.75	1845.22
729.93	1900.52
730.11	1691.62
730.30	1671.14
730.48	1697.77
730.66	1843.17
730.84	1773.54
731.02	1689.57
731.20	1689.57
731.38	1748.97
731.56	1652.71
731.74	1718.25
731.93	1703.91
732.11	1626.09
732.29	1714.15
732.47	1726.44
732.65	1673.19
732.83	1714.15
733.01	1736.68
733.19	1642.47
733.37	1812.45
733.56	1728.49
733.74	1703.91
733.92	1759.21
734.10	1761.25
734.28	1761.25
734.46	1656.81
734.64	1708.01
734.82	1697.77
735.00	1708.01
735.18	1736.68
735.36	1699.81
735.54	1759.21
735.73	1677.29
735.91	1757.16
736.09	1822.69
736.27	1726.44
736.45	1708.01
736.63	1603.56
736.81	1763.30
736.99	1800.16
737.17	1820.64
737.35	1619.94
737.53	1658.85
737.71	1636.33
737.89	1800.16
738.07	1632.23
738.25	1650.66
738.43	1626.09
738.61	1630.18
738.80	1644.52
738.98	1677.29
739.16	1617.90
739.34	1693.67
739.52	1861.60
739.70	1673.19
739.88	1779.68
740.06	1744.87
740.24	1515.50
740.42	1755.11
740.60	1716.20
740.78	1701.86
740.96	1619.94
741.14	1652.71
741.32	1751.01
741.50	1658.85
741.68	1742.82
741.86	1765.35
742.04	1605.61
742.22	1703.91
742.40	1722.34
742.58	1748.97
742.76	1660.90
742.94	1779.68
743.12	1656.81
743.30	1687.53
743.48	1732.58
743.66	1673.19
743.84	1767.40
744.02	1636.33
744.20	1724.39
744.38	1765.35
744.56	1624.04
744.74	1804.26
744.92	1773.54
745.10	1798.12
745.28	1843.17
745.46	1800.16
745.64	1683.43
745.82	1830.88
746.00	1699.81
746.18	1742.82
746.36	1650.66
746.54	1732.58
746.72	1740.77
746.90	1708.01
747.08	1779.68
747.26	1685.48
747.44	1800.16
747.62	1716.20
747.80	1689.57
747.98	1804.26
748.15	1726.44
748.33	1740.77
748.51	1617.90
748.69	1804.26
748.87	1710.05
749.05	1644.52
749.23	1673.19
749.41	1667.05
749.59	1748.97
749.77	1798.12
749.95	1624.04
750.13	1671.14
750.31	1726.44
750.49	1644.52
750.67	1808.36
750.85	1798.12
751.03	1695.72
751.20	1875.94
751.38	1726.44
751.56	1703.91
751.74	1679.33
751.92	1697.77
752.10	1697.77
752.28	1794.02
752.46	1665.00
752.64	1726.44
752.82	1712.10
753.00	1765.35
753.18	1697.77
753.35	1671.14
753.53	1708.01
753.71	1636.33
753.89	1738.73
754.07	1730.53
754.25	1753.06
754.43	1662.95
754.61	1619.94
754.79	1753.06
754.97	1669.09
755.14	1789.92
755.32	1599.46
755.50	1781.73
755.68	1734.63
755.86	1611.75
756.04	1673.19
756.22	1570.79
756.40	1779.68
756.57	1777.64
756.75	1732.58
756.93	1689.57
757.11	1763.30
757.29	1693.67
757.47	1640.42
757.65	1646.57
757.82	1595.37
758.00	1634.28
758.18	1687.53
758.36	1681.38
758.54	1763.30
758.72	1630.18
758.90	1791.97
759.07	1820.64
759.25	1697.77
759.43	1656.81
759.61	1701.86
759.79	2242.53
759.97	1789.92
760.15	1710.05
760.32	1695.72
760.50	1720.29
760.68	1863.65
760.86	1636.33
761.04	1763.30
761.22	1728.49
761.39	1806.31
761.57	1697.77
761.75	1742.82
761.93	1730.53
762.11	1722.34
762.28	1714.15
762.46	1738.73
762.64	1714.15
762.82	1626.09
763.00	1710.05
763.18	1724.39
763.35	1654.76
763.53	1753.06
763.71	1677.29
763.89	1720.29
764.07	1701.86
764.24	1736.68
764.42	1806.31
764.60	1718.25
764.78	1863.65
764.96	1820.64
765.13	1724.39
765.31	1689.57
765.49	1814.50
765.67	1665.00
765.84	1648.61
766.02	1601.51
766.20	1652.71
766.38	1642.47
766.56	1763.30
766.73	1742.82
766.91	1675.24
767.09	1691.62
767.27	1777.64
767.44	1710.05
767.62	1734.63
767.80	1669.09
767.98	1648.61
768.15	1714.15
768.33	1755.11
768.51	1724.39
768.69	1783.78
768.87	1757.16
769.04	1773.54
769.22	1855.46
769.40	1791.97
769.58	1871.84
769.75	1759.21
769.93	1759.21
770.11	1632.23
770.28	1716.20
770.46	1650.66
770.64	1773.54
770.82	1650.66
770.99	1732.58
771.17	1716.20
771.35	1695.72
771.53	1669.09
771.70	1644.52
771.88	1808.36
772.06	1734.63
772.23	1736.68
772.41	1705.96
772.59	1763.30
772.77	1681.38
772.94	1765.35
773.12	1738.73
773.30	1671.14
773.47	1697.77
773.65	1617.90
773.83	1781.73
774.01	1667.05
774.18	1568.74
774.36	1624.04
774.54	1597.42
774.71	1708.01
774.89	1638.38
775.07	1656.81
775.24	1679.33
775.42	1722.34
775.60	1789.92
775.78	1691.62
775.95	1660.90
776.13	1535.98
776.31	1691.62
776.48	1701.86
776.66	1771.49
776.84	1712.10
777.01	1650.66
777.19	1695.72
777.37	1632.23
777.54	1789.92
777.72	1898.47
777.90	1773.54
778.07	1708.01
778.25	1871.84
778.43	1697.77
778.60	1648.61
778.78	1753.06
778.96	1832.93
779.13	1595.37
779.31	1773.54
779.49	1738.73
779.66	1736.68
779.84	1710.05
780.01	1675.24
780.19	1685.48
780.37	1798.12
780.54	1804.26
780.72	1617.90
780.90	1730.53
781.07	1701.86
781.25	1779.68
781.43	1695.72
781.60	1632.23
781.78	1691.62
781.95	1726.44
782.13	1753.06
782.31	1765.35
782.48	1591.27
782.66	1759.21
782.83	1853.41
783.01	1683.43
783.19	1675.24
783.36	1665.00
783.54	1662.95
783.72	1775.59
783.89	1667.05
784.07	1779.68
784.24	1761.25
784.42	1841.12
784.60	1720.29
784.77	1738.73
784.95	1644.52
785.12	1712.10
785.30	1675.24
785.47	1699.81
785.65	1621.99
785.83	1671.14
786.00	1734.63
786.18	1703.91
786.35	1648.61
786.53	1699.81
786.71	1744.87
786.88	1779.68
787.06	1746.92
787.23	1697.77
787.41	1646.57
787.58	1695.72
787.76	1675.24
787.94	1744.87
788.11	1748.97
788.29	1611.75
788.46	1673.19
788.64	1638.38
788.81	1714.15
788.99	1699.81
789.16	1691.62
789.34	1687.53
789.52	1626.09
789.69	1705.96
789.87	1597.42
790.04	1732.58
790.22	1685.48
790.39	1810.40
790.57	1601.51
790.74	1701.86
790.92	1755.11
791.09	1693.67
791.27	1695.72
791.44	1783.78
791.62	1708.01
791.79	1757.16
791.97	1636.33
792.15	1898.47
792.32	1765.35
792.50	1779.68
792.67	1812.45
792.85	1773.54
793.02	1728.49
793.20	1738.73
793.37	1624.04
793.55	1779.68
793.72	1648.61
793.90	1791.97
794.07	1681.38
794.25	1642.47
794.42	1705.96
794.60	1640.42
794.77	1722.34
794.95	1691.62
795.12	1781.73
795.30	1714.15
795.47	1652.71
795.65	1929.19
795.82	1681.38
796.00	1671.14
796.17	1652.71
796.34	1744.87
796.52	1705.96
796.69	1849.32
796.87	1708.01
797.04	1732.58
797.22	1763.30
797.39	1697.77
797.57	1779.68
797.74	1732.58
797.92	1742.82
798.09	1673.19
798.27	1787.88
798.44	1765.35
798.62	1617.90
798.79	1701.86
798.96	1718.25
799.14	1755.11
799.31	1855.46
799.49	1732.58
799.66	1652.71
799.84	1746.92
800.01	1736.68
800.19	1742.82
800.36	1624.04
800.53	1708.01
800.71	1685.48
800.88	1785.83
801.06	1705.96
801.23	1718.25
801.41	1705.96
801.58	1636.33
801.75	1703.91
801.93	1742.82
802.10	1767.40
802.28	1689.57
802.45	1714.15
802.63	1740.77
802.80	1837.03
802.97	1763.30
803.15	1708.01
803.32	1734.63
803.50	1656.81
803.67	1742.82
803.84	1638.38
804.02	1771.49
804.19	1769.44
804.37	1630.18
804.54	1611.75
804.71	1662.95
804.89	1693.67
805.06	1695.72
805.24	1662.95
805.41	1650.66
805.58	1603.56
805.76	1867.75
805.93	1677.29
806.10	1812.45
806.28	1724.39
806.45	1679.33
806.63	1697.77
806.80	1726.44
806.97	1798.12
807.15	1716.20
807.32	1695.72
807.49	1714.15
807.67	1712.10
807.84	1687.53
808.01	1587.18
808.19	1808.36
808.36	1828.84
808.54	1599.46
808.71	1656.81
808.88	1744.87
809.06	1693.67
809.23	1757.16
809.40	1681.38
809.58	1763.30
809.75	1691.62
809.92	1652.71
810.10	1898.47
810.27	1765.35
810.44	1812.45
810.62	1712.10
810.79	1736.68
810.96	1732.58
811.14	1675.24
811.31	1765.35
811.48	1724.39
811.66	1740.77
811.83	1714.15
812.00	1652.71
812.18	1816.55
812.35	1789.92
812.52	1648.61
812.69	1720.29
812.87	1665.00
813.04	1677.29
813.21	1675.24
813.39	1677.29
813.56	1667.05
813.73	1742.82
813.91	1624.04
814.08	1677.29
814.25	1685.48
814.42	1556.46
814.60	1714.15
814.77	1705.96
814.94	1779.68
815.12	1683.43
815.29	1751.01
815.46	1665.00
815.63	1658.85
815.81	1685.48
815.98	1656.81
816.15	1689.57
816.33	1736.68
816.50	1728.49
816.67	1779.68
816.84	1734.63
817.02	1683.43
817.19	1675.24
817.36	1632.23
817.53	1681.38
817.71	1691.62
817.88	1767.40
818.05	1646.57
818.22	1701.86
818.40	1871.84
818.57	1667.05
818.74	1791.97
818.91	1656.81
819.09	1718.25
819.26	1738.73
819.43	1630.18
819.60	1732.58
819.78	1755.11
819.95	1710.05
820.12	1710.05
820.29	1875.94
820.47	1746.92
820.64	1677.29
820.81	1683.43
820.98	1693.67
821.15	1599.46
821.33	1751.01
821.50	1556.46
821.67	1765.35
821.84	1640.42
822.02	1726.44
822.19	1771.49
822.36	1701.86
822.53	1718.25
822.70	1662.95
822.88	1687.53
823.05	1779.68
823.22	1751.01
823.39	1744.87
823.56	1703.91
823.74	1699.81
823.91	1697.77
824.08	1644.52
824.25	1667.05
824.42	1847.27
824.60	1648.61
824.77	1656.81
824.94	1712.10
825.11	1812.45
825.28	1681.38
825.45	1673.19
825.63	1732.58
825.80	1640.42
825.97	1654.76
826.14	1687.53
826.31	1652.71
826.48	1714.15
826.66	1667.05
826.83	1738.73
827.00	1708.01
827.17	1689.57
827.34	1767.40
827.51	1714.15
827.69	1732.58
827.86	1578.98
828.03	1679.33
828.20	1726.44
828.37	1669.09
828.54	1794.02
828.71	1654.76
828.89	1822.69
829.06	1755.11
829.23	1751.01
829.40	1669.09
829.57	1732.58
829.74	1849.32
829.91	1658.85
830.09	1658.85
830.26	1714.15
830.43	1796.07
830.60	1705.96
830.77	1771.49
830.94	1734.63
831.11	1798.12
831.28	1679.33
831.46	1730.53
831.63	1675.24
831.80	1769.44
831.97	1710.05
832.14	1738.73
832.31	1761.25
832.48	1759.21
832.65	1853.41
832.82	1771.49
832.99	1689.57
833.17	1636.33
833.34	1855.46
833.51	1705.96
833.68	1605.61
833.85	1755.11
834.02	1650.66
834.19	1642.47
834.36	1615.85
834.53	1695.72
834.70	1779.68
834.87	1720.29
835.04	1740.77
835.22	1724.39
835.39	1619.94
835.56	1646.57
835.73	1710.05
835.90	1777.64
836.07	1662.95
836.24	1820.64
836.41	1677.29
836.58	1640.42
836.75	1746.92
836.92	1761.25
837.09	1689.57
837.26	1695.72
837.43	1734.63
837.60	1726.44
837.77	1673.19
837.94	1757.16
838.12	1773.54
838.29	1734.63
838.46	1621.99
838.63	1683.43
838.80	1732.58
838.97	1757.16
839.14	1665.00
839.31	1638.38
839.48	1783.78
839.65	1689.57
839.82	1834.98
839.99	1773.54
840.16	1740.77
840.33	1646.57
840.50	1767.40
840.67	1710.05
840.84	1638.38
841.01	1693.67
841.18	1599.46
841.35	1738.73
841.52	1798.12
841.69	1837.03
841.86	1779.68
842.03	1763.30
842.20	1742.82
842.37	1656.81
842.54	1746.92
842.71	1742.82
842.88	1628.14
843.05	1761.25
843.22	1619.94
843.39	1724.39
843.56	1703.91
843.73	1779.68
843.90	1722.34
844.07	1763.30
844.24	1699.81
844.41	1775.59
844.58	1761.25
844.75	1681.38
844.92	1726.44
845.09	1734.63
845.26	1617.90
845.43	1800.16
845.60	1689.57
845.77	1736.68
845.94	1746.92
846.10	1720.29
846.27	1718.25
846.44	1607.66
846.61	1624.04
846.78	1730.53
846.95	1824.74
847.12	1746.92
847.29	1695.72
847.46	1691.62
847.63	1714.15
847.80	1650.66
847.97	1705.96
848.14	1771.49
848.31	1677.29
848.48	1667.05
848.65	1701.86
848.82	1703.91
848.98	1875.94
849.15	1742.82
849.32	1773.54
849.49	1738.73
849.66	1718.25
849.83	1687.53
850.00	1609.70
850.17	1751.01
850.34	1759.21
850.51	1660.90
850.68	1660.90
850.85	1880.04
851.01	1710.05
851.18	1720.29
851.35	1679.33
851.52	1708.01
851.69	1767.40
851.86	1607.66
852.03	1726.44
852.20	1736.68
852.37	1748.97
852.53	1699.81
852.70	1701.86
852.87	1716.20
853.04	1728.49
853.21	1697.77
853.38	1808.36
853.55	1824.74
853.72	1791.97
853.89	1605.61
854.05	1738.73
854.22	1730.53
854.39	1703.91
854.56	1794.02
854.73	1769.44
854.90	1642.47
855.07	1724.39
855.23	1646.57
855.40	1675.24
855.57	1718.25
855.74	1583.08
855.91	1841.12
856.08	1656.81
856.25	1599.46
856.41	1667.05
856.58	1644.52
856.75	1685.48
856.92	1718.25
857.09	1816.55
857.26	1626.09
857.42	1738.73
857.59	1822.69
857.76	1705.96
857.93	1679.33
858.10	1722.34
858.27	1599.46
858.43	1703.91
858.60	1687.53
858.77	1673.19
858.94	1615.85
859.11	1689.57
859.27	1679.33
859.44	1716.20
859.61	1859.56
859.78	1705.96
859.95	1644.52
860.12	1685.48
860.28	1804.26
860.45	1845.22
860.62	1669.09
860.79	1783.78
860.95	1732.58
861.12	1609.70
861.29	1669.09
861.46	1632.23
861.63	1685.48
861.79	1671.14
861.96	1687.53
862.13	1652.71
862.30	1738.73
862.47	1689.57
862.63	1632.23
862.80	1804.26
862.97	1818.60
863.14	1667.05
863.30	1720.29
863.47	1734.63
863.64	1802.21
863.81	1787.88
863.97	1697.77
864.14	1671.14
864.31	1656.81
864.48	1759.21
864.65	1751.01
864.81	1755.11
864.98	1714.15
865.15	1656.81
865.32	1775.59
865.48	1716.20
865.65	1697.77
865.82	1636.33
865.98	1699.81
866.15	1757.16
866.32	1716.20
866.49	1654.76
866.65	1785.83
866.82	1632.23
866.99	1734.63
867.16	1695.72
867.32	1720.29
867.49	1710.05
867.66	1730.53
867.83	1656.81
867.99	1677.29
868.16	1667.05
868.33	1636.33
868.49	1748.97
868.66	1574.89
868.83	1820.64
868.99	1650.66
869.16	1712.10
869.33	1761.25
869.50	1839.08
869.66	1726.44
869.83	1699.81
870.00	1665.00
870.16	1812.45
870.33	1669.09
870.50	1675.24
870.66	1703.91
870.83	1855.46
871.00	1662.95
871.17	1689.57
871.33	1693.67
871.50	1765.35
871.67	1681.38
871.83	1652.71
872.00	1759.21
872.17	1673.19
872.33	1863.65
872.50	1828.84
872.67	1693.67
872.83	1751.01
873.00	1720.29
873.17	1736.68
873.33	1789.92
873.50	1755.11
873.67	1705.96
873.83	1720.29
874.00	1654.76
874.16	1703.91
874.33	1720.29
874.50	1679.33
874.66	1755.11
874.83	1683.43
875.00	1771.49
875.16	1755.11
875.33	1806.31
875.50	1556.46
875.66	1650.66
875.83	1660.90
875.99	1708.01
876.16	1759.21
876.33	1658.85
876.49	1683.43
876.66	1734.63
876.83	1722.34
876.99	1630.18
877.16	1703.91
877.32	1632.23
877.49	1697.77
877.66	1687.53
877.82	1767.40
877.99	1730.53
878.15	1800.16
878.32	1697.77
878.49	1587.18
878.65	1656.81
878.82	1767.40
878.98	1658.85
879.15	1751.01
879.32	1755.11
879.48	1755.11
879.65	1679.33
879.81	1759.21
879.98	1685.48
880.15	1689.57
880.31	1798.12
880.48	1677.29
880.64	1767.40
880.81	1722.34
880.97	1822.69
881.14	1746.92
881.31	1689.57
881.47	1834.98
881.64	1755.11
881.80	1578.98
881.97	1732.58
882.13	1869.80
882.30	1634.28
882.47	1646.57
882.63	1669.09
882.80	1708.01
882.96	1693.67
883.13	1730.53
883.29	1673.19
883.46	1714.15
883.62	1841.12
883.79	1693.67
883.95	1675.24
884.12	1667.05
884.29	1789.92
884.45	1705.96
884.62	1771.49
884.78	1681.38
884.95	1765.35
885.11	1691.62
885.28	1667.05
885.44	1685.48
885.61	1728.49
885.77	1775.59
885.94	1714.15
886.10	1665.00
886.27	1677.29
886.43	1796.07
886.60	1771.49
886.76	1667.05
886.93	1701.86
887.09	1734.63
887.26	1626.09
887.42	1748.97
887.59	1740.77
887.75	1794.02
887.92	1814.50
888.08	1763.30
888.25	1808.36
888.41	1779.68
888.58	1728.49
888.74	1626.09
888.91	1681.38
>>>>>End Processed Spectral Data<<<<<
