SpectraSuite Data File
++++++++++++++++++++++++++++++++++++
Date: Mon Jun 06 13:26:37 CEST 2016
User: root
Dark Spectrum Present: No
Reference Spectrum Present: No
Number of Sampled Component Spectra: 1
Spectrometers: USB4C02835
Integration Time (usec): 100000 (USB4C02835)
Spectra Averaged: 1 (USB4C02835)
Boxcar Smoothing: 0 (USB4C02835)
Correct for Electrical Dark: No (USB4C02835)
Strobe/Lamp Enabled: No (USB4C02835)
Correct for Detector Non-linearity: No (USB4C02835)
Correct for Stray Light: No (USB4C02835)
Number of Pixels in Processed Spectrum: 3648
>>>>>Begin Processed Spectral Data<<<<<
177.47	1431.53
177.69	1431.53
177.91	1431.53
178.13	1439.72
178.36	1452.01
178.58	1705.96
178.80	1724.39
179.02	1587.18
179.24	1697.77
179.46	1638.38
179.68	1767.40
179.90	1722.34
180.13	1738.73
180.35	1669.09
180.57	1626.09
180.79	1816.55
181.01	1775.59
181.23	1720.29
181.45	1734.63
181.67	1677.29
181.90	1785.83
182.12	1601.51
182.34	1648.61
182.56	1695.72
182.78	1679.33
183.00	1632.23
183.22	1644.52
183.44	1632.23
183.66	1882.08
183.89	1779.68
184.11	1654.76
184.33	1744.87
184.55	1783.78
184.77	1708.01
184.99	1679.33
185.21	1613.80
185.43	1775.59
185.65	1607.66
185.87	1695.72
186.10	1761.25
186.32	1849.32
186.54	1757.16
186.76	1705.96
186.98	1708.01
187.20	1667.05
187.42	1740.77
187.64	1710.05
187.86	1718.25
188.08	1738.73
188.30	1648.61
188.52	1656.81
188.75	1783.78
188.97	1814.50
189.19	1689.57
189.41	1748.97
189.63	1751.01
189.85	1722.34
190.07	1646.57
190.29	1681.38
190.51	1716.20
190.73	1587.18
190.95	1740.77
191.17	1716.20
191.39	1619.94
191.61	1646.57
191.84	1689.57
192.06	1724.39
192.28	1636.33
192.50	1841.12
192.72	1724.39
192.94	1687.53
193.16	1785.83
193.38	1714.15
193.60	1634.28
193.82	1687.53
194.04	1779.68
194.26	1730.53
194.48	1681.38
194.70	1742.82
194.92	1585.13
195.14	1660.90
195.36	1767.40
195.58	1654.76
195.80	1757.16
196.02	1624.04
196.24	1665.00
196.46	1648.61
196.69	1652.71
196.91	1796.07
197.13	1642.47
197.35	1632.23
197.57	1853.41
197.79	1755.11
198.01	1683.43
198.23	1812.45
198.45	1708.01
198.67	1660.90
198.89	1662.95
199.11	1738.73
199.33	1665.00
199.55	1558.50
199.77	1632.23
199.99	1732.58
200.21	1603.56
200.43	1728.49
200.65	1665.00
200.87	1509.35
201.09	1695.72
201.31	1730.53
201.53	1748.97
201.75	1685.48
201.97	1740.77
202.19	1787.88
202.41	1722.34
202.63	1822.69
202.85	1738.73
203.07	1705.96
203.29	1689.57
203.51	1660.90
203.73	1591.27
203.95	1888.23
204.17	1716.20
204.39	1703.91
204.61	1693.67
204.83	1718.25
205.05	1746.92
205.27	1757.16
205.49	1841.12
205.71	1710.05
205.93	1632.23
206.15	1644.52
206.37	1671.14
206.59	1646.57
206.81	1669.09
207.03	1658.85
207.25	1605.61
207.47	1714.15
207.69	1722.34
207.91	1699.81
208.13	1771.49
208.34	1660.90
208.56	1673.19
208.78	1730.53
209.00	1681.38
209.22	1626.09
209.44	1662.95
209.66	1648.61
209.88	1691.62
210.10	1724.39
210.32	1636.33
210.54	1757.16
210.76	1687.53
210.98	1746.92
211.20	1630.18
211.42	1687.53
211.64	1751.01
211.86	1763.30
212.08	1765.35
212.30	1763.30
212.52	1636.33
212.74	1773.54
212.96	1708.01
213.17	1789.92
213.39	1837.03
213.61	1796.07
213.83	1691.62
214.05	1669.09
214.27	1746.92
214.49	1652.71
214.71	1611.75
214.93	1722.34
215.15	1671.14
215.37	1722.34
215.59	1697.77
215.81	1669.09
216.03	1710.05
216.24	1708.01
216.46	1640.42
216.68	1753.06
216.90	1738.73
217.12	1746.92
217.34	1722.34
217.56	1738.73
217.78	1761.25
218.00	1689.57
218.22	1720.29
218.44	1681.38
218.66	1669.09
218.87	1759.21
219.09	1685.48
219.31	1738.73
219.53	1701.86
219.75	1675.24
219.97	1708.01
220.19	1683.43
220.41	1677.29
220.63	1800.16
220.85	1824.74
221.06	1697.77
221.28	1718.25
221.50	1791.97
221.72	1675.24
221.94	1708.01
222.16	1656.81
222.38	1697.77
222.60	1744.87
222.82	1708.01
223.03	1767.40
223.25	1593.32
223.47	1738.73
223.69	1800.16
223.91	1689.57
224.13	1708.01
224.35	1644.52
224.57	1732.58
224.78	1771.49
225.00	1697.77
225.22	1646.57
225.44	1683.43
225.66	1812.45
225.88	1705.96
226.10	1796.07
226.32	1726.44
226.53	1763.30
226.75	1646.57
226.97	1671.14
227.19	1730.53
227.41	1708.01
227.63	1705.96
227.85	1617.90
228.06	1722.34
228.28	1675.24
228.50	1755.11
228.72	1681.38
228.94	1748.97
229.16	1662.95
229.37	1673.19
229.59	1667.05
229.81	1771.49
230.03	1730.53
230.25	1734.63
230.47	1619.94
230.69	1607.66
230.90	1777.64
231.12	1656.81
231.34	1794.02
231.56	1789.92
231.78	1595.37
232.00	1732.58
232.21	1550.31
232.43	1691.62
232.65	1583.08
232.87	1775.59
233.09	1705.96
233.30	1728.49
233.52	1714.15
233.74	1683.43
233.96	1708.01
234.18	1710.05
234.40	1701.86
234.61	1753.06
234.83	1564.65
235.05	1632.23
235.27	1884.13
235.49	1714.15
235.70	1701.86
235.92	1759.21
236.14	1763.30
236.36	1882.08
236.58	1683.43
236.79	1730.53
237.01	1677.29
237.23	1693.67
237.45	1714.15
237.67	1732.58
237.88	1660.90
238.10	1843.17
238.32	1658.85
238.54	1695.72
238.76	1607.66
238.97	1644.52
239.19	1658.85
239.41	1826.79
239.63	1681.38
239.85	1660.90
240.06	1703.91
240.28	1628.14
240.50	1687.53
240.72	1665.00
240.93	1685.48
241.15	1785.83
241.37	1701.86
241.59	1767.40
241.81	1689.57
242.02	1658.85
242.24	1757.16
242.46	1710.05
242.68	1632.23
242.89	1761.25
243.11	1675.24
243.33	1667.05
243.55	1779.68
243.76	1763.30
243.98	1660.90
244.20	1652.71
244.42	1787.88
244.64	1626.09
244.85	1611.75
245.07	1632.23
245.29	1708.01
245.51	1687.53
245.72	1796.07
245.94	1789.92
246.16	1718.25
246.38	1730.53
246.59	1681.38
246.81	1626.09
247.03	1632.23
247.24	1613.80
247.46	1581.03
247.68	1732.58
247.90	1644.52
248.11	1710.05
248.33	1751.01
248.55	1742.82
248.77	1701.86
248.98	1769.44
249.20	1808.36
249.42	1693.67
249.64	1767.40
249.85	1798.12
250.07	1656.81
250.29	1714.15
250.50	1740.77
250.72	1605.61
250.94	1636.33
251.16	1757.16
251.37	1689.57
251.59	1687.53
251.81	1751.01
252.02	1761.25
252.24	1701.86
252.46	1753.06
252.68	1648.61
252.89	1724.39
253.11	1617.90
253.33	1789.92
253.54	1785.83
253.76	1609.70
253.98	1679.33
254.20	1689.57
254.41	1613.80
254.63	1677.29
254.85	1695.72
255.06	1609.70
255.28	1722.34
255.50	1708.01
255.71	1703.91
255.93	1591.27
256.15	1654.76
256.36	1734.63
256.58	1638.38
256.80	1718.25
257.02	1669.09
257.23	1658.85
257.45	1769.44
257.67	1712.10
257.88	1701.86
258.10	1689.57
258.32	1722.34
258.53	1716.20
258.75	1755.11
258.97	1685.48
259.18	1595.37
259.40	1658.85
259.62	1812.45
259.83	1714.15
260.05	1718.25
260.27	1996.77
260.48	1746.92
260.70	1636.33
260.92	1708.01
261.13	1705.96
261.35	1691.62
261.57	1744.87
261.78	1591.27
262.00	1665.00
262.22	1773.54
262.43	1669.09
262.65	1710.05
262.86	1759.21
263.08	1812.45
263.30	1716.20
263.51	1671.14
263.73	1605.61
263.95	1769.44
264.16	1662.95
264.38	1644.52
264.60	1601.51
264.81	1732.58
265.03	1759.21
265.25	1751.01
265.46	1683.43
265.68	1783.78
265.89	1726.44
266.11	1685.48
266.33	1746.92
266.54	1742.82
266.76	1742.82
266.98	1771.49
267.19	1755.11
267.41	1744.87
267.62	1708.01
267.84	1640.42
268.06	1695.72
268.27	1714.15
268.49	1820.64
268.70	1769.44
268.92	1691.62
269.14	1701.86
269.35	1644.52
269.57	1689.57
269.79	1775.59
270.00	1683.43
270.22	1744.87
270.43	1693.67
270.65	1560.55
270.87	1726.44
271.08	1693.67
271.30	1718.25
271.51	1714.15
271.73	1636.33
271.95	1736.68
272.16	1720.29
272.38	1705.96
272.59	1642.47
272.81	1724.39
273.02	1738.73
273.24	1789.92
273.46	1718.25
273.67	1710.05
273.89	1626.09
274.10	1728.49
274.32	1714.15
274.54	1689.57
274.75	1681.38
274.97	1710.05
275.18	1818.60
275.40	1671.14
275.61	1734.63
275.83	1730.53
276.05	1535.98
276.26	1689.57
276.48	1765.35
276.69	1679.33
276.91	1691.62
277.12	1724.39
277.34	1687.53
277.55	1738.73
277.77	1685.48
277.99	1634.28
278.20	1656.81
278.42	1634.28
278.63	1671.14
278.85	1656.81
279.06	1601.51
279.28	1746.92
279.49	1703.91
279.71	1724.39
279.93	1732.58
280.14	1697.77
280.36	1613.80
280.57	1777.64
280.79	1746.92
281.00	1687.53
281.22	1701.86
281.43	1771.49
281.65	1624.04
281.86	1658.85
282.08	1626.09
282.29	1845.22
282.51	1626.09
282.73	1656.81
282.94	1691.62
283.16	1656.81
283.37	1812.45
283.59	1705.96
283.80	1652.71
284.02	1683.43
284.23	1710.05
284.45	1691.62
284.66	1538.02
284.88	1662.95
285.09	1740.77
285.31	1673.19
285.52	1691.62
285.74	1658.85
285.95	1726.44
286.17	1667.05
286.38	1681.38
286.60	1685.48
286.81	1654.76
287.03	1636.33
287.24	1712.10
287.46	1724.39
287.67	1718.25
287.89	1759.21
288.10	1671.14
288.32	1734.63
288.53	1751.01
288.75	1724.39
288.96	1724.39
289.18	1685.48
289.39	1675.24
289.61	1712.10
289.82	1773.54
290.04	1800.16
290.25	1675.24
290.47	1779.68
290.68	1621.99
290.90	1791.97
291.11	1650.66
291.33	1730.53
291.54	1699.81
291.76	1693.67
291.97	1751.01
292.18	1673.19
292.40	1671.14
292.61	1658.85
292.83	1742.82
293.04	1718.25
293.26	1718.25
293.47	1687.53
293.69	1693.67
293.90	1675.24
294.12	1759.21
294.33	1685.48
294.55	1689.57
294.76	1720.29
294.97	1732.58
295.19	1812.45
295.40	1611.75
295.62	1726.44
295.83	1763.30
296.05	1695.72
296.26	1794.02
296.48	1658.85
296.69	1701.86
296.90	1665.00
297.12	1769.44
297.33	1775.59
297.55	1714.15
297.76	1714.15
297.98	1761.25
298.19	1777.64
298.41	1755.11
298.62	1751.01
298.83	1796.07
299.05	1636.33
299.26	1652.71
299.48	1609.70
299.69	1697.77
299.90	1703.91
300.12	1658.85
300.33	1728.49
300.55	1681.38
300.76	1771.49
300.98	1558.50
301.19	1685.48
301.40	1695.72
301.62	1685.48
301.83	1724.39
302.05	1673.19
302.26	1753.06
302.47	1683.43
302.69	1638.38
302.90	1650.66
303.12	1615.85
303.33	1660.90
303.54	1849.32
303.76	1621.99
303.97	1683.43
304.19	1701.86
304.40	1585.13
304.61	1761.25
304.83	1877.99
305.04	1724.39
305.26	1751.01
305.47	1654.76
305.68	1751.01
305.90	1628.14
306.11	1681.38
306.33	1636.33
306.54	1689.57
306.75	1646.57
306.97	1578.98
307.18	1609.70
307.39	1599.46
307.61	1755.11
307.82	1705.96
308.04	1746.92
308.25	1679.33
308.46	1796.07
308.68	1697.77
308.89	1701.86
309.10	1755.11
309.32	1728.49
309.53	1736.68
309.74	1691.62
309.96	1693.67
310.17	1804.26
310.39	1605.61
310.60	1791.97
310.81	1761.25
311.03	1634.28
311.24	1730.53
311.45	1691.62
311.67	1832.93
311.88	1679.33
312.09	1611.75
312.31	1607.66
312.52	1736.68
312.73	1658.85
312.95	1693.67
313.16	1607.66
313.37	1763.30
313.59	1679.33
313.80	1802.21
314.01	1787.88
314.23	1701.86
314.44	1597.42
314.65	1607.66
314.87	1578.98
315.08	1572.84
315.29	1628.14
315.51	1607.66
315.72	1640.42
315.93	1824.74
316.15	1787.88
316.36	1644.52
316.57	1699.81
316.79	1748.97
317.00	1730.53
317.21	1753.06
317.43	1675.24
317.64	1673.19
317.85	1701.86
318.07	1601.51
318.28	1640.42
318.49	1767.40
318.70	1884.13
318.92	1812.45
319.13	1861.60
319.34	1873.89
319.56	1800.16
319.77	1738.73
319.98	1753.06
320.20	1789.92
320.41	1761.25
320.62	1742.82
320.83	1665.00
321.05	1814.50
321.26	1771.49
321.47	1730.53
321.69	1765.35
321.90	1595.37
322.11	1699.81
322.32	1705.96
322.54	1697.77
322.75	1642.47
322.96	1812.45
323.18	1558.50
323.39	1519.59
323.60	1665.00
323.81	1640.42
324.03	1640.42
324.24	1703.91
324.45	1691.62
324.66	1644.52
324.88	1734.63
325.09	1830.88
325.30	1689.57
325.52	1738.73
325.73	1732.58
325.94	1730.53
326.15	1621.99
326.37	1648.61
326.58	1751.01
326.79	1802.21
327.00	1705.96
327.22	1652.71
327.43	1644.52
327.64	1609.70
327.85	1703.91
328.07	1730.53
328.28	1816.55
328.49	1632.23
328.70	1638.38
328.92	1734.63
329.13	1665.00
329.34	1746.92
329.55	1767.40
329.76	1722.34
329.98	1636.33
330.19	1810.40
330.40	1720.29
330.61	1757.16
330.83	1746.92
331.04	1642.47
331.25	1615.85
331.46	1714.15
331.68	1644.52
331.89	1775.59
332.10	1748.97
332.31	1554.41
332.52	1675.24
332.74	1677.29
332.95	1656.81
333.16	1751.01
333.37	1699.81
333.58	1609.70
333.80	1710.05
334.01	1624.04
334.22	1634.28
334.43	1636.33
334.64	1660.90
334.86	1656.81
335.07	1636.33
335.28	1796.07
335.49	1634.28
335.70	1796.07
335.92	1767.40
336.13	1843.17
336.34	1724.39
336.55	1673.19
336.76	1638.38
336.98	1611.75
337.19	1689.57
337.40	1771.49
337.61	1830.88
337.82	1701.86
338.04	1841.12
338.25	1576.94
338.46	1667.05
338.67	1615.85
338.88	1660.90
339.09	1658.85
339.31	1693.67
339.52	1619.94
339.73	1695.72
339.94	1724.39
340.15	1748.97
340.36	1644.52
340.58	1722.34
340.79	1636.33
341.00	1781.73
341.21	1617.90
341.42	1834.98
341.63	1624.04
341.85	1673.19
342.06	1740.77
342.27	1628.14
342.48	1714.15
342.69	1658.85
342.90	1695.72
343.12	1667.05
343.33	1689.57
343.54	1701.86
343.75	1669.09
343.96	1671.14
344.17	1599.46
344.38	1685.48
344.60	1599.46
344.81	1701.86
345.02	1757.16
345.23	1748.97
345.44	1812.45
345.65	1677.29
345.86	1689.57
346.07	1669.09
346.29	1673.19
346.50	1726.44
346.71	1675.24
346.92	1738.73
347.13	1843.17
347.34	1683.43
347.55	1656.81
347.76	1718.25
347.98	1599.46
348.19	1615.85
348.40	1773.54
348.61	1632.23
348.82	1771.49
349.03	1769.44
349.24	1646.57
349.45	1781.73
349.66	1591.27
349.88	1724.39
350.09	1693.67
350.30	1765.35
350.51	1732.58
350.72	1732.58
350.93	1732.58
351.14	1656.81
351.35	1744.87
351.56	1640.42
351.77	1662.95
351.99	1660.90
352.20	1816.55
352.41	1744.87
352.62	1613.80
352.83	1681.38
353.04	1753.06
353.25	1701.86
353.46	1734.63
353.67	1697.77
353.88	1566.70
354.09	1646.57
354.30	1642.47
354.52	1710.05
354.73	1732.58
354.94	1648.61
355.15	1695.72
355.36	1765.35
355.57	1681.38
355.78	1669.09
355.99	1660.90
356.20	1705.96
356.41	1761.25
356.62	1708.01
356.83	1773.54
357.04	1738.73
357.25	1607.66
357.46	1710.05
357.68	1527.78
357.89	1644.52
358.10	1732.58
358.31	1677.29
358.52	1685.48
358.73	1650.66
358.94	1656.81
359.15	1648.61
359.36	1720.29
359.57	1634.28
359.78	1716.20
359.99	1630.18
360.20	1693.67
360.41	1660.90
360.62	1681.38
360.83	1765.35
361.04	1695.72
361.25	1656.81
361.46	1783.78
361.67	1718.25
361.88	1748.97
362.09	1683.43
362.30	1767.40
362.51	1679.33
362.72	1695.72
362.93	1785.83
363.14	1763.30
363.35	1759.21
363.56	1648.61
363.78	1755.11
363.99	1789.92
364.20	1714.15
364.41	1718.25
364.62	1748.97
364.83	1667.05
365.04	1630.18
365.25	1656.81
365.46	1808.36
365.67	1626.09
365.88	1648.61
366.09	1658.85
366.30	1628.14
366.51	1685.48
366.72	1654.76
366.93	1736.68
367.14	1714.15
367.35	1757.16
367.56	1679.33
367.77	1744.87
367.98	1705.96
368.18	1773.54
368.39	1728.49
368.60	1718.25
368.81	1738.73
369.02	1650.66
369.23	1746.92
369.44	1644.52
369.65	1689.57
369.86	1681.38
370.07	1710.05
370.28	1689.57
370.49	1818.60
370.70	1740.77
370.91	1636.33
371.12	1583.08
371.33	1853.41
371.54	1748.97
371.75	1785.83
371.96	1591.27
372.17	1681.38
372.38	1679.33
372.59	1775.59
372.80	1769.44
373.01	1669.09
373.22	1708.01
373.43	1742.82
373.64	1671.14
373.85	1775.59
374.06	1757.16
374.26	1748.97
374.47	1726.44
374.68	1787.88
374.89	1718.25
375.10	1644.52
375.31	1730.53
375.52	1732.58
375.73	1738.73
375.94	1683.43
376.15	1808.36
376.36	1691.62
376.57	1624.04
376.78	1650.66
376.99	1650.66
377.20	1767.40
377.40	1652.71
377.61	1834.98
377.82	1648.61
378.03	1726.44
378.24	1753.06
378.45	1763.30
378.66	1789.92
378.87	1611.75
379.08	1615.85
379.29	1638.38
379.50	1722.34
379.71	1730.53
379.91	1748.97
380.12	1703.91
380.33	1705.96
380.54	1744.87
380.75	1691.62
380.96	1642.47
381.17	1769.44
381.38	1714.15
381.59	1734.63
381.80	1718.25
382.00	1834.98
382.21	1773.54
382.42	1857.51
382.63	1865.70
382.84	1677.29
383.05	1789.92
383.26	1740.77
383.47	1732.58
383.68	1800.16
383.88	1724.39
384.09	1705.96
384.30	1769.44
384.51	1685.48
384.72	1644.52
384.93	1675.24
385.14	1632.23
385.35	1748.97
385.55	1593.32
385.76	1716.20
385.97	1744.87
386.18	1732.58
386.39	1730.53
386.60	1646.57
386.81	1626.09
387.02	1662.95
387.22	1665.00
387.43	1808.36
387.64	1794.02
387.85	1789.92
388.06	2306.01
388.27	4255.68
388.48	6672.28
388.68	8388.48
388.89	9643.88
389.10	9785.19
389.31	8681.34
389.52	7604.11
389.73	6678.43
389.93	6156.19
390.14	5615.53
390.35	5097.39
390.56	4483.00
390.77	3788.74
390.98	3026.90
391.18	2498.52
391.39	2097.12
391.60	1908.71
391.81	1804.26
392.02	1662.95
392.23	1855.46
392.43	1712.10
392.64	1828.84
392.85	1738.73
393.06	1834.98
393.27	1726.44
393.47	1578.98
393.68	1738.73
393.89	1675.24
394.10	1800.16
394.31	1673.19
394.52	1617.90
394.72	1654.76
394.93	1806.31
395.14	1683.43
395.35	1710.05
395.56	1703.91
395.76	1730.53
395.97	1789.92
396.18	1796.07
396.39	1828.84
396.60	2011.11
396.80	1841.12
397.01	1857.51
397.22	1800.16
397.43	1851.36
397.64	1728.49
397.84	1761.25
398.05	1859.56
398.26	1744.87
398.47	1783.78
398.67	1710.05
398.88	1722.34
399.09	1814.50
399.30	1632.23
399.51	1724.39
399.71	1611.75
399.92	1701.86
400.13	1726.44
400.34	1658.85
400.54	1724.39
400.75	1775.59
400.96	1699.81
401.17	1853.41
401.37	1685.48
401.58	1632.23
401.79	1710.05
402.00	1822.69
402.21	2047.97
402.41	1923.04
402.62	2054.11
402.83	2015.20
403.04	1976.29
403.24	2039.78
403.45	1855.46
403.66	1896.42
403.87	1902.56
404.07	1877.99
404.28	1939.43
404.49	1951.71
404.70	1744.87
404.90	1769.44
405.11	1691.62
405.32	1746.92
405.52	1732.58
405.73	1654.76
405.94	1693.67
406.15	1714.15
406.35	1779.68
406.56	1841.12
406.77	1697.77
406.98	1675.24
407.18	1589.22
407.39	1794.02
407.60	1746.92
407.80	1693.67
408.01	1728.49
408.22	1654.76
408.43	1574.89
408.63	1710.05
408.84	1814.50
409.05	1736.68
409.25	1646.57
409.46	1634.28
409.67	1710.05
409.88	1669.09
410.08	1751.01
410.29	1619.94
410.50	1708.01
410.70	1681.38
410.91	1673.19
411.12	1757.16
411.32	1710.05
411.53	1699.81
411.74	1818.60
411.95	1820.64
412.15	1798.12
412.36	1794.02
412.57	1726.44
412.77	1781.73
412.98	1705.96
413.19	1683.43
413.39	1691.62
413.60	1806.31
413.81	1841.12
414.01	1681.38
414.22	1781.73
414.43	1697.77
414.63	1800.16
414.84	1769.44
415.05	1628.14
415.25	1697.77
415.46	1722.34
415.67	1701.86
415.87	1751.01
416.08	1646.57
416.29	1611.75
416.49	1814.50
416.70	1712.10
416.91	1652.71
417.11	1734.63
417.32	1773.54
417.53	1714.15
417.73	1714.15
417.94	1632.23
418.15	1697.77
418.35	1662.95
418.56	1775.59
418.77	1859.56
418.97	1732.58
419.18	1650.66
419.38	1562.60
419.59	1630.18
419.80	1757.16
420.00	1677.29
420.21	1693.67
420.42	1693.67
420.62	1714.15
420.83	1624.04
421.04	1648.61
421.24	1646.57
421.45	1677.29
421.65	1708.01
421.86	1703.91
422.07	1775.59
422.27	1724.39
422.48	1705.96
422.69	1673.19
422.89	1740.77
423.10	1677.29
423.30	1636.33
423.51	1677.29
423.72	1716.20
423.92	1755.11
424.13	1605.61
424.33	1685.48
424.54	1730.53
424.75	1712.10
424.95	1769.44
425.16	1734.63
425.36	1665.00
425.57	1681.38
425.78	1779.68
425.98	1701.86
426.19	1689.57
426.39	1699.81
426.60	1736.68
426.81	1806.31
427.01	1673.19
427.22	1683.43
427.42	1609.70
427.63	1716.20
427.83	1726.44
428.04	1769.44
428.25	1742.82
428.45	1783.78
428.66	1787.88
428.86	1681.38
429.07	1693.67
429.28	1773.54
429.48	1652.71
429.69	1681.38
429.89	1765.35
430.10	1638.38
430.30	1728.49
430.51	1757.16
430.71	1611.75
430.92	1691.62
431.13	1724.39
431.33	1722.34
431.54	1693.67
431.74	1828.84
431.95	1798.12
432.15	1605.61
432.36	1728.49
432.56	1771.49
432.77	1822.69
432.98	1777.64
433.18	1744.87
433.39	1695.72
433.59	1724.39
433.80	1841.12
434.00	1806.31
434.21	1652.71
434.41	1648.61
434.62	1877.99
434.82	1726.44
435.03	1626.09
435.23	1763.30
435.44	1681.38
435.64	1669.09
435.85	1728.49
436.06	1765.35
436.26	1730.53
436.47	1771.49
436.67	1654.76
436.88	1734.63
437.08	1732.58
437.29	1759.21
437.49	1757.16
437.70	1787.88
437.90	1753.06
438.11	1853.41
438.31	1771.49
438.52	1800.16
438.72	1830.88
438.93	1886.18
439.13	1765.35
439.34	1791.97
439.54	1677.29
439.75	1828.84
439.95	1748.97
440.16	1669.09
440.36	1777.64
440.57	1816.55
440.77	1699.81
440.98	1763.30
441.18	1759.21
441.39	1703.91
441.59	1708.01
441.80	1777.64
442.00	1652.71
442.21	1826.79
442.41	1667.05
442.62	1771.49
442.82	1609.70
443.02	1759.21
443.23	1796.07
443.43	1773.54
443.64	1789.92
443.84	1644.52
444.05	1765.35
444.25	1675.24
444.46	1728.49
444.66	1771.49
444.87	1736.68
445.07	1607.66
445.28	1753.06
445.48	1794.02
445.69	1828.84
445.89	1783.78
446.09	1759.21
446.30	1945.57
446.50	2617.30
446.71	3690.44
446.91	4308.93
447.12	4698.04
447.32	4786.10
447.53	4196.29
447.73	3936.20
447.93	3575.75
448.14	3352.52
448.34	3164.11
448.55	2883.54
448.75	2875.35
448.96	2715.61
449.16	2441.18
449.36	2299.87
449.57	2013.15
449.77	1867.75
449.98	1728.49
450.18	1814.50
450.39	1896.42
450.59	1755.11
450.79	1724.39
451.00	1703.91
451.20	1759.21
451.41	1638.38
451.61	1703.91
451.81	1624.04
452.02	1650.66
452.22	1701.86
452.43	1794.02
452.63	1658.85
452.84	1726.44
453.04	1685.48
453.24	1738.73
453.45	1675.24
453.65	1675.24
453.86	1759.21
454.06	1822.69
454.26	1732.58
454.47	1597.42
454.67	1746.92
454.87	1755.11
455.08	1689.57
455.28	1834.98
455.49	1781.73
455.69	1722.34
455.89	1871.84
456.10	1796.07
456.30	1734.63
456.51	1755.11
456.71	1720.29
456.91	1742.82
457.12	1748.97
457.32	1812.45
457.52	1689.57
457.73	1732.58
457.93	1859.56
458.14	1716.20
458.34	1640.42
458.54	1710.05
458.75	1697.77
458.95	1734.63
459.15	1697.77
459.36	1765.35
459.56	1787.88
459.76	1834.98
459.97	1685.48
460.17	1718.25
460.37	1738.73
460.58	1742.82
460.78	1732.58
460.99	1724.39
461.19	1753.06
461.39	1640.42
461.60	1738.73
461.80	1787.88
462.00	1650.66
462.21	1724.39
462.41	1710.05
462.61	1656.81
462.82	1638.38
463.02	1826.79
463.22	1718.25
463.43	1791.97
463.63	1699.81
463.83	1869.80
464.04	1658.85
464.24	1773.54
464.44	1658.85
464.64	1703.91
464.85	1712.10
465.05	1775.59
465.25	1822.69
465.46	1726.44
465.66	1738.73
465.86	1728.49
466.07	1722.34
466.27	1808.36
466.47	1669.09
466.68	1578.98
466.88	1816.55
467.08	1781.73
467.29	1773.54
467.49	1773.54
467.69	1769.44
467.89	1718.25
468.10	1714.15
468.30	1705.96
468.50	1779.68
468.71	1687.53
468.91	1648.61
469.11	1777.64
469.31	1765.35
469.52	1646.57
469.72	1808.36
469.92	1777.64
470.13	1703.91
470.33	1738.73
470.53	1779.68
470.73	2041.82
470.94	2248.67
471.14	2326.49
471.34	2525.15
471.54	2396.12
471.75	2275.29
471.95	2189.28
472.15	2117.60
472.36	2170.85
472.56	2086.88
472.76	2017.25
472.96	1986.53
473.17	1877.99
473.37	1904.61
473.57	1714.15
473.77	1808.36
473.98	1794.02
474.18	1714.15
474.38	1964.00
474.58	1689.57
474.79	1667.05
474.99	1777.64
475.19	1808.36
475.39	1636.33
475.60	1726.44
475.80	1789.92
476.00	1681.38
476.20	1767.40
476.41	1714.15
476.61	1806.31
476.81	1875.94
477.01	1609.70
477.21	1824.74
477.42	1751.01
477.62	1648.61
477.82	1785.83
478.02	1675.24
478.23	1767.40
478.43	1763.30
478.63	1687.53
478.83	1687.53
479.03	1671.14
479.24	1753.06
479.44	1794.02
479.64	1626.09
479.84	1597.42
480.04	1671.14
480.25	1720.29
480.45	1757.16
480.65	1746.92
480.85	1761.25
481.06	1646.57
481.26	1677.29
481.46	1669.09
481.66	1783.78
481.86	1650.66
482.06	1804.26
482.27	1742.82
482.47	1683.43
482.67	1658.85
482.87	1791.97
483.07	1705.96
483.28	1726.44
483.48	1632.23
483.68	1658.85
483.88	1628.14
484.08	1660.90
484.29	1607.66
484.49	1693.67
484.69	1699.81
484.89	1816.55
485.09	1755.11
485.29	1730.53
485.50	1716.20
485.70	1611.75
485.90	1734.63
486.10	1728.49
486.30	1744.87
486.50	1742.82
486.71	1716.20
486.91	1771.49
487.11	1730.53
487.31	1652.71
487.51	1787.88
487.71	1626.09
487.91	1691.62
488.12	1677.29
488.32	1576.94
488.52	1679.33
488.72	1669.09
488.92	1738.73
489.12	1796.07
489.32	1787.88
489.53	1730.53
489.73	1626.09
489.93	1798.12
490.13	1687.53
490.33	1652.71
490.53	1701.86
490.73	1759.21
490.94	1671.14
491.14	1775.59
491.34	1867.75
491.54	2179.04
491.74	2521.05
491.94	2879.44
492.14	3051.47
492.34	2940.88
492.54	2783.19
492.75	2471.90
492.95	2406.36
493.15	2406.36
493.35	2365.40
493.55	2254.81
493.75	2062.30
493.95	2150.37
494.15	1996.77
494.35	2000.87
494.56	1851.36
494.76	1759.21
494.96	1804.26
495.16	1820.64
495.36	1675.24
495.56	1816.55
495.76	1730.53
495.96	1689.57
496.16	1621.99
496.36	1765.35
496.56	1789.92
496.77	1683.43
496.97	1716.20
497.17	1753.06
497.37	1685.48
497.57	1777.64
497.77	1761.25
497.97	1708.01
498.17	1710.05
498.37	1677.29
498.57	1738.73
498.77	1673.19
498.97	1734.63
499.17	1849.32
499.38	1646.57
499.58	1773.54
499.78	1718.25
499.98	1763.30
500.18	1781.73
500.38	1751.01
500.58	1843.17
500.78	2475.99
500.98	4495.29
501.18	5738.41
501.38	6705.05
501.58	6963.09
501.78	6670.23
501.98	5564.33
502.18	4941.75
502.38	4325.31
502.58	4030.40
502.78	3741.64
502.98	3614.66
503.18	3399.63
503.38	3188.69
503.59	2830.29
503.79	2691.03
503.99	2453.47
504.19	2303.96
504.39	2242.53
504.59	2189.28
504.79	2113.50
504.99	2009.06
505.19	1910.75
505.39	1949.67
505.59	1964.00
505.79	1949.67
505.99	1810.40
506.19	1773.54
506.39	1892.32
506.59	1746.92
506.79	1677.29
506.99	1867.75
507.19	1708.01
507.39	1802.21
507.59	1697.77
507.79	1742.82
507.99	1658.85
508.19	1738.73
508.39	1765.35
508.59	1665.00
508.79	1820.64
508.99	1884.13
509.19	1685.48
509.39	1783.78
509.59	1658.85
509.79	1736.68
509.99	1753.06
510.19	1806.31
510.39	1849.32
510.59	1734.63
510.79	1744.87
510.99	1724.39
511.19	1765.35
511.39	1812.45
511.59	1738.73
511.79	1791.97
511.99	1832.93
512.19	1789.92
512.38	1765.35
512.58	1693.67
512.78	1701.86
512.98	1771.49
513.18	1798.12
513.38	1669.09
513.58	1814.50
513.78	1665.00
513.98	1746.92
514.18	1658.85
514.38	1779.68
514.58	1734.63
514.78	1728.49
514.98	1636.33
515.18	1716.20
515.38	1667.05
515.58	1839.08
515.78	1703.91
515.98	1724.39
516.18	1738.73
516.38	1654.76
516.57	1708.01
516.77	1759.21
516.97	1714.15
517.17	1728.49
517.37	1660.90
517.57	1808.36
517.77	1775.59
517.97	1683.43
518.17	1824.74
518.37	1665.00
518.57	1712.10
518.77	1718.25
518.97	1679.33
519.16	1740.77
519.36	1728.49
519.56	1746.92
519.76	1761.25
519.96	1689.57
520.16	1822.69
520.36	1744.87
520.56	1763.30
520.76	1738.73
520.96	1701.86
521.16	1794.02
521.35	1724.39
521.55	1849.32
521.75	1691.62
521.95	1701.86
522.15	1695.72
522.35	1658.85
522.55	1624.04
522.75	1720.29
522.95	1691.62
523.14	1697.77
523.34	1738.73
523.54	1746.92
523.74	1726.44
523.94	1742.82
524.14	1636.33
524.34	1724.39
524.54	1818.60
524.73	1732.58
524.93	1722.34
525.13	1730.53
525.33	1681.38
525.53	1789.92
525.73	1646.57
525.93	1718.25
526.13	1638.38
526.32	1822.69
526.52	1814.50
526.72	1818.60
526.92	1720.29
527.12	1740.77
527.32	1652.71
527.52	1781.73
527.71	1685.48
527.91	1660.90
528.11	1689.57
528.31	1722.34
528.51	1646.57
528.71	1726.44
528.90	1832.93
529.10	1787.88
529.30	1794.02
529.50	1613.80
529.70	1734.63
529.90	1712.10
530.09	1720.29
530.29	1705.96
530.49	1617.90
530.69	1890.28
530.89	1705.96
531.09	1751.01
531.28	1740.77
531.48	1812.45
531.68	1734.63
531.88	1724.39
532.08	1812.45
532.28	1705.96
532.47	1746.92
532.67	1740.77
532.87	1740.77
533.07	1667.05
533.27	1771.49
533.46	1777.64
533.66	1710.05
533.86	1675.24
534.06	1742.82
534.26	1689.57
534.45	1724.39
534.65	1765.35
534.85	1789.92
535.05	1671.14
535.25	1759.21
535.44	1564.65
535.64	1744.87
535.84	1679.33
536.04	1724.39
536.24	1687.53
536.43	1703.91
536.63	1730.53
536.83	1703.91
537.03	1714.15
537.22	1699.81
537.42	1701.86
537.62	1730.53
537.82	1624.04
538.02	1748.97
538.21	1861.60
538.41	1931.23
538.61	1710.05
538.81	1800.16
539.00	1771.49
539.20	1677.29
539.40	1675.24
539.60	1728.49
539.79	1773.54
539.99	1667.05
540.19	1785.83
540.39	1712.10
540.58	1736.68
540.78	1763.30
540.98	1775.59
541.18	1746.92
541.37	1736.68
541.57	1787.88
541.77	1787.88
541.97	1642.47
542.16	1540.07
542.36	1693.67
542.56	1687.53
542.76	1837.03
542.95	1808.36
543.15	1679.33
543.35	1718.25
543.54	1656.81
543.74	1765.35
543.94	1798.12
544.14	1585.13
544.33	1759.21
544.53	1724.39
544.73	1748.97
544.93	1716.20
545.12	1650.66
545.32	1746.92
545.52	1759.21
545.71	1695.72
545.91	1728.49
546.11	1636.33
546.30	1714.15
546.50	1767.40
546.70	1785.83
546.90	1714.15
547.09	1714.15
547.29	1802.21
547.49	1847.27
547.68	1714.15
547.88	1701.86
548.08	1824.74
548.27	2095.07
548.47	1691.62
548.67	1650.66
548.87	1755.11
549.06	1611.75
549.26	1757.16
549.46	1769.44
549.65	1724.39
549.85	1763.30
550.05	1812.45
550.24	1714.15
550.44	1779.68
550.64	1683.43
550.83	1718.25
551.03	1804.26
551.23	1765.35
551.42	1779.68
551.62	1767.40
551.82	1765.35
552.01	1708.01
552.21	1771.49
552.41	1769.44
552.60	1767.40
552.80	1701.86
553.00	1742.82
553.19	1730.53
553.39	1812.45
553.59	1593.32
553.78	1794.02
553.98	1722.34
554.17	1667.05
554.37	1775.59
554.57	1736.68
554.76	1656.81
554.96	1693.67
555.16	1726.44
555.35	1697.77
555.55	1798.12
555.75	1722.34
555.94	1708.01
556.14	1628.14
556.33	1800.16
556.53	1654.76
556.73	1775.59
556.92	1779.68
557.12	1869.80
557.32	1857.51
557.51	1873.89
557.71	1777.64
557.90	1851.36
558.10	1800.16
558.30	1722.34
558.49	1701.86
558.69	1755.11
558.88	1794.02
559.08	1748.97
559.28	1703.91
559.47	1734.63
559.67	1712.10
559.86	1865.70
560.06	1738.73
560.26	1806.31
560.45	1720.29
560.65	1755.11
560.84	1816.55
561.04	1710.05
561.24	1697.77
561.43	1710.05
561.63	1812.45
561.82	1730.53
562.02	1769.44
562.22	1658.85
562.41	1662.95
562.61	1773.54
562.80	1755.11
563.00	1912.80
563.19	1769.44
563.39	1720.29
563.59	1808.36
563.78	1708.01
563.98	1628.14
564.17	1673.19
564.37	1607.66
564.56	1728.49
564.76	1689.57
564.96	1751.01
565.15	1728.49
565.35	1880.04
565.54	1646.57
565.74	1820.64
565.93	1728.49
566.13	1699.81
566.32	1832.93
566.52	1783.78
566.71	1697.77
566.91	1699.81
567.11	1724.39
567.30	1812.45
567.50	1765.35
567.69	1757.16
567.89	1748.97
568.08	1748.97
568.28	1683.43
568.47	1671.14
568.67	1701.86
568.86	1746.92
569.06	1773.54
569.25	1830.88
569.45	1642.47
569.64	1679.33
569.84	1697.77
570.04	1718.25
570.23	1703.91
570.43	1775.59
570.62	1730.53
570.82	1880.04
571.01	1669.09
571.21	1720.29
571.40	1675.24
571.60	1785.83
571.79	1708.01
571.99	1710.05
572.18	1671.14
572.38	1683.43
572.57	1767.40
572.77	1757.16
572.96	1869.80
573.16	1712.10
573.35	1796.07
573.55	1857.51
573.74	1771.49
573.94	1716.20
574.13	1679.33
574.33	1744.87
574.52	1736.68
574.71	1697.77
574.91	1871.84
575.10	1640.42
575.30	1667.05
575.49	1677.29
575.69	1669.09
575.88	1746.92
576.08	1665.00
576.27	1732.58
576.47	1708.01
576.66	1845.22
576.86	1742.82
577.05	1701.86
577.25	1789.92
577.44	1900.52
577.64	1695.72
577.83	1839.08
578.02	1730.53
578.22	1859.56
578.41	1812.45
578.61	1718.25
578.80	1595.37
579.00	1798.12
579.19	1732.58
579.39	1775.59
579.58	1736.68
579.77	1802.21
579.97	1804.26
580.16	1886.18
580.36	1830.88
580.55	1755.11
580.75	1775.59
580.94	1728.49
581.13	1882.08
581.33	1822.69
581.52	1720.29
581.72	1931.23
581.91	1791.97
582.11	1691.62
582.30	1875.94
582.49	1769.44
582.69	1796.07
582.88	1796.07
583.08	1812.45
583.27	1761.25
583.47	1734.63
583.66	1812.45
583.85	1665.00
584.05	1724.39
584.24	1783.78
584.44	1785.83
584.63	1847.27
584.82	1804.26
585.02	1779.68
585.21	1775.59
585.41	1798.12
585.60	1783.78
585.79	1841.12
585.99	1961.95
586.18	1869.80
586.37	2133.98
586.57	3366.86
586.76	9795.43
586.96	24266.38
587.15	34172.41
587.34	40279.45
587.54	42063.23
587.73	36683.22
587.93	26205.81
588.12	21477.05
588.31	18263.79
588.51	16340.74
588.70	15281.94
588.89	14126.89
589.09	12642.11
589.28	10995.54
589.47	9355.12
589.67	7913.35
589.86	6432.67
590.06	4966.32
590.25	3925.96
590.44	3121.10
590.64	2674.65
590.83	2279.39
591.02	2080.74
591.22	1961.95
591.41	1882.08
591.60	1802.21
591.80	2050.02
591.99	1742.82
592.18	1726.44
592.38	1710.05
592.57	1738.73
592.76	1775.59
592.96	1785.83
593.15	1757.16
593.34	1828.84
593.54	1755.11
593.73	1789.92
593.92	1806.31
594.12	1718.25
594.31	1693.67
594.50	1894.37
594.70	1746.92
594.89	1843.17
595.08	1658.85
595.28	1779.68
595.47	1955.81
595.66	1734.63
595.86	1652.71
596.05	1738.73
596.24	1683.43
596.43	1832.93
596.63	1839.08
596.82	1800.16
597.01	1800.16
597.21	1918.95
597.40	1742.82
597.59	1740.77
597.79	1796.07
597.98	1779.68
598.17	1759.21
598.36	1759.21
598.56	1755.11
598.75	1806.31
598.94	1708.01
599.14	1738.73
599.33	1695.72
599.52	1748.97
599.71	1787.88
599.91	1871.84
600.10	1796.07
600.29	1763.30
600.48	1828.84
600.68	1728.49
600.87	1742.82
601.06	1732.58
601.26	1742.82
601.45	1763.30
601.64	1769.44
601.83	1849.32
602.03	1789.92
602.22	1693.67
602.41	1871.84
602.60	1816.55
602.80	1853.41
602.99	1755.11
603.18	1658.85
603.37	1710.05
603.57	1748.97
603.76	1865.70
603.95	1755.11
604.14	1689.57
604.34	1665.00
604.53	1718.25
604.72	1701.86
604.91	1730.53
605.10	1746.92
605.30	1640.42
605.49	1822.69
605.68	1808.36
605.87	1736.68
606.07	1705.96
606.26	1744.87
606.45	1732.58
606.64	1771.49
606.84	1681.38
607.03	1665.00
607.22	1740.77
607.41	1781.73
607.60	1636.33
607.80	1841.12
607.99	1730.53
608.18	1726.44
608.37	1720.29
608.56	1611.75
608.76	1755.11
608.95	1875.94
609.14	1738.73
609.33	1728.49
609.52	1773.54
609.72	1701.86
609.91	1777.64
610.10	1775.59
610.29	1777.64
610.48	1798.12
610.68	1765.35
610.87	1757.16
611.06	1712.10
611.25	1712.10
611.44	1834.98
611.63	1681.38
611.83	1769.44
612.02	1646.57
612.21	1806.31
612.40	1656.81
612.59	1638.38
612.79	1689.57
612.98	1671.14
613.17	1779.68
613.36	1675.24
613.55	1961.95
613.74	1652.71
613.93	1605.61
614.13	1759.21
614.32	1699.81
614.51	1742.82
614.70	1648.61
614.89	1765.35
615.08	1681.38
615.28	2097.12
615.47	1705.96
615.66	1705.96
615.85	1720.29
616.04	1859.56
616.23	1665.00
616.42	1685.48
616.62	1785.83
616.81	1759.21
617.00	1740.77
617.19	1744.87
617.38	1681.38
617.57	1755.11
617.76	1775.59
617.95	1763.30
618.15	1705.96
618.34	1785.83
618.53	1648.61
618.72	1757.16
618.91	1808.36
619.10	1724.39
619.29	1710.05
619.48	1701.86
619.68	1699.81
619.87	1685.48
620.06	1652.71
620.25	1699.81
620.44	1607.66
620.63	1765.35
620.82	1746.92
621.01	1722.34
621.20	1773.54
621.39	1787.88
621.59	1681.38
621.78	1730.53
621.97	1681.38
622.16	1789.92
622.35	1738.73
622.54	1738.73
622.73	1693.67
622.92	1615.85
623.11	1822.69
623.30	1705.96
623.49	1744.87
623.68	1691.62
623.88	1824.74
624.07	1671.14
624.26	1728.49
624.45	1751.01
624.64	1691.62
624.83	1724.39
625.02	1755.11
625.21	1685.48
625.40	1650.66
625.59	1814.50
625.78	1728.49
625.97	1779.68
626.16	1736.68
626.35	1677.29
626.54	1679.33
626.74	1798.12
626.93	1634.28
627.12	1757.16
627.31	1861.60
627.50	1736.68
627.69	1746.92
627.88	1683.43
628.07	1726.44
628.26	1636.33
628.45	1753.06
628.64	1683.43
628.83	1787.88
629.02	1673.19
629.21	1753.06
629.40	1771.49
629.59	1718.25
629.78	1728.49
629.97	1757.16
630.16	1701.86
630.35	1671.14
630.54	1738.73
630.73	1650.66
630.92	1716.20
631.11	1646.57
631.30	1753.06
631.49	1744.87
631.68	1617.90
631.87	1714.15
632.06	1703.91
632.25	1851.36
632.44	1724.39
632.63	1720.29
632.82	1710.05
633.01	1681.38
633.20	1667.05
633.39	1652.71
633.58	1636.33
633.77	1718.25
633.96	1628.14
634.15	1708.01
634.34	1728.49
634.53	1669.09
634.72	1673.19
634.91	1628.14
635.10	1728.49
635.29	1736.68
635.48	1804.26
635.67	1695.72
635.86	1617.90
636.05	1818.60
636.24	1693.67
636.43	1722.34
636.62	1798.12
636.81	1564.65
637.00	1708.01
637.19	1763.30
637.38	1673.19
637.57	1648.61
637.76	1703.91
637.95	1693.67
638.14	1689.57
638.33	1687.53
638.52	1783.78
638.71	1673.19
638.89	1607.66
639.08	1789.92
639.27	1705.96
639.46	1701.86
639.65	1804.26
639.84	1734.63
640.03	1826.79
640.22	1697.77
640.41	1767.40
640.60	1640.42
640.79	1771.49
640.98	1716.20
641.17	1738.73
641.36	1718.25
641.55	1738.73
641.74	1650.66
641.92	1703.91
642.11	1652.71
642.30	1701.86
642.49	1636.33
642.68	1734.63
642.87	1705.96
643.06	1722.34
643.25	1650.66
643.44	1705.96
643.63	1746.92
643.82	1703.91
644.00	1675.24
644.19	1746.92
644.38	1611.75
644.57	1716.20
644.76	1699.81
644.95	1683.43
645.14	1683.43
645.33	1718.25
645.52	1761.25
645.71	1581.03
645.89	1636.33
646.08	1765.35
646.27	1708.01
646.46	1816.55
646.65	1617.90
646.84	1759.21
647.03	1671.14
647.22	1742.82
647.40	1710.05
647.59	1656.81
647.78	1654.76
647.97	1640.42
648.16	1693.67
648.35	1748.97
648.54	1767.40
648.73	1718.25
648.91	1806.31
649.10	1726.44
649.29	1693.67
649.48	1740.77
649.67	1726.44
649.86	1728.49
650.05	1632.23
650.23	1789.92
650.42	1605.61
650.61	1718.25
650.80	1705.96
650.99	1810.40
651.18	1761.25
651.36	1759.21
651.55	1689.57
651.74	1800.16
651.93	1703.91
652.12	1726.44
652.31	1740.77
652.49	1701.86
652.68	1665.00
652.87	1736.68
653.06	1693.67
653.25	1804.26
653.44	1669.09
653.62	1832.93
653.81	1699.81
654.00	1712.10
654.19	1718.25
654.38	1818.60
654.56	1667.05
654.75	1757.16
654.94	1767.40
655.13	1748.97
655.32	1685.48
655.51	1775.59
655.69	1665.00
655.88	1769.44
656.07	1617.90
656.26	1697.77
656.45	1703.91
656.63	1730.53
656.82	1755.11
657.01	1746.92
657.20	1679.33
657.38	1759.21
657.57	1652.71
657.76	1650.66
657.95	1746.92
658.14	1636.33
658.32	1728.49
658.51	1705.96
658.70	1634.28
658.89	1689.57
659.08	1685.48
659.26	1802.21
659.45	1652.71
659.64	1699.81
659.83	1681.38
660.01	1855.46
660.20	1703.91
660.39	1808.36
660.58	1660.90
660.76	1738.73
660.95	1578.98
661.14	1677.29
661.33	1634.28
661.51	1636.33
661.70	1652.71
661.89	1775.59
662.08	1632.23
662.26	1636.33
662.45	1642.47
662.64	1781.73
662.83	1765.35
663.01	1665.00
663.20	1656.81
663.39	1777.64
663.58	1730.53
663.76	1714.15
663.95	1783.78
664.14	1665.00
664.32	1572.84
664.51	1646.57
664.70	1533.93
664.89	1765.35
665.07	1636.33
665.26	1740.77
665.45	1636.33
665.64	1812.45
665.82	1767.40
666.01	1791.97
666.20	1673.19
666.38	1794.02
666.57	1845.22
666.76	2162.66
666.95	4399.04
667.13	10274.66
667.32	15005.47
667.51	17794.80
667.69	18781.92
667.88	17401.59
668.07	12232.52
668.25	9359.22
668.44	8073.09
668.63	7325.58
668.81	6762.39
669.00	6168.48
669.19	5631.91
669.38	4990.90
669.56	4421.56
669.75	4016.07
669.94	3368.91
670.12	2875.35
670.31	2523.10
670.50	2217.95
670.68	2058.21
670.87	1923.04
671.06	1806.31
671.24	1875.94
671.43	1834.98
671.62	1802.21
671.80	1738.73
671.99	1728.49
672.18	1697.77
672.36	1710.05
672.55	1810.40
672.74	1669.09
672.92	1679.33
673.11	1722.34
673.29	1642.47
673.48	1834.98
673.67	1714.15
673.85	1734.63
674.04	1724.39
674.23	1652.71
674.41	1726.44
674.60	1665.00
674.79	1650.66
674.97	1718.25
675.16	1775.59
675.34	1716.20
675.53	1701.86
675.72	1724.39
675.90	1828.84
676.09	1638.38
676.28	1710.05
676.46	1677.29
676.65	1693.67
676.83	1636.33
677.02	1675.24
677.21	1701.86
677.39	1734.63
677.58	1705.96
677.77	1710.05
677.95	1716.20
678.14	1710.05
678.32	1685.48
678.51	1730.53
678.70	1839.08
678.88	1648.61
679.07	1734.63
679.25	1638.38
679.44	1746.92
679.63	1681.38
679.81	1751.01
680.00	1802.21
680.18	1734.63
680.37	1810.40
680.55	1796.07
680.74	1621.99
680.93	1658.85
681.11	1738.73
681.30	1685.48
681.48	1714.15
681.67	1609.70
681.85	1652.71
682.04	1685.48
682.23	1751.01
682.41	1794.02
682.60	1652.71
682.78	1689.57
682.97	1740.77
683.15	1732.58
683.34	1740.77
683.53	1796.07
683.71	1650.66
683.90	1845.22
684.08	1800.16
684.27	1675.24
684.45	1710.05
684.64	1722.34
684.82	1638.38
685.01	1714.15
685.19	1681.38
685.38	1783.78
685.57	1757.16
685.75	1689.57
685.94	1603.56
686.12	1638.38
686.31	1665.00
686.49	1791.97
686.68	1646.57
686.86	1746.92
687.05	1736.68
687.23	1771.49
687.42	1677.29
687.60	1693.67
687.79	1730.53
687.97	1753.06
688.16	1787.88
688.34	1755.11
688.53	1603.56
688.71	1705.96
688.90	1742.82
689.08	1742.82
689.27	1671.14
689.45	1857.51
689.64	1822.69
689.82	1753.06
690.01	1677.29
690.19	1693.67
690.38	1697.77
690.56	1796.07
690.75	1644.52
690.93	1671.14
691.12	1685.48
691.30	1783.78
691.49	1624.04
691.67	1703.91
691.86	1851.36
692.04	1656.81
692.23	1673.19
692.41	1714.15
692.60	1804.26
692.78	1734.63
692.97	1640.42
693.15	1757.16
693.34	1851.36
693.52	1697.77
693.71	1652.71
693.89	1642.47
694.08	1650.66
694.26	1781.73
694.44	1728.49
694.63	1806.31
694.81	1732.58
695.00	1630.18
695.18	1787.88
695.37	1820.64
695.55	1687.53
695.74	1697.77
695.92	1685.48
696.10	1763.30
696.29	1675.24
696.47	1607.66
696.66	1583.08
696.84	1677.29
697.03	1673.19
697.21	1873.89
697.40	2230.24
697.58	1761.25
697.76	1693.67
697.95	1632.23
698.13	1683.43
698.32	1642.47
698.50	1662.95
698.68	1712.10
698.87	1695.72
699.05	1832.93
699.24	1671.14
699.42	1683.43
699.61	1701.86
699.79	1665.00
699.97	1679.33
700.16	1693.67
700.34	1708.01
700.53	1613.80
700.71	1861.60
700.89	1708.01
701.08	1654.76
701.26	1712.10
701.45	2133.98
701.63	1662.95
701.81	1683.43
702.00	1695.72
702.18	1630.18
702.37	1714.15
702.55	1718.25
702.73	1738.73
702.92	1722.34
703.10	1773.54
703.28	1665.00
703.47	1626.09
703.65	1773.54
703.84	1744.87
704.02	1695.72
704.20	1818.60
704.39	1619.94
704.57	1746.92
704.75	1759.21
704.94	1742.82
705.12	1734.63
705.30	1722.34
705.49	2240.48
705.67	4390.84
705.86	9291.63
706.04	12658.49
706.22	14554.91
706.41	15402.77
706.59	13743.92
706.77	9598.83
706.96	7395.22
707.14	6469.53
707.32	5965.73
707.51	5519.28
707.69	4886.45
707.87	4231.10
708.06	3573.71
708.24	2912.21
708.42	2488.28
708.61	2211.81
708.79	1941.47
708.97	1871.84
709.16	1806.31
709.34	1800.16
709.52	1652.71
709.71	1683.43
709.89	1777.64
710.07	1681.38
710.26	1669.09
710.44	1722.34
710.62	1847.27
710.80	1679.33
710.99	1701.86
711.17	1765.35
711.35	1742.82
711.54	1716.20
711.72	1789.92
711.90	1705.96
712.09	1701.86
712.27	1665.00
712.45	1699.81
712.63	1734.63
712.82	1654.76
713.00	1714.15
713.18	1714.15
713.37	1744.87
713.55	1763.30
713.73	1716.20
713.91	1742.82
714.10	1638.38
714.28	1665.00
714.46	1691.62
714.65	1574.89
714.83	1767.40
715.01	1677.29
715.19	1710.05
715.38	1634.28
715.56	1644.52
715.74	1660.90
715.92	1613.80
716.11	1839.08
716.29	1599.46
716.47	1734.63
716.65	1658.85
716.84	1546.22
717.02	1763.30
717.20	1562.60
717.38	1714.15
717.57	1732.58
717.75	1699.81
717.93	1701.86
718.11	1671.14
718.30	1632.23
718.48	1619.94
718.66	1759.21
718.84	1808.36
719.03	1681.38
719.21	1636.33
719.39	1806.31
719.57	1701.86
719.75	1736.68
719.94	1603.56
720.12	1693.67
720.30	1748.97
720.48	1646.57
720.67	1650.66
720.85	1611.75
721.03	1652.71
721.21	1685.48
721.39	1757.16
721.58	1716.20
721.76	1677.29
721.94	1665.00
722.12	1724.39
722.30	1767.40
722.49	1648.61
722.67	1695.72
722.85	1673.19
723.03	1658.85
723.21	1669.09
723.40	1705.96
723.58	1753.06
723.76	1755.11
723.94	1798.12
724.12	1728.49
724.30	1798.12
724.49	1714.15
724.67	1669.09
724.85	1822.69
725.03	1650.66
725.21	1767.40
725.40	1779.68
725.58	1638.38
725.76	1781.73
725.94	1740.77
726.12	1636.33
726.30	1730.53
726.49	1722.34
726.67	1691.62
726.85	1632.23
727.03	1802.21
727.21	2144.22
727.39	2846.68
727.57	3749.83
727.76	4138.94
727.94	4421.56
728.12	4216.77
728.30	3618.76
728.48	2899.92
728.66	2719.70
728.84	2557.91
729.03	2271.20
729.21	2150.37
729.39	1980.39
729.57	1753.06
729.75	1783.78
729.93	1785.83
730.11	1746.92
730.30	1751.01
730.48	1730.53
730.66	1806.31
730.84	1753.06
731.02	1724.39
731.20	1634.28
731.38	1634.28
731.56	1636.33
731.74	1613.80
731.93	1718.25
732.11	1679.33
732.29	1654.76
732.47	1675.24
732.65	1775.59
732.83	1808.36
733.01	1730.53
733.19	1648.61
733.37	1720.29
733.56	1673.19
733.74	1701.86
733.92	1755.11
734.10	1646.57
734.28	1736.68
734.46	1611.75
734.64	1693.67
734.82	1734.63
735.00	1669.09
735.18	1703.91
735.36	1681.38
735.54	1777.64
735.73	1699.81
735.91	1722.34
736.09	1785.83
736.27	1681.38
736.45	1628.14
736.63	1662.95
736.81	1679.33
736.99	1734.63
737.17	1794.02
737.35	1728.49
737.53	1642.47
737.71	1665.00
737.89	1783.78
738.07	1675.24
738.25	1685.48
738.43	1679.33
738.61	1734.63
738.80	1669.09
738.98	1619.94
739.16	1724.39
739.34	1740.77
739.52	1767.40
739.70	1665.00
739.88	1718.25
740.06	1703.91
740.24	1628.14
740.42	1701.86
740.60	1673.19
740.78	1613.80
740.96	1574.89
741.14	1695.72
741.32	1677.29
741.50	1617.90
741.68	1818.60
741.86	1834.98
742.04	1619.94
742.22	1630.18
742.40	1677.29
742.58	1728.49
742.76	1695.72
742.94	1761.25
743.12	1617.90
743.30	1650.66
743.48	1746.92
743.66	1648.61
743.84	1712.10
744.02	1665.00
744.20	1701.86
744.38	1650.66
744.56	1652.71
744.74	1779.68
744.92	1656.81
745.10	1744.87
745.28	1701.86
745.46	1804.26
745.64	1691.62
745.82	1740.77
746.00	1701.86
746.18	1722.34
746.36	1611.75
746.54	1671.14
746.72	1732.58
746.90	1554.41
747.08	1738.73
747.26	1714.15
747.44	1816.55
747.62	1712.10
747.80	1722.34
747.98	1773.54
748.15	1656.81
748.33	1824.74
748.51	1650.66
748.69	1697.77
748.87	1611.75
749.05	1605.61
749.23	1685.48
749.41	1699.81
749.59	1679.33
749.77	1787.88
749.95	1697.77
750.13	1648.61
750.31	1705.96
750.49	1685.48
750.67	1794.02
750.85	1773.54
751.03	1734.63
751.20	1888.23
751.38	1673.19
751.56	1585.13
751.74	1685.48
751.92	1722.34
752.10	1650.66
752.28	1765.35
752.46	1636.33
752.64	1660.90
752.82	1689.57
753.00	1810.40
753.18	1644.52
753.35	1646.57
753.53	1738.73
753.71	1642.47
753.89	1705.96
754.07	1691.62
754.25	1767.40
754.43	1660.90
754.61	1677.29
754.79	1691.62
754.97	1673.19
755.14	1699.81
755.32	1605.61
755.50	1708.01
755.68	1658.85
755.86	1681.38
756.04	1726.44
756.22	1636.33
756.40	1669.09
756.57	1837.03
756.75	1728.49
756.93	1734.63
757.11	1701.86
757.29	1656.81
757.47	1675.24
757.65	1644.52
757.82	1552.36
758.00	1673.19
758.18	1660.90
758.36	1611.75
758.54	1787.88
758.72	1642.47
758.90	1714.15
759.07	1673.19
759.25	1552.36
759.43	1662.95
759.61	1601.51
759.79	2209.76
759.97	1730.53
760.15	1669.09
760.32	1642.47
760.50	1751.01
760.68	1814.50
760.86	1574.89
761.04	1804.26
761.22	1736.68
761.39	1693.67
761.57	1654.76
761.75	1665.00
761.93	1765.35
762.11	1644.52
762.28	1695.72
762.46	1679.33
762.64	1685.48
762.82	1654.76
763.00	1701.86
763.18	1775.59
763.35	1650.66
763.53	1755.11
763.71	1734.63
763.89	1710.05
764.07	1669.09
764.24	1648.61
764.42	1726.44
764.60	1652.71
764.78	1640.42
764.96	1751.01
765.13	1763.30
765.31	1685.48
765.49	1794.02
765.67	1724.39
765.84	1531.88
766.02	1662.95
766.20	1683.43
766.38	1669.09
766.56	1779.68
766.73	1806.31
766.91	1681.38
767.09	1746.92
767.27	1714.15
767.44	1675.24
767.62	1693.67
767.80	1675.24
767.98	1630.18
768.15	1652.71
768.33	1712.10
768.51	1751.01
768.69	1699.81
768.87	1728.49
769.04	1710.05
769.22	1798.12
769.40	1794.02
769.58	1816.55
769.75	1730.53
769.93	1757.16
770.11	1722.34
770.28	1693.67
770.46	1759.21
770.64	1624.04
770.82	1673.19
770.99	1660.90
771.17	1677.29
771.35	1621.99
771.53	1726.44
771.70	1683.43
771.88	1804.26
772.06	1722.34
772.23	1628.14
772.41	1705.96
772.59	1687.53
772.77	1701.86
772.94	1630.18
773.12	1751.01
773.30	1693.67
773.47	1673.19
773.65	1769.44
773.83	1826.79
774.01	1648.61
774.18	1591.27
774.36	1675.24
774.54	1675.24
774.71	1714.15
774.89	1677.29
775.07	1560.55
775.24	1720.29
775.42	1728.49
775.60	1769.44
775.78	1671.14
775.95	1601.51
776.13	1621.99
776.31	1529.83
776.48	1722.34
776.66	1742.82
776.84	1644.52
777.01	1681.38
777.19	1697.77
777.37	1710.05
777.54	1722.34
777.72	1853.41
777.90	1710.05
778.07	1691.62
778.25	1779.68
778.43	1767.40
778.60	1671.14
778.78	1697.77
778.96	1757.16
779.13	1703.91
779.31	1767.40
779.49	1759.21
779.66	1695.72
779.84	1654.76
780.01	1708.01
780.19	1630.18
780.37	1695.72
780.54	1759.21
780.72	1652.71
780.90	1628.14
781.07	1695.72
781.25	1574.89
781.43	1697.77
781.60	1779.68
781.78	1804.26
781.95	1724.39
782.13	1660.90
782.31	1687.53
782.48	1581.03
782.66	1640.42
782.83	1802.21
783.01	1695.72
783.19	1689.57
783.36	1683.43
783.54	1656.81
783.72	1738.73
783.89	1609.70
784.07	1656.81
784.24	1718.25
784.42	1751.01
784.60	1632.23
784.77	1677.29
784.95	1581.03
785.12	1689.57
785.30	1724.39
785.47	1605.61
785.65	1638.38
785.83	1714.15
786.00	1654.76
786.18	1714.15
786.35	1601.51
786.53	1638.38
786.71	1751.01
786.88	1765.35
787.06	1726.44
787.23	1757.16
787.41	1605.61
787.58	1705.96
787.76	1677.29
787.94	1710.05
788.11	1759.21
788.29	1646.57
788.46	1675.24
788.64	1654.76
788.81	1683.43
788.99	1656.81
789.16	1681.38
789.34	1738.73
789.52	1693.67
789.69	1638.38
789.87	1601.51
790.04	1681.38
790.22	1714.15
790.39	1843.17
790.57	1658.85
790.74	1726.44
790.92	1710.05
791.09	1599.46
791.27	1712.10
791.44	1757.16
791.62	1695.72
791.79	1691.62
791.97	1691.62
792.15	1765.35
792.32	1720.29
792.50	1638.38
792.67	1796.07
792.85	1742.82
793.02	1687.53
793.20	1665.00
793.37	1632.23
793.55	1710.05
793.72	1685.48
793.90	1720.29
794.07	1679.33
794.25	1626.09
794.42	1671.14
794.60	1744.87
794.77	1710.05
794.95	1759.21
795.12	1794.02
795.30	1732.58
795.47	1683.43
795.65	1818.60
795.82	1693.67
796.00	1642.47
796.17	1642.47
796.34	1589.22
796.52	1644.52
796.69	1822.69
796.87	1789.92
797.04	1693.67
797.22	1699.81
797.39	1697.77
797.57	1818.60
797.74	1771.49
797.92	1701.86
798.09	1718.25
798.27	1796.07
798.44	1783.78
798.62	1665.00
798.79	1714.15
798.96	1691.62
799.14	1710.05
799.31	1822.69
799.49	1638.38
799.66	1673.19
799.84	1687.53
800.01	1591.27
800.19	1775.59
800.36	1576.94
800.53	1718.25
800.71	1673.19
800.88	1789.92
801.06	1648.61
801.23	1619.94
801.41	1687.53
801.58	1679.33
801.75	1626.09
801.93	1718.25
802.10	1748.97
802.28	1667.05
802.45	1574.89
802.63	1708.01
802.80	1822.69
802.97	1632.23
803.15	1732.58
803.32	1683.43
803.50	1681.38
803.67	1701.86
803.84	1652.71
804.02	1708.01
804.19	1693.67
804.37	1634.28
804.54	1587.18
804.71	1660.90
804.89	1712.10
805.06	1693.67
805.24	1714.15
805.41	1613.80
805.58	1656.81
805.76	1791.97
805.93	1714.15
806.10	1773.54
806.28	1814.50
806.45	1691.62
806.63	1726.44
806.80	1697.77
806.97	1683.43
807.15	1695.72
807.32	1708.01
807.49	1718.25
807.67	1624.04
807.84	1718.25
808.01	1662.95
808.19	1802.21
808.36	1804.26
808.54	1769.44
808.71	1660.90
808.88	1742.82
809.06	1771.49
809.23	1794.02
809.40	1621.99
809.58	1716.20
809.75	1761.25
809.92	1714.15
810.10	1851.36
810.27	1677.29
810.44	1652.71
810.62	1718.25
810.79	1732.58
810.96	1658.85
811.14	1636.33
811.31	1720.29
811.48	1742.82
811.66	1728.49
811.83	1832.93
812.00	1708.01
812.18	1726.44
812.35	1806.31
812.52	1683.43
812.69	1675.24
812.87	1699.81
813.04	1679.33
813.21	1665.00
813.39	1679.33
813.56	1640.42
813.73	1718.25
813.91	1626.09
814.08	1708.01
814.25	1701.86
814.42	1619.94
814.60	1679.33
814.77	1802.21
814.94	1662.95
815.12	1662.95
815.29	1699.81
815.46	1597.42
815.63	1693.67
815.81	1675.24
815.98	1685.48
816.15	1673.19
816.33	1697.77
816.50	1673.19
816.67	1677.29
816.84	1738.73
817.02	1648.61
817.19	1652.71
817.36	1722.34
817.53	1699.81
817.71	1683.43
817.88	1679.33
818.05	1691.62
818.22	1714.15
818.40	1834.98
818.57	1646.57
818.74	1695.72
818.91	1648.61
819.09	1660.90
819.26	1728.49
819.43	1718.25
819.60	1669.09
819.78	1705.96
819.95	1806.31
820.12	1662.95
820.29	1722.34
820.47	1748.97
820.64	1630.18
820.81	1609.70
820.98	1626.09
821.15	1689.57
821.33	1708.01
821.50	1572.84
821.67	1699.81
821.84	1673.19
822.02	1669.09
822.19	1697.77
822.36	1703.91
822.53	1697.77
822.70	1599.46
822.88	1689.57
823.05	1773.54
823.22	1722.34
823.39	1665.00
823.56	1689.57
823.74	1683.43
823.91	1628.14
824.08	1697.77
824.25	1669.09
824.42	1779.68
824.60	1691.62
824.77	1634.28
824.94	1621.99
825.11	1718.25
825.28	1597.42
825.45	1767.40
825.63	1708.01
825.80	1677.29
825.97	1775.59
826.14	1746.92
826.31	1540.07
826.48	1716.20
826.66	1658.85
826.83	1677.29
827.00	1771.49
827.17	1624.04
827.34	1716.20
827.51	1701.86
827.69	1701.86
827.86	1554.41
828.03	1652.71
828.20	1701.86
828.37	1581.03
828.54	1779.68
828.71	1681.38
828.89	1779.68
829.06	1757.16
829.23	1796.07
829.40	1656.81
829.57	1667.05
829.74	1699.81
829.91	1597.42
830.09	1665.00
830.26	1718.25
830.43	1751.01
830.60	1701.86
830.77	1691.62
830.94	1671.14
831.11	1687.53
831.28	1648.61
831.46	1720.29
831.63	1732.58
831.80	1771.49
831.97	1673.19
832.14	1609.70
832.31	1677.29
832.48	1667.05
832.65	1773.54
832.82	1695.72
832.99	1753.06
833.17	1634.28
833.34	1804.26
833.51	1759.21
833.68	1626.09
833.85	1808.36
834.02	1603.56
834.19	1564.65
834.36	1642.47
834.53	1667.05
834.70	1718.25
834.87	1767.40
835.04	1677.29
835.22	1603.56
835.39	1695.72
835.56	1687.53
835.73	1685.48
835.90	1777.64
836.07	1621.99
836.24	1736.68
836.41	1783.78
836.58	1619.94
836.75	1785.83
836.92	1738.73
837.09	1665.00
837.26	1697.77
837.43	1806.31
837.60	1714.15
837.77	1654.76
837.94	1677.29
838.12	1763.30
838.29	1607.66
838.46	1609.70
838.63	1638.38
838.80	1789.92
838.97	1703.91
839.14	1699.81
839.31	1748.97
839.48	1738.73
839.65	1673.19
839.82	1769.44
839.99	1701.86
840.16	1755.11
840.33	1669.09
840.50	1757.16
840.67	1726.44
840.84	1568.74
841.01	1673.19
841.18	1703.91
841.35	1673.19
841.52	1683.43
841.69	1769.44
841.86	1617.90
842.03	1785.83
842.20	1769.44
842.37	1658.85
842.54	1695.72
842.71	1701.86
842.88	1609.70
843.05	1800.16
843.22	1642.47
843.39	1705.96
843.56	1677.29
843.73	1675.24
843.90	1658.85
844.07	1726.44
844.24	1730.53
844.41	1705.96
844.58	1658.85
844.75	1585.13
844.92	1794.02
845.09	1718.25
845.26	1624.04
845.43	1701.86
845.60	1685.48
845.77	1726.44
845.94	1642.47
846.10	1660.90
846.27	1648.61
846.44	1601.51
846.61	1626.09
846.78	1732.58
846.95	1736.68
847.12	1728.49
847.29	1640.42
847.46	1640.42
847.63	1740.77
847.80	1628.14
847.97	1718.25
848.14	1902.56
848.31	1699.81
848.48	1642.47
848.65	1714.15
848.82	1671.14
848.98	1847.27
849.15	1787.88
849.32	1724.39
849.49	1767.40
849.66	1699.81
849.83	1716.20
850.00	1634.28
850.17	1767.40
850.34	1665.00
850.51	1609.70
850.68	1632.23
850.85	1804.26
851.01	1691.62
851.18	1691.62
851.35	1697.77
851.52	1701.86
851.69	1804.26
851.86	1634.28
852.03	1665.00
852.20	1722.34
852.37	1656.81
852.53	1691.62
852.70	1728.49
852.87	1656.81
853.04	1748.97
853.21	1724.39
853.38	1736.68
853.55	1783.78
853.72	1744.87
853.89	1652.71
854.05	1636.33
854.22	1646.57
854.39	1673.19
854.56	1748.97
854.73	1767.40
854.90	1660.90
855.07	1681.38
855.23	1632.23
855.40	1738.73
855.57	1716.20
855.74	1566.70
855.91	1871.84
856.08	1632.23
856.25	1613.80
856.41	1703.91
856.58	1656.81
856.75	1710.05
856.92	1630.18
857.09	1851.36
857.26	1568.74
857.42	1693.67
857.59	1695.72
857.76	1726.44
857.93	1710.05
858.10	1697.77
858.27	1652.71
858.43	1644.52
858.60	1669.09
858.77	1546.22
858.94	1656.81
859.11	1777.64
859.27	1718.25
859.44	1705.96
859.61	1824.74
859.78	1712.10
859.95	1673.19
860.12	1644.52
860.28	1830.88
860.45	1824.74
860.62	1642.47
860.79	1685.48
860.95	1646.57
861.12	1712.10
861.29	1748.97
861.46	1628.14
861.63	1724.39
861.79	1701.86
861.96	1681.38
862.13	1650.66
862.30	1769.44
862.47	1587.18
862.63	1673.19
862.80	1757.16
862.97	1771.49
863.14	1695.72
863.30	1605.61
863.47	1652.71
863.64	1818.60
863.81	1648.61
863.97	1722.34
864.14	1734.63
864.31	1783.78
864.48	1738.73
864.65	1710.05
864.81	1773.54
864.98	1665.00
865.15	1617.90
865.32	1722.34
865.48	1724.39
865.65	1800.16
865.82	1685.48
865.98	1673.19
866.15	1683.43
866.32	1699.81
866.49	1667.05
866.65	1718.25
866.82	1652.71
866.99	1769.44
867.16	1597.42
867.32	1648.61
867.49	1660.90
867.66	1607.66
867.83	1628.14
867.99	1642.47
868.16	1746.92
868.33	1611.75
868.49	1701.86
868.66	1681.38
868.83	1746.92
868.99	1665.00
869.16	1687.53
869.33	1753.06
869.50	1765.35
869.66	1746.92
869.83	1642.47
870.00	1621.99
870.16	1679.33
870.33	1705.96
870.50	1673.19
870.66	1705.96
870.83	1763.30
871.00	1767.40
871.17	1712.10
871.33	1720.29
871.50	1691.62
871.67	1671.14
871.83	1677.29
872.00	1761.25
872.17	1619.94
872.33	1822.69
872.50	1714.15
872.67	1617.90
872.83	1679.33
873.00	1660.90
873.17	1665.00
873.33	1787.88
873.50	1763.30
873.67	1597.42
873.83	1695.72
874.00	1712.10
874.16	1806.31
874.33	1732.58
874.50	1587.18
874.66	1691.62
874.83	1671.14
875.00	1744.87
875.16	1755.11
875.33	1697.77
875.50	1613.80
875.66	1695.72
875.83	1652.71
875.99	1710.05
876.16	1679.33
876.33	1701.86
876.49	1714.15
876.66	1732.58
876.83	1720.29
876.99	1624.04
877.16	1722.34
877.32	1697.77
877.49	1722.34
877.66	1720.29
877.82	1755.11
877.99	1736.68
878.15	1679.33
878.32	1759.21
878.49	1677.29
878.65	1681.38
878.82	1763.30
878.98	1611.75
879.15	1767.40
879.32	1751.01
879.48	1718.25
879.65	1654.76
879.81	1632.23
879.98	1718.25
880.15	1689.57
880.31	1701.86
880.48	1683.43
880.64	1695.72
880.81	1736.68
880.97	1841.12
881.14	1738.73
881.31	1697.77
881.47	1740.77
881.64	1677.29
881.80	1544.17
881.97	1751.01
882.13	1705.96
882.30	1665.00
882.47	1681.38
882.63	1656.81
882.80	1683.43
882.96	1734.63
883.13	1658.85
883.29	1667.05
883.46	1650.66
883.62	1767.40
883.79	1650.66
883.95	1710.05
884.12	1683.43
884.29	1779.68
884.45	1722.34
884.62	1746.92
884.78	1689.57
884.95	1785.83
885.11	1685.48
885.28	1734.63
885.44	1730.53
885.61	1667.05
885.77	1769.44
885.94	1730.53
886.10	1662.95
886.27	1671.14
886.43	1781.73
886.60	1787.88
886.76	1726.44
886.93	1587.18
887.09	1755.11
887.26	1595.37
887.42	1689.57
887.59	1720.29
887.75	1740.77
887.92	1812.45
888.08	1779.68
888.25	1753.06
888.41	1787.88
888.58	1662.95
888.74	1652.71
888.91	1677.29
>>>>>End Processed Spectral Data<<<<<
