SpectraSuite Data File
++++++++++++++++++++++++++++++++++++
Date: Mon Jun 06 17:04:37 CEST 2016
User: root
Dark Spectrum Present: No
Reference Spectrum Present: No
Number of Sampled Component Spectra: 1
Spectrometers: USB4C02835
Integration Time (usec): 100000 (USB4C02835)
Spectra Averaged: 1 (USB4C02835)
Boxcar Smoothing: 0 (USB4C02835)
Correct for Electrical Dark: No (USB4C02835)
Strobe/Lamp Enabled: No (USB4C02835)
Correct for Detector Non-linearity: No (USB4C02835)
Correct for Stray Light: No (USB4C02835)
Number of Pixels in Processed Spectrum: 3648
>>>>>Begin Processed Spectral Data<<<<<
177.47	1464.30
177.69	1464.30
177.91	1464.30
178.13	1476.59
178.36	1484.78
178.58	1601.51
178.80	1695.72
179.02	1607.66
179.24	1650.66
179.46	1736.68
179.68	1822.69
179.90	1705.96
180.13	1681.38
180.35	1615.85
180.57	1693.67
180.79	1736.68
181.01	1708.01
181.23	1746.92
181.45	1771.49
181.67	1708.01
181.90	1806.31
182.12	1712.10
182.34	1636.33
182.56	1720.29
182.78	1746.92
183.00	1732.58
183.22	1691.62
183.44	1630.18
183.66	1873.89
183.89	1755.11
184.11	1746.92
184.33	1755.11
184.55	1765.35
184.77	1761.25
184.99	1683.43
185.21	1730.53
185.43	1796.07
185.65	1669.09
185.87	1730.53
186.10	1806.31
186.32	1787.88
186.54	1732.58
186.76	1794.02
186.98	1712.10
187.20	1712.10
187.42	1701.86
187.64	1705.96
187.86	1769.44
188.08	1742.82
188.30	1708.01
188.52	1697.77
188.75	1826.79
188.97	1761.25
189.19	1744.87
189.41	1697.77
189.63	1734.63
189.85	1775.59
190.07	1550.31
190.29	1597.42
190.51	1712.10
190.73	1615.85
190.95	1726.44
191.17	1714.15
191.39	1695.72
191.61	1673.19
191.84	1710.05
192.06	1701.86
192.28	1650.66
192.50	1851.36
192.72	1714.15
192.94	1740.77
193.16	1785.83
193.38	1794.02
193.60	1656.81
193.82	1681.38
194.04	1832.93
194.26	1671.14
194.48	1761.25
194.70	1654.76
194.92	1687.53
195.14	1734.63
195.36	1705.96
195.58	1710.05
195.80	1740.77
196.02	1699.81
196.24	1710.05
196.46	1703.91
196.69	1718.25
196.91	1863.65
197.13	1718.25
197.35	1644.52
197.57	1822.69
197.79	1781.73
198.01	1734.63
198.23	1806.31
198.45	1746.92
198.67	1607.66
198.89	1742.82
199.11	1656.81
199.33	1605.61
199.55	1644.52
199.77	1701.86
199.99	1728.49
200.21	1726.44
200.43	1734.63
200.65	1654.76
200.87	1644.52
201.09	1681.38
201.31	1687.53
201.53	1837.03
201.75	1759.21
201.97	1628.14
202.19	1693.67
202.41	1798.12
202.63	1843.17
202.85	1691.62
203.07	1734.63
203.29	1665.00
203.51	1757.16
203.73	1607.66
203.95	1900.52
204.17	1722.34
204.39	1767.40
204.61	1748.97
204.83	1701.86
205.05	1695.72
205.27	1787.88
205.49	1843.17
205.71	1703.91
205.93	1576.94
206.15	1673.19
206.37	1667.05
206.59	1732.58
206.81	1703.91
207.03	1665.00
207.25	1609.70
207.47	1787.88
207.69	1689.57
207.91	1818.60
208.13	1763.30
208.34	1710.05
208.56	1656.81
208.78	1751.01
209.00	1679.33
209.22	1716.20
209.44	1693.67
209.66	1679.33
209.88	1646.57
210.10	1607.66
210.32	1732.58
210.54	1796.07
210.76	1726.44
210.98	1720.29
211.20	1613.80
211.42	1724.39
211.64	1773.54
211.86	1683.43
212.08	1785.83
212.30	1740.77
212.52	1701.86
212.74	1722.34
212.96	1724.39
213.17	1761.25
213.39	1746.92
213.61	1753.06
213.83	1677.29
214.05	1615.85
214.27	1734.63
214.49	1691.62
214.71	1705.96
214.93	1779.68
215.15	1794.02
215.37	1828.84
215.59	1593.32
215.81	1755.11
216.03	1755.11
216.24	1769.44
216.46	1726.44
216.68	1791.97
216.90	1802.21
217.12	1738.73
217.34	1710.05
217.56	1724.39
217.78	1775.59
218.00	1763.30
218.22	1671.14
218.44	1691.62
218.66	1738.73
218.87	1751.01
219.09	1716.20
219.31	1755.11
219.53	1638.38
219.75	1730.53
219.97	1746.92
220.19	1728.49
220.41	1673.19
220.63	1722.34
220.85	1757.16
221.06	1640.42
221.28	1765.35
221.50	1757.16
221.72	1691.62
221.94	1724.39
222.16	1716.20
222.38	1718.25
222.60	1740.77
222.82	1714.15
223.03	1726.44
223.25	1644.52
223.47	1812.45
223.69	1824.74
223.91	1773.54
224.13	1697.77
224.35	1746.92
224.57	1808.36
224.78	1710.05
225.00	1681.38
225.22	1640.42
225.44	1775.59
225.66	1716.20
225.88	1669.09
226.10	1755.11
226.32	1728.49
226.53	1853.41
226.75	1626.09
226.97	1791.97
227.19	1763.30
227.41	1724.39
227.63	1665.00
227.85	1628.14
228.06	1705.96
228.28	1708.01
228.50	1720.29
228.72	1634.28
228.94	1697.77
229.16	1650.66
229.37	1630.18
229.59	1689.57
229.81	1802.21
230.03	1683.43
230.25	1718.25
230.47	1656.81
230.69	1648.61
230.90	1800.16
231.12	1675.24
231.34	1734.63
231.56	1720.29
231.78	1638.38
232.00	1646.57
232.21	1712.10
232.43	1677.29
232.65	1638.38
232.87	1734.63
233.09	1671.14
233.30	1652.71
233.52	1763.30
233.74	1763.30
233.96	1679.33
234.18	1679.33
234.40	1691.62
234.61	1830.88
234.83	1683.43
235.05	1675.24
235.27	1857.51
235.49	1734.63
235.70	1710.05
235.92	1765.35
236.14	1703.91
236.36	1839.08
236.58	1665.00
236.79	1720.29
237.01	1628.14
237.23	1691.62
237.45	1912.80
237.67	1697.77
237.88	1689.57
238.10	1816.55
238.32	1685.48
238.54	1740.77
238.76	1712.10
238.97	1726.44
239.19	1669.09
239.41	1777.64
239.63	1701.86
239.85	1636.33
240.06	1689.57
240.28	1763.30
240.50	1769.44
240.72	1761.25
240.93	1599.46
241.15	1748.97
241.37	1710.05
241.59	1804.26
241.81	1636.33
242.02	1656.81
242.24	1781.73
242.46	1714.15
242.68	1646.57
242.89	1724.39
243.11	1787.88
243.33	1767.40
243.55	1716.20
243.76	1757.16
243.98	1726.44
244.20	1710.05
244.42	1753.06
244.64	1683.43
244.85	1656.81
245.07	1673.19
245.29	1738.73
245.51	1779.68
245.72	1648.61
245.94	1765.35
246.16	1718.25
246.38	1691.62
246.59	1699.81
246.81	1640.42
247.03	1716.20
247.24	1566.70
247.46	1667.05
247.68	1699.81
247.90	1691.62
248.11	1673.19
248.33	1781.73
248.55	1730.53
248.77	1685.48
248.98	1791.97
249.20	1773.54
249.42	1693.67
249.64	1714.15
249.85	1667.05
250.07	1619.94
250.29	1730.53
250.50	1820.64
250.72	1626.09
250.94	1767.40
251.16	1808.36
251.37	1796.07
251.59	1673.19
251.81	1669.09
252.02	1804.26
252.24	1708.01
252.46	1837.03
252.68	1695.72
252.89	1681.38
253.11	1595.37
253.33	1812.45
253.54	1767.40
253.76	1556.46
253.98	1679.33
254.20	1650.66
254.41	1693.67
254.63	1667.05
254.85	1607.66
255.06	1785.83
255.28	1714.15
255.50	1640.42
255.71	1632.23
255.93	1626.09
256.15	1732.58
256.36	1740.77
256.58	1675.24
256.80	1746.92
257.02	1671.14
257.23	1703.91
257.45	1705.96
257.67	1718.25
257.88	1685.48
258.10	1744.87
258.32	1710.05
258.53	1677.29
258.75	1730.53
258.97	1640.42
259.18	1714.15
259.40	1757.16
259.62	1798.12
259.83	1763.30
260.05	1789.92
260.27	1910.75
260.48	1785.83
260.70	1648.61
260.92	1693.67
261.13	1736.68
261.35	1767.40
261.57	1755.11
261.78	1646.57
262.00	1636.33
262.22	1783.78
262.43	1677.29
262.65	1673.19
262.86	1644.52
263.08	1814.50
263.30	1730.53
263.51	1671.14
263.73	1621.99
263.95	1705.96
264.16	1708.01
264.38	1667.05
264.60	1763.30
264.81	1658.85
265.03	1798.12
265.25	1771.49
265.46	1708.01
265.68	1759.21
265.89	1789.92
266.11	1652.71
266.33	1705.96
266.54	1810.40
266.76	1726.44
266.98	1777.64
267.19	1810.40
267.41	1751.01
267.62	1648.61
267.84	1603.56
268.06	1726.44
268.27	1748.97
268.49	1779.68
268.70	1761.25
268.92	1648.61
269.14	1658.85
269.35	1658.85
269.57	1703.91
269.79	1697.77
270.00	1671.14
270.22	1814.50
270.43	1640.42
270.65	1554.41
270.87	1734.63
271.08	1796.07
271.30	1781.73
271.51	1732.58
271.73	1712.10
271.95	1816.55
272.16	1722.34
272.38	1767.40
272.59	1667.05
272.81	1710.05
273.02	1734.63
273.24	1712.10
273.46	1740.77
273.67	1673.19
273.89	1638.38
274.10	1667.05
274.32	1751.01
274.54	1697.77
274.75	1748.97
274.97	1681.38
275.18	1708.01
275.40	1675.24
275.61	1681.38
275.83	1726.44
276.05	1671.14
276.26	1703.91
276.48	1712.10
276.69	1634.28
276.91	1716.20
277.12	1785.83
277.34	1746.92
277.55	1785.83
277.77	1681.38
277.99	1660.90
278.20	1656.81
278.42	1652.71
278.63	1681.38
278.85	1708.01
279.06	1665.00
279.28	1687.53
279.49	1748.97
279.71	1718.25
279.93	1794.02
280.14	1675.24
280.36	1679.33
280.57	1771.49
280.79	1882.08
281.00	1665.00
281.22	1722.34
281.43	1771.49
281.65	1630.18
281.86	1691.62
282.08	1714.15
282.29	1753.06
282.51	1636.33
282.73	1703.91
282.94	1722.34
283.16	1769.44
283.37	1728.49
283.59	1683.43
283.80	1681.38
284.02	1724.39
284.23	1781.73
284.45	1640.42
284.66	1660.90
284.88	1757.16
285.09	1730.53
285.31	1748.97
285.52	1683.43
285.74	1634.28
285.95	1773.54
286.17	1724.39
286.38	1746.92
286.60	1683.43
286.81	1689.57
287.03	1642.47
287.24	1687.53
287.46	1681.38
287.67	1683.43
287.89	1890.28
288.10	1646.57
288.32	1759.21
288.53	1804.26
288.75	1728.49
288.96	1642.47
289.18	1730.53
289.39	1689.57
289.61	1787.88
289.82	1828.84
290.04	1892.32
290.25	1667.05
290.47	1691.62
290.68	1669.09
290.90	1734.63
291.11	1669.09
291.33	1701.86
291.54	1638.38
291.76	1732.58
291.97	1687.53
292.18	1746.92
292.40	1720.29
292.61	1640.42
292.83	1888.23
293.04	1726.44
293.26	1765.35
293.47	1716.20
293.69	1693.67
293.90	1718.25
294.12	1697.77
294.33	1724.39
294.55	1685.48
294.76	1765.35
294.97	1710.05
295.19	1867.75
295.40	1621.99
295.62	1763.30
295.83	1736.68
296.05	1687.53
296.26	1779.68
296.48	1748.97
296.69	1818.60
296.90	1726.44
297.12	1716.20
297.33	1789.92
297.55	1683.43
297.76	1802.21
297.98	1806.31
298.19	1710.05
298.41	1761.25
298.62	1585.13
298.83	1806.31
299.05	1714.15
299.26	1658.85
299.48	1720.29
299.69	1724.39
299.90	1746.92
300.12	1634.28
300.33	1716.20
300.55	1732.58
300.76	1775.59
300.98	1718.25
301.19	1656.81
301.40	1648.61
301.62	1673.19
301.83	1722.34
302.05	1734.63
302.26	1683.43
302.47	1779.68
302.69	1593.32
302.90	1712.10
303.12	1613.80
303.33	1791.97
303.54	1837.03
303.76	1628.14
303.97	1671.14
304.19	1837.03
304.40	1626.09
304.61	1726.44
304.83	1775.59
305.04	1859.56
305.26	1724.39
305.47	1660.90
305.68	1730.53
305.90	1595.37
306.11	1777.64
306.33	1722.34
306.54	1681.38
306.75	1669.09
306.97	1535.98
307.18	1638.38
307.39	1621.99
307.61	1800.16
307.82	1714.15
308.04	1695.72
308.25	1687.53
308.46	1765.35
308.68	1710.05
308.89	1701.86
309.10	1804.26
309.32	1808.36
309.53	1779.68
309.74	1685.48
309.96	1759.21
310.17	1759.21
310.39	1673.19
310.60	1755.11
310.81	1748.97
311.03	1685.48
311.24	1693.67
311.45	1724.39
311.67	1810.40
311.88	1728.49
312.09	1728.49
312.31	1648.61
312.52	1701.86
312.73	1693.67
312.95	1628.14
313.16	1652.71
313.37	1769.44
313.59	1736.68
313.80	1796.07
314.01	1783.78
314.23	1734.63
314.44	1708.01
314.65	1708.01
314.87	1681.38
315.08	1728.49
315.29	1685.48
315.51	1689.57
315.72	1572.84
315.93	1806.31
316.15	1753.06
316.36	1681.38
316.57	1748.97
316.79	1716.20
317.00	1722.34
317.21	1677.29
317.43	1699.81
317.64	1685.48
317.85	1662.95
318.07	1673.19
318.28	1732.58
318.49	1800.16
318.70	1951.71
318.92	1834.98
319.13	1820.64
319.34	1931.23
319.56	1802.21
319.77	1841.12
319.98	1773.54
320.20	1755.11
320.41	1755.11
320.62	1751.01
320.83	1638.38
321.05	1775.59
321.26	1824.74
321.47	1691.62
321.69	1769.44
321.90	1605.61
322.11	1705.96
322.32	1701.86
322.54	1767.40
322.75	1705.96
322.96	1771.49
323.18	1587.18
323.39	1619.94
323.60	1675.24
323.81	1851.36
324.03	1646.57
324.24	1714.15
324.45	1769.44
324.66	1724.39
324.88	1787.88
325.09	1763.30
325.30	1640.42
325.52	1718.25
325.73	1724.39
325.94	1748.97
326.15	1599.46
326.37	1681.38
326.58	1837.03
326.79	1730.53
327.00	1640.42
327.22	1759.21
327.43	1728.49
327.64	1617.90
327.85	1718.25
328.07	1822.69
328.28	1843.17
328.49	1681.38
328.70	1773.54
328.92	1724.39
329.13	1802.21
329.34	1671.14
329.55	1853.41
329.76	1726.44
329.98	1691.62
330.19	1779.68
330.40	1748.97
330.61	1714.15
330.83	1722.34
331.04	1535.98
331.25	1695.72
331.46	1701.86
331.68	1658.85
331.89	1822.69
332.10	1624.04
332.31	1603.56
332.52	1705.96
332.74	1763.30
332.95	1628.14
333.16	1777.64
333.37	1724.39
333.58	1714.15
333.80	1728.49
334.01	1587.18
334.22	1611.75
334.43	1724.39
334.64	1691.62
334.86	1628.14
335.07	1701.86
335.28	1828.84
335.49	1650.66
335.70	1753.06
335.92	1787.88
336.13	1888.23
336.34	1730.53
336.55	1730.53
336.76	1697.77
336.98	1589.22
337.19	1767.40
337.40	1843.17
337.61	1822.69
337.82	1669.09
338.04	1681.38
338.25	1699.81
338.46	1708.01
338.67	1689.57
338.88	1640.42
339.09	1665.00
339.31	1689.57
339.52	1607.66
339.73	1570.79
339.94	1728.49
340.15	1714.15
340.36	1642.47
340.58	1710.05
340.79	1701.86
341.00	1691.62
341.21	1652.71
341.42	1744.87
341.63	1699.81
341.85	1726.44
342.06	1685.48
342.27	1570.79
342.48	1722.34
342.69	1665.00
342.90	1669.09
343.12	1767.40
343.33	1718.25
343.54	1744.87
343.75	1828.84
343.96	1714.15
344.17	1654.76
344.38	1679.33
344.60	1607.66
344.81	1689.57
345.02	1675.24
345.23	1830.88
345.44	1871.84
345.65	1742.82
345.86	1748.97
346.07	1673.19
346.29	1714.15
346.50	1800.16
346.71	1656.81
346.92	1658.85
347.13	1910.75
347.34	1734.63
347.55	1673.19
347.76	1759.21
347.98	1619.94
348.19	1722.34
348.40	1834.98
348.61	1642.47
348.82	1730.53
349.03	1837.03
349.24	1677.29
349.45	1826.79
349.66	1646.57
349.88	1656.81
350.09	1761.25
350.30	1763.30
350.51	1798.12
350.72	1724.39
350.93	1708.01
351.14	1550.31
351.35	1734.63
351.56	1775.59
351.77	1722.34
351.99	1718.25
352.20	1767.40
352.41	1832.93
352.62	1566.70
352.83	1714.15
353.04	1705.96
353.25	1699.81
353.46	1814.50
353.67	1775.59
353.88	1595.37
354.09	1777.64
354.30	1691.62
354.52	1785.83
354.73	1644.52
354.94	1640.42
355.15	1677.29
355.36	1816.55
355.57	1650.66
355.78	1710.05
355.99	1566.70
356.20	1746.92
356.41	1744.87
356.62	1712.10
356.83	1734.63
357.04	1783.78
357.25	1677.29
357.46	1769.44
357.68	1675.24
357.89	1662.95
358.10	1757.16
358.31	1660.90
358.52	1695.72
358.73	1636.33
358.94	1607.66
359.15	1667.05
359.36	1714.15
359.57	1681.38
359.78	1636.33
359.99	1789.92
360.20	1652.71
360.41	1656.81
360.62	1720.29
360.83	1728.49
361.04	1712.10
361.25	1775.59
361.46	1816.55
361.67	1730.53
361.88	1755.11
362.09	1806.31
362.30	1679.33
362.51	1691.62
362.72	1800.16
362.93	1785.83
363.14	1763.30
363.35	1794.02
363.56	1658.85
363.78	1812.45
363.99	1705.96
364.20	1710.05
364.41	1810.40
364.62	1796.07
364.83	1699.81
365.04	1722.34
365.25	1624.04
365.46	1808.36
365.67	1652.71
365.88	1662.95
366.09	1779.68
366.30	1626.09
366.51	1781.73
366.72	1734.63
366.93	1722.34
367.14	1708.01
367.35	1816.55
367.56	1753.06
367.77	1822.69
367.98	1677.29
368.18	1716.20
368.39	1769.44
368.60	1638.38
368.81	1816.55
369.02	1755.11
369.23	1767.40
369.44	1615.85
369.65	1708.01
369.86	1722.34
370.07	1742.82
370.28	1617.90
370.49	1761.25
370.70	1724.39
370.91	1626.09
371.12	1628.14
371.33	1712.10
371.54	1689.57
371.75	1734.63
371.96	1595.37
372.17	1708.01
372.38	1761.25
372.59	1705.96
372.80	1662.95
373.01	1742.82
373.22	1726.44
373.43	1695.72
373.64	1699.81
373.85	1724.39
374.06	1914.85
374.26	1796.07
374.47	1712.10
374.68	1796.07
374.89	1736.68
375.10	1640.42
375.31	1812.45
375.52	1728.49
375.73	1646.57
375.94	1695.72
376.15	1785.83
376.36	1656.81
376.57	1730.53
376.78	1716.20
376.99	1763.30
377.20	1785.83
377.40	1671.14
377.61	1816.55
377.82	1720.29
378.03	1779.68
378.24	1714.15
378.45	1755.11
378.66	1738.73
378.87	1626.09
379.08	1660.90
379.29	1728.49
379.50	1740.77
379.71	1712.10
379.91	1775.59
380.12	1691.62
380.33	1701.86
380.54	1695.72
380.75	1722.34
380.96	1714.15
381.17	1769.44
381.38	1755.11
381.59	1798.12
381.80	1726.44
382.00	1882.08
382.21	1763.30
382.42	1794.02
382.63	1837.03
382.84	1757.16
383.05	1806.31
383.26	1865.70
383.47	1710.05
383.68	1753.06
383.88	1798.12
384.09	1751.01
384.30	1800.16
384.51	1728.49
384.72	1677.29
384.93	1617.90
385.14	1779.68
385.35	1755.11
385.55	1693.67
385.76	1738.73
385.97	1677.29
386.18	1583.08
386.39	1691.62
386.60	1669.09
386.81	1718.25
387.02	1685.48
387.22	1648.61
387.43	1783.78
387.64	1810.40
387.85	1853.41
388.06	2217.95
388.27	4278.21
388.48	6746.01
388.68	8322.94
388.89	9688.94
389.10	9850.73
389.31	8640.38
389.52	7536.52
389.73	6940.57
389.93	6313.89
390.14	5881.77
390.35	5197.74
390.56	4628.41
390.77	3936.20
390.98	3110.86
391.18	2457.56
391.39	2156.51
391.60	1832.93
391.81	1859.56
392.02	1726.44
392.23	1814.50
392.43	1779.68
392.64	1730.53
392.85	1773.54
393.06	1763.30
393.27	1732.58
393.47	1673.19
393.68	1644.52
393.89	1687.53
394.10	1746.92
394.31	1662.95
394.52	1665.00
394.72	1673.19
394.93	1869.80
395.14	1628.14
395.35	1755.11
395.56	1730.53
395.76	1748.97
395.97	1728.49
396.18	1906.66
396.39	1851.36
396.60	2029.54
396.80	1904.61
397.01	1877.99
397.22	1865.70
397.43	1869.80
397.64	1742.82
397.84	1722.34
398.05	1861.60
398.26	1681.38
398.47	1753.06
398.67	1791.97
398.88	1773.54
399.09	1687.53
399.30	1662.95
399.51	1839.08
399.71	1699.81
399.92	1675.24
400.13	1769.44
400.34	1693.67
400.54	1675.24
400.75	1826.79
400.96	1722.34
401.17	1791.97
401.37	1751.01
401.58	1689.57
401.79	1744.87
402.00	1779.68
402.21	1996.77
402.41	1951.71
402.62	1988.58
402.83	2027.49
403.04	2017.25
403.24	2193.37
403.45	1769.44
403.66	1912.80
403.87	1851.36
404.07	1945.57
404.28	1906.66
404.49	1867.75
404.70	1779.68
404.90	1867.75
405.11	1791.97
405.32	1751.01
405.52	1654.76
405.73	1675.24
405.94	1701.86
406.15	1748.97
406.35	1736.68
406.56	1806.31
406.77	1718.25
406.98	1755.11
407.18	1638.38
407.39	1783.78
407.60	1720.29
407.80	1787.88
408.01	1638.38
408.22	1787.88
408.43	1658.85
408.63	1671.14
408.84	1732.58
409.05	1816.55
409.25	1628.14
409.46	1722.34
409.67	1624.04
409.88	1671.14
410.08	1689.57
410.29	1673.19
410.50	1746.92
410.70	1732.58
410.91	1619.94
411.12	1716.20
411.32	1744.87
411.53	1703.91
411.74	1746.92
411.95	1736.68
412.15	1771.49
412.36	1789.92
412.57	1744.87
412.77	1781.73
412.98	1742.82
413.19	1699.81
413.39	1703.91
413.60	1751.01
413.81	1806.31
414.01	1667.05
414.22	1724.39
414.43	1767.40
414.63	1755.11
414.84	1806.31
415.05	1714.15
415.25	1730.53
415.46	1798.12
415.67	1658.85
415.87	1736.68
416.08	1753.06
416.29	1708.01
416.49	1751.01
416.70	1679.33
416.91	1753.06
417.11	1662.95
417.32	1695.72
417.53	1798.12
417.73	1714.15
417.94	1671.14
418.15	1669.09
418.35	1710.05
418.56	1708.01
418.77	1843.17
418.97	1699.81
419.18	1720.29
419.38	1595.37
419.59	1744.87
419.80	1798.12
420.00	1675.24
420.21	1685.48
420.42	1789.92
420.62	1730.53
420.83	1746.92
421.04	1740.77
421.24	1638.38
421.45	1773.54
421.65	1796.07
421.86	1730.53
422.07	1718.25
422.27	1740.77
422.48	1636.33
422.69	1673.19
422.89	1781.73
423.10	1734.63
423.30	1689.57
423.51	1746.92
423.72	1712.10
423.92	1771.49
424.13	1710.05
424.33	1685.48
424.54	1779.68
424.75	1757.16
424.95	1791.97
425.16	1783.78
425.36	1656.81
425.57	1746.92
425.78	1802.21
425.98	1806.31
426.19	1601.51
426.39	1738.73
426.60	1769.44
426.81	1818.60
427.01	1751.01
427.22	1718.25
427.42	1628.14
427.63	1630.18
427.83	1744.87
428.04	1746.92
428.25	1832.93
428.45	1787.88
428.66	1791.97
428.86	1701.86
429.07	1685.48
429.28	1748.97
429.48	1693.67
429.69	1714.15
429.89	1775.59
430.10	1644.52
430.30	1763.30
430.51	1804.26
430.71	1687.53
430.92	1734.63
431.13	1714.15
431.33	1734.63
431.54	1699.81
431.74	1773.54
431.95	1789.92
432.15	1677.29
432.36	1730.53
432.56	1736.68
432.77	1816.55
432.98	1798.12
433.18	1726.44
433.39	1705.96
433.59	1710.05
433.80	1785.83
434.00	1871.84
434.21	1695.72
434.41	1726.44
434.62	1906.66
434.82	1642.47
435.03	1634.28
435.23	1755.11
435.44	1613.80
435.64	1705.96
435.85	1757.16
436.06	1763.30
436.26	1791.97
436.47	1794.02
436.67	1642.47
436.88	1640.42
437.08	1755.11
437.29	1828.84
437.49	1728.49
437.70	1746.92
437.90	1742.82
438.11	1841.12
438.31	1761.25
438.52	1861.60
438.72	1839.08
438.93	1906.66
439.13	1765.35
439.34	1775.59
439.54	1765.35
439.75	1779.68
439.95	1783.78
440.16	1720.29
440.36	1695.72
440.57	1841.12
440.77	1765.35
440.98	1765.35
441.18	1742.82
441.39	1658.85
441.59	1640.42
441.80	1900.52
442.00	1714.15
442.21	1847.27
442.41	1712.10
442.62	1761.25
442.82	1673.19
443.02	1767.40
443.23	1781.73
443.43	1759.21
443.64	1785.83
443.84	1630.18
444.05	1779.68
444.25	1775.59
444.46	1759.21
444.66	1785.83
444.87	1810.40
445.07	1642.47
445.28	1769.44
445.48	1808.36
445.69	1775.59
445.89	1882.08
446.09	1798.12
446.30	1974.24
446.50	2666.46
446.71	3737.54
446.91	4315.07
447.12	4794.29
447.32	4794.29
447.53	4372.41
447.73	3868.61
447.93	3598.28
448.14	3278.80
448.34	3184.59
448.55	2858.96
448.75	2836.44
448.96	2688.98
449.16	2424.80
449.36	2258.91
449.57	2035.68
449.77	1925.09
449.98	1771.49
450.18	1918.95
450.39	1824.74
450.59	1738.73
450.79	1740.77
451.00	1673.19
451.20	1714.15
451.41	1738.73
451.61	1830.88
451.81	1800.16
452.02	1769.44
452.22	1722.34
452.43	1781.73
452.63	1753.06
452.84	1789.92
453.04	1779.68
453.24	1757.16
453.45	1755.11
453.65	1755.11
453.86	1806.31
454.06	1736.68
454.26	1746.92
454.47	1701.86
454.67	1834.98
454.87	1736.68
455.08	1789.92
455.28	1880.04
455.49	1708.01
455.69	1728.49
455.89	1845.22
456.10	1777.64
456.30	1773.54
456.51	1783.78
456.71	1781.73
456.91	1751.01
457.12	1787.88
457.32	1720.29
457.52	1673.19
457.73	1742.82
457.93	1808.36
458.14	1740.77
458.34	1583.08
458.54	1759.21
458.75	1665.00
458.95	1796.07
459.15	1742.82
459.36	1687.53
459.56	1808.36
459.76	1791.97
459.97	1775.59
460.17	1753.06
460.37	1796.07
460.58	1716.20
460.78	1771.49
460.99	1742.82
461.19	1701.86
461.39	1691.62
461.60	1796.07
461.80	1738.73
462.00	1716.20
462.21	1671.14
462.41	1644.52
462.61	1665.00
462.82	1689.57
463.02	1814.50
463.22	1691.62
463.43	1744.87
463.63	1728.49
463.83	1761.25
464.04	1791.97
464.24	1734.63
464.44	1720.29
464.64	1742.82
464.85	1705.96
465.05	1744.87
465.25	1685.48
465.46	1748.97
465.66	1773.54
465.86	1832.93
466.07	1783.78
466.27	1708.01
466.47	1595.37
466.68	1640.42
466.88	1771.49
467.08	1804.26
467.29	1812.45
467.49	1757.16
467.69	1681.38
467.89	1738.73
468.10	1771.49
468.30	1748.97
468.50	1820.64
468.71	1701.86
468.91	1648.61
469.11	1888.23
469.31	1767.40
469.52	1669.09
469.72	1789.92
469.92	1947.62
470.13	1765.35
470.33	1789.92
470.53	1841.12
470.73	2181.09
470.94	2279.39
471.14	2357.21
471.34	2531.29
471.54	2441.18
471.75	2275.29
471.95	2211.81
472.15	2047.97
472.36	2054.11
472.56	2066.40
472.76	2136.03
472.96	2027.49
473.17	1906.66
473.37	1912.80
473.57	1775.59
473.77	1779.68
473.98	1794.02
474.18	1808.36
474.38	1845.22
474.58	1720.29
474.79	1673.19
474.99	1798.12
475.19	1783.78
475.39	1683.43
475.60	1697.77
475.80	1785.83
476.00	1705.96
476.20	1703.91
476.41	1755.11
476.61	1722.34
476.81	1796.07
477.01	1683.43
477.21	1822.69
477.42	1837.03
477.62	1650.66
477.82	1744.87
478.02	1722.34
478.23	1798.12
478.43	1648.61
478.63	1732.58
478.83	1718.25
479.03	1722.34
479.24	1746.92
479.44	1937.38
479.64	1728.49
479.84	1693.67
480.04	1665.00
480.25	1808.36
480.45	1718.25
480.65	1708.01
480.85	1800.16
481.06	1658.85
481.26	1779.68
481.46	1734.63
481.66	1712.10
481.86	1626.09
482.06	1757.16
482.27	1681.38
482.47	1718.25
482.67	1724.39
482.87	1656.81
483.07	1734.63
483.28	1718.25
483.48	1656.81
483.68	1689.57
483.88	1705.96
484.08	1566.70
484.29	1673.19
484.49	1697.77
484.69	1681.38
484.89	1816.55
485.09	1789.92
485.29	1802.21
485.50	1732.58
485.70	1742.82
485.90	1806.31
486.10	1708.01
486.30	1738.73
486.50	1769.44
486.71	1699.81
486.91	1761.25
487.11	1845.22
487.31	1648.61
487.51	1771.49
487.71	1599.46
487.91	1730.53
488.12	1734.63
488.32	1693.67
488.52	1687.53
488.72	1630.18
488.92	1742.82
489.12	1763.30
489.32	1783.78
489.53	1714.15
489.73	1613.80
489.93	1849.32
490.13	1710.05
490.33	1626.09
490.53	1757.16
490.73	1796.07
490.94	1648.61
491.14	1828.84
491.34	1863.65
491.54	2127.84
491.74	2551.77
491.94	2899.92
492.14	3090.38
492.34	3137.49
492.54	2822.10
492.75	2502.62
492.95	2496.47
493.15	2422.75
493.35	2289.63
493.55	2220.00
493.75	2160.61
493.95	2156.51
494.15	2086.88
494.35	2033.63
494.56	1875.94
494.76	1738.73
494.96	1828.84
495.16	1812.45
495.36	1732.58
495.56	1818.60
495.76	1718.25
495.96	1779.68
496.16	1673.19
496.36	1877.99
496.56	1738.73
496.77	1699.81
496.97	1703.91
497.17	1839.08
497.37	1654.76
497.57	1787.88
497.77	1767.40
497.97	1763.30
498.17	1703.91
498.37	1689.57
498.57	1695.72
498.77	1744.87
498.97	1734.63
499.17	1748.97
499.38	1808.36
499.58	1738.73
499.78	1796.07
499.98	1779.68
500.18	1687.53
500.38	1806.31
500.58	1966.05
500.78	2613.21
500.98	4542.39
501.18	5822.38
501.38	6817.69
501.58	7026.58
501.78	6731.67
501.98	5558.19
502.18	4964.28
502.38	4452.28
502.58	4122.56
502.78	3866.56
502.98	3649.48
503.18	3483.59
503.38	3297.23
503.59	2869.20
503.79	2699.22
503.99	2484.19
504.19	2213.85
504.39	2197.47
504.59	2172.89
504.79	2164.70
504.99	2017.25
505.19	1947.62
505.39	1923.04
505.59	2025.44
505.79	1961.95
505.99	1920.99
506.19	1779.68
506.39	1916.90
506.59	1769.44
506.79	1652.71
506.99	1761.25
507.19	1796.07
507.39	1761.25
507.59	1660.90
507.79	1718.25
507.99	1650.66
508.19	1740.77
508.39	1703.91
508.59	1712.10
508.79	1877.99
508.99	1884.13
509.19	1738.73
509.39	1771.49
509.59	1783.78
509.79	1714.15
509.99	1746.92
510.19	1810.40
510.39	1845.22
510.59	1685.48
510.79	1708.01
510.99	1779.68
511.19	1771.49
511.39	1824.74
511.59	1865.70
511.79	1787.88
511.99	1804.26
512.19	1853.41
512.38	1703.91
512.58	1679.33
512.78	1718.25
512.98	1808.36
513.18	1806.31
513.38	1630.18
513.58	1773.54
513.78	1705.96
513.98	1691.62
514.18	1681.38
514.38	1683.43
514.58	1794.02
514.78	1660.90
514.98	1701.86
515.18	1787.88
515.38	1621.99
515.58	1824.74
515.78	1722.34
515.98	1714.15
516.18	1759.21
516.38	1718.25
516.57	1714.15
516.77	1693.67
516.97	1699.81
517.17	1736.68
517.37	1603.56
517.57	1734.63
517.77	1783.78
517.97	1738.73
518.17	1742.82
518.37	1732.58
518.57	1675.24
518.77	1771.49
518.97	1808.36
519.16	1853.41
519.36	1736.68
519.56	1714.15
519.76	1769.44
519.96	1783.78
520.16	1726.44
520.36	1630.18
520.56	1789.92
520.76	1658.85
520.96	1781.73
521.16	1785.83
521.35	1820.64
521.55	1886.18
521.75	1746.92
521.95	1775.59
522.15	1728.49
522.35	1634.28
522.55	1624.04
522.75	1779.68
522.95	1703.91
523.14	1697.77
523.34	1681.38
523.54	1751.01
523.74	1814.50
523.94	1775.59
524.14	1658.85
524.34	1771.49
524.54	1826.79
524.73	1746.92
524.93	1685.48
525.13	1714.15
525.33	1615.85
525.53	1916.90
525.73	1742.82
525.93	1779.68
526.13	1734.63
526.32	1732.58
526.52	1861.60
526.72	1806.31
526.92	1712.10
527.12	1716.20
527.32	1718.25
527.52	1783.78
527.71	1812.45
527.91	1665.00
528.11	1675.24
528.31	1710.05
528.51	1624.04
528.71	1773.54
528.90	1724.39
529.10	1789.92
529.30	1855.46
529.50	1662.95
529.70	1767.40
529.90	1722.34
530.09	1708.01
530.29	1638.38
530.49	1724.39
530.69	1853.41
530.89	1701.86
531.09	1775.59
531.28	1699.81
531.48	1804.26
531.68	1751.01
531.88	1687.53
532.08	1800.16
532.28	1728.49
532.47	1746.92
532.67	1787.88
532.87	1720.29
533.07	1775.59
533.27	1814.50
533.46	1785.83
533.66	1701.86
533.86	1757.16
534.06	1734.63
534.26	1693.67
534.45	1753.06
534.65	1837.03
534.85	1773.54
535.05	1601.51
535.25	1753.06
535.44	1693.67
535.64	1806.31
535.84	1744.87
536.04	1746.92
536.24	1644.52
536.43	1671.14
536.63	1812.45
536.83	1722.34
537.03	1660.90
537.22	1699.81
537.42	1667.05
537.62	1849.32
537.82	1732.58
538.02	1767.40
538.21	1812.45
538.41	1863.65
538.61	1800.16
538.81	1710.05
539.00	1822.69
539.20	1705.96
539.40	1607.66
539.60	1779.68
539.79	1755.11
539.99	1712.10
540.19	1708.01
540.39	1759.21
540.58	1748.97
540.78	1755.11
540.98	1708.01
541.18	1892.32
541.37	1751.01
541.57	1708.01
541.77	1724.39
541.97	1619.94
542.16	1708.01
542.36	1759.21
542.56	1708.01
542.76	1851.36
542.95	1869.80
543.15	1757.16
543.35	1777.64
543.54	1751.01
543.74	1759.21
543.94	1779.68
544.14	1722.34
544.33	1798.12
544.53	1734.63
544.73	1665.00
544.93	1695.72
545.12	1718.25
545.32	1712.10
545.52	1673.19
545.71	1720.29
545.91	1691.62
546.11	1730.53
546.30	1669.09
546.50	1712.10
546.70	1796.07
546.90	1730.53
547.09	1638.38
547.29	1757.16
547.49	1744.87
547.68	1789.92
547.88	1667.05
548.08	1769.44
548.27	2156.51
548.47	1642.47
548.67	1714.15
548.87	1767.40
549.06	1685.48
549.26	1771.49
549.46	1781.73
549.65	1720.29
549.85	1689.57
550.05	1691.62
550.24	1607.66
550.44	1822.69
550.64	1714.15
550.83	1787.88
551.03	1816.55
551.23	1746.92
551.42	1755.11
551.62	1765.35
551.82	1732.58
552.01	1740.77
552.21	1816.55
552.41	1763.30
552.60	1841.12
552.80	1742.82
553.00	1681.38
553.19	1763.30
553.39	1820.64
553.59	1685.48
553.78	1814.50
553.98	1748.97
554.17	1640.42
554.37	1736.68
554.57	1789.92
554.76	1685.48
554.96	1718.25
555.16	1767.40
555.35	1759.21
555.55	1771.49
555.75	1753.06
555.94	1832.93
556.14	1677.29
556.33	1730.53
556.53	1718.25
556.73	1771.49
556.92	1812.45
557.12	1753.06
557.32	1832.93
557.51	1816.55
557.71	1751.01
557.90	1826.79
558.10	1730.53
558.30	1751.01
558.49	1746.92
558.69	1720.29
558.88	1767.40
559.08	1705.96
559.28	1728.49
559.47	1718.25
559.67	1736.68
559.86	1884.13
560.06	1767.40
560.26	1796.07
560.45	1757.16
560.65	1761.25
560.84	1779.68
561.04	1669.09
561.24	1675.24
561.43	1751.01
561.63	1830.88
561.82	1812.45
562.02	1781.73
562.22	1720.29
562.41	1755.11
562.61	1665.00
562.80	1734.63
563.00	1951.71
563.19	1755.11
563.39	1837.03
563.59	1732.58
563.78	1695.72
563.98	1705.96
564.17	1718.25
564.37	1660.90
564.56	1751.01
564.76	1695.72
564.96	1761.25
565.15	1720.29
565.35	1904.61
565.54	1740.77
565.74	1812.45
565.93	1785.83
566.13	1703.91
566.32	1695.72
566.52	1800.16
566.71	1761.25
566.91	1816.55
567.11	1697.77
567.30	1712.10
567.50	1712.10
567.69	1816.55
567.89	1738.73
568.08	1681.38
568.28	1808.36
568.47	1705.96
568.67	1851.36
568.86	1736.68
569.06	1787.88
569.25	1705.96
569.45	1650.66
569.64	1691.62
569.84	1681.38
570.04	1761.25
570.23	1712.10
570.43	1722.34
570.62	1697.77
570.82	1736.68
571.01	1691.62
571.21	1740.77
571.40	1744.87
571.60	1744.87
571.79	1791.97
571.99	1761.25
572.18	1683.43
572.38	1787.88
572.57	1691.62
572.77	1724.39
572.96	1920.99
573.16	1787.88
573.35	1736.68
573.55	1849.32
573.74	1777.64
573.94	1771.49
574.13	1787.88
574.33	1787.88
574.52	1798.12
574.71	1769.44
574.91	1804.26
575.10	1724.39
575.30	1763.30
575.49	1716.20
575.69	1765.35
575.88	1773.54
576.08	1775.59
576.27	1816.55
576.47	1787.88
576.66	1796.07
576.86	1796.07
577.05	1814.50
577.25	1794.02
577.44	1787.88
577.64	1630.18
577.83	1820.64
578.02	1757.16
578.22	1763.30
578.41	1849.32
578.61	1748.97
578.80	1681.38
579.00	1683.43
579.19	1714.15
579.39	1832.93
579.58	1851.36
579.77	1773.54
579.97	1843.17
580.16	1873.89
580.36	1824.74
580.55	1794.02
580.75	1777.64
580.94	1734.63
581.13	1937.38
581.33	1839.08
581.52	1730.53
581.72	1740.77
581.91	1869.80
582.11	1699.81
582.30	1794.02
582.49	1773.54
582.69	1839.08
582.88	1863.65
583.08	1746.92
583.27	1791.97
583.47	1796.07
583.66	1769.44
583.85	1738.73
584.05	1800.16
584.24	1751.01
584.44	1757.16
584.63	1859.56
584.82	1880.04
585.02	1775.59
585.21	1812.45
585.41	1871.84
585.60	1796.07
585.79	1890.28
585.99	1925.09
586.18	1775.59
586.37	2263.01
586.57	3284.94
586.76	9822.06
586.96	24102.54
587.15	34340.34
587.34	40654.23
587.54	42356.09
587.73	36642.26
587.93	26316.40
588.12	21855.92
588.31	18466.53
588.51	16357.13
588.70	15238.94
588.89	14225.19
589.09	12732.22
589.28	11124.57
589.47	9617.26
589.67	8017.80
589.86	6322.08
590.06	5009.33
590.25	3948.48
590.44	3127.25
590.64	2596.82
590.83	2263.01
591.02	2144.22
591.22	1910.75
591.41	1984.48
591.60	1826.79
591.80	1933.28
591.99	1789.92
592.18	1798.12
592.38	1855.46
592.57	1779.68
592.76	1753.06
592.96	1767.40
593.15	1863.65
593.34	1808.36
593.54	1830.88
593.73	1796.07
593.92	1816.55
594.12	1722.34
594.31	1796.07
594.50	1812.45
594.70	1877.99
594.89	1947.62
595.08	1656.81
595.28	1783.78
595.47	1945.57
595.66	1800.16
595.86	1697.77
596.05	1794.02
596.24	1675.24
596.43	1873.89
596.63	1839.08
596.82	1726.44
597.01	1716.20
597.21	1853.41
597.40	1832.93
597.59	1734.63
597.79	1714.15
597.98	1779.68
598.17	1806.31
598.36	1775.59
598.56	1789.92
598.75	1705.96
598.94	1796.07
599.14	1755.11
599.33	1710.05
599.52	1710.05
599.71	1751.01
599.91	1775.59
600.10	1665.00
600.29	1695.72
600.48	1849.32
600.68	1779.68
600.87	1785.83
601.06	1765.35
601.26	1755.11
601.45	1802.21
601.64	1791.97
601.83	1845.22
602.03	1765.35
602.22	1693.67
602.41	1800.16
602.60	1875.94
602.80	1746.92
602.99	1796.07
603.18	1697.77
603.37	1779.68
603.57	1767.40
603.76	1800.16
603.95	1886.18
604.14	1697.77
604.34	1703.91
604.53	1687.53
604.72	1748.97
604.91	1734.63
605.10	1712.10
605.30	1681.38
605.49	1834.98
605.68	1810.40
605.87	1751.01
606.07	1791.97
606.26	1802.21
606.45	1814.50
606.64	1759.21
606.84	1740.77
607.03	1800.16
607.22	1775.59
607.41	1609.70
607.60	1708.01
607.80	1814.50
607.99	1724.39
608.18	1779.68
608.37	1763.30
608.56	1761.25
608.76	1740.77
608.95	1789.92
609.14	1740.77
609.33	1828.84
609.52	1861.60
609.72	1767.40
609.91	1763.30
610.10	1724.39
610.29	1777.64
610.48	1791.97
610.68	1751.01
610.87	1734.63
611.06	1785.83
611.25	1738.73
611.44	1849.32
611.63	1771.49
611.83	1853.41
612.02	1615.85
612.21	1861.60
612.40	1667.05
612.59	1732.58
612.79	1679.33
612.98	1814.50
613.17	1804.26
613.36	1673.19
613.55	1841.12
613.74	1660.90
613.93	1712.10
614.13	1722.34
614.32	1701.86
614.51	1812.45
614.70	1773.54
614.89	1632.23
615.08	1746.92
615.28	2025.44
615.47	1603.56
615.66	1736.68
615.85	1687.53
616.04	1888.23
616.23	1726.44
616.42	1712.10
616.62	1671.14
616.81	1826.79
617.00	1687.53
617.19	1771.49
617.38	1687.53
617.57	1736.68
617.76	1716.20
617.95	1654.76
618.15	1824.74
618.34	1843.17
618.53	1673.19
618.72	1830.88
618.91	1910.75
619.10	1791.97
619.29	1695.72
619.48	1742.82
619.68	1699.81
619.87	1724.39
620.06	1611.75
620.25	1763.30
620.44	1669.09
620.63	1763.30
620.82	1814.50
621.01	1712.10
621.20	1734.63
621.39	1718.25
621.59	1767.40
621.78	1753.06
621.97	1763.30
622.16	1796.07
622.35	1759.21
622.54	1822.69
622.73	1744.87
622.92	1615.85
623.11	1710.05
623.30	1712.10
623.49	1779.68
623.68	1603.56
623.88	1787.88
624.07	1687.53
624.26	1740.77
624.45	1779.68
624.64	1728.49
624.83	1740.77
625.02	1732.58
625.21	1687.53
625.40	1769.44
625.59	1718.25
625.78	1724.39
625.97	1746.92
626.16	1869.80
626.35	1751.01
626.54	1699.81
626.74	1806.31
626.93	1714.15
627.12	1665.00
627.31	1828.84
627.50	1699.81
627.69	1808.36
627.88	1763.30
628.07	1742.82
628.26	1652.71
628.45	1705.96
628.64	1673.19
628.83	1667.05
629.02	1632.23
629.21	1773.54
629.40	1748.97
629.59	1617.90
629.78	1679.33
629.97	1755.11
630.16	1742.82
630.35	1724.39
630.54	1701.86
630.73	1740.77
630.92	1703.91
631.11	1773.54
631.30	1769.44
631.49	1794.02
631.68	1765.35
631.87	1695.72
632.06	1671.14
632.25	1812.45
632.44	1703.91
632.63	1710.05
632.82	1724.39
633.01	1652.71
633.20	1763.30
633.39	1632.23
633.58	1644.52
633.77	1705.96
633.96	1791.97
634.15	1697.77
634.34	1751.01
634.53	1775.59
634.72	1740.77
634.91	1652.71
635.10	1718.25
635.29	1787.88
635.48	1718.25
635.67	1701.86
635.86	1601.51
636.05	1746.92
636.24	1646.57
636.43	1757.16
636.62	1761.25
636.81	1601.51
637.00	1748.97
637.19	1718.25
637.38	1708.01
637.57	1658.85
637.76	1679.33
637.95	1765.35
638.14	1708.01
638.33	1773.54
638.52	1675.24
638.71	1638.38
638.89	1642.47
639.08	1906.66
639.27	1769.44
639.46	1705.96
639.65	1832.93
639.84	1714.15
640.03	1705.96
640.22	1695.72
640.41	1822.69
640.60	1791.97
640.79	1785.83
640.98	1759.21
641.17	1853.41
641.36	1796.07
641.55	1718.25
641.74	1722.34
641.92	1621.99
642.11	1654.76
642.30	1753.06
642.49	1669.09
642.68	1687.53
642.87	1791.97
643.06	1763.30
643.25	1724.39
643.44	1617.90
643.63	1703.91
643.82	1742.82
644.00	1673.19
644.19	1728.49
644.38	1726.44
644.57	1757.16
644.76	1669.09
644.95	1718.25
645.14	1757.16
645.33	1785.83
645.52	1734.63
645.71	1654.76
645.89	1662.95
646.08	1677.29
646.27	1710.05
646.46	1851.36
646.65	1632.23
646.84	1738.73
647.03	1685.48
647.22	1826.79
647.40	1697.77
647.59	1755.11
647.78	1638.38
647.97	1673.19
648.16	1624.04
648.35	1810.40
648.54	1804.26
648.73	1736.68
648.91	1775.59
649.10	1701.86
649.29	1769.44
649.48	1683.43
649.67	1759.21
649.86	1722.34
650.05	1652.71
650.23	1757.16
650.42	1693.67
650.61	1769.44
650.80	1759.21
650.99	1855.46
651.18	1751.01
651.36	1775.59
651.55	1705.96
651.74	1751.01
651.93	1775.59
652.12	1701.86
652.31	1720.29
652.49	1697.77
652.68	1669.09
652.87	1791.97
653.06	1742.82
653.25	1814.50
653.44	1679.33
653.62	1800.16
653.81	1697.77
654.00	1681.38
654.19	1783.78
654.38	1875.94
654.56	1763.30
654.75	1644.52
654.94	1767.40
655.13	1714.15
655.32	1740.77
655.51	1791.97
655.69	1619.94
655.88	1808.36
656.07	1671.14
656.26	1800.16
656.45	1617.90
656.63	1697.77
656.82	1834.98
657.01	1824.74
657.20	1697.77
657.38	1767.40
657.57	1671.14
657.76	1634.28
657.95	1808.36
658.14	1691.62
658.32	1732.58
658.51	1746.92
658.70	1796.07
658.89	1755.11
659.08	1742.82
659.26	1847.27
659.45	1761.25
659.64	1740.77
659.83	1644.52
660.01	1982.43
660.20	1716.20
660.39	1775.59
660.58	1662.95
660.76	1771.49
660.95	1648.61
661.14	1767.40
661.33	1658.85
661.51	1667.05
661.70	1730.53
661.89	1728.49
662.08	1800.16
662.26	1638.38
662.45	1681.38
662.64	1783.78
662.83	1828.84
663.01	1726.44
663.20	1677.29
663.39	1824.74
663.58	1697.77
663.76	1744.87
663.95	1755.11
664.14	1744.87
664.32	1716.20
664.51	1656.81
664.70	1685.48
664.89	1712.10
665.07	1652.71
665.26	1787.88
665.45	1660.90
665.64	1755.11
665.82	1814.50
666.01	1751.01
666.20	1701.86
666.38	1826.79
666.57	1834.98
666.76	2191.33
666.95	4503.48
667.13	10477.41
667.32	15447.83
667.51	18106.09
667.69	19160.80
667.88	17786.61
668.07	12611.39
668.25	9561.97
668.44	8144.77
668.63	7520.14
668.81	6809.50
669.00	6451.10
669.19	5758.89
669.38	5019.57
669.56	4712.38
669.75	4073.41
669.94	3508.17
670.12	3045.33
670.31	2615.26
670.50	2359.26
670.68	2074.59
670.87	1884.13
671.06	1841.12
671.24	1730.53
671.43	1812.45
671.62	1824.74
671.80	1771.49
671.99	1824.74
672.18	1634.28
672.36	1791.97
672.55	1736.68
672.74	1691.62
672.92	1767.40
673.11	1730.53
673.29	1720.29
673.48	1773.54
673.67	1767.40
673.85	1748.97
674.04	1691.62
674.23	1753.06
674.41	1808.36
674.60	1658.85
674.79	1675.24
674.97	1648.61
675.16	1746.92
675.34	1812.45
675.53	1632.23
675.72	1779.68
675.90	1877.99
676.09	1626.09
676.28	1736.68
676.46	1671.14
676.65	1849.32
676.83	1689.57
677.02	1697.77
677.21	1789.92
677.39	1738.73
677.58	1763.30
677.77	1658.85
677.95	1624.04
678.14	1638.38
678.32	1789.92
678.51	1703.91
678.70	1824.74
678.88	1703.91
679.07	1751.01
679.25	1767.40
679.44	1673.19
679.63	1656.81
679.81	1828.84
680.00	1834.98
680.18	1730.53
680.37	1769.44
680.55	1740.77
680.74	1652.71
680.93	1624.04
681.11	1738.73
681.30	1685.48
681.48	1626.09
681.67	1708.01
681.85	1691.62
682.04	1583.08
682.23	1794.02
682.41	1716.20
682.60	1685.48
682.78	1755.11
682.97	1646.57
683.15	1699.81
683.34	1726.44
683.53	1783.78
683.71	1603.56
683.90	1787.88
684.08	1818.60
684.27	1710.05
684.45	1699.81
684.64	1802.21
684.82	1705.96
685.01	1738.73
685.19	1742.82
685.38	1796.07
685.57	1648.61
685.75	1665.00
685.94	1710.05
686.12	1710.05
686.31	1669.09
686.49	1830.88
686.68	1570.79
686.86	1695.72
687.05	1734.63
687.23	1783.78
687.42	1669.09
687.60	1673.19
687.79	1763.30
687.97	1714.15
688.16	1767.40
688.34	1816.55
688.53	1558.50
688.71	1761.25
688.90	1712.10
689.08	1677.29
689.27	1640.42
689.45	1693.67
689.64	1769.44
689.82	1757.16
690.01	1822.69
690.19	1773.54
690.38	1798.12
690.56	1753.06
690.75	1669.09
690.93	1683.43
691.12	1687.53
691.30	1693.67
691.49	1638.38
691.67	1675.24
691.86	1796.07
692.04	1677.29
692.23	1656.81
692.41	1734.63
692.60	1751.01
692.78	1689.57
692.97	1673.19
693.15	1791.97
693.34	1816.55
693.52	1730.53
693.71	1757.16
693.89	1609.70
694.08	1568.74
694.26	1755.11
694.44	1744.87
694.63	1771.49
694.81	1701.86
695.00	1621.99
695.18	1675.24
695.37	1859.56
695.55	1746.92
695.74	1679.33
695.92	1658.85
696.10	1757.16
696.29	1609.70
696.47	1730.53
696.66	1630.18
696.84	1624.04
697.03	1689.57
697.21	1824.74
697.40	2308.06
697.58	1806.31
697.76	1701.86
697.95	1644.52
698.13	1638.38
698.32	1679.33
698.50	1751.01
698.68	1794.02
698.87	1728.49
699.05	1783.78
699.24	1644.52
699.42	1617.90
699.61	1644.52
699.79	1771.49
699.97	1736.68
700.16	1740.77
700.34	1624.04
700.53	1777.64
700.71	1834.98
700.89	1699.81
701.08	1734.63
701.26	1693.67
701.45	2078.69
701.63	1685.48
701.81	1742.82
702.00	1763.30
702.18	1761.25
702.37	1607.66
702.55	1712.10
702.73	1708.01
702.92	1634.28
703.10	1724.39
703.28	1787.88
703.47	1675.24
703.65	1769.44
703.84	1771.49
704.02	1632.23
704.20	1804.26
704.39	1689.57
704.57	1703.91
704.75	1726.44
704.94	1744.87
705.12	1806.31
705.30	1861.60
705.49	2246.62
705.67	4364.22
705.86	9432.94
706.04	12734.27
706.22	14690.08
706.41	15396.63
706.59	13627.18
706.77	9549.68
706.96	7434.13
707.14	6563.74
707.32	5904.29
707.51	5656.49
707.69	4855.73
707.87	4304.83
708.06	3579.85
708.24	3037.14
708.42	2398.17
708.61	2220.00
708.79	1853.41
708.97	1869.80
709.16	1804.26
709.34	1794.02
709.52	1796.07
709.71	1730.53
709.89	1728.49
710.07	1662.95
710.26	1695.72
710.44	1769.44
710.62	1791.97
710.80	1646.57
710.99	1767.40
711.17	1773.54
711.35	1695.72
711.54	1654.76
711.72	1804.26
711.90	1697.77
712.09	1732.58
712.27	1697.77
712.45	1703.91
712.63	1646.57
712.82	1742.82
713.00	1691.62
713.18	1728.49
713.37	1763.30
713.55	1824.74
713.73	1705.96
713.91	1748.97
714.10	1648.61
714.28	1701.86
714.46	1697.77
714.65	1775.59
714.83	1769.44
715.01	1642.47
715.19	1767.40
715.38	1642.47
715.56	1689.57
715.74	1695.72
715.92	1615.85
716.11	1875.94
716.29	1535.98
716.47	1652.71
716.65	1630.18
716.84	1591.27
717.02	1734.63
717.20	1595.37
717.38	1689.57
717.57	1660.90
717.75	1714.15
717.93	1650.66
718.11	1742.82
718.30	1624.04
718.48	1746.92
718.66	1724.39
718.84	1849.32
719.03	1777.64
719.21	1630.18
719.39	1816.55
719.57	1757.16
719.75	1787.88
719.94	1665.00
720.12	1703.91
720.30	1699.81
720.48	1734.63
720.67	1673.19
720.85	1562.60
721.03	1742.82
721.21	1681.38
721.39	1681.38
721.58	1810.40
721.76	1697.77
721.94	1755.11
722.12	1804.26
722.30	1820.64
722.49	1632.23
722.67	1708.01
722.85	1652.71
723.03	1611.75
723.21	1697.77
723.40	1695.72
723.58	1820.64
723.76	1710.05
723.94	1734.63
724.12	1673.19
724.30	1779.68
724.49	1806.31
724.67	1693.67
724.85	1787.88
725.03	1634.28
725.21	1773.54
725.40	1806.31
725.58	1710.05
725.76	1824.74
725.94	1691.62
726.12	1611.75
726.30	1720.29
726.49	1628.14
726.67	1761.25
726.85	1761.25
727.03	1794.02
727.21	2140.13
727.39	2877.40
727.57	3823.56
727.76	4286.40
727.94	4575.16
728.12	4313.02
728.30	3622.86
728.48	3108.82
728.66	2791.38
728.84	2631.64
729.03	2355.16
729.21	2101.22
729.39	1974.24
729.57	1935.33
729.75	1820.64
729.93	1920.99
730.11	1755.11
730.30	1716.20
730.48	1744.87
730.66	1775.59
730.84	1787.88
731.02	1751.01
731.20	1712.10
731.38	1763.30
731.56	1654.76
731.74	1687.53
731.93	1679.33
732.11	1839.08
732.29	1699.81
732.47	1710.05
732.65	1640.42
732.83	1789.92
733.01	1716.20
733.19	1687.53
733.37	1716.20
733.56	1755.11
733.74	1712.10
733.92	1800.16
734.10	1705.96
734.28	1699.81
734.46	1648.61
734.64	1722.34
734.82	1781.73
735.00	1693.67
735.18	1685.48
735.36	1660.90
735.54	1789.92
735.73	1783.78
735.91	1746.92
736.09	1834.98
736.27	1718.25
736.45	1726.44
736.63	1599.46
736.81	1632.23
736.99	1759.21
737.17	1798.12
737.35	1630.18
737.53	1791.97
737.71	1703.91
737.89	1779.68
738.07	1708.01
738.25	1634.28
738.43	1599.46
738.61	1642.47
738.80	1689.57
738.98	1722.34
739.16	1681.38
739.34	1665.00
739.52	1806.31
739.70	1701.86
739.88	1787.88
740.06	1732.58
740.24	1683.43
740.42	1761.25
740.60	1638.38
740.78	1693.67
740.96	1628.14
741.14	1648.61
741.32	1738.73
741.50	1693.67
741.68	1843.17
741.86	1810.40
742.04	1744.87
742.22	1615.85
742.40	1673.19
742.58	1699.81
742.76	1626.09
742.94	1791.97
743.12	1638.38
743.30	1705.96
743.48	1738.73
743.66	1642.47
743.84	1748.97
744.02	1693.67
744.20	1798.12
744.38	1669.09
744.56	1710.05
744.74	1810.40
744.92	1699.81
745.10	1800.16
745.28	1800.16
745.46	1769.44
745.64	1789.92
745.82	1810.40
746.00	1675.24
746.18	1679.33
746.36	1585.13
746.54	1685.48
746.72	1665.00
746.90	1703.91
747.08	1845.22
747.26	1716.20
747.44	1783.78
747.62	1718.25
747.80	1716.20
747.98	1785.83
748.15	1695.72
748.33	1849.32
748.51	1746.92
748.69	1763.30
748.87	1708.01
749.05	1683.43
749.23	1763.30
749.41	1726.44
749.59	1626.09
749.77	1808.36
749.95	1744.87
750.13	1675.24
750.31	1734.63
750.49	1609.70
750.67	1855.46
750.85	1853.41
751.03	1685.48
751.20	1857.51
751.38	1787.88
751.56	1703.91
751.74	1683.43
751.92	1708.01
752.10	1636.33
752.28	1791.97
752.46	1701.86
752.64	1730.53
752.82	1714.15
753.00	1781.73
753.18	1712.10
753.35	1705.96
753.53	1736.68
753.71	1685.48
753.89	1699.81
754.07	1671.14
754.25	1765.35
754.43	1722.34
754.61	1716.20
754.79	1681.38
754.97	1748.97
755.14	1763.30
755.32	1605.61
755.50	1679.33
755.68	1820.64
755.86	1626.09
756.04	1689.57
756.22	1650.66
756.40	1767.40
756.57	1837.03
756.75	1712.10
756.93	1722.34
757.11	1755.11
757.29	1593.32
757.47	1601.51
757.65	1599.46
757.82	1619.94
758.00	1714.15
758.18	1648.61
758.36	1656.81
758.54	1796.07
758.72	1593.32
758.90	1755.11
759.07	1742.82
759.25	1710.05
759.43	1703.91
759.61	1613.80
759.79	2224.09
759.97	1785.83
760.15	1726.44
760.32	1734.63
760.50	1818.60
760.68	1820.64
760.86	1667.05
761.04	1705.96
761.22	1761.25
761.39	1802.21
761.57	1777.64
761.75	1683.43
761.93	1705.96
762.11	1683.43
762.28	1808.36
762.46	1679.33
762.64	1765.35
762.82	1605.61
763.00	1685.48
763.18	1794.02
763.35	1654.76
763.53	1820.64
763.71	1710.05
763.89	1671.14
764.07	1767.40
764.24	1730.53
764.42	1753.06
764.60	1728.49
764.78	1732.58
764.96	1794.02
765.13	1722.34
765.31	1722.34
765.49	1791.97
765.67	1599.46
765.84	1609.70
766.02	1617.90
766.20	1681.38
766.38	1658.85
766.56	1714.15
766.73	1726.44
766.91	1767.40
767.09	1675.24
767.27	1708.01
767.44	1650.66
767.62	1791.97
767.80	1730.53
767.98	1697.77
768.15	1669.09
768.33	1644.52
768.51	1736.68
768.69	1712.10
768.87	1746.92
769.04	1665.00
769.22	1759.21
769.40	1785.83
769.58	1789.92
769.75	1742.82
769.93	1806.31
770.11	1667.05
770.28	1714.15
770.46	1767.40
770.64	1767.40
770.82	1597.42
770.99	1662.95
771.17	1759.21
771.35	1689.57
771.53	1681.38
771.70	1693.67
771.88	1722.34
772.06	1679.33
772.23	1763.30
772.41	1624.04
772.59	1728.49
772.77	1648.61
772.94	1738.73
773.12	1703.91
773.30	1679.33
773.47	1724.39
773.65	1638.38
773.83	1748.97
774.01	1728.49
774.18	1679.33
774.36	1789.92
774.54	1683.43
774.71	1669.09
774.89	1648.61
775.07	1589.22
775.24	1660.90
775.42	1681.38
775.60	1787.88
775.78	1693.67
775.95	1685.48
776.13	1615.85
776.31	1628.14
776.48	1726.44
776.66	1746.92
776.84	1726.44
777.01	1665.00
777.19	1734.63
777.37	1718.25
777.54	1808.36
777.72	1861.60
777.90	1748.97
778.07	1677.29
778.25	1859.56
778.43	1781.73
778.60	1667.05
778.78	1779.68
778.96	1806.31
779.13	1683.43
779.31	1828.84
779.49	1722.34
779.66	1699.81
779.84	1712.10
780.01	1689.57
780.19	1673.19
780.37	1677.29
780.54	1705.96
780.72	1650.66
780.90	1716.20
781.07	1697.77
781.25	1656.81
781.43	1720.29
781.60	1716.20
781.78	1697.77
781.95	1755.11
782.13	1611.75
782.31	1736.68
782.48	1632.23
782.66	1751.01
782.83	1939.43
783.01	1740.77
783.19	1847.27
783.36	1732.58
783.54	1624.04
783.72	1767.40
783.89	1689.57
784.07	1685.48
784.24	1740.77
784.42	1748.97
784.60	1746.92
784.77	1744.87
784.95	1605.61
785.12	1669.09
785.30	1671.14
785.47	1691.62
785.65	1695.72
785.83	1751.01
786.00	1644.52
786.18	1732.58
786.35	1722.34
786.53	1685.48
786.71	1779.68
786.88	1744.87
787.06	1738.73
787.23	1755.11
787.41	1656.81
787.58	1781.73
787.76	1693.67
787.94	1669.09
788.11	1599.46
788.29	1662.95
788.46	1691.62
788.64	1714.15
788.81	1679.33
788.99	1644.52
789.16	1656.81
789.34	1740.77
789.52	1673.19
789.69	1679.33
789.87	1570.79
790.04	1708.01
790.22	1648.61
790.39	1859.56
790.57	1644.52
790.74	1691.62
790.92	1767.40
791.09	1667.05
791.27	1757.16
791.44	1751.01
791.62	1716.20
791.79	1779.68
791.97	1716.20
792.15	1837.03
792.32	1708.01
792.50	1728.49
792.67	1787.88
792.85	1726.44
793.02	1730.53
793.20	1632.23
793.37	1587.18
793.55	1667.05
793.72	1681.38
793.90	1746.92
794.07	1708.01
794.25	1689.57
794.42	1705.96
794.60	1667.05
794.77	1757.16
794.95	1773.54
795.12	1736.68
795.30	1656.81
795.47	1533.93
795.65	1927.14
795.82	1683.43
796.00	1667.05
796.17	1705.96
796.34	1689.57
796.52	1718.25
796.69	1748.97
796.87	1746.92
797.04	1691.62
797.22	1667.05
797.39	1718.25
797.57	1767.40
797.74	1730.53
797.92	1744.87
798.09	1621.99
798.27	1701.86
798.44	1765.35
798.62	1636.33
798.79	1718.25
798.96	1652.71
799.14	1736.68
799.31	1865.70
799.49	1697.77
799.66	1683.43
799.84	1732.58
800.01	1646.57
800.19	1636.33
800.36	1695.72
800.53	1767.40
800.71	1740.77
800.88	1773.54
801.06	1693.67
801.23	1687.53
801.41	1722.34
801.58	1660.90
801.75	1652.71
801.93	1755.11
802.10	1744.87
802.28	1656.81
802.45	1708.01
802.63	1710.05
802.80	1748.97
802.97	1730.53
803.15	1703.91
803.32	1763.30
803.50	1708.01
803.67	1724.39
803.84	1675.24
804.02	1730.53
804.19	1681.38
804.37	1636.33
804.54	1736.68
804.71	1751.01
804.89	1660.90
805.06	1685.48
805.24	1699.81
805.41	1665.00
805.58	1781.73
805.76	1875.94
805.93	1703.91
806.10	1789.92
806.28	1859.56
806.45	1718.25
806.63	1726.44
806.80	1722.34
806.97	1644.52
807.15	1730.53
807.32	1693.67
807.49	1703.91
807.67	1695.72
807.84	1712.10
808.01	1646.57
808.19	1839.08
808.36	1810.40
808.54	1685.48
808.71	1718.25
808.88	1740.77
809.06	1779.68
809.23	1765.35
809.40	1705.96
809.58	1660.90
809.75	1726.44
809.92	1572.84
810.10	1861.60
810.27	1712.10
810.44	1759.21
810.62	1718.25
810.79	1812.45
810.96	1656.81
811.14	1726.44
811.31	1699.81
811.48	1708.01
811.66	1689.57
811.83	1796.07
812.00	1767.40
812.18	1730.53
812.35	1775.59
812.52	1693.67
812.69	1716.20
812.87	1705.96
813.04	1634.28
813.21	1650.66
813.39	1617.90
813.56	1589.22
813.73	1777.64
813.91	1587.18
814.08	1681.38
814.25	1677.29
814.42	1611.75
814.60	1687.53
814.77	1787.88
814.94	1687.53
815.12	1691.62
815.29	1742.82
815.46	1665.00
815.63	1730.53
815.81	1718.25
815.98	1779.68
816.15	1763.30
816.33	1642.47
816.50	1708.01
816.67	1691.62
816.84	1658.85
817.02	1599.46
817.19	1621.99
817.36	1603.56
817.53	1740.77
817.71	1673.19
817.88	1714.15
818.05	1693.67
818.22	1736.68
818.40	1812.45
818.57	1699.81
818.74	1740.77
818.91	1714.15
819.09	1738.73
819.26	1718.25
819.43	1744.87
819.60	1699.81
819.78	1787.88
819.95	1722.34
820.12	1621.99
820.29	1783.78
820.47	1744.87
820.64	1701.86
820.81	1550.31
820.98	1595.37
821.15	1683.43
821.33	1798.12
821.50	1681.38
821.67	1775.59
821.84	1722.34
822.02	1699.81
822.19	1646.57
822.36	1730.53
822.53	1730.53
822.70	1605.61
822.88	1742.82
823.05	1812.45
823.22	1689.57
823.39	1705.96
823.56	1607.66
823.74	1798.12
823.91	1654.76
824.08	1634.28
824.25	1652.71
824.42	1779.68
824.60	1652.71
824.77	1708.01
824.94	1697.77
825.11	1689.57
825.28	1570.79
825.45	1681.38
825.63	1746.92
825.80	1648.61
825.97	1701.86
826.14	1689.57
826.31	1677.29
826.48	1658.85
826.66	1626.09
826.83	1693.67
827.00	1722.34
827.17	1638.38
827.34	1671.14
827.51	1677.29
827.69	1683.43
827.86	1660.90
828.03	1746.92
828.20	1673.19
828.37	1677.29
828.54	1753.06
828.71	1722.34
828.89	1763.30
829.06	1703.91
829.23	1777.64
829.40	1658.85
829.57	1646.57
829.74	1783.78
829.91	1660.90
830.09	1675.24
830.26	1794.02
830.43	1751.01
830.60	1738.73
830.77	1734.63
830.94	1791.97
831.11	1703.91
831.28	1724.39
831.46	1824.74
831.63	1726.44
831.80	1734.63
831.97	1708.01
832.14	1671.14
832.31	1710.05
832.48	1746.92
832.65	1765.35
832.82	1712.10
832.99	1703.91
833.17	1689.57
833.34	1773.54
833.51	1767.40
833.68	1619.94
833.85	1787.88
834.02	1632.23
834.19	1658.85
834.36	1609.70
834.53	1722.34
834.70	1718.25
834.87	1779.68
835.04	1718.25
835.22	1593.32
835.39	1685.48
835.56	1705.96
835.73	1667.05
835.90	1730.53
836.07	1669.09
836.24	1748.97
836.41	1599.46
836.58	1652.71
836.75	1761.25
836.92	1697.77
837.09	1665.00
837.26	1726.44
837.43	1771.49
837.60	1785.83
837.77	1636.33
837.94	1757.16
838.12	1763.30
838.29	1767.40
838.46	1654.76
838.63	1603.56
838.80	1785.83
838.97	1681.38
839.14	1667.05
839.31	1677.29
839.48	1765.35
839.65	1699.81
839.82	1804.26
839.99	1787.88
840.16	1742.82
840.33	1566.70
840.50	1726.44
840.67	1589.22
840.84	1652.71
841.01	1734.63
841.18	1744.87
841.35	1665.00
841.52	1753.06
841.69	1818.60
841.86	1714.15
842.03	1755.11
842.20	1781.73
842.37	1685.48
842.54	1679.33
842.71	1716.20
842.88	1677.29
843.05	1832.93
843.22	1804.26
843.39	1726.44
843.56	1665.00
843.73	1697.77
843.90	1736.68
844.07	1746.92
844.24	1746.92
844.41	1740.77
844.58	1714.15
844.75	1685.48
844.92	1781.73
845.09	1703.91
845.26	1689.57
845.43	1699.81
845.60	1730.53
845.77	1796.07
845.94	1681.38
846.10	1865.70
846.27	1591.27
846.44	1691.62
846.61	1755.11
846.78	1769.44
846.95	1751.01
847.12	1681.38
847.29	1697.77
847.46	1681.38
847.63	1800.16
847.80	1644.52
847.97	1716.20
848.14	1843.17
848.31	1665.00
848.48	1636.33
848.65	1798.12
848.82	1615.85
848.98	1904.61
849.15	1714.15
849.32	1791.97
849.49	1748.97
849.66	1730.53
849.83	1695.72
850.00	1705.96
850.17	1714.15
850.34	1720.29
850.51	1665.00
850.68	1669.09
850.85	1880.04
851.01	1742.82
851.18	1722.34
851.35	1705.96
851.52	1701.86
851.69	1783.78
851.86	1576.94
852.03	1722.34
852.20	1701.86
852.37	1685.48
852.53	1605.61
852.70	1714.15
852.87	1712.10
853.04	1736.68
853.21	1642.47
853.38	1755.11
853.55	1783.78
853.72	1808.36
853.89	1595.37
854.05	1751.01
854.22	1650.66
854.39	1738.73
854.56	1791.97
854.73	1824.74
854.90	1679.33
855.07	1689.57
855.23	1701.86
855.40	1701.86
855.57	1738.73
855.74	1630.18
855.91	1906.66
856.08	1652.71
856.25	1607.66
856.41	1714.15
856.58	1685.48
856.75	1699.81
856.92	1640.42
857.09	1712.10
857.26	1638.38
857.42	1675.24
857.59	1785.83
857.76	1679.33
857.93	1720.29
858.10	1742.82
858.27	1716.20
858.43	1714.15
858.60	1665.00
858.77	1662.95
858.94	1716.20
859.11	1742.82
859.27	1662.95
859.44	1679.33
859.61	1755.11
859.78	1748.97
859.95	1691.62
860.12	1720.29
860.28	1779.68
860.45	1761.25
860.62	1759.21
860.79	1708.01
860.95	1654.76
861.12	1708.01
861.29	1628.14
861.46	1624.04
861.63	1730.53
861.79	1744.87
861.96	1615.85
862.13	1714.15
862.30	1673.19
862.47	1660.90
862.63	1691.62
862.80	1748.97
862.97	1710.05
863.14	1734.63
863.30	1755.11
863.47	1636.33
863.64	1783.78
863.81	1689.57
863.97	1726.44
864.14	1730.53
864.31	1718.25
864.48	1734.63
864.65	1689.57
864.81	1748.97
864.98	1716.20
865.15	1746.92
865.32	1800.16
865.48	1789.92
865.65	1810.40
865.82	1693.67
865.98	1722.34
866.15	1751.01
866.32	1644.52
866.49	1705.96
866.65	1710.05
866.82	1599.46
866.99	1726.44
867.16	1685.48
867.32	1714.15
867.49	1671.14
867.66	1681.38
867.83	1671.14
867.99	1615.85
868.16	1619.94
868.33	1669.09
868.49	1671.14
868.66	1650.66
868.83	1675.24
868.99	1705.96
869.16	1718.25
869.33	1787.88
869.50	1699.81
869.66	1691.62
869.83	1687.53
870.00	1673.19
870.16	1791.97
870.33	1665.00
870.50	1814.50
870.66	1740.77
870.83	1832.93
871.00	1748.97
871.17	1648.61
871.33	1779.68
871.50	1734.63
871.67	1716.20
871.83	1621.99
872.00	1810.40
872.17	1675.24
872.33	1765.35
872.50	1755.11
872.67	1665.00
872.83	1673.19
873.00	1748.97
873.17	1742.82
873.33	1742.82
873.50	1771.49
873.67	1630.18
873.83	1716.20
874.00	1763.30
874.16	1724.39
874.33	1660.90
874.50	1673.19
874.66	1755.11
874.83	1744.87
875.00	1699.81
875.16	1787.88
875.33	1789.92
875.50	1607.66
875.66	1738.73
875.83	1636.33
875.99	1757.16
876.16	1624.04
876.33	1638.38
876.49	1642.47
876.66	1712.10
876.83	1675.24
876.99	1619.94
877.16	1724.39
877.32	1708.01
877.49	1648.61
877.66	1765.35
877.82	1816.55
877.99	1744.87
878.15	1673.19
878.32	1681.38
878.49	1732.58
878.65	1720.29
878.82	1726.44
878.98	1732.58
879.15	1677.29
879.32	1804.26
879.48	1630.18
879.65	1660.90
879.81	1710.05
879.98	1642.47
880.15	1693.67
880.31	1687.53
880.48	1624.04
880.64	1787.88
880.81	1771.49
880.97	1806.31
881.14	1693.67
881.31	1658.85
881.47	1796.07
881.64	1726.44
881.80	1646.57
881.97	1701.86
882.13	1740.77
882.30	1640.42
882.47	1632.23
882.63	1652.71
882.80	1718.25
882.96	1636.33
883.13	1697.77
883.29	1708.01
883.46	1705.96
883.62	1873.89
883.79	1718.25
883.95	1761.25
884.12	1759.21
884.29	1765.35
884.45	1771.49
884.62	1744.87
884.78	1697.77
884.95	1822.69
885.11	1691.62
885.28	1705.96
885.44	1705.96
885.61	1808.36
885.77	1746.92
885.94	1773.54
886.10	1718.25
886.27	1703.91
886.43	1841.12
886.60	1802.21
886.76	1691.62
886.93	1634.28
887.09	1816.55
887.26	1605.61
887.42	1720.29
887.59	1734.63
887.75	1859.56
887.92	1712.10
888.08	1763.30
888.25	1804.26
888.41	1726.44
888.58	1662.95
888.74	1660.90
888.91	1746.92
>>>>>End Processed Spectral Data<<<<<
