SpectraSuite Data File
++++++++++++++++++++++++++++++++++++
Date: Mon Jun 06 13:37:37 CEST 2016
User: root
Dark Spectrum Present: No
Reference Spectrum Present: No
Number of Sampled Component Spectra: 1
Spectrometers: USB4C02835
Integration Time (usec): 100000 (USB4C02835)
Spectra Averaged: 1 (USB4C02835)
Boxcar Smoothing: 0 (USB4C02835)
Correct for Electrical Dark: No (USB4C02835)
Strobe/Lamp Enabled: No (USB4C02835)
Correct for Detector Non-linearity: No (USB4C02835)
Correct for Stray Light: No (USB4C02835)
Number of Pixels in Processed Spectrum: 3648
>>>>>Begin Processed Spectral Data<<<<<
177.47	1419.24
177.69	1419.24
177.91	1419.24
178.13	1521.64
178.36	1488.87
178.58	1624.04
178.80	1675.24
179.02	1658.85
179.24	1619.94
179.46	1718.25
179.68	1779.68
179.90	1681.38
180.13	1724.39
180.35	1660.90
180.57	1685.48
180.79	1740.77
181.01	1712.10
181.23	1695.72
181.45	1794.02
181.67	1767.40
181.90	1818.60
182.12	1630.18
182.34	1550.31
182.56	1716.20
182.78	1679.33
183.00	1759.21
183.22	1765.35
183.44	1611.75
183.66	1771.49
183.89	1695.72
184.11	1718.25
184.33	1767.40
184.55	1843.17
184.77	1714.15
184.99	1740.77
185.21	1626.09
185.43	1812.45
185.65	1677.29
185.87	1734.63
186.10	1884.13
186.32	1816.55
186.54	1685.48
186.76	1724.39
186.98	1693.67
187.20	1689.57
187.42	1665.00
187.64	1624.04
187.86	1748.97
188.08	1757.16
188.30	1710.05
188.52	1697.77
188.75	1755.11
188.97	1783.78
189.19	1681.38
189.41	1724.39
189.63	1734.63
189.85	1669.09
190.07	1613.80
190.29	1734.63
190.51	1679.33
190.73	1603.56
190.95	1757.16
191.17	1673.19
191.39	1646.57
191.61	1685.48
191.84	1644.52
192.06	1689.57
192.28	1587.18
192.50	1841.12
192.72	1689.57
192.94	1685.48
193.16	1779.68
193.38	1693.67
193.60	1587.18
193.82	1669.09
194.04	1759.21
194.26	1677.29
194.48	1701.86
194.70	1693.67
194.92	1695.72
195.14	1667.05
195.36	1703.91
195.58	1697.77
195.80	1730.53
196.02	1660.90
196.24	1660.90
196.46	1781.73
196.69	1724.39
196.91	1783.78
197.13	1603.56
197.35	1673.19
197.57	1701.86
197.79	1712.10
198.01	1701.86
198.23	1705.96
198.45	1722.34
198.67	1601.51
198.89	1634.28
199.11	1669.09
199.33	1669.09
199.55	1607.66
199.77	1710.05
199.99	1689.57
200.21	1710.05
200.43	1683.43
200.65	1665.00
200.87	1525.74
201.09	1683.43
201.31	1665.00
201.53	1759.21
201.75	1685.48
201.97	1736.68
202.19	1767.40
202.41	1703.91
202.63	1839.08
202.85	1679.33
203.07	1718.25
203.29	1720.29
203.51	1695.72
203.73	1589.22
203.95	1869.80
204.17	1753.06
204.39	1736.68
204.61	1736.68
204.83	1644.52
205.05	1726.44
205.27	1669.09
205.49	1746.92
205.71	1640.42
205.93	1605.61
206.15	1726.44
206.37	1720.29
206.59	1654.76
206.81	1626.09
207.03	1636.33
207.25	1597.42
207.47	1744.87
207.69	1656.81
207.91	1781.73
208.13	1804.26
208.34	1658.85
208.56	1595.37
208.78	1685.48
209.00	1701.86
209.22	1689.57
209.44	1662.95
209.66	1689.57
209.88	1687.53
210.10	1695.72
210.32	1685.48
210.54	1779.68
210.76	1710.05
210.98	1681.38
211.20	1572.84
211.42	1689.57
211.64	1753.06
211.86	1705.96
212.08	1705.96
212.30	1751.01
212.52	1687.53
212.74	1746.92
212.96	1710.05
213.17	1742.82
213.39	1759.21
213.61	1724.39
213.83	1671.14
214.05	1669.09
214.27	1808.36
214.49	1683.43
214.71	1644.52
214.93	1726.44
215.15	1728.49
215.37	1726.44
215.59	1632.23
215.81	1662.95
216.03	1824.74
216.24	1722.34
216.46	1718.25
216.68	1730.53
216.90	1712.10
217.12	1693.67
217.34	1691.62
217.56	1787.88
217.78	1791.97
218.00	1699.81
218.22	1681.38
218.44	1722.34
218.66	1705.96
218.87	1814.50
219.09	1673.19
219.31	1794.02
219.53	1771.49
219.75	1705.96
219.97	1679.33
220.19	1738.73
220.41	1724.39
220.63	1798.12
220.85	1691.62
221.06	1667.05
221.28	1759.21
221.50	1779.68
221.72	1714.15
221.94	1718.25
222.16	1693.67
222.38	1810.40
222.60	1777.64
222.82	1718.25
223.03	1708.01
223.25	1675.24
223.47	1730.53
223.69	1742.82
223.91	1716.20
224.13	1691.62
224.35	1640.42
224.57	1716.20
224.78	1716.20
225.00	1669.09
225.22	1589.22
225.44	1646.57
225.66	1703.91
225.88	1650.66
226.10	1722.34
226.32	1650.66
226.53	1791.97
226.75	1697.77
226.97	1724.39
227.19	1730.53
227.41	1699.81
227.63	1769.44
227.85	1611.75
228.06	1724.39
228.28	1617.90
228.50	1763.30
228.72	1697.77
228.94	1677.29
229.16	1634.28
229.37	1654.76
229.59	1681.38
229.81	1740.77
230.03	1640.42
230.25	1644.52
230.47	1665.00
230.69	1656.81
230.90	1767.40
231.12	1677.29
231.34	1740.77
231.56	1751.01
231.78	1644.52
232.00	1697.77
232.21	1669.09
232.43	1699.81
232.65	1558.50
232.87	1681.38
233.09	1644.52
233.30	1644.52
233.52	1728.49
233.74	1640.42
233.96	1673.19
234.18	1658.85
234.40	1628.14
234.61	1789.92
234.83	1654.76
235.05	1609.70
235.27	1802.21
235.49	1779.68
235.70	1779.68
235.92	1761.25
236.14	1738.73
236.36	1820.64
236.58	1632.23
236.79	1740.77
237.01	1644.52
237.23	1732.58
237.45	1832.93
237.67	1607.66
237.88	1669.09
238.10	1765.35
238.32	1628.14
238.54	1732.58
238.76	1804.26
238.97	1644.52
239.19	1658.85
239.41	1783.78
239.63	1738.73
239.85	1675.24
240.06	1699.81
240.28	1708.01
240.50	1699.81
240.72	1658.85
240.93	1675.24
241.15	1679.33
241.37	1734.63
241.59	1802.21
241.81	1640.42
242.02	1650.66
242.24	1693.67
242.46	1701.86
242.68	1712.10
242.89	1730.53
243.11	1744.87
243.33	1673.19
243.55	1767.40
243.76	1695.72
243.98	1677.29
244.20	1642.47
244.42	1681.38
244.64	1699.81
244.85	1751.01
245.07	1667.05
245.29	1738.73
245.51	1736.68
245.72	1722.34
245.94	1724.39
246.16	1728.49
246.38	1753.06
246.59	1708.01
246.81	1650.66
247.03	1697.77
247.24	1591.27
247.46	1685.48
247.68	1779.68
247.90	1701.86
248.11	1642.47
248.33	1740.77
248.55	1814.50
248.77	1724.39
248.98	1738.73
249.20	1755.11
249.42	1777.64
249.64	1722.34
249.85	1728.49
250.07	1679.33
250.29	1730.53
250.50	1800.16
250.72	1640.42
250.94	1697.77
251.16	1824.74
251.37	1787.88
251.59	1710.05
251.81	1724.39
252.02	1834.98
252.24	1681.38
252.46	1734.63
252.68	1650.66
252.89	1673.19
253.11	1621.99
253.33	1751.01
253.54	1767.40
253.76	1603.56
253.98	1683.43
254.20	1710.05
254.41	1603.56
254.63	1667.05
254.85	1607.66
255.06	1683.43
255.28	1787.88
255.50	1665.00
255.71	1710.05
255.93	1671.14
256.15	1728.49
256.36	1847.27
256.58	1638.38
256.80	1699.81
257.02	1697.77
257.23	1624.04
257.45	1728.49
257.67	1767.40
257.88	1669.09
258.10	1691.62
258.32	1708.01
258.53	1701.86
258.75	1800.16
258.97	1640.42
259.18	1765.35
259.40	1791.97
259.62	1742.82
259.83	1796.07
260.05	1724.39
260.27	2009.06
260.48	1746.92
260.70	1712.10
260.92	1656.81
261.13	1763.30
261.35	1701.86
261.57	1685.48
261.78	1673.19
262.00	1628.14
262.22	1699.81
262.43	1640.42
262.65	1654.76
262.86	1687.53
263.08	1847.27
263.30	1701.86
263.51	1589.22
263.73	1722.34
263.95	1687.53
264.16	1716.20
264.38	1693.67
264.60	1675.24
264.81	1673.19
265.03	1730.53
265.25	1710.05
265.46	1636.33
265.68	1718.25
265.89	1705.96
266.11	1546.22
266.33	1761.25
266.54	1724.39
266.76	1724.39
266.98	1789.92
267.19	1822.69
267.41	1781.73
267.62	1699.81
267.84	1595.37
268.06	1738.73
268.27	1800.16
268.49	1765.35
268.70	1728.49
268.92	1757.16
269.14	1722.34
269.35	1548.26
269.57	1779.68
269.79	1705.96
270.00	1644.52
270.22	1855.46
270.43	1673.19
270.65	1517.54
270.87	1681.38
271.08	1789.92
271.30	1724.39
271.51	1697.77
271.73	1751.01
271.95	1738.73
272.16	1574.89
272.38	1685.48
272.59	1656.81
272.81	1718.25
273.02	1697.77
273.24	1722.34
273.46	1744.87
273.67	1585.13
273.89	1722.34
274.10	1671.14
274.32	1699.81
274.54	1681.38
274.75	1728.49
274.97	1722.34
275.18	1732.58
275.40	1738.73
275.61	1740.77
275.83	1714.15
276.05	1591.27
276.26	1675.24
276.48	1716.20
276.69	1703.91
276.91	1665.00
277.12	1822.69
277.34	1755.11
277.55	1755.11
277.77	1685.48
277.99	1681.38
278.20	1646.57
278.42	1660.90
278.63	1615.85
278.85	1628.14
279.06	1644.52
279.28	1693.67
279.49	1791.97
279.71	1751.01
279.93	1671.14
280.14	1728.49
280.36	1802.21
280.57	1759.21
280.79	1716.20
281.00	1617.90
281.22	1660.90
281.43	1693.67
281.65	1599.46
281.86	1628.14
282.08	1701.86
282.29	1824.74
282.51	1583.08
282.73	1636.33
282.94	1558.50
283.16	1718.25
283.37	1761.25
283.59	1730.53
283.80	1746.92
284.02	1755.11
284.23	1724.39
284.45	1751.01
284.66	1636.33
284.88	1621.99
285.09	1740.77
285.31	1640.42
285.52	1742.82
285.74	1593.32
285.95	1652.71
286.17	1746.92
286.38	1759.21
286.60	1658.85
286.81	1720.29
287.03	1736.68
287.24	1730.53
287.46	1732.58
287.67	1757.16
287.89	1751.01
288.10	1646.57
288.32	1738.73
288.53	1912.80
288.75	1677.29
288.96	1767.40
289.18	1628.14
289.39	1654.76
289.61	1742.82
289.82	1892.32
290.04	1785.83
290.25	1705.96
290.47	1720.29
290.68	1683.43
290.90	1796.07
291.11	1628.14
291.33	1753.06
291.54	1673.19
291.76	1642.47
291.97	1726.44
292.18	1697.77
292.40	1644.52
292.61	1603.56
292.83	1855.46
293.04	1779.68
293.26	1705.96
293.47	1681.38
293.69	1634.28
293.90	1695.72
294.12	1767.40
294.33	1685.48
294.55	1685.48
294.76	1765.35
294.97	1787.88
295.19	1828.84
295.40	1669.09
295.62	1740.77
295.83	1712.10
296.05	1669.09
296.26	1710.05
296.48	1662.95
296.69	1658.85
296.90	1697.77
297.12	1746.92
297.33	1730.53
297.55	1738.73
297.76	1650.66
297.98	1753.06
298.19	1761.25
298.41	1748.97
298.62	1632.23
298.83	1822.69
299.05	1665.00
299.26	1587.18
299.48	1669.09
299.69	1697.77
299.90	1724.39
300.12	1630.18
300.33	1746.92
300.55	1761.25
300.76	1726.44
300.98	1673.19
301.19	1787.88
301.40	1677.29
301.62	1652.71
301.83	1677.29
302.05	1634.28
302.26	1695.72
302.47	1716.20
302.69	1650.66
302.90	1671.14
303.12	1546.22
303.33	1800.16
303.54	1787.88
303.76	1724.39
303.97	1712.10
304.19	1853.41
304.40	1656.81
304.61	1814.50
304.83	1808.36
305.04	1755.11
305.26	1763.30
305.47	1691.62
305.68	1798.12
305.90	1581.03
306.11	1851.36
306.33	1718.25
306.54	1665.00
306.75	1675.24
306.97	1615.85
307.18	1656.81
307.39	1693.67
307.61	1681.38
307.82	1665.00
308.04	1791.97
308.25	1630.18
308.46	1751.01
308.68	1701.86
308.89	1730.53
309.10	1712.10
309.32	1744.87
309.53	1681.38
309.74	1701.86
309.96	1740.77
310.17	1748.97
310.39	1732.58
310.60	1683.43
310.81	1638.38
311.03	1621.99
311.24	1708.01
311.45	1660.90
311.67	1824.74
311.88	1681.38
312.09	1568.74
312.31	1609.70
312.52	1683.43
312.73	1763.30
312.95	1554.41
313.16	1640.42
313.37	1757.16
313.59	1714.15
313.80	1722.34
314.01	1730.53
314.23	1712.10
314.44	1755.11
314.65	1679.33
314.87	1621.99
315.08	1638.38
315.29	1677.29
315.51	1689.57
315.72	1613.80
315.93	1798.12
316.15	1740.77
316.36	1722.34
316.57	1685.48
316.79	1753.06
317.00	1724.39
317.21	1740.77
317.43	1662.95
317.64	1746.92
317.85	1703.91
318.07	1624.04
318.28	1714.15
318.49	1822.69
318.70	1910.75
318.92	1824.74
319.13	1789.92
319.34	1896.42
319.56	1736.68
319.77	1718.25
319.98	1802.21
320.20	1716.20
320.41	1728.49
320.62	1771.49
320.83	1658.85
321.05	1763.30
321.26	1775.59
321.47	1699.81
321.69	1738.73
321.90	1621.99
322.11	1675.24
322.32	1722.34
322.54	1787.88
322.75	1710.05
322.96	1843.17
323.18	1640.42
323.39	1560.55
323.60	1679.33
323.81	1753.06
324.03	1615.85
324.24	1658.85
324.45	1777.64
324.66	1714.15
324.88	1775.59
325.09	1720.29
325.30	1650.66
325.52	1771.49
325.73	1787.88
325.94	1665.00
326.15	1703.91
326.37	1693.67
326.58	1798.12
326.79	1716.20
327.00	1621.99
327.22	1642.47
327.43	1726.44
327.64	1656.81
327.85	1712.10
328.07	1693.67
328.28	1855.46
328.49	1626.09
328.70	1673.19
328.92	1642.47
329.13	1720.29
329.34	1716.20
329.55	1810.40
329.76	1763.30
329.98	1726.44
330.19	1759.21
330.40	1740.77
330.61	1722.34
330.83	1771.49
331.04	1689.57
331.25	1710.05
331.46	1660.90
331.68	1658.85
331.89	1730.53
332.10	1677.29
332.31	1583.08
332.52	1662.95
332.74	1765.35
332.95	1613.80
333.16	1656.81
333.37	1771.49
333.58	1736.68
333.80	1693.67
334.01	1581.03
334.22	1679.33
334.43	1644.52
334.64	1611.75
334.86	1665.00
335.07	1603.56
335.28	1736.68
335.49	1665.00
335.70	1757.16
335.92	1824.74
336.13	1806.31
336.34	1783.78
336.55	1730.53
336.76	1669.09
336.98	1585.13
337.19	1693.67
337.40	1796.07
337.61	1871.84
337.82	1701.86
338.04	1744.87
338.25	1556.46
338.46	1683.43
338.67	1665.00
338.88	1671.14
339.09	1718.25
339.31	1658.85
339.52	1632.23
339.73	1587.18
339.94	1652.71
340.15	1742.82
340.36	1662.95
340.58	1693.67
340.79	1757.16
341.00	1744.87
341.21	1675.24
341.42	1820.64
341.63	1708.01
341.85	1720.29
342.06	1681.38
342.27	1638.38
342.48	1691.62
342.69	1691.62
342.90	1742.82
343.12	1703.91
343.33	1693.67
343.54	1755.11
343.75	1738.73
343.96	1751.01
344.17	1673.19
344.38	1697.77
344.60	1652.71
344.81	1644.52
345.02	1708.01
345.23	1789.92
345.44	1742.82
345.65	1748.97
345.86	1722.34
346.07	1611.75
346.29	1628.14
346.50	1697.77
346.71	1759.21
346.92	1771.49
347.13	1812.45
347.34	1685.48
347.55	1673.19
347.76	1808.36
347.98	1630.18
348.19	1624.04
348.40	1720.29
348.61	1732.58
348.82	1826.79
349.03	1791.97
349.24	1636.33
349.45	1841.12
349.66	1597.42
349.88	1642.47
350.09	1646.57
350.30	1785.83
350.51	1726.44
350.72	1751.01
350.93	1755.11
351.14	1646.57
351.35	1728.49
351.56	1734.63
351.77	1669.09
351.99	1726.44
352.20	1802.21
352.41	1728.49
352.62	1603.56
352.83	1656.81
353.04	1689.57
353.25	1681.38
353.46	1748.97
353.67	1794.02
353.88	1652.71
354.09	1722.34
354.30	1624.04
354.52	1679.33
354.73	1671.14
354.94	1656.81
355.15	1675.24
355.36	1851.36
355.57	1652.71
355.78	1658.85
355.99	1648.61
356.20	1642.47
356.41	1689.57
356.62	1667.05
356.83	1689.57
357.04	1757.16
357.25	1591.27
357.46	1732.58
357.68	1609.70
357.89	1669.09
358.10	1689.57
358.31	1773.54
358.52	1718.25
358.73	1652.71
358.94	1689.57
359.15	1685.48
359.36	1736.68
359.57	1703.91
359.78	1656.81
359.99	1687.53
360.20	1609.70
360.41	1650.66
360.62	1701.86
360.83	1665.00
361.04	1685.48
361.25	1773.54
361.46	1785.83
361.67	1685.48
361.88	1703.91
362.09	1722.34
362.30	1777.64
362.51	1681.38
362.72	1789.92
362.93	1746.92
363.14	1740.77
363.35	1626.09
363.56	1730.53
363.78	1781.73
363.99	1761.25
364.20	1683.43
364.41	1705.96
364.62	1802.21
364.83	1773.54
365.04	1693.67
365.25	1667.05
365.46	1794.02
365.67	1642.47
365.88	1742.82
366.09	1679.33
366.30	1673.19
366.51	1681.38
366.72	1607.66
366.93	1613.80
367.14	1656.81
367.35	1759.21
367.56	1615.85
367.77	1787.88
367.98	1712.10
368.18	1660.90
368.39	1683.43
368.60	1722.34
368.81	1726.44
369.02	1642.47
369.23	1697.77
369.44	1607.66
369.65	1679.33
369.86	1679.33
370.07	1644.52
370.28	1697.77
370.49	1726.44
370.70	1642.47
370.91	1632.23
371.12	1691.62
371.33	1808.36
371.54	1691.62
371.75	1830.88
371.96	1599.46
372.17	1687.53
372.38	1718.25
372.59	1789.92
372.80	1665.00
373.01	1712.10
373.22	1667.05
373.43	1689.57
373.64	1626.09
373.85	1773.54
374.06	1814.50
374.26	1736.68
374.47	1757.16
374.68	1796.07
374.89	1710.05
375.10	1656.81
375.31	1652.71
375.52	1687.53
375.73	1671.14
375.94	1607.66
376.15	1775.59
376.36	1652.71
376.57	1626.09
376.78	1734.63
376.99	1642.47
377.20	1767.40
377.40	1705.96
377.61	1800.16
377.82	1626.09
378.03	1791.97
378.24	1722.34
378.45	1708.01
378.66	1748.97
378.87	1578.98
379.08	1638.38
379.29	1691.62
379.50	1720.29
379.71	1691.62
379.91	1716.20
380.12	1595.37
380.33	1660.90
380.54	1646.57
380.75	1673.19
380.96	1667.05
381.17	1716.20
381.38	1724.39
381.59	1753.06
381.80	1732.58
382.00	1847.27
382.21	1677.29
382.42	1882.08
382.63	1877.99
382.84	1769.44
383.05	1722.34
383.26	1796.07
383.47	1705.96
383.68	1802.21
383.88	1742.82
384.09	1703.91
384.30	1810.40
384.51	1734.63
384.72	1636.33
384.93	1689.57
385.14	1658.85
385.35	1769.44
385.55	1505.26
385.76	1753.06
385.97	1734.63
386.18	1669.09
386.39	1712.10
386.60	1658.85
386.81	1705.96
387.02	1677.29
387.22	1572.84
387.43	1724.39
387.64	1748.97
387.85	1947.62
388.06	2240.48
388.27	4317.12
388.48	6649.75
388.68	8183.68
388.89	9496.43
389.10	9645.93
389.31	8499.07
389.52	7303.06
389.73	6576.03
389.93	6201.25
390.14	5785.51
390.35	5060.53
390.56	4380.61
390.77	3672.01
390.98	2990.03
391.18	2484.19
391.39	2125.79
391.60	1822.69
391.81	1904.61
392.02	1658.85
392.23	1841.12
392.43	1810.40
392.64	1808.36
392.85	1650.66
393.06	1789.92
393.27	1728.49
393.47	1691.62
393.68	1738.73
393.89	1654.76
394.10	1783.78
394.31	1624.04
394.52	1662.95
394.72	1644.52
394.93	1781.73
395.14	1621.99
395.35	1691.62
395.56	1656.81
395.76	1732.58
395.97	1791.97
396.18	1886.18
396.39	1808.36
396.60	2041.82
396.80	1888.23
397.01	1845.22
397.22	1814.50
397.43	1818.60
397.64	1787.88
397.84	1748.97
398.05	1902.56
398.26	1679.33
398.47	1732.58
398.67	1834.98
398.88	1712.10
399.09	1765.35
399.30	1632.23
399.51	1701.86
399.71	1734.63
399.92	1642.47
400.13	1634.28
400.34	1796.07
400.54	1691.62
400.75	1789.92
400.96	1701.86
401.17	1726.44
401.37	1687.53
401.58	1763.30
401.79	1683.43
402.00	1875.94
402.21	1988.58
402.41	1927.14
402.62	1970.15
402.83	2047.97
403.04	2037.73
403.24	2095.07
403.45	1863.65
403.66	1888.23
403.87	1902.56
404.07	1861.60
404.28	1884.13
404.49	1941.47
404.70	1748.97
404.90	1759.21
405.11	1783.78
405.32	1691.62
405.52	1671.14
405.73	1695.72
405.94	1703.91
406.15	1730.53
406.35	1769.44
406.56	1753.06
406.77	1742.82
406.98	1722.34
407.18	1617.90
407.39	1843.17
407.60	1667.05
407.80	1740.77
408.01	1681.38
408.22	1662.95
408.43	1603.56
408.63	1767.40
408.84	1769.44
409.05	1740.77
409.25	1683.43
409.46	1638.38
409.67	1660.90
409.88	1677.29
410.08	1683.43
410.29	1746.92
410.50	1834.98
410.70	1789.92
410.91	1607.66
411.12	1783.78
411.32	1742.82
411.53	1638.38
411.74	1828.84
411.95	1730.53
412.15	1714.15
412.36	1759.21
412.57	1687.53
412.77	1712.10
412.98	1710.05
413.19	1722.34
413.39	1744.87
413.60	1769.44
413.81	1722.34
414.01	1576.94
414.22	1820.64
414.43	1691.62
414.63	1708.01
414.84	1800.16
415.05	1720.29
415.25	1615.85
415.46	1742.82
415.67	1693.67
415.87	1722.34
416.08	1665.00
416.29	1626.09
416.49	1755.11
416.70	1681.38
416.91	1720.29
417.11	1660.90
417.32	1691.62
417.53	1773.54
417.73	1746.92
417.94	1726.44
418.15	1728.49
418.35	1699.81
418.56	1708.01
418.77	1789.92
418.97	1695.72
419.18	1679.33
419.38	1574.89
419.59	1660.90
419.80	1830.88
420.00	1683.43
420.21	1763.30
420.42	1767.40
420.62	1808.36
420.83	1720.29
421.04	1697.77
421.24	1714.15
421.45	1728.49
421.65	1767.40
421.86	1740.77
422.07	1748.97
422.27	1689.57
422.48	1716.20
422.69	1697.77
422.89	1705.96
423.10	1693.67
423.30	1595.37
423.51	1703.91
423.72	1710.05
423.92	1738.73
424.13	1640.42
424.33	1691.62
424.54	1755.11
424.75	1708.01
424.95	1847.27
425.16	1648.61
425.36	1695.72
425.57	1814.50
425.78	1693.67
425.98	1732.58
426.19	1771.49
426.39	1656.81
426.60	1708.01
426.81	1716.20
427.01	1714.15
427.22	1728.49
427.42	1591.27
427.63	1615.85
427.83	1722.34
428.04	1847.27
428.25	1761.25
428.45	1716.20
428.66	1789.92
428.86	1703.91
429.07	1738.73
429.28	1681.38
429.48	1710.05
429.69	1603.56
429.89	1675.24
430.10	1599.46
430.30	1714.15
430.51	1769.44
430.71	1695.72
430.92	1697.77
431.13	1658.85
431.33	1824.74
431.54	1767.40
431.74	1751.01
431.95	1744.87
432.15	1640.42
432.36	1744.87
432.56	1689.57
432.77	1820.64
432.98	1884.13
433.18	1808.36
433.39	1677.29
433.59	1650.66
433.80	1845.22
434.00	1855.46
434.21	1701.86
434.41	1638.38
434.62	1781.73
434.82	1679.33
435.03	1697.77
435.23	1722.34
435.44	1591.27
435.64	1708.01
435.85	1779.68
436.06	1681.38
436.26	1775.59
436.47	1748.97
436.67	1708.01
436.88	1740.77
437.08	1740.77
437.29	1810.40
437.49	1718.25
437.70	1744.87
437.90	1701.86
438.11	1834.98
438.31	1816.55
438.52	1884.13
438.72	1824.74
438.93	1865.70
439.13	1779.68
439.34	1787.88
439.54	1796.07
439.75	1837.03
439.95	1800.16
440.16	1730.53
440.36	1769.44
440.57	1755.11
440.77	1779.68
440.98	1716.20
441.18	1732.58
441.39	1744.87
441.59	1726.44
441.80	1824.74
442.00	1755.11
442.21	1808.36
442.41	1656.81
442.62	1736.68
442.82	1595.37
443.02	1779.68
443.23	1779.68
443.43	1587.18
443.64	1794.02
443.84	1581.03
444.05	1779.68
444.25	1732.58
444.46	1726.44
444.66	1724.39
444.87	1814.50
445.07	1640.42
445.28	1757.16
445.48	1849.32
445.69	1822.69
445.89	1849.32
446.09	1720.29
446.30	2078.69
446.50	2635.74
446.71	3778.50
446.91	4270.01
447.12	4736.95
447.32	4773.82
447.53	4378.56
447.73	3880.90
447.93	3448.78
448.14	3241.93
448.34	3248.08
448.55	2877.40
448.75	2766.81
448.96	2688.98
449.16	2461.66
449.36	2275.29
449.57	2009.06
449.77	1800.16
449.98	1853.41
450.18	1839.08
450.39	1771.49
450.59	1787.88
450.79	1710.05
451.00	1697.77
451.20	1685.48
451.41	1705.96
451.61	1705.96
451.81	1863.65
452.02	1740.77
452.22	1757.16
452.43	1757.16
452.63	1697.77
452.84	1730.53
453.04	1751.01
453.24	1691.62
453.45	1769.44
453.65	1679.33
453.86	1714.15
454.06	1761.25
454.26	1710.05
454.47	1755.11
454.67	1796.07
454.87	1751.01
455.08	1730.53
455.28	1880.04
455.49	1734.63
455.69	1726.44
455.89	1826.79
456.10	1777.64
456.30	1724.39
456.51	1708.01
456.71	1654.76
456.91	1806.31
457.12	1730.53
457.32	1736.68
457.52	1671.14
457.73	1767.40
457.93	1742.82
458.14	1716.20
458.34	1640.42
458.54	1714.15
458.75	1701.86
458.95	1796.07
459.15	1658.85
459.36	1777.64
459.56	1761.25
459.76	1843.17
459.97	1722.34
460.17	1808.36
460.37	1740.77
460.58	1742.82
460.78	1691.62
460.99	1796.07
461.19	1765.35
461.39	1607.66
461.60	1732.58
461.80	1787.88
462.00	1644.52
462.21	1771.49
462.41	1705.96
462.61	1699.81
462.82	1648.61
463.02	1730.53
463.22	1787.88
463.43	1769.44
463.63	1812.45
463.83	1814.50
464.04	1691.62
464.24	1771.49
464.44	1656.81
464.64	1748.97
464.85	1773.54
465.05	1751.01
465.25	1755.11
465.46	1648.61
465.66	1732.58
465.86	1759.21
466.07	1773.54
466.27	1636.33
466.47	1611.75
466.68	1693.67
466.88	1855.46
467.08	1779.68
467.29	1820.64
467.49	1820.64
467.69	1710.05
467.89	1763.30
468.10	1654.76
468.30	1726.44
468.50	1773.54
468.71	1810.40
468.91	1648.61
469.11	1830.88
469.31	1662.95
469.52	1710.05
469.72	1796.07
469.92	1837.03
470.13	1726.44
470.33	1765.35
470.53	1847.27
470.73	2136.03
470.94	2263.01
471.14	2375.64
471.34	2529.24
471.54	2480.09
471.75	2217.95
471.95	2068.45
472.15	2031.58
472.36	2164.70
472.56	2047.97
472.76	2041.82
472.96	1976.29
473.17	1920.99
473.37	1884.13
473.57	1710.05
473.77	1765.35
473.98	1705.96
474.18	1673.19
474.38	1834.98
474.58	1705.96
474.79	1701.86
474.99	1804.26
475.19	1718.25
475.39	1624.04
475.60	1665.00
475.80	1736.68
476.00	1667.05
476.20	1722.34
476.41	1722.34
476.61	1796.07
476.81	1791.97
477.01	1677.29
477.21	1855.46
477.42	1849.32
477.62	1699.81
477.82	1742.82
478.02	1613.80
478.23	1755.11
478.43	1677.29
478.63	1710.05
478.83	1722.34
479.03	1652.71
479.24	1777.64
479.44	1781.73
479.64	1681.38
479.84	1634.28
480.04	1695.72
480.25	1697.77
480.45	1665.00
480.65	1673.19
480.85	1794.02
481.06	1693.67
481.26	1746.92
481.46	1734.63
481.66	1773.54
481.86	1650.66
482.06	1765.35
482.27	1714.15
482.47	1728.49
482.67	1734.63
482.87	1677.29
483.07	1789.92
483.28	1669.09
483.48	1730.53
483.68	1662.95
483.88	1665.00
484.08	1660.90
484.29	1679.33
484.49	1722.34
484.69	1603.56
484.89	1773.54
485.09	1734.63
485.29	1769.44
485.50	1746.92
485.70	1593.32
485.90	1773.54
486.10	1691.62
486.30	1648.61
486.50	1783.78
486.71	1763.30
486.91	1763.30
487.11	1796.07
487.31	1683.43
487.51	1734.63
487.71	1603.56
487.91	1644.52
488.12	1683.43
488.32	1615.85
488.52	1681.38
488.72	1605.61
488.92	1677.29
489.12	1767.40
489.32	1683.43
489.53	1769.44
489.73	1632.23
489.93	1806.31
490.13	1658.85
490.33	1652.71
490.53	1677.29
490.73	1718.25
490.94	1667.05
491.14	1724.39
491.34	1894.37
491.54	2056.16
491.74	2615.26
491.94	2916.31
492.14	3092.43
492.34	3000.27
492.54	2768.85
492.75	2512.86
492.95	2461.66
493.15	2299.87
493.35	2195.42
493.55	2174.94
493.75	2082.78
493.95	2152.42
494.15	1994.72
494.35	1927.14
494.56	1824.74
494.76	1837.03
494.96	1753.06
495.16	1824.74
495.36	1746.92
495.56	1775.59
495.76	1779.68
495.96	1679.33
496.16	1685.48
496.36	1845.22
496.56	1705.96
496.77	1746.92
496.97	1710.05
497.17	1724.39
497.37	1609.70
497.57	1783.78
497.77	1667.05
497.97	1773.54
498.17	1767.40
498.37	1705.96
498.57	1728.49
498.77	1705.96
498.97	1816.55
499.17	1812.45
499.38	1734.63
499.58	1728.49
499.78	1759.21
499.98	1818.60
500.18	1742.82
500.38	1660.90
500.58	1904.61
500.78	2516.95
500.98	4470.72
501.18	5576.62
501.38	6653.85
501.58	7073.68
501.78	6637.47
501.98	5377.97
502.18	4939.70
502.38	4310.97
502.58	4112.32
502.78	3790.79
502.98	3583.95
503.18	3508.17
503.38	3137.49
503.59	2822.10
503.79	2678.74
503.99	2435.03
504.19	2240.48
504.39	2269.15
504.59	2203.61
504.79	2197.47
504.99	2002.91
505.19	1912.80
505.39	1841.12
505.59	1964.00
505.79	1914.85
505.99	1845.22
506.19	1871.84
506.39	1816.55
506.59	1794.02
506.79	1775.59
506.99	1771.49
507.19	1753.06
507.39	1744.87
507.59	1646.57
507.79	1724.39
507.99	1726.44
508.19	1732.58
508.39	1724.39
508.59	1728.49
508.79	1810.40
508.99	1810.40
509.19	1630.18
509.39	1822.69
509.59	1703.91
509.79	1757.16
509.99	1730.53
510.19	1834.98
510.39	1703.91
510.59	1738.73
510.79	1755.11
510.99	1685.48
511.19	1740.77
511.39	1849.32
511.59	1775.59
511.79	1777.64
511.99	1730.53
512.19	1841.12
512.38	1759.21
512.58	1662.95
512.78	1810.40
512.98	1849.32
513.18	1761.25
513.38	1609.70
513.58	1826.79
513.78	1728.49
513.98	1775.59
514.18	1695.72
514.38	1748.97
514.58	1767.40
514.78	1708.01
514.98	1699.81
515.18	1687.53
515.38	1591.27
515.58	1837.03
515.78	1742.82
515.98	1767.40
516.18	1779.68
516.38	1710.05
516.57	1685.48
516.77	1683.43
516.97	1740.77
517.17	1744.87
517.37	1603.56
517.57	1812.45
517.77	1621.99
517.97	1757.16
518.17	1728.49
518.37	1648.61
518.57	1703.91
518.77	1615.85
518.97	1714.15
519.16	1734.63
519.36	1695.72
519.56	1619.94
519.76	1718.25
519.96	1724.39
520.16	1800.16
520.36	1699.81
520.56	1824.74
520.76	1697.77
520.96	1708.01
521.16	1837.03
521.35	1767.40
521.55	1761.25
521.75	1714.15
521.95	1728.49
522.15	1734.63
522.35	1642.47
522.55	1611.75
522.75	1771.49
522.95	1775.59
523.14	1642.47
523.34	1791.97
523.54	1667.05
523.74	1726.44
523.94	1820.64
524.14	1654.76
524.34	1720.29
524.54	1865.70
524.73	1796.07
524.93	1761.25
525.13	1734.63
525.33	1656.81
525.53	1806.31
525.73	1695.72
525.93	1744.87
526.13	1667.05
526.32	1689.57
526.52	1701.86
526.72	1730.53
526.92	1718.25
527.12	1708.01
527.32	1632.23
527.52	1724.39
527.71	1798.12
527.91	1808.36
528.11	1671.14
528.31	1773.54
528.51	1636.33
528.71	1722.34
528.90	1734.63
529.10	1794.02
529.30	1839.08
529.50	1570.79
529.70	1808.36
529.90	1753.06
530.09	1802.21
530.29	1685.48
530.49	1712.10
530.69	1845.22
530.89	1724.39
531.09	1740.77
531.28	1714.15
531.48	1812.45
531.68	1734.63
531.88	1726.44
532.08	1763.30
532.28	1660.90
532.47	1742.82
532.67	1714.15
532.87	1757.16
533.07	1679.33
533.27	1787.88
533.46	1705.96
533.66	1757.16
533.86	1765.35
534.06	1642.47
534.26	1742.82
534.45	1697.77
534.65	1800.16
534.85	1720.29
535.05	1746.92
535.25	1767.40
535.44	1656.81
535.64	1798.12
535.84	1722.34
536.04	1728.49
536.24	1767.40
536.43	1689.57
536.63	1685.48
536.83	1726.44
537.03	1712.10
537.22	1636.33
537.42	1615.85
537.62	1779.68
537.82	1656.81
538.02	1841.12
538.21	1796.07
538.41	1877.99
538.61	1753.06
538.81	1736.68
539.00	1785.83
539.20	1634.28
539.40	1656.81
539.60	1726.44
539.79	1791.97
539.99	1638.38
540.19	1812.45
540.39	1705.96
540.58	1720.29
540.78	1755.11
540.98	1789.92
541.18	1712.10
541.37	1781.73
541.57	1714.15
541.77	1689.57
541.97	1650.66
542.16	1652.71
542.36	1765.35
542.56	1699.81
542.76	1847.27
542.95	1740.77
543.15	1775.59
543.35	1787.88
543.54	1656.81
543.74	1703.91
543.94	1769.44
544.14	1701.86
544.33	1761.25
544.53	1683.43
544.73	1710.05
544.93	1677.29
545.12	1726.44
545.32	1701.86
545.52	1734.63
545.71	1679.33
545.91	1710.05
546.11	1673.19
546.30	1589.22
546.50	1769.44
546.70	1734.63
546.90	1802.21
547.09	1656.81
547.29	1740.77
547.49	1687.53
547.68	1654.76
547.88	1673.19
548.08	1769.44
548.27	2258.91
548.47	1701.86
548.67	1624.04
548.87	1693.67
549.06	1681.38
549.26	1767.40
549.46	1738.73
549.65	1771.49
549.85	1746.92
550.05	1757.16
550.24	1673.19
550.44	1691.62
550.64	1783.78
550.83	1710.05
551.03	1742.82
551.23	1806.31
551.42	1728.49
551.62	1724.39
551.82	1710.05
552.01	1675.24
552.21	1810.40
552.41	1724.39
552.60	1826.79
552.80	1765.35
553.00	1681.38
553.19	1718.25
553.39	1800.16
553.59	1626.09
553.78	1753.06
553.98	1734.63
554.17	1714.15
554.37	1755.11
554.57	1791.97
554.76	1652.71
554.96	1765.35
555.16	1703.91
555.35	1650.66
555.55	1759.21
555.75	1826.79
555.94	1796.07
556.14	1634.28
556.33	1734.63
556.53	1718.25
556.73	1785.83
556.92	1763.30
557.12	1832.93
557.32	1812.45
557.51	1828.84
557.71	1818.60
557.90	1734.63
558.10	1847.27
558.30	1701.86
558.49	1726.44
558.69	1691.62
558.88	1740.77
559.08	1732.58
559.28	1734.63
559.47	1789.92
559.67	1710.05
559.86	1859.56
560.06	1759.21
560.26	1628.14
560.45	1738.73
560.65	1669.09
560.84	1767.40
561.04	1734.63
561.24	1689.57
561.43	1677.29
561.63	1830.88
561.82	1681.38
562.02	1738.73
562.22	1703.91
562.41	1710.05
562.61	1738.73
562.80	1679.33
563.00	1916.90
563.19	1755.11
563.39	1746.92
563.59	1769.44
563.78	1665.00
563.98	1615.85
564.17	1693.67
564.37	1703.91
564.56	1675.24
564.76	1642.47
564.96	1800.16
565.15	1720.29
565.35	1828.84
565.54	1734.63
565.74	1765.35
565.93	1753.06
566.13	1697.77
566.32	1736.68
566.52	1820.64
566.71	1693.67
566.91	1791.97
567.11	1742.82
567.30	1683.43
567.50	1845.22
567.69	1812.45
567.89	1734.63
568.08	1646.57
568.28	1796.07
568.47	1736.68
568.67	1757.16
568.86	1714.15
569.06	1791.97
569.25	1679.33
569.45	1691.62
569.64	1751.01
569.84	1761.25
570.04	1742.82
570.23	1677.29
570.43	1730.53
570.62	1767.40
570.82	1810.40
571.01	1650.66
571.21	1697.77
571.40	1689.57
571.60	1720.29
571.79	1726.44
571.99	1728.49
572.18	1724.39
572.38	1765.35
572.57	1703.91
572.77	1746.92
572.96	1892.32
573.16	1701.86
573.35	1734.63
573.55	1738.73
573.74	1759.21
573.94	1728.49
574.13	1740.77
574.33	1773.54
574.52	1810.40
574.71	1693.67
574.91	1767.40
575.10	1681.38
575.30	1724.39
575.49	1714.15
575.69	1720.29
575.88	1828.84
576.08	1681.38
576.27	1796.07
576.47	1683.43
576.66	1798.12
576.86	1785.83
577.05	1779.68
577.25	1777.64
577.44	1839.08
577.64	1609.70
577.83	1820.64
578.02	1748.97
578.22	1806.31
578.41	1869.80
578.61	1740.77
578.80	1722.34
579.00	1845.22
579.19	1714.15
579.39	1796.07
579.58	1791.97
579.77	1812.45
579.97	1808.36
580.16	1824.74
580.36	1814.50
580.55	1806.31
580.75	1816.55
580.94	1699.81
581.13	1771.49
581.33	1777.64
581.52	1724.39
581.72	1857.51
581.91	1867.75
582.11	1738.73
582.30	1769.44
582.49	1738.73
582.69	1832.93
582.88	1744.87
583.08	1818.60
583.27	1783.78
583.47	1697.77
583.66	1718.25
583.85	1689.57
584.05	1710.05
584.24	1783.78
584.44	1701.86
584.63	1794.02
584.82	1839.08
585.02	1773.54
585.21	1873.89
585.41	1794.02
585.60	1779.68
585.79	1894.37
585.99	1886.18
586.18	1796.07
586.37	2111.46
586.57	3383.24
586.76	10055.53
586.96	23877.27
587.15	33844.73
587.34	39771.55
587.54	41629.06
587.73	36122.07
587.93	25677.43
588.12	21472.95
588.31	18104.04
588.51	16127.75
588.70	15052.57
588.89	13756.21
589.09	12459.84
589.28	10870.62
589.47	9160.56
589.67	7739.27
589.86	6227.87
590.06	4888.50
590.25	3868.61
590.44	3135.44
590.64	2500.57
590.83	2344.92
591.02	2086.88
591.22	1986.53
591.41	1941.47
591.60	1865.70
591.80	1937.38
591.99	1763.30
592.18	1677.29
592.38	1869.80
592.57	1759.21
592.76	1767.40
592.96	1769.44
593.15	1736.68
593.34	1796.07
593.54	1712.10
593.73	1738.73
593.92	1769.44
594.12	1814.50
594.31	1742.82
594.50	1849.32
594.70	1904.61
594.89	1916.90
595.08	1705.96
595.28	1771.49
595.47	1832.93
595.66	1812.45
595.86	1632.23
596.05	1724.39
596.24	1699.81
596.43	1855.46
596.63	1847.27
596.82	1824.74
597.01	1791.97
597.21	1877.99
597.40	1748.97
597.59	1673.19
597.79	1712.10
597.98	1714.15
598.17	1773.54
598.36	1759.21
598.56	1730.53
598.75	1738.73
598.94	1771.49
599.14	1691.62
599.33	1685.48
599.52	1826.79
599.71	1767.40
599.91	1800.16
600.10	1761.25
600.29	1748.97
600.48	1787.88
600.68	1732.58
600.87	1839.08
601.06	1640.42
601.26	1740.77
601.45	1787.88
601.64	1716.20
601.83	1701.86
602.03	1730.53
602.22	1695.72
602.41	1822.69
602.60	1771.49
602.80	1748.97
602.99	1703.91
603.18	1677.29
603.37	1769.44
603.57	1738.73
603.76	1794.02
603.95	1808.36
604.14	1718.25
604.34	1683.43
604.53	1742.82
604.72	1804.26
604.91	1753.06
605.10	1888.23
605.30	1726.44
605.49	1832.93
605.68	1800.16
605.87	1736.68
606.07	1652.71
606.26	1781.73
606.45	1773.54
606.64	1689.57
606.84	1820.64
607.03	1705.96
607.22	1738.73
607.41	1589.22
607.60	1740.77
607.80	1736.68
607.99	1710.05
608.18	1759.21
608.37	1757.16
608.56	1654.76
608.76	1791.97
608.95	1779.68
609.14	1753.06
609.33	1771.49
609.52	1753.06
609.72	1626.09
609.91	1699.81
610.10	1722.34
610.29	1705.96
610.48	1738.73
610.68	1753.06
610.87	1712.10
611.06	1812.45
611.25	1699.81
611.44	1845.22
611.63	1712.10
611.83	1763.30
612.02	1624.04
612.21	1855.46
612.40	1632.23
612.59	1634.28
612.79	1689.57
612.98	1705.96
613.17	1781.73
613.36	1746.92
613.55	1767.40
613.74	1605.61
613.93	1701.86
614.13	1710.05
614.32	1681.38
614.51	1701.86
614.70	1701.86
614.89	1699.81
615.08	1697.77
615.28	2117.60
615.47	1669.09
615.66	1738.73
615.85	1708.01
616.04	1798.12
616.23	1789.92
616.42	1744.87
616.62	1822.69
616.81	1740.77
617.00	1691.62
617.19	1685.48
617.38	1763.30
617.57	1669.09
617.76	1800.16
617.95	1800.16
618.15	1808.36
618.34	1748.97
618.53	1644.52
618.72	1769.44
618.91	1763.30
619.10	1800.16
619.29	1701.86
619.48	1724.39
619.68	1689.57
619.87	1728.49
620.06	1675.24
620.25	1734.63
620.44	1765.35
620.63	1771.49
620.82	1699.81
621.01	1748.97
621.20	1624.04
621.39	1755.11
621.59	1736.68
621.78	1646.57
621.97	1724.39
622.16	1775.59
622.35	1791.97
622.54	1796.07
622.73	1816.55
622.92	1671.14
623.11	1812.45
623.30	1714.15
623.49	1740.77
623.68	1769.44
623.88	1732.58
624.07	1628.14
624.26	1687.53
624.45	1671.14
624.64	1748.97
624.83	1714.15
625.02	1640.42
625.21	1683.43
625.40	1832.93
625.59	1716.20
625.78	1722.34
625.97	1781.73
626.16	1787.88
626.35	1781.73
626.54	1671.14
626.74	1814.50
626.93	1642.47
627.12	1662.95
627.31	1787.88
627.50	1718.25
627.69	1761.25
627.88	1691.62
628.07	1734.63
628.26	1681.38
628.45	1673.19
628.64	1675.24
628.83	1800.16
629.02	1673.19
629.21	1712.10
629.40	1695.72
629.59	1708.01
629.78	1716.20
629.97	1640.42
630.16	1734.63
630.35	1665.00
630.54	1744.87
630.73	1710.05
630.92	1658.85
631.11	1671.14
631.30	1701.86
631.49	1742.82
631.68	1705.96
631.87	1730.53
632.06	1624.04
632.25	1826.79
632.44	1689.57
632.63	1804.26
632.82	1726.44
633.01	1679.33
633.20	1791.97
633.39	1716.20
633.58	1624.04
633.77	1695.72
633.96	1710.05
634.15	1771.49
634.34	1730.53
634.53	1734.63
634.72	1693.67
634.91	1650.66
635.10	1751.01
635.29	1753.06
635.48	1685.48
635.67	1654.76
635.86	1624.04
636.05	1705.96
636.24	1738.73
636.43	1734.63
636.62	1716.20
636.81	1632.23
637.00	1771.49
637.19	1705.96
637.38	1716.20
637.57	1712.10
637.76	1728.49
637.95	1689.57
638.14	1621.99
638.33	1685.48
638.52	1757.16
638.71	1677.29
638.89	1665.00
639.08	1812.45
639.27	1724.39
639.46	1720.29
639.65	1705.96
639.84	1761.25
640.03	1746.92
640.22	1656.81
640.41	1738.73
640.60	1640.42
640.79	1730.53
640.98	1705.96
641.17	1744.87
641.36	1744.87
641.55	1757.16
641.74	1605.61
641.92	1695.72
642.11	1650.66
642.30	1718.25
642.49	1699.81
642.68	1660.90
642.87	1759.21
643.06	1796.07
643.25	1640.42
643.44	1587.18
643.63	1771.49
643.82	1767.40
644.00	1638.38
644.19	1716.20
644.38	1642.47
644.57	1726.44
644.76	1710.05
644.95	1730.53
645.14	1742.82
645.33	1738.73
645.52	1712.10
645.71	1603.56
645.89	1679.33
646.08	1642.47
646.27	1724.39
646.46	1898.47
646.65	1605.61
646.84	1701.86
647.03	1734.63
647.22	1728.49
647.40	1740.77
647.59	1740.77
647.78	1628.14
647.97	1673.19
648.16	1656.81
648.35	1802.21
648.54	1699.81
648.73	1751.01
648.91	1775.59
649.10	1693.67
649.29	1720.29
649.48	1775.59
649.67	1796.07
649.86	1761.25
650.05	1677.29
650.23	1845.22
650.42	1708.01
650.61	1658.85
650.80	1669.09
650.99	1824.74
651.18	1744.87
651.36	1697.77
651.55	1626.09
651.74	1736.68
651.93	1701.86
652.12	1708.01
652.31	1658.85
652.49	1771.49
652.68	1679.33
652.87	1837.03
653.06	1771.49
653.25	1759.21
653.44	1695.72
653.62	1771.49
653.81	1689.57
654.00	1771.49
654.19	1775.59
654.38	1851.36
654.56	1681.38
654.75	1638.38
654.94	1695.72
655.13	1675.24
655.32	1763.30
655.51	1736.68
655.69	1603.56
655.88	1757.16
656.07	1654.76
656.26	1759.21
656.45	1695.72
656.63	1699.81
656.82	1748.97
657.01	1824.74
657.20	1646.57
657.38	1808.36
657.57	1693.67
657.76	1632.23
657.95	1662.95
658.14	1671.14
658.32	1681.38
658.51	1675.24
658.70	1677.29
658.89	1722.34
659.08	1742.82
659.26	1820.64
659.45	1697.77
659.64	1703.91
659.83	1695.72
660.01	1912.80
660.20	1669.09
660.39	1841.12
660.58	1615.85
660.76	1763.30
660.95	1640.42
661.14	1746.92
661.33	1613.80
661.51	1691.62
661.70	1619.94
661.89	1742.82
662.08	1695.72
662.26	1708.01
662.45	1730.53
662.64	1753.06
662.83	1712.10
663.01	1632.23
663.20	1748.97
663.39	1726.44
663.58	1720.29
663.76	1718.25
663.95	1779.68
664.14	1705.96
664.32	1691.62
664.51	1695.72
664.70	1652.71
664.89	1765.35
665.07	1599.46
665.26	1787.88
665.45	1669.09
665.64	1751.01
665.82	1767.40
666.01	1781.73
666.20	1673.19
666.38	1789.92
666.57	1824.74
666.76	2217.95
666.95	4423.61
667.13	10194.79
667.32	14933.79
667.51	17704.69
667.69	18906.85
667.88	17460.98
668.07	12267.33
668.25	9441.14
668.44	7962.50
668.63	7274.38
668.81	6856.60
669.00	6121.38
669.19	5750.70
669.38	5138.35
669.56	4493.24
669.75	4028.35
669.94	3377.10
670.12	3002.32
670.31	2521.05
670.50	2234.33
670.68	2066.40
670.87	1900.52
671.06	1830.88
671.24	1845.22
671.43	1865.70
671.62	1828.84
671.80	1736.68
671.99	1656.81
672.18	1683.43
672.36	1812.45
672.55	1763.30
672.74	1798.12
672.92	1726.44
673.11	1755.11
673.29	1652.71
673.48	1753.06
673.67	1626.09
673.85	1771.49
674.04	1648.61
674.23	1791.97
674.41	1783.78
674.60	1662.95
674.79	1617.90
674.97	1669.09
675.16	1767.40
675.34	1767.40
675.53	1699.81
675.72	1689.57
675.90	1763.30
676.09	1716.20
676.28	1728.49
676.46	1660.90
676.65	1689.57
676.83	1722.34
677.02	1652.71
677.21	1746.92
677.39	1658.85
677.58	1564.65
677.77	1677.29
677.95	1742.82
678.14	1710.05
678.32	1634.28
678.51	1650.66
678.70	1857.51
678.88	1718.25
679.07	1712.10
679.25	1703.91
679.44	1730.53
679.63	1652.71
679.81	1624.04
680.00	1722.34
680.18	1736.68
680.37	1771.49
680.55	1755.11
680.74	1697.77
680.93	1591.27
681.11	1748.97
681.30	1673.19
681.48	1675.24
681.67	1667.05
681.85	1648.61
682.04	1665.00
682.23	1755.11
682.41	1705.96
682.60	1683.43
682.78	1761.25
682.97	1624.04
683.15	1699.81
683.34	1765.35
683.53	1808.36
683.71	1621.99
683.90	1826.79
684.08	1818.60
684.27	1705.96
684.45	1656.81
684.64	1800.16
684.82	1677.29
685.01	1587.18
685.19	1763.30
685.38	1757.16
685.57	1724.39
685.75	1708.01
685.94	1757.16
686.12	1693.67
686.31	1619.94
686.49	1818.60
686.68	1556.46
686.86	1763.30
687.05	1660.90
687.23	1826.79
687.42	1683.43
687.60	1703.91
687.79	1769.44
687.97	1775.59
688.16	1794.02
688.34	1730.53
688.53	1609.70
688.71	1708.01
688.90	1759.21
689.08	1667.05
689.27	1574.89
689.45	1753.06
689.64	1724.39
689.82	1800.16
690.01	1728.49
690.19	1697.77
690.38	1669.09
690.56	1802.21
690.75	1679.33
690.93	1687.53
691.12	1650.66
691.30	1697.77
691.49	1648.61
691.67	1726.44
691.86	1736.68
692.04	1677.29
692.23	1665.00
692.41	1656.81
692.60	1832.93
692.78	1783.78
692.97	1660.90
693.15	1732.58
693.34	1775.59
693.52	1757.16
693.71	1683.43
693.89	1708.01
694.08	1595.37
694.26	1738.73
694.44	1726.44
694.63	1695.72
694.81	1640.42
695.00	1744.87
695.18	1714.15
695.37	1843.17
695.55	1697.77
695.74	1703.91
695.92	1667.05
696.10	1755.11
696.29	1583.08
696.47	1705.96
696.66	1630.18
696.84	1642.47
697.03	1693.67
697.21	1765.35
697.40	2324.44
697.58	1804.26
697.76	1658.85
697.95	1656.81
698.13	1613.80
698.32	1671.14
698.50	1695.72
698.68	1783.78
698.87	1783.78
699.05	1773.54
699.24	1562.60
699.42	1712.10
699.61	1734.63
699.79	1632.23
699.97	1695.72
700.16	1648.61
700.34	1640.42
700.53	1714.15
700.71	1816.55
700.89	1734.63
701.08	1662.95
701.26	1669.09
701.45	2070.50
701.63	1695.72
701.81	1712.10
702.00	1675.24
702.18	1720.29
702.37	1730.53
702.55	1871.84
702.73	1722.34
702.92	1648.61
703.10	1759.21
703.28	1689.57
703.47	1578.98
703.65	1710.05
703.84	1699.81
704.02	1697.77
704.20	1767.40
704.39	1619.94
704.57	1566.70
704.75	1767.40
704.94	1740.77
705.12	1660.90
705.30	1736.68
705.49	2248.67
705.67	4347.84
705.86	9308.02
706.04	12283.72
706.22	14149.42
706.41	15230.74
706.59	13584.18
706.77	9660.27
706.96	7253.91
707.14	6539.16
707.32	5965.73
707.51	5343.15
707.69	4913.08
707.87	4200.38
708.06	3487.69
708.24	2926.55
708.42	2471.90
708.61	2299.87
708.79	1875.94
708.97	1814.50
709.16	1796.07
709.34	1773.54
709.52	1691.62
709.71	1767.40
709.89	1800.16
710.07	1708.01
710.26	1658.85
710.44	1748.97
710.62	1710.05
710.80	1703.91
710.99	1714.15
711.17	1744.87
711.35	1681.38
711.54	1708.01
711.72	1771.49
711.90	1779.68
712.09	1675.24
712.27	1656.81
712.45	1714.15
712.63	1722.34
712.82	1742.82
713.00	1785.83
713.18	1701.86
713.37	1767.40
713.55	1693.67
713.73	1726.44
713.91	1761.25
714.10	1685.48
714.28	1646.57
714.46	1802.21
714.65	1644.52
714.83	1763.30
715.01	1687.53
715.19	1710.05
715.38	1638.38
715.56	1730.53
715.74	1730.53
715.92	1619.94
716.11	1705.96
716.29	1638.38
716.47	1730.53
716.65	1703.91
716.84	1665.00
717.02	1681.38
717.20	1583.08
717.38	1660.90
717.57	1734.63
717.75	1765.35
717.93	1679.33
718.11	1660.90
718.30	1652.71
718.48	1695.72
718.66	1740.77
718.84	1787.88
719.03	1705.96
719.21	1599.46
719.39	1837.03
719.57	1734.63
719.75	1691.62
719.94	1628.14
720.12	1728.49
720.30	1734.63
720.48	1767.40
720.67	1662.95
720.85	1644.52
721.03	1638.38
721.21	1683.43
721.39	1828.84
721.58	1716.20
721.76	1652.71
721.94	1716.20
722.12	1683.43
722.30	1746.92
722.49	1679.33
722.67	1701.86
722.85	1765.35
723.03	1619.94
723.21	1671.14
723.40	1679.33
723.58	1689.57
723.76	1720.29
723.94	1669.09
724.12	1699.81
724.30	1800.16
724.49	1693.67
724.67	1544.17
724.85	1771.49
725.03	1574.89
725.21	1683.43
725.40	1753.06
725.58	1581.03
725.76	1808.36
725.94	1751.01
726.12	1636.33
726.30	1683.43
726.49	1671.14
726.67	1697.77
726.85	1767.40
727.03	1742.82
727.21	2181.09
727.39	2852.82
727.57	3782.60
727.76	4145.09
727.94	4470.72
728.12	4270.01
728.30	3661.77
728.48	3067.86
728.66	2785.24
728.84	2650.07
729.03	2283.49
729.21	2232.29
729.39	1920.99
729.57	1875.94
729.75	1695.72
729.93	1826.79
730.11	1726.44
730.30	1703.91
730.48	1693.67
730.66	1806.31
730.84	1771.49
731.02	1685.48
731.20	1673.19
731.38	1705.96
731.56	1626.09
731.74	1660.90
731.93	1677.29
732.11	1759.21
732.29	1681.38
732.47	1738.73
732.65	1636.33
732.83	1775.59
733.01	1748.97
733.19	1597.42
733.37	1740.77
733.56	1777.64
733.74	1681.38
733.92	1769.44
734.10	1630.18
734.28	1746.92
734.46	1574.89
734.64	1738.73
734.82	1648.61
735.00	1714.15
735.18	1617.90
735.36	1681.38
735.54	1675.24
735.73	1744.87
735.91	1669.09
736.09	1746.92
736.27	1650.66
736.45	1744.87
736.63	1593.32
736.81	1679.33
736.99	1738.73
737.17	1751.01
737.35	1693.67
737.53	1703.91
737.71	1667.05
737.89	1785.83
738.07	1619.94
738.25	1607.66
738.43	1624.04
738.61	1775.59
738.80	1662.95
738.98	1720.29
739.16	1673.19
739.34	1671.14
739.52	1714.15
739.70	1677.29
739.88	1806.31
740.06	1738.73
740.24	1615.85
740.42	1691.62
740.60	1632.23
740.78	1640.42
740.96	1589.22
741.14	1689.57
741.32	1701.86
741.50	1585.13
741.68	1816.55
741.86	1789.92
742.04	1714.15
742.22	1681.38
742.40	1691.62
742.58	1662.95
742.76	1705.96
742.94	1771.49
743.12	1634.28
743.30	1712.10
743.48	1730.53
743.66	1675.24
743.84	1748.97
744.02	1697.77
744.20	1642.47
744.38	1695.72
744.56	1574.89
744.74	1837.03
744.92	1703.91
745.10	1806.31
745.28	1730.53
745.46	1810.40
745.64	1699.81
745.82	1734.63
746.00	1660.90
746.18	1738.73
746.36	1636.33
746.54	1738.73
746.72	1738.73
746.90	1607.66
747.08	1742.82
747.26	1648.61
747.44	1736.68
747.62	1673.19
747.80	1699.81
747.98	1722.34
748.15	1650.66
748.33	1791.97
748.51	1691.62
748.69	1708.01
748.87	1679.33
749.05	1712.10
749.23	1587.18
749.41	1777.64
749.59	1705.96
749.77	1718.25
749.95	1626.09
750.13	1675.24
750.31	1742.82
750.49	1640.42
750.67	1767.40
750.85	1759.21
751.03	1785.83
751.20	1804.26
751.38	1656.81
751.56	1652.71
751.74	1726.44
751.92	1679.33
752.10	1677.29
752.28	1724.39
752.46	1669.09
752.64	1640.42
752.82	1699.81
753.00	1853.41
753.18	1660.90
753.35	1669.09
753.53	1640.42
753.71	1669.09
753.89	1791.97
754.07	1619.94
754.25	1677.29
754.43	1804.26
754.61	1576.94
754.79	1658.85
754.97	1683.43
755.14	1767.40
755.32	1611.75
755.50	1671.14
755.68	1759.21
755.86	1605.61
756.04	1646.57
756.22	1593.32
756.40	1691.62
756.57	1779.68
756.75	1712.10
756.93	1718.25
757.11	1714.15
757.29	1681.38
757.47	1601.51
757.65	1650.66
757.82	1554.41
758.00	1636.33
758.18	1624.04
758.36	1689.57
758.54	1791.97
758.72	1624.04
758.90	1796.07
759.07	1755.11
759.25	1652.71
759.43	1726.44
759.61	1624.04
759.79	2215.90
759.97	1736.68
760.15	1683.43
760.32	1665.00
760.50	1734.63
760.68	1757.16
760.86	1652.71
761.04	1781.73
761.22	1685.48
761.39	1730.53
761.57	1671.14
761.75	1648.61
761.93	1683.43
762.11	1738.73
762.28	1691.62
762.46	1640.42
762.64	1744.87
762.82	1597.42
763.00	1658.85
763.18	1843.17
763.35	1617.90
763.53	1718.25
763.71	1732.58
763.89	1730.53
764.07	1722.34
764.24	1677.29
764.42	1708.01
764.60	1640.42
764.78	1675.24
764.96	1794.02
765.13	1744.87
765.31	1697.77
765.49	1705.96
765.67	1677.29
765.84	1722.34
766.02	1619.94
766.20	1656.81
766.38	1685.48
766.56	1744.87
766.73	1740.77
766.91	1667.05
767.09	1667.05
767.27	1761.25
767.44	1683.43
767.62	1703.91
767.80	1738.73
767.98	1654.76
768.15	1708.01
768.33	1705.96
768.51	1697.77
768.69	1681.38
768.87	1779.68
769.04	1701.86
769.22	1839.08
769.40	1771.49
769.58	1828.84
769.75	1687.53
769.93	1783.78
770.11	1697.77
770.28	1626.09
770.46	1759.21
770.64	1648.61
770.82	1636.33
770.99	1619.94
771.17	1769.44
771.35	1615.85
771.53	1646.57
771.70	1607.66
771.88	1724.39
772.06	1708.01
772.23	1576.94
772.41	1669.09
772.59	1751.01
772.77	1751.01
772.94	1714.15
773.12	1724.39
773.30	1728.49
773.47	1734.63
773.65	1671.14
773.83	1789.92
774.01	1665.00
774.18	1640.42
774.36	1656.81
774.54	1660.90
774.71	1660.90
774.89	1617.90
775.07	1597.42
775.24	1658.85
775.42	1693.67
775.60	1746.92
775.78	1708.01
775.95	1654.76
776.13	1505.26
776.31	1550.31
776.48	1685.48
776.66	1732.58
776.84	1636.33
777.01	1675.24
777.19	1656.81
777.37	1724.39
777.54	1744.87
777.72	1746.92
777.90	1650.66
778.07	1665.00
778.25	1841.12
778.43	1787.88
778.60	1630.18
778.78	1751.01
778.96	1826.79
779.13	1626.09
779.31	1722.34
779.49	1634.28
779.66	1744.87
779.84	1710.05
780.01	1640.42
780.19	1650.66
780.37	1775.59
780.54	1677.29
780.72	1693.67
780.90	1646.57
781.07	1736.68
781.25	1665.00
781.43	1806.31
781.60	1621.99
781.78	1748.97
781.95	1722.34
782.13	1726.44
782.31	1685.48
782.48	1603.56
782.66	1679.33
782.83	1806.31
783.01	1746.92
783.19	1742.82
783.36	1679.33
783.54	1718.25
783.72	1746.92
783.89	1718.25
784.07	1732.58
784.24	1730.53
784.42	1781.73
784.60	1673.19
784.77	1650.66
784.95	1525.74
785.12	1595.37
785.30	1685.48
785.47	1662.95
785.65	1634.28
785.83	1665.00
786.00	1607.66
786.18	1693.67
786.35	1681.38
786.53	1677.29
786.71	1746.92
786.88	1669.09
787.06	1736.68
787.23	1724.39
787.41	1658.85
787.58	1691.62
787.76	1710.05
787.94	1693.67
788.11	1603.56
788.29	1593.32
788.46	1679.33
788.64	1660.90
788.81	1601.51
788.99	1648.61
789.16	1665.00
789.34	1656.81
789.52	1650.66
789.69	1734.63
789.87	1566.70
790.04	1640.42
790.22	1695.72
790.39	1779.68
790.57	1658.85
790.74	1710.05
790.92	1744.87
791.09	1550.31
791.27	1675.24
791.44	1734.63
791.62	1665.00
791.79	1828.84
791.97	1624.04
792.15	1839.08
792.32	1757.16
792.50	1671.14
792.67	1771.49
792.85	1759.21
793.02	1636.33
793.20	1640.42
793.37	1619.94
793.55	1628.14
793.72	1640.42
793.90	1771.49
794.07	1626.09
794.25	1673.19
794.42	1716.20
794.60	1636.33
794.77	1791.97
794.95	1658.85
795.12	1716.20
795.30	1609.70
795.47	1609.70
795.65	1861.60
795.82	1738.73
796.00	1624.04
796.17	1603.56
796.34	1658.85
796.52	1683.43
796.69	1785.83
796.87	1648.61
797.04	1726.44
797.22	1638.38
797.39	1701.86
797.57	1705.96
797.74	1632.23
797.92	1710.05
798.09	1671.14
798.27	1673.19
798.44	1740.77
798.62	1626.09
798.79	1722.34
798.96	1632.23
799.14	1718.25
799.31	1845.22
799.49	1691.62
799.66	1652.71
799.84	1734.63
800.01	1570.79
800.19	1636.33
800.36	1619.94
800.53	1654.76
800.71	1714.15
800.88	1800.16
801.06	1583.08
801.23	1681.38
801.41	1648.61
801.58	1640.42
801.75	1628.14
801.93	1720.29
802.10	1845.22
802.28	1693.67
802.45	1617.90
802.63	1710.05
802.80	1738.73
802.97	1718.25
803.15	1665.00
803.32	1621.99
803.50	1669.09
803.67	1644.52
803.84	1558.50
804.02	1730.53
804.19	1710.05
804.37	1535.98
804.54	1628.14
804.71	1714.15
804.89	1701.86
805.06	1648.61
805.24	1642.47
805.41	1683.43
805.58	1687.53
805.76	1861.60
805.93	1617.90
806.10	1912.80
806.28	1710.05
806.45	1720.29
806.63	1705.96
806.80	1665.00
806.97	1759.21
807.15	1691.62
807.32	1734.63
807.49	1724.39
807.67	1669.09
807.84	1757.16
808.01	1568.74
808.19	1783.78
808.36	1765.35
808.54	1716.20
808.71	1671.14
808.88	1757.16
809.06	1681.38
809.23	1796.07
809.40	1628.14
809.58	1744.87
809.75	1644.52
809.92	1626.09
810.10	1841.12
810.27	1673.19
810.44	1669.09
810.62	1677.29
810.79	1761.25
810.96	1671.14
811.14	1669.09
811.31	1634.28
811.48	1687.53
811.66	1746.92
811.83	1748.97
812.00	1691.62
812.18	1710.05
812.35	1832.93
812.52	1665.00
812.69	1671.14
812.87	1658.85
813.04	1615.85
813.21	1681.38
813.39	1642.47
813.56	1605.61
813.73	1746.92
813.91	1624.04
814.08	1714.15
814.25	1742.82
814.42	1605.61
814.60	1632.23
814.77	1724.39
814.94	1742.82
815.12	1755.11
815.29	1730.53
815.46	1667.05
815.63	1732.58
815.81	1626.09
815.98	1634.28
816.15	1732.58
816.33	1701.86
816.50	1654.76
816.67	1628.14
816.84	1681.38
817.02	1675.24
817.19	1673.19
817.36	1665.00
817.53	1634.28
817.71	1576.94
817.88	1781.73
818.05	1675.24
818.22	1714.15
818.40	1808.36
818.57	1607.66
818.74	1789.92
818.91	1732.58
819.09	1718.25
819.26	1691.62
819.43	1654.76
819.60	1695.72
819.78	1687.53
819.95	1718.25
820.12	1693.67
820.29	1736.68
820.47	1662.95
820.64	1738.73
820.81	1695.72
820.98	1585.13
821.15	1705.96
821.33	1677.29
821.50	1611.75
821.67	1757.16
821.84	1642.47
822.02	1738.73
822.19	1734.63
822.36	1701.86
822.53	1632.23
822.70	1644.52
822.88	1671.14
823.05	1824.74
823.22	1693.67
823.39	1751.01
823.56	1679.33
823.74	1751.01
823.91	1613.80
824.08	1599.46
824.25	1626.09
824.42	1722.34
824.60	1609.70
824.77	1736.68
824.94	1671.14
825.11	1746.92
825.28	1624.04
825.45	1738.73
825.63	1697.77
825.80	1703.91
825.97	1701.86
826.14	1710.05
826.31	1671.14
826.48	1722.34
826.66	1601.51
826.83	1703.91
827.00	1779.68
827.17	1697.77
827.34	1673.19
827.51	1667.05
827.69	1730.53
827.86	1615.85
828.03	1705.96
828.20	1742.82
828.37	1710.05
828.54	1744.87
828.71	1646.57
828.89	1841.12
829.06	1654.76
829.23	1693.67
829.40	1679.33
829.57	1609.70
829.74	1751.01
829.91	1628.14
830.09	1675.24
830.26	1665.00
830.43	1861.60
830.60	1681.38
830.77	1751.01
830.94	1787.88
831.11	1728.49
831.28	1695.72
831.46	1736.68
831.63	1671.14
831.80	1724.39
831.97	1716.20
832.14	1759.21
832.31	1730.53
832.48	1654.76
832.65	1771.49
832.82	1724.39
832.99	1665.00
833.17	1632.23
833.34	1751.01
833.51	1691.62
833.68	1615.85
833.85	1787.88
834.02	1656.81
834.19	1660.90
834.36	1662.95
834.53	1703.91
834.70	1761.25
834.87	1802.21
835.04	1691.62
835.22	1624.04
835.39	1671.14
835.56	1716.20
835.73	1607.66
835.90	1681.38
836.07	1658.85
836.24	1837.03
836.41	1626.09
836.58	1667.05
836.75	1695.72
836.92	1712.10
837.09	1712.10
837.26	1775.59
837.43	1683.43
837.60	1642.47
837.77	1726.44
837.94	1693.67
838.12	1751.01
838.29	1679.33
838.46	1683.43
838.63	1619.94
838.80	1794.02
838.97	1687.53
839.14	1691.62
839.31	1716.20
839.48	1720.29
839.65	1644.52
839.82	1720.29
839.99	1736.68
840.16	1693.67
840.33	1628.14
840.50	1683.43
840.67	1671.14
840.84	1681.38
841.01	1693.67
841.18	1693.67
841.35	1687.53
841.52	1736.68
841.69	1824.74
841.86	1695.72
842.03	1632.23
842.20	1751.01
842.37	1718.25
842.54	1638.38
842.71	1677.29
842.88	1566.70
843.05	1738.73
843.22	1699.81
843.39	1626.09
843.56	1644.52
843.73	1714.15
843.90	1619.94
844.07	1662.95
844.24	1718.25
844.41	1679.33
844.58	1775.59
844.75	1621.99
844.92	1701.86
845.09	1669.09
845.26	1638.38
845.43	1755.11
845.60	1605.61
845.77	1796.07
845.94	1671.14
846.10	1689.57
846.27	1636.33
846.44	1621.99
846.61	1589.22
846.78	1791.97
846.95	1730.53
847.12	1650.66
847.29	1691.62
847.46	1658.85
847.63	1675.24
847.80	1679.33
847.97	1685.48
848.14	1832.93
848.31	1611.75
848.48	1609.70
848.65	1724.39
848.82	1742.82
848.98	1800.16
849.15	1765.35
849.32	1730.53
849.49	1710.05
849.66	1701.86
849.83	1652.71
850.00	1646.57
850.17	1753.06
850.34	1685.48
850.51	1636.33
850.68	1693.67
850.85	1857.51
851.01	1746.92
851.18	1695.72
851.35	1714.15
851.52	1683.43
851.69	1814.50
851.86	1552.36
852.03	1712.10
852.20	1693.67
852.37	1669.09
852.53	1591.27
852.70	1648.61
852.87	1648.61
853.04	1718.25
853.21	1667.05
853.38	1685.48
853.55	1775.59
853.72	1789.92
853.89	1667.05
854.05	1705.96
854.22	1640.42
854.39	1601.51
854.56	1767.40
854.73	1703.91
854.90	1675.24
855.07	1779.68
855.23	1708.01
855.40	1621.99
855.57	1703.91
855.74	1640.42
855.91	1896.42
856.08	1716.20
856.25	1574.89
856.41	1738.73
856.58	1683.43
856.75	1716.20
856.92	1648.61
857.09	1794.02
857.26	1572.84
857.42	1615.85
857.59	1785.83
857.76	1583.08
857.93	1730.53
858.10	1796.07
858.27	1648.61
858.43	1740.77
858.60	1710.05
858.77	1654.76
858.94	1642.47
859.11	1728.49
859.27	1593.32
859.44	1662.95
859.61	1736.68
859.78	1757.16
859.95	1671.14
860.12	1628.14
860.28	1767.40
860.45	1818.60
860.62	1669.09
860.79	1751.01
860.95	1769.44
861.12	1671.14
861.29	1619.94
861.46	1630.18
861.63	1714.15
861.79	1779.68
861.96	1636.33
862.13	1699.81
862.30	1677.29
862.47	1626.09
862.63	1671.14
862.80	1767.40
862.97	1708.01
863.14	1724.39
863.30	1716.20
863.47	1689.57
863.64	1818.60
863.81	1697.77
863.97	1767.40
864.14	1712.10
864.31	1714.15
864.48	1658.85
864.65	1669.09
864.81	1728.49
864.98	1667.05
865.15	1726.44
865.32	1742.82
865.48	1718.25
865.65	1791.97
865.82	1697.77
865.98	1685.48
866.15	1730.53
866.32	1638.38
866.49	1658.85
866.65	1744.87
866.82	1673.19
866.99	1607.66
867.16	1673.19
867.32	1626.09
867.49	1632.23
867.66	1708.01
867.83	1667.05
867.99	1581.03
868.16	1677.29
868.33	1628.14
868.49	1712.10
868.66	1667.05
868.83	1767.40
868.99	1701.86
869.16	1624.04
869.33	1736.68
869.50	1736.68
869.66	1753.06
869.83	1705.96
870.00	1617.90
870.16	1746.92
870.33	1675.24
870.50	1755.11
870.66	1685.48
870.83	1806.31
871.00	1708.01
871.17	1759.21
871.33	1773.54
871.50	1724.39
871.67	1648.61
871.83	1724.39
872.00	1740.77
872.17	1691.62
872.33	1777.64
872.50	1818.60
872.67	1648.61
872.83	1605.61
873.00	1687.53
873.17	1734.63
873.33	1779.68
873.50	1720.29
873.67	1681.38
873.83	1619.94
874.00	1689.57
874.16	1708.01
874.33	1685.48
874.50	1550.31
874.66	1763.30
874.83	1744.87
875.00	1689.57
875.16	1716.20
875.33	1802.21
875.50	1587.18
875.66	1605.61
875.83	1783.78
875.99	1699.81
876.16	1652.71
876.33	1611.75
876.49	1716.20
876.66	1740.77
876.83	1626.09
876.99	1658.85
877.16	1689.57
877.32	1683.43
877.49	1652.71
877.66	1695.72
877.82	1810.40
877.99	1746.92
878.15	1728.49
878.32	1675.24
878.49	1624.04
878.65	1640.42
878.82	1781.73
878.98	1710.05
879.15	1785.83
879.32	1763.30
879.48	1693.67
879.65	1679.33
879.81	1658.85
879.98	1560.55
880.15	1718.25
880.31	1736.68
880.48	1685.48
880.64	1730.53
880.81	1732.58
880.97	1759.21
881.14	1751.01
881.31	1693.67
881.47	1853.41
881.64	1669.09
881.80	1611.75
881.97	1734.63
882.13	1722.34
882.30	1656.81
882.47	1628.14
882.63	1574.89
882.80	1585.13
882.96	1638.38
883.13	1779.68
883.29	1705.96
883.46	1699.81
883.62	1738.73
883.79	1640.42
883.95	1714.15
884.12	1644.52
884.29	1734.63
884.45	1730.53
884.62	1746.92
884.78	1613.80
884.95	1748.97
885.11	1695.72
885.28	1779.68
885.44	1710.05
885.61	1665.00
885.77	1755.11
885.94	1724.39
886.10	1710.05
886.27	1695.72
886.43	1728.49
886.60	1757.16
886.76	1619.94
886.93	1617.90
887.09	1669.09
887.26	1589.22
887.42	1665.00
887.59	1781.73
887.75	1828.84
887.92	1759.21
888.08	1849.32
888.25	1804.26
888.41	1757.16
888.58	1697.77
888.74	1638.38
888.91	1689.57
>>>>>End Processed Spectral Data<<<<<
