SpectraSuite Data File
++++++++++++++++++++++++++++++++++++
Date: Mon Jun 06 15:59:17 CEST 2016
User: root
Dark Spectrum Present: No
Reference Spectrum Present: No
Number of Sampled Component Spectra: 1
Spectrometers: USB4C02835
Integration Time (usec): 100000 (USB4C02835)
Spectra Averaged: 1 (USB4C02835)
Boxcar Smoothing: 0 (USB4C02835)
Correct for Electrical Dark: No (USB4C02835)
Strobe/Lamp Enabled: No (USB4C02835)
Correct for Detector Non-linearity: No (USB4C02835)
Correct for Stray Light: No (USB4C02835)
Number of Pixels in Processed Spectrum: 3648
>>>>>Begin Processed Spectral Data<<<<<
177.47	1458.15
177.69	1458.15
177.91	1458.15
178.13	1478.63
178.36	1429.48
178.58	1593.32
178.80	1724.39
179.02	1656.81
179.24	1724.39
179.46	1652.71
179.68	1699.81
179.90	1671.14
180.13	1652.71
180.35	1675.24
180.57	1669.09
180.79	1648.61
181.01	1691.62
181.23	1865.70
181.45	1730.53
181.67	1789.92
181.90	1734.63
182.12	1650.66
182.34	1697.77
182.56	1730.53
182.78	1751.01
183.00	1601.51
183.22	1724.39
183.44	1607.66
183.66	1886.18
183.89	1781.73
184.11	1822.69
184.33	1705.96
184.55	1761.25
184.77	1748.97
184.99	1828.84
185.21	1695.72
185.43	1877.99
185.65	1632.23
185.87	1710.05
186.10	1783.78
186.32	1859.56
186.54	1740.77
186.76	1732.58
186.98	1789.92
187.20	1726.44
187.42	1710.05
187.64	1734.63
187.86	1724.39
188.08	1740.77
188.30	1619.94
188.52	1685.48
188.75	1777.64
188.97	1789.92
189.19	1656.81
189.41	1726.44
189.63	1697.77
189.85	1726.44
190.07	1628.14
190.29	1667.05
190.51	1806.31
190.73	1640.42
190.95	1687.53
191.17	1767.40
191.39	1617.90
191.61	1730.53
191.84	1658.85
192.06	1693.67
192.28	1685.48
192.50	1951.71
192.72	1730.53
192.94	1671.14
193.16	1810.40
193.38	1681.38
193.60	1587.18
193.82	1665.00
194.04	1826.79
194.26	1804.26
194.48	1699.81
194.70	1718.25
194.92	1716.20
195.14	1800.16
195.36	1613.80
195.58	1697.77
195.80	1701.86
196.02	1628.14
196.24	1759.21
196.46	1742.82
196.69	1648.61
196.91	1851.36
197.13	1640.42
197.35	1634.28
197.57	1769.44
197.79	1779.68
198.01	1746.92
198.23	1728.49
198.45	1755.11
198.67	1599.46
198.89	1689.57
199.11	1722.34
199.33	1681.38
199.55	1634.28
199.77	1708.01
199.99	1787.88
200.21	1734.63
200.43	1730.53
200.65	1669.09
200.87	1656.81
201.09	1646.57
201.31	1667.05
201.53	1785.83
201.75	1703.91
201.97	1730.53
202.19	1656.81
202.41	1734.63
202.63	1796.07
202.85	1781.73
203.07	1714.15
203.29	1673.19
203.51	1621.99
203.73	1667.05
203.95	1908.71
204.17	1773.54
204.39	1757.16
204.61	1648.61
204.83	1665.00
205.05	1812.45
205.27	1724.39
205.49	1767.40
205.71	1710.05
205.93	1660.90
206.15	1703.91
206.37	1695.72
206.59	1724.39
206.81	1683.43
207.03	1638.38
207.25	1640.42
207.47	1759.21
207.69	1763.30
207.91	1820.64
208.13	1781.73
208.34	1617.90
208.56	1667.05
208.78	1718.25
209.00	1638.38
209.22	1660.90
209.44	1658.85
209.66	1718.25
209.88	1744.87
210.10	1656.81
210.32	1673.19
210.54	1722.34
210.76	1720.29
210.98	1781.73
211.20	1570.79
211.42	1708.01
211.64	1882.08
211.86	1779.68
212.08	1773.54
212.30	1691.62
212.52	1687.53
212.74	1720.29
212.96	1699.81
213.17	1818.60
213.39	1712.10
213.61	1761.25
213.83	1734.63
214.05	1683.43
214.27	1837.03
214.49	1603.56
214.71	1613.80
214.93	1812.45
215.15	1662.95
215.37	1761.25
215.59	1621.99
215.81	1728.49
216.03	1779.68
216.24	1738.73
216.46	1634.28
216.68	1742.82
216.90	1783.78
217.12	1816.55
217.34	1720.29
217.56	1828.84
217.78	1808.36
218.00	1767.40
218.22	1746.92
218.44	1710.05
218.66	1773.54
218.87	1771.49
219.09	1697.77
219.31	1724.39
219.53	1775.59
219.75	1595.37
219.97	1765.35
220.19	1751.01
220.41	1716.20
220.63	1814.50
220.85	1738.73
221.06	1689.57
221.28	1755.11
221.50	1732.58
221.72	1714.15
221.94	1742.82
222.16	1710.05
222.38	1732.58
222.60	1787.88
222.82	1736.68
223.03	1791.97
223.25	1712.10
223.47	1691.62
223.69	1890.28
223.91	1710.05
224.13	1705.96
224.35	1656.81
224.57	1804.26
224.78	1767.40
225.00	1607.66
225.22	1693.67
225.44	1714.15
225.66	1775.59
225.88	1697.77
226.10	1810.40
226.32	1703.91
226.53	1810.40
226.75	1716.20
226.97	1656.81
227.19	1765.35
227.41	1630.18
227.63	1681.38
227.85	1656.81
228.06	1693.67
228.28	1759.21
228.50	1787.88
228.72	1640.42
228.94	1708.01
229.16	1562.60
229.37	1576.94
229.59	1757.16
229.81	1845.22
230.03	1673.19
230.25	1621.99
230.47	1673.19
230.69	1703.91
230.90	1681.38
231.12	1675.24
231.34	1718.25
231.56	1812.45
231.78	1669.09
232.00	1718.25
232.21	1679.33
232.43	1708.01
232.65	1593.32
232.87	1771.49
233.09	1685.48
233.30	1732.58
233.52	1681.38
233.74	1673.19
233.96	1714.15
234.18	1794.02
234.40	1650.66
234.61	1789.92
234.83	1638.38
235.05	1677.29
235.27	1849.32
235.49	1748.97
235.70	1697.77
235.92	1798.12
236.14	1779.68
236.36	1890.28
236.58	1589.22
236.79	1773.54
237.01	1738.73
237.23	1685.48
237.45	1859.56
237.67	1689.57
237.88	1718.25
238.10	1824.74
238.32	1724.39
238.54	1685.48
238.76	1665.00
238.97	1689.57
239.19	1705.96
239.41	1769.44
239.63	1812.45
239.85	1632.23
240.06	1736.68
240.28	1693.67
240.50	1767.40
240.72	1763.30
240.93	1683.43
241.15	1761.25
241.37	1716.20
241.59	1796.07
241.81	1763.30
242.02	1744.87
242.24	1701.86
242.46	1748.97
242.68	1746.92
242.89	1697.77
243.11	1814.50
243.33	1669.09
243.55	1736.68
243.76	1783.78
243.98	1744.87
244.20	1673.19
244.42	1783.78
244.64	1728.49
244.85	1636.33
245.07	1609.70
245.29	1734.63
245.51	1734.63
245.72	1716.20
245.94	1759.21
246.16	1748.97
246.38	1726.44
246.59	1726.44
246.81	1658.85
247.03	1691.62
247.24	1642.47
247.46	1648.61
247.68	1683.43
247.90	1667.05
248.11	1669.09
248.33	1781.73
248.55	1730.53
248.77	1681.38
248.98	1712.10
249.20	1802.21
249.42	1685.48
249.64	1687.53
249.85	1689.57
250.07	1759.21
250.29	1744.87
250.50	1728.49
250.72	1658.85
250.94	1744.87
251.16	1890.28
251.37	1820.64
251.59	1742.82
251.81	1652.71
252.02	1841.12
252.24	1677.29
252.46	1822.69
252.68	1650.66
252.89	1675.24
253.11	1566.70
253.33	1904.61
253.54	1849.32
253.76	1636.33
253.98	1703.91
254.20	1673.19
254.41	1617.90
254.63	1751.01
254.85	1681.38
255.06	1748.97
255.28	1787.88
255.50	1718.25
255.71	1626.09
255.93	1648.61
256.15	1740.77
256.36	1648.61
256.58	1669.09
256.80	1718.25
257.02	1765.35
257.23	1673.19
257.45	1714.15
257.67	1812.45
257.88	1654.76
258.10	1712.10
258.32	1681.38
258.53	1677.29
258.75	1796.07
258.97	1724.39
259.18	1634.28
259.40	1728.49
259.62	1773.54
259.83	1789.92
260.05	1806.31
260.27	1957.86
260.48	1769.44
260.70	1654.76
260.92	1726.44
261.13	1744.87
261.35	1763.30
261.57	1681.38
261.78	1648.61
262.00	1640.42
262.22	1767.40
262.43	1689.57
262.65	1619.94
262.86	1712.10
263.08	1886.18
263.30	1734.63
263.51	1660.90
263.73	1617.90
263.95	1814.50
264.16	1648.61
264.38	1703.91
264.60	1791.97
264.81	1851.36
265.03	1777.64
265.25	1765.35
265.46	1710.05
265.68	1734.63
265.89	1757.16
266.11	1603.56
266.33	1757.16
266.54	1755.11
266.76	1812.45
266.98	1701.86
267.19	1796.07
267.41	1736.68
267.62	1685.48
267.84	1728.49
268.06	1845.22
268.27	1720.29
268.49	1787.88
268.70	1716.20
268.92	1689.57
269.14	1650.66
269.35	1587.18
269.57	1691.62
269.79	1837.03
270.00	1681.38
270.22	1802.21
270.43	1691.62
270.65	1617.90
270.87	1693.67
271.08	1726.44
271.30	1732.58
271.51	1724.39
271.73	1757.16
271.95	1763.30
272.16	1679.33
272.38	1708.01
272.59	1681.38
272.81	1753.06
273.02	1736.68
273.24	1742.82
273.46	1740.77
273.67	1665.00
273.89	1648.61
274.10	1703.91
274.32	1763.30
274.54	1734.63
274.75	1710.05
274.97	1650.66
275.18	1742.82
275.40	1716.20
275.61	1687.53
275.83	1697.77
276.05	1613.80
276.26	1710.05
276.48	1755.11
276.69	1701.86
276.91	1716.20
277.12	1751.01
277.34	1763.30
277.55	1822.69
277.77	1687.53
277.99	1751.01
278.20	1685.48
278.42	1621.99
278.63	1644.52
278.85	1658.85
279.06	1675.24
279.28	1716.20
279.49	1720.29
279.71	1683.43
279.93	1701.86
280.14	1669.09
280.36	1624.04
280.57	1761.25
280.79	1894.37
281.00	1669.09
281.22	1665.00
281.43	1765.35
281.65	1607.66
281.86	1644.52
282.08	1765.35
282.29	1746.92
282.51	1665.00
282.73	1724.39
282.94	1642.47
283.16	1765.35
283.37	1857.51
283.59	1738.73
283.80	1726.44
284.02	1765.35
284.23	1767.40
284.45	1646.57
284.66	1654.76
284.88	1673.19
285.09	1658.85
285.31	1673.19
285.52	1665.00
285.74	1576.94
285.95	1742.82
286.17	1697.77
286.38	1804.26
286.60	1695.72
286.81	1615.85
287.03	1665.00
287.24	1687.53
287.46	1732.58
287.67	1677.29
287.89	1775.59
288.10	1658.85
288.32	1726.44
288.53	1830.88
288.75	1654.76
288.96	1681.38
289.18	1648.61
289.39	1687.53
289.61	1804.26
289.82	1902.56
290.04	1759.21
290.25	1650.66
290.47	1689.57
290.68	1705.96
290.90	1818.60
291.11	1660.90
291.33	1703.91
291.54	1705.96
291.76	1626.09
291.97	1732.58
292.18	1740.77
292.40	1683.43
292.61	1697.77
292.83	1841.12
293.04	1773.54
293.26	1628.14
293.47	1693.67
293.69	1734.63
293.90	1708.01
294.12	1777.64
294.33	1730.53
294.55	1685.48
294.76	1812.45
294.97	1746.92
295.19	1808.36
295.40	1634.28
295.62	1771.49
295.83	1667.05
296.05	1677.29
296.26	1755.11
296.48	1683.43
296.69	1714.15
296.90	1660.90
297.12	1714.15
297.33	1791.97
297.55	1650.66
297.76	1732.58
297.98	1845.22
298.19	1710.05
298.41	1689.57
298.62	1667.05
298.83	1748.97
299.05	1769.44
299.26	1665.00
299.48	1599.46
299.69	1687.53
299.90	1765.35
300.12	1697.77
300.33	1816.55
300.55	1701.86
300.76	1779.68
300.98	1677.29
301.19	1718.25
301.40	1714.15
301.62	1708.01
301.83	1759.21
302.05	1681.38
302.26	1699.81
302.47	1619.94
302.69	1656.81
302.90	1775.59
303.12	1591.27
303.33	1726.44
303.54	1791.97
303.76	1712.10
303.97	1710.05
304.19	1765.35
304.40	1652.71
304.61	1808.36
304.83	1837.03
305.04	1871.84
305.26	1785.83
305.47	1701.86
305.68	1679.33
305.90	1626.09
306.11	1775.59
306.33	1705.96
306.54	1642.47
306.75	1742.82
306.97	1593.32
307.18	1673.19
307.39	1632.23
307.61	1781.73
307.82	1621.99
308.04	1724.39
308.25	1701.86
308.46	1740.77
308.68	1751.01
308.89	1677.29
309.10	1779.68
309.32	1771.49
309.53	1730.53
309.74	1751.01
309.96	1804.26
310.17	1746.92
310.39	1710.05
310.60	1720.29
310.81	1720.29
311.03	1630.18
311.24	1740.77
311.45	1773.54
311.67	1828.84
311.88	1703.91
312.09	1710.05
312.31	1693.67
312.52	1705.96
312.73	1751.01
312.95	1595.37
313.16	1617.90
313.37	1845.22
313.59	1751.01
313.80	1685.48
314.01	1787.88
314.23	1701.86
314.44	1681.38
314.65	1652.71
314.87	1640.42
315.08	1740.77
315.29	1761.25
315.51	1642.47
315.72	1656.81
315.93	1800.16
316.15	1812.45
316.36	1581.03
316.57	1730.53
316.79	1742.82
317.00	1671.14
317.21	1759.21
317.43	1597.42
317.64	1650.66
317.85	1628.14
318.07	1642.47
318.28	1701.86
318.49	1839.08
318.70	1935.33
318.92	1859.56
319.13	1798.12
319.34	1820.64
319.56	1705.96
319.77	1863.65
319.98	1824.74
320.20	1861.60
320.41	1779.68
320.62	1769.44
320.83	1708.01
321.05	1804.26
321.26	1751.01
321.47	1673.19
321.69	1814.50
321.90	1718.25
322.11	1726.44
322.32	1689.57
322.54	1718.25
322.75	1689.57
322.96	1855.46
323.18	1679.33
323.39	1558.50
323.60	1681.38
323.81	1785.83
324.03	1683.43
324.24	1730.53
324.45	1718.25
324.66	1785.83
324.88	1742.82
325.09	1728.49
325.30	1755.11
325.52	1697.77
325.73	1732.58
325.94	1578.98
326.15	1673.19
326.37	1662.95
326.58	1746.92
326.79	1820.64
327.00	1703.91
327.22	1710.05
327.43	1712.10
327.64	1650.66
327.85	1742.82
328.07	1726.44
328.28	1740.77
328.49	1734.63
328.70	1693.67
328.92	1718.25
329.13	1683.43
329.34	1787.88
329.55	1839.08
329.76	1753.06
329.98	1701.86
330.19	1779.68
330.40	1703.91
330.61	1718.25
330.83	1787.88
331.04	1662.95
331.25	1763.30
331.46	1636.33
331.68	1691.62
331.89	1781.73
332.10	1685.48
332.31	1601.51
332.52	1734.63
332.74	1767.40
332.95	1662.95
333.16	1718.25
333.37	1783.78
333.58	1652.71
333.80	1787.88
334.01	1626.09
334.22	1687.53
334.43	1654.76
334.64	1693.67
334.86	1621.99
335.07	1714.15
335.28	1783.78
335.49	1638.38
335.70	1757.16
335.92	1742.82
336.13	1822.69
336.34	1736.68
336.55	1744.87
336.76	1693.67
336.98	1665.00
337.19	1695.72
337.40	1757.16
337.61	1906.66
337.82	1740.77
338.04	1796.07
338.25	1624.04
338.46	1796.07
338.67	1701.86
338.88	1667.05
339.09	1687.53
339.31	1675.24
339.52	1656.81
339.73	1665.00
339.94	1679.33
340.15	1824.74
340.36	1740.77
340.58	1759.21
340.79	1650.66
341.00	1834.98
341.21	1691.62
341.42	1861.60
341.63	1714.15
341.85	1722.34
342.06	1689.57
342.27	1658.85
342.48	1783.78
342.69	1642.47
342.90	1787.88
343.12	1773.54
343.33	1724.39
343.54	1820.64
343.75	1769.44
343.96	1703.91
344.17	1669.09
344.38	1738.73
344.60	1681.38
344.81	1617.90
345.02	1712.10
345.23	1636.33
345.44	1767.40
345.65	1800.16
345.86	1771.49
346.07	1716.20
346.29	1626.09
346.50	1787.88
346.71	1794.02
346.92	1783.78
347.13	1851.36
347.34	1742.82
347.55	1755.11
347.76	1718.25
347.98	1718.25
348.19	1724.39
348.40	1888.23
348.61	1619.94
348.82	1828.84
349.03	1744.87
349.24	1722.34
349.45	1755.11
349.66	1638.38
349.88	1742.82
350.09	1644.52
350.30	1722.34
350.51	1814.50
350.72	1665.00
350.93	1687.53
351.14	1718.25
351.35	1783.78
351.56	1710.05
351.77	1718.25
351.99	1794.02
352.20	1785.83
352.41	1667.05
352.62	1652.71
352.83	1728.49
353.04	1779.68
353.25	1650.66
353.46	1892.32
353.67	1738.73
353.88	1632.23
354.09	1601.51
354.30	1671.14
354.52	1771.49
354.73	1671.14
354.94	1720.29
355.15	1818.60
355.36	1800.16
355.57	1685.48
355.78	1779.68
355.99	1744.87
356.20	1722.34
356.41	1798.12
356.62	1789.92
356.83	1699.81
357.04	1834.98
357.25	1626.09
357.46	1656.81
357.68	1701.86
357.89	1689.57
358.10	1714.15
358.31	1720.29
358.52	1703.91
358.73	1671.14
358.94	1728.49
359.15	1732.58
359.36	1736.68
359.57	1697.77
359.78	1691.62
359.99	1740.77
360.20	1667.05
360.41	1662.95
360.62	1787.88
360.83	1714.15
361.04	1683.43
361.25	1705.96
361.46	1763.30
361.67	1789.92
361.88	1746.92
362.09	1763.30
362.30	1828.84
362.51	1693.67
362.72	1673.19
362.93	1779.68
363.14	1691.62
363.35	1771.49
363.56	1665.00
363.78	1763.30
363.99	1738.73
364.20	1726.44
364.41	1726.44
364.62	1853.41
364.83	1822.69
365.04	1685.48
365.25	1699.81
365.46	1800.16
365.67	1652.71
365.88	1585.13
366.09	1748.97
366.30	1636.33
366.51	1728.49
366.72	1640.42
366.93	1738.73
367.14	1693.67
367.35	1828.84
367.56	1634.28
367.77	1765.35
367.98	1640.42
368.18	1697.77
368.39	1785.83
368.60	1660.90
368.81	1742.82
369.02	1724.39
369.23	1689.57
369.44	1581.03
369.65	1693.67
369.86	1708.01
370.07	1824.74
370.28	1640.42
370.49	1730.53
370.70	1785.83
370.91	1669.09
371.12	1689.57
371.33	1732.58
371.54	1726.44
371.75	1771.49
371.96	1566.70
372.17	1673.19
372.38	1701.86
372.59	1736.68
372.80	1736.68
373.01	1728.49
373.22	1742.82
373.43	1615.85
373.64	1681.38
373.85	1791.97
374.06	1800.16
374.26	1783.78
374.47	1837.03
374.68	1744.87
374.89	1753.06
375.10	1730.53
375.31	1738.73
375.52	1716.20
375.73	1726.44
375.94	1710.05
376.15	1769.44
376.36	1720.29
376.57	1703.91
376.78	1681.38
376.99	1751.01
377.20	1781.73
377.40	1705.96
377.61	1789.92
377.82	1712.10
378.03	1802.21
378.24	1732.58
378.45	1724.39
378.66	1685.48
378.87	1648.61
379.08	1665.00
379.29	1728.49
379.50	1804.26
379.71	1720.29
379.91	1751.01
380.12	1636.33
380.33	1726.44
380.54	1740.77
380.75	1771.49
380.96	1673.19
381.17	1701.86
381.38	1697.77
381.59	1710.05
381.80	1642.47
382.00	1857.51
382.21	1796.07
382.42	1855.46
382.63	1912.80
382.84	1744.87
383.05	1771.49
383.26	1839.08
383.47	1728.49
383.68	1705.96
383.88	1763.30
384.09	1693.67
384.30	1898.47
384.51	1746.92
384.72	1710.05
384.93	1646.57
385.14	1720.29
385.35	1779.68
385.55	1677.29
385.76	1787.88
385.97	1736.68
386.18	1613.80
386.39	1662.95
386.60	1732.58
386.81	1783.78
387.02	1673.19
387.22	1621.99
387.43	1798.12
387.64	1777.64
387.85	1898.47
388.06	2207.71
388.27	4274.11
388.48	6592.41
388.68	8044.42
388.89	9437.04
389.10	9580.40
389.31	8331.14
389.52	7522.19
389.73	6602.65
389.93	6043.56
390.14	5740.46
390.35	5031.86
390.56	4474.81
390.77	3745.73
390.98	2967.51
391.18	2398.17
391.39	2107.36
391.60	1822.69
391.81	1832.93
392.02	1681.38
392.23	1937.38
392.43	1738.73
392.64	1849.32
392.85	1658.85
393.06	1898.47
393.27	1658.85
393.47	1703.91
393.68	1699.81
393.89	1787.88
394.10	1773.54
394.31	1669.09
394.52	1669.09
394.72	1687.53
394.93	1796.07
395.14	1587.18
395.35	1826.79
395.56	1681.38
395.76	1751.01
395.97	1718.25
396.18	1861.60
396.39	1845.22
396.60	2021.35
396.80	1873.89
397.01	1847.27
397.22	1949.67
397.43	1810.40
397.64	1726.44
397.84	1798.12
398.05	1890.28
398.26	1691.62
398.47	1777.64
398.67	1783.78
398.88	1734.63
399.09	1724.39
399.30	1689.57
399.51	1763.30
399.71	1679.33
399.92	1769.44
400.13	1701.86
400.34	1665.00
400.54	1708.01
400.75	1751.01
400.96	1765.35
401.17	1820.64
401.37	1761.25
401.58	1761.25
401.79	1732.58
402.00	1826.79
402.21	1970.15
402.41	1994.72
402.62	1978.34
402.83	2123.74
403.04	1937.38
403.24	2099.17
403.45	1937.38
403.66	1947.62
403.87	1888.23
404.07	1937.38
404.28	1923.04
404.49	1867.75
404.70	1824.74
404.90	1771.49
405.11	1748.97
405.32	1771.49
405.52	1738.73
405.73	1656.81
405.94	1634.28
406.15	1605.61
406.35	1783.78
406.56	1746.92
406.77	1755.11
406.98	1771.49
407.18	1701.86
407.39	1773.54
407.60	1705.96
407.80	1804.26
408.01	1722.34
408.22	1665.00
408.43	1689.57
408.63	1779.68
408.84	1738.73
409.05	1824.74
409.25	1681.38
409.46	1675.24
409.67	1658.85
409.88	1632.23
410.08	1808.36
410.29	1685.48
410.50	1693.67
410.70	1751.01
410.91	1685.48
411.12	1808.36
411.32	1732.58
411.53	1695.72
411.74	1753.06
411.95	1734.63
412.15	1714.15
412.36	1812.45
412.57	1800.16
412.77	1765.35
412.98	1677.29
413.19	1716.20
413.39	1767.40
413.60	1837.03
413.81	1794.02
414.01	1650.66
414.22	1748.97
414.43	1753.06
414.63	1714.15
414.84	1808.36
415.05	1718.25
415.25	1681.38
415.46	1748.97
415.67	1699.81
415.87	1761.25
416.08	1720.29
416.29	1683.43
416.49	1773.54
416.70	1679.33
416.91	1695.72
417.11	1656.81
417.32	1761.25
417.53	1781.73
417.73	1683.43
417.94	1650.66
418.15	1734.63
418.35	1656.81
418.56	1757.16
418.77	1800.16
418.97	1708.01
419.18	1701.86
419.38	1691.62
419.59	1718.25
419.80	1832.93
420.00	1679.33
420.21	1746.92
420.42	1781.73
420.62	1763.30
420.83	1724.39
421.04	1712.10
421.24	1693.67
421.45	1787.88
421.65	1777.64
421.86	1726.44
422.07	1798.12
422.27	1628.14
422.48	1636.33
422.69	1652.71
422.89	1781.73
423.10	1761.25
423.30	1644.52
423.51	1693.67
423.72	1736.68
423.92	1746.92
424.13	1640.42
424.33	1730.53
424.54	1730.53
424.75	1679.33
424.95	1812.45
425.16	1771.49
425.36	1646.57
425.57	1783.78
425.78	1771.49
425.98	1695.72
426.19	1738.73
426.39	1599.46
426.60	1744.87
426.81	1806.31
427.01	1667.05
427.22	1761.25
427.42	1673.19
427.63	1697.77
427.83	1697.77
428.04	1798.12
428.25	1779.68
428.45	1755.11
428.66	1753.06
428.86	1730.53
429.07	1705.96
429.28	1732.58
429.48	1740.77
429.69	1691.62
429.89	1773.54
430.10	1675.24
430.30	1796.07
430.51	1775.59
430.71	1703.91
430.92	1738.73
431.13	1638.38
431.33	1689.57
431.54	1785.83
431.74	1796.07
431.95	1818.60
432.15	1732.58
432.36	1736.68
432.56	1794.02
432.77	1806.31
432.98	1853.41
433.18	1781.73
433.39	1798.12
433.59	1650.66
433.80	1765.35
434.00	1853.41
434.21	1675.24
434.41	1716.20
434.62	1757.16
434.82	1679.33
435.03	1689.57
435.23	1738.73
435.44	1689.57
435.64	1732.58
435.85	1785.83
436.06	1773.54
436.26	1763.30
436.47	1697.77
436.67	1656.81
436.88	1677.29
437.08	1820.64
437.29	1861.60
437.49	1724.39
437.70	1834.98
437.90	1734.63
438.11	1882.08
438.31	1822.69
438.52	1906.66
438.72	1867.75
438.93	1832.93
439.13	1783.78
439.34	1828.84
439.54	1806.31
439.75	1828.84
439.95	1779.68
440.16	1787.88
440.36	1740.77
440.57	1832.93
440.77	1820.64
440.98	1761.25
441.18	1775.59
441.39	1746.92
441.59	1693.67
441.80	1800.16
442.00	1708.01
442.21	1716.20
442.41	1673.19
442.62	1794.02
442.82	1724.39
443.02	1736.68
443.23	1783.78
443.43	1755.11
443.64	1775.59
443.84	1673.19
444.05	1816.55
444.25	1742.82
444.46	1705.96
444.66	1714.15
444.87	1841.12
445.07	1697.77
445.28	1710.05
445.48	1822.69
445.69	1779.68
445.89	1828.84
446.09	1810.40
446.30	2029.54
446.50	2650.07
446.71	3762.12
446.91	4313.02
447.12	4747.19
447.32	4794.29
447.53	4206.53
447.73	3889.09
447.93	3422.16
448.14	3248.08
448.34	3174.35
448.55	2803.67
448.75	2834.39
448.96	2650.07
449.16	2389.98
449.36	2289.63
449.57	1996.77
449.77	1902.56
449.98	1845.22
450.18	1828.84
450.39	1794.02
450.59	1757.16
450.79	1736.68
451.00	1796.07
451.20	1759.21
451.41	1699.81
451.61	1824.74
451.81	1791.97
452.02	1728.49
452.22	1679.33
452.43	1718.25
452.63	1646.57
452.84	1775.59
453.04	1677.29
453.24	1845.22
453.45	1683.43
453.65	1748.97
453.86	1710.05
454.06	1681.38
454.26	1710.05
454.47	1718.25
454.67	1748.97
454.87	1712.10
455.08	1755.11
455.28	1865.70
455.49	1710.05
455.69	1621.99
455.89	1837.03
456.10	1769.44
456.30	1740.77
456.51	1757.16
456.71	1683.43
456.91	1783.78
457.12	1798.12
457.32	1712.10
457.52	1699.81
457.73	1882.08
457.93	1849.32
458.14	1665.00
458.34	1638.38
458.54	1779.68
458.75	1751.01
458.95	1755.11
459.15	1665.00
459.36	1744.87
459.56	1818.60
459.76	1871.84
459.97	1716.20
460.17	1744.87
460.37	1775.59
460.58	1783.78
460.78	1798.12
460.99	1726.44
461.19	1757.16
461.39	1726.44
461.60	1671.14
461.80	1787.88
462.00	1617.90
462.21	1769.44
462.41	1746.92
462.61	1673.19
462.82	1689.57
463.02	1769.44
463.22	1708.01
463.43	1767.40
463.63	1765.35
463.83	1798.12
464.04	1708.01
464.24	1665.00
464.44	1738.73
464.64	1736.68
464.85	1703.91
465.05	1775.59
465.25	1738.73
465.46	1689.57
465.66	1804.26
465.86	1812.45
466.07	1757.16
466.27	1720.29
466.47	1628.14
466.68	1603.56
466.88	1867.75
467.08	1744.87
467.29	1777.64
467.49	1777.64
467.69	1683.43
467.89	1851.36
468.10	1705.96
468.30	1708.01
468.50	1834.98
468.71	1851.36
468.91	1587.18
469.11	1837.03
469.31	1767.40
469.52	1654.76
469.72	1837.03
469.92	1818.60
470.13	1765.35
470.33	1773.54
470.53	1812.45
470.73	2093.02
470.94	2260.96
471.14	2297.82
471.34	2471.90
471.54	2365.40
471.75	2156.51
471.95	2142.18
472.15	2090.98
472.36	2086.88
472.56	2090.98
472.76	1959.91
472.96	2025.44
473.17	2000.87
473.37	1970.15
473.57	1773.54
473.77	1865.70
473.98	1765.35
474.18	1675.24
474.38	1984.48
474.58	1673.19
474.79	1636.33
474.99	1804.26
475.19	1759.21
475.39	1679.33
475.60	1724.39
475.80	1716.20
476.00	1751.01
476.20	1689.57
476.41	1765.35
476.61	1820.64
476.81	1755.11
477.01	1677.29
477.21	1865.70
477.42	1828.84
477.62	1720.29
477.82	1757.16
478.02	1714.15
478.23	1728.49
478.43	1665.00
478.63	1816.55
478.83	1685.48
479.03	1703.91
479.24	1867.75
479.44	1810.40
479.64	1710.05
479.84	1660.90
480.04	1621.99
480.25	1773.54
480.45	1648.61
480.65	1740.77
480.85	1791.97
481.06	1695.72
481.26	1804.26
481.46	1789.92
481.66	1775.59
481.86	1677.29
482.06	1826.79
482.27	1701.86
482.47	1683.43
482.67	1679.33
482.87	1708.01
483.07	1863.65
483.28	1693.67
483.48	1632.23
483.68	1708.01
483.88	1699.81
484.08	1609.70
484.29	1726.44
484.49	1744.87
484.69	1673.19
484.89	1740.77
485.09	1787.88
485.29	1710.05
485.50	1787.88
485.70	1781.73
485.90	1787.88
486.10	1755.11
486.30	1734.63
486.50	1830.88
486.71	1736.68
486.91	1740.77
487.11	1800.16
487.31	1624.04
487.51	1794.02
487.71	1644.52
487.91	1685.48
488.12	1748.97
488.32	1603.56
488.52	1716.20
488.72	1593.32
488.92	1761.25
489.12	1775.59
489.32	1802.21
489.53	1771.49
489.73	1609.70
489.93	1902.56
490.13	1687.53
490.33	1671.14
490.53	1734.63
490.73	1863.65
490.94	1687.53
491.14	1769.44
491.34	1802.21
491.54	2111.46
491.74	2447.32
491.94	2955.22
492.14	2994.13
492.34	3018.71
492.54	2723.80
492.75	2512.86
492.95	2482.14
493.15	2371.55
493.35	2306.01
493.55	2281.44
493.75	2168.80
493.95	2125.79
494.15	1982.43
494.35	1964.00
494.56	1843.17
494.76	1771.49
494.96	1759.21
495.16	1820.64
495.36	1669.09
495.56	1765.35
495.76	1755.11
495.96	1755.11
496.16	1701.86
496.36	1839.08
496.56	1730.53
496.77	1787.88
496.97	1710.05
497.17	1888.23
497.37	1603.56
497.57	1703.91
497.77	1794.02
497.97	1693.67
498.17	1783.78
498.37	1671.14
498.57	1763.30
498.77	1765.35
498.97	1791.97
499.17	1771.49
499.38	1726.44
499.58	1761.25
499.78	1884.13
499.98	1777.64
500.18	1726.44
500.38	1724.39
500.58	1931.23
500.78	2602.97
500.98	4530.11
501.18	5691.31
501.38	6735.77
501.58	7061.40
501.78	6590.36
501.98	5554.09
502.18	4935.60
502.38	4341.69
502.58	4132.80
502.78	3592.14
502.98	3682.25
503.18	3348.43
503.38	3121.10
503.59	2772.95
503.79	2654.17
503.99	2418.65
504.19	2242.53
504.39	2197.47
504.59	2222.05
504.79	2066.40
504.99	1998.82
505.19	1925.09
505.39	1791.97
505.59	2007.01
505.79	1906.66
505.99	1927.14
506.19	1779.68
506.39	1875.94
506.59	1710.05
506.79	1783.78
506.99	1843.17
507.19	1681.38
507.39	1728.49
507.59	1746.92
507.79	1650.66
507.99	1656.81
508.19	1761.25
508.39	1781.73
508.59	1734.63
508.79	1834.98
508.99	1910.75
509.19	1695.72
509.39	1771.49
509.59	1771.49
509.79	1708.01
509.99	1738.73
510.19	1777.64
510.39	1806.31
510.59	1697.77
510.79	1732.58
510.99	1591.27
511.19	1738.73
511.39	1830.88
511.59	1751.01
511.79	1841.12
511.99	1753.06
512.19	1837.03
512.38	1738.73
512.58	1751.01
512.78	1681.38
512.98	1863.65
513.18	1843.17
513.38	1630.18
513.58	1845.22
513.78	1802.21
513.98	1646.57
514.18	1775.59
514.38	1751.01
514.58	1712.10
514.78	1751.01
514.98	1716.20
515.18	1734.63
515.38	1773.54
515.58	1875.94
515.78	1708.01
515.98	1720.29
516.18	1742.82
516.38	1779.68
516.57	1742.82
516.77	1759.21
516.97	1787.88
517.17	1734.63
517.37	1595.37
517.57	1718.25
517.77	1755.11
517.97	1695.72
518.17	1847.27
518.37	1607.66
518.57	1689.57
518.77	1746.92
518.97	1746.92
519.16	1703.91
519.36	1816.55
519.56	1703.91
519.76	1695.72
519.96	1751.01
520.16	1822.69
520.36	1685.48
520.56	1796.07
520.76	1714.15
520.96	1726.44
521.16	1820.64
521.35	1769.44
521.55	1904.61
521.75	1689.57
521.95	1718.25
522.15	1693.67
522.35	1648.61
522.55	1728.49
522.75	1710.05
522.95	1785.83
523.14	1732.58
523.34	1769.44
523.54	1652.71
523.74	1748.97
523.94	1806.31
524.14	1697.77
524.34	1734.63
524.54	1849.32
524.73	1763.30
524.93	1740.77
525.13	1701.86
525.33	1648.61
525.53	1871.84
525.73	1785.83
525.93	1777.64
526.13	1703.91
526.32	1734.63
526.52	1759.21
526.72	1755.11
526.92	1732.58
527.12	1726.44
527.32	1697.77
527.52	1736.68
527.71	1812.45
527.91	1777.64
528.11	1771.49
528.31	1726.44
528.51	1677.29
528.71	1744.87
528.90	1765.35
529.10	1875.94
529.30	1779.68
529.50	1654.76
529.70	1808.36
529.90	1714.15
530.09	1718.25
530.29	1673.19
530.49	1677.29
530.69	1865.70
530.89	1679.33
531.09	1777.64
531.28	1771.49
531.48	1826.79
531.68	1783.78
531.88	1744.87
532.08	1843.17
532.28	1787.88
532.47	1855.46
532.67	1828.84
532.87	1714.15
533.07	1626.09
533.27	1771.49
533.46	1751.01
533.66	1783.78
533.86	1699.81
534.06	1726.44
534.26	1699.81
534.45	1683.43
534.65	1794.02
534.85	1736.68
535.05	1703.91
535.25	1828.84
535.44	1626.09
535.64	1738.73
535.84	1767.40
536.04	1742.82
536.24	1748.97
536.43	1699.81
536.63	1820.64
536.83	1759.21
537.03	1775.59
537.22	1689.57
537.42	1673.19
537.62	1730.53
537.82	1681.38
538.02	1810.40
538.21	1857.51
538.41	1877.99
538.61	1794.02
538.81	1845.22
539.00	1826.79
539.20	1718.25
539.40	1714.15
539.60	1751.01
539.79	1763.30
539.99	1773.54
540.19	1794.02
540.39	1689.57
540.58	1800.16
540.78	1767.40
540.98	1763.30
541.18	1796.07
541.37	1787.88
541.57	1791.97
541.77	1816.55
541.97	1695.72
542.16	1658.85
542.36	1677.29
542.56	1816.55
542.76	1884.13
542.95	1798.12
543.15	1681.38
543.35	1853.41
543.54	1660.90
543.74	1724.39
543.94	1806.31
544.14	1681.38
544.33	1832.93
544.53	1769.44
544.73	1738.73
544.93	1765.35
545.12	1701.86
545.32	1779.68
545.52	1742.82
545.71	1689.57
545.91	1703.91
546.11	1775.59
546.30	1708.01
546.50	1740.77
546.70	1818.60
546.90	1748.97
547.09	1605.61
547.29	1734.63
547.49	1824.74
547.68	1773.54
547.88	1673.19
548.08	1703.91
548.27	2203.61
548.47	1665.00
548.67	1687.53
548.87	1767.40
549.06	1746.92
549.26	1810.40
549.46	1779.68
549.65	1718.25
549.85	1798.12
550.05	1787.88
550.24	1697.77
550.44	1755.11
550.64	1818.60
550.83	1769.44
551.03	1757.16
551.23	1808.36
551.42	1718.25
551.62	1734.63
551.82	1779.68
552.01	1697.77
552.21	1861.60
552.41	1734.63
552.60	1857.51
552.80	1802.21
553.00	1716.20
553.19	1814.50
553.39	1789.92
553.59	1624.04
553.78	1738.73
553.98	1781.73
554.17	1705.96
554.37	1798.12
554.57	1816.55
554.76	1822.69
554.96	1695.72
555.16	1757.16
555.35	1740.77
555.55	1738.73
555.75	1753.06
555.94	1787.88
556.14	1738.73
556.33	1796.07
556.53	1781.73
556.73	1810.40
556.92	1724.39
557.12	1837.03
557.32	1906.66
557.51	1867.75
557.71	1877.99
557.90	1828.84
558.10	1857.51
558.30	1689.57
558.49	1804.26
558.69	1746.92
558.88	1789.92
559.08	1763.30
559.28	1740.77
559.47	1763.30
559.67	1804.26
559.86	1843.17
560.06	1769.44
560.26	1779.68
560.45	1791.97
560.65	1757.16
560.84	1867.75
561.04	1701.86
561.24	1734.63
561.43	1724.39
561.63	1923.04
561.82	1730.53
562.02	1816.55
562.22	1697.77
562.41	1748.97
562.61	1753.06
562.80	1687.53
563.00	1927.14
563.19	1755.11
563.39	1746.92
563.59	1763.30
563.78	1722.34
563.98	1734.63
564.17	1794.02
564.37	1636.33
564.56	1685.48
564.76	1742.82
564.96	1816.55
565.15	1781.73
565.35	1886.18
565.54	1771.49
565.74	1798.12
565.93	1746.92
566.13	1742.82
566.32	1751.01
566.52	1753.06
566.71	1773.54
566.91	1808.36
567.11	1726.44
567.30	1660.90
567.50	1773.54
567.69	1775.59
567.89	1763.30
568.08	1740.77
568.28	1830.88
568.47	1730.53
568.67	1779.68
568.86	1742.82
569.06	1806.31
569.25	1757.16
569.45	1699.81
569.64	1734.63
569.84	1718.25
570.04	1722.34
570.23	1662.95
570.43	1714.15
570.62	1738.73
570.82	1820.64
571.01	1705.96
571.21	1654.76
571.40	1667.05
571.60	1849.32
571.79	1830.88
571.99	1765.35
572.18	1699.81
572.38	1736.68
572.57	1734.63
572.77	1789.92
572.96	1916.90
573.16	1806.31
573.35	1746.92
573.55	1830.88
573.74	1820.64
573.94	1769.44
574.13	1652.71
574.33	1824.74
574.52	1834.98
574.71	1828.84
574.91	1818.60
575.10	1728.49
575.30	1732.58
575.49	1693.67
575.69	1767.40
575.88	1800.16
576.08	1730.53
576.27	1783.78
576.47	1751.01
576.66	1896.42
576.86	1814.50
577.05	1791.97
577.25	1730.53
577.44	1843.17
577.64	1748.97
577.83	1820.64
578.02	1714.15
578.22	1763.30
578.41	1818.60
578.61	1738.73
578.80	1658.85
579.00	1802.21
579.19	1730.53
579.39	1802.21
579.58	1880.04
579.77	1802.21
579.97	1859.56
580.16	1845.22
580.36	1863.65
580.55	1841.12
580.75	1789.92
580.94	1730.53
581.13	1781.73
581.33	1898.47
581.52	1763.30
581.72	1925.09
581.91	1931.23
582.11	1746.92
582.30	1761.25
582.49	1779.68
582.69	1912.80
582.88	1763.30
583.08	1892.32
583.27	1769.44
583.47	1847.27
583.66	1771.49
583.85	1804.26
584.05	1759.21
584.24	1826.79
584.44	1800.16
584.63	1751.01
584.82	1830.88
585.02	1890.28
585.21	1783.78
585.41	1828.84
585.60	1746.92
585.79	1834.98
585.99	1920.99
586.18	1863.65
586.37	2158.56
586.57	3360.72
586.76	9817.96
586.96	24043.15
587.15	33607.17
587.34	39771.55
587.54	41172.36
587.73	35667.42
587.93	25486.97
588.12	21069.50
588.31	17753.84
588.51	15701.78
588.70	14831.39
588.89	13723.44
589.09	12240.71
589.28	10930.01
589.47	9299.83
589.67	7776.14
589.86	6221.73
590.06	4870.07
590.25	3872.71
590.44	3110.86
590.64	2582.49
590.83	2222.05
591.02	2133.98
591.22	1949.67
591.41	1896.42
591.60	1806.31
591.80	1974.24
591.99	1738.73
592.18	1796.07
592.38	1890.28
592.57	1796.07
592.76	1714.15
592.96	1804.26
593.15	1779.68
593.34	1740.77
593.54	1626.09
593.73	1853.41
593.92	1804.26
594.12	1667.05
594.31	1703.91
594.50	1875.94
594.70	1787.88
594.89	1931.23
595.08	1703.91
595.28	1828.84
595.47	1959.91
595.66	1781.73
595.86	1685.48
596.05	1681.38
596.24	1734.63
596.43	1849.32
596.63	1853.41
596.82	1789.92
597.01	1849.32
597.21	1859.56
597.40	1769.44
597.59	1714.15
597.79	1767.40
597.98	1779.68
598.17	1769.44
598.36	1757.16
598.56	1806.31
598.75	1751.01
598.94	1710.05
599.14	1789.92
599.33	1714.15
599.52	1800.16
599.71	1751.01
599.91	1837.03
600.10	1751.01
600.29	1701.86
600.48	1812.45
600.68	1755.11
600.87	1689.57
601.06	1708.01
601.26	1843.17
601.45	1785.83
601.64	1679.33
601.83	1822.69
602.03	1671.14
602.22	1746.92
602.41	1910.75
602.60	1828.84
602.80	1826.79
602.99	1753.06
603.18	1753.06
603.37	1730.53
603.57	1761.25
603.76	1826.79
603.95	1837.03
604.14	1685.48
604.34	1667.05
604.53	1714.15
604.72	1781.73
604.91	1787.88
605.10	1796.07
605.30	1640.42
605.49	1851.36
605.68	1806.31
605.87	1812.45
606.07	1767.40
606.26	1769.44
606.45	1779.68
606.64	1753.06
606.84	1701.86
607.03	1746.92
607.22	1697.77
607.41	1710.05
607.60	1718.25
607.80	1886.18
607.99	1732.58
608.18	1753.06
608.37	1810.40
608.56	1734.63
608.76	1789.92
608.95	1775.59
609.14	1738.73
609.33	1851.36
609.52	1841.12
609.72	1791.97
609.91	1806.31
610.10	1783.78
610.29	1898.47
610.48	1787.88
610.68	1765.35
610.87	1708.01
611.06	1789.92
611.25	1759.21
611.44	1832.93
611.63	1787.88
611.83	1796.07
612.02	1656.81
612.21	1753.06
612.40	1640.42
612.59	1744.87
612.79	1701.86
612.98	1658.85
613.17	1765.35
613.36	1724.39
613.55	1775.59
613.74	1703.91
613.93	1693.67
614.13	1757.16
614.32	1716.20
614.51	1785.83
614.70	1683.43
614.89	1732.58
615.08	1761.25
615.28	2027.49
615.47	1675.24
615.66	1769.44
615.85	1765.35
616.04	1767.40
616.23	1732.58
616.42	1708.01
616.62	1810.40
616.81	1837.03
617.00	1757.16
617.19	1769.44
617.38	1556.46
617.57	1695.72
617.76	1824.74
617.95	1783.78
618.15	1736.68
618.34	1861.60
618.53	1673.19
618.72	1822.69
618.91	1814.50
619.10	1857.51
619.29	1744.87
619.48	1773.54
619.68	1701.86
619.87	1726.44
620.06	1693.67
620.25	1812.45
620.44	1701.86
620.63	1675.24
620.82	1757.16
621.01	1785.83
621.20	1703.91
621.39	1734.63
621.59	1767.40
621.78	1685.48
621.97	1751.01
622.16	1804.26
622.35	1779.68
622.54	1820.64
622.73	1785.83
622.92	1619.94
623.11	1773.54
623.30	1763.30
623.49	1681.38
623.68	1675.24
623.88	1742.82
624.07	1669.09
624.26	1695.72
624.45	1791.97
624.64	1746.92
624.83	1697.77
625.02	1681.38
625.21	1765.35
625.40	1675.24
625.59	1726.44
625.78	1695.72
625.97	1763.30
626.16	1853.41
626.35	1746.92
626.54	1681.38
626.74	1822.69
626.93	1681.38
627.12	1695.72
627.31	1773.54
627.50	1767.40
627.69	1783.78
627.88	1683.43
628.07	1662.95
628.26	1607.66
628.45	1699.81
628.64	1726.44
628.83	1744.87
629.02	1691.62
629.21	1773.54
629.40	1748.97
629.59	1722.34
629.78	1669.09
629.97	1787.88
630.16	1701.86
630.35	1689.57
630.54	1736.68
630.73	1705.96
630.92	1785.83
631.11	1744.87
631.30	1716.20
631.49	1685.48
631.68	1736.68
631.87	1806.31
632.06	1611.75
632.25	1826.79
632.44	1732.58
632.63	1765.35
632.82	1593.32
633.01	1724.39
633.20	1665.00
633.39	1724.39
633.58	1599.46
633.77	1753.06
633.96	1740.77
634.15	1785.83
634.34	1748.97
634.53	1765.35
634.72	1660.90
634.91	1613.80
635.10	1710.05
635.29	1722.34
635.48	1736.68
635.67	1660.90
635.86	1708.01
636.05	1867.75
636.24	1740.77
636.43	1789.92
636.62	1796.07
636.81	1595.37
637.00	1665.00
637.19	1720.29
637.38	1699.81
637.57	1697.77
637.76	1716.20
637.95	1761.25
638.14	1748.97
638.33	1732.58
638.52	1687.53
638.71	1685.48
638.89	1720.29
639.08	1892.32
639.27	1763.30
639.46	1630.18
639.65	1787.88
639.84	1730.53
640.03	1734.63
640.22	1656.81
640.41	1884.13
640.60	1761.25
640.79	1775.59
640.98	1689.57
641.17	1767.40
641.36	1708.01
641.55	1779.68
641.74	1640.42
641.92	1644.52
642.11	1691.62
642.30	1798.12
642.49	1716.20
642.68	1751.01
642.87	1681.38
643.06	1791.97
643.25	1695.72
643.44	1687.53
643.63	1640.42
643.82	1722.34
644.00	1683.43
644.19	1714.15
644.38	1718.25
644.57	1753.06
644.76	1726.44
644.95	1667.05
645.14	1767.40
645.33	1718.25
645.52	1726.44
645.71	1646.57
645.89	1656.81
646.08	1726.44
646.27	1689.57
646.46	1853.41
646.65	1650.66
646.84	1730.53
647.03	1662.95
647.22	1820.64
647.40	1759.21
647.59	1730.53
647.78	1654.76
647.97	1619.94
648.16	1630.18
648.35	1789.92
648.54	1705.96
648.73	1705.96
648.91	1791.97
649.10	1794.02
649.29	1734.63
649.48	1785.83
649.67	1765.35
649.86	1734.63
650.05	1769.44
650.23	1839.08
650.42	1632.23
650.61	1761.25
650.80	1841.12
650.99	1853.41
651.18	1759.21
651.36	1710.05
651.55	1740.77
651.74	1806.31
651.93	1705.96
652.12	1685.48
652.31	1724.39
652.49	1705.96
652.68	1710.05
652.87	1867.75
653.06	1695.72
653.25	1851.36
653.44	1736.68
653.62	1796.07
653.81	1800.16
654.00	1730.53
654.19	1732.58
654.38	1855.46
654.56	1748.97
654.75	1701.86
654.94	1818.60
655.13	1757.16
655.32	1726.44
655.51	1763.30
655.69	1701.86
655.88	1812.45
656.07	1673.19
656.26	1783.78
656.45	1669.09
656.63	1767.40
656.82	1820.64
657.01	1726.44
657.20	1685.48
657.38	1849.32
657.57	1648.61
657.76	1648.61
657.95	1736.68
658.14	1673.19
658.32	1665.00
658.51	1689.57
658.70	1744.87
658.89	1763.30
659.08	1714.15
659.26	1779.68
659.45	1595.37
659.64	1746.92
659.83	1677.29
660.01	1920.99
660.20	1744.87
660.39	1791.97
660.58	1589.22
660.76	1767.40
660.95	1636.33
661.14	1720.29
661.33	1669.09
661.51	1701.86
661.70	1654.76
661.89	1740.77
662.08	1708.01
662.26	1648.61
662.45	1611.75
662.64	1875.94
662.83	1714.15
663.01	1615.85
663.20	1669.09
663.39	1820.64
663.58	1662.95
663.76	1636.33
663.95	1759.21
664.14	1685.48
664.32	1800.16
664.51	1726.44
664.70	1685.48
664.89	1753.06
665.07	1654.76
665.26	1775.59
665.45	1673.19
665.64	1763.30
665.82	1753.06
666.01	1845.22
666.20	1648.61
666.38	1810.40
666.57	1779.68
666.76	2166.75
666.95	4507.58
667.13	10420.06
667.32	15066.91
667.51	17397.49
667.69	18570.98
667.88	17211.13
668.07	12101.45
668.25	9385.84
668.44	7827.34
668.63	7217.04
668.81	6553.50
669.00	6148.00
669.19	5484.46
669.38	5031.86
669.56	4497.34
669.75	3954.63
669.94	3401.68
670.12	2871.25
670.31	2535.39
670.50	2226.14
670.68	2142.18
670.87	1955.81
671.06	1875.94
671.24	1791.97
671.43	1783.78
671.62	1816.55
671.80	1726.44
671.99	1746.92
672.18	1824.74
672.36	1722.34
672.55	1720.29
672.74	1652.71
672.92	1767.40
673.11	1787.88
673.29	1714.15
673.48	1794.02
673.67	1652.71
673.85	1769.44
674.04	1671.14
674.23	1783.78
674.41	1910.75
674.60	1644.52
674.79	1755.11
674.97	1697.77
675.16	1843.17
675.34	1810.40
675.53	1679.33
675.72	1710.05
675.90	1853.41
676.09	1697.77
676.28	1787.88
676.46	1593.32
676.65	1701.86
676.83	1613.80
677.02	1763.30
677.21	1755.11
677.39	1708.01
677.58	1703.91
677.77	1738.73
677.95	1697.77
678.14	1738.73
678.32	1724.39
678.51	1712.10
678.70	1816.55
678.88	1720.29
679.07	1812.45
679.25	1718.25
679.44	1767.40
679.63	1632.23
679.81	1705.96
680.00	1759.21
680.18	1753.06
680.37	1763.30
680.55	1693.67
680.74	1677.29
680.93	1630.18
681.11	1708.01
681.30	1730.53
681.48	1693.67
681.67	1669.09
681.85	1636.33
682.04	1652.71
682.23	1802.21
682.41	1824.74
682.60	1695.72
682.78	1685.48
682.97	1613.80
683.15	1689.57
683.34	1677.29
683.53	1751.01
683.71	1708.01
683.90	1847.27
684.08	1892.32
684.27	1820.64
684.45	1748.97
684.64	1746.92
684.82	1705.96
685.01	1748.97
685.19	1720.29
685.38	1781.73
685.57	1705.96
685.75	1673.19
685.94	1740.77
686.12	1675.24
686.31	1695.72
686.49	1830.88
686.68	1673.19
686.86	1761.25
687.05	1748.97
687.23	1884.13
687.42	1640.42
687.60	1671.14
687.79	1710.05
687.97	1816.55
688.16	1748.97
688.34	1814.50
688.53	1658.85
688.71	1734.63
688.90	1755.11
689.08	1783.78
689.27	1566.70
689.45	1798.12
689.64	1826.79
689.82	1822.69
690.01	1724.39
690.19	1781.73
690.38	1751.01
690.56	1812.45
690.75	1644.52
690.93	1742.82
691.12	1687.53
691.30	1665.00
691.49	1724.39
691.67	1642.47
691.86	1828.84
692.04	1652.71
692.23	1732.58
692.41	1718.25
692.60	1820.64
692.78	1703.91
692.97	1669.09
693.15	1755.11
693.34	1806.31
693.52	1732.58
693.71	1705.96
693.89	1781.73
694.08	1648.61
694.26	1708.01
694.44	1773.54
694.63	1710.05
694.81	1640.42
695.00	1771.49
695.18	1763.30
695.37	1861.60
695.55	1681.38
695.74	1650.66
695.92	1640.42
696.10	1828.84
696.29	1595.37
696.47	1699.81
696.66	1681.38
696.84	1732.58
697.03	1716.20
697.21	1898.47
697.40	2336.73
697.58	1718.25
697.76	1748.97
697.95	1683.43
698.13	1628.14
698.32	1738.73
698.50	1679.33
698.68	1830.88
698.87	1720.29
699.05	1798.12
699.24	1691.62
699.42	1634.28
699.61	1705.96
699.79	1742.82
699.97	1716.20
700.16	1693.67
700.34	1710.05
700.53	1789.92
700.71	1791.97
700.89	1794.02
701.08	1779.68
701.26	1714.15
701.45	2068.45
701.63	1687.53
701.81	1740.77
702.00	1710.05
702.18	1705.96
702.37	1656.81
702.55	1783.78
702.73	1705.96
702.92	1710.05
703.10	1824.74
703.28	1697.77
703.47	1621.99
703.65	1773.54
703.84	1773.54
704.02	1660.90
704.20	1755.11
704.39	1724.39
704.57	1677.29
704.75	1744.87
704.94	1763.30
705.12	1757.16
705.30	1841.12
705.49	2295.77
705.67	4427.71
705.86	9389.94
706.04	12355.40
706.22	14098.22
706.41	15116.06
706.59	13549.36
706.77	9316.21
706.96	7251.86
707.14	6500.25
707.32	5916.58
707.51	5502.89
707.69	4925.36
707.87	4171.71
708.06	3497.93
708.24	2922.45
708.42	2398.17
708.61	2258.91
708.79	1849.32
708.97	1855.46
709.16	1896.42
709.34	1828.84
709.52	1710.05
709.71	1712.10
709.89	1740.77
710.07	1746.92
710.26	1640.42
710.44	1656.81
710.62	1726.44
710.80	1712.10
710.99	1800.16
711.17	1769.44
711.35	1675.24
711.54	1673.19
711.72	1873.89
711.90	1800.16
712.09	1718.25
712.27	1662.95
712.45	1832.93
712.63	1619.94
712.82	1728.49
713.00	1703.91
713.18	1699.81
713.37	1773.54
713.55	1769.44
713.73	1751.01
713.91	1669.09
714.10	1701.86
714.28	1685.48
714.46	1751.01
714.65	1787.88
714.83	1656.81
715.01	1667.05
715.19	1779.68
715.38	1722.34
715.56	1738.73
715.74	1722.34
715.92	1603.56
716.11	1744.87
716.29	1605.61
716.47	1665.00
716.65	1644.52
716.84	1646.57
717.02	1714.15
717.20	1646.57
717.38	1642.47
717.57	1734.63
717.75	1738.73
717.93	1761.25
718.11	1757.16
718.30	1675.24
718.48	1701.86
718.66	1765.35
718.84	1783.78
719.03	1732.58
719.21	1665.00
719.39	1800.16
719.57	1765.35
719.75	1796.07
719.94	1583.08
720.12	1718.25
720.30	1679.33
720.48	1798.12
720.67	1667.05
720.85	1695.72
721.03	1730.53
721.21	1636.33
721.39	1822.69
721.58	1759.21
721.76	1716.20
721.94	1773.54
722.12	1675.24
722.30	1804.26
722.49	1705.96
722.67	1736.68
722.85	1746.92
723.03	1621.99
723.21	1716.20
723.40	1681.38
723.58	1753.06
723.76	1679.33
723.94	1746.92
724.12	1650.66
724.30	1775.59
724.49	1851.36
724.67	1685.48
724.85	1787.88
725.03	1677.29
725.21	1720.29
725.40	1826.79
725.58	1746.92
725.76	1740.77
725.94	1740.77
726.12	1671.14
726.30	1630.18
726.49	1712.10
726.67	1755.11
726.85	1818.60
727.03	1892.32
727.21	2217.95
727.39	2871.25
727.57	3753.93
727.76	4126.66
727.94	4513.72
728.12	4212.67
728.30	3665.86
728.48	2838.48
728.66	2721.75
728.84	2519.00
729.03	2273.25
729.21	2240.48
729.39	1996.77
729.57	1839.08
729.75	1740.77
729.93	1830.88
730.11	1783.78
730.30	1751.01
730.48	1662.95
730.66	1742.82
730.84	1839.08
731.02	1685.48
731.20	1675.24
731.38	1693.67
731.56	1611.75
731.74	1708.01
731.93	1742.82
732.11	1669.09
732.29	1669.09
732.47	1748.97
732.65	1689.57
732.83	1810.40
733.01	1701.86
733.19	1611.75
733.37	1767.40
733.56	1708.01
733.74	1646.57
733.92	1804.26
734.10	1722.34
734.28	1810.40
734.46	1697.77
734.64	1759.21
734.82	1669.09
735.00	1699.81
735.18	1697.77
735.36	1683.43
735.54	1701.86
735.73	1787.88
735.91	1718.25
736.09	1810.40
736.27	1765.35
736.45	1779.68
736.63	1677.29
736.81	1746.92
736.99	1810.40
737.17	1777.64
737.35	1650.66
737.53	1804.26
737.71	1732.58
737.89	1820.64
738.07	1640.42
738.25	1648.61
738.43	1681.38
738.61	1658.85
738.80	1665.00
738.98	1716.20
739.16	1646.57
739.34	1619.94
739.52	1734.63
739.70	1748.97
739.88	1740.77
740.06	1695.72
740.24	1603.56
740.42	1796.07
740.60	1591.27
740.78	1636.33
740.96	1624.04
741.14	1687.53
741.32	1681.38
741.50	1621.99
741.68	1818.60
741.86	1789.92
742.04	1662.95
742.22	1660.90
742.40	1652.71
742.58	1726.44
742.76	1716.20
742.94	1738.73
743.12	1679.33
743.30	1718.25
743.48	1695.72
743.66	1628.14
743.84	1763.30
744.02	1730.53
744.20	1716.20
744.38	1564.65
744.56	1656.81
744.74	1796.07
744.92	1755.11
745.10	1800.16
745.28	1742.82
745.46	1789.92
745.64	1681.38
745.82	1798.12
746.00	1763.30
746.18	1746.92
746.36	1650.66
746.54	1759.21
746.72	1720.29
746.90	1662.95
747.08	1779.68
747.26	1675.24
747.44	1736.68
747.62	1759.21
747.80	1732.58
747.98	1789.92
748.15	1705.96
748.33	1794.02
748.51	1687.53
748.69	1730.53
748.87	1681.38
749.05	1697.77
749.23	1669.09
749.41	1724.39
749.59	1746.92
749.77	1705.96
749.95	1740.77
750.13	1701.86
750.31	1771.49
750.49	1722.34
750.67	1783.78
750.85	1785.83
751.03	1755.11
751.20	1818.60
751.38	1701.86
751.56	1724.39
751.74	1705.96
751.92	1669.09
752.10	1611.75
752.28	1730.53
752.46	1603.56
752.64	1718.25
752.82	1765.35
753.00	1794.02
753.18	1613.80
753.35	1589.22
753.53	1671.14
753.71	1658.85
753.89	1771.49
754.07	1808.36
754.25	1814.50
754.43	1759.21
754.61	1712.10
754.79	1767.40
754.97	1722.34
755.14	1810.40
755.32	1669.09
755.50	1710.05
755.68	1806.31
755.86	1699.81
756.04	1673.19
756.22	1624.04
756.40	1734.63
756.57	1834.98
756.75	1675.24
756.93	1769.44
757.11	1763.30
757.29	1660.90
757.47	1710.05
757.65	1646.57
757.82	1564.65
758.00	1716.20
758.18	1714.15
758.36	1662.95
758.54	1775.59
758.72	1566.70
758.90	1765.35
759.07	1757.16
759.25	1601.51
759.43	1724.39
759.61	1636.33
759.79	2201.57
759.97	1812.45
760.15	1689.57
760.32	1681.38
760.50	1693.67
760.68	1814.50
760.86	1636.33
761.04	1726.44
761.22	1724.39
761.39	1677.29
761.57	1753.06
761.75	1642.47
761.93	1791.97
762.11	1740.77
762.28	1734.63
762.46	1687.53
762.64	1708.01
762.82	1724.39
763.00	1720.29
763.18	1669.09
763.35	1550.31
763.53	1746.92
763.71	1722.34
763.89	1761.25
764.07	1695.72
764.24	1685.48
764.42	1730.53
764.60	1660.90
764.78	1718.25
764.96	1697.77
765.13	1734.63
765.31	1714.15
765.49	1742.82
765.67	1650.66
765.84	1724.39
766.02	1699.81
766.20	1607.66
766.38	1701.86
766.56	1789.92
766.73	1773.54
766.91	1644.52
767.09	1761.25
767.27	1693.67
767.44	1687.53
767.62	1724.39
767.80	1798.12
767.98	1710.05
768.15	1763.30
768.33	1796.07
768.51	1699.81
768.69	1744.87
768.87	1828.84
769.04	1742.82
769.22	1847.27
769.40	1771.49
769.58	1837.03
769.75	1689.57
769.93	1765.35
770.11	1724.39
770.28	1636.33
770.46	1742.82
770.64	1730.53
770.82	1679.33
770.99	1656.81
771.17	1734.63
771.35	1640.42
771.53	1724.39
771.70	1667.05
771.88	1673.19
772.06	1662.95
772.23	1710.05
772.41	1689.57
772.59	1710.05
772.77	1673.19
772.94	1779.68
773.12	1789.92
773.30	1714.15
773.47	1710.05
773.65	1624.04
773.83	1763.30
774.01	1724.39
774.18	1615.85
774.36	1685.48
774.54	1591.27
774.71	1730.53
774.89	1650.66
775.07	1662.95
775.24	1667.05
775.42	1767.40
775.60	1830.88
775.78	1722.34
775.95	1681.38
776.13	1591.27
776.31	1617.90
776.48	1636.33
776.66	1781.73
776.84	1697.77
777.01	1746.92
777.19	1714.15
777.37	1630.18
777.54	1738.73
777.72	1845.22
777.90	1712.10
778.07	1667.05
778.25	1923.04
778.43	1814.50
778.60	1619.94
778.78	1816.55
778.96	1789.92
779.13	1703.91
779.31	1714.15
779.49	1660.90
779.66	1783.78
779.84	1748.97
780.01	1705.96
780.19	1656.81
780.37	1812.45
780.54	1783.78
780.72	1669.09
780.90	1654.76
781.07	1730.53
781.25	1619.94
781.43	1732.58
781.60	1640.42
781.78	1787.88
781.95	1728.49
782.13	1665.00
782.31	1714.15
782.48	1660.90
782.66	1738.73
782.83	1796.07
783.01	1619.94
783.19	1742.82
783.36	1736.68
783.54	1703.91
783.72	1775.59
783.89	1710.05
784.07	1730.53
784.24	1695.72
784.42	1740.77
784.60	1730.53
784.77	1748.97
784.95	1562.60
785.12	1667.05
785.30	1705.96
785.47	1710.05
785.65	1669.09
785.83	1701.86
786.00	1701.86
786.18	1734.63
786.35	1650.66
786.53	1654.76
786.71	1722.34
786.88	1798.12
787.06	1755.11
787.23	1804.26
787.41	1603.56
787.58	1734.63
787.76	1646.57
787.94	1718.25
788.11	1683.43
788.29	1726.44
788.46	1798.12
788.64	1665.00
788.81	1730.53
788.99	1656.81
789.16	1656.81
789.34	1734.63
789.52	1681.38
789.69	1712.10
789.87	1697.77
790.04	1640.42
790.22	1736.68
790.39	1787.88
790.57	1658.85
790.74	1722.34
790.92	1685.48
791.09	1691.62
791.27	1710.05
791.44	1845.22
791.62	1738.73
791.79	1789.92
791.97	1753.06
792.15	1947.62
792.32	1761.25
792.50	1765.35
792.67	1830.88
792.85	1771.49
793.02	1679.33
793.20	1681.38
793.37	1624.04
793.55	1746.92
793.72	1601.51
793.90	1726.44
794.07	1726.44
794.25	1607.66
794.42	1761.25
794.60	1697.77
794.77	1746.92
794.95	1722.34
795.12	1767.40
795.30	1665.00
795.47	1613.80
795.65	1888.23
795.82	1705.96
796.00	1691.62
796.17	1800.16
796.34	1613.80
796.52	1677.29
796.69	1759.21
796.87	1785.83
797.04	1730.53
797.22	1796.07
797.39	1742.82
797.57	1751.01
797.74	1722.34
797.92	1703.91
798.09	1652.71
798.27	1746.92
798.44	1773.54
798.62	1581.03
798.79	1720.29
798.96	1775.59
799.14	1730.53
799.31	1863.65
799.49	1716.20
799.66	1734.63
799.84	1685.48
800.01	1597.42
800.19	1730.53
800.36	1599.46
800.53	1699.81
800.71	1765.35
800.88	1839.08
801.06	1693.67
801.23	1636.33
801.41	1652.71
801.58	1591.27
801.75	1640.42
801.93	1712.10
802.10	1759.21
802.28	1648.61
802.45	1714.15
802.63	1808.36
802.80	1779.68
802.97	1724.39
803.15	1724.39
803.32	1693.67
803.50	1677.29
803.67	1665.00
803.84	1710.05
804.02	1738.73
804.19	1736.68
804.37	1566.70
804.54	1662.95
804.71	1705.96
804.89	1652.71
805.06	1636.33
805.24	1669.09
805.41	1673.19
805.58	1675.24
805.76	1812.45
805.93	1714.15
806.10	1769.44
806.28	1781.73
806.45	1697.77
806.63	1746.92
806.80	1779.68
806.97	1759.21
807.15	1648.61
807.32	1693.67
807.49	1720.29
807.67	1675.24
807.84	1716.20
808.01	1626.09
808.19	1796.07
808.36	1810.40
808.54	1658.85
808.71	1644.52
808.88	1705.96
809.06	1695.72
809.23	1775.59
809.40	1656.81
809.58	1732.58
809.75	1687.53
809.92	1665.00
810.10	1802.21
810.27	1656.81
810.44	1755.11
810.62	1806.31
810.79	1726.44
810.96	1673.19
811.14	1683.43
811.31	1744.87
811.48	1730.53
811.66	1720.29
811.83	1794.02
812.00	1667.05
812.18	1837.03
812.35	1820.64
812.52	1689.57
812.69	1681.38
812.87	1710.05
813.04	1642.47
813.21	1722.34
813.39	1689.57
813.56	1609.70
813.73	1755.11
813.91	1591.27
814.08	1665.00
814.25	1757.16
814.42	1607.66
814.60	1730.53
814.77	1757.16
814.94	1734.63
815.12	1701.86
815.29	1849.32
815.46	1660.90
815.63	1714.15
815.81	1646.57
815.98	1652.71
816.15	1691.62
816.33	1677.29
816.50	1755.11
816.67	1697.77
816.84	1673.19
817.02	1685.48
817.19	1677.29
817.36	1742.82
817.53	1744.87
817.71	1665.00
817.88	1746.92
818.05	1624.04
818.22	1751.01
818.40	1783.78
818.57	1636.33
818.74	1681.38
818.91	1689.57
819.09	1742.82
819.26	1710.05
819.43	1660.90
819.60	1773.54
819.78	1734.63
819.95	1820.64
820.12	1636.33
820.29	1808.36
820.47	1742.82
820.64	1687.53
820.81	1611.75
820.98	1685.48
821.15	1705.96
821.33	1779.68
821.50	1660.90
821.67	1773.54
821.84	1689.57
822.02	1789.92
822.19	1753.06
822.36	1595.37
822.53	1667.05
822.70	1599.46
822.88	1681.38
823.05	1755.11
823.22	1736.68
823.39	1736.68
823.56	1693.67
823.74	1796.07
823.91	1730.53
824.08	1744.87
824.25	1748.97
824.42	1765.35
824.60	1667.05
824.77	1748.97
824.94	1773.54
825.11	1714.15
825.28	1665.00
825.45	1656.81
825.63	1714.15
825.80	1640.42
825.97	1728.49
826.14	1722.34
826.31	1685.48
826.48	1722.34
826.66	1697.77
826.83	1765.35
827.00	1689.57
827.17	1611.75
827.34	1665.00
827.51	1683.43
827.69	1624.04
827.86	1624.04
828.03	1712.10
828.20	1681.38
828.37	1738.73
828.54	1724.39
828.71	1656.81
828.89	1851.36
829.06	1718.25
829.23	1828.84
829.40	1691.62
829.57	1642.47
829.74	1775.59
829.91	1638.38
830.09	1615.85
830.26	1705.96
830.43	1841.12
830.60	1685.48
830.77	1767.40
830.94	1740.77
831.11	1781.73
831.28	1705.96
831.46	1751.01
831.63	1718.25
831.80	1771.49
831.97	1681.38
832.14	1691.62
832.31	1806.31
832.48	1763.30
832.65	1738.73
832.82	1734.63
832.99	1783.78
833.17	1665.00
833.34	1767.40
833.51	1753.06
833.68	1656.81
833.85	1687.53
834.02	1646.57
834.19	1650.66
834.36	1675.24
834.53	1775.59
834.70	1740.77
834.87	1777.64
835.04	1781.73
835.22	1693.67
835.39	1683.43
835.56	1597.42
835.73	1658.85
835.90	1720.29
836.07	1726.44
836.24	1679.33
836.41	1626.09
836.58	1669.09
836.75	1824.74
836.92	1736.68
837.09	1691.62
837.26	1771.49
837.43	1705.96
837.60	1730.53
837.77	1656.81
837.94	1677.29
838.12	1877.99
838.29	1718.25
838.46	1673.19
838.63	1640.42
838.80	1853.41
838.97	1802.21
839.14	1685.48
839.31	1777.64
839.48	1687.53
839.65	1697.77
839.82	1689.57
839.99	1738.73
840.16	1642.47
840.33	1705.96
840.50	1681.38
840.67	1705.96
840.84	1599.46
841.01	1714.15
841.18	1636.33
841.35	1673.19
841.52	1681.38
841.69	1871.84
841.86	1753.06
842.03	1679.33
842.20	1693.67
842.37	1759.21
842.54	1716.20
842.71	1617.90
842.88	1597.42
843.05	1779.68
843.22	1765.35
843.39	1824.74
843.56	1628.14
843.73	1712.10
843.90	1683.43
844.07	1724.39
844.24	1769.44
844.41	1751.01
844.58	1742.82
844.75	1660.90
844.92	1716.20
845.09	1728.49
845.26	1638.38
845.43	1716.20
845.60	1722.34
845.77	1726.44
845.94	1716.20
846.10	1798.12
846.27	1617.90
846.44	1615.85
846.61	1644.52
846.78	1701.86
846.95	1773.54
847.12	1667.05
847.29	1685.48
847.46	1628.14
847.63	1699.81
847.80	1638.38
847.97	1679.33
848.14	1773.54
848.31	1656.81
848.48	1705.96
848.65	1658.85
848.82	1677.29
848.98	1824.74
849.15	1693.67
849.32	1744.87
849.49	1761.25
849.66	1744.87
849.83	1742.82
850.00	1695.72
850.17	1789.92
850.34	1626.09
850.51	1669.09
850.68	1654.76
850.85	1859.56
851.01	1812.45
851.18	1705.96
851.35	1697.77
851.52	1679.33
851.69	1781.73
851.86	1646.57
852.03	1730.53
852.20	1755.11
852.37	1773.54
852.53	1703.91
852.70	1773.54
852.87	1636.33
853.04	1632.23
853.21	1658.85
853.38	1710.05
853.55	1802.21
853.72	1796.07
853.89	1671.14
854.05	1708.01
854.22	1716.20
854.39	1660.90
854.56	1701.86
854.73	1853.41
854.90	1677.29
855.07	1718.25
855.23	1660.90
855.40	1669.09
855.57	1695.72
855.74	1691.62
855.91	1886.18
856.08	1652.71
856.25	1640.42
856.41	1742.82
856.58	1632.23
856.75	1789.92
856.92	1669.09
857.09	1771.49
857.26	1681.38
857.42	1665.00
857.59	1722.34
857.76	1757.16
857.93	1742.82
858.10	1701.86
858.27	1660.90
858.43	1755.11
858.60	1613.80
858.77	1591.27
858.94	1658.85
859.11	1767.40
859.27	1656.81
859.44	1662.95
859.61	1759.21
859.78	1705.96
859.95	1722.34
860.12	1636.33
860.28	1826.79
860.45	1853.41
860.62	1679.33
860.79	1652.71
860.95	1652.71
861.12	1740.77
861.29	1587.18
861.46	1648.61
861.63	1701.86
861.79	1726.44
861.96	1710.05
862.13	1675.24
862.30	1779.68
862.47	1681.38
862.63	1658.85
862.80	1781.73
862.97	1730.53
863.14	1720.29
863.30	1724.39
863.47	1640.42
863.64	1703.91
863.81	1769.44
863.97	1695.72
864.14	1728.49
864.31	1646.57
864.48	1794.02
864.65	1683.43
864.81	1734.63
864.98	1738.73
865.15	1714.15
865.32	1802.21
865.48	1816.55
865.65	1730.53
865.82	1677.29
865.98	1699.81
866.15	1800.16
866.32	1724.39
866.49	1697.77
866.65	1785.83
866.82	1685.48
866.99	1638.38
867.16	1636.33
867.32	1748.97
867.49	1660.90
867.66	1718.25
867.83	1695.72
867.99	1679.33
868.16	1722.34
868.33	1679.33
868.49	1648.61
868.66	1667.05
868.83	1722.34
868.99	1748.97
869.16	1681.38
869.33	1814.50
869.50	1744.87
869.66	1720.29
869.83	1689.57
870.00	1669.09
870.16	1800.16
870.33	1658.85
870.50	1787.88
870.66	1730.53
870.83	1806.31
871.00	1726.44
871.17	1718.25
871.33	1738.73
871.50	1548.26
871.67	1634.28
871.83	1652.71
872.00	1748.97
872.17	1687.53
872.33	1804.26
872.50	1828.84
872.67	1652.71
872.83	1685.48
873.00	1783.78
873.17	1734.63
873.33	1804.26
873.50	1691.62
873.67	1671.14
873.83	1640.42
874.00	1669.09
874.16	1714.15
874.33	1681.38
874.50	1648.61
874.66	1738.73
874.83	1697.77
875.00	1703.91
875.16	1746.92
875.33	1794.02
875.50	1683.43
875.66	1681.38
875.83	1730.53
875.99	1777.64
876.16	1705.96
876.33	1632.23
876.49	1677.29
876.66	1740.77
876.83	1665.00
876.99	1574.89
877.16	1687.53
877.32	1656.81
877.49	1705.96
877.66	1720.29
877.82	1791.97
877.99	1746.92
878.15	1767.40
878.32	1699.81
878.49	1718.25
878.65	1654.76
878.82	1740.77
878.98	1658.85
879.15	1732.58
879.32	1736.68
879.48	1742.82
879.65	1685.48
879.81	1679.33
879.98	1630.18
880.15	1660.90
880.31	1777.64
880.48	1587.18
880.64	1812.45
880.81	1712.10
880.97	1847.27
881.14	1730.53
881.31	1677.29
881.47	1910.75
881.64	1720.29
881.80	1638.38
881.97	1699.81
882.13	1732.58
882.30	1615.85
882.47	1681.38
882.63	1646.57
882.80	1650.66
882.96	1673.19
883.13	1746.92
883.29	1701.86
883.46	1691.62
883.62	1744.87
883.79	1697.77
883.95	1839.08
884.12	1732.58
884.29	1791.97
884.45	1798.12
884.62	1730.53
884.78	1605.61
884.95	1722.34
885.11	1654.76
885.28	1724.39
885.44	1751.01
885.61	1728.49
885.77	1777.64
885.94	1746.92
886.10	1705.96
886.27	1773.54
886.43	1753.06
886.60	1705.96
886.76	1671.14
886.93	1636.33
887.09	1667.05
887.26	1599.46
887.42	1796.07
887.59	1701.86
887.75	1810.40
887.92	1751.01
888.08	1742.82
888.25	1837.03
888.41	1765.35
888.58	1665.00
888.74	1613.80
888.91	1673.19
>>>>>End Processed Spectral Data<<<<<
