SpectraSuite Data File
++++++++++++++++++++++++++++++++++++
Date: Mon Jun 06 16:52:57 CEST 2016
User: root
Dark Spectrum Present: No
Reference Spectrum Present: No
Number of Sampled Component Spectra: 1
Spectrometers: USB4C02835
Integration Time (usec): 100000 (USB4C02835)
Spectra Averaged: 1 (USB4C02835)
Boxcar Smoothing: 0 (USB4C02835)
Correct for Electrical Dark: No (USB4C02835)
Strobe/Lamp Enabled: No (USB4C02835)
Correct for Detector Non-linearity: No (USB4C02835)
Correct for Stray Light: No (USB4C02835)
Number of Pixels in Processed Spectrum: 3648
>>>>>Begin Processed Spectral Data<<<<<
177.47	1468.39
177.69	1468.39
177.91	1468.39
178.13	1513.45
178.36	1390.57
178.58	1677.29
178.80	1738.73
179.02	1660.90
179.24	1662.95
179.46	1603.56
179.68	1837.03
179.90	1662.95
180.13	1765.35
180.35	1665.00
180.57	1718.25
180.79	1683.43
181.01	1730.53
181.23	1785.83
181.45	1828.84
181.67	1703.91
181.90	1740.77
182.12	1667.05
182.34	1673.19
182.56	1755.11
182.78	1716.20
183.00	1748.97
183.22	1673.19
183.44	1570.79
183.66	1892.32
183.89	1794.02
184.11	1765.35
184.33	1648.61
184.55	1755.11
184.77	1720.29
184.99	1701.86
185.21	1660.90
185.43	1812.45
185.65	1628.14
185.87	1755.11
186.10	1849.32
186.32	1834.98
186.54	1730.53
186.76	1787.88
186.98	1781.73
187.20	1697.77
187.42	1681.38
187.64	1716.20
187.86	1757.16
188.08	1740.77
188.30	1646.57
188.52	1708.01
188.75	1845.22
188.97	1806.31
189.19	1656.81
189.41	1722.34
189.63	1787.88
189.85	1675.24
190.07	1681.38
190.29	1652.71
190.51	1660.90
190.73	1554.41
190.95	1822.69
191.17	1703.91
191.39	1648.61
191.61	1667.05
191.84	1765.35
192.06	1818.60
192.28	1617.90
192.50	1896.42
192.72	1714.15
192.94	1802.21
193.16	1691.62
193.38	1665.00
193.60	1640.42
193.82	1714.15
194.04	1722.34
194.26	1726.44
194.48	1759.21
194.70	1687.53
194.92	1562.60
195.14	1738.73
195.36	1708.01
195.58	1667.05
195.80	1646.57
196.02	1669.09
196.24	1609.70
196.46	1642.47
196.69	1630.18
196.91	1853.41
197.13	1740.77
197.35	1722.34
197.57	1740.77
197.79	1726.44
198.01	1658.85
198.23	1708.01
198.45	1728.49
198.67	1624.04
198.89	1697.77
199.11	1828.84
199.33	1695.72
199.55	1576.94
199.77	1675.24
199.99	1787.88
200.21	1726.44
200.43	1708.01
200.65	1669.09
200.87	1621.99
201.09	1630.18
201.31	1699.81
201.53	1712.10
201.75	1714.15
201.97	1738.73
202.19	1626.09
202.41	1712.10
202.63	1851.36
202.85	1724.39
203.07	1695.72
203.29	1675.24
203.51	1578.98
203.73	1695.72
203.95	1882.08
204.17	1755.11
204.39	1738.73
204.61	1708.01
204.83	1734.63
205.05	1796.07
205.27	1798.12
205.49	1814.50
205.71	1640.42
205.93	1675.24
206.15	1611.75
206.37	1701.86
206.59	1720.29
206.81	1609.70
207.03	1570.79
207.25	1658.85
207.47	1763.30
207.69	1662.95
207.91	1763.30
208.13	1763.30
208.34	1646.57
208.56	1724.39
208.78	1798.12
209.00	1665.00
209.22	1669.09
209.44	1697.77
209.66	1671.14
209.88	1755.11
210.10	1712.10
210.32	1687.53
210.54	1775.59
210.76	1644.52
210.98	1722.34
211.20	1576.94
211.42	1708.01
211.64	1771.49
211.86	1791.97
212.08	1744.87
212.30	1753.06
212.52	1630.18
212.74	1617.90
212.96	1685.48
213.17	1765.35
213.39	1785.83
213.61	1820.64
213.83	1679.33
214.05	1763.30
214.27	1742.82
214.49	1533.93
214.71	1693.67
214.93	1783.78
215.15	1671.14
215.37	1753.06
215.59	1603.56
215.81	1638.38
216.03	1800.16
216.24	1705.96
216.46	1656.81
216.68	1730.53
216.90	1767.40
217.12	1720.29
217.34	1746.92
217.56	1779.68
217.78	1701.86
218.00	1697.77
218.22	1800.16
218.44	1650.66
218.66	1665.00
218.87	1808.36
219.09	1726.44
219.31	1783.78
219.53	1701.86
219.75	1644.52
219.97	1767.40
220.19	1722.34
220.41	1681.38
220.63	1791.97
220.85	1738.73
221.06	1773.54
221.28	1830.88
221.50	1716.20
221.72	1654.76
221.94	1710.05
222.16	1591.27
222.38	1761.25
222.60	1785.83
222.82	1679.33
223.03	1765.35
223.25	1658.85
223.47	1742.82
223.69	1818.60
223.91	1728.49
224.13	1662.95
224.35	1695.72
224.57	1753.06
224.78	1765.35
225.00	1658.85
225.22	1720.29
225.44	1673.19
225.66	1779.68
225.88	1785.83
226.10	1751.01
226.32	1728.49
226.53	1755.11
226.75	1675.24
226.97	1697.77
227.19	1644.52
227.41	1642.47
227.63	1660.90
227.85	1665.00
228.06	1728.49
228.28	1681.38
228.50	1806.31
228.72	1638.38
228.94	1771.49
229.16	1677.29
229.37	1671.14
229.59	1710.05
229.81	1767.40
230.03	1695.72
230.25	1691.62
230.47	1667.05
230.69	1681.38
230.90	1726.44
231.12	1660.90
231.34	1753.06
231.56	1726.44
231.78	1632.23
232.00	1708.01
232.21	1671.14
232.43	1654.76
232.65	1652.71
232.87	1724.39
233.09	1603.56
233.30	1665.00
233.52	1751.01
233.74	1708.01
233.96	1673.19
234.18	1763.30
234.40	1691.62
234.61	1820.64
234.83	1681.38
235.05	1738.73
235.27	1886.18
235.49	1775.59
235.70	1660.90
235.92	1755.11
236.14	1798.12
236.36	1925.09
236.58	1693.67
236.79	1724.39
237.01	1800.16
237.23	1667.05
237.45	1839.08
237.67	1734.63
237.88	1697.77
238.10	1837.03
238.32	1654.76
238.54	1708.01
238.76	1648.61
238.97	1665.00
239.19	1601.51
239.41	1779.68
239.63	1767.40
239.85	1703.91
240.06	1720.29
240.28	1658.85
240.50	1748.97
240.72	1615.85
240.93	1800.16
241.15	1765.35
241.37	1619.94
241.59	1722.34
241.81	1630.18
242.02	1677.29
242.24	1767.40
242.46	1785.83
242.68	1628.14
242.89	1652.71
243.11	1742.82
243.33	1738.73
243.55	1732.58
243.76	1705.96
243.98	1658.85
244.20	1673.19
244.42	1720.29
244.64	1695.72
244.85	1683.43
245.07	1701.86
245.29	1673.19
245.51	1693.67
245.72	1728.49
245.94	1787.88
246.16	1695.72
246.38	1759.21
246.59	1646.57
246.81	1710.05
247.03	1695.72
247.24	1560.55
247.46	1621.99
247.68	1708.01
247.90	1669.09
248.11	1708.01
248.33	1726.44
248.55	1757.16
248.77	1722.34
248.98	1726.44
249.20	1771.49
249.42	1732.58
249.64	1777.64
249.85	1710.05
250.07	1654.76
250.29	1789.92
250.50	1718.25
250.72	1654.76
250.94	1689.57
251.16	1863.65
251.37	1728.49
251.59	1734.63
251.81	1783.78
252.02	1804.26
252.24	1685.48
252.46	1798.12
252.68	1681.38
252.89	1740.77
253.11	1624.04
253.33	1853.41
253.54	1654.76
253.76	1665.00
253.98	1710.05
254.20	1720.29
254.41	1597.42
254.63	1679.33
254.85	1595.37
255.06	1798.12
255.28	1695.72
255.50	1779.68
255.71	1624.04
255.93	1638.38
256.15	1718.25
256.36	1705.96
256.58	1673.19
256.80	1773.54
257.02	1679.33
257.23	1648.61
257.45	1648.61
257.67	1683.43
257.88	1681.38
258.10	1800.16
258.32	1716.20
258.53	1701.86
258.75	1853.41
258.97	1718.25
259.18	1767.40
259.40	1728.49
259.62	1837.03
259.83	1748.97
260.05	1779.68
260.27	1988.58
260.48	1722.34
260.70	1624.04
260.92	1701.86
261.13	1718.25
261.35	1779.68
261.57	1701.86
261.78	1628.14
262.00	1636.33
262.22	1777.64
262.43	1722.34
262.65	1667.05
262.86	1759.21
263.08	1882.08
263.30	1689.57
263.51	1585.13
263.73	1687.53
263.95	1812.45
264.16	1648.61
264.38	1662.95
264.60	1761.25
264.81	1736.68
265.03	1812.45
265.25	1769.44
265.46	1644.52
265.68	1828.84
265.89	1753.06
266.11	1632.23
266.33	1773.54
266.54	1773.54
266.76	1769.44
266.98	1777.64
267.19	1781.73
267.41	1767.40
267.62	1677.29
267.84	1611.75
268.06	1769.44
268.27	1697.77
268.49	1800.16
268.70	1791.97
268.92	1693.67
269.14	1652.71
269.35	1681.38
269.57	1753.06
269.79	1877.99
270.00	1671.14
270.22	1822.69
270.43	1705.96
270.65	1552.36
270.87	1728.49
271.08	1732.58
271.30	1755.11
271.51	1705.96
271.73	1701.86
271.95	1734.63
272.16	1613.80
272.38	1699.81
272.59	1660.90
272.81	1753.06
273.02	1710.05
273.24	1746.92
273.46	1789.92
273.67	1693.67
273.89	1640.42
274.10	1660.90
274.32	1822.69
274.54	1755.11
274.75	1648.61
274.97	1689.57
275.18	1779.68
275.40	1732.58
275.61	1697.77
275.83	1699.81
276.05	1642.47
276.26	1695.72
276.48	1740.77
276.69	1689.57
276.91	1619.94
277.12	1691.62
277.34	1744.87
277.55	1757.16
277.77	1669.09
277.99	1658.85
278.20	1673.19
278.42	1681.38
278.63	1720.29
278.85	1626.09
279.06	1708.01
279.28	1689.57
279.49	1748.97
279.71	1746.92
279.93	1746.92
280.14	1769.44
280.36	1669.09
280.57	1775.59
280.79	1699.81
281.00	1697.77
281.22	1634.28
281.43	1814.50
281.65	1546.22
281.86	1621.99
282.08	1720.29
282.29	1738.73
282.51	1644.52
282.73	1701.86
282.94	1636.33
283.16	1705.96
283.37	1800.16
283.59	1722.34
283.80	1724.39
284.02	1716.20
284.23	1779.68
284.45	1732.58
284.66	1650.66
284.88	1648.61
285.09	1697.77
285.31	1710.05
285.52	1716.20
285.74	1576.94
285.95	1759.21
286.17	1742.82
286.38	1773.54
286.60	1673.19
286.81	1691.62
287.03	1759.21
287.24	1740.77
287.46	1738.73
287.67	1673.19
287.89	1808.36
288.10	1685.48
288.32	1730.53
288.53	1789.92
288.75	1642.47
288.96	1746.92
289.18	1658.85
289.39	1708.01
289.61	1697.77
289.82	1785.83
290.04	1783.78
290.25	1615.85
290.47	1595.37
290.68	1708.01
290.90	1894.37
291.11	1626.09
291.33	1740.77
291.54	1636.33
291.76	1765.35
291.97	1710.05
292.18	1755.11
292.40	1695.72
292.61	1669.09
292.83	1851.36
293.04	1720.29
293.26	1742.82
293.47	1705.96
293.69	1605.61
293.90	1724.39
294.12	1738.73
294.33	1624.04
294.55	1654.76
294.76	1728.49
294.97	1789.92
295.19	1789.92
295.40	1714.15
295.62	1728.49
295.83	1787.88
296.05	1728.49
296.26	1740.77
296.48	1665.00
296.69	1697.77
296.90	1755.11
297.12	1710.05
297.33	1775.59
297.55	1685.48
297.76	1693.67
297.98	1679.33
298.19	1734.63
298.41	1695.72
298.62	1609.70
298.83	1730.53
299.05	1724.39
299.26	1669.09
299.48	1671.14
299.69	1671.14
299.90	1718.25
300.12	1683.43
300.33	1683.43
300.55	1701.86
300.76	1630.18
300.98	1724.39
301.19	1746.92
301.40	1722.34
301.62	1689.57
301.83	1781.73
302.05	1742.82
302.26	1714.15
302.47	1751.01
302.69	1626.09
302.90	1640.42
303.12	1581.03
303.33	1771.49
303.54	1753.06
303.76	1740.77
303.97	1736.68
304.19	1687.53
304.40	1617.90
304.61	1740.77
304.83	1857.51
305.04	1763.30
305.26	1710.05
305.47	1742.82
305.68	1736.68
305.90	1634.28
306.11	1820.64
306.33	1691.62
306.54	1615.85
306.75	1652.71
306.97	1730.53
307.18	1708.01
307.39	1689.57
307.61	1724.39
307.82	1654.76
308.04	1742.82
308.25	1726.44
308.46	1794.02
308.68	1656.81
308.89	1679.33
309.10	1814.50
309.32	1691.62
309.53	1716.20
309.74	1744.87
309.96	1740.77
310.17	1777.64
310.39	1714.15
310.60	1791.97
310.81	1621.99
311.03	1652.71
311.24	1738.73
311.45	1708.01
311.67	1738.73
311.88	1724.39
312.09	1705.96
312.31	1724.39
312.52	1746.92
312.73	1691.62
312.95	1609.70
313.16	1652.71
313.37	1796.07
313.59	1720.29
313.80	1814.50
314.01	1806.31
314.23	1650.66
314.44	1628.14
314.65	1650.66
314.87	1744.87
315.08	1621.99
315.29	1695.72
315.51	1667.05
315.72	1648.61
315.93	1830.88
316.15	1734.63
316.36	1746.92
316.57	1751.01
316.79	1804.26
317.00	1662.95
317.21	1720.29
317.43	1689.57
317.64	1710.05
317.85	1689.57
318.07	1671.14
318.28	1736.68
318.49	1783.78
318.70	1925.09
318.92	1873.89
319.13	1789.92
319.34	1845.22
319.56	1806.31
319.77	1814.50
319.98	1726.44
320.20	1765.35
320.41	1714.15
320.62	1755.11
320.83	1603.56
321.05	1853.41
321.26	1730.53
321.47	1701.86
321.69	1714.15
321.90	1607.66
322.11	1728.49
322.32	1714.15
322.54	1732.58
322.75	1695.72
322.96	1832.93
323.18	1720.29
323.39	1564.65
323.60	1650.66
323.81	1755.11
324.03	1697.77
324.24	1697.77
324.45	1771.49
324.66	1662.95
324.88	1796.07
325.09	1763.30
325.30	1621.99
325.52	1744.87
325.73	1783.78
325.94	1736.68
326.15	1638.38
326.37	1607.66
326.58	1716.20
326.79	1781.73
327.00	1624.04
327.22	1861.60
327.43	1654.76
327.64	1675.24
327.85	1746.92
328.07	1734.63
328.28	1816.55
328.49	1658.85
328.70	1712.10
328.92	1675.24
329.13	1720.29
329.34	1699.81
329.55	1800.16
329.76	1787.88
329.98	1648.61
330.19	1812.45
330.40	1720.29
330.61	1751.01
330.83	1759.21
331.04	1732.58
331.25	1632.23
331.46	1744.87
331.68	1578.98
331.89	1734.63
332.10	1658.85
332.31	1605.61
332.52	1738.73
332.74	1724.39
332.95	1650.66
333.16	1732.58
333.37	1791.97
333.58	1632.23
333.80	1751.01
334.01	1626.09
334.22	1726.44
334.43	1703.91
334.64	1759.21
334.86	1675.24
335.07	1683.43
335.28	1714.15
335.49	1605.61
335.70	1740.77
335.92	1753.06
336.13	1806.31
336.34	1775.59
336.55	1687.53
336.76	1689.57
336.98	1607.66
337.19	1644.52
337.40	1855.46
337.61	1775.59
337.82	1699.81
338.04	1791.97
338.25	1669.09
338.46	1669.09
338.67	1677.29
338.88	1644.52
339.09	1683.43
339.31	1660.90
339.52	1640.42
339.73	1734.63
339.94	1681.38
340.15	1691.62
340.36	1599.46
340.58	1714.15
340.79	1660.90
341.00	1726.44
341.21	1654.76
341.42	1814.50
341.63	1679.33
341.85	1724.39
342.06	1656.81
342.27	1679.33
342.48	1761.25
342.69	1628.14
342.90	1734.63
343.12	1708.01
343.33	1665.00
343.54	1759.21
343.75	1783.78
343.96	1607.66
344.17	1705.96
344.38	1708.01
344.60	1673.19
344.81	1662.95
345.02	1650.66
345.23	1781.73
345.44	1771.49
345.65	1800.16
345.86	1665.00
346.07	1660.90
346.29	1720.29
346.50	1738.73
346.71	1773.54
346.92	1742.82
347.13	1839.08
347.34	1681.38
347.55	1679.33
347.76	1722.34
347.98	1673.19
348.19	1665.00
348.40	1751.01
348.61	1665.00
348.82	1765.35
349.03	1837.03
349.24	1734.63
349.45	1855.46
349.66	1615.85
349.88	1681.38
350.09	1720.29
350.30	1724.39
350.51	1771.49
350.72	1736.68
350.93	1734.63
351.14	1714.15
351.35	1728.49
351.56	1728.49
351.77	1662.95
351.99	1757.16
352.20	1757.16
352.41	1759.21
352.62	1624.04
352.83	1757.16
353.04	1718.25
353.25	1777.64
353.46	1785.83
353.67	1714.15
353.88	1607.66
354.09	1744.87
354.30	1681.38
354.52	1691.62
354.73	1705.96
354.94	1705.96
355.15	1720.29
355.36	1773.54
355.57	1769.44
355.78	1691.62
355.99	1587.18
356.20	1669.09
356.41	1804.26
356.62	1753.06
356.83	1708.01
357.04	1769.44
357.25	1636.33
357.46	1710.05
357.68	1607.66
357.89	1671.14
358.10	1695.72
358.31	1701.86
358.52	1705.96
358.73	1654.76
358.94	1624.04
359.15	1689.57
359.36	1722.34
359.57	1689.57
359.78	1763.30
359.99	1779.68
360.20	1644.52
360.41	1669.09
360.62	1710.05
360.83	1726.44
361.04	1665.00
361.25	1683.43
361.46	1732.58
361.67	1740.77
361.88	1765.35
362.09	1734.63
362.30	1824.74
362.51	1697.77
362.72	1734.63
362.93	1726.44
363.14	1789.92
363.35	1708.01
363.56	1593.32
363.78	1779.68
363.99	1726.44
364.20	1679.33
364.41	1718.25
364.62	1857.51
364.83	1708.01
365.04	1708.01
365.25	1675.24
365.46	1851.36
365.67	1693.67
365.88	1675.24
366.09	1712.10
366.30	1599.46
366.51	1656.81
366.72	1546.22
366.93	1660.90
367.14	1800.16
367.35	1734.63
367.56	1697.77
367.77	1791.97
367.98	1689.57
368.18	1689.57
368.39	1738.73
368.60	1646.57
368.81	1660.90
369.02	1724.39
369.23	1667.05
369.44	1630.18
369.65	1665.00
369.86	1697.77
370.07	1818.60
370.28	1689.57
370.49	1755.11
370.70	1755.11
370.91	1656.81
371.12	1615.85
371.33	1726.44
371.54	1652.71
371.75	1759.21
371.96	1566.70
372.17	1673.19
372.38	1705.96
372.59	1689.57
372.80	1722.34
373.01	1669.09
373.22	1789.92
373.43	1712.10
373.64	1626.09
373.85	1742.82
374.06	1734.63
374.26	1730.53
374.47	1656.81
374.68	1798.12
374.89	1701.86
375.10	1783.78
375.31	1765.35
375.52	1718.25
375.73	1714.15
375.94	1699.81
376.15	1794.02
376.36	1691.62
376.57	1685.48
376.78	1681.38
376.99	1718.25
377.20	1794.02
377.40	1689.57
377.61	1791.97
377.82	1665.00
378.03	1726.44
378.24	1763.30
378.45	1746.92
378.66	1763.30
378.87	1593.32
379.08	1624.04
379.29	1732.58
379.50	1755.11
379.71	1613.80
379.91	1748.97
380.12	1732.58
380.33	1662.95
380.54	1646.57
380.75	1669.09
380.96	1685.48
381.17	1708.01
381.38	1730.53
381.59	1728.49
381.80	1703.91
382.00	1906.66
382.21	1771.49
382.42	1789.92
382.63	1976.29
382.84	1804.26
383.05	1732.58
383.26	1832.93
383.47	1728.49
383.68	1718.25
383.88	1722.34
384.09	1722.34
384.30	1845.22
384.51	1740.77
384.72	1701.86
384.93	1732.58
385.14	1746.92
385.35	1767.40
385.55	1662.95
385.76	1765.35
385.97	1642.47
386.18	1587.18
386.39	1605.61
386.60	1640.42
386.81	1695.72
387.02	1599.46
387.22	1767.40
387.43	1826.79
387.64	1832.93
387.85	1828.84
388.06	2285.53
388.27	4253.63
388.48	6852.50
388.68	8298.37
388.89	9508.72
389.10	9709.42
389.31	8501.12
389.52	7565.20
389.73	6492.06
389.93	6213.54
390.14	5672.87
390.35	5175.22
390.56	4566.97
390.77	3735.50
390.98	3041.23
391.18	2480.09
391.39	2140.13
391.60	1873.89
391.81	1791.97
392.02	1748.97
392.23	1886.18
392.43	1761.25
392.64	1771.49
392.85	1683.43
393.06	1898.47
393.27	1724.39
393.47	1636.33
393.68	1777.64
393.89	1738.73
394.10	1718.25
394.31	1720.29
394.52	1683.43
394.72	1730.53
394.93	1820.64
395.14	1675.24
395.35	1742.82
395.56	1640.42
395.76	1710.05
395.97	1763.30
396.18	1783.78
396.39	1816.55
396.60	2019.30
396.80	1918.95
397.01	1861.60
397.22	1800.16
397.43	1839.08
397.64	1814.50
397.84	1884.13
398.05	1916.90
398.26	1783.78
398.47	1738.73
398.67	1798.12
398.88	1683.43
399.09	1773.54
399.30	1701.86
399.51	1804.26
399.71	1646.57
399.92	1654.76
400.13	1796.07
400.34	1726.44
400.54	1705.96
400.75	1757.16
400.96	1732.58
401.17	1804.26
401.37	1703.91
401.58	1701.86
401.79	1726.44
402.00	1773.54
402.21	1978.34
402.41	1947.62
402.62	1933.28
402.83	1959.91
403.04	1996.77
403.24	2131.94
403.45	1839.08
403.66	1908.71
403.87	1892.32
404.07	1923.04
404.28	1851.36
404.49	1759.21
404.70	1781.73
404.90	1787.88
405.11	1677.29
405.32	1800.16
405.52	1695.72
405.73	1697.77
405.94	1705.96
406.15	1742.82
406.35	1839.08
406.56	1748.97
406.77	1701.86
406.98	1697.77
407.18	1650.66
407.39	1697.77
407.60	1654.76
407.80	1722.34
408.01	1728.49
408.22	1720.29
408.43	1681.38
408.63	1781.73
408.84	1687.53
409.05	1746.92
409.25	1714.15
409.46	1753.06
409.67	1689.57
409.88	1691.62
410.08	1667.05
410.29	1673.19
410.50	1779.68
410.70	1681.38
410.91	1667.05
411.12	1765.35
411.32	1751.01
411.53	1757.16
411.74	1785.83
411.95	1759.21
412.15	1853.41
412.36	1804.26
412.57	1781.73
412.77	1824.74
412.98	1624.04
413.19	1683.43
413.39	1828.84
413.60	1720.29
413.81	1775.59
414.01	1642.47
414.22	1789.92
414.43	1759.21
414.63	1640.42
414.84	1787.88
415.05	1726.44
415.25	1687.53
415.46	1748.97
415.67	1701.86
415.87	1765.35
416.08	1785.83
416.29	1687.53
416.49	1701.86
416.70	1728.49
416.91	1742.82
417.11	1724.39
417.32	1691.62
417.53	1712.10
417.73	1773.54
417.94	1662.95
418.15	1751.01
418.35	1740.77
418.56	1685.48
418.77	1894.37
418.97	1697.77
419.18	1665.00
419.38	1585.13
419.59	1718.25
419.80	1886.18
420.00	1675.24
420.21	1722.34
420.42	1730.53
420.62	1710.05
420.83	1697.77
421.04	1744.87
421.24	1662.95
421.45	1740.77
421.65	1755.11
421.86	1691.62
422.07	1665.00
422.27	1722.34
422.48	1691.62
422.69	1634.28
422.89	1648.61
423.10	1757.16
423.30	1638.38
423.51	1665.00
423.72	1736.68
423.92	1806.31
424.13	1593.32
424.33	1693.67
424.54	1759.21
424.75	1775.59
424.95	1785.83
425.16	1751.01
425.36	1710.05
425.57	1839.08
425.78	1740.77
425.98	1787.88
426.19	1673.19
426.39	1660.90
426.60	1705.96
426.81	1839.08
427.01	1757.16
427.22	1673.19
427.42	1578.98
427.63	1705.96
427.83	1759.21
428.04	1818.60
428.25	1812.45
428.45	1744.87
428.66	1775.59
428.86	1708.01
429.07	1679.33
429.28	1771.49
429.48	1705.96
429.69	1675.24
429.89	1751.01
430.10	1642.47
430.30	1718.25
430.51	1787.88
430.71	1652.71
430.92	1675.24
431.13	1650.66
431.33	1746.92
431.54	1738.73
431.74	1773.54
431.95	1830.88
432.15	1597.42
432.36	1730.53
432.56	1777.64
432.77	1845.22
432.98	1804.26
433.18	1751.01
433.39	1740.77
433.59	1656.81
433.80	1771.49
434.00	1871.84
434.21	1765.35
434.41	1738.73
434.62	1861.60
434.82	1658.85
435.03	1642.47
435.23	1710.05
435.44	1634.28
435.64	1671.14
435.85	1718.25
436.06	1802.21
436.26	1761.25
436.47	1705.96
436.67	1726.44
436.88	1689.57
437.08	1744.87
437.29	1841.12
437.49	1712.10
437.70	1787.88
437.90	1708.01
438.11	1814.50
438.31	1738.73
438.52	1771.49
438.72	1785.83
438.93	1953.76
439.13	1744.87
439.34	1843.17
439.54	1748.97
439.75	1824.74
439.95	1859.56
440.16	1761.25
440.36	1740.77
440.57	1746.92
440.77	1740.77
440.98	1683.43
441.18	1757.16
441.39	1677.29
441.59	1691.62
441.80	1839.08
442.00	1744.87
442.21	1828.84
442.41	1738.73
442.62	1843.17
442.82	1683.43
443.02	1630.18
443.23	1753.06
443.43	1746.92
443.64	1759.21
443.84	1665.00
444.05	1775.59
444.25	1802.21
444.46	1732.58
444.66	1753.06
444.87	1826.79
445.07	1644.52
445.28	1708.01
445.48	1767.40
445.69	1800.16
445.89	1884.13
446.09	1767.40
446.30	2074.59
446.50	2633.69
446.71	3647.43
446.91	4210.62
447.12	4843.45
447.32	4769.72
447.53	4349.89
447.73	3882.95
447.93	3483.59
448.14	3229.65
448.34	3194.83
448.55	2893.78
448.75	2850.77
448.96	2643.93
449.16	2475.99
449.36	2273.25
449.57	2045.92
449.77	1894.37
449.98	1841.12
450.18	1796.07
450.39	1861.60
450.59	1818.60
450.79	1796.07
451.00	1689.57
451.20	1732.58
451.41	1708.01
451.61	1744.87
451.81	1687.53
452.02	1744.87
452.22	1738.73
452.43	1738.73
452.63	1667.05
452.84	1660.90
453.04	1718.25
453.24	1779.68
453.45	1738.73
453.65	1681.38
453.86	1763.30
454.06	1777.64
454.26	1808.36
454.47	1677.29
454.67	1753.06
454.87	1722.34
455.08	1665.00
455.28	1875.94
455.49	1773.54
455.69	1673.19
455.89	1894.37
456.10	1816.55
456.30	1718.25
456.51	1806.31
456.71	1744.87
456.91	1839.08
457.12	1744.87
457.32	1705.96
457.52	1660.90
457.73	1763.30
457.93	1783.78
458.14	1796.07
458.34	1660.90
458.54	1677.29
458.75	1748.97
458.95	1783.78
459.15	1779.68
459.36	1781.73
459.56	1757.16
459.76	1849.32
459.97	1679.33
460.17	1660.90
460.37	1847.27
460.58	1755.11
460.78	1667.05
460.99	1662.95
461.19	1699.81
461.39	1742.82
461.60	1681.38
461.80	1724.39
462.00	1630.18
462.21	1753.06
462.41	1703.91
462.61	1720.29
462.82	1705.96
463.02	1822.69
463.22	1732.58
463.43	1771.49
463.63	1812.45
463.83	1734.63
464.04	1759.21
464.24	1691.62
464.44	1744.87
464.64	1726.44
464.85	1812.45
465.05	1783.78
465.25	1730.53
465.46	1730.53
465.66	1814.50
465.86	1837.03
466.07	1708.01
466.27	1738.73
466.47	1667.05
466.68	1581.03
466.88	1843.17
467.08	1748.97
467.29	1751.01
467.49	1802.21
467.69	1730.53
467.89	1652.71
468.10	1726.44
468.30	1783.78
468.50	1820.64
468.71	1699.81
468.91	1630.18
469.11	1839.08
469.31	1779.68
469.52	1652.71
469.72	1812.45
469.92	1904.61
470.13	1695.72
470.33	1796.07
470.53	1837.03
470.73	2074.59
470.94	2338.78
471.14	2324.44
471.34	2484.19
471.54	2480.09
471.75	2228.19
471.95	2115.55
472.15	2062.30
472.36	2152.42
472.56	2105.31
472.76	2027.49
472.96	1984.48
473.17	1923.04
473.37	1890.28
473.57	1802.21
473.77	1877.99
473.98	1757.16
474.18	1652.71
474.38	1888.23
474.58	1665.00
474.79	1730.53
474.99	1832.93
475.19	1814.50
475.39	1697.77
475.60	1753.06
475.80	1783.78
476.00	1738.73
476.20	1753.06
476.41	1736.68
476.61	1869.80
476.81	1824.74
477.01	1716.20
477.21	1843.17
477.42	1867.75
477.62	1679.33
477.82	1785.83
478.02	1746.92
478.23	1677.29
478.43	1722.34
478.63	1775.59
478.83	1746.92
479.03	1667.05
479.24	1892.32
479.44	1843.17
479.64	1693.67
479.84	1624.04
480.04	1660.90
480.25	1742.82
480.45	1675.24
480.65	1685.48
480.85	1755.11
481.06	1714.15
481.26	1812.45
481.46	1751.01
481.66	1720.29
481.86	1724.39
482.06	1863.65
482.27	1734.63
482.47	1814.50
482.67	1716.20
482.87	1646.57
483.07	1669.09
483.28	1662.95
483.48	1681.38
483.68	1771.49
483.88	1708.01
484.08	1621.99
484.29	1697.77
484.49	1685.48
484.69	1695.72
484.89	1791.97
485.09	1769.44
485.29	1763.30
485.50	1773.54
485.70	1789.92
485.90	1849.32
486.10	1689.57
486.30	1761.25
486.50	1734.63
486.71	1767.40
486.91	1691.62
487.11	1738.73
487.31	1658.85
487.51	1767.40
487.71	1636.33
487.91	1632.23
488.12	1646.57
488.32	1589.22
488.52	1630.18
488.72	1601.51
488.92	1697.77
489.12	1767.40
489.32	1748.97
489.53	1820.64
489.73	1695.72
489.93	1877.99
490.13	1681.38
490.33	1665.00
490.53	1759.21
490.73	1804.26
490.94	1585.13
491.14	1748.97
491.34	1886.18
491.54	2146.27
491.74	2566.10
491.94	2961.36
492.14	2985.94
492.34	3065.81
492.54	2801.62
492.75	2541.53
492.95	2422.75
493.15	2342.88
493.35	2232.29
493.55	2263.01
493.75	2181.09
493.95	2097.12
494.15	1970.15
494.35	1908.71
494.56	1892.32
494.76	1767.40
494.96	1832.93
495.16	1845.22
495.36	1755.11
495.56	1708.01
495.76	1705.96
495.96	1728.49
496.16	1703.91
496.36	1681.38
496.56	1697.77
496.77	1763.30
496.97	1632.23
497.17	1771.49
497.37	1687.53
497.57	1687.53
497.77	1806.31
497.97	1685.48
498.17	1710.05
498.37	1755.11
498.57	1771.49
498.77	1726.44
498.97	1826.79
499.17	1904.61
499.38	1712.10
499.58	1849.32
499.78	1808.36
499.98	1787.88
500.18	1689.57
500.38	1734.63
500.58	1906.66
500.78	2549.72
500.98	4595.64
501.18	5941.16
501.38	6629.27
501.58	7112.60
501.78	6727.58
501.98	5564.33
502.18	4880.31
502.38	4419.52
502.58	4134.85
502.78	3829.70
502.98	3577.80
503.18	3381.20
503.38	3139.54
503.59	2785.24
503.79	2723.80
503.99	2598.87
504.19	2340.83
504.39	2220.00
504.59	2084.83
504.79	2160.61
504.99	2097.12
505.19	1953.76
505.39	1929.19
505.59	2009.06
505.79	1906.66
505.99	1855.46
506.19	1755.11
506.39	1841.12
506.59	1785.83
506.79	1757.16
506.99	1857.51
507.19	1785.83
507.39	1767.40
507.59	1624.04
507.79	1691.62
507.99	1712.10
508.19	1779.68
508.39	1648.61
508.59	1734.63
508.79	1853.41
508.99	1869.80
509.19	1695.72
509.39	1771.49
509.59	1705.96
509.79	1708.01
509.99	1736.68
510.19	1861.60
510.39	1794.02
510.59	1767.40
510.79	1798.12
510.99	1654.76
511.19	1761.25
511.39	1779.68
511.59	1855.46
511.79	1781.73
511.99	1732.58
512.19	1781.73
512.38	1734.63
512.58	1644.52
512.78	1765.35
512.98	1771.49
513.18	1818.60
513.38	1613.80
513.58	1769.44
513.78	1787.88
513.98	1746.92
514.18	1712.10
514.38	1740.77
514.58	1751.01
514.78	1732.58
514.98	1701.86
515.18	1808.36
515.38	1636.33
515.58	1802.21
515.78	1722.34
515.98	1714.15
516.18	1697.77
516.38	1724.39
516.57	1662.95
516.77	1763.30
516.97	1669.09
517.17	1632.23
517.37	1591.27
517.57	1781.73
517.77	1728.49
517.97	1681.38
518.17	1794.02
518.37	1611.75
518.57	1697.77
518.77	1695.72
518.97	1705.96
519.16	1779.68
519.36	1761.25
519.56	1763.30
519.76	1740.77
519.96	1746.92
520.16	1806.31
520.36	1718.25
520.56	1746.92
520.76	1689.57
520.96	1736.68
521.16	1765.35
521.35	1839.08
521.55	1787.88
521.75	1732.58
521.95	1724.39
522.15	1691.62
522.35	1628.14
522.55	1675.24
522.75	1832.93
522.95	1675.24
523.14	1681.38
523.34	1726.44
523.54	1730.53
523.74	1718.25
523.94	1742.82
524.14	1644.52
524.34	1724.39
524.54	1832.93
524.73	1746.92
524.93	1796.07
525.13	1667.05
525.33	1685.48
525.53	1939.43
525.73	1787.88
525.93	1763.30
526.13	1757.16
526.32	1742.82
526.52	1806.31
526.72	1845.22
526.92	1705.96
527.12	1771.49
527.32	1644.52
527.52	1812.45
527.71	1748.97
527.91	1759.21
528.11	1759.21
528.31	1746.92
528.51	1724.39
528.71	1746.92
528.90	1783.78
529.10	1753.06
529.30	1765.35
529.50	1710.05
529.70	1767.40
529.90	1761.25
530.09	1787.88
530.29	1748.97
530.49	1662.95
530.69	1927.14
530.89	1761.25
531.09	1769.44
531.28	1646.57
531.48	1765.35
531.68	1816.55
531.88	1808.36
532.08	1763.30
532.28	1757.16
532.47	1769.44
532.67	1736.68
532.87	1779.68
533.07	1742.82
533.27	1730.53
533.46	1822.69
533.66	1779.68
533.86	1710.05
534.06	1757.16
534.26	1765.35
534.45	1699.81
534.65	1861.60
534.85	1771.49
535.05	1677.29
535.25	1855.46
535.44	1603.56
535.64	1785.83
535.84	1703.91
536.04	1728.49
536.24	1673.19
536.43	1685.48
536.63	1765.35
536.83	1714.15
537.03	1720.29
537.22	1705.96
537.42	1660.90
537.62	1689.57
537.82	1816.55
538.02	1808.36
538.21	1822.69
538.41	1937.38
538.61	1781.73
538.81	1771.49
539.00	1841.12
539.20	1611.75
539.40	1765.35
539.60	1777.64
539.79	1771.49
539.99	1761.25
540.19	1703.91
540.39	1755.11
540.58	1783.78
540.78	1785.83
540.98	1761.25
541.18	1847.27
541.37	1773.54
541.57	1759.21
541.77	1832.93
541.97	1705.96
542.16	1599.46
542.36	1767.40
542.56	1679.33
542.76	1869.80
542.95	1708.01
543.15	1728.49
543.35	1810.40
543.54	1708.01
543.74	1746.92
543.94	1783.78
544.14	1746.92
544.33	1785.83
544.53	1716.20
544.73	1748.97
544.93	1732.58
545.12	1765.35
545.32	1738.73
545.52	1812.45
545.71	1685.48
545.91	1769.44
546.11	1730.53
546.30	1644.52
546.50	1779.68
546.70	1763.30
546.90	1746.92
547.09	1675.24
547.29	1724.39
547.49	1705.96
547.68	1742.82
547.88	1665.00
548.08	1761.25
548.27	2066.40
548.47	1738.73
548.67	1724.39
548.87	1779.68
549.06	1693.67
549.26	1746.92
549.46	1736.68
549.65	1740.77
549.85	1751.01
550.05	1800.16
550.24	1722.34
550.44	1755.11
550.64	1732.58
550.83	1738.73
551.03	1904.61
551.23	1736.68
551.42	1779.68
551.62	1705.96
551.82	1744.87
552.01	1734.63
552.21	1867.75
552.41	1802.21
552.60	1812.45
552.80	1746.92
553.00	1669.09
553.19	1714.15
553.39	1808.36
553.59	1767.40
553.78	1736.68
553.98	1734.63
554.17	1650.66
554.37	1701.86
554.57	1767.40
554.76	1671.14
554.96	1671.14
555.16	1730.53
555.35	1761.25
555.55	1783.78
555.75	1771.49
555.94	1730.53
556.14	1720.29
556.33	1798.12
556.53	1691.62
556.73	1742.82
556.92	1796.07
557.12	1810.40
557.32	1837.03
557.51	1773.54
557.71	1777.64
557.90	1834.98
558.10	1824.74
558.30	1660.90
558.49	1757.16
558.69	1724.39
558.88	1830.88
559.08	1761.25
559.28	1628.14
559.47	1783.78
559.67	1759.21
559.86	1892.32
560.06	1785.83
560.26	1798.12
560.45	1738.73
560.65	1718.25
560.84	1865.70
561.04	1751.01
561.24	1755.11
561.43	1703.91
561.63	1810.40
561.82	1769.44
562.02	1820.64
562.22	1650.66
562.41	1740.77
562.61	1806.31
562.80	1714.15
563.00	1810.40
563.19	1751.01
563.39	1783.78
563.59	1724.39
563.78	1730.53
563.98	1703.91
564.17	1718.25
564.37	1652.71
564.56	1808.36
564.76	1703.91
564.96	1871.84
565.15	1757.16
565.35	1955.81
565.54	1701.86
565.74	1837.03
565.93	1865.70
566.13	1804.26
566.32	1781.73
566.52	1824.74
566.71	1716.20
566.91	1796.07
567.11	1685.48
567.30	1767.40
567.50	1834.98
567.69	1804.26
567.89	1763.30
568.08	1712.10
568.28	1660.90
568.47	1677.29
568.67	1730.53
568.86	1689.57
569.06	1746.92
569.25	1615.85
569.45	1755.11
569.64	1730.53
569.84	1818.60
570.04	1767.40
570.23	1710.05
570.43	1765.35
570.62	1736.68
570.82	1845.22
571.01	1671.14
571.21	1669.09
571.40	1669.09
571.60	1798.12
571.79	1824.74
571.99	1712.10
572.18	1603.56
572.38	1757.16
572.57	1658.85
572.77	1779.68
572.96	1918.95
573.16	1769.44
573.35	1832.93
573.55	1791.97
573.74	1783.78
573.94	1785.83
574.13	1734.63
574.33	1800.16
574.52	1748.97
574.71	1781.73
574.91	1880.04
575.10	1691.62
575.30	1732.58
575.49	1599.46
575.69	1714.15
575.88	1781.73
576.08	1804.26
576.27	1787.88
576.47	1767.40
576.66	1849.32
576.86	1816.55
577.05	1734.63
577.25	1697.77
577.44	1869.80
577.64	1714.15
577.83	1804.26
578.02	1785.83
578.22	1828.84
578.41	1785.83
578.61	1724.39
578.80	1716.20
579.00	1773.54
579.19	1800.16
579.39	1732.58
579.58	1769.44
579.77	1767.40
579.97	1873.89
580.16	1830.88
580.36	1869.80
580.55	1849.32
580.75	1849.32
580.94	1726.44
581.13	1966.05
581.33	1853.41
581.52	1765.35
581.72	1806.31
581.91	1845.22
582.11	1748.97
582.30	1777.64
582.49	1834.98
582.69	1873.89
582.88	1845.22
583.08	1769.44
583.27	1804.26
583.47	1775.59
583.66	1757.16
583.85	1644.52
584.05	1732.58
584.24	1832.93
584.44	1781.73
584.63	1787.88
584.82	1832.93
585.02	1757.16
585.21	1837.03
585.41	1851.36
585.60	1798.12
585.79	1896.42
585.99	1935.33
586.18	1933.28
586.37	2197.47
586.57	3405.77
586.76	9891.69
586.96	24184.46
587.15	34149.88
587.34	40256.92
587.54	42024.32
587.73	36548.05
587.93	26320.49
588.12	21468.86
588.31	18425.57
588.51	16150.28
588.70	14913.31
588.89	14153.51
589.09	12609.34
589.28	11054.94
589.47	9269.11
589.67	7931.78
589.86	6324.13
590.06	5017.52
590.25	3944.39
590.44	3108.82
590.64	2584.54
590.83	2275.29
591.02	2097.12
591.22	1955.81
591.41	1900.52
591.60	1796.07
591.80	1906.66
591.99	1734.63
592.18	1724.39
592.38	1865.70
592.57	1695.72
592.76	1806.31
592.96	1802.21
593.15	1798.12
593.34	1830.88
593.54	1710.05
593.73	1789.92
593.92	1753.06
594.12	1691.62
594.31	1767.40
594.50	1816.55
594.70	1783.78
594.89	1818.60
595.08	1701.86
595.28	1800.16
595.47	1947.62
595.66	1814.50
595.86	1728.49
596.05	1755.11
596.24	1716.20
596.43	1837.03
596.63	1796.07
596.82	1755.11
597.01	1744.87
597.21	1851.36
597.40	1771.49
597.59	1742.82
597.79	1671.14
597.98	1771.49
598.17	1767.40
598.36	1681.38
598.56	1812.45
598.75	1626.09
598.94	1783.78
599.14	1699.81
599.33	1810.40
599.52	1820.64
599.71	1789.92
599.91	1845.22
600.10	1744.87
600.29	1796.07
600.48	1761.25
600.68	1779.68
600.87	1785.83
601.06	1640.42
601.26	1726.44
601.45	1787.88
601.64	1724.39
601.83	1816.55
602.03	1683.43
602.22	1673.19
602.41	1814.50
602.60	1816.55
602.80	1806.31
602.99	1785.83
603.18	1738.73
603.37	1791.97
603.57	1738.73
603.76	1796.07
603.95	1796.07
604.14	1667.05
604.34	1796.07
604.53	1757.16
604.72	1824.74
604.91	1798.12
605.10	1886.18
605.30	1718.25
605.49	1841.12
605.68	1779.68
605.87	1761.25
606.07	1669.09
606.26	1722.34
606.45	1742.82
606.64	1732.58
606.84	1689.57
607.03	1701.86
607.22	1773.54
607.41	1722.34
607.60	1675.24
607.80	1722.34
607.99	1732.58
608.18	1800.16
608.37	1748.97
608.56	1646.57
608.76	1806.31
608.95	1830.88
609.14	1691.62
609.33	1753.06
609.52	1675.24
609.72	1761.25
609.91	1802.21
610.10	1734.63
610.29	1730.53
610.48	1695.72
610.68	1720.29
610.87	1642.47
611.06	1794.02
611.25	1757.16
611.44	1843.17
611.63	1730.53
611.83	1781.73
612.02	1734.63
612.21	1789.92
612.40	1613.80
612.59	1703.91
612.79	1693.67
612.98	1748.97
613.17	1832.93
613.36	1810.40
613.55	1929.19
613.74	1722.34
613.93	1681.38
614.13	1738.73
614.32	1724.39
614.51	1763.30
614.70	1667.05
614.89	1722.34
615.08	1679.33
615.28	2060.26
615.47	1720.29
615.66	1734.63
615.85	1701.86
616.04	1798.12
616.23	1654.76
616.42	1697.77
616.62	1726.44
616.81	1724.39
617.00	1722.34
617.19	1748.97
617.38	1648.61
617.57	1689.57
617.76	1730.53
617.95	1798.12
618.15	1822.69
618.34	1746.92
618.53	1734.63
618.72	1761.25
618.91	1832.93
619.10	1828.84
619.29	1740.77
619.48	1771.49
619.68	1685.48
619.87	1759.21
620.06	1628.14
620.25	1789.92
620.44	1753.06
620.63	1691.62
620.82	1681.38
621.01	1720.29
621.20	1761.25
621.39	1734.63
621.59	1738.73
621.78	1665.00
621.97	1767.40
622.16	1712.10
622.35	1726.44
622.54	1730.53
622.73	1726.44
622.92	1617.90
623.11	1789.92
623.30	1757.16
623.49	1751.01
623.68	1714.15
623.88	1771.49
624.07	1642.47
624.26	1695.72
624.45	1767.40
624.64	1673.19
624.83	1646.57
625.02	1714.15
625.21	1720.29
625.40	1673.19
625.59	1804.26
625.78	1652.71
625.97	1812.45
626.16	1757.16
626.35	1751.01
626.54	1724.39
626.74	1769.44
626.93	1695.72
627.12	1689.57
627.31	1804.26
627.50	1708.01
627.69	1742.82
627.88	1667.05
628.07	1734.63
628.26	1667.05
628.45	1685.48
628.64	1656.81
628.83	1736.68
629.02	1730.53
629.21	1763.30
629.40	1720.29
629.59	1662.95
629.78	1763.30
629.97	1689.57
630.16	1697.77
630.35	1640.42
630.54	1708.01
630.73	1677.29
630.92	1656.81
631.11	1732.58
631.30	1755.11
631.49	1742.82
631.68	1851.36
631.87	1751.01
632.06	1646.57
632.25	1882.08
632.44	1759.21
632.63	1753.06
632.82	1746.92
633.01	1677.29
633.20	1652.71
633.39	1683.43
633.58	1689.57
633.77	1738.73
633.96	1755.11
634.15	1720.29
634.34	1724.39
634.53	1730.53
634.72	1748.97
634.91	1621.99
635.10	1777.64
635.29	1763.30
635.48	1699.81
635.67	1669.09
635.86	1683.43
636.05	1791.97
636.24	1681.38
636.43	1714.15
636.62	1753.06
636.81	1607.66
637.00	1789.92
637.19	1718.25
637.38	1748.97
637.57	1669.09
637.76	1697.77
637.95	1759.21
638.14	1638.38
638.33	1652.71
638.52	1726.44
638.71	1621.99
638.89	1630.18
639.08	1857.51
639.27	1796.07
639.46	1693.67
639.65	1875.94
639.84	1767.40
640.03	1767.40
640.22	1699.81
640.41	1886.18
640.60	1677.29
640.79	1718.25
640.98	1708.01
641.17	1806.31
641.36	1687.53
641.55	1775.59
641.74	1628.14
641.92	1724.39
642.11	1662.95
642.30	1757.16
642.49	1587.18
642.68	1732.58
642.87	1783.78
643.06	1763.30
643.25	1746.92
643.44	1679.33
643.63	1794.02
643.82	1822.69
644.00	1691.62
644.19	1757.16
644.38	1734.63
644.57	1796.07
644.76	1755.11
644.95	1693.67
645.14	1761.25
645.33	1744.87
645.52	1789.92
645.71	1685.48
645.89	1609.70
646.08	1716.20
646.27	1654.76
646.46	1869.80
646.65	1734.63
646.84	1708.01
647.03	1677.29
647.22	1789.92
647.40	1748.97
647.59	1769.44
647.78	1650.66
647.97	1671.14
648.16	1720.29
648.35	1806.31
648.54	1804.26
648.73	1730.53
648.91	1769.44
649.10	1810.40
649.29	1685.48
649.48	1714.15
649.67	1722.34
649.86	1734.63
650.05	1748.97
650.23	1837.03
650.42	1689.57
650.61	1773.54
650.80	1708.01
650.99	1845.22
651.18	1759.21
651.36	1820.64
651.55	1665.00
651.74	1777.64
651.93	1675.24
652.12	1732.58
652.31	1783.78
652.49	1660.90
652.68	1732.58
652.87	1732.58
653.06	1673.19
653.25	1828.84
653.44	1728.49
653.62	1794.02
653.81	1824.74
654.00	1710.05
654.19	1787.88
654.38	1869.80
654.56	1734.63
654.75	1640.42
654.94	1693.67
655.13	1744.87
655.32	1650.66
655.51	1724.39
655.69	1673.19
655.88	1714.15
656.07	1611.75
656.26	1804.26
656.45	1695.72
656.63	1736.68
656.82	1775.59
657.01	1714.15
657.20	1677.29
657.38	1798.12
657.57	1712.10
657.76	1671.14
657.95	1773.54
658.14	1646.57
658.32	1695.72
658.51	1685.48
658.70	1701.86
658.89	1673.19
659.08	1763.30
659.26	1808.36
659.45	1644.52
659.64	1734.63
659.83	1681.38
660.01	1920.99
660.20	1738.73
660.39	1767.40
660.58	1601.51
660.76	1757.16
660.95	1589.22
661.14	1714.15
661.33	1677.29
661.51	1677.29
661.70	1693.67
661.89	1775.59
662.08	1734.63
662.26	1714.15
662.45	1640.42
662.64	1847.27
662.83	1712.10
663.01	1710.05
663.20	1652.71
663.39	1808.36
663.58	1742.82
663.76	1718.25
663.95	1783.78
664.14	1636.33
664.32	1679.33
664.51	1714.15
664.70	1630.18
664.89	1722.34
665.07	1722.34
665.26	1751.01
665.45	1636.33
665.64	1810.40
665.82	1718.25
666.01	1783.78
666.20	1697.77
666.38	1771.49
666.57	1826.79
666.76	2205.66
666.95	4695.99
667.13	10270.56
667.32	15238.94
667.51	17929.97
667.69	19173.08
667.88	17680.11
668.07	12492.61
668.25	9561.97
668.44	8146.82
668.63	7407.50
668.81	6846.36
669.00	6365.09
669.19	5593.00
669.38	5056.43
669.56	4718.52
669.75	4024.26
669.94	3305.42
670.12	2920.40
670.31	2619.35
670.50	2355.16
670.68	2043.87
670.87	1884.13
671.06	1804.26
671.24	1841.12
671.43	1800.16
671.62	1740.77
671.80	1703.91
671.99	1855.46
672.18	1728.49
672.36	1773.54
672.55	1789.92
672.74	1753.06
672.92	1695.72
673.11	1755.11
673.29	1677.29
673.48	1744.87
673.67	1742.82
673.85	1832.93
674.04	1720.29
674.23	1665.00
674.41	1798.12
674.60	1669.09
674.79	1621.99
674.97	1640.42
675.16	1800.16
675.34	1785.83
675.53	1728.49
675.72	1773.54
675.90	1806.31
676.09	1673.19
676.28	1693.67
676.46	1685.48
676.65	1738.73
676.83	1667.05
677.02	1734.63
677.21	1787.88
677.39	1744.87
677.58	1654.76
677.77	1681.38
677.95	1652.71
678.14	1679.33
678.32	1710.05
678.51	1724.39
678.70	1814.50
678.88	1681.38
679.07	1755.11
679.25	1646.57
679.44	1695.72
679.63	1677.29
679.81	1742.82
680.00	1777.64
680.18	1794.02
680.37	1812.45
680.55	1736.68
680.74	1671.14
680.93	1646.57
681.11	1632.23
681.30	1722.34
681.48	1701.86
681.67	1755.11
681.85	1724.39
682.04	1683.43
682.23	1783.78
682.41	1773.54
682.60	1718.25
682.78	1660.90
682.97	1648.61
683.15	1718.25
683.34	1781.73
683.53	1839.08
683.71	1630.18
683.90	1820.64
684.08	1734.63
684.27	1708.01
684.45	1800.16
684.64	1665.00
684.82	1679.33
685.01	1763.30
685.19	1724.39
685.38	1800.16
685.57	1734.63
685.75	1689.57
685.94	1701.86
686.12	1652.71
686.31	1732.58
686.49	1775.59
686.68	1611.75
686.86	1751.01
687.05	1726.44
687.23	1814.50
687.42	1740.77
687.60	1722.34
687.79	1822.69
687.97	1746.92
688.16	1800.16
688.34	1867.75
688.53	1632.23
688.71	1724.39
688.90	1800.16
689.08	1716.20
689.27	1660.90
689.45	1753.06
689.64	1755.11
689.82	1714.15
690.01	1710.05
690.19	1683.43
690.38	1732.58
690.56	1783.78
690.75	1665.00
690.93	1699.81
691.12	1675.24
691.30	1785.83
691.49	1630.18
691.67	1660.90
691.86	1871.84
692.04	1708.01
692.23	1689.57
692.41	1652.71
692.60	1759.21
692.78	1742.82
692.97	1718.25
693.15	1755.11
693.34	1789.92
693.52	1804.26
693.71	1650.66
693.89	1701.86
694.08	1576.94
694.26	1757.16
694.44	1757.16
694.63	1742.82
694.81	1607.66
695.00	1673.19
695.18	1822.69
695.37	1822.69
695.55	1662.95
695.74	1703.91
695.92	1673.19
696.10	1705.96
696.29	1624.04
696.47	1640.42
696.66	1732.58
696.84	1695.72
697.03	1695.72
697.21	1718.25
697.40	2252.77
697.58	1775.59
697.76	1691.62
697.95	1679.33
698.13	1689.57
698.32	1714.15
698.50	1742.82
698.68	1800.16
698.87	1677.29
699.05	1796.07
699.24	1679.33
699.42	1587.18
699.61	1769.44
699.79	1773.54
699.97	1669.09
700.16	1640.42
700.34	1648.61
700.53	1693.67
700.71	1802.21
700.89	1779.68
701.08	1738.73
701.26	1640.42
701.45	2123.74
701.63	1697.77
701.81	1675.24
702.00	1683.43
702.18	1671.14
702.37	1722.34
702.55	1783.78
702.73	1742.82
702.92	1679.33
703.10	1734.63
703.28	1660.90
703.47	1636.33
703.65	1734.63
703.84	1742.82
704.02	1744.87
704.20	1812.45
704.39	1746.92
704.57	1744.87
704.75	1855.46
704.94	1681.38
705.12	1697.77
705.30	1796.07
705.49	2277.34
705.67	4376.51
705.86	9312.11
706.04	12531.52
706.22	14356.26
706.41	15009.56
706.59	13676.34
706.77	9529.20
706.96	7274.38
707.14	6563.74
707.32	5820.33
707.51	5539.76
707.69	4888.50
707.87	4196.29
708.06	3596.23
708.24	2957.27
708.42	2404.32
708.61	2301.92
708.79	1847.27
708.97	1800.16
709.16	1857.51
709.34	1728.49
709.52	1703.91
709.71	1738.73
709.89	1712.10
710.07	1789.92
710.26	1667.05
710.44	1705.96
710.62	1699.81
710.80	1691.62
710.99	1869.80
711.17	1738.73
711.35	1683.43
711.54	1720.29
711.72	1779.68
711.90	1759.21
712.09	1726.44
712.27	1691.62
712.45	1761.25
712.63	1640.42
712.82	1728.49
713.00	1710.05
713.18	1769.44
713.37	1705.96
713.55	1720.29
713.73	1808.36
713.91	1785.83
714.10	1716.20
714.28	1730.53
714.46	1683.43
714.65	1720.29
714.83	1667.05
715.01	1736.68
715.19	1669.09
715.38	1732.58
715.56	1767.40
715.74	1685.48
715.92	1644.52
716.11	1787.88
716.29	1601.51
716.47	1648.61
716.65	1662.95
716.84	1617.90
717.02	1699.81
717.20	1570.79
717.38	1656.81
717.57	1802.21
717.75	1708.01
717.93	1718.25
718.11	1718.25
718.30	1640.42
718.48	1708.01
718.66	1841.12
718.84	1812.45
719.03	1681.38
719.21	1710.05
719.39	1814.50
719.57	1789.92
719.75	1710.05
719.94	1722.34
720.12	1701.86
720.30	1679.33
720.48	1789.92
720.67	1660.90
720.85	1689.57
721.03	1654.76
721.21	1667.05
721.39	1755.11
721.58	1753.06
721.76	1722.34
721.94	1710.05
722.12	1763.30
722.30	1779.68
722.49	1730.53
722.67	1744.87
722.85	1699.81
723.03	1642.47
723.21	1716.20
723.40	1732.58
723.58	1765.35
723.76	1785.83
723.94	1808.36
724.12	1689.57
724.30	1810.40
724.49	1763.30
724.67	1656.81
724.85	1732.58
725.03	1554.41
725.21	1757.16
725.40	1652.71
725.58	1685.48
725.76	1710.05
725.94	1687.53
726.12	1656.81
726.30	1710.05
726.49	1681.38
726.67	1710.05
726.85	1734.63
727.03	1806.31
727.21	2185.18
727.39	2840.53
727.57	3762.12
727.76	4184.00
727.94	4497.34
728.12	4319.17
728.30	3717.06
728.48	2901.97
728.66	2811.86
728.84	2572.25
729.03	2324.44
729.21	2179.04
729.39	1976.29
729.57	1861.60
729.75	1818.60
729.93	1806.31
730.11	1726.44
730.30	1683.43
730.48	1697.77
730.66	1791.97
730.84	1791.97
731.02	1671.14
731.20	1650.66
731.38	1687.53
731.56	1695.72
731.74	1736.68
731.93	1730.53
732.11	1710.05
732.29	1746.92
732.47	1742.82
732.65	1732.58
732.83	1787.88
733.01	1746.92
733.19	1628.14
733.37	1738.73
733.56	1740.77
733.74	1640.42
733.92	1812.45
734.10	1681.38
734.28	1701.86
734.46	1630.18
734.64	1681.38
734.82	1728.49
735.00	1658.85
735.18	1677.29
735.36	1761.25
735.54	1642.47
735.73	1753.06
735.91	1701.86
736.09	1732.58
736.27	1689.57
736.45	1744.87
736.63	1646.57
736.81	1773.54
736.99	1787.88
737.17	1767.40
737.35	1665.00
737.53	1619.94
737.71	1767.40
737.89	1697.77
738.07	1640.42
738.25	1662.95
738.43	1640.42
738.61	1724.39
738.80	1697.77
738.98	1736.68
739.16	1726.44
739.34	1648.61
739.52	1806.31
739.70	1701.86
739.88	1759.21
740.06	1742.82
740.24	1583.08
740.42	1746.92
740.60	1599.46
740.78	1695.72
740.96	1648.61
741.14	1667.05
741.32	1681.38
741.50	1644.52
741.68	1812.45
741.86	1763.30
742.04	1662.95
742.22	1669.09
742.40	1695.72
742.58	1785.83
742.76	1726.44
742.94	1767.40
743.12	1662.95
743.30	1759.21
743.48	1757.16
743.66	1679.33
743.84	1767.40
744.02	1720.29
744.20	1681.38
744.38	1667.05
744.56	1634.28
744.74	1839.08
744.92	1763.30
745.10	1812.45
745.28	1755.11
745.46	1812.45
745.64	1775.59
745.82	1738.73
746.00	1720.29
746.18	1710.05
746.36	1683.43
746.54	1798.12
746.72	1699.81
746.90	1701.86
747.08	1753.06
747.26	1703.91
747.44	1722.34
747.62	1673.19
747.80	1765.35
747.98	1769.44
748.15	1697.77
748.33	1767.40
748.51	1748.97
748.69	1726.44
748.87	1615.85
749.05	1701.86
749.23	1685.48
749.41	1744.87
749.59	1675.24
749.77	1753.06
749.95	1656.81
750.13	1652.71
750.31	1804.26
750.49	1615.85
750.67	1761.25
750.85	1794.02
751.03	1742.82
751.20	1841.12
751.38	1691.62
751.56	1701.86
751.74	1669.09
751.92	1648.61
752.10	1660.90
752.28	1802.21
752.46	1714.15
752.64	1626.09
752.82	1705.96
753.00	1710.05
753.18	1644.52
753.35	1730.53
753.53	1611.75
753.71	1665.00
753.89	1744.87
754.07	1722.34
754.25	1787.88
754.43	1671.14
754.61	1599.46
754.79	1722.34
754.97	1689.57
755.14	1736.68
755.32	1728.49
755.50	1681.38
755.68	1742.82
755.86	1634.28
756.04	1603.56
756.22	1593.32
756.40	1730.53
756.57	1716.20
756.75	1701.86
756.93	1734.63
757.11	1705.96
757.29	1595.37
757.47	1699.81
757.65	1613.80
757.82	1660.90
758.00	1646.57
758.18	1689.57
758.36	1689.57
758.54	1830.88
758.72	1585.13
758.90	1716.20
759.07	1734.63
759.25	1638.38
759.43	1736.68
759.61	1712.10
759.79	2242.53
759.97	1781.73
760.15	1724.39
760.32	1667.05
760.50	1705.96
760.68	1800.16
760.86	1658.85
761.04	1847.27
761.22	1808.36
761.39	1624.04
761.57	1759.21
761.75	1730.53
761.93	1697.77
762.11	1667.05
762.28	1732.58
762.46	1718.25
762.64	1779.68
762.82	1667.05
763.00	1701.86
763.18	1726.44
763.35	1646.57
763.53	1648.61
763.71	1755.11
763.89	1763.30
764.07	1714.15
764.24	1751.01
764.42	1724.39
764.60	1675.24
764.78	1648.61
764.96	1812.45
765.13	1734.63
765.31	1722.34
765.49	1693.67
765.67	1634.28
765.84	1673.19
766.02	1642.47
766.20	1667.05
766.38	1699.81
766.56	1806.31
766.73	1751.01
766.91	1630.18
767.09	1660.90
767.27	1751.01
767.44	1683.43
767.62	1738.73
767.80	1751.01
767.98	1669.09
768.15	1689.57
768.33	1732.58
768.51	1761.25
768.69	1662.95
768.87	1689.57
769.04	1669.09
769.22	1785.83
769.40	1796.07
769.58	1904.61
769.75	1765.35
769.93	1824.74
770.11	1740.77
770.28	1662.95
770.46	1787.88
770.64	1673.19
770.82	1714.15
770.99	1634.28
771.17	1755.11
771.35	1691.62
771.53	1595.37
771.70	1765.35
771.88	1660.90
772.06	1658.85
772.23	1718.25
772.41	1705.96
772.59	1691.62
772.77	1607.66
772.94	1671.14
773.12	1716.20
773.30	1662.95
773.47	1718.25
773.65	1630.18
773.83	1751.01
774.01	1703.91
774.18	1632.23
774.36	1724.39
774.54	1693.67
774.71	1734.63
774.89	1714.15
775.07	1619.94
775.24	1683.43
775.42	1640.42
775.60	1859.56
775.78	1703.91
775.95	1603.56
776.13	1642.47
776.31	1544.17
776.48	1728.49
776.66	1789.92
776.84	1640.42
777.01	1667.05
777.19	1632.23
777.37	1638.38
777.54	1771.49
777.72	1812.45
777.90	1761.25
778.07	1634.28
778.25	1918.95
778.43	1705.96
778.60	1644.52
778.78	1732.58
778.96	1777.64
779.13	1634.28
779.31	1757.16
779.49	1646.57
779.66	1710.05
779.84	1665.00
780.01	1644.52
780.19	1718.25
780.37	1746.92
780.54	1730.53
780.72	1613.80
780.90	1671.14
781.07	1744.87
781.25	1724.39
781.43	1804.26
781.60	1728.49
781.78	1828.84
781.95	1705.96
782.13	1658.85
782.31	1673.19
782.48	1550.31
782.66	1679.33
782.83	1851.36
783.01	1681.38
783.19	1783.78
783.36	1769.44
783.54	1689.57
783.72	1816.55
783.89	1638.38
784.07	1755.11
784.24	1681.38
784.42	1730.53
784.60	1716.20
784.77	1705.96
784.95	1640.42
785.12	1667.05
785.30	1744.87
785.47	1665.00
785.65	1595.37
785.83	1648.61
786.00	1730.53
786.18	1761.25
786.35	1697.77
786.53	1658.85
786.71	1769.44
786.88	1765.35
787.06	1681.38
787.23	1710.05
787.41	1656.81
787.58	1732.58
787.76	1665.00
787.94	1695.72
788.11	1673.19
788.29	1669.09
788.46	1712.10
788.64	1619.94
788.81	1646.57
788.99	1687.53
789.16	1701.86
789.34	1677.29
789.52	1712.10
789.69	1583.08
789.87	1595.37
790.04	1689.57
790.22	1681.38
790.39	1763.30
790.57	1738.73
790.74	1601.51
790.92	1787.88
791.09	1640.42
791.27	1705.96
791.44	1812.45
791.62	1712.10
791.79	1751.01
791.97	1703.91
792.15	1832.93
792.32	1740.77
792.50	1734.63
792.67	1851.36
792.85	1802.21
793.02	1677.29
793.20	1656.81
793.37	1564.65
793.55	1767.40
793.72	1607.66
793.90	1675.24
794.07	1636.33
794.25	1714.15
794.42	1669.09
794.60	1703.91
794.77	1705.96
794.95	1765.35
795.12	1718.25
795.30	1699.81
795.47	1576.94
795.65	1914.85
795.82	1814.50
796.00	1624.04
796.17	1730.53
796.34	1746.92
796.52	1685.48
796.69	1763.30
796.87	1806.31
797.04	1759.21
797.22	1703.91
797.39	1726.44
797.57	1763.30
797.74	1720.29
797.92	1652.71
798.09	1722.34
798.27	1812.45
798.44	1703.91
798.62	1720.29
798.79	1722.34
798.96	1755.11
799.14	1710.05
799.31	1791.97
799.49	1658.85
799.66	1712.10
799.84	1771.49
800.01	1607.66
800.19	1720.29
800.36	1642.47
800.53	1669.09
800.71	1720.29
800.88	1820.64
801.06	1636.33
801.23	1669.09
801.41	1753.06
801.58	1667.05
801.75	1642.47
801.93	1712.10
802.10	1734.63
802.28	1697.77
802.45	1648.61
802.63	1742.82
802.80	1783.78
802.97	1738.73
803.15	1687.53
803.32	1599.46
803.50	1687.53
803.67	1705.96
803.84	1656.81
804.02	1669.09
804.19	1687.53
804.37	1589.22
804.54	1677.29
804.71	1679.33
804.89	1652.71
805.06	1697.77
805.24	1648.61
805.41	1787.88
805.58	1673.19
805.76	1808.36
805.93	1732.58
806.10	1791.97
806.28	1816.55
806.45	1738.73
806.63	1648.61
806.80	1720.29
806.97	1628.14
807.15	1710.05
807.32	1619.94
807.49	1708.01
807.67	1665.00
807.84	1673.19
808.01	1591.27
808.19	1843.17
808.36	1841.12
808.54	1646.57
808.71	1574.89
808.88	1718.25
809.06	1710.05
809.23	1791.97
809.40	1638.38
809.58	1771.49
809.75	1697.77
809.92	1703.91
810.10	1822.69
810.27	1742.82
810.44	1755.11
810.62	1791.97
810.79	1687.53
810.96	1738.73
811.14	1681.38
811.31	1665.00
811.48	1796.07
811.66	1695.72
811.83	1689.57
812.00	1693.67
812.18	1714.15
812.35	1810.40
812.52	1650.66
812.69	1767.40
812.87	1683.43
813.04	1669.09
813.21	1718.25
813.39	1617.90
813.56	1652.71
813.73	1697.77
813.91	1662.95
814.08	1716.20
814.25	1681.38
814.42	1681.38
814.60	1755.11
814.77	1796.07
814.94	1681.38
815.12	1652.71
815.29	1755.11
815.46	1691.62
815.63	1718.25
815.81	1673.19
815.98	1611.75
816.15	1722.34
816.33	1677.29
816.50	1656.81
816.67	1744.87
816.84	1705.96
817.02	1640.42
817.19	1714.15
817.36	1718.25
817.53	1689.57
817.71	1705.96
817.88	1744.87
818.05	1646.57
818.22	1705.96
818.40	1834.98
818.57	1673.19
818.74	1740.77
818.91	1718.25
819.09	1763.30
819.26	1789.92
819.43	1640.42
819.60	1648.61
819.78	1773.54
819.95	1839.08
820.12	1652.71
820.29	1806.31
820.47	1759.21
820.64	1685.48
820.81	1644.52
820.98	1607.66
821.15	1685.48
821.33	1681.38
821.50	1679.33
821.67	1718.25
821.84	1691.62
822.02	1695.72
822.19	1794.02
822.36	1654.76
822.53	1728.49
822.70	1658.85
822.88	1650.66
823.05	1755.11
823.22	1714.15
823.39	1662.95
823.56	1685.48
823.74	1783.78
823.91	1687.53
824.08	1695.72
824.25	1654.76
824.42	1820.64
824.60	1609.70
824.77	1703.91
824.94	1669.09
825.11	1701.86
825.28	1615.85
825.45	1669.09
825.63	1779.68
825.80	1716.20
825.97	1683.43
826.14	1814.50
826.31	1712.10
826.48	1730.53
826.66	1712.10
826.83	1748.97
827.00	1708.01
827.17	1665.00
827.34	1720.29
827.51	1736.68
827.69	1701.86
827.86	1677.29
828.03	1675.24
828.20	1703.91
828.37	1726.44
828.54	1812.45
828.71	1732.58
828.89	1791.97
829.06	1708.01
829.23	1701.86
829.40	1638.38
829.57	1652.71
829.74	1759.21
829.91	1624.04
830.09	1630.18
830.26	1673.19
830.43	1759.21
830.60	1732.58
830.77	1710.05
830.94	1791.97
831.11	1712.10
831.28	1708.01
831.46	1755.11
831.63	1599.46
831.80	1740.77
831.97	1681.38
832.14	1730.53
832.31	1716.20
832.48	1767.40
832.65	1708.01
832.82	1755.11
832.99	1751.01
833.17	1642.47
833.34	1769.44
833.51	1775.59
833.68	1634.28
833.85	1773.54
834.02	1701.86
834.19	1697.77
834.36	1751.01
834.53	1724.39
834.70	1714.15
834.87	1748.97
835.04	1648.61
835.22	1601.51
835.39	1673.19
835.56	1695.72
835.73	1693.67
835.90	1748.97
836.07	1658.85
836.24	1695.72
836.41	1656.81
836.58	1679.33
836.75	1746.92
836.92	1771.49
837.09	1652.71
837.26	1751.01
837.43	1689.57
837.60	1736.68
837.77	1785.83
837.94	1757.16
838.12	1742.82
838.29	1691.62
838.46	1617.90
838.63	1691.62
838.80	1767.40
838.97	1718.25
839.14	1767.40
839.31	1738.73
839.48	1742.82
839.65	1734.63
839.82	1734.63
839.99	1720.29
840.16	1789.92
840.33	1662.95
840.50	1697.77
840.67	1597.42
840.84	1597.42
841.01	1783.78
841.18	1689.57
841.35	1689.57
841.52	1773.54
841.69	1810.40
841.86	1703.91
842.03	1654.76
842.20	1691.62
842.37	1710.05
842.54	1730.53
842.71	1669.09
842.88	1628.14
843.05	1714.15
843.22	1691.62
843.39	1685.48
843.56	1599.46
843.73	1720.29
843.90	1779.68
844.07	1681.38
844.24	1787.88
844.41	1728.49
844.58	1656.81
844.75	1705.96
844.92	1746.92
845.09	1705.96
845.26	1730.53
845.43	1802.21
845.60	1787.88
845.77	1734.63
845.94	1751.01
846.10	1751.01
846.27	1574.89
846.44	1660.90
846.61	1619.94
846.78	1746.92
846.95	1763.30
847.12	1759.21
847.29	1621.99
847.46	1617.90
847.63	1724.39
847.80	1677.29
847.97	1746.92
848.14	1839.08
848.31	1728.49
848.48	1660.90
848.65	1714.15
848.82	1617.90
848.98	1763.30
849.15	1834.98
849.32	1804.26
849.49	1734.63
849.66	1701.86
849.83	1740.77
850.00	1656.81
850.17	1820.64
850.34	1705.96
850.51	1677.29
850.68	1621.99
850.85	1900.52
851.01	1734.63
851.18	1701.86
851.35	1648.61
851.52	1699.81
851.69	1849.32
851.86	1597.42
852.03	1695.72
852.20	1775.59
852.37	1724.39
852.53	1662.95
852.70	1757.16
852.87	1632.23
853.04	1765.35
853.21	1734.63
853.38	1685.48
853.55	1816.55
853.72	1689.57
853.89	1587.18
854.05	1638.38
854.22	1630.18
854.39	1673.19
854.56	1693.67
854.73	1808.36
854.90	1677.29
855.07	1677.29
855.23	1650.66
855.40	1685.48
855.57	1671.14
855.74	1574.89
855.91	1875.94
856.08	1677.29
856.25	1656.81
856.41	1619.94
856.58	1611.75
856.75	1656.81
856.92	1628.14
857.09	1740.77
857.26	1640.42
857.42	1738.73
857.59	1724.39
857.76	1712.10
857.93	1675.24
858.10	1818.60
858.27	1609.70
858.43	1718.25
858.60	1697.77
858.77	1665.00
858.94	1693.67
859.11	1755.11
859.27	1656.81
859.44	1669.09
859.61	1779.68
859.78	1771.49
859.95	1736.68
860.12	1675.24
860.28	1746.92
860.45	1818.60
860.62	1730.53
860.79	1751.01
860.95	1685.48
861.12	1638.38
861.29	1685.48
861.46	1671.14
861.63	1708.01
861.79	1722.34
861.96	1632.23
862.13	1665.00
862.30	1722.34
862.47	1648.61
862.63	1677.29
862.80	1710.05
862.97	1695.72
863.14	1658.85
863.30	1701.86
863.47	1771.49
863.64	1746.92
863.81	1724.39
863.97	1722.34
864.14	1671.14
864.31	1652.71
864.48	1800.16
864.65	1712.10
864.81	1734.63
864.98	1708.01
865.15	1810.40
865.32	1753.06
865.48	1746.92
865.65	1841.12
865.82	1683.43
865.98	1683.43
866.15	1738.73
866.32	1759.21
866.49	1693.67
866.65	1732.58
866.82	1708.01
866.99	1779.68
867.16	1613.80
867.32	1679.33
867.49	1730.53
867.66	1703.91
867.83	1605.61
867.99	1572.84
868.16	1568.74
868.33	1718.25
868.49	1710.05
868.66	1738.73
868.83	1703.91
868.99	1703.91
869.16	1740.77
869.33	1740.77
869.50	1740.77
869.66	1699.81
869.83	1785.83
870.00	1662.95
870.16	1763.30
870.33	1710.05
870.50	1681.38
870.66	1757.16
870.83	1730.53
871.00	1693.67
871.17	1712.10
871.33	1730.53
871.50	1736.68
871.67	1773.54
871.83	1652.71
872.00	1718.25
872.17	1665.00
872.33	1763.30
872.50	1763.30
872.67	1724.39
872.83	1634.28
873.00	1744.87
873.17	1656.81
873.33	1744.87
873.50	1724.39
873.67	1685.48
873.83	1650.66
874.00	1714.15
874.16	1781.73
874.33	1730.53
874.50	1591.27
874.66	1701.86
874.83	1765.35
875.00	1753.06
875.16	1771.49
875.33	1794.02
875.50	1550.31
875.66	1644.52
875.83	1699.81
875.99	1679.33
876.16	1669.09
876.33	1679.33
876.49	1640.42
876.66	1796.07
876.83	1665.00
876.99	1654.76
877.16	1691.62
877.32	1642.47
877.49	1648.61
877.66	1730.53
877.82	1757.16
877.99	1757.16
878.15	1769.44
878.32	1714.15
878.49	1656.81
878.65	1679.33
878.82	1748.97
878.98	1673.19
879.15	1730.53
879.32	1767.40
879.48	1748.97
879.65	1701.86
879.81	1738.73
879.98	1648.61
880.15	1697.77
880.31	1710.05
880.48	1701.86
880.64	1779.68
880.81	1734.63
880.97	1773.54
881.14	1724.39
881.31	1654.76
881.47	1935.33
881.64	1619.94
881.80	1642.47
881.97	1665.00
882.13	1839.08
882.30	1626.09
882.47	1648.61
882.63	1658.85
882.80	1619.94
882.96	1757.16
883.13	1816.55
883.29	1689.57
883.46	1748.97
883.62	1843.17
883.79	1740.77
883.95	1791.97
884.12	1714.15
884.29	1781.73
884.45	1712.10
884.62	1716.20
884.78	1695.72
884.95	1738.73
885.11	1681.38
885.28	1746.92
885.44	1751.01
885.61	1681.38
885.77	1736.68
885.94	1730.53
886.10	1710.05
886.27	1726.44
886.43	1794.02
886.60	1845.22
886.76	1624.04
886.93	1597.42
887.09	1689.57
887.26	1562.60
887.42	1769.44
887.59	1857.51
887.75	1828.84
887.92	1779.68
888.08	1699.81
888.25	1769.44
888.41	1746.92
888.58	1681.38
888.74	1611.75
888.91	1673.19
>>>>>End Processed Spectral Data<<<<<
