SpectraSuite Data File
++++++++++++++++++++++++++++++++++++
Date: Mon Jun 06 14:18:57 CEST 2016
User: root
Dark Spectrum Present: No
Reference Spectrum Present: No
Number of Sampled Component Spectra: 1
Spectrometers: USB4C02835
Integration Time (usec): 100000 (USB4C02835)
Spectra Averaged: 1 (USB4C02835)
Boxcar Smoothing: 0 (USB4C02835)
Correct for Electrical Dark: No (USB4C02835)
Strobe/Lamp Enabled: No (USB4C02835)
Correct for Detector Non-linearity: No (USB4C02835)
Correct for Stray Light: No (USB4C02835)
Number of Pixels in Processed Spectrum: 3648
>>>>>Begin Processed Spectral Data<<<<<
177.47	1417.19
177.69	1417.19
177.91	1417.19
178.13	1417.19
178.36	1460.20
178.58	1679.33
178.80	1720.29
179.02	1595.37
179.24	1619.94
179.46	1689.57
179.68	1781.73
179.90	1644.52
180.13	1636.33
180.35	1660.90
180.57	1742.82
180.79	1765.35
181.01	1667.05
181.23	1755.11
181.45	1742.82
181.67	1722.34
181.90	1738.73
182.12	1636.33
182.34	1648.61
182.56	1742.82
182.78	1697.77
183.00	1734.63
183.22	1691.62
183.44	1591.27
183.66	1871.84
183.89	1837.03
184.11	1716.20
184.33	1769.44
184.55	1746.92
184.77	1765.35
184.99	1650.66
185.21	1681.38
185.43	1861.60
185.65	1669.09
185.87	1712.10
186.10	1812.45
186.32	1796.07
186.54	1671.14
186.76	1701.86
186.98	1742.82
187.20	1693.67
187.42	1714.15
187.64	1677.29
187.86	1746.92
188.08	1716.20
188.30	1708.01
188.52	1710.05
188.75	1742.82
188.97	1843.17
189.19	1720.29
189.41	1642.47
189.63	1769.44
189.85	1650.66
190.07	1652.71
190.29	1640.42
190.51	1712.10
190.73	1607.66
190.95	1779.68
191.17	1656.81
191.39	1628.14
191.61	1634.28
191.84	1640.42
192.06	1767.40
192.28	1626.09
192.50	1828.84
192.72	1714.15
192.94	1675.24
193.16	1726.44
193.38	1626.09
193.60	1605.61
193.82	1689.57
194.04	1728.49
194.26	1681.38
194.48	1642.47
194.70	1630.18
194.92	1710.05
195.14	1693.67
195.36	1722.34
195.58	1683.43
195.80	1746.92
196.02	1669.09
196.24	1656.81
196.46	1753.06
196.69	1652.71
196.91	1845.22
197.13	1708.01
197.35	1710.05
197.57	1781.73
197.79	1679.33
198.01	1742.82
198.23	1693.67
198.45	1734.63
198.67	1642.47
198.89	1673.19
199.11	1804.26
199.33	1626.09
199.55	1599.46
199.77	1681.38
199.99	1734.63
200.21	1667.05
200.43	1767.40
200.65	1568.74
200.87	1638.38
201.09	1685.48
201.31	1617.90
201.53	1757.16
201.75	1714.15
201.97	1708.01
202.19	1724.39
202.41	1689.57
202.63	1738.73
202.85	1726.44
203.07	1751.01
203.29	1705.96
203.51	1724.39
203.73	1603.56
203.95	1816.55
204.17	1705.96
204.39	1738.73
204.61	1687.53
204.83	1679.33
205.05	1755.11
205.27	1738.73
205.49	1859.56
205.71	1685.48
205.93	1660.90
206.15	1656.81
206.37	1716.20
206.59	1648.61
206.81	1716.20
207.03	1681.38
207.25	1634.28
207.47	1767.40
207.69	1679.33
207.91	1826.79
208.13	1789.92
208.34	1650.66
208.56	1677.29
208.78	1701.86
209.00	1671.14
209.22	1677.29
209.44	1730.53
209.66	1605.61
209.88	1744.87
210.10	1724.39
210.32	1687.53
210.54	1787.88
210.76	1746.92
210.98	1734.63
211.20	1564.65
211.42	1699.81
211.64	1810.40
211.86	1746.92
212.08	1718.25
212.30	1722.34
212.52	1708.01
212.74	1781.73
212.96	1710.05
213.17	1724.39
213.39	1775.59
213.61	1779.68
213.83	1677.29
214.05	1574.89
214.27	1712.10
214.49	1585.13
214.71	1609.70
214.93	1736.68
215.15	1714.15
215.37	1734.63
215.59	1621.99
215.81	1705.96
216.03	1759.21
216.24	1665.00
216.46	1798.12
216.68	1740.77
216.90	1777.64
217.12	1765.35
217.34	1746.92
217.56	1740.77
217.78	1718.25
218.00	1740.77
218.22	1685.48
218.44	1738.73
218.66	1662.95
218.87	1730.53
219.09	1724.39
219.31	1755.11
219.53	1673.19
219.75	1693.67
219.97	1654.76
220.19	1736.68
220.41	1724.39
220.63	1714.15
220.85	1759.21
221.06	1728.49
221.28	1740.77
221.50	1675.24
221.72	1744.87
221.94	1669.09
222.16	1728.49
222.38	1695.72
222.60	1757.16
222.82	1697.77
223.03	1779.68
223.25	1615.85
223.47	1738.73
223.69	1816.55
223.91	1744.87
224.13	1654.76
224.35	1638.38
224.57	1726.44
224.78	1734.63
225.00	1691.62
225.22	1705.96
225.44	1701.86
225.66	1724.39
225.88	1701.86
226.10	1765.35
226.32	1724.39
226.53	1740.77
226.75	1665.00
226.97	1638.38
227.19	1660.90
227.41	1603.56
227.63	1646.57
227.85	1521.64
228.06	1656.81
228.28	1689.57
228.50	1740.77
228.72	1617.90
228.94	1677.29
229.16	1611.75
229.37	1687.53
229.59	1675.24
229.81	1724.39
230.03	1755.11
230.25	1632.23
230.47	1673.19
230.69	1648.61
230.90	1765.35
231.12	1642.47
231.34	1679.33
231.56	1751.01
231.78	1611.75
232.00	1689.57
232.21	1638.38
232.43	1720.29
232.65	1578.98
232.87	1798.12
233.09	1626.09
233.30	1697.77
233.52	1734.63
233.74	1632.23
233.96	1699.81
234.18	1691.62
234.40	1626.09
234.61	1812.45
234.83	1540.07
235.05	1652.71
235.27	1888.23
235.49	1802.21
235.70	1673.19
235.92	1740.77
236.14	1742.82
236.36	1822.69
236.58	1660.90
236.79	1708.01
237.01	1693.67
237.23	1755.11
237.45	1753.06
237.67	1644.52
237.88	1748.97
238.10	1771.49
238.32	1691.62
238.54	1679.33
238.76	1683.43
238.97	1665.00
239.19	1691.62
239.41	1695.72
239.63	1738.73
239.85	1705.96
240.06	1732.58
240.28	1601.51
240.50	1822.69
240.72	1716.20
240.93	1667.05
241.15	1716.20
241.37	1689.57
241.59	1863.65
241.81	1683.43
242.02	1722.34
242.24	1708.01
242.46	1751.01
242.68	1646.57
242.89	1767.40
243.11	1781.73
243.33	1669.09
243.55	1726.44
243.76	1652.71
243.98	1640.42
244.20	1648.61
244.42	1705.96
244.64	1724.39
244.85	1660.90
245.07	1732.58
245.29	1681.38
245.51	1761.25
245.72	1744.87
245.94	1732.58
246.16	1777.64
246.38	1720.29
246.59	1687.53
246.81	1605.61
247.03	1679.33
247.24	1611.75
247.46	1667.05
247.68	1689.57
247.90	1716.20
248.11	1636.33
248.33	1767.40
248.55	1650.66
248.77	1628.14
248.98	1693.67
249.20	1789.92
249.42	1685.48
249.64	1687.53
249.85	1673.19
250.07	1660.90
250.29	1773.54
250.50	1769.44
250.72	1607.66
250.94	1669.09
251.16	1830.88
251.37	1693.67
251.59	1722.34
251.81	1699.81
252.02	1730.53
252.24	1632.23
252.46	1736.68
252.68	1587.18
252.89	1660.90
253.11	1607.66
253.33	1755.11
253.54	1775.59
253.76	1636.33
253.98	1644.52
254.20	1646.57
254.41	1574.89
254.63	1687.53
254.85	1640.42
255.06	1708.01
255.28	1759.21
255.50	1660.90
255.71	1660.90
255.93	1669.09
256.15	1689.57
256.36	1699.81
256.58	1691.62
256.80	1740.77
257.02	1636.33
257.23	1652.71
257.45	1656.81
257.67	1726.44
257.88	1609.70
258.10	1654.76
258.32	1718.25
258.53	1712.10
258.75	1779.68
258.97	1708.01
259.18	1710.05
259.40	1658.85
259.62	1794.02
259.83	1726.44
260.05	1787.88
260.27	1990.63
260.48	1734.63
260.70	1697.77
260.92	1689.57
261.13	1642.47
261.35	1695.72
261.57	1738.73
261.78	1609.70
262.00	1652.71
262.22	1783.78
262.43	1669.09
262.65	1626.09
262.86	1722.34
263.08	1837.03
263.30	1705.96
263.51	1546.22
263.73	1591.27
263.95	1703.91
264.16	1626.09
264.38	1705.96
264.60	1736.68
264.81	1751.01
265.03	1740.77
265.25	1703.91
265.46	1695.72
265.68	1796.07
265.89	1742.82
266.11	1644.52
266.33	1748.97
266.54	1691.62
266.76	1771.49
266.98	1744.87
267.19	1791.97
267.41	1720.29
267.62	1697.77
267.84	1671.14
268.06	1718.25
268.27	1759.21
268.49	1744.87
268.70	1771.49
268.92	1705.96
269.14	1671.14
269.35	1642.47
269.57	1691.62
269.79	1697.77
270.00	1669.09
270.22	1832.93
270.43	1687.53
270.65	1626.09
270.87	1730.53
271.08	1712.10
271.30	1695.72
271.51	1665.00
271.73	1697.77
271.95	1789.92
272.16	1701.86
272.38	1763.30
272.59	1730.53
272.81	1720.29
273.02	1650.66
273.24	1757.16
273.46	1701.86
273.67	1701.86
273.89	1613.80
274.10	1681.38
274.32	1724.39
274.54	1775.59
274.75	1710.05
274.97	1687.53
275.18	1751.01
275.40	1734.63
275.61	1734.63
275.83	1662.95
276.05	1624.04
276.26	1701.86
276.48	1785.83
276.69	1609.70
276.91	1652.71
277.12	1767.40
277.34	1701.86
277.55	1824.74
277.77	1699.81
277.99	1720.29
278.20	1669.09
278.42	1636.33
278.63	1671.14
278.85	1673.19
279.06	1603.56
279.28	1726.44
279.49	1761.25
279.71	1736.68
279.93	1771.49
280.14	1671.14
280.36	1673.19
280.57	1732.58
280.79	1828.84
281.00	1607.66
281.22	1658.85
281.43	1748.97
281.65	1626.09
281.86	1652.71
282.08	1744.87
282.29	1791.97
282.51	1605.61
282.73	1642.47
282.94	1636.33
283.16	1730.53
283.37	1822.69
283.59	1703.91
283.80	1781.73
284.02	1742.82
284.23	1705.96
284.45	1646.57
284.66	1634.28
284.88	1699.81
285.09	1734.63
285.31	1794.02
285.52	1656.81
285.74	1617.90
285.95	1738.73
286.17	1746.92
286.38	1761.25
286.60	1619.94
286.81	1632.23
287.03	1687.53
287.24	1720.29
287.46	1732.58
287.67	1650.66
287.89	1779.68
288.10	1665.00
288.32	1687.53
288.53	1830.88
288.75	1710.05
288.96	1640.42
289.18	1650.66
289.39	1654.76
289.61	1697.77
289.82	1845.22
290.04	1837.03
290.25	1619.94
290.47	1632.23
290.68	1777.64
290.90	1791.97
291.11	1626.09
291.33	1767.40
291.54	1710.05
291.76	1654.76
291.97	1693.67
292.18	1744.87
292.40	1652.71
292.61	1720.29
292.83	1791.97
293.04	1806.31
293.26	1691.62
293.47	1658.85
293.69	1615.85
293.90	1705.96
294.12	1742.82
294.33	1742.82
294.55	1718.25
294.76	1724.39
294.97	1724.39
295.19	1781.73
295.40	1658.85
295.62	1755.11
295.83	1806.31
296.05	1644.52
296.26	1712.10
296.48	1648.61
296.69	1718.25
296.90	1687.53
297.12	1734.63
297.33	1736.68
297.55	1714.15
297.76	1701.86
297.98	1804.26
298.19	1677.29
298.41	1679.33
298.62	1675.24
298.83	1777.64
299.05	1669.09
299.26	1710.05
299.48	1712.10
299.69	1748.97
299.90	1705.96
300.12	1673.19
300.33	1673.19
300.55	1665.00
300.76	1724.39
300.98	1648.61
301.19	1736.68
301.40	1703.91
301.62	1728.49
301.83	1720.29
302.05	1708.01
302.26	1720.29
302.47	1724.39
302.69	1621.99
302.90	1634.28
303.12	1619.94
303.33	1757.16
303.54	1787.88
303.76	1689.57
303.97	1765.35
304.19	1714.15
304.40	1595.37
304.61	1693.67
304.83	1789.92
305.04	1705.96
305.26	1689.57
305.47	1687.53
305.68	1708.01
305.90	1667.05
306.11	1712.10
306.33	1699.81
306.54	1724.39
306.75	1587.18
306.97	1591.27
307.18	1683.43
307.39	1681.38
307.61	1736.68
307.82	1626.09
308.04	1654.76
308.25	1636.33
308.46	1681.38
308.68	1667.05
308.89	1738.73
309.10	1665.00
309.32	1720.29
309.53	1630.18
309.74	1779.68
309.96	1689.57
310.17	1791.97
310.39	1744.87
310.60	1742.82
310.81	1720.29
311.03	1621.99
311.24	1726.44
311.45	1681.38
311.67	1783.78
311.88	1738.73
312.09	1599.46
312.31	1689.57
312.52	1695.72
312.73	1662.95
312.95	1611.75
313.16	1593.32
313.37	1748.97
313.59	1701.86
313.80	1787.88
314.01	1769.44
314.23	1671.14
314.44	1656.81
314.65	1691.62
314.87	1642.47
315.08	1662.95
315.29	1734.63
315.51	1630.18
315.72	1648.61
315.93	1814.50
316.15	1746.92
316.36	1714.15
316.57	1693.67
316.79	1748.97
317.00	1677.29
317.21	1724.39
317.43	1642.47
317.64	1714.15
317.85	1628.14
318.07	1644.52
318.28	1636.33
318.49	1691.62
318.70	1877.99
318.92	1789.92
319.13	1884.13
319.34	1880.04
319.56	1773.54
319.77	1865.70
319.98	1775.59
320.20	1837.03
320.41	1697.77
320.62	1787.88
320.83	1681.38
321.05	1779.68
321.26	1718.25
321.47	1718.25
321.69	1740.77
321.90	1648.61
322.11	1722.34
322.32	1710.05
322.54	1777.64
322.75	1705.96
322.96	1802.21
323.18	1583.08
323.39	1533.93
323.60	1640.42
323.81	1732.58
324.03	1640.42
324.24	1710.05
324.45	1724.39
324.66	1667.05
324.88	1712.10
325.09	1822.69
325.30	1714.15
325.52	1697.77
325.73	1685.48
325.94	1605.61
326.15	1601.51
326.37	1652.71
326.58	1794.02
326.79	1714.15
327.00	1669.09
327.22	1642.47
327.43	1673.19
327.64	1638.38
327.85	1781.73
328.07	1726.44
328.28	1822.69
328.49	1669.09
328.70	1679.33
328.92	1679.33
329.13	1718.25
329.34	1751.01
329.55	1896.42
329.76	1667.05
329.98	1613.80
330.19	1861.60
330.40	1734.63
330.61	1656.81
330.83	1763.30
331.04	1626.09
331.25	1705.96
331.46	1726.44
331.68	1615.85
331.89	1755.11
332.10	1640.42
332.31	1644.52
332.52	1646.57
332.74	1787.88
332.95	1626.09
333.16	1687.53
333.37	1759.21
333.58	1705.96
333.80	1675.24
334.01	1656.81
334.22	1796.07
334.43	1595.37
334.64	1624.04
334.86	1660.90
335.07	1673.19
335.28	1822.69
335.49	1654.76
335.70	1738.73
335.92	1763.30
336.13	1847.27
336.34	1742.82
336.55	1714.15
336.76	1757.16
336.98	1624.04
337.19	1697.77
337.40	1855.46
337.61	1777.64
337.82	1697.77
338.04	1716.20
338.25	1603.56
338.46	1671.14
338.67	1722.34
338.88	1687.53
339.09	1611.75
339.31	1644.52
339.52	1646.57
339.73	1734.63
339.94	1724.39
340.15	1757.16
340.36	1630.18
340.58	1697.77
340.79	1574.89
341.00	1755.11
341.21	1542.12
341.42	1736.68
341.63	1703.91
341.85	1722.34
342.06	1689.57
342.27	1689.57
342.48	1722.34
342.69	1640.42
342.90	1789.92
343.12	1744.87
343.33	1724.39
343.54	1806.31
343.75	1787.88
343.96	1705.96
344.17	1689.57
344.38	1673.19
344.60	1724.39
344.81	1640.42
345.02	1632.23
345.23	1734.63
345.44	1771.49
345.65	1662.95
345.86	1736.68
346.07	1695.72
346.29	1628.14
346.50	1781.73
346.71	1751.01
346.92	1798.12
347.13	1783.78
347.34	1767.40
347.55	1679.33
347.76	1751.01
347.98	1626.09
348.19	1658.85
348.40	1701.86
348.61	1626.09
348.82	1757.16
349.03	1806.31
349.24	1701.86
349.45	1755.11
349.66	1519.59
349.88	1681.38
350.09	1675.24
350.30	1785.83
350.51	1804.26
350.72	1732.58
350.93	1718.25
351.14	1593.32
351.35	1781.73
351.56	1665.00
351.77	1722.34
351.99	1744.87
352.20	1791.97
352.41	1751.01
352.62	1585.13
352.83	1679.33
353.04	1738.73
353.25	1732.58
353.46	1783.78
353.67	1728.49
353.88	1640.42
354.09	1759.21
354.30	1642.47
354.52	1779.68
354.73	1697.77
354.94	1665.00
355.15	1681.38
355.36	1890.28
355.57	1732.58
355.78	1710.05
355.99	1656.81
356.20	1699.81
356.41	1730.53
356.62	1724.39
356.83	1724.39
357.04	1699.81
357.25	1640.42
357.46	1691.62
357.68	1656.81
357.89	1665.00
358.10	1687.53
358.31	1597.42
358.52	1714.15
358.73	1611.75
358.94	1724.39
359.15	1679.33
359.36	1751.01
359.57	1646.57
359.78	1656.81
359.99	1791.97
360.20	1626.09
360.41	1650.66
360.62	1714.15
360.83	1740.77
361.04	1804.26
361.25	1679.33
361.46	1814.50
361.67	1802.21
361.88	1705.96
362.09	1742.82
362.30	1693.67
362.51	1677.29
362.72	1644.52
362.93	1820.64
363.14	1746.92
363.35	1697.77
363.56	1683.43
363.78	1748.97
363.99	1736.68
364.20	1681.38
364.41	1808.36
364.62	1767.40
364.83	1763.30
365.04	1701.86
365.25	1683.43
365.46	1820.64
365.67	1673.19
365.88	1615.85
366.09	1708.01
366.30	1615.85
366.51	1738.73
366.72	1576.94
366.93	1751.01
367.14	1691.62
367.35	1714.15
367.56	1654.76
367.77	1708.01
367.98	1734.63
368.18	1708.01
368.39	1685.48
368.60	1681.38
368.81	1796.07
369.02	1667.05
369.23	1699.81
369.44	1648.61
369.65	1636.33
369.86	1744.87
370.07	1734.63
370.28	1603.56
370.49	1652.71
370.70	1777.64
370.91	1617.90
371.12	1665.00
371.33	1812.45
371.54	1693.67
371.75	1808.36
371.96	1585.13
372.17	1644.52
372.38	1675.24
372.59	1748.97
372.80	1710.05
373.01	1677.29
373.22	1724.39
373.43	1771.49
373.64	1593.32
373.85	1763.30
374.06	1791.97
374.26	1736.68
374.47	1724.39
374.68	1755.11
374.89	1773.54
375.10	1701.86
375.31	1714.15
375.52	1662.95
375.73	1730.53
375.94	1617.90
376.15	1822.69
376.36	1607.66
376.57	1683.43
376.78	1771.49
376.99	1626.09
377.20	1767.40
377.40	1611.75
377.61	1851.36
377.82	1697.77
378.03	1728.49
378.24	1781.73
378.45	1691.62
378.66	1710.05
378.87	1605.61
379.08	1669.09
379.29	1644.52
379.50	1812.45
379.71	1693.67
379.91	1785.83
380.12	1697.77
380.33	1699.81
380.54	1662.95
380.75	1679.33
380.96	1665.00
381.17	1771.49
381.38	1689.57
381.59	1697.77
381.80	1691.62
382.00	1849.32
382.21	1728.49
382.42	1802.21
382.63	1863.65
382.84	1759.21
383.05	1777.64
383.26	1785.83
383.47	1746.92
383.68	1708.01
383.88	1660.90
384.09	1761.25
384.30	1738.73
384.51	1734.63
384.72	1652.71
384.93	1648.61
385.14	1755.11
385.35	1822.69
385.55	1630.18
385.76	1804.26
385.97	1718.25
386.18	1613.80
386.39	1634.28
386.60	1697.77
386.81	1740.77
387.02	1716.20
387.22	1603.56
387.43	1781.73
387.64	1777.64
387.85	1857.51
388.06	2203.61
388.27	4351.93
388.48	6772.63
388.68	8232.83
388.89	9604.97
389.10	9946.98
389.31	8550.27
389.52	7706.51
389.73	6739.87
389.93	6260.64
390.14	5803.94
390.35	5164.98
390.56	4689.85
390.77	3809.22
390.98	2977.75
391.18	2514.91
391.39	2162.66
391.60	1939.43
391.81	1888.23
392.02	1748.97
392.23	1847.27
392.43	1740.77
392.64	1826.79
392.85	1763.30
393.06	1837.03
393.27	1710.05
393.47	1722.34
393.68	1687.53
393.89	1617.90
394.10	1763.30
394.31	1650.66
394.52	1581.03
394.72	1683.43
394.93	1894.37
395.14	1628.14
395.35	1726.44
395.56	1765.35
395.76	1710.05
395.97	1785.83
396.18	1861.60
396.39	1871.84
396.60	2088.93
396.80	1875.94
397.01	1871.84
397.22	1810.40
397.43	1794.02
397.64	1693.67
397.84	1734.63
398.05	1892.32
398.26	1763.30
398.47	1812.45
398.67	1730.53
398.88	1685.48
399.09	1748.97
399.30	1677.29
399.51	1646.57
399.71	1648.61
399.92	1679.33
400.13	1701.86
400.34	1748.97
400.54	1650.66
400.75	1818.60
400.96	1687.53
401.17	1882.08
401.37	1683.43
401.58	1705.96
401.79	1656.81
402.00	1908.71
402.21	1920.99
402.41	1902.56
402.62	1982.43
402.83	2021.35
403.04	1992.67
403.24	2011.11
403.45	1779.68
403.66	2004.96
403.87	1900.52
404.07	1892.32
404.28	1908.71
404.49	1931.23
404.70	1761.25
404.90	1767.40
405.11	1722.34
405.32	1714.15
405.52	1726.44
405.73	1705.96
405.94	1699.81
406.15	1757.16
406.35	1746.92
406.56	1796.07
406.77	1671.14
406.98	1724.39
407.18	1669.09
407.39	1816.55
407.60	1671.14
407.80	1732.58
408.01	1617.90
408.22	1755.11
408.43	1665.00
408.63	1748.97
408.84	1726.44
409.05	1814.50
409.25	1589.22
409.46	1585.13
409.67	1726.44
409.88	1648.61
410.08	1761.25
410.29	1765.35
410.50	1638.38
410.70	1724.39
410.91	1564.65
411.12	1759.21
411.32	1621.99
411.53	1703.91
411.74	1773.54
411.95	1746.92
412.15	1740.77
412.36	1710.05
412.57	1751.01
412.77	1732.58
412.98	1777.64
413.19	1693.67
413.39	1787.88
413.60	1705.96
413.81	1812.45
414.01	1638.38
414.22	1777.64
414.43	1796.07
414.63	1710.05
414.84	1744.87
415.05	1730.53
415.25	1624.04
415.46	1742.82
415.67	1726.44
415.87	1783.78
416.08	1736.68
416.29	1673.19
416.49	1775.59
416.70	1632.23
416.91	1693.67
417.11	1755.11
417.32	1742.82
417.53	1742.82
417.73	1705.96
417.94	1673.19
418.15	1757.16
418.35	1615.85
418.56	1638.38
418.77	1759.21
418.97	1669.09
419.18	1685.48
419.38	1648.61
419.59	1650.66
419.80	1757.16
420.00	1665.00
420.21	1730.53
420.42	1800.16
420.62	1746.92
420.83	1589.22
421.04	1726.44
421.24	1656.81
421.45	1755.11
421.65	1683.43
421.86	1701.86
422.07	1697.77
422.27	1738.73
422.48	1652.71
422.69	1650.66
422.89	1695.72
423.10	1685.48
423.30	1603.56
423.51	1726.44
423.72	1619.94
423.92	1738.73
424.13	1652.71
424.33	1665.00
424.54	1757.16
424.75	1751.01
424.95	1810.40
425.16	1742.82
425.36	1708.01
425.57	1728.49
425.78	1730.53
425.98	1740.77
426.19	1722.34
426.39	1652.71
426.60	1685.48
426.81	1773.54
427.01	1669.09
427.22	1660.90
427.42	1638.38
427.63	1703.91
427.83	1703.91
428.04	1720.29
428.25	1826.79
428.45	1837.03
428.66	1748.97
428.86	1746.92
429.07	1705.96
429.28	1693.67
429.48	1736.68
429.69	1689.57
429.89	1697.77
430.10	1673.19
430.30	1742.82
430.51	1861.60
430.71	1601.51
430.92	1712.10
431.13	1683.43
431.33	1787.88
431.54	1796.07
431.74	1824.74
431.95	1775.59
432.15	1679.33
432.36	1679.33
432.56	1755.11
432.77	1738.73
432.98	1853.41
433.18	1767.40
433.39	1638.38
433.59	1669.09
433.80	1822.69
434.00	1859.56
434.21	1675.24
434.41	1660.90
434.62	1837.03
434.82	1693.67
435.03	1578.98
435.23	1742.82
435.44	1650.66
435.64	1716.20
435.85	1718.25
436.06	1736.68
436.26	1697.77
436.47	1724.39
436.67	1697.77
436.88	1656.81
437.08	1705.96
437.29	1746.92
437.49	1714.15
437.70	1724.39
437.90	1730.53
438.11	1777.64
438.31	1794.02
438.52	1851.36
438.72	1877.99
438.93	1773.54
439.13	1794.02
439.34	1802.21
439.54	1730.53
439.75	1791.97
439.95	1765.35
440.16	1701.86
440.36	1777.64
440.57	1791.97
440.77	1771.49
440.98	1607.66
441.18	1687.53
441.39	1671.14
441.59	1724.39
441.80	1824.74
442.00	1679.33
442.21	1781.73
442.41	1718.25
442.62	1722.34
442.82	1658.85
443.02	1748.97
443.23	1710.05
443.43	1671.14
443.64	1763.30
443.84	1640.42
444.05	1798.12
444.25	1771.49
444.46	1654.76
444.66	1796.07
444.87	1816.55
445.07	1583.08
445.28	1748.97
445.48	1828.84
445.69	1701.86
445.89	1884.13
446.09	1759.21
446.30	2027.49
446.50	2695.13
446.71	3598.28
446.91	4300.73
447.12	4820.92
447.32	4904.89
447.53	4388.80
447.73	3899.33
447.93	3508.17
448.14	3303.37
448.34	3192.78
448.55	2875.35
448.75	2840.53
448.96	2742.23
449.16	2439.13
449.36	2316.25
449.57	2093.02
449.77	1892.32
449.98	1771.49
450.18	1800.16
450.39	1849.32
450.59	1746.92
450.79	1751.01
451.00	1724.39
451.20	1800.16
451.41	1609.70
451.61	1738.73
451.81	1695.72
452.02	1716.20
452.22	1740.77
452.43	1656.81
452.63	1671.14
452.84	1738.73
453.04	1660.90
453.24	1832.93
453.45	1673.19
453.65	1734.63
453.86	1849.32
454.06	1771.49
454.26	1734.63
454.47	1656.81
454.67	1832.93
454.87	1843.17
455.08	1742.82
455.28	1857.51
455.49	1822.69
455.69	1744.87
455.89	1839.08
456.10	1857.51
456.30	1673.19
456.51	1757.16
456.71	1783.78
456.91	1755.11
457.12	1701.86
457.32	1675.24
457.52	1646.57
457.73	1785.83
457.93	1781.73
458.14	1667.05
458.34	1634.28
458.54	1697.77
458.75	1806.31
458.95	1787.88
459.15	1787.88
459.36	1732.58
459.56	1771.49
459.76	1818.60
459.97	1660.90
460.17	1746.92
460.37	1798.12
460.58	1681.38
460.78	1796.07
460.99	1652.71
461.19	1730.53
461.39	1675.24
461.60	1669.09
461.80	1705.96
462.00	1665.00
462.21	1757.16
462.41	1679.33
462.61	1652.71
462.82	1691.62
463.02	1753.06
463.22	1728.49
463.43	1744.87
463.63	1732.58
463.83	1751.01
464.04	1720.29
464.24	1734.63
464.44	1656.81
464.64	1650.66
464.85	1757.16
465.05	1810.40
465.25	1691.62
465.46	1689.57
465.66	1708.01
465.86	1794.02
466.07	1755.11
466.27	1685.48
466.47	1734.63
466.68	1660.90
466.88	1796.07
467.08	1697.77
467.29	1765.35
467.49	1800.16
467.69	1746.92
467.89	1728.49
468.10	1589.22
468.30	1771.49
468.50	1689.57
468.71	1695.72
468.91	1617.90
469.11	1814.50
469.31	1730.53
469.52	1720.29
469.72	1859.56
469.92	1820.64
470.13	1615.85
470.33	1748.97
470.53	1861.60
470.73	2127.84
470.94	2336.73
471.14	2312.16
471.34	2574.30
471.54	2428.89
471.75	2222.05
471.95	2140.13
472.15	2068.45
472.36	2140.13
472.56	2172.89
472.76	2045.92
472.96	1988.58
473.17	1964.00
473.37	1822.69
473.57	1767.40
473.77	1820.64
473.98	1681.38
474.18	1624.04
474.38	1908.71
474.58	1617.90
474.79	1619.94
474.99	1773.54
475.19	1791.97
475.39	1636.33
475.60	1662.95
475.80	1753.06
476.00	1701.86
476.20	1699.81
476.41	1814.50
476.61	1820.64
476.81	1726.44
477.01	1757.16
477.21	1841.12
477.42	1771.49
477.62	1703.91
477.82	1753.06
478.02	1693.67
478.23	1855.46
478.43	1697.77
478.63	1705.96
478.83	1769.44
479.03	1724.39
479.24	1800.16
479.44	1877.99
479.64	1705.96
479.84	1685.48
480.04	1642.47
480.25	1705.96
480.45	1681.38
480.65	1701.86
480.85	1830.88
481.06	1703.91
481.26	1705.96
481.46	1789.92
481.66	1728.49
481.86	1660.90
482.06	1828.84
482.27	1730.53
482.47	1660.90
482.67	1738.73
482.87	1687.53
483.07	1808.36
483.28	1703.91
483.48	1667.05
483.68	1755.11
483.88	1675.24
484.08	1632.23
484.29	1626.09
484.49	1648.61
484.69	1628.14
484.89	1806.31
485.09	1753.06
485.29	1734.63
485.50	1734.63
485.70	1693.67
485.90	1781.73
486.10	1724.39
486.30	1839.08
486.50	1720.29
486.71	1710.05
486.91	1718.25
487.11	1820.64
487.31	1640.42
487.51	1691.62
487.71	1710.05
487.91	1693.67
488.12	1636.33
488.32	1576.94
488.52	1662.95
488.72	1667.05
488.92	1796.07
489.12	1767.40
489.32	1732.58
489.53	1710.05
489.73	1603.56
489.93	1820.64
490.13	1730.53
490.33	1673.19
490.53	1689.57
490.73	1779.68
490.94	1662.95
491.14	1775.59
491.34	1820.64
491.54	2152.42
491.74	2600.92
491.94	2904.02
492.14	2996.18
492.34	3067.86
492.54	2758.61
492.75	2404.32
492.95	2410.46
493.15	2318.30
493.35	2224.09
493.55	2238.43
493.75	2174.94
493.95	2093.02
494.15	2080.74
494.35	2002.91
494.56	1820.64
494.76	1730.53
494.96	1685.48
495.16	1757.16
495.36	1740.77
495.56	1736.68
495.76	1759.21
495.96	1669.09
496.16	1644.52
496.36	1853.41
496.56	1695.72
496.77	1783.78
496.97	1667.05
497.17	1832.93
497.37	1667.05
497.57	1712.10
497.77	1699.81
497.97	1601.51
498.17	1755.11
498.37	1665.00
498.57	1685.48
498.77	1738.73
498.97	1873.89
499.17	1832.93
499.38	1675.24
499.58	1812.45
499.78	1832.93
499.98	1798.12
500.18	1746.92
500.38	1675.24
500.58	1923.04
500.78	2631.64
500.98	4562.87
501.18	6006.69
501.38	6741.91
501.58	7157.65
501.78	6688.67
501.98	5472.17
502.18	5031.86
502.38	4427.71
502.58	4171.71
502.78	3817.41
502.98	3626.95
503.18	3465.16
503.38	3235.79
503.59	2852.82
503.79	2662.36
503.99	2445.27
504.19	2281.44
504.39	2258.91
504.59	2209.76
504.79	2183.13
504.99	2082.78
505.19	1992.67
505.39	1837.03
505.59	1949.67
505.79	1871.84
505.99	1906.66
506.19	1888.23
506.39	1904.61
506.59	1722.34
506.79	1720.29
506.99	1771.49
507.19	1681.38
507.39	1757.16
507.59	1619.94
507.79	1701.86
507.99	1671.14
508.19	1691.62
508.39	1683.43
508.59	1728.49
508.79	1757.16
508.99	1853.41
509.19	1695.72
509.39	1777.64
509.59	1658.85
509.79	1714.15
509.99	1701.86
510.19	1751.01
510.39	1652.71
510.59	1718.25
510.79	1769.44
510.99	1646.57
511.19	1755.11
511.39	1822.69
511.59	1806.31
511.79	1818.60
511.99	1665.00
512.19	1841.12
512.38	1722.34
512.58	1662.95
512.78	1703.91
512.98	1794.02
513.18	1839.08
513.38	1619.94
513.58	1763.30
513.78	1724.39
513.98	1726.44
514.18	1714.15
514.38	1771.49
514.58	1685.48
514.78	1673.19
514.98	1718.25
515.18	1763.30
515.38	1628.14
515.58	1824.74
515.78	1656.81
515.98	1669.09
516.18	1701.86
516.38	1675.24
516.57	1712.10
516.77	1660.90
516.97	1777.64
517.17	1687.53
517.37	1609.70
517.57	1773.54
517.77	1730.53
517.97	1726.44
518.17	1724.39
518.37	1613.80
518.57	1697.77
518.77	1681.38
518.97	1726.44
519.16	1798.12
519.36	1757.16
519.56	1685.48
519.76	1755.11
519.96	1787.88
520.16	1818.60
520.36	1638.38
520.56	1804.26
520.76	1722.34
520.96	1718.25
521.16	1806.31
521.35	1841.12
521.55	1806.31
521.75	1816.55
521.95	1656.81
522.15	1759.21
522.35	1634.28
522.55	1701.86
522.75	1751.01
522.95	1748.97
523.14	1708.01
523.34	1744.87
523.54	1726.44
523.74	1748.97
523.94	1705.96
524.14	1640.42
524.34	1834.98
524.54	1875.94
524.73	1705.96
524.93	1767.40
525.13	1734.63
525.33	1589.22
525.53	1830.88
525.73	1687.53
525.93	1832.93
526.13	1791.97
526.32	1667.05
526.52	1736.68
526.72	1804.26
526.92	1718.25
527.12	1732.58
527.32	1652.71
527.52	1742.82
527.71	1802.21
527.91	1689.57
528.11	1712.10
528.31	1714.15
528.51	1726.44
528.71	1732.58
528.90	1648.61
529.10	1691.62
529.30	1806.31
529.50	1730.53
529.70	1732.58
529.90	1724.39
530.09	1671.14
530.29	1675.24
530.49	1693.67
530.69	1894.37
530.89	1773.54
531.09	1761.25
531.28	1705.96
531.48	1759.21
531.68	1740.77
531.88	1759.21
532.08	1816.55
532.28	1699.81
532.47	1847.27
532.67	1806.31
532.87	1828.84
533.07	1691.62
533.27	1767.40
533.46	1703.91
533.66	1720.29
533.86	1697.77
534.06	1705.96
534.26	1771.49
534.45	1742.82
534.65	1804.26
534.85	1761.25
535.05	1699.81
535.25	1865.70
535.44	1722.34
535.64	1769.44
535.84	1773.54
536.04	1689.57
536.24	1695.72
536.43	1738.73
536.63	1701.86
536.83	1730.53
537.03	1697.77
537.22	1642.47
537.42	1658.85
537.62	1740.77
537.82	1658.85
538.02	1804.26
538.21	1808.36
538.41	1837.03
538.61	1697.77
538.81	1748.97
539.00	1769.44
539.20	1591.27
539.40	1734.63
539.60	1816.55
539.79	1730.53
539.99	1705.96
540.19	1710.05
540.39	1720.29
540.58	1796.07
540.78	1748.97
540.98	1753.06
541.18	1783.78
541.37	1785.83
541.57	1705.96
541.77	1675.24
541.97	1687.53
542.16	1619.94
542.36	1689.57
542.56	1720.29
542.76	1791.97
542.95	1689.57
543.15	1767.40
543.35	1765.35
543.54	1785.83
543.74	1705.96
543.94	1808.36
544.14	1710.05
544.33	1796.07
544.53	1648.61
544.73	1714.15
544.93	1689.57
545.12	1646.57
545.32	1814.50
545.52	1689.57
545.71	1652.71
545.91	1748.97
546.11	1757.16
546.30	1665.00
546.50	1648.61
546.70	1746.92
546.90	1808.36
547.09	1615.85
547.29	1789.92
547.49	1708.01
547.68	1783.78
547.88	1667.05
548.08	1828.84
548.27	2207.71
548.47	1695.72
548.67	1736.68
548.87	1701.86
549.06	1785.83
549.26	1773.54
549.46	1728.49
549.65	1701.86
549.85	1779.68
550.05	1783.78
550.24	1685.48
550.44	1765.35
550.64	1732.58
550.83	1763.30
551.03	1759.21
551.23	1814.50
551.42	1755.11
551.62	1724.39
551.82	1697.77
552.01	1701.86
552.21	1787.88
552.41	1730.53
552.60	1828.84
552.80	1714.15
553.00	1697.77
553.19	1699.81
553.39	1824.74
553.59	1611.75
553.78	1777.64
553.98	1730.53
554.17	1734.63
554.37	1734.63
554.57	1759.21
554.76	1615.85
554.96	1691.62
555.16	1687.53
555.35	1818.60
555.55	1759.21
555.75	1705.96
555.94	1814.50
556.14	1624.04
556.33	1708.01
556.53	1759.21
556.73	1687.53
556.92	1738.73
557.12	1837.03
557.32	1890.28
557.51	1824.74
557.71	1761.25
557.90	1845.22
558.10	1814.50
558.30	1710.05
558.49	1755.11
558.69	1820.64
558.88	1714.15
559.08	1697.77
559.28	1648.61
559.47	1730.53
559.67	1779.68
559.86	1855.46
560.06	1785.83
560.26	1640.42
560.45	1742.82
560.65	1734.63
560.84	1806.31
561.04	1697.77
561.24	1863.65
561.43	1667.05
561.63	1822.69
561.82	1779.68
562.02	1710.05
562.22	1665.00
562.41	1652.71
562.61	1638.38
562.80	1689.57
563.00	1902.56
563.19	1789.92
563.39	1798.12
563.59	1773.54
563.78	1726.44
563.98	1619.94
564.17	1820.64
564.37	1644.52
564.56	1689.57
564.76	1652.71
564.96	1806.31
565.15	1693.67
565.35	1865.70
565.54	1708.01
565.74	1767.40
565.93	1777.64
566.13	1787.88
566.32	1794.02
566.52	1722.34
566.71	1673.19
566.91	1837.03
567.11	1656.81
567.30	1789.92
567.50	1759.21
567.69	1880.04
567.89	1667.05
568.08	1710.05
568.28	1701.86
568.47	1640.42
568.67	1773.54
568.86	1667.05
569.06	1828.84
569.25	1734.63
569.45	1683.43
569.64	1691.62
569.84	1748.97
570.04	1779.68
570.23	1726.44
570.43	1714.15
570.62	1773.54
570.82	1841.12
571.01	1720.29
571.21	1662.95
571.40	1648.61
571.60	1765.35
571.79	1705.96
571.99	1673.19
572.18	1673.19
572.38	1767.40
572.57	1773.54
572.77	1742.82
572.96	1875.94
573.16	1800.16
573.35	1716.20
573.55	1748.97
573.74	1812.45
573.94	1718.25
574.13	1703.91
574.33	1746.92
574.52	1804.26
574.71	1718.25
574.91	1812.45
575.10	1697.77
575.30	1755.11
575.49	1718.25
575.69	1650.66
575.88	1779.68
576.08	1667.05
576.27	1675.24
576.47	1734.63
576.66	1796.07
576.86	1816.55
577.05	1812.45
577.25	1738.73
577.44	1861.60
577.64	1703.91
577.83	1746.92
578.02	1755.11
578.22	1841.12
578.41	1824.74
578.61	1681.38
578.80	1714.15
579.00	1798.12
579.19	1732.58
579.39	1830.88
579.58	1757.16
579.77	1699.81
579.97	1812.45
580.16	1697.77
580.36	1849.32
580.55	1826.79
580.75	1718.25
580.94	1736.68
581.13	1865.70
581.33	1806.31
581.52	1705.96
581.72	1857.51
581.91	1824.74
582.11	1675.24
582.30	1738.73
582.49	1755.11
582.69	1867.75
582.88	1800.16
583.08	1720.29
583.27	1777.64
583.47	1740.77
583.66	1712.10
583.85	1634.28
584.05	1742.82
584.24	1718.25
584.44	1814.50
584.63	1826.79
584.82	1865.70
585.02	1824.74
585.21	1748.97
585.41	1744.87
585.60	1787.88
585.79	1947.62
585.99	1843.17
586.18	1837.03
586.37	2140.13
586.57	3373.00
586.76	9887.59
586.96	24387.21
587.15	34643.44
587.34	40783.25
587.54	42349.95
587.73	37107.15
587.93	26506.86
588.12	21700.28
588.31	18364.14
588.51	16324.36
588.70	15208.22
588.89	14178.09
589.09	12601.15
589.28	10993.50
589.47	9426.80
589.67	8044.42
589.86	6430.62
590.06	4986.80
590.25	3940.29
590.44	3176.40
590.64	2555.86
590.83	2314.20
591.02	2144.22
591.22	1884.13
591.41	1943.52
591.60	1929.19
591.80	1877.99
591.99	1718.25
592.18	1800.16
592.38	1787.88
592.57	1703.91
592.76	1880.04
592.96	1796.07
593.15	1753.06
593.34	1681.38
593.54	1746.92
593.73	1824.74
593.92	1800.16
594.12	1712.10
594.31	1775.59
594.50	1859.56
594.70	1710.05
594.89	1886.18
595.08	1738.73
595.28	1779.68
595.47	1935.33
595.66	1808.36
595.86	1693.67
596.05	1751.01
596.24	1732.58
596.43	1800.16
596.63	1785.83
596.82	1757.16
597.01	1818.60
597.21	1873.89
597.40	1763.30
597.59	1718.25
597.79	1767.40
597.98	1753.06
598.17	1742.82
598.36	1769.44
598.56	1742.82
598.75	1693.67
598.94	1722.34
599.14	1783.78
599.33	1660.90
599.52	1802.21
599.71	1640.42
599.91	1718.25
600.10	1834.98
600.29	1714.15
600.48	1742.82
600.68	1763.30
600.87	1798.12
601.06	1671.14
601.26	1732.58
601.45	1787.88
601.64	1660.90
601.83	1812.45
602.03	1640.42
602.22	1693.67
602.41	1789.92
602.60	1798.12
602.80	1812.45
602.99	1728.49
603.18	1693.67
603.37	1773.54
603.57	1771.49
603.76	1753.06
603.95	1757.16
604.14	1679.33
604.34	1701.86
604.53	1714.15
604.72	1753.06
604.91	1738.73
605.10	1808.36
605.30	1658.85
605.49	1800.16
605.68	1775.59
605.87	1742.82
606.07	1718.25
606.26	1710.05
606.45	1808.36
606.64	1767.40
606.84	1742.82
607.03	1726.44
607.22	1740.77
607.41	1705.96
607.60	1720.29
607.80	1791.97
607.99	1716.20
608.18	1683.43
608.37	1728.49
608.56	1658.85
608.76	1875.94
608.95	1777.64
609.14	1773.54
609.33	1746.92
609.52	1708.01
609.72	1761.25
609.91	1724.39
610.10	1718.25
610.29	1748.97
610.48	1767.40
610.68	1742.82
610.87	1652.71
611.06	1726.44
611.25	1720.29
611.44	1806.31
611.63	1710.05
611.83	1867.75
612.02	1695.72
612.21	1755.11
612.40	1628.14
612.59	1617.90
612.79	1708.01
612.98	1732.58
613.17	1855.46
613.36	1734.63
613.55	1826.79
613.74	1685.48
613.93	1718.25
614.13	1712.10
614.32	1789.92
614.51	1748.97
614.70	1660.90
614.89	1755.11
615.08	1787.88
615.28	2017.25
615.47	1687.53
615.66	1656.81
615.85	1712.10
616.04	1890.28
616.23	1712.10
616.42	1712.10
616.62	1744.87
616.81	1785.83
617.00	1779.68
617.19	1796.07
617.38	1697.77
617.57	1673.19
617.76	1839.08
617.95	1767.40
618.15	1748.97
618.34	1769.44
618.53	1658.85
618.72	1798.12
618.91	1824.74
619.10	1853.41
619.29	1695.72
619.48	1710.05
619.68	1640.42
619.87	1695.72
620.06	1615.85
620.25	1730.53
620.44	1701.86
620.63	1738.73
620.82	1775.59
621.01	1728.49
621.20	1656.81
621.39	1716.20
621.59	1765.35
621.78	1738.73
621.97	1726.44
622.16	1767.40
622.35	1769.44
622.54	1708.01
622.73	1857.51
622.92	1638.38
623.11	1705.96
623.30	1730.53
623.49	1783.78
623.68	1673.19
623.88	1775.59
624.07	1714.15
624.26	1769.44
624.45	1759.21
624.64	1712.10
624.83	1693.67
625.02	1665.00
625.21	1783.78
625.40	1677.29
625.59	1773.54
625.78	1687.53
625.97	1746.92
626.16	1773.54
626.35	1689.57
626.54	1761.25
626.74	1783.78
626.93	1685.48
627.12	1652.71
627.31	1728.49
627.50	1699.81
627.69	1779.68
627.88	1689.57
628.07	1679.33
628.26	1564.65
628.45	1671.14
628.64	1630.18
628.83	1765.35
629.02	1685.48
629.21	1763.30
629.40	1722.34
629.59	1714.15
629.78	1673.19
629.97	1800.16
630.16	1671.14
630.35	1712.10
630.54	1705.96
630.73	1701.86
630.92	1744.87
631.11	1705.96
631.30	1724.39
631.49	1746.92
631.68	1708.01
631.87	1673.19
632.06	1685.48
632.25	1794.02
632.44	1712.10
632.63	1787.88
632.82	1691.62
633.01	1646.57
633.20	1683.43
633.39	1689.57
633.58	1646.57
633.77	1787.88
633.96	1644.52
634.15	1730.53
634.34	1722.34
634.53	1748.97
634.72	1662.95
634.91	1591.27
635.10	1791.97
635.29	1654.76
635.48	1728.49
635.67	1712.10
635.86	1650.66
636.05	1761.25
636.24	1716.20
636.43	1730.53
636.62	1732.58
636.81	1546.22
637.00	1695.72
637.19	1779.68
637.38	1726.44
637.57	1736.68
637.76	1564.65
637.95	1757.16
638.14	1626.09
638.33	1675.24
638.52	1734.63
638.71	1591.27
638.89	1689.57
639.08	1859.56
639.27	1732.58
639.46	1708.01
639.65	1828.84
639.84	1751.01
640.03	1728.49
640.22	1695.72
640.41	1855.46
640.60	1630.18
640.79	1781.73
640.98	1656.81
641.17	1740.77
641.36	1796.07
641.55	1732.58
641.74	1599.46
641.92	1728.49
642.11	1607.66
642.30	1712.10
642.49	1689.57
642.68	1646.57
642.87	1742.82
643.06	1710.05
643.25	1716.20
643.44	1697.77
643.63	1699.81
643.82	1810.40
644.00	1685.48
644.19	1804.26
644.38	1669.09
644.57	1763.30
644.76	1779.68
644.95	1687.53
645.14	1671.14
645.33	1730.53
645.52	1726.44
645.71	1628.14
645.89	1619.94
646.08	1699.81
646.27	1728.49
646.46	1841.12
646.65	1671.14
646.84	1701.86
647.03	1607.66
647.22	1748.97
647.40	1671.14
647.59	1632.23
647.78	1652.71
647.97	1761.25
648.16	1630.18
648.35	1763.30
648.54	1818.60
648.73	1740.77
648.91	1755.11
649.10	1787.88
649.29	1673.19
649.48	1802.21
649.67	1701.86
649.86	1697.77
650.05	1724.39
650.23	1816.55
650.42	1634.28
650.61	1761.25
650.80	1740.77
650.99	1888.23
651.18	1832.93
651.36	1787.88
651.55	1630.18
651.74	1675.24
651.93	1736.68
652.12	1658.85
652.31	1720.29
652.49	1701.86
652.68	1691.62
652.87	1732.58
653.06	1734.63
653.25	1742.82
653.44	1757.16
653.62	1787.88
653.81	1710.05
654.00	1718.25
654.19	1798.12
654.38	1943.52
654.56	1716.20
654.75	1771.49
654.94	1783.78
655.13	1755.11
655.32	1611.75
655.51	1845.22
655.69	1665.00
655.88	1714.15
656.07	1669.09
656.26	1816.55
656.45	1599.46
656.63	1683.43
656.82	1777.64
657.01	1798.12
657.20	1689.57
657.38	1769.44
657.57	1665.00
657.76	1632.23
657.95	1734.63
658.14	1748.97
658.32	1761.25
658.51	1603.56
658.70	1665.00
658.89	1798.12
659.08	1730.53
659.26	1767.40
659.45	1679.33
659.64	1728.49
659.83	1660.90
660.01	1865.70
660.20	1732.58
660.39	1791.97
660.58	1644.52
660.76	1789.92
660.95	1677.29
661.14	1732.58
661.33	1656.81
661.51	1673.19
661.70	1765.35
661.89	1689.57
662.08	1714.15
662.26	1695.72
662.45	1703.91
662.64	1847.27
662.83	1771.49
663.01	1552.36
663.20	1759.21
663.39	1791.97
663.58	1630.18
663.76	1732.58
663.95	1710.05
664.14	1634.28
664.32	1703.91
664.51	1646.57
664.70	1640.42
664.89	1755.11
665.07	1630.18
665.26	1773.54
665.45	1677.29
665.64	1738.73
665.82	1691.62
666.01	1751.01
666.20	1763.30
666.38	1861.60
666.57	1869.80
666.76	2176.99
666.95	4519.87
667.13	10458.98
667.32	15177.50
667.51	18218.73
667.69	19103.45
667.88	17786.61
668.07	12547.90
668.25	9770.86
668.44	8222.59
668.63	7303.06
668.81	6805.40
669.00	6291.36
669.19	5732.26
669.38	5054.39
669.56	4624.31
669.75	3946.44
669.94	3483.59
670.12	2912.21
670.31	2551.77
670.50	2299.87
670.68	2205.66
670.87	1896.42
671.06	1775.59
671.24	1740.77
671.43	1765.35
671.62	1783.78
671.80	1691.62
671.99	1660.90
672.18	1722.34
672.36	1732.58
672.55	1699.81
672.74	1619.94
672.92	1736.68
673.11	1761.25
673.29	1673.19
673.48	1767.40
673.67	1736.68
673.85	1873.89
674.04	1722.34
674.23	1689.57
674.41	1748.97
674.60	1669.09
674.79	1556.46
674.97	1714.15
675.16	1685.48
675.34	1806.31
675.53	1673.19
675.72	1783.78
675.90	1748.97
676.09	1632.23
676.28	1755.11
676.46	1662.95
676.65	1765.35
676.83	1644.52
677.02	1687.53
677.21	1751.01
677.39	1636.33
677.58	1652.71
677.77	1701.86
677.95	1681.38
678.14	1626.09
678.32	1671.14
678.51	1603.56
678.70	1771.49
678.88	1734.63
679.07	1775.59
679.25	1701.86
679.44	1652.71
679.63	1615.85
679.81	1751.01
680.00	1708.01
680.18	1746.92
680.37	1746.92
680.55	1759.21
680.74	1636.33
680.93	1671.14
681.11	1650.66
681.30	1779.68
681.48	1742.82
681.67	1708.01
681.85	1695.72
682.04	1693.67
682.23	1794.02
682.41	1736.68
682.60	1677.29
682.78	1724.39
682.97	1640.42
683.15	1728.49
683.34	1787.88
683.53	1681.38
683.71	1650.66
683.90	1716.20
684.08	1853.41
684.27	1730.53
684.45	1765.35
684.64	1761.25
684.82	1658.85
685.01	1650.66
685.19	1720.29
685.38	1763.30
685.57	1693.67
685.75	1628.14
685.94	1681.38
686.12	1624.04
686.31	1626.09
686.49	1810.40
686.68	1646.57
686.86	1789.92
687.05	1738.73
687.23	1761.25
687.42	1720.29
687.60	1652.71
687.79	1769.44
687.97	1820.64
688.16	1796.07
688.34	1779.68
688.53	1624.04
688.71	1722.34
688.90	1742.82
689.08	1722.34
689.27	1638.38
689.45	1775.59
689.64	1714.15
689.82	1843.17
690.01	1697.77
690.19	1671.14
690.38	1742.82
690.56	1779.68
690.75	1671.14
690.93	1667.05
691.12	1599.46
691.30	1744.87
691.49	1714.15
691.67	1697.77
691.86	1859.56
692.04	1734.63
692.23	1675.24
692.41	1675.24
692.60	1767.40
692.78	1736.68
692.97	1609.70
693.15	1714.15
693.34	1847.27
693.52	1771.49
693.71	1671.14
693.89	1697.77
694.08	1642.47
694.26	1761.25
694.44	1732.58
694.63	1781.73
694.81	1650.66
695.00	1617.90
695.18	1763.30
695.37	1832.93
695.55	1718.25
695.74	1656.81
695.92	1644.52
696.10	1683.43
696.29	1593.32
696.47	1683.43
696.66	1662.95
696.84	1615.85
697.03	1683.43
697.21	1865.70
697.40	2238.43
697.58	1779.68
697.76	1667.05
697.95	1710.05
698.13	1654.76
698.32	1687.53
698.50	1730.53
698.68	1796.07
698.87	1714.15
699.05	1742.82
699.24	1695.72
699.42	1669.09
699.61	1763.30
699.79	1724.39
699.97	1646.57
700.16	1583.08
700.34	1636.33
700.53	1746.92
700.71	1796.07
700.89	1710.05
701.08	1763.30
701.26	1683.43
701.45	2082.78
701.63	1675.24
701.81	1681.38
702.00	1630.18
702.18	1724.39
702.37	1718.25
702.55	1759.21
702.73	1685.48
702.92	1652.71
703.10	1761.25
703.28	1662.95
703.47	1591.27
703.65	1761.25
703.84	1783.78
704.02	1728.49
704.20	1857.51
704.39	1656.81
704.57	1677.29
704.75	1673.19
704.94	1705.96
705.12	1708.01
705.30	1794.02
705.49	2258.91
705.67	4378.56
705.86	9434.99
706.04	12414.79
706.22	14503.71
706.41	15435.54
706.59	13858.60
706.77	9664.36
706.96	7477.13
707.14	6741.91
707.32	6008.74
707.51	5490.60
707.69	4945.84
707.87	4071.36
708.06	3647.43
708.24	2891.73
708.42	2375.64
708.61	2254.81
708.79	1828.84
708.97	1855.46
709.16	1828.84
709.34	1839.08
709.52	1701.86
709.71	1746.92
709.89	1748.97
710.07	1683.43
710.26	1671.14
710.44	1685.48
710.62	1771.49
710.80	1658.85
710.99	1812.45
711.17	1734.63
711.35	1669.09
711.54	1699.81
711.72	1800.16
711.90	1714.15
712.09	1656.81
712.27	1673.19
712.45	1804.26
712.63	1636.33
712.82	1636.33
713.00	1738.73
713.18	1726.44
713.37	1705.96
713.55	1769.44
713.73	1681.38
713.91	1730.53
714.10	1660.90
714.28	1695.72
714.46	1701.86
714.65	1689.57
714.83	1757.16
715.01	1732.58
715.19	1660.90
715.38	1730.53
715.56	1759.21
715.74	1632.23
715.92	1607.66
716.11	1796.07
716.29	1601.51
716.47	1726.44
716.65	1611.75
716.84	1599.46
717.02	1726.44
717.20	1603.56
717.38	1738.73
717.57	1681.38
717.75	1714.15
717.93	1669.09
718.11	1697.77
718.30	1624.04
718.48	1681.38
718.66	1773.54
718.84	1736.68
719.03	1726.44
719.21	1708.01
719.39	1755.11
719.57	1691.62
719.75	1746.92
719.94	1652.71
720.12	1636.33
720.30	1626.09
720.48	1814.50
720.67	1675.24
720.85	1613.80
721.03	1669.09
721.21	1681.38
721.39	1734.63
721.58	1767.40
721.76	1689.57
721.94	1677.29
722.12	1724.39
722.30	1746.92
722.49	1685.48
722.67	1697.77
722.85	1724.39
723.03	1615.85
723.21	1642.47
723.40	1718.25
723.58	1763.30
723.76	1726.44
723.94	1744.87
724.12	1771.49
724.30	1703.91
724.49	1822.69
724.67	1687.53
724.85	1800.16
725.03	1630.18
725.21	1771.49
725.40	1732.58
725.58	1630.18
725.76	1791.97
725.94	1744.87
726.12	1646.57
726.30	1732.58
726.49	1742.82
726.67	1728.49
726.85	1744.87
727.03	1777.64
727.21	2146.27
727.39	2895.83
727.57	3733.45
727.76	4122.56
727.94	4360.13
728.12	4462.52
728.30	3674.06
728.48	2994.13
728.66	2783.19
728.84	2514.91
729.03	2256.86
729.21	2154.46
729.39	1959.91
729.57	1775.59
729.75	1791.97
729.93	1898.47
730.11	1683.43
730.30	1740.77
730.48	1673.19
730.66	1808.36
730.84	1732.58
731.02	1619.94
731.20	1695.72
731.38	1777.64
731.56	1720.29
731.74	1691.62
731.93	1687.53
732.11	1654.76
732.29	1703.91
732.47	1738.73
732.65	1695.72
732.83	1806.31
733.01	1742.82
733.19	1605.61
733.37	1814.50
733.56	1755.11
733.74	1726.44
733.92	1800.16
734.10	1667.05
734.28	1611.75
734.46	1581.03
734.64	1632.23
734.82	1726.44
735.00	1662.95
735.18	1638.38
735.36	1662.95
735.54	1697.77
735.73	1673.19
735.91	1771.49
736.09	1699.81
736.27	1669.09
736.45	1746.92
736.63	1615.85
736.81	1703.91
736.99	1755.11
737.17	1847.27
737.35	1646.57
737.53	1710.05
737.71	1675.24
737.89	1732.58
738.07	1648.61
738.25	1611.75
738.43	1593.32
738.61	1662.95
738.80	1583.08
738.98	1689.57
739.16	1685.48
739.34	1585.13
739.52	1773.54
739.70	1705.96
739.88	1724.39
740.06	1822.69
740.24	1615.85
740.42	1746.92
740.60	1628.14
740.78	1652.71
740.96	1535.98
741.14	1673.19
741.32	1681.38
741.50	1568.74
741.68	1830.88
741.86	1804.26
742.04	1652.71
742.22	1679.33
742.40	1744.87
742.58	1662.95
742.76	1656.81
742.94	1775.59
743.12	1626.09
743.30	1591.27
743.48	1783.78
743.66	1642.47
743.84	1697.77
744.02	1603.56
744.20	1673.19
744.38	1648.61
744.56	1697.77
744.74	1751.01
744.92	1646.57
745.10	1814.50
745.28	1736.68
745.46	1761.25
745.64	1712.10
745.82	1839.08
746.00	1697.77
746.18	1634.28
746.36	1675.24
746.54	1759.21
746.72	1794.02
746.90	1665.00
747.08	1771.49
747.26	1783.78
747.44	1681.38
747.62	1738.73
747.80	1724.39
747.98	1726.44
748.15	1613.80
748.33	1748.97
748.51	1646.57
748.69	1689.57
748.87	1599.46
749.05	1779.68
749.23	1689.57
749.41	1781.73
749.59	1714.15
749.77	1740.77
749.95	1718.25
750.13	1644.52
750.31	1679.33
750.49	1710.05
750.67	1755.11
750.85	1767.40
751.03	1718.25
751.20	1804.26
751.38	1685.48
751.56	1753.06
751.74	1724.39
751.92	1736.68
752.10	1624.04
752.28	1738.73
752.46	1673.19
752.64	1662.95
752.82	1718.25
753.00	1859.56
753.18	1587.18
753.35	1710.05
753.53	1689.57
753.71	1597.42
753.89	1716.20
754.07	1722.34
754.25	1736.68
754.43	1673.19
754.61	1671.14
754.79	1791.97
754.97	1644.52
755.14	1759.21
755.32	1726.44
755.50	1746.92
755.68	1722.34
755.86	1705.96
756.04	1738.73
756.22	1615.85
756.40	1771.49
756.57	1753.06
756.75	1671.14
756.93	1679.33
757.11	1818.60
757.29	1689.57
757.47	1628.14
757.65	1714.15
757.82	1529.83
758.00	1617.90
758.18	1673.19
758.36	1683.43
758.54	1773.54
758.72	1615.85
758.90	1771.49
759.07	1693.67
759.25	1703.91
759.43	1681.38
759.61	1656.81
759.79	2205.66
759.97	1740.77
760.15	1681.38
760.32	1619.94
760.50	1722.34
760.68	1791.97
760.86	1630.18
761.04	1712.10
761.22	1695.72
761.39	1781.73
761.57	1732.58
761.75	1773.54
761.93	1728.49
762.11	1636.33
762.28	1775.59
762.46	1658.85
762.64	1767.40
762.82	1626.09
763.00	1673.19
763.18	1796.07
763.35	1691.62
763.53	1718.25
763.71	1619.94
763.89	1740.77
764.07	1703.91
764.24	1683.43
764.42	1771.49
764.60	1677.29
764.78	1732.58
764.96	1765.35
765.13	1683.43
765.31	1665.00
765.49	1761.25
765.67	1644.52
765.84	1691.62
766.02	1665.00
766.20	1630.18
766.38	1837.03
766.56	1673.19
766.73	1705.96
766.91	1763.30
767.09	1755.11
767.27	1775.59
767.44	1576.94
767.62	1683.43
767.80	1689.57
767.98	1634.28
768.15	1736.68
768.33	1755.11
768.51	1757.16
768.69	1667.05
768.87	1609.70
769.04	1667.05
769.22	1851.36
769.40	1791.97
769.58	1816.55
769.75	1769.44
769.93	1746.92
770.11	1669.09
770.28	1665.00
770.46	1769.44
770.64	1708.01
770.82	1732.58
770.99	1640.42
771.17	1683.43
771.35	1671.14
771.53	1693.67
771.70	1736.68
771.88	1685.48
772.06	1716.20
772.23	1660.90
772.41	1736.68
772.59	1638.38
772.77	1636.33
772.94	1705.96
773.12	1693.67
773.30	1652.71
773.47	1695.72
773.65	1697.77
773.83	1761.25
774.01	1710.05
774.18	1599.46
774.36	1703.91
774.54	1593.32
774.71	1708.01
774.89	1595.37
775.07	1630.18
775.24	1703.91
775.42	1589.22
775.60	1804.26
775.78	1673.19
775.95	1644.52
776.13	1578.98
776.31	1548.26
776.48	1693.67
776.66	1802.21
776.84	1689.57
777.01	1601.51
777.19	1603.56
777.37	1638.38
777.54	1738.73
777.72	1740.77
777.90	1751.01
778.07	1652.71
778.25	1841.12
778.43	1808.36
778.60	1644.52
778.78	1748.97
778.96	1720.29
779.13	1687.53
779.31	1771.49
779.49	1738.73
779.66	1691.62
779.84	1685.48
780.01	1724.39
780.19	1611.75
780.37	1679.33
780.54	1671.14
780.72	1689.57
780.90	1693.67
781.07	1646.57
781.25	1675.24
781.43	1728.49
781.60	1685.48
781.78	1732.58
781.95	1708.01
782.13	1665.00
782.31	1753.06
782.48	1578.98
782.66	1658.85
782.83	1824.74
783.01	1857.51
783.19	1640.42
783.36	1699.81
783.54	1634.28
783.72	1730.53
783.89	1685.48
784.07	1738.73
784.24	1761.25
784.42	1783.78
784.60	1697.77
784.77	1761.25
784.95	1593.32
785.12	1689.57
785.30	1755.11
785.47	1667.05
785.65	1697.77
785.83	1734.63
786.00	1662.95
786.18	1681.38
786.35	1595.37
786.53	1615.85
786.71	1712.10
786.88	1767.40
787.06	1759.21
787.23	1638.38
787.41	1658.85
787.58	1730.53
787.76	1619.94
787.94	1759.21
788.11	1734.63
788.29	1597.42
788.46	1648.61
788.64	1630.18
788.81	1726.44
788.99	1724.39
789.16	1648.61
789.34	1714.15
789.52	1685.48
789.69	1673.19
789.87	1591.27
790.04	1726.44
790.22	1767.40
790.39	1824.74
790.57	1589.22
790.74	1701.86
790.92	1828.84
791.09	1581.03
791.27	1626.09
791.44	1775.59
791.62	1724.39
791.79	1794.02
791.97	1683.43
792.15	1834.98
792.32	1712.10
792.50	1746.92
792.67	1773.54
792.85	1734.63
793.02	1673.19
793.20	1691.62
793.37	1644.52
793.55	1710.05
793.72	1662.95
793.90	1759.21
794.07	1626.09
794.25	1638.38
794.42	1718.25
794.60	1689.57
794.77	1761.25
794.95	1699.81
795.12	1714.15
795.30	1667.05
795.47	1615.85
795.65	1869.80
795.82	1632.23
796.00	1636.33
796.17	1736.68
796.34	1640.42
796.52	1693.67
796.69	1757.16
796.87	1779.68
797.04	1740.77
797.22	1665.00
797.39	1740.77
797.57	1734.63
797.74	1718.25
797.92	1753.06
798.09	1703.91
798.27	1695.72
798.44	1656.81
798.62	1662.95
798.79	1710.05
798.96	1705.96
799.14	1773.54
799.31	1863.65
799.49	1681.38
799.66	1697.77
799.84	1746.92
800.01	1646.57
800.19	1660.90
800.36	1587.18
800.53	1746.92
800.71	1697.77
800.88	1751.01
801.06	1636.33
801.23	1656.81
801.41	1718.25
801.58	1662.95
801.75	1779.68
801.93	1722.34
802.10	1716.20
802.28	1624.04
802.45	1703.91
802.63	1701.86
802.80	1779.68
802.97	1642.47
803.15	1652.71
803.32	1648.61
803.50	1667.05
803.67	1648.61
803.84	1669.09
804.02	1695.72
804.19	1710.05
804.37	1511.40
804.54	1689.57
804.71	1773.54
804.89	1703.91
805.06	1673.19
805.24	1671.14
805.41	1644.52
805.58	1634.28
805.76	1820.64
805.93	1759.21
806.10	1732.58
806.28	1738.73
806.45	1683.43
806.63	1763.30
806.80	1703.91
806.97	1703.91
807.15	1665.00
807.32	1693.67
807.49	1720.29
807.67	1593.32
807.84	1753.06
808.01	1591.27
808.19	1834.98
808.36	1800.16
808.54	1740.77
808.71	1691.62
808.88	1691.62
809.06	1732.58
809.23	1734.63
809.40	1701.86
809.58	1728.49
809.75	1675.24
809.92	1636.33
810.10	1828.84
810.27	1771.49
810.44	1740.77
810.62	1757.16
810.79	1683.43
810.96	1681.38
811.14	1587.18
811.31	1679.33
811.48	1755.11
811.66	1753.06
811.83	1773.54
812.00	1732.58
812.18	1669.09
812.35	1765.35
812.52	1716.20
812.69	1624.04
812.87	1697.77
813.04	1687.53
813.21	1693.67
813.39	1712.10
813.56	1624.04
813.73	1763.30
813.91	1531.88
814.08	1640.42
814.25	1693.67
814.42	1624.04
814.60	1714.15
814.77	1763.30
814.94	1658.85
815.12	1755.11
815.29	1779.68
815.46	1708.01
815.63	1710.05
815.81	1652.71
815.98	1646.57
816.15	1675.24
816.33	1751.01
816.50	1628.14
816.67	1718.25
816.84	1691.62
817.02	1572.84
817.19	1722.34
817.36	1736.68
817.53	1714.15
817.71	1648.61
817.88	1755.11
818.05	1718.25
818.22	1648.61
818.40	1771.49
818.57	1730.53
818.74	1691.62
818.91	1728.49
819.09	1746.92
819.26	1775.59
819.43	1671.14
819.60	1673.19
819.78	1732.58
819.95	1708.01
820.12	1613.80
820.29	1742.82
820.47	1753.06
820.64	1630.18
820.81	1718.25
820.98	1703.91
821.15	1675.24
821.33	1783.78
821.50	1642.47
821.67	1681.38
821.84	1650.66
822.02	1765.35
822.19	1818.60
822.36	1660.90
822.53	1705.96
822.70	1628.14
822.88	1683.43
823.05	1816.55
823.22	1662.95
823.39	1693.67
823.56	1716.20
823.74	1742.82
823.91	1658.85
824.08	1656.81
824.25	1642.47
824.42	1812.45
824.60	1675.24
824.77	1718.25
824.94	1679.33
825.11	1673.19
825.28	1624.04
825.45	1642.47
825.63	1677.29
825.80	1675.24
825.97	1779.68
826.14	1697.77
826.31	1654.76
826.48	1722.34
826.66	1681.38
826.83	1683.43
827.00	1748.97
827.17	1734.63
827.34	1689.57
827.51	1728.49
827.69	1673.19
827.86	1605.61
828.03	1681.38
828.20	1673.19
828.37	1673.19
828.54	1730.53
828.71	1679.33
828.89	1775.59
829.06	1667.05
829.23	1787.88
829.40	1669.09
829.57	1675.24
829.74	1769.44
829.91	1607.66
830.09	1650.66
830.26	1763.30
830.43	1714.15
830.60	1646.57
830.77	1765.35
830.94	1785.83
831.11	1701.86
831.28	1646.57
831.46	1759.21
831.63	1675.24
831.80	1746.92
831.97	1675.24
832.14	1595.37
832.31	1708.01
832.48	1697.77
832.65	1722.34
832.82	1693.67
832.99	1671.14
833.17	1644.52
833.34	1791.97
833.51	1718.25
833.68	1632.23
833.85	1791.97
834.02	1626.09
834.19	1593.32
834.36	1642.47
834.53	1757.16
834.70	1732.58
834.87	1744.87
835.04	1794.02
835.22	1568.74
835.39	1724.39
835.56	1607.66
835.73	1712.10
835.90	1667.05
836.07	1656.81
836.24	1703.91
836.41	1658.85
836.58	1671.14
836.75	1710.05
836.92	1699.81
837.09	1660.90
837.26	1763.30
837.43	1667.05
837.60	1720.29
837.77	1710.05
837.94	1705.96
838.12	1808.36
838.29	1662.95
838.46	1681.38
838.63	1630.18
838.80	1732.58
838.97	1687.53
839.14	1724.39
839.31	1603.56
839.48	1796.07
839.65	1705.96
839.82	1771.49
839.99	1640.42
840.16	1757.16
840.33	1687.53
840.50	1683.43
840.67	1671.14
840.84	1617.90
841.01	1681.38
841.18	1640.42
841.35	1630.18
841.52	1730.53
841.69	1769.44
841.86	1730.53
842.03	1640.42
842.20	1740.77
842.37	1703.91
842.54	1722.34
842.71	1671.14
842.88	1603.56
843.05	1734.63
843.22	1689.57
843.39	1652.71
843.56	1667.05
843.73	1783.78
843.90	1701.86
844.07	1755.11
844.24	1767.40
844.41	1779.68
844.58	1718.25
844.75	1646.57
844.92	1710.05
845.09	1693.67
845.26	1654.76
845.43	1685.48
845.60	1568.74
845.77	1718.25
845.94	1732.58
846.10	1740.77
846.27	1607.66
846.44	1673.19
846.61	1607.66
846.78	1802.21
846.95	1771.49
847.12	1677.29
847.29	1724.39
847.46	1624.04
847.63	1771.49
847.80	1626.09
847.97	1673.19
848.14	1826.79
848.31	1679.33
848.48	1650.66
848.65	1728.49
848.82	1679.33
848.98	1837.03
849.15	1734.63
849.32	1648.61
849.49	1787.88
849.66	1718.25
849.83	1802.21
850.00	1634.28
850.17	1693.67
850.34	1718.25
850.51	1695.72
850.68	1624.04
850.85	1857.51
851.01	1699.81
851.18	1646.57
851.35	1759.21
851.52	1771.49
851.69	1779.68
851.86	1693.67
852.03	1683.43
852.20	1744.87
852.37	1722.34
852.53	1691.62
852.70	1718.25
852.87	1710.05
853.04	1716.20
853.21	1636.33
853.38	1751.01
853.55	1794.02
853.72	1773.54
853.89	1681.38
854.05	1609.70
854.22	1716.20
854.39	1669.09
854.56	1800.16
854.73	1734.63
854.90	1714.15
855.07	1665.00
855.23	1771.49
855.40	1667.05
855.57	1648.61
855.74	1574.89
855.91	1818.60
856.08	1615.85
856.25	1599.46
856.41	1701.86
856.58	1687.53
856.75	1746.92
856.92	1687.53
857.09	1746.92
857.26	1611.75
857.42	1720.29
857.59	1695.72
857.76	1658.85
857.93	1746.92
858.10	1665.00
858.27	1628.14
858.43	1669.09
858.60	1673.19
858.77	1621.99
858.94	1681.38
859.11	1794.02
859.27	1652.71
859.44	1621.99
859.61	1775.59
859.78	1765.35
859.95	1665.00
860.12	1640.42
860.28	1851.36
860.45	1822.69
860.62	1722.34
860.79	1732.58
860.95	1712.10
861.12	1642.47
861.29	1712.10
861.46	1642.47
861.63	1652.71
861.79	1714.15
861.96	1593.32
862.13	1673.19
862.30	1763.30
862.47	1683.43
862.63	1722.34
862.80	1716.20
862.97	1767.40
863.14	1732.58
863.30	1720.29
863.47	1619.94
863.64	1796.07
863.81	1699.81
863.97	1656.81
864.14	1624.04
864.31	1646.57
864.48	1746.92
864.65	1689.57
864.81	1691.62
864.98	1757.16
865.15	1771.49
865.32	1759.21
865.48	1734.63
865.65	1757.16
865.82	1617.90
865.98	1744.87
866.15	1697.77
866.32	1726.44
866.49	1683.43
866.65	1746.92
866.82	1710.05
866.99	1746.92
867.16	1621.99
867.32	1697.77
867.49	1591.27
867.66	1718.25
867.83	1654.76
867.99	1662.95
868.16	1648.61
868.33	1683.43
868.49	1710.05
868.66	1728.49
868.83	1693.67
868.99	1728.49
869.16	1716.20
869.33	1718.25
869.50	1699.81
869.66	1734.63
869.83	1687.53
870.00	1621.99
870.16	1701.86
870.33	1650.66
870.50	1656.81
870.66	1695.72
870.83	1769.44
871.00	1648.61
871.17	1726.44
871.33	1681.38
871.50	1703.91
871.67	1652.71
871.83	1658.85
872.00	1880.04
872.17	1669.09
872.33	1814.50
872.50	1746.92
872.67	1652.71
872.83	1642.47
873.00	1734.63
873.17	1642.47
873.33	1726.44
873.50	1712.10
873.67	1712.10
873.83	1708.01
874.00	1724.39
874.16	1773.54
874.33	1705.96
874.50	1632.23
874.66	1773.54
874.83	1689.57
875.00	1812.45
875.16	1722.34
875.33	1796.07
875.50	1595.37
875.66	1679.33
875.83	1638.38
875.99	1767.40
876.16	1669.09
876.33	1646.57
876.49	1662.95
876.66	1730.53
876.83	1667.05
876.99	1656.81
877.16	1689.57
877.32	1693.67
877.49	1687.53
877.66	1783.78
877.82	1826.79
877.99	1669.09
878.15	1746.92
878.32	1675.24
878.49	1687.53
878.65	1626.09
878.82	1742.82
878.98	1632.23
879.15	1757.16
879.32	1644.52
879.48	1773.54
879.65	1683.43
879.81	1650.66
879.98	1732.58
880.15	1691.62
880.31	1656.81
880.48	1632.23
880.64	1675.24
880.81	1714.15
880.97	1791.97
881.14	1730.53
881.31	1691.62
881.47	1886.18
881.64	1669.09
881.80	1656.81
881.97	1732.58
882.13	1773.54
882.30	1669.09
882.47	1615.85
882.63	1662.95
882.80	1677.29
882.96	1581.03
883.13	1771.49
883.29	1726.44
883.46	1722.34
883.62	1798.12
883.79	1654.76
883.95	1703.91
884.12	1644.52
884.29	1765.35
884.45	1730.53
884.62	1779.68
884.78	1667.05
884.95	1722.34
885.11	1654.76
885.28	1732.58
885.44	1681.38
885.61	1736.68
885.77	1697.77
885.94	1732.58
886.10	1720.29
886.27	1734.63
886.43	1806.31
886.60	1791.97
886.76	1648.61
886.93	1628.14
887.09	1665.00
887.26	1603.56
887.42	1691.62
887.59	1740.77
887.75	1861.60
887.92	1751.01
888.08	1757.16
888.25	1820.64
888.41	1687.53
888.58	1603.56
888.74	1638.38
888.91	1660.90
>>>>>End Processed Spectral Data<<<<<
