SpectraSuite Data File
++++++++++++++++++++++++++++++++++++
Date: Mon Jun 06 16:24:57 CEST 2016
User: root
Dark Spectrum Present: No
Reference Spectrum Present: No
Number of Sampled Component Spectra: 1
Spectrometers: USB4C02835
Integration Time (usec): 100000 (USB4C02835)
Spectra Averaged: 1 (USB4C02835)
Boxcar Smoothing: 0 (USB4C02835)
Correct for Electrical Dark: No (USB4C02835)
Strobe/Lamp Enabled: No (USB4C02835)
Correct for Detector Non-linearity: No (USB4C02835)
Correct for Stray Light: No (USB4C02835)
Number of Pixels in Processed Spectrum: 3648
>>>>>Begin Processed Spectral Data<<<<<
177.47	1492.97
177.69	1492.97
177.91	1492.97
178.13	1474.54
178.36	1492.97
178.58	1662.95
178.80	1767.40
179.02	1587.18
179.24	1699.81
179.46	1726.44
179.68	1767.40
179.90	1689.57
180.13	1708.01
180.35	1632.23
180.57	1712.10
180.79	1779.68
181.01	1697.77
181.23	1744.87
181.45	1767.40
181.67	1724.39
181.90	1744.87
182.12	1591.27
182.34	1517.54
182.56	1765.35
182.78	1708.01
183.00	1667.05
183.22	1718.25
183.44	1554.41
183.66	1843.17
183.89	1818.60
184.11	1695.72
184.33	1695.72
184.55	1814.50
184.77	1734.63
184.99	1763.30
185.21	1667.05
185.43	1880.04
185.65	1648.61
185.87	1703.91
186.10	1910.75
186.32	1796.07
186.54	1693.67
186.76	1761.25
186.98	1804.26
187.20	1648.61
187.42	1740.77
187.64	1671.14
187.86	1806.31
188.08	1771.49
188.30	1714.15
188.52	1673.19
188.75	1748.97
188.97	1773.54
189.19	1683.43
189.41	1710.05
189.63	1708.01
189.85	1630.18
190.07	1621.99
190.29	1632.23
190.51	1677.29
190.73	1673.19
190.95	1726.44
191.17	1673.19
191.39	1621.99
191.61	1720.29
191.84	1683.43
192.06	1767.40
192.28	1646.57
192.50	1857.51
192.72	1769.44
192.94	1667.05
193.16	1810.40
193.38	1763.30
193.60	1734.63
193.82	1654.76
194.04	1767.40
194.26	1667.05
194.48	1779.68
194.70	1705.96
194.92	1673.19
195.14	1746.92
195.36	1703.91
195.58	1763.30
195.80	1683.43
196.02	1755.11
196.24	1691.62
196.46	1718.25
196.69	1697.77
196.91	1894.37
197.13	1673.19
197.35	1652.71
197.57	1769.44
197.79	1746.92
198.01	1757.16
198.23	1757.16
198.45	1691.62
198.67	1693.67
198.89	1779.68
199.11	1689.57
199.33	1679.33
199.55	1583.08
199.77	1656.81
199.99	1720.29
200.21	1671.14
200.43	1677.29
200.65	1630.18
200.87	1671.14
201.09	1662.95
201.31	1728.49
201.53	1728.49
201.75	1818.60
201.97	1675.24
202.19	1705.96
202.41	1742.82
202.63	1794.02
202.85	1734.63
203.07	1804.26
203.29	1699.81
203.51	1693.67
203.73	1699.81
203.95	1820.64
204.17	1683.43
204.39	1691.62
204.61	1679.33
204.83	1642.47
205.05	1822.69
205.27	1761.25
205.49	1906.66
205.71	1771.49
205.93	1665.00
206.15	1757.16
206.37	1689.57
206.59	1744.87
206.81	1611.75
207.03	1722.34
207.25	1695.72
207.47	1742.82
207.69	1718.25
207.91	1769.44
208.13	1757.16
208.34	1677.29
208.56	1683.43
208.78	1787.88
209.00	1624.04
209.22	1677.29
209.44	1617.90
209.66	1730.53
209.88	1726.44
210.10	1656.81
210.32	1701.86
210.54	1789.92
210.76	1718.25
210.98	1718.25
211.20	1546.22
211.42	1685.48
211.64	1767.40
211.86	1763.30
212.08	1767.40
212.30	1718.25
212.52	1671.14
212.74	1746.92
212.96	1646.57
213.17	1744.87
213.39	1783.78
213.61	1802.21
213.83	1722.34
214.05	1630.18
214.27	1697.77
214.49	1708.01
214.71	1638.38
214.93	1775.59
215.15	1804.26
215.37	1722.34
215.59	1617.90
215.81	1685.48
216.03	1763.30
216.24	1767.40
216.46	1667.05
216.68	1726.44
216.90	1830.88
217.12	1736.68
217.34	1724.39
217.56	1708.01
217.78	1779.68
218.00	1789.92
218.22	1767.40
218.44	1738.73
218.66	1781.73
218.87	1765.35
219.09	1669.09
219.31	1718.25
219.53	1734.63
219.75	1624.04
219.97	1767.40
220.19	1726.44
220.41	1726.44
220.63	1742.82
220.85	1769.44
221.06	1693.67
221.28	1761.25
221.50	1732.58
221.72	1753.06
221.94	1714.15
222.16	1699.81
222.38	1757.16
222.60	1746.92
222.82	1669.09
223.03	1757.16
223.25	1665.00
223.47	1744.87
223.69	1794.02
223.91	1765.35
224.13	1746.92
224.35	1654.76
224.57	1759.21
224.78	1796.07
225.00	1699.81
225.22	1675.24
225.44	1746.92
225.66	1746.92
225.88	1662.95
226.10	1738.73
226.32	1757.16
226.53	1787.88
226.75	1640.42
226.97	1675.24
227.19	1728.49
227.41	1691.62
227.63	1703.91
227.85	1617.90
228.06	1779.68
228.28	1679.33
228.50	1738.73
228.72	1671.14
228.94	1662.95
229.16	1595.37
229.37	1652.71
229.59	1738.73
229.81	1794.02
230.03	1679.33
230.25	1628.14
230.47	1689.57
230.69	1716.20
230.90	1714.15
231.12	1677.29
231.34	1708.01
231.56	1763.30
231.78	1624.04
232.00	1675.24
232.21	1726.44
232.43	1673.19
232.65	1593.32
232.87	1765.35
233.09	1693.67
233.30	1632.23
233.52	1734.63
233.74	1716.20
233.96	1722.34
234.18	1726.44
234.40	1654.76
234.61	1918.95
234.83	1669.09
235.05	1621.99
235.27	1841.12
235.49	1769.44
235.70	1710.05
235.92	1730.53
236.14	1775.59
236.36	1828.84
236.58	1628.14
236.79	1658.85
237.01	1626.09
237.23	1677.29
237.45	1837.03
237.67	1742.82
237.88	1771.49
238.10	1880.04
238.32	1652.71
238.54	1673.19
238.76	1771.49
238.97	1646.57
239.19	1708.01
239.41	1738.73
239.63	1730.53
239.85	1712.10
240.06	1681.38
240.28	1710.05
240.50	1748.97
240.72	1705.96
240.93	1748.97
241.15	1726.44
241.37	1720.29
241.59	1785.83
241.81	1669.09
242.02	1705.96
242.24	1732.58
242.46	1785.83
242.68	1630.18
242.89	1714.15
243.11	1742.82
243.33	1697.77
243.55	1767.40
243.76	1714.15
243.98	1728.49
244.20	1708.01
244.42	1777.64
244.64	1710.05
244.85	1546.22
245.07	1656.81
245.29	1644.52
245.51	1683.43
245.72	1740.77
245.94	1851.36
246.16	1765.35
246.38	1703.91
246.59	1705.96
246.81	1671.14
247.03	1804.26
247.24	1652.71
247.46	1716.20
247.68	1761.25
247.90	1724.39
248.11	1718.25
248.33	1804.26
248.55	1644.52
248.77	1755.11
248.98	1724.39
249.20	1757.16
249.42	1730.53
249.64	1708.01
249.85	1755.11
250.07	1677.29
250.29	1742.82
250.50	1767.40
250.72	1714.15
250.94	1755.11
251.16	1773.54
251.37	1791.97
251.59	1701.86
251.81	1624.04
252.02	1847.27
252.24	1730.53
252.46	1791.97
252.68	1669.09
252.89	1681.38
253.11	1595.37
253.33	1843.17
253.54	1742.82
253.76	1619.94
253.98	1638.38
254.20	1730.53
254.41	1669.09
254.63	1628.14
254.85	1654.76
255.06	1667.05
255.28	1673.19
255.50	1726.44
255.71	1628.14
255.93	1656.81
256.15	1665.00
256.36	1665.00
256.58	1550.31
256.80	1796.07
257.02	1689.57
257.23	1716.20
257.45	1744.87
257.67	1767.40
257.88	1660.90
258.10	1728.49
258.32	1683.43
258.53	1714.15
258.75	1886.18
258.97	1689.57
259.18	1746.92
259.40	1617.90
259.62	1789.92
259.83	1785.83
260.05	1718.25
260.27	1929.19
260.48	1724.39
260.70	1607.66
260.92	1687.53
261.13	1783.78
261.35	1716.20
261.57	1724.39
261.78	1599.46
262.00	1624.04
262.22	1744.87
262.43	1718.25
262.65	1667.05
262.86	1714.15
263.08	1837.03
263.30	1699.81
263.51	1689.57
263.73	1697.77
263.95	1832.93
264.16	1697.77
264.38	1683.43
264.60	1757.16
264.81	1708.01
265.03	1818.60
265.25	1771.49
265.46	1720.29
265.68	1789.92
265.89	1771.49
266.11	1597.42
266.33	1826.79
266.54	1802.21
266.76	1675.24
266.98	1716.20
267.19	1841.12
267.41	1787.88
267.62	1677.29
267.84	1689.57
268.06	1665.00
268.27	1744.87
268.49	1765.35
268.70	1826.79
268.92	1642.47
269.14	1658.85
269.35	1650.66
269.57	1708.01
269.79	1724.39
270.00	1710.05
270.22	1832.93
270.43	1640.42
270.65	1599.46
270.87	1726.44
271.08	1726.44
271.30	1757.16
271.51	1630.18
271.73	1681.38
271.95	1736.68
272.16	1736.68
272.38	1695.72
272.59	1681.38
272.81	1708.01
273.02	1724.39
273.24	1705.96
273.46	1816.55
273.67	1656.81
273.89	1693.67
274.10	1781.73
274.32	1771.49
274.54	1769.44
274.75	1740.77
274.97	1644.52
275.18	1783.78
275.40	1742.82
275.61	1708.01
275.83	1703.91
276.05	1619.94
276.26	1751.01
276.48	1769.44
276.69	1681.38
276.91	1718.25
277.12	1777.64
277.34	1818.60
277.55	1714.15
277.77	1679.33
277.99	1669.09
278.20	1636.33
278.42	1673.19
278.63	1640.42
278.85	1724.39
279.06	1638.38
279.28	1771.49
279.49	1726.44
279.71	1701.86
279.93	1767.40
280.14	1632.23
280.36	1685.48
280.57	1732.58
280.79	1769.44
281.00	1656.81
281.22	1726.44
281.43	1837.03
281.65	1591.27
281.86	1624.04
282.08	1691.62
282.29	1779.68
282.51	1701.86
282.73	1679.33
282.94	1628.14
283.16	1720.29
283.37	1794.02
283.59	1681.38
283.80	1763.30
284.02	1738.73
284.23	1771.49
284.45	1705.96
284.66	1697.77
284.88	1619.94
285.09	1689.57
285.31	1806.31
285.52	1781.73
285.74	1630.18
285.95	1769.44
286.17	1738.73
286.38	1769.44
286.60	1712.10
286.81	1681.38
287.03	1638.38
287.24	1738.73
287.46	1738.73
287.67	1728.49
287.89	1789.92
288.10	1660.90
288.32	1699.81
288.53	1794.02
288.75	1783.78
288.96	1742.82
289.18	1705.96
289.39	1665.00
289.61	1787.88
289.82	1851.36
290.04	1812.45
290.25	1681.38
290.47	1712.10
290.68	1683.43
290.90	1740.77
291.11	1656.81
291.33	1730.53
291.54	1746.92
291.76	1660.90
291.97	1828.84
292.18	1732.58
292.40	1755.11
292.61	1728.49
292.83	1845.22
293.04	1800.16
293.26	1650.66
293.47	1660.90
293.69	1654.76
293.90	1773.54
294.12	1726.44
294.33	1683.43
294.55	1708.01
294.76	1769.44
294.97	1814.50
295.19	1791.97
295.40	1662.95
295.62	1763.30
295.83	1769.44
296.05	1624.04
296.26	1763.30
296.48	1654.76
296.69	1751.01
296.90	1662.95
297.12	1720.29
297.33	1708.01
297.55	1714.15
297.76	1748.97
297.98	1763.30
298.19	1763.30
298.41	1685.48
298.62	1656.81
298.83	1787.88
299.05	1722.34
299.26	1673.19
299.48	1636.33
299.69	1738.73
299.90	1693.67
300.12	1667.05
300.33	1787.88
300.55	1730.53
300.76	1714.15
300.98	1652.71
301.19	1742.82
301.40	1691.62
301.62	1681.38
301.83	1779.68
302.05	1714.15
302.26	1748.97
302.47	1724.39
302.69	1654.76
302.90	1665.00
303.12	1638.38
303.33	1734.63
303.54	1771.49
303.76	1679.33
303.97	1742.82
304.19	1802.21
304.40	1605.61
304.61	1730.53
304.83	1845.22
305.04	1705.96
305.26	1775.59
305.47	1665.00
305.68	1693.67
305.90	1650.66
306.11	1755.11
306.33	1824.74
306.54	1691.62
306.75	1638.38
306.97	1656.81
307.18	1697.77
307.39	1652.71
307.61	1753.06
307.82	1712.10
308.04	1755.11
308.25	1716.20
308.46	1734.63
308.68	1628.14
308.89	1724.39
309.10	1849.32
309.32	1730.53
309.53	1769.44
309.74	1673.19
309.96	1705.96
310.17	1769.44
310.39	1652.71
310.60	1755.11
310.81	1701.86
311.03	1671.14
311.24	1693.67
311.45	1708.01
311.67	1781.73
311.88	1781.73
312.09	1634.28
312.31	1687.53
312.52	1703.91
312.73	1695.72
312.95	1613.80
313.16	1730.53
313.37	1759.21
313.59	1742.82
313.80	1773.54
314.01	1828.84
314.23	1693.67
314.44	1685.48
314.65	1613.80
314.87	1665.00
315.08	1714.15
315.29	1677.29
315.51	1673.19
315.72	1640.42
315.93	1796.07
316.15	1736.68
316.36	1685.48
316.57	1677.29
316.79	1796.07
317.00	1650.66
317.21	1751.01
317.43	1646.57
317.64	1683.43
317.85	1710.05
318.07	1615.85
318.28	1748.97
318.49	1861.60
318.70	1912.80
318.92	1759.21
319.13	1800.16
319.34	1882.08
319.56	1755.11
319.77	1841.12
319.98	1839.08
320.20	1798.12
320.41	1814.50
320.62	1810.40
320.83	1648.61
321.05	1867.75
321.26	1773.54
321.47	1695.72
321.69	1832.93
321.90	1611.75
322.11	1644.52
322.32	1675.24
322.54	1759.21
322.75	1638.38
322.96	1884.13
323.18	1689.57
323.39	1613.80
323.60	1726.44
323.81	1748.97
324.03	1712.10
324.24	1740.77
324.45	1697.77
324.66	1689.57
324.88	1810.40
325.09	1802.21
325.30	1763.30
325.52	1714.15
325.73	1763.30
325.94	1675.24
326.15	1640.42
326.37	1671.14
326.58	1751.01
326.79	1800.16
327.00	1656.81
327.22	1755.11
327.43	1689.57
327.64	1624.04
327.85	1746.92
328.07	1705.96
328.28	1783.78
328.49	1667.05
328.70	1718.25
328.92	1714.15
329.13	1677.29
329.34	1693.67
329.55	1781.73
329.76	1718.25
329.98	1691.62
330.19	1765.35
330.40	1767.40
330.61	1738.73
330.83	1730.53
331.04	1714.15
331.25	1671.14
331.46	1675.24
331.68	1665.00
331.89	1796.07
332.10	1759.21
332.31	1660.90
332.52	1763.30
332.74	1828.84
332.95	1650.66
333.16	1718.25
333.37	1681.38
333.58	1652.71
333.80	1638.38
334.01	1587.18
334.22	1693.67
334.43	1626.09
334.64	1697.77
334.86	1642.47
335.07	1607.66
335.28	1796.07
335.49	1644.52
335.70	1726.44
335.92	1779.68
336.13	1800.16
336.34	1828.84
336.55	1710.05
336.76	1769.44
336.98	1599.46
337.19	1681.38
337.40	1783.78
337.61	1882.08
337.82	1681.38
338.04	1671.14
338.25	1699.81
338.46	1691.62
338.67	1710.05
338.88	1648.61
339.09	1656.81
339.31	1638.38
339.52	1665.00
339.73	1701.86
339.94	1667.05
340.15	1748.97
340.36	1673.19
340.58	1722.34
340.79	1640.42
341.00	1740.77
341.21	1748.97
341.42	1732.58
341.63	1726.44
341.85	1732.58
342.06	1753.06
342.27	1685.48
342.48	1744.87
342.69	1685.48
342.90	1767.40
343.12	1814.50
343.33	1720.29
343.54	1689.57
343.75	1822.69
343.96	1703.91
344.17	1755.11
344.38	1714.15
344.60	1665.00
344.81	1665.00
345.02	1675.24
345.23	1769.44
345.44	1757.16
345.65	1746.92
345.86	1673.19
346.07	1712.10
346.29	1650.66
346.50	1724.39
346.71	1791.97
346.92	1785.83
347.13	1828.84
347.34	1638.38
347.55	1722.34
347.76	1791.97
347.98	1640.42
348.19	1677.29
348.40	1757.16
348.61	1746.92
348.82	1771.49
349.03	1810.40
349.24	1660.90
349.45	1810.40
349.66	1624.04
349.88	1716.20
350.09	1660.90
350.30	1761.25
350.51	1708.01
350.72	1665.00
350.93	1718.25
351.14	1681.38
351.35	1685.48
351.56	1695.72
351.77	1759.21
351.99	1701.86
352.20	1785.83
352.41	1753.06
352.62	1599.46
352.83	1687.53
353.04	1624.04
353.25	1718.25
353.46	1742.82
353.67	1783.78
353.88	1593.32
354.09	1726.44
354.30	1734.63
354.52	1718.25
354.73	1705.96
354.94	1714.15
355.15	1751.01
355.36	1834.98
355.57	1708.01
355.78	1757.16
355.99	1675.24
356.20	1732.58
356.41	1789.92
356.62	1757.16
356.83	1724.39
357.04	1718.25
357.25	1648.61
357.46	1736.68
357.68	1626.09
357.89	1685.48
358.10	1773.54
358.31	1665.00
358.52	1755.11
358.73	1609.70
358.94	1689.57
359.15	1677.29
359.36	1746.92
359.57	1650.66
359.78	1630.18
359.99	1748.97
360.20	1697.77
360.41	1697.77
360.62	1775.59
360.83	1834.98
361.04	1691.62
361.25	1730.53
361.46	1736.68
361.67	1746.92
361.88	1771.49
362.09	1755.11
362.30	1714.15
362.51	1687.53
362.72	1755.11
362.93	1714.15
363.14	1736.68
363.35	1742.82
363.56	1644.52
363.78	1787.88
363.99	1714.15
364.20	1748.97
364.41	1660.90
364.62	1796.07
364.83	1726.44
365.04	1710.05
365.25	1726.44
365.46	1828.84
365.67	1689.57
365.88	1679.33
366.09	1685.48
366.30	1679.33
366.51	1691.62
366.72	1609.70
366.93	1728.49
367.14	1697.77
367.35	1789.92
367.56	1718.25
367.77	1822.69
367.98	1687.53
368.18	1697.77
368.39	1726.44
368.60	1691.62
368.81	1777.64
369.02	1724.39
369.23	1632.23
369.44	1644.52
369.65	1669.09
369.86	1740.77
370.07	1783.78
370.28	1638.38
370.49	1703.91
370.70	1730.53
370.91	1624.04
371.12	1703.91
371.33	1755.11
371.54	1724.39
371.75	1865.70
371.96	1583.08
372.17	1708.01
372.38	1662.95
372.59	1785.83
372.80	1689.57
373.01	1669.09
373.22	1685.48
373.43	1705.96
373.64	1632.23
373.85	1753.06
374.06	1791.97
374.26	1767.40
374.47	1738.73
374.68	1722.34
374.89	1755.11
375.10	1736.68
375.31	1734.63
375.52	1716.20
375.73	1771.49
375.94	1646.57
376.15	1841.12
376.36	1626.09
376.57	1726.44
376.78	1628.14
376.99	1718.25
377.20	1810.40
377.40	1685.48
377.61	1808.36
377.82	1683.43
378.03	1869.80
378.24	1763.30
378.45	1691.62
378.66	1820.64
378.87	1652.71
379.08	1566.70
379.29	1656.81
379.50	1890.28
379.71	1693.67
379.91	1748.97
380.12	1656.81
380.33	1656.81
380.54	1728.49
380.75	1722.34
380.96	1654.76
381.17	1722.34
381.38	1734.63
381.59	1738.73
381.80	1716.20
382.00	1896.42
382.21	1804.26
382.42	1839.08
382.63	1882.08
382.84	1734.63
383.05	1818.60
383.26	1839.08
383.47	1744.87
383.68	1751.01
383.88	1759.21
384.09	1699.81
384.30	1851.36
384.51	1714.15
384.72	1697.77
384.93	1691.62
385.14	1636.33
385.35	1771.49
385.55	1644.52
385.76	1783.78
385.97	1724.39
386.18	1669.09
386.39	1619.94
386.60	1640.42
386.81	1722.34
387.02	1652.71
387.22	1701.86
387.43	1753.06
387.64	1800.16
387.85	1863.65
388.06	2199.52
388.27	4294.59
388.48	6778.78
388.68	8306.56
388.89	9381.74
389.10	9940.84
389.31	8820.60
389.52	7432.08
389.73	6770.58
389.93	6313.89
390.14	5875.62
390.35	5265.33
390.56	4528.06
390.77	3743.69
390.98	3057.62
391.18	2525.15
391.39	2015.20
391.60	1843.17
391.81	1863.65
392.02	1654.76
392.23	1847.27
392.43	1726.44
392.64	1824.74
392.85	1742.82
393.06	1822.69
393.27	1736.68
393.47	1708.01
393.68	1777.64
393.89	1701.86
394.10	1771.49
394.31	1683.43
394.52	1689.57
394.72	1673.19
394.93	1804.26
395.14	1695.72
395.35	1783.78
395.56	1675.24
395.76	1628.14
395.97	1742.82
396.18	1886.18
396.39	1884.13
396.60	2074.59
396.80	1935.33
397.01	1787.88
397.22	1824.74
397.43	1820.64
397.64	1732.58
397.84	1834.98
398.05	1849.32
398.26	1761.25
398.47	1804.26
398.67	1806.31
398.88	1744.87
399.09	1718.25
399.30	1693.67
399.51	1724.39
399.71	1691.62
399.92	1671.14
400.13	1810.40
400.34	1617.90
400.54	1740.77
400.75	1802.21
400.96	1763.30
401.17	1804.26
401.37	1775.59
401.58	1771.49
401.79	1748.97
402.00	1855.46
402.21	2004.96
402.41	1951.71
402.62	2078.69
402.83	2007.01
403.04	2025.44
403.24	2035.68
403.45	1789.92
403.66	1935.33
403.87	1906.66
404.07	1937.38
404.28	1830.88
404.49	1904.61
404.70	1759.21
404.90	1808.36
405.11	1708.01
405.32	1718.25
405.52	1665.00
405.73	1708.01
405.94	1677.29
406.15	1751.01
406.35	1800.16
406.56	1703.91
406.77	1689.57
406.98	1755.11
407.18	1593.32
407.39	1771.49
407.60	1593.32
407.80	1763.30
408.01	1656.81
408.22	1791.97
408.43	1673.19
408.63	1757.16
408.84	1820.64
409.05	1736.68
409.25	1689.57
409.46	1662.95
409.67	1671.14
409.88	1591.27
410.08	1705.96
410.29	1677.29
410.50	1736.68
410.70	1714.15
410.91	1634.28
411.12	1689.57
411.32	1785.83
411.53	1738.73
411.74	1845.22
411.95	1886.18
412.15	1771.49
412.36	1802.21
412.57	1775.59
412.77	1753.06
412.98	1728.49
413.19	1718.25
413.39	1746.92
413.60	1656.81
413.81	1867.75
414.01	1650.66
414.22	1755.11
414.43	1791.97
414.63	1685.48
414.84	1787.88
415.05	1755.11
415.25	1652.71
415.46	1781.73
415.67	1796.07
415.87	1660.90
416.08	1687.53
416.29	1675.24
416.49	1794.02
416.70	1708.01
416.91	1771.49
417.11	1714.15
417.32	1714.15
417.53	1755.11
417.73	1763.30
417.94	1746.92
418.15	1730.53
418.35	1740.77
418.56	1730.53
418.77	1826.79
418.97	1675.24
419.18	1660.90
419.38	1716.20
419.59	1701.86
419.80	1814.50
420.00	1693.67
420.21	1699.81
420.42	1744.87
420.62	1779.68
420.83	1673.19
421.04	1613.80
421.24	1689.57
421.45	1800.16
421.65	1685.48
421.86	1712.10
422.07	1751.01
422.27	1757.16
422.48	1748.97
422.69	1671.14
422.89	1720.29
423.10	1714.15
423.30	1687.53
423.51	1640.42
423.72	1714.15
423.92	1736.68
424.13	1669.09
424.33	1771.49
424.54	1720.29
424.75	1705.96
424.95	1808.36
425.16	1759.21
425.36	1632.23
425.57	1742.82
425.78	1732.58
425.98	1787.88
426.19	1705.96
426.39	1611.75
426.60	1744.87
426.81	1714.15
427.01	1722.34
427.22	1732.58
427.42	1634.28
427.63	1787.88
427.83	1761.25
428.04	1873.89
428.25	1779.68
428.45	1716.20
428.66	1771.49
428.86	1699.81
429.07	1712.10
429.28	1810.40
429.48	1734.63
429.69	1656.81
429.89	1744.87
430.10	1660.90
430.30	1738.73
430.51	1728.49
430.71	1599.46
430.92	1765.35
431.13	1669.09
431.33	1722.34
431.54	1699.81
431.74	1871.84
431.95	1796.07
432.15	1705.96
432.36	1714.15
432.56	1781.73
432.77	1796.07
432.98	1818.60
433.18	1728.49
433.39	1732.58
433.59	1730.53
433.80	1828.84
434.00	1865.70
434.21	1708.01
434.41	1722.34
434.62	1886.18
434.82	1667.05
435.03	1628.14
435.23	1779.68
435.44	1603.56
435.64	1693.67
435.85	1757.16
436.06	1705.96
436.26	1783.78
436.47	1777.64
436.67	1642.47
436.88	1785.83
437.08	1785.83
437.29	1837.03
437.49	1748.97
437.70	1816.55
437.90	1722.34
438.11	1894.37
438.31	1802.21
438.52	1857.51
438.72	1890.28
438.93	1959.91
439.13	1783.78
439.34	1834.98
439.54	1759.21
439.75	1834.98
439.95	1818.60
440.16	1714.15
440.36	1804.26
440.57	1818.60
440.77	1820.64
440.98	1759.21
441.18	1787.88
441.39	1687.53
441.59	1677.29
441.80	1933.28
442.00	1675.24
442.21	1830.88
442.41	1683.43
442.62	1779.68
442.82	1738.73
443.02	1832.93
443.23	1691.62
443.43	1759.21
443.64	1761.25
443.84	1677.29
444.05	1783.78
444.25	1738.73
444.46	1656.81
444.66	1736.68
444.87	1812.45
445.07	1570.79
445.28	1744.87
445.48	1865.70
445.69	1673.19
445.89	1839.08
446.09	1751.01
446.30	1974.24
446.50	2680.79
446.71	3764.17
446.91	4323.26
447.12	4753.34
447.32	4890.55
447.53	4364.22
447.73	3909.57
447.93	3499.98
448.14	3307.47
448.34	3221.45
448.55	2934.74
448.75	2811.86
448.96	2672.60
449.16	2387.93
449.36	2328.54
449.57	2004.96
449.77	1865.70
449.98	1822.69
450.18	1789.92
450.39	1767.40
450.59	1781.73
450.79	1693.67
451.00	1755.11
451.20	1763.30
451.41	1662.95
451.61	1796.07
451.81	1689.57
452.02	1755.11
452.22	1759.21
452.43	1716.20
452.63	1708.01
452.84	1730.53
453.04	1722.34
453.24	1779.68
453.45	1703.91
453.65	1783.78
453.86	1783.78
454.06	1798.12
454.26	1794.02
454.47	1656.81
454.67	1830.88
454.87	1746.92
455.08	1695.72
455.28	1841.12
455.49	1732.58
455.69	1718.25
455.89	1855.46
456.10	1742.82
456.30	1691.62
456.51	1761.25
456.71	1728.49
456.91	1744.87
457.12	1812.45
457.32	1798.12
457.52	1746.92
457.73	1701.86
457.93	1736.68
458.14	1708.01
458.34	1658.85
458.54	1714.15
458.75	1705.96
458.95	1757.16
459.15	1679.33
459.36	1785.83
459.56	1779.68
459.76	1861.60
459.97	1738.73
460.17	1753.06
460.37	1761.25
460.58	1740.77
460.78	1755.11
460.99	1638.38
461.19	1738.73
461.39	1832.93
461.60	1734.63
461.80	1804.26
462.00	1665.00
462.21	1724.39
462.41	1675.24
462.61	1652.71
462.82	1673.19
463.02	1787.88
463.22	1796.07
463.43	1877.99
463.63	1787.88
463.83	1845.22
464.04	1708.01
464.24	1798.12
464.44	1748.97
464.64	1710.05
464.85	1722.34
465.05	1777.64
465.25	1701.86
465.46	1740.77
465.66	1806.31
465.86	1753.06
466.07	1755.11
466.27	1789.92
466.47	1628.14
466.68	1693.67
466.88	1808.36
467.08	1718.25
467.29	1783.78
467.49	1812.45
467.69	1742.82
467.89	1769.44
468.10	1732.58
468.30	1796.07
468.50	1828.84
468.71	1779.68
468.91	1705.96
469.11	1789.92
469.31	1712.10
469.52	1755.11
469.72	1873.89
469.92	1867.75
470.13	1759.21
470.33	1734.63
470.53	1748.97
470.73	2088.93
470.94	2326.49
471.14	2351.07
471.34	2637.78
471.54	2418.65
471.75	2273.25
471.95	2113.50
472.15	2058.21
472.36	2107.36
472.56	2101.22
472.76	1949.67
472.96	2074.59
473.17	2025.44
473.37	1910.75
473.57	1837.03
473.77	1804.26
473.98	1726.44
474.18	1724.39
474.38	1968.10
474.58	1757.16
474.79	1687.53
474.99	1781.73
475.19	1800.16
475.39	1687.53
475.60	1722.34
475.80	1728.49
476.00	1730.53
476.20	1673.19
476.41	1687.53
476.61	1871.84
476.81	1865.70
477.01	1628.14
477.21	1849.32
477.42	1824.74
477.62	1697.77
477.82	1734.63
478.02	1716.20
478.23	1779.68
478.43	1636.33
478.63	1685.48
478.83	1740.77
479.03	1685.48
479.24	1791.97
479.44	1863.65
479.64	1689.57
479.84	1658.85
480.04	1648.61
480.25	1771.49
480.45	1665.00
480.65	1732.58
480.85	1736.68
481.06	1693.67
481.26	1759.21
481.46	1703.91
481.66	1744.87
481.86	1689.57
482.06	1855.46
482.27	1669.09
482.47	1730.53
482.67	1730.53
482.87	1720.29
483.07	1730.53
483.28	1724.39
483.48	1710.05
483.68	1669.09
483.88	1630.18
484.08	1585.13
484.29	1697.77
484.49	1755.11
484.69	1740.77
484.89	1751.01
485.09	1710.05
485.29	1873.89
485.50	1890.28
485.70	1763.30
485.90	1816.55
486.10	1759.21
486.30	1755.11
486.50	1763.30
486.71	1791.97
486.91	1716.20
487.11	1732.58
487.31	1652.71
487.51	1699.81
487.71	1712.10
487.91	1699.81
488.12	1662.95
488.32	1601.51
488.52	1728.49
488.72	1632.23
488.92	1753.06
489.12	1841.12
489.32	1751.01
489.53	1787.88
489.73	1734.63
489.93	1830.88
490.13	1775.59
490.33	1736.68
490.53	1785.83
490.73	1798.12
490.94	1628.14
491.14	1800.16
491.34	1810.40
491.54	2088.93
491.74	2551.77
491.94	2901.97
492.14	3092.43
492.34	2985.94
492.54	2830.29
492.75	2385.88
492.95	2385.88
493.15	2365.40
493.35	2258.91
493.55	2195.42
493.75	2240.48
493.95	2127.84
494.15	1931.23
494.35	1920.99
494.56	1892.32
494.76	1765.35
494.96	1759.21
495.16	1837.03
495.36	1671.14
495.56	1730.53
495.76	1794.02
495.96	1730.53
496.16	1648.61
496.36	1847.27
496.56	1644.52
496.77	1738.73
496.97	1791.97
497.17	1785.83
497.37	1710.05
497.57	1783.78
497.77	1712.10
497.97	1705.96
498.17	1748.97
498.37	1712.10
498.57	1744.87
498.77	1695.72
498.97	1746.92
499.17	1810.40
499.38	1699.81
499.58	1794.02
499.78	1761.25
499.98	1867.75
500.18	1753.06
500.38	1732.58
500.58	1908.71
500.78	2576.34
500.98	4681.66
501.18	5885.86
501.38	6842.26
501.58	7100.31
501.78	6756.25
501.98	5701.54
502.18	5121.97
502.38	4540.35
502.58	4222.91
502.78	3766.21
502.98	3639.24
503.18	3590.09
503.38	3182.54
503.59	2967.51
503.79	2713.56
503.99	2463.71
504.19	2248.67
504.39	2217.95
504.59	2176.99
504.79	2119.65
504.99	1982.43
505.19	1910.75
505.39	1964.00
505.59	2025.44
505.79	1859.56
505.99	1890.28
506.19	1806.31
506.39	1789.92
506.59	1767.40
506.79	1830.88
506.99	1746.92
507.19	1781.73
507.39	1748.97
507.59	1648.61
507.79	1708.01
507.99	1615.85
508.19	1767.40
508.39	1718.25
508.59	1751.01
508.79	1888.23
508.99	1775.59
509.19	1636.33
509.39	1832.93
509.59	1667.05
509.79	1755.11
509.99	1830.88
510.19	1806.31
510.39	1877.99
510.59	1845.22
510.79	1753.06
510.99	1724.39
511.19	1732.58
511.39	1748.97
511.59	1775.59
511.79	1834.98
511.99	1824.74
512.19	1796.07
512.38	1669.09
512.58	1775.59
512.78	1789.92
512.98	1859.56
513.18	1767.40
513.38	1773.54
513.58	1769.44
513.78	1746.92
513.98	1740.77
514.18	1765.35
514.38	1712.10
514.58	1714.15
514.78	1726.44
514.98	1675.24
515.18	1736.68
515.38	1757.16
515.58	1867.75
515.78	1806.31
515.98	1820.64
516.18	1740.77
516.38	1714.15
516.57	1746.92
516.77	1763.30
516.97	1791.97
517.17	1699.81
517.37	1656.81
517.57	1769.44
517.77	1734.63
517.97	1734.63
518.17	1732.58
518.37	1757.16
518.57	1787.88
518.77	1824.74
518.97	1777.64
519.16	1746.92
519.36	1814.50
519.56	1748.97
519.76	1740.77
519.96	1755.11
520.16	1800.16
520.36	1724.39
520.56	1828.84
520.76	1705.96
520.96	1712.10
521.16	1783.78
521.35	1757.16
521.55	1857.51
521.75	1814.50
521.95	1714.15
522.15	1714.15
522.35	1632.23
522.55	1701.86
522.75	1757.16
522.95	1601.51
523.14	1662.95
523.34	1798.12
523.54	1652.71
523.74	1779.68
523.94	1765.35
524.14	1636.33
524.34	1746.92
524.54	1892.32
524.73	1718.25
524.93	1832.93
525.13	1718.25
525.33	1712.10
525.53	1861.60
525.73	1767.40
525.93	1746.92
526.13	1689.57
526.32	1785.83
526.52	1832.93
526.72	1789.92
526.92	1705.96
527.12	1779.68
527.32	1630.18
527.52	1789.92
527.71	1742.82
527.91	1673.19
528.11	1648.61
528.31	1742.82
528.51	1695.72
528.71	1869.80
528.90	1800.16
529.10	1775.59
529.30	1812.45
529.50	1613.80
529.70	1746.92
529.90	1777.64
530.09	1697.77
530.29	1730.53
530.49	1626.09
530.69	1779.68
530.89	1730.53
531.09	1822.69
531.28	1658.85
531.48	1791.97
531.68	1783.78
531.88	1730.53
532.08	1816.55
532.28	1732.58
532.47	1769.44
532.67	1894.37
532.87	1755.11
533.07	1712.10
533.27	1841.12
533.46	1761.25
533.66	1751.01
533.86	1705.96
534.06	1763.30
534.26	1683.43
534.45	1699.81
534.65	1800.16
534.85	1843.17
535.05	1714.15
535.25	1746.92
535.44	1665.00
535.64	1773.54
535.84	1740.77
536.04	1689.57
536.24	1712.10
536.43	1660.90
536.63	1787.88
536.83	1763.30
537.03	1796.07
537.22	1685.48
537.42	1718.25
537.62	1767.40
537.82	1757.16
538.02	1779.68
538.21	1845.22
538.41	1882.08
538.61	1771.49
538.81	1630.18
539.00	1824.74
539.20	1669.09
539.40	1810.40
539.60	1812.45
539.79	1832.93
539.99	1798.12
540.19	1800.16
540.39	1734.63
540.58	1757.16
540.78	1767.40
540.98	1734.63
541.18	1773.54
541.37	1789.92
541.57	1718.25
541.77	1675.24
541.97	1650.66
542.16	1660.90
542.36	1640.42
542.56	1837.03
542.76	1863.65
542.95	1810.40
543.15	1775.59
543.35	1748.97
543.54	1695.72
543.74	1740.77
543.94	1781.73
544.14	1652.71
544.33	1781.73
544.53	1802.21
544.73	1763.30
544.93	1665.00
545.12	1744.87
545.32	1748.97
545.52	1679.33
545.71	1679.33
545.91	1734.63
546.11	1708.01
546.30	1705.96
546.50	1681.38
546.70	1767.40
546.90	1728.49
547.09	1677.29
547.29	1740.77
547.49	1775.59
547.68	1812.45
547.88	1695.72
548.08	1785.83
548.27	2226.14
548.47	1755.11
548.67	1634.28
548.87	1769.44
549.06	1695.72
549.26	1759.21
549.46	1748.97
549.65	1660.90
549.85	1802.21
550.05	1787.88
550.24	1736.68
550.44	1675.24
550.64	1796.07
550.83	1771.49
551.03	1888.23
551.23	1763.30
551.42	1744.87
551.62	1705.96
551.82	1773.54
552.01	1695.72
552.21	1798.12
552.41	1681.38
552.60	1814.50
552.80	1781.73
553.00	1695.72
553.19	1685.48
553.39	1814.50
553.59	1701.86
553.78	1783.78
553.98	1802.21
554.17	1740.77
554.37	1734.63
554.57	1812.45
554.76	1673.19
554.96	1740.77
555.16	1726.44
555.35	1738.73
555.55	1791.97
555.75	1781.73
555.94	1767.40
556.14	1732.58
556.33	1769.44
556.53	1705.96
556.73	1701.86
556.92	1834.98
557.12	1814.50
557.32	1814.50
557.51	1834.98
557.71	1763.30
557.90	1798.12
558.10	1863.65
558.30	1761.25
558.49	1755.11
558.69	1673.19
558.88	1787.88
559.08	1767.40
559.28	1798.12
559.47	1865.70
559.67	1828.84
559.86	1794.02
560.06	1791.97
560.26	1748.97
560.45	1763.30
560.65	1677.29
560.84	1812.45
561.04	1697.77
561.24	1851.36
561.43	1769.44
561.63	1884.13
561.82	1757.16
562.02	1796.07
562.22	1718.25
562.41	1652.71
562.61	1771.49
562.80	1718.25
563.00	1791.97
563.19	1767.40
563.39	1714.15
563.59	1789.92
563.78	1753.06
563.98	1677.29
564.17	1701.86
564.37	1675.24
564.56	1705.96
564.76	1671.14
564.96	1861.60
565.15	1781.73
565.35	1918.95
565.54	1777.64
565.74	1818.60
565.93	1775.59
566.13	1785.83
566.32	1806.31
566.52	1794.02
566.71	1712.10
566.91	1804.26
567.11	1753.06
567.30	1714.15
567.50	1871.84
567.69	1830.88
567.89	1779.68
568.08	1669.09
568.28	1791.97
568.47	1685.48
568.67	1722.34
568.86	1705.96
569.06	1734.63
569.25	1705.96
569.45	1691.62
569.64	1720.29
569.84	1738.73
570.04	1691.62
570.23	1726.44
570.43	1714.15
570.62	1767.40
570.82	1828.84
571.01	1703.91
571.21	1791.97
571.40	1734.63
571.60	1927.14
571.79	1859.56
571.99	1789.92
572.18	1681.38
572.38	1773.54
572.57	1730.53
572.77	1808.36
572.96	1898.47
573.16	1740.77
573.35	1654.76
573.55	1837.03
573.74	1814.50
573.94	1728.49
574.13	1769.44
574.33	1832.93
574.52	1884.13
574.71	1726.44
574.91	1839.08
575.10	1738.73
575.30	1716.20
575.49	1687.53
575.69	1710.05
575.88	1755.11
576.08	1767.40
576.27	1744.87
576.47	1841.12
576.66	1847.27
576.86	1798.12
577.05	1851.36
577.25	1791.97
577.44	1949.67
577.64	1712.10
577.83	1871.84
578.02	1738.73
578.22	1845.22
578.41	1855.46
578.61	1755.11
578.80	1708.01
579.00	1740.77
579.19	1779.68
579.39	1785.83
579.58	1761.25
579.77	1794.02
579.97	1845.22
580.16	1880.04
580.36	1818.60
580.55	1841.12
580.75	1751.01
580.94	1714.15
581.13	1890.28
581.33	1865.70
581.52	1787.88
581.72	1904.61
581.91	1851.36
582.11	1736.68
582.30	1816.55
582.49	1804.26
582.69	1837.03
582.88	1841.12
583.08	1849.32
583.27	1763.30
583.47	1738.73
583.66	1736.68
583.85	1665.00
584.05	1753.06
584.24	1777.64
584.44	1765.35
584.63	1779.68
584.82	1798.12
585.02	1890.28
585.21	1779.68
585.41	1828.84
585.60	1863.65
585.79	1943.52
585.99	1880.04
586.18	1886.18
586.37	2174.94
586.57	3360.72
586.76	9930.60
586.96	24516.23
587.15	34743.79
587.34	40463.77
587.54	42560.89
587.73	36537.81
587.93	26484.33
588.12	21741.24
588.31	18495.21
588.51	16434.95
588.70	15267.61
588.89	14180.14
589.09	12521.28
589.28	11028.31
589.47	9574.25
589.67	8187.78
589.86	6406.05
590.06	5054.39
590.25	3887.04
590.44	3119.06
590.64	2711.51
590.83	2256.86
591.02	2062.30
591.22	1896.42
591.41	1902.56
591.60	1832.93
591.80	1931.23
591.99	1730.53
592.18	1796.07
592.38	1826.79
592.57	1787.88
592.76	1767.40
592.96	1783.78
593.15	1830.88
593.34	1824.74
593.54	1734.63
593.73	1847.27
593.92	1746.92
594.12	1738.73
594.31	1685.48
594.50	1943.52
594.70	1820.64
594.89	1877.99
595.08	1722.34
595.28	1791.97
595.47	1943.52
595.66	1800.16
595.86	1701.86
596.05	1746.92
596.24	1718.25
596.43	1896.42
596.63	1918.95
596.82	1781.73
597.01	1734.63
597.21	1806.31
597.40	1802.21
597.59	1703.91
597.79	1691.62
597.98	1882.08
598.17	1822.69
598.36	1712.10
598.56	1794.02
598.75	1763.30
598.94	1736.68
599.14	1695.72
599.33	1677.29
599.52	1785.83
599.71	1806.31
599.91	1773.54
600.10	1736.68
600.29	1710.05
600.48	1755.11
600.68	1806.31
600.87	1751.01
601.06	1714.15
601.26	1726.44
601.45	1798.12
601.64	1681.38
601.83	1722.34
602.03	1763.30
602.22	1656.81
602.41	1748.97
602.60	1834.98
602.80	1763.30
602.99	1753.06
603.18	1701.86
603.37	1757.16
603.57	1783.78
603.76	1794.02
603.95	1845.22
604.14	1732.58
604.34	1708.01
604.53	1720.29
604.72	1728.49
604.91	1763.30
605.10	1804.26
605.30	1656.81
605.49	1880.04
605.68	1789.92
605.87	1783.78
606.07	1716.20
606.26	1652.71
606.45	1773.54
606.64	1701.86
606.84	1650.66
607.03	1734.63
607.22	1724.39
607.41	1714.15
607.60	1718.25
607.80	1771.49
607.99	1755.11
608.18	1761.25
608.37	1732.58
608.56	1761.25
608.76	1730.53
608.95	1816.55
609.14	1748.97
609.33	1798.12
609.52	1771.49
609.72	1740.77
609.91	1822.69
610.10	1736.68
610.29	1800.16
610.48	1771.49
610.68	1791.97
610.87	1714.15
611.06	1755.11
611.25	1730.53
611.44	1839.08
611.63	1746.92
611.83	1746.92
612.02	1665.00
612.21	1861.60
612.40	1687.53
612.59	1767.40
612.79	1769.44
612.98	1759.21
613.17	1867.75
613.36	1699.81
613.55	1798.12
613.74	1732.58
613.93	1712.10
614.13	1759.21
614.32	1742.82
614.51	1800.16
614.70	1660.90
614.89	1673.19
615.08	1742.82
615.28	2050.02
615.47	1679.33
615.66	1712.10
615.85	1726.44
616.04	1849.32
616.23	1683.43
616.42	1685.48
616.62	1722.34
616.81	1783.78
617.00	1738.73
617.19	1769.44
617.38	1789.92
617.57	1679.33
617.76	1759.21
617.95	1761.25
618.15	1806.31
618.34	1730.53
618.53	1703.91
618.72	1855.46
618.91	1800.16
619.10	1845.22
619.29	1687.53
619.48	1691.62
619.68	1724.39
619.87	1716.20
620.06	1673.19
620.25	1804.26
620.44	1761.25
620.63	1765.35
620.82	1818.60
621.01	1794.02
621.20	1656.81
621.39	1740.77
621.59	1726.44
621.78	1683.43
621.97	1759.21
622.16	1761.25
622.35	1722.34
622.54	1810.40
622.73	1800.16
622.92	1644.52
623.11	1773.54
623.30	1771.49
623.49	1744.87
623.68	1705.96
623.88	1804.26
624.07	1710.05
624.26	1660.90
624.45	1718.25
624.64	1673.19
624.83	1812.45
625.02	1748.97
625.21	1652.71
625.40	1816.55
625.59	1839.08
625.78	1753.06
625.97	1806.31
626.16	1861.60
626.35	1806.31
626.54	1804.26
626.74	1814.50
626.93	1757.16
627.12	1726.44
627.31	1814.50
627.50	1738.73
627.69	1826.79
627.88	1624.04
628.07	1720.29
628.26	1611.75
628.45	1658.85
628.64	1730.53
628.83	1779.68
629.02	1718.25
629.21	1775.59
629.40	1769.44
629.59	1699.81
629.78	1701.86
629.97	1742.82
630.16	1705.96
630.35	1751.01
630.54	1691.62
630.73	1773.54
630.92	1724.39
631.11	1703.91
631.30	1712.10
631.49	1816.55
631.68	1732.58
631.87	1728.49
632.06	1675.24
632.25	1841.12
632.44	1759.21
632.63	1724.39
632.82	1767.40
633.01	1685.48
633.20	1757.16
633.39	1687.53
633.58	1656.81
633.77	1748.97
633.96	1720.29
634.15	1824.74
634.34	1843.17
634.53	1773.54
634.72	1753.06
634.91	1593.32
635.10	1751.01
635.29	1765.35
635.48	1808.36
635.67	1687.53
635.86	1648.61
636.05	1796.07
636.24	1671.14
636.43	1734.63
636.62	1787.88
636.81	1589.22
637.00	1759.21
637.19	1806.31
637.38	1675.24
637.57	1613.80
637.76	1718.25
637.95	1785.83
638.14	1642.47
638.33	1748.97
638.52	1681.38
638.71	1687.53
638.89	1673.19
639.08	1791.97
639.27	1810.40
639.46	1650.66
639.65	1787.88
639.84	1744.87
640.03	1816.55
640.22	1742.82
640.41	1753.06
640.60	1753.06
640.79	1667.05
640.98	1652.71
641.17	1689.57
641.36	1722.34
641.55	1689.57
641.74	1658.85
641.92	1677.29
642.11	1708.01
642.30	1710.05
642.49	1679.33
642.68	1712.10
642.87	1761.25
643.06	1701.86
643.25	1773.54
643.44	1662.95
643.63	1728.49
643.82	1798.12
644.00	1669.09
644.19	1791.97
644.38	1736.68
644.57	1775.59
644.76	1751.01
644.95	1671.14
645.14	1757.16
645.33	1765.35
645.52	1710.05
645.71	1746.92
645.89	1654.76
646.08	1759.21
646.27	1701.86
646.46	1818.60
646.65	1669.09
646.84	1755.11
647.03	1650.66
647.22	1804.26
647.40	1712.10
647.59	1665.00
647.78	1656.81
647.97	1691.62
648.16	1712.10
648.35	1783.78
648.54	1730.53
648.73	1755.11
648.91	1779.68
649.10	1685.48
649.29	1701.86
649.48	1763.30
649.67	1736.68
649.86	1726.44
650.05	1679.33
650.23	1810.40
650.42	1685.48
650.61	1748.97
650.80	1771.49
650.99	1920.99
651.18	1808.36
651.36	1789.92
651.55	1697.77
651.74	1759.21
651.93	1691.62
652.12	1607.66
652.31	1785.83
652.49	1742.82
652.68	1648.61
652.87	1714.15
653.06	1740.77
653.25	1826.79
653.44	1736.68
653.62	1834.98
653.81	1693.67
654.00	1689.57
654.19	1791.97
654.38	1843.17
654.56	1812.45
654.75	1765.35
654.94	1703.91
655.13	1714.15
655.32	1765.35
655.51	1779.68
655.69	1601.51
655.88	1769.44
656.07	1669.09
656.26	1736.68
656.45	1699.81
656.63	1695.72
656.82	1689.57
657.01	1783.78
657.20	1683.43
657.38	1806.31
657.57	1718.25
657.76	1669.09
657.95	1818.60
658.14	1650.66
658.32	1716.20
658.51	1675.24
658.70	1738.73
658.89	1816.55
659.08	1695.72
659.26	1742.82
659.45	1675.24
659.64	1796.07
659.83	1654.76
660.01	1970.15
660.20	1705.96
660.39	1845.22
660.58	1632.23
660.76	1724.39
660.95	1615.85
661.14	1746.92
661.33	1665.00
661.51	1720.29
661.70	1720.29
661.89	1845.22
662.08	1777.64
662.26	1728.49
662.45	1632.23
662.64	1808.36
662.83	1798.12
663.01	1759.21
663.20	1701.86
663.39	1820.64
663.58	1667.05
663.76	1814.50
663.95	1660.90
664.14	1675.24
664.32	1640.42
664.51	1722.34
664.70	1662.95
664.89	1804.26
665.07	1662.95
665.26	1699.81
665.45	1642.47
665.64	1834.98
665.82	1800.16
666.01	1726.44
666.20	1710.05
666.38	1812.45
666.57	1812.45
666.76	2250.72
666.95	4571.07
667.13	10575.71
667.32	15374.10
667.51	17911.53
667.69	19218.14
667.88	17817.33
668.07	12457.79
668.25	9625.45
668.44	8198.02
668.63	7360.40
668.81	6981.53
669.00	6387.61
669.19	5799.85
669.38	5072.82
669.56	4544.44
669.75	3993.54
669.94	3432.40
670.12	2918.36
670.31	2545.63
670.50	2263.01
670.68	2062.30
670.87	1968.10
671.06	1783.78
671.24	1794.02
671.43	1873.89
671.62	1742.82
671.80	1689.57
671.99	1804.26
672.18	1726.44
672.36	1828.84
672.55	1673.19
672.74	1714.15
672.92	1718.25
673.11	1783.78
673.29	1671.14
673.48	1796.07
673.67	1767.40
673.85	1822.69
674.04	1685.48
674.23	1742.82
674.41	1851.36
674.60	1685.48
674.79	1652.71
674.97	1675.24
675.16	1773.54
675.34	1834.98
675.53	1767.40
675.72	1748.97
675.90	1789.92
676.09	1726.44
676.28	1794.02
676.46	1634.28
676.65	1779.68
676.83	1648.61
677.02	1720.29
677.21	1765.35
677.39	1675.24
677.58	1658.85
677.77	1726.44
677.95	1673.19
678.14	1652.71
678.32	1751.01
678.51	1689.57
678.70	1877.99
678.88	1718.25
679.07	1677.29
679.25	1740.77
679.44	1724.39
679.63	1658.85
679.81	1810.40
680.00	1761.25
680.18	1775.59
680.37	1791.97
680.55	1697.77
680.74	1675.24
680.93	1665.00
681.11	1775.59
681.30	1734.63
681.48	1710.05
681.67	1771.49
681.85	1798.12
682.04	1732.58
682.23	1763.30
682.41	1685.48
682.60	1642.47
682.78	1710.05
682.97	1718.25
683.15	1796.07
683.34	1828.84
683.53	1773.54
683.71	1587.18
683.90	1775.59
684.08	1808.36
684.27	1644.52
684.45	1734.63
684.64	1763.30
684.82	1654.76
685.01	1769.44
685.19	1771.49
685.38	1914.85
685.57	1734.63
685.75	1656.81
685.94	1769.44
686.12	1652.71
686.31	1681.38
686.49	1789.92
686.68	1693.67
686.86	1740.77
687.05	1669.09
687.23	1806.31
687.42	1779.68
687.60	1699.81
687.79	1828.84
687.97	1802.21
688.16	1791.97
688.34	1753.06
688.53	1646.57
688.71	1748.97
688.90	1812.45
689.08	1781.73
689.27	1613.80
689.45	1769.44
689.64	1726.44
689.82	1767.40
690.01	1773.54
690.19	1714.15
690.38	1757.16
690.56	1869.80
690.75	1730.53
690.93	1626.09
691.12	1718.25
691.30	1667.05
691.49	1662.95
691.67	1761.25
691.86	1890.28
692.04	1722.34
692.23	1708.01
692.41	1701.86
692.60	1832.93
692.78	1767.40
692.97	1730.53
693.15	1697.77
693.34	1867.75
693.52	1683.43
693.71	1705.96
693.89	1626.09
694.08	1597.42
694.26	1794.02
694.44	1734.63
694.63	1763.30
694.81	1689.57
695.00	1703.91
695.18	1767.40
695.37	1763.30
695.55	1705.96
695.74	1693.67
695.92	1632.23
696.10	1824.74
696.29	1615.85
696.47	1634.28
696.66	1593.32
696.84	1716.20
697.03	1728.49
697.21	1787.88
697.40	2287.58
697.58	1787.88
697.76	1710.05
697.95	1628.14
698.13	1677.29
698.32	1656.81
698.50	1769.44
698.68	1738.73
698.87	1753.06
699.05	1837.03
699.24	1806.31
699.42	1679.33
699.61	1751.01
699.79	1716.20
699.97	1812.45
700.16	1677.29
700.34	1611.75
700.53	1701.86
700.71	1877.99
700.89	1781.73
701.08	1671.14
701.26	1744.87
701.45	2121.70
701.63	1753.06
701.81	1732.58
702.00	1689.57
702.18	1718.25
702.37	1689.57
702.55	1732.58
702.73	1714.15
702.92	1601.51
703.10	1677.29
703.28	1812.45
703.47	1603.56
703.65	1783.78
703.84	1806.31
704.02	1746.92
704.20	1789.92
704.39	1589.22
704.57	1726.44
704.75	1744.87
704.94	1773.54
705.12	1685.48
705.30	1785.83
705.49	2252.77
705.67	4353.98
705.86	9281.39
706.04	12588.86
706.22	14464.80
706.41	15345.43
706.59	13674.29
706.77	9650.03
706.96	7518.09
707.14	6623.13
707.32	5994.40
707.51	5666.73
707.69	4947.89
707.87	4272.06
708.06	3645.38
708.24	3030.99
708.42	2510.81
708.61	2289.63
708.79	1941.47
708.97	1837.03
709.16	1880.04
709.34	1822.69
709.52	1812.45
709.71	1771.49
709.89	1828.84
710.07	1705.96
710.26	1656.81
710.44	1726.44
710.62	1798.12
710.80	1738.73
710.99	1802.21
711.17	1701.86
711.35	1687.53
711.54	1687.53
711.72	1763.30
711.90	1699.81
712.09	1759.21
712.27	1662.95
712.45	1781.73
712.63	1685.48
712.82	1669.09
713.00	1781.73
713.18	1693.67
713.37	1746.92
713.55	1779.68
713.73	1798.12
713.91	1781.73
714.10	1611.75
714.28	1755.11
714.46	1765.35
714.65	1765.35
714.83	1796.07
715.01	1728.49
715.19	1714.15
715.38	1656.81
715.56	1724.39
715.74	1644.52
715.92	1609.70
716.11	1724.39
716.29	1617.90
716.47	1705.96
716.65	1652.71
716.84	1632.23
717.02	1787.88
717.20	1687.53
717.38	1746.92
717.57	1757.16
717.75	1726.44
717.93	1660.90
718.11	1771.49
718.30	1642.47
718.48	1853.41
718.66	1796.07
718.84	1748.97
719.03	1740.77
719.21	1619.94
719.39	1810.40
719.57	1794.02
719.75	1751.01
719.94	1710.05
720.12	1689.57
720.30	1722.34
720.48	1699.81
720.67	1699.81
720.85	1671.14
721.03	1607.66
721.21	1673.19
721.39	1837.03
721.58	1751.01
721.76	1738.73
721.94	1732.58
722.12	1724.39
722.30	1763.30
722.49	1658.85
722.67	1615.85
722.85	1673.19
723.03	1716.20
723.21	1675.24
723.40	1775.59
723.58	1820.64
723.76	1683.43
723.94	1765.35
724.12	1753.06
724.30	1765.35
724.49	1689.57
724.67	1677.29
724.85	1847.27
725.03	1656.81
725.21	1748.97
725.40	1806.31
725.58	1673.19
725.76	1783.78
725.94	1714.15
726.12	1591.27
726.30	1710.05
726.49	1621.99
726.67	1687.53
726.85	1736.68
727.03	1818.60
727.21	2095.07
727.39	2987.99
727.57	3766.21
727.76	4257.73
727.94	4573.11
728.12	4274.11
728.30	3686.34
728.48	2959.31
728.66	2723.80
728.84	2566.10
729.03	2408.41
729.21	2189.28
729.39	1990.63
729.57	1789.92
729.75	1896.42
729.93	1927.14
730.11	1669.09
730.30	1761.25
730.48	1697.77
730.66	1873.89
730.84	1781.73
731.02	1730.53
731.20	1646.57
731.38	1740.77
731.56	1640.42
731.74	1556.46
731.93	1802.21
732.11	1708.01
732.29	1699.81
732.47	1748.97
732.65	1716.20
732.83	1736.68
733.01	1740.77
733.19	1658.85
733.37	1697.77
733.56	1767.40
733.74	1746.92
733.92	1771.49
734.10	1697.77
734.28	1753.06
734.46	1673.19
734.64	1691.62
734.82	1740.77
735.00	1669.09
735.18	1671.14
735.36	1712.10
735.54	1650.66
735.73	1783.78
735.91	1730.53
736.09	1779.68
736.27	1677.29
736.45	1834.98
736.63	1587.18
736.81	1656.81
736.99	1736.68
737.17	1802.21
737.35	1665.00
737.53	1695.72
737.71	1669.09
737.89	1779.68
738.07	1683.43
738.25	1687.53
738.43	1685.48
738.61	1728.49
738.80	1615.85
738.98	1705.96
739.16	1685.48
739.34	1648.61
739.52	1816.55
739.70	1744.87
739.88	1785.83
740.06	1693.67
740.24	1591.27
740.42	1812.45
740.60	1626.09
740.78	1599.46
740.96	1683.43
741.14	1677.29
741.32	1691.62
741.50	1642.47
741.68	1828.84
741.86	1855.46
742.04	1597.42
742.22	1675.24
742.40	1746.92
742.58	1767.40
742.76	1689.57
742.94	1720.29
743.12	1599.46
743.30	1697.77
743.48	1757.16
743.66	1660.90
743.84	1755.11
744.02	1675.24
744.20	1720.29
744.38	1648.61
744.56	1685.48
744.74	1798.12
744.92	1712.10
745.10	1826.79
745.28	1738.73
745.46	1804.26
745.64	1740.77
745.82	1708.01
746.00	1740.77
746.18	1744.87
746.36	1751.01
746.54	1771.49
746.72	1701.86
746.90	1755.11
747.08	1834.98
747.26	1675.24
747.44	1816.55
747.62	1732.58
747.80	1701.86
747.98	1662.95
748.15	1751.01
748.33	1787.88
748.51	1722.34
748.69	1769.44
748.87	1673.19
749.05	1677.29
749.23	1699.81
749.41	1722.34
749.59	1677.29
749.77	1736.68
749.95	1705.96
750.13	1660.90
750.31	1804.26
750.49	1681.38
750.67	1726.44
750.85	1759.21
751.03	1626.09
751.20	1908.71
751.38	1781.73
751.56	1701.86
751.74	1771.49
751.92	1726.44
752.10	1558.50
752.28	1751.01
752.46	1640.42
752.64	1689.57
752.82	1697.77
753.00	1779.68
753.18	1734.63
753.35	1665.00
753.53	1630.18
753.71	1691.62
753.89	1787.88
754.07	1736.68
754.25	1832.93
754.43	1730.53
754.61	1708.01
754.79	1722.34
754.97	1675.24
755.14	1787.88
755.32	1665.00
755.50	1728.49
755.68	1646.57
755.86	1714.15
756.04	1705.96
756.22	1679.33
756.40	1691.62
756.57	1832.93
756.75	1773.54
756.93	1781.73
757.11	1771.49
757.29	1660.90
757.47	1640.42
757.65	1634.28
757.82	1642.47
758.00	1665.00
758.18	1656.81
758.36	1812.45
758.54	1796.07
758.72	1630.18
758.90	1691.62
759.07	1783.78
759.25	1718.25
759.43	1746.92
759.61	1593.32
759.79	2193.37
759.97	1697.77
760.15	1681.38
760.32	1671.14
760.50	1730.53
760.68	1882.08
760.86	1611.75
761.04	1755.11
761.22	1701.86
761.39	1660.90
761.57	1718.25
761.75	1771.49
761.93	1708.01
762.11	1699.81
762.28	1722.34
762.46	1642.47
762.64	1806.31
762.82	1634.28
763.00	1726.44
763.18	1849.32
763.35	1650.66
763.53	1753.06
763.71	1712.10
763.89	1644.52
764.07	1771.49
764.24	1665.00
764.42	1767.40
764.60	1617.90
764.78	1624.04
764.96	1765.35
765.13	1767.40
765.31	1736.68
765.49	1671.14
765.67	1603.56
765.84	1568.74
766.02	1681.38
766.20	1632.23
766.38	1701.86
766.56	1736.68
766.73	1779.68
766.91	1714.15
767.09	1703.91
767.27	1724.39
767.44	1708.01
767.62	1746.92
767.80	1691.62
767.98	1687.53
768.15	1638.38
768.33	1781.73
768.51	1714.15
768.69	1810.40
768.87	1724.39
769.04	1746.92
769.22	1816.55
769.40	1812.45
769.58	1859.56
769.75	1687.53
769.93	1812.45
770.11	1669.09
770.28	1687.53
770.46	1757.16
770.64	1701.86
770.82	1726.44
770.99	1669.09
771.17	1757.16
771.35	1718.25
771.53	1765.35
771.70	1689.57
771.88	1744.87
772.06	1675.24
772.23	1714.15
772.41	1691.62
772.59	1701.86
772.77	1615.85
772.94	1734.63
773.12	1761.25
773.30	1681.38
773.47	1689.57
773.65	1574.89
773.83	1787.88
774.01	1607.66
774.18	1603.56
774.36	1736.68
774.54	1665.00
774.71	1775.59
774.89	1662.95
775.07	1695.72
775.24	1681.38
775.42	1710.05
775.60	1787.88
775.78	1693.67
775.95	1671.14
776.13	1710.05
776.31	1626.09
776.48	1712.10
776.66	1787.88
776.84	1679.33
777.01	1619.94
777.19	1658.85
777.37	1718.25
777.54	1660.90
777.72	1828.84
777.90	1722.34
778.07	1644.52
778.25	1839.08
778.43	1763.30
778.60	1630.18
778.78	1822.69
778.96	1761.25
779.13	1644.52
779.31	1771.49
779.49	1703.91
779.66	1683.43
779.84	1716.20
780.01	1693.67
780.19	1679.33
780.37	1759.21
780.54	1763.30
780.72	1613.80
780.90	1763.30
781.07	1650.66
781.25	1720.29
781.43	1738.73
781.60	1726.44
781.78	1787.88
781.95	1699.81
782.13	1613.80
782.31	1603.56
782.48	1628.14
782.66	1730.53
782.83	1826.79
783.01	1755.11
783.19	1839.08
783.36	1800.16
783.54	1689.57
783.72	1720.29
783.89	1712.10
784.07	1802.21
784.24	1759.21
784.42	1705.96
784.60	1755.11
784.77	1779.68
784.95	1689.57
785.12	1699.81
785.30	1763.30
785.47	1718.25
785.65	1648.61
785.83	1703.91
786.00	1703.91
786.18	1724.39
786.35	1611.75
786.53	1685.48
786.71	1781.73
786.88	1779.68
787.06	1775.59
787.23	1742.82
787.41	1656.81
787.58	1714.15
787.76	1660.90
787.94	1767.40
788.11	1765.35
788.29	1628.14
788.46	1599.46
788.64	1630.18
788.81	1699.81
788.99	1642.47
789.16	1607.66
789.34	1689.57
789.52	1671.14
789.69	1660.90
789.87	1630.18
790.04	1708.01
790.22	1796.07
790.39	1783.78
790.57	1716.20
790.74	1681.38
790.92	1755.11
791.09	1628.14
791.27	1701.86
791.44	1785.83
791.62	1697.77
791.79	1763.30
791.97	1757.16
792.15	1808.36
792.32	1736.68
792.50	1722.34
792.67	1826.79
792.85	1798.12
793.02	1746.92
793.20	1667.05
793.37	1583.08
793.55	1767.40
793.72	1634.28
793.90	1787.88
794.07	1632.23
794.25	1716.20
794.42	1677.29
794.60	1669.09
794.77	1736.68
794.95	1775.59
795.12	1716.20
795.30	1665.00
795.47	1613.80
795.65	1875.94
795.82	1714.15
796.00	1665.00
796.17	1746.92
796.34	1658.85
796.52	1779.68
796.69	1744.87
796.87	1767.40
797.04	1767.40
797.22	1728.49
797.39	1791.97
797.57	1748.97
797.74	1705.96
797.92	1714.15
798.09	1660.90
798.27	1763.30
798.44	1789.92
798.62	1699.81
798.79	1726.44
798.96	1712.10
799.14	1746.92
799.31	1824.74
799.49	1673.19
799.66	1689.57
799.84	1691.62
800.01	1701.86
800.19	1710.05
800.36	1660.90
800.53	1746.92
800.71	1730.53
800.88	1816.55
801.06	1718.25
801.23	1730.53
801.41	1650.66
801.58	1761.25
801.75	1642.47
801.93	1748.97
802.10	1726.44
802.28	1724.39
802.45	1607.66
802.63	1712.10
802.80	1832.93
802.97	1681.38
803.15	1658.85
803.32	1687.53
803.50	1708.01
803.67	1636.33
803.84	1624.04
804.02	1673.19
804.19	1730.53
804.37	1615.85
804.54	1578.98
804.71	1632.23
804.89	1740.77
805.06	1708.01
805.24	1720.29
805.41	1640.42
805.58	1634.28
805.76	1834.98
805.93	1738.73
806.10	1771.49
806.28	1816.55
806.45	1708.01
806.63	1708.01
806.80	1710.05
806.97	1730.53
807.15	1746.92
807.32	1718.25
807.49	1699.81
807.67	1630.18
807.84	1785.83
808.01	1675.24
808.19	1796.07
808.36	1859.56
808.54	1683.43
808.71	1681.38
808.88	1751.01
809.06	1722.34
809.23	1804.26
809.40	1658.85
809.58	1791.97
809.75	1789.92
809.92	1665.00
810.10	1912.80
810.27	1734.63
810.44	1789.92
810.62	1734.63
810.79	1724.39
810.96	1677.29
811.14	1697.77
811.31	1697.77
811.48	1683.43
811.66	1777.64
811.83	1826.79
812.00	1724.39
812.18	1759.21
812.35	1822.69
812.52	1703.91
812.69	1691.62
812.87	1640.42
813.04	1652.71
813.21	1693.67
813.39	1699.81
813.56	1597.42
813.73	1837.03
813.91	1560.55
814.08	1701.86
814.25	1753.06
814.42	1656.81
814.60	1710.05
814.77	1751.01
814.94	1763.30
815.12	1665.00
815.29	1783.78
815.46	1710.05
815.63	1701.86
815.81	1677.29
815.98	1626.09
816.15	1695.72
816.33	1677.29
816.50	1703.91
816.67	1720.29
816.84	1681.38
817.02	1712.10
817.19	1658.85
817.36	1669.09
817.53	1722.34
817.71	1613.80
817.88	1714.15
818.05	1773.54
818.22	1691.62
818.40	1863.65
818.57	1718.25
818.74	1763.30
818.91	1695.72
819.09	1697.77
819.26	1744.87
819.43	1595.37
819.60	1693.67
819.78	1689.57
819.95	1783.78
820.12	1685.48
820.29	1730.53
820.47	1832.93
820.64	1685.48
820.81	1673.19
820.98	1652.71
821.15	1746.92
821.33	1726.44
821.50	1652.71
821.67	1746.92
821.84	1636.33
822.02	1736.68
822.19	1742.82
822.36	1722.34
822.53	1660.90
822.70	1746.92
822.88	1660.90
823.05	1800.16
823.22	1701.86
823.39	1773.54
823.56	1708.01
823.74	1824.74
823.91	1638.38
824.08	1673.19
824.25	1634.28
824.42	1816.55
824.60	1673.19
824.77	1738.73
824.94	1701.86
825.11	1746.92
825.28	1599.46
825.45	1714.15
825.63	1759.21
825.80	1638.38
825.97	1781.73
826.14	1667.05
826.31	1595.37
826.48	1771.49
826.66	1660.90
826.83	1714.15
827.00	1687.53
827.17	1699.81
827.34	1759.21
827.51	1679.33
827.69	1710.05
827.86	1583.08
828.03	1660.90
828.20	1695.72
828.37	1710.05
828.54	1648.61
828.71	1701.86
828.89	1806.31
829.06	1675.24
829.23	1849.32
829.40	1710.05
829.57	1667.05
829.74	1730.53
829.91	1679.33
830.09	1683.43
830.26	1632.23
830.43	1777.64
830.60	1652.71
830.77	1691.62
830.94	1757.16
831.11	1755.11
831.28	1658.85
831.46	1761.25
831.63	1728.49
831.80	1755.11
831.97	1726.44
832.14	1652.71
832.31	1714.15
832.48	1716.20
832.65	1783.78
832.82	1716.20
832.99	1660.90
833.17	1705.96
833.34	1767.40
833.51	1765.35
833.68	1578.98
833.85	1732.58
834.02	1615.85
834.19	1603.56
834.36	1624.04
834.53	1802.21
834.70	1787.88
834.87	1779.68
835.04	1671.14
835.22	1570.79
835.39	1658.85
835.56	1609.70
835.73	1732.58
835.90	1802.21
836.07	1687.53
836.24	1771.49
836.41	1693.67
836.58	1751.01
836.75	1796.07
836.92	1720.29
837.09	1722.34
837.26	1683.43
837.43	1755.11
837.60	1796.07
837.77	1732.58
837.94	1710.05
838.12	1746.92
838.29	1734.63
838.46	1601.51
838.63	1660.90
838.80	1794.02
838.97	1705.96
839.14	1697.77
839.31	1734.63
839.48	1705.96
839.65	1667.05
839.82	1746.92
839.99	1720.29
840.16	1724.39
840.33	1654.76
840.50	1730.53
840.67	1613.80
840.84	1558.50
841.01	1779.68
841.18	1683.43
841.35	1685.48
841.52	1718.25
841.69	1785.83
841.86	1714.15
842.03	1695.72
842.20	1714.15
842.37	1638.38
842.54	1689.57
842.71	1744.87
842.88	1681.38
843.05	1705.96
843.22	1636.33
843.39	1775.59
843.56	1681.38
843.73	1679.33
843.90	1705.96
844.07	1691.62
844.24	1730.53
844.41	1757.16
844.58	1738.73
844.75	1697.77
844.92	1673.19
845.09	1673.19
845.26	1665.00
845.43	1738.73
845.60	1667.05
845.77	1787.88
845.94	1681.38
846.10	1787.88
846.27	1607.66
846.44	1695.72
846.61	1652.71
846.78	1736.68
846.95	1798.12
847.12	1714.15
847.29	1658.85
847.46	1722.34
847.63	1701.86
847.80	1714.15
847.97	1695.72
848.14	1851.36
848.31	1705.96
848.48	1675.24
848.65	1712.10
848.82	1718.25
848.98	1847.27
849.15	1789.92
849.32	1765.35
849.49	1781.73
849.66	1712.10
849.83	1710.05
850.00	1714.15
850.17	1800.16
850.34	1656.81
850.51	1640.42
850.68	1703.91
850.85	1869.80
851.01	1746.92
851.18	1681.38
851.35	1716.20
851.52	1619.94
851.69	1814.50
851.86	1581.03
852.03	1712.10
852.20	1699.81
852.37	1767.40
852.53	1650.66
852.70	1740.77
852.87	1769.44
853.04	1771.49
853.21	1734.63
853.38	1757.16
853.55	1802.21
853.72	1736.68
853.89	1609.70
854.05	1652.71
854.22	1718.25
854.39	1671.14
854.56	1720.29
854.73	1740.77
854.90	1660.90
855.07	1730.53
855.23	1673.19
855.40	1701.86
855.57	1708.01
855.74	1617.90
855.91	1892.32
856.08	1621.99
856.25	1658.85
856.41	1730.53
856.58	1683.43
856.75	1665.00
856.92	1701.86
857.09	1714.15
857.26	1605.61
857.42	1644.52
857.59	1800.16
857.76	1769.44
857.93	1796.07
858.10	1712.10
858.27	1710.05
858.43	1748.97
858.60	1609.70
858.77	1648.61
858.94	1738.73
859.11	1763.30
859.27	1691.62
859.44	1751.01
859.61	1751.01
859.78	1796.07
859.95	1703.91
860.12	1708.01
860.28	1771.49
860.45	1857.51
860.62	1703.91
860.79	1673.19
860.95	1724.39
861.12	1626.09
861.29	1712.10
861.46	1595.37
861.63	1656.81
861.79	1789.92
861.96	1761.25
862.13	1685.48
862.30	1726.44
862.47	1687.53
862.63	1640.42
862.80	1738.73
862.97	1712.10
863.14	1740.77
863.30	1720.29
863.47	1671.14
863.64	1837.03
863.81	1636.33
863.97	1662.95
864.14	1785.83
864.31	1617.90
864.48	1757.16
864.65	1658.85
864.81	1734.63
864.98	1738.73
865.15	1861.60
865.32	1714.15
865.48	1816.55
865.65	1779.68
865.82	1652.71
865.98	1740.77
866.15	1767.40
866.32	1755.11
866.49	1716.20
866.65	1759.21
866.82	1636.33
866.99	1693.67
867.16	1726.44
867.32	1675.24
867.49	1611.75
867.66	1710.05
867.83	1617.90
867.99	1660.90
868.16	1730.53
868.33	1652.71
868.49	1632.23
868.66	1636.33
868.83	1775.59
868.99	1712.10
869.16	1660.90
869.33	1746.92
869.50	1744.87
869.66	1705.96
869.83	1613.80
870.00	1683.43
870.16	1726.44
870.33	1712.10
870.50	1802.21
870.66	1703.91
870.83	1789.92
871.00	1662.95
871.17	1767.40
871.33	1726.44
871.50	1726.44
871.67	1667.05
871.83	1556.46
872.00	1822.69
872.17	1714.15
872.33	1783.78
872.50	1720.29
872.67	1734.63
872.83	1736.68
873.00	1724.39
873.17	1710.05
873.33	1753.06
873.50	1742.82
873.67	1691.62
873.83	1693.67
874.00	1722.34
874.16	1716.20
874.33	1615.85
874.50	1736.68
874.66	1705.96
874.83	1683.43
875.00	1775.59
875.16	1746.92
875.33	1789.92
875.50	1644.52
875.66	1656.81
875.83	1789.92
875.99	1751.01
876.16	1658.85
876.33	1656.81
876.49	1755.11
876.66	1775.59
876.83	1615.85
876.99	1628.14
877.16	1683.43
877.32	1701.86
877.49	1697.77
877.66	1703.91
877.82	1765.35
877.99	1712.10
878.15	1724.39
878.32	1718.25
878.49	1738.73
878.65	1783.78
878.82	1783.78
878.98	1652.71
879.15	1697.77
879.32	1757.16
879.48	1722.34
879.65	1656.81
879.81	1632.23
879.98	1714.15
880.15	1699.81
880.31	1824.74
880.48	1636.33
880.64	1722.34
880.81	1705.96
880.97	1744.87
881.14	1746.92
881.31	1671.14
881.47	1869.80
881.64	1699.81
881.80	1671.14
881.97	1742.82
882.13	1740.77
882.30	1662.95
882.47	1716.20
882.63	1628.14
882.80	1673.19
882.96	1650.66
883.13	1781.73
883.29	1734.63
883.46	1785.83
883.62	1767.40
883.79	1712.10
883.95	1701.86
884.12	1789.92
884.29	1785.83
884.45	1675.24
884.62	1820.64
884.78	1667.05
884.95	1781.73
885.11	1658.85
885.28	1751.01
885.44	1695.72
885.61	1699.81
885.77	1763.30
885.94	1771.49
886.10	1787.88
886.27	1718.25
886.43	1828.84
886.60	1761.25
886.76	1691.62
886.93	1658.85
887.09	1714.15
887.26	1640.42
887.42	1746.92
887.59	1781.73
887.75	1869.80
887.92	1806.31
888.08	1718.25
888.25	1785.83
888.41	1787.88
888.58	1779.68
888.74	1603.56
888.91	1722.34
>>>>>End Processed Spectral Data<<<<<
