SpectraSuite Data File
++++++++++++++++++++++++++++++++++++
Date: Mon Jun 06 12:46:57 CEST 2016
User: root
Dark Spectrum Present: No
Reference Spectrum Present: No
Number of Sampled Component Spectra: 1
Spectrometers: USB4C02835
Integration Time (usec): 100000 (USB4C02835)
Spectra Averaged: 1 (USB4C02835)
Boxcar Smoothing: 0 (USB4C02835)
Correct for Electrical Dark: No (USB4C02835)
Strobe/Lamp Enabled: No (USB4C02835)
Correct for Detector Non-linearity: No (USB4C02835)
Correct for Stray Light: No (USB4C02835)
Number of Pixels in Processed Spectrum: 3648
>>>>>Begin Processed Spectral Data<<<<<
177.47	1443.82
177.69	1443.82
177.91	1443.82
178.13	1488.87
178.36	1435.63
178.58	1640.42
178.80	1765.35
179.02	1640.42
179.24	1617.90
179.46	1683.43
179.68	1816.55
179.90	1681.38
180.13	1740.77
180.35	1628.14
180.57	1685.48
180.79	1714.15
181.01	1669.09
181.23	1798.12
181.45	1763.30
181.67	1697.77
181.90	1757.16
182.12	1701.86
182.34	1626.09
182.56	1736.68
182.78	1779.68
183.00	1648.61
183.22	1697.77
183.44	1566.70
183.66	1912.80
183.89	1802.21
184.11	1624.04
184.33	1785.83
184.55	1724.39
184.77	1746.92
184.99	1783.78
185.21	1753.06
185.43	1787.88
185.65	1662.95
185.87	1701.86
186.10	1783.78
186.32	1826.79
186.54	1761.25
186.76	1691.62
186.98	1742.82
187.20	1703.91
187.42	1648.61
187.64	1640.42
187.86	1728.49
188.08	1665.00
188.30	1607.66
188.52	1718.25
188.75	1728.49
188.97	1851.36
189.19	1701.86
189.41	1673.19
189.63	1771.49
189.85	1685.48
190.07	1642.47
190.29	1593.32
190.51	1671.14
190.73	1607.66
190.95	1804.26
191.17	1683.43
191.39	1617.90
191.61	1720.29
191.84	1660.90
192.06	1791.97
192.28	1626.09
192.50	1851.36
192.72	1705.96
192.94	1660.90
193.16	1746.92
193.38	1746.92
193.60	1658.85
193.82	1660.90
194.04	1771.49
194.26	1705.96
194.48	1644.52
194.70	1724.39
194.92	1632.23
195.14	1718.25
195.36	1716.20
195.58	1738.73
195.80	1693.67
196.02	1705.96
196.24	1722.34
196.46	1763.30
196.69	1619.94
196.91	1898.47
197.13	1665.00
197.35	1691.62
197.57	1796.07
197.79	1757.16
198.01	1671.14
198.23	1658.85
198.45	1738.73
198.67	1611.75
198.89	1740.77
199.11	1712.10
199.33	1638.38
199.55	1638.38
199.77	1724.39
199.99	1742.82
200.21	1755.11
200.43	1720.29
200.65	1636.33
200.87	1558.50
201.09	1726.44
201.31	1677.29
201.53	1708.01
201.75	1753.06
201.97	1781.73
202.19	1703.91
202.41	1617.90
202.63	1820.64
202.85	1697.77
203.07	1693.67
203.29	1624.04
203.51	1685.48
203.73	1640.42
203.95	1914.85
204.17	1714.15
204.39	1751.01
204.61	1714.15
204.83	1650.66
205.05	1742.82
205.27	1730.53
205.49	1763.30
205.71	1671.14
205.93	1548.26
206.15	1681.38
206.37	1710.05
206.59	1697.77
206.81	1705.96
207.03	1687.53
207.25	1656.81
207.47	1746.92
207.69	1697.77
207.91	1781.73
208.13	1818.60
208.34	1710.05
208.56	1669.09
208.78	1738.73
209.00	1712.10
209.22	1636.33
209.44	1685.48
209.66	1720.29
209.88	1714.15
210.10	1722.34
210.32	1705.96
210.54	1775.59
210.76	1662.95
210.98	1718.25
211.20	1581.03
211.42	1746.92
211.64	1787.88
211.86	1812.45
212.08	1671.14
212.30	1730.53
212.52	1654.76
212.74	1689.57
212.96	1757.16
213.17	1779.68
213.39	1738.73
213.61	1689.57
213.83	1800.16
214.05	1693.67
214.27	1771.49
214.49	1626.09
214.71	1640.42
214.93	1775.59
215.15	1712.10
215.37	1720.29
215.59	1619.94
215.81	1839.08
216.03	1748.97
216.24	1720.29
216.46	1650.66
216.68	1705.96
216.90	1695.72
217.12	1789.92
217.34	1671.14
217.56	1753.06
217.78	1794.02
218.00	1746.92
218.22	1683.43
218.44	1587.18
218.66	1746.92
218.87	1787.88
219.09	1718.25
219.31	1656.81
219.53	1734.63
219.75	1693.67
219.97	1720.29
220.19	1724.39
220.41	1685.48
220.63	1753.06
220.85	1724.39
221.06	1611.75
221.28	1812.45
221.50	1726.44
221.72	1761.25
221.94	1628.14
222.16	1703.91
222.38	1791.97
222.60	1791.97
222.82	1718.25
223.03	1681.38
223.25	1648.61
223.47	1730.53
223.69	1873.89
223.91	1681.38
224.13	1677.29
224.35	1683.43
224.57	1683.43
224.78	1730.53
225.00	1652.71
225.22	1673.19
225.44	1697.77
225.66	1640.42
225.88	1736.68
226.10	1810.40
226.32	1671.14
226.53	1794.02
226.75	1669.09
226.97	1650.66
227.19	1675.24
227.41	1673.19
227.63	1673.19
227.85	1611.75
228.06	1757.16
228.28	1656.81
228.50	1732.58
228.72	1679.33
228.94	1701.86
229.16	1628.14
229.37	1609.70
229.59	1615.85
229.81	1789.92
230.03	1644.52
230.25	1699.81
230.47	1613.80
230.69	1656.81
230.90	1687.53
231.12	1681.38
231.34	1681.38
231.56	1728.49
231.78	1673.19
232.00	1695.72
232.21	1656.81
232.43	1652.71
232.65	1578.98
232.87	1779.68
233.09	1669.09
233.30	1667.05
233.52	1738.73
233.74	1734.63
233.96	1632.23
234.18	1718.25
234.40	1689.57
234.61	1826.79
234.83	1619.94
235.05	1611.75
235.27	1757.16
235.49	1675.24
235.70	1638.38
235.92	1789.92
236.14	1765.35
236.36	1832.93
236.58	1558.50
236.79	1722.34
237.01	1777.64
237.23	1636.33
237.45	1796.07
237.67	1636.33
237.88	1665.00
238.10	1789.92
238.32	1640.42
238.54	1660.90
238.76	1728.49
238.97	1607.66
239.19	1751.01
239.41	1746.92
239.63	1708.01
239.85	1609.70
240.06	1748.97
240.28	1621.99
240.50	1736.68
240.72	1734.63
240.93	1701.86
241.15	1744.87
241.37	1609.70
241.59	1714.15
241.81	1730.53
242.02	1751.01
242.24	1710.05
242.46	1730.53
242.68	1601.51
242.89	1740.77
243.11	1781.73
243.33	1654.76
243.55	1773.54
243.76	1675.24
243.98	1658.85
244.20	1679.33
244.42	1720.29
244.64	1650.66
244.85	1736.68
245.07	1587.18
245.29	1693.67
245.51	1708.01
245.72	1710.05
245.94	1722.34
246.16	1744.87
246.38	1726.44
246.59	1654.76
246.81	1693.67
247.03	1681.38
247.24	1628.14
247.46	1662.95
247.68	1726.44
247.90	1708.01
248.11	1648.61
248.33	1738.73
248.55	1644.52
248.77	1632.23
248.98	1802.21
249.20	1787.88
249.42	1652.71
249.64	1734.63
249.85	1710.05
250.07	1710.05
250.29	1695.72
250.50	1775.59
250.72	1648.61
250.94	1665.00
251.16	1802.21
251.37	1765.35
251.59	1681.38
251.81	1738.73
252.02	1767.40
252.24	1693.67
252.46	1902.56
252.68	1642.47
252.89	1673.19
253.11	1585.13
253.33	1816.55
253.54	1763.30
253.76	1646.57
253.98	1726.44
254.20	1751.01
254.41	1595.37
254.63	1720.29
254.85	1626.09
255.06	1683.43
255.28	1763.30
255.50	1791.97
255.71	1640.42
255.93	1632.23
256.15	1716.20
256.36	1734.63
256.58	1673.19
256.80	1732.58
257.02	1693.67
257.23	1648.61
257.45	1738.73
257.67	1703.91
257.88	1724.39
258.10	1742.82
258.32	1628.14
258.53	1710.05
258.75	1777.64
258.97	1693.67
259.18	1712.10
259.40	1738.73
259.62	1814.50
259.83	1742.82
260.05	1695.72
260.27	1951.71
260.48	1701.86
260.70	1671.14
260.92	1695.72
261.13	1722.34
261.35	1695.72
261.57	1714.15
261.78	1599.46
262.00	1697.77
262.22	1679.33
262.43	1718.25
262.65	1624.04
262.86	1703.91
263.08	1814.50
263.30	1687.53
263.51	1613.80
263.73	1640.42
263.95	1712.10
264.16	1648.61
264.38	1636.33
264.60	1716.20
264.81	1689.57
265.03	1767.40
265.25	1791.97
265.46	1683.43
265.68	1726.44
265.89	1753.06
266.11	1648.61
266.33	1738.73
266.54	1718.25
266.76	1810.40
266.98	1816.55
267.19	1757.16
267.41	1796.07
267.62	1720.29
267.84	1601.51
268.06	1732.58
268.27	1693.67
268.49	1775.59
268.70	1724.39
268.92	1716.20
269.14	1701.86
269.35	1718.25
269.57	1744.87
269.79	1722.34
270.00	1718.25
270.22	1865.70
270.43	1695.72
270.65	1558.50
270.87	1677.29
271.08	1656.81
271.30	1673.19
271.51	1742.82
271.73	1757.16
271.95	1775.59
272.16	1775.59
272.38	1769.44
272.59	1671.14
272.81	1765.35
273.02	1734.63
273.24	1765.35
273.46	1693.67
273.67	1667.05
273.89	1626.09
274.10	1597.42
274.32	1728.49
274.54	1705.96
274.75	1703.91
274.97	1679.33
275.18	1712.10
275.40	1691.62
275.61	1693.67
275.83	1716.20
276.05	1642.47
276.26	1689.57
276.48	1705.96
276.69	1705.96
276.91	1724.39
277.12	1728.49
277.34	1806.31
277.55	1742.82
277.77	1669.09
277.99	1705.96
278.20	1677.29
278.42	1660.90
278.63	1650.66
278.85	1603.56
279.06	1599.46
279.28	1701.86
279.49	1748.97
279.71	1708.01
279.93	1665.00
280.14	1705.96
280.36	1718.25
280.57	1794.02
280.79	1712.10
281.00	1646.57
281.22	1646.57
281.43	1742.82
281.65	1566.70
281.86	1591.27
282.08	1693.67
282.29	1783.78
282.51	1691.62
282.73	1718.25
282.94	1683.43
283.16	1726.44
283.37	1804.26
283.59	1648.61
283.80	1669.09
284.02	1708.01
284.23	1667.05
284.45	1738.73
284.66	1662.95
284.88	1681.38
285.09	1746.92
285.31	1716.20
285.52	1755.11
285.74	1677.29
285.95	1763.30
286.17	1705.96
286.38	1708.01
286.60	1673.19
286.81	1638.38
287.03	1665.00
287.24	1777.64
287.46	1761.25
287.67	1722.34
287.89	1742.82
288.10	1722.34
288.32	1732.58
288.53	1820.64
288.75	1701.86
288.96	1712.10
289.18	1677.29
289.39	1765.35
289.61	1738.73
289.82	1796.07
290.04	1787.88
290.25	1667.05
290.47	1652.71
290.68	1624.04
290.90	1783.78
291.11	1667.05
291.33	1730.53
291.54	1636.33
291.76	1656.81
291.97	1746.92
292.18	1708.01
292.40	1595.37
292.61	1691.62
292.83	1804.26
293.04	1718.25
293.26	1722.34
293.47	1658.85
293.69	1708.01
293.90	1673.19
294.12	1722.34
294.33	1685.48
294.55	1654.76
294.76	1777.64
294.97	1777.64
295.19	1787.88
295.40	1681.38
295.62	1726.44
295.83	1722.34
296.05	1697.77
296.26	1732.58
296.48	1630.18
296.69	1697.77
296.90	1660.90
297.12	1703.91
297.33	1722.34
297.55	1734.63
297.76	1697.77
297.98	1724.39
298.19	1722.34
298.41	1714.15
298.62	1648.61
298.83	1824.74
299.05	1699.81
299.26	1628.14
299.48	1613.80
299.69	1714.15
299.90	1734.63
300.12	1714.15
300.33	1791.97
300.55	1644.52
300.76	1683.43
300.98	1683.43
301.19	1804.26
301.40	1613.80
301.62	1742.82
301.83	1742.82
302.05	1665.00
302.26	1687.53
302.47	1689.57
302.69	1560.55
302.90	1710.05
303.12	1585.13
303.33	1705.96
303.54	1804.26
303.76	1648.61
303.97	1722.34
304.19	1853.41
304.40	1656.81
304.61	1644.52
304.83	1849.32
305.04	1714.15
305.26	1677.29
305.47	1691.62
305.68	1712.10
305.90	1621.99
306.11	1802.21
306.33	1716.20
306.54	1693.67
306.75	1705.96
306.97	1654.76
307.18	1640.42
307.39	1656.81
307.61	1685.48
307.82	1605.61
308.04	1732.58
308.25	1677.29
308.46	1740.77
308.68	1724.39
308.89	1701.86
309.10	1834.98
309.32	1728.49
309.53	1689.57
309.74	1732.58
309.96	1716.20
310.17	1808.36
310.39	1574.89
310.60	1677.29
310.81	1722.34
311.03	1640.42
311.24	1685.48
311.45	1683.43
311.67	1800.16
311.88	1691.62
312.09	1730.53
312.31	1601.51
312.52	1683.43
312.73	1652.71
312.95	1640.42
313.16	1632.23
313.37	1736.68
313.59	1738.73
313.80	1738.73
314.01	1849.32
314.23	1675.24
314.44	1646.57
314.65	1630.18
314.87	1591.27
315.08	1726.44
315.29	1656.81
315.51	1681.38
315.72	1632.23
315.93	1828.84
316.15	1683.43
316.36	1636.33
316.57	1796.07
316.79	1714.15
317.00	1681.38
317.21	1683.43
317.43	1662.95
317.64	1824.74
317.85	1699.81
318.07	1595.37
318.28	1710.05
318.49	1798.12
318.70	1877.99
318.92	1884.13
319.13	1816.55
319.34	1884.13
319.56	1820.64
319.77	1832.93
319.98	1755.11
320.20	1742.82
320.41	1757.16
320.62	1710.05
320.83	1603.56
321.05	1851.36
321.26	1660.90
321.47	1685.48
321.69	1699.81
321.90	1660.90
322.11	1652.71
322.32	1769.44
322.54	1804.26
322.75	1662.95
322.96	1812.45
323.18	1603.56
323.39	1564.65
323.60	1660.90
323.81	1695.72
324.03	1701.86
324.24	1712.10
324.45	1751.01
324.66	1726.44
324.88	1828.84
325.09	1699.81
325.30	1732.58
325.52	1679.33
325.73	1714.15
325.94	1665.00
326.15	1599.46
326.37	1689.57
326.58	1695.72
326.79	1804.26
327.00	1677.29
327.22	1683.43
327.43	1630.18
327.64	1587.18
327.85	1744.87
328.07	1730.53
328.28	1779.68
328.49	1720.29
328.70	1771.49
328.92	1691.62
329.13	1677.29
329.34	1791.97
329.55	1812.45
329.76	1779.68
329.98	1644.52
330.19	1726.44
330.40	1630.18
330.61	1767.40
330.83	1753.06
331.04	1658.85
331.25	1714.15
331.46	1644.52
331.68	1628.14
331.89	1736.68
332.10	1669.09
332.31	1687.53
332.52	1738.73
332.74	1722.34
332.95	1611.75
333.16	1736.68
333.37	1734.63
333.58	1734.63
333.80	1761.25
334.01	1626.09
334.22	1644.52
334.43	1726.44
334.64	1734.63
334.86	1734.63
335.07	1624.04
335.28	1734.63
335.49	1593.32
335.70	1701.86
335.92	1765.35
336.13	1814.50
336.34	1730.53
336.55	1619.94
336.76	1705.96
336.98	1581.03
337.19	1726.44
337.40	1751.01
337.61	1875.94
337.82	1591.27
338.04	1767.40
338.25	1576.94
338.46	1705.96
338.67	1673.19
338.88	1615.85
339.09	1722.34
339.31	1669.09
339.52	1632.23
339.73	1640.42
339.94	1652.71
340.15	1781.73
340.36	1624.04
340.58	1730.53
340.79	1681.38
341.00	1716.20
341.21	1650.66
341.42	1783.78
341.63	1728.49
341.85	1728.49
342.06	1636.33
342.27	1607.66
342.48	1748.97
342.69	1634.28
342.90	1665.00
343.12	1695.72
343.33	1687.53
343.54	1773.54
343.75	1738.73
343.96	1748.97
344.17	1675.24
344.38	1742.82
344.60	1667.05
344.81	1611.75
345.02	1673.19
345.23	1814.50
345.44	1751.01
345.65	1675.24
345.86	1787.88
346.07	1605.61
346.29	1675.24
346.50	1656.81
346.71	1701.86
346.92	1720.29
347.13	1769.44
347.34	1644.52
347.55	1689.57
347.76	1726.44
347.98	1624.04
348.19	1681.38
348.40	1720.29
348.61	1742.82
348.82	1779.68
349.03	1689.57
349.24	1591.27
349.45	1785.83
349.66	1644.52
349.88	1687.53
350.09	1662.95
350.30	1814.50
350.51	1748.97
350.72	1689.57
350.93	1683.43
351.14	1722.34
351.35	1628.14
351.56	1781.73
351.77	1675.24
351.99	1685.48
352.20	1783.78
352.41	1710.05
352.62	1562.60
352.83	1675.24
353.04	1681.38
353.25	1621.99
353.46	1839.08
353.67	1716.20
353.88	1544.17
354.09	1751.01
354.30	1728.49
354.52	1660.90
354.73	1679.33
354.94	1699.81
355.15	1759.21
355.36	1834.98
355.57	1701.86
355.78	1693.67
355.99	1697.77
356.20	1679.33
356.41	1718.25
356.62	1757.16
356.83	1755.11
357.04	1724.39
357.25	1640.42
357.46	1720.29
357.68	1597.42
357.89	1667.05
358.10	1732.58
358.31	1638.38
358.52	1683.43
358.73	1695.72
358.94	1652.71
359.15	1669.09
359.36	1714.15
359.57	1697.77
359.78	1765.35
359.99	1636.33
360.20	1607.66
360.41	1701.86
360.62	1644.52
360.83	1722.34
361.04	1658.85
361.25	1693.67
361.46	1769.44
361.67	1734.63
361.88	1656.81
362.09	1734.63
362.30	1667.05
362.51	1636.33
362.72	1705.96
362.93	1779.68
363.14	1722.34
363.35	1722.34
363.56	1689.57
363.78	1771.49
363.99	1757.16
364.20	1685.48
364.41	1667.05
364.62	1804.26
364.83	1699.81
365.04	1728.49
365.25	1736.68
365.46	1779.68
365.67	1662.95
365.88	1646.57
366.09	1689.57
366.30	1591.27
366.51	1679.33
366.72	1695.72
366.93	1705.96
367.14	1634.28
367.35	1714.15
367.56	1712.10
367.77	1730.53
367.98	1677.29
368.18	1675.24
368.39	1703.91
368.60	1638.38
368.81	1753.06
369.02	1677.29
369.23	1734.63
369.44	1644.52
369.65	1665.00
369.86	1646.57
370.07	1812.45
370.28	1662.95
370.49	1677.29
370.70	1767.40
370.91	1685.48
371.12	1648.61
371.33	1722.34
371.54	1697.77
371.75	1884.13
371.96	1550.31
372.17	1738.73
372.38	1769.44
372.59	1726.44
372.80	1714.15
373.01	1701.86
373.22	1746.92
373.43	1744.87
373.64	1640.42
373.85	1757.16
374.06	1787.88
374.26	1728.49
374.47	1718.25
374.68	1781.73
374.89	1714.15
375.10	1673.19
375.31	1757.16
375.52	1632.23
375.73	1648.61
375.94	1658.85
376.15	1789.92
376.36	1671.14
376.57	1669.09
376.78	1691.62
376.99	1830.88
377.20	1732.58
377.40	1742.82
377.61	1822.69
377.82	1626.09
378.03	1753.06
378.24	1779.68
378.45	1701.86
378.66	1738.73
378.87	1671.14
379.08	1654.76
379.29	1660.90
379.50	1736.68
379.71	1677.29
379.91	1798.12
380.12	1720.29
380.33	1691.62
380.54	1697.77
380.75	1699.81
380.96	1679.33
381.17	1787.88
381.38	1763.30
381.59	1724.39
381.80	1691.62
382.00	1841.12
382.21	1650.66
382.42	1820.64
382.63	1773.54
382.84	1656.81
383.05	1718.25
383.26	1830.88
383.47	1687.53
383.68	1765.35
383.88	1751.01
384.09	1740.77
384.30	1777.64
384.51	1740.77
384.72	1695.72
384.93	1716.20
385.14	1685.48
385.35	1791.97
385.55	1648.61
385.76	1738.73
385.97	1718.25
386.18	1621.99
386.39	1652.71
386.60	1730.53
386.81	1728.49
387.02	1701.86
387.22	1630.18
387.43	1748.97
387.64	1791.97
387.85	1873.89
388.06	2244.57
388.27	4239.30
388.48	6940.57
388.68	8507.26
388.89	9957.22
389.10	10094.44
389.31	8789.88
389.52	7774.09
389.73	6805.40
389.93	6293.41
390.14	5877.67
390.35	5111.73
390.56	4538.30
390.77	3862.47
390.98	3043.28
391.18	2490.33
391.39	2129.89
391.60	1910.75
391.81	1785.83
392.02	1697.77
392.23	1794.02
392.43	1769.44
392.64	1769.44
392.85	1769.44
393.06	1869.80
393.27	1765.35
393.47	1708.01
393.68	1714.15
393.89	1763.30
394.10	1767.40
394.31	1626.09
394.52	1624.04
394.72	1669.09
394.93	1798.12
395.14	1640.42
395.35	1757.16
395.56	1660.90
395.76	1679.33
395.97	1730.53
396.18	1867.75
396.39	1843.17
396.60	2045.92
396.80	1918.95
397.01	1839.08
397.22	1769.44
397.43	1800.16
397.64	1716.20
397.84	1810.40
398.05	1882.08
398.26	1779.68
398.47	1736.68
398.67	1841.12
398.88	1703.91
399.09	1740.77
399.30	1671.14
399.51	1726.44
399.71	1658.85
399.92	1595.37
400.13	1701.86
400.34	1699.81
400.54	1736.68
400.75	1794.02
400.96	1775.59
401.17	1806.31
401.37	1720.29
401.58	1699.81
401.79	1701.86
402.00	1814.50
402.21	1935.33
402.41	1959.91
402.62	1984.48
402.83	2023.39
403.04	1998.82
403.24	2037.73
403.45	1865.70
403.66	1914.85
403.87	1802.21
404.07	1830.88
404.28	1908.71
404.49	1902.56
404.70	1724.39
404.90	1830.88
405.11	1677.29
405.32	1726.44
405.52	1624.04
405.73	1667.05
405.94	1665.00
406.15	1796.07
406.35	1740.77
406.56	1732.58
406.77	1742.82
406.98	1744.87
407.18	1648.61
407.39	1736.68
407.60	1630.18
407.80	1736.68
408.01	1656.81
408.22	1791.97
408.43	1665.00
408.63	1724.39
408.84	1746.92
409.05	1710.05
409.25	1673.19
409.46	1714.15
409.67	1720.29
409.88	1673.19
410.08	1675.24
410.29	1701.86
410.50	1767.40
410.70	1718.25
410.91	1609.70
411.12	1761.25
411.32	1677.29
411.53	1609.70
411.74	1728.49
411.95	1781.73
412.15	1791.97
412.36	1685.48
412.57	1681.38
412.77	1728.49
412.98	1740.77
413.19	1720.29
413.39	1746.92
413.60	1712.10
413.81	1781.73
414.01	1642.47
414.22	1740.77
414.43	1775.59
414.63	1662.95
414.84	1763.30
415.05	1656.81
415.25	1626.09
415.46	1773.54
415.67	1619.94
415.87	1716.20
416.08	1718.25
416.29	1638.38
416.49	1740.77
416.70	1730.53
416.91	1777.64
417.11	1697.77
417.32	1689.57
417.53	1830.88
417.73	1761.25
417.94	1748.97
418.15	1667.05
418.35	1716.20
418.56	1679.33
418.77	1816.55
418.97	1689.57
419.18	1730.53
419.38	1603.56
419.59	1708.01
419.80	1730.53
420.00	1652.71
420.21	1677.29
420.42	1767.40
420.62	1787.88
420.83	1673.19
421.04	1708.01
421.24	1697.77
421.45	1769.44
421.65	1720.29
421.86	1761.25
422.07	1732.58
422.27	1714.15
422.48	1673.19
422.69	1595.37
422.89	1675.24
423.10	1624.04
423.30	1705.96
423.51	1730.53
423.72	1689.57
423.92	1755.11
424.13	1630.18
424.33	1683.43
424.54	1796.07
424.75	1753.06
424.95	1732.58
425.16	1699.81
425.36	1736.68
425.57	1800.16
425.78	1824.74
425.98	1705.96
426.19	1605.61
426.39	1675.24
426.60	1714.15
426.81	1820.64
427.01	1687.53
427.22	1574.89
427.42	1619.94
427.63	1636.33
427.83	1773.54
428.04	1769.44
428.25	1794.02
428.45	1738.73
428.66	1746.92
428.86	1644.52
429.07	1712.10
429.28	1724.39
429.48	1650.66
429.69	1714.15
429.89	1730.53
430.10	1710.05
430.30	1826.79
430.51	1718.25
430.71	1660.90
430.92	1701.86
431.13	1673.19
431.33	1755.11
431.54	1722.34
431.74	1765.35
431.95	1751.01
432.15	1640.42
432.36	1695.72
432.56	1755.11
432.77	1855.46
432.98	1808.36
433.18	1662.95
433.39	1667.05
433.59	1773.54
433.80	1839.08
434.00	1845.22
434.21	1632.23
434.41	1609.70
434.62	1828.84
434.82	1595.37
435.03	1669.09
435.23	1720.29
435.44	1546.22
435.64	1724.39
435.85	1773.54
436.06	1767.40
436.26	1681.38
436.47	1710.05
436.67	1693.67
436.88	1742.82
437.08	1740.77
437.29	1787.88
437.49	1775.59
437.70	1777.64
437.90	1665.00
438.11	1798.12
438.31	1851.36
438.52	1839.08
438.72	1804.26
438.93	1933.28
439.13	1785.83
439.34	1730.53
439.54	1724.39
439.75	1744.87
439.95	1812.45
440.16	1734.63
440.36	1763.30
440.57	1738.73
440.77	1716.20
440.98	1683.43
441.18	1730.53
441.39	1648.61
441.59	1695.72
441.80	1839.08
442.00	1716.20
442.21	1826.79
442.41	1576.94
442.62	1720.29
442.82	1712.10
443.02	1708.01
443.23	1787.88
443.43	1708.01
443.64	1753.06
443.84	1691.62
444.05	1877.99
444.25	1736.68
444.46	1636.33
444.66	1779.68
444.87	1824.74
445.07	1673.19
445.28	1765.35
445.48	1712.10
445.69	1814.50
445.89	1814.50
446.09	1791.97
446.30	2097.12
446.50	2676.70
446.71	3856.33
446.91	4286.40
447.12	4607.93
447.32	4808.63
447.53	4294.59
447.73	3874.76
447.93	3596.23
448.14	3405.77
448.34	3149.78
448.55	2881.49
448.75	2768.85
448.96	2680.79
449.16	2461.66
449.36	2263.01
449.57	2090.98
449.77	1857.51
449.98	1892.32
450.18	1771.49
450.39	1738.73
450.59	1798.12
450.79	1771.49
451.00	1683.43
451.20	1732.58
451.41	1677.29
451.61	1767.40
451.81	1695.72
452.02	1744.87
452.22	1740.77
452.43	1636.33
452.63	1769.44
452.84	1708.01
453.04	1732.58
453.24	1677.29
453.45	1679.33
453.65	1689.57
453.86	1804.26
454.06	1730.53
454.26	1755.11
454.47	1677.29
454.67	1773.54
454.87	1781.73
455.08	1789.92
455.28	1865.70
455.49	1734.63
455.69	1726.44
455.89	1834.98
456.10	1794.02
456.30	1650.66
456.51	1722.34
456.71	1701.86
456.91	1728.49
457.12	1740.77
457.32	1775.59
457.52	1640.42
457.73	1736.68
457.93	1763.30
458.14	1689.57
458.34	1599.46
458.54	1744.87
458.75	1740.77
458.95	1765.35
459.15	1730.53
459.36	1734.63
459.56	1726.44
459.76	1861.60
459.97	1687.53
460.17	1757.16
460.37	1798.12
460.58	1755.11
460.78	1730.53
460.99	1716.20
461.19	1724.39
461.39	1730.53
461.60	1703.91
461.80	1802.21
462.00	1665.00
462.21	1761.25
462.41	1697.77
462.61	1587.18
462.82	1593.32
463.02	1728.49
463.22	1689.57
463.43	1767.40
463.63	1808.36
463.83	1861.60
464.04	1681.38
464.24	1738.73
464.44	1642.47
464.64	1783.78
464.85	1748.97
465.05	1794.02
465.25	1771.49
465.46	1677.29
465.66	1712.10
465.86	1753.06
466.07	1806.31
466.27	1748.97
466.47	1679.33
466.68	1667.05
466.88	1810.40
467.08	1693.67
467.29	1779.68
467.49	1794.02
467.69	1755.11
467.89	1724.39
468.10	1658.85
468.30	1767.40
468.50	1751.01
468.71	1685.48
468.91	1581.03
469.11	1832.93
469.31	1736.68
469.52	1634.28
469.72	1802.21
469.92	1812.45
470.13	1714.15
470.33	1718.25
470.53	1888.23
470.73	2181.09
470.94	2326.49
471.14	2310.11
471.34	2461.66
471.54	2416.60
471.75	2250.72
471.95	2047.97
472.15	2060.26
472.36	2084.83
472.56	2074.59
472.76	2021.35
472.96	2047.97
473.17	1970.15
473.37	1951.71
473.57	1798.12
473.77	1810.40
473.98	1769.44
474.18	1705.96
474.38	1888.23
474.58	1720.29
474.79	1648.61
474.99	1708.01
475.19	1781.73
475.39	1634.28
475.60	1724.39
475.80	1740.77
476.00	1779.68
476.20	1761.25
476.41	1679.33
476.61	1841.12
476.81	1787.88
477.01	1634.28
477.21	1826.79
477.42	1785.83
477.62	1593.32
477.82	1828.84
478.02	1714.15
478.23	1783.78
478.43	1714.15
478.63	1701.86
478.83	1732.58
479.03	1701.86
479.24	1816.55
479.44	1898.47
479.64	1667.05
479.84	1677.29
480.04	1689.57
480.25	1851.36
480.45	1644.52
480.65	1718.25
480.85	1804.26
481.06	1665.00
481.26	1683.43
481.46	1779.68
481.66	1734.63
481.86	1593.32
482.06	1775.59
482.27	1693.67
482.47	1689.57
482.67	1728.49
482.87	1685.48
483.07	1794.02
483.28	1699.81
483.48	1691.62
483.68	1748.97
483.88	1667.05
484.08	1662.95
484.29	1660.90
484.49	1665.00
484.69	1734.63
484.89	1751.01
485.09	1857.51
485.29	1794.02
485.50	1804.26
485.70	1685.48
485.90	1832.93
486.10	1701.86
486.30	1779.68
486.50	1748.97
486.71	1738.73
486.91	1705.96
487.11	1779.68
487.31	1619.94
487.51	1759.21
487.71	1585.13
487.91	1591.27
488.12	1648.61
488.32	1599.46
488.52	1656.81
488.72	1626.09
488.92	1816.55
489.12	1837.03
489.32	1726.44
489.53	1759.21
489.73	1662.95
489.93	1824.74
490.13	1679.33
490.33	1640.42
490.53	1703.91
490.73	1769.44
490.94	1738.73
491.14	1728.49
491.34	1865.70
491.54	2099.17
491.74	2502.62
491.94	2906.07
492.14	3006.42
492.34	3028.95
492.54	2775.00
492.75	2525.15
492.95	2443.23
493.15	2346.97
493.35	2289.63
493.55	2232.29
493.75	2138.08
493.95	2156.51
494.15	2025.44
494.35	1933.28
494.56	1861.60
494.76	1820.64
494.96	1693.67
495.16	1783.78
495.36	1716.20
495.56	1724.39
495.76	1712.10
495.96	1728.49
496.16	1730.53
496.36	1791.97
496.56	1783.78
496.77	1708.01
496.97	1671.14
497.17	1765.35
497.37	1681.38
497.57	1742.82
497.77	1640.42
497.97	1607.66
498.17	1751.01
498.37	1755.11
498.57	1759.21
498.77	1728.49
498.97	1785.83
499.17	1794.02
499.38	1746.92
499.58	1675.24
499.78	1787.88
499.98	1773.54
500.18	1722.34
500.38	1687.53
500.58	1882.08
500.78	2564.06
500.98	4554.68
501.18	5859.24
501.38	6657.95
501.58	7212.95
501.78	6604.70
501.98	5593.00
502.18	4951.99
502.38	4466.62
502.58	4173.76
502.78	3848.13
502.98	3536.84
503.18	3487.69
503.38	3164.11
503.59	2811.86
503.79	2815.96
503.99	2516.95
504.19	2357.21
504.39	2133.98
504.59	2176.99
504.79	2150.37
504.99	1966.05
505.19	1892.32
505.39	1802.21
505.59	1925.09
505.79	1943.52
505.99	1912.80
506.19	1726.44
506.39	1912.80
506.59	1675.24
506.79	1734.63
506.99	1736.68
507.19	1712.10
507.39	1851.36
507.59	1671.14
507.79	1757.16
507.99	1685.48
508.19	1746.92
508.39	1689.57
508.59	1621.99
508.79	1865.70
508.99	1853.41
509.19	1740.77
509.39	1794.02
509.59	1646.57
509.79	1673.19
509.99	1787.88
510.19	1734.63
510.39	1740.77
510.59	1755.11
510.79	1734.63
510.99	1576.94
511.19	1718.25
511.39	1755.11
511.59	1785.83
511.79	1779.68
511.99	1744.87
512.19	1802.21
512.38	1705.96
512.58	1685.48
512.78	1718.25
512.98	1769.44
513.18	1789.92
513.38	1658.85
513.58	1779.68
513.78	1765.35
513.98	1736.68
514.18	1714.15
514.38	1701.86
514.58	1697.77
514.78	1699.81
514.98	1595.37
515.18	1740.77
515.38	1708.01
515.58	1765.35
515.78	1699.81
515.98	1724.39
516.18	1699.81
516.38	1785.83
516.57	1685.48
516.77	1726.44
516.97	1796.07
517.17	1742.82
517.37	1603.56
517.57	1777.64
517.77	1650.66
517.97	1697.77
518.17	1785.83
518.37	1695.72
518.57	1621.99
518.77	1755.11
518.97	1689.57
519.16	1781.73
519.36	1808.36
519.56	1658.85
519.76	1667.05
519.96	1757.16
520.16	1824.74
520.36	1652.71
520.56	1722.34
520.76	1644.52
520.96	1777.64
521.16	1783.78
521.35	1785.83
521.55	1894.37
521.75	1712.10
521.95	1642.47
522.15	1726.44
522.35	1617.90
522.55	1740.77
522.75	1822.69
522.95	1669.09
523.14	1679.33
523.34	1738.73
523.54	1812.45
523.74	1775.59
523.94	1695.72
524.14	1628.14
524.34	1767.40
524.54	1779.68
524.73	1681.38
524.93	1746.92
525.13	1763.30
525.33	1718.25
525.53	1810.40
525.73	1769.44
525.93	1730.53
526.13	1699.81
526.32	1650.66
526.52	1812.45
526.72	1736.68
526.92	1796.07
527.12	1718.25
527.32	1667.05
527.52	1722.34
527.71	1742.82
527.91	1669.09
528.11	1728.49
528.31	1691.62
528.51	1621.99
528.71	1845.22
528.90	1652.71
529.10	1796.07
529.30	1812.45
529.50	1669.09
529.70	1648.61
529.90	1724.39
530.09	1677.29
530.29	1759.21
530.49	1718.25
530.69	1869.80
530.89	1806.31
531.09	1656.81
531.28	1746.92
531.48	1773.54
531.68	1787.88
531.88	1689.57
532.08	1718.25
532.28	1726.44
532.47	1718.25
532.67	1806.31
532.87	1695.72
533.07	1724.39
533.27	1771.49
533.46	1771.49
533.66	1742.82
533.86	1728.49
534.06	1736.68
534.26	1712.10
534.45	1765.35
534.65	1769.44
534.85	1736.68
535.05	1730.53
535.25	1779.68
535.44	1636.33
535.64	1830.88
535.84	1722.34
536.04	1708.01
536.24	1753.06
536.43	1691.62
536.63	1746.92
536.83	1652.71
537.03	1779.68
537.22	1738.73
537.42	1597.42
537.62	1751.01
537.82	1710.05
538.02	1796.07
538.21	1779.68
538.41	1812.45
538.61	1724.39
538.81	1712.10
539.00	1775.59
539.20	1615.85
539.40	1691.62
539.60	1720.29
539.79	1763.30
539.99	1767.40
540.19	1681.38
540.39	1658.85
540.58	1714.15
540.78	1730.53
540.98	1665.00
541.18	1789.92
541.37	1710.05
541.57	1781.73
541.77	1738.73
541.97	1693.67
542.16	1712.10
542.36	1634.28
542.56	1665.00
542.76	1863.65
542.95	1791.97
543.15	1751.01
543.35	1775.59
543.54	1724.39
543.74	1724.39
543.94	1849.32
544.14	1677.29
544.33	1755.11
544.53	1699.81
544.73	1705.96
544.93	1716.20
545.12	1701.86
545.32	1732.58
545.52	1701.86
545.71	1693.67
545.91	1652.71
546.11	1693.67
546.30	1660.90
546.50	1718.25
546.70	1791.97
546.90	1814.50
547.09	1669.09
547.29	1724.39
547.49	1736.68
547.68	1746.92
547.88	1679.33
548.08	1796.07
548.27	2166.75
548.47	1681.38
548.67	1705.96
548.87	1767.40
549.06	1656.81
549.26	1812.45
549.46	1746.92
549.65	1736.68
549.85	1740.77
550.05	1826.79
550.24	1712.10
550.44	1783.78
550.64	1660.90
550.83	1785.83
551.03	1738.73
551.23	1761.25
551.42	1728.49
551.62	1665.00
551.82	1746.92
552.01	1787.88
552.21	1718.25
552.41	1779.68
552.60	1837.03
552.80	1732.58
553.00	1746.92
553.19	1685.48
553.39	1771.49
553.59	1697.77
553.78	1775.59
553.98	1683.43
554.17	1650.66
554.37	1660.90
554.57	1777.64
554.76	1671.14
554.96	1732.58
555.16	1665.00
555.35	1681.38
555.55	1708.01
555.75	1736.68
555.94	1763.30
556.14	1626.09
556.33	1775.59
556.53	1734.63
556.73	1710.05
556.92	1734.63
557.12	1814.50
557.32	1910.75
557.51	1748.97
557.71	1761.25
557.90	1828.84
558.10	1800.16
558.30	1751.01
558.49	1808.36
558.69	1701.86
558.88	1755.11
559.08	1740.77
559.28	1763.30
559.47	1746.92
559.67	1761.25
559.86	1880.04
560.06	1738.73
560.26	1683.43
560.45	1769.44
560.65	1759.21
560.84	1712.10
561.04	1722.34
561.24	1738.73
561.43	1632.23
561.63	1742.82
561.82	1763.30
562.02	1781.73
562.22	1718.25
562.41	1736.68
562.61	1734.63
562.80	1638.38
563.00	1841.12
563.19	1781.73
563.39	1775.59
563.59	1695.72
563.78	1646.57
563.98	1665.00
564.17	1667.05
564.37	1583.08
564.56	1765.35
564.76	1636.33
564.96	1845.22
565.15	1757.16
565.35	1863.65
565.54	1695.72
565.74	1767.40
565.93	1789.92
566.13	1785.83
566.32	1767.40
566.52	1730.53
566.71	1693.67
566.91	1783.78
567.11	1685.48
567.30	1773.54
567.50	1716.20
567.69	1740.77
567.89	1691.62
568.08	1695.72
568.28	1673.19
568.47	1603.56
568.67	1787.88
568.86	1710.05
569.06	1732.58
569.25	1665.00
569.45	1677.29
569.64	1667.05
569.84	1703.91
570.04	1761.25
570.23	1660.90
570.43	1740.77
570.62	1808.36
570.82	1826.79
571.01	1701.86
571.21	1675.24
571.40	1705.96
571.60	1751.01
571.79	1789.92
571.99	1755.11
572.18	1734.63
572.38	1718.25
572.57	1753.06
572.77	1791.97
572.96	1828.84
573.16	1751.01
573.35	1699.81
573.55	1814.50
573.74	1783.78
573.94	1726.44
574.13	1710.05
574.33	1853.41
574.52	1738.73
574.71	1769.44
574.91	1767.40
575.10	1675.24
575.30	1714.15
575.49	1695.72
575.69	1673.19
575.88	1781.73
576.08	1761.25
576.27	1757.16
576.47	1757.16
576.66	1896.42
576.86	1900.52
577.05	1779.68
577.25	1755.11
577.44	1892.32
577.64	1701.86
577.83	1779.68
578.02	1650.66
578.22	1718.25
578.41	1761.25
578.61	1777.64
578.80	1693.67
579.00	1636.33
579.19	1775.59
579.39	1791.97
579.58	1800.16
579.77	1695.72
579.97	1863.65
580.16	1812.45
580.36	1845.22
580.55	1773.54
580.75	1761.25
580.94	1769.44
581.13	1832.93
581.33	1832.93
581.52	1716.20
581.72	1751.01
581.91	1816.55
582.11	1619.94
582.30	1789.92
582.49	1773.54
582.69	1765.35
582.88	1779.68
583.08	1785.83
583.27	1806.31
583.47	1738.73
583.66	1759.21
583.85	1712.10
584.05	1736.68
584.24	1837.03
584.44	1765.35
584.63	1787.88
584.82	1826.79
585.02	1867.75
585.21	1880.04
585.41	1814.50
585.60	1812.45
585.79	1847.27
585.99	1947.62
586.18	1918.95
586.37	2230.24
586.57	3424.20
586.76	9908.07
586.96	24782.47
587.15	35007.98
587.34	41096.59
587.54	42739.06
587.73	37162.44
587.93	26832.49
588.12	22113.97
588.31	18403.05
588.51	16668.42
588.70	15267.61
588.89	14151.46
589.09	12652.35
589.28	11251.54
589.47	9613.17
589.67	8056.71
589.86	6586.27
590.06	4960.18
590.25	3964.87
590.44	3166.16
590.64	2648.02
590.83	2263.01
591.02	2041.82
591.22	1931.23
591.41	1914.85
591.60	1791.97
591.80	1910.75
591.99	1734.63
592.18	1730.53
592.38	1834.98
592.57	1755.11
592.76	1810.40
592.96	1738.73
593.15	1824.74
593.34	1832.93
593.54	1761.25
593.73	1708.01
593.92	1718.25
594.12	1710.05
594.31	1834.98
594.50	1808.36
594.70	1804.26
594.89	1855.46
595.08	1648.61
595.28	1818.60
595.47	1931.23
595.66	1794.02
595.86	1708.01
596.05	1671.14
596.24	1740.77
596.43	1832.93
596.63	1806.31
596.82	1726.44
597.01	1820.64
597.21	1845.22
597.40	1800.16
597.59	1738.73
597.79	1703.91
597.98	1751.01
598.17	1789.92
598.36	1701.86
598.56	1736.68
598.75	1732.58
598.94	1716.20
599.14	1710.05
599.33	1683.43
599.52	1785.83
599.71	1703.91
599.91	1808.36
600.10	1796.07
600.29	1667.05
600.48	1781.73
600.68	1849.32
600.87	1683.43
601.06	1722.34
601.26	1767.40
601.45	1748.97
601.64	1705.96
601.83	1796.07
602.03	1736.68
602.22	1624.04
602.41	1804.26
602.60	1843.17
602.80	1771.49
602.99	1779.68
603.18	1693.67
603.37	1738.73
603.57	1777.64
603.76	1761.25
603.95	1771.49
604.14	1724.39
604.34	1669.09
604.53	1789.92
604.72	1744.87
604.91	1773.54
605.10	1755.11
605.30	1611.75
605.49	1740.77
605.68	1697.77
605.87	1746.92
606.07	1773.54
606.26	1775.59
606.45	1736.68
606.64	1736.68
606.84	1728.49
607.03	1636.33
607.22	1830.88
607.41	1654.76
607.60	1730.53
607.80	1767.40
607.99	1730.53
608.18	1740.77
608.37	1728.49
608.56	1748.97
608.76	1753.06
608.95	1816.55
609.14	1732.58
609.33	1724.39
609.52	1759.21
609.72	1701.86
609.91	1699.81
610.10	1736.68
610.29	1834.98
610.48	1693.67
610.68	1740.77
610.87	1773.54
611.06	1710.05
611.25	1714.15
611.44	1867.75
611.63	1662.95
611.83	1824.74
612.02	1660.90
612.21	1775.59
612.40	1634.28
612.59	1718.25
612.79	1662.95
612.98	1714.15
613.17	1851.36
613.36	1714.15
613.55	1716.20
613.74	1667.05
613.93	1689.57
614.13	1740.77
614.32	1769.44
614.51	1732.58
614.70	1662.95
614.89	1695.72
615.08	1689.57
615.28	2045.92
615.47	1720.29
615.66	1765.35
615.85	1726.44
616.04	1886.18
616.23	1687.53
616.42	1679.33
616.62	1656.81
616.81	1738.73
617.00	1669.09
617.19	1759.21
617.38	1748.97
617.57	1724.39
617.76	1781.73
617.95	1779.68
618.15	1773.54
618.34	1830.88
618.53	1572.84
618.72	1761.25
618.91	1771.49
619.10	1808.36
619.29	1732.58
619.48	1693.67
619.68	1632.23
619.87	1738.73
620.06	1691.62
620.25	1718.25
620.44	1785.83
620.63	1732.58
620.82	1693.67
621.01	1724.39
621.20	1683.43
621.39	1681.38
621.59	1701.86
621.78	1714.15
621.97	1804.26
622.16	1691.62
622.35	1658.85
622.54	1779.68
622.73	1816.55
622.92	1583.08
623.11	1716.20
623.30	1648.61
623.49	1675.24
623.68	1685.48
623.88	1785.83
624.07	1675.24
624.26	1699.81
624.45	1734.63
624.64	1730.53
624.83	1767.40
625.02	1679.33
625.21	1791.97
625.40	1779.68
625.59	1783.78
625.78	1697.77
625.97	1789.92
626.16	1722.34
626.35	1779.68
626.54	1712.10
626.74	1773.54
626.93	1628.14
627.12	1648.61
627.31	1806.31
627.50	1705.96
627.69	1773.54
627.88	1738.73
628.07	1677.29
628.26	1587.18
628.45	1654.76
628.64	1689.57
628.83	1812.45
629.02	1652.71
629.21	1716.20
629.40	1767.40
629.59	1648.61
629.78	1693.67
629.97	1763.30
630.16	1742.82
630.35	1701.86
630.54	1806.31
630.73	1667.05
630.92	1705.96
631.11	1722.34
631.30	1724.39
631.49	1681.38
631.68	1755.11
631.87	1763.30
632.06	1556.46
632.25	1882.08
632.44	1665.00
632.63	1742.82
632.82	1697.77
633.01	1656.81
633.20	1738.73
633.39	1697.77
633.58	1644.52
633.77	1718.25
633.96	1759.21
634.15	1718.25
634.34	1738.73
634.53	1712.10
634.72	1738.73
634.91	1589.22
635.10	1773.54
635.29	1767.40
635.48	1732.58
635.67	1691.62
635.86	1568.74
636.05	1773.54
636.24	1783.78
636.43	1789.92
636.62	1787.88
636.81	1611.75
637.00	1800.16
637.19	1779.68
637.38	1675.24
637.57	1701.86
637.76	1791.97
637.95	1677.29
638.14	1681.38
638.33	1712.10
638.52	1720.29
638.71	1662.95
638.89	1718.25
639.08	1853.41
639.27	1783.78
639.46	1691.62
639.65	1736.68
639.84	1609.70
640.03	1806.31
640.22	1669.09
640.41	1808.36
640.60	1701.86
640.79	1681.38
640.98	1695.72
641.17	1738.73
641.36	1730.53
641.55	1761.25
641.74	1681.38
641.92	1669.09
642.11	1660.90
642.30	1742.82
642.49	1652.71
642.68	1746.92
642.87	1767.40
643.06	1771.49
643.25	1644.52
643.44	1689.57
643.63	1748.97
643.82	1744.87
644.00	1689.57
644.19	1718.25
644.38	1644.52
644.57	1732.58
644.76	1771.49
644.95	1710.05
645.14	1738.73
645.33	1779.68
645.52	1779.68
645.71	1619.94
645.89	1699.81
646.08	1656.81
646.27	1654.76
646.46	1849.32
646.65	1662.95
646.84	1724.39
647.03	1746.92
647.22	1822.69
647.40	1710.05
647.59	1650.66
647.78	1710.05
647.97	1607.66
648.16	1617.90
648.35	1814.50
648.54	1744.87
648.73	1720.29
648.91	1726.44
649.10	1757.16
649.29	1671.14
649.48	1697.77
649.67	1746.92
649.86	1746.92
650.05	1652.71
650.23	1787.88
650.42	1652.71
650.61	1761.25
650.80	1742.82
650.99	1863.65
651.18	1734.63
651.36	1689.57
651.55	1673.19
651.74	1708.01
651.93	1791.97
652.12	1728.49
652.31	1714.15
652.49	1675.24
652.68	1744.87
652.87	1777.64
653.06	1695.72
653.25	1812.45
653.44	1626.09
653.62	1738.73
653.81	1667.05
654.00	1753.06
654.19	1705.96
654.38	1886.18
654.56	1765.35
654.75	1646.57
654.94	1794.02
655.13	1652.71
655.32	1691.62
655.51	1802.21
655.69	1767.40
655.88	1863.65
656.07	1669.09
656.26	1777.64
656.45	1587.18
656.63	1665.00
656.82	1724.39
657.01	1796.07
657.20	1697.77
657.38	1820.64
657.57	1703.91
657.76	1738.73
657.95	1740.77
658.14	1804.26
658.32	1767.40
658.51	1634.28
658.70	1738.73
658.89	1734.63
659.08	1722.34
659.26	1773.54
659.45	1589.22
659.64	1648.61
659.83	1587.18
660.01	1855.46
660.20	1755.11
660.39	1845.22
660.58	1568.74
660.76	1751.01
660.95	1562.60
661.14	1798.12
661.33	1693.67
661.51	1691.62
661.70	1673.19
661.89	1753.06
662.08	1732.58
662.26	1626.09
662.45	1626.09
662.64	1845.22
662.83	1824.74
663.01	1642.47
663.20	1722.34
663.39	1814.50
663.58	1662.95
663.76	1710.05
663.95	1779.68
664.14	1746.92
664.32	1720.29
664.51	1656.81
664.70	1644.52
664.89	1771.49
665.07	1603.56
665.26	1773.54
665.45	1626.09
665.64	1849.32
665.82	1789.92
666.01	1718.25
666.20	1710.05
666.38	1787.88
666.57	1771.49
666.76	2144.22
666.95	4681.66
667.13	10481.50
667.32	15396.63
667.51	18231.02
667.69	19300.06
667.88	18077.42
668.07	12470.08
668.25	9768.81
668.44	8087.43
668.63	7604.11
668.81	6944.66
669.00	6442.91
669.19	5791.66
669.38	5189.55
669.56	4583.35
669.75	4054.98
669.94	3631.05
670.12	3061.71
670.31	2496.47
670.50	2273.25
670.68	2050.02
670.87	1873.89
671.06	1839.08
671.24	1791.97
671.43	1877.99
671.62	1689.57
671.80	1677.29
671.99	1730.53
672.18	1716.20
672.36	1796.07
672.55	1763.30
672.74	1701.86
672.92	1689.57
673.11	1681.38
673.29	1667.05
673.48	1716.20
673.67	1681.38
673.85	1775.59
674.04	1675.24
674.23	1744.87
674.41	1734.63
674.60	1691.62
674.79	1628.14
674.97	1665.00
675.16	1796.07
675.34	1802.21
675.53	1554.41
675.72	1773.54
675.90	1789.92
676.09	1681.38
676.28	1705.96
676.46	1628.14
676.65	1834.98
676.83	1675.24
677.02	1710.05
677.21	1714.15
677.39	1732.58
677.58	1667.05
677.77	1695.72
677.95	1677.29
678.14	1681.38
678.32	1712.10
678.51	1609.70
678.70	1904.61
678.88	1650.66
679.07	1740.77
679.25	1705.96
679.44	1730.53
679.63	1687.53
679.81	1724.39
680.00	1767.40
680.18	1738.73
680.37	1708.01
680.55	1673.19
680.74	1695.72
680.93	1585.13
681.11	1781.73
681.30	1740.77
681.48	1724.39
681.67	1685.48
681.85	1697.77
682.04	1673.19
682.23	1800.16
682.41	1675.24
682.60	1699.81
682.78	1705.96
682.97	1656.81
683.15	1660.90
683.34	1783.78
683.53	1810.40
683.71	1615.85
683.90	1783.78
684.08	1736.68
684.27	1708.01
684.45	1746.92
684.64	1755.11
684.82	1697.77
685.01	1753.06
685.19	1720.29
685.38	1808.36
685.57	1669.09
685.75	1740.77
685.94	1687.53
686.12	1638.38
686.31	1662.95
686.49	1828.84
686.68	1642.47
686.86	1697.77
687.05	1740.77
687.23	1716.20
687.42	1705.96
687.60	1720.29
687.79	1753.06
687.97	1818.60
688.16	1806.31
688.34	1763.30
688.53	1595.37
688.71	1726.44
688.90	1802.21
689.08	1695.72
689.27	1595.37
689.45	1722.34
689.64	1761.25
689.82	1708.01
690.01	1714.15
690.19	1742.82
690.38	1642.47
690.56	1791.97
690.75	1640.42
690.93	1640.42
691.12	1617.90
691.30	1705.96
691.49	1621.99
691.67	1724.39
691.86	1800.16
692.04	1685.48
692.23	1740.77
692.41	1730.53
692.60	1814.50
692.78	1701.86
692.97	1718.25
693.15	1714.15
693.34	1744.87
693.52	1765.35
693.71	1662.95
693.89	1658.85
694.08	1667.05
694.26	1814.50
694.44	1732.58
694.63	1751.01
694.81	1624.04
695.00	1632.23
695.18	1757.16
695.37	1834.98
695.55	1660.90
695.74	1703.91
695.92	1669.09
696.10	1720.29
696.29	1673.19
696.47	1648.61
696.66	1658.85
696.84	1697.77
697.03	1718.25
697.21	1746.92
697.40	2387.93
697.58	1779.68
697.76	1621.99
697.95	1673.19
698.13	1593.32
698.32	1712.10
698.50	1691.62
698.68	1734.63
698.87	1767.40
699.05	1794.02
699.24	1683.43
699.42	1689.57
699.61	1708.01
699.79	1742.82
699.97	1759.21
700.16	1714.15
700.34	1673.19
700.53	1691.62
700.71	1888.23
700.89	1699.81
701.08	1726.44
701.26	1634.28
701.45	2050.02
701.63	1597.42
701.81	1681.38
702.00	1681.38
702.18	1767.40
702.37	1658.85
702.55	1781.73
702.73	1701.86
702.92	1636.33
703.10	1789.92
703.28	1665.00
703.47	1697.77
703.65	1791.97
703.84	1773.54
704.02	1667.05
704.20	1849.32
704.39	1665.00
704.57	1759.21
704.75	1755.11
704.94	1656.81
705.12	1708.01
705.30	1787.88
705.49	2301.92
705.67	4466.62
705.86	9508.72
706.04	12867.39
706.22	14587.68
706.41	15695.63
706.59	14055.21
706.77	9703.28
706.96	7548.81
707.14	6629.27
707.32	6039.46
707.51	5713.83
707.69	4972.47
707.87	4288.45
708.06	3600.33
708.24	3008.47
708.42	2467.80
708.61	2246.62
708.79	1810.40
708.97	1865.70
709.16	1890.28
709.34	1781.73
709.52	1802.21
709.71	1738.73
709.89	1783.78
710.07	1658.85
710.26	1599.46
710.44	1710.05
710.62	1789.92
710.80	1648.61
710.99	1773.54
711.17	1705.96
711.35	1697.77
711.54	1613.80
711.72	1834.98
711.90	1734.63
712.09	1753.06
712.27	1687.53
712.45	1744.87
712.63	1685.48
712.82	1728.49
713.00	1581.03
713.18	1718.25
713.37	1722.34
713.55	1710.05
713.73	1755.11
713.91	1763.30
714.10	1691.62
714.28	1679.33
714.46	1777.64
714.65	1665.00
714.83	1724.39
715.01	1648.61
715.19	1703.91
715.38	1662.95
715.56	1699.81
715.74	1667.05
715.92	1665.00
716.11	1779.68
716.29	1652.71
716.47	1669.09
716.65	1769.44
716.84	1628.14
717.02	1710.05
717.20	1583.08
717.38	1679.33
717.57	1734.63
717.75	1759.21
717.93	1621.99
718.11	1658.85
718.30	1595.37
718.48	1722.34
718.66	1767.40
718.84	1761.25
719.03	1689.57
719.21	1695.72
719.39	1816.55
719.57	1763.30
719.75	1767.40
719.94	1619.94
720.12	1595.37
720.30	1646.57
720.48	1648.61
720.67	1695.72
720.85	1638.38
721.03	1746.92
721.21	1677.29
721.39	1806.31
721.58	1763.30
721.76	1691.62
721.94	1746.92
722.12	1753.06
722.30	1779.68
722.49	1630.18
722.67	1679.33
722.85	1732.58
723.03	1599.46
723.21	1662.95
723.40	1761.25
723.58	1726.44
723.76	1714.15
723.94	1738.73
724.12	1744.87
724.30	1779.68
724.49	1830.88
724.67	1601.51
724.85	1746.92
725.03	1648.61
725.21	1798.12
725.40	1746.92
725.58	1665.00
725.76	1734.63
725.94	1650.66
726.12	1665.00
726.30	1691.62
726.49	1794.02
726.67	1624.04
726.85	1675.24
727.03	1794.02
727.21	2197.47
727.39	2916.31
727.57	3801.03
727.76	4220.86
727.94	4476.86
728.12	4417.47
728.30	3635.14
728.48	3004.37
728.66	2748.37
728.84	2504.67
729.03	2346.97
729.21	2144.22
729.39	1968.10
729.57	1941.47
729.75	1837.03
729.93	1888.23
730.11	1781.73
730.30	1781.73
730.48	1675.24
730.66	1773.54
730.84	1710.05
731.02	1744.87
731.20	1665.00
731.38	1703.91
731.56	1648.61
731.74	1593.32
731.93	1675.24
732.11	1761.25
732.29	1677.29
732.47	1757.16
732.65	1755.11
732.83	1794.02
733.01	1748.97
733.19	1673.19
733.37	1728.49
733.56	1714.15
733.74	1644.52
733.92	1771.49
734.10	1718.25
734.28	1716.20
734.46	1574.89
734.64	1628.14
734.82	1736.68
735.00	1701.86
735.18	1673.19
735.36	1701.86
735.54	1714.15
735.73	1748.97
735.91	1683.43
736.09	1673.19
736.27	1765.35
736.45	1652.71
736.63	1535.98
736.81	1683.43
736.99	1746.92
737.17	1757.16
737.35	1718.25
737.53	1669.09
737.71	1736.68
737.89	1789.92
738.07	1642.47
738.25	1632.23
738.43	1632.23
738.61	1646.57
738.80	1710.05
738.98	1597.42
739.16	1648.61
739.34	1652.71
739.52	1794.02
739.70	1644.52
739.88	1699.81
740.06	1732.58
740.24	1576.94
740.42	1783.78
740.60	1574.89
740.78	1550.31
740.96	1648.61
741.14	1669.09
741.32	1746.92
741.50	1656.81
741.68	1871.84
741.86	1814.50
742.04	1583.08
742.22	1695.72
742.40	1771.49
742.58	1785.83
742.76	1665.00
742.94	1763.30
743.12	1609.70
743.30	1687.53
743.48	1755.11
743.66	1681.38
743.84	1708.01
744.02	1665.00
744.20	1628.14
744.38	1613.80
744.56	1677.29
744.74	1800.16
744.92	1667.05
745.10	1816.55
745.28	1832.93
745.46	1791.97
745.64	1656.81
745.82	1794.02
746.00	1640.42
746.18	1675.24
746.36	1591.27
746.54	1699.81
746.72	1714.15
746.90	1642.47
747.08	1820.64
747.26	1691.62
747.44	1714.15
747.62	1746.92
747.80	1765.35
747.98	1746.92
748.15	1775.59
748.33	1791.97
748.51	1742.82
748.69	1740.77
748.87	1648.61
749.05	1697.77
749.23	1617.90
749.41	1630.18
749.59	1726.44
749.77	1810.40
749.95	1648.61
750.13	1720.29
750.31	1791.97
750.49	1621.99
750.67	1773.54
750.85	1845.22
751.03	1773.54
751.20	1771.49
751.38	1673.19
751.56	1740.77
751.74	1728.49
751.92	1669.09
752.10	1628.14
752.28	1732.58
752.46	1636.33
752.64	1658.85
752.82	1669.09
753.00	1744.87
753.18	1703.91
753.35	1669.09
753.53	1687.53
753.71	1665.00
753.89	1798.12
754.07	1812.45
754.25	1785.83
754.43	1679.33
754.61	1640.42
754.79	1742.82
754.97	1665.00
755.14	1785.83
755.32	1609.70
755.50	1744.87
755.68	1785.83
755.86	1705.96
756.04	1746.92
756.22	1538.02
756.40	1757.16
756.57	1820.64
756.75	1673.19
756.93	1779.68
757.11	1777.64
757.29	1617.90
757.47	1724.39
757.65	1648.61
757.82	1658.85
758.00	1632.23
758.18	1675.24
758.36	1636.33
758.54	1779.68
758.72	1701.86
758.90	1681.38
759.07	1724.39
759.25	1648.61
759.43	1697.77
759.61	1632.23
759.79	2205.66
759.97	1691.62
760.15	1640.42
760.32	1681.38
760.50	1808.36
760.68	1824.74
760.86	1607.66
761.04	1804.26
761.22	1740.77
761.39	1685.48
761.57	1726.44
761.75	1679.33
761.93	1761.25
762.11	1669.09
762.28	1656.81
762.46	1640.42
762.64	1777.64
762.82	1673.19
763.00	1673.19
763.18	1757.16
763.35	1585.13
763.53	1695.72
763.71	1656.81
763.89	1638.38
764.07	1640.42
764.24	1724.39
764.42	1720.29
764.60	1703.91
764.78	1734.63
764.96	1802.21
765.13	1691.62
765.31	1697.77
765.49	1730.53
765.67	1683.43
765.84	1701.86
766.02	1689.57
766.20	1599.46
766.38	1738.73
766.56	1791.97
766.73	1755.11
766.91	1722.34
767.09	1689.57
767.27	1703.91
767.44	1714.15
767.62	1734.63
767.80	1794.02
767.98	1650.66
768.15	1703.91
768.33	1796.07
768.51	1732.58
768.69	1697.77
768.87	1718.25
769.04	1730.53
769.22	1839.08
769.40	1736.68
769.58	1863.65
769.75	1720.29
769.93	1740.77
770.11	1693.67
770.28	1726.44
770.46	1685.48
770.64	1748.97
770.82	1693.67
770.99	1648.61
771.17	1755.11
771.35	1753.06
771.53	1728.49
771.70	1636.33
771.88	1714.15
772.06	1740.77
772.23	1710.05
772.41	1763.30
772.59	1673.19
772.77	1667.05
772.94	1667.05
773.12	1716.20
773.30	1703.91
773.47	1689.57
773.65	1767.40
773.83	1849.32
774.01	1648.61
774.18	1613.80
774.36	1744.87
774.54	1626.09
774.71	1714.15
774.89	1712.10
775.07	1648.61
775.24	1634.28
775.42	1662.95
775.60	1814.50
775.78	1570.79
775.95	1601.51
776.13	1619.94
776.31	1601.51
776.48	1724.39
776.66	1789.92
776.84	1673.19
777.01	1628.14
777.19	1636.33
777.37	1638.38
777.54	1802.21
777.72	1832.93
777.90	1656.81
778.07	1716.20
778.25	1832.93
778.43	1699.81
778.60	1710.05
778.78	1775.59
778.96	1744.87
779.13	1636.33
779.31	1701.86
779.49	1669.09
779.66	1779.68
779.84	1642.47
780.01	1652.71
780.19	1624.04
780.37	1705.96
780.54	1722.34
780.72	1673.19
780.90	1683.43
781.07	1669.09
781.25	1654.76
781.43	1720.29
781.60	1673.19
781.78	1763.30
781.95	1677.29
782.13	1714.15
782.31	1689.57
782.48	1642.47
782.66	1697.77
782.83	1806.31
783.01	1751.01
783.19	1675.24
783.36	1646.57
783.54	1665.00
783.72	1763.30
783.89	1673.19
784.07	1699.81
784.24	1757.16
784.42	1765.35
784.60	1621.99
784.77	1740.77
784.95	1550.31
785.12	1705.96
785.30	1718.25
785.47	1726.44
785.65	1607.66
785.83	1671.14
786.00	1705.96
786.18	1699.81
786.35	1558.50
786.53	1650.66
786.71	1748.97
786.88	1718.25
787.06	1693.67
787.23	1626.09
787.41	1669.09
787.58	1714.15
787.76	1705.96
787.94	1699.81
788.11	1789.92
788.29	1644.52
788.46	1650.66
788.64	1636.33
788.81	1671.14
788.99	1665.00
789.16	1665.00
789.34	1763.30
789.52	1681.38
789.69	1665.00
789.87	1683.43
790.04	1654.76
790.22	1744.87
790.39	1814.50
790.57	1671.14
790.74	1673.19
790.92	1753.06
791.09	1665.00
791.27	1738.73
791.44	1740.77
791.62	1667.05
791.79	1705.96
791.97	1703.91
792.15	1841.12
792.32	1679.33
792.50	1839.08
792.67	1777.64
792.85	1755.11
793.02	1712.10
793.20	1648.61
793.37	1599.46
793.55	1656.81
793.72	1705.96
793.90	1691.62
794.07	1652.71
794.25	1681.38
794.42	1689.57
794.60	1636.33
794.77	1769.44
794.95	1751.01
795.12	1708.01
795.30	1673.19
795.47	1636.33
795.65	1789.92
795.82	1726.44
796.00	1626.09
796.17	1730.53
796.34	1771.49
796.52	1705.96
796.69	1773.54
796.87	1767.40
797.04	1736.68
797.22	1695.72
797.39	1746.92
797.57	1761.25
797.74	1660.90
797.92	1703.91
798.09	1695.72
798.27	1765.35
798.44	1789.92
798.62	1615.85
798.79	1759.21
798.96	1787.88
799.14	1730.53
799.31	1767.40
799.49	1660.90
799.66	1669.09
799.84	1701.86
800.01	1574.89
800.19	1753.06
800.36	1605.61
800.53	1691.62
800.71	1736.68
800.88	1796.07
801.06	1609.70
801.23	1665.00
801.41	1689.57
801.58	1675.24
801.75	1621.99
801.93	1716.20
802.10	1738.73
802.28	1697.77
802.45	1687.53
802.63	1746.92
802.80	1787.88
802.97	1652.71
803.15	1703.91
803.32	1648.61
803.50	1617.90
803.67	1648.61
803.84	1626.09
804.02	1658.85
804.19	1605.61
804.37	1529.83
804.54	1658.85
804.71	1708.01
804.89	1708.01
805.06	1538.02
805.24	1611.75
805.41	1642.47
805.58	1617.90
805.76	1849.32
805.93	1656.81
806.10	1693.67
806.28	1744.87
806.45	1695.72
806.63	1712.10
806.80	1677.29
806.97	1765.35
807.15	1728.49
807.32	1613.80
807.49	1730.53
807.67	1576.94
807.84	1734.63
808.01	1665.00
808.19	1771.49
808.36	1814.50
808.54	1773.54
808.71	1691.62
808.88	1734.63
809.06	1724.39
809.23	1720.29
809.40	1566.70
809.58	1726.44
809.75	1693.67
809.92	1626.09
810.10	1832.93
810.27	1724.39
810.44	1697.77
810.62	1726.44
810.79	1697.77
810.96	1703.91
811.14	1671.14
811.31	1738.73
811.48	1755.11
811.66	1722.34
811.83	1660.90
812.00	1748.97
812.18	1656.81
812.35	1869.80
812.52	1681.38
812.69	1658.85
812.87	1662.95
813.04	1632.23
813.21	1718.25
813.39	1624.04
813.56	1656.81
813.73	1744.87
813.91	1531.88
814.08	1671.14
814.25	1687.53
814.42	1640.42
814.60	1654.76
814.77	1669.09
814.94	1677.29
815.12	1710.05
815.29	1787.88
815.46	1667.05
815.63	1693.67
815.81	1767.40
815.98	1691.62
816.15	1667.05
816.33	1710.05
816.50	1761.25
816.67	1708.01
816.84	1724.39
817.02	1665.00
817.19	1722.34
817.36	1691.62
817.53	1712.10
817.71	1626.09
817.88	1794.02
818.05	1705.96
818.22	1691.62
818.40	1816.55
818.57	1679.33
818.74	1712.10
818.91	1730.53
819.09	1662.95
819.26	1744.87
819.43	1712.10
819.60	1675.24
819.78	1740.77
819.95	1736.68
820.12	1689.57
820.29	1771.49
820.47	1783.78
820.64	1671.14
820.81	1648.61
820.98	1632.23
821.15	1597.42
821.33	1757.16
821.50	1740.77
821.67	1734.63
821.84	1730.53
822.02	1804.26
822.19	1748.97
822.36	1699.81
822.53	1673.19
822.70	1634.28
822.88	1716.20
823.05	1722.34
823.22	1724.39
823.39	1724.39
823.56	1673.19
823.74	1810.40
823.91	1640.42
824.08	1628.14
824.25	1595.37
824.42	1800.16
824.60	1617.90
824.77	1679.33
824.94	1669.09
825.11	1656.81
825.28	1517.54
825.45	1687.53
825.63	1695.72
825.80	1648.61
825.97	1705.96
826.14	1689.57
826.31	1611.75
826.48	1712.10
826.66	1640.42
826.83	1718.25
827.00	1753.06
827.17	1675.24
827.34	1671.14
827.51	1714.15
827.69	1658.85
827.86	1624.04
828.03	1736.68
828.20	1724.39
828.37	1683.43
828.54	1789.92
828.71	1638.38
828.89	1693.67
829.06	1669.09
829.23	1794.02
829.40	1679.33
829.57	1734.63
829.74	1738.73
829.91	1677.29
830.09	1755.11
830.26	1806.31
830.43	1728.49
830.60	1642.47
830.77	1710.05
830.94	1806.31
831.11	1705.96
831.28	1615.85
831.46	1755.11
831.63	1734.63
831.80	1746.92
831.97	1677.29
832.14	1662.95
832.31	1726.44
832.48	1748.97
832.65	1794.02
832.82	1679.33
832.99	1689.57
833.17	1658.85
833.34	1783.78
833.51	1718.25
833.68	1599.46
833.85	1746.92
834.02	1644.52
834.19	1570.79
834.36	1742.82
834.53	1755.11
834.70	1789.92
834.87	1720.29
835.04	1738.73
835.22	1654.76
835.39	1665.00
835.56	1691.62
835.73	1726.44
835.90	1662.95
836.07	1574.89
836.24	1675.24
836.41	1683.43
836.58	1642.47
836.75	1755.11
836.92	1722.34
837.09	1716.20
837.26	1757.16
837.43	1673.19
837.60	1714.15
837.77	1656.81
837.94	1705.96
838.12	1734.63
838.29	1761.25
838.46	1675.24
838.63	1619.94
838.80	1806.31
838.97	1734.63
839.14	1693.67
839.31	1665.00
839.48	1746.92
839.65	1697.77
839.82	1759.21
839.99	1654.76
840.16	1746.92
840.33	1642.47
840.50	1783.78
840.67	1660.90
840.84	1632.23
841.01	1658.85
841.18	1587.18
841.35	1665.00
841.52	1802.21
841.69	1865.70
841.86	1683.43
842.03	1662.95
842.20	1738.73
842.37	1617.90
842.54	1757.16
842.71	1724.39
842.88	1599.46
843.05	1701.86
843.22	1708.01
843.39	1683.43
843.56	1652.71
843.73	1701.86
843.90	1710.05
844.07	1705.96
844.24	1726.44
844.41	1722.34
844.58	1710.05
844.75	1640.42
844.92	1679.33
845.09	1742.82
845.26	1642.47
845.43	1734.63
845.60	1736.68
845.77	1759.21
845.94	1689.57
846.10	1703.91
846.27	1593.32
846.44	1693.67
846.61	1656.81
846.78	1720.29
846.95	1736.68
847.12	1728.49
847.29	1685.48
847.46	1683.43
847.63	1730.53
847.80	1673.19
847.97	1667.05
848.14	1791.97
848.31	1665.00
848.48	1638.38
848.65	1697.77
848.82	1626.09
848.98	1832.93
849.15	1757.16
849.32	1683.43
849.49	1775.59
849.66	1648.61
849.83	1658.85
850.00	1656.81
850.17	1681.38
850.34	1742.82
850.51	1667.05
850.68	1708.01
850.85	1847.27
851.01	1665.00
851.18	1687.53
851.35	1628.14
851.52	1720.29
851.69	1771.49
851.86	1560.55
852.03	1660.90
852.20	1687.53
852.37	1804.26
852.53	1675.24
852.70	1759.21
852.87	1697.77
853.04	1755.11
853.21	1665.00
853.38	1820.64
853.55	1718.25
853.72	1751.01
853.89	1705.96
854.05	1576.94
854.22	1667.05
854.39	1691.62
854.56	1755.11
854.73	1753.06
854.90	1624.04
855.07	1738.73
855.23	1681.38
855.40	1673.19
855.57	1667.05
855.74	1552.36
855.91	1779.68
856.08	1636.33
856.25	1636.33
856.41	1685.48
856.58	1650.66
856.75	1730.53
856.92	1636.33
857.09	1771.49
857.26	1685.48
857.42	1677.29
857.59	1660.90
857.76	1769.44
857.93	1644.52
858.10	1757.16
858.27	1613.80
858.43	1714.15
858.60	1681.38
858.77	1652.71
858.94	1585.13
859.11	1796.07
859.27	1687.53
859.44	1738.73
859.61	1824.74
859.78	1695.72
859.95	1730.53
860.12	1626.09
860.28	1812.45
860.45	1822.69
860.62	1662.95
860.79	1662.95
860.95	1732.58
861.12	1681.38
861.29	1636.33
861.46	1634.28
861.63	1683.43
861.79	1718.25
861.96	1609.70
862.13	1708.01
862.30	1744.87
862.47	1701.86
862.63	1638.38
862.80	1751.01
862.97	1710.05
863.14	1775.59
863.30	1726.44
863.47	1648.61
863.64	1748.97
863.81	1765.35
863.97	1701.86
864.14	1669.09
864.31	1624.04
864.48	1679.33
864.65	1767.40
864.81	1757.16
864.98	1693.67
865.15	1724.39
865.32	1761.25
865.48	1767.40
865.65	1734.63
865.82	1630.18
865.98	1638.38
866.15	1730.53
866.32	1699.81
866.49	1630.18
866.65	1695.72
866.82	1665.00
866.99	1628.14
867.16	1619.94
867.32	1621.99
867.49	1730.53
867.66	1652.71
867.83	1675.24
867.99	1644.52
868.16	1699.81
868.33	1658.85
868.49	1642.47
868.66	1660.90
868.83	1767.40
868.99	1763.30
869.16	1712.10
869.33	1720.29
869.50	1832.93
869.66	1705.96
869.83	1722.34
870.00	1665.00
870.16	1710.05
870.33	1724.39
870.50	1751.01
870.66	1738.73
870.83	1845.22
871.00	1769.44
871.17	1705.96
871.33	1730.53
871.50	1636.33
871.67	1619.94
871.83	1675.24
872.00	1810.40
872.17	1648.61
872.33	1794.02
872.50	1816.55
872.67	1658.85
872.83	1751.01
873.00	1751.01
873.17	1722.34
873.33	1679.33
873.50	1652.71
873.67	1685.48
873.83	1695.72
874.00	1671.14
874.16	1755.11
874.33	1742.82
874.50	1632.23
874.66	1712.10
874.83	1708.01
875.00	1744.87
875.16	1775.59
875.33	1701.86
875.50	1529.83
875.66	1748.97
875.83	1730.53
875.99	1771.49
876.16	1695.72
876.33	1716.20
876.49	1662.95
876.66	1693.67
876.83	1699.81
876.99	1630.18
877.16	1697.77
877.32	1722.34
877.49	1701.86
877.66	1714.15
877.82	1806.31
877.99	1632.23
878.15	1718.25
878.32	1724.39
878.49	1644.52
878.65	1685.48
878.82	1791.97
878.98	1626.09
879.15	1806.31
879.32	1738.73
879.48	1705.96
879.65	1669.09
879.81	1697.77
879.98	1587.18
880.15	1720.29
880.31	1714.15
880.48	1634.28
880.64	1804.26
880.81	1742.82
880.97	1828.84
881.14	1714.15
881.31	1648.61
881.47	1857.51
881.64	1642.47
881.80	1624.04
881.97	1705.96
882.13	1722.34
882.30	1599.46
882.47	1615.85
882.63	1685.48
882.80	1691.62
882.96	1589.22
883.13	1837.03
883.29	1652.71
883.46	1767.40
883.62	1794.02
883.79	1689.57
883.95	1701.86
884.12	1638.38
884.29	1791.97
884.45	1681.38
884.62	1726.44
884.78	1673.19
884.95	1722.34
885.11	1634.28
885.28	1744.87
885.44	1685.48
885.61	1761.25
885.77	1796.07
885.94	1714.15
886.10	1761.25
886.27	1679.33
886.43	1736.68
886.60	1800.16
886.76	1691.62
886.93	1679.33
887.09	1710.05
887.26	1673.19
887.42	1736.68
887.59	1773.54
887.75	1873.89
887.92	1732.58
888.08	1710.05
888.25	1886.18
888.41	1714.15
888.58	1734.63
888.74	1613.80
888.91	1669.09
>>>>>End Processed Spectral Data<<<<<
