SpectraSuite Data File
++++++++++++++++++++++++++++++++++++
Date: Mon Jun 06 13:07:17 CEST 2016
User: root
Dark Spectrum Present: No
Reference Spectrum Present: No
Number of Sampled Component Spectra: 1
Spectrometers: USB4C02835
Integration Time (usec): 100000 (USB4C02835)
Spectra Averaged: 1 (USB4C02835)
Boxcar Smoothing: 0 (USB4C02835)
Correct for Electrical Dark: No (USB4C02835)
Strobe/Lamp Enabled: No (USB4C02835)
Correct for Detector Non-linearity: No (USB4C02835)
Correct for Stray Light: No (USB4C02835)
Number of Pixels in Processed Spectrum: 3648
>>>>>Begin Processed Spectral Data<<<<<
177.47	1495.02
177.69	1495.02
177.91	1495.02
178.13	1505.26
178.36	1417.19
178.58	1640.42
178.80	1656.81
179.02	1597.42
179.24	1730.53
179.46	1718.25
179.68	1730.53
179.90	1675.24
180.13	1677.29
180.35	1687.53
180.57	1662.95
180.79	1716.20
181.01	1708.01
181.23	1699.81
181.45	1728.49
181.67	1703.91
181.90	1712.10
182.12	1615.85
182.34	1646.57
182.56	1777.64
182.78	1681.38
183.00	1683.43
183.22	1662.95
183.44	1634.28
183.66	1828.84
183.89	1742.82
184.11	1742.82
184.33	1648.61
184.55	1763.30
184.77	1720.29
184.99	1708.01
185.21	1669.09
185.43	1837.03
185.65	1720.29
185.87	1691.62
186.10	1845.22
186.32	1775.59
186.54	1712.10
186.76	1746.92
186.98	1746.92
187.20	1712.10
187.42	1654.76
187.64	1665.00
187.86	1722.34
188.08	1798.12
188.30	1695.72
188.52	1699.81
188.75	1746.92
188.97	1867.75
189.19	1697.77
189.41	1673.19
189.63	1740.77
189.85	1728.49
190.07	1685.48
190.29	1613.80
190.51	1710.05
190.73	1611.75
190.95	1755.11
191.17	1802.21
191.39	1591.27
191.61	1679.33
191.84	1693.67
192.06	1730.53
192.28	1665.00
192.50	1828.84
192.72	1701.86
192.94	1644.52
193.16	1791.97
193.38	1685.48
193.60	1630.18
193.82	1710.05
194.04	1621.99
194.26	1746.92
194.48	1769.44
194.70	1650.66
194.92	1679.33
195.14	1748.97
195.36	1609.70
195.58	1716.20
195.80	1615.85
196.02	1644.52
196.24	1783.78
196.46	1642.47
196.69	1665.00
196.91	1820.64
197.13	1626.09
197.35	1634.28
197.57	1787.88
197.79	1718.25
198.01	1753.06
198.23	1722.34
198.45	1804.26
198.67	1611.75
198.89	1665.00
199.11	1628.14
199.33	1683.43
199.55	1607.66
199.77	1712.10
199.99	1738.73
200.21	1724.39
200.43	1677.29
200.65	1654.76
200.87	1601.51
201.09	1710.05
201.31	1646.57
201.53	1722.34
201.75	1757.16
201.97	1646.57
202.19	1761.25
202.41	1662.95
202.63	1783.78
202.85	1759.21
203.07	1675.24
203.29	1691.62
203.51	1644.52
203.73	1699.81
203.95	1892.32
204.17	1738.73
204.39	1763.30
204.61	1681.38
204.83	1769.44
205.05	1697.77
205.27	1744.87
205.49	1875.94
205.71	1656.81
205.93	1654.76
206.15	1601.51
206.37	1744.87
206.59	1718.25
206.81	1677.29
207.03	1658.85
207.25	1611.75
207.47	1748.97
207.69	1636.33
207.91	1791.97
208.13	1724.39
208.34	1740.77
208.56	1601.51
208.78	1708.01
209.00	1718.25
209.22	1720.29
209.44	1703.91
209.66	1685.48
209.88	1671.14
210.10	1626.09
210.32	1697.77
210.54	1869.80
210.76	1685.48
210.98	1648.61
211.20	1630.18
211.42	1681.38
211.64	1751.01
211.86	1695.72
212.08	1732.58
212.30	1736.68
212.52	1634.28
212.74	1677.29
212.96	1746.92
213.17	1693.67
213.39	1775.59
213.61	1800.16
213.83	1796.07
214.05	1624.04
214.27	1755.11
214.49	1603.56
214.71	1662.95
214.93	1806.31
215.15	1654.76
215.37	1722.34
215.59	1624.04
215.81	1718.25
216.03	1789.92
216.24	1736.68
216.46	1691.62
216.68	1708.01
216.90	1810.40
217.12	1732.58
217.34	1683.43
217.56	1697.77
217.78	1738.73
218.00	1771.49
218.22	1658.85
218.44	1763.30
218.66	1673.19
218.87	1839.08
219.09	1665.00
219.31	1746.92
219.53	1705.96
219.75	1654.76
219.97	1634.28
220.19	1753.06
220.41	1669.09
220.63	1814.50
220.85	1755.11
221.06	1658.85
221.28	1751.01
221.50	1701.86
221.72	1673.19
221.94	1783.78
222.16	1679.33
222.38	1722.34
222.60	1697.77
222.82	1675.24
223.03	1697.77
223.25	1634.28
223.47	1763.30
223.69	1849.32
223.91	1730.53
224.13	1595.37
224.35	1697.77
224.57	1759.21
224.78	1814.50
225.00	1662.95
225.22	1695.72
225.44	1722.34
225.66	1785.83
225.88	1669.09
226.10	1740.77
226.32	1718.25
226.53	1761.25
226.75	1669.09
226.97	1738.73
227.19	1705.96
227.41	1689.57
227.63	1716.20
227.85	1669.09
228.06	1771.49
228.28	1595.37
228.50	1746.92
228.72	1621.99
228.94	1689.57
229.16	1642.47
229.37	1613.80
229.59	1695.72
229.81	1726.44
230.03	1675.24
230.25	1613.80
230.47	1712.10
230.69	1603.56
230.90	1675.24
231.12	1673.19
231.34	1757.16
231.56	1740.77
231.78	1581.03
232.00	1722.34
232.21	1699.81
232.43	1675.24
232.65	1552.36
232.87	1701.86
233.09	1667.05
233.30	1669.09
233.52	1650.66
233.74	1687.53
233.96	1673.19
234.18	1718.25
234.40	1656.81
234.61	1808.36
234.83	1611.75
235.05	1679.33
235.27	1871.84
235.49	1787.88
235.70	1660.90
235.92	1775.59
236.14	1679.33
236.36	1884.13
236.58	1662.95
236.79	1736.68
237.01	1771.49
237.23	1730.53
237.45	1888.23
237.67	1671.14
237.88	1701.86
238.10	1789.92
238.32	1654.76
238.54	1695.72
238.76	1646.57
238.97	1650.66
239.19	1609.70
239.41	1810.40
239.63	1765.35
239.85	1689.57
240.06	1667.05
240.28	1718.25
240.50	1728.49
240.72	1726.44
240.93	1624.04
241.15	1783.78
241.37	1714.15
241.59	1796.07
241.81	1736.68
242.02	1779.68
242.24	1777.64
242.46	1742.82
242.68	1630.18
242.89	1718.25
243.11	1732.58
243.33	1716.20
243.55	1730.53
243.76	1771.49
243.98	1560.55
244.20	1689.57
244.42	1740.77
244.64	1718.25
244.85	1656.81
245.07	1636.33
245.29	1781.73
245.51	1757.16
245.72	1693.67
245.94	1730.53
246.16	1673.19
246.38	1806.31
246.59	1660.90
246.81	1687.53
247.03	1613.80
247.24	1583.08
247.46	1751.01
247.68	1654.76
247.90	1669.09
248.11	1771.49
248.33	1753.06
248.55	1665.00
248.77	1679.33
248.98	1781.73
249.20	1767.40
249.42	1656.81
249.64	1753.06
249.85	1736.68
250.07	1660.90
250.29	1757.16
250.50	1785.83
250.72	1574.89
250.94	1773.54
251.16	1837.03
251.37	1736.68
251.59	1732.58
251.81	1740.77
252.02	1767.40
252.24	1671.14
252.46	1759.21
252.68	1705.96
252.89	1667.05
253.11	1648.61
253.33	1806.31
253.54	1785.83
253.76	1626.09
253.98	1710.05
254.20	1746.92
254.41	1585.13
254.63	1665.00
254.85	1609.70
255.06	1697.77
255.28	1736.68
255.50	1681.38
255.71	1671.14
255.93	1615.85
256.15	1714.15
256.36	1669.09
256.58	1685.48
256.80	1730.53
257.02	1677.29
257.23	1640.42
257.45	1703.91
257.67	1722.34
257.88	1603.56
258.10	1691.62
258.32	1703.91
258.53	1728.49
258.75	1753.06
258.97	1654.76
259.18	1679.33
259.40	1728.49
259.62	1849.32
259.83	1767.40
260.05	1673.19
260.27	1961.95
260.48	1687.53
260.70	1687.53
260.92	1652.71
261.13	1681.38
261.35	1726.44
261.57	1730.53
261.78	1595.37
262.00	1656.81
262.22	1761.25
262.43	1642.47
262.65	1693.67
262.86	1642.47
263.08	1785.83
263.30	1673.19
263.51	1609.70
263.73	1650.66
263.95	1693.67
264.16	1681.38
264.38	1642.47
264.60	1669.09
264.81	1726.44
265.03	1689.57
265.25	1722.34
265.46	1716.20
265.68	1740.77
265.89	1714.15
266.11	1605.61
266.33	1779.68
266.54	1742.82
266.76	1794.02
266.98	1771.49
267.19	1742.82
267.41	1724.39
267.62	1675.24
267.84	1640.42
268.06	1691.62
268.27	1705.96
268.49	1783.78
268.70	1791.97
268.92	1689.57
269.14	1683.43
269.35	1591.27
269.57	1673.19
269.79	1716.20
270.00	1699.81
270.22	1822.69
270.43	1662.95
270.65	1587.18
270.87	1777.64
271.08	1714.15
271.30	1751.01
271.51	1732.58
271.73	1791.97
271.95	1806.31
272.16	1718.25
272.38	1679.33
272.59	1656.81
272.81	1705.96
273.02	1740.77
273.24	1746.92
273.46	1853.41
273.67	1697.77
273.89	1660.90
274.10	1683.43
274.32	1740.77
274.54	1763.30
274.75	1740.77
274.97	1611.75
275.18	1695.72
275.40	1728.49
275.61	1689.57
275.83	1683.43
276.05	1675.24
276.26	1746.92
276.48	1763.30
276.69	1642.47
276.91	1658.85
277.12	1769.44
277.34	1791.97
277.55	1757.16
277.77	1673.19
277.99	1724.39
278.20	1572.84
278.42	1601.51
278.63	1679.33
278.85	1681.38
279.06	1572.84
279.28	1724.39
279.49	1826.79
279.71	1771.49
279.93	1730.53
280.14	1742.82
280.36	1710.05
280.57	1708.01
280.79	1732.58
281.00	1714.15
281.22	1691.62
281.43	1753.06
281.65	1609.70
281.86	1675.24
282.08	1732.58
282.29	1787.88
282.51	1601.51
282.73	1683.43
282.94	1628.14
283.16	1734.63
283.37	1763.30
283.59	1685.48
283.80	1779.68
284.02	1705.96
284.23	1732.58
284.45	1654.76
284.66	1705.96
284.88	1628.14
285.09	1800.16
285.31	1742.82
285.52	1724.39
285.74	1607.66
285.95	1724.39
286.17	1691.62
286.38	1759.21
286.60	1705.96
286.81	1656.81
287.03	1644.52
287.24	1785.83
287.46	1669.09
287.67	1683.43
287.89	1814.50
288.10	1697.77
288.32	1712.10
288.53	1751.01
288.75	1708.01
288.96	1695.72
289.18	1644.52
289.39	1757.16
289.61	1748.97
289.82	1906.66
290.04	1767.40
290.25	1603.56
290.47	1753.06
290.68	1636.33
290.90	1773.54
291.11	1630.18
291.33	1757.16
291.54	1687.53
291.76	1703.91
291.97	1697.77
292.18	1732.58
292.40	1652.71
292.61	1617.90
292.83	1863.65
293.04	1701.86
293.26	1695.72
293.47	1665.00
293.69	1626.09
293.90	1689.57
294.12	1720.29
294.33	1621.99
294.55	1746.92
294.76	1736.68
294.97	1808.36
295.19	1841.12
295.40	1679.33
295.62	1746.92
295.83	1759.21
296.05	1738.73
296.26	1794.02
296.48	1636.33
296.69	1701.86
296.90	1675.24
297.12	1716.20
297.33	1742.82
297.55	1701.86
297.76	1710.05
297.98	1832.93
298.19	1748.97
298.41	1632.23
298.62	1648.61
298.83	1687.53
299.05	1746.92
299.26	1708.01
299.48	1671.14
299.69	1722.34
299.90	1738.73
300.12	1615.85
300.33	1785.83
300.55	1740.77
300.76	1636.33
300.98	1636.33
301.19	1765.35
301.40	1740.77
301.62	1683.43
301.83	1720.29
302.05	1716.20
302.26	1638.38
302.47	1767.40
302.69	1611.75
302.90	1740.77
303.12	1587.18
303.33	1703.91
303.54	1800.16
303.76	1656.81
303.97	1654.76
304.19	1722.34
304.40	1642.47
304.61	1701.86
304.83	1794.02
305.04	1771.49
305.26	1701.86
305.47	1576.94
305.68	1681.38
305.90	1632.23
306.11	1816.55
306.33	1753.06
306.54	1697.77
306.75	1701.86
306.97	1624.04
307.18	1675.24
307.39	1681.38
307.61	1722.34
307.82	1675.24
308.04	1699.81
308.25	1644.52
308.46	1687.53
308.68	1679.33
308.89	1669.09
309.10	1775.59
309.32	1785.83
309.53	1728.49
309.74	1730.53
309.96	1591.27
310.17	1806.31
310.39	1669.09
310.60	1734.63
310.81	1708.01
311.03	1689.57
311.24	1763.30
311.45	1695.72
311.67	1857.51
311.88	1636.33
312.09	1683.43
312.31	1607.66
312.52	1705.96
312.73	1726.44
312.95	1648.61
313.16	1687.53
313.37	1853.41
313.59	1755.11
313.80	1767.40
314.01	1773.54
314.23	1669.09
314.44	1624.04
314.65	1626.09
314.87	1636.33
315.08	1689.57
315.29	1718.25
315.51	1662.95
315.72	1578.98
315.93	1787.88
316.15	1781.73
316.36	1652.71
316.57	1652.71
316.79	1732.58
317.00	1769.44
317.21	1685.48
317.43	1689.57
317.64	1734.63
317.85	1656.81
318.07	1712.10
318.28	1681.38
318.49	1765.35
318.70	1896.42
318.92	1849.32
319.13	1791.97
319.34	1855.46
319.56	1849.32
319.77	1818.60
319.98	1773.54
320.20	1744.87
320.41	1755.11
320.62	1744.87
320.83	1570.79
321.05	1898.47
321.26	1732.58
321.47	1748.97
321.69	1724.39
321.90	1607.66
322.11	1738.73
322.32	1693.67
322.54	1794.02
322.75	1667.05
322.96	1845.22
323.18	1671.14
323.39	1613.80
323.60	1601.51
323.81	1673.19
324.03	1679.33
324.24	1681.38
324.45	1755.11
324.66	1746.92
324.88	1822.69
325.09	1767.40
325.30	1687.53
325.52	1746.92
325.73	1697.77
325.94	1587.18
326.15	1576.94
326.37	1638.38
326.58	1834.98
326.79	1837.03
327.00	1640.42
327.22	1734.63
327.43	1728.49
327.64	1636.33
327.85	1763.30
328.07	1755.11
328.28	1851.36
328.49	1689.57
328.70	1628.14
328.92	1712.10
329.13	1755.11
329.34	1728.49
329.55	1763.30
329.76	1767.40
329.98	1675.24
330.19	1769.44
330.40	1755.11
330.61	1691.62
330.83	1701.86
331.04	1609.70
331.25	1703.91
331.46	1665.00
331.68	1619.94
331.89	1773.54
332.10	1673.19
332.31	1634.28
332.52	1779.68
332.74	1736.68
332.95	1634.28
333.16	1699.81
333.37	1759.21
333.58	1687.53
333.80	1726.44
334.01	1589.22
334.22	1728.49
334.43	1665.00
334.64	1722.34
334.86	1619.94
335.07	1624.04
335.28	1824.74
335.49	1648.61
335.70	1740.77
335.92	1748.97
336.13	1880.04
336.34	1712.10
336.55	1740.77
336.76	1740.77
336.98	1701.86
337.19	1687.53
337.40	1771.49
337.61	1828.84
337.82	1591.27
338.04	1710.05
338.25	1650.66
338.46	1761.25
338.67	1673.19
338.88	1671.14
339.09	1619.94
339.31	1730.53
339.52	1652.71
339.73	1710.05
339.94	1681.38
340.15	1695.72
340.36	1607.66
340.58	1685.48
340.79	1660.90
341.00	1767.40
341.21	1705.96
341.42	1796.07
341.63	1705.96
341.85	1722.34
342.06	1783.78
342.27	1693.67
342.48	1806.31
342.69	1609.70
342.90	1693.67
343.12	1759.21
343.33	1681.38
343.54	1722.34
343.75	1755.11
343.96	1621.99
344.17	1705.96
344.38	1714.15
344.60	1708.01
344.81	1710.05
345.02	1695.72
345.23	1853.41
345.44	1771.49
345.65	1769.44
345.86	1763.30
346.07	1734.63
346.29	1624.04
346.50	1755.11
346.71	1673.19
346.92	1824.74
347.13	1769.44
347.34	1748.97
347.55	1681.38
347.76	1757.16
347.98	1626.09
348.19	1701.86
348.40	1757.16
348.61	1644.52
348.82	1804.26
349.03	1775.59
349.24	1656.81
349.45	1824.74
349.66	1542.12
349.88	1708.01
350.09	1654.76
350.30	1789.92
350.51	1769.44
350.72	1665.00
350.93	1738.73
351.14	1685.48
351.35	1722.34
351.56	1689.57
351.77	1714.15
351.99	1689.57
352.20	1804.26
352.41	1810.40
352.62	1601.51
352.83	1665.00
353.04	1691.62
353.25	1697.77
353.46	1722.34
353.67	1732.58
353.88	1638.38
354.09	1660.90
354.30	1724.39
354.52	1720.29
354.73	1667.05
354.94	1681.38
355.15	1712.10
355.36	1800.16
355.57	1705.96
355.78	1775.59
355.99	1691.62
356.20	1624.04
356.41	1783.78
356.62	1740.77
356.83	1685.48
357.04	1802.21
357.25	1538.02
357.46	1722.34
357.68	1605.61
357.89	1636.33
358.10	1665.00
358.31	1761.25
358.52	1738.73
358.73	1603.56
358.94	1576.94
359.15	1695.72
359.36	1697.77
359.57	1689.57
359.78	1681.38
359.99	1726.44
360.20	1619.94
360.41	1619.94
360.62	1701.86
360.83	1710.05
361.04	1683.43
361.25	1712.10
361.46	1728.49
361.67	1806.31
361.88	1705.96
362.09	1730.53
362.30	1722.34
362.51	1681.38
362.72	1693.67
362.93	1703.91
363.14	1732.58
363.35	1736.68
363.56	1591.27
363.78	1693.67
363.99	1755.11
364.20	1714.15
364.41	1716.20
364.62	1759.21
364.83	1746.92
365.04	1693.67
365.25	1724.39
365.46	1820.64
365.67	1624.04
365.88	1581.03
366.09	1691.62
366.30	1654.76
366.51	1718.25
366.72	1628.14
366.93	1734.63
367.14	1730.53
367.35	1757.16
367.56	1683.43
367.77	1740.77
367.98	1687.53
368.18	1746.92
368.39	1771.49
368.60	1626.09
368.81	1773.54
369.02	1734.63
369.23	1671.14
369.44	1660.90
369.65	1677.29
369.86	1734.63
370.07	1708.01
370.28	1652.71
370.49	1728.49
370.70	1751.01
370.91	1667.05
371.12	1634.28
371.33	1748.97
371.54	1667.05
371.75	1847.27
371.96	1564.65
372.17	1748.97
372.38	1671.14
372.59	1732.58
372.80	1718.25
373.01	1673.19
373.22	1732.58
373.43	1675.24
373.64	1689.57
373.85	1779.68
374.06	1806.31
374.26	1738.73
374.47	1675.24
374.68	1822.69
374.89	1755.11
375.10	1638.38
375.31	1732.58
375.52	1640.42
375.73	1703.91
375.94	1691.62
376.15	1732.58
376.36	1671.14
376.57	1738.73
376.78	1724.39
376.99	1785.83
377.20	1697.77
377.40	1701.86
377.61	1765.35
377.82	1675.24
378.03	1712.10
378.24	1673.19
378.45	1767.40
378.66	1667.05
378.87	1671.14
379.08	1634.28
379.29	1714.15
379.50	1759.21
379.71	1652.71
379.91	1763.30
380.12	1660.90
380.33	1652.71
380.54	1769.44
380.75	1734.63
380.96	1636.33
381.17	1703.91
381.38	1665.00
381.59	1744.87
381.80	1710.05
382.00	1943.52
382.21	1820.64
382.42	1859.56
382.63	1859.56
382.84	1681.38
383.05	1777.64
383.26	1892.32
383.47	1746.92
383.68	1796.07
383.88	1714.15
384.09	1648.61
384.30	1773.54
384.51	1771.49
384.72	1634.28
384.93	1673.19
385.14	1697.77
385.35	1769.44
385.55	1695.72
385.76	1877.99
385.97	1701.86
386.18	1566.70
386.39	1642.47
386.60	1681.38
386.81	1697.77
387.02	1742.82
387.22	1640.42
387.43	1769.44
387.64	1847.27
387.85	1890.28
388.06	2203.61
388.27	4233.15
388.48	6690.71
388.68	8257.41
388.89	9848.68
389.10	9969.51
389.31	8695.68
389.52	7669.64
389.73	6811.54
389.93	6178.72
390.14	5797.80
390.35	5285.81
390.56	4528.06
390.77	3786.69
390.98	2967.51
391.18	2543.58
391.39	2068.45
391.60	1830.88
391.81	1812.45
392.02	1759.21
392.23	1746.92
392.43	1783.78
392.64	1841.12
392.85	1769.44
393.06	1789.92
393.27	1763.30
393.47	1716.20
393.68	1726.44
393.89	1656.81
394.10	1841.12
394.31	1724.39
394.52	1716.20
394.72	1710.05
394.93	1847.27
395.14	1712.10
395.35	1779.68
395.56	1722.34
395.76	1726.44
395.97	1701.86
396.18	1828.84
396.39	1804.26
396.60	2062.30
396.80	1851.36
397.01	1810.40
397.22	1816.55
397.43	1847.27
397.64	1800.16
397.84	1714.15
398.05	1853.41
398.26	1746.92
398.47	1791.97
398.67	1779.68
398.88	1767.40
399.09	1730.53
399.30	1656.81
399.51	1818.60
399.71	1597.42
399.92	1675.24
400.13	1738.73
400.34	1650.66
400.54	1611.75
400.75	1812.45
400.96	1753.06
401.17	1771.49
401.37	1740.77
401.58	1652.71
401.79	1691.62
402.00	1875.94
402.21	2078.69
402.41	1888.23
402.62	2004.96
402.83	2054.11
403.04	1925.09
403.24	2078.69
403.45	1802.21
403.66	1867.75
403.87	1884.13
404.07	1873.89
404.28	1900.52
404.49	1890.28
404.70	1769.44
404.90	1740.77
405.11	1771.49
405.32	1753.06
405.52	1656.81
405.73	1683.43
405.94	1669.09
406.15	1695.72
406.35	1720.29
406.56	1669.09
406.77	1685.48
406.98	1751.01
407.18	1595.37
407.39	1714.15
407.60	1660.90
407.80	1718.25
408.01	1665.00
408.22	1806.31
408.43	1642.47
408.63	1738.73
408.84	1683.43
409.05	1744.87
409.25	1689.57
409.46	1683.43
409.67	1685.48
409.88	1669.09
410.08	1685.48
410.29	1685.48
410.50	1738.73
410.70	1683.43
410.91	1607.66
411.12	1695.72
411.32	1769.44
411.53	1720.29
411.74	1808.36
411.95	1757.16
412.15	1697.77
412.36	1767.40
412.57	1828.84
412.77	1785.83
412.98	1761.25
413.19	1683.43
413.39	1724.39
413.60	1742.82
413.81	1847.27
414.01	1738.73
414.22	1755.11
414.43	1761.25
414.63	1687.53
414.84	1701.86
415.05	1662.95
415.25	1634.28
415.46	1787.88
415.67	1710.05
415.87	1714.15
416.08	1734.63
416.29	1699.81
416.49	1691.62
416.70	1626.09
416.91	1716.20
417.11	1693.67
417.32	1802.21
417.53	1779.68
417.73	1691.62
417.94	1712.10
418.15	1718.25
418.35	1714.15
418.56	1751.01
418.77	1826.79
418.97	1644.52
419.18	1669.09
419.38	1595.37
419.59	1734.63
419.80	1791.97
420.00	1734.63
420.21	1716.20
420.42	1810.40
420.62	1748.97
420.83	1656.81
421.04	1757.16
421.24	1716.20
421.45	1710.05
421.65	1724.39
421.86	1667.05
422.07	1714.15
422.27	1644.52
422.48	1695.72
422.69	1652.71
422.89	1748.97
423.10	1689.57
423.30	1624.04
423.51	1822.69
423.72	1728.49
423.92	1648.61
424.13	1673.19
424.33	1714.15
424.54	1759.21
424.75	1759.21
424.95	1816.55
425.16	1734.63
425.36	1685.48
425.57	1744.87
425.78	1808.36
425.98	1800.16
426.19	1665.00
426.39	1621.99
426.60	1761.25
426.81	1810.40
427.01	1708.01
427.22	1662.95
427.42	1656.81
427.63	1705.96
427.83	1742.82
428.04	1839.08
428.25	1841.12
428.45	1822.69
428.66	1705.96
428.86	1724.39
429.07	1714.15
429.28	1683.43
429.48	1730.53
429.69	1634.28
429.89	1693.67
430.10	1675.24
430.30	1718.25
430.51	1771.49
430.71	1687.53
430.92	1689.57
431.13	1642.47
431.33	1730.53
431.54	1734.63
431.74	1771.49
431.95	1849.32
432.15	1718.25
432.36	1621.99
432.56	1742.82
432.77	1886.18
432.98	1714.15
433.18	1804.26
433.39	1710.05
433.59	1640.42
433.80	1787.88
434.00	1779.68
434.21	1650.66
434.41	1763.30
434.62	1816.55
434.82	1644.52
435.03	1689.57
435.23	1824.74
435.44	1589.22
435.64	1738.73
435.85	1699.81
436.06	1685.48
436.26	1834.98
436.47	1773.54
436.67	1701.86
436.88	1669.09
437.08	1734.63
437.29	1806.31
437.49	1744.87
437.70	1779.68
437.90	1738.73
438.11	1802.21
438.31	1767.40
438.52	1900.52
438.72	1849.32
438.93	1931.23
439.13	1681.38
439.34	1826.79
439.54	1685.48
439.75	1851.36
439.95	1724.39
440.16	1724.39
440.36	1761.25
440.57	1757.16
440.77	1773.54
440.98	1771.49
441.18	1703.91
441.39	1652.71
441.59	1652.71
441.80	1849.32
442.00	1734.63
442.21	1820.64
442.41	1611.75
442.62	1826.79
442.82	1722.34
443.02	1660.90
443.23	1828.84
443.43	1742.82
443.64	1773.54
443.84	1673.19
444.05	1746.92
444.25	1781.73
444.46	1726.44
444.66	1640.42
444.87	1851.36
445.07	1634.28
445.28	1740.77
445.48	1804.26
445.69	1775.59
445.89	1935.33
446.09	1734.63
446.30	2025.44
446.50	2668.50
446.71	3745.73
446.91	4302.78
447.12	4753.34
447.32	4941.75
447.53	4374.46
447.73	3991.49
447.93	3559.37
448.14	3368.91
448.34	3274.70
448.55	2994.13
448.75	2828.24
448.96	2582.49
449.16	2435.03
449.36	2287.58
449.57	2095.07
449.77	1900.52
449.98	1736.68
450.18	1744.87
450.39	1828.84
450.59	1796.07
450.79	1738.73
451.00	1679.33
451.20	1781.73
451.41	1697.77
451.61	1806.31
451.81	1695.72
452.02	1646.57
452.22	1667.05
452.43	1742.82
452.63	1681.38
452.84	1744.87
453.04	1636.33
453.24	1773.54
453.45	1705.96
453.65	1718.25
453.86	1724.39
454.06	1753.06
454.26	1761.25
454.47	1636.33
454.67	1791.97
454.87	1683.43
455.08	1736.68
455.28	1834.98
455.49	1724.39
455.69	1759.21
455.89	1824.74
456.10	1820.64
456.30	1683.43
456.51	1738.73
456.71	1730.53
456.91	1800.16
457.12	1718.25
457.32	1775.59
457.52	1701.86
457.73	1771.49
457.93	1824.74
458.14	1757.16
458.34	1654.76
458.54	1681.38
458.75	1716.20
458.95	1865.70
459.15	1708.01
459.36	1746.92
459.56	1714.15
459.76	1912.80
459.97	1746.92
460.17	1703.91
460.37	1808.36
460.58	1810.40
460.78	1816.55
460.99	1585.13
461.19	1642.47
461.39	1751.01
461.60	1673.19
461.80	1732.58
462.00	1646.57
462.21	1665.00
462.41	1722.34
462.61	1638.38
462.82	1589.22
463.02	1767.40
463.22	1726.44
463.43	1783.78
463.63	1757.16
463.83	1798.12
464.04	1724.39
464.24	1748.97
464.44	1607.66
464.64	1748.97
464.85	1779.68
465.05	1757.16
465.25	1802.21
465.46	1712.10
465.66	1822.69
465.86	1730.53
466.07	1794.02
466.27	1716.20
466.47	1660.90
466.68	1701.86
466.88	1822.69
467.08	1689.57
467.29	1777.64
467.49	1751.01
467.69	1665.00
467.89	1767.40
468.10	1724.39
468.30	1748.97
468.50	1761.25
468.71	1761.25
468.91	1607.66
469.11	1822.69
469.31	1751.01
469.52	1687.53
469.72	1855.46
469.92	1873.89
470.13	1683.43
470.33	1724.39
470.53	1871.84
470.73	2050.02
470.94	2310.11
471.14	2301.92
471.34	2488.28
471.54	2451.42
471.75	2215.90
471.95	2158.56
472.15	2076.64
472.36	2043.87
472.56	2084.83
472.76	2056.16
472.96	2002.91
473.17	1923.04
473.37	1861.60
473.57	1775.59
473.77	1800.16
473.98	1748.97
474.18	1673.19
474.38	1931.23
474.58	1761.25
474.79	1638.38
474.99	1761.25
475.19	1804.26
475.39	1624.04
475.60	1658.85
475.80	1748.97
476.00	1689.57
476.20	1742.82
476.41	1683.43
476.61	1834.98
476.81	1763.30
477.01	1665.00
477.21	1845.22
477.42	1800.16
477.62	1650.66
477.82	1738.73
478.02	1677.29
478.23	1714.15
478.43	1695.72
478.63	1701.86
478.83	1669.09
479.03	1695.72
479.24	1742.82
479.44	1757.16
479.64	1658.85
479.84	1570.79
480.04	1716.20
480.25	1755.11
480.45	1699.81
480.65	1738.73
480.85	1816.55
481.06	1636.33
481.26	1808.36
481.46	1740.77
481.66	1736.68
481.86	1683.43
482.06	1810.40
482.27	1726.44
482.47	1640.42
482.67	1781.73
482.87	1703.91
483.07	1783.78
483.28	1699.81
483.48	1710.05
483.68	1685.48
483.88	1640.42
484.08	1615.85
484.29	1648.61
484.49	1650.66
484.69	1648.61
484.89	1789.92
485.09	1765.35
485.29	1763.30
485.50	1703.91
485.70	1771.49
485.90	1775.59
486.10	1785.83
486.30	1757.16
486.50	1681.38
486.71	1722.34
486.91	1785.83
487.11	1779.68
487.31	1650.66
487.51	1736.68
487.71	1650.66
487.91	1687.53
488.12	1679.33
488.32	1566.70
488.52	1685.48
488.72	1683.43
488.92	1679.33
489.12	1822.69
489.32	1753.06
489.53	1726.44
489.73	1656.81
489.93	1796.07
490.13	1660.90
490.33	1716.20
490.53	1740.77
490.73	1814.50
490.94	1665.00
491.14	1730.53
491.34	1820.64
491.54	2181.09
491.74	2494.43
491.94	2973.65
492.14	3035.09
492.34	2930.64
492.54	2729.94
492.75	2422.75
492.95	2414.56
493.15	2271.20
493.35	2260.96
493.55	2297.82
493.75	2080.74
493.95	2052.06
494.15	1970.15
494.35	1959.91
494.56	1820.64
494.76	1816.55
494.96	1789.92
495.16	1808.36
495.36	1773.54
495.56	1746.92
495.76	1695.72
495.96	1722.34
496.16	1689.57
496.36	1800.16
496.56	1697.77
496.77	1722.34
496.97	1734.63
497.17	1755.11
497.37	1581.03
497.57	1732.58
497.77	1781.73
497.97	1683.43
498.17	1665.00
498.37	1693.67
498.57	1736.68
498.77	1703.91
498.97	1722.34
499.17	1857.51
499.38	1648.61
499.58	1757.16
499.78	1798.12
499.98	1767.40
500.18	1761.25
500.38	1718.25
500.58	1931.23
500.78	2588.63
500.98	4550.59
501.18	5918.63
501.38	6657.95
501.58	7262.10
501.78	6682.52
501.98	5617.58
502.18	5038.00
502.38	4370.37
502.58	4237.25
502.78	3827.65
502.98	3684.30
503.18	3391.44
503.38	3121.10
503.59	2942.93
503.79	2705.37
503.99	2500.57
504.19	2248.67
504.39	2164.70
504.59	2250.72
504.79	2074.59
504.99	2050.02
505.19	1959.91
505.39	1865.70
505.59	1886.18
505.79	1853.41
505.99	1894.37
506.19	1839.08
506.39	1832.93
506.59	1757.16
506.79	1771.49
506.99	1859.56
507.19	1767.40
507.39	1714.15
507.59	1705.96
507.79	1687.53
507.99	1638.38
508.19	1689.57
508.39	1769.44
508.59	1738.73
508.79	1849.32
508.99	1791.97
509.19	1703.91
509.39	1701.86
509.59	1636.33
509.79	1691.62
509.99	1720.29
510.19	1837.03
510.39	1837.03
510.59	1720.29
510.79	1695.72
510.99	1677.29
511.19	1730.53
511.39	1837.03
511.59	1781.73
511.79	1777.64
511.99	1791.97
512.19	1804.26
512.38	1701.86
512.58	1710.05
512.78	1773.54
512.98	1726.44
513.18	1820.64
513.38	1669.09
513.58	1714.15
513.78	1634.28
513.98	1691.62
514.18	1675.24
514.38	1699.81
514.58	1787.88
514.78	1667.05
514.98	1685.48
515.18	1710.05
515.38	1685.48
515.58	1845.22
515.78	1734.63
515.98	1710.05
516.18	1798.12
516.38	1767.40
516.57	1722.34
516.77	1734.63
516.97	1712.10
517.17	1693.67
517.37	1615.85
517.57	1757.16
517.77	1691.62
517.97	1667.05
518.17	1802.21
518.37	1658.85
518.57	1652.71
518.77	1718.25
518.97	1712.10
519.16	1757.16
519.36	1802.21
519.56	1689.57
519.76	1716.20
519.96	1718.25
520.16	1759.21
520.36	1703.91
520.56	1771.49
520.76	1716.20
520.96	1693.67
521.16	1726.44
521.35	1744.87
521.55	1814.50
521.75	1665.00
521.95	1667.05
522.15	1712.10
522.35	1628.14
522.55	1728.49
522.75	1751.01
522.95	1626.09
523.14	1710.05
523.34	1796.07
523.54	1734.63
523.74	1697.77
523.94	1730.53
524.14	1652.71
524.34	1742.82
524.54	1794.02
524.73	1806.31
524.93	1726.44
525.13	1724.39
525.33	1685.48
525.53	1900.52
525.73	1806.31
525.93	1751.01
526.13	1697.77
526.32	1726.44
526.52	1744.87
526.72	1767.40
526.92	1746.92
527.12	1675.24
527.32	1673.19
527.52	1763.30
527.71	1843.17
527.91	1736.68
528.11	1738.73
528.31	1759.21
528.51	1644.52
528.71	1773.54
528.90	1771.49
529.10	1822.69
529.30	1765.35
529.50	1578.98
529.70	1724.39
529.90	1681.38
530.09	1712.10
530.29	1665.00
530.49	1685.48
530.69	1902.56
530.89	1800.16
531.09	1787.88
531.28	1705.96
531.48	1769.44
531.68	1714.15
531.88	1771.49
532.08	1812.45
532.28	1703.91
532.47	1763.30
532.67	1794.02
532.87	1810.40
533.07	1689.57
533.27	1796.07
533.46	1748.97
533.66	1703.91
533.86	1714.15
534.06	1785.83
534.26	1771.49
534.45	1714.15
534.65	1796.07
534.85	1804.26
535.05	1708.01
535.25	1785.83
535.44	1685.48
535.64	1812.45
535.84	1669.09
536.04	1730.53
536.24	1730.53
536.43	1644.52
536.63	1740.77
536.83	1654.76
537.03	1761.25
537.22	1636.33
537.42	1667.05
537.62	1681.38
537.82	1708.01
538.02	1794.02
538.21	1830.88
538.41	1875.94
538.61	1812.45
538.81	1761.25
539.00	1853.41
539.20	1652.71
539.40	1687.53
539.60	1662.95
539.79	1789.92
539.99	1742.82
540.19	1695.72
540.39	1732.58
540.58	1800.16
540.78	1746.92
540.98	1697.77
541.18	1763.30
541.37	1818.60
541.57	1720.29
541.77	1740.77
541.97	1624.04
542.16	1662.95
542.36	1650.66
542.56	1775.59
542.76	1769.44
542.95	1804.26
543.15	1755.11
543.35	1734.63
543.54	1642.47
543.74	1726.44
543.94	1824.74
544.14	1751.01
544.33	1779.68
544.53	1667.05
544.73	1716.20
544.93	1693.67
545.12	1753.06
545.32	1703.91
545.52	1716.20
545.71	1714.15
545.91	1669.09
546.11	1738.73
546.30	1701.86
546.50	1816.55
546.70	1816.55
546.90	1722.34
547.09	1624.04
547.29	1652.71
547.49	1781.73
547.68	1814.50
547.88	1726.44
548.08	1777.64
548.27	2160.61
548.47	1697.77
548.67	1708.01
548.87	1783.78
549.06	1689.57
549.26	1798.12
549.46	1761.25
549.65	1740.77
549.85	1759.21
550.05	1734.63
550.24	1644.52
550.44	1773.54
550.64	1775.59
550.83	1796.07
551.03	1787.88
551.23	1777.64
551.42	1787.88
551.62	1736.68
551.82	1740.77
552.01	1748.97
552.21	1818.60
552.41	1701.86
552.60	1865.70
552.80	1746.92
553.00	1722.34
553.19	1710.05
553.39	1689.57
553.59	1677.29
553.78	1714.15
553.98	1738.73
554.17	1660.90
554.37	1777.64
554.57	1804.26
554.76	1679.33
554.96	1699.81
555.16	1794.02
555.35	1769.44
555.55	1798.12
555.75	1740.77
555.94	1908.71
556.14	1615.85
556.33	1710.05
556.53	1738.73
556.73	1722.34
556.92	1726.44
557.12	1837.03
557.32	1888.23
557.51	1777.64
557.71	1746.92
557.90	1804.26
558.10	1824.74
558.30	1693.67
558.49	1701.86
558.69	1746.92
558.88	1742.82
559.08	1677.29
559.28	1720.29
559.47	1679.33
559.67	1677.29
559.86	1822.69
560.06	1837.03
560.26	1732.58
560.45	1734.63
560.65	1718.25
560.84	1849.32
561.04	1685.48
561.24	1832.93
561.43	1658.85
561.63	1808.36
561.82	1748.97
562.02	1771.49
562.22	1738.73
562.41	1648.61
562.61	1699.81
562.80	1621.99
563.00	1869.80
563.19	1699.81
563.39	1712.10
563.59	1777.64
563.78	1667.05
563.98	1638.38
564.17	1640.42
564.37	1597.42
564.56	1726.44
564.76	1640.42
564.96	1841.12
565.15	1697.77
565.35	1912.80
565.54	1732.58
565.74	1751.01
565.93	1789.92
566.13	1708.01
566.32	1746.92
566.52	1718.25
566.71	1841.12
566.91	1751.01
567.11	1708.01
567.30	1703.91
567.50	1738.73
567.69	1742.82
567.89	1773.54
568.08	1638.38
568.28	1763.30
568.47	1642.47
568.67	1708.01
568.86	1759.21
569.06	1718.25
569.25	1703.91
569.45	1718.25
569.64	1720.29
569.84	1728.49
570.04	1742.82
570.23	1722.34
570.43	1734.63
570.62	1779.68
570.82	1812.45
571.01	1648.61
571.21	1693.67
571.40	1658.85
571.60	1779.68
571.79	1740.77
571.99	1779.68
572.18	1722.34
572.38	1773.54
572.57	1767.40
572.77	1783.78
572.96	1900.52
573.16	1830.88
573.35	1728.49
573.55	1834.98
573.74	1841.12
573.94	1751.01
574.13	1724.39
574.33	1791.97
574.52	1839.08
574.71	1665.00
574.91	1810.40
575.10	1665.00
575.30	1781.73
575.49	1730.53
575.69	1716.20
575.88	1806.31
576.08	1693.67
576.27	1816.55
576.47	1708.01
576.66	1902.56
576.86	1826.79
577.05	1701.86
577.25	1794.02
577.44	1873.89
577.64	1738.73
577.83	1834.98
578.02	1744.87
578.22	1906.66
578.41	1904.61
578.61	1791.97
578.80	1681.38
579.00	1773.54
579.19	1722.34
579.39	1814.50
579.58	1767.40
579.77	1751.01
579.97	1865.70
580.16	1783.78
580.36	1849.32
580.55	1871.84
580.75	1701.86
580.94	1812.45
581.13	1937.38
581.33	1837.03
581.52	1710.05
581.72	1935.33
581.91	1820.64
582.11	1718.25
582.30	1806.31
582.49	1701.86
582.69	1783.78
582.88	1759.21
583.08	1832.93
583.27	1816.55
583.47	1804.26
583.66	1642.47
583.85	1763.30
584.05	1783.78
584.24	1736.68
584.44	1791.97
584.63	1816.55
584.82	1810.40
585.02	1865.70
585.21	1847.27
585.41	1783.78
585.60	1798.12
585.79	1869.80
585.99	1910.75
586.18	1886.18
586.37	2240.48
586.57	3352.52
586.76	10035.05
586.96	24475.27
587.15	35020.27
587.34	41194.89
587.54	42823.03
587.73	37494.21
587.93	26697.32
588.12	21710.52
588.31	18591.46
588.51	16713.47
588.70	15386.39
588.89	14276.39
589.09	12812.09
589.28	11138.90
589.47	9420.66
589.67	8179.59
589.86	6686.62
590.06	5117.87
590.25	3905.48
590.44	3086.29
590.64	2609.11
590.83	2230.24
591.02	2152.42
591.22	1918.95
591.41	1918.95
591.60	1853.41
591.80	1904.61
591.99	1718.25
592.18	1755.11
592.38	1810.40
592.57	1777.64
592.76	1861.60
592.96	1730.53
593.15	1748.97
593.34	1751.01
593.54	1722.34
593.73	1798.12
593.92	1800.16
594.12	1714.15
594.31	1732.58
594.50	1826.79
594.70	1755.11
594.89	1837.03
595.08	1746.92
595.28	1654.76
595.47	1910.75
595.66	1808.36
595.86	1685.48
596.05	1761.25
596.24	1708.01
596.43	1877.99
596.63	1841.12
596.82	1839.08
597.01	1732.58
597.21	1843.17
597.40	1736.68
597.59	1755.11
597.79	1689.57
597.98	1742.82
598.17	1662.95
598.36	1763.30
598.56	1757.16
598.75	1677.29
598.94	1724.39
599.14	1775.59
599.33	1679.33
599.52	1806.31
599.71	1787.88
599.91	1834.98
600.10	1800.16
600.29	1763.30
600.48	1804.26
600.68	1677.29
600.87	1650.66
601.06	1769.44
601.26	1755.11
601.45	1665.00
601.64	1716.20
601.83	1738.73
602.03	1720.29
602.22	1626.09
602.41	1775.59
602.60	1859.56
602.80	1898.47
602.99	1703.91
603.18	1746.92
603.37	1783.78
603.57	1734.63
603.76	1798.12
603.95	1742.82
604.14	1722.34
604.34	1769.44
604.53	1757.16
604.72	1744.87
604.91	1771.49
605.10	1767.40
605.30	1708.01
605.49	1830.88
605.68	1814.50
605.87	1802.21
606.07	1732.58
606.26	1636.33
606.45	1802.21
606.64	1900.52
606.84	1687.53
607.03	1669.09
607.22	1759.21
607.41	1615.85
607.60	1673.19
607.80	1781.73
607.99	1699.81
608.18	1710.05
608.37	1773.54
608.56	1673.19
608.76	1759.21
608.95	1861.60
609.14	1755.11
609.33	1701.86
609.52	1769.44
609.72	1796.07
609.91	1728.49
610.10	1816.55
610.29	1837.03
610.48	1693.67
610.68	1726.44
610.87	1701.86
611.06	1787.88
611.25	1697.77
611.44	1755.11
611.63	1724.39
611.83	1779.68
612.02	1607.66
612.21	1814.50
612.40	1593.32
612.59	1673.19
612.79	1662.95
612.98	1693.67
613.17	1787.88
613.36	1679.33
613.55	1742.82
613.74	1710.05
613.93	1660.90
614.13	1744.87
614.32	1726.44
614.51	1695.72
614.70	1738.73
614.89	1632.23
615.08	1738.73
615.28	2086.88
615.47	1619.94
615.66	1734.63
615.85	1703.91
616.04	1789.92
616.23	1824.74
616.42	1759.21
616.62	1693.67
616.81	1763.30
617.00	1783.78
617.19	1755.11
617.38	1740.77
617.57	1687.53
617.76	1734.63
617.95	1820.64
618.15	1732.58
618.34	1828.84
618.53	1648.61
618.72	1859.56
618.91	1834.98
619.10	1783.78
619.29	1699.81
619.48	1718.25
619.68	1724.39
619.87	1738.73
620.06	1705.96
620.25	1781.73
620.44	1730.53
620.63	1689.57
620.82	1720.29
621.01	1730.53
621.20	1751.01
621.39	1759.21
621.59	1691.62
621.78	1691.62
621.97	1800.16
622.16	1693.67
622.35	1712.10
622.54	1783.78
622.73	1820.64
622.92	1652.71
623.11	1806.31
623.30	1724.39
623.49	1712.10
623.68	1705.96
623.88	1849.32
624.07	1660.90
624.26	1710.05
624.45	1746.92
624.64	1685.48
624.83	1759.21
625.02	1640.42
625.21	1705.96
625.40	1734.63
625.59	1822.69
625.78	1779.68
625.97	1822.69
626.16	1781.73
626.35	1783.78
626.54	1785.83
626.74	1824.74
626.93	1724.39
627.12	1632.23
627.31	1767.40
627.50	1703.91
627.69	1691.62
627.88	1632.23
628.07	1660.90
628.26	1708.01
628.45	1714.15
628.64	1656.81
628.83	1677.29
629.02	1728.49
629.21	1755.11
629.40	1753.06
629.59	1644.52
629.78	1640.42
629.97	1732.58
630.16	1732.58
630.35	1697.77
630.54	1691.62
630.73	1714.15
630.92	1767.40
631.11	1726.44
631.30	1755.11
631.49	1732.58
631.68	1740.77
631.87	1656.81
632.06	1730.53
632.25	1853.41
632.44	1716.20
632.63	1697.77
632.82	1708.01
633.01	1736.68
633.20	1738.73
633.39	1607.66
633.58	1621.99
633.77	1771.49
633.96	1736.68
634.15	1712.10
634.34	1759.21
634.53	1742.82
634.72	1619.94
634.91	1667.05
635.10	1738.73
635.29	1746.92
635.48	1693.67
635.67	1667.05
635.86	1662.95
636.05	1808.36
636.24	1689.57
636.43	1789.92
636.62	1695.72
636.81	1570.79
637.00	1740.77
637.19	1798.12
637.38	1755.11
637.57	1654.76
637.76	1671.14
637.95	1697.77
638.14	1656.81
638.33	1708.01
638.52	1714.15
638.71	1691.62
638.89	1665.00
639.08	1869.80
639.27	1751.01
639.46	1677.29
639.65	1746.92
639.84	1753.06
640.03	1748.97
640.22	1746.92
640.41	1875.94
640.60	1662.95
640.79	1834.98
640.98	1759.21
641.17	1722.34
641.36	1744.87
641.55	1779.68
641.74	1691.62
641.92	1630.18
642.11	1656.81
642.30	1708.01
642.49	1679.33
642.68	1771.49
642.87	1671.14
643.06	1804.26
643.25	1652.71
643.44	1658.85
643.63	1734.63
643.82	1734.63
644.00	1636.33
644.19	1681.38
644.38	1697.77
644.57	1748.97
644.76	1718.25
644.95	1705.96
645.14	1738.73
645.33	1728.49
645.52	1632.23
645.71	1652.71
645.89	1595.37
646.08	1687.53
646.27	1730.53
646.46	1826.79
646.65	1697.77
646.84	1744.87
647.03	1619.94
647.22	1771.49
647.40	1718.25
647.59	1738.73
647.78	1742.82
647.97	1650.66
648.16	1708.01
648.35	1806.31
648.54	1791.97
648.73	1628.14
648.91	1830.88
649.10	1767.40
649.29	1724.39
649.48	1636.33
649.67	1716.20
649.86	1734.63
650.05	1617.90
650.23	1767.40
650.42	1662.95
650.61	1699.81
650.80	1685.48
650.99	1843.17
651.18	1718.25
651.36	1843.17
651.55	1601.51
651.74	1699.81
651.93	1656.81
652.12	1699.81
652.31	1742.82
652.49	1714.15
652.68	1669.09
652.87	1775.59
653.06	1710.05
653.25	1837.03
653.44	1701.86
653.62	1816.55
653.81	1685.48
654.00	1734.63
654.19	1791.97
654.38	1789.92
654.56	1814.50
654.75	1744.87
654.94	1742.82
655.13	1675.24
655.32	1673.19
655.51	1804.26
655.69	1679.33
655.88	1710.05
656.07	1650.66
656.26	1742.82
656.45	1673.19
656.63	1763.30
656.82	1732.58
657.01	1796.07
657.20	1638.38
657.38	1806.31
657.57	1656.81
657.76	1669.09
657.95	1662.95
658.14	1701.86
658.32	1683.43
658.51	1650.66
658.70	1697.77
658.89	1812.45
659.08	1742.82
659.26	1816.55
659.45	1650.66
659.64	1681.38
659.83	1675.24
660.01	1898.47
660.20	1722.34
660.39	1853.41
660.58	1632.23
660.76	1710.05
660.95	1673.19
661.14	1681.38
661.33	1621.99
661.51	1718.25
661.70	1720.29
661.89	1732.58
662.08	1738.73
662.26	1648.61
662.45	1677.29
662.64	1779.68
662.83	1671.14
663.01	1699.81
663.20	1744.87
663.39	1841.12
663.58	1683.43
663.76	1689.57
663.95	1695.72
664.14	1761.25
664.32	1632.23
664.51	1597.42
664.70	1595.37
664.89	1742.82
665.07	1603.56
665.26	1763.30
665.45	1617.90
665.64	1779.68
665.82	1669.09
666.01	1718.25
666.20	1712.10
666.38	1820.64
666.57	1822.69
666.76	2187.23
666.95	4579.26
667.13	10508.13
667.32	15374.10
667.51	17915.63
667.69	19400.41
667.88	17772.27
668.07	12345.16
668.25	9748.33
668.44	8241.03
668.63	7335.82
668.81	6983.57
669.00	6383.52
669.19	5722.02
669.38	5056.43
669.56	4571.07
669.75	4118.47
669.94	3499.98
670.12	2969.55
670.31	2510.81
670.50	2269.15
670.68	2064.35
670.87	1972.19
671.06	1867.75
671.24	1757.16
671.43	1873.89
671.62	1796.07
671.80	1701.86
671.99	1748.97
672.18	1781.73
672.36	1658.85
672.55	1769.44
672.74	1697.77
672.92	1619.94
673.11	1767.40
673.29	1724.39
673.48	1808.36
673.67	1636.33
673.85	1820.64
674.04	1734.63
674.23	1705.96
674.41	1822.69
674.60	1667.05
674.79	1611.75
674.97	1671.14
675.16	1763.30
675.34	1789.92
675.53	1736.68
675.72	1765.35
675.90	1783.78
676.09	1634.28
676.28	1742.82
676.46	1626.09
676.65	1787.88
676.83	1640.42
677.02	1728.49
677.21	1773.54
677.39	1675.24
677.58	1660.90
677.77	1679.33
677.95	1708.01
678.14	1755.11
678.32	1718.25
678.51	1691.62
678.70	1888.23
678.88	1611.75
679.07	1800.16
679.25	1738.73
679.44	1712.10
679.63	1671.14
679.81	1689.57
680.00	1660.90
680.18	1736.68
680.37	1859.56
680.55	1755.11
680.74	1632.23
680.93	1656.81
681.11	1798.12
681.30	1675.24
681.48	1761.25
681.67	1736.68
681.85	1714.15
682.04	1755.11
682.23	1695.72
682.41	1724.39
682.60	1710.05
682.78	1710.05
682.97	1632.23
683.15	1636.33
683.34	1662.95
683.53	1871.84
683.71	1691.62
683.90	1781.73
684.08	1830.88
684.27	1673.19
684.45	1701.86
684.64	1777.64
684.82	1718.25
685.01	1755.11
685.19	1689.57
685.38	1812.45
685.57	1824.74
685.75	1679.33
685.94	1740.77
686.12	1644.52
686.31	1724.39
686.49	1775.59
686.68	1630.18
686.86	1720.29
687.05	1775.59
687.23	1771.49
687.42	1677.29
687.60	1705.96
687.79	1726.44
687.97	1855.46
688.16	1785.83
688.34	1861.60
688.53	1648.61
688.71	1794.02
688.90	1703.91
689.08	1595.37
689.27	1646.57
689.45	1701.86
689.64	1736.68
689.82	1738.73
690.01	1755.11
690.19	1732.58
690.38	1712.10
690.56	1834.98
690.75	1644.52
690.93	1595.37
691.12	1683.43
691.30	1701.86
691.49	1703.91
691.67	1738.73
691.86	1802.21
692.04	1662.95
692.23	1681.38
692.41	1624.04
692.60	1806.31
692.78	1757.16
692.97	1665.00
693.15	1751.01
693.34	1859.56
693.52	1714.15
693.71	1697.77
693.89	1656.81
694.08	1665.00
694.26	1705.96
694.44	1740.77
694.63	1673.19
694.81	1683.43
695.00	1589.22
695.18	1771.49
695.37	1826.79
695.55	1732.58
695.74	1703.91
695.92	1624.04
696.10	1724.39
696.29	1660.90
696.47	1683.43
696.66	1578.98
696.84	1662.95
697.03	1669.09
697.21	1775.59
697.40	2295.77
697.58	1832.93
697.76	1626.09
697.95	1677.29
698.13	1665.00
698.32	1665.00
698.50	1703.91
698.68	1726.44
698.87	1691.62
699.05	1808.36
699.24	1828.84
699.42	1685.48
699.61	1708.01
699.79	1773.54
699.97	1724.39
700.16	1619.94
700.34	1615.85
700.53	1710.05
700.71	1806.31
700.89	1804.26
701.08	1662.95
701.26	1787.88
701.45	2127.84
701.63	1691.62
701.81	1722.34
702.00	1621.99
702.18	1736.68
702.37	1683.43
702.55	1703.91
702.73	1701.86
702.92	1605.61
703.10	1697.77
703.28	1619.94
703.47	1632.23
703.65	1763.30
703.84	1757.16
704.02	1693.67
704.20	1773.54
704.39	1687.53
704.57	1728.49
704.75	1738.73
704.94	1804.26
705.12	1738.73
705.30	1806.31
705.49	2252.77
705.67	4356.03
705.86	9449.33
706.04	12795.71
706.22	14747.42
706.41	15705.87
706.59	13991.72
706.77	9752.43
706.96	7466.89
707.14	6746.01
707.32	6014.88
707.51	5693.35
707.69	4956.08
707.87	4249.54
708.06	3633.10
708.24	3082.19
708.42	2439.13
708.61	2269.15
708.79	1914.85
708.97	1859.56
709.16	1806.31
709.34	1804.26
709.52	1662.95
709.71	1738.73
709.89	1724.39
710.07	1683.43
710.26	1705.96
710.44	1673.19
710.62	1773.54
710.80	1701.86
710.99	1757.16
711.17	1806.31
711.35	1671.14
711.54	1708.01
711.72	1726.44
711.90	1730.53
712.09	1716.20
712.27	1689.57
712.45	1767.40
712.63	1609.70
712.82	1748.97
713.00	1703.91
713.18	1751.01
713.37	1714.15
713.55	1794.02
713.73	1728.49
713.91	1681.38
714.10	1667.05
714.28	1658.85
714.46	1638.38
714.65	1687.53
714.83	1734.63
715.01	1757.16
715.19	1744.87
715.38	1691.62
715.56	1681.38
715.74	1665.00
715.92	1636.33
716.11	1730.53
716.29	1607.66
716.47	1667.05
716.65	1697.77
716.84	1665.00
717.02	1767.40
717.20	1644.52
717.38	1726.44
717.57	1814.50
717.75	1742.82
717.93	1675.24
718.11	1771.49
718.30	1611.75
718.48	1695.72
718.66	1763.30
718.84	1703.91
719.03	1732.58
719.21	1624.04
719.39	1859.56
719.57	1705.96
719.75	1877.99
719.94	1658.85
720.12	1671.14
720.30	1759.21
720.48	1697.77
720.67	1599.46
720.85	1656.81
721.03	1695.72
721.21	1619.94
721.39	1843.17
721.58	1660.90
721.76	1617.90
721.94	1732.58
722.12	1652.71
722.30	1826.79
722.49	1683.43
722.67	1660.90
722.85	1697.77
723.03	1560.55
723.21	1654.76
723.40	1656.81
723.58	1804.26
723.76	1763.30
723.94	1738.73
724.12	1685.48
724.30	1710.05
724.49	1759.21
724.67	1630.18
724.85	1796.07
725.03	1646.57
725.21	1814.50
725.40	1800.16
725.58	1677.29
725.76	1796.07
725.94	1763.30
726.12	1615.85
726.30	1718.25
726.49	1652.71
726.67	1613.80
726.85	1699.81
727.03	1802.21
727.21	2168.80
727.39	2863.06
727.57	3835.85
727.76	4257.73
727.94	4427.71
728.12	4382.65
728.30	3751.88
728.48	2887.64
728.66	2729.94
728.84	2504.67
729.03	2301.92
729.21	2203.61
729.39	1970.15
729.57	1767.40
729.75	1763.30
729.93	1851.36
730.11	1714.15
730.30	1718.25
730.48	1746.92
730.66	1697.77
730.84	1816.55
731.02	1675.24
731.20	1667.05
731.38	1742.82
731.56	1626.09
731.74	1640.42
731.93	1712.10
732.11	1730.53
732.29	1699.81
732.47	1744.87
732.65	1714.15
732.83	1748.97
733.01	1775.59
733.19	1730.53
733.37	1738.73
733.56	1689.57
733.74	1701.86
733.92	1722.34
734.10	1675.24
734.28	1697.77
734.46	1615.85
734.64	1730.53
734.82	1701.86
735.00	1748.97
735.18	1722.34
735.36	1724.39
735.54	1683.43
735.73	1679.33
735.91	1759.21
736.09	1746.92
736.27	1705.96
736.45	1701.86
736.63	1636.33
736.81	1646.57
736.99	1746.92
737.17	1818.60
737.35	1791.97
737.53	1677.29
737.71	1685.48
737.89	1804.26
738.07	1593.32
738.25	1701.86
738.43	1619.94
738.61	1681.38
738.80	1628.14
738.98	1648.61
739.16	1685.48
739.34	1685.48
739.52	1757.16
739.70	1638.38
739.88	1755.11
740.06	1800.16
740.24	1609.70
740.42	1744.87
740.60	1552.36
740.78	1681.38
740.96	1597.42
741.14	1703.91
741.32	1828.84
741.50	1607.66
741.68	1824.74
741.86	1736.68
742.04	1660.90
742.22	1624.04
742.40	1736.68
742.58	1753.06
742.76	1689.57
742.94	1665.00
743.12	1638.38
743.30	1701.86
743.48	1755.11
743.66	1605.61
743.84	1765.35
744.02	1636.33
744.20	1615.85
744.38	1601.51
744.56	1652.71
744.74	1800.16
744.92	1669.09
745.10	1804.26
745.28	1767.40
745.46	1791.97
745.64	1634.28
745.82	1763.30
746.00	1650.66
746.18	1705.96
746.36	1691.62
746.54	1804.26
746.72	1751.01
746.90	1628.14
747.08	1781.73
747.26	1656.81
747.44	1744.87
747.62	1710.05
747.80	1695.72
747.98	1722.34
748.15	1693.67
748.33	1804.26
748.51	1726.44
748.69	1669.09
748.87	1642.47
749.05	1646.57
749.23	1683.43
749.41	1765.35
749.59	1699.81
749.77	1773.54
749.95	1619.94
750.13	1626.09
750.31	1794.02
750.49	1742.82
750.67	1775.59
750.85	1714.15
751.03	1673.19
751.20	1845.22
751.38	1603.56
751.56	1662.95
751.74	1728.49
751.92	1712.10
752.10	1611.75
752.28	1773.54
752.46	1685.48
752.64	1652.71
752.82	1619.94
753.00	1742.82
753.18	1708.01
753.35	1667.05
753.53	1669.09
753.71	1703.91
753.89	1705.96
754.07	1689.57
754.25	1751.01
754.43	1695.72
754.61	1652.71
754.79	1714.15
754.97	1740.77
755.14	1734.63
755.32	1638.38
755.50	1714.15
755.68	1720.29
755.86	1642.47
756.04	1724.39
756.22	1671.14
756.40	1775.59
756.57	1769.44
756.75	1703.91
756.93	1701.86
757.11	1673.19
757.29	1683.43
757.47	1632.23
757.65	1607.66
757.82	1585.13
758.00	1656.81
758.18	1603.56
758.36	1550.31
758.54	1773.54
758.72	1675.24
758.90	1771.49
759.07	1716.20
759.25	1634.28
759.43	1738.73
759.61	1683.43
759.79	2176.99
759.97	1712.10
760.15	1695.72
760.32	1714.15
760.50	1734.63
760.68	1781.73
760.86	1656.81
761.04	1705.96
761.22	1714.15
761.39	1679.33
761.57	1781.73
761.75	1695.72
761.93	1609.70
762.11	1609.70
762.28	1699.81
762.46	1572.84
762.64	1761.25
762.82	1669.09
763.00	1687.53
763.18	1839.08
763.35	1705.96
763.53	1736.68
763.71	1705.96
763.89	1740.77
764.07	1667.05
764.24	1650.66
764.42	1785.83
764.60	1710.05
764.78	1728.49
764.96	1738.73
765.13	1697.77
765.31	1722.34
765.49	1691.62
765.67	1609.70
765.84	1656.81
766.02	1652.71
766.20	1656.81
766.38	1753.06
766.56	1742.82
766.73	1787.88
766.91	1722.34
767.09	1724.39
767.27	1771.49
767.44	1611.75
767.62	1755.11
767.80	1671.14
767.98	1609.70
768.15	1699.81
768.33	1742.82
768.51	1695.72
768.69	1740.77
768.87	1714.15
769.04	1728.49
769.22	1877.99
769.40	1734.63
769.58	1855.46
769.75	1718.25
769.93	1748.97
770.11	1712.10
770.28	1650.66
770.46	1775.59
770.64	1771.49
770.82	1675.24
770.99	1677.29
771.17	1746.92
771.35	1699.81
771.53	1691.62
771.70	1671.14
771.88	1718.25
772.06	1691.62
772.23	1693.67
772.41	1658.85
772.59	1697.77
772.77	1621.99
772.94	1687.53
773.12	1730.53
773.30	1695.72
773.47	1697.77
773.65	1615.85
773.83	1785.83
774.01	1695.72
774.18	1607.66
774.36	1712.10
774.54	1648.61
774.71	1697.77
774.89	1648.61
775.07	1660.90
775.24	1730.53
775.42	1644.52
775.60	1748.97
775.78	1628.14
775.95	1693.67
776.13	1609.70
776.31	1634.28
776.48	1712.10
776.66	1740.77
776.84	1724.39
777.01	1615.85
777.19	1665.00
777.37	1683.43
777.54	1683.43
777.72	1744.87
777.90	1722.34
778.07	1636.33
778.25	1824.74
778.43	1708.01
778.60	1677.29
778.78	1695.72
778.96	1705.96
779.13	1708.01
779.31	1716.20
779.49	1699.81
779.66	1669.09
779.84	1660.90
780.01	1665.00
780.19	1615.85
780.37	1716.20
780.54	1726.44
780.72	1599.46
780.90	1617.90
781.07	1675.24
781.25	1697.77
781.43	1736.68
781.60	1691.62
781.78	1755.11
781.95	1691.62
782.13	1587.18
782.31	1783.78
782.48	1595.37
782.66	1748.97
782.83	1839.08
783.01	1701.86
783.19	1757.16
783.36	1658.85
783.54	1644.52
783.72	1746.92
783.89	1648.61
784.07	1785.83
784.24	1796.07
784.42	1718.25
784.60	1683.43
784.77	1730.53
784.95	1578.98
785.12	1691.62
785.30	1767.40
785.47	1695.72
785.65	1656.81
785.83	1599.46
786.00	1746.92
786.18	1697.77
786.35	1654.76
786.53	1640.42
786.71	1726.44
786.88	1712.10
787.06	1679.33
787.23	1703.91
787.41	1679.33
787.58	1689.57
787.76	1626.09
787.94	1769.44
788.11	1646.57
788.29	1691.62
788.46	1675.24
788.64	1605.61
788.81	1619.94
788.99	1687.53
789.16	1615.85
789.34	1705.96
789.52	1628.14
789.69	1701.86
789.87	1648.61
790.04	1662.95
790.22	1753.06
790.39	1908.71
790.57	1642.47
790.74	1603.56
790.92	1753.06
791.09	1652.71
791.27	1691.62
791.44	1767.40
791.62	1718.25
791.79	1740.77
791.97	1716.20
792.15	1822.69
792.32	1763.30
792.50	1742.82
792.67	1798.12
792.85	1730.53
793.02	1630.18
793.20	1648.61
793.37	1660.90
793.55	1605.61
793.72	1683.43
793.90	1701.86
794.07	1603.56
794.25	1736.68
794.42	1732.58
794.60	1738.73
794.77	1753.06
794.95	1740.77
795.12	1710.05
795.30	1742.82
795.47	1609.70
795.65	1894.37
795.82	1714.15
796.00	1675.24
796.17	1675.24
796.34	1740.77
796.52	1714.15
796.69	1779.68
796.87	1746.92
797.04	1691.62
797.22	1746.92
797.39	1738.73
797.57	1849.32
797.74	1710.05
797.92	1763.30
798.09	1628.14
798.27	1763.30
798.44	1757.16
798.62	1646.57
798.79	1761.25
798.96	1673.19
799.14	1771.49
799.31	1796.07
799.49	1746.92
799.66	1652.71
799.84	1730.53
800.01	1621.99
800.19	1665.00
800.36	1566.70
800.53	1695.72
800.71	1724.39
800.88	1742.82
801.06	1671.14
801.23	1693.67
801.41	1728.49
801.58	1583.08
801.75	1667.05
801.93	1699.81
802.10	1652.71
802.28	1724.39
802.45	1716.20
802.63	1673.19
802.80	1714.15
802.97	1662.95
803.15	1734.63
803.32	1722.34
803.50	1662.95
803.67	1652.71
803.84	1681.38
804.02	1656.81
804.19	1648.61
804.37	1607.66
804.54	1619.94
804.71	1765.35
804.89	1675.24
805.06	1617.90
805.24	1648.61
805.41	1601.51
805.58	1716.20
805.76	1849.32
805.93	1673.19
806.10	1746.92
806.28	1761.25
806.45	1791.97
806.63	1738.73
806.80	1796.07
806.97	1761.25
807.15	1624.04
807.32	1734.63
807.49	1730.53
807.67	1613.80
807.84	1665.00
808.01	1626.09
808.19	1828.84
808.36	1693.67
808.54	1574.89
808.71	1693.67
808.88	1736.68
809.06	1697.77
809.23	1783.78
809.40	1652.71
809.58	1761.25
809.75	1728.49
809.92	1683.43
810.10	1771.49
810.27	1691.62
810.44	1714.15
810.62	1714.15
810.79	1712.10
810.96	1568.74
811.14	1665.00
811.31	1697.77
811.48	1701.86
811.66	1675.24
811.83	1755.11
812.00	1730.53
812.18	1765.35
812.35	1787.88
812.52	1720.29
812.69	1699.81
812.87	1601.51
813.04	1656.81
813.21	1685.48
813.39	1736.68
813.56	1617.90
813.73	1746.92
813.91	1630.18
814.08	1697.77
814.25	1724.39
814.42	1578.98
814.60	1654.76
814.77	1734.63
814.94	1714.15
815.12	1738.73
815.29	1787.88
815.46	1712.10
815.63	1783.78
815.81	1656.81
815.98	1646.57
816.15	1683.43
816.33	1654.76
816.50	1685.48
816.67	1695.72
816.84	1699.81
817.02	1609.70
817.19	1654.76
817.36	1691.62
817.53	1753.06
817.71	1736.68
817.88	1693.67
818.05	1687.53
818.22	1736.68
818.40	1796.07
818.57	1617.90
818.74	1734.63
818.91	1650.66
819.09	1714.15
819.26	1771.49
819.43	1714.15
819.60	1617.90
819.78	1828.84
819.95	1810.40
820.12	1665.00
820.29	1789.92
820.47	1787.88
820.64	1705.96
820.81	1587.18
820.98	1703.91
821.15	1632.23
821.33	1804.26
821.50	1699.81
821.67	1761.25
821.84	1652.71
822.02	1710.05
822.19	1748.97
822.36	1611.75
822.53	1703.91
822.70	1679.33
822.88	1710.05
823.05	1802.21
823.22	1652.71
823.39	1738.73
823.56	1665.00
823.74	1796.07
823.91	1640.42
824.08	1730.53
824.25	1660.90
824.42	1730.53
824.60	1673.19
824.77	1718.25
824.94	1673.19
825.11	1710.05
825.28	1591.27
825.45	1681.38
825.63	1718.25
825.80	1665.00
825.97	1697.77
826.14	1724.39
826.31	1581.03
826.48	1681.38
826.66	1638.38
826.83	1708.01
827.00	1763.30
827.17	1665.00
827.34	1720.29
827.51	1576.94
827.69	1656.81
827.86	1628.14
828.03	1675.24
828.20	1665.00
828.37	1703.91
828.54	1697.77
828.71	1644.52
828.89	1742.82
829.06	1650.66
829.23	1726.44
829.40	1669.09
829.57	1701.86
829.74	1775.59
829.91	1681.38
830.09	1628.14
830.26	1662.95
830.43	1832.93
830.60	1632.23
830.77	1697.77
830.94	1615.85
831.11	1789.92
831.28	1665.00
831.46	1767.40
831.63	1632.23
831.80	1724.39
831.97	1683.43
832.14	1660.90
832.31	1656.81
832.48	1742.82
832.65	1794.02
832.82	1689.57
832.99	1720.29
833.17	1654.76
833.34	1701.86
833.51	1708.01
833.68	1665.00
833.85	1740.77
834.02	1640.42
834.19	1583.08
834.36	1679.33
834.53	1722.34
834.70	1810.40
834.87	1814.50
835.04	1652.71
835.22	1665.00
835.39	1724.39
835.56	1658.85
835.73	1640.42
835.90	1736.68
836.07	1683.43
836.24	1800.16
836.41	1730.53
836.58	1626.09
836.75	1734.63
836.92	1669.09
837.09	1673.19
837.26	1814.50
837.43	1708.01
837.60	1740.77
837.77	1703.91
837.94	1701.86
838.12	1771.49
838.29	1720.29
838.46	1658.85
838.63	1646.57
838.80	1800.16
838.97	1742.82
839.14	1697.77
839.31	1753.06
839.48	1724.39
839.65	1695.72
839.82	1728.49
839.99	1669.09
840.16	1714.15
840.33	1646.57
840.50	1683.43
840.67	1615.85
840.84	1538.02
841.01	1691.62
841.18	1677.29
841.35	1624.04
841.52	1765.35
841.69	1834.98
841.86	1738.73
842.03	1695.72
842.20	1714.15
842.37	1714.15
842.54	1804.26
842.71	1683.43
842.88	1603.56
843.05	1724.39
843.22	1708.01
843.39	1699.81
843.56	1656.81
843.73	1755.11
843.90	1691.62
844.07	1695.72
844.24	1748.97
844.41	1785.83
844.58	1697.77
844.75	1697.77
844.92	1767.40
845.09	1630.18
845.26	1705.96
845.43	1626.09
845.60	1669.09
845.77	1744.87
845.94	1734.63
846.10	1734.63
846.27	1624.04
846.44	1642.47
846.61	1701.86
846.78	1789.92
846.95	1705.96
847.12	1636.33
847.29	1648.61
847.46	1695.72
847.63	1701.86
847.80	1630.18
847.97	1644.52
848.14	1832.93
848.31	1652.71
848.48	1615.85
848.65	1710.05
848.82	1652.71
848.98	1851.36
849.15	1740.77
849.32	1703.91
849.49	1740.77
849.66	1703.91
849.83	1689.57
850.00	1671.14
850.17	1765.35
850.34	1658.85
850.51	1642.47
850.68	1712.10
850.85	1894.37
851.01	1703.91
851.18	1748.97
851.35	1675.24
851.52	1679.33
851.69	1765.35
851.86	1589.22
852.03	1683.43
852.20	1767.40
852.37	1691.62
852.53	1568.74
852.70	1683.43
852.87	1742.82
853.04	1796.07
853.21	1722.34
853.38	1765.35
853.55	1773.54
853.72	1732.58
853.89	1626.09
854.05	1658.85
854.22	1720.29
854.39	1681.38
854.56	1767.40
854.73	1736.68
854.90	1656.81
855.07	1767.40
855.23	1748.97
855.40	1675.24
855.57	1642.47
855.74	1589.22
855.91	1751.01
856.08	1665.00
856.25	1587.18
856.41	1615.85
856.58	1648.61
856.75	1744.87
856.92	1617.90
857.09	1642.47
857.26	1652.71
857.42	1714.15
857.59	1683.43
857.76	1636.33
857.93	1738.73
858.10	1689.57
858.27	1613.80
858.43	1798.12
858.60	1665.00
858.77	1679.33
858.94	1640.42
859.11	1755.11
859.27	1650.66
859.44	1748.97
859.61	1783.78
859.78	1646.57
859.95	1695.72
860.12	1699.81
860.28	1812.45
860.45	1808.36
860.62	1624.04
860.79	1640.42
860.95	1716.20
861.12	1646.57
861.29	1665.00
861.46	1581.03
861.63	1634.28
861.79	1744.87
861.96	1703.91
862.13	1685.48
862.30	1771.49
862.47	1675.24
862.63	1624.04
862.80	1708.01
862.97	1730.53
863.14	1791.97
863.30	1679.33
863.47	1722.34
863.64	1763.30
863.81	1701.86
863.97	1691.62
864.14	1730.53
864.31	1642.47
864.48	1759.21
864.65	1712.10
864.81	1705.96
864.98	1724.39
865.15	1804.26
865.32	1703.91
865.48	1751.01
865.65	1775.59
865.82	1683.43
865.98	1677.29
866.15	1800.16
866.32	1658.85
866.49	1640.42
866.65	1800.16
866.82	1640.42
866.99	1605.61
867.16	1662.95
867.32	1794.02
867.49	1718.25
867.66	1742.82
867.83	1673.19
867.99	1540.07
868.16	1673.19
868.33	1673.19
868.49	1683.43
868.66	1703.91
868.83	1810.40
868.99	1734.63
869.16	1718.25
869.33	1771.49
869.50	1660.90
869.66	1636.33
869.83	1609.70
870.00	1652.71
870.16	1726.44
870.33	1679.33
870.50	1679.33
870.66	1734.63
870.83	1834.98
871.00	1701.86
871.17	1730.53
871.33	1687.53
871.50	1718.25
871.67	1757.16
871.83	1609.70
872.00	1751.01
872.17	1765.35
872.33	1787.88
872.50	1730.53
872.67	1691.62
872.83	1671.14
873.00	1734.63
873.17	1681.38
873.33	1783.78
873.50	1697.77
873.67	1701.86
873.83	1648.61
874.00	1624.04
874.16	1765.35
874.33	1716.20
874.50	1626.09
874.66	1734.63
874.83	1617.90
875.00	1777.64
875.16	1718.25
875.33	1779.68
875.50	1576.94
875.66	1611.75
875.83	1767.40
875.99	1765.35
876.16	1611.75
876.33	1589.22
876.49	1699.81
876.66	1732.58
876.83	1656.81
876.99	1660.90
877.16	1744.87
877.32	1685.48
877.49	1699.81
877.66	1697.77
877.82	1767.40
877.99	1769.44
878.15	1800.16
878.32	1652.71
878.49	1683.43
878.65	1675.24
878.82	1779.68
878.98	1662.95
879.15	1681.38
879.32	1728.49
879.48	1732.58
879.65	1687.53
879.81	1652.71
879.98	1712.10
880.15	1656.81
880.31	1726.44
880.48	1642.47
880.64	1740.77
880.81	1800.16
880.97	1812.45
881.14	1779.68
881.31	1693.67
881.47	1779.68
881.64	1683.43
881.80	1587.18
881.97	1740.77
882.13	1746.92
882.30	1599.46
882.47	1648.61
882.63	1646.57
882.80	1691.62
882.96	1761.25
883.13	1789.92
883.29	1734.63
883.46	1724.39
883.62	1794.02
883.79	1765.35
883.95	1761.25
884.12	1671.14
884.29	1736.68
884.45	1730.53
884.62	1783.78
884.78	1648.61
884.95	1796.07
885.11	1685.48
885.28	1679.33
885.44	1665.00
885.61	1728.49
885.77	1808.36
885.94	1726.44
886.10	1726.44
886.27	1746.92
886.43	1781.73
886.60	1796.07
886.76	1691.62
886.93	1601.51
887.09	1738.73
887.26	1617.90
887.42	1714.15
887.59	1712.10
887.75	1828.84
887.92	1738.73
888.08	1665.00
888.25	1769.44
888.41	1718.25
888.58	1732.58
888.74	1685.48
888.91	1613.80
>>>>>End Processed Spectral Data<<<<<
