SpectraSuite Data File
++++++++++++++++++++++++++++++++++++
Date: Mon Jun 06 12:57:17 CEST 2016
User: root
Dark Spectrum Present: No
Reference Spectrum Present: No
Number of Sampled Component Spectra: 1
Spectrometers: USB4C02835
Integration Time (usec): 100000 (USB4C02835)
Spectra Averaged: 1 (USB4C02835)
Boxcar Smoothing: 0 (USB4C02835)
Correct for Electrical Dark: No (USB4C02835)
Strobe/Lamp Enabled: No (USB4C02835)
Correct for Detector Non-linearity: No (USB4C02835)
Correct for Stray Light: No (USB4C02835)
Number of Pixels in Processed Spectrum: 3648
>>>>>Begin Processed Spectral Data<<<<<
177.47	1411.05
177.69	1411.05
177.91	1411.05
178.13	1474.54
178.36	1503.21
178.58	1683.43
178.80	1765.35
179.02	1658.85
179.24	1654.76
179.46	1654.76
179.68	1675.24
179.90	1714.15
180.13	1691.62
180.35	1699.81
180.57	1673.19
180.79	1755.11
181.01	1697.77
181.23	1742.82
181.45	1759.21
181.67	1751.01
181.90	1730.53
182.12	1687.53
182.34	1632.23
182.56	1736.68
182.78	1726.44
183.00	1660.90
183.22	1757.16
183.44	1593.32
183.66	1740.77
183.89	1818.60
184.11	1683.43
184.33	1710.05
184.55	1736.68
184.77	1669.09
184.99	1765.35
185.21	1722.34
185.43	1751.01
185.65	1662.95
185.87	1695.72
186.10	1751.01
186.32	1728.49
186.54	1755.11
186.76	1652.71
186.98	1699.81
187.20	1746.92
187.42	1705.96
187.64	1724.39
187.86	1648.61
188.08	1755.11
188.30	1656.81
188.52	1701.86
188.75	1759.21
188.97	1771.49
189.19	1703.91
189.41	1708.01
189.63	1712.10
189.85	1658.85
190.07	1621.99
190.29	1574.89
190.51	1755.11
190.73	1556.46
190.95	1689.57
191.17	1667.05
191.39	1632.23
191.61	1720.29
191.84	1697.77
192.06	1681.38
192.28	1621.99
192.50	1851.36
192.72	1783.78
192.94	1673.19
193.16	1693.67
193.38	1720.29
193.60	1656.81
193.82	1683.43
194.04	1726.44
194.26	1685.48
194.48	1636.33
194.70	1730.53
194.92	1714.15
195.14	1755.11
195.36	1720.29
195.58	1738.73
195.80	1720.29
196.02	1675.24
196.24	1712.10
196.46	1714.15
196.69	1636.33
196.91	1871.84
197.13	1669.09
197.35	1673.19
197.57	1746.92
197.79	1722.34
198.01	1771.49
198.23	1710.05
198.45	1679.33
198.67	1640.42
198.89	1669.09
199.11	1769.44
199.33	1599.46
199.55	1599.46
199.77	1693.67
199.99	1751.01
200.21	1699.81
200.43	1652.71
200.65	1609.70
200.87	1562.60
201.09	1714.15
201.31	1714.15
201.53	1689.57
201.75	1701.86
201.97	1757.16
202.19	1714.15
202.41	1726.44
202.63	1808.36
202.85	1773.54
203.07	1740.77
203.29	1742.82
203.51	1642.47
203.73	1589.22
203.95	1847.27
204.17	1712.10
204.39	1708.01
204.61	1746.92
204.83	1751.01
205.05	1675.24
205.27	1722.34
205.49	1837.03
205.71	1658.85
205.93	1695.72
206.15	1642.47
206.37	1667.05
206.59	1656.81
206.81	1628.14
207.03	1642.47
207.25	1546.22
207.47	1710.05
207.69	1673.19
207.91	1880.04
208.13	1773.54
208.34	1714.15
208.56	1697.77
208.78	1687.53
209.00	1697.77
209.22	1687.53
209.44	1673.19
209.66	1679.33
209.88	1595.37
210.10	1683.43
210.32	1705.96
210.54	1769.44
210.76	1679.33
210.98	1697.77
211.20	1574.89
211.42	1716.20
211.64	1718.25
211.86	1775.59
212.08	1746.92
212.30	1689.57
212.52	1679.33
212.74	1656.81
212.96	1677.29
213.17	1794.02
213.39	1697.77
213.61	1771.49
213.83	1662.95
214.05	1669.09
214.27	1765.35
214.49	1669.09
214.71	1628.14
214.93	1769.44
215.15	1675.24
215.37	1708.01
215.59	1570.79
215.81	1710.05
216.03	1685.48
216.24	1722.34
216.46	1656.81
216.68	1695.72
216.90	1748.97
217.12	1732.58
217.34	1779.68
217.56	1685.48
217.78	1705.96
218.00	1722.34
218.22	1687.53
218.44	1730.53
218.66	1730.53
218.87	1773.54
219.09	1652.71
219.31	1675.24
219.53	1736.68
219.75	1660.90
219.97	1632.23
220.19	1755.11
220.41	1609.70
220.63	1738.73
220.85	1773.54
221.06	1681.38
221.28	1755.11
221.50	1689.57
221.72	1748.97
221.94	1667.05
222.16	1646.57
222.38	1685.48
222.60	1644.52
222.82	1701.86
223.03	1751.01
223.25	1632.23
223.47	1751.01
223.69	1798.12
223.91	1722.34
224.13	1693.67
224.35	1609.70
224.57	1775.59
224.78	1753.06
225.00	1669.09
225.22	1669.09
225.44	1691.62
225.66	1716.20
225.88	1685.48
226.10	1812.45
226.32	1849.32
226.53	1802.21
226.75	1667.05
226.97	1691.62
227.19	1689.57
227.41	1677.29
227.63	1673.19
227.85	1611.75
228.06	1714.15
228.28	1738.73
228.50	1724.39
228.72	1708.01
228.94	1652.71
229.16	1665.00
229.37	1638.38
229.59	1716.20
229.81	1734.63
230.03	1656.81
230.25	1607.66
230.47	1632.23
230.69	1624.04
230.90	1808.36
231.12	1611.75
231.34	1683.43
231.56	1755.11
231.78	1644.52
232.00	1722.34
232.21	1796.07
232.43	1652.71
232.65	1574.89
232.87	1722.34
233.09	1648.61
233.30	1652.71
233.52	1755.11
233.74	1669.09
233.96	1693.67
234.18	1718.25
234.40	1722.34
234.61	1794.02
234.83	1613.80
235.05	1658.85
235.27	1816.55
235.49	1781.73
235.70	1710.05
235.92	1726.44
236.14	1658.85
236.36	1816.55
236.58	1572.84
236.79	1703.91
237.01	1681.38
237.23	1736.68
237.45	1746.92
237.67	1673.19
237.88	1724.39
238.10	1800.16
238.32	1638.38
238.54	1732.58
238.76	1742.82
238.97	1603.56
239.19	1667.05
239.41	1757.16
239.63	1691.62
239.85	1679.33
240.06	1773.54
240.28	1736.68
240.50	1724.39
240.72	1736.68
240.93	1611.75
241.15	1730.53
241.37	1783.78
241.59	1708.01
241.81	1738.73
242.02	1755.11
242.24	1660.90
242.46	1710.05
242.68	1624.04
242.89	1671.14
243.11	1822.69
243.33	1669.09
243.55	1636.33
243.76	1746.92
243.98	1654.76
244.20	1599.46
244.42	1656.81
244.64	1798.12
244.85	1691.62
245.07	1628.14
245.29	1716.20
245.51	1636.33
245.72	1773.54
245.94	1691.62
246.16	1677.29
246.38	1724.39
246.59	1638.38
246.81	1652.71
247.03	1617.90
247.24	1650.66
247.46	1687.53
247.68	1730.53
247.90	1660.90
248.11	1712.10
248.33	1679.33
248.55	1679.33
248.77	1667.05
248.98	1755.11
249.20	1796.07
249.42	1689.57
249.64	1683.43
249.85	1744.87
250.07	1710.05
250.29	1724.39
250.50	1796.07
250.72	1665.00
250.94	1748.97
251.16	1841.12
251.37	1769.44
251.59	1732.58
251.81	1748.97
252.02	1791.97
252.24	1691.62
252.46	1812.45
252.68	1644.52
252.89	1691.62
253.11	1640.42
253.33	1791.97
253.54	1832.93
253.76	1660.90
253.98	1669.09
254.20	1628.14
254.41	1583.08
254.63	1691.62
254.85	1599.46
255.06	1712.10
255.28	1673.19
255.50	1695.72
255.71	1705.96
255.93	1648.61
256.15	1669.09
256.36	1689.57
256.58	1621.99
256.80	1773.54
257.02	1587.18
257.23	1699.81
257.45	1691.62
257.67	1746.92
257.88	1775.59
258.10	1708.01
258.32	1716.20
258.53	1722.34
258.75	1798.12
258.97	1683.43
259.18	1789.92
259.40	1605.61
259.62	1759.21
259.83	1726.44
260.05	1673.19
260.27	2039.78
260.48	1783.78
260.70	1617.90
260.92	1691.62
261.13	1669.09
261.35	1691.62
261.57	1765.35
261.78	1626.09
262.00	1695.72
262.22	1634.28
262.43	1640.42
262.65	1673.19
262.86	1722.34
263.08	1794.02
263.30	1681.38
263.51	1566.70
263.73	1697.77
263.95	1761.25
264.16	1667.05
264.38	1697.77
264.60	1814.50
264.81	1669.09
265.03	1712.10
265.25	1800.16
265.46	1701.86
265.68	1720.29
265.89	1728.49
266.11	1665.00
266.33	1767.40
266.54	1748.97
266.76	1732.58
266.98	1708.01
267.19	1796.07
267.41	1751.01
267.62	1685.48
267.84	1626.09
268.06	1677.29
268.27	1683.43
268.49	1789.92
268.70	1734.63
268.92	1656.81
269.14	1656.81
269.35	1538.02
269.57	1667.05
269.79	1669.09
270.00	1693.67
270.22	1732.58
270.43	1665.00
270.65	1619.94
270.87	1732.58
271.08	1687.53
271.30	1775.59
271.51	1710.05
271.73	1650.66
271.95	1806.31
272.16	1693.67
272.38	1681.38
272.59	1705.96
272.81	1689.57
273.02	1736.68
273.24	1652.71
273.46	1705.96
273.67	1654.76
273.89	1607.66
274.10	1615.85
274.32	1757.16
274.54	1650.66
274.75	1689.57
274.97	1683.43
275.18	1796.07
275.40	1681.38
275.61	1677.29
275.83	1740.77
276.05	1699.81
276.26	1660.90
276.48	1716.20
276.69	1615.85
276.91	1648.61
277.12	1736.68
277.34	1767.40
277.55	1785.83
277.77	1667.05
277.99	1652.71
278.20	1624.04
278.42	1624.04
278.63	1640.42
278.85	1634.28
279.06	1693.67
279.28	1658.85
279.49	1742.82
279.71	1705.96
279.93	1665.00
280.14	1718.25
280.36	1712.10
280.57	1755.11
280.79	1783.78
281.00	1609.70
281.22	1671.14
281.43	1697.77
281.65	1617.90
281.86	1642.47
282.08	1636.33
282.29	1787.88
282.51	1632.23
282.73	1603.56
282.94	1630.18
283.16	1779.68
283.37	1800.16
283.59	1703.91
283.80	1714.15
284.02	1626.09
284.23	1742.82
284.45	1621.99
284.66	1583.08
284.88	1675.24
285.09	1734.63
285.31	1757.16
285.52	1689.57
285.74	1546.22
285.95	1708.01
286.17	1712.10
286.38	1796.07
286.60	1675.24
286.81	1701.86
287.03	1687.53
287.24	1689.57
287.46	1830.88
287.67	1697.77
287.89	1734.63
288.10	1652.71
288.32	1677.29
288.53	1720.29
288.75	1697.77
288.96	1689.57
289.18	1634.28
289.39	1648.61
289.61	1791.97
289.82	1732.58
290.04	1751.01
290.25	1611.75
290.47	1691.62
290.68	1667.05
290.90	1771.49
291.11	1650.66
291.33	1763.30
291.54	1644.52
291.76	1632.23
291.97	1699.81
292.18	1683.43
292.40	1650.66
292.61	1642.47
292.83	1849.32
293.04	1763.30
293.26	1771.49
293.47	1695.72
293.69	1648.61
293.90	1744.87
294.12	1726.44
294.33	1699.81
294.55	1689.57
294.76	1693.67
294.97	1755.11
295.19	1800.16
295.40	1648.61
295.62	1734.63
295.83	1751.01
296.05	1738.73
296.26	1812.45
296.48	1667.05
296.69	1697.77
296.90	1751.01
297.12	1736.68
297.33	1753.06
297.55	1677.29
297.76	1722.34
297.98	1703.91
298.19	1632.23
298.41	1742.82
298.62	1611.75
298.83	1775.59
299.05	1722.34
299.26	1689.57
299.48	1658.85
299.69	1650.66
299.90	1669.09
300.12	1626.09
300.33	1789.92
300.55	1652.71
300.76	1740.77
300.98	1640.42
301.19	1789.92
301.40	1753.06
301.62	1703.91
301.83	1654.76
302.05	1671.14
302.26	1767.40
302.47	1693.67
302.69	1683.43
302.90	1679.33
303.12	1550.31
303.33	1665.00
303.54	1796.07
303.76	1759.21
303.97	1726.44
304.19	1763.30
304.40	1732.58
304.61	1679.33
304.83	1763.30
305.04	1703.91
305.26	1699.81
305.47	1648.61
305.68	1693.67
305.90	1636.33
306.11	1753.06
306.33	1689.57
306.54	1646.57
306.75	1603.56
306.97	1658.85
307.18	1648.61
307.39	1613.80
307.61	1763.30
307.82	1728.49
308.04	1718.25
308.25	1697.77
308.46	1705.96
308.68	1638.38
308.89	1746.92
309.10	1832.93
309.32	1718.25
309.53	1695.72
309.74	1746.92
309.96	1658.85
310.17	1796.07
310.39	1665.00
310.60	1710.05
310.81	1697.77
311.03	1685.48
311.24	1728.49
311.45	1685.48
311.67	1857.51
311.88	1720.29
312.09	1615.85
312.31	1689.57
312.52	1667.05
312.73	1710.05
312.95	1638.38
313.16	1705.96
313.37	1837.03
313.59	1697.77
313.80	1753.06
314.01	1787.88
314.23	1732.58
314.44	1665.00
314.65	1609.70
314.87	1662.95
315.08	1656.81
315.29	1683.43
315.51	1636.33
315.72	1652.71
315.93	1804.26
316.15	1765.35
316.36	1681.38
316.57	1703.91
316.79	1814.50
317.00	1656.81
317.21	1712.10
317.43	1593.32
317.64	1683.43
317.85	1705.96
318.07	1667.05
318.28	1714.15
318.49	1886.18
318.70	1875.94
318.92	1798.12
319.13	1794.02
319.34	1839.08
319.56	1816.55
319.77	1714.15
319.98	1736.68
320.20	1744.87
320.41	1654.76
320.62	1800.16
320.83	1689.57
321.05	1857.51
321.26	1759.21
321.47	1726.44
321.69	1732.58
321.90	1652.71
322.11	1665.00
322.32	1710.05
322.54	1748.97
322.75	1642.47
322.96	1820.64
323.18	1656.81
323.39	1591.27
323.60	1669.09
323.81	1751.01
324.03	1650.66
324.24	1724.39
324.45	1734.63
324.66	1693.67
324.88	1812.45
325.09	1757.16
325.30	1658.85
325.52	1710.05
325.73	1675.24
325.94	1605.61
326.15	1556.46
326.37	1703.91
326.58	1777.64
326.79	1761.25
327.00	1636.33
327.22	1699.81
327.43	1611.75
327.64	1652.71
327.85	1746.92
328.07	1757.16
328.28	1765.35
328.49	1654.76
328.70	1734.63
328.92	1701.86
329.13	1734.63
329.34	1722.34
329.55	1890.28
329.76	1708.01
329.98	1710.05
330.19	1832.93
330.40	1720.29
330.61	1705.96
330.83	1740.77
331.04	1652.71
331.25	1705.96
331.46	1685.48
331.68	1660.90
331.89	1767.40
332.10	1708.01
332.31	1671.14
332.52	1603.56
332.74	1796.07
332.95	1640.42
333.16	1687.53
333.37	1693.67
333.58	1667.05
333.80	1660.90
334.01	1634.28
334.22	1701.86
334.43	1675.24
334.64	1685.48
334.86	1654.76
335.07	1601.51
335.28	1744.87
335.49	1640.42
335.70	1755.11
335.92	1791.97
336.13	1837.03
336.34	1728.49
336.55	1689.57
336.76	1763.30
336.98	1607.66
337.19	1683.43
337.40	1767.40
337.61	1808.36
337.82	1648.61
338.04	1781.73
338.25	1617.90
338.46	1718.25
338.67	1630.18
338.88	1763.30
339.09	1636.33
339.31	1730.53
339.52	1626.09
339.73	1726.44
339.94	1816.55
340.15	1701.86
340.36	1679.33
340.58	1708.01
340.79	1718.25
341.00	1697.77
341.21	1607.66
341.42	1890.28
341.63	1697.77
341.85	1759.21
342.06	1757.16
342.27	1617.90
342.48	1765.35
342.69	1593.32
342.90	1695.72
343.12	1734.63
343.33	1738.73
343.54	1726.44
343.75	1773.54
343.96	1691.62
344.17	1691.62
344.38	1740.77
344.60	1662.95
344.81	1656.81
345.02	1689.57
345.23	1800.16
345.44	1861.60
345.65	1742.82
345.86	1757.16
346.07	1634.28
346.29	1667.05
346.50	1763.30
346.71	1763.30
346.92	1947.62
347.13	1789.92
347.34	1710.05
347.55	1689.57
347.76	1570.79
347.98	1656.81
348.19	1671.14
348.40	1732.58
348.61	1695.72
348.82	1763.30
349.03	1806.31
349.24	1626.09
349.45	1775.59
349.66	1607.66
349.88	1677.29
350.09	1736.68
350.30	1751.01
350.51	1722.34
350.72	1679.33
350.93	1714.15
351.14	1658.85
351.35	1732.58
351.56	1714.15
351.77	1660.90
351.99	1773.54
352.20	1837.03
352.41	1777.64
352.62	1654.76
352.83	1665.00
353.04	1732.58
353.25	1669.09
353.46	1779.68
353.67	1740.77
353.88	1570.79
354.09	1669.09
354.30	1609.70
354.52	1755.11
354.73	1599.46
354.94	1658.85
355.15	1710.05
355.36	1818.60
355.57	1644.52
355.78	1691.62
355.99	1679.33
356.20	1626.09
356.41	1730.53
356.62	1671.14
356.83	1665.00
357.04	1818.60
357.25	1617.90
357.46	1673.19
357.68	1624.04
357.89	1585.13
358.10	1683.43
358.31	1679.33
358.52	1712.10
358.73	1687.53
358.94	1685.48
359.15	1697.77
359.36	1708.01
359.57	1697.77
359.78	1712.10
359.99	1724.39
360.20	1654.76
360.41	1718.25
360.62	1775.59
360.83	1673.19
361.04	1740.77
361.25	1738.73
361.46	1794.02
361.67	1708.01
361.88	1679.33
362.09	1771.49
362.30	1681.38
362.51	1681.38
362.72	1742.82
362.93	1794.02
363.14	1730.53
363.35	1701.86
363.56	1736.68
363.78	1777.64
363.99	1746.92
364.20	1665.00
364.41	1738.73
364.62	1869.80
364.83	1677.29
365.04	1595.37
365.25	1753.06
365.46	1787.88
365.67	1640.42
365.88	1619.94
366.09	1607.66
366.30	1734.63
366.51	1691.62
366.72	1605.61
366.93	1656.81
367.14	1787.88
367.35	1716.20
367.56	1730.53
367.77	1681.38
367.98	1734.63
368.18	1736.68
368.39	1755.11
368.60	1644.52
368.81	1742.82
369.02	1695.72
369.23	1652.71
369.44	1593.32
369.65	1630.18
369.86	1677.29
370.07	1722.34
370.28	1652.71
370.49	1710.05
370.70	1740.77
370.91	1650.66
371.12	1646.57
371.33	1722.34
371.54	1578.98
371.75	1863.65
371.96	1634.28
372.17	1779.68
372.38	1703.91
372.59	1816.55
372.80	1652.71
373.01	1718.25
373.22	1681.38
373.43	1722.34
373.64	1624.04
373.85	1777.64
374.06	1708.01
374.26	1773.54
374.47	1810.40
374.68	1855.46
374.89	1818.60
375.10	1660.90
375.31	1738.73
375.52	1761.25
375.73	1693.67
375.94	1671.14
376.15	1814.50
376.36	1628.14
376.57	1720.29
376.78	1673.19
376.99	1763.30
377.20	1685.48
377.40	1660.90
377.61	1804.26
377.82	1615.85
378.03	1781.73
378.24	1734.63
378.45	1755.11
378.66	1677.29
378.87	1667.05
379.08	1601.51
379.29	1759.21
379.50	1773.54
379.71	1605.61
379.91	1753.06
380.12	1703.91
380.33	1665.00
380.54	1677.29
380.75	1685.48
380.96	1644.52
381.17	1751.01
381.38	1718.25
381.59	1695.72
381.80	1710.05
382.00	1765.35
382.21	1736.68
382.42	1841.12
382.63	1867.75
382.84	1779.68
383.05	1785.83
383.26	1828.84
383.47	1810.40
383.68	1689.57
383.88	1697.77
384.09	1746.92
384.30	1779.68
384.51	1824.74
384.72	1644.52
384.93	1642.47
385.14	1667.05
385.35	1804.26
385.55	1652.71
385.76	1728.49
385.97	1677.29
386.18	1621.99
386.39	1667.05
386.60	1646.57
386.81	1708.01
387.02	1626.09
387.22	1701.86
387.43	1746.92
387.64	1732.58
387.85	1898.47
388.06	2211.81
388.27	4382.65
388.48	6829.98
388.68	8130.44
388.89	9699.18
389.10	9842.54
389.31	8576.89
389.52	7661.45
389.73	6694.81
389.93	6260.64
390.14	5830.57
390.35	5203.89
390.56	4685.75
390.77	3839.94
390.98	3012.56
391.18	2553.82
391.39	2090.98
391.60	1814.50
391.81	1742.82
392.02	1783.78
392.23	1824.74
392.43	1646.57
392.64	1759.21
392.85	1722.34
393.06	1769.44
393.27	1708.01
393.47	1615.85
393.68	1798.12
393.89	1660.90
394.10	1789.92
394.31	1656.81
394.52	1619.94
394.72	1642.47
394.93	1796.07
395.14	1667.05
395.35	1773.54
395.56	1638.38
395.76	1773.54
395.97	1812.45
396.18	1798.12
396.39	1789.92
396.60	2041.82
396.80	1877.99
397.01	1853.41
397.22	1861.60
397.43	1865.70
397.64	1685.48
397.84	1837.03
398.05	1769.44
398.26	1722.34
398.47	1771.49
398.67	1765.35
398.88	1738.73
399.09	1746.92
399.30	1701.86
399.51	1695.72
399.71	1669.09
399.92	1710.05
400.13	1687.53
400.34	1646.57
400.54	1677.29
400.75	1880.04
400.96	1746.92
401.17	1841.12
401.37	1738.73
401.58	1652.71
401.79	1662.95
402.00	1832.93
402.21	1961.95
402.41	1920.99
402.62	1968.10
402.83	2056.16
403.04	1957.86
403.24	2062.30
403.45	1873.89
403.66	1939.43
403.87	1931.23
404.07	1896.42
404.28	1869.80
404.49	1933.28
404.70	1763.30
404.90	1794.02
405.11	1693.67
405.32	1667.05
405.52	1730.53
405.73	1667.05
405.94	1667.05
406.15	1662.95
406.35	1652.71
406.56	1751.01
406.77	1734.63
406.98	1761.25
407.18	1716.20
407.39	1816.55
407.60	1716.20
407.80	1734.63
408.01	1656.81
408.22	1722.34
408.43	1634.28
408.63	1759.21
408.84	1777.64
409.05	1746.92
409.25	1697.77
409.46	1619.94
409.67	1695.72
409.88	1650.66
410.08	1734.63
410.29	1585.13
410.50	1744.87
410.70	1746.92
410.91	1574.89
411.12	1734.63
411.32	1667.05
411.53	1710.05
411.74	1816.55
411.95	1767.40
412.15	1751.01
412.36	1757.16
412.57	1718.25
412.77	1695.72
412.98	1761.25
413.19	1705.96
413.39	1718.25
413.60	1773.54
413.81	1751.01
414.01	1718.25
414.22	1693.67
414.43	1757.16
414.63	1769.44
414.84	1787.88
415.05	1646.57
415.25	1644.52
415.46	1722.34
415.67	1669.09
415.87	1765.35
416.08	1691.62
416.29	1658.85
416.49	1761.25
416.70	1660.90
416.91	1708.01
417.11	1708.01
417.32	1751.01
417.53	1808.36
417.73	1763.30
417.94	1644.52
418.15	1695.72
418.35	1722.34
418.56	1712.10
418.77	1828.84
418.97	1708.01
419.18	1748.97
419.38	1505.26
419.59	1650.66
419.80	1837.03
420.00	1685.48
420.21	1720.29
420.42	1701.86
420.62	1671.14
420.83	1669.09
421.04	1724.39
421.24	1697.77
421.45	1787.88
421.65	1675.24
421.86	1679.33
422.07	1769.44
422.27	1761.25
422.48	1708.01
422.69	1636.33
422.89	1742.82
423.10	1701.86
423.30	1587.18
423.51	1724.39
423.72	1767.40
423.92	1746.92
424.13	1675.24
424.33	1732.58
424.54	1738.73
424.75	1724.39
424.95	1744.87
425.16	1730.53
425.36	1703.91
425.57	1697.77
425.78	1851.36
425.98	1714.15
426.19	1681.38
426.39	1703.91
426.60	1679.33
426.81	1783.78
427.01	1746.92
427.22	1724.39
427.42	1597.42
427.63	1685.48
427.83	1814.50
428.04	1794.02
428.25	1708.01
428.45	1705.96
428.66	1753.06
428.86	1732.58
429.07	1746.92
429.28	1705.96
429.48	1730.53
429.69	1644.52
429.89	1705.96
430.10	1632.23
430.30	1736.68
430.51	1781.73
430.71	1650.66
430.92	1671.14
431.13	1730.53
431.33	1691.62
431.54	1845.22
431.74	1742.82
431.95	1816.55
432.15	1669.09
432.36	1751.01
432.56	1777.64
432.77	1712.10
432.98	1783.78
433.18	1738.73
433.39	1667.05
433.59	1710.05
433.80	1787.88
434.00	1810.40
434.21	1677.29
434.41	1687.53
434.62	1804.26
434.82	1644.52
435.03	1730.53
435.23	1746.92
435.44	1652.71
435.64	1740.77
435.85	1759.21
436.06	1730.53
436.26	1804.26
436.47	1669.09
436.67	1724.39
436.88	1697.77
437.08	1708.01
437.29	1863.65
437.49	1703.91
437.70	1710.05
437.90	1730.53
438.11	1814.50
438.31	1828.84
438.52	1837.03
438.72	1785.83
438.93	1904.61
439.13	1740.77
439.34	1806.31
439.54	1634.28
439.75	1808.36
439.95	1826.79
440.16	1718.25
440.36	1751.01
440.57	1755.11
440.77	1751.01
440.98	1759.21
441.18	1771.49
441.39	1777.64
441.59	1583.08
441.80	1751.01
442.00	1720.29
442.21	1851.36
442.41	1652.71
442.62	1775.59
442.82	1662.95
443.02	1724.39
443.23	1812.45
443.43	1759.21
443.64	1810.40
443.84	1773.54
444.05	1853.41
444.25	1689.57
444.46	1683.43
444.66	1648.61
444.87	1812.45
445.07	1650.66
445.28	1802.21
445.48	1814.50
445.69	1779.68
445.89	1937.38
446.09	1773.54
446.30	1990.63
446.50	2592.73
446.71	3612.62
446.91	4351.93
447.12	4810.68
447.32	4741.05
447.53	4341.69
447.73	3766.21
447.93	3442.64
448.14	3293.13
448.34	3258.32
448.55	2865.11
448.75	2844.63
448.96	2705.37
449.16	2469.85
449.36	2271.20
449.57	2052.06
449.77	1877.99
449.98	1916.90
450.18	1820.64
450.39	1841.12
450.59	1775.59
450.79	1822.69
451.00	1742.82
451.20	1746.92
451.41	1701.86
451.61	1763.30
451.81	1722.34
452.02	1716.20
452.22	1730.53
452.43	1767.40
452.63	1714.15
452.84	1757.16
453.04	1771.49
453.24	1753.06
453.45	1597.42
453.65	1714.15
453.86	1765.35
454.06	1806.31
454.26	1742.82
454.47	1654.76
454.67	1769.44
454.87	1785.83
455.08	1759.21
455.28	1824.74
455.49	1767.40
455.69	1648.61
455.89	1816.55
456.10	1816.55
456.30	1720.29
456.51	1773.54
456.71	1767.40
456.91	1744.87
457.12	1742.82
457.32	1818.60
457.52	1689.57
457.73	1751.01
457.93	1732.58
458.14	1695.72
458.34	1638.38
458.54	1701.86
458.75	1732.58
458.95	1777.64
459.15	1763.30
459.36	1738.73
459.56	1757.16
459.76	1871.84
459.97	1634.28
460.17	1693.67
460.37	1843.17
460.58	1720.29
460.78	1769.44
460.99	1681.38
461.19	1722.34
461.39	1722.34
461.60	1742.82
461.80	1738.73
462.00	1703.91
462.21	1720.29
462.41	1656.81
462.61	1662.95
462.82	1714.15
463.02	1755.11
463.22	1691.62
463.43	1732.58
463.63	1751.01
463.83	1818.60
464.04	1716.20
464.24	1757.16
464.44	1632.23
464.64	1714.15
464.85	1816.55
465.05	1810.40
465.25	1689.57
465.46	1638.38
465.66	1791.97
465.86	1761.25
466.07	1722.34
466.27	1748.97
466.47	1665.00
466.68	1679.33
466.88	1820.64
467.08	1722.34
467.29	1769.44
467.49	1773.54
467.69	1705.96
467.89	1777.64
468.10	1665.00
468.30	1683.43
468.50	1769.44
468.71	1789.92
468.91	1665.00
469.11	1753.06
469.31	1732.58
469.52	1716.20
469.72	1855.46
469.92	1826.79
470.13	1632.23
470.33	1751.01
470.53	1714.15
470.73	2093.02
470.94	2246.62
471.14	2297.82
471.34	2484.19
471.54	2392.03
471.75	2236.38
471.95	2187.23
472.15	2099.17
472.36	2064.35
472.56	2074.59
472.76	2045.92
472.96	1986.53
473.17	1900.52
473.37	1951.71
473.57	1828.84
473.77	1849.32
473.98	1775.59
474.18	1716.20
474.38	1832.93
474.58	1746.92
474.79	1685.48
474.99	1732.58
475.19	1841.12
475.39	1613.80
475.60	1722.34
475.80	1724.39
476.00	1767.40
476.20	1761.25
476.41	1767.40
476.61	1777.64
476.81	1816.55
477.01	1607.66
477.21	1757.16
477.42	1773.54
477.62	1683.43
477.82	1763.30
478.02	1746.92
478.23	1761.25
478.43	1640.42
478.63	1730.53
478.83	1730.53
479.03	1718.25
479.24	1808.36
479.44	1861.60
479.64	1660.90
479.84	1640.42
480.04	1642.47
480.25	1714.15
480.45	1673.19
480.65	1718.25
480.85	1798.12
481.06	1667.05
481.26	1689.57
481.46	1798.12
481.66	1708.01
481.86	1634.28
482.06	1830.88
482.27	1720.29
482.47	1730.53
482.67	1773.54
482.87	1654.76
483.07	1728.49
483.28	1611.75
483.48	1738.73
483.68	1724.39
483.88	1718.25
484.08	1648.61
484.29	1638.38
484.49	1693.67
484.69	1728.49
484.89	1880.04
485.09	1798.12
485.29	1759.21
485.50	1738.73
485.70	1759.21
485.90	1785.83
486.10	1665.00
486.30	1726.44
486.50	1791.97
486.71	1710.05
486.91	1753.06
487.11	1757.16
487.31	1644.52
487.51	1755.11
487.71	1574.89
487.91	1642.47
488.12	1634.28
488.32	1632.23
488.52	1695.72
488.72	1597.42
488.92	1722.34
489.12	1781.73
489.32	1832.93
489.53	1712.10
489.73	1601.51
489.93	1804.26
490.13	1662.95
490.33	1632.23
490.53	1677.29
490.73	1824.74
490.94	1656.81
491.14	1765.35
491.34	1875.94
491.54	2117.60
491.74	2607.06
491.94	2967.51
492.14	3059.67
492.34	3045.33
492.54	2668.50
492.75	2502.62
492.95	2365.40
493.15	2379.74
493.35	2238.43
493.55	2222.05
493.75	2138.08
493.95	2047.97
494.15	1992.67
494.35	1955.81
494.56	1781.73
494.76	1669.09
494.96	1763.30
495.16	1730.53
495.36	1718.25
495.56	1669.09
495.76	1642.47
495.96	1720.29
496.16	1656.81
496.36	1857.51
496.56	1718.25
496.77	1753.06
496.97	1716.20
497.17	1849.32
497.37	1644.52
497.57	1730.53
497.77	1644.52
497.97	1648.61
498.17	1722.34
498.37	1673.19
498.57	1732.58
498.77	1726.44
498.97	1845.22
499.17	1814.50
499.38	1691.62
499.58	1763.30
499.78	1763.30
499.98	1812.45
500.18	1734.63
500.38	1689.57
500.58	1980.39
500.78	2535.39
500.98	4593.59
501.18	5750.70
501.38	6735.77
501.58	7151.51
501.78	6639.51
501.98	5404.59
502.18	4984.76
502.38	4237.25
502.58	4128.70
502.78	3778.50
502.98	3684.30
503.18	3524.55
503.38	3166.16
503.59	2832.34
503.79	2596.82
503.99	2519.00
504.19	2338.78
504.39	2256.86
504.59	2138.08
504.79	2127.84
504.99	2080.74
505.19	1843.17
505.39	1914.85
505.59	1968.10
505.79	1822.69
505.99	1871.84
506.19	1759.21
506.39	1828.84
506.59	1722.34
506.79	1781.73
506.99	1861.60
507.19	1767.40
507.39	1773.54
507.59	1687.53
507.79	1675.24
507.99	1751.01
508.19	1710.05
508.39	1691.62
508.59	1800.16
508.79	1834.98
508.99	1841.12
509.19	1712.10
509.39	1755.11
509.59	1658.85
509.79	1714.15
509.99	1736.68
510.19	1701.86
510.39	1812.45
510.59	1763.30
510.79	1724.39
510.99	1673.19
511.19	1705.96
511.39	1777.64
511.59	1712.10
511.79	1787.88
511.99	1703.91
512.19	1871.84
512.38	1652.71
512.58	1781.73
512.78	1712.10
512.98	1751.01
513.18	1787.88
513.38	1722.34
513.58	1751.01
513.78	1771.49
513.98	1718.25
514.18	1675.24
514.38	1722.34
514.58	1771.49
514.78	1658.85
514.98	1681.38
515.18	1781.73
515.38	1638.38
515.58	1812.45
515.78	1724.39
515.98	1726.44
516.18	1769.44
516.38	1734.63
516.57	1720.29
516.77	1705.96
516.97	1773.54
517.17	1703.91
517.37	1605.61
517.57	1751.01
517.77	1767.40
517.97	1710.05
518.17	1697.77
518.37	1652.71
518.57	1689.57
518.77	1714.15
518.97	1732.58
519.16	1734.63
519.36	1791.97
519.56	1703.91
519.76	1734.63
519.96	1738.73
520.16	1869.80
520.36	1656.81
520.56	1771.49
520.76	1640.42
520.96	1701.86
521.16	1699.81
521.35	1763.30
521.55	1796.07
521.75	1814.50
521.95	1648.61
522.15	1794.02
522.35	1683.43
522.55	1646.57
522.75	1767.40
522.95	1650.66
523.14	1687.53
523.34	1718.25
523.54	1705.96
523.74	1773.54
523.94	1662.95
524.14	1724.39
524.34	1732.58
524.54	1730.53
524.73	1671.14
524.93	1751.01
525.13	1771.49
525.33	1734.63
525.53	1886.18
525.73	1769.44
525.93	1759.21
526.13	1693.67
526.32	1703.91
526.52	1814.50
526.72	1708.01
526.92	1691.62
527.12	1689.57
527.32	1656.81
527.52	1759.21
527.71	1740.77
527.91	1703.91
528.11	1658.85
528.31	1826.79
528.51	1734.63
528.71	1763.30
528.90	1753.06
529.10	1765.35
529.30	1767.40
529.50	1613.80
529.70	1632.23
529.90	1732.58
530.09	1753.06
530.29	1640.42
530.49	1603.56
530.69	1832.93
530.89	1771.49
531.09	1814.50
531.28	1703.91
531.48	1789.92
531.68	1751.01
531.88	1767.40
532.08	1859.56
532.28	1763.30
532.47	1695.72
532.67	1828.84
532.87	1744.87
533.07	1714.15
533.27	1736.68
533.46	1767.40
533.66	1718.25
533.86	1671.14
534.06	1697.77
534.26	1677.29
534.45	1548.26
534.65	1865.70
534.85	1771.49
535.05	1710.05
535.25	1714.15
535.44	1624.04
535.64	1728.49
535.84	1687.53
536.04	1703.91
536.24	1665.00
536.43	1744.87
536.63	1773.54
536.83	1806.31
537.03	1695.72
537.22	1724.39
537.42	1638.38
537.62	1742.82
537.82	1699.81
538.02	1855.46
538.21	1857.51
538.41	1927.14
538.61	1802.21
538.81	1669.09
539.00	1851.36
539.20	1681.38
539.40	1675.24
539.60	1808.36
539.79	1742.82
539.99	1681.38
540.19	1738.73
540.39	1806.31
540.58	1732.58
540.78	1865.70
540.98	1689.57
541.18	1746.92
541.37	1826.79
541.57	1755.11
541.77	1843.17
541.97	1716.20
542.16	1607.66
542.36	1736.68
542.56	1648.61
542.76	1798.12
542.95	1832.93
543.15	1789.92
543.35	1677.29
543.54	1720.29
543.74	1710.05
543.94	1779.68
544.14	1714.15
544.33	1710.05
544.53	1730.53
544.73	1730.53
544.93	1708.01
545.12	1662.95
545.32	1705.96
545.52	1751.01
545.71	1615.85
545.91	1812.45
546.11	1710.05
546.30	1677.29
546.50	1769.44
546.70	1718.25
546.90	1746.92
547.09	1611.75
547.29	1757.16
547.49	1767.40
547.68	1703.91
547.88	1722.34
548.08	1757.16
548.27	2199.52
548.47	1660.90
548.67	1652.71
548.87	1738.73
549.06	1699.81
549.26	1693.67
549.46	1775.59
549.65	1732.58
549.85	1824.74
550.05	1753.06
550.24	1689.57
550.44	1724.39
550.64	1763.30
550.83	1599.46
551.03	1744.87
551.23	1738.73
551.42	1763.30
551.62	1748.97
551.82	1701.86
552.01	1773.54
552.21	1730.53
552.41	1710.05
552.60	1812.45
552.80	1775.59
553.00	1697.77
553.19	1738.73
553.39	1804.26
553.59	1665.00
553.78	1798.12
553.98	1806.31
554.17	1703.91
554.37	1777.64
554.57	1791.97
554.76	1667.05
554.96	1734.63
555.16	1751.01
555.35	1736.68
555.55	1640.42
555.75	1783.78
555.94	1689.57
556.14	1585.13
556.33	1708.01
556.53	1652.71
556.73	1744.87
556.92	1826.79
557.12	1734.63
557.32	1791.97
557.51	1816.55
557.71	1812.45
557.90	1886.18
558.10	1818.60
558.30	1748.97
558.49	1759.21
558.69	1812.45
558.88	1724.39
559.08	1730.53
559.28	1695.72
559.47	1763.30
559.67	1794.02
559.86	1781.73
560.06	1802.21
560.26	1732.58
560.45	1781.73
560.65	1771.49
560.84	1832.93
561.04	1687.53
561.24	1705.96
561.43	1714.15
561.63	1849.32
561.82	1740.77
562.02	1804.26
562.22	1667.05
562.41	1708.01
562.61	1716.20
562.80	1796.07
563.00	1855.46
563.19	1736.68
563.39	1705.96
563.59	1742.82
563.78	1730.53
563.98	1607.66
564.17	1685.48
564.37	1701.86
564.56	1718.25
564.76	1638.38
564.96	1814.50
565.15	1751.01
565.35	1877.99
565.54	1720.29
565.74	1767.40
565.93	1757.16
566.13	1714.15
566.32	1767.40
566.52	1783.78
566.71	1708.01
566.91	1757.16
567.11	1773.54
567.30	1697.77
567.50	1767.40
567.69	1759.21
567.89	1681.38
568.08	1712.10
568.28	1783.78
568.47	1691.62
568.67	1828.84
568.86	1703.91
569.06	1787.88
569.25	1714.15
569.45	1650.66
569.64	1650.66
569.84	1748.97
570.04	1771.49
570.23	1656.81
570.43	1736.68
570.62	1718.25
570.82	1820.64
571.01	1701.86
571.21	1726.44
571.40	1712.10
571.60	1853.41
571.79	1714.15
571.99	1720.29
572.18	1632.23
572.38	1755.11
572.57	1701.86
572.77	1777.64
572.96	1896.42
573.16	1779.68
573.35	1650.66
573.55	1896.42
573.74	1734.63
573.94	1710.05
574.13	1654.76
574.33	1746.92
574.52	1812.45
574.71	1714.15
574.91	1714.15
575.10	1648.61
575.30	1718.25
575.49	1646.57
575.69	1714.15
575.88	1748.97
576.08	1634.28
576.27	1814.50
576.47	1804.26
576.66	1841.12
576.86	1751.01
577.05	1787.88
577.25	1779.68
577.44	1820.64
577.64	1765.35
577.83	1785.83
578.02	1744.87
578.22	1783.78
578.41	1853.41
578.61	1765.35
578.80	1642.47
579.00	1761.25
579.19	1701.86
579.39	1824.74
579.58	1804.26
579.77	1765.35
579.97	1826.79
580.16	1804.26
580.36	1804.26
580.55	1818.60
580.75	1837.03
580.94	1730.53
581.13	1869.80
581.33	1828.84
581.52	1744.87
581.72	1906.66
581.91	1818.60
582.11	1783.78
582.30	1787.88
582.49	1804.26
582.69	1873.89
582.88	1787.88
583.08	1748.97
583.27	1761.25
583.47	1765.35
583.66	1716.20
583.85	1730.53
584.05	1669.09
584.24	1791.97
584.44	1748.97
584.63	1804.26
584.82	1757.16
585.02	1834.98
585.21	1923.04
585.41	1906.66
585.60	1794.02
585.79	1980.39
585.99	1943.52
586.18	1857.51
586.37	2187.23
586.57	3307.47
586.76	9897.83
586.96	24534.67
587.15	34573.81
587.34	40687.00
587.54	42229.12
587.73	36572.63
587.93	26316.40
588.12	21755.57
588.31	18271.98
588.51	16348.93
588.70	15128.35
588.89	14223.14
589.09	12597.06
589.28	11272.02
589.47	9529.20
589.67	8066.95
589.86	6342.56
590.06	4888.50
590.25	3917.76
590.44	3110.86
590.64	2566.10
590.83	2275.29
591.02	2136.03
591.22	1939.43
591.41	1906.66
591.60	1875.94
591.80	1955.81
591.99	1830.88
592.18	1761.25
592.38	1851.36
592.57	1816.55
592.76	1734.63
592.96	1789.92
593.15	1779.68
593.34	1767.40
593.54	1785.83
593.73	1808.36
593.92	1837.03
594.12	1777.64
594.31	1814.50
594.50	1804.26
594.70	1830.88
594.89	1904.61
595.08	1660.90
595.28	1796.07
595.47	1890.28
595.66	1834.98
595.86	1714.15
596.05	1738.73
596.24	1755.11
596.43	1804.26
596.63	1789.92
596.82	1710.05
597.01	1759.21
597.21	1841.12
597.40	1755.11
597.59	1755.11
597.79	1777.64
597.98	1783.78
598.17	1759.21
598.36	1691.62
598.56	1718.25
598.75	1730.53
598.94	1734.63
599.14	1708.01
599.33	1695.72
599.52	1791.97
599.71	1703.91
599.91	1820.64
600.10	1730.53
600.29	1714.15
600.48	1820.64
600.68	1718.25
600.87	1728.49
601.06	1691.62
601.26	1748.97
601.45	1714.15
601.64	1699.81
601.83	1839.08
602.03	1626.09
602.22	1697.77
602.41	1755.11
602.60	1855.46
602.80	1847.27
602.99	1708.01
603.18	1669.09
603.37	1755.11
603.57	1785.83
603.76	1820.64
603.95	1791.97
604.14	1734.63
604.34	1685.48
604.53	1783.78
604.72	1810.40
604.91	1763.30
605.10	1818.60
605.30	1589.22
605.49	1789.92
605.68	1671.14
605.87	1812.45
606.07	1712.10
606.26	1669.09
606.45	1736.68
606.64	1761.25
606.84	1665.00
607.03	1734.63
607.22	1765.35
607.41	1669.09
607.60	1705.96
607.80	1804.26
607.99	1705.96
608.18	1757.16
608.37	1732.58
608.56	1714.15
608.76	1820.64
608.95	1873.89
609.14	1789.92
609.33	1818.60
609.52	1791.97
609.72	1722.34
609.91	1730.53
610.10	1667.05
610.29	1855.46
610.48	1814.50
610.68	1769.44
610.87	1699.81
611.06	1773.54
611.25	1683.43
611.44	1810.40
611.63	1755.11
611.83	1828.84
612.02	1658.85
612.21	1808.36
612.40	1656.81
612.59	1677.29
612.79	1685.48
612.98	1818.60
613.17	1771.49
613.36	1734.63
613.55	1732.58
613.74	1673.19
613.93	1712.10
614.13	1767.40
614.32	1609.70
614.51	1695.72
614.70	1736.68
614.89	1671.14
615.08	1701.86
615.28	2041.82
615.47	1587.18
615.66	1726.44
615.85	1746.92
616.04	1736.68
616.23	1697.77
616.42	1683.43
616.62	1720.29
616.81	1751.01
617.00	1705.96
617.19	1746.92
617.38	1695.72
617.57	1763.30
617.76	1771.49
617.95	1761.25
618.15	1730.53
618.34	1773.54
618.53	1636.33
618.72	1779.68
618.91	1779.68
619.10	1796.07
619.29	1710.05
619.48	1730.53
619.68	1705.96
619.87	1755.11
620.06	1652.71
620.25	1787.88
620.44	1697.77
620.63	1642.47
620.82	1744.87
621.01	1746.92
621.20	1718.25
621.39	1691.62
621.59	1755.11
621.78	1705.96
621.97	1722.34
622.16	1746.92
622.35	1742.82
622.54	1689.57
622.73	1710.05
622.92	1701.86
623.11	1744.87
623.30	1718.25
623.49	1765.35
623.68	1677.29
623.88	1785.83
624.07	1689.57
624.26	1703.91
624.45	1751.01
624.64	1646.57
624.83	1740.77
625.02	1769.44
625.21	1759.21
625.40	1691.62
625.59	1759.21
625.78	1722.34
625.97	1769.44
626.16	1716.20
626.35	1769.44
626.54	1636.33
626.74	1771.49
626.93	1677.29
627.12	1636.33
627.31	1769.44
627.50	1705.96
627.69	1759.21
627.88	1716.20
628.07	1681.38
628.26	1626.09
628.45	1654.76
628.64	1681.38
628.83	1695.72
629.02	1626.09
629.21	1730.53
629.40	1662.95
629.59	1693.67
629.78	1730.53
629.97	1683.43
630.16	1720.29
630.35	1619.94
630.54	1722.34
630.73	1714.15
630.92	1705.96
631.11	1677.29
631.30	1685.48
631.49	1787.88
631.68	1650.66
631.87	1734.63
632.06	1640.42
632.25	1888.23
632.44	1693.67
632.63	1712.10
632.82	1650.66
633.01	1724.39
633.20	1794.02
633.39	1601.51
633.58	1660.90
633.77	1736.68
633.96	1769.44
634.15	1677.29
634.34	1732.58
634.53	1693.67
634.72	1671.14
634.91	1673.19
635.10	1716.20
635.29	1722.34
635.48	1722.34
635.67	1722.34
635.86	1652.71
636.05	1771.49
636.24	1671.14
636.43	1753.06
636.62	1730.53
636.81	1605.61
637.00	1675.24
637.19	1777.64
637.38	1742.82
637.57	1751.01
637.76	1804.26
637.95	1789.92
638.14	1683.43
638.33	1644.52
638.52	1722.34
638.71	1652.71
638.89	1603.56
639.08	1828.84
639.27	1708.01
639.46	1615.85
639.65	1705.96
639.84	1681.38
640.03	1810.40
640.22	1699.81
640.41	1816.55
640.60	1673.19
640.79	1761.25
640.98	1734.63
641.17	1763.30
641.36	1785.83
641.55	1783.78
641.74	1628.14
641.92	1652.71
642.11	1636.33
642.30	1783.78
642.49	1683.43
642.68	1652.71
642.87	1761.25
643.06	1742.82
643.25	1636.33
643.44	1673.19
643.63	1720.29
643.82	1728.49
644.00	1675.24
644.19	1683.43
644.38	1644.52
644.57	1695.72
644.76	1718.25
644.95	1613.80
645.14	1705.96
645.33	1812.45
645.52	1722.34
645.71	1650.66
645.89	1669.09
646.08	1736.68
646.27	1660.90
646.46	1894.37
646.65	1599.46
646.84	1693.67
647.03	1677.29
647.22	1857.51
647.40	1714.15
647.59	1734.63
647.78	1648.61
647.97	1636.33
648.16	1677.29
648.35	1726.44
648.54	1712.10
648.73	1646.57
648.91	1826.79
649.10	1679.33
649.29	1644.52
649.48	1708.01
649.67	1708.01
649.86	1679.33
650.05	1734.63
650.23	1732.58
650.42	1652.71
650.61	1753.06
650.80	1759.21
650.99	1806.31
651.18	1695.72
651.36	1767.40
651.55	1714.15
651.74	1755.11
651.93	1648.61
652.12	1695.72
652.31	1681.38
652.49	1757.16
652.68	1669.09
652.87	1734.63
653.06	1785.83
653.25	1810.40
653.44	1755.11
653.62	1787.88
653.81	1699.81
654.00	1765.35
654.19	1728.49
654.38	1816.55
654.56	1787.88
654.75	1710.05
654.94	1796.07
655.13	1699.81
655.32	1705.96
655.51	1755.11
655.69	1712.10
655.88	1732.58
656.07	1687.53
656.26	1740.77
656.45	1656.81
656.63	1693.67
656.82	1728.49
657.01	1794.02
657.20	1712.10
657.38	1818.60
657.57	1708.01
657.76	1638.38
657.95	1738.73
658.14	1679.33
658.32	1724.39
658.51	1681.38
658.70	1712.10
658.89	1689.57
659.08	1708.01
659.26	1812.45
659.45	1636.33
659.64	1753.06
659.83	1603.56
660.01	1904.61
660.20	1697.77
660.39	1871.84
660.58	1533.93
660.76	1687.53
660.95	1601.51
661.14	1673.19
661.33	1689.57
661.51	1673.19
661.70	1683.43
661.89	1771.49
662.08	1751.01
662.26	1650.66
662.45	1660.90
662.64	1759.21
662.83	1810.40
663.01	1609.70
663.20	1665.00
663.39	1767.40
663.58	1681.38
663.76	1718.25
663.95	1759.21
664.14	1675.24
664.32	1683.43
664.51	1628.14
664.70	1632.23
664.89	1796.07
665.07	1691.62
665.26	1800.16
665.45	1730.53
665.64	1851.36
665.82	1708.01
666.01	1796.07
666.20	1732.58
666.38	1761.25
666.57	1898.47
666.76	2209.76
666.95	4587.45
667.13	10284.90
667.32	15365.91
667.51	17592.05
667.69	19128.03
667.88	17637.11
668.07	12345.16
668.25	9482.10
668.44	8032.13
668.63	7231.38
668.81	6766.49
669.00	6231.97
669.19	5595.05
669.38	5224.37
669.56	4423.61
669.75	3934.15
669.94	3323.85
670.12	2877.40
670.31	2557.91
670.50	2248.67
670.68	2007.01
670.87	1955.81
671.06	1728.49
671.24	1789.92
671.43	1830.88
671.62	1740.77
671.80	1697.77
671.99	1775.59
672.18	1734.63
672.36	1800.16
672.55	1730.53
672.74	1705.96
672.92	1687.53
673.11	1787.88
673.29	1665.00
673.48	1757.16
673.67	1726.44
673.85	1779.68
674.04	1634.28
674.23	1767.40
674.41	1810.40
674.60	1591.27
674.79	1605.61
674.97	1624.04
675.16	1787.88
675.34	1765.35
675.53	1667.05
675.72	1779.68
675.90	1742.82
676.09	1751.01
676.28	1808.36
676.46	1677.29
676.65	1763.30
676.83	1691.62
677.02	1718.25
677.21	1650.66
677.39	1728.49
677.58	1689.57
677.77	1708.01
677.95	1628.14
678.14	1683.43
678.32	1714.15
678.51	1665.00
678.70	1798.12
678.88	1662.95
679.07	1724.39
679.25	1671.14
679.44	1667.05
679.63	1642.47
679.81	1810.40
680.00	1810.40
680.18	1751.01
680.37	1781.73
680.55	1705.96
680.74	1654.76
680.93	1734.63
681.11	1683.43
681.30	1802.21
681.48	1787.88
681.67	1687.53
681.85	1769.44
682.04	1648.61
682.23	1730.53
682.41	1634.28
682.60	1703.91
682.78	1710.05
682.97	1578.98
683.15	1712.10
683.34	1720.29
683.53	1826.79
683.71	1599.46
683.90	1796.07
684.08	1761.25
684.27	1705.96
684.45	1759.21
684.64	1773.54
684.82	1648.61
685.01	1787.88
685.19	1771.49
685.38	1816.55
685.57	1660.90
685.75	1705.96
685.94	1646.57
686.12	1691.62
686.31	1779.68
686.49	1837.03
686.68	1638.38
686.86	1710.05
687.05	1681.38
687.23	1808.36
687.42	1630.18
687.60	1527.78
687.79	1787.88
687.97	1822.69
688.16	1712.10
688.34	1812.45
688.53	1574.89
688.71	1722.34
688.90	1777.64
689.08	1669.09
689.27	1562.60
689.45	1791.97
689.64	1703.91
689.82	1738.73
690.01	1796.07
690.19	1677.29
690.38	1681.38
690.56	1787.88
690.75	1591.27
690.93	1705.96
691.12	1693.67
691.30	1732.58
691.49	1658.85
691.67	1753.06
691.86	1759.21
692.04	1697.77
692.23	1681.38
692.41	1632.23
692.60	1820.64
692.78	1697.77
692.97	1660.90
693.15	1765.35
693.34	1781.73
693.52	1726.44
693.71	1699.81
693.89	1697.77
694.08	1656.81
694.26	1710.05
694.44	1775.59
694.63	1748.97
694.81	1619.94
695.00	1587.18
695.18	1744.87
695.37	1804.26
695.55	1753.06
695.74	1701.86
695.92	1648.61
696.10	1834.98
696.29	1685.48
696.47	1679.33
696.66	1605.61
696.84	1681.38
697.03	1640.42
697.21	1759.21
697.40	2244.57
697.58	1771.49
697.76	1660.90
697.95	1705.96
698.13	1718.25
698.32	1615.85
698.50	1671.14
698.68	1785.83
698.87	1769.44
699.05	1767.40
699.24	1644.52
699.42	1675.24
699.61	1712.10
699.79	1656.81
699.97	1732.58
700.16	1591.27
700.34	1673.19
700.53	1744.87
700.71	1832.93
700.89	1806.31
701.08	1660.90
701.26	1701.86
701.45	2123.74
701.63	1714.15
701.81	1712.10
702.00	1712.10
702.18	1761.25
702.37	1667.05
702.55	1763.30
702.73	1683.43
702.92	1671.14
703.10	1738.73
703.28	1718.25
703.47	1593.32
703.65	1804.26
703.84	1732.58
704.02	1736.68
704.20	1828.84
704.39	1624.04
704.57	1732.58
704.75	1783.78
704.94	1765.35
705.12	1681.38
705.30	1748.97
705.49	2215.90
705.67	4478.91
705.86	9561.97
706.04	12744.51
706.22	14645.02
706.41	15484.69
706.59	14008.11
706.77	9539.44
706.96	7382.93
707.14	6498.20
707.32	5871.53
707.51	5572.52
707.69	5027.76
707.87	4138.94
708.06	3555.27
708.24	2992.08
708.42	2443.23
708.61	2195.42
708.79	1765.35
708.97	1906.66
709.16	1832.93
709.34	1755.11
709.52	1742.82
709.71	1714.15
709.89	1781.73
710.07	1669.09
710.26	1714.15
710.44	1722.34
710.62	1820.64
710.80	1718.25
710.99	1759.21
711.17	1748.97
711.35	1699.81
711.54	1728.49
711.72	1789.92
711.90	1724.39
712.09	1724.39
712.27	1665.00
712.45	1777.64
712.63	1638.38
712.82	1693.67
713.00	1675.24
713.18	1779.68
713.37	1724.39
713.55	1730.53
713.73	1681.38
713.91	1693.67
714.10	1732.58
714.28	1712.10
714.46	1746.92
714.65	1728.49
714.83	1777.64
715.01	1703.91
715.19	1689.57
715.38	1679.33
715.56	1656.81
715.74	1710.05
715.92	1656.81
716.11	1810.40
716.29	1583.08
716.47	1697.77
716.65	1703.91
716.84	1581.03
717.02	1687.53
717.20	1585.13
717.38	1730.53
717.57	1748.97
717.75	1697.77
717.93	1705.96
718.11	1689.57
718.30	1691.62
718.48	1751.01
718.66	1671.14
718.84	1703.91
719.03	1617.90
719.21	1642.47
719.39	1738.73
719.57	1732.58
719.75	1767.40
719.94	1667.05
720.12	1675.24
720.30	1724.39
720.48	1771.49
720.67	1652.71
720.85	1669.09
721.03	1650.66
721.21	1665.00
721.39	1787.88
721.58	1667.05
721.76	1722.34
721.94	1744.87
722.12	1779.68
722.30	1808.36
722.49	1644.52
722.67	1665.00
722.85	1730.53
723.03	1583.08
723.21	1716.20
723.40	1753.06
723.58	1767.40
723.76	1740.77
723.94	1697.77
724.12	1660.90
724.30	1744.87
724.49	1744.87
724.67	1693.67
724.85	1736.68
725.03	1615.85
725.21	1652.71
725.40	1732.58
725.58	1685.48
725.76	1847.27
725.94	1701.86
726.12	1583.08
726.30	1662.95
726.49	1642.47
726.67	1683.43
726.85	1681.38
727.03	1777.64
727.21	2222.05
727.39	2910.16
727.57	3794.89
727.76	4192.19
727.94	4442.04
728.12	4446.14
728.30	3631.05
728.48	2977.75
728.66	2697.17
728.84	2451.42
729.03	2324.44
729.21	2146.27
729.39	1996.77
729.57	1822.69
729.75	1746.92
729.93	1865.70
730.11	1742.82
730.30	1613.80
730.48	1775.59
730.66	1832.93
730.84	1746.92
731.02	1705.96
731.20	1720.29
731.38	1751.01
731.56	1628.14
731.74	1583.08
731.93	1724.39
732.11	1751.01
732.29	1632.23
732.47	1738.73
732.65	1779.68
732.83	1820.64
733.01	1726.44
733.19	1632.23
733.37	1665.00
733.56	1812.45
733.74	1710.05
733.92	1714.15
734.10	1648.61
734.28	1785.83
734.46	1609.70
734.64	1703.91
734.82	1671.14
735.00	1660.90
735.18	1697.77
735.36	1619.94
735.54	1665.00
735.73	1669.09
735.91	1630.18
736.09	1781.73
736.27	1701.86
736.45	1728.49
736.63	1636.33
736.81	1669.09
736.99	1759.21
737.17	1759.21
737.35	1691.62
737.53	1767.40
737.71	1744.87
737.89	1804.26
738.07	1697.77
738.25	1636.33
738.43	1636.33
738.61	1691.62
738.80	1640.42
738.98	1658.85
739.16	1597.42
739.34	1728.49
739.52	1751.01
739.70	1652.71
739.88	1783.78
740.06	1787.88
740.24	1599.46
740.42	1757.16
740.60	1538.02
740.78	1687.53
740.96	1568.74
741.14	1744.87
741.32	1681.38
741.50	1636.33
741.68	1849.32
741.86	1714.15
742.04	1648.61
742.22	1628.14
742.40	1746.92
742.58	1691.62
742.76	1613.80
742.94	1675.24
743.12	1595.37
743.30	1720.29
743.48	1716.20
743.66	1689.57
743.84	1791.97
744.02	1632.23
744.20	1640.42
744.38	1646.57
744.56	1669.09
744.74	1832.93
744.92	1652.71
745.10	1816.55
745.28	1714.15
745.46	1814.50
745.64	1669.09
745.82	1804.26
746.00	1718.25
746.18	1677.29
746.36	1634.28
746.54	1765.35
746.72	1669.09
746.90	1746.92
747.08	1710.05
747.26	1720.29
747.44	1677.29
747.62	1775.59
747.80	1734.63
747.98	1746.92
748.15	1669.09
748.33	1789.92
748.51	1689.57
748.69	1667.05
748.87	1669.09
749.05	1658.85
749.23	1714.15
749.41	1740.77
749.59	1685.48
749.77	1722.34
749.95	1716.20
750.13	1683.43
750.31	1673.19
750.49	1665.00
750.67	1687.53
750.85	1828.84
751.03	1738.73
751.20	1808.36
751.38	1748.97
751.56	1624.04
751.74	1687.53
751.92	1748.97
752.10	1638.38
752.28	1798.12
752.46	1714.15
752.64	1660.90
752.82	1697.77
753.00	1755.11
753.18	1658.85
753.35	1574.89
753.53	1695.72
753.71	1662.95
753.89	1703.91
754.07	1693.67
754.25	1779.68
754.43	1773.54
754.61	1562.60
754.79	1755.11
754.97	1697.77
755.14	1718.25
755.32	1650.66
755.50	1669.09
755.68	1724.39
755.86	1597.42
756.04	1619.94
756.22	1599.46
756.40	1775.59
756.57	1789.92
756.75	1687.53
756.93	1722.34
757.11	1781.73
757.29	1683.43
757.47	1636.33
757.65	1681.38
757.82	1611.75
758.00	1615.85
758.18	1675.24
758.36	1671.14
758.54	1806.31
758.72	1695.72
758.90	1730.53
759.07	1708.01
759.25	1640.42
759.43	1781.73
759.61	1607.66
759.79	2166.75
759.97	1755.11
760.15	1695.72
760.32	1660.90
760.50	1718.25
760.68	1820.64
760.86	1644.52
761.04	1736.68
761.22	1689.57
761.39	1802.21
761.57	1730.53
761.75	1761.25
761.93	1716.20
762.11	1769.44
762.28	1683.43
762.46	1671.14
762.64	1751.01
762.82	1665.00
763.00	1757.16
763.18	1787.88
763.35	1599.46
763.53	1701.86
763.71	1673.19
763.89	1671.14
764.07	1714.15
764.24	1658.85
764.42	1781.73
764.60	1574.89
764.78	1763.30
764.96	1710.05
765.13	1695.72
765.31	1738.73
765.49	1708.01
765.67	1699.81
765.84	1660.90
766.02	1685.48
766.20	1609.70
766.38	1736.68
766.56	1701.86
766.73	1714.15
766.91	1722.34
767.09	1693.67
767.27	1730.53
767.44	1751.01
767.62	1796.07
767.80	1796.07
767.98	1638.38
768.15	1601.51
768.33	1744.87
768.51	1722.34
768.69	1705.96
768.87	1740.77
769.04	1660.90
769.22	1755.11
769.40	1761.25
769.58	1884.13
769.75	1769.44
769.93	1777.64
770.11	1714.15
770.28	1570.79
770.46	1759.21
770.64	1691.62
770.82	1687.53
770.99	1685.48
771.17	1810.40
771.35	1746.92
771.53	1683.43
771.70	1769.44
771.88	1734.63
772.06	1669.09
772.23	1679.33
772.41	1785.83
772.59	1736.68
772.77	1683.43
772.94	1751.01
773.12	1681.38
773.30	1679.33
773.47	1738.73
773.65	1626.09
773.83	1810.40
774.01	1718.25
774.18	1540.07
774.36	1714.15
774.54	1665.00
774.71	1689.57
774.89	1599.46
775.07	1665.00
775.24	1734.63
775.42	1560.55
775.60	1789.92
775.78	1603.56
775.95	1603.56
776.13	1628.14
776.31	1624.04
776.48	1746.92
776.66	1718.25
776.84	1638.38
777.01	1710.05
777.19	1683.43
777.37	1697.77
777.54	1701.86
777.72	1781.73
777.90	1728.49
778.07	1746.92
778.25	1826.79
778.43	1710.05
778.60	1624.04
778.78	1691.62
778.96	1785.83
779.13	1607.66
779.31	1771.49
779.49	1644.52
779.66	1687.53
779.84	1753.06
780.01	1701.86
780.19	1673.19
780.37	1718.25
780.54	1730.53
780.72	1650.66
780.90	1759.21
781.07	1746.92
781.25	1628.14
781.43	1734.63
781.60	1658.85
781.78	1755.11
781.95	1699.81
782.13	1638.38
782.31	1763.30
782.48	1699.81
782.66	1642.47
782.83	1761.25
783.01	1748.97
783.19	1667.05
783.36	1593.32
783.54	1636.33
783.72	1693.67
783.89	1693.67
784.07	1763.30
784.24	1728.49
784.42	1841.12
784.60	1701.86
784.77	1738.73
784.95	1605.61
785.12	1675.24
785.30	1726.44
785.47	1693.67
785.65	1624.04
785.83	1746.92
786.00	1644.52
786.18	1777.64
786.35	1607.66
786.53	1619.94
786.71	1722.34
786.88	1820.64
787.06	1677.29
787.23	1658.85
787.41	1665.00
787.58	1728.49
787.76	1669.09
787.94	1757.16
788.11	1691.62
788.29	1617.90
788.46	1642.47
788.64	1636.33
788.81	1652.71
788.99	1681.38
789.16	1669.09
789.34	1714.15
789.52	1658.85
789.69	1601.51
789.87	1634.28
790.04	1628.14
790.22	1654.76
790.39	1818.60
790.57	1648.61
790.74	1667.05
790.92	1734.63
791.09	1601.51
791.27	1673.19
791.44	1740.77
791.62	1701.86
791.79	1738.73
791.97	1660.90
792.15	1806.31
792.32	1716.20
792.50	1638.38
792.67	1824.74
792.85	1822.69
793.02	1732.58
793.20	1705.96
793.37	1632.23
793.55	1683.43
793.72	1687.53
793.90	1769.44
794.07	1609.70
794.25	1652.71
794.42	1665.00
794.60	1675.24
794.77	1771.49
794.95	1751.01
795.12	1751.01
795.30	1650.66
795.47	1554.41
795.65	1853.41
795.82	1705.96
796.00	1630.18
796.17	1701.86
796.34	1648.61
796.52	1718.25
796.69	1718.25
796.87	1742.82
797.04	1714.15
797.22	1763.30
797.39	1722.34
797.57	1712.10
797.74	1667.05
797.92	1634.28
798.09	1665.00
798.27	1744.87
798.44	1712.10
798.62	1640.42
798.79	1720.29
798.96	1701.86
799.14	1708.01
799.31	1800.16
799.49	1656.81
799.66	1658.85
799.84	1673.19
800.01	1671.14
800.19	1779.68
800.36	1607.66
800.53	1791.97
800.71	1736.68
800.88	1714.15
801.06	1638.38
801.23	1656.81
801.41	1691.62
801.58	1701.86
801.75	1673.19
801.93	1699.81
802.10	1720.29
802.28	1701.86
802.45	1718.25
802.63	1816.55
802.80	1769.44
802.97	1708.01
803.15	1667.05
803.32	1648.61
803.50	1687.53
803.67	1613.80
803.84	1621.99
804.02	1650.66
804.19	1658.85
804.37	1542.12
804.54	1654.76
804.71	1697.77
804.89	1734.63
805.06	1603.56
805.24	1646.57
805.41	1665.00
805.58	1673.19
805.76	1806.31
805.93	1669.09
806.10	1775.59
806.28	1710.05
806.45	1693.67
806.63	1722.34
806.80	1644.52
806.97	1779.68
807.15	1662.95
807.32	1683.43
807.49	1683.43
807.67	1701.86
807.84	1619.94
808.01	1538.02
808.19	1767.40
808.36	1898.47
808.54	1669.09
808.71	1646.57
808.88	1728.49
809.06	1720.29
809.23	1748.97
809.40	1591.27
809.58	1738.73
809.75	1644.52
809.92	1650.66
810.10	1828.84
810.27	1589.22
810.44	1703.91
810.62	1761.25
810.79	1656.81
810.96	1644.52
811.14	1693.67
811.31	1611.75
811.48	1724.39
811.66	1638.38
811.83	1761.25
812.00	1695.72
812.18	1726.44
812.35	1853.41
812.52	1701.86
812.69	1656.81
812.87	1767.40
813.04	1734.63
813.21	1634.28
813.39	1781.73
813.56	1648.61
813.73	1808.36
813.91	1650.66
814.08	1703.91
814.25	1740.77
814.42	1646.57
814.60	1648.61
814.77	1667.05
814.94	1740.77
815.12	1697.77
815.29	1796.07
815.46	1611.75
815.63	1746.92
815.81	1648.61
815.98	1722.34
816.15	1718.25
816.33	1746.92
816.50	1656.81
816.67	1710.05
816.84	1710.05
817.02	1548.26
817.19	1726.44
817.36	1710.05
817.53	1732.58
817.71	1607.66
817.88	1695.72
818.05	1644.52
818.22	1638.38
818.40	1736.68
818.57	1783.78
818.74	1638.38
818.91	1628.14
819.09	1689.57
819.26	1675.24
819.43	1621.99
819.60	1642.47
819.78	1744.87
819.95	1867.75
820.12	1675.24
820.29	1744.87
820.47	1718.25
820.64	1695.72
820.81	1607.66
820.98	1601.51
821.15	1642.47
821.33	1757.16
821.50	1583.08
821.67	1652.71
821.84	1652.71
822.02	1746.92
822.19	1738.73
822.36	1677.29
822.53	1656.81
822.70	1654.76
822.88	1669.09
823.05	1724.39
823.22	1722.34
823.39	1742.82
823.56	1634.28
823.74	1763.30
823.91	1701.86
824.08	1671.14
824.25	1656.81
824.42	1796.07
824.60	1552.36
824.77	1630.18
824.94	1722.34
825.11	1660.90
825.28	1656.81
825.45	1685.48
825.63	1699.81
825.80	1732.58
825.97	1724.39
826.14	1634.28
826.31	1683.43
826.48	1759.21
826.66	1652.71
826.83	1632.23
827.00	1724.39
827.17	1656.81
827.34	1734.63
827.51	1673.19
827.69	1691.62
827.86	1490.92
828.03	1658.85
828.20	1624.04
828.37	1658.85
828.54	1730.53
828.71	1734.63
828.89	1783.78
829.06	1755.11
829.23	1859.56
829.40	1615.85
829.57	1603.56
829.74	1753.06
829.91	1591.27
830.09	1669.09
830.26	1665.00
830.43	1765.35
830.60	1665.00
830.77	1701.86
830.94	1789.92
831.11	1730.53
831.28	1685.48
831.46	1810.40
831.63	1714.15
831.80	1703.91
831.97	1640.42
832.14	1658.85
832.31	1800.16
832.48	1685.48
832.65	1746.92
832.82	1730.53
832.99	1718.25
833.17	1642.47
833.34	1748.97
833.51	1722.34
833.68	1554.41
833.85	1751.01
834.02	1626.09
834.19	1656.81
834.36	1681.38
834.53	1636.33
834.70	1779.68
834.87	1751.01
835.04	1703.91
835.22	1634.28
835.39	1671.14
835.56	1660.90
835.73	1630.18
835.90	1726.44
836.07	1642.47
836.24	1708.01
836.41	1593.32
836.58	1665.00
836.75	1703.91
836.92	1665.00
837.09	1613.80
837.26	1746.92
837.43	1714.15
837.60	1755.11
837.77	1656.81
837.94	1746.92
838.12	1773.54
838.29	1759.21
838.46	1634.28
838.63	1648.61
838.80	1806.31
838.97	1763.30
839.14	1693.67
839.31	1646.57
839.48	1718.25
839.65	1683.43
839.82	1675.24
839.99	1755.11
840.16	1718.25
840.33	1714.15
840.50	1654.76
840.67	1683.43
840.84	1619.94
841.01	1673.19
841.18	1646.57
841.35	1638.38
841.52	1783.78
841.69	1785.83
841.86	1708.01
842.03	1671.14
842.20	1773.54
842.37	1683.43
842.54	1673.19
842.71	1734.63
842.88	1615.85
843.05	1714.15
843.22	1687.53
843.39	1660.90
843.56	1685.48
843.73	1724.39
843.90	1714.15
844.07	1701.86
844.24	1763.30
844.41	1748.97
844.58	1759.21
844.75	1726.44
844.92	1785.83
845.09	1673.19
845.26	1648.61
845.43	1708.01
845.60	1648.61
845.77	1853.41
845.94	1624.04
846.10	1769.44
846.27	1572.84
846.44	1626.09
846.61	1660.90
846.78	1753.06
846.95	1669.09
847.12	1746.92
847.29	1665.00
847.46	1576.94
847.63	1710.05
847.80	1638.38
847.97	1730.53
848.14	1812.45
848.31	1656.81
848.48	1591.27
848.65	1714.15
848.82	1675.24
848.98	1849.32
849.15	1644.52
849.32	1730.53
849.49	1679.33
849.66	1755.11
849.83	1669.09
850.00	1640.42
850.17	1781.73
850.34	1667.05
850.51	1679.33
850.68	1648.61
850.85	1855.46
851.01	1681.38
851.18	1716.20
851.35	1681.38
851.52	1785.83
851.69	1828.84
851.86	1585.13
852.03	1662.95
852.20	1796.07
852.37	1726.44
852.53	1587.18
852.70	1757.16
852.87	1691.62
853.04	1744.87
853.21	1732.58
853.38	1763.30
853.55	1777.64
853.72	1779.68
853.89	1611.75
854.05	1681.38
854.22	1613.80
854.39	1636.33
854.56	1683.43
854.73	1720.29
854.90	1722.34
855.07	1619.94
855.23	1652.71
855.40	1658.85
855.57	1658.85
855.74	1578.98
855.91	1882.08
856.08	1603.56
856.25	1652.71
856.41	1658.85
856.58	1671.14
856.75	1669.09
856.92	1599.46
857.09	1722.34
857.26	1617.90
857.42	1691.62
857.59	1701.86
857.76	1681.38
857.93	1742.82
858.10	1660.90
858.27	1671.14
858.43	1742.82
858.60	1527.78
858.77	1634.28
858.94	1679.33
859.11	1757.16
859.27	1581.03
859.44	1689.57
859.61	1816.55
859.78	1714.15
859.95	1744.87
860.12	1552.36
860.28	1751.01
860.45	1753.06
860.62	1712.10
860.79	1734.63
860.95	1644.52
861.12	1607.66
861.29	1710.05
861.46	1681.38
861.63	1648.61
861.79	1665.00
861.96	1685.48
862.13	1617.90
862.30	1810.40
862.47	1683.43
862.63	1671.14
862.80	1763.30
862.97	1724.39
863.14	1714.15
863.30	1685.48
863.47	1646.57
863.64	1779.68
863.81	1779.68
863.97	1660.90
864.14	1665.00
864.31	1675.24
864.48	1701.86
864.65	1667.05
864.81	1718.25
864.98	1728.49
865.15	1738.73
865.32	1740.77
865.48	1800.16
865.65	1732.58
865.82	1695.72
865.98	1703.91
866.15	1779.68
866.32	1646.57
866.49	1644.52
866.65	1705.96
866.82	1615.85
866.99	1689.57
867.16	1652.71
867.32	1765.35
867.49	1681.38
867.66	1689.57
867.83	1654.76
867.99	1552.36
868.16	1624.04
868.33	1621.99
868.49	1712.10
868.66	1673.19
868.83	1769.44
868.99	1759.21
869.16	1726.44
869.33	1767.40
869.50	1681.38
869.66	1728.49
869.83	1607.66
870.00	1638.38
870.16	1695.72
870.33	1689.57
870.50	1779.68
870.66	1681.38
870.83	1751.01
871.00	1718.25
871.17	1789.92
871.33	1712.10
871.50	1603.56
871.67	1673.19
871.83	1687.53
872.00	1806.31
872.17	1685.48
872.33	1712.10
872.50	1859.56
872.67	1722.34
872.83	1691.62
873.00	1746.92
873.17	1683.43
873.33	1751.01
873.50	1755.11
873.67	1687.53
873.83	1644.52
874.00	1726.44
874.16	1767.40
874.33	1710.05
874.50	1605.61
874.66	1693.67
874.83	1689.57
875.00	1710.05
875.16	1673.19
875.33	1740.77
875.50	1607.66
875.66	1630.18
875.83	1636.33
875.99	1771.49
876.16	1755.11
876.33	1734.63
876.49	1613.80
876.66	1791.97
876.83	1689.57
876.99	1603.56
877.16	1615.85
877.32	1693.67
877.49	1652.71
877.66	1771.49
877.82	1748.97
877.99	1736.68
878.15	1708.01
878.32	1689.57
878.49	1730.53
878.65	1656.81
878.82	1726.44
878.98	1658.85
879.15	1771.49
879.32	1718.25
879.48	1728.49
879.65	1658.85
879.81	1599.46
879.98	1607.66
880.15	1609.70
880.31	1679.33
880.48	1630.18
880.64	1832.93
880.81	1728.49
880.97	1771.49
881.14	1691.62
881.31	1646.57
881.47	1767.40
881.64	1732.58
881.80	1689.57
881.97	1703.91
882.13	1730.53
882.30	1691.62
882.47	1595.37
882.63	1693.67
882.80	1679.33
882.96	1646.57
883.13	1775.59
883.29	1744.87
883.46	1728.49
883.62	1732.58
883.79	1701.86
883.95	1761.25
884.12	1685.48
884.29	1738.73
884.45	1671.14
884.62	1757.16
884.78	1634.28
884.95	1701.86
885.11	1652.71
885.28	1755.11
885.44	1642.47
885.61	1730.53
885.77	1847.27
885.94	1740.77
886.10	1683.43
886.27	1679.33
886.43	1720.29
886.60	1775.59
886.76	1746.92
886.93	1671.14
887.09	1701.86
887.26	1550.31
887.42	1712.10
887.59	1791.97
887.75	1789.92
887.92	1781.73
888.08	1763.30
888.25	1718.25
888.41	1628.14
888.58	1675.24
888.74	1578.98
888.91	1734.63
>>>>>End Processed Spectral Data<<<<<
