SpectraSuite Data File
++++++++++++++++++++++++++++++++++++
Date: Mon Jun 06 15:15:57 CEST 2016
User: root
Dark Spectrum Present: No
Reference Spectrum Present: No
Number of Sampled Component Spectra: 1
Spectrometers: USB4C02835
Integration Time (usec): 100000 (USB4C02835)
Spectra Averaged: 1 (USB4C02835)
Boxcar Smoothing: 0 (USB4C02835)
Correct for Electrical Dark: No (USB4C02835)
Strobe/Lamp Enabled: No (USB4C02835)
Correct for Detector Non-linearity: No (USB4C02835)
Correct for Stray Light: No (USB4C02835)
Number of Pixels in Processed Spectrum: 3648
>>>>>Begin Processed Spectral Data<<<<<
177.47	1435.63
177.69	1435.63
177.91	1435.63
178.13	1482.73
178.36	1490.92
178.58	1642.47
178.80	1714.15
179.02	1638.38
179.24	1636.33
179.46	1697.77
179.68	1718.25
179.90	1660.90
180.13	1738.73
180.35	1673.19
180.57	1724.39
180.79	1701.86
181.01	1679.33
181.23	1658.85
181.45	1800.16
181.67	1816.55
181.90	1724.39
182.12	1683.43
182.34	1693.67
182.56	1773.54
182.78	1765.35
183.00	1701.86
183.22	1738.73
183.44	1648.61
183.66	1814.50
183.89	1820.64
184.11	1654.76
184.33	1789.92
184.55	1718.25
184.77	1693.67
184.99	1677.29
185.21	1740.77
185.43	1890.28
185.65	1675.24
185.87	1796.07
186.10	1849.32
186.32	1804.26
186.54	1658.85
186.76	1763.30
186.98	1777.64
187.20	1722.34
187.42	1722.34
187.64	1640.42
187.86	1791.97
188.08	1714.15
188.30	1695.72
188.52	1679.33
188.75	1779.68
188.97	1865.70
189.19	1667.05
189.41	1708.01
189.63	1732.58
189.85	1665.00
190.07	1624.04
190.29	1665.00
190.51	1740.77
190.73	1593.32
190.95	1820.64
191.17	1652.71
191.39	1564.65
191.61	1650.66
191.84	1710.05
192.06	1660.90
192.28	1611.75
192.50	1818.60
192.72	1718.25
192.94	1746.92
193.16	1718.25
193.38	1708.01
193.60	1681.38
193.82	1724.39
194.04	1751.01
194.26	1763.30
194.48	1722.34
194.70	1603.56
194.92	1687.53
195.14	1722.34
195.36	1644.52
195.58	1726.44
195.80	1746.92
196.02	1589.22
196.24	1656.81
196.46	1677.29
196.69	1683.43
196.91	1839.08
197.13	1681.38
197.35	1677.29
197.57	1708.01
197.79	1773.54
198.01	1708.01
198.23	1751.01
198.45	1779.68
198.67	1650.66
198.89	1685.48
199.11	1794.02
199.33	1665.00
199.55	1671.14
199.77	1734.63
199.99	1748.97
200.21	1634.28
200.43	1705.96
200.65	1613.80
200.87	1626.09
201.09	1775.59
201.31	1712.10
201.53	1783.78
201.75	1658.85
201.97	1724.39
202.19	1771.49
202.41	1683.43
202.63	1867.75
202.85	1742.82
203.07	1726.44
203.29	1685.48
203.51	1718.25
203.73	1751.01
203.95	1837.03
204.17	1710.05
204.39	1738.73
204.61	1673.19
204.83	1673.19
205.05	1732.58
205.27	1732.58
205.49	1798.12
205.71	1697.77
205.93	1685.48
206.15	1681.38
206.37	1732.58
206.59	1699.81
206.81	1679.33
207.03	1591.27
207.25	1581.03
207.47	1763.30
207.69	1777.64
207.91	1791.97
208.13	1769.44
208.34	1722.34
208.56	1660.90
208.78	1720.29
209.00	1689.57
209.22	1681.38
209.44	1718.25
209.66	1640.42
209.88	1726.44
210.10	1669.09
210.32	1681.38
210.54	1812.45
210.76	1658.85
210.98	1763.30
211.20	1636.33
211.42	1730.53
211.64	1800.16
211.86	1787.88
212.08	1767.40
212.30	1714.15
212.52	1683.43
212.74	1771.49
212.96	1722.34
213.17	1746.92
213.39	1796.07
213.61	1789.92
213.83	1761.25
214.05	1685.48
214.27	1705.96
214.49	1650.66
214.71	1673.19
214.93	1812.45
215.15	1673.19
215.37	1742.82
215.59	1621.99
215.81	1726.44
216.03	1730.53
216.24	1710.05
216.46	1689.57
216.68	1710.05
216.90	1794.02
217.12	1832.93
217.34	1685.48
217.56	1755.11
217.78	1763.30
218.00	1755.11
218.22	1701.86
218.44	1665.00
218.66	1701.86
218.87	1769.44
219.09	1769.44
219.31	1681.38
219.53	1691.62
219.75	1681.38
219.97	1642.47
220.19	1742.82
220.41	1607.66
220.63	1789.92
220.85	1845.22
221.06	1705.96
221.28	1769.44
221.50	1644.52
221.72	1703.91
221.94	1695.72
222.16	1689.57
222.38	1808.36
222.60	1808.36
222.82	1722.34
223.03	1779.68
223.25	1654.76
223.47	1794.02
223.69	1824.74
223.91	1730.53
224.13	1667.05
224.35	1683.43
224.57	1814.50
224.78	1732.58
225.00	1736.68
225.22	1673.19
225.44	1703.91
225.66	1808.36
225.88	1671.14
226.10	1794.02
226.32	1769.44
226.53	1802.21
226.75	1681.38
226.97	1681.38
227.19	1742.82
227.41	1611.75
227.63	1720.29
227.85	1650.66
228.06	1732.58
228.28	1755.11
228.50	1714.15
228.72	1708.01
228.94	1714.15
229.16	1626.09
229.37	1626.09
229.59	1617.90
229.81	1783.78
230.03	1642.47
230.25	1570.79
230.47	1642.47
230.69	1648.61
230.90	1705.96
231.12	1660.90
231.34	1785.83
231.56	1765.35
231.78	1646.57
232.00	1718.25
232.21	1687.53
232.43	1728.49
232.65	1560.55
232.87	1755.11
233.09	1722.34
233.30	1644.52
233.52	1808.36
233.74	1691.62
233.96	1710.05
234.18	1773.54
234.40	1710.05
234.61	1789.92
234.83	1593.32
235.05	1632.23
235.27	1884.13
235.49	1755.11
235.70	1701.86
235.92	1814.50
236.14	1697.77
236.36	1871.84
236.58	1636.33
236.79	1722.34
237.01	1683.43
237.23	1808.36
237.45	1767.40
237.67	1656.81
237.88	1738.73
238.10	1826.79
238.32	1673.19
238.54	1708.01
238.76	1705.96
238.97	1662.95
239.19	1734.63
239.41	1785.83
239.63	1748.97
239.85	1730.53
240.06	1734.63
240.28	1699.81
240.50	1775.59
240.72	1665.00
240.93	1755.11
241.15	1777.64
241.37	1742.82
241.59	1732.58
241.81	1701.86
242.02	1699.81
242.24	1753.06
242.46	1718.25
242.68	1701.86
242.89	1767.40
243.11	1724.39
243.33	1644.52
243.55	1673.19
243.76	1826.79
243.98	1789.92
244.20	1765.35
244.42	1701.86
244.64	1705.96
244.85	1669.09
245.07	1675.24
245.29	1767.40
245.51	1660.90
245.72	1789.92
245.94	1783.78
246.16	1757.16
246.38	1755.11
246.59	1730.53
246.81	1576.94
247.03	1624.04
247.24	1544.17
247.46	1691.62
247.68	1689.57
247.90	1630.18
248.11	1662.95
248.33	1697.77
248.55	1636.33
248.77	1783.78
248.98	1746.92
249.20	1753.06
249.42	1734.63
249.64	1783.78
249.85	1720.29
250.07	1673.19
250.29	1732.58
250.50	1716.20
250.72	1767.40
250.94	1712.10
251.16	1806.31
251.37	1759.21
251.59	1703.91
251.81	1695.72
252.02	1791.97
252.24	1701.86
252.46	1703.91
252.68	1665.00
252.89	1693.67
253.11	1636.33
253.33	1775.59
253.54	1779.68
253.76	1601.51
253.98	1773.54
254.20	1693.67
254.41	1665.00
254.63	1658.85
254.85	1624.04
255.06	1687.53
255.28	1681.38
255.50	1689.57
255.71	1748.97
255.93	1617.90
256.15	1746.92
256.36	1720.29
256.58	1660.90
256.80	1710.05
257.02	1687.53
257.23	1679.33
257.45	1714.15
257.67	1755.11
257.88	1667.05
258.10	1681.38
258.32	1767.40
258.53	1697.77
258.75	1779.68
258.97	1646.57
259.18	1708.01
259.40	1632.23
259.62	1783.78
259.83	1822.69
260.05	1705.96
260.27	1828.84
260.48	1755.11
260.70	1681.38
260.92	1677.29
261.13	1748.97
261.35	1767.40
261.57	1681.38
261.78	1665.00
262.00	1667.05
262.22	1734.63
262.43	1667.05
262.65	1730.53
262.86	1699.81
263.08	1834.98
263.30	1755.11
263.51	1646.57
263.73	1609.70
263.95	1751.01
264.16	1615.85
264.38	1718.25
264.60	1748.97
264.81	1855.46
265.03	1775.59
265.25	1773.54
265.46	1714.15
265.68	1738.73
265.89	1755.11
266.11	1644.52
266.33	1765.35
266.54	1730.53
266.76	1726.44
266.98	1785.83
267.19	1755.11
267.41	1705.96
267.62	1619.94
267.84	1669.09
268.06	1755.11
268.27	1779.68
268.49	1691.62
268.70	1789.92
268.92	1638.38
269.14	1679.33
269.35	1689.57
269.57	1679.33
269.79	1726.44
270.00	1656.81
270.22	1779.68
270.43	1617.90
270.65	1560.55
270.87	1697.77
271.08	1744.87
271.30	1759.21
271.51	1751.01
271.73	1744.87
271.95	1818.60
272.16	1689.57
272.38	1705.96
272.59	1697.77
272.81	1755.11
273.02	1673.19
273.24	1673.19
273.46	1718.25
273.67	1673.19
273.89	1665.00
274.10	1726.44
274.32	1708.01
274.54	1771.49
274.75	1748.97
274.97	1728.49
275.18	1736.68
275.40	1673.19
275.61	1648.61
275.83	1718.25
276.05	1693.67
276.26	1640.42
276.48	1751.01
276.69	1675.24
276.91	1675.24
277.12	1794.02
277.34	1710.05
277.55	1705.96
277.77	1763.30
277.99	1673.19
278.20	1675.24
278.42	1673.19
278.63	1624.04
278.85	1671.14
279.06	1593.32
279.28	1775.59
279.49	1720.29
279.71	1751.01
279.93	1781.73
280.14	1728.49
280.36	1683.43
280.57	1800.16
280.79	1718.25
281.00	1615.85
281.22	1630.18
281.43	1732.58
281.65	1640.42
281.86	1587.18
282.08	1779.68
282.29	1783.78
282.51	1597.42
282.73	1603.56
282.94	1687.53
283.16	1859.56
283.37	1857.51
283.59	1755.11
283.80	1720.29
284.02	1806.31
284.23	1802.21
284.45	1656.81
284.66	1669.09
284.88	1648.61
285.09	1732.58
285.31	1716.20
285.52	1693.67
285.74	1669.09
285.95	1740.77
286.17	1705.96
286.38	1789.92
286.60	1748.97
286.81	1644.52
287.03	1691.62
287.24	1742.82
287.46	1681.38
287.67	1689.57
287.89	1837.03
288.10	1617.90
288.32	1761.25
288.53	1757.16
288.75	1693.67
288.96	1730.53
289.18	1708.01
289.39	1689.57
289.61	1753.06
289.82	1783.78
290.04	1832.93
290.25	1593.32
290.47	1685.48
290.68	1710.05
290.90	1779.68
291.11	1585.13
291.33	1742.82
291.54	1699.81
291.76	1667.05
291.97	1757.16
292.18	1644.52
292.40	1689.57
292.61	1658.85
292.83	1820.64
293.04	1724.39
293.26	1658.85
293.47	1644.52
293.69	1611.75
293.90	1697.77
294.12	1744.87
294.33	1724.39
294.55	1689.57
294.76	1714.15
294.97	1701.86
295.19	1877.99
295.40	1755.11
295.62	1746.92
295.83	1689.57
296.05	1697.77
296.26	1812.45
296.48	1675.24
296.69	1734.63
296.90	1767.40
297.12	1826.79
297.33	1785.83
297.55	1705.96
297.76	1722.34
297.98	1857.51
298.19	1763.30
298.41	1789.92
298.62	1658.85
298.83	1775.59
299.05	1701.86
299.26	1646.57
299.48	1660.90
299.69	1724.39
299.90	1775.59
300.12	1646.57
300.33	1765.35
300.55	1736.68
300.76	1712.10
300.98	1626.09
301.19	1738.73
301.40	1673.19
301.62	1679.33
301.83	1763.30
302.05	1722.34
302.26	1730.53
302.47	1697.77
302.69	1660.90
302.90	1765.35
303.12	1570.79
303.33	1742.82
303.54	1826.79
303.76	1695.72
303.97	1701.86
304.19	1804.26
304.40	1652.71
304.61	1771.49
304.83	1818.60
305.04	1751.01
305.26	1718.25
305.47	1589.22
305.68	1687.53
305.90	1671.14
306.11	1738.73
306.33	1714.15
306.54	1673.19
306.75	1675.24
306.97	1632.23
307.18	1665.00
307.39	1667.05
307.61	1728.49
307.82	1644.52
308.04	1726.44
308.25	1746.92
308.46	1687.53
308.68	1601.51
308.89	1685.48
309.10	1839.08
309.32	1775.59
309.53	1681.38
309.74	1763.30
309.96	1648.61
310.17	1771.49
310.39	1648.61
310.60	1699.81
310.81	1738.73
311.03	1615.85
311.24	1697.77
311.45	1679.33
311.67	1771.49
311.88	1685.48
312.09	1665.00
312.31	1642.47
312.52	1720.29
312.73	1748.97
312.95	1644.52
313.16	1654.76
313.37	1767.40
313.59	1708.01
313.80	1701.86
314.01	1828.84
314.23	1730.53
314.44	1699.81
314.65	1644.52
314.87	1591.27
315.08	1748.97
315.29	1624.04
315.51	1701.86
315.72	1658.85
315.93	1826.79
316.15	1820.64
316.36	1710.05
316.57	1673.19
316.79	1834.98
317.00	1673.19
317.21	1755.11
317.43	1697.77
317.64	1681.38
317.85	1687.53
318.07	1705.96
318.28	1720.29
318.49	1843.17
318.70	1804.26
318.92	1843.17
319.13	1791.97
319.34	1763.30
319.56	1796.07
319.77	1738.73
319.98	1791.97
320.20	1724.39
320.41	1718.25
320.62	1763.30
320.83	1681.38
321.05	1837.03
321.26	1708.01
321.47	1775.59
321.69	1769.44
321.90	1603.56
322.11	1705.96
322.32	1705.96
322.54	1794.02
322.75	1640.42
322.96	1849.32
323.18	1650.66
323.39	1662.95
323.60	1660.90
323.81	1767.40
324.03	1673.19
324.24	1736.68
324.45	1660.90
324.66	1699.81
324.88	1705.96
325.09	1787.88
325.30	1683.43
325.52	1779.68
325.73	1679.33
325.94	1660.90
326.15	1658.85
326.37	1691.62
326.58	1777.64
326.79	1753.06
327.00	1671.14
327.22	1779.68
327.43	1755.11
327.64	1646.57
327.85	1753.06
328.07	1783.78
328.28	1787.88
328.49	1699.81
328.70	1734.63
328.92	1703.91
329.13	1724.39
329.34	1724.39
329.55	1837.03
329.76	1765.35
329.98	1757.16
330.19	1730.53
330.40	1742.82
330.61	1746.92
330.83	1740.77
331.04	1687.53
331.25	1701.86
331.46	1646.57
331.68	1617.90
331.89	1730.53
332.10	1683.43
332.31	1728.49
332.52	1675.24
332.74	1775.59
332.95	1652.71
333.16	1712.10
333.37	1720.29
333.58	1687.53
333.80	1669.09
334.01	1652.71
334.22	1687.53
334.43	1755.11
334.64	1695.72
334.86	1662.95
335.07	1681.38
335.28	1796.07
335.49	1630.18
335.70	1746.92
335.92	1755.11
336.13	1812.45
336.34	1816.55
336.55	1746.92
336.76	1726.44
336.98	1621.99
337.19	1697.77
337.40	1732.58
337.61	1820.64
337.82	1648.61
338.04	1816.55
338.25	1636.33
338.46	1720.29
338.67	1705.96
338.88	1603.56
339.09	1673.19
339.31	1628.14
339.52	1615.85
339.73	1695.72
339.94	1650.66
340.15	1712.10
340.36	1677.29
340.58	1693.67
340.79	1660.90
341.00	1777.64
341.21	1716.20
341.42	1781.73
341.63	1716.20
341.85	1732.58
342.06	1841.12
342.27	1675.24
342.48	1744.87
342.69	1632.23
342.90	1761.25
343.12	1765.35
343.33	1636.33
343.54	1759.21
343.75	1834.98
343.96	1771.49
344.17	1687.53
344.38	1777.64
344.60	1726.44
344.81	1697.77
345.02	1656.81
345.23	1767.40
345.44	1812.45
345.65	1787.88
345.86	1669.09
346.07	1734.63
346.29	1687.53
346.50	1732.58
346.71	1683.43
346.92	1746.92
347.13	1837.03
347.34	1710.05
347.55	1697.77
347.76	1726.44
347.98	1646.57
348.19	1638.38
348.40	1806.31
348.61	1714.15
348.82	1820.64
349.03	1804.26
349.24	1624.04
349.45	1814.50
349.66	1652.71
349.88	1759.21
350.09	1726.44
350.30	1787.88
350.51	1740.77
350.72	1759.21
350.93	1675.24
351.14	1624.04
351.35	1660.90
351.56	1720.29
351.77	1740.77
351.99	1804.26
352.20	1796.07
352.41	1794.02
352.62	1642.47
352.83	1744.87
353.04	1652.71
353.25	1720.29
353.46	1740.77
353.67	1763.30
353.88	1640.42
354.09	1710.05
354.30	1687.53
354.52	1716.20
354.73	1703.91
354.94	1662.95
355.15	1699.81
355.36	1802.21
355.57	1724.39
355.78	1710.05
355.99	1656.81
356.20	1675.24
356.41	1771.49
356.62	1728.49
356.83	1697.77
357.04	1728.49
357.25	1533.93
357.46	1689.57
357.68	1669.09
357.89	1613.80
358.10	1671.14
358.31	1746.92
358.52	1771.49
358.73	1665.00
358.94	1697.77
359.15	1685.48
359.36	1761.25
359.57	1652.71
359.78	1662.95
359.99	1738.73
360.20	1748.97
360.41	1703.91
360.62	1681.38
360.83	1621.99
361.04	1697.77
361.25	1714.15
361.46	1816.55
361.67	1773.54
361.88	1722.34
362.09	1849.32
362.30	1671.14
362.51	1648.61
362.72	1759.21
362.93	1800.16
363.14	1771.49
363.35	1693.67
363.56	1724.39
363.78	1755.11
363.99	1783.78
364.20	1720.29
364.41	1767.40
364.62	1886.18
364.83	1699.81
365.04	1726.44
365.25	1693.67
365.46	1828.84
365.67	1722.34
365.88	1677.29
366.09	1689.57
366.30	1705.96
366.51	1736.68
366.72	1640.42
366.93	1689.57
367.14	1705.96
367.35	1806.31
367.56	1724.39
367.77	1810.40
367.98	1703.91
368.18	1712.10
368.39	1751.01
368.60	1611.75
368.81	1744.87
369.02	1787.88
369.23	1691.62
369.44	1613.80
369.65	1636.33
369.86	1789.92
370.07	1691.62
370.28	1728.49
370.49	1685.48
370.70	1685.48
370.91	1599.46
371.12	1724.39
371.33	1695.72
371.54	1722.34
371.75	1847.27
371.96	1552.36
372.17	1703.91
372.38	1753.06
372.59	1779.68
372.80	1667.05
373.01	1656.81
373.22	1691.62
373.43	1732.58
373.64	1687.53
373.85	1765.35
374.06	1837.03
374.26	1744.87
374.47	1658.85
374.68	1806.31
374.89	1744.87
375.10	1705.96
375.31	1771.49
375.52	1685.48
375.73	1769.44
375.94	1726.44
376.15	1791.97
376.36	1648.61
376.57	1744.87
376.78	1619.94
376.99	1759.21
377.20	1730.53
377.40	1693.67
377.61	1789.92
377.82	1624.04
378.03	1785.83
378.24	1787.88
378.45	1699.81
378.66	1714.15
378.87	1595.37
379.08	1613.80
379.29	1716.20
379.50	1755.11
379.71	1708.01
379.91	1796.07
380.12	1705.96
380.33	1726.44
380.54	1658.85
380.75	1740.77
380.96	1673.19
381.17	1773.54
381.38	1816.55
381.59	1779.68
381.80	1757.16
382.00	1798.12
382.21	1738.73
382.42	1781.73
382.63	1882.08
382.84	1746.92
383.05	1773.54
383.26	1851.36
383.47	1755.11
383.68	1828.84
383.88	1744.87
384.09	1667.05
384.30	1822.69
384.51	1685.48
384.72	1673.19
384.93	1648.61
385.14	1703.91
385.35	1808.36
385.55	1699.81
385.76	1804.26
385.97	1796.07
386.18	1652.71
386.39	1677.29
386.60	1675.24
386.81	1787.88
387.02	1718.25
387.22	1687.53
387.43	1826.79
387.64	1736.68
387.85	1865.70
388.06	2172.89
388.27	4161.47
388.48	6453.15
388.68	7907.21
388.89	9340.79
389.10	9445.23
389.31	8433.54
389.52	7399.31
389.73	6705.05
389.93	6066.08
390.14	5541.80
390.35	4978.61
390.56	4382.65
390.77	3751.88
390.98	2910.16
391.18	2525.15
391.39	2148.32
391.60	1820.64
391.81	1851.36
392.02	1648.61
392.23	1884.13
392.43	1785.83
392.64	1783.78
392.85	1751.01
393.06	1828.84
393.27	1687.53
393.47	1597.42
393.68	1753.06
393.89	1656.81
394.10	1771.49
394.31	1701.86
394.52	1687.53
394.72	1718.25
394.93	1796.07
395.14	1646.57
395.35	1744.87
395.56	1779.68
395.76	1759.21
395.97	1730.53
396.18	1920.99
396.39	1812.45
396.60	2084.83
396.80	1918.95
397.01	1877.99
397.22	1822.69
397.43	1828.84
397.64	1740.77
397.84	1841.12
398.05	1826.79
398.26	1748.97
398.47	1812.45
398.67	1812.45
398.88	1683.43
399.09	1720.29
399.30	1742.82
399.51	1691.62
399.71	1660.90
399.92	1695.72
400.13	1726.44
400.34	1701.86
400.54	1708.01
400.75	1703.91
400.96	1724.39
401.17	1783.78
401.37	1742.82
401.58	1683.43
401.79	1697.77
402.00	1910.75
402.21	2017.25
402.41	1984.48
402.62	2007.01
402.83	1998.82
403.04	1986.53
403.24	2090.98
403.45	1861.60
403.66	2021.35
403.87	1875.94
404.07	1902.56
404.28	1877.99
404.49	1828.84
404.70	1812.45
404.90	1691.62
405.11	1757.16
405.32	1765.35
405.52	1662.95
405.73	1658.85
405.94	1626.09
406.15	1718.25
406.35	1722.34
406.56	1689.57
406.77	1761.25
406.98	1751.01
407.18	1693.67
407.39	1771.49
407.60	1708.01
407.80	1683.43
408.01	1646.57
408.22	1787.88
408.43	1695.72
408.63	1718.25
408.84	1710.05
409.05	1755.11
409.25	1691.62
409.46	1689.57
409.67	1695.72
409.88	1718.25
410.08	1736.68
410.29	1730.53
410.50	1732.58
410.70	1693.67
410.91	1576.94
411.12	1708.01
411.32	1798.12
411.53	1673.19
411.74	1757.16
411.95	1820.64
412.15	1724.39
412.36	1771.49
412.57	1814.50
412.77	1853.41
412.98	1695.72
413.19	1611.75
413.39	1781.73
413.60	1767.40
413.81	1828.84
414.01	1685.48
414.22	1769.44
414.43	1775.59
414.63	1716.20
414.84	1742.82
415.05	1734.63
415.25	1671.14
415.46	1781.73
415.67	1656.81
415.87	1699.81
416.08	1730.53
416.29	1658.85
416.49	1779.68
416.70	1703.91
416.91	1665.00
417.11	1724.39
417.32	1796.07
417.53	1775.59
417.73	1689.57
417.94	1621.99
418.15	1681.38
418.35	1705.96
418.56	1671.14
418.77	1845.22
418.97	1660.90
419.18	1683.43
419.38	1566.70
419.59	1740.77
419.80	1724.39
420.00	1650.66
420.21	1800.16
420.42	1710.05
420.62	1722.34
420.83	1677.29
421.04	1662.95
421.24	1740.77
421.45	1771.49
421.65	1728.49
421.86	1724.39
422.07	1728.49
422.27	1699.81
422.48	1751.01
422.69	1650.66
422.89	1730.53
423.10	1677.29
423.30	1667.05
423.51	1722.34
423.72	1695.72
423.92	1791.97
424.13	1681.38
424.33	1777.64
424.54	1763.30
424.75	1718.25
424.95	1845.22
425.16	1746.92
425.36	1673.19
425.57	1800.16
425.78	1761.25
425.98	1773.54
426.19	1662.95
426.39	1681.38
426.60	1722.34
426.81	1814.50
427.01	1751.01
427.22	1671.14
427.42	1619.94
427.63	1724.39
427.83	1748.97
428.04	1808.36
428.25	1789.92
428.45	1765.35
428.66	1804.26
428.86	1748.97
429.07	1708.01
429.28	1705.96
429.48	1685.48
429.69	1624.04
429.89	1734.63
430.10	1609.70
430.30	1730.53
430.51	1681.38
430.71	1658.85
430.92	1716.20
431.13	1677.29
431.33	1732.58
431.54	1755.11
431.74	1816.55
431.95	1794.02
432.15	1708.01
432.36	1724.39
432.56	1781.73
432.77	1804.26
432.98	1900.52
433.18	1708.01
433.39	1691.62
433.59	1693.67
433.80	1732.58
434.00	1820.64
434.21	1677.29
434.41	1626.09
434.62	1865.70
434.82	1671.14
435.03	1685.48
435.23	1755.11
435.44	1658.85
435.64	1724.39
435.85	1816.55
436.06	1798.12
436.26	1791.97
436.47	1767.40
436.67	1615.85
436.88	1720.29
437.08	1722.34
437.29	1726.44
437.49	1720.29
437.70	1736.68
437.90	1683.43
438.11	1839.08
438.31	1757.16
438.52	1871.84
438.72	1863.65
438.93	1925.09
439.13	1824.74
439.34	1802.21
439.54	1769.44
439.75	1863.65
439.95	1857.51
440.16	1724.39
440.36	1718.25
440.57	1683.43
440.77	1730.53
440.98	1867.75
441.18	1701.86
441.39	1691.62
441.59	1619.94
441.80	1830.88
442.00	1791.97
442.21	1763.30
442.41	1603.56
442.62	1824.74
442.82	1816.55
443.02	1748.97
443.23	1710.05
443.43	1697.77
443.64	1775.59
443.84	1718.25
444.05	1769.44
444.25	1773.54
444.46	1734.63
444.66	1728.49
444.87	1861.60
445.07	1593.32
445.28	1673.19
445.48	1724.39
445.69	1800.16
445.89	1855.46
446.09	1660.90
446.30	1982.43
446.50	2584.54
446.71	3663.82
446.91	4245.44
447.12	4689.85
447.32	4667.32
447.53	4202.43
447.73	3807.17
447.93	3452.88
448.14	3241.93
448.34	3114.96
448.55	2840.53
448.75	2836.44
448.96	2654.17
449.16	2369.50
449.36	2238.43
449.57	2033.63
449.77	1863.65
449.98	1871.84
450.18	1757.16
450.39	1898.47
450.59	1738.73
450.79	1712.10
451.00	1742.82
451.20	1697.77
451.41	1705.96
451.61	1777.64
451.81	1708.01
452.02	1703.91
452.22	1728.49
452.43	1705.96
452.63	1728.49
452.84	1763.30
453.04	1681.38
453.24	1804.26
453.45	1742.82
453.65	1759.21
453.86	1759.21
454.06	1769.44
454.26	1728.49
454.47	1705.96
454.67	1832.93
454.87	1734.63
455.08	1671.14
455.28	1849.32
455.49	1802.21
455.69	1730.53
455.89	1834.98
456.10	1828.84
456.30	1779.68
456.51	1718.25
456.71	1746.92
456.91	1712.10
457.12	1746.92
457.32	1791.97
457.52	1660.90
457.73	1740.77
457.93	1730.53
458.14	1722.34
458.34	1665.00
458.54	1691.62
458.75	1679.33
458.95	1814.50
459.15	1783.78
459.36	1847.27
459.56	1806.31
459.76	1898.47
459.97	1767.40
460.17	1748.97
460.37	1771.49
460.58	1771.49
460.78	1777.64
460.99	1644.52
461.19	1718.25
461.39	1746.92
461.60	1626.09
461.80	1828.84
462.00	1703.91
462.21	1708.01
462.41	1673.19
462.61	1681.38
462.82	1689.57
463.02	1763.30
463.22	1738.73
463.43	1847.27
463.63	1753.06
463.83	1839.08
464.04	1765.35
464.24	1734.63
464.44	1609.70
464.64	1751.01
464.85	1810.40
465.05	1773.54
465.25	1753.06
465.46	1710.05
465.66	1783.78
465.86	1906.66
466.07	1720.29
466.27	1730.53
466.47	1714.15
466.68	1677.29
466.88	1851.36
467.08	1742.82
467.29	1738.73
467.49	1810.40
467.69	1769.44
467.89	1755.11
468.10	1775.59
468.30	1720.29
468.50	1794.02
468.71	1728.49
468.91	1673.19
469.11	1841.12
469.31	1753.06
469.52	1701.86
469.72	1767.40
469.92	1906.66
470.13	1710.05
470.33	1708.01
470.53	1826.79
470.73	2129.89
470.94	2234.33
471.14	2320.35
471.34	2510.81
471.54	2285.53
471.75	2230.24
471.95	2125.79
472.15	2115.55
472.36	2045.92
472.56	2043.87
472.76	1972.19
472.96	1927.14
473.17	1933.28
473.37	1900.52
473.57	1816.55
473.77	1755.11
473.98	1687.53
474.18	1722.34
474.38	1845.22
474.58	1732.58
474.79	1740.77
474.99	1794.02
475.19	1779.68
475.39	1642.47
475.60	1708.01
475.80	1748.97
476.00	1697.77
476.20	1677.29
476.41	1810.40
476.61	1824.74
476.81	1757.16
477.01	1689.57
477.21	1834.98
477.42	1796.07
477.62	1675.24
477.82	1769.44
478.02	1699.81
478.23	1738.73
478.43	1660.90
478.63	1617.90
478.83	1753.06
479.03	1765.35
479.24	1716.20
479.44	1808.36
479.64	1708.01
479.84	1648.61
480.04	1574.89
480.25	1773.54
480.45	1658.85
480.65	1724.39
480.85	1841.12
481.06	1703.91
481.26	1779.68
481.46	1755.11
481.66	1724.39
481.86	1640.42
482.06	1800.16
482.27	1673.19
482.47	1800.16
482.67	1718.25
482.87	1689.57
483.07	1740.77
483.28	1701.86
483.48	1742.82
483.68	1695.72
483.88	1630.18
484.08	1656.81
484.29	1693.67
484.49	1732.58
484.69	1689.57
484.89	1851.36
485.09	1708.01
485.29	1763.30
485.50	1763.30
485.70	1726.44
485.90	1791.97
486.10	1740.77
486.30	1765.35
486.50	1791.97
486.71	1773.54
486.91	1810.40
487.11	1763.30
487.31	1665.00
487.51	1718.25
487.71	1660.90
487.91	1691.62
488.12	1724.39
488.32	1626.09
488.52	1621.99
488.72	1626.09
488.92	1730.53
489.12	1834.98
489.32	1699.81
489.53	1791.97
489.73	1689.57
489.93	1794.02
490.13	1699.81
490.33	1671.14
490.53	1791.97
490.73	1845.22
490.94	1619.94
491.14	1779.68
491.34	1849.32
491.54	2052.06
491.74	2480.09
491.94	2877.40
492.14	2994.13
492.34	2977.75
492.54	2727.89
492.75	2445.27
492.95	2369.50
493.15	2373.60
493.35	2256.86
493.55	2205.66
493.75	2207.71
493.95	2111.46
494.15	2043.87
494.35	1951.71
494.56	1802.21
494.76	1785.83
494.96	1857.51
495.16	1798.12
495.36	1746.92
495.56	1697.77
495.76	1794.02
495.96	1744.87
496.16	1609.70
496.36	1884.13
496.56	1740.77
496.77	1832.93
496.97	1740.77
497.17	1757.16
497.37	1714.15
497.57	1736.68
497.77	1734.63
497.97	1685.48
498.17	1746.92
498.37	1718.25
498.57	1777.64
498.77	1724.39
498.97	1785.83
499.17	1824.74
499.38	1759.21
499.58	1683.43
499.78	1816.55
499.98	1875.94
500.18	1685.48
500.38	1679.33
500.58	1978.34
500.78	2451.42
500.98	4372.41
501.18	5535.66
501.38	6657.95
501.58	6981.53
501.78	6426.53
501.98	5386.16
502.18	4880.31
502.38	4261.82
502.58	4054.98
502.78	3719.11
502.98	3575.75
503.18	3416.01
503.38	3102.67
503.59	2840.53
503.79	2529.24
503.99	2461.66
504.19	2295.77
504.39	2183.13
504.59	2228.19
504.79	2074.59
504.99	1994.72
505.19	1855.46
505.39	1918.95
505.59	1910.75
505.79	1920.99
505.99	1843.17
506.19	1796.07
506.39	1849.32
506.59	1751.01
506.79	1753.06
506.99	1802.21
507.19	1800.16
507.39	1787.88
507.59	1689.57
507.79	1714.15
507.99	1744.87
508.19	1779.68
508.39	1705.96
508.59	1808.36
508.79	1853.41
508.99	1888.23
509.19	1656.81
509.39	1824.74
509.59	1736.68
509.79	1611.75
509.99	1783.78
510.19	1826.79
510.39	1830.88
510.59	1701.86
510.79	1710.05
510.99	1603.56
511.19	1691.62
511.39	1830.88
511.59	1804.26
511.79	1767.40
511.99	1742.82
512.19	1832.93
512.38	1757.16
512.58	1632.23
512.78	1740.77
512.98	1789.92
513.18	1767.40
513.38	1607.66
513.58	1769.44
513.78	1681.38
513.98	1716.20
514.18	1808.36
514.38	1699.81
514.58	1687.53
514.78	1740.77
514.98	1667.05
515.18	1742.82
515.38	1677.29
515.58	1884.13
515.78	1701.86
515.98	1757.16
516.18	1744.87
516.38	1757.16
516.57	1771.49
516.77	1732.58
516.97	1775.59
517.17	1736.68
517.37	1673.19
517.57	1789.92
517.77	1710.05
517.97	1744.87
518.17	1798.12
518.37	1681.38
518.57	1708.01
518.77	1753.06
518.97	1746.92
519.16	1716.20
519.36	1851.36
519.56	1685.48
519.76	1734.63
519.96	1691.62
520.16	1769.44
520.36	1667.05
520.56	1800.16
520.76	1624.04
520.96	1593.32
521.16	1738.73
521.35	1814.50
521.55	1767.40
521.75	1810.40
521.95	1667.05
522.15	1726.44
522.35	1669.09
522.55	1703.91
522.75	1812.45
522.95	1759.21
523.14	1716.20
523.34	1699.81
523.54	1689.57
523.74	1816.55
523.94	1740.77
524.14	1562.60
524.34	1808.36
524.54	1828.84
524.73	1718.25
524.93	1738.73
525.13	1732.58
525.33	1732.58
525.53	1867.75
525.73	1759.21
525.93	1708.01
526.13	1675.24
526.32	1675.24
526.52	1761.25
526.72	1796.07
526.92	1748.97
527.12	1746.92
527.32	1703.91
527.52	1716.20
527.71	1810.40
527.91	1726.44
528.11	1753.06
528.31	1783.78
528.51	1699.81
528.71	1701.86
528.90	1773.54
529.10	1759.21
529.30	1736.68
529.50	1693.67
529.70	1751.01
529.90	1746.92
530.09	1771.49
530.29	1746.92
530.49	1660.90
530.69	1923.04
530.89	1728.49
531.09	1814.50
531.28	1755.11
531.48	1834.98
531.68	1785.83
531.88	1677.29
532.08	1791.97
532.28	1669.09
532.47	1755.11
532.67	1800.16
532.87	1755.11
533.07	1685.48
533.27	1804.26
533.46	1808.36
533.66	1746.92
533.86	1769.44
534.06	1763.30
534.26	1742.82
534.45	1730.53
534.65	1781.73
534.85	1767.40
535.05	1634.28
535.25	1710.05
535.44	1673.19
535.64	1744.87
535.84	1705.96
536.04	1705.96
536.24	1626.09
536.43	1767.40
536.63	1701.86
536.83	1789.92
537.03	1689.57
537.22	1640.42
537.42	1613.80
537.62	1689.57
537.82	1636.33
538.02	1767.40
538.21	1869.80
538.41	1900.52
538.61	1773.54
538.81	1689.57
539.00	1816.55
539.20	1624.04
539.40	1701.86
539.60	1697.77
539.79	1753.06
539.99	1677.29
540.19	1732.58
540.39	1722.34
540.58	1681.38
540.78	1744.87
540.98	1763.30
541.18	1769.44
541.37	1783.78
541.57	1765.35
541.77	1714.15
541.97	1755.11
542.16	1648.61
542.36	1726.44
542.56	1771.49
542.76	1914.85
542.95	1726.44
543.15	1761.25
543.35	1730.53
543.54	1673.19
543.74	1724.39
543.94	1765.35
544.14	1626.09
544.33	1755.11
544.53	1724.39
544.73	1630.18
544.93	1685.48
545.12	1742.82
545.32	1777.64
545.52	1708.01
545.71	1667.05
545.91	1763.30
546.11	1742.82
546.30	1681.38
546.50	1679.33
546.70	1728.49
546.90	1791.97
547.09	1673.19
547.29	1738.73
547.49	1789.92
547.68	1757.16
547.88	1617.90
548.08	1757.16
548.27	2172.89
548.47	1712.10
548.67	1722.34
548.87	1736.68
549.06	1720.29
549.26	1767.40
549.46	1732.58
549.65	1730.53
549.85	1724.39
550.05	1812.45
550.24	1716.20
550.44	1796.07
550.64	1714.15
550.83	1802.21
551.03	1763.30
551.23	1769.44
551.42	1783.78
551.62	1718.25
551.82	1712.10
552.01	1716.20
552.21	1771.49
552.41	1632.23
552.60	1814.50
552.80	1710.05
553.00	1669.09
553.19	1705.96
553.39	1716.20
553.59	1685.48
553.78	1730.53
553.98	1632.23
554.17	1642.47
554.37	1796.07
554.57	1845.22
554.76	1677.29
554.96	1677.29
555.16	1794.02
555.35	1791.97
555.55	1767.40
555.75	1728.49
555.94	1830.88
556.14	1753.06
556.33	1880.04
556.53	1718.25
556.73	1751.01
556.92	1826.79
557.12	1791.97
557.32	1847.27
557.51	1804.26
557.71	1781.73
557.90	1779.68
558.10	1830.88
558.30	1722.34
558.49	1744.87
558.69	1730.53
558.88	1834.98
559.08	1787.88
559.28	1599.46
559.47	1777.64
559.67	1753.06
559.86	1820.64
560.06	1742.82
560.26	1755.11
560.45	1775.59
560.65	1791.97
560.84	1808.36
561.04	1714.15
561.24	1748.97
561.43	1742.82
561.63	1822.69
561.82	1753.06
562.02	1810.40
562.22	1783.78
562.41	1738.73
562.61	1628.14
562.80	1671.14
563.00	1877.99
563.19	1783.78
563.39	1746.92
563.59	1744.87
563.78	1738.73
563.98	1650.66
564.17	1791.97
564.37	1703.91
564.56	1714.15
564.76	1783.78
564.96	1785.83
565.15	1791.97
565.35	1781.73
565.54	1742.82
565.74	1859.56
565.93	1722.34
566.13	1794.02
566.32	1765.35
566.52	1763.30
566.71	1789.92
566.91	1789.92
567.11	1705.96
567.30	1693.67
567.50	1791.97
567.69	1753.06
567.89	1769.44
568.08	1720.29
568.28	1738.73
568.47	1685.48
568.67	1777.64
568.86	1740.77
569.06	1771.49
569.25	1728.49
569.45	1673.19
569.64	1669.09
569.84	1775.59
570.04	1685.48
570.23	1728.49
570.43	1701.86
570.62	1755.11
570.82	1783.78
571.01	1708.01
571.21	1714.15
571.40	1724.39
571.60	1828.84
571.79	1703.91
571.99	1767.40
572.18	1720.29
572.38	1812.45
572.57	1753.06
572.77	1732.58
572.96	1865.70
573.16	1708.01
573.35	1785.83
573.55	1771.49
573.74	1759.21
573.94	1787.88
574.13	1732.58
574.33	1798.12
574.52	1783.78
574.71	1720.29
574.91	1744.87
575.10	1787.88
575.30	1742.82
575.49	1705.96
575.69	1714.15
575.88	1761.25
576.08	1703.91
576.27	1761.25
576.47	1751.01
576.66	1787.88
576.86	1730.53
577.05	1818.60
577.25	1742.82
577.44	1935.33
577.64	1757.16
577.83	1794.02
578.02	1769.44
578.22	1828.84
578.41	1775.59
578.61	1746.92
578.80	1691.62
579.00	1806.31
579.19	1789.92
579.39	1771.49
579.58	1806.31
579.77	1744.87
579.97	1802.21
580.16	1767.40
580.36	1751.01
580.55	1812.45
580.75	1771.49
580.94	1736.68
581.13	1839.08
581.33	1806.31
581.52	1722.34
581.72	1865.70
581.91	1837.03
582.11	1748.97
582.30	1810.40
582.49	1753.06
582.69	1890.28
582.88	1755.11
583.08	1806.31
583.27	1775.59
583.47	1828.84
583.66	1738.73
583.85	1701.86
584.05	1744.87
584.24	1742.82
584.44	1767.40
584.63	1806.31
584.82	1851.36
585.02	1789.92
585.21	1746.92
585.41	1873.89
585.60	1796.07
585.79	1966.05
585.99	1945.57
586.18	1855.46
586.37	2201.57
586.57	3250.13
586.76	9736.04
586.96	24131.22
587.15	33066.50
587.34	39036.33
587.54	40742.29
587.73	34866.67
587.93	25228.93
588.12	20692.68
588.31	17606.39
588.51	15757.07
588.70	14552.87
588.89	13573.94
589.09	12083.02
589.28	10762.08
589.47	9119.60
589.67	7675.79
589.86	6281.12
590.06	4726.71
590.25	3749.83
590.44	3094.48
590.64	2566.10
590.83	2172.89
591.02	2133.98
591.22	1923.04
591.41	1832.93
591.60	1800.16
591.80	1976.29
591.99	1753.06
592.18	1714.15
592.38	1855.46
592.57	1730.53
592.76	1796.07
592.96	1783.78
593.15	1677.29
593.34	1816.55
593.54	1800.16
593.73	1802.21
593.92	1808.36
594.12	1787.88
594.31	1789.92
594.50	1845.22
594.70	1726.44
594.89	1980.39
595.08	1660.90
595.28	1787.88
595.47	1908.71
595.66	1849.32
595.86	1679.33
596.05	1722.34
596.24	1748.97
596.43	1925.09
596.63	1904.61
596.82	1828.84
597.01	1718.25
597.21	1863.65
597.40	1767.40
597.59	1722.34
597.79	1767.40
597.98	1837.03
598.17	1794.02
598.36	1755.11
598.56	1767.40
598.75	1742.82
598.94	1759.21
599.14	1755.11
599.33	1705.96
599.52	1791.97
599.71	1720.29
599.91	1841.12
600.10	1757.16
600.29	1714.15
600.48	1810.40
600.68	1824.74
600.87	1755.11
601.06	1671.14
601.26	1820.64
601.45	1705.96
601.64	1632.23
601.83	1845.22
602.03	1693.67
602.22	1638.38
602.41	1716.20
602.60	1775.59
602.80	1804.26
602.99	1744.87
603.18	1761.25
603.37	1798.12
603.57	1837.03
603.76	1718.25
603.95	1798.12
604.14	1701.86
604.34	1732.58
604.53	1697.77
604.72	1773.54
604.91	1761.25
605.10	1732.58
605.30	1746.92
605.49	1943.52
605.68	1769.44
605.87	1738.73
606.07	1751.01
606.26	1681.38
606.45	1718.25
606.64	1732.58
606.84	1824.74
607.03	1671.14
607.22	1773.54
607.41	1753.06
607.60	1748.97
607.80	1775.59
607.99	1705.96
608.18	1714.15
608.37	1783.78
608.56	1654.76
608.76	1794.02
608.95	1761.25
609.14	1746.92
609.33	1724.39
609.52	1783.78
609.72	1757.16
609.91	1775.59
610.10	1789.92
610.29	1787.88
610.48	1777.64
610.68	1757.16
610.87	1751.01
611.06	1839.08
611.25	1701.86
611.44	1877.99
611.63	1619.94
611.83	1857.51
612.02	1673.19
612.21	1853.41
612.40	1681.38
612.59	1687.53
612.79	1716.20
612.98	1761.25
613.17	1812.45
613.36	1775.59
613.55	1898.47
613.74	1648.61
613.93	1693.67
614.13	1652.71
614.32	1726.44
614.51	1796.07
614.70	1730.53
614.89	1677.29
615.08	1746.92
615.28	2066.40
615.47	1675.24
615.66	1673.19
615.85	1701.86
616.04	1843.17
616.23	1730.53
616.42	1691.62
616.62	1751.01
616.81	1699.81
617.00	1701.86
617.19	1708.01
617.38	1673.19
617.57	1746.92
617.76	1781.73
617.95	1822.69
618.15	1806.31
618.34	1832.93
618.53	1685.48
618.72	1726.44
618.91	1783.78
619.10	1843.17
619.29	1771.49
619.48	1779.68
619.68	1654.76
619.87	1742.82
620.06	1679.33
620.25	1791.97
620.44	1714.15
620.63	1714.15
620.82	1755.11
621.01	1834.98
621.20	1710.05
621.39	1761.25
621.59	1789.92
621.78	1724.39
621.97	1677.29
622.16	1808.36
622.35	1804.26
622.54	1800.16
622.73	1742.82
622.92	1648.61
623.11	1789.92
623.30	1765.35
623.49	1796.07
623.68	1662.95
623.88	1853.41
624.07	1636.33
624.26	1574.89
624.45	1738.73
624.64	1665.00
624.83	1738.73
625.02	1716.20
625.21	1787.88
625.40	1751.01
625.59	1796.07
625.78	1667.05
625.97	1703.91
626.16	1787.88
626.35	1814.50
626.54	1718.25
626.74	1902.56
626.93	1757.16
627.12	1689.57
627.31	1814.50
627.50	1773.54
627.69	1814.50
627.88	1714.15
628.07	1671.14
628.26	1593.32
628.45	1656.81
628.64	1656.81
628.83	1761.25
629.02	1658.85
629.21	1675.24
629.40	1748.97
629.59	1644.52
629.78	1671.14
629.97	1726.44
630.16	1791.97
630.35	1632.23
630.54	1753.06
630.73	1705.96
630.92	1779.68
631.11	1744.87
631.30	1824.74
631.49	1734.63
631.68	1695.72
631.87	1802.21
632.06	1648.61
632.25	1845.22
632.44	1687.53
632.63	1744.87
632.82	1732.58
633.01	1665.00
633.20	1667.05
633.39	1695.72
633.58	1697.77
633.77	1734.63
633.96	1728.49
634.15	1769.44
634.34	1832.93
634.53	1773.54
634.72	1722.34
634.91	1644.52
635.10	1687.53
635.29	1783.78
635.48	1738.73
635.67	1675.24
635.86	1628.14
636.05	1800.16
636.24	1718.25
636.43	1851.36
636.62	1695.72
636.81	1640.42
637.00	1753.06
637.19	1742.82
637.38	1738.73
637.57	1722.34
637.76	1638.38
637.95	1771.49
638.14	1597.42
638.33	1693.67
638.52	1699.81
638.71	1665.00
638.89	1570.79
639.08	1910.75
639.27	1812.45
639.46	1757.16
639.65	1748.97
639.84	1791.97
640.03	1791.97
640.22	1697.77
640.41	1775.59
640.60	1656.81
640.79	1781.73
640.98	1767.40
641.17	1828.84
641.36	1695.72
641.55	1695.72
641.74	1652.71
641.92	1597.42
642.11	1646.57
642.30	1642.47
642.49	1564.65
642.68	1716.20
642.87	1775.59
643.06	1738.73
643.25	1675.24
643.44	1761.25
643.63	1712.10
643.82	1714.15
644.00	1671.14
644.19	1665.00
644.38	1724.39
644.57	1777.64
644.76	1714.15
644.95	1685.48
645.14	1728.49
645.33	1683.43
645.52	1783.78
645.71	1687.53
645.89	1660.90
646.08	1720.29
646.27	1744.87
646.46	1800.16
646.65	1693.67
646.84	1742.82
647.03	1685.48
647.22	1783.78
647.40	1724.39
647.59	1740.77
647.78	1624.04
647.97	1779.68
648.16	1636.33
648.35	1804.26
648.54	1759.21
648.73	1634.28
648.91	1796.07
649.10	1748.97
649.29	1673.19
649.48	1691.62
649.67	1677.29
649.86	1685.48
650.05	1621.99
650.23	1882.08
650.42	1691.62
650.61	1839.08
650.80	1775.59
650.99	1871.84
651.18	1734.63
651.36	1761.25
651.55	1671.14
651.74	1771.49
651.93	1675.24
652.12	1681.38
652.31	1705.96
652.49	1730.53
652.68	1736.68
652.87	1830.88
653.06	1820.64
653.25	1806.31
653.44	1748.97
653.62	1814.50
653.81	1630.18
654.00	1701.86
654.19	1757.16
654.38	1818.60
654.56	1683.43
654.75	1689.57
654.94	1742.82
655.13	1697.77
655.32	1673.19
655.51	1787.88
655.69	1730.53
655.88	1738.73
656.07	1710.05
656.26	1728.49
656.45	1650.66
656.63	1751.01
656.82	1757.16
657.01	1804.26
657.20	1755.11
657.38	1822.69
657.57	1701.86
657.76	1681.38
657.95	1722.34
658.14	1734.63
658.32	1773.54
658.51	1624.04
658.70	1746.92
658.89	1730.53
659.08	1736.68
659.26	1734.63
659.45	1660.90
659.64	1681.38
659.83	1681.38
660.01	1906.66
660.20	1757.16
660.39	1765.35
660.58	1574.89
660.76	1693.67
660.95	1613.80
661.14	1675.24
661.33	1638.38
661.51	1748.97
661.70	1665.00
661.89	1748.97
662.08	1714.15
662.26	1662.95
662.45	1628.14
662.64	1822.69
662.83	1781.73
663.01	1605.61
663.20	1757.16
663.39	1834.98
663.58	1701.86
663.76	1705.96
663.95	1804.26
664.14	1708.01
664.32	1705.96
664.51	1648.61
664.70	1677.29
664.89	1753.06
665.07	1693.67
665.26	1816.55
665.45	1677.29
665.64	1757.16
665.82	1720.29
666.01	1765.35
666.20	1685.48
666.38	1787.88
666.57	1925.09
666.76	2275.29
666.95	4411.32
667.13	10037.09
667.32	14888.73
667.51	17364.73
667.69	18425.57
667.88	17008.38
668.07	11878.22
668.25	9488.24
668.44	7849.86
668.63	7092.12
668.81	6682.52
669.00	6076.32
669.19	5539.76
669.38	4829.11
669.56	4392.89
669.75	3928.00
669.94	3420.11
670.12	2813.91
670.31	2482.14
670.50	2252.77
670.68	1986.53
670.87	1933.28
671.06	1841.12
671.24	1834.98
671.43	1855.46
671.62	1753.06
671.80	1710.05
671.99	1783.78
672.18	1732.58
672.36	1699.81
672.55	1757.16
672.74	1734.63
672.92	1697.77
673.11	1796.07
673.29	1746.92
673.48	1759.21
673.67	1683.43
673.85	1800.16
674.04	1673.19
674.23	1763.30
674.41	1789.92
674.60	1640.42
674.79	1617.90
674.97	1683.43
675.16	1777.64
675.34	1740.77
675.53	1722.34
675.72	1724.39
675.90	1794.02
676.09	1751.01
676.28	1751.01
676.46	1621.99
676.65	1744.87
676.83	1626.09
677.02	1718.25
677.21	1724.39
677.39	1720.29
677.58	1701.86
677.77	1757.16
677.95	1667.05
678.14	1689.57
678.32	1734.63
678.51	1601.51
678.70	1888.23
678.88	1701.86
679.07	1701.86
679.25	1740.77
679.44	1771.49
679.63	1673.19
679.81	1726.44
680.00	1751.01
680.18	1765.35
680.37	1771.49
680.55	1677.29
680.74	1626.09
680.93	1613.80
681.11	1761.25
681.30	1689.57
681.48	1794.02
681.67	1710.05
681.85	1679.33
682.04	1677.29
682.23	1791.97
682.41	1818.60
682.60	1687.53
682.78	1656.81
682.97	1652.71
683.15	1728.49
683.34	1763.30
683.53	1775.59
683.71	1667.05
683.90	1769.44
684.08	1859.56
684.27	1689.57
684.45	1705.96
684.64	1818.60
684.82	1759.21
685.01	1789.92
685.19	1734.63
685.38	1781.73
685.57	1722.34
685.75	1759.21
685.94	1683.43
686.12	1691.62
686.31	1679.33
686.49	1777.64
686.68	1658.85
686.86	1722.34
687.05	1742.82
687.23	1804.26
687.42	1658.85
687.60	1656.81
687.79	1728.49
687.97	1779.68
688.16	1810.40
688.34	1757.16
688.53	1591.27
688.71	1712.10
688.90	1828.84
689.08	1775.59
689.27	1646.57
689.45	1701.86
689.64	1794.02
689.82	1652.71
690.01	1808.36
690.19	1814.50
690.38	1716.20
690.56	1806.31
690.75	1642.47
690.93	1669.09
691.12	1697.77
691.30	1669.09
691.49	1636.33
691.67	1667.05
691.86	1859.56
692.04	1697.77
692.23	1630.18
692.41	1650.66
692.60	1779.68
692.78	1796.07
692.97	1689.57
693.15	1775.59
693.34	1736.68
693.52	1781.73
693.71	1765.35
693.89	1642.47
694.08	1650.66
694.26	1785.83
694.44	1787.88
694.63	1742.82
694.81	1599.46
695.00	1720.29
695.18	1808.36
695.37	1832.93
695.55	1650.66
695.74	1667.05
695.92	1603.56
696.10	1783.78
696.29	1570.79
696.47	1665.00
696.66	1685.48
696.84	1648.61
697.03	1705.96
697.21	1796.07
697.40	2342.88
697.58	1796.07
697.76	1701.86
697.95	1667.05
698.13	1697.77
698.32	1660.90
698.50	1712.10
698.68	1730.53
698.87	1755.11
699.05	1812.45
699.24	1769.44
699.42	1642.47
699.61	1781.73
699.79	1703.91
699.97	1675.24
700.16	1630.18
700.34	1605.61
700.53	1765.35
700.71	1841.12
700.89	1753.06
701.08	1722.34
701.26	1722.34
701.45	2109.41
701.63	1677.29
701.81	1710.05
702.00	1669.09
702.18	1689.57
702.37	1665.00
702.55	1769.44
702.73	1673.19
702.92	1644.52
703.10	1726.44
703.28	1691.62
703.47	1689.57
703.65	1785.83
703.84	1787.88
704.02	1667.05
704.20	1814.50
704.39	1703.91
704.57	1687.53
704.75	1787.88
704.94	1722.34
705.12	1689.57
705.30	1740.77
705.49	2273.25
705.67	4511.68
705.86	9260.91
706.04	12152.65
706.22	13942.57
706.41	14923.55
706.59	13274.93
706.77	9125.75
706.96	7108.50
707.14	6457.25
707.32	5851.05
707.51	5390.25
707.69	4857.78
707.87	4011.97
708.06	3469.26
708.24	2871.25
708.42	2379.74
708.61	2267.10
708.79	1828.84
708.97	1875.94
709.16	1816.55
709.34	1708.01
709.52	1679.33
709.71	1755.11
709.89	1808.36
710.07	1718.25
710.26	1677.29
710.44	1738.73
710.62	1767.40
710.80	1667.05
710.99	1738.73
711.17	1777.64
711.35	1677.29
711.54	1744.87
711.72	1746.92
711.90	1730.53
712.09	1742.82
712.27	1734.63
712.45	1730.53
712.63	1615.85
712.82	1742.82
713.00	1681.38
713.18	1748.97
713.37	1720.29
713.55	1771.49
713.73	1773.54
713.91	1710.05
714.10	1722.34
714.28	1712.10
714.46	1722.34
714.65	1738.73
714.83	1669.09
715.01	1738.73
715.19	1728.49
715.38	1705.96
715.56	1808.36
715.74	1660.90
715.92	1640.42
716.11	1699.81
716.29	1572.84
716.47	1701.86
716.65	1624.04
716.84	1607.66
717.02	1767.40
717.20	1603.56
717.38	1699.81
717.57	1697.77
717.75	1814.50
717.93	1615.85
718.11	1763.30
718.30	1660.90
718.48	1691.62
718.66	1730.53
718.84	1753.06
719.03	1630.18
719.21	1675.24
719.39	1857.51
719.57	1779.68
719.75	1912.80
719.94	1673.19
720.12	1693.67
720.30	1652.71
720.48	1791.97
720.67	1673.19
720.85	1677.29
721.03	1669.09
721.21	1800.16
721.39	1832.93
721.58	1730.53
721.76	1632.23
721.94	1650.66
722.12	1755.11
722.30	1763.30
722.49	1734.63
722.67	1765.35
722.85	1720.29
723.03	1652.71
723.21	1665.00
723.40	1730.53
723.58	1691.62
723.76	1724.39
723.94	1849.32
724.12	1714.15
724.30	1771.49
724.49	1777.64
724.67	1654.76
724.85	1730.53
725.03	1615.85
725.21	1789.92
725.40	1779.68
725.58	1753.06
725.76	1794.02
725.94	1720.29
726.12	1722.34
726.30	1765.35
726.49	1714.15
726.67	1742.82
726.85	1708.01
727.03	1865.70
727.21	2203.61
727.39	2885.59
727.57	3786.69
727.76	4177.86
727.94	4315.07
728.12	4265.92
728.30	3524.55
728.48	2920.40
728.66	2611.16
728.84	2484.19
729.03	2230.24
729.21	2086.88
729.39	1947.62
729.57	1814.50
729.75	1804.26
729.93	1781.73
730.11	1748.97
730.30	1710.05
730.48	1695.72
730.66	1748.97
730.84	1777.64
731.02	1689.57
731.20	1738.73
731.38	1691.62
731.56	1630.18
731.74	1689.57
731.93	1742.82
732.11	1658.85
732.29	1759.21
732.47	1785.83
732.65	1646.57
732.83	1753.06
733.01	1705.96
733.19	1697.77
733.37	1746.92
733.56	1701.86
733.74	1697.77
733.92	1814.50
734.10	1705.96
734.28	1714.15
734.46	1558.50
734.64	1691.62
734.82	1712.10
735.00	1726.44
735.18	1695.72
735.36	1742.82
735.54	1658.85
735.73	1726.44
735.91	1714.15
736.09	1687.53
736.27	1679.33
736.45	1691.62
736.63	1578.98
736.81	1613.80
736.99	1771.49
737.17	1794.02
737.35	1722.34
737.53	1685.48
737.71	1667.05
737.89	1816.55
738.07	1695.72
738.25	1699.81
738.43	1660.90
738.61	1685.48
738.80	1595.37
738.98	1720.29
739.16	1599.46
739.34	1632.23
739.52	1738.73
739.70	1634.28
739.88	1794.02
740.06	1800.16
740.24	1613.80
740.42	1738.73
740.60	1654.76
740.78	1671.14
740.96	1632.23
741.14	1714.15
741.32	1763.30
741.50	1650.66
741.68	1816.55
741.86	1722.34
742.04	1591.27
742.22	1640.42
742.40	1728.49
742.58	1718.25
742.76	1675.24
742.94	1738.73
743.12	1650.66
743.30	1693.67
743.48	1628.14
743.66	1669.09
743.84	1769.44
744.02	1722.34
744.20	1718.25
744.38	1673.19
744.56	1677.29
744.74	1877.99
744.92	1716.20
745.10	1765.35
745.28	1802.21
745.46	1718.25
745.64	1679.33
745.82	1796.07
746.00	1753.06
746.18	1730.53
746.36	1638.38
746.54	1771.49
746.72	1738.73
746.90	1689.57
747.08	1822.69
747.26	1685.48
747.44	1791.97
747.62	1738.73
747.80	1791.97
747.98	1748.97
748.15	1724.39
748.33	1691.62
748.51	1638.38
748.69	1816.55
748.87	1638.38
749.05	1705.96
749.23	1722.34
749.41	1742.82
749.59	1662.95
749.77	1742.82
749.95	1687.53
750.13	1740.77
750.31	1781.73
750.49	1693.67
750.67	1761.25
750.85	1763.30
751.03	1738.73
751.20	1816.55
751.38	1744.87
751.56	1708.01
751.74	1755.11
751.92	1669.09
752.10	1599.46
752.28	1734.63
752.46	1697.77
752.64	1699.81
752.82	1710.05
753.00	1759.21
753.18	1755.11
753.35	1689.57
753.53	1697.77
753.71	1755.11
753.89	1740.77
754.07	1722.34
754.25	1765.35
754.43	1744.87
754.61	1632.23
754.79	1689.57
754.97	1634.28
755.14	1744.87
755.32	1693.67
755.50	1753.06
755.68	1705.96
755.86	1628.14
756.04	1746.92
756.22	1642.47
756.40	1787.88
756.57	1839.08
756.75	1695.72
756.93	1771.49
757.11	1732.58
757.29	1669.09
757.47	1685.48
757.65	1679.33
757.82	1591.27
758.00	1632.23
758.18	1771.49
758.36	1607.66
758.54	1736.68
758.72	1697.77
758.90	1761.25
759.07	1751.01
759.25	1656.81
759.43	1697.77
759.61	1650.66
759.79	2258.91
759.97	1724.39
760.15	1714.15
760.32	1689.57
760.50	1693.67
760.68	1771.49
760.86	1589.22
761.04	1767.40
761.22	1701.86
761.39	1800.16
761.57	1673.19
761.75	1656.81
761.93	1722.34
762.11	1703.91
762.28	1714.15
762.46	1718.25
762.64	1732.58
762.82	1542.12
763.00	1697.77
763.18	1732.58
763.35	1578.98
763.53	1742.82
763.71	1722.34
763.89	1771.49
764.07	1697.77
764.24	1658.85
764.42	1822.69
764.60	1718.25
764.78	1679.33
764.96	1673.19
765.13	1722.34
765.31	1734.63
765.49	1677.29
765.67	1681.38
765.84	1642.47
766.02	1691.62
766.20	1646.57
766.38	1769.44
766.56	1681.38
766.73	1771.49
766.91	1679.33
767.09	1671.14
767.27	1791.97
767.44	1656.81
767.62	1697.77
767.80	1746.92
767.98	1699.81
768.15	1667.05
768.33	1757.16
768.51	1708.01
768.69	1736.68
768.87	1683.43
769.04	1662.95
769.22	1875.94
769.40	1810.40
769.58	1828.84
769.75	1646.57
769.93	1753.06
770.11	1685.48
770.28	1656.81
770.46	1648.61
770.64	1689.57
770.82	1761.25
770.99	1738.73
771.17	1800.16
771.35	1730.53
771.53	1689.57
771.70	1765.35
771.88	1781.73
772.06	1667.05
772.23	1742.82
772.41	1689.57
772.59	1728.49
772.77	1665.00
772.94	1665.00
773.12	1742.82
773.30	1677.29
773.47	1757.16
773.65	1671.14
773.83	1783.78
774.01	1712.10
774.18	1621.99
774.36	1759.21
774.54	1621.99
774.71	1771.49
774.89	1650.66
775.07	1693.67
775.24	1656.81
775.42	1683.43
775.60	1800.16
775.78	1689.57
775.95	1630.18
776.13	1646.57
776.31	1552.36
776.48	1755.11
776.66	1771.49
776.84	1681.38
777.01	1730.53
777.19	1732.58
777.37	1785.83
777.54	1769.44
777.72	1791.97
777.90	1728.49
778.07	1763.30
778.25	1828.84
778.43	1775.59
778.60	1673.19
778.78	1691.62
778.96	1812.45
779.13	1632.23
779.31	1710.05
779.49	1701.86
779.66	1662.95
779.84	1660.90
780.01	1718.25
780.19	1626.09
780.37	1798.12
780.54	1712.10
780.72	1621.99
780.90	1673.19
781.07	1724.39
781.25	1648.61
781.43	1673.19
781.60	1650.66
781.78	1746.92
781.95	1755.11
782.13	1599.46
782.31	1708.01
782.48	1632.23
782.66	1624.04
782.83	1912.80
783.01	1751.01
783.19	1710.05
783.36	1728.49
783.54	1677.29
783.72	1785.83
783.89	1693.67
784.07	1765.35
784.24	1755.11
784.42	1789.92
784.60	1642.47
784.77	1689.57
784.95	1540.07
785.12	1693.67
785.30	1716.20
785.47	1630.18
785.65	1650.66
785.83	1681.38
786.00	1677.29
786.18	1763.30
786.35	1646.57
786.53	1615.85
786.71	1677.29
786.88	1849.32
787.06	1804.26
787.23	1662.95
787.41	1640.42
787.58	1667.05
787.76	1740.77
787.94	1703.91
788.11	1730.53
788.29	1669.09
788.46	1681.38
788.64	1658.85
788.81	1744.87
788.99	1634.28
789.16	1658.85
789.34	1697.77
789.52	1660.90
789.69	1722.34
789.87	1628.14
790.04	1648.61
790.22	1665.00
790.39	1898.47
790.57	1646.57
790.74	1621.99
790.92	1785.83
791.09	1626.09
791.27	1728.49
791.44	1761.25
791.62	1791.97
791.79	1755.11
791.97	1705.96
792.15	1955.81
792.32	1712.10
792.50	1695.72
792.67	1910.75
792.85	1753.06
793.02	1724.39
793.20	1685.48
793.37	1671.14
793.55	1685.48
793.72	1669.09
793.90	1746.92
794.07	1626.09
794.25	1589.22
794.42	1724.39
794.60	1669.09
794.77	1753.06
794.95	1660.90
795.12	1771.49
795.30	1613.80
795.47	1607.66
795.65	1814.50
795.82	1761.25
796.00	1652.71
796.17	1714.15
796.34	1685.48
796.52	1722.34
796.69	1775.59
796.87	1826.79
797.04	1742.82
797.22	1689.57
797.39	1724.39
797.57	1761.25
797.74	1730.53
797.92	1755.11
798.09	1615.85
798.27	1701.86
798.44	1746.92
798.62	1644.52
798.79	1722.34
798.96	1701.86
799.14	1685.48
799.31	1925.09
799.49	1710.05
799.66	1673.19
799.84	1730.53
800.01	1665.00
800.19	1746.92
800.36	1673.19
800.53	1705.96
800.71	1656.81
800.88	1822.69
801.06	1716.20
801.23	1683.43
801.41	1658.85
801.58	1634.28
801.75	1712.10
801.93	1794.02
802.10	1773.54
802.28	1681.38
802.45	1718.25
802.63	1769.44
802.80	1742.82
802.97	1710.05
803.15	1710.05
803.32	1695.72
803.50	1619.94
803.67	1665.00
803.84	1654.76
804.02	1710.05
804.19	1677.29
804.37	1605.61
804.54	1648.61
804.71	1669.09
804.89	1691.62
805.06	1693.67
805.24	1583.08
805.41	1660.90
805.58	1601.51
805.76	1798.12
805.93	1652.71
806.10	1855.46
806.28	1734.63
806.45	1703.91
806.63	1757.16
806.80	1730.53
806.97	1683.43
807.15	1644.52
807.32	1732.58
807.49	1656.81
807.67	1705.96
807.84	1781.73
808.01	1613.80
808.19	1796.07
808.36	1802.21
808.54	1597.42
808.71	1662.95
808.88	1724.39
809.06	1808.36
809.23	1812.45
809.40	1691.62
809.58	1775.59
809.75	1677.29
809.92	1638.38
810.10	1906.66
810.27	1691.62
810.44	1763.30
810.62	1755.11
810.79	1785.83
810.96	1617.90
811.14	1593.32
811.31	1761.25
811.48	1740.77
811.66	1748.97
811.83	1771.49
812.00	1738.73
812.18	1703.91
812.35	1826.79
812.52	1714.15
812.69	1691.62
812.87	1693.67
813.04	1687.53
813.21	1724.39
813.39	1722.34
813.56	1636.33
813.73	1796.07
813.91	1630.18
814.08	1683.43
814.25	1734.63
814.42	1566.70
814.60	1671.14
814.77	1763.30
814.94	1675.24
815.12	1759.21
815.29	1775.59
815.46	1714.15
815.63	1724.39
815.81	1755.11
815.98	1693.67
816.15	1722.34
816.33	1689.57
816.50	1689.57
816.67	1722.34
816.84	1718.25
817.02	1624.04
817.19	1708.01
817.36	1671.14
817.53	1781.73
817.71	1648.61
817.88	1722.34
818.05	1648.61
818.22	1669.09
818.40	1818.60
818.57	1710.05
818.74	1712.10
818.91	1732.58
819.09	1763.30
819.26	1712.10
819.43	1689.57
819.60	1687.53
819.78	1665.00
819.95	1804.26
820.12	1658.85
820.29	1781.73
820.47	1802.21
820.64	1771.49
820.81	1591.27
820.98	1652.71
821.15	1654.76
821.33	1779.68
821.50	1546.22
821.67	1722.34
821.84	1648.61
822.02	1771.49
822.19	1720.29
822.36	1683.43
822.53	1701.86
822.70	1693.67
822.88	1701.86
823.05	1740.77
823.22	1765.35
823.39	1761.25
823.56	1654.76
823.74	1722.34
823.91	1687.53
824.08	1628.14
824.25	1611.75
824.42	1705.96
824.60	1656.81
824.77	1742.82
824.94	1726.44
825.11	1755.11
825.28	1642.47
825.45	1769.44
825.63	1658.85
825.80	1673.19
825.97	1722.34
826.14	1642.47
826.31	1558.50
826.48	1730.53
826.66	1712.10
826.83	1652.71
827.00	1701.86
827.17	1646.57
827.34	1738.73
827.51	1681.38
827.69	1775.59
827.86	1632.23
828.03	1675.24
828.20	1693.67
828.37	1685.48
828.54	1669.09
828.71	1667.05
828.89	1773.54
829.06	1734.63
829.23	1853.41
829.40	1716.20
829.57	1656.81
829.74	1767.40
829.91	1730.53
830.09	1662.95
830.26	1763.30
830.43	1773.54
830.60	1619.94
830.77	1763.30
830.94	1736.68
831.11	1748.97
831.28	1660.90
831.46	1853.41
831.63	1617.90
831.80	1732.58
831.97	1722.34
832.14	1714.15
832.31	1814.50
832.48	1689.57
832.65	1806.31
832.82	1730.53
832.99	1738.73
833.17	1681.38
833.34	1738.73
833.51	1728.49
833.68	1572.84
833.85	1769.44
834.02	1665.00
834.19	1642.47
834.36	1648.61
834.53	1710.05
834.70	1738.73
834.87	1751.01
835.04	1697.77
835.22	1615.85
835.39	1689.57
835.56	1689.57
835.73	1611.75
835.90	1816.55
836.07	1685.48
836.24	1714.15
836.41	1681.38
836.58	1656.81
836.75	1644.52
836.92	1775.59
837.09	1640.42
837.26	1748.97
837.43	1791.97
837.60	1748.97
837.77	1650.66
837.94	1667.05
838.12	1804.26
838.29	1763.30
838.46	1652.71
838.63	1665.00
838.80	1738.73
838.97	1777.64
839.14	1755.11
839.31	1685.48
839.48	1814.50
839.65	1564.65
839.82	1732.58
839.99	1708.01
840.16	1679.33
840.33	1665.00
840.50	1718.25
840.67	1693.67
840.84	1640.42
841.01	1697.77
841.18	1703.91
841.35	1734.63
841.52	1773.54
841.69	1802.21
841.86	1703.91
842.03	1757.16
842.20	1755.11
842.37	1744.87
842.54	1722.34
842.71	1687.53
842.88	1673.19
843.05	1804.26
843.22	1736.68
843.39	1740.77
843.56	1658.85
843.73	1724.39
843.90	1720.29
844.07	1665.00
844.24	1718.25
844.41	1787.88
844.58	1765.35
844.75	1703.91
844.92	1755.11
845.09	1615.85
845.26	1609.70
845.43	1720.29
845.60	1619.94
845.77	1714.15
845.94	1722.34
846.10	1773.54
846.27	1560.55
846.44	1767.40
846.61	1650.66
846.78	1714.15
846.95	1767.40
847.12	1683.43
847.29	1689.57
847.46	1665.00
847.63	1818.60
847.80	1619.94
847.97	1685.48
848.14	1798.12
848.31	1693.67
848.48	1593.32
848.65	1730.53
848.82	1679.33
848.98	1796.07
849.15	1783.78
849.32	1722.34
849.49	1759.21
849.66	1710.05
849.83	1658.85
850.00	1769.44
850.17	1820.64
850.34	1642.47
850.51	1640.42
850.68	1689.57
850.85	1796.07
851.01	1703.91
851.18	1724.39
851.35	1607.66
851.52	1705.96
851.69	1830.88
851.86	1601.51
852.03	1662.95
852.20	1720.29
852.37	1685.48
852.53	1611.75
852.70	1705.96
852.87	1785.83
853.04	1759.21
853.21	1712.10
853.38	1722.34
853.55	1730.53
853.72	1787.88
853.89	1724.39
854.05	1648.61
854.22	1720.29
854.39	1714.15
854.56	1728.49
854.73	1746.92
854.90	1677.29
855.07	1660.90
855.23	1744.87
855.40	1609.70
855.57	1748.97
855.74	1605.61
855.91	1875.94
856.08	1591.27
856.25	1626.09
856.41	1642.47
856.58	1716.20
856.75	1681.38
856.92	1589.22
857.09	1804.26
857.26	1581.03
857.42	1699.81
857.59	1755.11
857.76	1712.10
857.93	1701.86
858.10	1789.92
858.27	1624.04
858.43	1720.29
858.60	1693.67
858.77	1632.23
858.94	1650.66
859.11	1660.90
859.27	1708.01
859.44	1724.39
859.61	1787.88
859.78	1791.97
859.95	1736.68
860.12	1703.91
860.28	1794.02
860.45	1767.40
860.62	1646.57
860.79	1685.48
860.95	1701.86
861.12	1708.01
861.29	1763.30
861.46	1708.01
861.63	1714.15
861.79	1794.02
861.96	1687.53
862.13	1693.67
862.30	1814.50
862.47	1679.33
862.63	1660.90
862.80	1812.45
862.97	1734.63
863.14	1808.36
863.30	1712.10
863.47	1714.15
863.64	1800.16
863.81	1632.23
863.97	1673.19
864.14	1716.20
864.31	1685.48
864.48	1787.88
864.65	1693.67
864.81	1740.77
864.98	1740.77
865.15	1761.25
865.32	1785.83
865.48	1746.92
865.65	1759.21
865.82	1701.86
865.98	1681.38
866.15	1763.30
866.32	1636.33
866.49	1722.34
866.65	1767.40
866.82	1701.86
866.99	1712.10
867.16	1650.66
867.32	1624.04
867.49	1667.05
867.66	1710.05
867.83	1634.28
867.99	1640.42
868.16	1714.15
868.33	1638.38
868.49	1699.81
868.66	1699.81
868.83	1771.49
868.99	1742.82
869.16	1718.25
869.33	1705.96
869.50	1716.20
869.66	1720.29
869.83	1677.29
870.00	1607.66
870.16	1730.53
870.33	1658.85
870.50	1759.21
870.66	1740.77
870.83	1767.40
871.00	1691.62
871.17	1746.92
871.33	1748.97
871.50	1746.92
871.67	1689.57
871.83	1683.43
872.00	1730.53
872.17	1646.57
872.33	1830.88
872.50	1757.16
872.67	1687.53
872.83	1705.96
873.00	1697.77
873.17	1734.63
873.33	1808.36
873.50	1724.39
873.67	1644.52
873.83	1634.28
874.00	1710.05
874.16	1794.02
874.33	1708.01
874.50	1691.62
874.66	1746.92
874.83	1701.86
875.00	1785.83
875.16	1738.73
875.33	1699.81
875.50	1607.66
875.66	1673.19
875.83	1708.01
875.99	1734.63
876.16	1697.77
876.33	1638.38
876.49	1744.87
876.66	1771.49
876.83	1685.48
876.99	1628.14
877.16	1673.19
877.32	1691.62
877.49	1628.14
877.66	1730.53
877.82	1769.44
877.99	1708.01
878.15	1757.16
878.32	1699.81
878.49	1671.14
878.65	1701.86
878.82	1734.63
878.98	1730.53
879.15	1769.44
879.32	1787.88
879.48	1644.52
879.65	1593.32
879.81	1656.81
879.98	1679.33
880.15	1669.09
880.31	1796.07
880.48	1673.19
880.64	1830.88
880.81	1765.35
880.97	1839.08
881.14	1767.40
881.31	1548.26
881.47	1789.92
881.64	1767.40
881.80	1656.81
881.97	1708.01
882.13	1810.40
882.30	1703.91
882.47	1632.23
882.63	1628.14
882.80	1665.00
882.96	1679.33
883.13	1765.35
883.29	1671.14
883.46	1722.34
883.62	1810.40
883.79	1722.34
883.95	1734.63
884.12	1738.73
884.29	1779.68
884.45	1730.53
884.62	1771.49
884.78	1671.14
884.95	1767.40
885.11	1667.05
885.28	1759.21
885.44	1705.96
885.61	1779.68
885.77	1783.78
885.94	1705.96
886.10	1720.29
886.27	1660.90
886.43	1873.89
886.60	1771.49
886.76	1732.58
886.93	1595.37
887.09	1738.73
887.26	1650.66
887.42	1753.06
887.59	1746.92
887.75	1804.26
887.92	1757.16
888.08	1734.63
888.25	1736.68
888.41	1722.34
888.58	1642.47
888.74	1640.42
888.91	1667.05
>>>>>End Processed Spectral Data<<<<<
