SpectraSuite Data File
++++++++++++++++++++++++++++++++++++
Date: Mon Jun 06 16:37:17 CEST 2016
User: root
Dark Spectrum Present: No
Reference Spectrum Present: No
Number of Sampled Component Spectra: 1
Spectrometers: USB4C02835
Integration Time (usec): 100000 (USB4C02835)
Spectra Averaged: 1 (USB4C02835)
Boxcar Smoothing: 0 (USB4C02835)
Correct for Electrical Dark: No (USB4C02835)
Strobe/Lamp Enabled: No (USB4C02835)
Correct for Detector Non-linearity: No (USB4C02835)
Correct for Stray Light: No (USB4C02835)
Number of Pixels in Processed Spectrum: 3648
>>>>>Begin Processed Spectral Data<<<<<
177.47	1456.11
177.69	1456.11
177.91	1456.11
178.13	1415.15
178.36	1503.21
178.58	1701.86
178.80	1667.05
179.02	1609.70
179.24	1720.29
179.46	1753.06
179.68	1718.25
179.90	1755.11
180.13	1689.57
180.35	1714.15
180.57	1697.77
180.79	1773.54
181.01	1705.96
181.23	1775.59
181.45	1710.05
181.67	1785.83
181.90	1773.54
182.12	1554.41
182.34	1624.04
182.56	1724.39
182.78	1720.29
183.00	1722.34
183.22	1691.62
183.44	1576.94
183.66	1865.70
183.89	1804.26
184.11	1683.43
184.33	1779.68
184.55	1761.25
184.77	1728.49
184.99	1742.82
185.21	1656.81
185.43	1851.36
185.65	1689.57
185.87	1714.15
186.10	1804.26
186.32	1845.22
186.54	1732.58
186.76	1767.40
186.98	1877.99
187.20	1785.83
187.42	1685.48
187.64	1736.68
187.86	1708.01
188.08	1785.83
188.30	1673.19
188.52	1742.82
188.75	1843.17
188.97	1683.43
189.19	1734.63
189.41	1732.58
189.63	1796.07
189.85	1767.40
190.07	1689.57
190.29	1626.09
190.51	1703.91
190.73	1681.38
190.95	1769.44
191.17	1693.67
191.39	1648.61
191.61	1777.64
191.84	1599.46
192.06	1775.59
192.28	1677.29
192.50	1888.23
192.72	1734.63
192.94	1759.21
193.16	1763.30
193.38	1769.44
193.60	1673.19
193.82	1675.24
194.04	1761.25
194.26	1613.80
194.48	1730.53
194.70	1732.58
194.92	1708.01
195.14	1679.33
195.36	1630.18
195.58	1748.97
195.80	1736.68
196.02	1720.29
196.24	1648.61
196.46	1763.30
196.69	1675.24
196.91	1861.60
197.13	1558.50
197.35	1714.15
197.57	1834.98
197.79	1755.11
198.01	1695.72
198.23	1757.16
198.45	1718.25
198.67	1578.98
198.89	1748.97
199.11	1734.63
199.33	1712.10
199.55	1619.94
199.77	1761.25
199.99	1767.40
200.21	1607.66
200.43	1779.68
200.65	1662.95
200.87	1644.52
201.09	1728.49
201.31	1673.19
201.53	1826.79
201.75	1677.29
201.97	1658.85
202.19	1677.29
202.41	1746.92
202.63	1781.73
202.85	1751.01
203.07	1714.15
203.29	1701.86
203.51	1705.96
203.73	1679.33
203.95	1869.80
204.17	1748.97
204.39	1773.54
204.61	1767.40
204.83	1708.01
205.05	1755.11
205.27	1763.30
205.49	1794.02
205.71	1714.15
205.93	1617.90
206.15	1697.77
206.37	1726.44
206.59	1650.66
206.81	1669.09
207.03	1677.29
207.25	1675.24
207.47	1681.38
207.69	1699.81
207.91	1775.59
208.13	1744.87
208.34	1693.67
208.56	1642.47
208.78	1773.54
209.00	1751.01
209.22	1691.62
209.44	1734.63
209.66	1701.86
209.88	1689.57
210.10	1636.33
210.32	1634.28
210.54	1734.63
210.76	1759.21
210.98	1617.90
211.20	1554.41
211.42	1689.57
211.64	1763.30
211.86	1748.97
212.08	1718.25
212.30	1703.91
212.52	1650.66
212.74	1685.48
212.96	1705.96
213.17	1785.83
213.39	1769.44
213.61	1873.89
213.83	1695.72
214.05	1650.66
214.27	1744.87
214.49	1681.38
214.71	1652.71
214.93	1738.73
215.15	1652.71
215.37	1732.58
215.59	1632.23
215.81	1796.07
216.03	1748.97
216.24	1748.97
216.46	1755.11
216.68	1703.91
216.90	1738.73
217.12	1775.59
217.34	1736.68
217.56	1753.06
217.78	1837.03
218.00	1730.53
218.22	1740.77
218.44	1652.71
218.66	1777.64
218.87	1808.36
219.09	1677.29
219.31	1779.68
219.53	1677.29
219.75	1744.87
219.97	1738.73
220.19	1689.57
220.41	1763.30
220.63	1757.16
220.85	1744.87
221.06	1617.90
221.28	1826.79
221.50	1769.44
221.72	1744.87
221.94	1716.20
222.16	1665.00
222.38	1796.07
222.60	1763.30
222.82	1714.15
223.03	1767.40
223.25	1648.61
223.47	1708.01
223.69	1810.40
223.91	1755.11
224.13	1638.38
224.35	1693.67
224.57	1773.54
224.78	1779.68
225.00	1648.61
225.22	1660.90
225.44	1693.67
225.66	1765.35
225.88	1710.05
226.10	1726.44
226.32	1722.34
226.53	1798.12
226.75	1734.63
226.97	1734.63
227.19	1726.44
227.41	1644.52
227.63	1640.42
227.85	1716.20
228.06	1734.63
228.28	1720.29
228.50	1771.49
228.72	1619.94
228.94	1751.01
229.16	1712.10
229.37	1609.70
229.59	1738.73
229.81	1718.25
230.03	1673.19
230.25	1634.28
230.47	1693.67
230.69	1646.57
230.90	1736.68
231.12	1689.57
231.34	1701.86
231.56	1771.49
231.78	1683.43
232.00	1720.29
232.21	1630.18
232.43	1699.81
232.65	1685.48
232.87	1814.50
233.09	1646.57
233.30	1624.04
233.52	1732.58
233.74	1720.29
233.96	1734.63
234.18	1636.33
234.40	1683.43
234.61	1740.77
234.83	1644.52
235.05	1640.42
235.27	1812.45
235.49	1800.16
235.70	1679.33
235.92	1787.88
236.14	1814.50
236.36	1839.08
236.58	1642.47
236.79	1798.12
237.01	1697.77
237.23	1632.23
237.45	1816.55
237.67	1677.29
237.88	1689.57
238.10	1751.01
238.32	1732.58
238.54	1701.86
238.76	1779.68
238.97	1621.99
239.19	1658.85
239.41	1736.68
239.63	1773.54
239.85	1679.33
240.06	1705.96
240.28	1671.14
240.50	1726.44
240.72	1730.53
240.93	1748.97
241.15	1763.30
241.37	1660.90
241.59	1769.44
241.81	1652.71
242.02	1671.14
242.24	1705.96
242.46	1738.73
242.68	1640.42
242.89	1738.73
243.11	1699.81
243.33	1734.63
243.55	1691.62
243.76	1773.54
243.98	1691.62
244.20	1714.15
244.42	1779.68
244.64	1738.73
244.85	1660.90
245.07	1667.05
245.29	1732.58
245.51	1660.90
245.72	1673.19
245.94	1806.31
246.16	1712.10
246.38	1775.59
246.59	1640.42
246.81	1695.72
247.03	1669.09
247.24	1693.67
247.46	1667.05
247.68	1705.96
247.90	1722.34
248.11	1638.38
248.33	1808.36
248.55	1796.07
248.77	1681.38
248.98	1767.40
249.20	1810.40
249.42	1761.25
249.64	1726.44
249.85	1681.38
250.07	1673.19
250.29	1718.25
250.50	1681.38
250.72	1685.48
250.94	1779.68
251.16	1816.55
251.37	1705.96
251.59	1722.34
251.81	1724.39
252.02	1806.31
252.24	1728.49
252.46	1777.64
252.68	1677.29
252.89	1714.15
253.11	1611.75
253.33	1814.50
253.54	1834.98
253.76	1681.38
253.98	1693.67
254.20	1703.91
254.41	1648.61
254.63	1691.62
254.85	1617.90
255.06	1783.78
255.28	1736.68
255.50	1697.77
255.71	1662.95
255.93	1671.14
256.15	1681.38
256.36	1787.88
256.58	1724.39
256.80	1722.34
257.02	1667.05
257.23	1667.05
257.45	1701.86
257.67	1730.53
257.88	1691.62
258.10	1794.02
258.32	1742.82
258.53	1701.86
258.75	1781.73
258.97	1748.97
259.18	1701.86
259.40	1689.57
259.62	1869.80
259.83	1800.16
260.05	1728.49
260.27	1933.28
260.48	1759.21
260.70	1681.38
260.92	1703.91
261.13	1697.77
261.35	1665.00
261.57	1773.54
261.78	1632.23
262.00	1693.67
262.22	1810.40
262.43	1656.81
262.65	1603.56
262.86	1671.14
263.08	1787.88
263.30	1669.09
263.51	1566.70
263.73	1689.57
263.95	1791.97
264.16	1712.10
264.38	1673.19
264.60	1710.05
264.81	1587.18
265.03	1796.07
265.25	1632.23
265.46	1771.49
265.68	1722.34
265.89	1701.86
266.11	1599.46
266.33	1738.73
266.54	1761.25
266.76	1722.34
266.98	1742.82
267.19	1863.65
267.41	1841.12
267.62	1708.01
267.84	1589.22
268.06	1701.86
268.27	1769.44
268.49	1818.60
268.70	1808.36
268.92	1740.77
269.14	1710.05
269.35	1656.81
269.57	1689.57
269.79	1697.77
270.00	1595.37
270.22	1796.07
270.43	1746.92
270.65	1603.56
270.87	1787.88
271.08	1742.82
271.30	1761.25
271.51	1708.01
271.73	1705.96
271.95	1804.26
272.16	1771.49
272.38	1783.78
272.59	1669.09
272.81	1728.49
273.02	1748.97
273.24	1783.78
273.46	1732.58
273.67	1722.34
273.89	1759.21
274.10	1761.25
274.32	1757.16
274.54	1746.92
274.75	1701.86
274.97	1656.81
275.18	1849.32
275.40	1775.59
275.61	1773.54
275.83	1720.29
276.05	1703.91
276.26	1681.38
276.48	1738.73
276.69	1689.57
276.91	1632.23
277.12	1781.73
277.34	1734.63
277.55	1789.92
277.77	1658.85
277.99	1652.71
278.20	1665.00
278.42	1705.96
278.63	1605.61
278.85	1642.47
279.06	1636.33
279.28	1726.44
279.49	1769.44
279.71	1800.16
279.93	1738.73
280.14	1748.97
280.36	1693.67
280.57	1832.93
280.79	1814.50
281.00	1677.29
281.22	1710.05
281.43	1781.73
281.65	1619.94
281.86	1693.67
282.08	1781.73
282.29	1906.66
282.51	1632.23
282.73	1654.76
282.94	1619.94
283.16	1802.21
283.37	1767.40
283.59	1779.68
283.80	1732.58
284.02	1708.01
284.23	1728.49
284.45	1679.33
284.66	1673.19
284.88	1736.68
285.09	1730.53
285.31	1710.05
285.52	1763.30
285.74	1570.79
285.95	1806.31
286.17	1710.05
286.38	1714.15
286.60	1644.52
286.81	1673.19
287.03	1691.62
287.24	1650.66
287.46	1783.78
287.67	1755.11
287.89	1853.41
288.10	1667.05
288.32	1744.87
288.53	1763.30
288.75	1697.77
288.96	1783.78
289.18	1658.85
289.39	1753.06
289.61	1726.44
289.82	1796.07
290.04	1794.02
290.25	1638.38
290.47	1685.48
290.68	1718.25
290.90	1748.97
291.11	1605.61
291.33	1730.53
291.54	1722.34
291.76	1652.71
291.97	1718.25
292.18	1767.40
292.40	1609.70
292.61	1662.95
292.83	1957.86
293.04	1757.16
293.26	1730.53
293.47	1714.15
293.69	1615.85
293.90	1665.00
294.12	1734.63
294.33	1701.86
294.55	1693.67
294.76	1808.36
294.97	1781.73
295.19	1783.78
295.40	1687.53
295.62	1751.01
295.83	1791.97
296.05	1652.71
296.26	1699.81
296.48	1742.82
296.69	1755.11
296.90	1673.19
297.12	1804.26
297.33	1771.49
297.55	1691.62
297.76	1720.29
297.98	1794.02
298.19	1699.81
298.41	1781.73
298.62	1683.43
298.83	1732.58
299.05	1691.62
299.26	1716.20
299.48	1695.72
299.69	1802.21
299.90	1691.62
300.12	1769.44
300.33	1773.54
300.55	1667.05
300.76	1763.30
300.98	1556.46
301.19	1732.58
301.40	1763.30
301.62	1687.53
301.83	1753.06
302.05	1724.39
302.26	1695.72
302.47	1726.44
302.69	1693.67
302.90	1742.82
303.12	1626.09
303.33	1718.25
303.54	1826.79
303.76	1685.48
303.97	1644.52
304.19	1757.16
304.40	1636.33
304.61	1685.48
304.83	1740.77
305.04	1755.11
305.26	1746.92
305.47	1722.34
305.68	1728.49
305.90	1667.05
306.11	1779.68
306.33	1714.15
306.54	1734.63
306.75	1648.61
306.97	1591.27
307.18	1705.96
307.39	1656.81
307.61	1726.44
307.82	1628.14
308.04	1767.40
308.25	1714.15
308.46	1640.42
308.68	1724.39
308.89	1710.05
309.10	1777.64
309.32	1742.82
309.53	1742.82
309.74	1660.90
309.96	1697.77
310.17	1736.68
310.39	1755.11
310.60	1740.77
310.81	1746.92
311.03	1724.39
311.24	1712.10
311.45	1732.58
311.67	1773.54
311.88	1720.29
312.09	1660.90
312.31	1757.16
312.52	1734.63
312.73	1716.20
312.95	1656.81
313.16	1615.85
313.37	1783.78
313.59	1777.64
313.80	1767.40
314.01	1740.77
314.23	1687.53
314.44	1679.33
314.65	1652.71
314.87	1722.34
315.08	1712.10
315.29	1701.86
315.51	1615.85
315.72	1630.18
315.93	1751.01
316.15	1796.07
316.36	1589.22
316.57	1769.44
316.79	1775.59
317.00	1650.66
317.21	1748.97
317.43	1583.08
317.64	1677.29
317.85	1738.73
318.07	1677.29
318.28	1748.97
318.49	1869.80
318.70	1927.14
318.92	1800.16
319.13	1798.12
319.34	1806.31
319.56	1757.16
319.77	1771.49
319.98	1832.93
320.20	1791.97
320.41	1804.26
320.62	1828.84
320.83	1718.25
321.05	1775.59
321.26	1732.58
321.47	1716.20
321.69	1765.35
321.90	1665.00
322.11	1742.82
322.32	1705.96
322.54	1710.05
322.75	1662.95
322.96	1871.84
323.18	1609.70
323.39	1607.66
323.60	1687.53
323.81	1828.84
324.03	1705.96
324.24	1691.62
324.45	1753.06
324.66	1660.90
324.88	1736.68
325.09	1818.60
325.30	1679.33
325.52	1738.73
325.73	1740.77
325.94	1656.81
326.15	1597.42
326.37	1710.05
326.58	1689.57
326.79	1888.23
327.00	1695.72
327.22	1656.81
327.43	1650.66
327.64	1673.19
327.85	1763.30
328.07	1701.86
328.28	1802.21
328.49	1681.38
328.70	1705.96
328.92	1718.25
329.13	1617.90
329.34	1675.24
329.55	1771.49
329.76	1812.45
329.98	1701.86
330.19	1787.88
330.40	1673.19
330.61	1669.09
330.83	1757.16
331.04	1724.39
331.25	1716.20
331.46	1671.14
331.68	1607.66
331.89	1855.46
332.10	1761.25
332.31	1632.23
332.52	1710.05
332.74	1779.68
332.95	1669.09
333.16	1693.67
333.37	1800.16
333.58	1658.85
333.80	1708.01
334.01	1656.81
334.22	1724.39
334.43	1652.71
334.64	1660.90
334.86	1546.22
335.07	1658.85
335.28	1849.32
335.49	1634.28
335.70	1718.25
335.92	1814.50
336.13	1779.68
336.34	1732.58
336.55	1714.15
336.76	1689.57
336.98	1656.81
337.19	1689.57
337.40	1816.55
337.61	1804.26
337.82	1718.25
338.04	1746.92
338.25	1693.67
338.46	1646.57
338.67	1673.19
338.88	1665.00
339.09	1685.48
339.31	1740.77
339.52	1619.94
339.73	1640.42
339.94	1730.53
340.15	1714.15
340.36	1658.85
340.58	1773.54
340.79	1720.29
341.00	1671.14
341.21	1650.66
341.42	1722.34
341.63	1705.96
341.85	1757.16
342.06	1755.11
342.27	1669.09
342.48	1763.30
342.69	1671.14
342.90	1757.16
343.12	1703.91
343.33	1689.57
343.54	1734.63
343.75	1755.11
343.96	1683.43
344.17	1634.28
344.38	1712.10
344.60	1714.15
344.81	1687.53
345.02	1603.56
345.23	1734.63
345.44	1794.02
345.65	1742.82
345.86	1705.96
346.07	1738.73
346.29	1761.25
346.50	1757.16
346.71	1742.82
346.92	1781.73
347.13	1822.69
347.34	1708.01
347.55	1695.72
347.76	1724.39
347.98	1662.95
348.19	1669.09
348.40	1748.97
348.61	1656.81
348.82	1771.49
349.03	1689.57
349.24	1652.71
349.45	1798.12
349.66	1601.51
349.88	1726.44
350.09	1615.85
350.30	1824.74
350.51	1769.44
350.72	1726.44
350.93	1695.72
351.14	1671.14
351.35	1685.48
351.56	1812.45
351.77	1652.71
351.99	1765.35
352.20	1769.44
352.41	1812.45
352.62	1615.85
352.83	1744.87
353.04	1699.81
353.25	1669.09
353.46	1681.38
353.67	1779.68
353.88	1562.60
354.09	1757.16
354.30	1679.33
354.52	1708.01
354.73	1748.97
354.94	1687.53
355.15	1853.41
355.36	1871.84
355.57	1705.96
355.78	1665.00
355.99	1697.77
356.20	1726.44
356.41	1779.68
356.62	1703.91
356.83	1708.01
357.04	1796.07
357.25	1640.42
357.46	1687.53
357.68	1621.99
357.89	1597.42
358.10	1728.49
358.31	1730.53
358.52	1615.85
358.73	1617.90
358.94	1660.90
359.15	1658.85
359.36	1796.07
359.57	1740.77
359.78	1699.81
359.99	1769.44
360.20	1691.62
360.41	1634.28
360.62	1728.49
360.83	1722.34
361.04	1738.73
361.25	1753.06
361.46	1908.71
361.67	1708.01
361.88	1732.58
362.09	1746.92
362.30	1738.73
362.51	1701.86
362.72	1710.05
362.93	1736.68
363.14	1728.49
363.35	1679.33
363.56	1673.19
363.78	1767.40
363.99	1804.26
364.20	1726.44
364.41	1732.58
364.62	1873.89
364.83	1761.25
365.04	1701.86
365.25	1726.44
365.46	1767.40
365.67	1671.14
365.88	1654.76
366.09	1767.40
366.30	1679.33
366.51	1656.81
366.72	1669.09
366.93	1705.96
367.14	1775.59
367.35	1716.20
367.56	1722.34
367.77	1787.88
367.98	1769.44
368.18	1720.29
368.39	1785.83
368.60	1615.85
368.81	1732.58
369.02	1736.68
369.23	1683.43
369.44	1628.14
369.65	1642.47
369.86	1744.87
370.07	1710.05
370.28	1654.76
370.49	1728.49
370.70	1812.45
370.91	1636.33
371.12	1644.52
371.33	1796.07
371.54	1716.20
371.75	1791.97
371.96	1542.12
372.17	1730.53
372.38	1701.86
372.59	1724.39
372.80	1730.53
373.01	1693.67
373.22	1767.40
373.43	1689.57
373.64	1693.67
373.85	1742.82
374.06	1882.08
374.26	1720.29
374.47	1722.34
374.68	1822.69
374.89	1714.15
375.10	1685.48
375.31	1771.49
375.52	1798.12
375.73	1679.33
375.94	1617.90
376.15	1775.59
376.36	1632.23
376.57	1662.95
376.78	1640.42
376.99	1691.62
377.20	1789.92
377.40	1615.85
377.61	1810.40
377.82	1624.04
378.03	1771.49
378.24	1691.62
378.45	1621.99
378.66	1722.34
378.87	1601.51
379.08	1617.90
379.29	1628.14
379.50	1804.26
379.71	1748.97
379.91	1779.68
380.12	1751.01
380.33	1730.53
380.54	1619.94
380.75	1761.25
380.96	1728.49
381.17	1748.97
381.38	1771.49
381.59	1755.11
381.80	1726.44
382.00	1875.94
382.21	1767.40
382.42	1865.70
382.63	1861.60
382.84	1746.92
383.05	1722.34
383.26	1808.36
383.47	1748.97
383.68	1767.40
383.88	1718.25
384.09	1730.53
384.30	1814.50
384.51	1683.43
384.72	1669.09
384.93	1705.96
385.14	1744.87
385.35	1708.01
385.55	1703.91
385.76	1765.35
385.97	1720.29
386.18	1658.85
386.39	1685.48
386.60	1722.34
386.81	1683.43
387.02	1681.38
387.22	1673.19
387.43	1818.60
387.64	1738.73
387.85	2031.58
388.06	2142.18
388.27	4143.04
388.48	6838.17
388.68	8036.23
388.89	9400.18
389.10	9523.05
389.31	8531.84
389.52	7468.94
389.73	6852.50
389.93	6199.20
390.14	5767.08
390.35	5185.46
390.56	4493.24
390.77	3678.15
390.98	3162.06
391.18	2574.30
391.39	2162.66
391.60	1923.04
391.81	1804.26
392.02	1736.68
392.23	1863.65
392.43	1722.34
392.64	1810.40
392.85	1648.61
393.06	1783.78
393.27	1714.15
393.47	1748.97
393.68	1796.07
393.89	1712.10
394.10	1736.68
394.31	1662.95
394.52	1675.24
394.72	1703.91
394.93	1820.64
395.14	1662.95
395.35	1730.53
395.56	1701.86
395.76	1771.49
395.97	1832.93
396.18	1853.41
396.39	1851.36
396.60	1994.72
396.80	1961.95
397.01	1828.84
397.22	1828.84
397.43	1939.43
397.64	1787.88
397.84	1779.68
398.05	1900.52
398.26	1761.25
398.47	1775.59
398.67	1779.68
398.88	1767.40
399.09	1708.01
399.30	1714.15
399.51	1722.34
399.71	1693.67
399.92	1693.67
400.13	1794.02
400.34	1732.58
400.54	1662.95
400.75	1818.60
400.96	1705.96
401.17	1855.46
401.37	1675.24
401.58	1660.90
401.79	1718.25
402.00	1920.99
402.21	2000.87
402.41	1935.33
402.62	2037.73
402.83	2060.26
403.04	1992.67
403.24	2045.92
403.45	1816.55
403.66	1935.33
403.87	1855.46
404.07	1894.37
404.28	1880.04
404.49	1796.07
404.70	1845.22
404.90	1787.88
405.11	1687.53
405.32	1806.31
405.52	1609.70
405.73	1638.38
405.94	1683.43
406.15	1677.29
406.35	1791.97
406.56	1667.05
406.77	1697.77
406.98	1712.10
407.18	1740.77
407.39	1740.77
407.60	1615.85
407.80	1738.73
408.01	1751.01
408.22	1755.11
408.43	1703.91
408.63	1685.48
408.84	1744.87
409.05	1753.06
409.25	1693.67
409.46	1689.57
409.67	1703.91
409.88	1665.00
410.08	1771.49
410.29	1693.67
410.50	1712.10
410.70	1798.12
410.91	1683.43
411.12	1751.01
411.32	1705.96
411.53	1652.71
411.74	1837.03
411.95	1765.35
412.15	1787.88
412.36	1841.12
412.57	1746.92
412.77	1802.21
412.98	1734.63
413.19	1687.53
413.39	1796.07
413.60	1763.30
413.81	1765.35
414.01	1697.77
414.22	1789.92
414.43	1738.73
414.63	1699.81
414.84	1767.40
415.05	1660.90
415.25	1562.60
415.46	1736.68
415.67	1708.01
415.87	1732.58
416.08	1722.34
416.29	1607.66
416.49	1695.72
416.70	1810.40
416.91	1755.11
417.11	1652.71
417.32	1751.01
417.53	1775.59
417.73	1808.36
417.94	1738.73
418.15	1648.61
418.35	1724.39
418.56	1695.72
418.77	1847.27
418.97	1753.06
419.18	1787.88
419.38	1640.42
419.59	1669.09
419.80	1783.78
420.00	1710.05
420.21	1714.15
420.42	1820.64
420.62	1736.68
420.83	1656.81
421.04	1726.44
421.24	1658.85
421.45	1832.93
421.65	1849.32
421.86	1660.90
422.07	1683.43
422.27	1681.38
422.48	1720.29
422.69	1683.43
422.89	1687.53
423.10	1681.38
423.30	1720.29
423.51	1650.66
423.72	1673.19
423.92	1703.91
424.13	1679.33
424.33	1751.01
424.54	1773.54
424.75	1732.58
424.95	1771.49
425.16	1763.30
425.36	1677.29
425.57	1722.34
425.78	1705.96
425.98	1791.97
426.19	1648.61
426.39	1697.77
426.60	1726.44
426.81	1800.16
427.01	1712.10
427.22	1701.86
427.42	1617.90
427.63	1679.33
427.83	1738.73
428.04	1783.78
428.25	1816.55
428.45	1757.16
428.66	1785.83
428.86	1730.53
429.07	1742.82
429.28	1757.16
429.48	1742.82
429.69	1660.90
429.89	1738.73
430.10	1710.05
430.30	1763.30
430.51	1804.26
430.71	1703.91
430.92	1677.29
431.13	1699.81
431.33	1695.72
431.54	1703.91
431.74	1828.84
431.95	1849.32
432.15	1669.09
432.36	1718.25
432.56	1834.98
432.77	1861.60
432.98	1744.87
433.18	1685.48
433.39	1675.24
433.59	1740.77
433.80	1826.79
434.00	1867.75
434.21	1736.68
434.41	1693.67
434.62	1841.12
434.82	1648.61
435.03	1724.39
435.23	1699.81
435.44	1591.27
435.64	1763.30
435.85	1773.54
436.06	1740.77
436.26	1779.68
436.47	1681.38
436.67	1636.33
436.88	1697.77
437.08	1783.78
437.29	1857.51
437.49	1677.29
437.70	1763.30
437.90	1798.12
438.11	1931.23
438.31	1789.92
438.52	1845.22
438.72	1773.54
438.93	1863.65
439.13	1755.11
439.34	1824.74
439.54	1736.68
439.75	1830.88
439.95	1777.64
440.16	1730.53
440.36	1718.25
440.57	1773.54
440.77	1744.87
440.98	1759.21
441.18	1710.05
441.39	1734.63
441.59	1658.85
441.80	1783.78
442.00	1730.53
442.21	1794.02
442.41	1640.42
442.62	1757.16
442.82	1718.25
443.02	1765.35
443.23	1789.92
443.43	1675.24
443.64	1779.68
443.84	1652.71
444.05	1851.36
444.25	1746.92
444.46	1697.77
444.66	1734.63
444.87	1798.12
445.07	1665.00
445.28	1759.21
445.48	1800.16
445.69	1685.48
445.89	1791.97
446.09	1824.74
446.30	1996.77
446.50	2615.26
446.71	3760.07
446.91	4341.69
447.12	4761.53
447.32	4669.37
447.53	4231.10
447.73	3780.55
447.93	3499.98
448.14	3352.52
448.34	3231.69
448.55	2822.10
448.75	2897.88
448.96	2656.22
449.16	2402.27
449.36	2369.50
449.57	2109.41
449.77	1910.75
449.98	1773.54
450.18	1767.40
450.39	1841.12
450.59	1861.60
450.79	1738.73
451.00	1732.58
451.20	1830.88
451.41	1734.63
451.61	1736.68
451.81	1794.02
452.02	1746.92
452.22	1740.77
452.43	1726.44
452.63	1701.86
452.84	1744.87
453.04	1775.59
453.24	1806.31
453.45	1677.29
453.65	1703.91
453.86	1777.64
454.06	1742.82
454.26	1724.39
454.47	1730.53
454.67	1810.40
454.87	1751.01
455.08	1677.29
455.28	1839.08
455.49	1808.36
455.69	1814.50
455.89	1828.84
456.10	1802.21
456.30	1703.91
456.51	1757.16
456.71	1765.35
456.91	1818.60
457.12	1730.53
457.32	1814.50
457.52	1691.62
457.73	1775.59
457.93	1787.88
458.14	1701.86
458.34	1652.71
458.54	1722.34
458.75	1757.16
458.95	1755.11
459.15	1765.35
459.36	1777.64
459.56	1763.30
459.76	1923.04
459.97	1822.69
460.17	1763.30
460.37	1789.92
460.58	1712.10
460.78	1820.64
460.99	1740.77
461.19	1748.97
461.39	1759.21
461.60	1757.16
461.80	1769.44
462.00	1705.96
462.21	1761.25
462.41	1753.06
462.61	1619.94
462.82	1615.85
463.02	1781.73
463.22	1771.49
463.43	1753.06
463.63	1660.90
463.83	1742.82
464.04	1824.74
464.24	1755.11
464.44	1683.43
464.64	1728.49
464.85	1789.92
465.05	1746.92
465.25	1744.87
465.46	1757.16
465.66	1677.29
465.86	1812.45
466.07	1753.06
466.27	1683.43
466.47	1669.09
466.68	1632.23
466.88	1808.36
467.08	1796.07
467.29	1826.79
467.49	1738.73
467.69	1736.68
467.89	1779.68
468.10	1671.14
468.30	1726.44
468.50	1875.94
468.71	1853.41
468.91	1648.61
469.11	1923.04
469.31	1724.39
469.52	1679.33
469.72	1861.60
469.92	1961.95
470.13	1789.92
470.33	1796.07
470.53	1900.52
470.73	2154.46
470.94	2359.26
471.14	2207.71
471.34	2586.58
471.54	2408.41
471.75	2246.62
471.95	2181.09
472.15	2070.50
472.36	2156.51
472.56	2185.18
472.76	2025.44
472.96	2015.20
473.17	1953.76
473.37	1861.60
473.57	1791.97
473.77	1837.03
473.98	1789.92
474.18	1699.81
474.38	1949.67
474.58	1669.09
474.79	1673.19
474.99	1810.40
475.19	1796.07
475.39	1626.09
475.60	1812.45
475.80	1695.72
476.00	1751.01
476.20	1728.49
476.41	1777.64
476.61	1839.08
476.81	1808.36
477.01	1689.57
477.21	1808.36
477.42	1716.20
477.62	1667.05
477.82	1734.63
478.02	1658.85
478.23	1646.57
478.43	1632.23
478.63	1728.49
478.83	1669.09
479.03	1740.77
479.24	1775.59
479.44	1798.12
479.64	1638.38
479.84	1662.95
480.04	1712.10
480.25	1744.87
480.45	1671.14
480.65	1757.16
480.85	1873.89
481.06	1691.62
481.26	1640.42
481.46	1789.92
481.66	1730.53
481.86	1746.92
482.06	1791.97
482.27	1699.81
482.47	1683.43
482.67	1685.48
482.87	1718.25
483.07	1798.12
483.28	1689.57
483.48	1718.25
483.68	1691.62
483.88	1636.33
484.08	1611.75
484.29	1718.25
484.49	1689.57
484.69	1617.90
484.89	1812.45
485.09	1703.91
485.29	1767.40
485.50	1785.83
485.70	1714.15
485.90	1857.51
486.10	1722.34
486.30	1771.49
486.50	1724.39
486.71	1746.92
486.91	1775.59
487.11	1847.27
487.31	1665.00
487.51	1787.88
487.71	1656.81
487.91	1693.67
488.12	1744.87
488.32	1615.85
488.52	1675.24
488.72	1603.56
488.92	1751.01
489.12	1796.07
489.32	1783.78
489.53	1777.64
489.73	1630.18
489.93	1802.21
490.13	1685.48
490.33	1679.33
490.53	1757.16
490.73	1804.26
490.94	1677.29
491.14	1771.49
491.34	1783.78
491.54	2111.46
491.74	2576.34
491.94	2932.69
492.14	3014.61
492.34	2944.98
492.54	2785.24
492.75	2406.36
492.95	2424.80
493.15	2435.03
493.35	2269.15
493.55	2260.96
493.75	2090.98
493.95	2103.26
494.15	1980.39
494.35	1910.75
494.56	1834.98
494.76	1763.30
494.96	1814.50
495.16	1789.92
495.36	1744.87
495.56	1744.87
495.76	1773.54
495.96	1773.54
496.16	1656.81
496.36	1822.69
496.56	1753.06
496.77	1738.73
496.97	1701.86
497.17	1859.56
497.37	1671.14
497.57	1740.77
497.77	1695.72
497.97	1740.77
498.17	1771.49
498.37	1703.91
498.57	1755.11
498.77	1730.53
498.97	1775.59
499.17	1869.80
499.38	1681.38
499.58	1779.68
499.78	1816.55
499.98	1849.32
500.18	1814.50
500.38	1767.40
500.58	1935.33
500.78	2566.10
500.98	4562.87
501.18	5695.40
501.38	6684.57
501.58	6977.43
501.78	6670.23
501.98	5410.73
502.18	4984.76
502.38	4425.66
502.58	4138.94
502.78	3719.11
502.98	3661.77
503.18	3454.92
503.38	3270.61
503.59	2828.24
503.79	2729.94
503.99	2543.58
504.19	2316.25
504.39	2252.77
504.59	2271.20
504.79	2131.94
504.99	2078.69
505.19	1976.29
505.39	1941.47
505.59	1957.86
505.79	1980.39
505.99	1789.92
506.19	1843.17
506.39	1847.27
506.59	1783.78
506.79	1757.16
506.99	1763.30
507.19	1804.26
507.39	1816.55
507.59	1746.92
507.79	1740.77
507.99	1650.66
508.19	1740.77
508.39	1783.78
508.59	1736.68
508.79	1877.99
508.99	1961.95
509.19	1701.86
509.39	1736.68
509.59	1767.40
509.79	1638.38
509.99	1744.87
510.19	1818.60
510.39	1759.21
510.59	1775.59
510.79	1740.77
510.99	1673.19
511.19	1734.63
511.39	1779.68
511.59	1689.57
511.79	1853.41
511.99	1808.36
512.19	1822.69
512.38	1773.54
512.58	1751.01
512.78	1720.29
512.98	1791.97
513.18	1798.12
513.38	1677.29
513.58	1773.54
513.78	1662.95
513.98	1759.21
514.18	1658.85
514.38	1722.34
514.58	1785.83
514.78	1681.38
514.98	1744.87
515.18	1755.11
515.38	1701.86
515.58	1839.08
515.78	1671.14
515.98	1679.33
516.18	1771.49
516.38	1785.83
516.57	1761.25
516.77	1697.77
516.97	1726.44
517.17	1648.61
517.37	1681.38
517.57	1767.40
517.77	1652.71
517.97	1765.35
518.17	1740.77
518.37	1656.81
518.57	1742.82
518.77	1740.77
518.97	1761.25
519.16	1828.84
519.36	1808.36
519.56	1767.40
519.76	1691.62
519.96	1771.49
520.16	1830.88
520.36	1730.53
520.56	1791.97
520.76	1710.05
520.96	1714.15
521.16	1822.69
521.35	1810.40
521.55	1787.88
521.75	1732.58
521.95	1705.96
522.15	1757.16
522.35	1683.43
522.55	1675.24
522.75	1740.77
522.95	1671.14
523.14	1621.99
523.34	1716.20
523.54	1734.63
523.74	1841.12
523.94	1761.25
524.14	1736.68
524.34	1767.40
524.54	1804.26
524.73	1697.77
524.93	1687.53
525.13	1730.53
525.33	1722.34
525.53	1920.99
525.73	1751.01
525.93	1785.83
526.13	1763.30
526.32	1761.25
526.52	1783.78
526.72	1806.31
526.92	1736.68
527.12	1730.53
527.32	1695.72
527.52	1699.81
527.71	1732.58
527.91	1740.77
528.11	1640.42
528.31	1798.12
528.51	1636.33
528.71	1746.92
528.90	1734.63
529.10	1812.45
529.30	1740.77
529.50	1673.19
529.70	1785.83
529.90	1796.07
530.09	1703.91
530.29	1699.81
530.49	1699.81
530.69	1787.88
530.89	1781.73
531.09	1855.46
531.28	1724.39
531.48	1755.11
531.68	1734.63
531.88	1732.58
532.08	1728.49
532.28	1683.43
532.47	1771.49
532.67	1746.92
532.87	1822.69
533.07	1714.15
533.27	1791.97
533.46	1703.91
533.66	1695.72
533.86	1712.10
534.06	1746.92
534.26	1736.68
534.45	1732.58
534.65	1812.45
534.85	1775.59
535.05	1710.05
535.25	1761.25
535.44	1621.99
535.64	1822.69
535.84	1697.77
536.04	1632.23
536.24	1679.33
536.43	1742.82
536.63	1771.49
536.83	1730.53
537.03	1726.44
537.22	1660.90
537.42	1804.26
537.62	1785.83
537.82	1644.52
538.02	1832.93
538.21	1851.36
538.41	1898.47
538.61	1808.36
538.81	1757.16
539.00	1837.03
539.20	1640.42
539.40	1693.67
539.60	1718.25
539.79	1771.49
539.99	1730.53
540.19	1658.85
540.39	1732.58
540.58	1771.49
540.78	1767.40
540.98	1789.92
541.18	1730.53
541.37	1812.45
541.57	1773.54
541.77	1767.40
541.97	1650.66
542.16	1644.52
542.36	1726.44
542.56	1730.53
542.76	1839.08
542.95	1828.84
543.15	1652.71
543.35	1767.40
543.54	1738.73
543.74	1710.05
543.94	1767.40
544.14	1705.96
544.33	1814.50
544.53	1763.30
544.73	1716.20
544.93	1699.81
545.12	1796.07
545.32	1693.67
545.52	1748.97
545.71	1650.66
545.91	1761.25
546.11	1687.53
546.30	1656.81
546.50	1732.58
546.70	1892.32
546.90	1773.54
547.09	1636.33
547.29	1839.08
547.49	1783.78
547.68	1736.68
547.88	1701.86
548.08	1732.58
548.27	2185.18
548.47	1740.77
548.67	1636.33
548.87	1759.21
549.06	1693.67
549.26	1708.01
549.46	1804.26
549.65	1601.51
549.85	1742.82
550.05	1789.92
550.24	1699.81
550.44	1744.87
550.64	1738.73
550.83	1716.20
551.03	1865.70
551.23	1849.32
551.42	1757.16
551.62	1738.73
551.82	1773.54
552.01	1775.59
552.21	1861.60
552.41	1693.67
552.60	1824.74
552.80	1824.74
553.00	1703.91
553.19	1714.15
553.39	1839.08
553.59	1619.94
553.78	1728.49
553.98	1753.06
554.17	1572.84
554.37	1769.44
554.57	1871.84
554.76	1775.59
554.96	1732.58
555.16	1730.53
555.35	1759.21
555.55	1722.34
555.75	1751.01
555.94	1787.88
556.14	1710.05
556.33	1804.26
556.53	1740.77
556.73	1773.54
556.92	1818.60
557.12	1820.64
557.32	1867.75
557.51	1794.02
557.71	1796.07
557.90	1877.99
558.10	1859.56
558.30	1767.40
558.49	1765.35
558.69	1705.96
558.88	1732.58
559.08	1771.49
559.28	1697.77
559.47	1738.73
559.67	1734.63
559.86	1902.56
560.06	1722.34
560.26	1636.33
560.45	1708.01
560.65	1701.86
560.84	1826.79
561.04	1722.34
561.24	1755.11
561.43	1675.24
561.63	1812.45
561.82	1810.40
562.02	1773.54
562.22	1679.33
562.41	1677.29
562.61	1740.77
562.80	1755.11
563.00	1918.95
563.19	1787.88
563.39	1812.45
563.59	1738.73
563.78	1724.39
563.98	1544.17
564.17	1656.81
564.37	1632.23
564.56	1738.73
564.76	1648.61
564.96	1718.25
565.15	1712.10
565.35	1906.66
565.54	1748.97
565.74	1748.97
565.93	1710.05
566.13	1746.92
566.32	1710.05
566.52	1791.97
566.71	1787.88
566.91	1845.22
567.11	1783.78
567.30	1697.77
567.50	1824.74
567.69	1746.92
567.89	1738.73
568.08	1720.29
568.28	1771.49
568.47	1648.61
568.67	1710.05
568.86	1667.05
569.06	1785.83
569.25	1712.10
569.45	1681.38
569.64	1748.97
569.84	1734.63
570.04	1804.26
570.23	1681.38
570.43	1671.14
570.62	1820.64
570.82	1783.78
571.01	1718.25
571.21	1708.01
571.40	1660.90
571.60	1779.68
571.79	1796.07
571.99	1845.22
572.18	1730.53
572.38	1753.06
572.57	1753.06
572.77	1802.21
572.96	1894.37
573.16	1763.30
573.35	1763.30
573.55	1841.12
573.74	1806.31
573.94	1732.58
574.13	1748.97
574.33	1898.47
574.52	1824.74
574.71	1738.73
574.91	1742.82
575.10	1687.53
575.30	1722.34
575.49	1714.15
575.69	1744.87
575.88	1794.02
576.08	1734.63
576.27	1654.76
576.47	1732.58
576.66	1787.88
576.86	1779.68
577.05	1701.86
577.25	1785.83
577.44	1841.12
577.64	1728.49
577.83	1787.88
578.02	1777.64
578.22	1812.45
578.41	1822.69
578.61	1773.54
578.80	1650.66
579.00	1726.44
579.19	1761.25
579.39	1753.06
579.58	1814.50
579.77	1665.00
579.97	1834.98
580.16	1925.09
580.36	1849.32
580.55	1787.88
580.75	1812.45
580.94	1714.15
581.13	1845.22
581.33	1767.40
581.52	1701.86
581.72	1839.08
581.91	1763.30
582.11	1738.73
582.30	1775.59
582.49	1775.59
582.69	1882.08
582.88	1755.11
583.08	1783.78
583.27	1839.08
583.47	1757.16
583.66	1703.91
583.85	1728.49
584.05	1746.92
584.24	1800.16
584.44	1826.79
584.63	1828.84
584.82	1785.83
585.02	1902.56
585.21	1806.31
585.41	1820.64
585.60	1845.22
585.79	1892.32
585.99	1904.61
586.18	1888.23
586.37	2215.90
586.57	3411.92
586.76	9912.17
586.96	24180.37
587.15	33754.62
587.34	39652.77
587.54	41541.00
587.73	36316.63
587.93	25902.71
588.12	21341.88
588.31	17975.02
588.51	16107.27
588.70	14962.46
588.89	13889.32
589.09	12480.32
589.28	10905.43
589.47	9375.60
589.67	7964.55
589.86	6451.10
590.06	4937.65
590.25	3913.67
590.44	3151.82
590.64	2582.49
590.83	2279.39
591.02	2095.07
591.22	1939.43
591.41	1976.29
591.60	1832.93
591.80	1937.38
591.99	1757.16
592.18	1787.88
592.38	1853.41
592.57	1771.49
592.76	1769.44
592.96	1748.97
593.15	1775.59
593.34	1869.80
593.54	1773.54
593.73	1712.10
593.92	1742.82
594.12	1775.59
594.31	1761.25
594.50	1800.16
594.70	1771.49
594.89	1957.86
595.08	1669.09
595.28	1845.22
595.47	1968.10
595.66	1759.21
595.86	1609.70
596.05	1751.01
596.24	1730.53
596.43	1826.79
596.63	1830.88
596.82	1789.92
597.01	1699.81
597.21	1871.84
597.40	1806.31
597.59	1781.73
597.79	1785.83
597.98	1755.11
598.17	1671.14
598.36	1740.77
598.56	1746.92
598.75	1677.29
598.94	1742.82
599.14	1732.58
599.33	1755.11
599.52	1798.12
599.71	1728.49
599.91	1716.20
600.10	1783.78
600.29	1771.49
600.48	1826.79
600.68	1775.59
600.87	1834.98
601.06	1796.07
601.26	1791.97
601.45	1779.68
601.64	1755.11
601.83	1824.74
602.03	1665.00
602.22	1718.25
602.41	1798.12
602.60	1882.08
602.80	1822.69
602.99	1728.49
603.18	1787.88
603.37	1779.68
603.57	1730.53
603.76	1757.16
603.95	1771.49
604.14	1701.86
604.34	1730.53
604.53	1783.78
604.72	1828.84
604.91	1757.16
605.10	1779.68
605.30	1677.29
605.49	1818.60
605.68	1779.68
605.87	1740.77
606.07	1669.09
606.26	1726.44
606.45	1787.88
606.64	1779.68
606.84	1724.39
607.03	1845.22
607.22	1699.81
607.41	1714.15
607.60	1759.21
607.80	1800.16
607.99	1787.88
608.18	1746.92
608.37	1759.21
608.56	1705.96
608.76	1765.35
608.95	1859.56
609.14	1757.16
609.33	1796.07
609.52	1814.50
609.72	1675.24
609.91	1804.26
610.10	1744.87
610.29	1947.62
610.48	1767.40
610.68	1810.40
610.87	1732.58
611.06	1804.26
611.25	1703.91
611.44	1863.65
611.63	1769.44
611.83	1796.07
612.02	1685.48
612.21	1843.17
612.40	1578.98
612.59	1710.05
612.79	1669.09
612.98	1736.68
613.17	1886.18
613.36	1744.87
613.55	1830.88
613.74	1753.06
613.93	1681.38
614.13	1748.97
614.32	1714.15
614.51	1855.46
614.70	1759.21
614.89	1730.53
615.08	1800.16
615.28	2062.30
615.47	1722.34
615.66	1808.36
615.85	1746.92
616.04	1863.65
616.23	1695.72
616.42	1730.53
616.62	1738.73
616.81	1755.11
617.00	1718.25
617.19	1785.83
617.38	1765.35
617.57	1765.35
617.76	1763.30
617.95	1789.92
618.15	1820.64
618.34	1777.64
618.53	1658.85
618.72	1804.26
618.91	1808.36
619.10	1912.80
619.29	1722.34
619.48	1767.40
619.68	1572.84
619.87	1640.42
620.06	1636.33
620.25	1757.16
620.44	1763.30
620.63	1683.43
620.82	1775.59
621.01	1710.05
621.20	1689.57
621.39	1732.58
621.59	1759.21
621.78	1701.86
621.97	1748.97
622.16	1744.87
622.35	1701.86
622.54	1794.02
622.73	1783.78
622.92	1611.75
623.11	1761.25
623.30	1773.54
623.49	1705.96
623.68	1705.96
623.88	1763.30
624.07	1728.49
624.26	1757.16
624.45	1759.21
624.64	1773.54
624.83	1732.58
625.02	1710.05
625.21	1689.57
625.40	1705.96
625.59	1761.25
625.78	1693.67
625.97	1839.08
626.16	1775.59
626.35	1785.83
626.54	1673.19
626.74	1751.01
626.93	1738.73
627.12	1759.21
627.31	1761.25
627.50	1755.11
627.69	1796.07
627.88	1675.24
628.07	1720.29
628.26	1648.61
628.45	1687.53
628.64	1759.21
628.83	1767.40
629.02	1634.28
629.21	1730.53
629.40	1753.06
629.59	1634.28
629.78	1681.38
629.97	1693.67
630.16	1751.01
630.35	1695.72
630.54	1746.92
630.73	1724.39
630.92	1714.15
631.11	1654.76
631.30	1826.79
631.49	1830.88
631.68	1730.53
631.87	1781.73
632.06	1673.19
632.25	1832.93
632.44	1722.34
632.63	1742.82
632.82	1691.62
633.01	1642.47
633.20	1669.09
633.39	1677.29
633.58	1671.14
633.77	1748.97
633.96	1734.63
634.15	1689.57
634.34	1773.54
634.53	1742.82
634.72	1658.85
634.91	1675.24
635.10	1767.40
635.29	1714.15
635.48	1697.77
635.67	1705.96
635.86	1673.19
636.05	1759.21
636.24	1699.81
636.43	1658.85
636.62	1763.30
636.81	1587.18
637.00	1685.48
637.19	1796.07
637.38	1724.39
637.57	1675.24
637.76	1718.25
637.95	1744.87
638.14	1632.23
638.33	1679.33
638.52	1714.15
638.71	1619.94
638.89	1648.61
639.08	1843.17
639.27	1718.25
639.46	1763.30
639.65	1763.30
639.84	1742.82
640.03	1808.36
640.22	1834.98
640.41	1880.04
640.60	1734.63
640.79	1699.81
640.98	1734.63
641.17	1818.60
641.36	1714.15
641.55	1800.16
641.74	1708.01
641.92	1685.48
642.11	1736.68
642.30	1738.73
642.49	1746.92
642.68	1697.77
642.87	1648.61
643.06	1789.92
643.25	1689.57
643.44	1673.19
643.63	1689.57
643.82	1873.89
644.00	1638.38
644.19	1693.67
644.38	1652.71
644.57	1728.49
644.76	1695.72
644.95	1662.95
645.14	1748.97
645.33	1699.81
645.52	1652.71
645.71	1675.24
645.89	1693.67
646.08	1722.34
646.27	1689.57
646.46	1845.22
646.65	1587.18
646.84	1789.92
647.03	1640.42
647.22	1738.73
647.40	1755.11
647.59	1665.00
647.78	1619.94
647.97	1648.61
648.16	1632.23
648.35	1857.51
648.54	1851.36
648.73	1742.82
648.91	1771.49
649.10	1712.10
649.29	1667.05
649.48	1697.77
649.67	1751.01
649.86	1718.25
650.05	1621.99
650.23	1814.50
650.42	1716.20
650.61	1810.40
650.80	1746.92
650.99	1871.84
651.18	1734.63
651.36	1748.97
651.55	1705.96
651.74	1740.77
651.93	1701.86
652.12	1744.87
652.31	1708.01
652.49	1769.44
652.68	1718.25
652.87	1849.32
653.06	1744.87
653.25	1687.53
653.44	1669.09
653.62	1767.40
653.81	1718.25
654.00	1720.29
654.19	1726.44
654.38	1888.23
654.56	1757.16
654.75	1763.30
654.94	1822.69
655.13	1726.44
655.32	1730.53
655.51	1722.34
655.69	1718.25
655.88	1812.45
656.07	1685.48
656.26	1759.21
656.45	1619.94
656.63	1771.49
656.82	1791.97
657.01	1734.63
657.20	1683.43
657.38	1867.75
657.57	1626.09
657.76	1652.71
657.95	1765.35
658.14	1746.92
658.32	1736.68
658.51	1564.65
658.70	1746.92
658.89	1689.57
659.08	1671.14
659.26	1802.21
659.45	1744.87
659.64	1826.79
659.83	1607.66
660.01	1849.32
660.20	1720.29
660.39	1839.08
660.58	1648.61
660.76	1771.49
660.95	1699.81
661.14	1798.12
661.33	1665.00
661.51	1724.39
661.70	1667.05
661.89	1744.87
662.08	1777.64
662.26	1615.85
662.45	1603.56
662.64	1886.18
662.83	1808.36
663.01	1671.14
663.20	1687.53
663.39	1800.16
663.58	1742.82
663.76	1665.00
663.95	1710.05
664.14	1656.81
664.32	1761.25
664.51	1640.42
664.70	1675.24
664.89	1785.83
665.07	1607.66
665.26	1785.83
665.45	1634.28
665.64	1798.12
665.82	1755.11
666.01	1763.30
666.20	1636.33
666.38	1880.04
666.57	1855.46
666.76	2236.38
666.95	4507.58
667.13	10393.44
667.32	15154.97
667.51	17692.40
667.69	18841.31
667.88	17456.89
668.07	12435.27
668.25	9514.86
668.44	8187.78
668.63	7503.76
668.81	6746.01
669.00	6166.43
669.19	5711.78
669.38	5076.91
669.56	4485.05
669.75	3950.53
669.94	3373.00
670.12	2914.26
670.31	2512.86
670.50	2291.68
670.68	2105.31
670.87	1986.53
671.06	1796.07
671.24	1877.99
671.43	1880.04
671.62	1714.15
671.80	1708.01
671.99	1765.35
672.18	1705.96
672.36	1701.86
672.55	1724.39
672.74	1654.76
672.92	1685.48
673.11	1767.40
673.29	1644.52
673.48	1800.16
673.67	1681.38
673.85	1744.87
674.04	1671.14
674.23	1701.86
674.41	1783.78
674.60	1636.33
674.79	1648.61
674.97	1640.42
675.16	1734.63
675.34	1808.36
675.53	1630.18
675.72	1748.97
675.90	1802.21
676.09	1691.62
676.28	1742.82
676.46	1652.71
676.65	1701.86
676.83	1732.58
677.02	1671.14
677.21	1781.73
677.39	1748.97
677.58	1611.75
677.77	1708.01
677.95	1632.23
678.14	1681.38
678.32	1716.20
678.51	1667.05
678.70	1789.92
678.88	1689.57
679.07	1785.83
679.25	1697.77
679.44	1730.53
679.63	1619.94
679.81	1697.77
680.00	1812.45
680.18	1720.29
680.37	1730.53
680.55	1673.19
680.74	1601.51
680.93	1615.85
681.11	1724.39
681.30	1667.05
681.48	1701.86
681.67	1820.64
681.85	1779.68
682.04	1724.39
682.23	1724.39
682.41	1767.40
682.60	1697.77
682.78	1665.00
682.97	1662.95
683.15	1677.29
683.34	1687.53
683.53	1738.73
683.71	1662.95
683.90	1824.74
684.08	1808.36
684.27	1751.01
684.45	1701.86
684.64	1820.64
684.82	1712.10
685.01	1644.52
685.19	1728.49
685.38	1822.69
685.57	1703.91
685.75	1689.57
685.94	1738.73
686.12	1624.04
686.31	1681.38
686.49	1828.84
686.68	1650.66
686.86	1695.72
687.05	1701.86
687.23	1779.68
687.42	1689.57
687.60	1699.81
687.79	1708.01
687.97	1761.25
688.16	1777.64
688.34	1791.97
688.53	1523.69
688.71	1791.97
688.90	1785.83
689.08	1673.19
689.27	1656.81
689.45	1751.01
689.64	1699.81
689.82	1742.82
690.01	1748.97
690.19	1769.44
690.38	1734.63
690.56	1851.36
690.75	1675.24
690.93	1777.64
691.12	1720.29
691.30	1759.21
691.49	1652.71
691.67	1716.20
691.86	1767.40
692.04	1720.29
692.23	1669.09
692.41	1640.42
692.60	1882.08
692.78	1740.77
692.97	1621.99
693.15	1757.16
693.34	1736.68
693.52	1761.25
693.71	1695.72
693.89	1697.77
694.08	1654.76
694.26	1738.73
694.44	1794.02
694.63	1816.55
694.81	1621.99
695.00	1611.75
695.18	1765.35
695.37	1837.03
695.55	1730.53
695.74	1697.77
695.92	1630.18
696.10	1726.44
696.29	1662.95
696.47	1724.39
696.66	1648.61
696.84	1638.38
697.03	1681.38
697.21	1808.36
697.40	2289.63
697.58	1837.03
697.76	1648.61
697.95	1714.15
698.13	1669.09
698.32	1687.53
698.50	1755.11
698.68	1724.39
698.87	1820.64
699.05	1751.01
699.24	1802.21
699.42	1619.94
699.61	1671.14
699.79	1755.11
699.97	1724.39
700.16	1691.62
700.34	1648.61
700.53	1703.91
700.71	1767.40
700.89	1800.16
701.08	1636.33
701.26	1740.77
701.45	2183.13
701.63	1748.97
701.81	1675.24
702.00	1662.95
702.18	1714.15
702.37	1703.91
702.55	1824.74
702.73	1656.81
702.92	1703.91
703.10	1669.09
703.28	1806.31
703.47	1673.19
703.65	1773.54
703.84	1728.49
704.02	1658.85
704.20	1826.79
704.39	1701.86
704.57	1679.33
704.75	1705.96
704.94	1720.29
705.12	1759.21
705.30	1800.16
705.49	2232.29
705.67	4417.47
705.86	9271.15
706.04	12351.30
706.22	14317.35
706.41	15083.29
706.59	13649.71
706.77	9428.85
706.96	7387.02
707.14	6399.90
707.32	5838.76
707.51	5568.43
707.69	4845.49
707.87	4194.24
708.06	3452.88
708.24	2879.44
708.42	2475.99
708.61	2226.14
708.79	1910.75
708.97	1859.56
709.16	1832.93
709.34	1818.60
709.52	1755.11
709.71	1804.26
709.89	1734.63
710.07	1718.25
710.26	1650.66
710.44	1632.23
710.62	1746.92
710.80	1759.21
710.99	1757.16
711.17	1800.16
711.35	1693.67
711.54	1675.24
711.72	1787.88
711.90	1751.01
712.09	1703.91
712.27	1652.71
712.45	1724.39
712.63	1691.62
712.82	1773.54
713.00	1699.81
713.18	1728.49
713.37	1757.16
713.55	1740.77
713.73	1744.87
713.91	1724.39
714.10	1689.57
714.28	1736.68
714.46	1802.21
714.65	1683.43
714.83	1677.29
715.01	1652.71
715.19	1667.05
715.38	1679.33
715.56	1714.15
715.74	1693.67
715.92	1642.47
716.11	1714.15
716.29	1642.47
716.47	1685.48
716.65	1677.29
716.84	1617.90
717.02	1771.49
717.20	1591.27
717.38	1662.95
717.57	1685.48
717.75	1734.63
717.93	1675.24
718.11	1791.97
718.30	1593.32
718.48	1673.19
718.66	1726.44
718.84	1769.44
719.03	1714.15
719.21	1693.67
719.39	1775.59
719.57	1763.30
719.75	1812.45
719.94	1644.52
720.12	1714.15
720.30	1665.00
720.48	1834.98
720.67	1636.33
720.85	1701.86
721.03	1656.81
721.21	1683.43
721.39	1757.16
721.58	1703.91
721.76	1753.06
721.94	1689.57
722.12	1703.91
722.30	1857.51
722.49	1771.49
722.67	1722.34
722.85	1701.86
723.03	1675.24
723.21	1699.81
723.40	1718.25
723.58	1810.40
723.76	1740.77
723.94	1726.44
724.12	1697.77
724.30	1787.88
724.49	1740.77
724.67	1591.27
724.85	1791.97
725.03	1656.81
725.21	1685.48
725.40	1796.07
725.58	1652.71
725.76	1816.55
725.94	1773.54
726.12	1681.38
726.30	1736.68
726.49	1775.59
726.67	1738.73
726.85	1697.77
727.03	1806.31
727.21	2240.48
727.39	2928.60
727.57	3782.60
727.76	4159.42
727.94	4448.19
728.12	4253.63
728.30	3708.87
728.48	3028.95
728.66	2791.38
728.84	2467.80
729.03	2328.54
729.21	2185.18
729.39	1986.53
729.57	1812.45
729.75	1828.84
729.93	1832.93
730.11	1759.21
730.30	1734.63
730.48	1730.53
730.66	1779.68
730.84	1787.88
731.02	1658.85
731.20	1689.57
731.38	1738.73
731.56	1642.47
731.74	1587.18
731.93	1730.53
732.11	1650.66
732.29	1648.61
732.47	1748.97
732.65	1705.96
732.83	1832.93
733.01	1738.73
733.19	1587.18
733.37	1712.10
733.56	1683.43
733.74	1767.40
733.92	1755.11
734.10	1640.42
734.28	1656.81
734.46	1597.42
734.64	1695.72
734.82	1703.91
735.00	1687.53
735.18	1716.20
735.36	1724.39
735.54	1695.72
735.73	1730.53
735.91	1791.97
736.09	1763.30
736.27	1658.85
736.45	1791.97
736.63	1708.01
736.81	1669.09
736.99	1771.49
737.17	1734.63
737.35	1734.63
737.53	1787.88
737.71	1718.25
737.89	1763.30
738.07	1740.77
738.25	1630.18
738.43	1609.70
738.61	1722.34
738.80	1640.42
738.98	1632.23
739.16	1613.80
739.34	1675.24
739.52	1671.14
739.70	1710.05
739.88	1720.29
740.06	1708.01
740.24	1591.27
740.42	1789.92
740.60	1576.94
740.78	1705.96
740.96	1556.46
741.14	1671.14
741.32	1759.21
741.50	1656.81
741.68	1886.18
741.86	1726.44
742.04	1636.33
742.22	1703.91
742.40	1722.34
742.58	1722.34
742.76	1699.81
742.94	1769.44
743.12	1720.29
743.30	1728.49
743.48	1789.92
743.66	1626.09
743.84	1699.81
744.02	1685.48
744.20	1685.48
744.38	1593.32
744.56	1636.33
744.74	1789.92
744.92	1759.21
745.10	1820.64
745.28	1734.63
745.46	1814.50
745.64	1691.62
745.82	1791.97
746.00	1767.40
746.18	1748.97
746.36	1726.44
746.54	1697.77
746.72	1720.29
746.90	1662.95
747.08	1769.44
747.26	1613.80
747.44	1724.39
747.62	1746.92
747.80	1763.30
747.98	1759.21
748.15	1685.48
748.33	1769.44
748.51	1761.25
748.69	1800.16
748.87	1658.85
749.05	1685.48
749.23	1738.73
749.41	1746.92
749.59	1654.76
749.77	1753.06
749.95	1765.35
750.13	1656.81
750.31	1687.53
750.49	1753.06
750.67	1683.43
750.85	1769.44
751.03	1683.43
751.20	1832.93
751.38	1673.19
751.56	1722.34
751.74	1703.91
751.92	1617.90
752.10	1626.09
752.28	1818.60
752.46	1705.96
752.64	1685.48
752.82	1734.63
753.00	1726.44
753.18	1708.01
753.35	1697.77
753.53	1730.53
753.71	1748.97
753.89	1763.30
754.07	1693.67
754.25	1722.34
754.43	1675.24
754.61	1613.80
754.79	1736.68
754.97	1697.77
755.14	1683.43
755.32	1693.67
755.50	1730.53
755.68	1777.64
755.86	1708.01
756.04	1710.05
756.22	1617.90
756.40	1687.53
756.57	1791.97
756.75	1652.71
756.93	1857.51
757.11	1662.95
757.29	1660.90
757.47	1652.71
757.65	1652.71
757.82	1558.50
758.00	1656.81
758.18	1648.61
758.36	1665.00
758.54	1816.55
758.72	1701.86
758.90	1742.82
759.07	1714.15
759.25	1712.10
759.43	1738.73
759.61	1669.09
759.79	2205.66
759.97	1796.07
760.15	1746.92
760.32	1665.00
760.50	1710.05
760.68	1816.55
760.86	1568.74
761.04	1755.11
761.22	1767.40
761.39	1718.25
761.57	1753.06
761.75	1617.90
761.93	1789.92
762.11	1722.34
762.28	1693.67
762.46	1650.66
762.64	1724.39
762.82	1734.63
763.00	1652.71
763.18	1804.26
763.35	1640.42
763.53	1724.39
763.71	1744.87
763.89	1726.44
764.07	1695.72
764.24	1656.81
764.42	1763.30
764.60	1718.25
764.78	1621.99
764.96	1732.58
765.13	1779.68
765.31	1708.01
765.49	1714.15
765.67	1624.04
765.84	1650.66
766.02	1714.15
766.20	1535.98
766.38	1748.97
766.56	1767.40
766.73	1757.16
766.91	1785.83
767.09	1693.67
767.27	1685.48
767.44	1613.80
767.62	1837.03
767.80	1701.86
767.98	1726.44
768.15	1714.15
768.33	1708.01
768.51	1757.16
768.69	1748.97
768.87	1716.20
769.04	1687.53
769.22	1839.08
769.40	1708.01
769.58	1920.99
769.75	1730.53
769.93	1724.39
770.11	1708.01
770.28	1644.52
770.46	1710.05
770.64	1673.19
770.82	1705.96
770.99	1699.81
771.17	1755.11
771.35	1650.66
771.53	1789.92
771.70	1726.44
771.88	1640.42
772.06	1671.14
772.23	1695.72
772.41	1763.30
772.59	1734.63
772.77	1679.33
772.94	1751.01
773.12	1652.71
773.30	1738.73
773.47	1755.11
773.65	1665.00
773.83	1822.69
774.01	1705.96
774.18	1595.37
774.36	1705.96
774.54	1617.90
774.71	1705.96
774.89	1603.56
775.07	1615.85
775.24	1699.81
775.42	1802.21
775.60	1814.50
775.78	1699.81
775.95	1595.37
776.13	1605.61
776.31	1605.61
776.48	1734.63
776.66	1771.49
776.84	1681.38
777.01	1703.91
777.19	1617.90
777.37	1652.71
777.54	1710.05
777.72	1771.49
777.90	1744.87
778.07	1642.47
778.25	1804.26
778.43	1791.97
778.60	1671.14
778.78	1781.73
778.96	1808.36
779.13	1685.48
779.31	1732.58
779.49	1734.63
779.66	1728.49
779.84	1685.48
780.01	1718.25
780.19	1613.80
780.37	1787.88
780.54	1783.78
780.72	1665.00
780.90	1640.42
781.07	1730.53
781.25	1665.00
781.43	1714.15
781.60	1755.11
781.78	1734.63
781.95	1693.67
782.13	1646.57
782.31	1708.01
782.48	1597.42
782.66	1652.71
782.83	1765.35
783.01	1730.53
783.19	1726.44
783.36	1744.87
783.54	1687.53
783.72	1777.64
783.89	1703.91
784.07	1724.39
784.24	1705.96
784.42	1738.73
784.60	1746.92
784.77	1634.28
784.95	1638.38
785.12	1624.04
785.30	1701.86
785.47	1703.91
785.65	1683.43
785.83	1656.81
786.00	1732.58
786.18	1775.59
786.35	1673.19
786.53	1693.67
786.71	1720.29
786.88	1757.16
787.06	1656.81
787.23	1714.15
787.41	1638.38
787.58	1746.92
787.76	1703.91
787.94	1742.82
788.11	1669.09
788.29	1603.56
788.46	1644.52
788.64	1636.33
788.81	1638.38
788.99	1673.19
789.16	1705.96
789.34	1714.15
789.52	1724.39
789.69	1716.20
789.87	1568.74
790.04	1714.15
790.22	1652.71
790.39	1877.99
790.57	1689.57
790.74	1642.47
790.92	1765.35
791.09	1552.36
791.27	1759.21
791.44	1781.73
791.62	1714.15
791.79	1757.16
791.97	1761.25
792.15	1951.71
792.32	1734.63
792.50	1767.40
792.67	1769.44
792.85	1783.78
793.02	1767.40
793.20	1705.96
793.37	1581.03
793.55	1718.25
793.72	1636.33
793.90	1845.22
794.07	1650.66
794.25	1656.81
794.42	1691.62
794.60	1720.29
794.77	1779.68
794.95	1763.30
795.12	1767.40
795.30	1679.33
795.47	1681.38
795.65	1828.84
795.82	1669.09
796.00	1652.71
796.17	1689.57
796.34	1681.38
796.52	1736.68
796.69	1767.40
796.87	1730.53
797.04	1763.30
797.22	1779.68
797.39	1667.05
797.57	1734.63
797.74	1703.91
797.92	1703.91
798.09	1665.00
798.27	1785.83
798.44	1755.11
798.62	1630.18
798.79	1783.78
798.96	1718.25
799.14	1830.88
799.31	1787.88
799.49	1611.75
799.66	1755.11
799.84	1730.53
800.01	1607.66
800.19	1738.73
800.36	1656.81
800.53	1734.63
800.71	1761.25
800.88	1740.77
801.06	1650.66
801.23	1695.72
801.41	1673.19
801.58	1712.10
801.75	1701.86
801.93	1693.67
802.10	1738.73
802.28	1681.38
802.45	1632.23
802.63	1755.11
802.80	1798.12
802.97	1673.19
803.15	1638.38
803.32	1740.77
803.50	1712.10
803.67	1693.67
803.84	1609.70
804.02	1726.44
804.19	1683.43
804.37	1568.74
804.54	1658.85
804.71	1611.75
804.89	1701.86
805.06	1671.14
805.24	1654.76
805.41	1628.14
805.58	1626.09
805.76	1787.88
805.93	1669.09
806.10	1787.88
806.28	1726.44
806.45	1785.83
806.63	1689.57
806.80	1748.97
806.97	1757.16
807.15	1673.19
807.32	1675.24
807.49	1712.10
807.67	1609.70
807.84	1675.24
808.01	1675.24
808.19	1890.28
808.36	1828.84
808.54	1628.14
808.71	1640.42
808.88	1724.39
809.06	1724.39
809.23	1736.68
809.40	1648.61
809.58	1814.50
809.75	1701.86
809.92	1634.28
810.10	1808.36
810.27	1703.91
810.44	1757.16
810.62	1791.97
810.79	1748.97
810.96	1722.34
811.14	1650.66
811.31	1742.82
811.48	1791.97
811.66	1748.97
811.83	1683.43
812.00	1732.58
812.18	1783.78
812.35	1787.88
812.52	1720.29
812.69	1675.24
812.87	1673.19
813.04	1697.77
813.21	1628.14
813.39	1640.42
813.56	1658.85
813.73	1767.40
813.91	1665.00
814.08	1810.40
814.25	1708.01
814.42	1689.57
814.60	1675.24
814.77	1732.58
814.94	1660.90
815.12	1632.23
815.29	1806.31
815.46	1705.96
815.63	1693.67
815.81	1736.68
815.98	1646.57
816.15	1720.29
816.33	1710.05
816.50	1613.80
816.67	1681.38
816.84	1646.57
817.02	1697.77
817.19	1697.77
817.36	1701.86
817.53	1734.63
817.71	1665.00
817.88	1687.53
818.05	1712.10
818.22	1701.86
818.40	1865.70
818.57	1728.49
818.74	1714.15
818.91	1763.30
819.09	1740.77
819.26	1812.45
819.43	1599.46
819.60	1665.00
819.78	1759.21
819.95	1771.49
820.12	1566.70
820.29	1773.54
820.47	1843.17
820.64	1654.76
820.81	1671.14
820.98	1691.62
821.15	1675.24
821.33	1738.73
821.50	1595.37
821.67	1705.96
821.84	1681.38
822.02	1708.01
822.19	1818.60
822.36	1675.24
822.53	1716.20
822.70	1687.53
822.88	1662.95
823.05	1830.88
823.22	1714.15
823.39	1765.35
823.56	1705.96
823.74	1798.12
823.91	1701.86
824.08	1624.04
824.25	1642.47
824.42	1771.49
824.60	1650.66
824.77	1751.01
824.94	1673.19
825.11	1755.11
825.28	1662.95
825.45	1767.40
825.63	1767.40
825.80	1724.39
825.97	1769.44
826.14	1679.33
826.31	1583.08
826.48	1689.57
826.66	1679.33
826.83	1697.77
827.00	1705.96
827.17	1634.28
827.34	1671.14
827.51	1677.29
827.69	1693.67
827.86	1640.42
828.03	1630.18
828.20	1751.01
828.37	1675.24
828.54	1773.54
828.71	1744.87
828.89	1837.03
829.06	1679.33
829.23	1800.16
829.40	1699.81
829.57	1648.61
829.74	1683.43
829.91	1665.00
830.09	1787.88
830.26	1751.01
830.43	1763.30
830.60	1681.38
830.77	1771.49
830.94	1869.80
831.11	1787.88
831.28	1695.72
831.46	1722.34
831.63	1669.09
831.80	1767.40
831.97	1599.46
832.14	1665.00
832.31	1703.91
832.48	1757.16
832.65	1740.77
832.82	1718.25
832.99	1718.25
833.17	1660.90
833.34	1828.84
833.51	1746.92
833.68	1581.03
833.85	1757.16
834.02	1656.81
834.19	1611.75
834.36	1658.85
834.53	1712.10
834.70	1849.32
834.87	1812.45
835.04	1759.21
835.22	1662.95
835.39	1642.47
835.56	1648.61
835.73	1683.43
835.90	1779.68
836.07	1693.67
836.24	1812.45
836.41	1621.99
836.58	1621.99
836.75	1757.16
836.92	1757.16
837.09	1669.09
837.26	1660.90
837.43	1742.82
837.60	1716.20
837.77	1611.75
837.94	1773.54
838.12	1779.68
838.29	1619.94
838.46	1585.13
838.63	1644.52
838.80	1824.74
838.97	1701.86
839.14	1744.87
839.31	1740.77
839.48	1748.97
839.65	1679.33
839.82	1673.19
839.99	1720.29
840.16	1732.58
840.33	1660.90
840.50	1683.43
840.67	1621.99
840.84	1603.56
841.01	1781.73
841.18	1716.20
841.35	1652.71
841.52	1722.34
841.69	1777.64
841.86	1730.53
842.03	1716.20
842.20	1677.29
842.37	1740.77
842.54	1677.29
842.71	1683.43
842.88	1642.47
843.05	1777.64
843.22	1697.77
843.39	1775.59
843.56	1642.47
843.73	1730.53
843.90	1691.62
844.07	1734.63
844.24	1796.07
844.41	1730.53
844.58	1626.09
844.75	1830.88
844.92	1701.86
845.09	1679.33
845.26	1720.29
845.43	1753.06
845.60	1714.15
845.77	1736.68
845.94	1699.81
846.10	1697.77
846.27	1722.34
846.44	1578.98
846.61	1677.29
846.78	1628.14
846.95	1781.73
847.12	1685.48
847.29	1699.81
847.46	1646.57
847.63	1730.53
847.80	1624.04
847.97	1730.53
848.14	1855.46
848.31	1656.81
848.48	1583.08
848.65	1656.81
848.82	1607.66
848.98	1814.50
849.15	1771.49
849.32	1830.88
849.49	1738.73
849.66	1624.04
849.83	1671.14
850.00	1564.65
850.17	1757.16
850.34	1738.73
850.51	1681.38
850.68	1693.67
850.85	1789.92
851.01	1744.87
851.18	1697.77
851.35	1738.73
851.52	1732.58
851.69	1808.36
851.86	1648.61
852.03	1689.57
852.20	1683.43
852.37	1679.33
852.53	1634.28
852.70	1736.68
852.87	1671.14
853.04	1673.19
853.21	1724.39
853.38	1812.45
853.55	1722.34
853.72	1804.26
853.89	1574.89
854.05	1669.09
854.22	1626.09
854.39	1722.34
854.56	1765.35
854.73	1806.31
854.90	1632.23
855.07	1712.10
855.23	1714.15
855.40	1701.86
855.57	1673.19
855.74	1656.81
855.91	1851.36
856.08	1642.47
856.25	1656.81
856.41	1746.92
856.58	1712.10
856.75	1773.54
856.92	1609.70
857.09	1773.54
857.26	1648.61
857.42	1740.77
857.59	1757.16
857.76	1658.85
857.93	1695.72
858.10	1710.05
858.27	1638.38
858.43	1753.06
858.60	1669.09
858.77	1585.13
858.94	1587.18
859.11	1767.40
859.27	1687.53
859.44	1791.97
859.61	1806.31
859.78	1763.30
859.95	1619.94
860.12	1691.62
860.28	1824.74
860.45	1808.36
860.62	1732.58
860.79	1781.73
860.95	1744.87
861.12	1660.90
861.29	1697.77
861.46	1646.57
861.63	1695.72
861.79	1728.49
861.96	1667.05
862.13	1642.47
862.30	1798.12
862.47	1667.05
862.63	1681.38
862.80	1712.10
862.97	1658.85
863.14	1755.11
863.30	1667.05
863.47	1685.48
863.64	1826.79
863.81	1669.09
863.97	1597.42
864.14	1654.76
864.31	1714.15
864.48	1699.81
864.65	1632.23
864.81	1708.01
864.98	1728.49
865.15	1798.12
865.32	1757.16
865.48	1730.53
865.65	1781.73
865.82	1701.86
865.98	1679.33
866.15	1775.59
866.32	1722.34
866.49	1644.52
866.65	1759.21
866.82	1593.32
866.99	1710.05
867.16	1671.14
867.32	1689.57
867.49	1628.14
867.66	1595.37
867.83	1648.61
867.99	1656.81
868.16	1744.87
868.33	1656.81
868.49	1767.40
868.66	1687.53
868.83	1742.82
868.99	1691.62
869.16	1787.88
869.33	1816.55
869.50	1812.45
869.66	1656.81
869.83	1742.82
870.00	1685.48
870.16	1675.24
870.33	1703.91
870.50	1755.11
870.66	1701.86
870.83	1877.99
871.00	1624.04
871.17	1748.97
871.33	1757.16
871.50	1687.53
871.67	1746.92
871.83	1736.68
872.00	1826.79
872.17	1761.25
872.33	1746.92
872.50	1673.19
872.67	1667.05
872.83	1691.62
873.00	1724.39
873.17	1714.15
873.33	1744.87
873.50	1691.62
873.67	1617.90
873.83	1636.33
874.00	1708.01
874.16	1781.73
874.33	1607.66
874.50	1624.04
874.66	1730.53
874.83	1697.77
875.00	1767.40
875.16	1818.60
875.33	1767.40
875.50	1632.23
875.66	1742.82
875.83	1722.34
875.99	1677.29
876.16	1675.24
876.33	1650.66
876.49	1675.24
876.66	1714.15
876.83	1691.62
876.99	1583.08
877.16	1701.86
877.32	1650.66
877.49	1722.34
877.66	1730.53
877.82	1759.21
877.99	1748.97
878.15	1755.11
878.32	1751.01
878.49	1767.40
878.65	1656.81
878.82	1785.83
878.98	1746.92
879.15	1695.72
879.32	1787.88
879.48	1722.34
879.65	1644.52
879.81	1701.86
879.98	1652.71
880.15	1681.38
880.31	1744.87
880.48	1656.81
880.64	1773.54
880.81	1714.15
880.97	1863.65
881.14	1757.16
881.31	1632.23
881.47	1820.64
881.64	1689.57
881.80	1595.37
881.97	1662.95
882.13	1828.84
882.30	1599.46
882.47	1685.48
882.63	1576.94
882.80	1665.00
882.96	1650.66
883.13	1832.93
883.29	1791.97
883.46	1763.30
883.62	1820.64
883.79	1738.73
883.95	1730.53
884.12	1759.21
884.29	1806.31
884.45	1767.40
884.62	1748.97
884.78	1621.99
884.95	1730.53
885.11	1624.04
885.28	1726.44
885.44	1703.91
885.61	1744.87
885.77	1722.34
885.94	1808.36
886.10	1697.77
886.27	1681.38
886.43	1796.07
886.60	1738.73
886.76	1673.19
886.93	1662.95
887.09	1732.58
887.26	1640.42
887.42	1677.29
887.59	1808.36
887.75	1834.98
887.92	1761.25
888.08	1814.50
888.25	1759.21
888.41	1783.78
888.58	1740.77
888.74	1720.29
888.91	1669.09
>>>>>End Processed Spectral Data<<<<<
