SpectraSuite Data File
++++++++++++++++++++++++++++++++++++
Date: Mon Jun 06 17:18:17 CEST 2016
User: root
Dark Spectrum Present: No
Reference Spectrum Present: No
Number of Sampled Component Spectra: 1
Spectrometers: USB4C02835
Integration Time (usec): 100000 (USB4C02835)
Spectra Averaged: 1 (USB4C02835)
Boxcar Smoothing: 0 (USB4C02835)
Correct for Electrical Dark: No (USB4C02835)
Strobe/Lamp Enabled: No (USB4C02835)
Correct for Detector Non-linearity: No (USB4C02835)
Correct for Stray Light: No (USB4C02835)
Number of Pixels in Processed Spectrum: 3648
>>>>>Begin Processed Spectral Data<<<<<
177.47	1492.97
177.69	1492.97
177.91	1492.97
178.13	1482.73
178.36	1533.93
178.58	1695.72
178.80	1730.53
179.02	1626.09
179.24	1648.61
179.46	1722.34
179.68	1757.16
179.90	1679.33
180.13	1787.88
180.35	1683.43
180.57	1740.77
180.79	1681.38
181.01	1722.34
181.23	1771.49
181.45	1812.45
181.67	1718.25
181.90	1671.14
182.12	1703.91
182.34	1683.43
182.56	1716.20
182.78	1759.21
183.00	1636.33
183.22	1773.54
183.44	1626.09
183.66	1863.65
183.89	1759.21
184.11	1710.05
184.33	1708.01
184.55	1789.92
184.77	1701.86
184.99	1650.66
185.21	1775.59
185.43	1902.56
185.65	1630.18
185.87	1689.57
186.10	1824.74
186.32	1875.94
186.54	1734.63
186.76	1703.91
186.98	1759.21
187.20	1662.95
187.42	1671.14
187.64	1691.62
187.86	1779.68
188.08	1820.64
188.30	1699.81
188.52	1693.67
188.75	1695.72
188.97	1775.59
189.19	1615.85
189.41	1755.11
189.63	1718.25
189.85	1718.25
190.07	1665.00
190.29	1601.51
190.51	1765.35
190.73	1644.52
190.95	1740.77
191.17	1720.29
191.39	1638.38
191.61	1710.05
191.84	1708.01
192.06	1712.10
192.28	1583.08
192.50	1871.84
192.72	1802.21
192.94	1714.15
193.16	1775.59
193.38	1773.54
193.60	1615.85
193.82	1660.90
194.04	1812.45
194.26	1787.88
194.48	1744.87
194.70	1751.01
194.92	1656.81
195.14	1763.30
195.36	1652.71
195.58	1712.10
195.80	1734.63
196.02	1669.09
196.24	1724.39
196.46	1724.39
196.69	1615.85
196.91	1812.45
197.13	1648.61
197.35	1681.38
197.57	1796.07
197.79	1710.05
198.01	1787.88
198.23	1781.73
198.45	1710.05
198.67	1599.46
198.89	1691.62
199.11	1728.49
199.33	1574.89
199.55	1566.70
199.77	1681.38
199.99	1722.34
200.21	1742.82
200.43	1718.25
200.65	1597.42
200.87	1583.08
201.09	1730.53
201.31	1708.01
201.53	1757.16
201.75	1734.63
201.97	1734.63
202.19	1798.12
202.41	1748.97
202.63	1873.89
202.85	1755.11
203.07	1718.25
203.29	1650.66
203.51	1646.57
203.73	1673.19
203.95	1927.14
204.17	1722.34
204.39	1783.78
204.61	1773.54
204.83	1656.81
205.05	1740.77
205.27	1738.73
205.49	1828.84
205.71	1736.68
205.93	1654.76
206.15	1667.05
206.37	1724.39
206.59	1697.77
206.81	1611.75
207.03	1669.09
207.25	1654.76
207.47	1806.31
207.69	1703.91
207.91	1798.12
208.13	1763.30
208.34	1621.99
208.56	1683.43
208.78	1830.88
209.00	1660.90
209.22	1699.81
209.44	1746.92
209.66	1665.00
209.88	1675.24
210.10	1720.29
210.32	1609.70
210.54	1705.96
210.76	1699.81
210.98	1740.77
211.20	1581.03
211.42	1699.81
211.64	1679.33
211.86	1777.64
212.08	1714.15
212.30	1689.57
212.52	1744.87
212.74	1716.20
212.96	1773.54
213.17	1699.81
213.39	1744.87
213.61	1779.68
213.83	1763.30
214.05	1552.36
214.27	1787.88
214.49	1685.48
214.71	1693.67
214.93	1728.49
215.15	1665.00
215.37	1746.92
215.59	1644.52
215.81	1669.09
216.03	1808.36
216.24	1751.01
216.46	1720.29
216.68	1644.52
216.90	1728.49
217.12	1705.96
217.34	1726.44
217.56	1705.96
217.78	1806.31
218.00	1787.88
218.22	1771.49
218.44	1791.97
218.66	1626.09
218.87	1824.74
219.09	1761.25
219.31	1755.11
219.53	1746.92
219.75	1734.63
219.97	1679.33
220.19	1656.81
220.41	1730.53
220.63	1769.44
220.85	1732.58
221.06	1683.43
221.28	1757.16
221.50	1753.06
221.72	1697.77
221.94	1720.29
222.16	1695.72
222.38	1779.68
222.60	1726.44
222.82	1615.85
223.03	1732.58
223.25	1648.61
223.47	1714.15
223.69	1783.78
223.91	1802.21
224.13	1716.20
224.35	1761.25
224.57	1689.57
224.78	1802.21
225.00	1685.48
225.22	1722.34
225.44	1759.21
225.66	1771.49
225.88	1642.47
226.10	1818.60
226.32	1722.34
226.53	1789.92
226.75	1626.09
226.97	1654.76
227.19	1681.38
227.41	1619.94
227.63	1648.61
227.85	1679.33
228.06	1669.09
228.28	1681.38
228.50	1718.25
228.72	1677.29
228.94	1685.48
229.16	1689.57
229.37	1665.00
229.59	1687.53
229.81	1740.77
230.03	1669.09
230.25	1607.66
230.47	1652.71
230.69	1730.53
230.90	1765.35
231.12	1697.77
231.34	1746.92
231.56	1791.97
231.78	1652.71
232.00	1761.25
232.21	1669.09
232.43	1763.30
232.65	1599.46
232.87	1777.64
233.09	1679.33
233.30	1724.39
233.52	1759.21
233.74	1697.77
233.96	1714.15
234.18	1718.25
234.40	1705.96
234.61	1796.07
234.83	1656.81
235.05	1691.62
235.27	1822.69
235.49	1767.40
235.70	1748.97
235.92	1796.07
236.14	1771.49
236.36	1914.85
236.58	1599.46
236.79	1783.78
237.01	1761.25
237.23	1708.01
237.45	1877.99
237.67	1665.00
237.88	1693.67
238.10	1769.44
238.32	1683.43
238.54	1687.53
238.76	1697.77
238.97	1714.15
239.19	1615.85
239.41	1726.44
239.63	1785.83
239.85	1746.92
240.06	1681.38
240.28	1710.05
240.50	1767.40
240.72	1732.58
240.93	1685.48
241.15	1732.58
241.37	1683.43
241.59	1769.44
241.81	1630.18
242.02	1681.38
242.24	1755.11
242.46	1732.58
242.68	1730.53
242.89	1697.77
243.11	1734.63
243.33	1714.15
243.55	1753.06
243.76	1705.96
243.98	1689.57
244.20	1724.39
244.42	1687.53
244.64	1730.53
244.85	1636.33
245.07	1667.05
245.29	1742.82
245.51	1695.72
245.72	1730.53
245.94	1765.35
246.16	1714.15
246.38	1718.25
246.59	1603.56
246.81	1697.77
247.03	1734.63
247.24	1568.74
247.46	1687.53
247.68	1726.44
247.90	1667.05
248.11	1703.91
248.33	1703.91
248.55	1714.15
248.77	1720.29
248.98	1777.64
249.20	1834.98
249.42	1683.43
249.64	1765.35
249.85	1744.87
250.07	1669.09
250.29	1722.34
250.50	1697.77
250.72	1669.09
250.94	1830.88
251.16	1832.93
251.37	1834.98
251.59	1771.49
251.81	1708.01
252.02	1751.01
252.24	1728.49
252.46	1757.16
252.68	1701.86
252.89	1658.85
253.11	1591.27
253.33	1779.68
253.54	1785.83
253.76	1621.99
253.98	1718.25
254.20	1652.71
254.41	1673.19
254.63	1716.20
254.85	1671.14
255.06	1677.29
255.28	1730.53
255.50	1746.92
255.71	1724.39
255.93	1640.42
256.15	1718.25
256.36	1822.69
256.58	1718.25
256.80	1732.58
257.02	1736.68
257.23	1712.10
257.45	1677.29
257.67	1726.44
257.88	1728.49
258.10	1806.31
258.32	1751.01
258.53	1677.29
258.75	1789.92
258.97	1621.99
259.18	1681.38
259.40	1695.72
259.62	1701.86
259.83	1771.49
260.05	1736.68
260.27	2054.11
260.48	1806.31
260.70	1634.28
260.92	1660.90
261.13	1697.77
261.35	1712.10
261.57	1779.68
261.78	1685.48
262.00	1710.05
262.22	1806.31
262.43	1685.48
262.65	1722.34
262.86	1671.14
263.08	1853.41
263.30	1779.68
263.51	1648.61
263.73	1714.15
263.95	1824.74
264.16	1656.81
264.38	1734.63
264.60	1755.11
264.81	1730.53
265.03	1685.48
265.25	1701.86
265.46	1703.91
265.68	1777.64
265.89	1759.21
266.11	1710.05
266.33	1667.05
266.54	1765.35
266.76	1708.01
266.98	1767.40
267.19	1810.40
267.41	1716.20
267.62	1718.25
267.84	1652.71
268.06	1728.49
268.27	1738.73
268.49	1783.78
268.70	1751.01
268.92	1740.77
269.14	1644.52
269.35	1640.42
269.57	1673.19
269.79	1738.73
270.00	1671.14
270.22	1810.40
270.43	1677.29
270.65	1601.51
270.87	1701.86
271.08	1689.57
271.30	1685.48
271.51	1722.34
271.73	1765.35
271.95	1820.64
272.16	1738.73
272.38	1763.30
272.59	1679.33
272.81	1746.92
273.02	1728.49
273.24	1714.15
273.46	1808.36
273.67	1658.85
273.89	1660.90
274.10	1736.68
274.32	1789.92
274.54	1822.69
274.75	1667.05
274.97	1632.23
275.18	1726.44
275.40	1820.64
275.61	1744.87
275.83	1679.33
276.05	1656.81
276.26	1751.01
276.48	1802.21
276.69	1617.90
276.91	1683.43
277.12	1804.26
277.34	1814.50
277.55	1744.87
277.77	1722.34
277.99	1724.39
278.20	1578.98
278.42	1701.86
278.63	1660.90
278.85	1759.21
279.06	1669.09
279.28	1722.34
279.49	1710.05
279.71	1773.54
279.93	1687.53
280.14	1736.68
280.36	1644.52
280.57	1732.58
280.79	1781.73
281.00	1669.09
281.22	1679.33
281.43	1800.16
281.65	1640.42
281.86	1626.09
282.08	1785.83
282.29	1796.07
282.51	1658.85
282.73	1628.14
282.94	1671.14
283.16	1722.34
283.37	1791.97
283.59	1742.82
283.80	1714.15
284.02	1771.49
284.23	1724.39
284.45	1718.25
284.66	1660.90
284.88	1714.15
285.09	1748.97
285.31	1732.58
285.52	1759.21
285.74	1640.42
285.95	1697.77
286.17	1630.18
286.38	1705.96
286.60	1648.61
286.81	1644.52
287.03	1687.53
287.24	1712.10
287.46	1738.73
287.67	1722.34
287.89	1820.64
288.10	1708.01
288.32	1734.63
288.53	1828.84
288.75	1773.54
288.96	1736.68
289.18	1718.25
289.39	1726.44
289.61	1677.29
289.82	1783.78
290.04	1812.45
290.25	1624.04
290.47	1681.38
290.68	1767.40
290.90	1771.49
291.11	1683.43
291.33	1712.10
291.54	1667.05
291.76	1675.24
291.97	1640.42
292.18	1636.33
292.40	1769.44
292.61	1634.28
292.83	1867.75
293.04	1755.11
293.26	1679.33
293.47	1746.92
293.69	1720.29
293.90	1691.62
294.12	1746.92
294.33	1742.82
294.55	1642.47
294.76	1773.54
294.97	1781.73
295.19	1877.99
295.40	1667.05
295.62	1699.81
295.83	1769.44
296.05	1599.46
296.26	1781.73
296.48	1681.38
296.69	1681.38
296.90	1677.29
297.12	1763.30
297.33	1794.02
297.55	1759.21
297.76	1658.85
297.98	1791.97
298.19	1824.74
298.41	1724.39
298.62	1697.77
298.83	1777.64
299.05	1705.96
299.26	1705.96
299.48	1701.86
299.69	1798.12
299.90	1669.09
300.12	1705.96
300.33	1775.59
300.55	1660.90
300.76	1779.68
300.98	1566.70
301.19	1730.53
301.40	1771.49
301.62	1763.30
301.83	1746.92
302.05	1705.96
302.26	1755.11
302.47	1726.44
302.69	1617.90
302.90	1755.11
303.12	1613.80
303.33	1720.29
303.54	1861.60
303.76	1748.97
303.97	1699.81
304.19	1738.73
304.40	1658.85
304.61	1665.00
304.83	1779.68
305.04	1757.16
305.26	1740.77
305.47	1720.29
305.68	1738.73
305.90	1665.00
306.11	1787.88
306.33	1724.39
306.54	1767.40
306.75	1667.05
306.97	1689.57
307.18	1705.96
307.39	1748.97
307.61	1705.96
307.82	1726.44
308.04	1732.58
308.25	1695.72
308.46	1697.77
308.68	1677.29
308.89	1724.39
309.10	1796.07
309.32	1746.92
309.53	1691.62
309.74	1734.63
309.96	1648.61
310.17	1777.64
310.39	1687.53
310.60	1705.96
310.81	1669.09
311.03	1687.53
311.24	1728.49
311.45	1734.63
311.67	1781.73
311.88	1708.01
312.09	1744.87
312.31	1665.00
312.52	1675.24
312.73	1630.18
312.95	1574.89
313.16	1714.15
313.37	1787.88
313.59	1687.53
313.80	1703.91
314.01	1800.16
314.23	1708.01
314.44	1673.19
314.65	1611.75
314.87	1621.99
315.08	1746.92
315.29	1738.73
315.51	1665.00
315.72	1679.33
315.93	1773.54
316.15	1667.05
316.36	1597.42
316.57	1726.44
316.79	1746.92
317.00	1685.48
317.21	1775.59
317.43	1621.99
317.64	1687.53
317.85	1732.58
318.07	1732.58
318.28	1712.10
318.49	1789.92
318.70	1884.13
318.92	1830.88
319.13	1834.98
319.34	1867.75
319.56	1773.54
319.77	1759.21
319.98	1789.92
320.20	1771.49
320.41	1755.11
320.62	1783.78
320.83	1697.77
321.05	1800.16
321.26	1691.62
321.47	1720.29
321.69	1714.15
321.90	1605.61
322.11	1660.90
322.32	1708.01
322.54	1767.40
322.75	1665.00
322.96	1832.93
323.18	1589.22
323.39	1533.93
323.60	1642.47
323.81	1816.55
324.03	1638.38
324.24	1708.01
324.45	1755.11
324.66	1783.78
324.88	1675.24
325.09	1830.88
325.30	1751.01
325.52	1712.10
325.73	1759.21
325.94	1681.38
326.15	1665.00
326.37	1718.25
326.58	1777.64
326.79	1771.49
327.00	1689.57
327.22	1734.63
327.43	1681.38
327.64	1613.80
327.85	1742.82
328.07	1673.19
328.28	1826.79
328.49	1708.01
328.70	1683.43
328.92	1734.63
329.13	1742.82
329.34	1783.78
329.55	1802.21
329.76	1767.40
329.98	1730.53
330.19	1744.87
330.40	1755.11
330.61	1660.90
330.83	1812.45
331.04	1640.42
331.25	1669.09
331.46	1734.63
331.68	1636.33
331.89	1771.49
332.10	1685.48
332.31	1619.94
332.52	1697.77
332.74	1796.07
332.95	1554.41
333.16	1746.92
333.37	1720.29
333.58	1693.67
333.80	1714.15
334.01	1648.61
334.22	1705.96
334.43	1673.19
334.64	1671.14
334.86	1687.53
335.07	1681.38
335.28	1785.83
335.49	1714.15
335.70	1693.67
335.92	1775.59
336.13	1865.70
336.34	1695.72
336.55	1746.92
336.76	1669.09
336.98	1646.57
337.19	1730.53
337.40	1783.78
337.61	1814.50
337.82	1705.96
338.04	1765.35
338.25	1648.61
338.46	1773.54
338.67	1693.67
338.88	1691.62
339.09	1609.70
339.31	1656.81
339.52	1591.27
339.73	1621.99
339.94	1691.62
340.15	1740.77
340.36	1720.29
340.58	1755.11
340.79	1691.62
341.00	1769.44
341.21	1667.05
341.42	1867.75
341.63	1697.77
341.85	1769.44
342.06	1710.05
342.27	1669.09
342.48	1816.55
342.69	1613.80
342.90	1812.45
343.12	1769.44
343.33	1738.73
343.54	1738.73
343.75	1841.12
343.96	1683.43
344.17	1681.38
344.38	1693.67
344.60	1591.27
344.81	1660.90
345.02	1736.68
345.23	1732.58
345.44	1771.49
345.65	1775.59
345.86	1757.16
346.07	1746.92
346.29	1648.61
346.50	1683.43
346.71	1769.44
346.92	1808.36
347.13	1849.32
347.34	1722.34
347.55	1693.67
347.76	1712.10
347.98	1591.27
348.19	1650.66
348.40	1785.83
348.61	1734.63
348.82	1796.07
349.03	1761.25
349.24	1697.77
349.45	1800.16
349.66	1640.42
349.88	1665.00
350.09	1681.38
350.30	1785.83
350.51	1810.40
350.72	1689.57
350.93	1734.63
351.14	1619.94
351.35	1789.92
351.56	1806.31
351.77	1667.05
351.99	1824.74
352.20	1779.68
352.41	1845.22
352.62	1554.41
352.83	1628.14
353.04	1722.34
353.25	1671.14
353.46	1791.97
353.67	1736.68
353.88	1660.90
354.09	1730.53
354.30	1677.29
354.52	1687.53
354.73	1751.01
354.94	1757.16
355.15	1714.15
355.36	1755.11
355.57	1656.81
355.78	1683.43
355.99	1695.72
356.20	1669.09
356.41	1779.68
356.62	1722.34
356.83	1669.09
357.04	1761.25
357.25	1587.18
357.46	1673.19
357.68	1591.27
357.89	1660.90
358.10	1662.95
358.31	1691.62
358.52	1665.00
358.73	1632.23
358.94	1646.57
359.15	1712.10
359.36	1730.53
359.57	1679.33
359.78	1785.83
359.99	1738.73
360.20	1675.24
360.41	1675.24
360.62	1757.16
360.83	1691.62
361.04	1669.09
361.25	1724.39
361.46	1808.36
361.67	1775.59
361.88	1781.73
362.09	1771.49
362.30	1681.38
362.51	1640.42
362.72	1658.85
362.93	1703.91
363.14	1794.02
363.35	1705.96
363.56	1671.14
363.78	1777.64
363.99	1699.81
364.20	1728.49
364.41	1730.53
364.62	1865.70
364.83	1740.77
365.04	1648.61
365.25	1654.76
365.46	1777.64
365.67	1662.95
365.88	1685.48
366.09	1716.20
366.30	1665.00
366.51	1669.09
366.72	1626.09
366.93	1718.25
367.14	1755.11
367.35	1820.64
367.56	1710.05
367.77	1886.18
367.98	1681.38
368.18	1685.48
368.39	1810.40
368.60	1644.52
368.81	1832.93
369.02	1716.20
369.23	1710.05
369.44	1638.38
369.65	1724.39
369.86	1740.77
370.07	1767.40
370.28	1556.46
370.49	1744.87
370.70	1726.44
370.91	1681.38
371.12	1681.38
371.33	1722.34
371.54	1658.85
371.75	1867.75
371.96	1611.75
372.17	1800.16
372.38	1722.34
372.59	1691.62
372.80	1697.77
373.01	1699.81
373.22	1724.39
373.43	1662.95
373.64	1630.18
373.85	1847.27
374.06	1779.68
374.26	1798.12
374.47	1673.19
374.68	1814.50
374.89	1757.16
375.10	1730.53
375.31	1759.21
375.52	1660.90
375.73	1705.96
375.94	1675.24
376.15	1789.92
376.36	1691.62
376.57	1691.62
376.78	1693.67
376.99	1644.52
377.20	1814.50
377.40	1693.67
377.61	1832.93
377.82	1671.14
378.03	1839.08
378.24	1691.62
378.45	1820.64
378.66	1646.57
378.87	1636.33
379.08	1632.23
379.29	1757.16
379.50	1757.16
379.71	1671.14
379.91	1730.53
380.12	1697.77
380.33	1773.54
380.54	1587.18
380.75	1748.97
380.96	1654.76
381.17	1738.73
381.38	1699.81
381.59	1720.29
381.80	1701.86
382.00	1861.60
382.21	1800.16
382.42	1832.93
382.63	1884.13
382.84	1732.58
383.05	1775.59
383.26	1783.78
383.47	1761.25
383.68	1759.21
383.88	1722.34
384.09	1701.86
384.30	1828.84
384.51	1814.50
384.72	1757.16
384.93	1636.33
385.14	1683.43
385.35	1757.16
385.55	1644.52
385.76	1875.94
385.97	1677.29
386.18	1648.61
386.39	1705.96
386.60	1746.92
386.81	1691.62
387.02	1660.90
387.22	1738.73
387.43	1796.07
387.64	1841.12
387.85	1910.75
388.06	2176.99
388.27	4331.45
388.48	6856.60
388.68	8359.81
388.89	9652.08
389.10	9785.19
389.31	8601.47
389.52	7550.86
389.73	6733.72
389.93	6211.49
390.14	5924.77
390.35	5230.51
390.56	4536.25
390.77	3860.42
390.98	3098.58
391.18	2549.72
391.39	2142.18
391.60	1804.26
391.81	1845.22
392.02	1726.44
392.23	1877.99
392.43	1781.73
392.64	1808.36
392.85	1714.15
393.06	1806.31
393.27	1720.29
393.47	1669.09
393.68	1753.06
393.89	1675.24
394.10	1798.12
394.31	1724.39
394.52	1681.38
394.72	1699.81
394.93	1804.26
395.14	1644.52
395.35	1832.93
395.56	1665.00
395.76	1751.01
395.97	1751.01
396.18	1767.40
396.39	1873.89
396.60	2060.26
396.80	1828.84
397.01	1851.36
397.22	1888.23
397.43	1877.99
397.64	1726.44
397.84	1826.79
398.05	1871.84
398.26	1720.29
398.47	1839.08
398.67	1845.22
398.88	1763.30
399.09	1712.10
399.30	1656.81
399.51	1730.53
399.71	1724.39
399.92	1714.15
400.13	1710.05
400.34	1689.57
400.54	1708.01
400.75	1804.26
400.96	1708.01
401.17	1757.16
401.37	1699.81
401.58	1667.05
401.79	1761.25
402.00	1929.19
402.21	2027.49
402.41	1994.72
402.62	1945.57
402.83	2050.02
403.04	1937.38
403.24	2148.32
403.45	1859.56
403.66	1828.84
403.87	1886.18
404.07	1888.23
404.28	1888.23
404.49	1892.32
404.70	1830.88
404.90	1753.06
405.11	1814.50
405.32	1806.31
405.52	1677.29
405.73	1658.85
405.94	1634.28
406.15	1783.78
406.35	1783.78
406.56	1763.30
406.77	1834.98
406.98	1755.11
407.18	1636.33
407.39	1771.49
407.60	1738.73
407.80	1742.82
408.01	1669.09
408.22	1757.16
408.43	1683.43
408.63	1710.05
408.84	1675.24
409.05	1710.05
409.25	1771.49
409.46	1705.96
409.67	1621.99
409.88	1669.09
410.08	1632.23
410.29	1695.72
410.50	1685.48
410.70	1783.78
410.91	1644.52
411.12	1843.17
411.32	1769.44
411.53	1648.61
411.74	1791.97
411.95	1728.49
412.15	1695.72
412.36	1728.49
412.57	1753.06
412.77	1820.64
412.98	1685.48
413.19	1681.38
413.39	1740.77
413.60	1779.68
413.81	1839.08
414.01	1718.25
414.22	1779.68
414.43	1732.58
414.63	1718.25
414.84	1785.83
415.05	1681.38
415.25	1634.28
415.46	1773.54
415.67	1738.73
415.87	1746.92
416.08	1650.66
416.29	1619.94
416.49	1751.01
416.70	1687.53
416.91	1703.91
417.11	1746.92
417.32	1771.49
417.53	1689.57
417.73	1751.01
417.94	1751.01
418.15	1761.25
418.35	1761.25
418.56	1695.72
418.77	1912.80
418.97	1685.48
419.18	1751.01
419.38	1607.66
419.59	1734.63
419.80	1755.11
420.00	1714.15
420.21	1814.50
420.42	1779.68
420.62	1767.40
420.83	1722.34
421.04	1693.67
421.24	1742.82
421.45	1763.30
421.65	1699.81
421.86	1746.92
422.07	1798.12
422.27	1658.85
422.48	1742.82
422.69	1728.49
422.89	1652.71
423.10	1746.92
423.30	1626.09
423.51	1697.77
423.72	1673.19
423.92	1759.21
424.13	1728.49
424.33	1738.73
424.54	1759.21
424.75	1681.38
424.95	1787.88
425.16	1691.62
425.36	1669.09
425.57	1798.12
425.78	1779.68
425.98	1787.88
426.19	1720.29
426.39	1687.53
426.60	1712.10
426.81	1828.84
427.01	1765.35
427.22	1634.28
427.42	1599.46
427.63	1542.12
427.83	1818.60
428.04	1877.99
428.25	1783.78
428.45	1820.64
428.66	1712.10
428.86	1699.81
429.07	1675.24
429.28	1751.01
429.48	1638.38
429.69	1658.85
429.89	1701.86
430.10	1689.57
430.30	1763.30
430.51	1794.02
430.71	1763.30
430.92	1718.25
431.13	1671.14
431.33	1742.82
431.54	1722.34
431.74	1832.93
431.95	1777.64
432.15	1679.33
432.36	1794.02
432.56	1736.68
432.77	1726.44
432.98	1841.12
433.18	1765.35
433.39	1673.19
433.59	1683.43
433.80	1839.08
434.00	1925.09
434.21	1736.68
434.41	1685.48
434.62	1910.75
434.82	1658.85
435.03	1665.00
435.23	1722.34
435.44	1591.27
435.64	1730.53
435.85	1748.97
436.06	1681.38
436.26	1748.97
436.47	1722.34
436.67	1683.43
436.88	1753.06
437.08	1804.26
437.29	1843.17
437.49	1746.92
437.70	1818.60
437.90	1761.25
438.11	1843.17
438.31	1808.36
438.52	1861.60
438.72	1871.84
438.93	1908.71
439.13	1865.70
439.34	1859.56
439.54	1812.45
439.75	1812.45
439.95	1701.86
440.16	1771.49
440.36	1753.06
440.57	1824.74
440.77	1771.49
440.98	1775.59
441.18	1773.54
441.39	1714.15
441.59	1648.61
441.80	1912.80
442.00	1861.60
442.21	1820.64
442.41	1650.66
442.62	1837.03
442.82	1705.96
443.02	1734.63
443.23	1730.53
443.43	1767.40
443.64	1781.73
443.84	1691.62
444.05	1822.69
444.25	1769.44
444.46	1697.77
444.66	1884.13
444.87	1814.50
445.07	1685.48
445.28	1746.92
445.48	1742.82
445.69	1796.07
445.89	1902.56
446.09	1798.12
446.30	2013.15
446.50	2695.13
446.71	3817.41
446.91	4231.10
447.12	4829.11
447.32	4782.01
447.53	4433.85
447.73	3844.04
447.93	3549.13
448.14	3344.33
448.34	3235.79
448.55	3014.61
448.75	2871.25
448.96	2713.56
449.16	2435.03
449.36	2258.91
449.57	1978.34
449.77	1837.03
449.98	1820.64
450.18	1765.35
450.39	1832.93
450.59	1886.18
450.79	1699.81
451.00	1744.87
451.20	1808.36
451.41	1785.83
451.61	1767.40
451.81	1777.64
452.02	1660.90
452.22	1728.49
452.43	1759.21
452.63	1742.82
452.84	1714.15
453.04	1787.88
453.24	1781.73
453.45	1710.05
453.65	1785.83
453.86	1789.92
454.06	1712.10
454.26	1718.25
454.47	1712.10
454.67	1814.50
454.87	1734.63
455.08	1740.77
455.28	1845.22
455.49	1791.97
455.69	1697.77
455.89	1861.60
456.10	1806.31
456.30	1748.97
456.51	1800.16
456.71	1734.63
456.91	1814.50
457.12	1677.29
457.32	1798.12
457.52	1703.91
457.73	1767.40
457.93	1832.93
458.14	1742.82
458.34	1636.33
458.54	1716.20
458.75	1718.25
458.95	1832.93
459.15	1765.35
459.36	1810.40
459.56	1748.97
459.76	1910.75
459.97	1697.77
460.17	1753.06
460.37	1742.82
460.58	1697.77
460.78	1794.02
460.99	1693.67
461.19	1734.63
461.39	1681.38
461.60	1671.14
461.80	1773.54
462.00	1710.05
462.21	1710.05
462.41	1640.42
462.61	1712.10
462.82	1585.13
463.02	1746.92
463.22	1740.77
463.43	1771.49
463.63	1757.16
463.83	1802.21
464.04	1763.30
464.24	1757.16
464.44	1634.28
464.64	1753.06
464.85	1708.01
465.05	1808.36
465.25	1779.68
465.46	1740.77
465.66	1716.20
465.86	1773.54
466.07	1677.29
466.27	1718.25
466.47	1679.33
466.68	1658.85
466.88	1845.22
467.08	1765.35
467.29	1814.50
467.49	1785.83
467.69	1734.63
467.89	1716.20
468.10	1703.91
468.30	1767.40
468.50	1814.50
468.71	1746.92
468.91	1665.00
469.11	1873.89
469.31	1769.44
469.52	1699.81
469.72	1847.27
469.92	1822.69
470.13	1761.25
470.33	1705.96
470.53	1802.21
470.73	2093.02
470.94	2303.96
471.14	2281.44
471.34	2578.39
471.54	2432.99
471.75	2197.47
471.95	2107.36
472.15	2158.56
472.36	2160.61
472.56	2097.12
472.76	1982.43
472.96	2007.01
473.17	1916.90
473.37	1984.48
473.57	1884.13
473.77	1894.37
473.98	1818.60
474.18	1716.20
474.38	1875.94
474.58	1761.25
474.79	1787.88
474.99	1783.78
475.19	1812.45
475.39	1679.33
475.60	1820.64
475.80	1734.63
476.00	1757.16
476.20	1714.15
476.41	1734.63
476.61	1787.88
476.81	1757.16
477.01	1738.73
477.21	1841.12
477.42	1865.70
477.62	1687.53
477.82	1789.92
478.02	1677.29
478.23	1845.22
478.43	1697.77
478.63	1675.24
478.83	1771.49
479.03	1705.96
479.24	1814.50
479.44	1822.69
479.64	1726.44
479.84	1542.12
480.04	1636.33
480.25	1822.69
480.45	1675.24
480.65	1665.00
480.85	1759.21
481.06	1662.95
481.26	1761.25
481.46	1769.44
481.66	1708.01
481.86	1681.38
482.06	1759.21
482.27	1699.81
482.47	1718.25
482.67	1724.39
482.87	1751.01
483.07	1822.69
483.28	1681.38
483.48	1693.67
483.68	1726.44
483.88	1746.92
484.08	1617.90
484.29	1710.05
484.49	1699.81
484.69	1714.15
484.89	1771.49
485.09	1763.30
485.29	1753.06
485.50	1722.34
485.70	1724.39
485.90	1822.69
486.10	1732.58
486.30	1773.54
486.50	1722.34
486.71	1728.49
486.91	1789.92
487.11	1783.78
487.31	1658.85
487.51	1841.12
487.71	1703.91
487.91	1601.51
488.12	1679.33
488.32	1613.80
488.52	1681.38
488.72	1685.48
488.92	1689.57
489.12	1812.45
489.32	1796.07
489.53	1738.73
489.73	1669.09
489.93	1824.74
490.13	1658.85
490.33	1648.61
490.53	1763.30
490.73	1783.78
490.94	1693.67
491.14	1730.53
491.34	1873.89
491.54	2115.55
491.74	2570.20
491.94	2856.92
492.14	3108.82
492.34	3016.66
492.54	2805.72
492.75	2539.48
492.95	2420.70
493.15	2361.31
493.35	2332.64
493.55	2287.58
493.75	2193.37
493.95	2103.26
494.15	2093.02
494.35	1904.61
494.56	1841.12
494.76	1785.83
494.96	1802.21
495.16	1798.12
495.36	1671.14
495.56	1728.49
495.76	1753.06
495.96	1699.81
496.16	1791.97
496.36	1839.08
496.56	1693.67
496.77	1734.63
496.97	1714.15
497.17	1781.73
497.37	1681.38
497.57	1751.01
497.77	1677.29
497.97	1693.67
498.17	1738.73
498.37	1722.34
498.57	1740.77
498.77	1714.15
498.97	1699.81
499.17	1865.70
499.38	1761.25
499.58	1822.69
499.78	1781.73
499.98	1804.26
500.18	1705.96
500.38	1744.87
500.58	1933.28
500.78	2613.21
500.98	4655.03
501.18	5824.42
501.38	6715.29
501.58	7204.75
501.78	6782.87
501.98	5496.75
502.18	5007.28
502.38	4476.86
502.58	4235.20
502.78	3872.71
502.98	3760.07
503.18	3608.52
503.38	3248.08
503.59	2871.25
503.79	2731.99
503.99	2471.90
504.19	2340.83
504.39	2299.87
504.59	2222.05
504.79	2099.17
504.99	2090.98
505.19	1894.37
505.39	1990.63
505.59	1978.34
505.79	1935.33
505.99	1845.22
506.19	1798.12
506.39	1906.66
506.59	1773.54
506.79	1773.54
506.99	1773.54
507.19	1781.73
507.39	1738.73
507.59	1681.38
507.79	1736.68
507.99	1601.51
508.19	1736.68
508.39	1738.73
508.59	1767.40
508.79	1834.98
508.99	1828.84
509.19	1660.90
509.39	1804.26
509.59	1708.01
509.79	1714.15
509.99	1748.97
510.19	1816.55
510.39	1785.83
510.59	1804.26
510.79	1689.57
510.99	1665.00
511.19	1708.01
511.39	1761.25
511.59	1759.21
511.79	1847.27
511.99	1771.49
512.19	1779.68
512.38	1734.63
512.58	1730.53
512.78	1789.92
512.98	1796.07
513.18	1791.97
513.38	1650.66
513.58	1828.84
513.78	1746.92
513.98	1757.16
514.18	1828.84
514.38	1728.49
514.58	1748.97
514.78	1714.15
514.98	1736.68
515.18	1691.62
515.38	1679.33
515.58	1814.50
515.78	1712.10
515.98	1669.09
516.18	1726.44
516.38	1783.78
516.57	1632.23
516.77	1726.44
516.97	1771.49
517.17	1669.09
517.37	1654.76
517.57	1779.68
517.77	1837.03
517.97	1714.15
518.17	1837.03
518.37	1724.39
518.57	1755.11
518.77	1677.29
518.97	1703.91
519.16	1798.12
519.36	1816.55
519.56	1656.81
519.76	1714.15
519.96	1771.49
520.16	1806.31
520.36	1628.14
520.56	1781.73
520.76	1665.00
520.96	1708.01
521.16	1761.25
521.35	1777.64
521.55	1724.39
521.75	1712.10
521.95	1718.25
522.15	1683.43
522.35	1656.81
522.55	1644.52
522.75	1712.10
522.95	1712.10
523.14	1720.29
523.34	1775.59
523.54	1738.73
523.74	1794.02
523.94	1751.01
524.14	1722.34
524.34	1734.63
524.54	1839.08
524.73	1695.72
524.93	1748.97
525.13	1767.40
525.33	1728.49
525.53	1869.80
525.73	1820.64
525.93	1763.30
526.13	1734.63
526.32	1628.14
526.52	1775.59
526.72	1804.26
526.92	1732.58
527.12	1718.25
527.32	1697.77
527.52	1712.10
527.71	1820.64
527.91	1720.29
528.11	1681.38
528.31	1708.01
528.51	1689.57
528.71	1763.30
528.90	1753.06
529.10	1822.69
529.30	1822.69
529.50	1619.94
529.70	1800.16
529.90	1722.34
530.09	1734.63
530.29	1632.23
530.49	1642.47
530.69	1845.22
530.89	1669.09
531.09	1718.25
531.28	1726.44
531.48	1775.59
531.68	1740.77
531.88	1810.40
532.08	1841.12
532.28	1765.35
532.47	1746.92
532.67	1812.45
532.87	1746.92
533.07	1728.49
533.27	1746.92
533.46	1767.40
533.66	1771.49
533.86	1763.30
534.06	1763.30
534.26	1748.97
534.45	1746.92
534.65	1773.54
534.85	1724.39
535.05	1767.40
535.25	1822.69
535.44	1703.91
535.64	1818.60
535.84	1730.53
536.04	1714.15
536.24	1656.81
536.43	1722.34
536.63	1779.68
536.83	1701.86
537.03	1802.21
537.22	1753.06
537.42	1687.53
537.62	1779.68
537.82	1656.81
538.02	1789.92
538.21	1871.84
538.41	1976.29
538.61	1775.59
538.81	1656.81
539.00	1791.97
539.20	1724.39
539.40	1701.86
539.60	1724.39
539.79	1828.84
539.99	1734.63
540.19	1677.29
540.39	1740.77
540.58	1746.92
540.78	1849.32
540.98	1708.01
541.18	1847.27
541.37	1812.45
541.57	1740.77
541.77	1791.97
541.97	1662.95
542.16	1658.85
542.36	1693.67
542.56	1814.50
542.76	1826.79
542.95	1705.96
543.15	1744.87
543.35	1755.11
543.54	1681.38
543.74	1714.15
543.94	1865.70
544.14	1742.82
544.33	1728.49
544.53	1781.73
544.73	1765.35
544.93	1724.39
545.12	1656.81
545.32	1800.16
545.52	1718.25
545.71	1624.04
545.91	1714.15
546.11	1716.20
546.30	1712.10
546.50	1714.15
546.70	1775.59
546.90	1755.11
547.09	1665.00
547.29	1730.53
547.49	1802.21
547.68	1794.02
547.88	1720.29
548.08	1714.15
548.27	2166.75
548.47	1691.62
548.67	1613.80
548.87	1800.16
549.06	1794.02
549.26	1744.87
549.46	1730.53
549.65	1710.05
549.85	1726.44
550.05	1806.31
550.24	1718.25
550.44	1787.88
550.64	1718.25
550.83	1794.02
551.03	1880.04
551.23	1781.73
551.42	1773.54
551.62	1783.78
551.82	1730.53
552.01	1763.30
552.21	1798.12
552.41	1767.40
552.60	1751.01
552.80	1755.11
553.00	1720.29
553.19	1800.16
553.39	1857.51
553.59	1722.34
553.78	1773.54
553.98	1810.40
554.17	1654.76
554.37	1689.57
554.57	1794.02
554.76	1697.77
554.96	1755.11
555.16	1744.87
555.35	1777.64
555.55	1783.78
555.75	1816.55
555.94	1812.45
556.14	1708.01
556.33	1890.28
556.53	1806.31
556.73	1765.35
556.92	1712.10
557.12	1859.56
557.32	1757.16
557.51	1875.94
557.71	1861.60
557.90	1880.04
558.10	1798.12
558.30	1685.48
558.49	1748.97
558.69	1730.53
558.88	1775.59
559.08	1685.48
559.28	1767.40
559.47	1728.49
559.67	1834.98
559.86	1896.42
560.06	1753.06
560.26	1755.11
560.45	1755.11
560.65	1781.73
560.84	1812.45
561.04	1730.53
561.24	1771.49
561.43	1671.14
561.63	1824.74
561.82	1742.82
562.02	1828.84
562.22	1662.95
562.41	1693.67
562.61	1724.39
562.80	1679.33
563.00	1828.84
563.19	1800.16
563.39	1748.97
563.59	1816.55
563.78	1693.67
563.98	1628.14
564.17	1703.91
564.37	1626.09
564.56	1779.68
564.76	1685.48
564.96	1757.16
565.15	1824.74
565.35	1894.37
565.54	1767.40
565.74	1794.02
565.93	1812.45
566.13	1679.33
566.32	1818.60
566.52	1718.25
566.71	1761.25
566.91	1761.25
567.11	1769.44
567.30	1724.39
567.50	1783.78
567.69	1775.59
567.89	1724.39
568.08	1654.76
568.28	1789.92
568.47	1669.09
568.67	1796.07
568.86	1701.86
569.06	1757.16
569.25	1714.15
569.45	1652.71
569.64	1708.01
569.84	1667.05
570.04	1761.25
570.23	1697.77
570.43	1796.07
570.62	1705.96
570.82	1849.32
571.01	1728.49
571.21	1746.92
571.40	1755.11
571.60	1769.44
571.79	1783.78
571.99	1781.73
572.18	1683.43
572.38	1765.35
572.57	1712.10
572.77	1802.21
572.96	1898.47
573.16	1771.49
573.35	1724.39
573.55	1804.26
573.74	1712.10
573.94	1669.09
574.13	1757.16
574.33	1775.59
574.52	1822.69
574.71	1757.16
574.91	1753.06
575.10	1624.04
575.30	1789.92
575.49	1714.15
575.69	1712.10
575.88	1812.45
576.08	1685.48
576.27	1726.44
576.47	1714.15
576.66	1783.78
576.86	1832.93
577.05	1820.64
577.25	1763.30
577.44	1884.13
577.64	1703.91
577.83	1796.07
578.02	1726.44
578.22	1789.92
578.41	1843.17
578.61	1744.87
578.80	1773.54
579.00	1814.50
579.19	1703.91
579.39	1755.11
579.58	1781.73
579.77	1763.30
579.97	1814.50
580.16	1800.16
580.36	1828.84
580.55	1826.79
580.75	1777.64
580.94	1814.50
581.13	1837.03
581.33	1882.08
581.52	1785.83
581.72	1812.45
581.91	1884.13
582.11	1656.81
582.30	1837.03
582.49	1785.83
582.69	1769.44
582.88	1804.26
583.08	1679.33
583.27	1777.64
583.47	1738.73
583.66	1691.62
583.85	1699.81
584.05	1794.02
584.24	1820.64
584.44	1759.21
584.63	1785.83
584.82	1837.03
585.02	1824.74
585.21	1845.22
585.41	1845.22
585.60	1869.80
585.79	1920.99
585.99	1927.14
586.18	1855.46
586.37	2176.99
586.57	3407.82
586.76	9897.83
586.96	24616.58
587.15	34485.75
587.34	40740.24
587.54	42116.48
587.73	36781.52
587.93	26648.17
588.12	21690.04
588.31	18519.78
588.51	16606.98
588.70	15314.71
588.89	14184.23
589.09	12588.86
589.28	10956.63
589.47	9439.09
589.67	8025.99
589.86	6399.90
590.06	4933.56
590.25	3905.48
590.44	3164.11
590.64	2574.30
590.83	2191.33
591.02	2080.74
591.22	1935.33
591.41	1910.75
591.60	1785.83
591.80	1906.66
591.99	1748.97
592.18	1779.68
592.38	1820.64
592.57	1679.33
592.76	1826.79
592.96	1775.59
593.15	1798.12
593.34	1839.08
593.54	1826.79
593.73	1738.73
593.92	1794.02
594.12	1785.83
594.31	1695.72
594.50	1820.64
594.70	1888.23
594.89	1931.23
595.08	1681.38
595.28	1794.02
595.47	1861.60
595.66	1814.50
595.86	1757.16
596.05	1718.25
596.24	1648.61
596.43	1863.65
596.63	1771.49
596.82	1751.01
597.01	1734.63
597.21	1751.01
597.40	1691.62
597.59	1730.53
597.79	1695.72
597.98	1777.64
598.17	1789.92
598.36	1804.26
598.56	1763.30
598.75	1751.01
598.94	1791.97
599.14	1789.92
599.33	1763.30
599.52	1771.49
599.71	1791.97
599.91	1839.08
600.10	1824.74
600.29	1767.40
600.48	1798.12
600.68	1826.79
600.87	1693.67
601.06	1685.48
601.26	1769.44
601.45	1761.25
601.64	1751.01
601.83	1839.08
602.03	1771.49
602.22	1675.24
602.41	1765.35
602.60	1937.38
602.80	1744.87
602.99	1728.49
603.18	1736.68
603.37	1742.82
603.57	1748.97
603.76	1822.69
603.95	1826.79
604.14	1699.81
604.34	1732.58
604.53	1726.44
604.72	1777.64
604.91	1730.53
605.10	1853.41
605.30	1708.01
605.49	1882.08
605.68	1839.08
605.87	1789.92
606.07	1740.77
606.26	1734.63
606.45	1802.21
606.64	1701.86
606.84	1636.33
607.03	1722.34
607.22	1828.84
607.41	1669.09
607.60	1642.47
607.80	1732.58
607.99	1738.73
608.18	1828.84
608.37	1773.54
608.56	1775.59
608.76	1834.98
608.95	1892.32
609.14	1806.31
609.33	1755.11
609.52	1787.88
609.72	1781.73
609.91	1787.88
610.10	1765.35
610.29	1822.69
610.48	1738.73
610.68	1779.68
610.87	1697.77
611.06	1773.54
611.25	1746.92
611.44	1810.40
611.63	1734.63
611.83	1798.12
612.02	1626.09
612.21	1822.69
612.40	1681.38
612.59	1744.87
612.79	1724.39
612.98	1662.95
613.17	1794.02
613.36	1716.20
613.55	1796.07
613.74	1732.58
613.93	1744.87
614.13	1783.78
614.32	1777.64
614.51	1798.12
614.70	1703.91
614.89	1761.25
615.08	1732.58
615.28	2007.01
615.47	1630.18
615.66	1787.88
615.85	1712.10
616.04	1832.93
616.23	1789.92
616.42	1732.58
616.62	1755.11
616.81	1777.64
617.00	1800.16
617.19	1697.77
617.38	1765.35
617.57	1775.59
617.76	1806.31
617.95	1796.07
618.15	1757.16
618.34	1896.42
618.53	1624.04
618.72	1845.22
618.91	1820.64
619.10	1851.36
619.29	1746.92
619.48	1687.53
619.68	1660.90
619.87	1687.53
620.06	1699.81
620.25	1796.07
620.44	1732.58
620.63	1783.78
620.82	1787.88
621.01	1648.61
621.20	1785.83
621.39	1779.68
621.59	1802.21
621.78	1826.79
621.97	1746.92
622.16	1845.22
622.35	1710.05
622.54	1777.64
622.73	1877.99
622.92	1763.30
623.11	1734.63
623.30	1701.86
623.49	1755.11
623.68	1740.77
623.88	1753.06
624.07	1730.53
624.26	1689.57
624.45	1802.21
624.64	1789.92
624.83	1763.30
625.02	1794.02
625.21	1716.20
625.40	1656.81
625.59	1886.18
625.78	1728.49
625.97	1769.44
626.16	1734.63
626.35	1779.68
626.54	1665.00
626.74	1822.69
626.93	1710.05
627.12	1705.96
627.31	1728.49
627.50	1787.88
627.69	1767.40
627.88	1730.53
628.07	1699.81
628.26	1642.47
628.45	1697.77
628.64	1656.81
628.83	1740.77
629.02	1538.02
629.21	1705.96
629.40	1814.50
629.59	1665.00
629.78	1636.33
629.97	1775.59
630.16	1691.62
630.35	1710.05
630.54	1714.15
630.73	1697.77
630.92	1714.15
631.11	1636.33
631.30	1697.77
631.49	1763.30
631.68	1748.97
631.87	1755.11
632.06	1636.33
632.25	1798.12
632.44	1712.10
632.63	1796.07
632.82	1677.29
633.01	1646.57
633.20	1742.82
633.39	1716.20
633.58	1621.99
633.77	1705.96
633.96	1697.77
634.15	1812.45
634.34	1730.53
634.53	1669.09
634.72	1621.99
634.91	1675.24
635.10	1683.43
635.29	1757.16
635.48	1763.30
635.67	1697.77
635.86	1632.23
636.05	1767.40
636.24	1648.61
636.43	1820.64
636.62	1796.07
636.81	1601.51
637.00	1701.86
637.19	1785.83
637.38	1697.77
637.57	1755.11
637.76	1628.14
637.95	1712.10
638.14	1699.81
638.33	1677.29
638.52	1701.86
638.71	1726.44
638.89	1640.42
639.08	1861.60
639.27	1744.87
639.46	1751.01
639.65	1785.83
639.84	1769.44
640.03	1763.30
640.22	1716.20
640.41	1853.41
640.60	1646.57
640.79	1736.68
640.98	1724.39
641.17	1751.01
641.36	1693.67
641.55	1783.78
641.74	1683.43
641.92	1699.81
642.11	1667.05
642.30	1722.34
642.49	1685.48
642.68	1662.95
642.87	1757.16
643.06	1767.40
643.25	1755.11
643.44	1705.96
643.63	1744.87
643.82	1746.92
644.00	1642.47
644.19	1787.88
644.38	1689.57
644.57	1724.39
644.76	1773.54
644.95	1724.39
645.14	1744.87
645.33	1712.10
645.52	1691.62
645.71	1636.33
645.89	1654.76
646.08	1773.54
646.27	1648.61
646.46	1851.36
646.65	1705.96
646.84	1669.09
647.03	1718.25
647.22	1845.22
647.40	1724.39
647.59	1710.05
647.78	1632.23
647.97	1718.25
648.16	1683.43
648.35	1806.31
648.54	1714.15
648.73	1703.91
648.91	1808.36
649.10	1720.29
649.29	1712.10
649.48	1699.81
649.67	1734.63
649.86	1755.11
650.05	1671.14
650.23	1779.68
650.42	1695.72
650.61	1705.96
650.80	1794.02
650.99	1882.08
651.18	1796.07
651.36	1751.01
651.55	1665.00
651.74	1783.78
651.93	1695.72
652.12	1748.97
652.31	1718.25
652.49	1742.82
652.68	1748.97
652.87	1761.25
653.06	1740.77
653.25	1777.64
653.44	1742.82
653.62	1841.12
653.81	1671.14
654.00	1730.53
654.19	1787.88
654.38	1939.43
654.56	1763.30
654.75	1619.94
654.94	1748.97
655.13	1775.59
655.32	1746.92
655.51	1769.44
655.69	1716.20
655.88	1738.73
656.07	1701.86
656.26	1767.40
656.45	1695.72
656.63	1748.97
656.82	1712.10
657.01	1755.11
657.20	1708.01
657.38	1816.55
657.57	1667.05
657.76	1673.19
657.95	1742.82
658.14	1701.86
658.32	1751.01
658.51	1720.29
658.70	1773.54
658.89	1769.44
659.08	1705.96
659.26	1763.30
659.45	1628.14
659.64	1765.35
659.83	1654.76
660.01	1920.99
660.20	1761.25
660.39	1802.21
660.58	1630.18
660.76	1777.64
660.95	1611.75
661.14	1787.88
661.33	1665.00
661.51	1705.96
661.70	1697.77
661.89	1656.81
662.08	1699.81
662.26	1634.28
662.45	1605.61
662.64	1849.32
662.83	1841.12
663.01	1665.00
663.20	1742.82
663.39	1810.40
663.58	1658.85
663.76	1703.91
663.95	1812.45
664.14	1710.05
664.32	1675.24
664.51	1716.20
664.70	1665.00
664.89	1773.54
665.07	1740.77
665.26	1783.78
665.45	1650.66
665.64	1691.62
665.82	1681.38
666.01	1761.25
666.20	1703.91
666.38	1822.69
666.57	1748.97
666.76	2207.71
666.95	4583.35
667.13	10710.88
667.32	15496.98
667.51	18075.37
667.69	19082.97
667.88	17843.95
668.07	12339.01
668.25	9557.87
668.44	8183.68
668.63	7522.19
668.81	6979.48
669.00	6332.32
669.19	5691.31
669.38	5109.68
669.56	4503.48
669.75	4130.75
669.94	3448.78
670.12	2760.66
670.31	2510.81
670.50	2312.16
670.68	2179.04
670.87	1865.70
671.06	1861.60
671.24	1787.88
671.43	1886.18
671.62	1714.15
671.80	1755.11
671.99	1755.11
672.18	1779.68
672.36	1783.78
672.55	1779.68
672.74	1689.57
672.92	1755.11
673.11	1736.68
673.29	1626.09
673.48	1808.36
673.67	1689.57
673.85	1824.74
674.04	1681.38
674.23	1763.30
674.41	1785.83
674.60	1689.57
674.79	1626.09
674.97	1703.91
675.16	1734.63
675.34	1791.97
675.53	1726.44
675.72	1695.72
675.90	1791.97
676.09	1677.29
676.28	1667.05
676.46	1617.90
676.65	1738.73
676.83	1724.39
677.02	1705.96
677.21	1708.01
677.39	1740.77
677.58	1677.29
677.77	1703.91
677.95	1691.62
678.14	1722.34
678.32	1712.10
678.51	1671.14
678.70	1861.60
678.88	1652.71
679.07	1773.54
679.25	1740.77
679.44	1794.02
679.63	1681.38
679.81	1695.72
680.00	1714.15
680.18	1761.25
680.37	1816.55
680.55	1701.86
680.74	1697.77
680.93	1650.66
681.11	1761.25
681.30	1728.49
681.48	1781.73
681.67	1683.43
681.85	1654.76
682.04	1687.53
682.23	1834.98
682.41	1726.44
682.60	1673.19
682.78	1705.96
682.97	1691.62
683.15	1748.97
683.34	1775.59
683.53	1810.40
683.71	1648.61
683.90	1820.64
684.08	1832.93
684.27	1683.43
684.45	1753.06
684.64	1785.83
684.82	1697.77
685.01	1771.49
685.19	1699.81
685.38	1777.64
685.57	1757.16
685.75	1658.85
685.94	1673.19
686.12	1681.38
686.31	1708.01
686.49	1796.07
686.68	1695.72
686.86	1710.05
687.05	1662.95
687.23	1798.12
687.42	1716.20
687.60	1662.95
687.79	1753.06
687.97	1781.73
688.16	1794.02
688.34	1751.01
688.53	1662.95
688.71	1701.86
688.90	1777.64
689.08	1675.24
689.27	1679.33
689.45	1796.07
689.64	1716.20
689.82	1859.56
690.01	1769.44
690.19	1665.00
690.38	1718.25
690.56	1771.49
690.75	1656.81
690.93	1654.76
691.12	1642.47
691.30	1738.73
691.49	1687.53
691.67	1736.68
691.86	1859.56
692.04	1677.29
692.23	1689.57
692.41	1681.38
692.60	1902.56
692.78	1699.81
692.97	1720.29
693.15	1757.16
693.34	1828.84
693.52	1783.78
693.71	1724.39
693.89	1701.86
694.08	1650.66
694.26	1837.03
694.44	1789.92
694.63	1773.54
694.81	1671.14
695.00	1697.77
695.18	1802.21
695.37	1832.93
695.55	1748.97
695.74	1734.63
695.92	1662.95
696.10	1771.49
696.29	1697.77
696.47	1665.00
696.66	1624.04
696.84	1650.66
697.03	1734.63
697.21	1880.04
697.40	2295.77
697.58	1794.02
697.76	1746.92
697.95	1689.57
698.13	1689.57
698.32	1710.05
698.50	1740.77
698.68	1796.07
698.87	1662.95
699.05	1794.02
699.24	1687.53
699.42	1695.72
699.61	1744.87
699.79	1701.86
699.97	1814.50
700.16	1740.77
700.34	1585.13
700.53	1734.63
700.71	1767.40
700.89	1728.49
701.08	1679.33
701.26	1697.77
701.45	2111.46
701.63	1697.77
701.81	1685.48
702.00	1650.66
702.18	1751.01
702.37	1640.42
702.55	1781.73
702.73	1720.29
702.92	1673.19
703.10	1660.90
703.28	1746.92
703.47	1632.23
703.65	1791.97
703.84	1687.53
704.02	1634.28
704.20	1798.12
704.39	1718.25
704.57	1705.96
704.75	1822.69
704.94	1714.15
705.12	1744.87
705.30	1789.92
705.49	2338.78
705.67	4470.72
705.86	9510.77
706.04	12635.97
706.22	14698.27
706.41	15222.55
706.59	13592.37
706.77	9523.05
706.96	7509.90
707.14	6592.41
707.32	5932.97
707.51	5609.39
707.69	4995.00
707.87	4313.02
708.06	3459.02
708.24	2942.93
708.42	2449.37
708.61	2279.39
708.79	1896.42
708.97	1828.84
709.16	1847.27
709.34	1796.07
709.52	1705.96
709.71	1638.38
709.89	1767.40
710.07	1697.77
710.26	1718.25
710.44	1757.16
710.62	1748.97
710.80	1748.97
710.99	1755.11
711.17	1767.40
711.35	1693.67
711.54	1726.44
711.72	1837.03
711.90	1794.02
712.09	1705.96
712.27	1734.63
712.45	1794.02
712.63	1683.43
712.82	1703.91
713.00	1685.48
713.18	1714.15
713.37	1771.49
713.55	1781.73
713.73	1683.43
713.91	1730.53
714.10	1685.48
714.28	1681.38
714.46	1710.05
714.65	1785.83
714.83	1624.04
715.01	1710.05
715.19	1634.28
715.38	1691.62
715.56	1748.97
715.74	1683.43
715.92	1667.05
716.11	1822.69
716.29	1658.85
716.47	1767.40
716.65	1705.96
716.84	1665.00
717.02	1761.25
717.20	1677.29
717.38	1744.87
717.57	1720.29
717.75	1763.30
717.93	1718.25
718.11	1757.16
718.30	1646.57
718.48	1798.12
718.66	1800.16
718.84	1804.26
719.03	1791.97
719.21	1665.00
719.39	1945.57
719.57	1810.40
719.75	1734.63
719.94	1689.57
720.12	1695.72
720.30	1748.97
720.48	1708.01
720.67	1685.48
720.85	1691.62
721.03	1628.14
721.21	1636.33
721.39	1810.40
721.58	1742.82
721.76	1683.43
721.94	1705.96
722.12	1683.43
722.30	1689.57
722.49	1673.19
722.67	1732.58
722.85	1734.63
723.03	1662.95
723.21	1683.43
723.40	1714.15
723.58	1767.40
723.76	1742.82
723.94	1736.68
724.12	1781.73
724.30	1761.25
724.49	1677.29
724.67	1628.14
724.85	1804.26
725.03	1605.61
725.21	1804.26
725.40	1767.40
725.58	1658.85
725.76	1757.16
725.94	1755.11
726.12	1697.77
726.30	1767.40
726.49	1652.71
726.67	1730.53
726.85	1781.73
727.03	1814.50
727.21	2144.22
727.39	2920.40
727.57	3895.24
727.76	4227.01
727.94	4534.20
728.12	4478.91
728.30	3827.65
728.48	2971.60
728.66	2787.29
728.84	2508.76
729.03	2324.44
729.21	2189.28
729.39	1968.10
729.57	1853.41
729.75	1781.73
729.93	1837.03
730.11	1728.49
730.30	1755.11
730.48	1714.15
730.66	1814.50
730.84	1742.82
731.02	1716.20
731.20	1714.15
731.38	1708.01
731.56	1665.00
731.74	1697.77
731.93	1724.39
732.11	1732.58
732.29	1730.53
732.47	1800.16
732.65	1744.87
732.83	1843.17
733.01	1689.57
733.19	1662.95
733.37	1691.62
733.56	1708.01
733.74	1703.91
733.92	1753.06
734.10	1705.96
734.28	1736.68
734.46	1617.90
734.64	1652.71
734.82	1789.92
735.00	1708.01
735.18	1648.61
735.36	1660.90
735.54	1636.33
735.73	1701.86
735.91	1775.59
736.09	1753.06
736.27	1767.40
736.45	1734.63
736.63	1640.42
736.81	1705.96
736.99	1687.53
737.17	1720.29
737.35	1757.16
737.53	1685.48
737.71	1646.57
737.89	1787.88
738.07	1708.01
738.25	1701.86
738.43	1626.09
738.61	1736.68
738.80	1658.85
738.98	1751.01
739.16	1734.63
739.34	1669.09
739.52	1800.16
739.70	1755.11
739.88	1755.11
740.06	1798.12
740.24	1665.00
740.42	1791.97
740.60	1628.14
740.78	1773.54
740.96	1714.15
741.14	1665.00
741.32	1695.72
741.50	1656.81
741.68	1853.41
741.86	1796.07
742.04	1744.87
742.22	1726.44
742.40	1728.49
742.58	1794.02
742.76	1675.24
742.94	1710.05
743.12	1634.28
743.30	1759.21
743.48	1742.82
743.66	1632.23
743.84	1679.33
744.02	1738.73
744.20	1730.53
744.38	1705.96
744.56	1665.00
744.74	1830.88
744.92	1738.73
745.10	1730.53
745.28	1789.92
745.46	1789.92
745.64	1624.04
745.82	1771.49
746.00	1685.48
746.18	1695.72
746.36	1724.39
746.54	1710.05
746.72	1679.33
746.90	1648.61
747.08	1730.53
747.26	1624.04
747.44	1796.07
747.62	1746.92
747.80	1710.05
747.98	1724.39
748.15	1736.68
748.33	1810.40
748.51	1691.62
748.69	1855.46
748.87	1693.67
749.05	1621.99
749.23	1648.61
749.41	1755.11
749.59	1771.49
749.77	1693.67
749.95	1652.71
750.13	1656.81
750.31	1703.91
750.49	1654.76
750.67	1765.35
750.85	1873.89
751.03	1724.39
751.20	1808.36
751.38	1691.62
751.56	1740.77
751.74	1753.06
751.92	1753.06
752.10	1646.57
752.28	1732.58
752.46	1619.94
752.64	1687.53
752.82	1777.64
753.00	1757.16
753.18	1689.57
753.35	1675.24
753.53	1691.62
753.71	1652.71
753.89	1722.34
754.07	1726.44
754.25	1740.77
754.43	1697.77
754.61	1665.00
754.79	1691.62
754.97	1683.43
755.14	1791.97
755.32	1673.19
755.50	1656.81
755.68	1806.31
755.86	1626.09
756.04	1732.58
756.22	1628.14
756.40	1830.88
756.57	1843.17
756.75	1695.72
756.93	1771.49
757.11	1748.97
757.29	1652.71
757.47	1630.18
757.65	1630.18
757.82	1624.04
758.00	1744.87
758.18	1697.77
758.36	1697.77
758.54	1820.64
758.72	1638.38
758.90	1722.34
759.07	1687.53
759.25	1734.63
759.43	1773.54
759.61	1714.15
759.79	2133.98
759.97	1789.92
760.15	1701.86
760.32	1685.48
760.50	1769.44
760.68	1843.17
760.86	1665.00
761.04	1816.55
761.22	1740.77
761.39	1693.67
761.57	1712.10
761.75	1728.49
761.93	1761.25
762.11	1609.70
762.28	1738.73
762.46	1667.05
762.64	1767.40
762.82	1683.43
763.00	1681.38
763.18	1775.59
763.35	1662.95
763.53	1695.72
763.71	1683.43
763.89	1714.15
764.07	1720.29
764.24	1710.05
764.42	1812.45
764.60	1642.47
764.78	1685.48
764.96	1746.92
765.13	1718.25
765.31	1744.87
765.49	1701.86
765.67	1648.61
765.84	1648.61
766.02	1720.29
766.20	1695.72
766.38	1771.49
766.56	1726.44
766.73	1746.92
766.91	1777.64
767.09	1718.25
767.27	1791.97
767.44	1621.99
767.62	1775.59
767.80	1710.05
767.98	1656.81
768.15	1701.86
768.33	1779.68
768.51	1775.59
768.69	1757.16
768.87	1718.25
769.04	1728.49
769.22	1816.55
769.40	1886.18
769.58	1957.86
769.75	1781.73
769.93	1822.69
770.11	1730.53
770.28	1607.66
770.46	1705.96
770.64	1687.53
770.82	1742.82
770.99	1671.14
771.17	1679.33
771.35	1652.71
771.53	1624.04
771.70	1679.33
771.88	1753.06
772.06	1699.81
772.23	1732.58
772.41	1716.20
772.59	1677.29
772.77	1626.09
772.94	1722.34
773.12	1724.39
773.30	1712.10
773.47	1722.34
773.65	1716.20
773.83	1798.12
774.01	1740.77
774.18	1597.42
774.36	1658.85
774.54	1634.28
774.71	1693.67
774.89	1650.66
775.07	1679.33
775.24	1720.29
775.42	1728.49
775.60	1740.77
775.78	1714.15
775.95	1689.57
776.13	1593.32
776.31	1607.66
776.48	1695.72
776.66	1771.49
776.84	1656.81
777.01	1740.77
777.19	1714.15
777.37	1789.92
777.54	1777.64
777.72	1865.70
777.90	1722.34
778.07	1662.95
778.25	1931.23
778.43	1746.92
778.60	1714.15
778.78	1798.12
778.96	1693.67
779.13	1593.32
779.31	1699.81
779.49	1763.30
779.66	1701.86
779.84	1712.10
780.01	1718.25
780.19	1673.19
780.37	1769.44
780.54	1740.77
780.72	1675.24
780.90	1738.73
781.07	1658.85
781.25	1703.91
781.43	1830.88
781.60	1697.77
781.78	1740.77
781.95	1722.34
782.13	1716.20
782.31	1771.49
782.48	1626.09
782.66	1701.86
782.83	1857.51
783.01	1748.97
783.19	1775.59
783.36	1673.19
783.54	1638.38
783.72	1789.92
783.89	1689.57
784.07	1738.73
784.24	1681.38
784.42	1777.64
784.60	1738.73
784.77	1705.96
784.95	1677.29
785.12	1624.04
785.30	1695.72
785.47	1689.57
785.65	1662.95
785.83	1638.38
786.00	1722.34
786.18	1665.00
786.35	1695.72
786.53	1693.67
786.71	1769.44
786.88	1695.72
787.06	1769.44
787.23	1673.19
787.41	1626.09
787.58	1712.10
787.76	1691.62
787.94	1796.07
788.11	1753.06
788.29	1652.71
788.46	1697.77
788.64	1587.18
788.81	1675.24
788.99	1671.14
789.16	1683.43
789.34	1771.49
789.52	1642.47
789.69	1644.52
789.87	1578.98
790.04	1599.46
790.22	1714.15
790.39	1806.31
790.57	1695.72
790.74	1578.98
790.92	1736.68
791.09	1642.47
791.27	1675.24
791.44	1824.74
791.62	1697.77
791.79	1785.83
791.97	1644.52
792.15	1871.84
792.32	1763.30
792.50	1746.92
792.67	1796.07
792.85	1791.97
793.02	1665.00
793.20	1697.77
793.37	1708.01
793.55	1689.57
793.72	1578.98
793.90	1767.40
794.07	1693.67
794.25	1638.38
794.42	1644.52
794.60	1646.57
794.77	1736.68
794.95	1714.15
795.12	1732.58
795.30	1697.77
795.47	1607.66
795.65	1916.90
795.82	1734.63
796.00	1683.43
796.17	1722.34
796.34	1777.64
796.52	1656.81
796.69	1810.40
796.87	1775.59
797.04	1724.39
797.22	1669.09
797.39	1710.05
797.57	1816.55
797.74	1708.01
797.92	1744.87
798.09	1708.01
798.27	1816.55
798.44	1718.25
798.62	1677.29
798.79	1777.64
798.96	1697.77
799.14	1710.05
799.31	1814.50
799.49	1656.81
799.66	1718.25
799.84	1701.86
800.01	1669.09
800.19	1665.00
800.36	1636.33
800.53	1767.40
800.71	1640.42
800.88	1781.73
801.06	1667.05
801.23	1683.43
801.41	1736.68
801.58	1669.09
801.75	1636.33
801.93	1697.77
802.10	1738.73
802.28	1679.33
802.45	1703.91
802.63	1734.63
802.80	1718.25
802.97	1652.71
803.15	1740.77
803.32	1669.09
803.50	1677.29
803.67	1665.00
803.84	1660.90
804.02	1671.14
804.19	1689.57
804.37	1556.46
804.54	1632.23
804.71	1619.94
804.89	1687.53
805.06	1652.71
805.24	1613.80
805.41	1701.86
805.58	1650.66
805.76	1841.12
805.93	1732.58
806.10	1804.26
806.28	1777.64
806.45	1660.90
806.63	1703.91
806.80	1769.44
806.97	1681.38
807.15	1773.54
807.32	1759.21
807.49	1724.39
807.67	1626.09
807.84	1689.57
808.01	1583.08
808.19	1828.84
808.36	1791.97
808.54	1726.44
808.71	1642.47
808.88	1732.58
809.06	1685.48
809.23	1814.50
809.40	1734.63
809.58	1804.26
809.75	1726.44
809.92	1615.85
810.10	1695.72
810.27	1673.19
810.44	1738.73
810.62	1697.77
810.79	1779.68
810.96	1636.33
811.14	1656.81
811.31	1734.63
811.48	1773.54
811.66	1755.11
811.83	1791.97
812.00	1759.21
812.18	1730.53
812.35	1796.07
812.52	1714.15
812.69	1665.00
812.87	1609.70
813.04	1689.57
813.21	1658.85
813.39	1687.53
813.56	1742.82
813.73	1777.64
813.91	1542.12
814.08	1738.73
814.25	1583.08
814.42	1587.18
814.60	1728.49
814.77	1669.09
814.94	1693.67
815.12	1763.30
815.29	1798.12
815.46	1658.85
815.63	1794.02
815.81	1652.71
815.98	1730.53
816.15	1687.53
816.33	1720.29
816.50	1740.77
816.67	1675.24
816.84	1626.09
817.02	1640.42
817.19	1660.90
817.36	1751.01
817.53	1724.39
817.71	1658.85
817.88	1753.06
818.05	1716.20
818.22	1654.76
818.40	1857.51
818.57	1640.42
818.74	1665.00
818.91	1742.82
819.09	1748.97
819.26	1763.30
819.43	1695.72
819.60	1755.11
819.78	1763.30
819.95	1794.02
820.12	1794.02
820.29	1730.53
820.47	1740.77
820.64	1732.58
820.81	1667.05
820.98	1675.24
821.15	1763.30
821.33	1685.48
821.50	1701.86
821.67	1673.19
821.84	1714.15
822.02	1652.71
822.19	1771.49
822.36	1646.57
822.53	1728.49
822.70	1667.05
822.88	1701.86
823.05	1765.35
823.22	1611.75
823.39	1767.40
823.56	1718.25
823.74	1796.07
823.91	1697.77
824.08	1650.66
824.25	1650.66
824.42	1839.08
824.60	1540.07
824.77	1712.10
824.94	1679.33
825.11	1697.77
825.28	1673.19
825.45	1656.81
825.63	1738.73
825.80	1677.29
825.97	1765.35
826.14	1699.81
826.31	1570.79
826.48	1695.72
826.66	1615.85
826.83	1746.92
827.00	1662.95
827.17	1636.33
827.34	1714.15
827.51	1708.01
827.69	1726.44
827.86	1619.94
828.03	1632.23
828.20	1767.40
828.37	1669.09
828.54	1718.25
828.71	1574.89
828.89	1832.93
829.06	1703.91
829.23	1726.44
829.40	1730.53
829.57	1667.05
829.74	1816.55
829.91	1650.66
830.09	1669.09
830.26	1697.77
830.43	1781.73
830.60	1751.01
830.77	1755.11
830.94	1814.50
831.11	1738.73
831.28	1751.01
831.46	1789.92
831.63	1665.00
831.80	1769.44
831.97	1675.24
832.14	1642.47
832.31	1746.92
832.48	1708.01
832.65	1779.68
832.82	1714.15
832.99	1724.39
833.17	1669.09
833.34	1898.47
833.51	1763.30
833.68	1673.19
833.85	1765.35
834.02	1660.90
834.19	1669.09
834.36	1718.25
834.53	1714.15
834.70	1720.29
834.87	1730.53
835.04	1708.01
835.22	1628.14
835.39	1669.09
835.56	1617.90
835.73	1691.62
835.90	1812.45
836.07	1671.14
836.24	1734.63
836.41	1695.72
836.58	1660.90
836.75	1769.44
836.92	1734.63
837.09	1691.62
837.26	1757.16
837.43	1632.23
837.60	1724.39
837.77	1638.38
837.94	1771.49
838.12	1757.16
838.29	1732.58
838.46	1615.85
838.63	1710.05
838.80	1853.41
838.97	1771.49
839.14	1716.20
839.31	1597.42
839.48	1697.77
839.65	1740.77
839.82	1824.74
839.99	1738.73
840.16	1822.69
840.33	1691.62
840.50	1720.29
840.67	1634.28
840.84	1636.33
841.01	1720.29
841.18	1677.29
841.35	1742.82
841.52	1781.73
841.69	1877.99
841.86	1626.09
842.03	1650.66
842.20	1771.49
842.37	1720.29
842.54	1675.24
842.71	1755.11
842.88	1591.27
843.05	1771.49
843.22	1650.66
843.39	1746.92
843.56	1734.63
843.73	1681.38
843.90	1705.96
844.07	1679.33
844.24	1773.54
844.41	1767.40
844.58	1701.86
844.75	1658.85
844.92	1716.20
845.09	1681.38
845.26	1738.73
845.43	1693.67
845.60	1753.06
845.77	1826.79
845.94	1777.64
846.10	1779.68
846.27	1593.32
846.44	1722.34
846.61	1693.67
846.78	1654.76
846.95	1775.59
847.12	1615.85
847.29	1751.01
847.46	1660.90
847.63	1753.06
847.80	1699.81
847.97	1697.77
848.14	1781.73
848.31	1699.81
848.48	1671.14
848.65	1785.83
848.82	1665.00
848.98	1839.08
849.15	1693.67
849.32	1804.26
849.49	1853.41
849.66	1671.14
849.83	1677.29
850.00	1673.19
850.17	1740.77
850.34	1734.63
850.51	1632.23
850.68	1669.09
850.85	1857.51
851.01	1728.49
851.18	1705.96
851.35	1718.25
851.52	1652.71
851.69	1763.30
851.86	1652.71
852.03	1693.67
852.20	1736.68
852.37	1730.53
852.53	1576.94
852.70	1728.49
852.87	1652.71
853.04	1699.81
853.21	1761.25
853.38	1701.86
853.55	1771.49
853.72	1705.96
853.89	1697.77
854.05	1681.38
854.22	1656.81
854.39	1761.25
854.56	1783.78
854.73	1736.68
854.90	1687.53
855.07	1675.24
855.23	1644.52
855.40	1730.53
855.57	1667.05
855.74	1605.61
855.91	1839.08
856.08	1675.24
856.25	1667.05
856.41	1675.24
856.58	1753.06
856.75	1781.73
856.92	1667.05
857.09	1798.12
857.26	1689.57
857.42	1697.77
857.59	1740.77
857.76	1681.38
857.93	1705.96
858.10	1714.15
858.27	1613.80
858.43	1673.19
858.60	1660.90
858.77	1716.20
858.94	1671.14
859.11	1765.35
859.27	1677.29
859.44	1671.14
859.61	1796.07
859.78	1753.06
859.95	1673.19
860.12	1656.81
860.28	1783.78
860.45	1798.12
860.62	1732.58
860.79	1730.53
860.95	1720.29
861.12	1640.42
861.29	1722.34
861.46	1665.00
861.63	1658.85
861.79	1785.83
861.96	1609.70
862.13	1648.61
862.30	1761.25
862.47	1689.57
862.63	1708.01
862.80	1804.26
862.97	1820.64
863.14	1755.11
863.30	1753.06
863.47	1673.19
863.64	1816.55
863.81	1757.16
863.97	1705.96
864.14	1753.06
864.31	1685.48
864.48	1722.34
864.65	1691.62
864.81	1732.58
864.98	1767.40
865.15	1802.21
865.32	1763.30
865.48	1830.88
865.65	1755.11
865.82	1710.05
865.98	1773.54
866.15	1783.78
866.32	1595.37
866.49	1671.14
866.65	1728.49
866.82	1724.39
866.99	1693.67
867.16	1705.96
867.32	1705.96
867.49	1689.57
867.66	1738.73
867.83	1632.23
867.99	1583.08
868.16	1685.48
868.33	1681.38
868.49	1689.57
868.66	1673.19
868.83	1677.29
868.99	1730.53
869.16	1734.63
869.33	1791.97
869.50	1837.03
869.66	1658.85
869.83	1611.75
870.00	1669.09
870.16	1763.30
870.33	1708.01
870.50	1787.88
870.66	1708.01
870.83	1806.31
871.00	1804.26
871.17	1681.38
871.33	1697.77
871.50	1650.66
871.67	1728.49
871.83	1630.18
872.00	1800.16
872.17	1669.09
872.33	1867.75
872.50	1802.21
872.67	1791.97
872.83	1617.90
873.00	1650.66
873.17	1773.54
873.33	1816.55
873.50	1701.86
873.67	1640.42
873.83	1722.34
874.00	1726.44
874.16	1755.11
874.33	1703.91
874.50	1642.47
874.66	1738.73
874.83	1728.49
875.00	1798.12
875.16	1800.16
875.33	1767.40
875.50	1566.70
875.66	1640.42
875.83	1724.39
875.99	1759.21
876.16	1732.58
876.33	1671.14
876.49	1734.63
876.66	1773.54
876.83	1732.58
876.99	1619.94
877.16	1660.90
877.32	1665.00
877.49	1638.38
877.66	1755.11
877.82	1779.68
877.99	1751.01
878.15	1775.59
878.32	1816.55
878.49	1705.96
878.65	1720.29
878.82	1734.63
878.98	1720.29
879.15	1695.72
879.32	1789.92
879.48	1708.01
879.65	1708.01
879.81	1742.82
879.98	1695.72
880.15	1675.24
880.31	1761.25
880.48	1628.14
880.64	1816.55
880.81	1697.77
880.97	1820.64
881.14	1773.54
881.31	1611.75
881.47	1865.70
881.64	1736.68
881.80	1640.42
881.97	1751.01
882.13	1763.30
882.30	1621.99
882.47	1640.42
882.63	1626.09
882.80	1656.81
882.96	1634.28
883.13	1767.40
883.29	1730.53
883.46	1716.20
883.62	1814.50
883.79	1724.39
883.95	1759.21
884.12	1740.77
884.29	1730.53
884.45	1734.63
884.62	1771.49
884.78	1658.85
884.95	1828.84
885.11	1703.91
885.28	1742.82
885.44	1736.68
885.61	1734.63
885.77	1820.64
885.94	1767.40
886.10	1755.11
886.27	1714.15
886.43	1849.32
886.60	1769.44
886.76	1697.77
886.93	1632.23
887.09	1671.14
887.26	1652.71
887.42	1683.43
887.59	1710.05
887.75	1837.03
887.92	1728.49
888.08	1705.96
888.25	1820.64
888.41	1722.34
888.58	1703.91
888.74	1658.85
888.91	1654.76
>>>>>End Processed Spectral Data<<<<<
