SpectraSuite Data File
++++++++++++++++++++++++++++++++++++
Date: Mon Jun 06 14:41:17 CEST 2016
User: root
Dark Spectrum Present: No
Reference Spectrum Present: No
Number of Sampled Component Spectra: 1
Spectrometers: USB4C02835
Integration Time (usec): 100000 (USB4C02835)
Spectra Averaged: 1 (USB4C02835)
Boxcar Smoothing: 0 (USB4C02835)
Correct for Electrical Dark: No (USB4C02835)
Strobe/Lamp Enabled: No (USB4C02835)
Correct for Detector Non-linearity: No (USB4C02835)
Correct for Stray Light: No (USB4C02835)
Number of Pixels in Processed Spectrum: 3648
>>>>>Begin Processed Spectral Data<<<<<
177.47	1478.63
177.69	1478.63
177.91	1478.63
178.13	1488.87
178.36	1454.06
178.58	1650.66
178.80	1730.53
179.02	1644.52
179.24	1662.95
179.46	1617.90
179.68	1767.40
179.90	1736.68
180.13	1730.53
180.35	1665.00
180.57	1681.38
180.79	1740.77
181.01	1701.86
181.23	1753.06
181.45	1802.21
181.67	1712.10
181.90	1755.11
182.12	1656.81
182.34	1646.57
182.56	1763.30
182.78	1734.63
183.00	1701.86
183.22	1791.97
183.44	1617.90
183.66	1880.04
183.89	1785.83
184.11	1718.25
184.33	1671.14
184.55	1806.31
184.77	1726.44
184.99	1708.01
185.21	1660.90
185.43	1818.60
185.65	1626.09
185.87	1675.24
186.10	1853.41
186.32	1832.93
186.54	1695.72
186.76	1765.35
186.98	1718.25
187.20	1759.21
187.42	1681.38
187.64	1701.86
187.86	1716.20
188.08	1763.30
188.30	1699.81
188.52	1769.44
188.75	1781.73
188.97	1714.15
189.19	1671.14
189.41	1642.47
189.63	1814.50
189.85	1673.19
190.07	1576.94
190.29	1689.57
190.51	1716.20
190.73	1652.71
190.95	1794.02
191.17	1675.24
191.39	1687.53
191.61	1605.61
191.84	1642.47
192.06	1697.77
192.28	1613.80
192.50	1867.75
192.72	1726.44
192.94	1740.77
193.16	1781.73
193.38	1742.82
193.60	1605.61
193.82	1748.97
194.04	1757.16
194.26	1638.38
194.48	1689.57
194.70	1697.77
194.92	1624.04
195.14	1789.92
195.36	1630.18
195.58	1796.07
195.80	1652.71
196.02	1679.33
196.24	1634.28
196.46	1761.25
196.69	1660.90
196.91	1822.69
197.13	1693.67
197.35	1607.66
197.57	1751.01
197.79	1689.57
198.01	1738.73
198.23	1732.58
198.45	1699.81
198.67	1630.18
198.89	1703.91
199.11	1658.85
199.33	1662.95
199.55	1607.66
199.77	1671.14
199.99	1761.25
200.21	1644.52
200.43	1751.01
200.65	1665.00
200.87	1568.74
201.09	1693.67
201.31	1675.24
201.53	1703.91
201.75	1767.40
201.97	1742.82
202.19	1667.05
202.41	1724.39
202.63	1822.69
202.85	1640.42
203.07	1753.06
203.29	1679.33
203.51	1656.81
203.73	1626.09
203.95	1904.61
204.17	1759.21
204.39	1660.90
204.61	1759.21
204.83	1705.96
205.05	1755.11
205.27	1767.40
205.49	1785.83
205.71	1652.71
205.93	1656.81
206.15	1732.58
206.37	1662.95
206.59	1699.81
206.81	1683.43
207.03	1599.46
207.25	1626.09
207.47	1689.57
207.69	1712.10
207.91	1751.01
208.13	1763.30
208.34	1648.61
208.56	1648.61
208.78	1757.16
209.00	1687.53
209.22	1658.85
209.44	1693.67
209.66	1673.19
209.88	1703.91
210.10	1710.05
210.32	1746.92
210.54	1769.44
210.76	1683.43
210.98	1734.63
211.20	1538.02
211.42	1697.77
211.64	1877.99
211.86	1761.25
212.08	1728.49
212.30	1724.39
212.52	1617.90
212.74	1757.16
212.96	1742.82
213.17	1718.25
213.39	1722.34
213.61	1730.53
213.83	1644.52
214.05	1648.61
214.27	1755.11
214.49	1624.04
214.71	1677.29
214.93	1658.85
215.15	1732.58
215.37	1736.68
215.59	1570.79
215.81	1732.58
216.03	1714.15
216.24	1716.20
216.46	1654.76
216.68	1734.63
216.90	1724.39
217.12	1806.31
217.34	1722.34
217.56	1652.71
217.78	1798.12
218.00	1691.62
218.22	1742.82
218.44	1675.24
218.66	1783.78
218.87	1779.68
219.09	1759.21
219.31	1703.91
219.53	1757.16
219.75	1722.34
219.97	1679.33
220.19	1734.63
220.41	1722.34
220.63	1810.40
220.85	1656.81
221.06	1683.43
221.28	1734.63
221.50	1716.20
221.72	1785.83
221.94	1753.06
222.16	1652.71
222.38	1722.34
222.60	1712.10
222.82	1675.24
223.03	1744.87
223.25	1646.57
223.47	1744.87
223.69	1804.26
223.91	1658.85
224.13	1681.38
224.35	1722.34
224.57	1753.06
224.78	1736.68
225.00	1628.14
225.22	1667.05
225.44	1652.71
225.66	1740.77
225.88	1708.01
226.10	1736.68
226.32	1705.96
226.53	1744.87
226.75	1650.66
226.97	1681.38
227.19	1755.11
227.41	1646.57
227.63	1648.61
227.85	1652.71
228.06	1673.19
228.28	1710.05
228.50	1746.92
228.72	1652.71
228.94	1726.44
229.16	1617.90
229.37	1601.51
229.59	1679.33
229.81	1800.16
230.03	1701.86
230.25	1621.99
230.47	1640.42
230.69	1626.09
230.90	1771.49
231.12	1705.96
231.34	1714.15
231.56	1765.35
231.78	1630.18
232.00	1746.92
232.21	1695.72
232.43	1665.00
232.65	1609.70
232.87	1703.91
233.09	1665.00
233.30	1689.57
233.52	1730.53
233.74	1716.20
233.96	1634.28
234.18	1738.73
234.40	1673.19
234.61	1839.08
234.83	1626.09
235.05	1677.29
235.27	1841.12
235.49	1765.35
235.70	1693.67
235.92	1777.64
236.14	1648.61
236.36	1841.12
236.58	1642.47
236.79	1703.91
237.01	1746.92
237.23	1714.15
237.45	1851.36
237.67	1630.18
237.88	1716.20
238.10	1757.16
238.32	1701.86
238.54	1736.68
238.76	1742.82
238.97	1705.96
239.19	1634.28
239.41	1710.05
239.63	1834.98
239.85	1687.53
240.06	1705.96
240.28	1763.30
240.50	1681.38
240.72	1669.09
240.93	1634.28
241.15	1787.88
241.37	1656.81
241.59	1773.54
241.81	1697.77
242.02	1689.57
242.24	1775.59
242.46	1781.73
242.68	1730.53
242.89	1685.48
243.11	1798.12
243.33	1671.14
243.55	1710.05
243.76	1730.53
243.98	1652.71
244.20	1693.67
244.42	1691.62
244.64	1710.05
244.85	1665.00
245.07	1640.42
245.29	1775.59
245.51	1658.85
245.72	1689.57
245.94	1783.78
246.16	1740.77
246.38	1806.31
246.59	1710.05
246.81	1609.70
247.03	1652.71
247.24	1570.79
247.46	1679.33
247.68	1742.82
247.90	1677.29
248.11	1691.62
248.33	1744.87
248.55	1665.00
248.77	1705.96
248.98	1748.97
249.20	1703.91
249.42	1710.05
249.64	1718.25
249.85	1691.62
250.07	1716.20
250.29	1785.83
250.50	1691.62
250.72	1671.14
250.94	1800.16
251.16	1830.88
251.37	1742.82
251.59	1834.98
251.81	1761.25
252.02	1849.32
252.24	1710.05
252.46	1765.35
252.68	1705.96
252.89	1638.38
253.11	1671.14
253.33	1828.84
253.54	1802.21
253.76	1558.50
253.98	1669.09
254.20	1644.52
254.41	1599.46
254.63	1656.81
254.85	1693.67
255.06	1714.15
255.28	1755.11
255.50	1708.01
255.71	1611.75
255.93	1787.88
256.15	1703.91
256.36	1775.59
256.58	1689.57
256.80	1767.40
257.02	1730.53
257.23	1673.19
257.45	1662.95
257.67	1730.53
257.88	1712.10
258.10	1773.54
258.32	1671.14
258.53	1703.91
258.75	1757.16
258.97	1603.56
259.18	1757.16
259.40	1728.49
259.62	1755.11
259.83	1703.91
260.05	1730.53
260.27	1964.00
260.48	1785.83
260.70	1599.46
260.92	1716.20
261.13	1718.25
261.35	1658.85
261.57	1644.52
261.78	1695.72
262.00	1697.77
262.22	1728.49
262.43	1632.23
262.65	1714.15
262.86	1722.34
263.08	1804.26
263.30	1677.29
263.51	1697.77
263.73	1665.00
263.95	1767.40
264.16	1683.43
264.38	1574.89
264.60	1732.58
264.81	1710.05
265.03	1796.07
265.25	1724.39
265.46	1726.44
265.68	1761.25
265.89	1720.29
266.11	1634.28
266.33	1791.97
266.54	1755.11
266.76	1669.09
266.98	1787.88
267.19	1775.59
267.41	1730.53
267.62	1677.29
267.84	1566.70
268.06	1767.40
268.27	1755.11
268.49	1822.69
268.70	1798.12
268.92	1675.24
269.14	1671.14
269.35	1648.61
269.57	1716.20
269.79	1736.68
270.00	1693.67
270.22	1724.39
270.43	1689.57
270.65	1558.50
270.87	1646.57
271.08	1804.26
271.30	1699.81
271.51	1671.14
271.73	1736.68
271.95	1796.07
272.16	1738.73
272.38	1699.81
272.59	1677.29
272.81	1714.15
273.02	1708.01
273.24	1714.15
273.46	1740.77
273.67	1662.95
273.89	1652.71
274.10	1621.99
274.32	1720.29
274.54	1681.38
274.75	1712.10
274.97	1667.05
275.18	1720.29
275.40	1718.25
275.61	1734.63
275.83	1665.00
276.05	1570.79
276.26	1708.01
276.48	1691.62
276.69	1685.48
276.91	1673.19
277.12	1775.59
277.34	1703.91
277.55	1767.40
277.77	1781.73
277.99	1642.47
278.20	1630.18
278.42	1648.61
278.63	1687.53
278.85	1687.53
279.06	1644.52
279.28	1765.35
279.49	1685.48
279.71	1767.40
279.93	1712.10
280.14	1675.24
280.36	1685.48
280.57	1779.68
280.79	1718.25
281.00	1648.61
281.22	1677.29
281.43	1779.68
281.65	1626.09
281.86	1560.55
282.08	1755.11
282.29	1798.12
282.51	1669.09
282.73	1648.61
282.94	1626.09
283.16	1787.88
283.37	1855.46
283.59	1740.77
283.80	1720.29
284.02	1687.53
284.23	1712.10
284.45	1648.61
284.66	1687.53
284.88	1701.86
285.09	1697.77
285.31	1736.68
285.52	1671.14
285.74	1605.61
285.95	1728.49
286.17	1746.92
286.38	1828.84
286.60	1662.95
286.81	1755.11
287.03	1615.85
287.24	1732.58
287.46	1665.00
287.67	1734.63
287.89	1742.82
288.10	1632.23
288.32	1781.73
288.53	1736.68
288.75	1691.62
288.96	1767.40
289.18	1705.96
289.39	1677.29
289.61	1744.87
289.82	1796.07
290.04	1787.88
290.25	1636.33
290.47	1728.49
290.68	1640.42
290.90	1695.72
291.11	1617.90
291.33	1732.58
291.54	1603.56
291.76	1619.94
291.97	1728.49
292.18	1765.35
292.40	1710.05
292.61	1650.66
292.83	1808.36
293.04	1730.53
293.26	1755.11
293.47	1685.48
293.69	1593.32
293.90	1677.29
294.12	1730.53
294.33	1710.05
294.55	1564.65
294.76	1787.88
294.97	1794.02
295.19	1820.64
295.40	1691.62
295.62	1683.43
295.83	1779.68
296.05	1665.00
296.26	1685.48
296.48	1673.19
296.69	1681.38
296.90	1648.61
297.12	1701.86
297.33	1759.21
297.55	1759.21
297.76	1718.25
297.98	1689.57
298.19	1716.20
298.41	1714.15
298.62	1683.43
298.83	1755.11
299.05	1658.85
299.26	1669.09
299.48	1675.24
299.69	1726.44
299.90	1693.67
300.12	1665.00
300.33	1783.78
300.55	1785.83
300.76	1804.26
300.98	1640.42
301.19	1746.92
301.40	1669.09
301.62	1691.62
301.83	1703.91
302.05	1689.57
302.26	1691.62
302.47	1703.91
302.69	1662.95
302.90	1779.68
303.12	1583.08
303.33	1802.21
303.54	1814.50
303.76	1660.90
303.97	1658.85
304.19	1765.35
304.40	1624.04
304.61	1761.25
304.83	1779.68
305.04	1775.59
305.26	1791.97
305.47	1656.81
305.68	1693.67
305.90	1665.00
306.11	1808.36
306.33	1726.44
306.54	1654.76
306.75	1656.81
306.97	1572.84
307.18	1601.51
307.39	1693.67
307.61	1763.30
307.82	1734.63
308.04	1665.00
308.25	1736.68
308.46	1781.73
308.68	1722.34
308.89	1753.06
309.10	1861.60
309.32	1724.39
309.53	1720.29
309.74	1744.87
309.96	1730.53
310.17	1730.53
310.39	1763.30
310.60	1726.44
310.81	1789.92
311.03	1728.49
311.24	1753.06
311.45	1705.96
311.67	1810.40
311.88	1699.81
312.09	1697.77
312.31	1587.18
312.52	1722.34
312.73	1669.09
312.95	1617.90
313.16	1595.37
313.37	1767.40
313.59	1779.68
313.80	1814.50
314.01	1787.88
314.23	1662.95
314.44	1724.39
314.65	1621.99
314.87	1646.57
315.08	1693.67
315.29	1675.24
315.51	1654.76
315.72	1595.37
315.93	1759.21
316.15	1773.54
316.36	1681.38
316.57	1736.68
316.79	1728.49
317.00	1675.24
317.21	1789.92
317.43	1667.05
317.64	1736.68
317.85	1699.81
318.07	1695.72
318.28	1765.35
318.49	1802.21
318.70	1894.37
318.92	1746.92
319.13	1837.03
319.34	1794.02
319.56	1742.82
319.77	1785.83
319.98	1701.86
320.20	1740.77
320.41	1787.88
320.62	1685.48
320.83	1681.38
321.05	1896.42
321.26	1689.57
321.47	1695.72
321.69	1730.53
321.90	1693.67
322.11	1683.43
322.32	1767.40
322.54	1777.64
322.75	1699.81
322.96	1802.21
323.18	1660.90
323.39	1605.61
323.60	1611.75
323.81	1746.92
324.03	1763.30
324.24	1685.48
324.45	1730.53
324.66	1701.86
324.88	1775.59
325.09	1787.88
325.30	1689.57
325.52	1804.26
325.73	1716.20
325.94	1656.81
326.15	1562.60
326.37	1691.62
326.58	1767.40
326.79	1820.64
327.00	1681.38
327.22	1695.72
327.43	1632.23
327.64	1609.70
327.85	1812.45
328.07	1724.39
328.28	1783.78
328.49	1703.91
328.70	1722.34
328.92	1652.71
329.13	1640.42
329.34	1693.67
329.55	1781.73
329.76	1789.92
329.98	1656.81
330.19	1718.25
330.40	1720.29
330.61	1701.86
330.83	1810.40
331.04	1636.33
331.25	1697.77
331.46	1675.24
331.68	1679.33
331.89	1798.12
332.10	1722.34
332.31	1572.84
332.52	1632.23
332.74	1787.88
332.95	1628.14
333.16	1757.16
333.37	1771.49
333.58	1714.15
333.80	1753.06
334.01	1597.42
334.22	1677.29
334.43	1755.11
334.64	1621.99
334.86	1615.85
335.07	1617.90
335.28	1767.40
335.49	1632.23
335.70	1744.87
335.92	1740.77
336.13	1828.84
336.34	1789.92
336.55	1724.39
336.76	1742.82
336.98	1564.65
337.19	1693.67
337.40	1798.12
337.61	1806.31
337.82	1632.23
338.04	1773.54
338.25	1570.79
338.46	1685.48
338.67	1705.96
338.88	1656.81
339.09	1654.76
339.31	1650.66
339.52	1640.42
339.73	1591.27
339.94	1732.58
340.15	1777.64
340.36	1732.58
340.58	1693.67
340.79	1759.21
341.00	1722.34
341.21	1638.38
341.42	1738.73
341.63	1714.15
341.85	1734.63
342.06	1669.09
342.27	1605.61
342.48	1746.92
342.69	1662.95
342.90	1701.86
343.12	1726.44
343.33	1675.24
343.54	1730.53
343.75	1775.59
343.96	1705.96
344.17	1597.42
344.38	1697.77
344.60	1624.04
344.81	1644.52
345.02	1630.18
345.23	1720.29
345.44	1800.16
345.65	1710.05
345.86	1716.20
346.07	1685.48
346.29	1638.38
346.50	1687.53
346.71	1751.01
346.92	1791.97
347.13	1753.06
347.34	1718.25
347.55	1613.80
347.76	1779.68
347.98	1654.76
348.19	1599.46
348.40	1722.34
348.61	1665.00
348.82	1763.30
349.03	1757.16
349.24	1628.14
349.45	1710.05
349.66	1617.90
349.88	1730.53
350.09	1640.42
350.30	1720.29
350.51	1751.01
350.72	1683.43
350.93	1724.39
351.14	1613.80
351.35	1701.86
351.56	1660.90
351.77	1730.53
351.99	1761.25
352.20	1824.74
352.41	1677.29
352.62	1570.79
352.83	1626.09
353.04	1640.42
353.25	1722.34
353.46	1822.69
353.67	1757.16
353.88	1566.70
354.09	1681.38
354.30	1759.21
354.52	1687.53
354.73	1705.96
354.94	1564.65
355.15	1685.48
355.36	1757.16
355.57	1650.66
355.78	1714.15
355.99	1617.90
356.20	1791.97
356.41	1740.77
356.62	1724.39
356.83	1718.25
357.04	1695.72
357.25	1576.94
357.46	1638.38
357.68	1585.13
357.89	1609.70
358.10	1671.14
358.31	1736.68
358.52	1775.59
358.73	1730.53
358.94	1634.28
359.15	1681.38
359.36	1796.07
359.57	1634.28
359.78	1703.91
359.99	1732.58
360.20	1669.09
360.41	1652.71
360.62	1714.15
360.83	1761.25
361.04	1783.78
361.25	1701.86
361.46	1820.64
361.67	1740.77
361.88	1667.05
362.09	1748.97
362.30	1751.01
362.51	1638.38
362.72	1734.63
362.93	1718.25
363.14	1806.31
363.35	1744.87
363.56	1638.38
363.78	1730.53
363.99	1681.38
364.20	1716.20
364.41	1710.05
364.62	1808.36
364.83	1712.10
365.04	1777.64
365.25	1681.38
365.46	1834.98
365.67	1642.47
365.88	1693.67
366.09	1748.97
366.30	1671.14
366.51	1683.43
366.72	1638.38
366.93	1728.49
367.14	1662.95
367.35	1783.78
367.56	1691.62
367.77	1785.83
367.98	1665.00
368.18	1718.25
368.39	1693.67
368.60	1624.04
368.81	1726.44
369.02	1714.15
369.23	1769.44
369.44	1609.70
369.65	1665.00
369.86	1718.25
370.07	1755.11
370.28	1677.29
370.49	1728.49
370.70	1716.20
370.91	1611.75
371.12	1626.09
371.33	1724.39
371.54	1673.19
371.75	1837.03
371.96	1566.70
372.17	1699.81
372.38	1716.20
372.59	1730.53
372.80	1683.43
373.01	1722.34
373.22	1691.62
373.43	1699.81
373.64	1685.48
373.85	1787.88
374.06	1759.21
374.26	1710.05
374.47	1757.16
374.68	1771.49
374.89	1781.73
375.10	1714.15
375.31	1718.25
375.52	1671.14
375.73	1769.44
375.94	1654.76
376.15	1794.02
376.36	1646.57
376.57	1665.00
376.78	1669.09
376.99	1730.53
377.20	1753.06
377.40	1628.14
377.61	1794.02
377.82	1669.09
378.03	1751.01
378.24	1794.02
378.45	1671.14
378.66	1757.16
378.87	1640.42
379.08	1599.46
379.29	1708.01
379.50	1785.83
379.71	1726.44
379.91	1722.34
380.12	1736.68
380.33	1787.88
380.54	1693.67
380.75	1605.61
380.96	1636.33
381.17	1724.39
381.38	1783.78
381.59	1742.82
381.80	1732.58
382.00	1810.40
382.21	1744.87
382.42	1773.54
382.63	1816.55
382.84	1746.92
383.05	1798.12
383.26	1822.69
383.47	1783.78
383.68	1685.48
383.88	1789.92
384.09	1730.53
384.30	1755.11
384.51	1701.86
384.72	1751.01
384.93	1665.00
385.14	1677.29
385.35	1734.63
385.55	1671.14
385.76	1839.08
385.97	1714.15
386.18	1554.41
386.39	1646.57
386.60	1722.34
386.81	1683.43
387.02	1658.85
387.22	1726.44
387.43	1751.01
387.64	1699.81
387.85	1882.08
388.06	2203.61
388.27	4274.11
388.48	6729.63
388.68	8357.76
388.89	9734.00
389.10	9820.01
389.31	8527.74
389.52	7718.79
389.73	6696.86
389.93	6207.39
390.14	5812.14
390.35	5162.93
390.56	4620.22
390.77	3753.93
390.98	2969.55
391.18	2535.39
391.39	2111.46
391.60	1828.84
391.81	1820.64
392.02	1648.61
392.23	1871.84
392.43	1724.39
392.64	1705.96
392.85	1753.06
393.06	1822.69
393.27	1724.39
393.47	1662.95
393.68	1724.39
393.89	1648.61
394.10	1710.05
394.31	1628.14
394.52	1697.77
394.72	1654.76
394.93	1767.40
395.14	1644.52
395.35	1738.73
395.56	1640.42
395.76	1746.92
395.97	1769.44
396.18	1847.27
396.39	1851.36
396.60	2017.25
396.80	1884.13
397.01	1853.41
397.22	1814.50
397.43	1875.94
397.64	1744.87
397.84	1777.64
398.05	1863.65
398.26	1789.92
398.47	1755.11
398.67	1830.88
398.88	1705.96
399.09	1802.21
399.30	1693.67
399.51	1714.15
399.71	1576.94
399.92	1691.62
400.13	1726.44
400.34	1669.09
400.54	1675.24
400.75	1851.36
400.96	1685.48
401.17	1818.60
401.37	1685.48
401.58	1689.57
401.79	1740.77
402.00	1929.19
402.21	1953.76
402.41	1947.62
402.62	1978.34
402.83	2043.87
403.04	2025.44
403.24	2154.46
403.45	1761.25
403.66	1918.95
403.87	1869.80
404.07	1923.04
404.28	1873.89
404.49	1834.98
404.70	1765.35
404.90	1753.06
405.11	1716.20
405.32	1755.11
405.52	1769.44
405.73	1675.24
405.94	1652.71
406.15	1615.85
406.35	1759.21
406.56	1703.91
406.77	1697.77
406.98	1748.97
407.18	1636.33
407.39	1779.68
407.60	1699.81
407.80	1759.21
408.01	1615.85
408.22	1722.34
408.43	1691.62
408.63	1738.73
408.84	1828.84
409.05	1783.78
409.25	1611.75
409.46	1658.85
409.67	1648.61
409.88	1720.29
410.08	1746.92
410.29	1691.62
410.50	1810.40
410.70	1703.91
410.91	1677.29
411.12	1705.96
411.32	1751.01
411.53	1660.90
411.74	1730.53
411.95	1773.54
412.15	1640.42
412.36	1785.83
412.57	1818.60
412.77	1791.97
412.98	1746.92
413.19	1601.51
413.39	1779.68
413.60	1802.21
413.81	1800.16
414.01	1671.14
414.22	1632.23
414.43	1789.92
414.63	1671.14
414.84	1755.11
415.05	1708.01
415.25	1632.23
415.46	1761.25
415.67	1746.92
415.87	1740.77
416.08	1710.05
416.29	1640.42
416.49	1755.11
416.70	1677.29
416.91	1656.81
417.11	1624.04
417.32	1806.31
417.53	1736.68
417.73	1753.06
417.94	1662.95
418.15	1691.62
418.35	1742.82
418.56	1751.01
418.77	1882.08
418.97	1714.15
419.18	1689.57
419.38	1566.70
419.59	1689.57
419.80	1832.93
420.00	1722.34
420.21	1779.68
420.42	1800.16
420.62	1695.72
420.83	1695.72
421.04	1671.14
421.24	1665.00
421.45	1757.16
421.65	1687.53
421.86	1652.71
422.07	1812.45
422.27	1724.39
422.48	1710.05
422.69	1624.04
422.89	1716.20
423.10	1634.28
423.30	1646.57
423.51	1708.01
423.72	1771.49
423.92	1783.78
424.13	1652.71
424.33	1814.50
424.54	1748.97
424.75	1714.15
424.95	1812.45
425.16	1683.43
425.36	1677.29
425.57	1738.73
425.78	1775.59
425.98	1689.57
426.19	1759.21
426.39	1642.47
426.60	1693.67
426.81	1697.77
427.01	1710.05
427.22	1648.61
427.42	1652.71
427.63	1708.01
427.83	1757.16
428.04	1812.45
428.25	1826.79
428.45	1720.29
428.66	1726.44
428.86	1724.39
429.07	1734.63
429.28	1763.30
429.48	1677.29
429.69	1695.72
429.89	1730.53
430.10	1660.90
430.30	1753.06
430.51	1812.45
430.71	1656.81
430.92	1726.44
431.13	1679.33
431.33	1771.49
431.54	1730.53
431.74	1789.92
431.95	1740.77
432.15	1636.33
432.36	1777.64
432.56	1673.19
432.77	1730.53
432.98	1839.08
433.18	1705.96
433.39	1742.82
433.59	1763.30
433.80	1796.07
434.00	1822.69
434.21	1673.19
434.41	1703.91
434.62	1853.41
434.82	1642.47
435.03	1714.15
435.23	1660.90
435.44	1568.74
435.64	1738.73
435.85	1732.58
436.06	1755.11
436.26	1732.58
436.47	1712.10
436.67	1748.97
436.88	1710.05
437.08	1808.36
437.29	1841.12
437.49	1757.16
437.70	1871.84
437.90	1751.01
438.11	1847.27
438.31	1759.21
438.52	1810.40
438.72	1845.22
438.93	1884.13
439.13	1785.83
439.34	1890.28
439.54	1734.63
439.75	1763.30
439.95	1726.44
440.16	1701.86
440.36	1687.53
440.57	1755.11
440.77	1699.81
440.98	1691.62
441.18	1779.68
441.39	1705.96
441.59	1644.52
441.80	1914.85
442.00	1769.44
442.21	1783.78
442.41	1642.47
442.62	1712.10
442.82	1689.57
443.02	1693.67
443.23	1781.73
443.43	1744.87
443.64	1800.16
443.84	1634.28
444.05	1800.16
444.25	1759.21
444.46	1730.53
444.66	1802.21
444.87	1839.08
445.07	1652.71
445.28	1687.53
445.48	1796.07
445.69	1798.12
445.89	1826.79
446.09	1779.68
446.30	1964.00
446.50	2736.09
446.71	3774.41
446.91	4351.93
447.12	4841.40
447.32	4853.69
447.53	4304.83
447.73	3819.46
447.93	3438.54
448.14	3250.13
448.34	3168.21
448.55	2934.74
448.75	2758.61
448.96	2672.60
449.16	2453.47
449.36	2336.73
449.57	2072.54
449.77	1953.76
449.98	1794.02
450.18	1761.25
450.39	1828.84
450.59	1732.58
450.79	1767.40
451.00	1699.81
451.20	1742.82
451.41	1708.01
451.61	1769.44
451.81	1689.57
452.02	1679.33
452.22	1697.77
452.43	1683.43
452.63	1673.19
452.84	1787.88
453.04	1724.39
453.24	1746.92
453.45	1603.56
453.65	1699.81
453.86	1665.00
454.06	1781.73
454.26	1757.16
454.47	1677.29
454.67	1812.45
454.87	1759.21
455.08	1718.25
455.28	1832.93
455.49	1796.07
455.69	1683.43
455.89	1839.08
456.10	1781.73
456.30	1708.01
456.51	1777.64
456.71	1720.29
456.91	1767.40
457.12	1705.96
457.32	1781.73
457.52	1730.53
457.73	1665.00
457.93	1771.49
458.14	1722.34
458.34	1673.19
458.54	1658.85
458.75	1744.87
458.95	1732.58
459.15	1783.78
459.36	1791.97
459.56	1798.12
459.76	1839.08
459.97	1714.15
460.17	1777.64
460.37	1785.83
460.58	1712.10
460.78	1800.16
460.99	1710.05
461.19	1683.43
461.39	1714.15
461.60	1763.30
461.80	1755.11
462.00	1660.90
462.21	1748.97
462.41	1808.36
462.61	1695.72
462.82	1595.37
463.02	1703.91
463.22	1691.62
463.43	1808.36
463.63	1753.06
463.83	1763.30
464.04	1812.45
464.24	1746.92
464.44	1603.56
464.64	1716.20
464.85	1789.92
465.05	1828.84
465.25	1757.16
465.46	1710.05
465.66	1830.88
465.86	1759.21
466.07	1808.36
466.27	1675.24
466.47	1705.96
466.68	1581.03
466.88	1773.54
467.08	1767.40
467.29	1773.54
467.49	1722.34
467.69	1714.15
467.89	1740.77
468.10	1667.05
468.30	1689.57
468.50	1851.36
468.71	1802.21
468.91	1681.38
469.11	1839.08
469.31	1773.54
469.52	1746.92
469.72	1800.16
469.92	1857.51
470.13	1718.25
470.33	1728.49
470.53	1839.08
470.73	2119.65
470.94	2220.00
471.14	2349.02
471.34	2484.19
471.54	2461.66
471.75	2252.77
471.95	2103.26
472.15	2066.40
472.36	2088.93
472.56	2101.22
472.76	2123.74
472.96	2015.20
473.17	1972.19
473.37	1923.04
473.57	1845.22
473.77	1804.26
473.98	1814.50
474.18	1753.06
474.38	1861.60
474.58	1767.40
474.79	1656.81
474.99	1732.58
475.19	1740.77
475.39	1607.66
475.60	1794.02
475.80	1726.44
476.00	1650.66
476.20	1652.71
476.41	1775.59
476.61	1863.65
476.81	1837.03
477.01	1724.39
477.21	1834.98
477.42	1810.40
477.62	1658.85
477.82	1740.77
478.02	1712.10
478.23	1699.81
478.43	1677.29
478.63	1603.56
478.83	1712.10
479.03	1626.09
479.24	1757.16
479.44	1804.26
479.64	1710.05
479.84	1572.84
480.04	1669.09
480.25	1742.82
480.45	1681.38
480.65	1646.57
480.85	1759.21
481.06	1742.82
481.26	1816.55
481.46	1755.11
481.66	1716.20
481.86	1693.67
482.06	1740.77
482.27	1722.34
482.47	1689.57
482.67	1703.91
482.87	1681.38
483.07	1781.73
483.28	1705.96
483.48	1644.52
483.68	1665.00
483.88	1677.29
484.08	1609.70
484.29	1669.09
484.49	1744.87
484.69	1708.01
484.89	1736.68
485.09	1781.73
485.29	1683.43
485.50	1769.44
485.70	1640.42
485.90	1759.21
486.10	1669.09
486.30	1751.01
486.50	1689.57
486.71	1726.44
486.91	1738.73
487.11	1796.07
487.31	1669.09
487.51	1710.05
487.71	1671.14
487.91	1740.77
488.12	1705.96
488.32	1667.05
488.52	1683.43
488.72	1658.85
488.92	1742.82
489.12	1738.73
489.32	1726.44
489.53	1732.58
489.73	1730.53
489.93	1859.56
490.13	1652.71
490.33	1654.76
490.53	1677.29
490.73	1886.18
490.94	1697.77
491.14	1796.07
491.34	1859.56
491.54	2131.94
491.74	2525.15
491.94	2932.69
492.14	3012.56
492.34	3041.23
492.54	2756.57
492.75	2519.00
492.95	2414.56
493.15	2371.55
493.35	2332.64
493.55	2181.09
493.75	2119.65
493.95	2181.09
494.15	1986.53
494.35	1933.28
494.56	1804.26
494.76	1763.30
494.96	1787.88
495.16	1794.02
495.36	1757.16
495.56	1669.09
495.76	1730.53
495.96	1767.40
496.16	1753.06
496.36	1869.80
496.56	1714.15
496.77	1632.23
496.97	1730.53
497.17	1804.26
497.37	1656.81
497.57	1710.05
497.77	1734.63
497.97	1671.14
498.17	1712.10
498.37	1755.11
498.57	1732.58
498.77	1728.49
498.97	1744.87
499.17	1855.46
499.38	1771.49
499.58	1740.77
499.78	1734.63
499.98	1898.47
500.18	1761.25
500.38	1677.29
500.58	1912.80
500.78	2564.06
500.98	4507.58
501.18	5820.33
501.38	6868.89
501.58	7133.08
501.78	6633.37
501.98	5578.67
502.18	5038.00
502.38	4429.76
502.58	4204.48
502.78	3680.20
502.98	3651.53
503.18	3422.16
503.38	3170.26
503.59	2865.11
503.79	2695.13
503.99	2516.95
504.19	2260.96
504.39	2260.96
504.59	2185.18
504.79	2123.74
504.99	2095.07
505.19	1914.85
505.39	1818.60
505.59	1957.86
505.79	1910.75
505.99	1755.11
506.19	1785.83
506.39	1822.69
506.59	1742.82
506.79	1771.49
506.99	1765.35
507.19	1802.21
507.39	1757.16
507.59	1722.34
507.79	1765.35
507.99	1710.05
508.19	1789.92
508.39	1703.91
508.59	1720.29
508.79	1767.40
508.99	1773.54
509.19	1744.87
509.39	1759.21
509.59	1689.57
509.79	1642.47
509.99	1736.68
510.19	1771.49
510.39	1787.88
510.59	1736.68
510.79	1746.92
510.99	1669.09
511.19	1746.92
511.39	1703.91
511.59	1816.55
511.79	1865.70
511.99	1683.43
512.19	1863.65
512.38	1691.62
512.58	1724.39
512.78	1716.20
512.98	1794.02
513.18	1855.46
513.38	1701.86
513.58	1787.88
513.78	1734.63
513.98	1697.77
514.18	1728.49
514.38	1675.24
514.58	1708.01
514.78	1705.96
514.98	1705.96
515.18	1738.73
515.38	1646.57
515.58	1779.68
515.78	1632.23
515.98	1761.25
516.18	1849.32
516.38	1658.85
516.57	1656.81
516.77	1697.77
516.97	1781.73
517.17	1677.29
517.37	1617.90
517.57	1779.68
517.77	1779.68
517.97	1693.67
518.17	1785.83
518.37	1689.57
518.57	1671.14
518.77	1773.54
518.97	1781.73
519.16	1755.11
519.36	1812.45
519.56	1714.15
519.76	1802.21
519.96	1722.34
520.16	1820.64
520.36	1626.09
520.56	1802.21
520.76	1601.51
520.96	1775.59
521.16	1853.41
521.35	1804.26
521.55	1908.71
521.75	1701.86
521.95	1624.04
522.15	1800.16
522.35	1738.73
522.55	1712.10
522.75	1730.53
522.95	1736.68
523.14	1652.71
523.34	1830.88
523.54	1777.64
523.74	1765.35
523.94	1753.06
524.14	1644.52
524.34	1753.06
524.54	1816.55
524.73	1748.97
524.93	1718.25
525.13	1771.49
525.33	1658.85
525.53	1837.03
525.73	1787.88
525.93	1757.16
526.13	1691.62
526.32	1722.34
526.52	1789.92
526.72	1748.97
526.92	1738.73
527.12	1714.15
527.32	1656.81
527.52	1787.88
527.71	1769.44
527.91	1722.34
528.11	1685.48
528.31	1703.91
528.51	1658.85
528.71	1791.97
528.90	1738.73
529.10	1800.16
529.30	1841.12
529.50	1615.85
529.70	1734.63
529.90	1697.77
530.09	1804.26
530.29	1662.95
530.49	1732.58
530.69	1865.70
530.89	1716.20
531.09	1806.31
531.28	1681.38
531.48	1734.63
531.68	1751.01
531.88	1689.57
532.08	1808.36
532.28	1699.81
532.47	1648.61
532.67	1722.34
532.87	1783.78
533.07	1665.00
533.27	1779.68
533.46	1722.34
533.66	1685.48
533.86	1716.20
534.06	1667.05
534.26	1691.62
534.45	1734.63
534.65	1744.87
534.85	1738.73
535.05	1646.57
535.25	1693.67
535.44	1638.38
535.64	1834.98
535.84	1722.34
536.04	1703.91
536.24	1654.76
536.43	1636.33
536.63	1800.16
536.83	1761.25
537.03	1722.34
537.22	1646.57
537.42	1593.32
537.62	1718.25
537.82	1728.49
538.02	1746.92
538.21	1804.26
538.41	1877.99
538.61	1738.73
538.81	1642.47
539.00	1837.03
539.20	1652.71
539.40	1724.39
539.60	1742.82
539.79	1816.55
539.99	1732.58
540.19	1703.91
540.39	1703.91
540.58	1759.21
540.78	1771.49
540.98	1755.11
541.18	1695.72
541.37	1767.40
541.57	1718.25
541.77	1751.01
541.97	1585.13
542.16	1642.47
542.36	1658.85
542.56	1665.00
542.76	1890.28
542.95	1804.26
543.15	1785.83
543.35	1773.54
543.54	1746.92
543.74	1681.38
543.94	1847.27
544.14	1687.53
544.33	1824.74
544.53	1714.15
544.73	1683.43
544.93	1669.09
545.12	1775.59
545.32	1757.16
545.52	1617.90
545.71	1681.38
545.91	1716.20
546.11	1738.73
546.30	1630.18
546.50	1851.36
546.70	1777.64
546.90	1720.29
547.09	1650.66
547.29	1791.97
547.49	1734.63
547.68	1769.44
547.88	1779.68
548.08	1730.53
548.27	2252.77
548.47	1753.06
548.67	1701.86
548.87	1779.68
549.06	1720.29
549.26	1820.64
549.46	1779.68
549.65	1722.34
549.85	1701.86
550.05	1714.15
550.24	1705.96
550.44	1746.92
550.64	1681.38
550.83	1665.00
551.03	1814.50
551.23	1855.46
551.42	1847.27
551.62	1738.73
551.82	1728.49
552.01	1742.82
552.21	1742.82
552.41	1671.14
552.60	1759.21
552.80	1738.73
553.00	1669.09
553.19	1753.06
553.39	1802.21
553.59	1656.81
553.78	1789.92
553.98	1812.45
554.17	1683.43
554.37	1832.93
554.57	1781.73
554.76	1769.44
554.96	1685.48
555.16	1802.21
555.35	1746.92
555.55	1808.36
555.75	1787.88
555.94	1865.70
556.14	1669.09
556.33	1787.88
556.53	1730.53
556.73	1775.59
556.92	1738.73
557.12	1832.93
557.32	1851.36
557.51	1839.08
557.71	1742.82
557.90	1828.84
558.10	1763.30
558.30	1673.19
558.49	1687.53
558.69	1644.52
558.88	1783.78
559.08	1693.67
559.28	1714.15
559.47	1773.54
559.67	1728.49
559.86	1837.03
560.06	1738.73
560.26	1787.88
560.45	1781.73
560.65	1718.25
560.84	1810.40
561.04	1673.19
561.24	1791.97
561.43	1695.72
561.63	1843.17
561.82	1763.30
562.02	1753.06
562.22	1689.57
562.41	1689.57
562.61	1671.14
562.80	1693.67
563.00	1796.07
563.19	1755.11
563.39	1796.07
563.59	1775.59
563.78	1681.38
563.98	1644.52
564.17	1734.63
564.37	1630.18
564.56	1724.39
564.76	1681.38
564.96	1785.83
565.15	1665.00
565.35	1853.41
565.54	1726.44
565.74	1824.74
565.93	1798.12
566.13	1769.44
566.32	1714.15
566.52	1781.73
566.71	1757.16
566.91	1763.30
567.11	1742.82
567.30	1732.58
567.50	1802.21
567.69	1810.40
567.89	1660.90
568.08	1665.00
568.28	1802.21
568.47	1601.51
568.67	1722.34
568.86	1783.78
569.06	1816.55
569.25	1656.81
569.45	1683.43
569.64	1697.77
569.84	1681.38
570.04	1806.31
570.23	1708.01
570.43	1740.77
570.62	1773.54
570.82	1861.60
571.01	1718.25
571.21	1695.72
571.40	1708.01
571.60	1714.15
571.79	1837.03
571.99	1757.16
572.18	1724.39
572.38	1781.73
572.57	1734.63
572.77	1689.57
572.96	1894.37
573.16	1732.58
573.35	1673.19
573.55	1816.55
573.74	1755.11
573.94	1703.91
574.13	1722.34
574.33	1748.97
574.52	1796.07
574.71	1755.11
574.91	1796.07
575.10	1722.34
575.30	1791.97
575.49	1671.14
575.69	1624.04
575.88	1740.77
576.08	1714.15
576.27	1812.45
576.47	1753.06
576.66	1853.41
576.86	1859.56
577.05	1738.73
577.25	1681.38
577.44	1894.37
577.64	1728.49
577.83	1777.64
578.02	1726.44
578.22	1818.60
578.41	1763.30
578.61	1658.85
578.80	1673.19
579.00	1820.64
579.19	1718.25
579.39	1843.17
579.58	1816.55
579.77	1765.35
579.97	1822.69
580.16	1732.58
580.36	1759.21
580.55	1894.37
580.75	1757.16
580.94	1746.92
581.13	1818.60
581.33	1775.59
581.52	1652.71
581.72	1888.23
581.91	1820.64
582.11	1740.77
582.30	1724.39
582.49	1732.58
582.69	1820.64
582.88	1742.82
583.08	1796.07
583.27	1853.41
583.47	1798.12
583.66	1710.05
583.85	1746.92
584.05	1732.58
584.24	1800.16
584.44	1839.08
584.63	1845.22
584.82	1863.65
585.02	1896.42
585.21	1808.36
585.41	1787.88
585.60	1808.36
585.79	1902.56
585.99	1933.28
586.18	1912.80
586.37	2213.85
586.57	3403.72
586.76	9774.95
586.96	24376.97
587.15	34708.97
587.34	40691.09
587.54	42089.85
587.73	36570.58
587.93	26545.77
588.12	21692.08
588.31	18235.11
588.51	16279.30
588.70	15195.93
588.89	14077.74
589.09	12721.98
589.28	11075.42
589.47	9443.18
589.67	8013.70
589.86	6457.25
590.06	4972.47
590.25	3887.04
590.44	3090.38
590.64	2648.02
590.83	2324.44
591.02	1996.77
591.22	1943.52
591.41	1947.62
591.60	1832.93
591.80	1900.52
591.99	1742.82
592.18	1716.20
592.38	1816.55
592.57	1746.92
592.76	1738.73
592.96	1824.74
593.15	1673.19
593.34	1839.08
593.54	1728.49
593.73	1869.80
593.92	1791.97
594.12	1785.83
594.31	1746.92
594.50	1816.55
594.70	1828.84
594.89	1830.88
595.08	1685.48
595.28	1808.36
595.47	1882.08
595.66	1796.07
595.86	1738.73
596.05	1720.29
596.24	1761.25
596.43	1859.56
596.63	1826.79
596.82	1748.97
597.01	1746.92
597.21	1800.16
597.40	1701.86
597.59	1767.40
597.79	1771.49
597.98	1755.11
598.17	1751.01
598.36	1710.05
598.56	1718.25
598.75	1632.23
598.94	1679.33
599.14	1800.16
599.33	1726.44
599.52	1742.82
599.71	1789.92
599.91	1812.45
600.10	1697.77
600.29	1714.15
600.48	1789.92
600.68	1744.87
600.87	1744.87
601.06	1705.96
601.26	1726.44
601.45	1718.25
601.64	1681.38
601.83	1851.36
602.03	1720.29
602.22	1652.71
602.41	1787.88
602.60	1925.09
602.80	1767.40
602.99	1773.54
603.18	1757.16
603.37	1689.57
603.57	1677.29
603.76	1824.74
603.95	1787.88
604.14	1699.81
604.34	1644.52
604.53	1697.77
604.72	1771.49
604.91	1800.16
605.10	1757.16
605.30	1722.34
605.49	1843.17
605.68	1712.10
605.87	1746.92
606.07	1722.34
606.26	1794.02
606.45	1808.36
606.64	1697.77
606.84	1759.21
607.03	1751.01
607.22	1769.44
607.41	1742.82
607.60	1746.92
607.80	1712.10
607.99	1791.97
608.18	1683.43
608.37	1685.48
608.56	1742.82
608.76	1779.68
608.95	1816.55
609.14	1689.57
609.33	1851.36
609.52	1791.97
609.72	1736.68
609.91	1794.02
610.10	1767.40
610.29	1800.16
610.48	1722.34
610.68	1789.92
610.87	1744.87
611.06	1738.73
611.25	1710.05
611.44	1775.59
611.63	1767.40
611.83	1837.03
612.02	1687.53
612.21	1781.73
612.40	1665.00
612.59	1630.18
612.79	1722.34
612.98	1763.30
613.17	1814.50
613.36	1675.24
613.55	1843.17
613.74	1628.14
613.93	1697.77
614.13	1718.25
614.32	1804.26
614.51	1857.51
614.70	1783.78
614.89	1716.20
615.08	1677.29
615.28	2080.74
615.47	1689.57
615.66	1714.15
615.85	1652.71
616.04	1820.64
616.23	1621.99
616.42	1708.01
616.62	1699.81
616.81	1714.15
617.00	1705.96
617.19	1708.01
617.38	1720.29
617.57	1785.83
617.76	1732.58
617.95	1822.69
618.15	1822.69
618.34	1804.26
618.53	1671.14
618.72	1748.97
618.91	1785.83
619.10	1800.16
619.29	1697.77
619.48	1699.81
619.68	1728.49
619.87	1712.10
620.06	1677.29
620.25	1710.05
620.44	1681.38
620.63	1687.53
620.82	1722.34
621.01	1755.11
621.20	1734.63
621.39	1716.20
621.59	1738.73
621.78	1705.96
621.97	1779.68
622.16	1826.79
622.35	1755.11
622.54	1748.97
622.73	1703.91
622.92	1619.94
623.11	1767.40
623.30	1732.58
623.49	1726.44
623.68	1703.91
623.88	1822.69
624.07	1714.15
624.26	1775.59
624.45	1779.68
624.64	1636.33
624.83	1689.57
625.02	1683.43
625.21	1724.39
625.40	1718.25
625.59	1740.77
625.78	1748.97
625.97	1689.57
626.16	1757.16
626.35	1732.58
626.54	1720.29
626.74	1781.73
626.93	1697.77
627.12	1695.72
627.31	1820.64
627.50	1736.68
627.69	1746.92
627.88	1718.25
628.07	1636.33
628.26	1669.09
628.45	1701.86
628.64	1621.99
628.83	1714.15
629.02	1654.76
629.21	1740.77
629.40	1753.06
629.59	1654.76
629.78	1714.15
629.97	1691.62
630.16	1796.07
630.35	1624.04
630.54	1701.86
630.73	1703.91
630.92	1748.97
631.11	1673.19
631.30	1712.10
631.49	1751.01
631.68	1703.91
631.87	1689.57
632.06	1695.72
632.25	1935.33
632.44	1728.49
632.63	1730.53
632.82	1712.10
633.01	1710.05
633.20	1667.05
633.39	1714.15
633.58	1634.28
633.77	1699.81
633.96	1716.20
634.15	1738.73
634.34	1681.38
634.53	1742.82
634.72	1734.63
634.91	1671.14
635.10	1746.92
635.29	1822.69
635.48	1732.58
635.67	1716.20
635.86	1726.44
636.05	1722.34
636.24	1722.34
636.43	1710.05
636.62	1648.61
636.81	1613.80
637.00	1767.40
637.19	1804.26
637.38	1695.72
637.57	1673.19
637.76	1675.24
637.95	1779.68
638.14	1650.66
638.33	1767.40
638.52	1683.43
638.71	1677.29
638.89	1687.53
639.08	1906.66
639.27	1716.20
639.46	1689.57
639.65	1814.50
639.84	1765.35
640.03	1834.98
640.22	1712.10
640.41	1816.55
640.60	1722.34
640.79	1740.77
640.98	1683.43
641.17	1722.34
641.36	1740.77
641.55	1761.25
641.74	1642.47
641.92	1691.62
642.11	1605.61
642.30	1675.24
642.49	1679.33
642.68	1683.43
642.87	1705.96
643.06	1652.71
643.25	1665.00
643.44	1677.29
643.63	1677.29
643.82	1751.01
644.00	1667.05
644.19	1648.61
644.38	1683.43
644.57	1720.29
644.76	1736.68
644.95	1728.49
645.14	1738.73
645.33	1658.85
645.52	1744.87
645.71	1644.52
645.89	1619.94
646.08	1710.05
646.27	1685.48
646.46	1777.64
646.65	1669.09
646.84	1683.43
647.03	1667.05
647.22	1834.98
647.40	1720.29
647.59	1738.73
647.78	1665.00
647.97	1683.43
648.16	1630.18
648.35	1765.35
648.54	1736.68
648.73	1722.34
648.91	1708.01
649.10	1748.97
649.29	1767.40
649.48	1732.58
649.67	1689.57
649.86	1675.24
650.05	1679.33
650.23	1720.29
650.42	1634.28
650.61	1800.16
650.80	1759.21
650.99	1890.28
651.18	1730.53
651.36	1798.12
651.55	1636.33
651.74	1820.64
651.93	1697.77
652.12	1701.86
652.31	1720.29
652.49	1714.15
652.68	1677.29
652.87	1781.73
653.06	1679.33
653.25	1882.08
653.44	1732.58
653.62	1787.88
653.81	1687.53
654.00	1703.91
654.19	1744.87
654.38	1859.56
654.56	1632.23
654.75	1669.09
654.94	1794.02
655.13	1771.49
655.32	1738.73
655.51	1738.73
655.69	1730.53
655.88	1822.69
656.07	1697.77
656.26	1791.97
656.45	1689.57
656.63	1728.49
656.82	1765.35
657.01	1849.32
657.20	1730.53
657.38	1763.30
657.57	1632.23
657.76	1624.04
657.95	1767.40
658.14	1771.49
658.32	1765.35
658.51	1714.15
658.70	1691.62
658.89	1736.68
659.08	1730.53
659.26	1806.31
659.45	1621.99
659.64	1667.05
659.83	1605.61
660.01	1910.75
660.20	1693.67
660.39	1865.70
660.58	1636.33
660.76	1816.55
660.95	1636.33
661.14	1724.39
661.33	1642.47
661.51	1761.25
661.70	1667.05
661.89	1855.46
662.08	1718.25
662.26	1601.51
662.45	1746.92
662.64	1783.78
662.83	1800.16
663.01	1595.37
663.20	1710.05
663.39	1789.92
663.58	1695.72
663.76	1734.63
663.95	1763.30
664.14	1675.24
664.32	1687.53
664.51	1615.85
664.70	1601.51
664.89	1779.68
665.07	1685.48
665.26	1791.97
665.45	1726.44
665.64	1800.16
665.82	1746.92
666.01	1753.06
666.20	1677.29
666.38	1828.84
666.57	1841.12
666.76	2133.98
666.95	4466.62
667.13	10418.02
667.32	15378.20
667.51	17831.66
667.69	18984.67
667.88	17827.57
668.07	12414.79
668.25	9750.38
668.44	8144.77
668.63	7337.87
668.81	6881.18
669.00	6324.13
669.19	5695.40
669.38	5025.72
669.56	4585.40
669.75	4048.83
669.94	3463.12
670.12	2856.92
670.31	2516.95
670.50	2295.77
670.68	2037.73
670.87	1945.57
671.06	1810.40
671.24	1779.68
671.43	1859.56
671.62	1783.78
671.80	1724.39
671.99	1722.34
672.18	1814.50
672.36	1718.25
672.55	1771.49
672.74	1714.15
672.92	1718.25
673.11	1771.49
673.29	1689.57
673.48	1746.92
673.67	1677.29
673.85	1843.17
674.04	1689.57
674.23	1746.92
674.41	1812.45
674.60	1736.68
674.79	1630.18
674.97	1656.81
675.16	1761.25
675.34	1759.21
675.53	1685.48
675.72	1753.06
675.90	1789.92
676.09	1640.42
676.28	1705.96
676.46	1687.53
676.65	1716.20
676.83	1648.61
677.02	1697.77
677.21	1660.90
677.39	1669.09
677.58	1642.47
677.77	1685.48
677.95	1667.05
678.14	1703.91
678.32	1759.21
678.51	1626.09
678.70	1816.55
678.88	1748.97
679.07	1699.81
679.25	1781.73
679.44	1746.92
679.63	1705.96
679.81	1701.86
680.00	1800.16
680.18	1736.68
680.37	1787.88
680.55	1748.97
680.74	1671.14
680.93	1632.23
681.11	1714.15
681.30	1705.96
681.48	1705.96
681.67	1685.48
681.85	1732.58
682.04	1673.19
682.23	1712.10
682.41	1779.68
682.60	1701.86
682.78	1734.63
682.97	1636.33
683.15	1691.62
683.34	1716.20
683.53	1783.78
683.71	1669.09
683.90	1804.26
684.08	1781.73
684.27	1695.72
684.45	1646.57
684.64	1810.40
684.82	1714.15
685.01	1746.92
685.19	1695.72
685.38	1785.83
685.57	1775.59
685.75	1640.42
685.94	1673.19
686.12	1669.09
686.31	1681.38
686.49	1837.03
686.68	1601.51
686.86	1693.67
687.05	1636.33
687.23	1798.12
687.42	1687.53
687.60	1656.81
687.79	1730.53
687.97	1740.77
688.16	1757.16
688.34	1771.49
688.53	1617.90
688.71	1718.25
688.90	1753.06
689.08	1720.29
689.27	1658.85
689.45	1771.49
689.64	1757.16
689.82	1781.73
690.01	1689.57
690.19	1779.68
690.38	1724.39
690.56	1738.73
690.75	1638.38
690.93	1751.01
691.12	1644.52
691.30	1724.39
691.49	1652.71
691.67	1703.91
691.86	1832.93
692.04	1695.72
692.23	1667.05
692.41	1617.90
692.60	1824.74
692.78	1763.30
692.97	1710.05
693.15	1693.67
693.34	1855.46
693.52	1785.83
693.71	1701.86
693.89	1615.85
694.08	1609.70
694.26	1767.40
694.44	1822.69
694.63	1675.24
694.81	1669.09
695.00	1665.00
695.18	1697.77
695.37	1824.74
695.55	1763.30
695.74	1662.95
695.92	1662.95
696.10	1697.77
696.29	1714.15
696.47	1671.14
696.66	1644.52
696.84	1681.38
697.03	1675.24
697.21	1812.45
697.40	2271.20
697.58	1716.20
697.76	1681.38
697.95	1705.96
698.13	1626.09
698.32	1621.99
698.50	1675.24
698.68	1732.58
698.87	1744.87
699.05	1734.63
699.24	1726.44
699.42	1654.76
699.61	1718.25
699.79	1669.09
699.97	1759.21
700.16	1685.48
700.34	1687.53
700.53	1779.68
700.71	1757.16
700.89	1759.21
701.08	1757.16
701.26	1701.86
701.45	2066.40
701.63	1675.24
701.81	1732.58
702.00	1675.24
702.18	1712.10
702.37	1667.05
702.55	1818.60
702.73	1724.39
702.92	1605.61
703.10	1796.07
703.28	1724.39
703.47	1673.19
703.65	1808.36
703.84	1748.97
704.02	1705.96
704.20	1779.68
704.39	1677.29
704.57	1660.90
704.75	1761.25
704.94	1787.88
705.12	1703.91
705.30	1691.62
705.49	2281.44
705.67	4376.51
705.86	9246.58
706.04	12760.89
706.22	14503.71
706.41	15238.94
706.59	13834.03
706.77	9740.14
706.96	7452.56
707.14	6559.64
707.32	5896.10
707.51	5633.96
707.69	4880.31
707.87	4290.49
708.06	3563.47
708.24	2904.02
708.42	2447.32
708.61	2170.85
708.79	1931.23
708.97	1832.93
709.16	1847.27
709.34	1812.45
709.52	1722.34
709.71	1765.35
709.89	1791.97
710.07	1650.66
710.26	1636.33
710.44	1722.34
710.62	1757.16
710.80	1685.48
710.99	1769.44
711.17	1710.05
711.35	1748.97
711.54	1640.42
711.72	1800.16
711.90	1826.79
712.09	1726.44
712.27	1742.82
712.45	1734.63
712.63	1683.43
712.82	1685.48
713.00	1671.14
713.18	1695.72
713.37	1789.92
713.55	1802.21
713.73	1703.91
713.91	1736.68
714.10	1689.57
714.28	1632.23
714.46	1726.44
714.65	1677.29
714.83	1669.09
715.01	1748.97
715.19	1767.40
715.38	1673.19
715.56	1716.20
715.74	1687.53
715.92	1585.13
716.11	1777.64
716.29	1628.14
716.47	1685.48
716.65	1791.97
716.84	1630.18
717.02	1699.81
717.20	1607.66
717.38	1681.38
717.57	1695.72
717.75	1687.53
717.93	1525.74
718.11	1767.40
718.30	1685.48
718.48	1740.77
718.66	1693.67
718.84	1626.09
719.03	1679.33
719.21	1685.48
719.39	1855.46
719.57	1708.01
719.75	1697.77
719.94	1646.57
720.12	1726.44
720.30	1656.81
720.48	1773.54
720.67	1662.95
720.85	1638.38
721.03	1669.09
721.21	1675.24
721.39	1765.35
721.58	1718.25
721.76	1748.97
721.94	1685.48
722.12	1697.77
722.30	1834.98
722.49	1632.23
722.67	1734.63
722.85	1751.01
723.03	1650.66
723.21	1615.85
723.40	1763.30
723.58	1757.16
723.76	1796.07
723.94	1744.87
724.12	1675.24
724.30	1775.59
724.49	1738.73
724.67	1640.42
724.85	1816.55
725.03	1675.24
725.21	1755.11
725.40	1734.63
725.58	1611.75
725.76	1794.02
725.94	1708.01
726.12	1634.28
726.30	1691.62
726.49	1695.72
726.67	1640.42
726.85	1683.43
727.03	1779.68
727.21	2121.70
727.39	2881.49
727.57	3796.93
727.76	4022.21
727.94	4319.17
728.12	4319.17
728.30	3581.90
728.48	2975.70
728.66	2723.80
728.84	2590.68
729.03	2324.44
729.21	2232.29
729.39	2027.49
729.57	1857.51
729.75	1855.46
729.93	1877.99
730.11	1771.49
730.30	1708.01
730.48	1728.49
730.66	1753.06
730.84	1716.20
731.02	1685.48
731.20	1683.43
731.38	1748.97
731.56	1705.96
731.74	1697.77
731.93	1691.62
732.11	1630.18
732.29	1679.33
732.47	1755.11
732.65	1746.92
732.83	1740.77
733.01	1677.29
733.19	1644.52
733.37	1710.05
733.56	1669.09
733.74	1648.61
733.92	1732.58
734.10	1677.29
734.28	1808.36
734.46	1673.19
734.64	1703.91
734.82	1671.14
735.00	1728.49
735.18	1726.44
735.36	1748.97
735.54	1660.90
735.73	1689.57
735.91	1738.73
736.09	1738.73
736.27	1726.44
736.45	1714.15
736.63	1650.66
736.81	1673.19
736.99	1755.11
737.17	1746.92
737.35	1601.51
737.53	1665.00
737.71	1744.87
737.89	1839.08
738.07	1613.80
738.25	1693.67
738.43	1626.09
738.61	1636.33
738.80	1609.70
738.98	1665.00
739.16	1705.96
739.34	1689.57
739.52	1740.77
739.70	1632.23
739.88	1742.82
740.06	1791.97
740.24	1601.51
740.42	1697.77
740.60	1615.85
740.78	1683.43
740.96	1640.42
741.14	1718.25
741.32	1787.88
741.50	1693.67
741.68	1779.68
741.86	1781.73
742.04	1699.81
742.22	1693.67
742.40	1640.42
742.58	1744.87
742.76	1646.57
742.94	1738.73
743.12	1632.23
743.30	1677.29
743.48	1761.25
743.66	1605.61
743.84	1759.21
744.02	1660.90
744.20	1656.81
744.38	1576.94
744.56	1667.05
744.74	1744.87
744.92	1689.57
745.10	1837.03
745.28	1689.57
745.46	1841.12
745.64	1671.14
745.82	1734.63
746.00	1652.71
746.18	1701.86
746.36	1644.52
746.54	1734.63
746.72	1673.19
746.90	1660.90
747.08	1779.68
747.26	1646.57
747.44	1746.92
747.62	1677.29
747.80	1777.64
747.98	1765.35
748.15	1665.00
748.33	1722.34
748.51	1669.09
748.69	1722.34
748.87	1691.62
749.05	1636.33
749.23	1671.14
749.41	1685.48
749.59	1697.77
749.77	1773.54
749.95	1703.91
750.13	1740.77
750.31	1718.25
750.49	1722.34
750.67	1740.77
750.85	1857.51
751.03	1714.15
751.20	1763.30
751.38	1775.59
751.56	1673.19
751.74	1656.81
751.92	1746.92
752.10	1673.19
752.28	1806.31
752.46	1712.10
752.64	1710.05
752.82	1683.43
753.00	1703.91
753.18	1621.99
753.35	1771.49
753.53	1652.71
753.71	1716.20
753.89	1746.92
754.07	1734.63
754.25	1765.35
754.43	1677.29
754.61	1609.70
754.79	1742.82
754.97	1712.10
755.14	1767.40
755.32	1638.38
755.50	1703.91
755.68	1685.48
755.86	1628.14
756.04	1665.00
756.22	1662.95
756.40	1701.86
756.57	1757.16
756.75	1730.53
756.93	1732.58
757.11	1738.73
757.29	1660.90
757.47	1681.38
757.65	1652.71
757.82	1634.28
758.00	1609.70
758.18	1605.61
758.36	1599.46
758.54	1787.88
758.72	1669.09
758.90	1789.92
759.07	1675.24
759.25	1636.33
759.43	1665.00
759.61	1644.52
759.79	2207.71
759.97	1693.67
760.15	1683.43
760.32	1765.35
760.50	1740.77
760.68	1810.40
760.86	1656.81
761.04	1759.21
761.22	1718.25
761.39	1621.99
761.57	1677.29
761.75	1652.71
761.93	1677.29
762.11	1710.05
762.28	1695.72
762.46	1578.98
762.64	1796.07
762.82	1691.62
763.00	1687.53
763.18	1763.30
763.35	1718.25
763.53	1746.92
763.71	1753.06
763.89	1769.44
764.07	1656.81
764.24	1667.05
764.42	1839.08
764.60	1697.77
764.78	1693.67
764.96	1681.38
765.13	1812.45
765.31	1662.95
765.49	1816.55
765.67	1648.61
765.84	1638.38
766.02	1740.77
766.20	1662.95
766.38	1669.09
766.56	1722.34
766.73	1757.16
766.91	1763.30
767.09	1773.54
767.27	1736.68
767.44	1626.09
767.62	1708.01
767.80	1761.25
767.98	1718.25
768.15	1675.24
768.33	1683.43
768.51	1687.53
768.69	1695.72
768.87	1705.96
769.04	1699.81
769.22	1853.41
769.40	1740.77
769.58	1785.83
769.75	1665.00
769.93	1851.36
770.11	1652.71
770.28	1687.53
770.46	1656.81
770.64	1714.15
770.82	1642.47
770.99	1705.96
771.17	1722.34
771.35	1650.66
771.53	1763.30
771.70	1732.58
771.88	1769.44
772.06	1734.63
772.23	1658.85
772.41	1697.77
772.59	1646.57
772.77	1638.38
772.94	1667.05
773.12	1800.16
773.30	1685.48
773.47	1681.38
773.65	1679.33
773.83	1783.78
774.01	1656.81
774.18	1593.32
774.36	1722.34
774.54	1609.70
774.71	1705.96
774.89	1642.47
775.07	1603.56
775.24	1665.00
775.42	1673.19
775.60	1818.60
775.78	1677.29
775.95	1685.48
776.13	1591.27
776.31	1611.75
776.48	1665.00
776.66	1757.16
776.84	1681.38
777.01	1644.52
777.19	1628.14
777.37	1626.09
777.54	1785.83
777.72	1787.88
777.90	1726.44
778.07	1656.81
778.25	1834.98
778.43	1662.95
778.60	1703.91
778.78	1785.83
778.96	1738.73
779.13	1634.28
779.31	1753.06
779.49	1669.09
779.66	1662.95
779.84	1701.86
780.01	1646.57
780.19	1669.09
780.37	1716.20
780.54	1724.39
780.72	1677.29
780.90	1644.52
781.07	1699.81
781.25	1695.72
781.43	1746.92
781.60	1716.20
781.78	1761.25
781.95	1701.86
782.13	1609.70
782.31	1673.19
782.48	1654.76
782.66	1691.62
782.83	1814.50
783.01	1701.86
783.19	1763.30
783.36	1771.49
783.54	1660.90
783.72	1746.92
783.89	1667.05
784.07	1781.73
784.24	1837.03
784.42	1775.59
784.60	1632.23
784.77	1771.49
784.95	1636.33
785.12	1640.42
785.30	1738.73
785.47	1628.14
785.65	1611.75
785.83	1685.48
786.00	1736.68
786.18	1673.19
786.35	1630.18
786.53	1583.08
786.71	1693.67
786.88	1652.71
787.06	1738.73
787.23	1654.76
787.41	1576.94
787.58	1601.51
787.76	1619.94
787.94	1689.57
788.11	1746.92
788.29	1626.09
788.46	1685.48
788.64	1628.14
788.81	1613.80
788.99	1640.42
789.16	1607.66
789.34	1755.11
789.52	1771.49
789.69	1679.33
789.87	1662.95
790.04	1683.43
790.22	1693.67
790.39	1894.37
790.57	1658.85
790.74	1667.05
790.92	1689.57
791.09	1681.38
791.27	1644.52
791.44	1781.73
791.62	1642.47
791.79	1810.40
791.97	1689.57
792.15	1871.84
792.32	1722.34
792.50	1724.39
792.67	1761.25
792.85	1777.64
793.02	1718.25
793.20	1613.80
793.37	1638.38
793.55	1724.39
793.72	1681.38
793.90	1677.29
794.07	1609.70
794.25	1576.94
794.42	1763.30
794.60	1630.18
794.77	1769.44
794.95	1773.54
795.12	1687.53
795.30	1624.04
795.47	1607.66
795.65	1818.60
795.82	1665.00
796.00	1624.04
796.17	1714.15
796.34	1642.47
796.52	1736.68
796.69	1746.92
796.87	1748.97
797.04	1708.01
797.22	1767.40
797.39	1636.33
797.57	1705.96
797.74	1724.39
797.92	1730.53
798.09	1554.41
798.27	1775.59
798.44	1759.21
798.62	1679.33
798.79	1705.96
798.96	1738.73
799.14	1656.81
799.31	1828.84
799.49	1667.05
799.66	1691.62
799.84	1746.92
800.01	1671.14
800.19	1705.96
800.36	1603.56
800.53	1662.95
800.71	1683.43
800.88	1658.85
801.06	1646.57
801.23	1650.66
801.41	1644.52
801.58	1617.90
801.75	1691.62
801.93	1759.21
802.10	1654.76
802.28	1693.67
802.45	1662.95
802.63	1689.57
802.80	1767.40
802.97	1669.09
803.15	1779.68
803.32	1693.67
803.50	1650.66
803.67	1636.33
803.84	1677.29
804.02	1757.16
804.19	1636.33
804.37	1593.32
804.54	1650.66
804.71	1712.10
804.89	1755.11
805.06	1667.05
805.24	1660.90
805.41	1638.38
805.58	1677.29
805.76	1826.79
805.93	1695.72
806.10	1767.40
806.28	1761.25
806.45	1703.91
806.63	1761.25
806.80	1761.25
806.97	1742.82
807.15	1697.77
807.32	1742.82
807.49	1669.09
807.67	1681.38
807.84	1716.20
808.01	1652.71
808.19	1789.92
808.36	1847.27
808.54	1746.92
808.71	1611.75
808.88	1677.29
809.06	1708.01
809.23	1697.77
809.40	1691.62
809.58	1796.07
809.75	1665.00
809.92	1687.53
810.10	1880.04
810.27	1710.05
810.44	1742.82
810.62	1791.97
810.79	1685.48
810.96	1701.86
811.14	1695.72
811.31	1705.96
811.48	1724.39
811.66	1695.72
811.83	1693.67
812.00	1757.16
812.18	1630.18
812.35	1888.23
812.52	1558.50
812.69	1738.73
812.87	1665.00
813.04	1656.81
813.21	1683.43
813.39	1636.33
813.56	1681.38
813.73	1773.54
813.91	1673.19
814.08	1658.85
814.25	1642.47
814.42	1591.27
814.60	1650.66
814.77	1716.20
814.94	1628.14
815.12	1710.05
815.29	1767.40
815.46	1695.72
815.63	1654.76
815.81	1681.38
815.98	1609.70
816.15	1742.82
816.33	1779.68
816.50	1677.29
816.67	1689.57
816.84	1671.14
817.02	1583.08
817.19	1644.52
817.36	1648.61
817.53	1755.11
817.71	1716.20
817.88	1703.91
818.05	1658.85
818.22	1660.90
818.40	1785.83
818.57	1691.62
818.74	1757.16
818.91	1679.33
819.09	1738.73
819.26	1720.29
819.43	1597.42
819.60	1640.42
819.78	1763.30
819.95	1794.02
820.12	1656.81
820.29	1773.54
820.47	1789.92
820.64	1675.24
820.81	1630.18
820.98	1660.90
821.15	1732.58
821.33	1677.29
821.50	1650.66
821.67	1708.01
821.84	1624.04
822.02	1648.61
822.19	1775.59
822.36	1712.10
822.53	1712.10
822.70	1595.37
822.88	1722.34
823.05	1785.83
823.22	1630.18
823.39	1683.43
823.56	1714.15
823.74	1789.92
823.91	1613.80
824.08	1689.57
824.25	1595.37
824.42	1701.86
824.60	1687.53
824.77	1675.24
824.94	1628.14
825.11	1769.44
825.28	1609.70
825.45	1767.40
825.63	1695.72
825.80	1703.91
825.97	1687.53
826.14	1710.05
826.31	1619.94
826.48	1708.01
826.66	1652.71
826.83	1632.23
827.00	1671.14
827.17	1685.48
827.34	1687.53
827.51	1609.70
827.69	1689.57
827.86	1656.81
828.03	1699.81
828.20	1703.91
828.37	1593.32
828.54	1765.35
828.71	1757.16
828.89	1740.77
829.06	1724.39
829.23	1806.31
829.40	1646.57
829.57	1697.77
829.74	1726.44
829.91	1667.05
830.09	1650.66
830.26	1759.21
830.43	1771.49
830.60	1654.76
830.77	1669.09
830.94	1742.82
831.11	1734.63
831.28	1675.24
831.46	1720.29
831.63	1703.91
831.80	1724.39
831.97	1667.05
832.14	1679.33
832.31	1675.24
832.48	1697.77
832.65	1691.62
832.82	1746.92
832.99	1730.53
833.17	1636.33
833.34	1814.50
833.51	1728.49
833.68	1628.14
833.85	1753.06
834.02	1619.94
834.19	1646.57
834.36	1591.27
834.53	1685.48
834.70	1767.40
834.87	1759.21
835.04	1740.77
835.22	1648.61
835.39	1644.52
835.56	1640.42
835.73	1646.57
835.90	1771.49
836.07	1658.85
836.24	1740.77
836.41	1576.94
836.58	1656.81
836.75	1730.53
836.92	1683.43
837.09	1712.10
837.26	1712.10
837.43	1675.24
837.60	1759.21
837.77	1665.00
837.94	1708.01
838.12	1816.55
838.29	1714.15
838.46	1665.00
838.63	1576.94
838.80	1738.73
838.97	1695.72
839.14	1667.05
839.31	1701.86
839.48	1765.35
839.65	1751.01
839.82	1718.25
839.99	1652.71
840.16	1658.85
840.33	1652.71
840.50	1705.96
840.67	1681.38
840.84	1533.93
841.01	1701.86
841.18	1677.29
841.35	1695.72
841.52	1689.57
841.69	1804.26
841.86	1720.29
842.03	1642.47
842.20	1785.83
842.37	1685.48
842.54	1705.96
842.71	1703.91
842.88	1599.46
843.05	1746.92
843.22	1628.14
843.39	1722.34
843.56	1681.38
843.73	1654.76
843.90	1650.66
844.07	1693.67
844.24	1736.68
844.41	1775.59
844.58	1697.77
844.75	1703.91
844.92	1710.05
845.09	1638.38
845.26	1646.57
845.43	1669.09
845.60	1724.39
845.77	1742.82
845.94	1726.44
846.10	1701.86
846.27	1640.42
846.44	1626.09
846.61	1644.52
846.78	1734.63
846.95	1779.68
847.12	1710.05
847.29	1695.72
847.46	1634.28
847.63	1712.10
847.80	1685.48
847.97	1697.77
848.14	1822.69
848.31	1624.04
848.48	1648.61
848.65	1742.82
848.82	1644.52
848.98	1830.88
849.15	1671.14
849.32	1697.77
849.49	1738.73
849.66	1646.57
849.83	1667.05
850.00	1640.42
850.17	1726.44
850.34	1609.70
850.51	1583.08
850.68	1691.62
850.85	1796.07
851.01	1724.39
851.18	1714.15
851.35	1677.29
851.52	1763.30
851.69	1748.97
851.86	1593.32
852.03	1615.85
852.20	1744.87
852.37	1685.48
852.53	1609.70
852.70	1697.77
852.87	1634.28
853.04	1728.49
853.21	1683.43
853.38	1734.63
853.55	1769.44
853.72	1691.62
853.89	1619.94
854.05	1607.66
854.22	1638.38
854.39	1628.14
854.56	1660.90
854.73	1789.92
854.90	1687.53
855.07	1697.77
855.23	1533.93
855.40	1685.48
855.57	1677.29
855.74	1593.32
855.91	1912.80
856.08	1621.99
856.25	1665.00
856.41	1697.77
856.58	1718.25
856.75	1667.05
856.92	1660.90
857.09	1671.14
857.26	1693.67
857.42	1695.72
857.59	1730.53
857.76	1689.57
857.93	1691.62
858.10	1705.96
858.27	1544.17
858.43	1718.25
858.60	1705.96
858.77	1632.23
858.94	1648.61
859.11	1755.11
859.27	1621.99
859.44	1767.40
859.61	1769.44
859.78	1699.81
859.95	1669.09
860.12	1683.43
860.28	1822.69
860.45	1789.92
860.62	1640.42
860.79	1746.92
860.95	1681.38
861.12	1665.00
861.29	1656.81
861.46	1648.61
861.63	1695.72
861.79	1771.49
861.96	1681.38
862.13	1671.14
862.30	1804.26
862.47	1611.75
862.63	1621.99
862.80	1714.15
862.97	1748.97
863.14	1771.49
863.30	1708.01
863.47	1662.95
863.64	1757.16
863.81	1689.57
863.97	1685.48
864.14	1677.29
864.31	1689.57
864.48	1683.43
864.65	1679.33
864.81	1726.44
864.98	1701.86
865.15	1708.01
865.32	1820.64
865.48	1738.73
865.65	1759.21
865.82	1681.38
865.98	1705.96
866.15	1724.39
866.32	1683.43
866.49	1683.43
866.65	1685.48
866.82	1617.90
866.99	1675.24
867.16	1667.05
867.32	1615.85
867.49	1701.86
867.66	1650.66
867.83	1699.81
867.99	1587.18
868.16	1691.62
868.33	1658.85
868.49	1626.09
868.66	1677.29
868.83	1769.44
868.99	1710.05
869.16	1683.43
869.33	1820.64
869.50	1767.40
869.66	1675.24
869.83	1646.57
870.00	1656.81
870.16	1695.72
870.33	1681.38
870.50	1734.63
870.66	1710.05
870.83	1771.49
871.00	1660.90
871.17	1710.05
871.33	1662.95
871.50	1712.10
871.67	1642.47
871.83	1753.06
872.00	1722.34
872.17	1628.14
872.33	1779.68
872.50	1771.49
872.67	1724.39
872.83	1654.76
873.00	1783.78
873.17	1720.29
873.33	1705.96
873.50	1773.54
873.67	1615.85
873.83	1640.42
874.00	1693.67
874.16	1744.87
874.33	1673.19
874.50	1667.05
874.66	1796.07
874.83	1654.76
875.00	1761.25
875.16	1755.11
875.33	1832.93
875.50	1646.57
875.66	1710.05
875.83	1712.10
875.99	1757.16
876.16	1681.38
876.33	1654.76
876.49	1693.67
876.66	1728.49
876.83	1677.29
876.99	1558.50
877.16	1675.24
877.32	1732.58
877.49	1710.05
877.66	1716.20
877.82	1804.26
877.99	1689.57
878.15	1828.84
878.32	1701.86
878.49	1757.16
878.65	1714.15
878.82	1722.34
878.98	1658.85
879.15	1695.72
879.32	1796.07
879.48	1714.15
879.65	1613.80
879.81	1705.96
879.98	1671.14
880.15	1718.25
880.31	1738.73
880.48	1626.09
880.64	1693.67
880.81	1740.77
880.97	1783.78
881.14	1767.40
881.31	1703.91
881.47	1800.16
881.64	1734.63
881.80	1605.61
881.97	1693.67
882.13	1773.54
882.30	1685.48
882.47	1697.77
882.63	1583.08
882.80	1701.86
882.96	1630.18
883.13	1730.53
883.29	1710.05
883.46	1669.09
883.62	1781.73
883.79	1691.62
883.95	1755.11
884.12	1753.06
884.29	1794.02
884.45	1611.75
884.62	1675.24
884.78	1613.80
884.95	1734.63
885.11	1640.42
885.28	1669.09
885.44	1683.43
885.61	1697.77
885.77	1738.73
885.94	1703.91
886.10	1691.62
886.27	1769.44
886.43	1748.97
886.60	1753.06
886.76	1654.76
886.93	1724.39
887.09	1765.35
887.26	1546.22
887.42	1611.75
887.59	1722.34
887.75	1857.51
887.92	1685.48
888.08	1845.22
888.25	1871.84
888.41	1742.82
888.58	1638.38
888.74	1634.28
888.91	1722.34
>>>>>End Processed Spectral Data<<<<<
