SpectraSuite Data File
++++++++++++++++++++++++++++++++++++
Date: Mon Jun 06 15:48:37 CEST 2016
User: root
Dark Spectrum Present: No
Reference Spectrum Present: No
Number of Sampled Component Spectra: 1
Spectrometers: USB4C02835
Integration Time (usec): 100000 (USB4C02835)
Spectra Averaged: 1 (USB4C02835)
Boxcar Smoothing: 0 (USB4C02835)
Correct for Electrical Dark: No (USB4C02835)
Strobe/Lamp Enabled: No (USB4C02835)
Correct for Detector Non-linearity: No (USB4C02835)
Correct for Stray Light: No (USB4C02835)
Number of Pixels in Processed Spectrum: 3648
>>>>>Begin Processed Spectral Data<<<<<
177.47	1546.22
177.69	1546.22
177.91	1546.22
178.13	1445.87
178.36	1484.78
178.58	1671.14
178.80	1630.18
179.02	1576.94
179.24	1705.96
179.46	1685.48
179.68	1744.87
179.90	1744.87
180.13	1730.53
180.35	1697.77
180.57	1736.68
180.79	1691.62
181.01	1755.11
181.23	1769.44
181.45	1775.59
181.67	1783.78
181.90	1845.22
182.12	1712.10
182.34	1609.70
182.56	1726.44
182.78	1710.05
183.00	1732.58
183.22	1685.48
183.44	1609.70
183.66	1898.47
183.89	1837.03
184.11	1712.10
184.33	1816.55
184.55	1757.16
184.77	1787.88
184.99	1787.88
185.21	1806.31
185.43	1851.36
185.65	1683.43
185.87	1697.77
186.10	1802.21
186.32	1804.26
186.54	1689.57
186.76	1775.59
186.98	1771.49
187.20	1675.24
187.42	1732.58
187.64	1781.73
187.86	1771.49
188.08	1714.15
188.30	1683.43
188.52	1685.48
188.75	1826.79
188.97	1781.73
189.19	1660.90
189.41	1724.39
189.63	1781.73
189.85	1648.61
190.07	1607.66
190.29	1621.99
190.51	1701.86
190.73	1701.86
190.95	1765.35
191.17	1681.38
191.39	1667.05
191.61	1716.20
191.84	1640.42
192.06	1722.34
192.28	1587.18
192.50	1847.27
192.72	1779.68
192.94	1714.15
193.16	1728.49
193.38	1607.66
193.60	1630.18
193.82	1658.85
194.04	1810.40
194.26	1720.29
194.48	1753.06
194.70	1648.61
194.92	1701.86
195.14	1718.25
195.36	1681.38
195.58	1740.77
195.80	1777.64
196.02	1679.33
196.24	1759.21
196.46	1705.96
196.69	1681.38
196.91	1779.68
197.13	1644.52
197.35	1689.57
197.57	1853.41
197.79	1806.31
198.01	1761.25
198.23	1753.06
198.45	1771.49
198.67	1673.19
198.89	1740.77
199.11	1744.87
199.33	1705.96
199.55	1603.56
199.77	1638.38
199.99	1769.44
200.21	1738.73
200.43	1796.07
200.65	1701.86
200.87	1652.71
201.09	1683.43
201.31	1693.67
201.53	1701.86
201.75	1830.88
201.97	1642.47
202.19	1701.86
202.41	1781.73
202.63	1798.12
202.85	1755.11
203.07	1746.92
203.29	1691.62
203.51	1677.29
203.73	1714.15
203.95	1880.04
204.17	1687.53
204.39	1652.71
204.61	1703.91
204.83	1705.96
205.05	1736.68
205.27	1708.01
205.49	1859.56
205.71	1648.61
205.93	1675.24
206.15	1615.85
206.37	1734.63
206.59	1720.29
206.81	1665.00
207.03	1662.95
207.25	1662.95
207.47	1779.68
207.69	1685.48
207.91	1814.50
208.13	1746.92
208.34	1654.76
208.56	1728.49
208.78	1683.43
209.00	1726.44
209.22	1720.29
209.44	1742.82
209.66	1757.16
209.88	1712.10
210.10	1658.85
210.32	1730.53
210.54	1800.16
210.76	1695.72
210.98	1722.34
211.20	1640.42
211.42	1728.49
211.64	1804.26
211.86	1808.36
212.08	1779.68
212.30	1736.68
212.52	1689.57
212.74	1734.63
212.96	1685.48
213.17	1761.25
213.39	1748.97
213.61	1746.92
213.83	1804.26
214.05	1693.67
214.27	1816.55
214.49	1630.18
214.71	1634.28
214.93	1759.21
215.15	1763.30
215.37	1759.21
215.59	1609.70
215.81	1740.77
216.03	1789.92
216.24	1675.24
216.46	1660.90
216.68	1746.92
216.90	1751.01
217.12	1791.97
217.34	1753.06
217.56	1802.21
217.78	1820.64
218.00	1708.01
218.22	1722.34
218.44	1734.63
218.66	1771.49
218.87	1841.12
219.09	1679.33
219.31	1751.01
219.53	1718.25
219.75	1720.29
219.97	1669.09
220.19	1722.34
220.41	1716.20
220.63	1787.88
220.85	1738.73
221.06	1771.49
221.28	1755.11
221.50	1810.40
221.72	1693.67
221.94	1708.01
222.16	1697.77
222.38	1730.53
222.60	1693.67
222.82	1673.19
223.03	1732.58
223.25	1671.14
223.47	1773.54
223.69	1820.64
223.91	1765.35
224.13	1703.91
224.35	1746.92
224.57	1718.25
224.78	1728.49
225.00	1716.20
225.22	1693.67
225.44	1734.63
225.66	1779.68
225.88	1656.81
226.10	1783.78
226.32	1771.49
226.53	1775.59
226.75	1734.63
226.97	1734.63
227.19	1726.44
227.41	1687.53
227.63	1617.90
227.85	1656.81
228.06	1658.85
228.28	1746.92
228.50	1748.97
228.72	1601.51
228.94	1685.48
229.16	1650.66
229.37	1652.71
229.59	1734.63
229.81	1767.40
230.03	1693.67
230.25	1646.57
230.47	1581.03
230.69	1681.38
230.90	1794.02
231.12	1738.73
231.34	1660.90
231.56	1730.53
231.78	1677.29
232.00	1665.00
232.21	1748.97
232.43	1685.48
232.65	1615.85
232.87	1701.86
233.09	1716.20
233.30	1646.57
233.52	1720.29
233.74	1701.86
233.96	1699.81
234.18	1728.49
234.40	1699.81
234.61	1849.32
234.83	1601.51
235.05	1665.00
235.27	1884.13
235.49	1796.07
235.70	1650.66
235.92	1826.79
236.14	1767.40
236.36	1824.74
236.58	1642.47
236.79	1724.39
237.01	1763.30
237.23	1718.25
237.45	1820.64
237.67	1673.19
237.88	1705.96
238.10	1869.80
238.32	1652.71
238.54	1652.71
238.76	1732.58
238.97	1697.77
239.19	1701.86
239.41	1767.40
239.63	1789.92
239.85	1658.85
240.06	1781.73
240.28	1701.86
240.50	1767.40
240.72	1708.01
240.93	1753.06
241.15	1765.35
241.37	1732.58
241.59	1791.97
241.81	1677.29
242.02	1705.96
242.24	1701.86
242.46	1816.55
242.68	1601.51
242.89	1738.73
243.11	1705.96
243.33	1724.39
243.55	1677.29
243.76	1736.68
243.98	1675.24
244.20	1677.29
244.42	1730.53
244.64	1769.44
244.85	1691.62
245.07	1652.71
245.29	1724.39
245.51	1728.49
245.72	1697.77
245.94	1800.16
246.16	1718.25
246.38	1802.21
246.59	1673.19
246.81	1671.14
247.03	1705.96
247.24	1609.70
247.46	1673.19
247.68	1699.81
247.90	1703.91
248.11	1632.23
248.33	1665.00
248.55	1654.76
248.77	1779.68
248.98	1755.11
249.20	1742.82
249.42	1708.01
249.64	1800.16
249.85	1738.73
250.07	1716.20
250.29	1746.92
250.50	1763.30
250.72	1628.14
250.94	1775.59
251.16	1839.08
251.37	1802.21
251.59	1839.08
251.81	1742.82
252.02	1777.64
252.24	1757.16
252.46	1751.01
252.68	1652.71
252.89	1626.09
253.11	1581.03
253.33	1769.44
253.54	1892.32
253.76	1615.85
253.98	1746.92
254.20	1708.01
254.41	1615.85
254.63	1693.67
254.85	1650.66
255.06	1705.96
255.28	1660.90
255.50	1652.71
255.71	1718.25
255.93	1621.99
256.15	1695.72
256.36	1732.58
256.58	1650.66
256.80	1699.81
257.02	1660.90
257.23	1646.57
257.45	1710.05
257.67	1720.29
257.88	1638.38
258.10	1681.38
258.32	1699.81
258.53	1648.61
258.75	1804.26
258.97	1714.15
259.18	1703.91
259.40	1701.86
259.62	1728.49
259.83	1789.92
260.05	1716.20
260.27	1964.00
260.48	1738.73
260.70	1650.66
260.92	1730.53
261.13	1681.38
261.35	1730.53
261.57	1746.92
261.78	1574.89
262.00	1648.61
262.22	1722.34
262.43	1669.09
262.65	1730.53
262.86	1730.53
263.08	1845.22
263.30	1681.38
263.51	1621.99
263.73	1742.82
263.95	1910.75
264.16	1636.33
264.38	1642.47
264.60	1746.92
264.81	1693.67
265.03	1755.11
265.25	1730.53
265.46	1728.49
265.68	1843.17
265.89	1753.06
266.11	1669.09
266.33	1724.39
266.54	1791.97
266.76	1712.10
266.98	1699.81
267.19	1755.11
267.41	1783.78
267.62	1771.49
267.84	1603.56
268.06	1759.21
268.27	1710.05
268.49	1767.40
268.70	1789.92
268.92	1642.47
269.14	1648.61
269.35	1589.22
269.57	1695.72
269.79	1806.31
270.00	1669.09
270.22	1820.64
270.43	1724.39
270.65	1638.38
270.87	1701.86
271.08	1675.24
271.30	1796.07
271.51	1722.34
271.73	1697.77
271.95	1796.07
272.16	1714.15
272.38	1695.72
272.59	1751.01
272.81	1753.06
273.02	1667.05
273.24	1697.77
273.46	1753.06
273.67	1654.76
273.89	1691.62
274.10	1759.21
274.32	1787.88
274.54	1771.49
274.75	1677.29
274.97	1667.05
275.18	1755.11
275.40	1722.34
275.61	1765.35
275.83	1759.21
276.05	1669.09
276.26	1703.91
276.48	1753.06
276.69	1722.34
276.91	1679.33
277.12	1732.58
277.34	1689.57
277.55	1751.01
277.77	1714.15
277.99	1665.00
278.20	1626.09
278.42	1679.33
278.63	1720.29
278.85	1636.33
279.06	1574.89
279.28	1755.11
279.49	1734.63
279.71	1722.34
279.93	1730.53
280.14	1695.72
280.36	1771.49
280.57	1769.44
280.79	1810.40
281.00	1718.25
281.22	1734.63
281.43	1843.17
281.65	1607.66
281.86	1646.57
282.08	1789.92
282.29	1736.68
282.51	1665.00
282.73	1654.76
282.94	1621.99
283.16	1695.72
283.37	1720.29
283.59	1689.57
283.80	1804.26
284.02	1738.73
284.23	1734.63
284.45	1675.24
284.66	1675.24
284.88	1722.34
285.09	1683.43
285.31	1794.02
285.52	1746.92
285.74	1621.99
285.95	1820.64
286.17	1685.48
286.38	1744.87
286.60	1683.43
286.81	1736.68
287.03	1761.25
287.24	1681.38
287.46	1775.59
287.67	1742.82
287.89	1877.99
288.10	1728.49
288.32	1689.57
288.53	1798.12
288.75	1748.97
288.96	1757.16
289.18	1658.85
289.39	1683.43
289.61	1818.60
289.82	1771.49
290.04	1834.98
290.25	1617.90
290.47	1689.57
290.68	1742.82
290.90	1732.58
291.11	1624.04
291.33	1789.92
291.54	1685.48
291.76	1705.96
291.97	1722.34
292.18	1693.67
292.40	1638.38
292.61	1695.72
292.83	1855.46
293.04	1705.96
293.26	1771.49
293.47	1753.06
293.69	1667.05
293.90	1714.15
294.12	1763.30
294.33	1656.81
294.55	1660.90
294.76	1800.16
294.97	1818.60
295.19	1890.28
295.40	1738.73
295.62	1804.26
295.83	1763.30
296.05	1640.42
296.26	1769.44
296.48	1689.57
296.69	1679.33
296.90	1687.53
297.12	1746.92
297.33	1779.68
297.55	1683.43
297.76	1738.73
297.98	1765.35
298.19	1697.77
298.41	1685.48
298.62	1673.19
298.83	1798.12
299.05	1720.29
299.26	1691.62
299.48	1662.95
299.69	1738.73
299.90	1751.01
300.12	1615.85
300.33	1742.82
300.55	1675.24
300.76	1777.64
300.98	1642.47
301.19	1746.92
301.40	1648.61
301.62	1722.34
301.83	1748.97
302.05	1781.73
302.26	1771.49
302.47	1732.58
302.69	1621.99
302.90	1701.86
303.12	1583.08
303.33	1818.60
303.54	1808.36
303.76	1621.99
303.97	1777.64
304.19	1824.74
304.40	1654.76
304.61	1789.92
304.83	1740.77
305.04	1826.79
305.26	1789.92
305.47	1677.29
305.68	1726.44
305.90	1675.24
306.11	1720.29
306.33	1726.44
306.54	1628.14
306.75	1652.71
306.97	1689.57
307.18	1714.15
307.39	1679.33
307.61	1740.77
307.82	1716.20
308.04	1705.96
308.25	1728.49
308.46	1746.92
308.68	1722.34
308.89	1658.85
309.10	1800.16
309.32	1705.96
309.53	1726.44
309.74	1763.30
309.96	1693.67
310.17	1789.92
310.39	1722.34
310.60	1843.17
310.81	1644.52
311.03	1667.05
311.24	1777.64
311.45	1689.57
311.67	1800.16
311.88	1705.96
312.09	1742.82
312.31	1708.01
312.52	1730.53
312.73	1632.23
312.95	1626.09
313.16	1701.86
313.37	1732.58
313.59	1736.68
313.80	1714.15
314.01	1755.11
314.23	1751.01
314.44	1658.85
314.65	1609.70
314.87	1738.73
315.08	1722.34
315.29	1673.19
315.51	1755.11
315.72	1597.42
315.93	1853.41
316.15	1763.30
316.36	1617.90
316.57	1728.49
316.79	1673.19
317.00	1728.49
317.21	1742.82
317.43	1652.71
317.64	1710.05
317.85	1718.25
318.07	1705.96
318.28	1822.69
318.49	1781.73
318.70	2017.25
318.92	1873.89
319.13	1869.80
319.34	1845.22
319.56	1791.97
319.77	1828.84
319.98	1751.01
320.20	1744.87
320.41	1757.16
320.62	1773.54
320.83	1638.38
321.05	1912.80
321.26	1658.85
321.47	1724.39
321.69	1732.58
321.90	1624.04
322.11	1658.85
322.32	1748.97
322.54	1783.78
322.75	1703.91
322.96	1845.22
323.18	1613.80
323.39	1705.96
323.60	1654.76
323.81	1763.30
324.03	1689.57
324.24	1691.62
324.45	1773.54
324.66	1685.48
324.88	1736.68
325.09	1687.53
325.30	1662.95
325.52	1783.78
325.73	1771.49
325.94	1718.25
326.15	1628.14
326.37	1662.95
326.58	1814.50
326.79	1802.21
327.00	1712.10
327.22	1746.92
327.43	1740.77
327.64	1546.22
327.85	1734.63
328.07	1640.42
328.28	1839.08
328.49	1730.53
328.70	1675.24
328.92	1667.05
329.13	1677.29
329.34	1724.39
329.55	1783.78
329.76	1748.97
329.98	1714.15
330.19	1830.88
330.40	1742.82
330.61	1693.67
330.83	1773.54
331.04	1611.75
331.25	1648.61
331.46	1679.33
331.68	1683.43
331.89	1845.22
332.10	1679.33
332.31	1638.38
332.52	1748.97
332.74	1789.92
332.95	1638.38
333.16	1683.43
333.37	1757.16
333.58	1685.48
333.80	1732.58
334.01	1607.66
334.22	1755.11
334.43	1675.24
334.64	1708.01
334.86	1634.28
335.07	1693.67
335.28	1748.97
335.49	1689.57
335.70	1714.15
335.92	1751.01
336.13	1863.65
336.34	1730.53
336.55	1767.40
336.76	1738.73
336.98	1656.81
337.19	1751.01
337.40	1755.11
337.61	1841.12
337.82	1708.01
338.04	1804.26
338.25	1589.22
338.46	1701.86
338.67	1669.09
338.88	1593.32
339.09	1705.96
339.31	1648.61
339.52	1617.90
339.73	1705.96
339.94	1777.64
340.15	1689.57
340.36	1742.82
340.58	1685.48
340.79	1691.62
341.00	1734.63
341.21	1667.05
341.42	1853.41
341.63	1718.25
341.85	1796.07
342.06	1714.15
342.27	1632.23
342.48	1837.03
342.69	1683.43
342.90	1656.81
343.12	1705.96
343.33	1742.82
343.54	1808.36
343.75	1705.96
343.96	1681.38
344.17	1685.48
344.38	1624.04
344.60	1681.38
344.81	1738.73
345.02	1748.97
345.23	1742.82
345.44	1794.02
345.65	1734.63
345.86	1779.68
346.07	1824.74
346.29	1675.24
346.50	1742.82
346.71	1738.73
346.92	1800.16
347.13	1755.11
347.34	1701.86
347.55	1724.39
347.76	1785.83
347.98	1644.52
348.19	1755.11
348.40	1759.21
348.61	1730.53
348.82	1806.31
349.03	1697.77
349.24	1728.49
349.45	1896.42
349.66	1632.23
349.88	1787.88
350.09	1697.77
350.30	1742.82
350.51	1738.73
350.72	1730.53
350.93	1748.97
351.14	1716.20
351.35	1736.68
351.56	1656.81
351.77	1652.71
351.99	1794.02
352.20	1822.69
352.41	1720.29
352.62	1660.90
352.83	1677.29
353.04	1744.87
353.25	1679.33
353.46	1724.39
353.67	1802.21
353.88	1667.05
354.09	1746.92
354.30	1644.52
354.52	1753.06
354.73	1701.86
354.94	1583.08
355.15	1691.62
355.36	1798.12
355.57	1693.67
355.78	1765.35
355.99	1679.33
356.20	1705.96
356.41	1755.11
356.62	1736.68
356.83	1689.57
357.04	1771.49
357.25	1613.80
357.46	1710.05
357.68	1605.61
357.89	1640.42
358.10	1775.59
358.31	1742.82
358.52	1665.00
358.73	1693.67
358.94	1626.09
359.15	1744.87
359.36	1814.50
359.57	1710.05
359.78	1677.29
359.99	1751.01
360.20	1640.42
360.41	1767.40
360.62	1753.06
360.83	1689.57
361.04	1755.11
361.25	1726.44
361.46	1748.97
361.67	1714.15
361.88	1800.16
362.09	1820.64
362.30	1640.42
362.51	1634.28
362.72	1824.74
362.93	1736.68
363.14	1751.01
363.35	1695.72
363.56	1662.95
363.78	1771.49
363.99	1708.01
364.20	1714.15
364.41	1779.68
364.62	1796.07
364.83	1783.78
365.04	1722.34
365.25	1765.35
365.46	1857.51
365.67	1611.75
365.88	1660.90
366.09	1689.57
366.30	1675.24
366.51	1720.29
366.72	1669.09
366.93	1685.48
367.14	1771.49
367.35	1751.01
367.56	1765.35
367.77	1736.68
367.98	1714.15
368.18	1767.40
368.39	1755.11
368.60	1621.99
368.81	1726.44
369.02	1787.88
369.23	1693.67
369.44	1624.04
369.65	1677.29
369.86	1710.05
370.07	1785.83
370.28	1656.81
370.49	1720.29
370.70	1734.63
370.91	1609.70
371.12	1658.85
371.33	1765.35
371.54	1636.33
371.75	1800.16
371.96	1638.38
372.17	1738.73
372.38	1708.01
372.59	1740.77
372.80	1712.10
373.01	1820.64
373.22	1677.29
373.43	1728.49
373.64	1652.71
373.85	1810.40
374.06	1804.26
374.26	1701.86
374.47	1658.85
374.68	1746.92
374.89	1732.58
375.10	1630.18
375.31	1708.01
375.52	1705.96
375.73	1718.25
375.94	1656.81
376.15	1828.84
376.36	1718.25
376.57	1644.52
376.78	1710.05
376.99	1701.86
377.20	1732.58
377.40	1671.14
377.61	1773.54
377.82	1667.05
378.03	1796.07
378.24	1734.63
378.45	1771.49
378.66	1802.21
378.87	1685.48
379.08	1632.23
379.29	1691.62
379.50	1755.11
379.71	1736.68
379.91	1718.25
380.12	1765.35
380.33	1708.01
380.54	1699.81
380.75	1798.12
380.96	1638.38
381.17	1855.46
381.38	1701.86
381.59	1736.68
381.80	1748.97
382.00	1804.26
382.21	1767.40
382.42	1789.92
382.63	1843.17
382.84	1667.05
383.05	1748.97
383.26	1880.04
383.47	1740.77
383.68	1699.81
383.88	1740.77
384.09	1751.01
384.30	1857.51
384.51	1728.49
384.72	1628.14
384.93	1603.56
385.14	1763.30
385.35	1738.73
385.55	1648.61
385.76	1705.96
385.97	1630.18
386.18	1624.04
386.39	1626.09
386.60	1742.82
386.81	1677.29
387.02	1617.90
387.22	1660.90
387.43	1726.44
387.64	1761.25
387.85	1777.64
388.06	2193.37
388.27	4310.97
388.48	6848.41
388.68	8079.24
388.89	9555.82
389.10	9545.58
389.31	8374.14
389.52	7393.17
389.73	6721.43
389.93	6121.38
390.14	5824.42
390.35	5099.44
390.56	4540.35
390.77	3758.02
390.98	3178.45
391.18	2572.25
391.39	2068.45
391.60	1943.52
391.81	1865.70
392.02	1769.44
392.23	1853.41
392.43	1732.58
392.64	1746.92
392.85	1710.05
393.06	1775.59
393.27	1714.15
393.47	1624.04
393.68	1763.30
393.89	1685.48
394.10	1779.68
394.31	1712.10
394.52	1687.53
394.72	1730.53
394.93	1816.55
395.14	1673.19
395.35	1738.73
395.56	1724.39
395.76	1794.02
395.97	1812.45
396.18	1863.65
396.39	1867.75
396.60	2101.22
396.80	1933.28
397.01	1888.23
397.22	1814.50
397.43	1902.56
397.64	1755.11
397.84	1785.83
398.05	1845.22
398.26	1796.07
398.47	1710.05
398.67	1837.03
398.88	1787.88
399.09	1748.97
399.30	1757.16
399.51	1789.92
399.71	1751.01
399.92	1738.73
400.13	1761.25
400.34	1705.96
400.54	1726.44
400.75	1822.69
400.96	1761.25
401.17	1845.22
401.37	1738.73
401.58	1673.19
401.79	1708.01
402.00	1859.56
402.21	2027.49
402.41	1918.95
402.62	2023.39
402.83	2009.06
403.04	1980.39
403.24	2064.35
403.45	1875.94
403.66	1945.57
403.87	1951.71
404.07	1871.84
404.28	1972.19
404.49	1943.52
404.70	1777.64
404.90	1796.07
405.11	1865.70
405.32	1724.39
405.52	1671.14
405.73	1705.96
405.94	1701.86
406.15	1714.15
406.35	1740.77
406.56	1730.53
406.77	1703.91
406.98	1730.53
407.18	1681.38
407.39	1820.64
407.60	1689.57
407.80	1748.97
408.01	1710.05
408.22	1798.12
408.43	1703.91
408.63	1806.31
408.84	1726.44
409.05	1724.39
409.25	1712.10
409.46	1611.75
409.67	1701.86
409.88	1755.11
410.08	1736.68
410.29	1689.57
410.50	1761.25
410.70	1718.25
410.91	1736.68
411.12	1712.10
411.32	1681.38
411.53	1603.56
411.74	1808.36
411.95	1789.92
412.15	1734.63
412.36	1798.12
412.57	1746.92
412.77	1865.70
412.98	1769.44
413.19	1703.91
413.39	1734.63
413.60	1822.69
413.81	1798.12
414.01	1730.53
414.22	1769.44
414.43	1730.53
414.63	1732.58
414.84	1761.25
415.05	1718.25
415.25	1689.57
415.46	1705.96
415.67	1712.10
415.87	1726.44
416.08	1712.10
416.29	1665.00
416.49	1781.73
416.70	1699.81
416.91	1634.28
417.11	1648.61
417.32	1796.07
417.53	1826.79
417.73	1695.72
417.94	1683.43
418.15	1697.77
418.35	1748.97
418.56	1699.81
418.77	1853.41
418.97	1701.86
419.18	1691.62
419.38	1607.66
419.59	1693.67
419.80	1804.26
420.00	1675.24
420.21	1763.30
420.42	1765.35
420.62	1771.49
420.83	1665.00
421.04	1718.25
421.24	1665.00
421.45	1761.25
421.65	1714.15
421.86	1695.72
422.07	1636.33
422.27	1761.25
422.48	1724.39
422.69	1634.28
422.89	1667.05
423.10	1742.82
423.30	1632.23
423.51	1714.15
423.72	1755.11
423.92	1826.79
424.13	1572.84
424.33	1822.69
424.54	1783.78
424.75	1644.52
424.95	1808.36
425.16	1726.44
425.36	1681.38
425.57	1777.64
425.78	1724.39
425.98	1800.16
426.19	1726.44
426.39	1691.62
426.60	1759.21
426.81	1834.98
427.01	1746.92
427.22	1626.09
427.42	1714.15
427.63	1681.38
427.83	1718.25
428.04	1769.44
428.25	1847.27
428.45	1839.08
428.66	1732.58
428.86	1734.63
429.07	1693.67
429.28	1783.78
429.48	1757.16
429.69	1722.34
429.89	1703.91
430.10	1671.14
430.30	1714.15
430.51	1783.78
430.71	1611.75
430.92	1685.48
431.13	1640.42
431.33	1773.54
431.54	1656.81
431.74	1857.51
431.95	1845.22
432.15	1648.61
432.36	1755.11
432.56	1757.16
432.77	1814.50
432.98	1820.64
433.18	1783.78
433.39	1673.19
433.59	1777.64
433.80	1808.36
434.00	1841.12
434.21	1771.49
434.41	1681.38
434.62	1843.17
434.82	1738.73
435.03	1691.62
435.23	1783.78
435.44	1578.98
435.64	1730.53
435.85	1722.34
436.06	1718.25
436.26	1808.36
436.47	1656.81
436.67	1697.77
436.88	1685.48
437.08	1751.01
437.29	1763.30
437.49	1699.81
437.70	1806.31
437.90	1730.53
438.11	1912.80
438.31	1742.82
438.52	1869.80
438.72	1812.45
438.93	1894.37
439.13	1759.21
439.34	1902.56
439.54	1763.30
439.75	1867.75
439.95	1773.54
440.16	1675.24
440.36	1828.84
440.57	1779.68
440.77	1816.55
440.98	1738.73
441.18	1716.20
441.39	1753.06
441.59	1722.34
441.80	1873.89
442.00	1710.05
442.21	1826.79
442.41	1734.63
442.62	1804.26
442.82	1746.92
443.02	1722.34
443.23	1779.68
443.43	1734.63
443.64	1814.50
443.84	1617.90
444.05	1871.84
444.25	1705.96
444.46	1789.92
444.66	1730.53
444.87	1820.64
445.07	1572.84
445.28	1742.82
445.48	1818.60
445.69	1781.73
445.89	1929.19
446.09	1751.01
446.30	2041.82
446.50	2658.26
446.71	3717.06
446.91	4284.35
447.12	4749.24
447.32	4759.48
447.53	4292.54
447.73	3874.76
447.93	3561.42
448.14	3237.84
448.34	3164.11
448.55	2848.72
448.75	2805.72
448.96	2680.79
449.16	2451.42
449.36	2346.97
449.57	1998.82
449.77	1886.18
449.98	1845.22
450.18	1820.64
450.39	1865.70
450.59	1794.02
450.79	1759.21
451.00	1689.57
451.20	1757.16
451.41	1665.00
451.61	1765.35
451.81	1728.49
452.02	1728.49
452.22	1763.30
452.43	1705.96
452.63	1640.42
452.84	1767.40
453.04	1730.53
453.24	1773.54
453.45	1693.67
453.65	1785.83
453.86	1757.16
454.06	1783.78
454.26	1681.38
454.47	1646.57
454.67	1918.95
454.87	1769.44
455.08	1734.63
455.28	1824.74
455.49	1730.53
455.69	1718.25
455.89	1796.07
456.10	1837.03
456.30	1705.96
456.51	1796.07
456.71	1689.57
456.91	1728.49
457.12	1751.01
457.32	1794.02
457.52	1669.09
457.73	1759.21
457.93	1798.12
458.14	1650.66
458.34	1648.61
458.54	1689.57
458.75	1714.15
458.95	1761.25
459.15	1796.07
459.36	1763.30
459.56	1834.98
459.76	1837.03
459.97	1759.21
460.17	1769.44
460.37	1791.97
460.58	1705.96
460.78	1722.34
460.99	1796.07
461.19	1703.91
461.39	1681.38
461.60	1746.92
461.80	1861.60
462.00	1726.44
462.21	1712.10
462.41	1689.57
462.61	1650.66
462.82	1660.90
463.02	1783.78
463.22	1757.16
463.43	1800.16
463.63	1757.16
463.83	1818.60
464.04	1830.88
464.24	1765.35
464.44	1718.25
464.64	1705.96
464.85	1787.88
465.05	1837.03
465.25	1765.35
465.46	1624.04
465.66	1755.11
465.86	1824.74
466.07	1761.25
466.27	1759.21
466.47	1658.85
466.68	1636.33
466.88	1837.03
467.08	1822.69
467.29	1857.51
467.49	1675.24
467.69	1679.33
467.89	1781.73
468.10	1746.92
468.30	1783.78
468.50	1851.36
468.71	1796.07
468.91	1654.76
469.11	1853.41
469.31	1796.07
469.52	1675.24
469.72	1859.56
469.92	1902.56
470.13	1746.92
470.33	1763.30
470.53	1857.51
470.73	2119.65
470.94	2430.94
471.14	2387.93
471.34	2467.80
471.54	2299.87
471.75	2217.95
471.95	2140.13
472.15	2039.78
472.36	2078.69
472.56	2060.26
472.76	2078.69
472.96	1996.77
473.17	1912.80
473.37	1886.18
473.57	1753.06
473.77	1884.13
473.98	1767.40
474.18	1708.01
474.38	2007.01
474.58	1730.53
474.79	1695.72
474.99	1808.36
475.19	1845.22
475.39	1759.21
475.60	1802.21
475.80	1769.44
476.00	1720.29
476.20	1646.57
476.41	1785.83
476.61	1806.31
476.81	1798.12
477.01	1675.24
477.21	1845.22
477.42	1820.64
477.62	1744.87
477.82	1804.26
478.02	1699.81
478.23	1718.25
478.43	1783.78
478.63	1751.01
478.83	1699.81
479.03	1748.97
479.24	1791.97
479.44	1853.41
479.64	1695.72
479.84	1644.52
480.04	1712.10
480.25	1708.01
480.45	1681.38
480.65	1771.49
480.85	1779.68
481.06	1742.82
481.26	1660.90
481.46	1767.40
481.66	1751.01
481.86	1662.95
482.06	1726.44
482.27	1751.01
482.47	1746.92
482.67	1673.19
482.87	1701.86
483.07	1820.64
483.28	1691.62
483.48	1611.75
483.68	1763.30
483.88	1730.53
484.08	1632.23
484.29	1712.10
484.49	1753.06
484.69	1726.44
484.89	1818.60
485.09	1814.50
485.29	1767.40
485.50	1742.82
485.70	1689.57
485.90	1839.08
486.10	1728.49
486.30	1769.44
486.50	1812.45
486.71	1746.92
486.91	1806.31
487.11	1791.97
487.31	1648.61
487.51	1718.25
487.71	1665.00
487.91	1746.92
488.12	1671.14
488.32	1634.28
488.52	1714.15
488.72	1615.85
488.92	1730.53
489.12	1834.98
489.32	1738.73
489.53	1765.35
489.73	1726.44
489.93	1857.51
490.13	1759.21
490.33	1656.81
490.53	1738.73
490.73	1767.40
490.94	1630.18
491.14	1736.68
491.34	1847.27
491.54	2109.41
491.74	2502.62
491.94	2893.78
492.14	3102.67
492.34	3059.67
492.54	2723.80
492.75	2519.00
492.95	2445.27
493.15	2418.65
493.35	2318.30
493.55	2181.09
493.75	2136.03
493.95	2142.18
494.15	2109.41
494.35	1880.04
494.56	1849.32
494.76	1679.33
494.96	1847.27
495.16	1783.78
495.36	1771.49
495.56	1689.57
495.76	1761.25
495.96	1796.07
496.16	1675.24
496.36	1775.59
496.56	1714.15
496.77	1785.83
496.97	1763.30
497.17	1830.88
497.37	1726.44
497.57	1687.53
497.77	1734.63
497.97	1673.19
498.17	1671.14
498.37	1779.68
498.57	1806.31
498.77	1693.67
498.97	1812.45
499.17	1828.84
499.38	1769.44
499.58	1781.73
499.78	1841.12
499.98	1822.69
500.18	1671.14
500.38	1667.05
500.58	1912.80
500.78	2506.71
500.98	4485.05
501.18	5697.45
501.38	6659.99
501.58	6940.57
501.78	6662.04
501.98	5521.32
502.18	4995.00
502.38	4452.28
502.58	4122.56
502.78	3633.10
502.98	3606.47
503.18	3426.25
503.38	3192.78
503.59	2844.63
503.79	2670.55
503.99	2496.47
504.19	2287.58
504.39	2189.28
504.59	2203.61
504.79	2099.17
504.99	2041.82
505.19	1886.18
505.39	1925.09
505.59	1863.65
505.79	1892.32
505.99	1849.32
506.19	1877.99
506.39	1918.95
506.59	1802.21
506.79	1734.63
506.99	1841.12
507.19	1816.55
507.39	1767.40
507.59	1644.52
507.79	1814.50
507.99	1841.12
508.19	1691.62
508.39	1693.67
508.59	1710.05
508.79	1873.89
508.99	1857.51
509.19	1787.88
509.39	1810.40
509.59	1724.39
509.79	1689.57
509.99	1789.92
510.19	1796.07
510.39	1824.74
510.59	1679.33
510.79	1722.34
510.99	1738.73
511.19	1681.38
511.39	1779.68
511.59	1701.86
511.79	1888.23
511.99	1787.88
512.19	1849.32
512.38	1804.26
512.58	1669.09
512.78	1716.20
512.98	1773.54
513.18	1806.31
513.38	1621.99
513.58	1841.12
513.78	1689.57
513.98	1765.35
514.18	1746.92
514.38	1773.54
514.58	1734.63
514.78	1734.63
514.98	1714.15
515.18	1705.96
515.38	1734.63
515.58	1855.46
515.78	1748.97
515.98	1769.44
516.18	1734.63
516.38	1724.39
516.57	1699.81
516.77	1718.25
516.97	1781.73
517.17	1689.57
517.37	1701.86
517.57	1779.68
517.77	1720.29
517.97	1753.06
518.17	1798.12
518.37	1677.29
518.57	1685.48
518.77	1804.26
518.97	1744.87
519.16	1796.07
519.36	1730.53
519.56	1773.54
519.76	1767.40
519.96	1763.30
520.16	1806.31
520.36	1677.29
520.56	1814.50
520.76	1773.54
520.96	1671.14
521.16	1779.68
521.35	1800.16
521.55	1738.73
521.75	1806.31
521.95	1755.11
522.15	1759.21
522.35	1705.96
522.55	1718.25
522.75	1808.36
522.95	1753.06
523.14	1710.05
523.34	1810.40
523.54	1667.05
523.74	1753.06
523.94	1763.30
524.14	1644.52
524.34	1740.77
524.54	1787.88
524.73	1730.53
524.93	1769.44
525.13	1773.54
525.33	1665.00
525.53	1888.23
525.73	1746.92
525.93	1703.91
526.13	1681.38
526.32	1708.01
526.52	1742.82
526.72	1851.36
526.92	1689.57
527.12	1757.16
527.32	1646.57
527.52	1708.01
527.71	1810.40
527.91	1746.92
528.11	1675.24
528.31	1726.44
528.51	1710.05
528.71	1804.26
528.90	1712.10
529.10	1800.16
529.30	1830.88
529.50	1669.09
529.70	1777.64
529.90	1718.25
530.09	1761.25
530.29	1699.81
530.49	1697.77
530.69	1933.28
530.89	1718.25
531.09	1740.77
531.28	1681.38
531.48	1826.79
531.68	1800.16
531.88	1759.21
532.08	1738.73
532.28	1765.35
532.47	1738.73
532.67	1787.88
532.87	1685.48
533.07	1697.77
533.27	1771.49
533.46	1789.92
533.66	1757.16
533.86	1728.49
534.06	1683.43
534.26	1771.49
534.45	1681.38
534.65	1767.40
534.85	1697.77
535.05	1736.68
535.25	1765.35
535.44	1712.10
535.64	1751.01
535.84	1718.25
536.04	1802.21
536.24	1736.68
536.43	1677.29
536.63	1804.26
536.83	1751.01
537.03	1732.58
537.22	1609.70
537.42	1638.38
537.62	1789.92
537.82	1677.29
538.02	1742.82
538.21	1822.69
538.41	1828.84
538.61	1751.01
538.81	1658.85
539.00	1779.68
539.20	1644.52
539.40	1738.73
539.60	1804.26
539.79	1773.54
539.99	1699.81
540.19	1679.33
540.39	1755.11
540.58	1853.41
540.78	1740.77
540.98	1773.54
541.18	1732.58
541.37	1777.64
541.57	1738.73
541.77	1734.63
541.97	1673.19
542.16	1687.53
542.36	1738.73
542.56	1779.68
542.76	1912.80
542.95	1859.56
543.15	1781.73
543.35	1728.49
543.54	1716.20
543.74	1708.01
543.94	1804.26
544.14	1685.48
544.33	1798.12
544.53	1701.86
544.73	1748.97
544.93	1781.73
545.12	1759.21
545.32	1730.53
545.52	1763.30
545.71	1652.71
545.91	1746.92
546.11	1738.73
546.30	1685.48
546.50	1767.40
546.70	1759.21
546.90	1771.49
547.09	1673.19
547.29	1671.14
547.49	1748.97
547.68	1820.64
547.88	1738.73
548.08	1822.69
548.27	2207.71
548.47	1738.73
548.67	1687.53
548.87	1789.92
549.06	1640.42
549.26	1814.50
549.46	1810.40
549.65	1667.05
549.85	1789.92
550.05	1751.01
550.24	1705.96
550.44	1767.40
550.64	1697.77
550.83	1769.44
551.03	1832.93
551.23	1791.97
551.42	1804.26
551.62	1708.01
551.82	1824.74
552.01	1785.83
552.21	1759.21
552.41	1757.16
552.60	1724.39
552.80	1724.39
553.00	1695.72
553.19	1724.39
553.39	1830.88
553.59	1679.33
553.78	1808.36
553.98	1843.17
554.17	1677.29
554.37	1787.88
554.57	1812.45
554.76	1732.58
554.96	1636.33
555.16	1781.73
555.35	1810.40
555.55	1855.46
555.75	1675.24
555.94	1767.40
556.14	1683.43
556.33	1781.73
556.53	1775.59
556.73	1732.58
556.92	1738.73
557.12	1843.17
557.32	1808.36
557.51	1839.08
557.71	1877.99
557.90	1861.60
558.10	1783.78
558.30	1820.64
558.49	1705.96
558.69	1779.68
558.88	1877.99
559.08	1812.45
559.28	1718.25
559.47	1708.01
559.67	1714.15
559.86	1861.60
560.06	1738.73
560.26	1767.40
560.45	1757.16
560.65	1689.57
560.84	1808.36
561.04	1751.01
561.24	1830.88
561.43	1624.04
561.63	1875.94
561.82	1785.83
562.02	1763.30
562.22	1722.34
562.41	1640.42
562.61	1716.20
562.80	1681.38
563.00	1947.62
563.19	1746.92
563.39	1816.55
563.59	1751.01
563.78	1708.01
563.98	1775.59
564.17	1761.25
564.37	1730.53
564.56	1710.05
564.76	1679.33
564.96	1787.88
565.15	1773.54
565.35	1896.42
565.54	1689.57
565.74	1855.46
565.93	1796.07
566.13	1689.57
566.32	1816.55
566.52	1722.34
566.71	1796.07
566.91	1818.60
567.11	1689.57
567.30	1708.01
567.50	1767.40
567.69	1738.73
567.89	1716.20
568.08	1710.05
568.28	1791.97
568.47	1701.86
568.67	1734.63
568.86	1744.87
569.06	1779.68
569.25	1712.10
569.45	1681.38
569.64	1734.63
569.84	1763.30
570.04	1744.87
570.23	1734.63
570.43	1738.73
570.62	1773.54
570.82	1802.21
571.01	1679.33
571.21	1695.72
571.40	1648.61
571.60	1779.68
571.79	1732.58
571.99	1746.92
572.18	1671.14
572.38	1753.06
572.57	1716.20
572.77	1771.49
572.96	1947.62
573.16	1746.92
573.35	1773.54
573.55	1945.57
573.74	1767.40
573.94	1720.29
574.13	1708.01
574.33	1714.15
574.52	1804.26
574.71	1773.54
574.91	1765.35
575.10	1708.01
575.30	1703.91
575.49	1701.86
575.69	1708.01
575.88	1718.25
576.08	1775.59
576.27	1812.45
576.47	1748.97
576.66	1871.84
576.86	1916.90
577.05	1689.57
577.25	1859.56
577.44	1832.93
577.64	1736.68
577.83	1800.16
578.02	1763.30
578.22	1859.56
578.41	1785.83
578.61	1693.67
578.80	1714.15
579.00	1742.82
579.19	1789.92
579.39	1806.31
579.58	1871.84
579.77	1773.54
579.97	1877.99
580.16	1787.88
580.36	1816.55
580.55	1837.03
580.75	1773.54
580.94	1732.58
581.13	1857.51
581.33	1906.66
581.52	1761.25
581.72	1929.19
581.91	1859.56
582.11	1765.35
582.30	1796.07
582.49	1730.53
582.69	1855.46
582.88	1830.88
583.08	1748.97
583.27	1808.36
583.47	1748.97
583.66	1621.99
583.85	1761.25
584.05	1806.31
584.24	1767.40
584.44	1834.98
584.63	1861.60
584.82	1781.73
585.02	1865.70
585.21	1826.79
585.41	1775.59
585.60	1728.49
585.79	1988.58
585.99	1943.52
586.18	1849.32
586.37	2144.22
586.57	3389.39
586.76	9885.55
586.96	24217.23
587.15	34194.93
587.34	39902.62
587.54	41809.28
587.73	36365.78
587.93	25986.68
588.12	21212.86
588.31	17800.94
588.51	15947.53
588.70	14868.25
588.89	14053.16
589.09	12414.79
589.28	11073.37
589.47	9097.08
589.67	7927.69
589.86	6406.05
590.06	4872.12
590.25	3958.72
590.44	3000.27
590.64	2549.72
590.83	2297.82
591.02	2076.64
591.22	1935.33
591.41	1931.23
591.60	1746.92
591.80	1980.39
591.99	1693.67
592.18	1757.16
592.38	1861.60
592.57	1724.39
592.76	1779.68
592.96	1839.08
593.15	1714.15
593.34	1755.11
593.54	1769.44
593.73	1865.70
593.92	1812.45
594.12	1822.69
594.31	1716.20
594.50	1789.92
594.70	1834.98
594.89	1880.04
595.08	1736.68
595.28	1814.50
595.47	1929.19
595.66	1765.35
595.86	1689.57
596.05	1732.58
596.24	1730.53
596.43	1873.89
596.63	1804.26
596.82	1832.93
597.01	1769.44
597.21	1851.36
597.40	1755.11
597.59	1722.34
597.79	1740.77
597.98	1826.79
598.17	1851.36
598.36	1794.02
598.56	1826.79
598.75	1730.53
598.94	1777.64
599.14	1855.46
599.33	1693.67
599.52	1759.21
599.71	1824.74
599.91	1787.88
600.10	1867.75
600.29	1712.10
600.48	1761.25
600.68	1824.74
600.87	1728.49
601.06	1697.77
601.26	1812.45
601.45	1839.08
601.64	1759.21
601.83	1828.84
602.03	1744.87
602.22	1693.67
602.41	1769.44
602.60	1888.23
602.80	1746.92
602.99	1771.49
603.18	1761.25
603.37	1746.92
603.57	1763.30
603.76	1742.82
603.95	1724.39
604.14	1744.87
604.34	1751.01
604.53	1722.34
604.72	1718.25
604.91	1775.59
605.10	1736.68
605.30	1738.73
605.49	1894.37
605.68	1814.50
605.87	1816.55
606.07	1656.81
606.26	1755.11
606.45	1789.92
606.64	1800.16
606.84	1763.30
607.03	1738.73
607.22	1779.68
607.41	1689.57
607.60	1708.01
607.80	1783.78
607.99	1697.77
608.18	1665.00
608.37	1718.25
608.56	1759.21
608.76	1798.12
608.95	1789.92
609.14	1742.82
609.33	1740.77
609.52	1818.60
609.72	1826.79
609.91	1802.21
610.10	1705.96
610.29	1757.16
610.48	1834.98
610.68	1730.53
610.87	1681.38
611.06	1714.15
611.25	1742.82
611.44	1742.82
611.63	1695.72
611.83	1880.04
612.02	1693.67
612.21	1886.18
612.40	1591.27
612.59	1724.39
612.79	1712.10
612.98	1773.54
613.17	1873.89
613.36	1699.81
613.55	1796.07
613.74	1728.49
613.93	1716.20
614.13	1705.96
614.32	1728.49
614.51	1771.49
614.70	1689.57
614.89	1720.29
615.08	1757.16
615.28	2084.83
615.47	1722.34
615.66	1755.11
615.85	1671.14
616.04	1861.60
616.23	1712.10
616.42	1705.96
616.62	1736.68
616.81	1757.16
617.00	1753.06
617.19	1734.63
617.38	1693.67
617.57	1716.20
617.76	1832.93
617.95	1765.35
618.15	1806.31
618.34	1859.56
618.53	1667.05
618.72	1783.78
618.91	1753.06
619.10	1820.64
619.29	1728.49
619.48	1767.40
619.68	1712.10
619.87	1748.97
620.06	1689.57
620.25	1753.06
620.44	1804.26
620.63	1710.05
620.82	1771.49
621.01	1769.44
621.20	1746.92
621.39	1783.78
621.59	1763.30
621.78	1685.48
621.97	1740.77
622.16	1765.35
622.35	1691.62
622.54	1791.97
622.73	1798.12
622.92	1660.90
623.11	1794.02
623.30	1738.73
623.49	1806.31
623.68	1716.20
623.88	1832.93
624.07	1716.20
624.26	1669.09
624.45	1681.38
624.64	1757.16
624.83	1763.30
625.02	1769.44
625.21	1744.87
625.40	1779.68
625.59	1867.75
625.78	1708.01
625.97	1794.02
626.16	1798.12
626.35	1738.73
626.54	1744.87
626.74	1882.08
626.93	1677.29
627.12	1740.77
627.31	1802.21
627.50	1753.06
627.69	1761.25
627.88	1652.71
628.07	1701.86
628.26	1597.42
628.45	1667.05
628.64	1746.92
628.83	1724.39
629.02	1675.24
629.21	1755.11
629.40	1730.53
629.59	1646.57
629.78	1748.97
629.97	1734.63
630.16	1812.45
630.35	1619.94
630.54	1705.96
630.73	1724.39
630.92	1693.67
631.11	1722.34
631.30	1722.34
631.49	1712.10
631.68	1771.49
631.87	1703.91
632.06	1574.89
632.25	1949.67
632.44	1675.24
632.63	1687.53
632.82	1716.20
633.01	1726.44
633.20	1665.00
633.39	1632.23
633.58	1673.19
633.77	1740.77
633.96	1812.45
634.15	1781.73
634.34	1736.68
634.53	1742.82
634.72	1675.24
634.91	1660.90
635.10	1789.92
635.29	1640.42
635.48	1751.01
635.67	1689.57
635.86	1746.92
636.05	1806.31
636.24	1734.63
636.43	1744.87
636.62	1767.40
636.81	1576.94
637.00	1685.48
637.19	1744.87
637.38	1658.85
637.57	1677.29
637.76	1710.05
637.95	1779.68
638.14	1699.81
638.33	1697.77
638.52	1660.90
638.71	1656.81
638.89	1650.66
639.08	1869.80
639.27	1714.15
639.46	1662.95
639.65	1730.53
639.84	1677.29
640.03	1701.86
640.22	1683.43
640.41	1804.26
640.60	1722.34
640.79	1769.44
640.98	1652.71
641.17	1773.54
641.36	1777.64
641.55	1726.44
641.74	1646.57
641.92	1693.67
642.11	1751.01
642.30	1716.20
642.49	1685.48
642.68	1685.48
642.87	1746.92
643.06	1773.54
643.25	1740.77
643.44	1677.29
643.63	1824.74
643.82	1839.08
644.00	1779.68
644.19	1808.36
644.38	1681.38
644.57	1742.82
644.76	1779.68
644.95	1636.33
645.14	1710.05
645.33	1714.15
645.52	1746.92
645.71	1648.61
645.89	1691.62
646.08	1740.77
646.27	1662.95
646.46	1886.18
646.65	1658.85
646.84	1738.73
647.03	1689.57
647.22	1769.44
647.40	1736.68
647.59	1765.35
647.78	1638.38
647.97	1665.00
648.16	1640.42
648.35	1744.87
648.54	1726.44
648.73	1673.19
648.91	1767.40
649.10	1755.11
649.29	1708.01
649.48	1660.90
649.67	1734.63
649.86	1751.01
650.05	1714.15
650.23	1808.36
650.42	1624.04
650.61	1763.30
650.80	1785.83
650.99	1939.43
651.18	1757.16
651.36	1814.50
651.55	1701.86
651.74	1742.82
651.93	1757.16
652.12	1740.77
652.31	1667.05
652.49	1632.23
652.68	1769.44
652.87	1722.34
653.06	1751.01
653.25	1785.83
653.44	1730.53
653.62	1804.26
653.81	1748.97
654.00	1767.40
654.19	1742.82
654.38	1861.60
654.56	1753.06
654.75	1726.44
654.94	1800.16
655.13	1755.11
655.32	1773.54
655.51	1751.01
655.69	1665.00
655.88	1787.88
656.07	1662.95
656.26	1761.25
656.45	1693.67
656.63	1755.11
656.82	1636.33
657.01	1773.54
657.20	1722.34
657.38	1800.16
657.57	1677.29
657.76	1722.34
657.95	1791.97
658.14	1693.67
658.32	1767.40
658.51	1697.77
658.70	1789.92
658.89	1763.30
659.08	1714.15
659.26	1767.40
659.45	1665.00
659.64	1738.73
659.83	1708.01
660.01	1947.62
660.20	1751.01
660.39	1804.26
660.58	1689.57
660.76	1710.05
660.95	1652.71
661.14	1656.81
661.33	1685.48
661.51	1677.29
661.70	1726.44
661.89	1832.93
662.08	1679.33
662.26	1662.95
662.45	1671.14
662.64	1806.31
662.83	1755.11
663.01	1675.24
663.20	1738.73
663.39	1775.59
663.58	1677.29
663.76	1665.00
663.95	1759.21
664.14	1685.48
664.32	1652.71
664.51	1751.01
664.70	1609.70
664.89	1720.29
665.07	1652.71
665.26	1804.26
665.45	1732.58
665.64	1746.92
665.82	1687.53
666.01	1746.92
666.20	1671.14
666.38	1855.46
666.57	1806.31
666.76	2127.84
666.95	4536.25
667.13	10628.96
667.32	14993.18
667.51	17743.60
667.69	18822.88
667.88	17303.29
668.07	12232.52
668.25	9482.10
668.44	8083.33
668.63	7352.21
668.81	6645.66
669.00	6213.54
669.19	5795.75
669.38	4972.47
669.56	4536.25
669.75	3999.68
669.94	3465.16
670.12	2887.64
670.31	2523.10
670.50	2234.33
670.68	2052.06
670.87	1949.67
671.06	1753.06
671.24	1806.31
671.43	1783.78
671.62	1767.40
671.80	1689.57
671.99	1765.35
672.18	1765.35
672.36	1753.06
672.55	1757.16
672.74	1665.00
672.92	1693.67
673.11	1681.38
673.29	1703.91
673.48	1746.92
673.67	1675.24
673.85	1789.92
674.04	1759.21
674.23	1746.92
674.41	1851.36
674.60	1632.23
674.79	1601.51
674.97	1636.33
675.16	1791.97
675.34	1730.53
675.53	1683.43
675.72	1728.49
675.90	1861.60
676.09	1675.24
676.28	1677.29
676.46	1607.66
676.65	1810.40
676.83	1642.47
677.02	1748.97
677.21	1734.63
677.39	1669.09
677.58	1650.66
677.77	1718.25
677.95	1683.43
678.14	1665.00
678.32	1699.81
678.51	1712.10
678.70	1855.46
678.88	1695.72
679.07	1767.40
679.25	1779.68
679.44	1751.01
679.63	1621.99
679.81	1746.92
680.00	1791.97
680.18	1712.10
680.37	1814.50
680.55	1667.05
680.74	1648.61
680.93	1644.52
681.11	1746.92
681.30	1779.68
681.48	1730.53
681.67	1708.01
681.85	1699.81
682.04	1701.86
682.23	1699.81
682.41	1703.91
682.60	1665.00
682.78	1755.11
682.97	1615.85
683.15	1753.06
683.34	1738.73
683.53	1806.31
683.71	1703.91
683.90	1755.11
684.08	1724.39
684.27	1720.29
684.45	1742.82
684.64	1822.69
684.82	1689.57
685.01	1771.49
685.19	1667.05
685.38	1859.56
685.57	1779.68
685.75	1667.05
685.94	1736.68
686.12	1638.38
686.31	1693.67
686.49	1757.16
686.68	1611.75
686.86	1648.61
687.05	1714.15
687.23	1802.21
687.42	1703.91
687.60	1634.28
687.79	1787.88
687.97	1857.51
688.16	1822.69
688.34	1773.54
688.53	1646.57
688.71	1708.01
688.90	1796.07
689.08	1742.82
689.27	1583.08
689.45	1695.72
689.64	1718.25
689.82	1722.34
690.01	1712.10
690.19	1712.10
690.38	1687.53
690.56	1849.32
690.75	1648.61
690.93	1699.81
691.12	1683.43
691.30	1705.96
691.49	1724.39
691.67	1757.16
691.86	1771.49
692.04	1636.33
692.23	1730.53
692.41	1640.42
692.60	1888.23
692.78	1724.39
692.97	1751.01
693.15	1755.11
693.34	1791.97
693.52	1789.92
693.71	1640.42
693.89	1767.40
694.08	1642.47
694.26	1820.64
694.44	1789.92
694.63	1787.88
694.81	1703.91
695.00	1697.77
695.18	1771.49
695.37	1796.07
695.55	1791.97
695.74	1693.67
695.92	1695.72
696.10	1765.35
696.29	1665.00
696.47	1679.33
696.66	1683.43
696.84	1640.42
697.03	1787.88
697.21	1769.44
697.40	2267.10
697.58	1804.26
697.76	1718.25
697.95	1695.72
698.13	1662.95
698.32	1718.25
698.50	1730.53
698.68	1736.68
698.87	1763.30
699.05	1769.44
699.24	1785.83
699.42	1748.97
699.61	1802.21
699.79	1744.87
699.97	1710.05
700.16	1722.34
700.34	1605.61
700.53	1665.00
700.71	1804.26
700.89	1759.21
701.08	1667.05
701.26	1705.96
701.45	2131.94
701.63	1726.44
701.81	1738.73
702.00	1667.05
702.18	1783.78
702.37	1714.15
702.55	1837.03
702.73	1798.12
702.92	1669.09
703.10	1734.63
703.28	1771.49
703.47	1662.95
703.65	1798.12
703.84	1748.97
704.02	1708.01
704.20	1787.88
704.39	1595.37
704.57	1685.48
704.75	1818.60
704.94	1724.39
705.12	1789.92
705.30	1701.86
705.49	2324.44
705.67	4485.05
705.86	9346.93
706.04	12519.23
706.22	14403.36
706.41	15320.85
706.59	13561.65
706.77	9359.22
706.96	7231.38
707.14	6561.69
707.32	5760.94
707.51	5552.04
707.69	4794.29
707.87	4093.89
708.06	3524.55
708.24	2971.60
708.42	2381.79
708.61	2127.84
708.79	1869.80
708.97	1914.85
709.16	1763.30
709.34	1822.69
709.52	1738.73
709.71	1751.01
709.89	1775.59
710.07	1718.25
710.26	1662.95
710.44	1726.44
710.62	1794.02
710.80	1667.05
710.99	1812.45
711.17	1751.01
711.35	1697.77
711.54	1652.71
711.72	1785.83
711.90	1763.30
712.09	1699.81
712.27	1644.52
712.45	1736.68
712.63	1628.14
712.82	1714.15
713.00	1724.39
713.18	1718.25
713.37	1746.92
713.55	1755.11
713.73	1742.82
713.91	1740.77
714.10	1722.34
714.28	1683.43
714.46	1796.07
714.65	1759.21
714.83	1742.82
715.01	1728.49
715.19	1720.29
715.38	1683.43
715.56	1746.92
715.74	1658.85
715.92	1744.87
716.11	1763.30
716.29	1617.90
716.47	1695.72
716.65	1669.09
716.84	1564.65
717.02	1816.55
717.20	1675.24
717.38	1763.30
717.57	1736.68
717.75	1712.10
717.93	1708.01
718.11	1730.53
718.30	1640.42
718.48	1746.92
718.66	1853.41
718.84	1746.92
719.03	1671.14
719.21	1615.85
719.39	1720.29
719.57	1771.49
719.75	1822.69
719.94	1687.53
720.12	1744.87
720.30	1730.53
720.48	1755.11
720.67	1603.56
720.85	1658.85
721.03	1638.38
721.21	1654.76
721.39	1816.55
721.58	1763.30
721.76	1710.05
721.94	1783.78
722.12	1726.44
722.30	1763.30
722.49	1646.57
722.67	1783.78
722.85	1705.96
723.03	1691.62
723.21	1679.33
723.40	1775.59
723.58	1755.11
723.76	1763.30
723.94	1708.01
724.12	1660.90
724.30	1761.25
724.49	1775.59
724.67	1679.33
724.85	1867.75
725.03	1720.29
725.21	1732.58
725.40	1744.87
725.58	1628.14
725.76	1757.16
725.94	1812.45
726.12	1650.66
726.30	1685.48
726.49	1708.01
726.67	1769.44
726.85	1720.29
727.03	1755.11
727.21	2164.70
727.39	2971.60
727.57	3837.89
727.76	4149.18
727.94	4427.71
728.12	4384.70
728.30	3665.86
728.48	2981.84
728.66	2707.41
728.84	2432.99
729.03	2299.87
729.21	2133.98
729.39	2056.16
729.57	1841.12
729.75	1828.84
729.93	1804.26
730.11	1724.39
730.30	1712.10
730.48	1681.38
730.66	1773.54
730.84	1724.39
731.02	1705.96
731.20	1652.71
731.38	1787.88
731.56	1548.26
731.74	1605.61
731.93	1804.26
732.11	1695.72
732.29	1701.86
732.47	1794.02
732.65	1722.34
732.83	1751.01
733.01	1738.73
733.19	1675.24
733.37	1755.11
733.56	1718.25
733.74	1689.57
733.92	1824.74
734.10	1689.57
734.28	1703.91
734.46	1656.81
734.64	1703.91
734.82	1673.19
735.00	1681.38
735.18	1728.49
735.36	1726.44
735.54	1742.82
735.73	1720.29
735.91	1769.44
736.09	1748.97
736.27	1775.59
736.45	1796.07
736.63	1615.85
736.81	1705.96
736.99	1761.25
737.17	1812.45
737.35	1740.77
737.53	1746.92
737.71	1804.26
737.89	1796.07
738.07	1703.91
738.25	1685.48
738.43	1648.61
738.61	1621.99
738.80	1683.43
738.98	1576.94
739.16	1724.39
739.34	1638.38
739.52	1828.84
739.70	1685.48
739.88	1673.19
740.06	1736.68
740.24	1585.13
740.42	1703.91
740.60	1650.66
740.78	1730.53
740.96	1636.33
741.14	1687.53
741.32	1765.35
741.50	1624.04
741.68	1783.78
741.86	1806.31
742.04	1634.28
742.22	1638.38
742.40	1716.20
742.58	1675.24
742.76	1665.00
742.94	1798.12
743.12	1540.07
743.30	1687.53
743.48	1724.39
743.66	1626.09
743.84	1785.83
744.02	1665.00
744.20	1644.52
744.38	1681.38
744.56	1654.76
744.74	1834.98
744.92	1757.16
745.10	1824.74
745.28	1808.36
745.46	1699.81
745.64	1654.76
745.82	1718.25
746.00	1726.44
746.18	1703.91
746.36	1626.09
746.54	1732.58
746.72	1787.88
746.90	1632.23
747.08	1738.73
747.26	1658.85
747.44	1746.92
747.62	1767.40
747.80	1726.44
747.98	1724.39
748.15	1724.39
748.33	1818.60
748.51	1755.11
748.69	1742.82
748.87	1630.18
749.05	1722.34
749.23	1658.85
749.41	1849.32
749.59	1650.66
749.77	1826.79
749.95	1714.15
750.13	1656.81
750.31	1726.44
750.49	1665.00
750.67	1710.05
750.85	1902.56
751.03	1691.62
751.20	1777.64
751.38	1726.44
751.56	1671.14
751.74	1765.35
751.92	1691.62
752.10	1718.25
752.28	1746.92
752.46	1697.77
752.64	1712.10
752.82	1748.97
753.00	1781.73
753.18	1687.53
753.35	1759.21
753.53	1714.15
753.71	1740.77
753.89	1767.40
754.07	1708.01
754.25	1810.40
754.43	1687.53
754.61	1710.05
754.79	1769.44
754.97	1759.21
755.14	1732.58
755.32	1595.37
755.50	1665.00
755.68	1814.50
755.86	1615.85
756.04	1724.39
756.22	1617.90
756.40	1791.97
756.57	1771.49
756.75	1701.86
756.93	1832.93
757.11	1808.36
757.29	1705.96
757.47	1662.95
757.65	1648.61
757.82	1576.94
758.00	1679.33
758.18	1722.34
758.36	1701.86
758.54	1834.98
758.72	1636.33
758.90	1751.01
759.07	1716.20
759.25	1671.14
759.43	1691.62
759.61	1722.34
759.79	2242.53
759.97	1787.88
760.15	1638.38
760.32	1658.85
760.50	1671.14
760.68	1808.36
760.86	1658.85
761.04	1822.69
761.22	1718.25
761.39	1816.55
761.57	1812.45
761.75	1777.64
761.93	1757.16
762.11	1769.44
762.28	1726.44
762.46	1624.04
762.64	1771.49
762.82	1648.61
763.00	1695.72
763.18	1769.44
763.35	1677.29
763.53	1753.06
763.71	1714.15
763.89	1732.58
764.07	1724.39
764.24	1777.64
764.42	1759.21
764.60	1665.00
764.78	1701.86
764.96	1794.02
765.13	1781.73
765.31	1724.39
765.49	1767.40
765.67	1656.81
765.84	1687.53
766.02	1695.72
766.20	1669.09
766.38	1652.71
766.56	1730.53
766.73	1742.82
766.91	1685.48
767.09	1746.92
767.27	1724.39
767.44	1697.77
767.62	1751.01
767.80	1679.33
767.98	1751.01
768.15	1710.05
768.33	1716.20
768.51	1720.29
768.69	1712.10
768.87	1724.39
769.04	1732.58
769.22	1810.40
769.40	1769.44
769.58	1855.46
769.75	1714.15
769.93	1783.78
770.11	1697.77
770.28	1689.57
770.46	1769.44
770.64	1673.19
770.82	1685.48
770.99	1644.52
771.17	1742.82
771.35	1644.52
771.53	1724.39
771.70	1683.43
771.88	1728.49
772.06	1689.57
772.23	1697.77
772.41	1751.01
772.59	1722.34
772.77	1662.95
772.94	1730.53
773.12	1730.53
773.30	1677.29
773.47	1654.76
773.65	1609.70
773.83	1853.41
774.01	1728.49
774.18	1574.89
774.36	1703.91
774.54	1689.57
774.71	1785.83
774.89	1599.46
775.07	1677.29
775.24	1724.39
775.42	1652.71
775.60	1849.32
775.78	1611.75
775.95	1650.66
776.13	1599.46
776.31	1589.22
776.48	1787.88
776.66	1851.36
776.84	1669.09
777.01	1646.57
777.19	1697.77
777.37	1759.21
777.54	1751.01
777.72	1765.35
777.90	1662.95
778.07	1667.05
778.25	1927.14
778.43	1755.11
778.60	1619.94
778.78	1689.57
778.96	1759.21
779.13	1656.81
779.31	1802.21
779.49	1691.62
779.66	1720.29
779.84	1691.62
780.01	1689.57
780.19	1634.28
780.37	1755.11
780.54	1740.77
780.72	1728.49
780.90	1730.53
781.07	1722.34
781.25	1638.38
781.43	1714.15
781.60	1730.53
781.78	1714.15
781.95	1757.16
782.13	1636.33
782.31	1675.24
782.48	1611.75
782.66	1755.11
782.83	1845.22
783.01	1691.62
783.19	1728.49
783.36	1642.47
783.54	1626.09
783.72	1787.88
783.89	1779.68
784.07	1705.96
784.24	1777.64
784.42	1820.64
784.60	1775.59
784.77	1730.53
784.95	1572.84
785.12	1669.09
785.30	1763.30
785.47	1679.33
785.65	1677.29
785.83	1701.86
786.00	1740.77
786.18	1673.19
786.35	1660.90
786.53	1658.85
786.71	1742.82
786.88	1722.34
787.06	1724.39
787.23	1599.46
787.41	1636.33
787.58	1632.23
787.76	1683.43
787.94	1730.53
788.11	1677.29
788.29	1658.85
788.46	1720.29
788.64	1669.09
788.81	1683.43
788.99	1589.22
789.16	1669.09
789.34	1714.15
789.52	1619.94
789.69	1726.44
789.87	1685.48
790.04	1689.57
790.22	1691.62
790.39	1906.66
790.57	1703.91
790.74	1585.13
790.92	1714.15
791.09	1564.65
791.27	1753.06
791.44	1714.15
791.62	1703.91
791.79	1800.16
791.97	1679.33
792.15	1847.27
792.32	1736.68
792.50	1724.39
792.67	1849.32
792.85	1828.84
793.02	1640.42
793.20	1767.40
793.37	1701.86
793.55	1699.81
793.72	1636.33
793.90	1720.29
794.07	1710.05
794.25	1718.25
794.42	1599.46
794.60	1714.15
794.77	1832.93
794.95	1744.87
795.12	1699.81
795.30	1738.73
795.47	1624.04
795.65	1865.70
795.82	1787.88
796.00	1736.68
796.17	1726.44
796.34	1685.48
796.52	1705.96
796.69	1738.73
796.87	1802.21
797.04	1761.25
797.22	1748.97
797.39	1705.96
797.57	1779.68
797.74	1746.92
797.92	1748.97
798.09	1654.76
798.27	1744.87
798.44	1828.84
798.62	1644.52
798.79	1705.96
798.96	1734.63
799.14	1726.44
799.31	1802.21
799.49	1726.44
799.66	1681.38
799.84	1734.63
800.01	1638.38
800.19	1748.97
800.36	1658.85
800.53	1748.97
800.71	1751.01
800.88	1806.31
801.06	1677.29
801.23	1650.66
801.41	1673.19
801.58	1638.38
801.75	1685.48
801.93	1746.92
802.10	1751.01
802.28	1650.66
802.45	1730.53
802.63	1742.82
802.80	1742.82
802.97	1652.71
803.15	1779.68
803.32	1636.33
803.50	1656.81
803.67	1671.14
803.84	1662.95
804.02	1759.21
804.19	1732.58
804.37	1574.89
804.54	1656.81
804.71	1699.81
804.89	1716.20
805.06	1642.47
805.24	1681.38
805.41	1654.76
805.58	1708.01
805.76	1757.16
805.93	1681.38
806.10	1832.93
806.28	1822.69
806.45	1671.14
806.63	1722.34
806.80	1791.97
806.97	1646.57
807.15	1695.72
807.32	1619.94
807.49	1705.96
807.67	1710.05
807.84	1847.27
808.01	1683.43
808.19	1814.50
808.36	1806.31
808.54	1781.73
808.71	1708.01
808.88	1734.63
809.06	1802.21
809.23	1837.03
809.40	1632.23
809.58	1796.07
809.75	1779.68
809.92	1667.05
810.10	1863.65
810.27	1726.44
810.44	1726.44
810.62	1771.49
810.79	1710.05
810.96	1640.42
811.14	1679.33
811.31	1798.12
811.48	1767.40
811.66	1665.00
811.83	1804.26
812.00	1726.44
812.18	1773.54
812.35	1804.26
812.52	1677.29
812.69	1697.77
812.87	1695.72
813.04	1724.39
813.21	1671.14
813.39	1697.77
813.56	1634.28
813.73	1761.25
813.91	1540.07
814.08	1761.25
814.25	1679.33
814.42	1671.14
814.60	1718.25
814.77	1714.15
814.94	1685.48
815.12	1748.97
815.29	1802.21
815.46	1619.94
815.63	1738.73
815.81	1677.29
815.98	1662.95
816.15	1767.40
816.33	1730.53
816.50	1701.86
816.67	1701.86
816.84	1646.57
817.02	1742.82
817.19	1642.47
817.36	1701.86
817.53	1726.44
817.71	1650.66
817.88	1775.59
818.05	1683.43
818.22	1679.33
818.40	1822.69
818.57	1828.84
818.74	1677.29
818.91	1722.34
819.09	1808.36
819.26	1769.44
819.43	1697.77
819.60	1648.61
819.78	1683.43
819.95	1726.44
820.12	1667.05
820.29	1810.40
820.47	1714.15
820.64	1695.72
820.81	1599.46
820.98	1597.42
821.15	1685.48
821.33	1687.53
821.50	1572.84
821.67	1699.81
821.84	1654.76
822.02	1736.68
822.19	1773.54
822.36	1732.58
822.53	1703.91
822.70	1695.72
822.88	1705.96
823.05	1740.77
823.22	1669.09
823.39	1718.25
823.56	1728.49
823.74	1832.93
823.91	1634.28
824.08	1617.90
824.25	1648.61
824.42	1759.21
824.60	1562.60
824.77	1796.07
824.94	1718.25
825.11	1755.11
825.28	1648.61
825.45	1738.73
825.63	1730.53
825.80	1619.94
825.97	1779.68
826.14	1740.77
826.31	1685.48
826.48	1757.16
826.66	1642.47
826.83	1757.16
827.00	1722.34
827.17	1675.24
827.34	1771.49
827.51	1687.53
827.69	1800.16
827.86	1630.18
828.03	1652.71
828.20	1714.15
828.37	1773.54
828.54	1796.07
828.71	1648.61
828.89	1824.74
829.06	1736.68
829.23	1732.58
829.40	1652.71
829.57	1636.33
829.74	1701.86
829.91	1636.33
830.09	1652.71
830.26	1728.49
830.43	1701.86
830.60	1630.18
830.77	1724.39
830.94	1867.75
831.11	1834.98
831.28	1658.85
831.46	1808.36
831.63	1673.19
831.80	1771.49
831.97	1722.34
832.14	1722.34
832.31	1779.68
832.48	1728.49
832.65	1783.78
832.82	1751.01
832.99	1769.44
833.17	1673.19
833.34	1775.59
833.51	1744.87
833.68	1611.75
833.85	1808.36
834.02	1642.47
834.19	1708.01
834.36	1691.62
834.53	1736.68
834.70	1863.65
834.87	1783.78
835.04	1724.39
835.22	1638.38
835.39	1675.24
835.56	1650.66
835.73	1705.96
835.90	1785.83
836.07	1705.96
836.24	1802.21
836.41	1607.66
836.58	1632.23
836.75	1722.34
836.92	1812.45
837.09	1667.05
837.26	1753.06
837.43	1742.82
837.60	1804.26
837.77	1665.00
837.94	1724.39
838.12	1769.44
838.29	1714.15
838.46	1632.23
838.63	1636.33
838.80	1789.92
838.97	1771.49
839.14	1742.82
839.31	1689.57
839.48	1703.91
839.65	1730.53
839.82	1724.39
839.99	1613.80
840.16	1718.25
840.33	1708.01
840.50	1742.82
840.67	1665.00
840.84	1660.90
841.01	1695.72
841.18	1689.57
841.35	1755.11
841.52	1800.16
841.69	1769.44
841.86	1765.35
842.03	1791.97
842.20	1755.11
842.37	1667.05
842.54	1681.38
842.71	1746.92
842.88	1617.90
843.05	1714.15
843.22	1693.67
843.39	1763.30
843.56	1714.15
843.73	1681.38
843.90	1685.48
844.07	1714.15
844.24	1783.78
844.41	1746.92
844.58	1691.62
844.75	1746.92
844.92	1740.77
845.09	1759.21
845.26	1734.63
845.43	1779.68
845.60	1791.97
845.77	1820.64
845.94	1746.92
846.10	1744.87
846.27	1718.25
846.44	1671.14
846.61	1685.48
846.78	1720.29
846.95	1742.82
847.12	1611.75
847.29	1695.72
847.46	1624.04
847.63	1771.49
847.80	1646.57
847.97	1673.19
848.14	1839.08
848.31	1695.72
848.48	1673.19
848.65	1712.10
848.82	1710.05
848.98	1824.74
849.15	1691.62
849.32	1794.02
849.49	1744.87
849.66	1699.81
849.83	1626.09
850.00	1732.58
850.17	1695.72
850.34	1658.85
850.51	1656.81
850.68	1714.15
850.85	1959.91
851.01	1683.43
851.18	1656.81
851.35	1697.77
851.52	1728.49
851.69	1763.30
851.86	1681.38
852.03	1816.55
852.20	1746.92
852.37	1695.72
852.53	1640.42
852.70	1675.24
852.87	1693.67
853.04	1730.53
853.21	1681.38
853.38	1761.25
853.55	1705.96
853.72	1798.12
853.89	1691.62
854.05	1636.33
854.22	1621.99
854.39	1714.15
854.56	1785.83
854.73	1787.88
854.90	1732.58
855.07	1708.01
855.23	1687.53
855.40	1730.53
855.57	1644.52
855.74	1591.27
855.91	1853.41
856.08	1591.27
856.25	1583.08
856.41	1712.10
856.58	1755.11
856.75	1761.25
856.92	1630.18
857.09	1765.35
857.26	1613.80
857.42	1669.09
857.59	1736.68
857.76	1658.85
857.93	1722.34
858.10	1738.73
858.27	1648.61
858.43	1683.43
858.60	1746.92
858.77	1662.95
858.94	1693.67
859.11	1755.11
859.27	1671.14
859.44	1730.53
859.61	1888.23
859.78	1830.88
859.95	1699.81
860.12	1779.68
860.28	1896.42
860.45	1820.64
860.62	1683.43
860.79	1671.14
860.95	1769.44
861.12	1656.81
861.29	1724.39
861.46	1654.76
861.63	1740.77
861.79	1744.87
861.96	1646.57
862.13	1636.33
862.30	1843.17
862.47	1697.77
862.63	1695.72
862.80	1755.11
862.97	1763.30
863.14	1748.97
863.30	1693.67
863.47	1746.92
863.64	1869.80
863.81	1708.01
863.97	1656.81
864.14	1679.33
864.31	1744.87
864.48	1716.20
864.65	1705.96
864.81	1685.48
864.98	1710.05
865.15	1708.01
865.32	1775.59
865.48	1853.41
865.65	1794.02
865.82	1673.19
865.98	1712.10
866.15	1681.38
866.32	1718.25
866.49	1705.96
866.65	1738.73
866.82	1716.20
866.99	1662.95
867.16	1703.91
867.32	1716.20
867.49	1728.49
867.66	1675.24
867.83	1720.29
867.99	1636.33
868.16	1658.85
868.33	1665.00
868.49	1708.01
868.66	1744.87
868.83	1703.91
868.99	1742.82
869.16	1744.87
869.33	1730.53
869.50	1783.78
869.66	1734.63
869.83	1703.91
870.00	1695.72
870.16	1763.30
870.33	1746.92
870.50	1763.30
870.66	1757.16
870.83	1796.07
871.00	1691.62
871.17	1703.91
871.33	1695.72
871.50	1697.77
871.67	1728.49
871.83	1665.00
872.00	1738.73
872.17	1677.29
872.33	1818.60
872.50	1861.60
872.67	1738.73
872.83	1716.20
873.00	1771.49
873.17	1697.77
873.33	1724.39
873.50	1738.73
873.67	1628.14
873.83	1681.38
874.00	1697.77
874.16	1751.01
874.33	1734.63
874.50	1673.19
874.66	1769.44
874.83	1810.40
875.00	1777.64
875.16	1791.97
875.33	1791.97
875.50	1632.23
875.66	1738.73
875.83	1648.61
875.99	1769.44
876.16	1753.06
876.33	1650.66
876.49	1697.77
876.66	1748.97
876.83	1730.53
876.99	1593.32
877.16	1697.77
877.32	1693.67
877.49	1654.76
877.66	1705.96
877.82	1773.54
877.99	1748.97
878.15	1767.40
878.32	1693.67
878.49	1744.87
878.65	1710.05
878.82	1796.07
878.98	1673.19
879.15	1746.92
879.32	1785.83
879.48	1757.16
879.65	1681.38
879.81	1693.67
879.98	1658.85
880.15	1712.10
880.31	1759.21
880.48	1703.91
880.64	1804.26
880.81	1708.01
880.97	1808.36
881.14	1804.26
881.31	1578.98
881.47	1855.46
881.64	1687.53
881.80	1671.14
881.97	1652.71
882.13	1779.68
882.30	1673.19
882.47	1585.13
882.63	1681.38
882.80	1658.85
882.96	1595.37
883.13	1771.49
883.29	1701.86
883.46	1734.63
883.62	1832.93
883.79	1673.19
883.95	1761.25
884.12	1724.39
884.29	1769.44
884.45	1736.68
884.62	1791.97
884.78	1624.04
884.95	1753.06
885.11	1613.80
885.28	1820.64
885.44	1710.05
885.61	1755.11
885.77	1779.68
885.94	1738.73
886.10	1726.44
886.27	1730.53
886.43	1769.44
886.60	1726.44
886.76	1665.00
886.93	1695.72
887.09	1697.77
887.26	1671.14
887.42	1691.62
887.59	1746.92
887.75	1845.22
887.92	1767.40
888.08	1787.88
888.25	1783.78
888.41	1779.68
888.58	1822.69
888.74	1697.77
888.91	1748.97
>>>>>End Processed Spectral Data<<<<<
