SpectraSuite Data File
++++++++++++++++++++++++++++++++++++
Date: Mon Jun 06 13:32:17 CEST 2016
User: root
Dark Spectrum Present: No
Reference Spectrum Present: No
Number of Sampled Component Spectra: 1
Spectrometers: USB4C02835
Integration Time (usec): 100000 (USB4C02835)
Spectra Averaged: 1 (USB4C02835)
Boxcar Smoothing: 0 (USB4C02835)
Correct for Electrical Dark: No (USB4C02835)
Strobe/Lamp Enabled: No (USB4C02835)
Correct for Detector Non-linearity: No (USB4C02835)
Correct for Stray Light: No (USB4C02835)
Number of Pixels in Processed Spectrum: 3648
>>>>>Begin Processed Spectral Data<<<<<
177.47	1411.05
177.69	1411.05
177.91	1411.05
178.13	1490.92
178.36	1402.86
178.58	1642.47
178.80	1726.44
179.02	1611.75
179.24	1624.04
179.46	1720.29
179.68	1728.49
179.90	1660.90
180.13	1652.71
180.35	1628.14
180.57	1753.06
180.79	1710.05
181.01	1697.77
181.23	1744.87
181.45	1761.25
181.67	1673.19
181.90	1751.01
182.12	1675.24
182.34	1656.81
182.56	1658.85
182.78	1681.38
183.00	1693.67
183.22	1730.53
183.44	1624.04
183.66	1789.92
183.89	1771.49
184.11	1679.33
184.33	1724.39
184.55	1783.78
184.77	1701.86
184.99	1748.97
185.21	1687.53
185.43	1791.97
185.65	1742.82
185.87	1685.48
186.10	1775.59
186.32	1765.35
186.54	1728.49
186.76	1744.87
186.98	1738.73
187.20	1742.82
187.42	1617.90
187.64	1683.43
187.86	1689.57
188.08	1789.92
188.30	1689.57
188.52	1689.57
188.75	1742.82
188.97	1755.11
189.19	1642.47
189.41	1603.56
189.63	1730.53
189.85	1648.61
190.07	1621.99
190.29	1636.33
190.51	1671.14
190.73	1632.23
190.95	1773.54
191.17	1667.05
191.39	1630.18
191.61	1665.00
191.84	1712.10
192.06	1708.01
192.28	1628.14
192.50	1818.60
192.72	1773.54
192.94	1738.73
193.16	1673.19
193.38	1787.88
193.60	1585.13
193.82	1757.16
194.04	1769.44
194.26	1636.33
194.48	1716.20
194.70	1595.37
194.92	1697.77
195.14	1697.77
195.36	1654.76
195.58	1722.34
195.80	1736.68
196.02	1628.14
196.24	1693.67
196.46	1730.53
196.69	1675.24
196.91	1849.32
197.13	1671.14
197.35	1648.61
197.57	1890.28
197.79	1734.63
198.01	1732.58
198.23	1683.43
198.45	1703.91
198.67	1652.71
198.89	1607.66
199.11	1718.25
199.33	1617.90
199.55	1587.18
199.77	1691.62
199.99	1732.58
200.21	1689.57
200.43	1724.39
200.65	1673.19
200.87	1593.32
201.09	1708.01
201.31	1656.81
201.53	1804.26
201.75	1701.86
201.97	1685.48
202.19	1695.72
202.41	1714.15
202.63	1765.35
202.85	1681.38
203.07	1691.62
203.29	1679.33
203.51	1607.66
203.73	1595.37
203.95	1859.56
204.17	1718.25
204.39	1783.78
204.61	1689.57
204.83	1634.28
205.05	1777.64
205.27	1787.88
205.49	1779.68
205.71	1685.48
205.93	1654.76
206.15	1671.14
206.37	1667.05
206.59	1677.29
206.81	1665.00
207.03	1665.00
207.25	1621.99
207.47	1699.81
207.69	1757.16
207.91	1720.29
208.13	1800.16
208.34	1687.53
208.56	1685.48
208.78	1691.62
209.00	1654.76
209.22	1691.62
209.44	1722.34
209.66	1673.19
209.88	1693.67
210.10	1675.24
210.32	1632.23
210.54	1767.40
210.76	1687.53
210.98	1794.02
211.20	1568.74
211.42	1724.39
211.64	1716.20
211.86	1689.57
212.08	1738.73
212.30	1714.15
212.52	1673.19
212.74	1683.43
212.96	1681.38
213.17	1710.05
213.39	1718.25
213.61	1779.68
213.83	1617.90
214.05	1574.89
214.27	1687.53
214.49	1648.61
214.71	1751.01
214.93	1734.63
215.15	1710.05
215.37	1759.21
215.59	1652.71
215.81	1755.11
216.03	1681.38
216.24	1675.24
216.46	1789.92
216.68	1710.05
216.90	1699.81
217.12	1730.53
217.34	1761.25
217.56	1654.76
217.78	1769.44
218.00	1691.62
218.22	1712.10
218.44	1744.87
218.66	1673.19
218.87	1757.16
219.09	1654.76
219.31	1761.25
219.53	1660.90
219.75	1619.94
219.97	1691.62
220.19	1738.73
220.41	1718.25
220.63	1779.68
220.85	1695.72
221.06	1656.81
221.28	1742.82
221.50	1708.01
221.72	1701.86
221.94	1738.73
222.16	1697.77
222.38	1728.49
222.60	1685.48
222.82	1718.25
223.03	1755.11
223.25	1744.87
223.47	1689.57
223.69	1802.21
223.91	1714.15
224.13	1697.77
224.35	1591.27
224.57	1679.33
224.78	1748.97
225.00	1621.99
225.22	1730.53
225.44	1718.25
225.66	1736.68
225.88	1644.52
226.10	1773.54
226.32	1630.18
226.53	1800.16
226.75	1736.68
226.97	1597.42
227.19	1681.38
227.41	1724.39
227.63	1695.72
227.85	1648.61
228.06	1677.29
228.28	1636.33
228.50	1789.92
228.72	1662.95
228.94	1630.18
229.16	1570.79
229.37	1591.27
229.59	1697.77
229.81	1714.15
230.03	1624.04
230.25	1656.81
230.47	1613.80
230.69	1648.61
230.90	1767.40
231.12	1648.61
231.34	1718.25
231.56	1742.82
231.78	1644.52
232.00	1654.76
232.21	1722.34
232.43	1685.48
232.65	1490.92
232.87	1703.91
233.09	1669.09
233.30	1720.29
233.52	1617.90
233.74	1693.67
233.96	1673.19
234.18	1714.15
234.40	1693.67
234.61	1777.64
234.83	1634.28
235.05	1583.08
235.27	1794.02
235.49	1773.54
235.70	1662.95
235.92	1804.26
236.14	1699.81
236.36	1830.88
236.58	1689.57
236.79	1736.68
237.01	1720.29
237.23	1720.29
237.45	1751.01
237.67	1636.33
237.88	1685.48
238.10	1708.01
238.32	1677.29
238.54	1726.44
238.76	1677.29
238.97	1628.14
239.19	1636.33
239.41	1765.35
239.63	1767.40
239.85	1667.05
240.06	1644.52
240.28	1732.58
240.50	1724.39
240.72	1685.48
240.93	1722.34
241.15	1763.30
241.37	1681.38
241.59	1691.62
241.81	1693.67
242.02	1753.06
242.24	1732.58
242.46	1806.31
242.68	1624.04
242.89	1695.72
243.11	1732.58
243.33	1681.38
243.55	1714.15
243.76	1687.53
243.98	1652.71
244.20	1665.00
244.42	1757.16
244.64	1726.44
244.85	1648.61
245.07	1591.27
245.29	1714.15
245.51	1691.62
245.72	1646.57
245.94	1773.54
246.16	1718.25
246.38	1748.97
246.59	1677.29
246.81	1683.43
247.03	1660.90
247.24	1581.03
247.46	1705.96
247.68	1746.92
247.90	1624.04
248.11	1636.33
248.33	1699.81
248.55	1665.00
248.77	1691.62
248.98	1761.25
249.20	1736.68
249.42	1722.34
249.64	1775.59
249.85	1644.52
250.07	1621.99
250.29	1689.57
250.50	1781.73
250.72	1587.18
250.94	1703.91
251.16	1785.83
251.37	1718.25
251.59	1740.77
251.81	1654.76
252.02	1755.11
252.24	1714.15
252.46	1812.45
252.68	1654.76
252.89	1650.66
253.11	1558.50
253.33	1746.92
253.54	1740.77
253.76	1615.85
253.98	1603.56
254.20	1701.86
254.41	1609.70
254.63	1703.91
254.85	1578.98
255.06	1701.86
255.28	1740.77
255.50	1714.15
255.71	1654.76
255.93	1718.25
256.15	1671.14
256.36	1751.01
256.58	1634.28
256.80	1718.25
257.02	1656.81
257.23	1626.09
257.45	1705.96
257.67	1732.58
257.88	1611.75
258.10	1732.58
258.32	1646.57
258.53	1732.58
258.75	1794.02
258.97	1624.04
259.18	1736.68
259.40	1757.16
259.62	1802.21
259.83	1769.44
260.05	1722.34
260.27	1908.71
260.48	1779.68
260.70	1652.71
260.92	1705.96
261.13	1755.11
261.35	1728.49
261.57	1693.67
261.78	1611.75
262.00	1720.29
262.22	1734.63
262.43	1644.52
262.65	1689.57
262.86	1667.05
263.08	1820.64
263.30	1720.29
263.51	1615.85
263.73	1667.05
263.95	1757.16
264.16	1607.66
264.38	1675.24
264.60	1730.53
264.81	1740.77
265.03	1763.30
265.25	1751.01
265.46	1685.48
265.68	1800.16
265.89	1804.26
266.11	1669.09
266.33	1701.86
266.54	1689.57
266.76	1785.83
266.98	1722.34
267.19	1882.08
267.41	1787.88
267.62	1718.25
267.84	1634.28
268.06	1730.53
268.27	1716.20
268.49	1708.01
268.70	1679.33
268.92	1691.62
269.14	1626.09
269.35	1609.70
269.57	1722.34
269.79	1812.45
270.00	1578.98
270.22	1812.45
270.43	1679.33
270.65	1603.56
270.87	1662.95
271.08	1667.05
271.30	1712.10
271.51	1681.38
271.73	1734.63
271.95	1761.25
272.16	1669.09
272.38	1724.39
272.59	1632.23
272.81	1730.53
273.02	1619.94
273.24	1732.58
273.46	1722.34
273.67	1587.18
273.89	1679.33
274.10	1675.24
274.32	1744.87
274.54	1642.47
274.75	1746.92
274.97	1677.29
275.18	1820.64
275.40	1718.25
275.61	1648.61
275.83	1701.86
276.05	1708.01
276.26	1679.33
276.48	1665.00
276.69	1642.47
276.91	1636.33
277.12	1796.07
277.34	1701.86
277.55	1685.48
277.77	1683.43
277.99	1705.96
278.20	1603.56
278.42	1630.18
278.63	1624.04
278.85	1599.46
279.06	1652.71
279.28	1695.72
279.49	1718.25
279.71	1779.68
279.93	1689.57
280.14	1599.46
280.36	1574.89
280.57	1724.39
280.79	1755.11
281.00	1669.09
281.22	1701.86
281.43	1804.26
281.65	1568.74
281.86	1611.75
282.08	1787.88
282.29	1722.34
282.51	1658.85
282.73	1665.00
282.94	1599.46
283.16	1738.73
283.37	1683.43
283.59	1699.81
283.80	1791.97
284.02	1675.24
284.23	1695.72
284.45	1648.61
284.66	1658.85
284.88	1665.00
285.09	1705.96
285.31	1791.97
285.52	1679.33
285.74	1611.75
285.95	1726.44
286.17	1761.25
286.38	1761.25
286.60	1642.47
286.81	1644.52
287.03	1597.42
287.24	1640.42
287.46	1701.86
287.67	1644.52
287.89	1769.44
288.10	1703.91
288.32	1701.86
288.53	1759.21
288.75	1730.53
288.96	1742.82
289.18	1624.04
289.39	1699.81
289.61	1771.49
289.82	1701.86
290.04	1785.83
290.25	1609.70
290.47	1699.81
290.68	1740.77
290.90	1771.49
291.11	1683.43
291.33	1759.21
291.54	1576.94
291.76	1744.87
291.97	1718.25
292.18	1675.24
292.40	1675.24
292.61	1607.66
292.83	1843.17
293.04	1710.05
293.26	1669.09
293.47	1691.62
293.69	1624.04
293.90	1642.47
294.12	1757.16
294.33	1714.15
294.55	1734.63
294.76	1742.82
294.97	1703.91
295.19	1810.40
295.40	1736.68
295.62	1796.07
295.83	1746.92
296.05	1605.61
296.26	1845.22
296.48	1677.29
296.69	1683.43
296.90	1669.09
297.12	1763.30
297.33	1716.20
297.55	1671.14
297.76	1800.16
297.98	1777.64
298.19	1689.57
298.41	1656.81
298.62	1642.47
298.83	1849.32
299.05	1648.61
299.26	1677.29
299.48	1667.05
299.69	1705.96
299.90	1695.72
300.12	1634.28
300.33	1789.92
300.55	1777.64
300.76	1779.68
300.98	1619.94
301.19	1708.01
301.40	1683.43
301.62	1724.39
301.83	1708.01
302.05	1728.49
302.26	1718.25
302.47	1722.34
302.69	1681.38
302.90	1757.16
303.12	1601.51
303.33	1763.30
303.54	1787.88
303.76	1658.85
303.97	1724.39
304.19	1761.25
304.40	1697.77
304.61	1697.77
304.83	1800.16
305.04	1771.49
305.26	1695.72
305.47	1626.09
305.68	1617.90
305.90	1665.00
306.11	1712.10
306.33	1652.71
306.54	1714.15
306.75	1669.09
306.97	1603.56
307.18	1599.46
307.39	1728.49
307.61	1732.58
307.82	1714.15
308.04	1736.68
308.25	1621.99
308.46	1748.97
308.68	1697.77
308.89	1642.47
309.10	1726.44
309.32	1726.44
309.53	1671.14
309.74	1697.77
309.96	1665.00
310.17	1781.73
310.39	1628.14
310.60	1701.86
310.81	1603.56
311.03	1640.42
311.24	1687.53
311.45	1675.24
311.67	1796.07
311.88	1671.14
312.09	1718.25
312.31	1648.61
312.52	1638.38
312.73	1728.49
312.95	1621.99
313.16	1675.24
313.37	1703.91
313.59	1675.24
313.80	1724.39
314.01	1734.63
314.23	1677.29
314.44	1677.29
314.65	1632.23
314.87	1648.61
315.08	1677.29
315.29	1624.04
315.51	1640.42
315.72	1677.29
315.93	1851.36
316.15	1738.73
316.36	1658.85
316.57	1683.43
316.79	1712.10
317.00	1681.38
317.21	1744.87
317.43	1701.86
317.64	1681.38
317.85	1611.75
318.07	1675.24
318.28	1669.09
318.49	1814.50
318.70	1859.56
318.92	1800.16
319.13	1806.31
319.34	1882.08
319.56	1845.22
319.77	1708.01
319.98	1742.82
320.20	1708.01
320.41	1648.61
320.62	1683.43
320.83	1722.34
321.05	1718.25
321.26	1740.77
321.47	1689.57
321.69	1769.44
321.90	1613.80
322.11	1673.19
322.32	1787.88
322.54	1757.16
322.75	1708.01
322.96	1804.26
323.18	1603.56
323.39	1679.33
323.60	1650.66
323.81	1722.34
324.03	1648.61
324.24	1646.57
324.45	1685.48
324.66	1644.52
324.88	1736.68
325.09	1691.62
325.30	1738.73
325.52	1646.57
325.73	1728.49
325.94	1652.71
326.15	1601.51
326.37	1667.05
326.58	1802.21
326.79	1716.20
327.00	1671.14
327.22	1759.21
327.43	1695.72
327.64	1597.42
327.85	1673.19
328.07	1718.25
328.28	1705.96
328.49	1699.81
328.70	1740.77
328.92	1667.05
329.13	1687.53
329.34	1753.06
329.55	1832.93
329.76	1794.02
329.98	1677.29
330.19	1796.07
330.40	1708.01
330.61	1734.63
330.83	1794.02
331.04	1699.81
331.25	1656.81
331.46	1683.43
331.68	1615.85
331.89	1662.95
332.10	1697.77
332.31	1626.09
332.52	1699.81
332.74	1808.36
332.95	1626.09
333.16	1697.77
333.37	1789.92
333.58	1626.09
333.80	1742.82
334.01	1677.29
334.22	1683.43
334.43	1648.61
334.64	1644.52
334.86	1683.43
335.07	1583.08
335.28	1740.77
335.49	1673.19
335.70	1722.34
335.92	1796.07
336.13	1824.74
336.34	1742.82
336.55	1640.42
336.76	1730.53
336.98	1585.13
337.19	1734.63
337.40	1791.97
337.61	1775.59
337.82	1730.53
338.04	1689.57
338.25	1650.66
338.46	1687.53
338.67	1705.96
338.88	1697.77
339.09	1646.57
339.31	1665.00
339.52	1671.14
339.73	1689.57
339.94	1748.97
340.15	1765.35
340.36	1648.61
340.58	1699.81
340.79	1712.10
341.00	1730.53
341.21	1679.33
341.42	1855.46
341.63	1724.39
341.85	1828.84
342.06	1726.44
342.27	1634.28
342.48	1775.59
342.69	1613.80
342.90	1705.96
343.12	1779.68
343.33	1718.25
343.54	1732.58
343.75	1810.40
343.96	1669.09
344.17	1757.16
344.38	1632.23
344.60	1636.33
344.81	1654.76
345.02	1615.85
345.23	1761.25
345.44	1865.70
345.65	1714.15
345.86	1697.77
346.07	1677.29
346.29	1613.80
346.50	1665.00
346.71	1652.71
346.92	1800.16
347.13	1800.16
347.34	1669.09
347.55	1705.96
347.76	1765.35
347.98	1677.29
348.19	1634.28
348.40	1748.97
348.61	1611.75
348.82	1779.68
349.03	1697.77
349.24	1699.81
349.45	1804.26
349.66	1624.04
349.88	1624.04
350.09	1615.85
350.30	1761.25
350.51	1769.44
350.72	1660.90
350.93	1705.96
351.14	1626.09
351.35	1748.97
351.56	1656.81
351.77	1640.42
351.99	1675.24
352.20	1783.78
352.41	1769.44
352.62	1640.42
352.83	1652.71
353.04	1679.33
353.25	1671.14
353.46	1789.92
353.67	1779.68
353.88	1642.47
354.09	1734.63
354.30	1708.01
354.52	1714.15
354.73	1806.31
354.94	1642.47
355.15	1685.48
355.36	1746.92
355.57	1687.53
355.78	1755.11
355.99	1642.47
356.20	1724.39
356.41	1722.34
356.62	1710.05
356.83	1675.24
357.04	1763.30
357.25	1644.52
357.46	1710.05
357.68	1609.70
357.89	1718.25
358.10	1732.58
358.31	1613.80
358.52	1675.24
358.73	1689.57
358.94	1734.63
359.15	1611.75
359.36	1763.30
359.57	1642.47
359.78	1683.43
359.99	1730.53
360.20	1605.61
360.41	1701.86
360.62	1746.92
360.83	1746.92
361.04	1720.29
361.25	1802.21
361.46	1800.16
361.67	1695.72
361.88	1730.53
362.09	1742.82
362.30	1724.39
362.51	1744.87
362.72	1646.57
362.93	1703.91
363.14	1765.35
363.35	1820.64
363.56	1697.77
363.78	1718.25
363.99	1734.63
364.20	1695.72
364.41	1771.49
364.62	1724.39
364.83	1712.10
365.04	1650.66
365.25	1673.19
365.46	1767.40
365.67	1648.61
365.88	1675.24
366.09	1632.23
366.30	1615.85
366.51	1710.05
366.72	1646.57
366.93	1652.71
367.14	1658.85
367.35	1734.63
367.56	1683.43
367.77	1843.17
367.98	1708.01
368.18	1740.77
368.39	1685.48
368.60	1718.25
368.81	1769.44
369.02	1685.48
369.23	1744.87
369.44	1626.09
369.65	1644.52
369.86	1730.53
370.07	1742.82
370.28	1605.61
370.49	1746.92
370.70	1767.40
370.91	1656.81
371.12	1527.78
371.33	1742.82
371.54	1710.05
371.75	1865.70
371.96	1656.81
372.17	1701.86
372.38	1724.39
372.59	1748.97
372.80	1669.09
373.01	1662.95
373.22	1609.70
373.43	1732.58
373.64	1640.42
373.85	1763.30
374.06	1683.43
374.26	1755.11
374.47	1769.44
374.68	1787.88
374.89	1679.33
375.10	1611.75
375.31	1849.32
375.52	1689.57
375.73	1789.92
375.94	1636.33
376.15	1771.49
376.36	1591.27
376.57	1638.38
376.78	1695.72
376.99	1710.05
377.20	1714.15
377.40	1689.57
377.61	1818.60
377.82	1656.81
378.03	1767.40
378.24	1683.43
378.45	1683.43
378.66	1685.48
378.87	1630.18
379.08	1574.89
379.29	1656.81
379.50	1816.55
379.71	1570.79
379.91	1751.01
380.12	1665.00
380.33	1671.14
380.54	1697.77
380.75	1630.18
380.96	1683.43
381.17	1720.29
381.38	1714.15
381.59	1716.20
381.80	1693.67
382.00	1888.23
382.21	1767.40
382.42	1857.51
382.63	1855.46
382.84	1804.26
383.05	1791.97
383.26	1742.82
383.47	1726.44
383.68	1830.88
383.88	1724.39
384.09	1736.68
384.30	1761.25
384.51	1742.82
384.72	1585.13
384.93	1681.38
385.14	1671.14
385.35	1765.35
385.55	1607.66
385.76	1828.84
385.97	1726.44
386.18	1634.28
386.39	1662.95
386.60	1730.53
386.81	1687.53
387.02	1560.55
387.22	1562.60
387.43	1765.35
387.64	1673.19
387.85	1855.46
388.06	2189.28
388.27	4259.78
388.48	6848.41
388.68	8146.82
388.89	9650.03
389.10	9885.55
389.31	8660.86
389.52	7573.39
389.73	6676.38
389.93	6180.77
390.14	5920.68
390.35	5191.60
390.56	4609.98
390.77	3751.88
390.98	2930.64
391.18	2525.15
391.39	2181.09
391.60	1845.22
391.81	1841.12
392.02	1638.38
392.23	1861.60
392.43	1796.07
392.64	1728.49
392.85	1757.16
393.06	1808.36
393.27	1734.63
393.47	1595.37
393.68	1746.92
393.89	1693.67
394.10	1771.49
394.31	1742.82
394.52	1611.75
394.72	1701.86
394.93	1740.77
395.14	1583.08
395.35	1740.77
395.56	1724.39
395.76	1726.44
395.97	1759.21
396.18	1851.36
396.39	1869.80
396.60	2007.01
396.80	1837.03
397.01	1804.26
397.22	1875.94
397.43	1869.80
397.64	1748.97
397.84	1800.16
398.05	1767.40
398.26	1812.45
398.47	1757.16
398.67	1804.26
398.88	1746.92
399.09	1683.43
399.30	1712.10
399.51	1742.82
399.71	1626.09
399.92	1677.29
400.13	1703.91
400.34	1628.14
400.54	1757.16
400.75	1771.49
400.96	1787.88
401.17	1755.11
401.37	1773.54
401.58	1689.57
401.79	1697.77
402.00	1845.22
402.21	1955.81
402.41	1955.81
402.62	1992.67
402.83	1964.00
403.04	2064.35
403.24	2054.11
403.45	1824.74
403.66	1910.75
403.87	1869.80
404.07	1896.42
404.28	1873.89
404.49	1806.31
404.70	1808.36
404.90	1646.57
405.11	1746.92
405.32	1681.38
405.52	1685.48
405.73	1652.71
405.94	1642.47
406.15	1703.91
406.35	1748.97
406.56	1703.91
406.77	1761.25
406.98	1648.61
407.18	1644.52
407.39	1828.84
407.60	1722.34
407.80	1767.40
408.01	1671.14
408.22	1708.01
408.43	1617.90
408.63	1738.73
408.84	1740.77
409.05	1781.73
409.25	1681.38
409.46	1705.96
409.67	1691.62
409.88	1714.15
410.08	1798.12
410.29	1740.77
410.50	1787.88
410.70	1689.57
410.91	1609.70
411.12	1746.92
411.32	1751.01
411.53	1695.72
411.74	1796.07
411.95	1804.26
412.15	1755.11
412.36	1773.54
412.57	1751.01
412.77	1765.35
412.98	1724.39
413.19	1751.01
413.39	1710.05
413.60	1781.73
413.81	1847.27
414.01	1677.29
414.22	1751.01
414.43	1849.32
414.63	1724.39
414.84	1798.12
415.05	1755.11
415.25	1699.81
415.46	1695.72
415.67	1703.91
415.87	1746.92
416.08	1695.72
416.29	1640.42
416.49	1691.62
416.70	1734.63
416.91	1665.00
417.11	1691.62
417.32	1800.16
417.53	1763.30
417.73	1732.58
417.94	1722.34
418.15	1679.33
418.35	1689.57
418.56	1740.77
418.77	1908.71
418.97	1626.09
419.18	1646.57
419.38	1550.31
419.59	1671.14
419.80	1738.73
420.00	1677.29
420.21	1726.44
420.42	1724.39
420.62	1710.05
420.83	1693.67
421.04	1789.92
421.24	1687.53
421.45	1736.68
421.65	1726.44
421.86	1634.28
422.07	1712.10
422.27	1765.35
422.48	1701.86
422.69	1624.04
422.89	1669.09
423.10	1705.96
423.30	1654.76
423.51	1701.86
423.72	1656.81
423.92	1783.78
424.13	1669.09
424.33	1751.01
424.54	1724.39
424.75	1687.53
424.95	1796.07
425.16	1779.68
425.36	1673.19
425.57	1697.77
425.78	1697.77
425.98	1740.77
426.19	1662.95
426.39	1632.23
426.60	1806.31
426.81	1773.54
427.01	1683.43
427.22	1658.85
427.42	1603.56
427.63	1667.05
427.83	1738.73
428.04	1834.98
428.25	1757.16
428.45	1724.39
428.66	1744.87
428.86	1710.05
429.07	1683.43
429.28	1757.16
429.48	1689.57
429.69	1658.85
429.89	1697.77
430.10	1615.85
430.30	1714.15
430.51	1861.60
430.71	1611.75
430.92	1730.53
431.13	1626.09
431.33	1662.95
431.54	1681.38
431.74	1779.68
431.95	1742.82
432.15	1675.24
432.36	1697.77
432.56	1740.77
432.77	1765.35
432.98	1746.92
433.18	1759.21
433.39	1671.14
433.59	1665.00
433.80	1794.02
434.00	1882.08
434.21	1673.19
434.41	1671.14
434.62	1923.04
434.82	1634.28
435.03	1693.67
435.23	1728.49
435.44	1665.00
435.64	1691.62
435.85	1744.87
436.06	1757.16
436.26	1787.88
436.47	1679.33
436.67	1626.09
436.88	1738.73
437.08	1699.81
437.29	1783.78
437.49	1683.43
437.70	1769.44
437.90	1705.96
438.11	1857.51
438.31	1781.73
438.52	1918.95
438.72	1834.98
438.93	1939.43
439.13	1775.59
439.34	1843.17
439.54	1724.39
439.75	1787.88
439.95	1781.73
440.16	1667.05
440.36	1787.88
440.57	1730.53
440.77	1763.30
440.98	1708.01
441.18	1720.29
441.39	1591.27
441.59	1667.05
441.80	1820.64
442.00	1767.40
442.21	1824.74
442.41	1689.57
442.62	1820.64
442.82	1654.76
443.02	1658.85
443.23	1689.57
443.43	1687.53
443.64	1802.21
443.84	1693.67
444.05	1767.40
444.25	1830.88
444.46	1626.09
444.66	1726.44
444.87	1769.44
445.07	1591.27
445.28	1748.97
445.48	1832.93
445.69	1820.64
445.89	1898.47
446.09	1755.11
446.30	1990.63
446.50	2631.64
446.71	3631.05
446.91	4325.31
447.12	4798.39
447.32	4884.41
447.53	4401.08
447.73	3901.38
447.93	3588.04
448.14	3221.45
448.34	3166.16
448.55	2930.64
448.75	2746.33
448.96	2660.31
449.16	2394.08
449.36	2240.48
449.57	2037.73
449.77	1931.23
449.98	1798.12
450.18	1830.88
450.39	1761.25
450.59	1785.83
450.79	1648.61
451.00	1724.39
451.20	1810.40
451.41	1710.05
451.61	1755.11
451.81	1763.30
452.02	1789.92
452.22	1710.05
452.43	1630.18
452.63	1728.49
452.84	1681.38
453.04	1699.81
453.24	1724.39
453.45	1738.73
453.65	1763.30
453.86	1869.80
454.06	1734.63
454.26	1685.48
454.47	1673.19
454.67	1828.84
454.87	1759.21
455.08	1665.00
455.28	1816.55
455.49	1748.97
455.69	1667.05
455.89	1859.56
456.10	1738.73
456.30	1720.29
456.51	1822.69
456.71	1804.26
456.91	1771.49
457.12	1712.10
457.32	1734.63
457.52	1705.96
457.73	1714.15
457.93	1804.26
458.14	1701.86
458.34	1658.85
458.54	1699.81
458.75	1722.34
458.95	1812.45
459.15	1738.73
459.36	1802.21
459.56	1726.44
459.76	1820.64
459.97	1708.01
460.17	1740.77
460.37	1796.07
460.58	1736.68
460.78	1730.53
460.99	1630.18
461.19	1718.25
461.39	1611.75
461.60	1667.05
461.80	1767.40
462.00	1665.00
462.21	1730.53
462.41	1701.86
462.61	1658.85
462.82	1564.65
463.02	1742.82
463.22	1746.92
463.43	1777.64
463.63	1708.01
463.83	1751.01
464.04	1718.25
464.24	1726.44
464.44	1642.47
464.64	1742.82
464.85	1742.82
465.05	1777.64
465.25	1708.01
465.46	1738.73
465.66	1814.50
465.86	1849.32
466.07	1689.57
466.27	1644.52
466.47	1619.94
466.68	1634.28
466.88	1822.69
467.08	1671.14
467.29	1703.91
467.49	1781.73
467.69	1714.15
467.89	1708.01
468.10	1720.29
468.30	1673.19
468.50	1822.69
468.71	1775.59
468.91	1617.90
469.11	1880.04
469.31	1726.44
469.52	1734.63
469.72	1779.68
469.92	1853.41
470.13	1691.62
470.33	1824.74
470.53	1892.32
470.73	2078.69
470.94	2217.95
471.14	2271.20
471.34	2566.10
471.54	2344.92
471.75	2316.25
471.95	2123.74
472.15	2084.83
472.36	2107.36
472.56	2050.02
472.76	2064.35
472.96	1955.81
473.17	1890.28
473.37	1925.09
473.57	1759.21
473.77	1834.98
473.98	1789.92
474.18	1683.43
474.38	1808.36
474.58	1726.44
474.79	1710.05
474.99	1763.30
475.19	1730.53
475.39	1640.42
475.60	1654.76
475.80	1714.15
476.00	1705.96
476.20	1755.11
476.41	1658.85
476.61	1861.60
476.81	1753.06
477.01	1726.44
477.21	1783.78
477.42	1826.79
477.62	1632.23
477.82	1740.77
478.02	1718.25
478.23	1730.53
478.43	1624.04
478.63	1699.81
478.83	1621.99
479.03	1724.39
479.24	1816.55
479.44	1834.98
479.64	1673.19
479.84	1712.10
480.04	1646.57
480.25	1732.58
480.45	1673.19
480.65	1656.81
480.85	1808.36
481.06	1652.71
481.26	1685.48
481.46	1763.30
481.66	1677.29
481.86	1662.95
482.06	1783.78
482.27	1658.85
482.47	1714.15
482.67	1701.86
482.87	1671.14
483.07	1771.49
483.28	1669.09
483.48	1648.61
483.68	1755.11
483.88	1642.47
484.08	1546.22
484.29	1624.04
484.49	1724.39
484.69	1681.38
484.89	1783.78
485.09	1740.77
485.29	1773.54
485.50	1722.34
485.70	1632.23
485.90	1755.11
486.10	1736.68
486.30	1755.11
486.50	1746.92
486.71	1718.25
486.91	1779.68
487.11	1877.99
487.31	1673.19
487.51	1779.68
487.71	1673.19
487.91	1673.19
488.12	1708.01
488.32	1597.42
488.52	1654.76
488.72	1626.09
488.92	1640.42
489.12	1751.01
489.32	1816.55
489.53	1767.40
489.73	1617.90
489.93	1808.36
490.13	1720.29
490.33	1621.99
490.53	1730.53
490.73	1796.07
490.94	1679.33
491.14	1791.97
491.34	1804.26
491.54	2117.60
491.74	2627.54
491.94	2877.40
492.14	3037.14
492.34	2955.22
492.54	2762.71
492.75	2465.75
492.95	2439.13
493.15	2308.06
493.35	2258.91
493.55	2213.85
493.75	2160.61
493.95	2123.74
494.15	1916.90
494.35	1873.89
494.56	1847.27
494.76	1751.01
494.96	1888.23
495.16	1824.74
495.36	1669.09
495.56	1734.63
495.76	1771.49
495.96	1728.49
496.16	1652.71
496.36	1812.45
496.56	1722.34
496.77	1755.11
496.97	1644.52
497.17	1736.68
497.37	1722.34
497.57	1722.34
497.77	1652.71
497.97	1732.58
498.17	1759.21
498.37	1683.43
498.57	1722.34
498.77	1679.33
498.97	1769.44
499.17	1816.55
499.38	1708.01
499.58	1777.64
499.78	1832.93
499.98	1869.80
500.18	1734.63
500.38	1681.38
500.58	1900.52
500.78	2590.68
500.98	4630.46
501.18	5920.68
501.38	6842.26
501.58	7092.12
501.78	6719.39
501.98	5506.99
502.18	4997.04
502.38	4440.00
502.58	4077.51
502.78	3692.49
502.98	3555.27
503.18	3477.45
503.38	3221.45
503.59	2844.63
503.79	2582.49
503.99	2486.23
504.19	2265.05
504.39	2140.13
504.59	2205.66
504.79	2082.78
504.99	1992.67
505.19	1933.28
505.39	1920.99
505.59	1898.47
505.79	1851.36
505.99	1781.73
506.19	1755.11
506.39	1861.60
506.59	1730.53
506.79	1714.15
506.99	1828.84
507.19	1779.68
507.39	1826.79
507.59	1669.09
507.79	1748.97
507.99	1662.95
508.19	1771.49
508.39	1634.28
508.59	1716.20
508.79	1812.45
508.99	1734.63
509.19	1726.44
509.39	1767.40
509.59	1718.25
509.79	1699.81
509.99	1740.77
510.19	1761.25
510.39	1798.12
510.59	1714.15
510.79	1771.49
510.99	1705.96
511.19	1777.64
511.39	1757.16
511.59	1779.68
511.79	1886.18
511.99	1712.10
512.19	1714.15
512.38	1708.01
512.58	1705.96
512.78	1734.63
512.98	1839.08
513.18	1804.26
513.38	1656.81
513.58	1806.31
513.78	1662.95
513.98	1730.53
514.18	1767.40
514.38	1638.38
514.58	1763.30
514.78	1701.86
514.98	1662.95
515.18	1736.68
515.38	1599.46
515.58	1828.84
515.78	1718.25
515.98	1724.39
516.18	1701.86
516.38	1800.16
516.57	1753.06
516.77	1687.53
516.97	1730.53
517.17	1697.77
517.37	1650.66
517.57	1832.93
517.77	1759.21
517.97	1726.44
518.17	1779.68
518.37	1650.66
518.57	1722.34
518.77	1671.14
518.97	1697.77
519.16	1773.54
519.36	1695.72
519.56	1699.81
519.76	1689.57
519.96	1683.43
520.16	1779.68
520.36	1685.48
520.56	1779.68
520.76	1759.21
520.96	1705.96
521.16	1853.41
521.35	1783.78
521.55	1751.01
521.75	1820.64
521.95	1701.86
522.15	1718.25
522.35	1638.38
522.55	1722.34
522.75	1779.68
522.95	1714.15
523.14	1744.87
523.34	1763.30
523.54	1718.25
523.74	1775.59
523.94	1665.00
524.14	1662.95
524.34	1705.96
524.54	1843.17
524.73	1773.54
524.93	1769.44
525.13	1826.79
525.33	1660.90
525.53	1888.23
525.73	1812.45
525.93	1701.86
526.13	1636.33
526.32	1681.38
526.52	1683.43
526.72	1834.98
526.92	1638.38
527.12	1701.86
527.32	1681.38
527.52	1736.68
527.71	1759.21
527.91	1701.86
528.11	1728.49
528.31	1705.96
528.51	1632.23
528.71	1771.49
528.90	1794.02
529.10	1742.82
529.30	1818.60
529.50	1660.90
529.70	1722.34
529.90	1708.01
530.09	1837.03
530.29	1660.90
530.49	1619.94
530.69	1873.89
530.89	1677.29
531.09	1753.06
531.28	1728.49
531.48	1820.64
531.68	1753.06
531.88	1759.21
532.08	1767.40
532.28	1650.66
532.47	1767.40
532.67	1832.93
532.87	1712.10
533.07	1697.77
533.27	1738.73
533.46	1804.26
533.66	1652.71
533.86	1628.14
534.06	1669.09
534.26	1744.87
534.45	1699.81
534.65	1755.11
534.85	1646.57
535.05	1654.76
535.25	1775.59
535.44	1615.85
535.64	1730.53
535.84	1787.88
536.04	1716.20
536.24	1781.73
536.43	1697.77
536.63	1781.73
536.83	1714.15
537.03	1751.01
537.22	1675.24
537.42	1724.39
537.62	1732.58
537.82	1708.01
538.02	1791.97
538.21	1810.40
538.41	1890.28
538.61	1863.65
538.81	1679.33
539.00	1736.68
539.20	1599.46
539.40	1695.72
539.60	1812.45
539.79	1767.40
539.99	1755.11
540.19	1681.38
540.39	1738.73
540.58	1767.40
540.78	1794.02
540.98	1796.07
541.18	1720.29
541.37	1755.11
541.57	1703.91
541.77	1808.36
541.97	1669.09
542.16	1568.74
542.36	1640.42
542.56	1732.58
542.76	1865.70
542.95	1722.34
543.15	1744.87
543.35	1748.97
543.54	1744.87
543.74	1787.88
543.94	1746.92
544.14	1716.20
544.33	1728.49
544.53	1726.44
544.73	1705.96
544.93	1761.25
545.12	1740.77
545.32	1712.10
545.52	1771.49
545.71	1628.14
545.91	1740.77
546.11	1712.10
546.30	1669.09
546.50	1751.01
546.70	1818.60
546.90	1783.78
547.09	1570.79
547.29	1730.53
547.49	1804.26
547.68	1732.58
547.88	1732.58
548.08	1763.30
548.27	2109.41
548.47	1656.81
548.67	1753.06
548.87	1732.58
549.06	1720.29
549.26	1675.24
549.46	1779.68
549.65	1732.58
549.85	1736.68
550.05	1720.29
550.24	1615.85
550.44	1789.92
550.64	1638.38
550.83	1777.64
551.03	1804.26
551.23	1861.60
551.42	1757.16
551.62	1712.10
551.82	1742.82
552.01	1689.57
552.21	1810.40
552.41	1714.15
552.60	1755.11
552.80	1742.82
553.00	1724.39
553.19	1687.53
553.39	1869.80
553.59	1712.10
553.78	1691.62
553.98	1767.40
554.17	1578.98
554.37	1804.26
554.57	1722.34
554.76	1621.99
554.96	1669.09
555.16	1771.49
555.35	1730.53
555.55	1656.81
555.75	1740.77
555.94	1722.34
556.14	1728.49
556.33	1787.88
556.53	1800.16
556.73	1742.82
556.92	1845.22
557.12	1882.08
557.32	1857.51
557.51	1822.69
557.71	1751.01
557.90	1771.49
558.10	1851.36
558.30	1648.61
558.49	1708.01
558.69	1716.20
558.88	1789.92
559.08	1755.11
559.28	1738.73
559.47	1810.40
559.67	1822.69
559.86	1896.42
560.06	1808.36
560.26	1701.86
560.45	1722.34
560.65	1726.44
560.84	1847.27
561.04	1634.28
561.24	1746.92
561.43	1705.96
561.63	1779.68
561.82	1802.21
562.02	1673.19
562.22	1740.77
562.41	1630.18
562.61	1693.67
562.80	1665.00
563.00	1804.26
563.19	1736.68
563.39	1781.73
563.59	1841.12
563.78	1710.05
563.98	1591.27
564.17	1669.09
564.37	1720.29
564.56	1730.53
564.76	1734.63
564.96	1834.98
565.15	1798.12
565.35	1892.32
565.54	1701.86
565.74	1808.36
565.93	1683.43
566.13	1755.11
566.32	1742.82
566.52	1781.73
566.71	1789.92
566.91	1767.40
567.11	1753.06
567.30	1714.15
567.50	1710.05
567.69	1716.20
567.89	1716.20
568.08	1724.39
568.28	1703.91
568.47	1650.66
568.67	1755.11
568.86	1617.90
569.06	1736.68
569.25	1734.63
569.45	1689.57
569.64	1724.39
569.84	1648.61
570.04	1773.54
570.23	1718.25
570.43	1767.40
570.62	1765.35
570.82	1841.12
571.01	1601.51
571.21	1763.30
571.40	1646.57
571.60	1773.54
571.79	1669.09
571.99	1755.11
572.18	1685.48
572.38	1818.60
572.57	1757.16
572.77	1761.25
572.96	1853.41
573.16	1724.39
573.35	1720.29
573.55	1765.35
573.74	1726.44
573.94	1716.20
574.13	1699.81
574.33	1787.88
574.52	1802.21
574.71	1718.25
574.91	1716.20
575.10	1681.38
575.30	1708.01
575.49	1734.63
575.69	1738.73
575.88	1746.92
576.08	1726.44
576.27	1757.16
576.47	1662.95
576.66	1818.60
576.86	1771.49
577.05	1722.34
577.25	1767.40
577.44	1859.56
577.64	1722.34
577.83	1720.29
578.02	1738.73
578.22	1736.68
578.41	1839.08
578.61	1724.39
578.80	1646.57
579.00	1824.74
579.19	1718.25
579.39	1812.45
579.58	1822.69
579.77	1820.64
579.97	1849.32
580.16	1839.08
580.36	1783.78
580.55	1798.12
580.75	1781.73
580.94	1783.78
581.13	1832.93
581.33	1853.41
581.52	1787.88
581.72	1884.13
581.91	1822.69
582.11	1812.45
582.30	1888.23
582.49	1730.53
582.69	1802.21
582.88	1853.41
583.08	1775.59
583.27	1787.88
583.47	1677.29
583.66	1718.25
583.85	1734.63
584.05	1738.73
584.24	1697.77
584.44	1693.67
584.63	1767.40
584.82	1800.16
585.02	1800.16
585.21	1859.56
585.41	1794.02
585.60	1816.55
585.79	1890.28
585.99	1886.18
586.18	1849.32
586.37	2148.32
586.57	3377.10
586.76	9996.14
586.96	24600.20
587.15	34502.13
587.34	40754.58
587.54	42249.60
587.73	37199.30
587.93	26705.51
588.12	21634.74
588.31	18446.05
588.51	16496.39
588.70	15372.05
588.89	14235.43
589.09	12859.20
589.28	11192.15
589.47	9441.14
589.67	8066.95
589.86	6563.74
590.06	4958.13
590.25	4032.45
590.44	3133.39
590.64	2607.06
590.83	2355.16
591.02	2099.17
591.22	1927.14
591.41	1908.71
591.60	1787.88
591.80	1869.80
591.99	1804.26
592.18	1748.97
592.38	1820.64
592.57	1765.35
592.76	1802.21
592.96	1812.45
593.15	1800.16
593.34	1798.12
593.54	1730.53
593.73	1804.26
593.92	1781.73
594.12	1714.15
594.31	1746.92
594.50	1800.16
594.70	1808.36
594.89	1953.76
595.08	1679.33
595.28	1820.64
595.47	1904.61
595.66	1775.59
595.86	1685.48
596.05	1669.09
596.24	1757.16
596.43	1828.84
596.63	1753.06
596.82	1822.69
597.01	1738.73
597.21	1824.74
597.40	1730.53
597.59	1667.05
597.79	1703.91
597.98	1755.11
598.17	1716.20
598.36	1767.40
598.56	1744.87
598.75	1720.29
598.94	1708.01
599.14	1722.34
599.33	1705.96
599.52	1783.78
599.71	1820.64
599.91	1734.63
600.10	1781.73
600.29	1722.34
600.48	1761.25
600.68	1726.44
600.87	1718.25
601.06	1665.00
601.26	1765.35
601.45	1679.33
601.64	1742.82
601.83	1746.92
602.03	1691.62
602.22	1619.94
602.41	1730.53
602.60	1828.84
602.80	1785.83
602.99	1740.77
603.18	1757.16
603.37	1732.58
603.57	1837.03
603.76	1744.87
603.95	1681.38
604.14	1679.33
604.34	1691.62
604.53	1730.53
604.72	1746.92
604.91	1804.26
605.10	1736.68
605.30	1681.38
605.49	1828.84
605.68	1746.92
605.87	1695.72
606.07	1681.38
606.26	1796.07
606.45	1769.44
606.64	1755.11
606.84	1718.25
607.03	1742.82
607.22	1755.11
607.41	1716.20
607.60	1613.80
607.80	1755.11
607.99	1685.48
608.18	1804.26
608.37	1732.58
608.56	1673.19
608.76	1757.16
608.95	1746.92
609.14	1765.35
609.33	1744.87
609.52	1777.64
609.72	1679.33
609.91	1802.21
610.10	1689.57
610.29	1802.21
610.48	1730.53
610.68	1814.50
610.87	1703.91
611.06	1736.68
611.25	1699.81
611.44	1808.36
611.63	1777.64
611.83	1763.30
612.02	1626.09
612.21	1791.97
612.40	1683.43
612.59	1654.76
612.79	1662.95
612.98	1726.44
613.17	1826.79
613.36	1695.72
613.55	1771.49
613.74	1703.91
613.93	1687.53
614.13	1701.86
614.32	1765.35
614.51	1806.31
614.70	1722.34
614.89	1601.51
615.08	1699.81
615.28	2109.41
615.47	1681.38
615.66	1697.77
615.85	1681.38
616.04	1810.40
616.23	1738.73
616.42	1753.06
616.62	1734.63
616.81	1818.60
617.00	1818.60
617.19	1701.86
617.38	1705.96
617.57	1761.25
617.76	1748.97
617.95	1722.34
618.15	1757.16
618.34	1820.64
618.53	1675.24
618.72	1828.84
618.91	1794.02
619.10	1769.44
619.29	1673.19
619.48	1708.01
619.68	1667.05
619.87	1685.48
620.06	1652.71
620.25	1753.06
620.44	1691.62
620.63	1689.57
620.82	1724.39
621.01	1675.24
621.20	1673.19
621.39	1724.39
621.59	1740.77
621.78	1703.91
621.97	1796.07
622.16	1738.73
622.35	1705.96
622.54	1716.20
622.73	1767.40
622.92	1595.37
623.11	1759.21
623.30	1783.78
623.49	1828.84
623.68	1722.34
623.88	1830.88
624.07	1740.77
624.26	1689.57
624.45	1695.72
624.64	1675.24
624.83	1677.29
625.02	1705.96
625.21	1765.35
625.40	1808.36
625.59	1746.92
625.78	1650.66
625.97	1814.50
626.16	1744.87
626.35	1701.86
626.54	1742.82
626.74	1785.83
626.93	1740.77
627.12	1689.57
627.31	1773.54
627.50	1693.67
627.69	1761.25
627.88	1777.64
628.07	1640.42
628.26	1722.34
628.45	1701.86
628.64	1675.24
628.83	1683.43
629.02	1660.90
629.21	1820.64
629.40	1691.62
629.59	1632.23
629.78	1759.21
629.97	1658.85
630.16	1714.15
630.35	1714.15
630.54	1773.54
630.73	1695.72
630.92	1730.53
631.11	1656.81
631.30	1732.58
631.49	1767.40
631.68	1763.30
631.87	1726.44
632.06	1642.47
632.25	1855.46
632.44	1732.58
632.63	1710.05
632.82	1746.92
633.01	1593.32
633.20	1685.48
633.39	1689.57
633.58	1638.38
633.77	1804.26
633.96	1720.29
634.15	1812.45
634.34	1767.40
634.53	1771.49
634.72	1634.28
634.91	1634.28
635.10	1738.73
635.29	1769.44
635.48	1679.33
635.67	1689.57
635.86	1603.56
636.05	1828.84
636.24	1779.68
636.43	1712.10
636.62	1687.53
636.81	1585.13
637.00	1705.96
637.19	1771.49
637.38	1681.38
637.57	1757.16
637.76	1734.63
637.95	1703.91
638.14	1640.42
638.33	1671.14
638.52	1746.92
638.71	1681.38
638.89	1626.09
639.08	1869.80
639.27	1718.25
639.46	1669.09
639.65	1826.79
639.84	1710.05
640.03	1814.50
640.22	1746.92
640.41	1785.83
640.60	1728.49
640.79	1689.57
640.98	1685.48
641.17	1726.44
641.36	1718.25
641.55	1662.95
641.74	1611.75
641.92	1603.56
642.11	1673.19
642.30	1742.82
642.49	1730.53
642.68	1581.03
642.87	1718.25
643.06	1738.73
643.25	1689.57
643.44	1621.99
643.63	1697.77
643.82	1757.16
644.00	1667.05
644.19	1714.15
644.38	1718.25
644.57	1830.88
644.76	1675.24
644.95	1716.20
645.14	1699.81
645.33	1724.39
645.52	1720.29
645.71	1636.33
645.89	1697.77
646.08	1742.82
646.27	1677.29
646.46	1810.40
646.65	1683.43
646.84	1712.10
647.03	1656.81
647.22	1832.93
647.40	1714.15
647.59	1699.81
647.78	1673.19
647.97	1718.25
648.16	1708.01
648.35	1794.02
648.54	1769.44
648.73	1665.00
648.91	1818.60
649.10	1693.67
649.29	1751.01
649.48	1685.48
649.67	1740.77
649.86	1675.24
650.05	1712.10
650.23	1722.34
650.42	1669.09
650.61	1677.29
650.80	1693.67
650.99	1886.18
651.18	1757.16
651.36	1746.92
651.55	1675.24
651.74	1669.09
651.93	1660.90
652.12	1746.92
652.31	1689.57
652.49	1771.49
652.68	1687.53
652.87	1800.16
653.06	1730.53
653.25	1812.45
653.44	1720.29
653.62	1748.97
653.81	1763.30
654.00	1796.07
654.19	1851.36
654.38	1845.22
654.56	1701.86
654.75	1699.81
654.94	1765.35
655.13	1746.92
655.32	1654.76
655.51	1714.15
655.69	1665.00
655.88	1730.53
656.07	1685.48
656.26	1734.63
656.45	1691.62
656.63	1662.95
656.82	1851.36
657.01	1669.09
657.20	1648.61
657.38	1726.44
657.57	1660.90
657.76	1619.94
657.95	1748.97
658.14	1675.24
658.32	1681.38
658.51	1597.42
658.70	1732.58
658.89	1734.63
659.08	1705.96
659.26	1757.16
659.45	1626.09
659.64	1724.39
659.83	1699.81
660.01	1927.14
660.20	1738.73
660.39	1787.88
660.58	1578.98
660.76	1808.36
660.95	1624.04
661.14	1763.30
661.33	1646.57
661.51	1724.39
661.70	1728.49
661.89	1748.97
662.08	1665.00
662.26	1685.48
662.45	1720.29
662.64	1849.32
662.83	1773.54
663.01	1613.80
663.20	1665.00
663.39	1810.40
663.58	1669.09
663.76	1744.87
663.95	1673.19
664.14	1689.57
664.32	1691.62
664.51	1665.00
664.70	1675.24
664.89	1710.05
665.07	1691.62
665.26	1814.50
665.45	1751.01
665.64	1718.25
665.82	1744.87
666.01	1732.58
666.20	1646.57
666.38	1841.12
666.57	1800.16
666.76	2140.13
666.95	4419.52
667.13	10469.22
667.32	15234.84
667.51	18312.94
667.69	19152.60
667.88	17889.01
668.07	12537.66
668.25	9584.49
668.44	8349.57
668.63	7223.19
668.81	6944.66
669.00	6195.11
669.19	5877.67
669.38	5038.00
669.56	4646.84
669.75	3880.90
669.94	3487.69
670.12	2930.64
670.31	2488.28
670.50	2273.25
670.68	2119.65
670.87	2000.87
671.06	1853.41
671.24	1746.92
671.43	1859.56
671.62	1771.49
671.80	1656.81
671.99	1789.92
672.18	1748.97
672.36	1699.81
672.55	1687.53
672.74	1708.01
672.92	1757.16
673.11	1714.15
673.29	1638.38
673.48	1728.49
673.67	1654.76
673.85	1796.07
674.04	1693.67
674.23	1738.73
674.41	1800.16
674.60	1640.42
674.79	1650.66
674.97	1693.67
675.16	1791.97
675.34	1722.34
675.53	1724.39
675.72	1765.35
675.90	1798.12
676.09	1777.64
676.28	1746.92
676.46	1679.33
676.65	1646.57
676.83	1624.04
677.02	1628.14
677.21	1738.73
677.39	1683.43
677.58	1734.63
677.77	1726.44
677.95	1669.09
678.14	1683.43
678.32	1742.82
678.51	1685.48
678.70	1816.55
678.88	1632.23
679.07	1708.01
679.25	1675.24
679.44	1665.00
679.63	1673.19
679.81	1742.82
680.00	1814.50
680.18	1665.00
680.37	1742.82
680.55	1665.00
680.74	1646.57
680.93	1593.32
681.11	1644.52
681.30	1693.67
681.48	1689.57
681.67	1675.24
681.85	1714.15
682.04	1679.33
682.23	1789.92
682.41	1673.19
682.60	1630.18
682.78	1681.38
682.97	1675.24
683.15	1724.39
683.34	1679.33
683.53	1794.02
683.71	1650.66
683.90	1744.87
684.08	1757.16
684.27	1677.29
684.45	1769.44
684.64	1779.68
684.82	1605.61
685.01	1757.16
685.19	1751.01
685.38	1796.07
685.57	1632.23
685.75	1683.43
685.94	1636.33
686.12	1689.57
686.31	1683.43
686.49	1808.36
686.68	1560.55
686.86	1675.24
687.05	1718.25
687.23	1757.16
687.42	1695.72
687.60	1656.81
687.79	1742.82
687.97	1834.98
688.16	1783.78
688.34	1791.97
688.53	1591.27
688.71	1720.29
688.90	1746.92
689.08	1728.49
689.27	1593.32
689.45	1724.39
689.64	1718.25
689.82	1744.87
690.01	1787.88
690.19	1693.67
690.38	1667.05
690.56	1781.73
690.75	1621.99
690.93	1658.85
691.12	1628.14
691.30	1730.53
691.49	1701.86
691.67	1767.40
691.86	1855.46
692.04	1681.38
692.23	1687.53
692.41	1755.11
692.60	1867.75
692.78	1699.81
692.97	1632.23
693.15	1703.91
693.34	1757.16
693.52	1746.92
693.71	1669.09
693.89	1679.33
694.08	1609.70
694.26	1732.58
694.44	1728.49
694.63	1800.16
694.81	1597.42
695.00	1644.52
695.18	1710.05
695.37	1808.36
695.55	1687.53
695.74	1689.57
695.92	1685.48
696.10	1816.55
696.29	1540.07
696.47	1648.61
696.66	1646.57
696.84	1660.90
697.03	1701.86
697.21	1812.45
697.40	2349.02
697.58	1744.87
697.76	1650.66
697.95	1746.92
698.13	1673.19
698.32	1693.67
698.50	1701.86
698.68	1751.01
698.87	1748.97
699.05	1837.03
699.24	1677.29
699.42	1724.39
699.61	1710.05
699.79	1808.36
699.97	1665.00
700.16	1574.89
700.34	1660.90
700.53	1652.71
700.71	1769.44
700.89	1738.73
701.08	1673.19
701.26	1724.39
701.45	2062.30
701.63	1640.42
701.81	1669.09
702.00	1667.05
702.18	1730.53
702.37	1685.48
702.55	1746.92
702.73	1669.09
702.92	1673.19
703.10	1724.39
703.28	1646.57
703.47	1648.61
703.65	1767.40
703.84	1791.97
704.02	1648.61
704.20	1779.68
704.39	1644.52
704.57	1636.33
704.75	1767.40
704.94	1769.44
705.12	1681.38
705.30	1814.50
705.49	2250.72
705.67	4300.73
705.86	9437.04
706.04	12644.16
706.22	14530.34
706.41	15290.13
706.59	13936.43
706.77	9643.88
706.96	7417.74
707.14	6649.75
707.32	5939.11
707.51	5597.10
707.69	4978.61
707.87	4200.38
708.06	3434.44
708.24	3012.56
708.42	2480.09
708.61	2248.67
708.79	1877.99
708.97	1816.55
709.16	1822.69
709.34	1728.49
709.52	1748.97
709.71	1681.38
709.89	1763.30
710.07	1695.72
710.26	1597.42
710.44	1755.11
710.62	1773.54
710.80	1703.91
710.99	1744.87
711.17	1802.21
711.35	1605.61
711.54	1738.73
711.72	1779.68
711.90	1763.30
712.09	1677.29
712.27	1677.29
712.45	1703.91
712.63	1697.77
712.82	1681.38
713.00	1685.48
713.18	1742.82
713.37	1734.63
713.55	1699.81
713.73	1681.38
713.91	1759.21
714.10	1697.77
714.28	1658.85
714.46	1675.24
714.65	1671.14
714.83	1636.33
715.01	1646.57
715.19	1691.62
715.38	1615.85
715.56	1710.05
715.74	1658.85
715.92	1630.18
716.11	1730.53
716.29	1607.66
716.47	1683.43
716.65	1718.25
716.84	1656.81
717.02	1794.02
717.20	1560.55
717.38	1628.14
717.57	1699.81
717.75	1669.09
717.93	1693.67
718.11	1677.29
718.30	1605.61
718.48	1693.67
718.66	1697.77
718.84	1775.59
719.03	1689.57
719.21	1648.61
719.39	1812.45
719.57	1697.77
719.75	1660.90
719.94	1691.62
720.12	1689.57
720.30	1742.82
720.48	1757.16
720.67	1662.95
720.85	1644.52
721.03	1644.52
721.21	1701.86
721.39	1734.63
721.58	1671.14
721.76	1642.47
721.94	1746.92
722.12	1705.96
722.30	1808.36
722.49	1697.77
722.67	1773.54
722.85	1677.29
723.03	1638.38
723.21	1654.76
723.40	1701.86
723.58	1763.30
723.76	1638.38
723.94	1720.29
724.12	1685.48
724.30	1802.21
724.49	1718.25
724.67	1642.47
724.85	1714.15
725.03	1648.61
725.21	1722.34
725.40	1734.63
725.58	1665.00
725.76	1738.73
725.94	1665.00
726.12	1617.90
726.30	1714.15
726.49	1738.73
726.67	1665.00
726.85	1744.87
727.03	1763.30
727.21	2146.27
727.39	2891.73
727.57	3669.96
727.76	4237.25
727.94	4462.52
728.12	4433.85
728.30	3739.59
728.48	3026.90
728.66	2758.61
728.84	2572.25
729.03	2234.33
729.21	2136.03
729.39	1992.67
729.57	1853.41
729.75	1863.65
729.93	1806.31
730.11	1705.96
730.30	1587.18
730.48	1751.01
730.66	1791.97
730.84	1722.34
731.02	1648.61
731.20	1660.90
731.38	1644.52
731.56	1644.52
731.74	1650.66
731.93	1746.92
732.11	1718.25
732.29	1742.82
732.47	1699.81
732.65	1677.29
732.83	1767.40
733.01	1779.68
733.19	1695.72
733.37	1773.54
733.56	1677.29
733.74	1673.19
733.92	1691.62
734.10	1693.67
734.28	1732.58
734.46	1654.76
734.64	1658.85
734.82	1675.24
735.00	1628.14
735.18	1656.81
735.36	1718.25
735.54	1699.81
735.73	1705.96
735.91	1767.40
736.09	1689.57
736.27	1722.34
736.45	1789.92
736.63	1531.88
736.81	1759.21
736.99	1759.21
737.17	1720.29
737.35	1718.25
737.53	1693.67
737.71	1681.38
737.89	1810.40
738.07	1660.90
738.25	1724.39
738.43	1621.99
738.61	1667.05
738.80	1619.94
738.98	1642.47
739.16	1630.18
739.34	1679.33
739.52	1824.74
739.70	1638.38
739.88	1671.14
740.06	1738.73
740.24	1658.85
740.42	1818.60
740.60	1753.06
740.78	1681.38
740.96	1621.99
741.14	1669.09
741.32	1718.25
741.50	1587.18
741.68	1857.51
741.86	1785.83
742.04	1603.56
742.22	1703.91
742.40	1665.00
742.58	1632.23
742.76	1632.23
742.94	1738.73
743.12	1636.33
743.30	1791.97
743.48	1724.39
743.66	1673.19
743.84	1701.86
744.02	1621.99
744.20	1708.01
744.38	1626.09
744.56	1669.09
744.74	1796.07
744.92	1683.43
745.10	1783.78
745.28	1769.44
745.46	1755.11
745.64	1724.39
745.82	1798.12
746.00	1748.97
746.18	1738.73
746.36	1642.47
746.54	1712.10
746.72	1662.95
746.90	1576.94
747.08	1728.49
747.26	1705.96
747.44	1755.11
747.62	1660.90
747.80	1722.34
747.98	1767.40
748.15	1689.57
748.33	1716.20
748.51	1691.62
748.69	1759.21
748.87	1648.61
749.05	1671.14
749.23	1673.19
749.41	1705.96
749.59	1665.00
749.77	1732.58
749.95	1568.74
750.13	1742.82
750.31	1695.72
750.49	1640.42
750.67	1800.16
750.85	1703.91
751.03	1593.32
751.20	1845.22
751.38	1675.24
751.56	1607.66
751.74	1689.57
751.92	1777.64
752.10	1581.03
752.28	1714.15
752.46	1624.04
752.64	1724.39
752.82	1652.71
753.00	1665.00
753.18	1726.44
753.35	1703.91
753.53	1701.86
753.71	1703.91
753.89	1699.81
754.07	1673.19
754.25	1751.01
754.43	1753.06
754.61	1587.18
754.79	1658.85
754.97	1732.58
755.14	1765.35
755.32	1556.46
755.50	1619.94
755.68	1665.00
755.86	1626.09
756.04	1642.47
756.22	1591.27
756.40	1738.73
756.57	1771.49
756.75	1701.86
756.93	1746.92
757.11	1724.39
757.29	1648.61
757.47	1685.48
757.65	1587.18
757.82	1560.55
758.00	1556.46
758.18	1673.19
758.36	1597.42
758.54	1757.16
758.72	1646.57
758.90	1710.05
759.07	1687.53
759.25	1679.33
759.43	1714.15
759.61	1665.00
759.79	2189.28
759.97	1779.68
760.15	1660.90
760.32	1636.33
760.50	1644.52
760.68	1837.03
760.86	1708.01
761.04	1796.07
761.22	1679.33
761.39	1755.11
761.57	1722.34
761.75	1763.30
761.93	1736.68
762.11	1777.64
762.28	1691.62
762.46	1665.00
762.64	1673.19
762.82	1550.31
763.00	1742.82
763.18	1751.01
763.35	1646.57
763.53	1718.25
763.71	1712.10
763.89	1644.52
764.07	1775.59
764.24	1689.57
764.42	1746.92
764.60	1687.53
764.78	1703.91
764.96	1689.57
765.13	1779.68
765.31	1724.39
765.49	1736.68
765.67	1757.16
765.84	1677.29
766.02	1675.24
766.20	1607.66
766.38	1636.33
766.56	1720.29
766.73	1765.35
766.91	1665.00
767.09	1617.90
767.27	1736.68
767.44	1714.15
767.62	1810.40
767.80	1705.96
767.98	1607.66
768.15	1701.86
768.33	1753.06
768.51	1718.25
768.69	1740.77
768.87	1742.82
769.04	1679.33
769.22	1839.08
769.40	1837.03
769.58	1845.22
769.75	1710.05
769.93	1748.97
770.11	1685.48
770.28	1636.33
770.46	1742.82
770.64	1726.44
770.82	1710.05
770.99	1603.56
771.17	1771.49
771.35	1679.33
771.53	1665.00
771.70	1662.95
771.88	1714.15
772.06	1689.57
772.23	1644.52
772.41	1695.72
772.59	1630.18
772.77	1632.23
772.94	1705.96
773.12	1775.59
773.30	1683.43
773.47	1669.09
773.65	1685.48
773.83	1830.88
774.01	1687.53
774.18	1650.66
774.36	1685.48
774.54	1605.61
774.71	1724.39
774.89	1621.99
775.07	1640.42
775.24	1679.33
775.42	1656.81
775.60	1755.11
775.78	1681.38
775.95	1675.24
776.13	1695.72
776.31	1601.51
776.48	1777.64
776.66	1748.97
776.84	1685.48
777.01	1689.57
777.19	1683.43
777.37	1685.48
777.54	1777.64
777.72	1814.50
777.90	1712.10
778.07	1734.63
778.25	1794.02
778.43	1708.01
778.60	1728.49
778.78	1787.88
778.96	1761.25
779.13	1667.05
779.31	1755.11
779.49	1693.67
779.66	1742.82
779.84	1671.14
780.01	1720.29
780.19	1644.52
780.37	1791.97
780.54	1730.53
780.72	1646.57
780.90	1679.33
781.07	1703.91
781.25	1656.81
781.43	1673.19
781.60	1679.33
781.78	1714.15
781.95	1796.07
782.13	1615.85
782.31	1722.34
782.48	1638.38
782.66	1660.90
782.83	1781.73
783.01	1671.14
783.19	1708.01
783.36	1742.82
783.54	1638.38
783.72	1695.72
783.89	1644.52
784.07	1771.49
784.24	1726.44
784.42	1791.97
784.60	1656.81
784.77	1720.29
784.95	1601.51
785.12	1650.66
785.30	1697.77
785.47	1624.04
785.65	1652.71
785.83	1634.28
786.00	1726.44
786.18	1710.05
786.35	1572.84
786.53	1646.57
786.71	1687.53
786.88	1796.07
787.06	1683.43
787.23	1613.80
787.41	1671.14
787.58	1697.77
787.76	1689.57
787.94	1679.33
788.11	1742.82
788.29	1632.23
788.46	1581.03
788.64	1650.66
788.81	1619.94
788.99	1656.81
789.16	1642.47
789.34	1681.38
789.52	1689.57
789.69	1652.71
789.87	1638.38
790.04	1658.85
790.22	1621.99
790.39	1837.03
790.57	1662.95
790.74	1658.85
790.92	1751.01
791.09	1677.29
791.27	1695.72
791.44	1734.63
791.62	1726.44
791.79	1767.40
791.97	1669.09
792.15	1839.08
792.32	1777.64
792.50	1812.45
792.67	1759.21
792.85	1810.40
793.02	1689.57
793.20	1671.14
793.37	1570.79
793.55	1716.20
793.72	1648.61
793.90	1714.15
794.07	1726.44
794.25	1673.19
794.42	1638.38
794.60	1720.29
794.77	1693.67
794.95	1751.01
795.12	1771.49
795.30	1726.44
795.47	1628.14
795.65	1830.88
795.82	1732.58
796.00	1693.67
796.17	1662.95
796.34	1652.71
796.52	1763.30
796.69	1779.68
796.87	1738.73
797.04	1705.96
797.22	1744.87
797.39	1724.39
797.57	1808.36
797.74	1734.63
797.92	1755.11
798.09	1677.29
798.27	1697.77
798.44	1724.39
798.62	1640.42
798.79	1650.66
798.96	1761.25
799.14	1683.43
799.31	1865.70
799.49	1689.57
799.66	1685.48
799.84	1712.10
800.01	1605.61
800.19	1687.53
800.36	1609.70
800.53	1708.01
800.71	1771.49
800.88	1785.83
801.06	1624.04
801.23	1624.04
801.41	1726.44
801.58	1685.48
801.75	1732.58
801.93	1701.86
802.10	1730.53
802.28	1753.06
802.45	1671.14
802.63	1726.44
802.80	1779.68
802.97	1646.57
803.15	1677.29
803.32	1603.56
803.50	1583.08
803.67	1701.86
803.84	1617.90
804.02	1675.24
804.19	1640.42
804.37	1632.23
804.54	1638.38
804.71	1753.06
804.89	1675.24
805.06	1634.28
805.24	1665.00
805.41	1679.33
805.58	1634.28
805.76	1816.55
805.93	1658.85
806.10	1818.60
806.28	1748.97
806.45	1675.24
806.63	1671.14
806.80	1755.11
806.97	1757.16
807.15	1685.48
807.32	1683.43
807.49	1681.38
807.67	1667.05
807.84	1710.05
808.01	1601.51
808.19	1753.06
808.36	1734.63
808.54	1757.16
808.71	1679.33
808.88	1699.81
809.06	1742.82
809.23	1751.01
809.40	1624.04
809.58	1755.11
809.75	1691.62
809.92	1691.62
810.10	1863.65
810.27	1667.05
810.44	1632.23
810.62	1728.49
810.79	1748.97
810.96	1665.00
811.14	1716.20
811.31	1779.68
811.48	1687.53
811.66	1697.77
811.83	1748.97
812.00	1671.14
812.18	1714.15
812.35	1843.17
812.52	1634.28
812.69	1689.57
812.87	1648.61
813.04	1669.09
813.21	1624.04
813.39	1648.61
813.56	1648.61
813.73	1738.73
813.91	1628.14
814.08	1710.05
814.25	1681.38
814.42	1574.89
814.60	1695.72
814.77	1654.76
814.94	1689.57
815.12	1683.43
815.29	1755.11
815.46	1806.31
815.63	1624.04
815.81	1679.33
815.98	1705.96
816.15	1732.58
816.33	1642.47
816.50	1669.09
816.67	1722.34
816.84	1636.33
817.02	1585.13
817.19	1730.53
817.36	1714.15
817.53	1751.01
817.71	1722.34
817.88	1812.45
818.05	1669.09
818.22	1650.66
818.40	1755.11
818.57	1652.71
818.74	1722.34
818.91	1665.00
819.09	1748.97
819.26	1697.77
819.43	1679.33
819.60	1673.19
819.78	1730.53
819.95	1787.88
820.12	1646.57
820.29	1720.29
820.47	1798.12
820.64	1646.57
820.81	1669.09
820.98	1675.24
821.15	1613.80
821.33	1730.53
821.50	1613.80
821.67	1789.92
821.84	1603.56
822.02	1757.16
822.19	1693.67
822.36	1656.81
822.53	1630.18
822.70	1646.57
822.88	1624.04
823.05	1732.58
823.22	1742.82
823.39	1738.73
823.56	1638.38
823.74	1751.01
823.91	1632.23
824.08	1652.71
824.25	1710.05
824.42	1681.38
824.60	1667.05
824.77	1740.77
824.94	1656.81
825.11	1714.15
825.28	1603.56
825.45	1687.53
825.63	1693.67
825.80	1634.28
825.97	1669.09
826.14	1724.39
826.31	1585.13
826.48	1710.05
826.66	1638.38
826.83	1703.91
827.00	1638.38
827.17	1638.38
827.34	1679.33
827.51	1697.77
827.69	1619.94
827.86	1619.94
828.03	1701.86
828.20	1687.53
828.37	1605.61
828.54	1720.29
828.71	1593.32
828.89	1794.02
829.06	1689.57
829.23	1783.78
829.40	1677.29
829.57	1601.51
829.74	1744.87
829.91	1656.81
830.09	1693.67
830.26	1732.58
830.43	1847.27
830.60	1732.58
830.77	1681.38
830.94	1755.11
831.11	1740.77
831.28	1601.51
831.46	1732.58
831.63	1712.10
831.80	1716.20
831.97	1716.20
832.14	1757.16
832.31	1716.20
832.48	1703.91
832.65	1734.63
832.82	1665.00
832.99	1755.11
833.17	1665.00
833.34	1820.64
833.51	1742.82
833.68	1658.85
833.85	1808.36
834.02	1687.53
834.19	1656.81
834.36	1591.27
834.53	1738.73
834.70	1757.16
834.87	1724.39
835.04	1814.50
835.22	1693.67
835.39	1662.95
835.56	1636.33
835.73	1656.81
835.90	1654.76
836.07	1591.27
836.24	1767.40
836.41	1640.42
836.58	1660.90
836.75	1724.39
836.92	1728.49
837.09	1587.18
837.26	1716.20
837.43	1726.44
837.60	1753.06
837.77	1601.51
837.94	1779.68
838.12	1718.25
838.29	1738.73
838.46	1660.90
838.63	1671.14
838.80	1816.55
838.97	1708.01
839.14	1665.00
839.31	1718.25
839.48	1779.68
839.65	1720.29
839.82	1751.01
839.99	1720.29
840.16	1636.33
840.33	1617.90
840.50	1722.34
840.67	1611.75
840.84	1591.27
841.01	1708.01
841.18	1677.29
841.35	1650.66
841.52	1753.06
841.69	1757.16
841.86	1679.33
842.03	1667.05
842.20	1773.54
842.37	1662.95
842.54	1673.19
842.71	1671.14
842.88	1632.23
843.05	1730.53
843.22	1636.33
843.39	1695.72
843.56	1740.77
843.73	1628.14
843.90	1755.11
844.07	1665.00
844.24	1740.77
844.41	1738.73
844.58	1665.00
844.75	1708.01
844.92	1671.14
845.09	1703.91
845.26	1605.61
845.43	1826.79
845.60	1671.14
845.77	1691.62
845.94	1595.37
846.10	1763.30
846.27	1689.57
846.44	1615.85
846.61	1716.20
846.78	1746.92
846.95	1689.57
847.12	1662.95
847.29	1701.86
847.46	1556.46
847.63	1667.05
847.80	1626.09
847.97	1738.73
848.14	1753.06
848.31	1708.01
848.48	1650.66
848.65	1658.85
848.82	1710.05
848.98	1812.45
849.15	1710.05
849.32	1773.54
849.49	1755.11
849.66	1708.01
849.83	1746.92
850.00	1607.66
850.17	1785.83
850.34	1681.38
850.51	1699.81
850.68	1640.42
850.85	1804.26
851.01	1708.01
851.18	1738.73
851.35	1716.20
851.52	1718.25
851.69	1810.40
851.86	1644.52
852.03	1710.05
852.20	1716.20
852.37	1677.29
852.53	1667.05
852.70	1724.39
852.87	1660.90
853.04	1761.25
853.21	1656.81
853.38	1720.29
853.55	1818.60
853.72	1679.33
853.89	1650.66
854.05	1640.42
854.22	1646.57
854.39	1650.66
854.56	1734.63
854.73	1816.55
854.90	1607.66
855.07	1736.68
855.23	1701.86
855.40	1638.38
855.57	1691.62
855.74	1576.94
855.91	1916.90
856.08	1619.94
856.25	1624.04
856.41	1632.23
856.58	1669.09
856.75	1722.34
856.92	1615.85
857.09	1744.87
857.26	1646.57
857.42	1691.62
857.59	1759.21
857.76	1726.44
857.93	1685.48
858.10	1755.11
858.27	1595.37
858.43	1691.62
858.60	1697.77
858.77	1718.25
858.94	1636.33
859.11	1708.01
859.27	1609.70
859.44	1669.09
859.61	1718.25
859.78	1681.38
859.95	1681.38
860.12	1613.80
860.28	1812.45
860.45	1736.68
860.62	1658.85
860.79	1748.97
860.95	1708.01
861.12	1671.14
861.29	1675.24
861.46	1617.90
861.63	1722.34
861.79	1658.85
861.96	1714.15
862.13	1722.34
862.30	1710.05
862.47	1609.70
862.63	1652.71
862.80	1673.19
862.97	1677.29
863.14	1677.29
863.30	1630.18
863.47	1626.09
863.64	1685.48
863.81	1722.34
863.97	1732.58
864.14	1779.68
864.31	1644.52
864.48	1785.83
864.65	1669.09
864.81	1751.01
864.98	1742.82
865.15	1691.62
865.32	1685.48
865.48	1757.16
865.65	1812.45
865.82	1642.47
865.98	1714.15
866.15	1746.92
866.32	1667.05
866.49	1710.05
866.65	1771.49
866.82	1632.23
866.99	1744.87
867.16	1681.38
867.32	1677.29
867.49	1677.29
867.66	1667.05
867.83	1673.19
867.99	1617.90
868.16	1681.38
868.33	1665.00
868.49	1671.14
868.66	1658.85
868.83	1724.39
868.99	1689.57
869.16	1728.49
869.33	1781.73
869.50	1746.92
869.66	1675.24
869.83	1642.47
870.00	1660.90
870.16	1734.63
870.33	1669.09
870.50	1763.30
870.66	1724.39
870.83	1796.07
871.00	1675.24
871.17	1650.66
871.33	1732.58
871.50	1689.57
871.67	1728.49
871.83	1667.05
872.00	1761.25
872.17	1640.42
872.33	1748.97
872.50	1642.47
872.67	1693.67
872.83	1665.00
873.00	1714.15
873.17	1722.34
873.33	1765.35
873.50	1767.40
873.67	1673.19
873.83	1646.57
874.00	1734.63
874.16	1658.85
874.33	1720.29
874.50	1673.19
874.66	1720.29
874.83	1691.62
875.00	1775.59
875.16	1771.49
875.33	1744.87
875.50	1626.09
875.66	1597.42
875.83	1832.93
875.99	1740.77
876.16	1699.81
876.33	1597.42
876.49	1677.29
876.66	1708.01
876.83	1708.01
876.99	1597.42
877.16	1699.81
877.32	1619.94
877.49	1673.19
877.66	1667.05
877.82	1804.26
877.99	1705.96
878.15	1712.10
878.32	1693.67
878.49	1656.81
878.65	1685.48
878.82	1834.98
878.98	1669.09
879.15	1673.19
879.32	1763.30
879.48	1708.01
879.65	1718.25
879.81	1742.82
879.98	1681.38
880.15	1718.25
880.31	1783.78
880.48	1634.28
880.64	1738.73
880.81	1751.01
880.97	1861.60
881.14	1787.88
881.31	1636.33
881.47	1816.55
881.64	1710.05
881.80	1576.94
881.97	1714.15
882.13	1763.30
882.30	1679.33
882.47	1693.67
882.63	1566.70
882.80	1683.43
882.96	1656.81
883.13	1740.77
883.29	1685.48
883.46	1708.01
883.62	1740.77
883.79	1732.58
883.95	1812.45
884.12	1603.56
884.29	1794.02
884.45	1732.58
884.62	1689.57
884.78	1675.24
884.95	1802.21
885.11	1599.46
885.28	1699.81
885.44	1685.48
885.61	1689.57
885.77	1830.88
885.94	1800.16
886.10	1763.30
886.27	1789.92
886.43	1751.01
886.60	1722.34
886.76	1611.75
886.93	1617.90
887.09	1732.58
887.26	1628.14
887.42	1724.39
887.59	1753.06
887.75	1826.79
887.92	1677.29
888.08	1816.55
888.25	1761.25
888.41	1810.40
888.58	1724.39
888.74	1609.70
888.91	1632.23
>>>>>End Processed Spectral Data<<<<<
