SpectraSuite Data File
++++++++++++++++++++++++++++++++++++
Date: Mon Jun 06 13:48:57 CEST 2016
User: root
Dark Spectrum Present: No
Reference Spectrum Present: No
Number of Sampled Component Spectra: 1
Spectrometers: USB4C02835
Integration Time (usec): 100000 (USB4C02835)
Spectra Averaged: 1 (USB4C02835)
Boxcar Smoothing: 0 (USB4C02835)
Correct for Electrical Dark: No (USB4C02835)
Strobe/Lamp Enabled: No (USB4C02835)
Correct for Detector Non-linearity: No (USB4C02835)
Correct for Stray Light: No (USB4C02835)
Number of Pixels in Processed Spectrum: 3648
>>>>>Begin Processed Spectral Data<<<<<
177.47	1486.83
177.69	1486.83
177.91	1486.83
178.13	1454.06
178.36	1501.16
178.58	1669.09
178.80	1736.68
179.02	1683.43
179.24	1656.81
179.46	1683.43
179.68	1734.63
179.90	1744.87
180.13	1773.54
180.35	1720.29
180.57	1708.01
180.79	1787.88
181.01	1681.38
181.23	1730.53
181.45	1781.73
181.67	1703.91
181.90	1701.86
182.12	1697.77
182.34	1595.37
182.56	1746.92
182.78	1718.25
183.00	1714.15
183.22	1701.86
183.44	1619.94
183.66	1804.26
183.89	1789.92
184.11	1738.73
184.33	1646.57
184.55	1755.11
184.77	1703.91
184.99	1755.11
185.21	1740.77
185.43	1781.73
185.65	1652.71
185.87	1652.71
186.10	1785.83
186.32	1847.27
186.54	1658.85
186.76	1763.30
186.98	1621.99
187.20	1689.57
187.42	1691.62
187.64	1689.57
187.86	1728.49
188.08	1738.73
188.30	1628.14
188.52	1615.85
188.75	1785.83
188.97	1789.92
189.19	1597.42
189.41	1654.76
189.63	1671.14
189.85	1681.38
190.07	1619.94
190.29	1757.16
190.51	1767.40
190.73	1609.70
190.95	1791.97
191.17	1703.91
191.39	1632.23
191.61	1619.94
191.84	1689.57
192.06	1732.58
192.28	1662.95
192.50	1857.51
192.72	1746.92
192.94	1697.77
193.16	1753.06
193.38	1796.07
193.60	1650.66
193.82	1681.38
194.04	1685.48
194.26	1671.14
194.48	1722.34
194.70	1658.85
194.92	1671.14
195.14	1718.25
195.36	1708.01
195.58	1732.58
195.80	1656.81
196.02	1691.62
196.24	1726.44
196.46	1746.92
196.69	1656.81
196.91	1773.54
197.13	1689.57
197.35	1630.18
197.57	1738.73
197.79	1697.77
198.01	1677.29
198.23	1673.19
198.45	1755.11
198.67	1652.71
198.89	1662.95
199.11	1662.95
199.33	1617.90
199.55	1607.66
199.77	1691.62
199.99	1736.68
200.21	1730.53
200.43	1726.44
200.65	1701.86
200.87	1509.35
201.09	1779.68
201.31	1722.34
201.53	1662.95
201.75	1742.82
201.97	1740.77
202.19	1716.20
202.41	1701.86
202.63	1814.50
202.85	1677.29
203.07	1718.25
203.29	1757.16
203.51	1652.71
203.73	1724.39
203.95	1851.36
204.17	1632.23
204.39	1662.95
204.61	1673.19
204.83	1751.01
205.05	1734.63
205.27	1761.25
205.49	1787.88
205.71	1722.34
205.93	1648.61
206.15	1681.38
206.37	1677.29
206.59	1738.73
206.81	1632.23
207.03	1617.90
207.25	1652.71
207.47	1714.15
207.69	1740.77
207.91	1771.49
208.13	1761.25
208.34	1665.00
208.56	1656.81
208.78	1685.48
209.00	1665.00
209.22	1650.66
209.44	1740.77
209.66	1634.28
209.88	1640.42
210.10	1642.47
210.32	1626.09
210.54	1683.43
210.76	1722.34
210.98	1777.64
211.20	1521.64
211.42	1705.96
211.64	1812.45
211.86	1656.81
212.08	1660.90
212.30	1726.44
212.52	1656.81
212.74	1728.49
212.96	1759.21
213.17	1757.16
213.39	1689.57
213.61	1800.16
213.83	1650.66
214.05	1572.84
214.27	1779.68
214.49	1640.42
214.71	1728.49
214.93	1708.01
215.15	1638.38
215.37	1685.48
215.59	1603.56
215.81	1783.78
216.03	1798.12
216.24	1742.82
216.46	1695.72
216.68	1761.25
216.90	1751.01
217.12	1771.49
217.34	1689.57
217.56	1714.15
217.78	1781.73
218.00	1773.54
218.22	1693.67
218.44	1716.20
218.66	1777.64
218.87	1812.45
219.09	1701.86
219.31	1775.59
219.53	1650.66
219.75	1648.61
219.97	1722.34
220.19	1734.63
220.41	1740.77
220.63	1806.31
220.85	1734.63
221.06	1615.85
221.28	1781.73
221.50	1734.63
221.72	1695.72
221.94	1703.91
222.16	1736.68
222.38	1777.64
222.60	1763.30
222.82	1621.99
223.03	1767.40
223.25	1607.66
223.47	1777.64
223.69	1769.44
223.91	1751.01
224.13	1767.40
224.35	1574.89
224.57	1689.57
224.78	1738.73
225.00	1630.18
225.22	1689.57
225.44	1638.38
225.66	1728.49
225.88	1626.09
226.10	1714.15
226.32	1742.82
226.53	1804.26
226.75	1763.30
226.97	1703.91
227.19	1736.68
227.41	1701.86
227.63	1695.72
227.85	1597.42
228.06	1834.98
228.28	1748.97
228.50	1718.25
228.72	1669.09
228.94	1660.90
229.16	1566.70
229.37	1675.24
229.59	1683.43
229.81	1769.44
230.03	1671.14
230.25	1644.52
230.47	1726.44
230.69	1617.90
230.90	1763.30
231.12	1636.33
231.34	1662.95
231.56	1751.01
231.78	1599.46
232.00	1748.97
232.21	1728.49
232.43	1611.75
232.65	1558.50
232.87	1720.29
233.09	1626.09
233.30	1667.05
233.52	1736.68
233.74	1722.34
233.96	1693.67
234.18	1761.25
234.40	1732.58
234.61	1779.68
234.83	1634.28
235.05	1613.80
235.27	1849.32
235.49	1708.01
235.70	1673.19
235.92	1673.19
236.14	1675.24
236.36	1794.02
236.58	1681.38
236.79	1671.14
237.01	1648.61
237.23	1746.92
237.45	1806.31
237.67	1683.43
237.88	1738.73
238.10	1796.07
238.32	1587.18
238.54	1654.76
238.76	1695.72
238.97	1626.09
239.19	1632.23
239.41	1728.49
239.63	1808.36
239.85	1607.66
240.06	1708.01
240.28	1724.39
240.50	1695.72
240.72	1703.91
240.93	1685.48
241.15	1714.15
241.37	1718.25
241.59	1767.40
241.81	1681.38
242.02	1748.97
242.24	1687.53
242.46	1712.10
242.68	1703.91
242.89	1712.10
243.11	1759.21
243.33	1732.58
243.55	1677.29
243.76	1740.77
243.98	1673.19
244.20	1701.86
244.42	1634.28
244.64	1691.62
244.85	1685.48
245.07	1652.71
245.29	1656.81
245.51	1634.28
245.72	1628.14
245.94	1787.88
246.16	1699.81
246.38	1734.63
246.59	1660.90
246.81	1681.38
247.03	1634.28
247.24	1613.80
247.46	1695.72
247.68	1763.30
247.90	1669.09
248.11	1654.76
248.33	1705.96
248.55	1703.91
248.77	1699.81
248.98	1730.53
249.20	1691.62
249.42	1726.44
249.64	1687.53
249.85	1748.97
250.07	1609.70
250.29	1685.48
250.50	1736.68
250.72	1603.56
250.94	1712.10
251.16	1781.73
251.37	1744.87
251.59	1699.81
251.81	1714.15
252.02	1816.55
252.24	1712.10
252.46	1796.07
252.68	1650.66
252.89	1691.62
253.11	1636.33
253.33	1791.97
253.54	1798.12
253.76	1560.55
253.98	1646.57
254.20	1667.05
254.41	1658.85
254.63	1755.11
254.85	1550.31
255.06	1679.33
255.28	1763.30
255.50	1675.24
255.71	1662.95
255.93	1626.09
256.15	1693.67
256.36	1740.77
256.58	1660.90
256.80	1759.21
257.02	1632.23
257.23	1687.53
257.45	1683.43
257.67	1722.34
257.88	1640.42
258.10	1771.49
258.32	1726.44
258.53	1671.14
258.75	1812.45
258.97	1652.71
259.18	1679.33
259.40	1740.77
259.62	1791.97
259.83	1787.88
260.05	1691.62
260.27	1968.10
260.48	1763.30
260.70	1609.70
260.92	1646.57
261.13	1763.30
261.35	1730.53
261.57	1761.25
261.78	1626.09
262.00	1552.36
262.22	1804.26
262.43	1701.86
262.65	1615.85
262.86	1712.10
263.08	1787.88
263.30	1744.87
263.51	1662.95
263.73	1650.66
263.95	1763.30
264.16	1548.26
264.38	1648.61
264.60	1687.53
264.81	1734.63
265.03	1759.21
265.25	1789.92
265.46	1732.58
265.68	1765.35
265.89	1783.78
266.11	1593.32
266.33	1677.29
266.54	1738.73
266.76	1656.81
266.98	1701.86
267.19	1789.92
267.41	1796.07
267.62	1701.86
267.84	1583.08
268.06	1751.01
268.27	1665.00
268.49	1771.49
268.70	1816.55
268.92	1708.01
269.14	1656.81
269.35	1673.19
269.57	1775.59
269.79	1732.58
270.00	1687.53
270.22	1849.32
270.43	1646.57
270.65	1609.70
270.87	1671.14
271.08	1738.73
271.30	1679.33
271.51	1728.49
271.73	1759.21
271.95	1722.34
272.16	1689.57
272.38	1763.30
272.59	1658.85
272.81	1751.01
273.02	1716.20
273.24	1834.98
273.46	1728.49
273.67	1716.20
273.89	1648.61
274.10	1632.23
274.32	1781.73
274.54	1640.42
274.75	1705.96
274.97	1644.52
275.18	1742.82
275.40	1740.77
275.61	1734.63
275.83	1714.15
276.05	1689.57
276.26	1685.48
276.48	1708.01
276.69	1669.09
276.91	1613.80
277.12	1730.53
277.34	1730.53
277.55	1783.78
277.77	1718.25
277.99	1699.81
278.20	1662.95
278.42	1619.94
278.63	1626.09
278.85	1699.81
279.06	1660.90
279.28	1671.14
279.49	1720.29
279.71	1701.86
279.93	1722.34
280.14	1716.20
280.36	1673.19
280.57	1710.05
280.79	1763.30
281.00	1656.81
281.22	1613.80
281.43	1701.86
281.65	1544.17
281.86	1640.42
282.08	1697.77
282.29	1808.36
282.51	1681.38
282.73	1615.85
282.94	1552.36
283.16	1730.53
283.37	1800.16
283.59	1726.44
283.80	1722.34
284.02	1748.97
284.23	1665.00
284.45	1675.24
284.66	1613.80
284.88	1730.53
285.09	1703.91
285.31	1701.86
285.52	1746.92
285.74	1607.66
285.95	1763.30
286.17	1746.92
286.38	1773.54
286.60	1650.66
286.81	1665.00
287.03	1681.38
287.24	1667.05
287.46	1798.12
287.67	1689.57
287.89	1777.64
288.10	1689.57
288.32	1773.54
288.53	1722.34
288.75	1681.38
288.96	1736.68
289.18	1689.57
289.39	1632.23
289.61	1736.68
289.82	1800.16
290.04	1877.99
290.25	1673.19
290.47	1611.75
290.68	1611.75
290.90	1785.83
291.11	1613.80
291.33	1732.58
291.54	1652.71
291.76	1699.81
291.97	1669.09
292.18	1785.83
292.40	1621.99
292.61	1708.01
292.83	1757.16
293.04	1701.86
293.26	1691.62
293.47	1669.09
293.69	1619.94
293.90	1705.96
294.12	1789.92
294.33	1632.23
294.55	1644.52
294.76	1720.29
294.97	1712.10
295.19	1804.26
295.40	1703.91
295.62	1751.01
295.83	1798.12
296.05	1640.42
296.26	1695.72
296.48	1693.67
296.69	1728.49
296.90	1683.43
297.12	1777.64
297.33	1804.26
297.55	1722.34
297.76	1759.21
297.98	1710.05
298.19	1675.24
298.41	1701.86
298.62	1720.29
298.83	1781.73
299.05	1726.44
299.26	1642.47
299.48	1667.05
299.69	1708.01
299.90	1667.05
300.12	1720.29
300.33	1824.74
300.55	1708.01
300.76	1738.73
300.98	1683.43
301.19	1759.21
301.40	1675.24
301.62	1687.53
301.83	1671.14
302.05	1675.24
302.26	1662.95
302.47	1732.58
302.69	1607.66
302.90	1634.28
303.12	1601.51
303.33	1759.21
303.54	1775.59
303.76	1669.09
303.97	1748.97
304.19	1736.68
304.40	1613.80
304.61	1638.38
304.83	1736.68
305.04	1763.30
305.26	1722.34
305.47	1615.85
305.68	1615.85
305.90	1619.94
306.11	1714.15
306.33	1685.48
306.54	1722.34
306.75	1681.38
306.97	1652.71
307.18	1667.05
307.39	1656.81
307.61	1779.68
307.82	1740.77
308.04	1699.81
308.25	1642.47
308.46	1703.91
308.68	1656.81
308.89	1638.38
309.10	1841.12
309.32	1746.92
309.53	1738.73
309.74	1757.16
309.96	1587.18
310.17	1812.45
310.39	1679.33
310.60	1703.91
310.81	1722.34
311.03	1624.04
311.24	1761.25
311.45	1714.15
311.67	1763.30
311.88	1654.76
312.09	1624.04
312.31	1697.77
312.52	1701.86
312.73	1640.42
312.95	1708.01
313.16	1671.14
313.37	1781.73
313.59	1730.53
313.80	1757.16
314.01	1755.11
314.23	1685.48
314.44	1603.56
314.65	1583.08
314.87	1644.52
315.08	1652.71
315.29	1621.99
315.51	1611.75
315.72	1634.28
315.93	1853.41
316.15	1785.83
316.36	1646.57
316.57	1689.57
316.79	1742.82
317.00	1650.66
317.21	1716.20
317.43	1658.85
317.64	1744.87
317.85	1611.75
318.07	1662.95
318.28	1654.76
318.49	1791.97
318.70	1943.52
318.92	1837.03
319.13	1824.74
319.34	1812.45
319.56	1757.16
319.77	1828.84
319.98	1910.75
320.20	1779.68
320.41	1740.77
320.62	1806.31
320.83	1642.47
321.05	1863.65
321.26	1714.15
321.47	1753.06
321.69	1791.97
321.90	1644.52
322.11	1632.23
322.32	1718.25
322.54	1796.07
322.75	1591.27
322.96	1781.73
323.18	1673.19
323.39	1615.85
323.60	1660.90
323.81	1671.14
324.03	1599.46
324.24	1697.77
324.45	1695.72
324.66	1632.23
324.88	1687.53
325.09	1791.97
325.30	1722.34
325.52	1687.53
325.73	1701.86
325.94	1595.37
326.15	1642.47
326.37	1710.05
326.58	1744.87
326.79	1759.21
327.00	1687.53
327.22	1654.76
327.43	1650.66
327.64	1697.77
327.85	1636.33
328.07	1740.77
328.28	1802.21
328.49	1640.42
328.70	1775.59
328.92	1746.92
329.13	1660.90
329.34	1726.44
329.55	1783.78
329.76	1751.01
329.98	1738.73
330.19	1730.53
330.40	1660.90
330.61	1673.19
330.83	1796.07
331.04	1609.70
331.25	1722.34
331.46	1720.29
331.68	1603.56
331.89	1783.78
332.10	1718.25
332.31	1636.33
332.52	1742.82
332.74	1810.40
332.95	1630.18
333.16	1689.57
333.37	1691.62
333.58	1740.77
333.80	1685.48
334.01	1650.66
334.22	1742.82
334.43	1640.42
334.64	1677.29
334.86	1683.43
335.07	1695.72
335.28	1757.16
335.49	1671.14
335.70	1738.73
335.92	1732.58
336.13	1910.75
336.34	1755.11
336.55	1712.10
336.76	1703.91
336.98	1632.23
337.19	1681.38
337.40	1755.11
337.61	1787.88
337.82	1720.29
338.04	1675.24
338.25	1630.18
338.46	1705.96
338.67	1671.14
338.88	1685.48
339.09	1599.46
339.31	1636.33
339.52	1705.96
339.73	1671.14
339.94	1732.58
340.15	1777.64
340.36	1640.42
340.58	1669.09
340.79	1751.01
341.00	1732.58
341.21	1705.96
341.42	1789.92
341.63	1701.86
341.85	1759.21
342.06	1665.00
342.27	1638.38
342.48	1734.63
342.69	1628.14
342.90	1789.92
343.12	1738.73
343.33	1687.53
343.54	1695.72
343.75	1738.73
343.96	1703.91
344.17	1697.77
344.38	1693.67
344.60	1646.57
344.81	1636.33
345.02	1638.38
345.23	1744.87
345.44	1832.93
345.65	1802.21
345.86	1665.00
346.07	1730.53
346.29	1656.81
346.50	1712.10
346.71	1787.88
346.92	1705.96
347.13	1781.73
347.34	1675.24
347.55	1681.38
347.76	1783.78
347.98	1656.81
348.19	1701.86
348.40	1755.11
348.61	1628.14
348.82	1804.26
349.03	1744.87
349.24	1705.96
349.45	1710.05
349.66	1640.42
349.88	1748.97
350.09	1669.09
350.30	1781.73
350.51	1783.78
350.72	1681.38
350.93	1726.44
351.14	1644.52
351.35	1732.58
351.56	1701.86
351.77	1646.57
351.99	1615.85
352.20	1746.92
352.41	1755.11
352.62	1615.85
352.83	1763.30
353.04	1720.29
353.25	1595.37
353.46	1773.54
353.67	1726.44
353.88	1654.76
354.09	1773.54
354.30	1779.68
354.52	1646.57
354.73	1742.82
354.94	1568.74
355.15	1648.61
355.36	1869.80
355.57	1665.00
355.78	1763.30
355.99	1628.14
356.20	1673.19
356.41	1740.77
356.62	1679.33
356.83	1742.82
357.04	1810.40
357.25	1632.23
357.46	1695.72
357.68	1628.14
357.89	1718.25
358.10	1787.88
358.31	1677.29
358.52	1691.62
358.73	1621.99
358.94	1640.42
359.15	1683.43
359.36	1767.40
359.57	1681.38
359.78	1681.38
359.99	1681.38
360.20	1642.47
360.41	1720.29
360.62	1667.05
360.83	1728.49
361.04	1619.94
361.25	1695.72
361.46	1779.68
361.67	1665.00
361.88	1693.67
362.09	1802.21
362.30	1753.06
362.51	1705.96
362.72	1806.31
362.93	1791.97
363.14	1703.91
363.35	1679.33
363.56	1583.08
363.78	1759.21
363.99	1798.12
364.20	1679.33
364.41	1742.82
364.62	1808.36
364.83	1689.57
365.04	1671.14
365.25	1728.49
365.46	1798.12
365.67	1615.85
365.88	1699.81
366.09	1708.01
366.30	1742.82
366.51	1755.11
366.72	1638.38
366.93	1716.20
367.14	1632.23
367.35	1771.49
367.56	1714.15
367.77	1789.92
367.98	1607.66
368.18	1681.38
368.39	1705.96
368.60	1626.09
368.81	1765.35
369.02	1757.16
369.23	1650.66
369.44	1601.51
369.65	1638.38
369.86	1677.29
370.07	1751.01
370.28	1656.81
370.49	1759.21
370.70	1816.55
370.91	1642.47
371.12	1689.57
371.33	1720.29
371.54	1734.63
371.75	1785.83
371.96	1630.18
372.17	1638.38
372.38	1675.24
372.59	1712.10
372.80	1609.70
373.01	1695.72
373.22	1624.04
373.43	1685.48
373.64	1679.33
373.85	1759.21
374.06	1818.60
374.26	1755.11
374.47	1720.29
374.68	1718.25
374.89	1617.90
375.10	1648.61
375.31	1806.31
375.52	1648.61
375.73	1748.97
375.94	1581.03
376.15	1783.78
376.36	1667.05
376.57	1679.33
376.78	1640.42
376.99	1710.05
377.20	1761.25
377.40	1699.81
377.61	1834.98
377.82	1687.53
378.03	1771.49
378.24	1703.91
378.45	1742.82
378.66	1755.11
378.87	1638.38
379.08	1640.42
379.29	1728.49
379.50	1753.06
379.71	1746.92
379.91	1695.72
380.12	1640.42
380.33	1636.33
380.54	1734.63
380.75	1652.71
380.96	1726.44
381.17	1779.68
381.38	1726.44
381.59	1693.67
381.80	1748.97
382.00	1808.36
382.21	1703.91
382.42	1773.54
382.63	1857.51
382.84	1742.82
383.05	1718.25
383.26	1775.59
383.47	1710.05
383.68	1783.78
383.88	1705.96
384.09	1708.01
384.30	1822.69
384.51	1720.29
384.72	1648.61
384.93	1656.81
385.14	1669.09
385.35	1742.82
385.55	1646.57
385.76	1763.30
385.97	1685.48
386.18	1703.91
386.39	1728.49
386.60	1734.63
386.81	1617.90
387.02	1687.53
387.22	1646.57
387.43	1677.29
387.64	1859.56
387.85	1808.36
388.06	2199.52
388.27	4227.01
388.48	6834.07
388.68	8286.08
388.89	9762.67
389.10	9916.26
389.31	8673.15
389.52	7530.38
389.73	6793.11
389.93	6270.88
390.14	5799.85
390.35	5205.94
390.56	4591.55
390.77	3874.76
390.98	3016.66
391.18	2562.01
391.39	2093.02
391.60	1918.95
391.81	1822.69
392.02	1705.96
392.23	1873.89
392.43	1755.11
392.64	1705.96
392.85	1662.95
393.06	1804.26
393.27	1759.21
393.47	1677.29
393.68	1634.28
393.89	1699.81
394.10	1812.45
394.31	1638.38
394.52	1634.28
394.72	1691.62
394.93	1853.41
395.14	1656.81
395.35	1667.05
395.56	1677.29
395.76	1644.52
395.97	1753.06
396.18	1832.93
396.39	1777.64
396.60	2019.30
396.80	1884.13
397.01	1816.55
397.22	1841.12
397.43	1791.97
397.64	1757.16
397.84	1787.88
398.05	1812.45
398.26	1714.15
398.47	1812.45
398.67	1816.55
398.88	1753.06
399.09	1751.01
399.30	1695.72
399.51	1822.69
399.71	1693.67
399.92	1613.80
400.13	1740.77
400.34	1697.77
400.54	1693.67
400.75	1814.50
400.96	1730.53
401.17	1834.98
401.37	1669.09
401.58	1630.18
401.79	1726.44
402.00	1791.97
402.21	2017.25
402.41	1937.38
402.62	1992.67
402.83	2021.35
403.04	2009.06
403.24	2062.30
403.45	1791.97
403.66	1925.09
403.87	1802.21
404.07	1902.56
404.28	1972.19
404.49	1863.65
404.70	1771.49
404.90	1789.92
405.11	1753.06
405.32	1705.96
405.52	1748.97
405.73	1675.24
405.94	1654.76
406.15	1703.91
406.35	1681.38
406.56	1734.63
406.77	1665.00
406.98	1732.58
407.18	1673.19
407.39	1718.25
407.60	1718.25
407.80	1722.34
408.01	1720.29
408.22	1697.77
408.43	1673.19
408.63	1716.20
408.84	1826.79
409.05	1804.26
409.25	1693.67
409.46	1740.77
409.67	1687.53
409.88	1615.85
410.08	1783.78
410.29	1691.62
410.50	1761.25
410.70	1779.68
410.91	1667.05
411.12	1794.02
411.32	1716.20
411.53	1708.01
411.74	1771.49
411.95	1705.96
412.15	1822.69
412.36	1767.40
412.57	1806.31
412.77	1818.60
412.98	1757.16
413.19	1681.38
413.39	1794.02
413.60	1816.55
413.81	1880.04
414.01	1615.85
414.22	1806.31
414.43	1777.64
414.63	1683.43
414.84	1726.44
415.05	1695.72
415.25	1744.87
415.46	1718.25
415.67	1742.82
415.87	1781.73
416.08	1724.39
416.29	1728.49
416.49	1716.20
416.70	1699.81
416.91	1716.20
417.11	1572.84
417.32	1681.38
417.53	1808.36
417.73	1751.01
417.94	1710.05
418.15	1699.81
418.35	1777.64
418.56	1619.94
418.77	1791.97
418.97	1687.53
419.18	1685.48
419.38	1619.94
419.59	1638.38
419.80	1734.63
420.00	1705.96
420.21	1708.01
420.42	1757.16
420.62	1757.16
420.83	1574.89
421.04	1691.62
421.24	1638.38
421.45	1763.30
421.65	1679.33
421.86	1642.47
422.07	1683.43
422.27	1720.29
422.48	1742.82
422.69	1673.19
422.89	1603.56
423.10	1646.57
423.30	1718.25
423.51	1759.21
423.72	1712.10
423.92	1820.64
424.13	1593.32
424.33	1667.05
424.54	1718.25
424.75	1744.87
424.95	1828.84
425.16	1740.77
425.36	1724.39
425.57	1734.63
425.78	1722.34
425.98	1785.83
426.19	1689.57
426.39	1646.57
426.60	1718.25
426.81	1796.07
427.01	1738.73
427.22	1593.32
427.42	1626.09
427.63	1665.00
427.83	1689.57
428.04	1798.12
428.25	1851.36
428.45	1796.07
428.66	1738.73
428.86	1632.23
429.07	1599.46
429.28	1718.25
429.48	1638.38
429.69	1669.09
429.89	1757.16
430.10	1632.23
430.30	1732.58
430.51	1726.44
430.71	1673.19
430.92	1708.01
431.13	1658.85
431.33	1812.45
431.54	1730.53
431.74	1820.64
431.95	1800.16
432.15	1687.53
432.36	1691.62
432.56	1689.57
432.77	1695.72
432.98	1816.55
433.18	1710.05
433.39	1773.54
433.59	1753.06
433.80	1736.68
434.00	1796.07
434.21	1714.15
434.41	1640.42
434.62	1931.23
434.82	1581.03
435.03	1701.86
435.23	1718.25
435.44	1632.23
435.64	1689.57
435.85	1699.81
436.06	1734.63
436.26	1738.73
436.47	1687.53
436.67	1593.32
436.88	1740.77
437.08	1703.91
437.29	1740.77
437.49	1748.97
437.70	1769.44
437.90	1787.88
438.11	1906.66
438.31	1759.21
438.52	1796.07
438.72	1845.22
438.93	1896.42
439.13	1730.53
439.34	1843.17
439.54	1677.29
439.75	1798.12
439.95	1779.68
440.16	1714.15
440.36	1761.25
440.57	1771.49
440.77	1730.53
440.98	1671.14
441.18	1724.39
441.39	1656.81
441.59	1732.58
441.80	1824.74
442.00	1689.57
442.21	1806.31
442.41	1722.34
442.62	1789.92
442.82	1724.39
443.02	1726.44
443.23	1773.54
443.43	1681.38
443.64	1837.03
443.84	1689.57
444.05	1810.40
444.25	1714.15
444.46	1705.96
444.66	1728.49
444.87	1824.74
445.07	1669.09
445.28	1787.88
445.48	1857.51
445.69	1718.25
445.89	1837.03
446.09	1740.77
446.30	1980.39
446.50	2740.18
446.71	3674.06
446.91	4200.38
447.12	4759.48
447.32	4855.73
447.53	4331.45
447.73	3981.25
447.93	3540.94
448.14	3231.69
448.34	3229.65
448.55	2967.51
448.75	2811.86
448.96	2688.98
449.16	2459.61
449.36	2314.20
449.57	2084.83
449.77	1939.43
449.98	1779.68
450.18	1818.60
450.39	1789.92
450.59	1695.72
450.79	1779.68
451.00	1660.90
451.20	1771.49
451.41	1720.29
451.61	1751.01
451.81	1728.49
452.02	1736.68
452.22	1730.53
452.43	1757.16
452.63	1724.39
452.84	1767.40
453.04	1791.97
453.24	1767.40
453.45	1669.09
453.65	1712.10
453.86	1791.97
454.06	1734.63
454.26	1839.08
454.47	1742.82
454.67	1814.50
454.87	1816.55
455.08	1695.72
455.28	1902.56
455.49	1744.87
455.69	1669.09
455.89	1828.84
456.10	1724.39
456.30	1697.77
456.51	1705.96
456.71	1783.78
456.91	1779.68
457.12	1738.73
457.32	1767.40
457.52	1632.23
457.73	1755.11
457.93	1814.50
458.14	1722.34
458.34	1714.15
458.54	1722.34
458.75	1613.80
458.95	1763.30
459.15	1761.25
459.36	1787.88
459.56	1810.40
459.76	1814.50
459.97	1738.73
460.17	1761.25
460.37	1796.07
460.58	1712.10
460.78	1751.01
460.99	1710.05
461.19	1796.07
461.39	1660.90
461.60	1753.06
461.80	1771.49
462.00	1599.46
462.21	1630.18
462.41	1669.09
462.61	1648.61
462.82	1677.29
463.02	1787.88
463.22	1755.11
463.43	1851.36
463.63	1734.63
463.83	1773.54
464.04	1738.73
464.24	1744.87
464.44	1642.47
464.64	1744.87
464.85	1785.83
465.05	1748.97
465.25	1669.09
465.46	1691.62
465.66	1763.30
465.86	1712.10
466.07	1718.25
466.27	1701.86
466.47	1640.42
466.68	1665.00
466.88	1806.31
467.08	1744.87
467.29	1738.73
467.49	1771.49
467.69	1650.66
467.89	1716.20
468.10	1652.71
468.30	1771.49
468.50	1855.46
468.71	1687.53
468.91	1632.23
469.11	1832.93
469.31	1787.88
469.52	1652.71
469.72	1771.49
469.92	1820.64
470.13	1665.00
470.33	1746.92
470.53	1851.36
470.73	2213.85
470.94	2263.01
471.14	2291.68
471.34	2496.47
471.54	2373.60
471.75	2185.18
471.95	2127.84
472.15	2082.78
472.36	2127.84
472.56	2101.22
472.76	2041.82
472.96	1964.00
473.17	1929.19
473.37	1935.33
473.57	1875.94
473.77	1849.32
473.98	1716.20
474.18	1658.85
474.38	1865.70
474.58	1718.25
474.79	1697.77
474.99	1746.92
475.19	1712.10
475.39	1675.24
475.60	1685.48
475.80	1730.53
476.00	1710.05
476.20	1726.44
476.41	1701.86
476.61	1759.21
476.81	1781.73
477.01	1683.43
477.21	1832.93
477.42	1775.59
477.62	1658.85
477.82	1732.58
478.02	1734.63
478.23	1732.58
478.43	1687.53
478.63	1771.49
478.83	1671.14
479.03	1716.20
479.24	1763.30
479.44	1779.68
479.64	1634.28
479.84	1603.56
480.04	1669.09
480.25	1726.44
480.45	1662.95
480.65	1697.77
480.85	1802.21
481.06	1685.48
481.26	1705.96
481.46	1814.50
481.66	1730.53
481.86	1636.33
482.06	1775.59
482.27	1593.32
482.47	1695.72
482.67	1757.16
482.87	1705.96
483.07	1834.98
483.28	1650.66
483.48	1650.66
483.68	1794.02
483.88	1654.76
484.08	1576.94
484.29	1589.22
484.49	1683.43
484.69	1642.47
484.89	1814.50
485.09	1822.69
485.29	1751.01
485.50	1718.25
485.70	1732.58
485.90	1708.01
486.10	1685.48
486.30	1701.86
486.50	1746.92
486.71	1740.77
486.91	1810.40
487.11	1771.49
487.31	1681.38
487.51	1791.97
487.71	1691.62
487.91	1599.46
488.12	1648.61
488.32	1624.04
488.52	1632.23
488.72	1624.04
488.92	1738.73
489.12	1814.50
489.32	1896.42
489.53	1734.63
489.73	1699.81
489.93	1783.78
490.13	1581.03
490.33	1665.00
490.53	1671.14
490.73	1730.53
490.94	1705.96
491.14	1685.48
491.34	1873.89
491.54	2146.27
491.74	2516.95
491.94	2975.70
492.14	2934.74
492.34	3016.66
492.54	2885.59
492.75	2500.57
492.95	2443.23
493.15	2295.77
493.35	2332.64
493.55	2234.33
493.75	2181.09
493.95	2172.89
494.15	1957.86
494.35	1964.00
494.56	1877.99
494.76	1804.26
494.96	1783.78
495.16	1771.49
495.36	1794.02
495.56	1751.01
495.76	1796.07
495.96	1718.25
496.16	1693.67
496.36	1798.12
496.56	1714.15
496.77	1773.54
496.97	1734.63
497.17	1837.03
497.37	1697.77
497.57	1742.82
497.77	1646.57
497.97	1751.01
498.17	1734.63
498.37	1683.43
498.57	1724.39
498.77	1697.77
498.97	1724.39
499.17	1863.65
499.38	1779.68
499.58	1728.49
499.78	1742.82
499.98	1746.92
500.18	1718.25
500.38	1683.43
500.58	1892.32
500.78	2607.06
500.98	4450.24
501.18	5810.09
501.38	6621.08
501.58	7182.23
501.78	6592.41
501.98	5572.52
502.18	4843.45
502.38	4384.70
502.58	4147.14
502.78	3798.98
502.98	3672.01
503.18	3442.64
503.38	3141.58
503.59	2863.06
503.79	2668.50
503.99	2525.15
504.19	2263.01
504.39	2127.84
504.59	2146.27
504.79	2086.88
504.99	2050.02
505.19	1986.53
505.39	1877.99
505.59	1968.10
505.79	1937.38
505.99	1814.50
506.19	1843.17
506.39	1892.32
506.59	1695.72
506.79	1736.68
506.99	1763.30
507.19	1771.49
507.39	1785.83
507.59	1722.34
507.79	1681.38
507.99	1738.73
508.19	1810.40
508.39	1759.21
508.59	1697.77
508.79	1886.18
508.99	1875.94
509.19	1708.01
509.39	1798.12
509.59	1746.92
509.79	1656.81
509.99	1724.39
510.19	1816.55
510.39	1736.68
510.59	1751.01
510.79	1681.38
510.99	1624.04
511.19	1742.82
511.39	1834.98
511.59	1767.40
511.79	1716.20
511.99	1789.92
512.19	1839.08
512.38	1697.77
512.58	1716.20
512.78	1714.15
512.98	1726.44
513.18	1816.55
513.38	1712.10
513.58	1759.21
513.78	1791.97
513.98	1697.77
514.18	1724.39
514.38	1683.43
514.58	1744.87
514.78	1708.01
514.98	1701.86
515.18	1710.05
515.38	1656.81
515.58	1855.46
515.78	1787.88
515.98	1724.39
516.18	1746.92
516.38	1689.57
516.57	1742.82
516.77	1640.42
516.97	1742.82
517.17	1714.15
517.37	1656.81
517.57	1757.16
517.77	1748.97
517.97	1732.58
518.17	1718.25
518.37	1646.57
518.57	1669.09
518.77	1632.23
518.97	1697.77
519.16	1841.12
519.36	1853.41
519.56	1679.33
519.76	1638.38
519.96	1720.29
520.16	1806.31
520.36	1671.14
520.56	1773.54
520.76	1687.53
520.96	1742.82
521.16	1820.64
521.35	1841.12
521.55	1791.97
521.75	1791.97
521.95	1705.96
522.15	1718.25
522.35	1667.05
522.55	1660.90
522.75	1757.16
522.95	1755.11
523.14	1718.25
523.34	1767.40
523.54	1710.05
523.74	1783.78
523.94	1771.49
524.14	1636.33
524.34	1757.16
524.54	1781.73
524.73	1685.48
524.93	1787.88
525.13	1722.34
525.33	1712.10
525.53	1920.99
525.73	1789.92
525.93	1691.62
526.13	1738.73
526.32	1712.10
526.52	1781.73
526.72	1781.73
526.92	1730.53
527.12	1761.25
527.32	1679.33
527.52	1738.73
527.71	1687.53
527.91	1689.57
528.11	1642.47
528.31	1765.35
528.51	1626.09
528.71	1808.36
528.90	1710.05
529.10	1802.21
529.30	1820.64
529.50	1656.81
529.70	1677.29
529.90	1650.66
530.09	1726.44
530.29	1681.38
530.49	1683.43
530.69	1957.86
530.89	1693.67
531.09	1759.21
531.28	1763.30
531.48	1853.41
531.68	1748.97
531.88	1822.69
532.08	1708.01
532.28	1640.42
532.47	1767.40
532.67	1884.13
532.87	1781.73
533.07	1701.86
533.27	1716.20
533.46	1716.20
533.66	1773.54
533.86	1771.49
534.06	1726.44
534.26	1714.15
534.45	1695.72
534.65	1804.26
534.85	1726.44
535.05	1617.90
535.25	1779.68
535.44	1724.39
535.64	1828.84
535.84	1730.53
536.04	1710.05
536.24	1703.91
536.43	1734.63
536.63	1771.49
536.83	1718.25
537.03	1722.34
537.22	1710.05
537.42	1587.18
537.62	1726.44
537.82	1681.38
538.02	1787.88
538.21	1775.59
538.41	1920.99
538.61	1773.54
538.81	1716.20
539.00	1820.64
539.20	1669.09
539.40	1738.73
539.60	1759.21
539.79	1771.49
539.99	1683.43
540.19	1681.38
540.39	1708.01
540.58	1730.53
540.78	1787.88
540.98	1748.97
541.18	1759.21
541.37	1732.58
541.57	1714.15
541.77	1714.15
541.97	1619.94
542.16	1712.10
542.36	1705.96
542.56	1691.62
542.76	1867.75
542.95	1798.12
543.15	1751.01
543.35	1738.73
543.54	1644.52
543.74	1671.14
543.94	1746.92
544.14	1685.48
544.33	1728.49
544.53	1804.26
544.73	1722.34
544.93	1781.73
545.12	1744.87
545.32	1787.88
545.52	1753.06
545.71	1746.92
545.91	1710.05
546.11	1728.49
546.30	1691.62
546.50	1652.71
546.70	1771.49
546.90	1685.48
547.09	1642.47
547.29	1787.88
547.49	1714.15
547.68	1718.25
547.88	1722.34
548.08	1705.96
548.27	2148.32
548.47	1720.29
548.67	1669.09
548.87	1763.30
549.06	1660.90
549.26	1771.49
549.46	1701.86
549.65	1628.14
549.85	1710.05
550.05	1771.49
550.24	1693.67
550.44	1714.15
550.64	1726.44
550.83	1712.10
551.03	1775.59
551.23	1761.25
551.42	1697.77
551.62	1728.49
551.82	1669.09
552.01	1777.64
552.21	1767.40
552.41	1851.36
552.60	1818.60
552.80	1722.34
553.00	1753.06
553.19	1744.87
553.39	1828.84
553.59	1613.80
553.78	1841.12
553.98	1673.19
554.17	1658.85
554.37	1773.54
554.57	1800.16
554.76	1640.42
554.96	1673.19
555.16	1722.34
555.35	1769.44
555.55	1722.34
555.75	1703.91
555.94	1888.23
556.14	1624.04
556.33	1742.82
556.53	1720.29
556.73	1687.53
556.92	1787.88
557.12	1843.17
557.32	1828.84
557.51	1855.46
557.71	1740.77
557.90	1810.40
558.10	1736.68
558.30	1681.38
558.49	1701.86
558.69	1726.44
558.88	1740.77
559.08	1691.62
559.28	1621.99
559.47	1640.42
559.67	1705.96
559.86	1773.54
560.06	1714.15
560.26	1693.67
560.45	1718.25
560.65	1753.06
560.84	1804.26
561.04	1703.91
561.24	1734.63
561.43	1636.33
561.63	1834.98
561.82	1761.25
562.02	1751.01
562.22	1771.49
562.41	1652.71
562.61	1767.40
562.80	1636.33
563.00	1822.69
563.19	1736.68
563.39	1771.49
563.59	1732.58
563.78	1736.68
563.98	1636.33
564.17	1624.04
564.37	1589.22
564.56	1812.45
564.76	1765.35
564.96	1818.60
565.15	1812.45
565.35	1861.60
565.54	1650.66
565.74	1742.82
565.93	1765.35
566.13	1656.81
566.32	1744.87
566.52	1763.30
566.71	1726.44
566.91	1763.30
567.11	1685.48
567.30	1748.97
567.50	1671.14
567.69	1773.54
567.89	1621.99
568.08	1722.34
568.28	1705.96
568.47	1691.62
568.67	1710.05
568.86	1755.11
569.06	1779.68
569.25	1699.81
569.45	1708.01
569.64	1693.67
569.84	1728.49
570.04	1746.92
570.23	1708.01
570.43	1751.01
570.62	1779.68
570.82	1855.46
571.01	1667.05
571.21	1726.44
571.40	1712.10
571.60	1765.35
571.79	1763.30
571.99	1763.30
572.18	1669.09
572.38	1755.11
572.57	1738.73
572.77	1761.25
572.96	1927.14
573.16	1753.06
573.35	1687.53
573.55	1871.84
573.74	1748.97
573.94	1662.95
574.13	1724.39
574.33	1785.83
574.52	1796.07
574.71	1765.35
574.91	1744.87
575.10	1665.00
575.30	1732.58
575.49	1656.81
575.69	1701.86
575.88	1800.16
576.08	1736.68
576.27	1796.07
576.47	1734.63
576.66	1796.07
576.86	1902.56
577.05	1710.05
577.25	1732.58
577.44	1855.46
577.64	1695.72
577.83	1832.93
578.02	1746.92
578.22	1775.59
578.41	1789.92
578.61	1804.26
578.80	1712.10
579.00	1779.68
579.19	1759.21
579.39	1791.97
579.58	1796.07
579.77	1660.90
579.97	1843.17
580.16	1826.79
580.36	1761.25
580.55	1857.51
580.75	1773.54
580.94	1787.88
581.13	1814.50
581.33	1841.12
581.52	1744.87
581.72	1796.07
581.91	1841.12
582.11	1708.01
582.30	1759.21
582.49	1771.49
582.69	1888.23
582.88	1828.84
583.08	1660.90
583.27	1765.35
583.47	1771.49
583.66	1697.77
583.85	1751.01
584.05	1710.05
584.24	1796.07
584.44	1755.11
584.63	1824.74
584.82	1861.60
585.02	1791.97
585.21	1859.56
585.41	1869.80
585.60	1763.30
585.79	1974.24
585.99	1951.71
586.18	1912.80
586.37	2115.55
586.57	3321.81
586.76	9795.43
586.96	24669.83
587.15	34608.62
587.34	40834.45
587.54	42595.70
587.73	37242.31
587.93	26599.02
588.12	21575.35
588.31	18591.46
588.51	16523.01
588.70	15259.42
588.89	14229.29
589.09	12592.96
589.28	11013.98
589.47	9521.01
589.67	7962.50
589.86	6465.44
590.06	4906.93
590.25	3932.10
590.44	3209.17
590.64	2645.98
590.83	2263.01
591.02	2084.83
591.22	1898.47
591.41	1896.42
591.60	1904.61
591.80	1968.10
591.99	1687.53
592.18	1785.83
592.38	1882.08
592.57	1787.88
592.76	1789.92
592.96	1783.78
593.15	1751.01
593.34	1855.46
593.54	1718.25
593.73	1796.07
593.92	1781.73
594.12	1800.16
594.31	1796.07
594.50	1853.41
594.70	1779.68
594.89	1898.47
595.08	1673.19
595.28	1785.83
595.47	1906.66
595.66	1800.16
595.86	1619.94
596.05	1718.25
596.24	1796.07
596.43	1791.97
596.63	1853.41
596.82	1787.88
597.01	1722.34
597.21	1886.18
597.40	1751.01
597.59	1714.15
597.79	1712.10
597.98	1806.31
598.17	1732.58
598.36	1771.49
598.56	1738.73
598.75	1701.86
598.94	1781.73
599.14	1791.97
599.33	1714.15
599.52	1744.87
599.71	1789.92
599.91	1808.36
600.10	1726.44
600.29	1734.63
600.48	1810.40
600.68	1767.40
600.87	1708.01
601.06	1746.92
601.26	1667.05
601.45	1820.64
601.64	1744.87
601.83	1779.68
602.03	1667.05
602.22	1658.85
602.41	1775.59
602.60	1865.70
602.80	1759.21
602.99	1650.66
603.18	1726.44
603.37	1789.92
603.57	1726.44
603.76	1796.07
603.95	1863.65
604.14	1656.81
604.34	1689.57
604.53	1822.69
604.72	1652.71
604.91	1775.59
605.10	1703.91
605.30	1693.67
605.49	1806.31
605.68	1798.12
605.87	1779.68
606.07	1683.43
606.26	1695.72
606.45	1712.10
606.64	1689.57
606.84	1703.91
607.03	1705.96
607.22	1757.16
607.41	1724.39
607.60	1619.94
607.80	1791.97
607.99	1689.57
608.18	1755.11
608.37	1712.10
608.56	1708.01
608.76	1744.87
608.95	1794.02
609.14	1771.49
609.33	1744.87
609.52	1738.73
609.72	1753.06
609.91	1802.21
610.10	1787.88
610.29	1742.82
610.48	1728.49
610.68	1783.78
610.87	1746.92
611.06	1839.08
611.25	1695.72
611.44	1781.73
611.63	1710.05
611.83	1828.84
612.02	1634.28
612.21	1765.35
612.40	1533.93
612.59	1714.15
612.79	1746.92
612.98	1744.87
613.17	1845.22
613.36	1783.78
613.55	1832.93
613.74	1689.57
613.93	1732.58
614.13	1665.00
614.32	1738.73
614.51	1730.53
614.70	1744.87
614.89	1673.19
615.08	1732.58
615.28	2039.78
615.47	1738.73
615.66	1789.92
615.85	1710.05
616.04	1843.17
616.23	1689.57
616.42	1646.57
616.62	1775.59
616.81	1677.29
617.00	1669.09
617.19	1755.11
617.38	1802.21
617.57	1679.33
617.76	1722.34
617.95	1734.63
618.15	1773.54
618.34	1828.84
618.53	1603.56
618.72	1730.53
618.91	1724.39
619.10	1810.40
619.29	1751.01
619.48	1693.67
619.68	1697.77
619.87	1742.82
620.06	1662.95
620.25	1736.68
620.44	1726.44
620.63	1677.29
620.82	1689.57
621.01	1785.83
621.20	1734.63
621.39	1796.07
621.59	1761.25
621.78	1755.11
621.97	1650.66
622.16	1755.11
622.35	1681.38
622.54	1759.21
622.73	1789.92
622.92	1609.70
623.11	1779.68
623.30	1665.00
623.49	1720.29
623.68	1710.05
623.88	1828.84
624.07	1658.85
624.26	1665.00
624.45	1734.63
624.64	1665.00
624.83	1697.77
625.02	1714.15
625.21	1693.67
625.40	1718.25
625.59	1839.08
625.78	1677.29
625.97	1783.78
626.16	1779.68
626.35	1777.64
626.54	1640.42
626.74	1773.54
626.93	1710.05
627.12	1771.49
627.31	1726.44
627.50	1701.86
627.69	1732.58
627.88	1599.46
628.07	1769.44
628.26	1679.33
628.45	1669.09
628.64	1685.48
628.83	1691.62
629.02	1621.99
629.21	1742.82
629.40	1687.53
629.59	1611.75
629.78	1720.29
629.97	1720.29
630.16	1781.73
630.35	1736.68
630.54	1689.57
630.73	1662.95
630.92	1718.25
631.11	1695.72
631.30	1722.34
631.49	1771.49
631.68	1757.16
631.87	1742.82
632.06	1646.57
632.25	1820.64
632.44	1771.49
632.63	1671.14
632.82	1687.53
633.01	1689.57
633.20	1689.57
633.39	1583.08
633.58	1665.00
633.77	1630.18
633.96	1689.57
634.15	1726.44
634.34	1794.02
634.53	1724.39
634.72	1632.23
634.91	1613.80
635.10	1742.82
635.29	1796.07
635.48	1726.44
635.67	1705.96
635.86	1730.53
636.05	1724.39
636.24	1673.19
636.43	1654.76
636.62	1738.73
636.81	1593.32
637.00	1734.63
637.19	1724.39
637.38	1761.25
637.57	1636.33
637.76	1710.05
637.95	1834.98
638.14	1601.51
638.33	1681.38
638.52	1724.39
638.71	1634.28
638.89	1595.37
639.08	1843.17
639.27	1718.25
639.46	1624.04
639.65	1867.75
639.84	1697.77
640.03	1779.68
640.22	1691.62
640.41	1841.12
640.60	1691.62
640.79	1802.21
640.98	1693.67
641.17	1740.77
641.36	1738.73
641.55	1697.77
641.74	1697.77
641.92	1693.67
642.11	1660.90
642.30	1660.90
642.49	1712.10
642.68	1699.81
642.87	1722.34
643.06	1732.58
643.25	1744.87
643.44	1630.18
643.63	1841.12
643.82	1794.02
644.00	1726.44
644.19	1722.34
644.38	1673.19
644.57	1701.86
644.76	1779.68
644.95	1734.63
645.14	1732.58
645.33	1714.15
645.52	1685.48
645.71	1701.86
645.89	1628.14
646.08	1703.91
646.27	1703.91
646.46	1865.70
646.65	1669.09
646.84	1656.81
647.03	1718.25
647.22	1716.20
647.40	1753.06
647.59	1652.71
647.78	1662.95
647.97	1634.28
648.16	1656.81
648.35	1763.30
648.54	1804.26
648.73	1660.90
648.91	1787.88
649.10	1722.34
649.29	1658.85
649.48	1708.01
649.67	1761.25
649.86	1765.35
650.05	1617.90
650.23	1759.21
650.42	1687.53
650.61	1728.49
650.80	1662.95
650.99	1767.40
651.18	1728.49
651.36	1804.26
651.55	1716.20
651.74	1802.21
651.93	1736.68
652.12	1701.86
652.31	1675.24
652.49	1693.67
652.68	1687.53
652.87	1779.68
653.06	1718.25
653.25	1771.49
653.44	1751.01
653.62	1779.68
653.81	1738.73
654.00	1656.81
654.19	1804.26
654.38	1839.08
654.56	1716.20
654.75	1732.58
654.94	1769.44
655.13	1767.40
655.32	1759.21
655.51	1791.97
655.69	1703.91
655.88	1683.43
656.07	1689.57
656.26	1705.96
656.45	1642.47
656.63	1730.53
656.82	1714.15
657.01	1767.40
657.20	1671.14
657.38	1802.21
657.57	1677.29
657.76	1667.05
657.95	1812.45
658.14	1697.77
658.32	1804.26
658.51	1740.77
658.70	1755.11
658.89	1738.73
659.08	1724.39
659.26	1765.35
659.45	1646.57
659.64	1757.16
659.83	1673.19
660.01	1851.36
660.20	1736.68
660.39	1802.21
660.58	1648.61
660.76	1767.40
660.95	1617.90
661.14	1746.92
661.33	1654.76
661.51	1738.73
661.70	1712.10
661.89	1724.39
662.08	1675.24
662.26	1660.90
662.45	1648.61
662.64	1853.41
662.83	1710.05
663.01	1572.84
663.20	1673.19
663.39	1773.54
663.58	1566.70
663.76	1695.72
663.95	1789.92
664.14	1691.62
664.32	1636.33
664.51	1697.77
664.70	1617.90
664.89	1730.53
665.07	1619.94
665.26	1767.40
665.45	1673.19
665.64	1806.31
665.82	1683.43
666.01	1767.40
666.20	1665.00
666.38	1806.31
666.57	1787.88
666.76	2148.32
666.95	4437.95
667.13	10428.26
667.32	15230.74
667.51	18093.80
667.69	19060.45
667.88	17878.77
668.07	12476.23
668.25	9635.69
668.44	8193.92
668.63	7346.06
668.81	6918.04
669.00	6289.31
669.19	5590.95
669.38	5081.01
669.56	4499.39
669.75	3981.25
669.94	3440.59
670.12	2955.22
670.31	2539.48
670.50	2322.40
670.68	2039.78
670.87	1929.19
671.06	1910.75
671.24	1818.60
671.43	1767.40
671.62	1794.02
671.80	1648.61
671.99	1730.53
672.18	1705.96
672.36	1708.01
672.55	1705.96
672.74	1738.73
672.92	1652.71
673.11	1695.72
673.29	1708.01
673.48	1742.82
673.67	1693.67
673.85	1722.34
674.04	1701.86
674.23	1718.25
674.41	1832.93
674.60	1636.33
674.79	1650.66
674.97	1669.09
675.16	1796.07
675.34	1787.88
675.53	1619.94
675.72	1681.38
675.90	1804.26
676.09	1671.14
676.28	1695.72
676.46	1667.05
676.65	1718.25
676.83	1665.00
677.02	1673.19
677.21	1673.19
677.39	1755.11
677.58	1703.91
677.77	1695.72
677.95	1634.28
678.14	1613.80
678.32	1671.14
678.51	1724.39
678.70	1796.07
678.88	1759.21
679.07	1693.67
679.25	1734.63
679.44	1796.07
679.63	1646.57
679.81	1787.88
680.00	1691.62
680.18	1720.29
680.37	1779.68
680.55	1710.05
680.74	1654.76
680.93	1597.42
681.11	1763.30
681.30	1626.09
681.48	1730.53
681.67	1712.10
681.85	1671.14
682.04	1669.09
682.23	1759.21
682.41	1722.34
682.60	1654.76
682.78	1726.44
682.97	1687.53
683.15	1720.29
683.34	1734.63
683.53	1751.01
683.71	1640.42
683.90	1789.92
684.08	1699.81
684.27	1697.77
684.45	1734.63
684.64	1716.20
684.82	1691.62
685.01	1740.77
685.19	1687.53
685.38	1824.74
685.57	1695.72
685.75	1650.66
685.94	1701.86
686.12	1662.95
686.31	1689.57
686.49	1769.44
686.68	1630.18
686.86	1787.88
687.05	1621.99
687.23	1826.79
687.42	1642.47
687.60	1644.52
687.79	1748.97
687.97	1757.16
688.16	1767.40
688.34	1705.96
688.53	1673.19
688.71	1751.01
688.90	1763.30
689.08	1632.23
689.27	1574.89
689.45	1673.19
689.64	1732.58
689.82	1783.78
690.01	1679.33
690.19	1769.44
690.38	1712.10
690.56	1804.26
690.75	1755.11
690.93	1667.05
691.12	1640.42
691.30	1695.72
691.49	1703.91
691.67	1689.57
691.86	1763.30
692.04	1726.44
692.23	1624.04
692.41	1632.23
692.60	1777.64
692.78	1728.49
692.97	1742.82
693.15	1742.82
693.34	1765.35
693.52	1767.40
693.71	1642.47
693.89	1705.96
694.08	1533.93
694.26	1742.82
694.44	1763.30
694.63	1726.44
694.81	1611.75
695.00	1665.00
695.18	1775.59
695.37	1855.46
695.55	1650.66
695.74	1617.90
695.92	1660.90
696.10	1763.30
696.29	1546.22
696.47	1630.18
696.66	1595.37
696.84	1585.13
697.03	1642.47
697.21	1791.97
697.40	2271.20
697.58	1767.40
697.76	1667.05
697.95	1691.62
698.13	1697.77
698.32	1642.47
698.50	1830.88
698.68	1753.06
698.87	1771.49
699.05	1882.08
699.24	1660.90
699.42	1722.34
699.61	1658.85
699.79	1705.96
699.97	1699.81
700.16	1644.52
700.34	1681.38
700.53	1574.89
700.71	1828.84
700.89	1691.62
701.08	1718.25
701.26	1716.20
701.45	2117.60
701.63	1665.00
701.81	1615.85
702.00	1687.53
702.18	1716.20
702.37	1691.62
702.55	1755.11
702.73	1695.72
702.92	1671.14
703.10	1761.25
703.28	1701.86
703.47	1593.32
703.65	1656.81
703.84	1796.07
704.02	1714.15
704.20	1796.07
704.39	1673.19
704.57	1705.96
704.75	1781.73
704.94	1652.71
705.12	1671.14
705.30	1710.05
705.49	2258.91
705.67	4456.38
705.86	9293.68
706.04	12693.31
706.22	14606.11
706.41	15503.12
706.59	14010.15
706.77	9746.28
706.96	7450.51
707.14	6541.21
707.32	5967.78
707.51	5687.21
707.69	4904.89
707.87	4220.86
708.06	3614.66
708.24	2967.51
708.42	2482.14
708.61	2279.39
708.79	1966.05
708.97	1855.46
709.16	1800.16
709.34	1775.59
709.52	1703.91
709.71	1779.68
709.89	1757.16
710.07	1675.24
710.26	1683.43
710.44	1748.97
710.62	1726.44
710.80	1693.67
710.99	1845.22
711.17	1806.31
711.35	1640.42
711.54	1718.25
711.72	1767.40
711.90	1685.48
712.09	1673.19
712.27	1642.47
712.45	1779.68
712.63	1701.86
712.82	1720.29
713.00	1665.00
713.18	1734.63
713.37	1726.44
713.55	1763.30
713.73	1841.12
713.91	1665.00
714.10	1705.96
714.28	1656.81
714.46	1695.72
714.65	1697.77
714.83	1714.15
715.01	1732.58
715.19	1714.15
715.38	1665.00
715.56	1779.68
715.74	1613.80
715.92	1642.47
716.11	1804.26
716.29	1619.94
716.47	1775.59
716.65	1662.95
716.84	1546.22
717.02	1757.16
717.20	1675.24
717.38	1712.10
717.57	1650.66
717.75	1742.82
717.93	1689.57
718.11	1740.77
718.30	1609.70
718.48	1812.45
718.66	1712.10
718.84	1783.78
719.03	1728.49
719.21	1626.09
719.39	1689.57
719.57	1708.01
719.75	1677.29
719.94	1638.38
720.12	1802.21
720.30	1587.18
720.48	1853.41
720.67	1615.85
720.85	1714.15
721.03	1718.25
721.21	1667.05
721.39	1802.21
721.58	1673.19
721.76	1671.14
721.94	1755.11
722.12	1677.29
722.30	1802.21
722.49	1621.99
722.67	1695.72
722.85	1804.26
723.03	1689.57
723.21	1613.80
723.40	1724.39
723.58	1734.63
723.76	1781.73
723.94	1728.49
724.12	1738.73
724.30	1763.30
724.49	1714.15
724.67	1615.85
724.85	1783.78
725.03	1599.46
725.21	1685.48
725.40	1779.68
725.58	1615.85
725.76	1812.45
725.94	1804.26
726.12	1695.72
726.30	1789.92
726.49	1722.34
726.67	1730.53
726.85	1763.30
727.03	1789.92
727.21	2263.01
727.39	2975.70
727.57	3833.80
727.76	4145.09
727.94	4634.55
728.12	4417.47
728.30	3641.29
728.48	2967.51
728.66	2721.75
728.84	2500.57
729.03	2336.73
729.21	2199.52
729.39	2037.73
729.57	1808.36
729.75	1812.45
729.93	1794.02
730.11	1779.68
730.30	1722.34
730.48	1681.38
730.66	1804.26
730.84	1753.06
731.02	1675.24
731.20	1667.05
731.38	1710.05
731.56	1640.42
731.74	1671.14
731.93	1722.34
732.11	1677.29
732.29	1595.37
732.47	1724.39
732.65	1767.40
732.83	1728.49
733.01	1763.30
733.19	1642.47
733.37	1738.73
733.56	1708.01
733.74	1669.09
733.92	1796.07
734.10	1714.15
734.28	1734.63
734.46	1673.19
734.64	1769.44
734.82	1667.05
735.00	1538.02
735.18	1669.09
735.36	1722.34
735.54	1658.85
735.73	1720.29
735.91	1757.16
736.09	1693.67
736.27	1710.05
736.45	1708.01
736.63	1603.56
736.81	1679.33
736.99	1736.68
737.17	1703.91
737.35	1599.46
737.53	1677.29
737.71	1677.29
737.89	1794.02
738.07	1605.61
738.25	1667.05
738.43	1587.18
738.61	1673.19
738.80	1738.73
738.98	1632.23
739.16	1732.58
739.34	1611.75
739.52	1617.90
739.70	1646.57
739.88	1677.29
740.06	1738.73
740.24	1630.18
740.42	1703.91
740.60	1574.89
740.78	1634.28
740.96	1619.94
741.14	1652.71
741.32	1716.20
741.50	1603.56
741.68	1853.41
741.86	1798.12
742.04	1685.48
742.22	1660.90
742.40	1744.87
742.58	1714.15
742.76	1734.63
742.94	1796.07
743.12	1619.94
743.30	1685.48
743.48	1726.44
743.66	1693.67
743.84	1734.63
744.02	1677.29
744.20	1701.86
744.38	1634.28
744.56	1660.90
744.74	1759.21
744.92	1683.43
745.10	1814.50
745.28	1693.67
745.46	1812.45
745.64	1595.37
745.82	1767.40
746.00	1673.19
746.18	1738.73
746.36	1603.56
746.54	1722.34
746.72	1667.05
746.90	1644.52
747.08	1779.68
747.26	1593.32
747.44	1738.73
747.62	1740.77
747.80	1685.48
747.98	1810.40
748.15	1734.63
748.33	1732.58
748.51	1742.82
748.69	1683.43
748.87	1646.57
749.05	1757.16
749.23	1648.61
749.41	1761.25
749.59	1724.39
749.77	1796.07
749.95	1581.03
750.13	1636.33
750.31	1714.15
750.49	1615.85
750.67	1726.44
750.85	1787.88
751.03	1765.35
751.20	1771.49
751.38	1640.42
751.56	1765.35
751.74	1718.25
751.92	1644.52
752.10	1699.81
752.28	1783.78
752.46	1689.57
752.64	1718.25
752.82	1710.05
753.00	1693.67
753.18	1570.79
753.35	1691.62
753.53	1738.73
753.71	1650.66
753.89	1814.50
754.07	1720.29
754.25	1781.73
754.43	1695.72
754.61	1646.57
754.79	1669.09
754.97	1660.90
755.14	1730.53
755.32	1619.94
755.50	1728.49
755.68	1748.97
755.86	1634.28
756.04	1665.00
756.22	1615.85
756.40	1771.49
756.57	1865.70
756.75	1644.52
756.93	1755.11
757.11	1714.15
757.29	1607.66
757.47	1742.82
757.65	1632.23
757.82	1546.22
758.00	1705.96
758.18	1671.14
758.36	1601.51
758.54	1837.03
758.72	1693.67
758.90	1806.31
759.07	1665.00
759.25	1626.09
759.43	1683.43
759.61	1597.42
759.79	2211.81
759.97	1705.96
760.15	1630.18
760.32	1681.38
760.50	1695.72
760.68	1812.45
760.86	1603.56
761.04	1718.25
761.22	1718.25
761.39	1712.10
761.57	1806.31
761.75	1748.97
761.93	1746.92
762.11	1699.81
762.28	1644.52
762.46	1609.70
762.64	1744.87
762.82	1685.48
763.00	1722.34
763.18	1746.92
763.35	1605.61
763.53	1740.77
763.71	1736.68
763.89	1656.81
764.07	1732.58
764.24	1734.63
764.42	1738.73
764.60	1654.76
764.78	1765.35
764.96	1781.73
765.13	1765.35
765.31	1699.81
765.49	1755.11
765.67	1642.47
765.84	1630.18
766.02	1726.44
766.20	1689.57
766.38	1654.76
766.56	1753.06
766.73	1748.97
766.91	1658.85
767.09	1638.38
767.27	1736.68
767.44	1576.94
767.62	1800.16
767.80	1794.02
767.98	1726.44
768.15	1681.38
768.33	1720.29
768.51	1724.39
768.69	1738.73
768.87	1716.20
769.04	1708.01
769.22	1939.43
769.40	1794.02
769.58	1884.13
769.75	1763.30
769.93	1763.30
770.11	1751.01
770.28	1652.71
770.46	1673.19
770.64	1765.35
770.82	1722.34
770.99	1708.01
771.17	1722.34
771.35	1693.67
771.53	1681.38
771.70	1667.05
771.88	1695.72
772.06	1689.57
772.23	1691.62
772.41	1656.81
772.59	1734.63
772.77	1689.57
772.94	1687.53
773.12	1710.05
773.30	1718.25
773.47	1730.53
773.65	1630.18
773.83	1841.12
774.01	1718.25
774.18	1593.32
774.36	1681.38
774.54	1656.81
774.71	1740.77
774.89	1578.98
775.07	1648.61
775.24	1689.57
775.42	1689.57
775.60	1763.30
775.78	1581.03
775.95	1640.42
776.13	1550.31
776.31	1583.08
776.48	1728.49
776.66	1841.12
776.84	1689.57
777.01	1697.77
777.19	1667.05
777.37	1634.28
777.54	1714.15
777.72	1843.17
777.90	1705.96
778.07	1619.94
778.25	1839.08
778.43	1740.77
778.60	1701.86
778.78	1693.67
778.96	1777.64
779.13	1708.01
779.31	1644.52
779.49	1658.85
779.66	1738.73
779.84	1628.14
780.01	1742.82
780.19	1607.66
780.37	1759.21
780.54	1677.29
780.72	1691.62
780.90	1652.71
781.07	1730.53
781.25	1615.85
781.43	1761.25
781.60	1685.48
781.78	1724.39
781.95	1744.87
782.13	1660.90
782.31	1732.58
782.48	1667.05
782.66	1767.40
782.83	1794.02
783.01	1673.19
783.19	1834.98
783.36	1632.23
783.54	1562.60
783.72	1677.29
783.89	1630.18
784.07	1644.52
784.24	1722.34
784.42	1810.40
784.60	1718.25
784.77	1697.77
784.95	1599.46
785.12	1732.58
785.30	1615.85
785.47	1648.61
785.65	1607.66
785.83	1718.25
786.00	1693.67
786.18	1673.19
786.35	1628.14
786.53	1662.95
786.71	1683.43
786.88	1732.58
787.06	1775.59
787.23	1708.01
787.41	1636.33
787.58	1734.63
787.76	1742.82
787.94	1748.97
788.11	1673.19
788.29	1587.18
788.46	1691.62
788.64	1716.20
788.81	1640.42
788.99	1595.37
789.16	1697.77
789.34	1726.44
789.52	1675.24
789.69	1656.81
789.87	1585.13
790.04	1730.53
790.22	1703.91
790.39	1818.60
790.57	1673.19
790.74	1646.57
790.92	1744.87
791.09	1695.72
791.27	1708.01
791.44	1781.73
791.62	1728.49
791.79	1759.21
791.97	1720.29
792.15	1773.54
792.32	1730.53
792.50	1697.77
792.67	1748.97
792.85	1755.11
793.02	1755.11
793.20	1744.87
793.37	1605.61
793.55	1638.38
793.72	1730.53
793.90	1708.01
794.07	1736.68
794.25	1642.47
794.42	1630.18
794.60	1693.67
794.77	1699.81
794.95	1796.07
795.12	1755.11
795.30	1615.85
795.47	1628.14
795.65	1832.93
795.82	1753.06
796.00	1585.13
796.17	1728.49
796.34	1650.66
796.52	1697.77
796.69	1724.39
796.87	1759.21
797.04	1738.73
797.22	1781.73
797.39	1744.87
797.57	1730.53
797.74	1679.33
797.92	1785.83
798.09	1689.57
798.27	1759.21
798.44	1773.54
798.62	1701.86
798.79	1769.44
798.96	1728.49
799.14	1703.91
799.31	1820.64
799.49	1699.81
799.66	1617.90
799.84	1712.10
800.01	1525.74
800.19	1644.52
800.36	1673.19
800.53	1716.20
800.71	1716.20
800.88	1812.45
801.06	1677.29
801.23	1632.23
801.41	1689.57
801.58	1716.20
801.75	1683.43
801.93	1748.97
802.10	1675.24
802.28	1667.05
802.45	1714.15
802.63	1740.77
802.80	1808.36
802.97	1646.57
803.15	1669.09
803.32	1671.14
803.50	1695.72
803.67	1665.00
803.84	1624.04
804.02	1677.29
804.19	1742.82
804.37	1605.61
804.54	1617.90
804.71	1705.96
804.89	1705.96
805.06	1665.00
805.24	1658.85
805.41	1693.67
805.58	1665.00
805.76	1822.69
805.93	1685.48
806.10	1810.40
806.28	1751.01
806.45	1716.20
806.63	1765.35
806.80	1705.96
806.97	1796.07
807.15	1724.39
807.32	1667.05
807.49	1703.91
807.67	1634.28
807.84	1775.59
808.01	1595.37
808.19	1873.89
808.36	1814.50
808.54	1667.05
808.71	1660.90
808.88	1681.38
809.06	1689.57
809.23	1816.55
809.40	1675.24
809.58	1726.44
809.75	1714.15
809.92	1665.00
810.10	1781.73
810.27	1689.57
810.44	1734.63
810.62	1705.96
810.79	1740.77
810.96	1656.81
811.14	1665.00
811.31	1693.67
811.48	1730.53
811.66	1712.10
811.83	1755.11
812.00	1662.95
812.18	1693.67
812.35	1804.26
812.52	1679.33
812.69	1671.14
812.87	1701.86
813.04	1630.18
813.21	1611.75
813.39	1687.53
813.56	1705.96
813.73	1722.34
813.91	1603.56
814.08	1767.40
814.25	1701.86
814.42	1615.85
814.60	1640.42
814.77	1683.43
814.94	1665.00
815.12	1675.24
815.29	1736.68
815.46	1695.72
815.63	1648.61
815.81	1691.62
815.98	1691.62
816.15	1673.19
816.33	1738.73
816.50	1718.25
816.67	1703.91
816.84	1656.81
817.02	1626.09
817.19	1673.19
817.36	1662.95
817.53	1740.77
817.71	1699.81
817.88	1720.29
818.05	1697.77
818.22	1677.29
818.40	1779.68
818.57	1699.81
818.74	1697.77
818.91	1665.00
819.09	1787.88
819.26	1687.53
819.43	1599.46
819.60	1632.23
819.78	1738.73
819.95	1783.78
820.12	1685.48
820.29	1753.06
820.47	1687.53
820.64	1673.19
820.81	1656.81
820.98	1638.38
821.15	1703.91
821.33	1716.20
821.50	1615.85
821.67	1689.57
821.84	1646.57
822.02	1724.39
822.19	1761.25
822.36	1685.48
822.53	1718.25
822.70	1671.14
822.88	1658.85
823.05	1744.87
823.22	1746.92
823.39	1697.77
823.56	1693.67
823.74	1869.80
823.91	1689.57
824.08	1685.48
824.25	1607.66
824.42	1775.59
824.60	1701.86
824.77	1751.01
824.94	1681.38
825.11	1722.34
825.28	1660.90
825.45	1783.78
825.63	1748.97
825.80	1615.85
825.97	1710.05
826.14	1677.29
826.31	1566.70
826.48	1634.28
826.66	1673.19
826.83	1654.76
827.00	1671.14
827.17	1648.61
827.34	1611.75
827.51	1738.73
827.69	1673.19
827.86	1673.19
828.03	1798.12
828.20	1738.73
828.37	1681.38
828.54	1740.77
828.71	1624.04
828.89	1775.59
829.06	1771.49
829.23	1720.29
829.40	1669.09
829.57	1673.19
829.74	1714.15
829.91	1691.62
830.09	1665.00
830.26	1773.54
830.43	1828.84
830.60	1632.23
830.77	1710.05
830.94	1708.01
831.11	1753.06
831.28	1736.68
831.46	1724.39
831.63	1693.67
831.80	1748.97
831.97	1632.23
832.14	1570.79
832.31	1789.92
832.48	1687.53
832.65	1722.34
832.82	1697.77
832.99	1742.82
833.17	1652.71
833.34	1724.39
833.51	1687.53
833.68	1585.13
833.85	1738.73
834.02	1656.81
834.19	1671.14
834.36	1640.42
834.53	1703.91
834.70	1753.06
834.87	1720.29
835.04	1648.61
835.22	1619.94
835.39	1714.15
835.56	1673.19
835.73	1714.15
835.90	1763.30
836.07	1667.05
836.24	1703.91
836.41	1755.11
836.58	1640.42
836.75	1697.77
836.92	1665.00
837.09	1703.91
837.26	1701.86
837.43	1783.78
837.60	1718.25
837.77	1673.19
837.94	1685.48
838.12	1751.01
838.29	1699.81
838.46	1669.09
838.63	1677.29
838.80	1777.64
838.97	1701.86
839.14	1726.44
839.31	1708.01
839.48	1738.73
839.65	1775.59
839.82	1685.48
839.99	1738.73
840.16	1681.38
840.33	1710.05
840.50	1734.63
840.67	1681.38
840.84	1605.61
841.01	1636.33
841.18	1689.57
841.35	1705.96
841.52	1697.77
841.69	1771.49
841.86	1755.11
842.03	1648.61
842.20	1716.20
842.37	1638.38
842.54	1724.39
842.71	1722.34
842.88	1654.76
843.05	1708.01
843.22	1724.39
843.39	1730.53
843.56	1697.77
843.73	1703.91
843.90	1701.86
844.07	1726.44
844.24	1658.85
844.41	1726.44
844.58	1724.39
844.75	1656.81
844.92	1699.81
845.09	1683.43
845.26	1652.71
845.43	1763.30
845.60	1697.77
845.77	1771.49
845.94	1712.10
846.10	1773.54
846.27	1538.02
846.44	1693.67
846.61	1685.48
846.78	1578.98
846.95	1755.11
847.12	1679.33
847.29	1734.63
847.46	1638.38
847.63	1746.92
847.80	1689.57
847.97	1689.57
848.14	1822.69
848.31	1748.97
848.48	1593.32
848.65	1748.97
848.82	1613.80
848.98	1777.64
849.15	1740.77
849.32	1769.44
849.49	1697.77
849.66	1634.28
849.83	1755.11
850.00	1605.61
850.17	1783.78
850.34	1681.38
850.51	1708.01
850.68	1705.96
850.85	1818.60
851.01	1638.38
851.18	1761.25
851.35	1689.57
851.52	1714.15
851.69	1779.68
851.86	1679.33
852.03	1660.90
852.20	1767.40
852.37	1662.95
852.53	1581.03
852.70	1708.01
852.87	1697.77
853.04	1738.73
853.21	1644.52
853.38	1773.54
853.55	1751.01
853.72	1753.06
853.89	1597.42
854.05	1574.89
854.22	1583.08
854.39	1624.04
854.56	1689.57
854.73	1757.16
854.90	1662.95
855.07	1710.05
855.23	1736.68
855.40	1695.72
855.57	1687.53
855.74	1605.61
855.91	1845.22
856.08	1636.33
856.25	1605.61
856.41	1724.39
856.58	1656.81
856.75	1640.42
856.92	1601.51
857.09	1783.78
857.26	1687.53
857.42	1673.19
857.59	1724.39
857.76	1730.53
857.93	1730.53
858.10	1665.00
858.27	1665.00
858.43	1699.81
858.60	1628.14
858.77	1605.61
858.94	1716.20
859.11	1771.49
859.27	1705.96
859.44	1642.47
859.61	1863.65
859.78	1705.96
859.95	1699.81
860.12	1642.47
860.28	1763.30
860.45	1794.02
860.62	1619.94
860.79	1744.87
860.95	1646.57
861.12	1691.62
861.29	1695.72
861.46	1624.04
861.63	1656.81
861.79	1742.82
861.96	1673.19
862.13	1669.09
862.30	1720.29
862.47	1701.86
862.63	1763.30
862.80	1787.88
862.97	1701.86
863.14	1658.85
863.30	1691.62
863.47	1712.10
863.64	1714.15
863.81	1695.72
863.97	1708.01
864.14	1677.29
864.31	1730.53
864.48	1685.48
864.65	1630.18
864.81	1769.44
864.98	1722.34
865.15	1734.63
865.32	1693.67
865.48	1740.77
865.65	1775.59
865.82	1626.09
865.98	1720.29
866.15	1751.01
866.32	1648.61
866.49	1730.53
866.65	1775.59
866.82	1718.25
866.99	1759.21
867.16	1621.99
867.32	1683.43
867.49	1679.33
867.66	1665.00
867.83	1640.42
867.99	1628.14
868.16	1667.05
868.33	1652.71
868.49	1677.29
868.66	1656.81
868.83	1732.58
868.99	1699.81
869.16	1677.29
869.33	1744.87
869.50	1703.91
869.66	1626.09
869.83	1687.53
870.00	1607.66
870.16	1787.88
870.33	1656.81
870.50	1816.55
870.66	1734.63
870.83	1716.20
871.00	1787.88
871.17	1619.94
871.33	1714.15
871.50	1636.33
871.67	1753.06
871.83	1667.05
872.00	1734.63
872.17	1693.67
872.33	1761.25
872.50	1806.31
872.67	1558.50
872.83	1652.71
873.00	1669.09
873.17	1656.81
873.33	1748.97
873.50	1714.15
873.67	1671.14
873.83	1597.42
874.00	1681.38
874.16	1734.63
874.33	1734.63
874.50	1642.47
874.66	1714.15
874.83	1644.52
875.00	1757.16
875.16	1687.53
875.33	1791.97
875.50	1583.08
875.66	1650.66
875.83	1695.72
875.99	1771.49
876.16	1751.01
876.33	1638.38
876.49	1689.57
876.66	1660.90
876.83	1712.10
876.99	1671.14
877.16	1710.05
877.32	1683.43
877.49	1693.67
877.66	1740.77
877.82	1851.36
877.99	1712.10
878.15	1724.39
878.32	1708.01
878.49	1671.14
878.65	1720.29
878.82	1705.96
878.98	1642.47
879.15	1769.44
879.32	1673.19
879.48	1746.92
879.65	1597.42
879.81	1638.38
879.98	1673.19
880.15	1730.53
880.31	1777.64
880.48	1603.56
880.64	1777.64
880.81	1699.81
880.97	1837.03
881.14	1814.50
881.31	1662.95
881.47	1789.92
881.64	1644.52
881.80	1626.09
881.97	1699.81
882.13	1656.81
882.30	1734.63
882.47	1624.04
882.63	1607.66
882.80	1650.66
882.96	1652.71
883.13	1726.44
883.29	1757.16
883.46	1658.85
883.62	1751.01
883.79	1687.53
883.95	1849.32
884.12	1716.20
884.29	1748.97
884.45	1714.15
884.62	1728.49
884.78	1613.80
884.95	1816.55
885.11	1597.42
885.28	1767.40
885.44	1759.21
885.61	1683.43
885.77	1742.82
885.94	1673.19
886.10	1667.05
886.27	1665.00
886.43	1722.34
886.60	1794.02
886.76	1603.56
886.93	1652.71
887.09	1763.30
887.26	1591.27
887.42	1685.48
887.59	1753.06
887.75	1834.98
887.92	1746.92
888.08	1708.01
888.25	1755.11
888.41	1759.21
888.58	1699.81
888.74	1669.09
888.91	1615.85
>>>>>End Processed Spectral Data<<<<<
