SpectraSuite Data File
++++++++++++++++++++++++++++++++++++
Date: Mon Jun 06 15:22:57 CEST 2016
User: root
Dark Spectrum Present: No
Reference Spectrum Present: No
Number of Sampled Component Spectra: 1
Spectrometers: USB4C02835
Integration Time (usec): 100000 (USB4C02835)
Spectra Averaged: 1 (USB4C02835)
Boxcar Smoothing: 0 (USB4C02835)
Correct for Electrical Dark: No (USB4C02835)
Strobe/Lamp Enabled: No (USB4C02835)
Correct for Detector Non-linearity: No (USB4C02835)
Correct for Stray Light: No (USB4C02835)
Number of Pixels in Processed Spectrum: 3648
>>>>>Begin Processed Spectral Data<<<<<
177.47	1515.50
177.69	1515.50
177.91	1515.50
178.13	1505.26
178.36	1464.30
178.58	1712.10
178.80	1755.11
179.02	1619.94
179.24	1683.43
179.46	1699.81
179.68	1787.88
179.90	1701.86
180.13	1658.85
180.35	1677.29
180.57	1685.48
180.79	1660.90
181.01	1652.71
181.23	1816.55
181.45	1789.92
181.67	1746.92
181.90	1753.06
182.12	1652.71
182.34	1697.77
182.56	1746.92
182.78	1718.25
183.00	1789.92
183.22	1716.20
183.44	1591.27
183.66	1920.99
183.89	1828.84
184.11	1722.34
184.33	1701.86
184.55	1839.08
184.77	1740.77
184.99	1726.44
185.21	1748.97
185.43	1824.74
185.65	1734.63
185.87	1697.77
186.10	1816.55
186.32	1798.12
186.54	1710.05
186.76	1720.29
186.98	1800.16
187.20	1714.15
187.42	1665.00
187.64	1714.15
187.86	1746.92
188.08	1705.96
188.30	1708.01
188.52	1646.57
188.75	1779.68
188.97	1812.45
189.19	1652.71
189.41	1751.01
189.63	1734.63
189.85	1677.29
190.07	1679.33
190.29	1587.18
190.51	1839.08
190.73	1609.70
190.95	1767.40
191.17	1751.01
191.39	1617.90
191.61	1640.42
191.84	1753.06
192.06	1636.33
192.28	1646.57
192.50	1904.61
192.72	1732.58
192.94	1699.81
193.16	1798.12
193.38	1658.85
193.60	1665.00
193.82	1728.49
194.04	1759.21
194.26	1751.01
194.48	1722.34
194.70	1665.00
194.92	1753.06
195.14	1718.25
195.36	1646.57
195.58	1712.10
195.80	1767.40
196.02	1701.86
196.24	1685.48
196.46	1716.20
196.69	1656.81
196.91	1771.49
197.13	1605.61
197.35	1669.09
197.57	1812.45
197.79	1769.44
198.01	1648.61
198.23	1771.49
198.45	1712.10
198.67	1695.72
198.89	1685.48
199.11	1773.54
199.33	1646.57
199.55	1660.90
199.77	1722.34
199.99	1851.36
200.21	1642.47
200.43	1746.92
200.65	1703.91
200.87	1611.75
201.09	1728.49
201.31	1710.05
201.53	1767.40
201.75	1716.20
201.97	1761.25
202.19	1681.38
202.41	1775.59
202.63	1818.60
202.85	1720.29
203.07	1703.91
203.29	1697.77
203.51	1597.42
203.73	1779.68
203.95	1882.08
204.17	1751.01
204.39	1718.25
204.61	1679.33
204.83	1640.42
205.05	1828.84
205.27	1804.26
205.49	1779.68
205.71	1710.05
205.93	1662.95
206.15	1730.53
206.37	1636.33
206.59	1738.73
206.81	1626.09
207.03	1675.24
207.25	1615.85
207.47	1728.49
207.69	1650.66
207.91	1816.55
208.13	1759.21
208.34	1722.34
208.56	1628.14
208.78	1732.58
209.00	1722.34
209.22	1689.57
209.44	1611.75
209.66	1703.91
209.88	1701.86
210.10	1697.77
210.32	1648.61
210.54	1828.84
210.76	1730.53
210.98	1673.19
211.20	1652.71
211.42	1701.86
211.64	1789.92
211.86	1712.10
212.08	1779.68
212.30	1691.62
212.52	1802.21
212.74	1730.53
212.96	1746.92
213.17	1746.92
213.39	1755.11
213.61	1804.26
213.83	1779.68
214.05	1665.00
214.27	1755.11
214.49	1722.34
214.71	1669.09
214.93	1765.35
215.15	1693.67
215.37	1822.69
215.59	1755.11
215.81	1763.30
216.03	1804.26
216.24	1675.24
216.46	1636.33
216.68	1732.58
216.90	1761.25
217.12	1861.60
217.34	1775.59
217.56	1697.77
217.78	1783.78
218.00	1767.40
218.22	1710.05
218.44	1722.34
218.66	1740.77
218.87	1828.84
219.09	1734.63
219.31	1667.05
219.53	1716.20
219.75	1695.72
219.97	1759.21
220.19	1716.20
220.41	1730.53
220.63	1746.92
220.85	1759.21
221.06	1691.62
221.28	1785.83
221.50	1767.40
221.72	1724.39
221.94	1648.61
222.16	1675.24
222.38	1761.25
222.60	1763.30
222.82	1693.67
223.03	1748.97
223.25	1648.61
223.47	1785.83
223.69	1777.64
223.91	1734.63
224.13	1665.00
224.35	1660.90
224.57	1789.92
224.78	1787.88
225.00	1681.38
225.22	1679.33
225.44	1691.62
225.66	1765.35
225.88	1701.86
226.10	1738.73
226.32	1742.82
226.53	1808.36
226.75	1671.14
226.97	1767.40
227.19	1722.34
227.41	1642.47
227.63	1669.09
227.85	1701.86
228.06	1755.11
228.28	1724.39
228.50	1738.73
228.72	1644.52
228.94	1681.38
229.16	1572.84
229.37	1751.01
229.59	1677.29
229.81	1703.91
230.03	1683.43
230.25	1701.86
230.47	1687.53
230.69	1685.48
230.90	1718.25
231.12	1599.46
231.34	1779.68
231.56	1759.21
231.78	1675.24
232.00	1624.04
232.21	1771.49
232.43	1677.29
232.65	1560.55
232.87	1714.15
233.09	1683.43
233.30	1654.76
233.52	1742.82
233.74	1677.29
233.96	1683.43
234.18	1714.15
234.40	1681.38
234.61	1857.51
234.83	1656.81
235.05	1691.62
235.27	1918.95
235.49	1732.58
235.70	1794.02
235.92	1841.12
236.14	1656.81
236.36	1880.04
236.58	1691.62
236.79	1734.63
237.01	1654.76
237.23	1697.77
237.45	1880.04
237.67	1720.29
237.88	1671.14
238.10	1783.78
238.32	1601.51
238.54	1665.00
238.76	1687.53
238.97	1654.76
239.19	1685.48
239.41	1689.57
239.63	1806.31
239.85	1667.05
240.06	1742.82
240.28	1701.86
240.50	1769.44
240.72	1683.43
240.93	1630.18
241.15	1806.31
241.37	1689.57
241.59	1796.07
241.81	1673.19
242.02	1691.62
242.24	1701.86
242.46	1804.26
242.68	1691.62
242.89	1724.39
243.11	1818.60
243.33	1738.73
243.55	1738.73
243.76	1755.11
243.98	1691.62
244.20	1679.33
244.42	1626.09
244.64	1673.19
244.85	1599.46
245.07	1699.81
245.29	1814.50
245.51	1738.73
245.72	1751.01
245.94	1701.86
246.16	1757.16
246.38	1761.25
246.59	1632.23
246.81	1665.00
247.03	1701.86
247.24	1716.20
247.46	1753.06
247.68	1636.33
247.90	1716.20
248.11	1601.51
248.33	1777.64
248.55	1693.67
248.77	1710.05
248.98	1665.00
249.20	1888.23
249.42	1724.39
249.64	1708.01
249.85	1671.14
250.07	1636.33
250.29	1718.25
250.50	1771.49
250.72	1683.43
250.94	1771.49
251.16	1798.12
251.37	1761.25
251.59	1726.44
251.81	1648.61
252.02	1775.59
252.24	1769.44
252.46	1791.97
252.68	1689.57
252.89	1773.54
253.11	1595.37
253.33	1763.30
253.54	1734.63
253.76	1607.66
253.98	1757.16
254.20	1687.53
254.41	1591.27
254.63	1703.91
254.85	1619.94
255.06	1671.14
255.28	1718.25
255.50	1705.96
255.71	1679.33
255.93	1652.71
256.15	1714.15
256.36	1751.01
256.58	1675.24
256.80	1734.63
257.02	1665.00
257.23	1634.28
257.45	1693.67
257.67	1730.53
257.88	1673.19
258.10	1689.57
258.32	1705.96
258.53	1724.39
258.75	1765.35
258.97	1628.14
259.18	1718.25
259.40	1714.15
259.62	1794.02
259.83	1796.07
260.05	1730.53
260.27	2076.64
260.48	1748.97
260.70	1662.95
260.92	1714.15
261.13	1691.62
261.35	1662.95
261.57	1673.19
261.78	1617.90
262.00	1667.05
262.22	1732.58
262.43	1621.99
262.65	1720.29
262.86	1658.85
263.08	1961.95
263.30	1748.97
263.51	1607.66
263.73	1779.68
263.95	1847.27
264.16	1669.09
264.38	1665.00
264.60	1759.21
264.81	1677.29
265.03	1777.64
265.25	1779.68
265.46	1673.19
265.68	1755.11
265.89	1763.30
266.11	1607.66
266.33	1724.39
266.54	1722.34
266.76	1744.87
266.98	1720.29
267.19	1779.68
267.41	1720.29
267.62	1722.34
267.84	1652.71
268.06	1691.62
268.27	1724.39
268.49	1812.45
268.70	1744.87
268.92	1691.62
269.14	1667.05
269.35	1636.33
269.57	1601.51
269.79	1681.38
270.00	1605.61
270.22	1767.40
270.43	1685.48
270.65	1576.94
270.87	1708.01
271.08	1695.72
271.30	1662.95
271.51	1638.38
271.73	1705.96
271.95	1748.97
272.16	1679.33
272.38	1697.77
272.59	1636.33
272.81	1808.36
273.02	1679.33
273.24	1638.38
273.46	1830.88
273.67	1722.34
273.89	1740.77
274.10	1583.08
274.32	1724.39
274.54	1769.44
274.75	1734.63
274.97	1677.29
275.18	1812.45
275.40	1705.96
275.61	1714.15
275.83	1730.53
276.05	1617.90
276.26	1642.47
276.48	1761.25
276.69	1683.43
276.91	1705.96
277.12	1806.31
277.34	1794.02
277.55	1783.78
277.77	1697.77
277.99	1742.82
278.20	1697.77
278.42	1679.33
278.63	1603.56
278.85	1681.38
279.06	1716.20
279.28	1718.25
279.49	1767.40
279.71	1789.92
279.93	1724.39
280.14	1679.33
280.36	1644.52
280.57	1675.24
280.79	1775.59
281.00	1665.00
281.22	1662.95
281.43	1816.55
281.65	1609.70
281.86	1689.57
282.08	1734.63
282.29	1834.98
282.51	1667.05
282.73	1621.99
282.94	1583.08
283.16	1716.20
283.37	1851.36
283.59	1673.19
283.80	1691.62
284.02	1658.85
284.23	1746.92
284.45	1669.09
284.66	1626.09
284.88	1691.62
285.09	1714.15
285.31	1708.01
285.52	1720.29
285.74	1667.05
285.95	1759.21
286.17	1777.64
286.38	1773.54
286.60	1617.90
286.81	1675.24
287.03	1726.44
287.24	1665.00
287.46	1748.97
287.67	1724.39
287.89	1806.31
288.10	1669.09
288.32	1693.67
288.53	1837.03
288.75	1730.53
288.96	1753.06
289.18	1652.71
289.39	1703.91
289.61	1746.92
289.82	1816.55
290.04	1867.75
290.25	1626.09
290.47	1703.91
290.68	1667.05
290.90	1654.76
291.11	1613.80
291.33	1718.25
291.54	1722.34
291.76	1703.91
291.97	1742.82
292.18	1667.05
292.40	1712.10
292.61	1675.24
292.83	1886.18
293.04	1804.26
293.26	1712.10
293.47	1730.53
293.69	1708.01
293.90	1695.72
294.12	1742.82
294.33	1730.53
294.55	1720.29
294.76	1800.16
294.97	1783.78
295.19	1779.68
295.40	1755.11
295.62	1789.92
295.83	1771.49
296.05	1613.80
296.26	1779.68
296.48	1665.00
296.69	1751.01
296.90	1718.25
297.12	1730.53
297.33	1800.16
297.55	1761.25
297.76	1705.96
297.98	1771.49
298.19	1646.57
298.41	1703.91
298.62	1650.66
298.83	1882.08
299.05	1673.19
299.26	1734.63
299.48	1697.77
299.69	1652.71
299.90	1757.16
300.12	1683.43
300.33	1789.92
300.55	1787.88
300.76	1701.86
300.98	1636.33
301.19	1748.97
301.40	1679.33
301.62	1744.87
301.83	1708.01
302.05	1783.78
302.26	1732.58
302.47	1699.81
302.69	1578.98
302.90	1712.10
303.12	1603.56
303.33	1751.01
303.54	1837.03
303.76	1669.09
303.97	1640.42
304.19	1863.65
304.40	1687.53
304.61	1767.40
304.83	1832.93
305.04	1814.50
305.26	1791.97
305.47	1667.05
305.68	1732.58
305.90	1609.70
306.11	1759.21
306.33	1689.57
306.54	1669.09
306.75	1736.68
306.97	1669.09
307.18	1716.20
307.39	1761.25
307.61	1748.97
307.82	1662.95
308.04	1730.53
308.25	1665.00
308.46	1761.25
308.68	1720.29
308.89	1746.92
309.10	1777.64
309.32	1738.73
309.53	1679.33
309.74	1763.30
309.96	1710.05
310.17	1755.11
310.39	1605.61
310.60	1714.15
310.81	1689.57
311.03	1638.38
311.24	1826.79
311.45	1759.21
311.67	1794.02
311.88	1748.97
312.09	1685.48
312.31	1624.04
312.52	1650.66
312.73	1726.44
312.95	1652.71
313.16	1626.09
313.37	1781.73
313.59	1748.97
313.80	1699.81
314.01	1783.78
314.23	1689.57
314.44	1638.38
314.65	1652.71
314.87	1697.77
315.08	1662.95
315.29	1716.20
315.51	1726.44
315.72	1648.61
315.93	1851.36
316.15	1812.45
316.36	1671.14
316.57	1708.01
316.79	1742.82
317.00	1685.48
317.21	1794.02
317.43	1742.82
317.64	1693.67
317.85	1671.14
318.07	1728.49
318.28	1771.49
318.49	1806.31
318.70	1888.23
318.92	1775.59
319.13	1812.45
319.34	1955.81
319.56	1753.06
319.77	1865.70
319.98	1812.45
320.20	1834.98
320.41	1751.01
320.62	1791.97
320.83	1660.90
321.05	1828.84
321.26	1761.25
321.47	1718.25
321.69	1832.93
321.90	1609.70
322.11	1722.34
322.32	1693.67
322.54	1775.59
322.75	1677.29
322.96	1820.64
323.18	1660.90
323.39	1677.29
323.60	1714.15
323.81	1808.36
324.03	1644.52
324.24	1660.90
324.45	1697.77
324.66	1701.86
324.88	1738.73
325.09	1810.40
325.30	1683.43
325.52	1720.29
325.73	1763.30
325.94	1607.66
326.15	1576.94
326.37	1724.39
326.58	1826.79
326.79	1783.78
327.00	1695.72
327.22	1665.00
327.43	1681.38
327.64	1656.81
327.85	1720.29
328.07	1781.73
328.28	1857.51
328.49	1695.72
328.70	1736.68
328.92	1781.73
329.13	1697.77
329.34	1798.12
329.55	1779.68
329.76	1681.38
329.98	1660.90
330.19	1744.87
330.40	1718.25
330.61	1722.34
330.83	1683.43
331.04	1708.01
331.25	1722.34
331.46	1699.81
331.68	1683.43
331.89	1746.92
332.10	1689.57
332.31	1683.43
332.52	1630.18
332.74	1779.68
332.95	1640.42
333.16	1677.29
333.37	1757.16
333.58	1712.10
333.80	1701.86
334.01	1673.19
334.22	1673.19
334.43	1679.33
334.64	1712.10
334.86	1671.14
335.07	1683.43
335.28	1808.36
335.49	1634.28
335.70	1740.77
335.92	1812.45
336.13	1884.13
336.34	1669.09
336.55	1740.77
336.76	1800.16
336.98	1660.90
337.19	1648.61
337.40	1841.12
337.61	1851.36
337.82	1685.48
338.04	1722.34
338.25	1665.00
338.46	1738.73
338.67	1714.15
338.88	1613.80
339.09	1597.42
339.31	1634.28
339.52	1621.99
339.73	1660.90
339.94	1726.44
340.15	1779.68
340.36	1691.62
340.58	1656.81
340.79	1697.77
341.00	1742.82
341.21	1619.94
341.42	1789.92
341.63	1671.14
341.85	1681.38
342.06	1697.77
342.27	1724.39
342.48	1748.97
342.69	1607.66
342.90	1730.53
343.12	1730.53
343.33	1683.43
343.54	1740.77
343.75	1912.80
343.96	1693.67
344.17	1673.19
344.38	1765.35
344.60	1615.85
344.81	1679.33
345.02	1681.38
345.23	1779.68
345.44	1812.45
345.65	1722.34
345.86	1804.26
346.07	1648.61
346.29	1746.92
346.50	1775.59
346.71	1773.54
346.92	1767.40
347.13	1843.17
347.34	1691.62
347.55	1632.23
347.76	1796.07
347.98	1617.90
348.19	1675.24
348.40	1759.21
348.61	1665.00
348.82	1796.07
349.03	1746.92
349.24	1687.53
349.45	1871.84
349.66	1693.67
349.88	1714.15
350.09	1626.09
350.30	1660.90
350.51	1796.07
350.72	1681.38
350.93	1734.63
351.14	1693.67
351.35	1748.97
351.56	1765.35
351.77	1816.55
351.99	1759.21
352.20	1871.84
352.41	1769.44
352.62	1597.42
352.83	1748.97
353.04	1771.49
353.25	1736.68
353.46	1820.64
353.67	1796.07
353.88	1624.04
354.09	1748.97
354.30	1732.58
354.52	1705.96
354.73	1689.57
354.94	1611.75
355.15	1665.00
355.36	1744.87
355.57	1736.68
355.78	1738.73
355.99	1705.96
356.20	1611.75
356.41	1830.88
356.62	1673.19
356.83	1697.77
357.04	1771.49
357.25	1689.57
357.46	1710.05
357.68	1710.05
357.89	1634.28
358.10	1738.73
358.31	1675.24
358.52	1722.34
358.73	1667.05
358.94	1708.01
359.15	1640.42
359.36	1716.20
359.57	1720.29
359.78	1697.77
359.99	1775.59
360.20	1597.42
360.41	1656.81
360.62	1783.78
360.83	1710.05
361.04	1740.77
361.25	1728.49
361.46	1865.70
361.67	1738.73
361.88	1832.93
362.09	1714.15
362.30	1691.62
362.51	1597.42
362.72	1681.38
362.93	1775.59
363.14	1738.73
363.35	1755.11
363.56	1748.97
363.78	1761.25
363.99	1761.25
364.20	1714.15
364.41	1738.73
364.62	1742.82
364.83	1734.63
365.04	1652.71
365.25	1699.81
365.46	1816.55
365.67	1650.66
365.88	1748.97
366.09	1714.15
366.30	1658.85
366.51	1685.48
366.72	1640.42
366.93	1652.71
367.14	1724.39
367.35	1785.83
367.56	1718.25
367.77	1869.80
367.98	1669.09
368.18	1728.49
368.39	1746.92
368.60	1673.19
368.81	1781.73
369.02	1681.38
369.23	1634.28
369.44	1640.42
369.65	1695.72
369.86	1708.01
370.07	1775.59
370.28	1740.77
370.49	1753.06
370.70	1701.86
370.91	1677.29
371.12	1656.81
371.33	1789.92
371.54	1732.58
371.75	1767.40
371.96	1566.70
372.17	1720.29
372.38	1634.28
372.59	1841.12
372.80	1679.33
373.01	1689.57
373.22	1734.63
373.43	1685.48
373.64	1703.91
373.85	1794.02
374.06	1845.22
374.26	1761.25
374.47	1757.16
374.68	1773.54
374.89	1699.81
375.10	1689.57
375.31	1773.54
375.52	1730.53
375.73	1730.53
375.94	1578.98
376.15	1796.07
376.36	1699.81
376.57	1705.96
376.78	1581.03
376.99	1763.30
377.20	1730.53
377.40	1710.05
377.61	1845.22
377.82	1640.42
378.03	1808.36
378.24	1814.50
378.45	1710.05
378.66	1701.86
378.87	1671.14
379.08	1621.99
379.29	1640.42
379.50	1804.26
379.71	1699.81
379.91	1785.83
380.12	1718.25
380.33	1751.01
380.54	1662.95
380.75	1701.86
380.96	1738.73
381.17	1763.30
381.38	1671.14
381.59	1730.53
381.80	1722.34
382.00	1806.31
382.21	1732.58
382.42	1820.64
382.63	1845.22
382.84	1767.40
383.05	1820.64
383.26	1781.73
383.47	1742.82
383.68	1826.79
383.88	1683.43
384.09	1796.07
384.30	1830.88
384.51	1669.09
384.72	1662.95
384.93	1697.77
385.14	1724.39
385.35	1851.36
385.55	1601.51
385.76	1710.05
385.97	1734.63
386.18	1695.72
386.39	1701.86
386.60	1652.71
386.81	1746.92
387.02	1716.20
387.22	1728.49
387.43	1755.11
387.64	1757.16
387.85	1853.41
388.06	2273.25
388.27	4251.58
388.48	6522.78
388.68	7976.84
388.89	9244.53
389.10	9625.45
389.31	8423.30
389.52	7350.16
389.73	6670.23
389.93	6217.63
390.14	5797.80
390.35	5013.43
390.56	4665.27
390.77	3719.11
390.98	2891.73
391.18	2457.56
391.39	2121.70
391.60	1845.22
391.81	1783.78
392.02	1726.44
392.23	1861.60
392.43	1714.15
392.64	1837.03
392.85	1660.90
393.06	1843.17
393.27	1779.68
393.47	1714.15
393.68	1695.72
393.89	1673.19
394.10	1816.55
394.31	1679.33
394.52	1697.77
394.72	1632.23
394.93	1804.26
395.14	1644.52
395.35	1730.53
395.56	1615.85
395.76	1804.26
395.97	1798.12
396.18	1853.41
396.39	1855.46
396.60	1984.48
396.80	1910.75
397.01	1902.56
397.22	1824.74
397.43	1912.80
397.64	1755.11
397.84	1789.92
398.05	1841.12
398.26	1830.88
398.47	1787.88
398.67	1757.16
398.88	1767.40
399.09	1746.92
399.30	1708.01
399.51	1779.68
399.71	1712.10
399.92	1753.06
400.13	1769.44
400.34	1658.85
400.54	1681.38
400.75	1794.02
400.96	1714.15
401.17	1822.69
401.37	1794.02
401.58	1763.30
401.79	1634.28
402.00	1869.80
402.21	2043.87
402.41	1861.60
402.62	2011.11
402.83	1990.63
403.04	2031.58
403.24	1998.82
403.45	1796.07
403.66	1920.99
403.87	1830.88
404.07	1834.98
404.28	1908.71
404.49	1814.50
404.70	1746.92
404.90	1748.97
405.11	1748.97
405.32	1781.73
405.52	1691.62
405.73	1710.05
405.94	1701.86
406.15	1738.73
406.35	1820.64
406.56	1753.06
406.77	1740.77
406.98	1791.97
407.18	1646.57
407.39	1798.12
407.60	1677.29
407.80	1757.16
408.01	1597.42
408.22	1787.88
408.43	1667.05
408.63	1796.07
408.84	1740.77
409.05	1697.77
409.25	1665.00
409.46	1638.38
409.67	1714.15
409.88	1665.00
410.08	1705.96
410.29	1677.29
410.50	1785.83
410.70	1712.10
410.91	1677.29
411.12	1771.49
411.32	1710.05
411.53	1683.43
411.74	1800.16
411.95	1832.93
412.15	1796.07
412.36	1808.36
412.57	1796.07
412.77	1757.16
412.98	1755.11
413.19	1730.53
413.39	1675.24
413.60	1693.67
413.81	1822.69
414.01	1687.53
414.22	1722.34
414.43	1783.78
414.63	1746.92
414.84	1691.62
415.05	1740.77
415.25	1656.81
415.46	1794.02
415.67	1734.63
415.87	1695.72
416.08	1644.52
416.29	1730.53
416.49	1779.68
416.70	1650.66
416.91	1611.75
417.11	1699.81
417.32	1769.44
417.53	1763.30
417.73	1712.10
417.94	1720.29
418.15	1665.00
418.35	1656.81
418.56	1683.43
418.77	1822.69
418.97	1777.64
419.18	1665.00
419.38	1595.37
419.59	1681.38
419.80	1834.98
420.00	1701.86
420.21	1726.44
420.42	1863.65
420.62	1814.50
420.83	1689.57
421.04	1667.05
421.24	1746.92
421.45	1779.68
421.65	1718.25
421.86	1691.62
422.07	1722.34
422.27	1746.92
422.48	1724.39
422.69	1658.85
422.89	1710.05
423.10	1705.96
423.30	1656.81
423.51	1753.06
423.72	1763.30
423.92	1779.68
424.13	1654.76
424.33	1730.53
424.54	1738.73
424.75	1695.72
424.95	1798.12
425.16	1751.01
425.36	1611.75
425.57	1787.88
425.78	1755.11
425.98	1777.64
426.19	1673.19
426.39	1742.82
426.60	1738.73
426.81	1814.50
427.01	1656.81
427.22	1708.01
427.42	1630.18
427.63	1703.91
427.83	1794.02
428.04	1759.21
428.25	1916.90
428.45	1781.73
428.66	1753.06
428.86	1695.72
429.07	1720.29
429.28	1671.14
429.48	1634.28
429.69	1732.58
429.89	1736.68
430.10	1599.46
430.30	1753.06
430.51	1734.63
430.71	1603.56
430.92	1738.73
431.13	1734.63
431.33	1771.49
431.54	1691.62
431.74	1882.08
431.95	1888.23
432.15	1644.52
432.36	1726.44
432.56	1812.45
432.77	1824.74
432.98	1775.59
433.18	1697.77
433.39	1705.96
433.59	1755.11
433.80	1806.31
434.00	1861.60
434.21	1671.14
434.41	1669.09
434.62	1800.16
434.82	1656.81
435.03	1705.96
435.23	1742.82
435.44	1607.66
435.64	1746.92
435.85	1802.21
436.06	1769.44
436.26	1800.16
436.47	1765.35
436.67	1712.10
436.88	1691.62
437.08	1722.34
437.29	1800.16
437.49	1738.73
437.70	1857.51
437.90	1763.30
438.11	1804.26
438.31	1818.60
438.52	1888.23
438.72	1804.26
438.93	1912.80
439.13	1820.64
439.34	1808.36
439.54	1753.06
439.75	1845.22
439.95	1740.77
440.16	1705.96
440.36	1787.88
440.57	1796.07
440.77	1738.73
440.98	1736.68
441.18	1781.73
441.39	1796.07
441.59	1667.05
441.80	1853.41
442.00	1703.91
442.21	1812.45
442.41	1628.14
442.62	1839.08
442.82	1660.90
443.02	1769.44
443.23	1775.59
443.43	1730.53
443.64	1826.79
443.84	1632.23
444.05	1830.88
444.25	1701.86
444.46	1751.01
444.66	1701.86
444.87	1859.56
445.07	1710.05
445.28	1738.73
445.48	1828.84
445.69	1853.41
445.89	1968.10
446.09	1804.26
446.30	1920.99
446.50	2641.88
446.71	3633.10
446.91	4401.08
447.12	4624.31
447.32	4728.76
447.53	4315.07
447.73	3770.31
447.93	3471.31
448.14	3172.30
448.34	3174.35
448.55	2895.83
448.75	2856.92
448.96	2668.50
449.16	2428.89
449.36	2297.82
449.57	2009.06
449.77	1945.57
449.98	1757.16
450.18	1865.70
450.39	1802.21
450.59	1753.06
450.79	1775.59
451.00	1648.61
451.20	1808.36
451.41	1726.44
451.61	1697.77
451.81	1806.31
452.02	1718.25
452.22	1626.09
452.43	1673.19
452.63	1681.38
452.84	1681.38
453.04	1681.38
453.24	1800.16
453.45	1687.53
453.65	1714.15
453.86	1800.16
454.06	1824.74
454.26	1794.02
454.47	1634.28
454.67	1867.75
454.87	1804.26
455.08	1671.14
455.28	1865.70
455.49	1757.16
455.69	1675.24
455.89	1845.22
456.10	1849.32
456.30	1781.73
456.51	1800.16
456.71	1722.34
456.91	1773.54
457.12	1771.49
457.32	1837.03
457.52	1744.87
457.73	1839.08
457.93	1806.31
458.14	1699.81
458.34	1644.52
458.54	1705.96
458.75	1705.96
458.95	1759.21
459.15	1841.12
459.36	1767.40
459.56	1789.92
459.76	1867.75
459.97	1728.49
460.17	1791.97
460.37	1767.40
460.58	1738.73
460.78	1773.54
460.99	1767.40
461.19	1738.73
461.39	1695.72
461.60	1695.72
461.80	1779.68
462.00	1691.62
462.21	1757.16
462.41	1712.10
462.61	1703.91
462.82	1673.19
463.02	1779.68
463.22	1720.29
463.43	1832.93
463.63	1824.74
463.83	1794.02
464.04	1746.92
464.24	1708.01
464.44	1722.34
464.64	1753.06
464.85	1789.92
465.05	1781.73
465.25	1779.68
465.46	1744.87
465.66	1740.77
465.86	1740.77
466.07	1736.68
466.27	1697.77
466.47	1673.19
466.68	1621.99
466.88	1775.59
467.08	1769.44
467.29	1822.69
467.49	1771.49
467.69	1755.11
467.89	1738.73
468.10	1740.77
468.30	1800.16
468.50	1753.06
468.71	1732.58
468.91	1640.42
469.11	1824.74
469.31	1744.87
469.52	1712.10
469.72	1785.83
469.92	1894.37
470.13	1794.02
470.33	1757.16
470.53	1849.32
470.73	2080.74
470.94	2281.44
471.14	2332.64
471.34	2461.66
471.54	2394.08
471.75	2258.91
471.95	2189.28
472.15	2093.02
472.36	2117.60
472.56	2119.65
472.76	2054.11
472.96	2029.54
473.17	1900.52
473.37	1941.47
473.57	1738.73
473.77	1828.84
473.98	1857.51
474.18	1705.96
474.38	1927.14
474.58	1736.68
474.79	1683.43
474.99	1789.92
475.19	1814.50
475.39	1619.94
475.60	1785.83
475.80	1763.30
476.00	1730.53
476.20	1761.25
476.41	1710.05
476.61	1851.36
476.81	1855.46
477.01	1658.85
477.21	1896.42
477.42	1771.49
477.62	1761.25
477.82	1808.36
478.02	1757.16
478.23	1732.58
478.43	1710.05
478.63	1611.75
478.83	1703.91
479.03	1640.42
479.24	1714.15
479.44	1863.65
479.64	1718.25
479.84	1599.46
480.04	1626.09
480.25	1720.29
480.45	1648.61
480.65	1726.44
480.85	1746.92
481.06	1742.82
481.26	1796.07
481.46	1759.21
481.66	1675.24
481.86	1730.53
482.06	1869.80
482.27	1697.77
482.47	1691.62
482.67	1722.34
482.87	1673.19
483.07	1785.83
483.28	1681.38
483.48	1648.61
483.68	1656.81
483.88	1718.25
484.08	1669.09
484.29	1640.42
484.49	1746.92
484.69	1658.85
484.89	1832.93
485.09	1677.29
485.29	1800.16
485.50	1695.72
485.70	1746.92
485.90	1882.08
486.10	1777.64
486.30	1738.73
486.50	1834.98
486.71	1708.01
486.91	1744.87
487.11	1753.06
487.31	1697.77
487.51	1802.21
487.71	1722.34
487.91	1597.42
488.12	1701.86
488.32	1519.59
488.52	1724.39
488.72	1669.09
488.92	1703.91
489.12	1714.15
489.32	1857.51
489.53	1810.40
489.73	1656.81
489.93	1791.97
490.13	1599.46
490.33	1685.48
490.53	1751.01
490.73	1787.88
490.94	1675.24
491.14	1773.54
491.34	1777.64
491.54	2054.11
491.74	2494.43
491.94	3074.00
492.14	2910.16
492.34	3053.52
492.54	2746.33
492.75	2418.65
492.95	2504.67
493.15	2275.29
493.35	2269.15
493.55	2166.75
493.75	2084.83
493.95	2054.11
494.15	2025.44
494.35	1918.95
494.56	1882.08
494.76	1830.88
494.96	1804.26
495.16	1796.07
495.36	1773.54
495.56	1755.11
495.76	1765.35
495.96	1738.73
496.16	1687.53
496.36	1787.88
496.56	1718.25
496.77	1787.88
496.97	1726.44
497.17	1769.44
497.37	1714.15
497.57	1843.17
497.77	1730.53
497.97	1632.23
498.17	1744.87
498.37	1685.48
498.57	1779.68
498.77	1691.62
498.97	1687.53
499.17	1863.65
499.38	1740.77
499.58	1705.96
499.78	1742.82
499.98	1845.22
500.18	1695.72
500.38	1712.10
500.58	1935.33
500.78	2537.43
500.98	4251.58
501.18	5607.34
501.38	6721.43
501.58	7079.83
501.78	6520.73
501.98	5490.60
502.18	5017.52
502.38	4403.13
502.58	4114.37
502.78	3684.30
502.98	3565.51
503.18	3391.44
503.38	3127.25
503.59	2680.79
503.79	2648.02
503.99	2467.80
504.19	2263.01
504.39	2166.75
504.59	2166.75
504.79	2113.50
504.99	2105.31
505.19	1906.66
505.39	1841.12
505.59	1916.90
505.79	1923.04
505.99	1908.71
506.19	1808.36
506.39	1912.80
506.59	1775.59
506.79	1777.64
506.99	1824.74
507.19	1818.60
507.39	1779.68
507.59	1652.71
507.79	1685.48
507.99	1673.19
508.19	1681.38
508.39	1650.66
508.59	1701.86
508.79	1826.79
508.99	1834.98
509.19	1722.34
509.39	1824.74
509.59	1673.19
509.79	1736.68
509.99	1714.15
510.19	1763.30
510.39	1751.01
510.59	1744.87
510.79	1753.06
510.99	1683.43
511.19	1746.92
511.39	1871.84
511.59	1828.84
511.79	1845.22
511.99	1730.53
512.19	1796.07
512.38	1779.68
512.58	1705.96
512.78	1787.88
512.98	1724.39
513.18	1794.02
513.38	1667.05
513.58	1783.78
513.78	1710.05
513.98	1730.53
514.18	1810.40
514.38	1699.81
514.58	1708.01
514.78	1642.47
514.98	1677.29
515.18	1791.97
515.38	1683.43
515.58	1861.60
515.78	1656.81
515.98	1705.96
516.18	1812.45
516.38	1710.05
516.57	1769.44
516.77	1730.53
516.97	1826.79
517.17	1640.42
517.37	1636.33
517.57	1710.05
517.77	1763.30
517.97	1665.00
518.17	1763.30
518.37	1712.10
518.57	1748.97
518.77	1673.19
518.97	1677.29
519.16	1777.64
519.36	1720.29
519.56	1730.53
519.76	1714.15
519.96	1794.02
520.16	1843.17
520.36	1624.04
520.56	1767.40
520.76	1673.19
520.96	1644.52
521.16	1828.84
521.35	1785.83
521.55	1898.47
521.75	1705.96
521.95	1730.53
522.15	1705.96
522.35	1683.43
522.55	1695.72
522.75	1845.22
522.95	1624.04
523.14	1718.25
523.34	1802.21
523.54	1728.49
523.74	1785.83
523.94	1705.96
524.14	1710.05
524.34	1767.40
524.54	1755.11
524.73	1740.77
524.93	1796.07
525.13	1669.09
525.33	1714.15
525.53	1916.90
525.73	1812.45
525.93	1755.11
526.13	1767.40
526.32	1744.87
526.52	1775.59
526.72	1757.16
526.92	1804.26
527.12	1777.64
527.32	1644.52
527.52	1822.69
527.71	1701.86
527.91	1730.53
528.11	1689.57
528.31	1734.63
528.51	1730.53
528.71	1849.32
528.90	1828.84
529.10	1832.93
529.30	1820.64
529.50	1607.66
529.70	1798.12
529.90	1738.73
530.09	1808.36
530.29	1689.57
530.49	1687.53
530.69	1937.38
530.89	1779.68
531.09	1740.77
531.28	1699.81
531.48	1818.60
531.68	1791.97
531.88	1705.96
532.08	1789.92
532.28	1732.58
532.47	1705.96
532.67	1875.94
532.87	1765.35
533.07	1712.10
533.27	1851.36
533.46	1746.92
533.66	1693.67
533.86	1744.87
534.06	1677.29
534.26	1755.11
534.45	1720.29
534.65	1791.97
534.85	1796.07
535.05	1703.91
535.25	1812.45
535.44	1699.81
535.64	1845.22
535.84	1714.15
536.04	1759.21
536.24	1732.58
536.43	1656.81
536.63	1716.20
536.83	1712.10
537.03	1779.68
537.22	1708.01
537.42	1722.34
537.62	1761.25
537.82	1742.82
538.02	1810.40
538.21	1828.84
538.41	1914.85
538.61	1814.50
538.81	1814.50
539.00	1869.80
539.20	1720.29
539.40	1820.64
539.60	1800.16
539.79	1757.16
539.99	1757.16
540.19	1669.09
540.39	1656.81
540.58	1726.44
540.78	1736.68
540.98	1685.48
541.18	1720.29
541.37	1826.79
541.57	1677.29
541.77	1714.15
541.97	1617.90
542.16	1699.81
542.36	1718.25
542.56	1773.54
542.76	1875.94
542.95	1767.40
543.15	1802.21
543.35	1777.64
543.54	1652.71
543.74	1675.24
543.94	1832.93
544.14	1615.85
544.33	1712.10
544.53	1714.15
544.73	1677.29
544.93	1748.97
545.12	1746.92
545.32	1751.01
545.52	1730.53
545.71	1636.33
545.91	1646.57
546.11	1753.06
546.30	1759.21
546.50	1843.17
546.70	1769.44
546.90	1757.16
547.09	1658.85
547.29	1722.34
547.49	1796.07
547.68	1654.76
547.88	1734.63
548.08	1804.26
548.27	2166.75
548.47	1759.21
548.67	1769.44
548.87	1810.40
549.06	1677.29
549.26	1816.55
549.46	1740.77
549.65	1697.77
549.85	1722.34
550.05	1753.06
550.24	1708.01
550.44	1746.92
550.64	1736.68
550.83	1732.58
551.03	1859.56
551.23	1837.03
551.42	1773.54
551.62	1746.92
551.82	1753.06
552.01	1734.63
552.21	1736.68
552.41	1662.95
552.60	1767.40
552.80	1804.26
553.00	1665.00
553.19	1728.49
553.39	1804.26
553.59	1716.20
553.78	1726.44
553.98	1775.59
554.17	1718.25
554.37	1724.39
554.57	1697.77
554.76	1763.30
554.96	1701.86
555.16	1726.44
555.35	1753.06
555.55	1771.49
555.75	1697.77
555.94	1794.02
556.14	1609.70
556.33	1814.50
556.53	1718.25
556.73	1726.44
556.92	1857.51
557.12	1798.12
557.32	1884.13
557.51	1826.79
557.71	1724.39
557.90	1867.75
558.10	1843.17
558.30	1722.34
558.49	1746.92
558.69	1746.92
558.88	1812.45
559.08	1748.97
559.28	1669.09
559.47	1693.67
559.67	1832.93
559.86	1871.84
560.06	1781.73
560.26	1755.11
560.45	1796.07
560.65	1757.16
560.84	1818.60
561.04	1746.92
561.24	1910.75
561.43	1748.97
561.63	1910.75
561.82	1720.29
562.02	1771.49
562.22	1724.39
562.41	1685.48
562.61	1759.21
562.80	1632.23
563.00	1882.08
563.19	1828.84
563.39	1769.44
563.59	1724.39
563.78	1755.11
563.98	1626.09
564.17	1642.47
564.37	1578.98
564.56	1787.88
564.76	1687.53
564.96	1834.98
565.15	1804.26
565.35	1914.85
565.54	1648.61
565.74	1714.15
565.93	1759.21
566.13	1748.97
566.32	1834.98
566.52	1839.08
566.71	1767.40
566.91	1820.64
567.11	1722.34
567.30	1667.05
567.50	1783.78
567.69	1800.16
567.89	1691.62
568.08	1685.48
568.28	1767.40
568.47	1642.47
568.67	1705.96
568.86	1718.25
569.06	1818.60
569.25	1814.50
569.45	1658.85
569.64	1687.53
569.84	1769.44
570.04	1785.83
570.23	1705.96
570.43	1697.77
570.62	1810.40
570.82	1787.88
571.01	1626.09
571.21	1693.67
571.40	1695.72
571.60	1755.11
571.79	1820.64
571.99	1834.98
572.18	1742.82
572.38	1757.16
572.57	1703.91
572.77	1804.26
572.96	1912.80
573.16	1736.68
573.35	1765.35
573.55	1837.03
573.74	1808.36
573.94	1753.06
574.13	1703.91
574.33	1796.07
574.52	1847.27
574.71	1738.73
574.91	1820.64
575.10	1730.53
575.30	1785.83
575.49	1714.15
575.69	1708.01
575.88	1791.97
576.08	1755.11
576.27	1873.89
576.47	1746.92
576.66	1806.31
576.86	1775.59
577.05	1791.97
577.25	1765.35
577.44	1898.47
577.64	1751.01
577.83	1816.55
578.02	1730.53
578.22	1722.34
578.41	1824.74
578.61	1769.44
578.80	1683.43
579.00	1814.50
579.19	1708.01
579.39	1804.26
579.58	1787.88
579.77	1734.63
579.97	1949.67
580.16	1789.92
580.36	1894.37
580.55	1886.18
580.75	1812.45
580.94	1710.05
581.13	1824.74
581.33	1867.75
581.52	1761.25
581.72	1777.64
581.91	1900.52
582.11	1769.44
582.30	1812.45
582.49	1787.88
582.69	1812.45
582.88	1744.87
583.08	1755.11
583.27	1771.49
583.47	1746.92
583.66	1718.25
583.85	1730.53
584.05	1804.26
584.24	1855.46
584.44	1857.51
584.63	1798.12
584.82	1882.08
585.02	1755.11
585.21	1791.97
585.41	1847.27
585.60	1853.41
585.79	1941.47
585.99	1953.76
586.18	1843.17
586.37	2176.99
586.57	3342.28
586.76	9625.45
586.96	23826.07
587.15	33510.91
587.34	39493.03
587.54	40916.37
587.73	35442.15
587.93	25278.08
588.12	21063.36
588.31	17653.49
588.51	15992.59
588.70	14872.35
588.89	13983.53
589.09	12042.06
589.28	10757.98
589.47	9131.89
589.67	7749.51
589.86	6365.09
590.06	4677.56
590.25	3807.17
590.44	3065.81
590.64	2486.23
590.83	2220.00
591.02	2045.92
591.22	1990.63
591.41	1902.56
591.60	1802.21
591.80	1992.67
591.99	1775.59
592.18	1796.07
592.38	1820.64
592.57	1806.31
592.76	1775.59
592.96	1804.26
593.15	1826.79
593.34	1820.64
593.54	1787.88
593.73	1853.41
593.92	1714.15
594.12	1765.35
594.31	1773.54
594.50	1812.45
594.70	1755.11
594.89	1871.84
595.08	1779.68
595.28	1822.69
595.47	1886.18
595.66	1800.16
595.86	1693.67
596.05	1751.01
596.24	1765.35
596.43	1886.18
596.63	1882.08
596.82	1806.31
597.01	1734.63
597.21	1763.30
597.40	1753.06
597.59	1787.88
597.79	1761.25
597.98	1832.93
598.17	1783.78
598.36	1798.12
598.56	1730.53
598.75	1675.24
598.94	1718.25
599.14	1806.31
599.33	1681.38
599.52	1890.28
599.71	1744.87
599.91	1796.07
600.10	1837.03
600.29	1677.29
600.48	1769.44
600.68	1726.44
600.87	1781.73
601.06	1658.85
601.26	1681.38
601.45	1783.78
601.64	1687.53
601.83	1742.82
602.03	1781.73
602.22	1650.66
602.41	1783.78
602.60	1853.41
602.80	1787.88
602.99	1824.74
603.18	1779.68
603.37	1787.88
603.57	1808.36
603.76	1730.53
603.95	1777.64
604.14	1748.97
604.34	1746.92
604.53	1740.77
604.72	1740.77
604.91	1740.77
605.10	1857.51
605.30	1667.05
605.49	1834.98
605.68	1732.58
605.87	1824.74
606.07	1748.97
606.26	1685.48
606.45	1730.53
606.64	1800.16
606.84	1703.91
607.03	1767.40
607.22	1751.01
607.41	1648.61
607.60	1689.57
607.80	1826.79
607.99	1693.67
608.18	1839.08
608.37	1773.54
608.56	1648.61
608.76	1746.92
608.95	1884.13
609.14	1701.86
609.33	1734.63
609.52	1783.78
609.72	1687.53
609.91	1767.40
610.10	1705.96
610.29	1861.60
610.48	1822.69
610.68	1779.68
610.87	1726.44
611.06	1880.04
611.25	1720.29
611.44	1748.97
611.63	1687.53
611.83	1875.94
612.02	1673.19
612.21	1816.55
612.40	1710.05
612.59	1683.43
612.79	1662.95
612.98	1781.73
613.17	1800.16
613.36	1720.29
613.55	1796.07
613.74	1671.14
613.93	1703.91
614.13	1722.34
614.32	1722.34
614.51	1722.34
614.70	1767.40
614.89	1730.53
615.08	1763.30
615.28	2133.98
615.47	1619.94
615.66	1746.92
615.85	1718.25
616.04	1830.88
616.23	1708.01
616.42	1722.34
616.62	1748.97
616.81	1738.73
617.00	1722.34
617.19	1755.11
617.38	1765.35
617.57	1742.82
617.76	1751.01
617.95	1824.74
618.15	1787.88
618.34	1824.74
618.53	1613.80
618.72	1775.59
618.91	1826.79
619.10	1837.03
619.29	1775.59
619.48	1722.34
619.68	1751.01
619.87	1759.21
620.06	1675.24
620.25	1794.02
620.44	1767.40
620.63	1744.87
620.82	1746.92
621.01	1787.88
621.20	1783.78
621.39	1722.34
621.59	1751.01
621.78	1730.53
621.97	1724.39
622.16	1791.97
622.35	1779.68
622.54	1730.53
622.73	1736.68
622.92	1640.42
623.11	1816.55
623.30	1714.15
623.49	1767.40
623.68	1699.81
623.88	1900.52
624.07	1740.77
624.26	1769.44
624.45	1697.77
624.64	1734.63
624.83	1763.30
625.02	1765.35
625.21	1775.59
625.40	1755.11
625.59	1806.31
625.78	1757.16
625.97	1759.21
626.16	1742.82
626.35	1726.44
626.54	1734.63
626.74	1796.07
626.93	1679.33
627.12	1714.15
627.31	1820.64
627.50	1781.73
627.69	1800.16
627.88	1621.99
628.07	1748.97
628.26	1656.81
628.45	1654.76
628.64	1648.61
628.83	1736.68
629.02	1638.38
629.21	1771.49
629.40	1746.92
629.59	1679.33
629.78	1703.91
629.97	1744.87
630.16	1806.31
630.35	1728.49
630.54	1771.49
630.73	1687.53
630.92	1722.34
631.11	1660.90
631.30	1712.10
631.49	1701.86
631.68	1765.35
631.87	1693.67
632.06	1689.57
632.25	1888.23
632.44	1728.49
632.63	1697.77
632.82	1773.54
633.01	1683.43
633.20	1669.09
633.39	1701.86
633.58	1628.14
633.77	1703.91
633.96	1775.59
634.15	1816.55
634.34	1701.86
634.53	1683.43
634.72	1732.58
634.91	1673.19
635.10	1765.35
635.29	1679.33
635.48	1769.44
635.67	1646.57
635.86	1705.96
636.05	1779.68
636.24	1699.81
636.43	1824.74
636.62	1763.30
636.81	1640.42
637.00	1802.21
637.19	1699.81
637.38	1705.96
637.57	1701.86
637.76	1726.44
637.95	1767.40
638.14	1751.01
638.33	1665.00
638.52	1734.63
638.71	1673.19
638.89	1642.47
639.08	1867.75
639.27	1771.49
639.46	1669.09
639.65	1812.45
639.84	1783.78
640.03	1773.54
640.22	1701.86
640.41	1845.22
640.60	1746.92
640.79	1748.97
640.98	1734.63
641.17	1802.21
641.36	1798.12
641.55	1751.01
641.74	1654.76
641.92	1685.48
642.11	1638.38
642.30	1685.48
642.49	1630.18
642.68	1730.53
642.87	1722.34
643.06	1730.53
643.25	1691.62
643.44	1703.91
643.63	1767.40
643.82	1718.25
644.00	1638.38
644.19	1710.05
644.38	1628.14
644.57	1802.21
644.76	1705.96
644.95	1677.29
645.14	1740.77
645.33	1757.16
645.52	1701.86
645.71	1699.81
645.89	1712.10
646.08	1765.35
646.27	1658.85
646.46	1859.56
646.65	1605.61
646.84	1775.59
647.03	1644.52
647.22	1789.92
647.40	1740.77
647.59	1732.58
647.78	1656.81
647.97	1753.06
648.16	1753.06
648.35	1847.27
648.54	1771.49
648.73	1697.77
648.91	1769.44
649.10	1771.49
649.29	1673.19
649.48	1665.00
649.67	1720.29
649.86	1755.11
650.05	1660.90
650.23	1697.77
650.42	1669.09
650.61	1732.58
650.80	1757.16
650.99	1783.78
651.18	1728.49
651.36	1800.16
651.55	1687.53
651.74	1804.26
651.93	1742.82
652.12	1759.21
652.31	1714.15
652.49	1755.11
652.68	1687.53
652.87	1751.01
653.06	1738.73
653.25	1812.45
653.44	1730.53
653.62	1791.97
653.81	1771.49
654.00	1751.01
654.19	1755.11
654.38	1888.23
654.56	1806.31
654.75	1675.24
654.94	1771.49
655.13	1767.40
655.32	1716.20
655.51	1734.63
655.69	1671.14
655.88	1714.15
656.07	1718.25
656.26	1808.36
656.45	1591.27
656.63	1714.15
656.82	1693.67
657.01	1808.36
657.20	1722.34
657.38	1781.73
657.57	1701.86
657.76	1712.10
657.95	1804.26
658.14	1648.61
658.32	1738.73
658.51	1648.61
658.70	1755.11
658.89	1761.25
659.08	1787.88
659.26	1839.08
659.45	1720.29
659.64	1726.44
659.83	1705.96
660.01	1880.04
660.20	1720.29
660.39	1824.74
660.58	1613.80
660.76	1820.64
660.95	1662.95
661.14	1763.30
661.33	1714.15
661.51	1630.18
661.70	1730.53
661.89	1775.59
662.08	1667.05
662.26	1683.43
662.45	1654.76
662.64	1808.36
662.83	1734.63
663.01	1685.48
663.20	1724.39
663.39	1779.68
663.58	1748.97
663.76	1742.82
663.95	1712.10
664.14	1593.32
664.32	1650.66
664.51	1665.00
664.70	1667.05
664.89	1812.45
665.07	1689.57
665.26	1777.64
665.45	1656.81
665.64	1796.07
665.82	1834.98
666.01	1726.44
666.20	1656.81
666.38	1820.64
666.57	1806.31
666.76	2119.65
666.95	4491.20
667.13	10227.56
667.32	14851.87
667.51	17555.19
667.69	18601.70
667.88	16922.37
668.07	12048.20
668.25	9424.75
668.44	7841.67
668.63	7128.98
668.81	6735.77
669.00	6193.06
669.19	5515.18
669.38	4892.60
669.56	4478.91
669.75	3833.80
669.94	3448.78
670.12	2772.95
670.31	2578.39
670.50	2293.72
670.68	2107.36
670.87	1877.99
671.06	1820.64
671.24	1871.84
671.43	1855.46
671.62	1765.35
671.80	1710.05
671.99	1736.68
672.18	1695.72
672.36	1769.44
672.55	1714.15
672.74	1738.73
672.92	1718.25
673.11	1761.25
673.29	1648.61
673.48	1740.77
673.67	1693.67
673.85	1789.92
674.04	1695.72
674.23	1626.09
674.41	1794.02
674.60	1691.62
674.79	1669.09
674.97	1656.81
675.16	1726.44
675.34	1712.10
675.53	1732.58
675.72	1734.63
675.90	1824.74
676.09	1753.06
676.28	1738.73
676.46	1699.81
676.65	1820.64
676.83	1708.01
677.02	1740.77
677.21	1738.73
677.39	1755.11
677.58	1656.81
677.77	1765.35
677.95	1675.24
678.14	1718.25
678.32	1718.25
678.51	1738.73
678.70	1794.02
678.88	1744.87
679.07	1734.63
679.25	1617.90
679.44	1767.40
679.63	1708.01
679.81	1738.73
680.00	1816.55
680.18	1787.88
680.37	1753.06
680.55	1730.53
680.74	1626.09
680.93	1667.05
681.11	1767.40
681.30	1740.77
681.48	1701.86
681.67	1699.81
681.85	1673.19
682.04	1648.61
682.23	1806.31
682.41	1705.96
682.60	1636.33
682.78	1748.97
682.97	1699.81
683.15	1726.44
683.34	1734.63
683.53	1777.64
683.71	1619.94
683.90	1812.45
684.08	1810.40
684.27	1673.19
684.45	1699.81
684.64	1834.98
684.82	1738.73
685.01	1777.64
685.19	1738.73
685.38	1796.07
685.57	1642.47
685.75	1660.90
685.94	1677.29
686.12	1714.15
686.31	1742.82
686.49	1865.70
686.68	1613.80
686.86	1726.44
687.05	1738.73
687.23	1824.74
687.42	1658.85
687.60	1703.91
687.79	1771.49
687.97	1814.50
688.16	1693.67
688.34	1785.83
688.53	1693.67
688.71	1746.92
688.90	1771.49
689.08	1697.77
689.27	1644.52
689.45	1705.96
689.64	1673.19
689.82	1787.88
690.01	1841.12
690.19	1730.53
690.38	1671.14
690.56	1728.49
690.75	1654.76
690.93	1683.43
691.12	1689.57
691.30	1781.73
691.49	1708.01
691.67	1710.05
691.86	1828.84
692.04	1683.43
692.23	1675.24
692.41	1693.67
692.60	1832.93
692.78	1751.01
692.97	1767.40
693.15	1665.00
693.34	1804.26
693.52	1748.97
693.71	1687.53
693.89	1654.76
694.08	1624.04
694.26	1773.54
694.44	1763.30
694.63	1785.83
694.81	1726.44
695.00	1665.00
695.18	1720.29
695.37	1863.65
695.55	1722.34
695.74	1675.24
695.92	1673.19
696.10	1710.05
696.29	1615.85
696.47	1665.00
696.66	1632.23
696.84	1646.57
697.03	1683.43
697.21	1804.26
697.40	2379.74
697.58	1800.16
697.76	1636.33
697.95	1734.63
698.13	1665.00
698.32	1615.85
698.50	1681.38
698.68	1720.29
698.87	1695.72
699.05	1818.60
699.24	1689.57
699.42	1708.01
699.61	1708.01
699.79	1753.06
699.97	1705.96
700.16	1687.53
700.34	1634.28
700.53	1708.01
700.71	1765.35
700.89	1751.01
701.08	1744.87
701.26	1673.19
701.45	2133.98
701.63	1665.00
701.81	1763.30
702.00	1691.62
702.18	1712.10
702.37	1755.11
702.55	1716.20
702.73	1716.20
702.92	1644.52
703.10	1800.16
703.28	1675.24
703.47	1613.80
703.65	1806.31
703.84	1722.34
704.02	1609.70
704.20	1759.21
704.39	1628.14
704.57	1736.68
704.75	1734.63
704.94	1767.40
705.12	1683.43
705.30	1783.78
705.49	2224.09
705.67	4540.35
705.86	9330.55
706.04	12453.70
706.22	14018.35
706.41	14987.04
706.59	13303.60
706.77	9346.93
706.96	7325.58
707.14	6360.99
707.32	5812.14
707.51	5396.40
707.69	4843.45
707.87	4104.13
708.06	3467.21
708.24	2867.16
708.42	2377.69
708.61	2295.77
708.79	1841.12
708.97	1816.55
709.16	1822.69
709.34	1824.74
709.52	1714.15
709.71	1761.25
709.89	1781.73
710.07	1656.81
710.26	1652.71
710.44	1685.48
710.62	1738.73
710.80	1755.11
710.99	1816.55
711.17	1761.25
711.35	1669.09
711.54	1714.15
711.72	1791.97
711.90	1742.82
712.09	1742.82
712.27	1660.90
712.45	1720.29
712.63	1726.44
712.82	1757.16
713.00	1722.34
713.18	1705.96
713.37	1740.77
713.55	1740.77
713.73	1830.88
713.91	1804.26
714.10	1693.67
714.28	1726.44
714.46	1714.15
714.65	1757.16
714.83	1769.44
715.01	1712.10
715.19	1742.82
715.38	1697.77
715.56	1794.02
715.74	1689.57
715.92	1626.09
716.11	1814.50
716.29	1646.57
716.47	1669.09
716.65	1683.43
716.84	1591.27
717.02	1796.07
717.20	1665.00
717.38	1740.77
717.57	1775.59
717.75	1677.29
717.93	1638.38
718.11	1710.05
718.30	1650.66
718.48	1718.25
718.66	1802.21
718.84	1718.25
719.03	1714.15
719.21	1646.57
719.39	1804.26
719.57	1716.20
719.75	1839.08
719.94	1632.23
720.12	1697.77
720.30	1757.16
720.48	1753.06
720.67	1701.86
720.85	1726.44
721.03	1675.24
721.21	1642.47
721.39	1796.07
721.58	1720.29
721.76	1681.38
721.94	1742.82
722.12	1773.54
722.30	1828.84
722.49	1640.42
722.67	1787.88
722.85	1773.54
723.03	1624.04
723.21	1751.01
723.40	1644.52
723.58	1824.74
723.76	1667.05
723.94	1767.40
724.12	1716.20
724.30	1789.92
724.49	1712.10
724.67	1615.85
724.85	1822.69
725.03	1605.61
725.21	1748.97
725.40	1720.29
725.58	1751.01
725.76	1804.26
725.94	1746.92
726.12	1613.80
726.30	1728.49
726.49	1685.48
726.67	1701.86
726.85	1769.44
727.03	1830.88
727.21	2168.80
727.39	2932.69
727.57	3786.69
727.76	4085.70
727.94	4382.65
728.12	4280.25
728.30	3674.06
728.48	2949.08
728.66	2793.43
728.84	2469.85
729.03	2400.22
729.21	2064.35
729.39	1939.43
729.57	1818.60
729.75	1818.60
729.93	1798.12
730.11	1736.68
730.30	1732.58
730.48	1699.81
730.66	1783.78
730.84	1683.43
731.02	1769.44
731.20	1650.66
731.38	1755.11
731.56	1656.81
731.74	1652.71
731.93	1714.15
732.11	1665.00
732.29	1722.34
732.47	1675.24
732.65	1763.30
732.83	1802.21
733.01	1812.45
733.19	1681.38
733.37	1816.55
733.56	1730.53
733.74	1697.77
733.92	1744.87
734.10	1626.09
734.28	1783.78
734.46	1656.81
734.64	1728.49
734.82	1683.43
735.00	1675.24
735.18	1708.01
735.36	1685.48
735.54	1701.86
735.73	1726.44
735.91	1636.33
736.09	1693.67
736.27	1611.75
736.45	1705.96
736.63	1550.31
736.81	1716.20
736.99	1769.44
737.17	1812.45
737.35	1714.15
737.53	1728.49
737.71	1732.58
737.89	1785.83
738.07	1611.75
738.25	1642.47
738.43	1626.09
738.61	1669.09
738.80	1665.00
738.98	1640.42
739.16	1693.67
739.34	1640.42
739.52	1783.78
739.70	1687.53
739.88	1796.07
740.06	1779.68
740.24	1572.84
740.42	1753.06
740.60	1593.32
740.78	1726.44
740.96	1667.05
741.14	1632.23
741.32	1675.24
741.50	1689.57
741.68	1830.88
741.86	1765.35
742.04	1648.61
742.22	1673.19
742.40	1685.48
742.58	1775.59
742.76	1671.14
742.94	1791.97
743.12	1597.42
743.30	1687.53
743.48	1683.43
743.66	1667.05
743.84	1767.40
744.02	1708.01
744.20	1689.57
744.38	1675.24
744.56	1681.38
744.74	1812.45
744.92	1748.97
745.10	1837.03
745.28	1810.40
745.46	1849.32
745.64	1681.38
745.82	1755.11
746.00	1730.53
746.18	1689.57
746.36	1609.70
746.54	1689.57
746.72	1650.66
746.90	1697.77
747.08	1806.31
747.26	1742.82
747.44	1757.16
747.62	1773.54
747.80	1724.39
747.98	1789.92
748.15	1703.91
748.33	1826.79
748.51	1624.04
748.69	1775.59
748.87	1697.77
749.05	1648.61
749.23	1691.62
749.41	1755.11
749.59	1732.58
749.77	1789.92
749.95	1673.19
750.13	1720.29
750.31	1701.86
750.49	1669.09
750.67	1722.34
750.85	1773.54
751.03	1753.06
751.20	1751.01
751.38	1701.86
751.56	1691.62
751.74	1728.49
751.92	1710.05
752.10	1685.48
752.28	1751.01
752.46	1716.20
752.64	1761.25
752.82	1640.42
753.00	1695.72
753.18	1755.11
753.35	1681.38
753.53	1701.86
753.71	1693.67
753.89	1773.54
754.07	1660.90
754.25	1757.16
754.43	1755.11
754.61	1648.61
754.79	1714.15
754.97	1681.38
755.14	1791.97
755.32	1730.53
755.50	1751.01
755.68	1775.59
755.86	1615.85
756.04	1714.15
756.22	1654.76
756.40	1724.39
756.57	1845.22
756.75	1703.91
756.93	1767.40
757.11	1751.01
757.29	1695.72
757.47	1681.38
757.65	1697.77
757.82	1626.09
758.00	1726.44
758.18	1708.01
758.36	1644.52
758.54	1832.93
758.72	1685.48
758.90	1832.93
759.07	1726.44
759.25	1650.66
759.43	1763.30
759.61	1642.47
759.79	2256.86
759.97	1759.21
760.15	1712.10
760.32	1699.81
760.50	1757.16
760.68	1832.93
760.86	1671.14
761.04	1703.91
761.22	1759.21
761.39	1738.73
761.57	1814.50
761.75	1720.29
761.93	1677.29
762.11	1708.01
762.28	1726.44
762.46	1617.90
762.64	1767.40
762.82	1644.52
763.00	1755.11
763.18	1818.60
763.35	1638.38
763.53	1740.77
763.71	1708.01
763.89	1796.07
764.07	1681.38
764.24	1681.38
764.42	1736.68
764.60	1656.81
764.78	1693.67
764.96	1660.90
765.13	1730.53
765.31	1724.39
765.49	1759.21
765.67	1683.43
765.84	1630.18
766.02	1724.39
766.20	1578.98
766.38	1720.29
766.56	1669.09
766.73	1705.96
766.91	1767.40
767.09	1673.19
767.27	1730.53
767.44	1642.47
767.62	1810.40
767.80	1736.68
767.98	1677.29
768.15	1675.24
768.33	1767.40
768.51	1822.69
768.69	1779.68
768.87	1751.01
769.04	1662.95
769.22	1857.51
769.40	1828.84
769.58	1828.84
769.75	1701.86
769.93	1824.74
770.11	1714.15
770.28	1681.38
770.46	1753.06
770.64	1730.53
770.82	1585.13
770.99	1691.62
771.17	1710.05
771.35	1712.10
771.53	1718.25
771.70	1748.97
771.88	1705.96
772.06	1705.96
772.23	1689.57
772.41	1710.05
772.59	1693.67
772.77	1673.19
772.94	1755.11
773.12	1771.49
773.30	1724.39
773.47	1673.19
773.65	1636.33
773.83	1757.16
774.01	1734.63
774.18	1638.38
774.36	1677.29
774.54	1687.53
774.71	1665.00
774.89	1581.03
775.07	1640.42
775.24	1671.14
775.42	1658.85
775.60	1822.69
775.78	1683.43
775.95	1583.08
776.13	1701.86
776.31	1593.32
776.48	1667.05
776.66	1787.88
776.84	1689.57
777.01	1660.90
777.19	1658.85
777.37	1716.20
777.54	1740.77
777.72	1787.88
777.90	1687.53
778.07	1759.21
778.25	1978.34
778.43	1804.26
778.60	1716.20
778.78	1736.68
778.96	1789.92
779.13	1654.76
779.31	1800.16
779.49	1794.02
779.66	1695.72
779.84	1732.58
780.01	1730.53
780.19	1636.33
780.37	1771.49
780.54	1751.01
780.72	1669.09
780.90	1693.67
781.07	1710.05
781.25	1703.91
781.43	1810.40
781.60	1640.42
781.78	1740.77
781.95	1675.24
782.13	1593.32
782.31	1724.39
782.48	1587.18
782.66	1771.49
782.83	1839.08
783.01	1689.57
783.19	1687.53
783.36	1656.81
783.54	1613.80
783.72	1783.78
783.89	1722.34
784.07	1728.49
784.24	1847.27
784.42	1718.25
784.60	1755.11
784.77	1783.78
784.95	1570.79
785.12	1724.39
785.30	1720.29
785.47	1648.61
785.65	1656.81
785.83	1775.59
786.00	1734.63
786.18	1691.62
786.35	1636.33
786.53	1691.62
786.71	1798.12
786.88	1769.44
787.06	1675.24
787.23	1691.62
787.41	1624.04
787.58	1769.44
787.76	1671.14
787.94	1710.05
788.11	1697.77
788.29	1652.71
788.46	1703.91
788.64	1646.57
788.81	1656.81
788.99	1679.33
789.16	1644.52
789.34	1710.05
789.52	1660.90
789.69	1648.61
789.87	1624.04
790.04	1728.49
790.22	1722.34
790.39	1902.56
790.57	1591.27
790.74	1689.57
790.92	1732.58
791.09	1640.42
791.27	1738.73
791.44	1818.60
791.62	1701.86
791.79	1771.49
791.97	1693.67
792.15	1787.88
792.32	1753.06
792.50	1742.82
792.67	1791.97
792.85	1753.06
793.02	1734.63
793.20	1658.85
793.37	1732.58
793.55	1726.44
793.72	1675.24
793.90	1736.68
794.07	1617.90
794.25	1613.80
794.42	1638.38
794.60	1775.59
794.77	1681.38
794.95	1628.14
795.12	1751.01
795.30	1628.14
795.47	1628.14
795.65	1851.36
795.82	1705.96
796.00	1646.57
796.17	1660.90
796.34	1615.85
796.52	1712.10
796.69	1722.34
796.87	1718.25
797.04	1783.78
797.22	1771.49
797.39	1804.26
797.57	1736.68
797.74	1683.43
797.92	1716.20
798.09	1685.48
798.27	1826.79
798.44	1779.68
798.62	1742.82
798.79	1699.81
798.96	1740.77
799.14	1683.43
799.31	1828.84
799.49	1697.77
799.66	1718.25
799.84	1724.39
800.01	1703.91
800.19	1757.16
800.36	1624.04
800.53	1710.05
800.71	1716.20
800.88	1783.78
801.06	1634.28
801.23	1718.25
801.41	1742.82
801.58	1658.85
801.75	1665.00
801.93	1736.68
802.10	1650.66
802.28	1755.11
802.45	1662.95
802.63	1843.17
802.80	1783.78
802.97	1705.96
803.15	1677.29
803.32	1718.25
803.50	1671.14
803.67	1646.57
803.84	1685.48
804.02	1691.62
804.19	1689.57
804.37	1550.31
804.54	1636.33
804.71	1699.81
804.89	1681.38
805.06	1650.66
805.24	1673.19
805.41	1693.67
805.58	1652.71
805.76	1896.42
805.93	1712.10
806.10	1826.79
806.28	1771.49
806.45	1703.91
806.63	1824.74
806.80	1742.82
806.97	1728.49
807.15	1714.15
807.32	1748.97
807.49	1710.05
807.67	1652.71
807.84	1710.05
808.01	1611.75
808.19	1826.79
808.36	1832.93
808.54	1691.62
808.71	1665.00
808.88	1748.97
809.06	1720.29
809.23	1810.40
809.40	1658.85
809.58	1701.86
809.75	1755.11
809.92	1607.66
810.10	1808.36
810.27	1673.19
810.44	1728.49
810.62	1732.58
810.79	1695.72
810.96	1724.39
811.14	1755.11
811.31	1748.97
811.48	1765.35
811.66	1724.39
811.83	1722.34
812.00	1800.16
812.18	1751.01
812.35	1789.92
812.52	1708.01
812.69	1634.28
812.87	1675.24
813.04	1626.09
813.21	1716.20
813.39	1609.70
813.56	1716.20
813.73	1734.63
813.91	1613.80
814.08	1689.57
814.25	1720.29
814.42	1589.22
814.60	1691.62
814.77	1675.24
814.94	1718.25
815.12	1671.14
815.29	1810.40
815.46	1665.00
815.63	1714.15
815.81	1652.71
815.98	1671.14
816.15	1675.24
816.33	1798.12
816.50	1662.95
816.67	1675.24
816.84	1624.04
817.02	1597.42
817.19	1724.39
817.36	1726.44
817.53	1837.03
817.71	1740.77
817.88	1732.58
818.05	1599.46
818.22	1724.39
818.40	1869.80
818.57	1654.76
818.74	1746.92
818.91	1685.48
819.09	1736.68
819.26	1763.30
819.43	1732.58
819.60	1765.35
819.78	1775.59
819.95	1748.97
820.12	1609.70
820.29	1794.02
820.47	1832.93
820.64	1712.10
820.81	1640.42
820.98	1626.09
821.15	1656.81
821.33	1775.59
821.50	1630.18
821.67	1779.68
821.84	1742.82
822.02	1804.26
822.19	1718.25
822.36	1656.81
822.53	1681.38
822.70	1656.81
822.88	1675.24
823.05	1761.25
823.22	1734.63
823.39	1746.92
823.56	1667.05
823.74	1798.12
823.91	1662.95
824.08	1628.14
824.25	1638.38
824.42	1816.55
824.60	1642.47
824.77	1732.58
824.94	1771.49
825.11	1777.64
825.28	1671.14
825.45	1712.10
825.63	1703.91
825.80	1662.95
825.97	1730.53
826.14	1712.10
826.31	1593.32
826.48	1830.88
826.66	1640.42
826.83	1757.16
827.00	1744.87
827.17	1681.38
827.34	1732.58
827.51	1789.92
827.69	1796.07
827.86	1671.14
828.03	1710.05
828.20	1701.86
828.37	1650.66
828.54	1781.73
828.71	1658.85
828.89	1816.55
829.06	1697.77
829.23	1826.79
829.40	1660.90
829.57	1718.25
829.74	1810.40
829.91	1648.61
830.09	1710.05
830.26	1632.23
830.43	1775.59
830.60	1695.72
830.77	1791.97
830.94	1730.53
831.11	1781.73
831.28	1691.62
831.46	1712.10
831.63	1583.08
831.80	1740.77
831.97	1681.38
832.14	1689.57
832.31	1771.49
832.48	1722.34
832.65	1746.92
832.82	1771.49
832.99	1705.96
833.17	1673.19
833.34	1763.30
833.51	1736.68
833.68	1548.26
833.85	1699.81
834.02	1714.15
834.19	1695.72
834.36	1728.49
834.53	1757.16
834.70	1771.49
834.87	1730.53
835.04	1714.15
835.22	1738.73
835.39	1695.72
835.56	1677.29
835.73	1718.25
835.90	1685.48
836.07	1660.90
836.24	1726.44
836.41	1665.00
836.58	1658.85
836.75	1689.57
836.92	1705.96
837.09	1677.29
837.26	1730.53
837.43	1624.04
837.60	1693.67
837.77	1712.10
837.94	1722.34
838.12	1871.84
838.29	1773.54
838.46	1632.23
838.63	1673.19
838.80	1808.36
838.97	1800.16
839.14	1730.53
839.31	1697.77
839.48	1746.92
839.65	1683.43
839.82	1794.02
839.99	1755.11
840.16	1714.15
840.33	1671.14
840.50	1697.77
840.67	1658.85
840.84	1591.27
841.01	1769.44
841.18	1646.57
841.35	1761.25
841.52	1785.83
841.69	1806.31
841.86	1701.86
842.03	1662.95
842.20	1740.77
842.37	1681.38
842.54	1705.96
842.71	1691.62
842.88	1669.09
843.05	1763.30
843.22	1703.91
843.39	1675.24
843.56	1693.67
843.73	1746.92
843.90	1779.68
844.07	1708.01
844.24	1751.01
844.41	1746.92
844.58	1746.92
844.75	1689.57
844.92	1681.38
845.09	1673.19
845.26	1681.38
845.43	1714.15
845.60	1712.10
845.77	1851.36
845.94	1869.80
846.10	1652.71
846.27	1621.99
846.44	1708.01
846.61	1701.86
846.78	1732.58
846.95	1683.43
847.12	1652.71
847.29	1691.62
847.46	1699.81
847.63	1810.40
847.80	1636.33
847.97	1722.34
848.14	1882.08
848.31	1746.92
848.48	1660.90
848.65	1755.11
848.82	1662.95
848.98	1800.16
849.15	1740.77
849.32	1738.73
849.49	1748.97
849.66	1818.60
849.83	1732.58
850.00	1628.14
850.17	1816.55
850.34	1751.01
850.51	1652.71
850.68	1665.00
850.85	1828.84
851.01	1730.53
851.18	1658.85
851.35	1673.19
851.52	1716.20
851.69	1765.35
851.86	1611.75
852.03	1669.09
852.20	1757.16
852.37	1732.58
852.53	1652.71
852.70	1755.11
852.87	1771.49
853.04	1730.53
853.21	1673.19
853.38	1763.30
853.55	1767.40
853.72	1806.31
853.89	1697.77
854.05	1648.61
854.22	1671.14
854.39	1701.86
854.56	1769.44
854.73	1773.54
854.90	1681.38
855.07	1697.77
855.23	1636.33
855.40	1701.86
855.57	1763.30
855.74	1652.71
855.91	1867.75
856.08	1615.85
856.25	1626.09
856.41	1693.67
856.58	1642.47
856.75	1712.10
856.92	1695.72
857.09	1740.77
857.26	1697.77
857.42	1642.47
857.59	1732.58
857.76	1634.28
857.93	1728.49
858.10	1722.34
858.27	1755.11
858.43	1734.63
858.60	1695.72
858.77	1599.46
858.94	1728.49
859.11	1798.12
859.27	1712.10
859.44	1691.62
859.61	1796.07
859.78	1816.55
859.95	1665.00
860.12	1648.61
860.28	1800.16
860.45	1849.32
860.62	1656.81
860.79	1763.30
860.95	1669.09
861.12	1648.61
861.29	1662.95
861.46	1683.43
861.63	1718.25
861.79	1720.29
861.96	1689.57
862.13	1613.80
862.30	1718.25
862.47	1658.85
862.63	1763.30
862.80	1820.64
862.97	1773.54
863.14	1722.34
863.30	1703.91
863.47	1724.39
863.64	1783.78
863.81	1771.49
863.97	1718.25
864.14	1691.62
864.31	1693.67
864.48	1724.39
864.65	1693.67
864.81	1705.96
864.98	1718.25
865.15	1773.54
865.32	1753.06
865.48	1759.21
865.65	1802.21
865.82	1617.90
865.98	1718.25
866.15	1732.58
866.32	1748.97
866.49	1734.63
866.65	1755.11
866.82	1708.01
866.99	1732.58
867.16	1591.27
867.32	1632.23
867.49	1697.77
867.66	1714.15
867.83	1687.53
867.99	1652.71
868.16	1708.01
868.33	1632.23
868.49	1701.86
868.66	1728.49
868.83	1757.16
868.99	1757.16
869.16	1699.81
869.33	1787.88
869.50	1748.97
869.66	1679.33
869.83	1658.85
870.00	1683.43
870.16	1730.53
870.33	1638.38
870.50	1789.92
870.66	1728.49
870.83	1849.32
871.00	1716.20
871.17	1796.07
871.33	1722.34
871.50	1716.20
871.67	1660.90
871.83	1619.94
872.00	1751.01
872.17	1714.15
872.33	1753.06
872.50	1755.11
872.67	1763.30
872.83	1656.81
873.00	1736.68
873.17	1712.10
873.33	1765.35
873.50	1734.63
873.67	1646.57
873.83	1634.28
874.00	1744.87
874.16	1820.64
874.33	1808.36
874.50	1636.33
874.66	1742.82
874.83	1662.95
875.00	1755.11
875.16	1820.64
875.33	1841.12
875.50	1642.47
875.66	1619.94
875.83	1669.09
875.99	1794.02
876.16	1675.24
876.33	1677.29
876.49	1710.05
876.66	1718.25
876.83	1738.73
876.99	1652.71
877.16	1701.86
877.32	1691.62
877.49	1734.63
877.66	1673.19
877.82	1755.11
877.99	1730.53
878.15	1773.54
878.32	1710.05
878.49	1701.86
878.65	1669.09
878.82	1779.68
878.98	1718.25
879.15	1765.35
879.32	1759.21
879.48	1695.72
879.65	1665.00
879.81	1644.52
879.98	1662.95
880.15	1648.61
880.31	1714.15
880.48	1667.05
880.64	1722.34
880.81	1724.39
880.97	1818.60
881.14	1720.29
881.31	1660.90
881.47	1810.40
881.64	1703.91
881.80	1591.27
881.97	1742.82
882.13	1703.91
882.30	1681.38
882.47	1697.77
882.63	1636.33
882.80	1613.80
882.96	1665.00
883.13	1730.53
883.29	1665.00
883.46	1744.87
883.62	1820.64
883.79	1669.09
883.95	1845.22
884.12	1632.23
884.29	1789.92
884.45	1755.11
884.62	1814.50
884.78	1658.85
884.95	1796.07
885.11	1675.24
885.28	1701.86
885.44	1687.53
885.61	1720.29
885.77	1773.54
885.94	1746.92
886.10	1656.81
886.27	1718.25
886.43	1853.41
886.60	1773.54
886.76	1699.81
886.93	1652.71
887.09	1730.53
887.26	1599.46
887.42	1638.38
887.59	1798.12
887.75	1787.88
887.92	1771.49
888.08	1828.84
888.25	1767.40
888.41	1812.45
888.58	1722.34
888.74	1718.25
888.91	1683.43
>>>>>End Processed Spectral Data<<<<<
