SpectraSuite Data File
++++++++++++++++++++++++++++++++++++
Date: Mon Jun 06 12:39:37 CEST 2016
User: root
Dark Spectrum Present: No
Reference Spectrum Present: No
Number of Sampled Component Spectra: 1
Spectrometers: USB4C02835
Integration Time (usec): 100000 (USB4C02835)
Spectra Averaged: 1 (USB4C02835)
Boxcar Smoothing: 0 (USB4C02835)
Correct for Electrical Dark: No (USB4C02835)
Strobe/Lamp Enabled: No (USB4C02835)
Correct for Detector Non-linearity: No (USB4C02835)
Correct for Stray Light: No (USB4C02835)
Number of Pixels in Processed Spectrum: 3648
>>>>>Begin Processed Spectral Data<<<<<
177.47	1470.44
177.69	1470.44
177.91	1470.44
178.13	1415.15
178.36	1466.35
178.58	1603.56
178.80	1671.14
179.02	1638.38
179.24	1603.56
179.46	1726.44
179.68	1800.16
179.90	1613.80
180.13	1716.20
180.35	1617.90
180.57	1673.19
180.79	1777.64
181.01	1681.38
181.23	1769.44
181.45	1785.83
181.67	1710.05
181.90	1759.21
182.12	1578.98
182.34	1648.61
182.56	1638.38
182.78	1701.86
183.00	1708.01
183.22	1617.90
183.44	1634.28
183.66	1808.36
183.89	1744.87
184.11	1677.29
184.33	1683.43
184.55	1714.15
184.77	1759.21
184.99	1775.59
185.21	1632.23
185.43	1882.08
185.65	1675.24
185.87	1652.71
186.10	1882.08
186.32	1884.13
186.54	1767.40
186.76	1705.96
186.98	1757.16
187.20	1732.58
187.42	1699.81
187.64	1705.96
187.86	1726.44
188.08	1701.86
188.30	1738.73
188.52	1611.75
188.75	1759.21
188.97	1753.06
189.19	1701.86
189.41	1720.29
189.63	1767.40
189.85	1699.81
190.07	1644.52
190.29	1593.32
190.51	1669.09
190.73	1591.27
190.95	1773.54
191.17	1697.77
191.39	1667.05
191.61	1736.68
191.84	1652.71
192.06	1730.53
192.28	1589.22
192.50	1896.42
192.72	1708.01
192.94	1675.24
193.16	1720.29
193.38	1794.02
193.60	1562.60
193.82	1595.37
194.04	1787.88
194.26	1701.86
194.48	1740.77
194.70	1624.04
194.92	1687.53
195.14	1730.53
195.36	1681.38
195.58	1783.78
195.80	1603.56
196.02	1708.01
196.24	1751.01
196.46	1691.62
196.69	1578.98
196.91	1828.84
197.13	1710.05
197.35	1624.04
197.57	1757.16
197.79	1767.40
198.01	1685.48
198.23	1703.91
198.45	1738.73
198.67	1630.18
198.89	1730.53
199.11	1708.01
199.33	1638.38
199.55	1607.66
199.77	1621.99
199.99	1763.30
200.21	1669.09
200.43	1732.58
200.65	1665.00
200.87	1521.64
201.09	1667.05
201.31	1667.05
201.53	1734.63
201.75	1744.87
201.97	1705.96
202.19	1689.57
202.41	1675.24
202.63	1757.16
202.85	1716.20
203.07	1728.49
203.29	1638.38
203.51	1683.43
203.73	1630.18
203.95	1802.21
204.17	1673.19
204.39	1691.62
204.61	1697.77
204.83	1730.53
205.05	1724.39
205.27	1761.25
205.49	1785.83
205.71	1738.73
205.93	1601.51
206.15	1648.61
206.37	1718.25
206.59	1710.05
206.81	1630.18
207.03	1685.48
207.25	1695.72
207.47	1759.21
207.69	1773.54
207.91	1738.73
208.13	1800.16
208.34	1701.86
208.56	1640.42
208.78	1759.21
209.00	1681.38
209.22	1695.72
209.44	1771.49
209.66	1736.68
209.88	1720.29
210.10	1660.90
210.32	1681.38
210.54	1728.49
210.76	1746.92
210.98	1658.85
211.20	1640.42
211.42	1687.53
211.64	1773.54
211.86	1714.15
212.08	1683.43
212.30	1714.15
212.52	1650.66
212.74	1689.57
212.96	1679.33
213.17	1740.77
213.39	1748.97
213.61	1781.73
213.83	1775.59
214.05	1648.61
214.27	1710.05
214.49	1705.96
214.71	1710.05
214.93	1736.68
215.15	1734.63
215.37	1718.25
215.59	1568.74
215.81	1728.49
216.03	1800.16
216.24	1611.75
216.46	1681.38
216.68	1673.19
216.90	1802.21
217.12	1779.68
217.34	1767.40
217.56	1718.25
217.78	1816.55
218.00	1710.05
218.22	1738.73
218.44	1705.96
218.66	1716.20
218.87	1740.77
219.09	1656.81
219.31	1753.06
219.53	1644.52
219.75	1675.24
219.97	1654.76
220.19	1685.48
220.41	1718.25
220.63	1779.68
220.85	1710.05
221.06	1646.57
221.28	1773.54
221.50	1777.64
221.72	1642.47
221.94	1673.19
222.16	1681.38
222.38	1714.15
222.60	1802.21
222.82	1751.01
223.03	1734.63
223.25	1609.70
223.47	1773.54
223.69	1783.78
223.91	1775.59
224.13	1773.54
224.35	1675.24
224.57	1753.06
224.78	1736.68
225.00	1662.95
225.22	1691.62
225.44	1699.81
225.66	1677.29
225.88	1748.97
226.10	1732.58
226.32	1730.53
226.53	1779.68
226.75	1710.05
226.97	1677.29
227.19	1652.71
227.41	1697.77
227.63	1693.67
227.85	1583.08
228.06	1736.68
228.28	1701.86
228.50	1718.25
228.72	1691.62
228.94	1714.15
229.16	1566.70
229.37	1624.04
229.59	1705.96
229.81	1728.49
230.03	1660.90
230.25	1617.90
230.47	1669.09
230.69	1683.43
230.90	1759.21
231.12	1624.04
231.34	1691.62
231.56	1720.29
231.78	1660.90
232.00	1679.33
232.21	1710.05
232.43	1644.52
232.65	1640.42
232.87	1716.20
233.09	1607.66
233.30	1687.53
233.52	1720.29
233.74	1669.09
233.96	1656.81
234.18	1730.53
234.40	1654.76
234.61	1800.16
234.83	1609.70
235.05	1624.04
235.27	1841.12
235.49	1759.21
235.70	1669.09
235.92	1806.31
236.14	1714.15
236.36	1910.75
236.58	1640.42
236.79	1677.29
237.01	1712.10
237.23	1681.38
237.45	1785.83
237.67	1728.49
237.88	1787.88
238.10	1720.29
238.32	1673.19
238.54	1755.11
238.76	1753.06
238.97	1617.90
239.19	1652.71
239.41	1791.97
239.63	1732.58
239.85	1699.81
240.06	1656.81
240.28	1665.00
240.50	1714.15
240.72	1677.29
240.93	1718.25
241.15	1767.40
241.37	1654.76
241.59	1779.68
241.81	1677.29
242.02	1665.00
242.24	1705.96
242.46	1714.15
242.68	1714.15
242.89	1720.29
243.11	1753.06
243.33	1658.85
243.55	1728.49
243.76	1787.88
243.98	1658.85
244.20	1683.43
244.42	1650.66
244.64	1669.09
244.85	1591.27
245.07	1591.27
245.29	1728.49
245.51	1779.68
245.72	1761.25
245.94	1834.98
246.16	1673.19
246.38	1708.01
246.59	1617.90
246.81	1619.94
247.03	1632.23
247.24	1624.04
247.46	1609.70
247.68	1718.25
247.90	1621.99
248.11	1691.62
248.33	1703.91
248.55	1585.13
248.77	1748.97
248.98	1730.53
249.20	1814.50
249.42	1689.57
249.64	1751.01
249.85	1619.94
250.07	1679.33
250.29	1734.63
250.50	1714.15
250.72	1619.94
250.94	1658.85
251.16	1898.47
251.37	1732.58
251.59	1746.92
251.81	1705.96
252.02	1746.92
252.24	1708.01
252.46	1751.01
252.68	1615.85
252.89	1673.19
253.11	1642.47
253.33	1859.56
253.54	1820.64
253.76	1669.09
253.98	1613.80
254.20	1693.67
254.41	1585.13
254.63	1648.61
254.85	1564.65
255.06	1648.61
255.28	1763.30
255.50	1748.97
255.71	1578.98
255.93	1701.86
256.15	1673.19
256.36	1742.82
256.58	1621.99
256.80	1701.86
257.02	1658.85
257.23	1648.61
257.45	1753.06
257.67	1730.53
257.88	1613.80
258.10	1767.40
258.32	1658.85
258.53	1701.86
258.75	1744.87
258.97	1703.91
259.18	1730.53
259.40	1718.25
259.62	1812.45
259.83	1824.74
260.05	1804.26
260.27	1920.99
260.48	1744.87
260.70	1662.95
260.92	1708.01
261.13	1697.77
261.35	1708.01
261.57	1796.07
261.78	1693.67
262.00	1642.47
262.22	1777.64
262.43	1642.47
262.65	1675.24
262.86	1652.71
263.08	1800.16
263.30	1619.94
263.51	1695.72
263.73	1619.94
263.95	1773.54
264.16	1603.56
264.38	1634.28
264.60	1705.96
264.81	1689.57
265.03	1699.81
265.25	1675.24
265.46	1638.38
265.68	1828.84
265.89	1728.49
266.11	1658.85
266.33	1779.68
266.54	1757.16
266.76	1646.57
266.98	1742.82
267.19	1794.02
267.41	1763.30
267.62	1609.70
267.84	1710.05
268.06	1695.72
268.27	1652.71
268.49	1738.73
268.70	1775.59
268.92	1673.19
269.14	1695.72
269.35	1595.37
269.57	1652.71
269.79	1624.04
270.00	1710.05
270.22	1812.45
270.43	1714.15
270.65	1562.60
270.87	1712.10
271.08	1787.88
271.30	1720.29
271.51	1701.86
271.73	1755.11
271.95	1751.01
272.16	1689.57
272.38	1710.05
272.59	1607.66
272.81	1779.68
273.02	1630.18
273.24	1763.30
273.46	1783.78
273.67	1673.19
273.89	1613.80
274.10	1638.38
274.32	1779.68
274.54	1724.39
274.75	1675.24
274.97	1718.25
275.18	1703.91
275.40	1769.44
275.61	1726.44
275.83	1681.38
276.05	1662.95
276.26	1669.09
276.48	1742.82
276.69	1648.61
276.91	1613.80
277.12	1714.15
277.34	1763.30
277.55	1675.24
277.77	1683.43
277.99	1589.22
278.20	1654.76
278.42	1634.28
278.63	1652.71
278.85	1599.46
279.06	1685.48
279.28	1759.21
279.49	1781.73
279.71	1722.34
279.93	1736.68
280.14	1703.91
280.36	1681.38
280.57	1708.01
280.79	1794.02
281.00	1669.09
281.22	1660.90
281.43	1757.16
281.65	1589.22
281.86	1720.29
282.08	1748.97
282.29	1765.35
282.51	1597.42
282.73	1632.23
282.94	1660.90
283.16	1775.59
283.37	1826.79
283.59	1738.73
283.80	1710.05
284.02	1654.76
284.23	1642.47
284.45	1767.40
284.66	1689.57
284.88	1734.63
285.09	1746.92
285.31	1740.77
285.52	1689.57
285.74	1601.51
285.95	1761.25
286.17	1771.49
286.38	1775.59
286.60	1642.47
286.81	1710.05
287.03	1665.00
287.24	1673.19
287.46	1703.91
287.67	1712.10
287.89	1771.49
288.10	1638.38
288.32	1681.38
288.53	1783.78
288.75	1726.44
288.96	1742.82
289.18	1671.14
289.39	1710.05
289.61	1794.02
289.82	1751.01
290.04	1884.13
290.25	1658.85
290.47	1667.05
290.68	1732.58
290.90	1703.91
291.11	1576.94
291.33	1763.30
291.54	1634.28
291.76	1630.18
291.97	1742.82
292.18	1781.73
292.40	1648.61
292.61	1699.81
292.83	1849.32
293.04	1730.53
293.26	1701.86
293.47	1667.05
293.69	1660.90
293.90	1757.16
294.12	1794.02
294.33	1740.77
294.55	1742.82
294.76	1814.50
294.97	1763.30
295.19	1763.30
295.40	1667.05
295.62	1714.15
295.83	1730.53
296.05	1609.70
296.26	1679.33
296.48	1642.47
296.69	1802.21
296.90	1613.80
297.12	1677.29
297.33	1714.15
297.55	1693.67
297.76	1689.57
297.98	1775.59
298.19	1738.73
298.41	1697.77
298.62	1652.71
298.83	1724.39
299.05	1757.16
299.26	1662.95
299.48	1615.85
299.69	1787.88
299.90	1710.05
300.12	1611.75
300.33	1736.68
300.55	1646.57
300.76	1802.21
300.98	1665.00
301.19	1648.61
301.40	1687.53
301.62	1738.73
301.83	1697.77
302.05	1755.11
302.26	1687.53
302.47	1576.94
302.69	1599.46
302.90	1617.90
303.12	1613.80
303.33	1699.81
303.54	1859.56
303.76	1730.53
303.97	1724.39
304.19	1738.73
304.40	1603.56
304.61	1619.94
304.83	1740.77
305.04	1742.82
305.26	1693.67
305.47	1621.99
305.68	1693.67
305.90	1642.47
306.11	1769.44
306.33	1724.39
306.54	1652.71
306.75	1640.42
306.97	1587.18
307.18	1638.38
307.39	1687.53
307.61	1720.29
307.82	1701.86
308.04	1701.86
308.25	1673.19
308.46	1679.33
308.68	1675.24
308.89	1699.81
309.10	1718.25
309.32	1746.92
309.53	1748.97
309.74	1718.25
309.96	1712.10
310.17	1740.77
310.39	1693.67
310.60	1671.14
310.81	1699.81
311.03	1644.52
311.24	1757.16
311.45	1710.05
311.67	1783.78
311.88	1703.91
312.09	1574.89
312.31	1656.81
312.52	1624.04
312.73	1728.49
312.95	1630.18
313.16	1609.70
313.37	1697.77
313.59	1730.53
313.80	1742.82
314.01	1794.02
314.23	1675.24
314.44	1636.33
314.65	1642.47
314.87	1720.29
315.08	1710.05
315.29	1624.04
315.51	1671.14
315.72	1658.85
315.93	1757.16
316.15	1740.77
316.36	1722.34
316.57	1656.81
316.79	1734.63
317.00	1734.63
317.21	1734.63
317.43	1673.19
317.64	1679.33
317.85	1677.29
318.07	1650.66
318.28	1683.43
318.49	1728.49
318.70	1894.37
318.92	1773.54
319.13	1800.16
319.34	1800.16
319.56	1810.40
319.77	1781.73
319.98	1755.11
320.20	1771.49
320.41	1771.49
320.62	1746.92
320.83	1673.19
321.05	1853.41
321.26	1679.33
321.47	1710.05
321.69	1738.73
321.90	1632.23
322.11	1675.24
322.32	1720.29
322.54	1804.26
322.75	1761.25
322.96	1824.74
323.18	1601.51
323.39	1601.51
323.60	1615.85
323.81	1716.20
324.03	1611.75
324.24	1724.39
324.45	1712.10
324.66	1656.81
324.88	1759.21
325.09	1732.58
325.30	1687.53
325.52	1765.35
325.73	1769.44
325.94	1701.86
326.15	1581.03
326.37	1685.48
326.58	1812.45
326.79	1794.02
327.00	1687.53
327.22	1701.86
327.43	1701.86
327.64	1689.57
327.85	1710.05
328.07	1722.34
328.28	1802.21
328.49	1710.05
328.70	1695.72
328.92	1660.90
329.13	1662.95
329.34	1728.49
329.55	1822.69
329.76	1681.38
329.98	1628.14
330.19	1820.64
330.40	1748.97
330.61	1730.53
330.83	1736.68
331.04	1679.33
331.25	1726.44
331.46	1802.21
331.68	1603.56
331.89	1794.02
332.10	1724.39
332.31	1679.33
332.52	1714.15
332.74	1834.98
332.95	1624.04
333.16	1675.24
333.37	1755.11
333.58	1638.38
333.80	1724.39
334.01	1578.98
334.22	1763.30
334.43	1632.23
334.64	1685.48
334.86	1607.66
335.07	1671.14
335.28	1751.01
335.49	1665.00
335.70	1677.29
335.92	1716.20
336.13	1794.02
336.34	1738.73
336.55	1697.77
336.76	1722.34
336.98	1550.31
337.19	1751.01
337.40	1800.16
337.61	1753.06
337.82	1722.34
338.04	1796.07
338.25	1648.61
338.46	1726.44
338.67	1677.29
338.88	1648.61
339.09	1652.71
339.31	1576.94
339.52	1646.57
339.73	1603.56
339.94	1781.73
340.15	1716.20
340.36	1730.53
340.58	1714.15
340.79	1597.42
341.00	1712.10
341.21	1595.37
341.42	1736.68
341.63	1611.75
341.85	1720.29
342.06	1771.49
342.27	1691.62
342.48	1751.01
342.69	1644.52
342.90	1667.05
343.12	1722.34
343.33	1665.00
343.54	1734.63
343.75	1822.69
343.96	1697.77
344.17	1624.04
344.38	1630.18
344.60	1640.42
344.81	1724.39
345.02	1791.97
345.23	1787.88
345.44	1832.93
345.65	1785.83
345.86	1712.10
346.07	1654.76
346.29	1636.33
346.50	1759.21
346.71	1693.67
346.92	1814.50
347.13	1783.78
347.34	1683.43
347.55	1681.38
347.76	1667.05
347.98	1587.18
348.19	1658.85
348.40	1757.16
348.61	1640.42
348.82	1779.68
349.03	1708.01
349.24	1654.76
349.45	1755.11
349.66	1562.60
349.88	1689.57
350.09	1640.42
350.30	1714.15
350.51	1841.12
350.72	1796.07
350.93	1714.15
351.14	1669.09
351.35	1624.04
351.56	1648.61
351.77	1665.00
351.99	1703.91
352.20	1777.64
352.41	1742.82
352.62	1619.94
352.83	1658.85
353.04	1671.14
353.25	1660.90
353.46	1740.77
353.67	1751.01
353.88	1597.42
354.09	1722.34
354.30	1699.81
354.52	1656.81
354.73	1615.85
354.94	1626.09
355.15	1617.90
355.36	1839.08
355.57	1730.53
355.78	1771.49
355.99	1650.66
356.20	1605.61
356.41	1802.21
356.62	1728.49
356.83	1710.05
357.04	1789.92
357.25	1615.85
357.46	1691.62
357.68	1617.90
357.89	1607.66
358.10	1701.86
358.31	1673.19
358.52	1722.34
358.73	1646.57
358.94	1593.32
359.15	1675.24
359.36	1665.00
359.57	1689.57
359.78	1687.53
359.99	1714.15
360.20	1632.23
360.41	1671.14
360.62	1726.44
360.83	1665.00
361.04	1748.97
361.25	1763.30
361.46	1800.16
361.67	1712.10
361.88	1730.53
362.09	1673.19
362.30	1708.01
362.51	1636.33
362.72	1746.92
362.93	1775.59
363.14	1722.34
363.35	1728.49
363.56	1648.61
363.78	1759.21
363.99	1787.88
364.20	1691.62
364.41	1763.30
364.62	1765.35
364.83	1740.77
365.04	1656.81
365.25	1714.15
365.46	1861.60
365.67	1726.44
365.88	1605.61
366.09	1744.87
366.30	1660.90
366.51	1693.67
366.72	1722.34
366.93	1683.43
367.14	1769.44
367.35	1748.97
367.56	1720.29
367.77	1771.49
367.98	1685.48
368.18	1785.83
368.39	1699.81
368.60	1652.71
368.81	1685.48
369.02	1689.57
369.23	1677.29
369.44	1630.18
369.65	1693.67
369.86	1757.16
370.07	1738.73
370.28	1636.33
370.49	1773.54
370.70	1767.40
370.91	1624.04
371.12	1617.90
371.33	1759.21
371.54	1665.00
371.75	1722.34
371.96	1599.46
372.17	1697.77
372.38	1718.25
372.59	1746.92
372.80	1652.71
373.01	1624.04
373.22	1718.25
373.43	1636.33
373.64	1624.04
373.85	1787.88
374.06	1826.79
374.26	1712.10
374.47	1685.48
374.68	1777.64
374.89	1720.29
375.10	1789.92
375.31	1685.48
375.52	1701.86
375.73	1630.18
375.94	1601.51
376.15	1777.64
376.36	1599.46
376.57	1677.29
376.78	1658.85
376.99	1755.11
377.20	1738.73
377.40	1656.81
377.61	1834.98
377.82	1689.57
378.03	1802.21
378.24	1732.58
378.45	1691.62
378.66	1685.48
378.87	1667.05
379.08	1624.04
379.29	1644.52
379.50	1740.77
379.71	1738.73
379.91	1724.39
380.12	1667.05
380.33	1681.38
380.54	1724.39
380.75	1658.85
380.96	1597.42
381.17	1859.56
381.38	1712.10
381.59	1726.44
381.80	1693.67
382.00	1894.37
382.21	1810.40
382.42	1775.59
382.63	1931.23
382.84	1771.49
383.05	1865.70
383.26	1808.36
383.47	1705.96
383.68	1775.59
383.88	1798.12
384.09	1724.39
384.30	1837.03
384.51	1800.16
384.72	1724.39
384.93	1652.71
385.14	1724.39
385.35	1677.29
385.55	1660.90
385.76	1763.30
385.97	1691.62
386.18	1650.66
386.39	1753.06
386.60	1640.42
386.81	1712.10
387.02	1638.38
387.22	1619.94
387.43	1789.92
387.64	1857.51
387.85	1837.03
388.06	2242.53
388.27	4239.30
388.48	6973.33
388.68	8333.18
388.89	9789.29
389.10	9867.11
389.31	8736.63
389.52	7653.26
389.73	6893.46
389.93	6369.18
390.14	6045.60
390.35	5177.26
390.56	4517.82
390.77	3831.75
390.98	2983.89
391.18	2564.06
391.39	2093.02
391.60	1822.69
391.81	1820.64
392.02	1695.72
392.23	1888.23
392.43	1681.38
392.64	1810.40
392.85	1656.81
393.06	1847.27
393.27	1710.05
393.47	1621.99
393.68	1656.81
393.89	1728.49
394.10	1781.73
394.31	1716.20
394.52	1638.38
394.72	1660.90
394.93	1853.41
395.14	1638.38
395.35	1767.40
395.56	1665.00
395.76	1726.44
395.97	1720.29
396.18	1900.52
396.39	1771.49
396.60	2050.02
396.80	1837.03
397.01	1888.23
397.22	1820.64
397.43	1861.60
397.64	1679.33
397.84	1798.12
398.05	1929.19
398.26	1665.00
398.47	1787.88
398.67	1824.74
398.88	1775.59
399.09	1744.87
399.30	1705.96
399.51	1736.68
399.71	1660.90
399.92	1767.40
400.13	1644.52
400.34	1624.04
400.54	1746.92
400.75	1765.35
400.96	1765.35
401.17	1753.06
401.37	1798.12
401.58	1681.38
401.79	1673.19
402.00	1839.08
402.21	1949.67
402.41	1900.52
402.62	2021.35
402.83	1920.99
403.04	1951.71
403.24	1980.39
403.45	1826.79
403.66	1943.52
403.87	1935.33
404.07	1853.41
404.28	1896.42
404.49	1882.08
404.70	1832.93
404.90	1763.30
405.11	1722.34
405.32	1728.49
405.52	1605.61
405.73	1636.33
405.94	1675.24
406.15	1636.33
406.35	1761.25
406.56	1693.67
406.77	1662.95
406.98	1665.00
407.18	1669.09
407.39	1742.82
407.60	1718.25
407.80	1691.62
408.01	1669.09
408.22	1742.82
408.43	1650.66
408.63	1714.15
408.84	1677.29
409.05	1691.62
409.25	1652.71
409.46	1736.68
409.67	1697.77
409.88	1648.61
410.08	1681.38
410.29	1712.10
410.50	1689.57
410.70	1665.00
410.91	1595.37
411.12	1708.01
411.32	1720.29
411.53	1705.96
411.74	1761.25
411.95	1755.11
412.15	1720.29
412.36	1757.16
412.57	1697.77
412.77	1812.45
412.98	1785.83
413.19	1658.85
413.39	1796.07
413.60	1787.88
413.81	1794.02
414.01	1650.66
414.22	1724.39
414.43	1773.54
414.63	1669.09
414.84	1695.72
415.05	1775.59
415.25	1728.49
415.46	1671.14
415.67	1714.15
415.87	1724.39
416.08	1628.14
416.29	1685.48
416.49	1761.25
416.70	1599.46
416.91	1734.63
417.11	1691.62
417.32	1794.02
417.53	1751.01
417.73	1722.34
417.94	1677.29
418.15	1730.53
418.35	1656.81
418.56	1779.68
418.77	1837.03
418.97	1689.57
419.18	1689.57
419.38	1642.47
419.59	1708.01
419.80	1767.40
420.00	1615.85
420.21	1697.77
420.42	1759.21
420.62	1685.48
420.83	1679.33
421.04	1669.09
421.24	1691.62
421.45	1738.73
421.65	1693.67
421.86	1759.21
422.07	1687.53
422.27	1712.10
422.48	1718.25
422.69	1708.01
422.89	1728.49
423.10	1683.43
423.30	1638.38
423.51	1699.81
423.72	1787.88
423.92	1728.49
424.13	1691.62
424.33	1722.34
424.54	1703.91
424.75	1705.96
424.95	1789.92
425.16	1712.10
425.36	1634.28
425.57	1687.53
425.78	1718.25
425.98	1675.24
426.19	1650.66
426.39	1671.14
426.60	1697.77
426.81	1824.74
427.01	1708.01
427.22	1765.35
427.42	1681.38
427.63	1669.09
427.83	1826.79
428.04	1755.11
428.25	1802.21
428.45	1789.92
428.66	1748.97
428.86	1648.61
429.07	1673.19
429.28	1646.57
429.48	1652.71
429.69	1619.94
429.89	1724.39
430.10	1632.23
430.30	1845.22
430.51	1779.68
430.71	1660.90
430.92	1601.51
431.13	1683.43
431.33	1687.53
431.54	1714.15
431.74	1708.01
431.95	1865.70
432.15	1716.20
432.36	1861.60
432.56	1740.77
432.77	1820.64
432.98	1832.93
433.18	1748.97
433.39	1783.78
433.59	1703.91
433.80	1851.36
434.00	1869.80
434.21	1660.90
434.41	1619.94
434.62	1845.22
434.82	1624.04
435.03	1607.66
435.23	1701.86
435.44	1708.01
435.64	1763.30
435.85	1742.82
436.06	1724.39
436.26	1765.35
436.47	1732.58
436.67	1685.48
436.88	1654.76
437.08	1775.59
437.29	1789.92
437.49	1681.38
437.70	1677.29
437.90	1718.25
438.11	1841.12
438.31	1726.44
438.52	1845.22
438.72	1847.27
438.93	1820.64
439.13	1781.73
439.34	1847.27
439.54	1738.73
439.75	1820.64
439.95	1751.01
440.16	1665.00
440.36	1628.14
440.57	1771.49
440.77	1751.01
440.98	1779.68
441.18	1746.92
441.39	1763.30
441.59	1658.85
441.80	1857.51
442.00	1720.29
442.21	1808.36
442.41	1669.09
442.62	1759.21
442.82	1621.99
443.02	1654.76
443.23	1769.44
443.43	1667.05
443.64	1783.78
443.84	1660.90
444.05	1849.32
444.25	1710.05
444.46	1642.47
444.66	1757.16
444.87	1820.64
445.07	1640.42
445.28	1687.53
445.48	1757.16
445.69	1765.35
445.89	1853.41
446.09	1765.35
446.30	2054.11
446.50	2668.50
446.71	3753.93
446.91	4259.78
447.12	4726.71
447.32	4851.64
447.53	4429.76
447.73	3891.14
447.93	3555.27
448.14	3284.94
448.34	3110.86
448.55	2969.55
448.75	2865.11
448.96	2709.46
449.16	2502.62
449.36	2246.62
449.57	2062.30
449.77	1880.04
449.98	1812.45
450.18	1775.59
450.39	1751.01
450.59	1722.34
450.79	1765.35
451.00	1697.77
451.20	1826.79
451.41	1673.19
451.61	1753.06
451.81	1718.25
452.02	1714.15
452.22	1718.25
452.43	1630.18
452.63	1720.29
452.84	1781.73
453.04	1753.06
453.24	1771.49
453.45	1660.90
453.65	1740.77
453.86	1779.68
454.06	1753.06
454.26	1708.01
454.47	1699.81
454.67	1771.49
454.87	1677.29
455.08	1714.15
455.28	1875.94
455.49	1800.16
455.69	1771.49
455.89	1798.12
456.10	1806.31
456.30	1632.23
456.51	1701.86
456.71	1771.49
456.91	1728.49
457.12	1746.92
457.32	1755.11
457.52	1689.57
457.73	1708.01
457.93	1789.92
458.14	1708.01
458.34	1699.81
458.54	1769.44
458.75	1683.43
458.95	1820.64
459.15	1765.35
459.36	1781.73
459.56	1732.58
459.76	1828.84
459.97	1779.68
460.17	1724.39
460.37	1783.78
460.58	1701.86
460.78	1691.62
460.99	1705.96
461.19	1710.05
461.39	1595.37
461.60	1662.95
461.80	1759.21
462.00	1628.14
462.21	1683.43
462.41	1701.86
462.61	1693.67
462.82	1644.52
463.02	1742.82
463.22	1681.38
463.43	1791.97
463.63	1671.14
463.83	1777.64
464.04	1785.83
464.24	1732.58
464.44	1748.97
464.64	1710.05
464.85	1669.09
465.05	1748.97
465.25	1751.01
465.46	1650.66
465.66	1808.36
465.86	1855.46
466.07	1708.01
466.27	1791.97
466.47	1632.23
466.68	1691.62
466.88	1837.03
467.08	1744.87
467.29	1773.54
467.49	1734.63
467.69	1732.58
467.89	1738.73
468.10	1738.73
468.30	1767.40
468.50	1771.49
468.71	1712.10
468.91	1665.00
469.11	1861.60
469.31	1695.72
469.52	1599.46
469.72	1796.07
469.92	1757.16
470.13	1746.92
470.33	1734.63
470.53	1820.64
470.73	2068.45
470.94	2357.21
471.14	2299.87
471.34	2586.58
471.54	2377.69
471.75	2353.12
471.95	2131.94
472.15	2019.30
472.36	2136.03
472.56	2019.30
472.76	2082.78
472.96	1992.67
473.17	1955.81
473.37	1880.04
473.57	1828.84
473.77	1740.77
473.98	1755.11
474.18	1652.71
474.38	1884.13
474.58	1669.09
474.79	1710.05
474.99	1777.64
475.19	1728.49
475.39	1712.10
475.60	1726.44
475.80	1656.81
476.00	1712.10
476.20	1660.90
476.41	1714.15
476.61	1757.16
476.81	1812.45
477.01	1724.39
477.21	1789.92
477.42	1798.12
477.62	1599.46
477.82	1712.10
478.02	1757.16
478.23	1718.25
478.43	1660.90
478.63	1693.67
478.83	1751.01
479.03	1740.77
479.24	1669.09
479.44	1820.64
479.64	1759.21
479.84	1601.51
480.04	1628.14
480.25	1755.11
480.45	1673.19
480.65	1681.38
480.85	1755.11
481.06	1701.86
481.26	1751.01
481.46	1728.49
481.66	1759.21
481.86	1744.87
482.06	1738.73
482.27	1667.05
482.47	1685.48
482.67	1763.30
482.87	1681.38
483.07	1720.29
483.28	1705.96
483.48	1621.99
483.68	1726.44
483.88	1703.91
484.08	1636.33
484.29	1601.51
484.49	1634.28
484.69	1667.05
484.89	1796.07
485.09	1857.51
485.29	1718.25
485.50	1644.52
485.70	1644.52
485.90	1808.36
486.10	1693.67
486.30	1701.86
486.50	1730.53
486.71	1785.83
486.91	1734.63
487.11	1841.12
487.31	1710.05
487.51	1640.42
487.71	1677.29
487.91	1605.61
488.12	1656.81
488.32	1619.94
488.52	1751.01
488.72	1585.13
488.92	1705.96
489.12	1806.31
489.32	1785.83
489.53	1806.31
489.73	1675.24
489.93	1796.07
490.13	1720.29
490.33	1642.47
490.53	1771.49
490.73	1849.32
490.94	1734.63
491.14	1755.11
491.34	1863.65
491.54	2101.22
491.74	2568.15
491.94	2901.97
492.14	2990.03
492.34	2969.55
492.54	2731.99
492.75	2598.87
492.95	2435.03
493.15	2371.55
493.35	2312.16
493.55	2185.18
493.75	2080.74
493.95	2215.90
494.15	2025.44
494.35	1900.52
494.56	1884.13
494.76	1814.50
494.96	1724.39
495.16	1759.21
495.36	1720.29
495.56	1759.21
495.76	1724.39
495.96	1693.67
496.16	1693.67
496.36	1896.42
496.56	1726.44
496.77	1728.49
496.97	1662.95
497.17	1822.69
497.37	1632.23
497.57	1751.01
497.77	1728.49
497.97	1724.39
498.17	1673.19
498.37	1613.80
498.57	1693.67
498.77	1730.53
498.97	1736.68
499.17	1789.92
499.38	1724.39
499.58	1722.34
499.78	1814.50
499.98	1781.73
500.18	1689.57
500.38	1710.05
500.58	1890.28
500.78	2607.06
500.98	4642.75
501.18	5885.86
501.38	6920.09
501.58	7149.46
501.78	6735.77
501.98	5631.91
502.18	5001.14
502.38	4501.44
502.58	4202.43
502.78	3846.09
502.98	3729.35
503.18	3403.72
503.38	3051.47
503.59	2873.30
503.79	2705.37
503.99	2488.28
504.19	2287.58
504.39	2324.44
504.59	2119.65
504.79	2072.54
504.99	2111.46
505.19	1980.39
505.39	1877.99
505.59	1992.67
505.79	1894.37
505.99	1884.13
506.19	1877.99
506.39	1779.68
506.59	1765.35
506.79	1730.53
506.99	1748.97
507.19	1820.64
507.39	1802.21
507.59	1748.97
507.79	1714.15
507.99	1601.51
508.19	1710.05
508.39	1724.39
508.59	1626.09
508.79	1810.40
508.99	1830.88
509.19	1615.85
509.39	1763.30
509.59	1673.19
509.79	1705.96
509.99	1710.05
510.19	1828.84
510.39	1773.54
510.59	1751.01
510.79	1656.81
510.99	1740.77
511.19	1722.34
511.39	1789.92
511.59	1722.34
511.79	1810.40
511.99	1720.29
512.19	1755.11
512.38	1736.68
512.58	1761.25
512.78	1656.81
512.98	1832.93
513.18	1789.92
513.38	1710.05
513.58	1722.34
513.78	1656.81
513.98	1712.10
514.18	1701.86
514.38	1685.48
514.58	1785.83
514.78	1681.38
514.98	1728.49
515.18	1740.77
515.38	1626.09
515.58	1804.26
515.78	1726.44
515.98	1681.38
516.18	1812.45
516.38	1701.86
516.57	1773.54
516.77	1660.90
516.97	1730.53
517.17	1732.58
517.37	1619.94
517.57	1755.11
517.77	1722.34
517.97	1658.85
518.17	1773.54
518.37	1683.43
518.57	1681.38
518.77	1740.77
518.97	1691.62
519.16	1746.92
519.36	1736.68
519.56	1677.29
519.76	1650.66
519.96	1734.63
520.16	1802.21
520.36	1705.96
520.56	1800.16
520.76	1740.77
520.96	1685.48
521.16	1830.88
521.35	1765.35
521.55	1863.65
521.75	1710.05
521.95	1630.18
522.15	1660.90
522.35	1693.67
522.55	1691.62
522.75	1744.87
522.95	1695.72
523.14	1640.42
523.34	1681.38
523.54	1656.81
523.74	1751.01
523.94	1738.73
524.14	1636.33
524.34	1755.11
524.54	1781.73
524.73	1703.91
524.93	1720.29
525.13	1697.77
525.33	1748.97
525.53	1886.18
525.73	1746.92
525.93	1742.82
526.13	1722.34
526.32	1818.60
526.52	1775.59
526.72	1816.55
526.92	1683.43
527.12	1695.72
527.32	1710.05
527.52	1765.35
527.71	1777.64
527.91	1636.33
528.11	1697.77
528.31	1742.82
528.51	1656.81
528.71	1705.96
528.90	1705.96
529.10	1730.53
529.30	1783.78
529.50	1607.66
529.70	1626.09
529.90	1611.75
530.09	1646.57
530.29	1632.23
530.49	1673.19
530.69	1798.12
530.89	1734.63
531.09	1771.49
531.28	1812.45
531.48	1798.12
531.68	1720.29
531.88	1724.39
532.08	1796.07
532.28	1724.39
532.47	1777.64
532.67	1787.88
532.87	1697.77
533.07	1681.38
533.27	1787.88
533.46	1718.25
533.66	1822.69
533.86	1738.73
534.06	1742.82
534.26	1783.78
534.45	1744.87
534.65	1759.21
534.85	1720.29
535.05	1726.44
535.25	1822.69
535.44	1695.72
535.64	1710.05
535.84	1630.18
536.04	1718.25
536.24	1714.15
536.43	1626.09
536.63	1775.59
536.83	1705.96
537.03	1730.53
537.22	1558.50
537.42	1638.38
537.62	1796.07
537.82	1599.46
538.02	1816.55
538.21	1877.99
538.41	1882.08
538.61	1738.73
538.81	1718.25
539.00	1796.07
539.20	1638.38
539.40	1691.62
539.60	1710.05
539.79	1722.34
539.99	1742.82
540.19	1679.33
540.39	1710.05
540.58	1742.82
540.78	1757.16
540.98	1744.87
541.18	1789.92
541.37	1785.83
541.57	1720.29
541.77	1689.57
541.97	1646.57
542.16	1675.24
542.36	1785.83
542.56	1744.87
542.76	1822.69
542.95	1738.73
543.15	1777.64
543.35	1765.35
543.54	1777.64
543.74	1701.86
543.94	1804.26
544.14	1681.38
544.33	1693.67
544.53	1681.38
544.73	1757.16
544.93	1687.53
545.12	1697.77
545.32	1722.34
545.52	1771.49
545.71	1660.90
545.91	1701.86
546.11	1705.96
546.30	1714.15
546.50	1701.86
546.70	1779.68
546.90	1794.02
547.09	1619.94
547.29	1654.76
547.49	1789.92
547.68	1755.11
547.88	1656.81
548.08	1837.03
548.27	2197.47
548.47	1726.44
548.67	1691.62
548.87	1738.73
549.06	1742.82
549.26	1757.16
549.46	1689.57
549.65	1777.64
549.85	1816.55
550.05	1783.78
550.24	1624.04
550.44	1751.01
550.64	1738.73
550.83	1677.29
551.03	1800.16
551.23	1781.73
551.42	1753.06
551.62	1693.67
551.82	1699.81
552.01	1734.63
552.21	1775.59
552.41	1693.67
552.60	1808.36
552.80	1800.16
553.00	1652.71
553.19	1740.77
553.39	1781.73
553.59	1533.93
553.78	1740.77
553.98	1828.84
554.17	1644.52
554.37	1761.25
554.57	1781.73
554.76	1691.62
554.96	1724.39
555.16	1703.91
555.35	1783.78
555.55	1771.49
555.75	1736.68
555.94	1814.50
556.14	1660.90
556.33	1783.78
556.53	1767.40
556.73	1697.77
556.92	1791.97
557.12	1900.52
557.32	1771.49
557.51	1794.02
557.71	1734.63
557.90	1824.74
558.10	1834.98
558.30	1753.06
558.49	1808.36
558.69	1714.15
558.88	1726.44
559.08	1648.61
559.28	1738.73
559.47	1722.34
559.67	1738.73
559.86	1861.60
560.06	1744.87
560.26	1720.29
560.45	1800.16
560.65	1675.24
560.84	1796.07
561.04	1656.81
561.24	1853.41
561.43	1677.29
561.63	1775.59
561.82	1763.30
562.02	1796.07
562.22	1734.63
562.41	1578.98
562.61	1654.76
562.80	1626.09
563.00	1904.61
563.19	1701.86
563.39	1841.12
563.59	1722.34
563.78	1687.53
563.98	1705.96
564.17	1652.71
564.37	1617.90
564.56	1691.62
564.76	1642.47
564.96	1834.98
565.15	1744.87
565.35	1857.51
565.54	1677.29
565.74	1701.86
565.93	1665.00
566.13	1730.53
566.32	1714.15
566.52	1730.53
566.71	1744.87
566.91	1794.02
567.11	1773.54
567.30	1703.91
567.50	1746.92
567.69	1746.92
567.89	1767.40
568.08	1701.86
568.28	1681.38
568.47	1677.29
568.67	1722.34
568.86	1744.87
569.06	1724.39
569.25	1722.34
569.45	1683.43
569.64	1673.19
569.84	1757.16
570.04	1730.53
570.23	1662.95
570.43	1724.39
570.62	1742.82
570.82	1822.69
571.01	1665.00
571.21	1710.05
571.40	1716.20
571.60	1732.58
571.79	1759.21
571.99	1726.44
572.18	1701.86
572.38	1662.95
572.57	1697.77
572.77	1789.92
572.96	1927.14
573.16	1648.61
573.35	1720.29
573.55	1814.50
573.74	1746.92
573.94	1705.96
574.13	1720.29
574.33	1736.68
574.52	1767.40
574.71	1720.29
574.91	1693.67
575.10	1705.96
575.30	1667.05
575.49	1773.54
575.69	1699.81
575.88	1763.30
576.08	1703.91
576.27	1787.88
576.47	1726.44
576.66	1841.12
576.86	1849.32
577.05	1691.62
577.25	1789.92
577.44	1857.51
577.64	1679.33
577.83	1832.93
578.02	1769.44
578.22	1857.51
578.41	1857.51
578.61	1691.62
578.80	1681.38
579.00	1708.01
579.19	1699.81
579.39	1705.96
579.58	1796.07
579.77	1757.16
579.97	1779.68
580.16	1898.47
580.36	1839.08
580.55	1837.03
580.75	1779.68
580.94	1875.94
581.13	1855.46
581.33	1796.07
581.52	1699.81
581.72	1886.18
581.91	1800.16
582.11	1730.53
582.30	1636.33
582.49	1775.59
582.69	1871.84
582.88	1728.49
583.08	1806.31
583.27	1818.60
583.47	1773.54
583.66	1746.92
583.85	1703.91
584.05	1771.49
584.24	1744.87
584.44	1730.53
584.63	1777.64
584.82	1890.28
585.02	1841.12
585.21	1843.17
585.41	1873.89
585.60	1867.75
585.79	1935.33
585.99	1904.61
586.18	1908.71
586.37	2191.33
586.57	3350.48
586.76	10237.80
586.96	25011.84
587.15	35405.28
587.34	41465.22
587.54	43328.87
587.73	37703.10
587.93	27068.00
588.12	22251.18
588.31	18695.91
588.51	16746.24
588.70	15539.99
588.89	14571.30
589.09	12744.51
589.28	11079.51
589.47	9549.68
589.67	8056.71
589.86	6496.16
590.06	4982.71
590.25	3997.64
590.44	3213.26
590.64	2680.79
590.83	2209.76
591.02	2113.50
591.22	1980.39
591.41	1888.23
591.60	1832.93
591.80	1941.47
591.99	1757.16
592.18	1697.77
592.38	1830.88
592.57	1734.63
592.76	1703.91
592.96	1845.22
593.15	1732.58
593.34	1812.45
593.54	1779.68
593.73	1775.59
593.92	1841.12
594.12	1714.15
594.31	1755.11
594.50	1843.17
594.70	1714.15
594.89	1888.23
595.08	1757.16
595.28	1802.21
595.47	1961.95
595.66	1773.54
595.86	1708.01
596.05	1689.57
596.24	1697.77
596.43	1736.68
596.63	1814.50
596.82	1757.16
597.01	1722.34
597.21	1873.89
597.40	1697.77
597.59	1726.44
597.79	1722.34
597.98	1699.81
598.17	1753.06
598.36	1679.33
598.56	1746.92
598.75	1753.06
598.94	1814.50
599.14	1708.01
599.33	1712.10
599.52	1736.68
599.71	1755.11
599.91	1820.64
600.10	1818.60
600.29	1681.38
600.48	1824.74
600.68	1755.11
600.87	1767.40
601.06	1708.01
601.26	1769.44
601.45	1787.88
601.64	1740.77
601.83	1779.68
602.03	1681.38
602.22	1705.96
602.41	1671.14
602.60	1861.60
602.80	1744.87
602.99	1701.86
603.18	1691.62
603.37	1732.58
603.57	1757.16
603.76	1712.10
603.95	1820.64
604.14	1693.67
604.34	1726.44
604.53	1677.29
604.72	1695.72
604.91	1804.26
605.10	1804.26
605.30	1730.53
605.49	1845.22
605.68	1763.30
605.87	1759.21
606.07	1683.43
606.26	1740.77
606.45	1798.12
606.64	1695.72
606.84	1648.61
607.03	1765.35
607.22	1828.84
607.41	1615.85
607.60	1726.44
607.80	1765.35
607.99	1806.31
608.18	1722.34
608.37	1771.49
608.56	1667.05
608.76	1861.60
608.95	1861.60
609.14	1742.82
609.33	1763.30
609.52	1748.97
609.72	1691.62
609.91	1814.50
610.10	1724.39
610.29	1843.17
610.48	1755.11
610.68	1806.31
610.87	1675.24
611.06	1705.96
611.25	1683.43
611.44	1826.79
611.63	1748.97
611.83	1708.01
612.02	1658.85
612.21	1759.21
612.40	1671.14
612.59	1660.90
612.79	1621.99
612.98	1722.34
613.17	1777.64
613.36	1626.09
613.55	1769.44
613.74	1679.33
613.93	1689.57
614.13	1724.39
614.32	1703.91
614.51	1757.16
614.70	1753.06
614.89	1640.42
615.08	1720.29
615.28	2060.26
615.47	1660.90
615.66	1769.44
615.85	1628.14
616.04	1834.98
616.23	1671.14
616.42	1667.05
616.62	1734.63
616.81	1734.63
617.00	1638.38
617.19	1800.16
617.38	1716.20
617.57	1675.24
617.76	1769.44
617.95	1748.97
618.15	1710.05
618.34	1800.16
618.53	1621.99
618.72	1769.44
618.91	1853.41
619.10	1847.27
619.29	1802.21
619.48	1781.73
619.68	1724.39
619.87	1742.82
620.06	1630.18
620.25	1703.91
620.44	1638.38
620.63	1638.38
620.82	1767.40
621.01	1779.68
621.20	1718.25
621.39	1775.59
621.59	1681.38
621.78	1669.09
621.97	1722.34
622.16	1710.05
622.35	1775.59
622.54	1716.20
622.73	1773.54
622.92	1624.04
623.11	1798.12
623.30	1697.77
623.49	1779.68
623.68	1656.81
623.88	1732.58
624.07	1679.33
624.26	1726.44
624.45	1830.88
624.64	1697.77
624.83	1722.34
625.02	1675.24
625.21	1718.25
625.40	1763.30
625.59	1837.03
625.78	1767.40
625.97	1757.16
626.16	1787.88
626.35	1740.77
626.54	1734.63
626.74	1843.17
626.93	1708.01
627.12	1636.33
627.31	1777.64
627.50	1728.49
627.69	1810.40
627.88	1669.09
628.07	1751.01
628.26	1611.75
628.45	1662.95
628.64	1724.39
628.83	1695.72
629.02	1732.58
629.21	1761.25
629.40	1724.39
629.59	1687.53
629.78	1685.48
629.97	1654.76
630.16	1748.97
630.35	1710.05
630.54	1685.48
630.73	1681.38
630.92	1716.20
631.11	1701.86
631.30	1763.30
631.49	1783.78
631.68	1640.42
631.87	1728.49
632.06	1576.94
632.25	1783.78
632.44	1681.38
632.63	1679.33
632.82	1660.90
633.01	1722.34
633.20	1697.77
633.39	1701.86
633.58	1718.25
633.77	1759.21
633.96	1648.61
634.15	1738.73
634.34	1761.25
634.53	1779.68
634.72	1656.81
634.91	1648.61
635.10	1685.48
635.29	1796.07
635.48	1695.72
635.67	1679.33
635.86	1624.04
636.05	1773.54
636.24	1734.63
636.43	1646.57
636.62	1859.56
636.81	1621.99
637.00	1705.96
637.19	1812.45
637.38	1710.05
637.57	1611.75
637.76	1691.62
637.95	1718.25
638.14	1646.57
638.33	1751.01
638.52	1736.68
638.71	1722.34
638.89	1673.19
639.08	1757.16
639.27	1714.15
639.46	1654.76
639.65	1718.25
639.84	1798.12
640.03	1685.48
640.22	1724.39
640.41	1804.26
640.60	1763.30
640.79	1640.42
640.98	1722.34
641.17	1710.05
641.36	1718.25
641.55	1730.53
641.74	1603.56
641.92	1648.61
642.11	1665.00
642.30	1693.67
642.49	1679.33
642.68	1740.77
642.87	1755.11
643.06	1822.69
643.25	1718.25
643.44	1681.38
643.63	1648.61
643.82	1775.59
644.00	1669.09
644.19	1755.11
644.38	1638.38
644.57	1732.58
644.76	1734.63
644.95	1644.52
645.14	1677.29
645.33	1701.86
645.52	1722.34
645.71	1677.29
645.89	1726.44
646.08	1759.21
646.27	1724.39
646.46	1849.32
646.65	1708.01
646.84	1665.00
647.03	1714.15
647.22	1779.68
647.40	1802.21
647.59	1755.11
647.78	1683.43
647.97	1603.56
648.16	1675.24
648.35	1767.40
648.54	1824.74
648.73	1675.24
648.91	1697.77
649.10	1755.11
649.29	1695.72
649.48	1724.39
649.67	1699.81
649.86	1607.66
650.05	1693.67
650.23	1775.59
650.42	1632.23
650.61	1787.88
650.80	1757.16
650.99	1873.89
651.18	1796.07
651.36	1714.15
651.55	1730.53
651.74	1759.21
651.93	1720.29
652.12	1679.33
652.31	1671.14
652.49	1617.90
652.68	1640.42
652.87	1796.07
653.06	1654.76
653.25	1703.91
653.44	1689.57
653.62	1804.26
653.81	1744.87
654.00	1665.00
654.19	1753.06
654.38	1834.98
654.56	1779.68
654.75	1673.19
654.94	1722.34
655.13	1753.06
655.32	1681.38
655.51	1767.40
655.69	1773.54
655.88	1763.30
656.07	1685.48
656.26	1671.14
656.45	1691.62
656.63	1718.25
656.82	1798.12
657.01	1791.97
657.20	1708.01
657.38	1710.05
657.57	1744.87
657.76	1675.24
657.95	1746.92
658.14	1665.00
658.32	1710.05
658.51	1662.95
658.70	1687.53
658.89	1701.86
659.08	1712.10
659.26	1839.08
659.45	1656.81
659.64	1667.05
659.83	1652.71
660.01	1882.08
660.20	1771.49
660.39	1818.60
660.58	1560.55
660.76	1742.82
660.95	1671.14
661.14	1689.57
661.33	1669.09
661.51	1705.96
661.70	1685.48
661.89	1779.68
662.08	1701.86
662.26	1613.80
662.45	1689.57
662.64	1787.88
662.83	1726.44
663.01	1624.04
663.20	1693.67
663.39	1824.74
663.58	1730.53
663.76	1640.42
663.95	1716.20
664.14	1656.81
664.32	1681.38
664.51	1669.09
664.70	1572.84
664.89	1732.58
665.07	1654.76
665.26	1783.78
665.45	1677.29
665.64	1740.77
665.82	1826.79
666.01	1761.25
666.20	1638.38
666.38	1777.64
666.57	1828.84
666.76	2152.42
666.95	4569.02
667.13	10811.23
667.32	15466.26
667.51	18302.70
667.69	19447.51
667.88	18173.67
668.07	12459.84
668.25	9682.80
668.44	8267.65
668.63	7430.03
668.81	6924.18
669.00	6385.57
669.19	5820.33
669.38	5316.53
669.56	4581.31
669.75	4138.94
669.94	3391.44
670.12	2936.79
670.31	2633.69
670.50	2320.35
670.68	2093.02
670.87	1886.18
671.06	1710.05
671.24	1771.49
671.43	1820.64
671.62	1785.83
671.80	1751.01
671.99	1751.01
672.18	1791.97
672.36	1748.97
672.55	1710.05
672.74	1757.16
672.92	1667.05
673.11	1673.19
673.29	1603.56
673.48	1775.59
673.67	1789.92
673.85	1806.31
674.04	1658.85
674.23	1724.39
674.41	1738.73
674.60	1656.81
674.79	1665.00
674.97	1638.38
675.16	1767.40
675.34	1794.02
675.53	1673.19
675.72	1673.19
675.90	1755.11
676.09	1753.06
676.28	1679.33
676.46	1632.23
676.65	1730.53
676.83	1636.33
677.02	1603.56
677.21	1767.40
677.39	1724.39
677.58	1613.80
677.77	1640.42
677.95	1753.06
678.14	1738.73
678.32	1701.86
678.51	1640.42
678.70	1781.73
678.88	1710.05
679.07	1683.43
679.25	1716.20
679.44	1746.92
679.63	1628.14
679.81	1753.06
680.00	1775.59
680.18	1763.30
680.37	1738.73
680.55	1693.67
680.74	1599.46
680.93	1554.41
681.11	1722.34
681.30	1691.62
681.48	1720.29
681.67	1632.23
681.85	1685.48
682.04	1765.35
682.23	1753.06
682.41	1738.73
682.60	1648.61
682.78	1669.09
682.97	1642.47
683.15	1759.21
683.34	1687.53
683.53	1822.69
683.71	1624.04
683.90	1796.07
684.08	1800.16
684.27	1636.33
684.45	1730.53
684.64	1765.35
684.82	1699.81
685.01	1687.53
685.19	1656.81
685.38	1748.97
685.57	1753.06
685.75	1624.04
685.94	1640.42
686.12	1724.39
686.31	1685.48
686.49	1841.12
686.68	1621.99
686.86	1806.31
687.05	1738.73
687.23	1877.99
687.42	1712.10
687.60	1628.14
687.79	1708.01
687.97	1718.25
688.16	1740.77
688.34	1812.45
688.53	1581.03
688.71	1656.81
688.90	1763.30
689.08	1716.20
689.27	1599.46
689.45	1751.01
689.64	1732.58
689.82	1703.91
690.01	1765.35
690.19	1705.96
690.38	1734.63
690.56	1763.30
690.75	1705.96
690.93	1695.72
691.12	1650.66
691.30	1705.96
691.49	1714.15
691.67	1689.57
691.86	1820.64
692.04	1710.05
692.23	1712.10
692.41	1685.48
692.60	1771.49
692.78	1771.49
692.97	1687.53
693.15	1712.10
693.34	1806.31
693.52	1724.39
693.71	1632.23
693.89	1701.86
694.08	1685.48
694.26	1740.77
694.44	1804.26
694.63	1699.81
694.81	1642.47
695.00	1685.48
695.18	1732.58
695.37	1837.03
695.55	1601.51
695.74	1732.58
695.92	1654.76
696.10	1716.20
696.29	1576.94
696.47	1624.04
696.66	1660.90
696.84	1648.61
697.03	1718.25
697.21	1832.93
697.40	2295.77
697.58	1724.39
697.76	1640.42
697.95	1718.25
698.13	1728.49
698.32	1736.68
698.50	1671.14
698.68	1775.59
698.87	1720.29
699.05	1765.35
699.24	1804.26
699.42	1583.08
699.61	1669.09
699.79	1699.81
699.97	1699.81
700.16	1699.81
700.34	1679.33
700.53	1710.05
700.71	1748.97
700.89	1832.93
701.08	1673.19
701.26	1728.49
701.45	2021.35
701.63	1728.49
701.81	1705.96
702.00	1683.43
702.18	1638.38
702.37	1703.91
702.55	1671.14
702.73	1708.01
702.92	1615.85
703.10	1779.68
703.28	1736.68
703.47	1693.67
703.65	1800.16
703.84	1767.40
704.02	1609.70
704.20	1761.25
704.39	1654.76
704.57	1742.82
704.75	1746.92
704.94	1781.73
705.12	1703.91
705.30	1832.93
705.49	2275.29
705.67	4632.51
705.86	9996.14
706.04	12973.88
706.22	14806.81
706.41	15986.44
706.59	14204.71
706.77	9983.85
706.96	7432.08
707.14	6719.39
707.32	6084.52
707.51	5633.96
707.69	5126.07
707.87	4222.91
708.06	3477.45
708.24	2914.26
708.42	2422.75
708.61	2285.53
708.79	1886.18
708.97	1933.28
709.16	1736.68
709.34	1730.53
709.52	1738.73
709.71	1794.02
709.89	1738.73
710.07	1679.33
710.26	1681.38
710.44	1685.48
710.62	1695.72
710.80	1640.42
710.99	1742.82
711.17	1773.54
711.35	1621.99
711.54	1689.57
711.72	1773.54
711.90	1755.11
712.09	1695.72
712.27	1685.48
712.45	1751.01
712.63	1669.09
712.82	1699.81
713.00	1644.52
713.18	1767.40
713.37	1732.58
713.55	1712.10
713.73	1777.64
713.91	1722.34
714.10	1730.53
714.28	1720.29
714.46	1748.97
714.65	1728.49
714.83	1675.24
715.01	1742.82
715.19	1669.09
715.38	1595.37
715.56	1693.67
715.74	1648.61
715.92	1658.85
716.11	1751.01
716.29	1652.71
716.47	1687.53
716.65	1695.72
716.84	1615.85
717.02	1845.22
717.20	1505.26
717.38	1656.81
717.57	1701.86
717.75	1697.77
717.93	1624.04
718.11	1722.34
718.30	1566.70
718.48	1718.25
718.66	1685.48
718.84	1804.26
719.03	1722.34
719.21	1679.33
719.39	1837.03
719.57	1798.12
719.75	1845.22
719.94	1720.29
720.12	1615.85
720.30	1720.29
720.48	1689.57
720.67	1689.57
720.85	1642.47
721.03	1640.42
721.21	1726.44
721.39	1677.29
721.58	1736.68
721.76	1777.64
721.94	1777.64
722.12	1769.44
722.30	1847.27
722.49	1673.19
722.67	1697.77
722.85	1751.01
723.03	1650.66
723.21	1697.77
723.40	1738.73
723.58	1705.96
723.76	1751.01
723.94	1769.44
724.12	1665.00
724.30	1800.16
724.49	1695.72
724.67	1572.84
724.85	1742.82
725.03	1726.44
725.21	1771.49
725.40	1759.21
725.58	1734.63
725.76	1726.44
725.94	1699.81
726.12	1628.14
726.30	1740.77
726.49	1736.68
726.67	1755.11
726.85	1650.66
727.03	1771.49
727.21	2162.66
727.39	2936.79
727.57	3860.42
727.76	4304.83
727.94	4446.14
728.12	4323.26
728.30	3745.73
728.48	2973.65
728.66	2748.37
728.84	2494.43
729.03	2295.77
729.21	2090.98
729.39	1951.71
729.57	1880.04
729.75	1861.60
729.93	1779.68
730.11	1697.77
730.30	1617.90
730.48	1632.23
730.66	1740.77
730.84	1791.97
731.02	1734.63
731.20	1640.42
731.38	1736.68
731.56	1740.77
731.74	1689.57
731.93	1783.78
732.11	1665.00
732.29	1753.06
732.47	1640.42
732.65	1722.34
732.83	1857.51
733.01	1648.61
733.19	1726.44
733.37	1685.48
733.56	1814.50
733.74	1695.72
733.92	1755.11
734.10	1708.01
734.28	1675.24
734.46	1613.80
734.64	1728.49
734.82	1681.38
735.00	1681.38
735.18	1699.81
735.36	1697.77
735.54	1734.63
735.73	1724.39
735.91	1708.01
736.09	1708.01
736.27	1658.85
736.45	1712.10
736.63	1597.42
736.81	1701.86
736.99	1787.88
737.17	1783.78
737.35	1642.47
737.53	1716.20
737.71	1613.80
737.89	1789.92
738.07	1695.72
738.25	1677.29
738.43	1640.42
738.61	1679.33
738.80	1601.51
738.98	1683.43
739.16	1681.38
739.34	1581.03
739.52	1763.30
739.70	1652.71
739.88	1744.87
740.06	1763.30
740.24	1615.85
740.42	1826.79
740.60	1632.23
740.78	1603.56
740.96	1630.18
741.14	1675.24
741.32	1685.48
741.50	1656.81
741.68	1847.27
741.86	1767.40
742.04	1644.52
742.22	1699.81
742.40	1667.05
742.58	1816.55
742.76	1679.33
742.94	1701.86
743.12	1591.27
743.30	1722.34
743.48	1771.49
743.66	1628.14
743.84	1722.34
744.02	1701.86
744.20	1701.86
744.38	1591.27
744.56	1644.52
744.74	1830.88
744.92	1740.77
745.10	1816.55
745.28	1748.97
745.46	1755.11
745.64	1677.29
745.82	1720.29
746.00	1679.33
746.18	1695.72
746.36	1658.85
746.54	1712.10
746.72	1751.01
746.90	1630.18
747.08	1708.01
747.26	1724.39
747.44	1759.21
747.62	1757.16
747.80	1738.73
747.98	1718.25
748.15	1742.82
748.33	1736.68
748.51	1652.71
748.69	1785.83
748.87	1599.46
749.05	1667.05
749.23	1708.01
749.41	1695.72
749.59	1683.43
749.77	1771.49
749.95	1662.95
750.13	1685.48
750.31	1730.53
750.49	1714.15
750.67	1699.81
750.85	1771.49
751.03	1718.25
751.20	1712.10
751.38	1634.28
751.56	1599.46
751.74	1662.95
751.92	1685.48
752.10	1589.22
752.28	1796.07
752.46	1636.33
752.64	1613.80
752.82	1701.86
753.00	1785.83
753.18	1703.91
753.35	1658.85
753.53	1660.90
753.71	1611.75
753.89	1753.06
754.07	1693.67
754.25	1804.26
754.43	1734.63
754.61	1667.05
754.79	1673.19
754.97	1699.81
755.14	1675.24
755.32	1587.18
755.50	1710.05
755.68	1714.15
755.86	1662.95
756.04	1695.72
756.22	1646.57
756.40	1675.24
756.57	1804.26
756.75	1648.61
756.93	1744.87
757.11	1714.15
757.29	1658.85
757.47	1695.72
757.65	1570.79
757.82	1634.28
758.00	1638.38
758.18	1681.38
758.36	1683.43
758.54	1755.11
758.72	1654.76
758.90	1744.87
759.07	1716.20
759.25	1677.29
759.43	1697.77
759.61	1621.99
759.79	2150.37
759.97	1787.88
760.15	1697.77
760.32	1587.18
760.50	1716.20
760.68	1771.49
760.86	1652.71
761.04	1720.29
761.22	1740.77
761.39	1667.05
761.57	1689.57
761.75	1716.20
761.93	1681.38
762.11	1693.67
762.28	1667.05
762.46	1628.14
762.64	1736.68
762.82	1570.79
763.00	1671.14
763.18	1728.49
763.35	1587.18
763.53	1722.34
763.71	1671.14
763.89	1654.76
764.07	1679.33
764.24	1753.06
764.42	1665.00
764.60	1755.11
764.78	1744.87
764.96	1759.21
765.13	1779.68
765.31	1689.57
765.49	1775.59
765.67	1652.71
765.84	1628.14
766.02	1640.42
766.20	1599.46
766.38	1691.62
766.56	1681.38
766.73	1726.44
766.91	1632.23
767.09	1691.62
767.27	1701.86
767.44	1658.85
767.62	1822.69
767.80	1740.77
767.98	1728.49
768.15	1748.97
768.33	1816.55
768.51	1728.49
768.69	1732.58
768.87	1640.42
769.04	1679.33
769.22	1814.50
769.40	1822.69
769.58	1820.64
769.75	1740.77
769.93	1740.77
770.11	1708.01
770.28	1703.91
770.46	1703.91
770.64	1705.96
770.82	1671.14
770.99	1673.19
771.17	1675.24
771.35	1673.19
771.53	1705.96
771.70	1693.67
771.88	1712.10
772.06	1730.53
772.23	1699.81
772.41	1748.97
772.59	1724.39
772.77	1640.42
772.94	1679.33
773.12	1724.39
773.30	1703.91
773.47	1726.44
773.65	1609.70
773.83	1775.59
774.01	1761.25
774.18	1617.90
774.36	1671.14
774.54	1597.42
774.71	1689.57
774.89	1642.47
775.07	1640.42
775.24	1689.57
775.42	1587.18
775.60	1808.36
775.78	1638.38
775.95	1587.18
776.13	1621.99
776.31	1558.50
776.48	1681.38
776.66	1736.68
776.84	1609.70
777.01	1619.94
777.19	1693.67
777.37	1714.15
777.54	1693.67
777.72	1845.22
777.90	1734.63
778.07	1634.28
778.25	1828.84
778.43	1789.92
778.60	1644.52
778.78	1787.88
778.96	1718.25
779.13	1648.61
779.31	1654.76
779.49	1683.43
779.66	1679.33
779.84	1714.15
780.01	1665.00
780.19	1648.61
780.37	1769.44
780.54	1734.63
780.72	1638.38
780.90	1687.53
781.07	1640.42
781.25	1681.38
781.43	1730.53
781.60	1671.14
781.78	1796.07
781.95	1679.33
782.13	1624.04
782.31	1742.82
782.48	1542.12
782.66	1667.05
782.83	1841.12
783.01	1734.63
783.19	1720.29
783.36	1583.08
783.54	1632.23
783.72	1726.44
783.89	1728.49
784.07	1642.47
784.24	1665.00
784.42	1826.79
784.60	1640.42
784.77	1722.34
784.95	1595.37
785.12	1681.38
785.30	1732.58
785.47	1740.77
785.65	1640.42
785.83	1673.19
786.00	1681.38
786.18	1755.11
786.35	1665.00
786.53	1611.75
786.71	1763.30
786.88	1730.53
787.06	1671.14
787.23	1699.81
787.41	1644.52
787.58	1640.42
787.76	1683.43
787.94	1710.05
788.11	1630.18
788.29	1634.28
788.46	1630.18
788.64	1593.32
788.81	1677.29
788.99	1667.05
789.16	1607.66
789.34	1724.39
789.52	1603.56
789.69	1732.58
789.87	1636.33
790.04	1722.34
790.22	1720.29
790.39	1740.77
790.57	1675.24
790.74	1646.57
790.92	1718.25
791.09	1542.12
791.27	1755.11
791.44	1814.50
791.62	1695.72
791.79	1765.35
791.97	1662.95
792.15	1918.95
792.32	1701.86
792.50	1742.82
792.67	1669.09
792.85	1816.55
793.02	1722.34
793.20	1701.86
793.37	1624.04
793.55	1689.57
793.72	1591.27
793.90	1691.62
794.07	1665.00
794.25	1710.05
794.42	1691.62
794.60	1652.71
794.77	1683.43
794.95	1728.49
795.12	1748.97
795.30	1648.61
795.47	1642.47
795.65	1855.46
795.82	1755.11
796.00	1658.85
796.17	1650.66
796.34	1601.51
796.52	1736.68
796.69	1759.21
796.87	1806.31
797.04	1685.48
797.22	1763.30
797.39	1665.00
797.57	1740.77
797.74	1685.48
797.92	1708.01
798.09	1662.95
798.27	1724.39
798.44	1650.66
798.62	1759.21
798.79	1605.61
798.96	1730.53
799.14	1669.09
799.31	1826.79
799.49	1665.00
799.66	1724.39
799.84	1763.30
800.01	1574.89
800.19	1693.67
800.36	1693.67
800.53	1671.14
800.71	1697.77
800.88	1781.73
801.06	1701.86
801.23	1689.57
801.41	1730.53
801.58	1687.53
801.75	1693.67
801.93	1718.25
802.10	1720.29
802.28	1640.42
802.45	1581.03
802.63	1808.36
802.80	1732.58
802.97	1671.14
803.15	1624.04
803.32	1695.72
803.50	1650.66
803.67	1609.70
803.84	1665.00
804.02	1708.01
804.19	1695.72
804.37	1613.80
804.54	1619.94
804.71	1648.61
804.89	1712.10
805.06	1566.70
805.24	1615.85
805.41	1658.85
805.58	1640.42
805.76	1863.65
805.93	1710.05
806.10	1751.01
806.28	1708.01
806.45	1632.23
806.63	1714.15
806.80	1753.06
806.97	1742.82
807.15	1779.68
807.32	1769.44
807.49	1675.24
807.67	1581.03
807.84	1699.81
808.01	1585.13
808.19	1773.54
808.36	1810.40
808.54	1691.62
808.71	1671.14
808.88	1689.57
809.06	1705.96
809.23	1822.69
809.40	1730.53
809.58	1714.15
809.75	1748.97
809.92	1658.85
810.10	1820.64
810.27	1744.87
810.44	1689.57
810.62	1744.87
810.79	1755.11
810.96	1570.79
811.14	1669.09
811.31	1681.38
811.48	1763.30
811.66	1665.00
811.83	1769.44
812.00	1708.01
812.18	1730.53
812.35	1791.97
812.52	1722.34
812.69	1718.25
812.87	1675.24
813.04	1665.00
813.21	1746.92
813.39	1703.91
813.56	1691.62
813.73	1699.81
813.91	1531.88
814.08	1699.81
814.25	1628.14
814.42	1648.61
814.60	1640.42
814.77	1699.81
814.94	1718.25
815.12	1671.14
815.29	1804.26
815.46	1642.47
815.63	1681.38
815.81	1650.66
815.98	1683.43
816.15	1689.57
816.33	1683.43
816.50	1656.81
816.67	1634.28
816.84	1699.81
817.02	1675.24
817.19	1656.81
817.36	1693.67
817.53	1769.44
817.71	1646.57
817.88	1718.25
818.05	1665.00
818.22	1701.86
818.40	1753.06
818.57	1732.58
818.74	1753.06
818.91	1671.14
819.09	1736.68
819.26	1785.83
819.43	1654.76
819.60	1662.95
819.78	1634.28
819.95	1761.25
820.12	1681.38
820.29	1740.77
820.47	1789.92
820.64	1603.56
820.81	1632.23
820.98	1712.10
821.15	1701.86
821.33	1732.58
821.50	1632.23
821.67	1613.80
821.84	1689.57
822.02	1669.09
822.19	1794.02
822.36	1665.00
822.53	1634.28
822.70	1609.70
822.88	1638.38
823.05	1771.49
823.22	1632.23
823.39	1679.33
823.56	1722.34
823.74	1744.87
823.91	1595.37
824.08	1658.85
824.25	1640.42
824.42	1804.26
824.60	1689.57
824.77	1597.42
824.94	1605.61
825.11	1681.38
825.28	1599.46
825.45	1679.33
825.63	1693.67
825.80	1660.90
825.97	1712.10
826.14	1683.43
826.31	1677.29
826.48	1691.62
826.66	1669.09
826.83	1662.95
827.00	1697.77
827.17	1695.72
827.34	1675.24
827.51	1669.09
827.69	1695.72
827.86	1710.05
828.03	1691.62
828.20	1705.96
828.37	1714.15
828.54	1796.07
828.71	1734.63
828.89	1726.44
829.06	1732.58
829.23	1701.86
829.40	1644.52
829.57	1650.66
829.74	1767.40
829.91	1568.74
830.09	1697.77
830.26	1736.68
830.43	1724.39
830.60	1785.83
830.77	1736.68
830.94	1722.34
831.11	1781.73
831.28	1716.20
831.46	1697.77
831.63	1665.00
831.80	1705.96
831.97	1681.38
832.14	1681.38
832.31	1681.38
832.48	1660.90
832.65	1759.21
832.82	1656.81
832.99	1746.92
833.17	1621.99
833.34	1798.12
833.51	1710.05
833.68	1566.70
833.85	1759.21
834.02	1685.48
834.19	1662.95
834.36	1650.66
834.53	1669.09
834.70	1740.77
834.87	1748.97
835.04	1718.25
835.22	1669.09
835.39	1708.01
835.56	1638.38
835.73	1667.05
835.90	1730.53
836.07	1624.04
836.24	1654.76
836.41	1632.23
836.58	1693.67
836.75	1691.62
836.92	1746.92
837.09	1554.41
837.26	1730.53
837.43	1730.53
837.60	1726.44
837.77	1630.18
837.94	1691.62
838.12	1818.60
838.29	1732.58
838.46	1656.81
838.63	1636.33
838.80	1800.16
838.97	1832.93
839.14	1722.34
839.31	1759.21
839.48	1740.77
839.65	1710.05
839.82	1724.39
839.99	1755.11
840.16	1656.81
840.33	1699.81
840.50	1695.72
840.67	1626.09
840.84	1648.61
841.01	1669.09
841.18	1673.19
841.35	1693.67
841.52	1630.18
841.69	1767.40
841.86	1685.48
842.03	1755.11
842.20	1673.19
842.37	1695.72
842.54	1658.85
842.71	1726.44
842.88	1636.33
843.05	1789.92
843.22	1638.38
843.39	1753.06
843.56	1705.96
843.73	1703.91
843.90	1732.58
844.07	1685.48
844.24	1710.05
844.41	1775.59
844.58	1771.49
844.75	1667.05
844.92	1722.34
845.09	1660.90
845.26	1697.77
845.43	1697.77
845.60	1720.29
845.77	1710.05
845.94	1828.84
846.10	1720.29
846.27	1624.04
846.44	1685.48
846.61	1695.72
846.78	1689.57
846.95	1621.99
847.12	1675.24
847.29	1634.28
847.46	1730.53
847.63	1798.12
847.80	1703.91
847.97	1669.09
848.14	1804.26
848.31	1685.48
848.48	1605.61
848.65	1740.77
848.82	1660.90
848.98	1865.70
849.15	1746.92
849.32	1810.40
849.49	1771.49
849.66	1691.62
849.83	1677.29
850.00	1587.18
850.17	1734.63
850.34	1708.01
850.51	1693.67
850.68	1697.77
850.85	1796.07
851.01	1720.29
851.18	1671.14
851.35	1675.24
851.52	1699.81
851.69	1820.64
851.86	1634.28
852.03	1617.90
852.20	1722.34
852.37	1667.05
852.53	1617.90
852.70	1722.34
852.87	1697.77
853.04	1722.34
853.21	1703.91
853.38	1755.11
853.55	1761.25
853.72	1755.11
853.89	1574.89
854.05	1595.37
854.22	1685.48
854.39	1730.53
854.56	1693.67
854.73	1746.92
854.90	1578.98
855.07	1615.85
855.23	1648.61
855.40	1652.71
855.57	1732.58
855.74	1554.41
855.91	1853.41
856.08	1644.52
856.25	1564.65
856.41	1726.44
856.58	1650.66
856.75	1714.15
856.92	1648.61
857.09	1705.96
857.26	1662.95
857.42	1683.43
857.59	1787.88
857.76	1675.24
857.93	1732.58
858.10	1730.53
858.27	1665.00
858.43	1673.19
858.60	1718.25
858.77	1656.81
858.94	1613.80
859.11	1843.17
859.27	1734.63
859.44	1665.00
859.61	1708.01
859.78	1652.71
859.95	1716.20
860.12	1665.00
860.28	1773.54
860.45	1798.12
860.62	1619.94
860.79	1665.00
860.95	1714.15
861.12	1538.02
861.29	1724.39
861.46	1685.48
861.63	1734.63
861.79	1751.01
861.96	1685.48
862.13	1667.05
862.30	1742.82
862.47	1673.19
862.63	1689.57
862.80	1748.97
862.97	1783.78
863.14	1710.05
863.30	1681.38
863.47	1697.77
863.64	1761.25
863.81	1656.81
863.97	1734.63
864.14	1634.28
864.31	1605.61
864.48	1652.71
864.65	1624.04
864.81	1722.34
864.98	1673.19
865.15	1732.58
865.32	1687.53
865.48	1703.91
865.65	1775.59
865.82	1652.71
865.98	1734.63
866.15	1730.53
866.32	1726.44
866.49	1681.38
866.65	1763.30
866.82	1552.36
866.99	1701.86
867.16	1738.73
867.32	1705.96
867.49	1691.62
867.66	1673.19
867.83	1665.00
867.99	1642.47
868.16	1634.28
868.33	1671.14
868.49	1658.85
868.66	1642.47
868.83	1708.01
868.99	1705.96
869.16	1665.00
869.33	1736.68
869.50	1740.77
869.66	1701.86
869.83	1660.90
870.00	1517.54
870.16	1714.15
870.33	1714.15
870.50	1751.01
870.66	1640.42
870.83	1847.27
871.00	1728.49
871.17	1648.61
871.33	1708.01
871.50	1656.81
871.67	1611.75
871.83	1705.96
872.00	1724.39
872.17	1634.28
872.33	1759.21
872.50	1679.33
872.67	1646.57
872.83	1701.86
873.00	1689.57
873.17	1726.44
873.33	1742.82
873.50	1736.68
873.67	1621.99
873.83	1613.80
874.00	1638.38
874.16	1697.77
874.33	1732.58
874.50	1642.47
874.66	1734.63
874.83	1699.81
875.00	1751.01
875.16	1740.77
875.33	1716.20
875.50	1554.41
875.66	1652.71
875.83	1681.38
875.99	1761.25
876.16	1724.39
876.33	1642.47
876.49	1765.35
876.66	1644.52
876.83	1679.33
876.99	1517.54
877.16	1665.00
877.32	1675.24
877.49	1652.71
877.66	1753.06
877.82	1732.58
877.99	1746.92
878.15	1751.01
878.32	1697.77
878.49	1724.39
878.65	1665.00
878.82	1769.44
878.98	1603.56
879.15	1734.63
879.32	1751.01
879.48	1693.67
879.65	1634.28
879.81	1634.28
879.98	1605.61
880.15	1757.16
880.31	1748.97
880.48	1628.14
880.64	1765.35
880.81	1763.30
880.97	1738.73
881.14	1734.63
881.31	1648.61
881.47	1828.84
881.64	1624.04
881.80	1587.18
881.97	1701.86
882.13	1716.20
882.30	1708.01
882.47	1687.53
882.63	1619.94
882.80	1697.77
882.96	1640.42
883.13	1716.20
883.29	1624.04
883.46	1705.96
883.62	1773.54
883.79	1703.91
883.95	1701.86
884.12	1697.77
884.29	1800.16
884.45	1730.53
884.62	1710.05
884.78	1644.52
884.95	1765.35
885.11	1642.47
885.28	1705.96
885.44	1689.57
885.61	1740.77
885.77	1773.54
885.94	1742.82
886.10	1701.86
886.27	1660.90
886.43	1787.88
886.60	1746.92
886.76	1626.09
886.93	1710.05
887.09	1751.01
887.26	1591.27
887.42	1740.77
887.59	1789.92
887.75	1787.88
887.92	1685.48
888.08	1683.43
888.25	1738.73
888.41	1755.11
888.58	1705.96
888.74	1626.09
888.91	1787.88
>>>>>End Processed Spectral Data<<<<<
