SpectraSuite Data File
++++++++++++++++++++++++++++++++++++
Date: Mon Jun 06 17:33:57 CEST 2016
User: root
Dark Spectrum Present: No
Reference Spectrum Present: No
Number of Sampled Component Spectra: 1
Spectrometers: USB4C02835
Integration Time (usec): 100000 (USB4C02835)
Spectra Averaged: 1 (USB4C02835)
Boxcar Smoothing: 0 (USB4C02835)
Correct for Electrical Dark: No (USB4C02835)
Strobe/Lamp Enabled: No (USB4C02835)
Correct for Detector Non-linearity: No (USB4C02835)
Correct for Stray Light: No (USB4C02835)
Number of Pixels in Processed Spectrum: 3648
>>>>>Begin Processed Spectral Data<<<<<
177.47	1447.91
177.69	1447.91
177.91	1447.91
178.13	1462.25
178.36	1509.35
178.58	1722.34
178.80	1769.44
179.02	1673.19
179.24	1619.94
179.46	1710.05
179.68	1771.49
179.90	1701.86
180.13	1699.81
180.35	1722.34
180.57	1695.72
180.79	1712.10
181.01	1730.53
181.23	1877.99
181.45	1783.78
181.67	1767.40
181.90	1662.95
182.12	1654.76
182.34	1648.61
182.56	1738.73
182.78	1757.16
183.00	1785.83
183.22	1800.16
183.44	1605.61
183.66	1869.80
183.89	1820.64
184.11	1693.67
184.33	1744.87
184.55	1873.89
184.77	1722.34
184.99	1722.34
185.21	1755.11
185.43	1828.84
185.65	1683.43
185.87	1708.01
186.10	1828.84
186.32	1857.51
186.54	1730.53
186.76	1755.11
186.98	1773.54
187.20	1685.48
187.42	1650.66
187.64	1714.15
187.86	1730.53
188.08	1732.58
188.30	1738.73
188.52	1783.78
188.75	1773.54
188.97	1812.45
189.19	1691.62
189.41	1728.49
189.63	1757.16
189.85	1654.76
190.07	1675.24
190.29	1646.57
190.51	1712.10
190.73	1617.90
190.95	1802.21
191.17	1710.05
191.39	1695.72
191.61	1685.48
191.84	1722.34
192.06	1800.16
192.28	1730.53
192.50	1918.95
192.72	1726.44
192.94	1740.77
193.16	1759.21
193.38	1699.81
193.60	1632.23
193.82	1679.33
194.04	1787.88
194.26	1722.34
194.48	1751.01
194.70	1683.43
194.92	1652.71
195.14	1806.31
195.36	1693.67
195.58	1691.62
195.80	1734.63
196.02	1687.53
196.24	1734.63
196.46	1665.00
196.69	1640.42
196.91	1837.03
197.13	1722.34
197.35	1652.71
197.57	1724.39
197.79	1771.49
198.01	1718.25
198.23	1736.68
198.45	1726.44
198.67	1619.94
198.89	1646.57
199.11	1740.77
199.33	1660.90
199.55	1642.47
199.77	1718.25
199.99	1746.92
200.21	1748.97
200.43	1714.15
200.65	1636.33
200.87	1634.28
201.09	1699.81
201.31	1648.61
201.53	1724.39
201.75	1769.44
201.97	1738.73
202.19	1710.05
202.41	1822.69
202.63	1853.41
202.85	1755.11
203.07	1728.49
203.29	1609.70
203.51	1740.77
203.73	1695.72
203.95	1861.60
204.17	1796.07
204.39	1730.53
204.61	1673.19
204.83	1644.52
205.05	1732.58
205.27	1720.29
205.49	1841.12
205.71	1771.49
205.93	1660.90
206.15	1730.53
206.37	1716.20
206.59	1699.81
206.81	1665.00
207.03	1677.29
207.25	1589.22
207.47	1839.08
207.69	1738.73
207.91	1808.36
208.13	1796.07
208.34	1646.57
208.56	1708.01
208.78	1751.01
209.00	1701.86
209.22	1679.33
209.44	1673.19
209.66	1722.34
209.88	1626.09
210.10	1695.72
210.32	1685.48
210.54	1804.26
210.76	1724.39
210.98	1822.69
211.20	1576.94
211.42	1746.92
211.64	1830.88
211.86	1730.53
212.08	1734.63
212.30	1769.44
212.52	1718.25
212.74	1806.31
212.96	1677.29
213.17	1679.33
213.39	1697.77
213.61	1769.44
213.83	1771.49
214.05	1662.95
214.27	1849.32
214.49	1679.33
214.71	1613.80
214.93	1806.31
215.15	1755.11
215.37	1722.34
215.59	1632.23
215.81	1701.86
216.03	1703.91
216.24	1744.87
216.46	1748.97
216.68	1724.39
216.90	1828.84
217.12	1816.55
217.34	1761.25
217.56	1705.96
217.78	1824.74
218.00	1769.44
218.22	1828.84
218.44	1665.00
218.66	1746.92
218.87	1742.82
219.09	1679.33
219.31	1699.81
219.53	1652.71
219.75	1681.38
219.97	1708.01
220.19	1746.92
220.41	1755.11
220.63	1787.88
220.85	1710.05
221.06	1720.29
221.28	1734.63
221.50	1748.97
221.72	1714.15
221.94	1654.76
222.16	1748.97
222.38	1826.79
222.60	1736.68
222.82	1734.63
223.03	1718.25
223.25	1705.96
223.47	1732.58
223.69	1806.31
223.91	1699.81
224.13	1652.71
224.35	1701.86
224.57	1808.36
224.78	1708.01
225.00	1628.14
225.22	1617.90
225.44	1691.62
225.66	1816.55
225.88	1689.57
226.10	1751.01
226.32	1693.67
226.53	1761.25
226.75	1738.73
226.97	1751.01
227.19	1742.82
227.41	1689.57
227.63	1648.61
227.85	1652.71
228.06	1714.15
228.28	1667.05
228.50	1791.97
228.72	1648.61
228.94	1724.39
229.16	1583.08
229.37	1632.23
229.59	1705.96
229.81	1724.39
230.03	1673.19
230.25	1701.86
230.47	1632.23
230.69	1681.38
230.90	1726.44
231.12	1677.29
231.34	1755.11
231.56	1732.58
231.78	1761.25
232.00	1710.05
232.21	1726.44
232.43	1636.33
232.65	1607.66
232.87	1654.76
233.09	1697.77
233.30	1619.94
233.52	1746.92
233.74	1736.68
233.96	1716.20
234.18	1658.85
234.40	1736.68
234.61	1826.79
234.83	1701.86
235.05	1689.57
235.27	1855.46
235.49	1781.73
235.70	1742.82
235.92	1787.88
236.14	1703.91
236.36	1888.23
236.58	1638.38
236.79	1724.39
237.01	1738.73
237.23	1726.44
237.45	1867.75
237.67	1644.52
237.88	1769.44
238.10	1841.12
238.32	1675.24
238.54	1685.48
238.76	1728.49
238.97	1714.15
239.19	1640.42
239.41	1783.78
239.63	1814.50
239.85	1681.38
240.06	1675.24
240.28	1693.67
240.50	1757.16
240.72	1677.29
240.93	1767.40
241.15	1804.26
241.37	1683.43
241.59	1863.65
241.81	1697.77
242.02	1755.11
242.24	1662.95
242.46	1779.68
242.68	1738.73
242.89	1753.06
243.11	1751.01
243.33	1693.67
243.55	1695.72
243.76	1787.88
243.98	1781.73
244.20	1736.68
244.42	1771.49
244.64	1705.96
244.85	1656.81
245.07	1695.72
245.29	1701.86
245.51	1708.01
245.72	1687.53
245.94	1779.68
246.16	1736.68
246.38	1748.97
246.59	1648.61
246.81	1695.72
247.03	1773.54
247.24	1607.66
247.46	1660.90
247.68	1746.92
247.90	1685.48
248.11	1738.73
248.33	1808.36
248.55	1652.71
248.77	1716.20
248.98	1732.58
249.20	1912.80
249.42	1705.96
249.64	1777.64
249.85	1732.58
250.07	1746.92
250.29	1714.15
250.50	1716.20
250.72	1599.46
250.94	1724.39
251.16	1863.65
251.37	1832.93
251.59	1769.44
251.81	1714.15
252.02	1769.44
252.24	1671.14
252.46	1798.12
252.68	1677.29
252.89	1742.82
253.11	1576.94
253.33	1732.58
253.54	1693.67
253.76	1662.95
253.98	1718.25
254.20	1697.77
254.41	1644.52
254.63	1705.96
254.85	1644.52
255.06	1744.87
255.28	1726.44
255.50	1746.92
255.71	1646.57
255.93	1658.85
256.15	1712.10
256.36	1757.16
256.58	1638.38
256.80	1814.50
257.02	1701.86
257.23	1689.57
257.45	1705.96
257.67	1787.88
257.88	1656.81
258.10	1822.69
258.32	1697.77
258.53	1701.86
258.75	1800.16
258.97	1703.91
259.18	1726.44
259.40	1726.44
259.62	1748.97
259.83	1781.73
260.05	1744.87
260.27	2033.63
260.48	1767.40
260.70	1699.81
260.92	1689.57
261.13	1744.87
261.35	1689.57
261.57	1777.64
261.78	1630.18
262.00	1605.61
262.22	1775.59
262.43	1613.80
262.65	1744.87
262.86	1765.35
263.08	1816.55
263.30	1722.34
263.51	1683.43
263.73	1667.05
263.95	1847.27
264.16	1697.77
264.38	1681.38
264.60	1765.35
264.81	1744.87
265.03	1759.21
265.25	1714.15
265.46	1785.83
265.68	1796.07
265.89	1677.29
266.11	1658.85
266.33	1757.16
266.54	1828.84
266.76	1812.45
266.98	1734.63
267.19	1732.58
267.41	1738.73
267.62	1716.20
267.84	1650.66
268.06	1769.44
268.27	1703.91
268.49	1732.58
268.70	1808.36
268.92	1765.35
269.14	1675.24
269.35	1644.52
269.57	1660.90
269.79	1730.53
270.00	1710.05
270.22	1816.55
270.43	1687.53
270.65	1603.56
270.87	1726.44
271.08	1804.26
271.30	1765.35
271.51	1732.58
271.73	1787.88
271.95	1710.05
272.16	1728.49
272.38	1683.43
272.59	1701.86
272.81	1722.34
273.02	1681.38
273.24	1779.68
273.46	1812.45
273.67	1701.86
273.89	1716.20
274.10	1701.86
274.32	1855.46
274.54	1746.92
274.75	1665.00
274.97	1744.87
275.18	1812.45
275.40	1732.58
275.61	1761.25
275.83	1763.30
276.05	1599.46
276.26	1679.33
276.48	1761.25
276.69	1658.85
276.91	1644.52
277.12	1869.80
277.34	1773.54
277.55	1804.26
277.77	1751.01
277.99	1701.86
278.20	1675.24
278.42	1650.66
278.63	1669.09
278.85	1703.91
279.06	1650.66
279.28	1753.06
279.49	1740.77
279.71	1705.96
279.93	1748.97
280.14	1703.91
280.36	1632.23
280.57	1744.87
280.79	1777.64
281.00	1656.81
281.22	1654.76
281.43	1753.06
281.65	1624.04
281.86	1679.33
282.08	1742.82
282.29	1783.78
282.51	1683.43
282.73	1724.39
282.94	1624.04
283.16	1746.92
283.37	1837.03
283.59	1607.66
283.80	1785.83
284.02	1693.67
284.23	1787.88
284.45	1695.72
284.66	1648.61
284.88	1624.04
285.09	1681.38
285.31	1677.29
285.52	1736.68
285.74	1566.70
285.95	1789.92
286.17	1798.12
286.38	1798.12
286.60	1685.48
286.81	1683.43
287.03	1695.72
287.24	1701.86
287.46	1716.20
287.67	1714.15
287.89	1810.40
288.10	1656.81
288.32	1736.68
288.53	1787.88
288.75	1724.39
288.96	1779.68
289.18	1658.85
289.39	1744.87
289.61	1877.99
289.82	1830.88
290.04	1777.64
290.25	1621.99
290.47	1667.05
290.68	1763.30
290.90	1806.31
291.11	1636.33
291.33	1800.16
291.54	1689.57
291.76	1677.29
291.97	1708.01
292.18	1728.49
292.40	1673.19
292.61	1671.14
292.83	1865.70
293.04	1714.15
293.26	1738.73
293.47	1701.86
293.69	1667.05
293.90	1697.77
294.12	1779.68
294.33	1767.40
294.55	1796.07
294.76	1763.30
294.97	1806.31
295.19	1841.12
295.40	1726.44
295.62	1767.40
295.83	1810.40
296.05	1705.96
296.26	1728.49
296.48	1712.10
296.69	1681.38
296.90	1734.63
297.12	1796.07
297.33	1796.07
297.55	1751.01
297.76	1759.21
297.98	1673.19
298.19	1689.57
298.41	1742.82
298.62	1675.24
298.83	1796.07
299.05	1834.98
299.26	1689.57
299.48	1665.00
299.69	1691.62
299.90	1738.73
300.12	1605.61
300.33	1718.25
300.55	1738.73
300.76	1791.97
300.98	1656.81
301.19	1818.60
301.40	1705.96
301.62	1701.86
301.83	1753.06
302.05	1773.54
302.26	1759.21
302.47	1689.57
302.69	1689.57
302.90	1722.34
303.12	1624.04
303.33	1755.11
303.54	1853.41
303.76	1710.05
303.97	1748.97
304.19	1812.45
304.40	1740.77
304.61	1665.00
304.83	1837.03
305.04	1824.74
305.26	1755.11
305.47	1687.53
305.68	1771.49
305.90	1720.29
306.11	1728.49
306.33	1720.29
306.54	1656.81
306.75	1730.53
306.97	1542.12
307.18	1681.38
307.39	1689.57
307.61	1781.73
307.82	1705.96
308.04	1695.72
308.25	1722.34
308.46	1800.16
308.68	1652.71
308.89	1732.58
309.10	1798.12
309.32	1722.34
309.53	1742.82
309.74	1738.73
309.96	1681.38
310.17	1736.68
310.39	1708.01
310.60	1779.68
310.81	1765.35
311.03	1669.09
311.24	1763.30
311.45	1601.51
311.67	1806.31
311.88	1767.40
312.09	1695.72
312.31	1701.86
312.52	1705.96
312.73	1699.81
312.95	1634.28
313.16	1673.19
313.37	1740.77
313.59	1765.35
313.80	1722.34
314.01	1863.65
314.23	1751.01
314.44	1601.51
314.65	1658.85
314.87	1683.43
315.08	1662.95
315.29	1673.19
315.51	1708.01
315.72	1687.53
315.93	1789.92
316.15	1847.27
316.36	1728.49
316.57	1705.96
316.79	1693.67
317.00	1681.38
317.21	1759.21
317.43	1673.19
317.64	1824.74
317.85	1652.71
318.07	1697.77
318.28	1738.73
318.49	1857.51
318.70	1796.07
318.92	1832.93
319.13	1781.73
319.34	1849.32
319.56	1730.53
319.77	1865.70
319.98	1736.68
320.20	1826.79
320.41	1730.53
320.62	1849.32
320.83	1705.96
321.05	1877.99
321.26	1759.21
321.47	1732.58
321.69	1746.92
321.90	1669.09
322.11	1673.19
322.32	1744.87
322.54	1853.41
322.75	1671.14
322.96	1767.40
323.18	1642.47
323.39	1593.32
323.60	1697.77
323.81	1867.75
324.03	1708.01
324.24	1763.30
324.45	1755.11
324.66	1703.91
324.88	1712.10
325.09	1853.41
325.30	1771.49
325.52	1697.77
325.73	1730.53
325.94	1708.01
326.15	1712.10
326.37	1658.85
326.58	1757.16
326.79	1830.88
327.00	1628.14
327.22	1746.92
327.43	1648.61
327.64	1703.91
327.85	1712.10
328.07	1763.30
328.28	1824.74
328.49	1591.27
328.70	1728.49
328.92	1701.86
329.13	1705.96
329.34	1660.90
329.55	1818.60
329.76	1757.16
329.98	1710.05
330.19	1763.30
330.40	1714.15
330.61	1736.68
330.83	1839.08
331.04	1705.96
331.25	1757.16
331.46	1701.86
331.68	1685.48
331.89	1834.98
332.10	1708.01
332.31	1632.23
332.52	1751.01
332.74	1783.78
332.95	1681.38
333.16	1685.48
333.37	1791.97
333.58	1726.44
333.80	1681.38
334.01	1658.85
334.22	1665.00
334.43	1599.46
334.64	1796.07
334.86	1658.85
335.07	1615.85
335.28	1773.54
335.49	1583.08
335.70	1658.85
335.92	1732.58
336.13	1804.26
336.34	1802.21
336.55	1718.25
336.76	1761.25
336.98	1642.47
337.19	1695.72
337.40	1816.55
337.61	1857.51
337.82	1701.86
338.04	1701.86
338.25	1665.00
338.46	1665.00
338.67	1669.09
338.88	1687.53
339.09	1685.48
339.31	1640.42
339.52	1632.23
339.73	1710.05
339.94	1734.63
340.15	1660.90
340.36	1697.77
340.58	1753.06
340.79	1695.72
341.00	1724.39
341.21	1624.04
341.42	1789.92
341.63	1699.81
341.85	1751.01
342.06	1683.43
342.27	1624.04
342.48	1732.58
342.69	1595.37
342.90	1724.39
343.12	1794.02
343.33	1685.48
343.54	1763.30
343.75	1789.92
343.96	1654.76
344.17	1677.29
344.38	1681.38
344.60	1689.57
344.81	1660.90
345.02	1730.53
345.23	1837.03
345.44	1816.55
345.65	1767.40
345.86	1710.05
346.07	1748.97
346.29	1714.15
346.50	1689.57
346.71	1783.78
346.92	1834.98
347.13	1828.84
347.34	1632.23
347.55	1759.21
347.76	1724.39
347.98	1689.57
348.19	1710.05
348.40	1800.16
348.61	1708.01
348.82	1781.73
349.03	1703.91
349.24	1744.87
349.45	1867.75
349.66	1687.53
349.88	1753.06
350.09	1665.00
350.30	1771.49
350.51	1804.26
350.72	1693.67
350.93	1708.01
351.14	1724.39
351.35	1787.88
351.56	1685.48
351.77	1675.24
351.99	1714.15
352.20	1855.46
352.41	1796.07
352.62	1581.03
352.83	1720.29
353.04	1703.91
353.25	1636.33
353.46	1787.88
353.67	1771.49
353.88	1636.33
354.09	1826.79
354.30	1746.92
354.52	1763.30
354.73	1681.38
354.94	1748.97
355.15	1710.05
355.36	1812.45
355.57	1720.29
355.78	1732.58
355.99	1693.67
356.20	1681.38
356.41	1755.11
356.62	1771.49
356.83	1779.68
357.04	1767.40
357.25	1597.42
357.46	1720.29
357.68	1681.38
357.89	1740.77
358.10	1689.57
358.31	1701.86
358.52	1660.90
358.73	1646.57
358.94	1693.67
359.15	1748.97
359.36	1722.34
359.57	1705.96
359.78	1665.00
359.99	1728.49
360.20	1689.57
360.41	1673.19
360.62	1757.16
360.83	1804.26
361.04	1759.21
361.25	1753.06
361.46	1822.69
361.67	1695.72
361.88	1826.79
362.09	1669.09
362.30	1685.48
362.51	1660.90
362.72	1716.20
362.93	1757.16
363.14	1769.44
363.35	1701.86
363.56	1677.29
363.78	1806.31
363.99	1791.97
364.20	1761.25
364.41	1730.53
364.62	1855.46
364.83	1763.30
365.04	1650.66
365.25	1748.97
365.46	1847.27
365.67	1695.72
365.88	1693.67
366.09	1751.01
366.30	1787.88
366.51	1712.10
366.72	1714.15
366.93	1708.01
367.14	1679.33
367.35	1785.83
367.56	1710.05
367.77	1771.49
367.98	1736.68
368.18	1697.77
368.39	1804.26
368.60	1677.29
368.81	1744.87
369.02	1773.54
369.23	1665.00
369.44	1624.04
369.65	1710.05
369.86	1785.83
370.07	1665.00
370.28	1724.39
370.49	1701.86
370.70	1771.49
370.91	1701.86
371.12	1660.90
371.33	1769.44
371.54	1714.15
371.75	1861.60
371.96	1556.46
372.17	1734.63
372.38	1718.25
372.59	1771.49
372.80	1730.53
373.01	1685.48
373.22	1734.63
373.43	1794.02
373.64	1669.09
373.85	1742.82
374.06	1796.07
374.26	1740.77
374.47	1732.58
374.68	1748.97
374.89	1798.12
375.10	1751.01
375.31	1820.64
375.52	1677.29
375.73	1728.49
375.94	1640.42
376.15	1726.44
376.36	1650.66
376.57	1705.96
376.78	1681.38
376.99	1732.58
377.20	1763.30
377.40	1714.15
377.61	1857.51
377.82	1665.00
378.03	1808.36
378.24	1742.82
378.45	1726.44
378.66	1763.30
378.87	1605.61
379.08	1648.61
379.29	1710.05
379.50	1841.12
379.71	1701.86
379.91	1746.92
380.12	1667.05
380.33	1734.63
380.54	1753.06
380.75	1624.04
380.96	1712.10
381.17	1791.97
381.38	1714.15
381.59	1798.12
381.80	1679.33
382.00	1847.27
382.21	1730.53
382.42	1894.37
382.63	1888.23
382.84	1765.35
383.05	1781.73
383.26	1808.36
383.47	1791.97
383.68	1796.07
383.88	1773.54
384.09	1730.53
384.30	1728.49
384.51	1699.81
384.72	1693.67
384.93	1640.42
385.14	1665.00
385.35	1794.02
385.55	1611.75
385.76	1748.97
385.97	1673.19
386.18	1646.57
386.39	1710.05
386.60	1732.58
386.81	1665.00
387.02	1685.48
387.22	1648.61
387.43	1763.30
387.64	1773.54
387.85	1886.18
388.06	2222.05
388.27	4200.38
388.48	6645.66
388.68	8220.55
388.89	9785.19
389.10	9807.72
389.31	8648.57
389.52	7520.14
389.73	6746.01
389.93	6303.65
390.14	5812.14
390.35	5078.96
390.56	4429.76
390.77	3917.76
390.98	3139.54
391.18	2435.03
391.39	2160.61
391.60	1918.95
391.81	1812.45
392.02	1765.35
392.23	1914.85
392.43	1796.07
392.64	1775.59
392.85	1673.19
393.06	1808.36
393.27	1689.57
393.47	1683.43
393.68	1708.01
393.89	1677.29
394.10	1808.36
394.31	1751.01
394.52	1681.38
394.72	1654.76
394.93	1800.16
395.14	1697.77
395.35	1804.26
395.56	1683.43
395.76	1714.15
395.97	1808.36
396.18	1892.32
396.39	1877.99
396.60	2039.78
396.80	1877.99
397.01	1853.41
397.22	1845.22
397.43	1863.65
397.64	1732.58
397.84	1861.60
398.05	1861.60
398.26	1730.53
398.47	1775.59
398.67	1697.77
398.88	1740.77
399.09	1765.35
399.30	1710.05
399.51	1830.88
399.71	1675.24
399.92	1761.25
400.13	1761.25
400.34	1791.97
400.54	1687.53
400.75	1843.17
400.96	1738.73
401.17	1787.88
401.37	1769.44
401.58	1730.53
401.79	1726.44
402.00	1800.16
402.21	1986.53
402.41	2025.44
402.62	2043.87
402.83	2078.69
403.04	1943.52
403.24	2095.07
403.45	1847.27
403.66	1882.08
403.87	1998.82
404.07	1914.85
404.28	1855.46
404.49	1798.12
404.70	1798.12
404.90	1834.98
405.11	1791.97
405.32	1751.01
405.52	1689.57
405.73	1681.38
405.94	1689.57
406.15	1710.05
406.35	1761.25
406.56	1763.30
406.77	1718.25
406.98	1718.25
407.18	1722.34
407.39	1830.88
407.60	1679.33
407.80	1753.06
408.01	1740.77
408.22	1732.58
408.43	1710.05
408.63	1794.02
408.84	1724.39
409.05	1802.21
409.25	1693.67
409.46	1607.66
409.67	1650.66
409.88	1669.09
410.08	1677.29
410.29	1722.34
410.50	1710.05
410.70	1714.15
410.91	1652.71
411.12	1755.11
411.32	1714.15
411.53	1722.34
411.74	1814.50
411.95	1726.44
412.15	1718.25
412.36	1740.77
412.57	1812.45
412.77	1718.25
412.98	1738.73
413.19	1695.72
413.39	1755.11
413.60	1773.54
413.81	1849.32
414.01	1693.67
414.22	1802.21
414.43	1830.88
414.63	1730.53
414.84	1810.40
415.05	1759.21
415.25	1689.57
415.46	1744.87
415.67	1671.14
415.87	1767.40
416.08	1681.38
416.29	1699.81
416.49	1697.77
416.70	1751.01
416.91	1716.20
417.11	1644.52
417.32	1703.91
417.53	1732.58
417.73	1708.01
417.94	1710.05
418.15	1769.44
418.35	1703.91
418.56	1830.88
418.77	1880.04
418.97	1751.01
419.18	1708.01
419.38	1583.08
419.59	1624.04
419.80	1765.35
420.00	1669.09
420.21	1705.96
420.42	1826.79
420.62	1775.59
420.83	1708.01
421.04	1755.11
421.24	1744.87
421.45	1775.59
421.65	1800.16
421.86	1740.77
422.07	1716.20
422.27	1798.12
422.48	1697.77
422.69	1693.67
422.89	1701.86
423.10	1761.25
423.30	1669.09
423.51	1681.38
423.72	1730.53
423.92	1775.59
424.13	1685.48
424.33	1697.77
424.54	1791.97
424.75	1824.74
424.95	1843.17
425.16	1810.40
425.36	1765.35
425.57	1757.16
425.78	1726.44
425.98	1810.40
426.19	1732.58
426.39	1601.51
426.60	1726.44
426.81	1845.22
427.01	1660.90
427.22	1673.19
427.42	1650.66
427.63	1732.58
427.83	1800.16
428.04	1808.36
428.25	1824.74
428.45	1818.60
428.66	1820.64
428.86	1757.16
429.07	1742.82
429.28	1773.54
429.48	1751.01
429.69	1667.05
429.89	1757.16
430.10	1628.14
430.30	1751.01
430.51	1755.11
430.71	1695.72
430.92	1687.53
431.13	1720.29
431.33	1759.21
431.54	1765.35
431.74	1800.16
431.95	1796.07
432.15	1607.66
432.36	1722.34
432.56	1818.60
432.77	1820.64
432.98	1880.04
433.18	1726.44
433.39	1781.73
433.59	1656.81
433.80	1777.64
434.00	1808.36
434.21	1699.81
434.41	1681.38
434.62	1906.66
434.82	1689.57
435.03	1726.44
435.23	1710.05
435.44	1650.66
435.64	1681.38
435.85	1720.29
436.06	1777.64
436.26	1869.80
436.47	1777.64
436.67	1712.10
436.88	1738.73
437.08	1783.78
437.29	1841.12
437.49	1730.53
437.70	1804.26
437.90	1642.47
438.11	1859.56
438.31	1851.36
438.52	1824.74
438.72	1857.51
438.93	1894.37
439.13	1753.06
439.34	1832.93
439.54	1779.68
439.75	1814.50
439.95	1830.88
440.16	1763.30
440.36	1796.07
440.57	1736.68
440.77	1787.88
440.98	1796.07
441.18	1779.68
441.39	1720.29
441.59	1673.19
441.80	1914.85
442.00	1763.30
442.21	1884.13
442.41	1654.76
442.62	1796.07
442.82	1757.16
443.02	1699.81
443.23	1748.97
443.43	1718.25
443.64	1779.68
443.84	1689.57
444.05	1789.92
444.25	1763.30
444.46	1710.05
444.66	1710.05
444.87	1826.79
445.07	1658.85
445.28	1744.87
445.48	1810.40
445.69	1779.68
445.89	1927.14
446.09	1779.68
446.30	2068.45
446.50	2674.65
446.71	3764.17
446.91	4382.65
447.12	4765.62
447.32	4904.89
447.53	4376.51
447.73	3887.04
447.93	3532.75
448.14	3319.76
448.34	3178.45
448.55	2912.21
448.75	2852.82
448.96	2717.65
449.16	2475.99
449.36	2303.96
449.57	2045.92
449.77	1894.37
449.98	1787.88
450.18	1867.75
450.39	1824.74
450.59	1886.18
450.79	1775.59
451.00	1742.82
451.20	1830.88
451.41	1689.57
451.61	1771.49
451.81	1767.40
452.02	1744.87
452.22	1669.09
452.43	1734.63
452.63	1751.01
452.84	1773.54
453.04	1689.57
453.24	1779.68
453.45	1705.96
453.65	1705.96
453.86	1728.49
454.06	1814.50
454.26	1775.59
454.47	1681.38
454.67	1834.98
454.87	1837.03
455.08	1783.78
455.28	1834.98
455.49	1771.49
455.69	1740.77
455.89	1769.44
456.10	1767.40
456.30	1722.34
456.51	1755.11
456.71	1781.73
456.91	1755.11
457.12	1751.01
457.32	1808.36
457.52	1722.34
457.73	1736.68
457.93	1773.54
458.14	1691.62
458.34	1646.57
458.54	1648.61
458.75	1677.29
458.95	1763.30
459.15	1759.21
459.36	1730.53
459.56	1751.01
459.76	1890.28
459.97	1732.58
460.17	1841.12
460.37	1791.97
460.58	1652.71
460.78	1712.10
460.99	1708.01
461.19	1693.67
461.39	1732.58
461.60	1746.92
461.80	1783.78
462.00	1724.39
462.21	1779.68
462.41	1699.81
462.61	1769.44
462.82	1605.61
463.02	1853.41
463.22	1722.34
463.43	1857.51
463.63	1742.82
463.83	1796.07
464.04	1837.03
464.24	1732.58
464.44	1626.09
464.64	1798.12
464.85	1800.16
465.05	1880.04
465.25	1710.05
465.46	1679.33
465.66	1830.88
465.86	1775.59
466.07	1720.29
466.27	1755.11
466.47	1689.57
466.68	1634.28
466.88	1839.08
467.08	1853.41
467.29	1804.26
467.49	1773.54
467.69	1658.85
467.89	1740.77
468.10	1771.49
468.30	1777.64
468.50	1847.27
468.71	1761.25
468.91	1677.29
469.11	1806.31
469.31	1677.29
469.52	1675.24
469.72	1789.92
469.92	1902.56
470.13	1796.07
470.33	1753.06
470.53	1812.45
470.73	2158.56
470.94	2289.63
471.14	2402.27
471.34	2557.91
471.54	2457.56
471.75	2332.64
471.95	2072.54
472.15	2174.94
472.36	2129.89
472.56	2066.40
472.76	2101.22
472.96	2031.58
473.17	1951.71
473.37	1910.75
473.57	1814.50
473.77	1832.93
473.98	1712.10
474.18	1771.49
474.38	1914.85
474.58	1697.77
474.79	1660.90
474.99	1789.92
475.19	1798.12
475.39	1624.04
475.60	1769.44
475.80	1785.83
476.00	1687.53
476.20	1615.85
476.41	1773.54
476.61	1734.63
476.81	1865.70
477.01	1738.73
477.21	1855.46
477.42	1779.68
477.62	1693.67
477.82	1773.54
478.02	1783.78
478.23	1769.44
478.43	1648.61
478.63	1705.96
478.83	1718.25
479.03	1705.96
479.24	1794.02
479.44	1882.08
479.64	1673.19
479.84	1656.81
480.04	1740.77
480.25	1810.40
480.45	1673.19
480.65	1738.73
480.85	1785.83
481.06	1669.09
481.26	1695.72
481.46	1746.92
481.66	1728.49
481.86	1677.29
482.06	1775.59
482.27	1808.36
482.47	1697.77
482.67	1806.31
482.87	1771.49
483.07	1757.16
483.28	1736.68
483.48	1660.90
483.68	1779.68
483.88	1716.20
484.08	1648.61
484.29	1714.15
484.49	1724.39
484.69	1724.39
484.89	1857.51
485.09	1820.64
485.29	1841.12
485.50	1794.02
485.70	1624.04
485.90	1845.22
486.10	1669.09
486.30	1738.73
486.50	1787.88
486.71	1714.15
486.91	1820.64
487.11	1828.84
487.31	1630.18
487.51	1753.06
487.71	1687.53
487.91	1705.96
488.12	1648.61
488.32	1650.66
488.52	1675.24
488.72	1642.47
488.92	1777.64
489.12	1722.34
489.32	1755.11
489.53	1740.77
489.73	1652.71
489.93	1824.74
490.13	1738.73
490.33	1736.68
490.53	1761.25
490.73	1791.97
490.94	1675.24
491.14	1806.31
491.34	1830.88
491.54	2111.46
491.74	2615.26
491.94	3026.90
492.14	3004.37
492.34	3090.38
492.54	2766.81
492.75	2443.23
492.95	2424.80
493.15	2338.78
493.35	2277.34
493.55	2224.09
493.75	2095.07
493.95	2242.53
494.15	2084.83
494.35	1910.75
494.56	1830.88
494.76	1777.64
494.96	1867.75
495.16	1851.36
495.36	1724.39
495.56	1708.01
495.76	1718.25
495.96	1710.05
496.16	1759.21
496.36	1806.31
496.56	1765.35
496.77	1751.01
496.97	1654.76
497.17	1820.64
497.37	1624.04
497.57	1808.36
497.77	1769.44
497.97	1654.76
498.17	1697.77
498.37	1732.58
498.57	1779.68
498.77	1757.16
498.97	1759.21
499.17	1904.61
499.38	1751.01
499.58	1677.29
499.78	1744.87
499.98	1771.49
500.18	1740.77
500.38	1710.05
500.58	1941.47
500.78	2482.14
500.98	4476.86
501.18	5922.73
501.38	6829.98
501.58	7124.88
501.78	6612.89
501.98	5629.87
502.18	4935.60
502.38	4329.41
502.58	4212.67
502.78	3712.97
502.98	3622.86
503.18	3383.24
503.38	3160.02
503.59	2863.06
503.79	2660.31
503.99	2584.54
504.19	2342.88
504.39	2283.49
504.59	2148.32
504.79	2187.23
504.99	2140.13
505.19	1920.99
505.39	1877.99
505.59	1992.67
505.79	1937.38
505.99	1880.04
506.19	1830.88
506.39	1941.47
506.59	1791.97
506.79	1691.62
506.99	1820.64
507.19	1839.08
507.39	1732.58
507.59	1738.73
507.79	1728.49
507.99	1787.88
508.19	1734.63
508.39	1708.01
508.59	1783.78
508.79	1929.19
508.99	1869.80
509.19	1636.33
509.39	1736.68
509.59	1751.01
509.79	1732.58
509.99	1789.92
510.19	1773.54
510.39	1757.16
510.59	1773.54
510.79	1769.44
510.99	1667.05
511.19	1738.73
511.39	1843.17
511.59	1857.51
511.79	1789.92
511.99	1708.01
512.19	1832.93
512.38	1816.55
512.58	1691.62
512.78	1746.92
512.98	1808.36
513.18	1802.21
513.38	1660.90
513.58	1753.06
513.78	1796.07
513.98	1722.34
514.18	1724.39
514.38	1771.49
514.58	1730.53
514.78	1650.66
514.98	1701.86
515.18	1697.77
515.38	1652.71
515.58	1824.74
515.78	1748.97
515.98	1746.92
516.18	1767.40
516.38	1798.12
516.57	1705.96
516.77	1773.54
516.97	1765.35
517.17	1734.63
517.37	1660.90
517.57	1832.93
517.77	1689.57
517.97	1683.43
518.17	1810.40
518.37	1681.38
518.57	1720.29
518.77	1697.77
518.97	1699.81
519.16	1828.84
519.36	1888.23
519.56	1816.55
519.76	1714.15
519.96	1783.78
520.16	1824.74
520.36	1611.75
520.56	1761.25
520.76	1697.77
520.96	1734.63
521.16	1789.92
521.35	1779.68
521.55	1783.78
521.75	1736.68
521.95	1726.44
522.15	1742.82
522.35	1685.48
522.55	1724.39
522.75	1822.69
522.95	1722.34
523.14	1701.86
523.34	1818.60
523.54	1716.20
523.74	1818.60
523.94	1751.01
524.14	1634.28
524.34	1787.88
524.54	1744.87
524.73	1691.62
524.93	1755.11
525.13	1718.25
525.33	1634.28
525.53	1894.37
525.73	1851.36
525.93	1695.72
526.13	1712.10
526.32	1734.63
526.52	1757.16
526.72	1845.22
526.92	1767.40
527.12	1765.35
527.32	1656.81
527.52	1736.68
527.71	1765.35
527.91	1810.40
528.11	1775.59
528.31	1775.59
528.51	1730.53
528.71	1744.87
528.90	1767.40
529.10	1769.44
529.30	1869.80
529.50	1615.85
529.70	1738.73
529.90	1783.78
530.09	1773.54
530.29	1675.24
530.49	1763.30
530.69	1923.04
530.89	1724.39
531.09	1798.12
531.28	1660.90
531.48	1757.16
531.68	1763.30
531.88	1769.44
532.08	1847.27
532.28	1699.81
532.47	1757.16
532.67	1847.27
532.87	1816.55
533.07	1671.14
533.27	1841.12
533.46	1724.39
533.66	1740.77
533.86	1779.68
534.06	1775.59
534.26	1759.21
534.45	1730.53
534.65	1837.03
534.85	1837.03
535.05	1708.01
535.25	1751.01
535.44	1763.30
535.64	1726.44
535.84	1755.11
536.04	1701.86
536.24	1714.15
536.43	1632.23
536.63	1839.08
536.83	1716.20
537.03	1677.29
537.22	1681.38
537.42	1673.19
537.62	1839.08
537.82	1654.76
538.02	1800.16
538.21	1853.41
538.41	1900.52
538.61	1818.60
538.81	1736.68
539.00	1763.30
539.20	1765.35
539.40	1746.92
539.60	1767.40
539.79	1730.53
539.99	1665.00
540.19	1773.54
540.39	1697.77
540.58	1806.31
540.78	1867.75
540.98	1740.77
541.18	1812.45
541.37	1812.45
541.57	1751.01
541.77	1693.67
541.97	1693.67
542.16	1667.05
542.36	1710.05
542.56	1751.01
542.76	1925.09
542.95	1791.97
543.15	1843.17
543.35	1787.88
543.54	1710.05
543.74	1720.29
543.94	1839.08
544.14	1755.11
544.33	1800.16
544.53	1730.53
544.73	1730.53
544.93	1726.44
545.12	1751.01
545.32	1710.05
545.52	1771.49
545.71	1705.96
545.91	1761.25
546.11	1738.73
546.30	1718.25
546.50	1744.87
546.70	1777.64
546.90	1759.21
547.09	1660.90
547.29	1742.82
547.49	1794.02
547.68	1742.82
547.88	1742.82
548.08	1787.88
548.27	2097.12
548.47	1714.15
548.67	1714.15
548.87	1787.88
549.06	1755.11
549.26	1720.29
549.46	1871.84
549.65	1703.91
549.85	1826.79
550.05	1865.70
550.24	1746.92
550.44	1796.07
550.64	1755.11
550.83	1748.97
551.03	1880.04
551.23	1779.68
551.42	1771.49
551.62	1714.15
551.82	1837.03
552.01	1732.58
552.21	1828.84
552.41	1746.92
552.60	1849.32
552.80	1763.30
553.00	1755.11
553.19	1765.35
553.39	1849.32
553.59	1650.66
553.78	1816.55
553.98	1761.25
554.17	1669.09
554.37	1818.60
554.57	1806.31
554.76	1656.81
554.96	1695.72
555.16	1769.44
555.35	1738.73
555.55	1773.54
555.75	1738.73
555.94	1761.25
556.14	1691.62
556.33	1800.16
556.53	1761.25
556.73	1806.31
556.92	1851.36
557.12	1847.27
557.32	1865.70
557.51	1869.80
557.71	1771.49
557.90	1839.08
558.10	1853.41
558.30	1787.88
558.49	1751.01
558.69	1769.44
558.88	1734.63
559.08	1798.12
559.28	1671.14
559.47	1787.88
559.67	1726.44
559.86	1902.56
560.06	1779.68
560.26	1742.82
560.45	1808.36
560.65	1748.97
560.84	1875.94
561.04	1656.81
561.24	1830.88
561.43	1775.59
561.63	1880.04
561.82	1826.79
562.02	1730.53
562.22	1773.54
562.41	1658.85
562.61	1759.21
562.80	1738.73
563.00	1853.41
563.19	1714.15
563.39	1857.51
563.59	1855.46
563.78	1685.48
563.98	1687.53
564.17	1720.29
564.37	1642.47
564.56	1654.76
564.76	1687.53
564.96	1814.50
565.15	1734.63
565.35	1894.37
565.54	1693.67
565.74	1804.26
565.93	1818.60
566.13	1806.31
566.32	1783.78
566.52	1779.68
566.71	1718.25
566.91	1779.68
567.11	1748.97
567.30	1724.39
567.50	1738.73
567.69	1771.49
567.89	1767.40
568.08	1730.53
568.28	1757.16
568.47	1673.19
568.67	1742.82
568.86	1681.38
569.06	1791.97
569.25	1736.68
569.45	1726.44
569.64	1753.06
569.84	1621.99
570.04	1687.53
570.23	1736.68
570.43	1683.43
570.62	1765.35
570.82	1894.37
571.01	1732.58
571.21	1652.71
571.40	1617.90
571.60	1767.40
571.79	1783.78
571.99	1769.44
572.18	1591.27
572.38	1705.96
572.57	1748.97
572.77	1886.18
572.96	1863.65
573.16	1791.97
573.35	1746.92
573.55	1834.98
573.74	1800.16
573.94	1806.31
574.13	1781.73
574.33	1845.22
574.52	1804.26
574.71	1761.25
574.91	1763.30
575.10	1685.48
575.30	1818.60
575.49	1665.00
575.69	1722.34
575.88	1783.78
576.08	1724.39
576.27	1812.45
576.47	1828.84
576.66	1972.19
576.86	1832.93
577.05	1724.39
577.25	1781.73
577.44	1853.41
577.64	1722.34
577.83	1777.64
578.02	1714.15
578.22	1820.64
578.41	1847.27
578.61	1695.72
578.80	1740.77
579.00	1744.87
579.19	1796.07
579.39	1724.39
579.58	1800.16
579.77	1740.77
579.97	1779.68
580.16	1814.50
580.36	1808.36
580.55	1740.77
580.75	1859.56
580.94	1775.59
581.13	1828.84
581.33	1806.31
581.52	1779.68
581.72	1871.84
581.91	1884.13
582.11	1701.86
582.30	1863.65
582.49	1851.36
582.69	1830.88
582.88	1830.88
583.08	1777.64
583.27	1777.64
583.47	1783.78
583.66	1863.65
583.85	1681.38
584.05	1837.03
584.24	1845.22
584.44	1796.07
584.63	1834.98
584.82	1791.97
585.02	1830.88
585.21	1869.80
585.41	1837.03
585.60	1773.54
585.79	1955.81
585.99	1918.95
586.18	1896.42
586.37	2234.33
586.57	3409.87
586.76	10069.86
586.96	24227.47
587.15	34180.60
587.34	40076.70
587.54	41743.75
587.73	36382.16
587.93	26058.35
588.12	21210.81
588.31	18116.33
588.51	16191.24
588.70	15150.87
588.89	14012.20
589.09	12531.52
589.28	10829.66
589.47	9420.66
589.67	7915.40
589.86	6268.83
590.06	5009.33
590.25	3852.23
590.44	3100.62
590.64	2691.03
590.83	2246.62
591.02	2103.26
591.22	2013.15
591.41	1951.71
591.60	1855.46
591.80	1996.77
591.99	1796.07
592.18	1785.83
592.38	1880.04
592.57	1841.12
592.76	1701.86
592.96	1849.32
593.15	1771.49
593.34	1896.42
593.54	1738.73
593.73	1802.21
593.92	1789.92
594.12	1742.82
594.31	1791.97
594.50	1839.08
594.70	1798.12
594.89	1920.99
595.08	1691.62
595.28	1818.60
595.47	1951.71
595.66	1777.64
595.86	1708.01
596.05	1837.03
596.24	1744.87
596.43	1873.89
596.63	1818.60
596.82	1810.40
597.01	1775.59
597.21	1902.56
597.40	1701.86
597.59	1787.88
597.79	1732.58
597.98	1740.77
598.17	1732.58
598.36	1740.77
598.56	1775.59
598.75	1714.15
598.94	1814.50
599.14	1693.67
599.33	1728.49
599.52	1798.12
599.71	1724.39
599.91	1771.49
600.10	1761.25
600.29	1726.44
600.48	1781.73
600.68	1804.26
600.87	1771.49
601.06	1728.49
601.26	1767.40
601.45	1757.16
601.64	1718.25
601.83	1705.96
602.03	1685.48
602.22	1708.01
602.41	1849.32
602.60	1855.46
602.80	1808.36
602.99	1759.21
603.18	1730.53
603.37	1714.15
603.57	1779.68
603.76	1787.88
603.95	1832.93
604.14	1689.57
604.34	1695.72
604.53	1746.92
604.72	1746.92
604.91	1708.01
605.10	1787.88
605.30	1691.62
605.49	1877.99
605.68	1816.55
605.87	1814.50
606.07	1681.38
606.26	1742.82
606.45	1810.40
606.64	1751.01
606.84	1765.35
607.03	1753.06
607.22	1771.49
607.41	1734.63
607.60	1757.16
607.80	1796.07
607.99	1722.34
608.18	1767.40
608.37	1794.02
608.56	1755.11
608.76	1806.31
608.95	1923.04
609.14	1763.30
609.33	1785.83
609.52	1787.88
609.72	1798.12
609.91	1738.73
610.10	1791.97
610.29	1695.72
610.48	1789.92
610.68	1761.25
610.87	1769.44
611.06	1732.58
611.25	1724.39
611.44	1812.45
611.63	1779.68
611.83	1873.89
612.02	1673.19
612.21	1890.28
612.40	1576.94
612.59	1665.00
612.79	1751.01
612.98	1722.34
613.17	1863.65
613.36	1730.53
613.55	1789.92
613.74	1726.44
613.93	1685.48
614.13	1726.44
614.32	1693.67
614.51	1718.25
614.70	1699.81
614.89	1730.53
615.08	1771.49
615.28	2058.21
615.47	1693.67
615.66	1800.16
615.85	1669.09
616.04	1871.84
616.23	1744.87
616.42	1695.72
616.62	1720.29
616.81	1748.97
617.00	1748.97
617.19	1767.40
617.38	1695.72
617.57	1757.16
617.76	1787.88
617.95	1791.97
618.15	1757.16
618.34	1791.97
618.53	1607.66
618.72	1855.46
618.91	1820.64
619.10	1869.80
619.29	1734.63
619.48	1732.58
619.68	1714.15
619.87	1783.78
620.06	1619.94
620.25	1777.64
620.44	1753.06
620.63	1667.05
620.82	1773.54
621.01	1771.49
621.20	1679.33
621.39	1830.88
621.59	1771.49
621.78	1759.21
621.97	1673.19
622.16	1753.06
622.35	1744.87
622.54	1785.83
622.73	1828.84
622.92	1638.38
623.11	1814.50
623.30	1728.49
623.49	1759.21
623.68	1673.19
623.88	1773.54
624.07	1710.05
624.26	1820.64
624.45	1738.73
624.64	1757.16
624.83	1785.83
625.02	1728.49
625.21	1724.39
625.40	1800.16
625.59	1802.21
625.78	1720.29
625.97	1765.35
626.16	1757.16
626.35	1728.49
626.54	1716.20
626.74	1794.02
626.93	1699.81
627.12	1701.86
627.31	1734.63
627.50	1722.34
627.69	1787.88
627.88	1722.34
628.07	1755.11
628.26	1685.48
628.45	1644.52
628.64	1740.77
628.83	1748.97
629.02	1675.24
629.21	1734.63
629.40	1767.40
629.59	1708.01
629.78	1710.05
629.97	1779.68
630.16	1787.88
630.35	1687.53
630.54	1767.40
630.73	1628.14
630.92	1730.53
631.11	1652.71
631.30	1789.92
631.49	1755.11
631.68	1724.39
631.87	1783.78
632.06	1763.30
632.25	1894.37
632.44	1742.82
632.63	1796.07
632.82	1656.81
633.01	1671.14
633.20	1681.38
633.39	1689.57
633.58	1665.00
633.77	1701.86
633.96	1806.31
634.15	1839.08
634.34	1818.60
634.53	1761.25
634.72	1683.43
634.91	1648.61
635.10	1665.00
635.29	1755.11
635.48	1714.15
635.67	1650.66
635.86	1621.99
636.05	1859.56
636.24	1773.54
636.43	1738.73
636.62	1763.30
636.81	1636.33
637.00	1732.58
637.19	1710.05
637.38	1726.44
637.57	1708.01
637.76	1763.30
637.95	1820.64
638.14	1691.62
638.33	1738.73
638.52	1710.05
638.71	1640.42
638.89	1701.86
639.08	1859.56
639.27	1759.21
639.46	1669.09
639.65	1767.40
639.84	1787.88
640.03	1765.35
640.22	1708.01
640.41	1828.84
640.60	1728.49
640.79	1761.25
640.98	1724.39
641.17	1730.53
641.36	1730.53
641.55	1744.87
641.74	1689.57
641.92	1624.04
642.11	1650.66
642.30	1753.06
642.49	1728.49
642.68	1671.14
642.87	1761.25
643.06	1757.16
643.25	1744.87
643.44	1720.29
643.63	1742.82
643.82	1812.45
644.00	1652.71
644.19	1806.31
644.38	1621.99
644.57	1732.58
644.76	1730.53
644.95	1730.53
645.14	1765.35
645.33	1771.49
645.52	1718.25
645.71	1652.71
645.89	1716.20
646.08	1669.09
646.27	1714.15
646.46	1845.22
646.65	1548.26
646.84	1738.73
647.03	1693.67
647.22	1746.92
647.40	1804.26
647.59	1722.34
647.78	1685.48
647.97	1685.48
648.16	1660.90
648.35	1771.49
648.54	1781.73
648.73	1701.86
648.91	1822.69
649.10	1736.68
649.29	1642.47
649.48	1716.20
649.67	1751.01
649.86	1732.58
650.05	1689.57
650.23	1734.63
650.42	1699.81
650.61	1826.79
650.80	1748.97
650.99	1953.76
651.18	1787.88
651.36	1748.97
651.55	1736.68
651.74	1794.02
651.93	1744.87
652.12	1691.62
652.31	1748.97
652.49	1695.72
652.68	1771.49
652.87	1845.22
653.06	1701.86
653.25	1746.92
653.44	1724.39
653.62	1849.32
653.81	1724.39
654.00	1718.25
654.19	1843.17
654.38	1923.04
654.56	1708.01
654.75	1732.58
654.94	1818.60
655.13	1742.82
655.32	1742.82
655.51	1751.01
655.69	1689.57
655.88	1728.49
656.07	1769.44
656.26	1748.97
656.45	1644.52
656.63	1699.81
656.82	1714.15
657.01	1744.87
657.20	1687.53
657.38	1802.21
657.57	1763.30
657.76	1574.89
657.95	1785.83
658.14	1755.11
658.32	1732.58
658.51	1660.90
658.70	1732.58
658.89	1779.68
659.08	1705.96
659.26	1832.93
659.45	1632.23
659.64	1755.11
659.83	1675.24
660.01	1959.91
660.20	1777.64
660.39	1751.01
660.58	1632.23
660.76	1740.77
660.95	1593.32
661.14	1746.92
661.33	1593.32
661.51	1708.01
661.70	1689.57
661.89	1759.21
662.08	1808.36
662.26	1654.76
662.45	1705.96
662.64	1830.88
662.83	1818.60
663.01	1675.24
663.20	1761.25
663.39	1802.21
663.58	1642.47
663.76	1751.01
663.95	1765.35
664.14	1619.94
664.32	1699.81
664.51	1714.15
664.70	1681.38
664.89	1773.54
665.07	1683.43
665.26	1816.55
665.45	1679.33
665.64	1798.12
665.82	1726.44
666.01	1783.78
666.20	1669.09
666.38	1828.84
666.57	1888.23
666.76	2271.20
666.95	4708.28
667.13	10491.74
667.32	15298.33
667.51	18015.98
667.69	18996.96
667.88	17393.40
668.07	12341.06
668.25	9566.06
668.44	8157.06
668.63	7157.65
668.81	6883.22
669.00	6221.73
669.19	5631.91
669.38	4992.95
669.56	4507.58
669.75	3995.59
669.94	3389.39
670.12	2803.67
670.31	2516.95
670.50	2289.63
670.68	2101.22
670.87	1959.91
671.06	1791.97
671.24	1746.92
671.43	1865.70
671.62	1763.30
671.80	1740.77
671.99	1738.73
672.18	1789.92
672.36	1882.08
672.55	1734.63
672.74	1791.97
672.92	1699.81
673.11	1861.60
673.29	1621.99
673.48	1640.42
673.67	1710.05
673.85	1828.84
674.04	1738.73
674.23	1716.20
674.41	1857.51
674.60	1691.62
674.79	1609.70
674.97	1705.96
675.16	1839.08
675.34	1812.45
675.53	1699.81
675.72	1849.32
675.90	1843.17
676.09	1736.68
676.28	1701.86
676.46	1662.95
676.65	1765.35
676.83	1673.19
677.02	1722.34
677.21	1753.06
677.39	1771.49
677.58	1757.16
677.77	1710.05
677.95	1687.53
678.14	1638.38
678.32	1734.63
678.51	1677.29
678.70	1855.46
678.88	1714.15
679.07	1744.87
679.25	1777.64
679.44	1794.02
679.63	1630.18
679.81	1730.53
680.00	1744.87
680.18	1787.88
680.37	1857.51
680.55	1732.58
680.74	1648.61
680.93	1570.79
681.11	1699.81
681.30	1769.44
681.48	1697.77
681.67	1687.53
681.85	1697.77
682.04	1665.00
682.23	1820.64
682.41	1742.82
682.60	1705.96
682.78	1775.59
682.97	1691.62
683.15	1687.53
683.34	1695.72
683.53	1765.35
683.71	1669.09
683.90	1857.51
684.08	1873.89
684.27	1699.81
684.45	1710.05
684.64	1806.31
684.82	1722.34
685.01	1767.40
685.19	1748.97
685.38	1806.31
685.57	1671.14
685.75	1701.86
685.94	1667.05
686.12	1703.91
686.31	1665.00
686.49	1763.30
686.68	1726.44
686.86	1761.25
687.05	1677.29
687.23	1791.97
687.42	1687.53
687.60	1667.05
687.79	1826.79
687.97	1730.53
688.16	1705.96
688.34	1730.53
688.53	1632.23
688.71	1765.35
688.90	1798.12
689.08	1685.48
689.27	1683.43
689.45	1748.97
689.64	1783.78
689.82	1744.87
690.01	1775.59
690.19	1710.05
690.38	1726.44
690.56	1726.44
690.75	1673.19
690.93	1724.39
691.12	1738.73
691.30	1800.16
691.49	1667.05
691.67	1734.63
691.86	1824.74
692.04	1714.15
692.23	1714.15
692.41	1728.49
692.60	1882.08
692.78	1779.68
692.97	1730.53
693.15	1714.15
693.34	1861.60
693.52	1771.49
693.71	1705.96
693.89	1652.71
694.08	1615.85
694.26	1738.73
694.44	1769.44
694.63	1695.72
694.81	1722.34
695.00	1689.57
695.18	1806.31
695.37	1869.80
695.55	1716.20
695.74	1773.54
695.92	1650.66
696.10	1777.64
696.29	1667.05
696.47	1683.43
696.66	1701.86
696.84	1736.68
697.03	1691.62
697.21	1787.88
697.40	2318.30
697.58	1806.31
697.76	1667.05
697.95	1681.38
698.13	1687.53
698.32	1660.90
698.50	1746.92
698.68	1742.82
698.87	1695.72
699.05	1724.39
699.24	1708.01
699.42	1714.15
699.61	1662.95
699.79	1761.25
699.97	1746.92
700.16	1640.42
700.34	1669.09
700.53	1730.53
700.71	1830.88
700.89	1718.25
701.08	1687.53
701.26	1783.78
701.45	2160.61
701.63	1738.73
701.81	1746.92
702.00	1691.62
702.18	1660.90
702.37	1665.00
702.55	1675.24
702.73	1728.49
702.92	1628.14
703.10	1738.73
703.28	1669.09
703.47	1583.08
703.65	1837.03
703.84	1751.01
704.02	1708.01
704.20	1822.69
704.39	1673.19
704.57	1732.58
704.75	1855.46
704.94	1800.16
705.12	1703.91
705.30	1775.59
705.49	2260.96
705.67	4542.39
705.86	9443.18
706.04	12570.43
706.22	14206.76
706.41	15406.87
706.59	13545.27
706.77	9447.28
706.96	7264.15
707.14	6600.60
707.32	5857.19
707.51	5539.76
707.69	4726.71
707.87	4216.77
708.06	3508.17
708.24	2947.03
708.42	2420.70
708.61	2254.81
708.79	1945.57
708.97	1851.36
709.16	1787.88
709.34	1767.40
709.52	1736.68
709.71	1681.38
709.89	1880.04
710.07	1648.61
710.26	1658.85
710.44	1695.72
710.62	1767.40
710.80	1748.97
710.99	1853.41
711.17	1796.07
711.35	1667.05
711.54	1697.77
711.72	1763.30
711.90	1771.49
712.09	1755.11
712.27	1693.67
712.45	1687.53
712.63	1757.16
712.82	1656.81
713.00	1699.81
713.18	1708.01
713.37	1808.36
713.55	1767.40
713.73	1718.25
713.91	1748.97
714.10	1667.05
714.28	1744.87
714.46	1740.77
714.65	1763.30
714.83	1751.01
715.01	1777.64
715.19	1734.63
715.38	1673.19
715.56	1724.39
715.74	1800.16
715.92	1621.99
716.11	1781.73
716.29	1665.00
716.47	1742.82
716.65	1718.25
716.84	1671.14
717.02	1757.16
717.20	1613.80
717.38	1716.20
717.57	1812.45
717.75	1712.10
717.93	1693.67
718.11	1759.21
718.30	1660.90
718.48	1757.16
718.66	1800.16
718.84	1716.20
719.03	1716.20
719.21	1634.28
719.39	1804.26
719.57	1812.45
719.75	1675.24
719.94	1681.38
720.12	1683.43
720.30	1767.40
720.48	1837.03
720.67	1642.47
720.85	1597.42
721.03	1746.92
721.21	1685.48
721.39	1855.46
721.58	1683.43
721.76	1781.73
721.94	1703.91
722.12	1769.44
722.30	1773.54
722.49	1679.33
722.67	1810.40
722.85	1753.06
723.03	1667.05
723.21	1730.53
723.40	1763.30
723.58	1828.84
723.76	1705.96
723.94	1906.66
724.12	1761.25
724.30	1724.39
724.49	1728.49
724.67	1683.43
724.85	1832.93
725.03	1677.29
725.21	1708.01
725.40	1806.31
725.58	1726.44
725.76	1718.25
725.94	1800.16
726.12	1617.90
726.30	1724.39
726.49	1748.97
726.67	1714.15
726.85	1710.05
727.03	1787.88
727.21	2183.13
727.39	3074.00
727.57	3829.70
727.76	4165.57
727.94	4413.37
728.12	4583.35
728.30	3672.01
728.48	2959.31
728.66	2693.08
728.84	2592.73
729.03	2353.12
729.21	2271.20
729.39	1988.58
729.57	1902.56
729.75	1869.80
729.93	1886.18
730.11	1736.68
730.30	1791.97
730.48	1701.86
730.66	1742.82
730.84	1769.44
731.02	1714.15
731.20	1701.86
731.38	1738.73
731.56	1740.77
731.74	1648.61
731.93	1677.29
732.11	1753.06
732.29	1630.18
732.47	1785.83
732.65	1646.57
732.83	1763.30
733.01	1722.34
733.19	1716.20
733.37	1697.77
733.56	1736.68
733.74	1669.09
733.92	1822.69
734.10	1757.16
734.28	1708.01
734.46	1726.44
734.64	1718.25
734.82	1683.43
735.00	1542.12
735.18	1673.19
735.36	1726.44
735.54	1748.97
735.73	1746.92
735.91	1687.53
736.09	1748.97
736.27	1798.12
736.45	1695.72
736.63	1574.89
736.81	1710.05
736.99	1796.07
737.17	1794.02
737.35	1685.48
737.53	1771.49
737.71	1722.34
737.89	1812.45
738.07	1650.66
738.25	1642.47
738.43	1691.62
738.61	1683.43
738.80	1605.61
738.98	1689.57
739.16	1767.40
739.34	1632.23
739.52	1767.40
739.70	1685.48
739.88	1759.21
740.06	1812.45
740.24	1634.28
740.42	1755.11
740.60	1658.85
740.78	1658.85
740.96	1585.13
741.14	1712.10
741.32	1662.95
741.50	1615.85
741.68	1890.28
741.86	1796.07
742.04	1673.19
742.22	1662.95
742.40	1722.34
742.58	1722.34
742.76	1597.42
742.94	1732.58
743.12	1691.62
743.30	1718.25
743.48	1652.71
743.66	1718.25
743.84	1783.78
744.02	1650.66
744.20	1728.49
744.38	1687.53
744.56	1628.14
744.74	1773.54
744.92	1634.28
745.10	1783.78
745.28	1751.01
745.46	1867.75
745.64	1693.67
745.82	1773.54
746.00	1734.63
746.18	1718.25
746.36	1728.49
746.54	1730.53
746.72	1716.20
746.90	1681.38
747.08	1828.84
747.26	1689.57
747.44	1785.83
747.62	1677.29
747.80	1734.63
747.98	1710.05
748.15	1617.90
748.33	1818.60
748.51	1710.05
748.69	1689.57
748.87	1714.15
749.05	1665.00
749.23	1718.25
749.41	1738.73
749.59	1669.09
749.77	1851.36
749.95	1724.39
750.13	1656.81
750.31	1763.30
750.49	1775.59
750.67	1773.54
750.85	1726.44
751.03	1693.67
751.20	1777.64
751.38	1779.68
751.56	1673.19
751.74	1712.10
751.92	1626.09
752.10	1650.66
752.28	1710.05
752.46	1652.71
752.64	1732.58
752.82	1695.72
753.00	1763.30
753.18	1675.24
753.35	1624.04
753.53	1675.24
753.71	1697.77
753.89	1802.21
754.07	1693.67
754.25	1839.08
754.43	1775.59
754.61	1652.71
754.79	1791.97
754.97	1687.53
755.14	1789.92
755.32	1626.09
755.50	1718.25
755.68	1718.25
755.86	1683.43
756.04	1650.66
756.22	1599.46
756.40	1820.64
756.57	1830.88
756.75	1761.25
756.93	1785.83
757.11	1675.24
757.29	1695.72
757.47	1632.23
757.65	1570.79
757.82	1535.98
758.00	1738.73
758.18	1671.14
758.36	1671.14
758.54	1798.12
758.72	1581.03
758.90	1699.81
759.07	1742.82
759.25	1619.94
759.43	1722.34
759.61	1628.14
759.79	2234.33
759.97	1834.98
760.15	1642.47
760.32	1738.73
760.50	1734.63
760.68	1812.45
760.86	1685.48
761.04	1751.01
761.22	1763.30
761.39	1759.21
761.57	1771.49
761.75	1751.01
761.93	1669.09
762.11	1730.53
762.28	1710.05
762.46	1722.34
762.64	1728.49
762.82	1566.70
763.00	1712.10
763.18	1818.60
763.35	1632.23
763.53	1742.82
763.71	1722.34
763.89	1685.48
764.07	1734.63
764.24	1708.01
764.42	1722.34
764.60	1697.77
764.78	1722.34
764.96	1738.73
765.13	1785.83
765.31	1705.96
765.49	1781.73
765.67	1669.09
765.84	1697.77
766.02	1648.61
766.20	1634.28
766.38	1708.01
766.56	1853.41
766.73	1705.96
766.91	1742.82
767.09	1794.02
767.27	1654.76
767.44	1662.95
767.62	1763.30
767.80	1640.42
767.98	1671.14
768.15	1738.73
768.33	1789.92
768.51	1718.25
768.69	1728.49
768.87	1763.30
769.04	1673.19
769.22	1812.45
769.40	1771.49
769.58	1935.33
769.75	1726.44
769.93	1863.65
770.11	1617.90
770.28	1621.99
770.46	1787.88
770.64	1746.92
770.82	1734.63
770.99	1667.05
771.17	1703.91
771.35	1738.73
771.53	1716.20
771.70	1658.85
771.88	1763.30
772.06	1710.05
772.23	1681.38
772.41	1712.10
772.59	1697.77
772.77	1658.85
772.94	1726.44
773.12	1775.59
773.30	1665.00
773.47	1794.02
773.65	1601.51
773.83	1779.68
774.01	1759.21
774.18	1677.29
774.36	1761.25
774.54	1656.81
774.71	1751.01
774.89	1675.24
775.07	1669.09
775.24	1691.62
775.42	1718.25
775.60	1667.05
775.78	1746.92
775.95	1656.81
776.13	1554.41
776.31	1671.14
776.48	1748.97
776.66	1769.44
776.84	1691.62
777.01	1722.34
777.19	1595.37
777.37	1640.42
777.54	1705.96
777.72	1806.31
777.90	1714.15
778.07	1697.77
778.25	1927.14
778.43	1761.25
778.60	1677.29
778.78	1685.48
778.96	1798.12
779.13	1693.67
779.31	1796.07
779.49	1665.00
779.66	1759.21
779.84	1701.86
780.01	1775.59
780.19	1691.62
780.37	1781.73
780.54	1771.49
780.72	1652.71
780.90	1746.92
781.07	1751.01
781.25	1646.57
781.43	1726.44
781.60	1816.55
781.78	1763.30
781.95	1802.21
782.13	1728.49
782.31	1665.00
782.48	1667.05
782.66	1705.96
782.83	1800.16
783.01	1751.01
783.19	1767.40
783.36	1615.85
783.54	1605.61
783.72	1828.84
783.89	1728.49
784.07	1759.21
784.24	1761.25
784.42	1757.16
784.60	1654.76
784.77	1726.44
784.95	1679.33
785.12	1648.61
785.30	1789.92
785.47	1652.71
785.65	1654.76
785.83	1697.77
786.00	1783.78
786.18	1691.62
786.35	1691.62
786.53	1740.77
786.71	1847.27
786.88	1791.97
787.06	1693.67
787.23	1726.44
787.41	1656.81
787.58	1753.06
787.76	1712.10
787.94	1746.92
788.11	1720.29
788.29	1718.25
788.46	1726.44
788.64	1636.33
788.81	1636.33
788.99	1667.05
789.16	1599.46
789.34	1679.33
789.52	1646.57
789.69	1646.57
789.87	1640.42
790.04	1685.48
790.22	1716.20
790.39	1785.83
790.57	1689.57
790.74	1681.38
790.92	1808.36
791.09	1689.57
791.27	1769.44
791.44	1845.22
791.62	1644.52
791.79	1816.55
791.97	1703.91
792.15	1888.23
792.32	1748.97
792.50	1746.92
792.67	1818.60
792.85	1789.92
793.02	1763.30
793.20	1640.42
793.37	1681.38
793.55	1673.19
793.72	1597.42
793.90	1736.68
794.07	1638.38
794.25	1748.97
794.42	1781.73
794.60	1734.63
794.77	1812.45
794.95	1820.64
795.12	1832.93
795.30	1673.19
795.47	1669.09
795.65	1910.75
795.82	1732.58
796.00	1665.00
796.17	1738.73
796.34	1691.62
796.52	1777.64
796.69	1806.31
796.87	1705.96
797.04	1744.87
797.22	1761.25
797.39	1806.31
797.57	1742.82
797.74	1771.49
797.92	1728.49
798.09	1705.96
798.27	1863.65
798.44	1757.16
798.62	1669.09
798.79	1734.63
798.96	1751.01
799.14	1753.06
799.31	1820.64
799.49	1753.06
799.66	1734.63
799.84	1734.63
800.01	1650.66
800.19	1777.64
800.36	1617.90
800.53	1783.78
800.71	1806.31
800.88	1812.45
801.06	1681.38
801.23	1746.92
801.41	1718.25
801.58	1673.19
801.75	1658.85
801.93	1689.57
802.10	1736.68
802.28	1654.76
802.45	1730.53
802.63	1746.92
802.80	1791.97
802.97	1697.77
803.15	1742.82
803.32	1630.18
803.50	1671.14
803.67	1650.66
803.84	1681.38
804.02	1630.18
804.19	1689.57
804.37	1591.27
804.54	1705.96
804.71	1814.50
804.89	1648.61
805.06	1689.57
805.24	1632.23
805.41	1726.44
805.58	1677.29
805.76	1837.03
805.93	1669.09
806.10	1732.58
806.28	1796.07
806.45	1671.14
806.63	1755.11
806.80	1759.21
806.97	1581.03
807.15	1734.63
807.32	1742.82
807.49	1662.95
807.67	1669.09
807.84	1701.86
808.01	1619.94
808.19	1880.04
808.36	1810.40
808.54	1673.19
808.71	1636.33
808.88	1773.54
809.06	1662.95
809.23	1822.69
809.40	1683.43
809.58	1748.97
809.75	1744.87
809.92	1681.38
810.10	1847.27
810.27	1708.01
810.44	1785.83
810.62	1681.38
810.79	1730.53
810.96	1662.95
811.14	1679.33
811.31	1757.16
811.48	1818.60
811.66	1751.01
811.83	1738.73
812.00	1714.15
812.18	1863.65
812.35	1894.37
812.52	1714.15
812.69	1708.01
812.87	1658.85
813.04	1697.77
813.21	1597.42
813.39	1624.04
813.56	1662.95
813.73	1800.16
813.91	1681.38
814.08	1730.53
814.25	1757.16
814.42	1675.24
814.60	1683.43
814.77	1730.53
814.94	1648.61
815.12	1714.15
815.29	1767.40
815.46	1687.53
815.63	1712.10
815.81	1650.66
815.98	1640.42
816.15	1781.73
816.33	1751.01
816.50	1703.91
816.67	1740.77
816.84	1583.08
817.02	1712.10
817.19	1828.84
817.36	1779.68
817.53	1650.66
817.71	1665.00
817.88	1751.01
818.05	1775.59
818.22	1787.88
818.40	1798.12
818.57	1667.05
818.74	1759.21
818.91	1708.01
819.09	1796.07
819.26	1720.29
819.43	1640.42
819.60	1591.27
819.78	1728.49
819.95	1814.50
820.12	1693.67
820.29	1675.24
820.47	1828.84
820.64	1665.00
820.81	1726.44
820.98	1681.38
821.15	1621.99
821.33	1753.06
821.50	1621.99
821.67	1751.01
821.84	1748.97
822.02	1796.07
822.19	1675.24
822.36	1703.91
822.53	1742.82
822.70	1648.61
822.88	1748.97
823.05	1771.49
823.22	1753.06
823.39	1757.16
823.56	1714.15
823.74	1791.97
823.91	1660.90
824.08	1671.14
824.25	1691.62
824.42	1773.54
824.60	1617.90
824.77	1744.87
824.94	1710.05
825.11	1748.97
825.28	1669.09
825.45	1796.07
825.63	1716.20
825.80	1662.95
825.97	1779.68
826.14	1718.25
826.31	1628.14
826.48	1734.63
826.66	1701.86
826.83	1765.35
827.00	1718.25
827.17	1687.53
827.34	1726.44
827.51	1705.96
827.69	1742.82
827.86	1626.09
828.03	1695.72
828.20	1708.01
828.37	1683.43
828.54	1755.11
828.71	1771.49
828.89	1798.12
829.06	1714.15
829.23	1796.07
829.40	1738.73
829.57	1679.33
829.74	1726.44
829.91	1619.94
830.09	1667.05
830.26	1708.01
830.43	1789.92
830.60	1722.34
830.77	1681.38
830.94	1771.49
831.11	1687.53
831.28	1687.53
831.46	1816.55
831.63	1742.82
831.80	1755.11
831.97	1767.40
832.14	1691.62
832.31	1705.96
832.48	1820.64
832.65	1689.57
832.82	1675.24
832.99	1763.30
833.17	1697.77
833.34	1755.11
833.51	1785.83
833.68	1581.03
833.85	1865.70
834.02	1708.01
834.19	1746.92
834.36	1665.00
834.53	1748.97
834.70	1757.16
834.87	1751.01
835.04	1693.67
835.22	1667.05
835.39	1654.76
835.56	1662.95
835.73	1746.92
835.90	1738.73
836.07	1685.48
836.24	1724.39
836.41	1689.57
836.58	1642.47
836.75	1771.49
836.92	1695.72
837.09	1708.01
837.26	1755.11
837.43	1710.05
837.60	1685.48
837.77	1619.94
837.94	1714.15
838.12	1761.25
838.29	1755.11
838.46	1671.14
838.63	1701.86
838.80	1837.03
838.97	1791.97
839.14	1714.15
839.31	1736.68
839.48	1783.78
839.65	1644.52
839.82	1800.16
839.99	1728.49
840.16	1660.90
840.33	1738.73
840.50	1746.92
840.67	1701.86
840.84	1615.85
841.01	1757.16
841.18	1673.19
841.35	1689.57
841.52	1765.35
841.69	1828.84
841.86	1681.38
842.03	1642.47
842.20	1789.92
842.37	1691.62
842.54	1779.68
842.71	1619.94
842.88	1658.85
843.05	1796.07
843.22	1681.38
843.39	1773.54
843.56	1781.73
843.73	1665.00
843.90	1765.35
844.07	1681.38
844.24	1695.72
844.41	1783.78
844.58	1724.39
844.75	1681.38
844.92	1816.55
845.09	1650.66
845.26	1697.77
845.43	1773.54
845.60	1699.81
845.77	1746.92
845.94	1744.87
846.10	1699.81
846.27	1671.14
846.44	1638.38
846.61	1644.52
846.78	1757.16
846.95	1714.15
847.12	1695.72
847.29	1660.90
847.46	1662.95
847.63	1748.97
847.80	1665.00
847.97	1755.11
848.14	1865.70
848.31	1787.88
848.48	1658.85
848.65	1794.02
848.82	1624.04
848.98	1771.49
849.15	1808.36
849.32	1847.27
849.49	1763.30
849.66	1773.54
849.83	1683.43
850.00	1660.90
850.17	1771.49
850.34	1708.01
850.51	1591.27
850.68	1697.77
850.85	1802.21
851.01	1697.77
851.18	1701.86
851.35	1695.72
851.52	1685.48
851.69	1767.40
851.86	1673.19
852.03	1718.25
852.20	1822.69
852.37	1722.34
852.53	1611.75
852.70	1720.29
852.87	1677.29
853.04	1738.73
853.21	1708.01
853.38	1773.54
853.55	1804.26
853.72	1818.60
853.89	1642.47
854.05	1701.86
854.22	1677.29
854.39	1644.52
854.56	1726.44
854.73	1789.92
854.90	1611.75
855.07	1732.58
855.23	1761.25
855.40	1708.01
855.57	1736.68
855.74	1634.28
855.91	1927.14
856.08	1640.42
856.25	1683.43
856.41	1673.19
856.58	1703.91
856.75	1734.63
856.92	1607.66
857.09	1689.57
857.26	1585.13
857.42	1619.94
857.59	1738.73
857.76	1705.96
857.93	1742.82
858.10	1708.01
858.27	1591.27
858.43	1757.16
858.60	1681.38
858.77	1624.04
858.94	1626.09
859.11	1767.40
859.27	1685.48
859.44	1685.48
859.61	1755.11
859.78	1783.78
859.95	1701.86
860.12	1660.90
860.28	1845.22
860.45	1847.27
860.62	1617.90
860.79	1718.25
860.95	1748.97
861.12	1697.77
861.29	1636.33
861.46	1677.29
861.63	1693.67
861.79	1789.92
861.96	1708.01
862.13	1656.81
862.30	1828.84
862.47	1687.53
862.63	1710.05
862.80	1744.87
862.97	1738.73
863.14	1720.29
863.30	1716.20
863.47	1697.77
863.64	1798.12
863.81	1787.88
863.97	1693.67
864.14	1652.71
864.31	1744.87
864.48	1800.16
864.65	1720.29
864.81	1693.67
864.98	1751.01
865.15	1732.58
865.32	1734.63
865.48	1751.01
865.65	1779.68
865.82	1720.29
865.98	1818.60
866.15	1751.01
866.32	1710.05
866.49	1681.38
866.65	1787.88
866.82	1738.73
866.99	1689.57
867.16	1730.53
867.32	1652.71
867.49	1691.62
867.66	1621.99
867.83	1669.09
867.99	1636.33
868.16	1685.48
868.33	1685.48
868.49	1751.01
868.66	1675.24
868.83	1804.26
868.99	1699.81
869.16	1781.73
869.33	1794.02
869.50	1787.88
869.66	1681.38
869.83	1689.57
870.00	1716.20
870.16	1742.82
870.33	1705.96
870.50	1726.44
870.66	1773.54
870.83	1791.97
871.00	1744.87
871.17	1812.45
871.33	1712.10
871.50	1660.90
871.67	1681.38
871.83	1728.49
872.00	1851.36
872.17	1693.67
872.33	1843.17
872.50	1826.79
872.67	1679.33
872.83	1665.00
873.00	1757.16
873.17	1705.96
873.33	1753.06
873.50	1763.30
873.67	1673.19
873.83	1650.66
874.00	1691.62
874.16	1800.16
874.33	1785.83
874.50	1724.39
874.66	1728.49
874.83	1718.25
875.00	1761.25
875.16	1787.88
875.33	1841.12
875.50	1648.61
875.66	1636.33
875.83	1660.90
875.99	1734.63
876.16	1640.42
876.33	1691.62
876.49	1689.57
876.66	1779.68
876.83	1722.34
876.99	1693.67
877.16	1675.24
877.32	1699.81
877.49	1615.85
877.66	1740.77
877.82	1712.10
877.99	1732.58
878.15	1740.77
878.32	1718.25
878.49	1724.39
878.65	1683.43
878.82	1699.81
878.98	1691.62
879.15	1769.44
879.32	1697.77
879.48	1720.29
879.65	1665.00
879.81	1662.95
879.98	1669.09
880.15	1665.00
880.31	1708.01
880.48	1703.91
880.64	1763.30
880.81	1648.61
880.97	1847.27
881.14	1757.16
881.31	1626.09
881.47	1841.12
881.64	1710.05
881.80	1542.12
881.97	1818.60
882.13	1789.92
882.30	1607.66
882.47	1646.57
882.63	1601.51
882.80	1685.48
882.96	1703.91
883.13	1773.54
883.29	1660.90
883.46	1718.25
883.62	1716.20
883.79	1744.87
883.95	1773.54
884.12	1738.73
884.29	1720.29
884.45	1708.01
884.62	1718.25
884.78	1691.62
884.95	1787.88
885.11	1665.00
885.28	1632.23
885.44	1630.18
885.61	1796.07
885.77	1736.68
885.94	1783.78
886.10	1689.57
886.27	1716.20
886.43	1818.60
886.60	1863.65
886.76	1724.39
886.93	1724.39
887.09	1701.86
887.26	1603.56
887.42	1705.96
887.59	1783.78
887.75	1896.42
887.92	1787.88
888.08	1714.15
888.25	1810.40
888.41	1714.15
888.58	1791.97
888.74	1630.18
888.91	1757.16
>>>>>End Processed Spectral Data<<<<<
