SpectraSuite Data File
++++++++++++++++++++++++++++++++++++
Date: Mon Jun 06 15:18:37 CEST 2016
User: root
Dark Spectrum Present: No
Reference Spectrum Present: No
Number of Sampled Component Spectra: 1
Spectrometers: USB4C02835
Integration Time (usec): 100000 (USB4C02835)
Spectra Averaged: 1 (USB4C02835)
Boxcar Smoothing: 0 (USB4C02835)
Correct for Electrical Dark: No (USB4C02835)
Strobe/Lamp Enabled: No (USB4C02835)
Correct for Detector Non-linearity: No (USB4C02835)
Correct for Stray Light: No (USB4C02835)
Number of Pixels in Processed Spectrum: 3648
>>>>>Begin Processed Spectral Data<<<<<
177.47	1492.97
177.69	1492.97
177.91	1492.97
178.13	1449.96
178.36	1419.24
178.58	1718.25
178.80	1736.68
179.02	1697.77
179.24	1658.85
179.46	1667.05
179.68	1728.49
179.90	1624.04
180.13	1742.82
180.35	1765.35
180.57	1644.52
180.79	1763.30
181.01	1673.19
181.23	1796.07
181.45	1701.86
181.67	1677.29
181.90	1699.81
182.12	1687.53
182.34	1593.32
182.56	1771.49
182.78	1705.96
183.00	1705.96
183.22	1681.38
183.44	1640.42
183.66	1869.80
183.89	1800.16
184.11	1787.88
184.33	1720.29
184.55	1703.91
184.77	1685.48
184.99	1695.72
185.21	1712.10
185.43	1802.21
185.65	1636.33
185.87	1718.25
186.10	1794.02
186.32	1875.94
186.54	1689.57
186.76	1712.10
186.98	1798.12
187.20	1693.67
187.42	1687.53
187.64	1734.63
187.86	1734.63
188.08	1775.59
188.30	1748.97
188.52	1708.01
188.75	1820.64
188.97	1806.31
189.19	1691.62
189.41	1748.97
189.63	1701.86
189.85	1611.75
190.07	1583.08
190.29	1607.66
190.51	1667.05
190.73	1619.94
190.95	1710.05
191.17	1675.24
191.39	1560.55
191.61	1624.04
191.84	1615.85
192.06	1724.39
192.28	1636.33
192.50	1837.03
192.72	1681.38
192.94	1765.35
193.16	1832.93
193.38	1734.63
193.60	1636.33
193.82	1708.01
194.04	1781.73
194.26	1701.86
194.48	1714.15
194.70	1734.63
194.92	1650.66
195.14	1744.87
195.36	1648.61
195.58	1701.86
195.80	1665.00
196.02	1656.81
196.24	1703.91
196.46	1824.74
196.69	1734.63
196.91	1832.93
197.13	1751.01
197.35	1742.82
197.57	1796.07
197.79	1779.68
198.01	1755.11
198.23	1734.63
198.45	1697.77
198.67	1683.43
198.89	1687.53
199.11	1626.09
199.33	1683.43
199.55	1611.75
199.77	1712.10
199.99	1759.21
200.21	1703.91
200.43	1703.91
200.65	1624.04
200.87	1578.98
201.09	1665.00
201.31	1695.72
201.53	1736.68
201.75	1767.40
201.97	1710.05
202.19	1697.77
202.41	1734.63
202.63	1767.40
202.85	1773.54
203.07	1738.73
203.29	1699.81
203.51	1656.81
203.73	1671.14
203.95	1880.04
204.17	1767.40
204.39	1732.58
204.61	1773.54
204.83	1736.68
205.05	1771.49
205.27	1773.54
205.49	1738.73
205.71	1757.16
205.93	1628.14
206.15	1665.00
206.37	1667.05
206.59	1718.25
206.81	1716.20
207.03	1654.76
207.25	1611.75
207.47	1691.62
207.69	1726.44
207.91	1791.97
208.13	1822.69
208.34	1667.05
208.56	1714.15
208.78	1734.63
209.00	1724.39
209.22	1728.49
209.44	1703.91
209.66	1665.00
209.88	1730.53
210.10	1738.73
210.32	1667.05
210.54	1783.78
210.76	1687.53
210.98	1726.44
211.20	1638.38
211.42	1732.58
211.64	1814.50
211.86	1730.53
212.08	1757.16
212.30	1751.01
212.52	1667.05
212.74	1802.21
212.96	1767.40
213.17	1724.39
213.39	1773.54
213.61	1775.59
213.83	1677.29
214.05	1673.19
214.27	1734.63
214.49	1605.61
214.71	1667.05
214.93	1703.91
215.15	1687.53
215.37	1734.63
215.59	1628.14
215.81	1714.15
216.03	1873.89
216.24	1613.80
216.46	1689.57
216.68	1714.15
216.90	1781.73
217.12	1716.20
217.34	1794.02
217.56	1742.82
217.78	1781.73
218.00	1716.20
218.22	1669.09
218.44	1763.30
218.66	1703.91
218.87	1855.46
219.09	1699.81
219.31	1738.73
219.53	1767.40
219.75	1716.20
219.97	1660.90
220.19	1794.02
220.41	1705.96
220.63	1779.68
220.85	1751.01
221.06	1650.66
221.28	1824.74
221.50	1783.78
221.72	1708.01
221.94	1726.44
222.16	1746.92
222.38	1781.73
222.60	1765.35
222.82	1652.71
223.03	1794.02
223.25	1624.04
223.47	1798.12
223.69	1865.70
223.91	1722.34
224.13	1665.00
224.35	1628.14
224.57	1662.95
224.78	1714.15
225.00	1650.66
225.22	1611.75
225.44	1710.05
225.66	1779.68
225.88	1679.33
226.10	1744.87
226.32	1705.96
226.53	1806.31
226.75	1736.68
226.97	1685.48
227.19	1755.11
227.41	1708.01
227.63	1730.53
227.85	1624.04
228.06	1726.44
228.28	1697.77
228.50	1720.29
228.72	1658.85
228.94	1642.47
229.16	1689.57
229.37	1648.61
229.59	1669.09
229.81	1791.97
230.03	1755.11
230.25	1619.94
230.47	1683.43
230.69	1626.09
230.90	1748.97
231.12	1734.63
231.34	1718.25
231.56	1818.60
231.78	1656.81
232.00	1710.05
232.21	1617.90
232.43	1759.21
232.65	1619.94
232.87	1683.43
233.09	1705.96
233.30	1720.29
233.52	1718.25
233.74	1703.91
233.96	1697.77
234.18	1798.12
234.40	1626.09
234.61	1863.65
234.83	1652.71
235.05	1638.38
235.27	1923.04
235.49	1736.68
235.70	1757.16
235.92	1718.25
236.14	1699.81
236.36	1861.60
236.58	1685.48
236.79	1751.01
237.01	1693.67
237.23	1699.81
237.45	1806.31
237.67	1660.90
237.88	1712.10
238.10	1734.63
238.32	1693.67
238.54	1712.10
238.76	1697.77
238.97	1654.76
239.19	1640.42
239.41	1845.22
239.63	1769.44
239.85	1660.90
240.06	1689.57
240.28	1619.94
240.50	1755.11
240.72	1701.86
240.93	1722.34
241.15	1720.29
241.37	1734.63
241.59	1791.97
241.81	1740.77
242.02	1703.91
242.24	1683.43
242.46	1751.01
242.68	1652.71
242.89	1652.71
243.11	1783.78
243.33	1683.43
243.55	1677.29
243.76	1689.57
243.98	1675.24
244.20	1722.34
244.42	1693.67
244.64	1724.39
244.85	1648.61
245.07	1662.95
245.29	1804.26
245.51	1761.25
245.72	1689.57
245.94	1773.54
246.16	1671.14
246.38	1808.36
246.59	1603.56
246.81	1679.33
247.03	1714.15
247.24	1613.80
247.46	1650.66
247.68	1689.57
247.90	1785.83
248.11	1605.61
248.33	1791.97
248.55	1730.53
248.77	1708.01
248.98	1800.16
249.20	1857.51
249.42	1730.53
249.64	1818.60
249.85	1689.57
250.07	1665.00
250.29	1802.21
250.50	1753.06
250.72	1621.99
250.94	1779.68
251.16	1789.92
251.37	1736.68
251.59	1679.33
251.81	1757.16
252.02	1804.26
252.24	1632.23
252.46	1726.44
252.68	1648.61
252.89	1646.57
253.11	1644.52
253.33	1812.45
253.54	1765.35
253.76	1650.66
253.98	1665.00
254.20	1732.58
254.41	1619.94
254.63	1718.25
254.85	1634.28
255.06	1722.34
255.28	1669.09
255.50	1630.18
255.71	1658.85
255.93	1636.33
256.15	1632.23
256.36	1716.20
256.58	1714.15
256.80	1806.31
257.02	1671.14
257.23	1665.00
257.45	1720.29
257.67	1677.29
257.88	1658.85
258.10	1699.81
258.32	1681.38
258.53	1728.49
258.75	1837.03
258.97	1679.33
259.18	1689.57
259.40	1728.49
259.62	1824.74
259.83	1863.65
260.05	1767.40
260.27	1992.67
260.48	1757.16
260.70	1613.80
260.92	1716.20
261.13	1673.19
261.35	1757.16
261.57	1703.91
261.78	1617.90
262.00	1708.01
262.22	1742.82
262.43	1634.28
262.65	1714.15
262.86	1652.71
263.08	1759.21
263.30	1757.16
263.51	1617.90
263.73	1722.34
263.95	1851.36
264.16	1560.55
264.38	1673.19
264.60	1765.35
264.81	1724.39
265.03	1816.55
265.25	1759.21
265.46	1730.53
265.68	1775.59
265.89	1732.58
266.11	1603.56
266.33	1732.58
266.54	1798.12
266.76	1648.61
266.98	1722.34
267.19	1740.77
267.41	1775.59
267.62	1685.48
267.84	1624.04
268.06	1726.44
268.27	1699.81
268.49	1761.25
268.70	1751.01
268.92	1767.40
269.14	1685.48
269.35	1581.03
269.57	1636.33
269.79	1730.53
270.00	1667.05
270.22	1728.49
270.43	1689.57
270.65	1566.70
270.87	1716.20
271.08	1839.08
271.30	1722.34
271.51	1730.53
271.73	1775.59
271.95	1714.15
272.16	1738.73
272.38	1703.91
272.59	1728.49
272.81	1734.63
273.02	1755.11
273.24	1722.34
273.46	1763.30
273.67	1658.85
273.89	1656.81
274.10	1675.24
274.32	1755.11
274.54	1738.73
274.75	1730.53
274.97	1783.78
275.18	1767.40
275.40	1701.86
275.61	1710.05
275.83	1728.49
276.05	1570.79
276.26	1697.77
276.48	1724.39
276.69	1701.86
276.91	1671.14
277.12	1695.72
277.34	1732.58
277.55	1802.21
277.77	1669.09
277.99	1705.96
278.20	1572.84
278.42	1665.00
278.63	1693.67
278.85	1617.90
279.06	1726.44
279.28	1724.39
279.49	1724.39
279.71	1638.38
279.93	1755.11
280.14	1755.11
280.36	1708.01
280.57	1716.20
280.79	1742.82
281.00	1654.76
281.22	1718.25
281.43	1732.58
281.65	1615.85
281.86	1638.38
282.08	1730.53
282.29	1781.73
282.51	1648.61
282.73	1710.05
282.94	1617.90
283.16	1810.40
283.37	1837.03
283.59	1693.67
283.80	1771.49
284.02	1697.77
284.23	1720.29
284.45	1699.81
284.66	1630.18
284.88	1687.53
285.09	1742.82
285.31	1728.49
285.52	1699.81
285.74	1667.05
285.95	1746.92
286.17	1787.88
286.38	1796.07
286.60	1703.91
286.81	1665.00
287.03	1656.81
287.24	1734.63
287.46	1710.05
287.67	1710.05
287.89	1902.56
288.10	1703.91
288.32	1746.92
288.53	1730.53
288.75	1740.77
288.96	1720.29
289.18	1705.96
289.39	1683.43
289.61	1720.29
289.82	1828.84
290.04	1818.60
290.25	1642.47
290.47	1685.48
290.68	1673.19
290.90	1771.49
291.11	1607.66
291.33	1810.40
291.54	1683.43
291.76	1714.15
291.97	1734.63
292.18	1703.91
292.40	1718.25
292.61	1691.62
292.83	1816.55
293.04	1734.63
293.26	1662.95
293.47	1695.72
293.69	1660.90
293.90	1675.24
294.12	1810.40
294.33	1765.35
294.55	1746.92
294.76	1771.49
294.97	1769.44
295.19	1847.27
295.40	1650.66
295.62	1679.33
295.83	1759.21
296.05	1716.20
296.26	1800.16
296.48	1636.33
296.69	1689.57
296.90	1679.33
297.12	1830.88
297.33	1863.65
297.55	1669.09
297.76	1710.05
297.98	1804.26
298.19	1677.29
298.41	1738.73
298.62	1613.80
298.83	1880.04
299.05	1685.48
299.26	1658.85
299.48	1656.81
299.69	1720.29
299.90	1681.38
300.12	1613.80
300.33	1755.11
300.55	1742.82
300.76	1691.62
300.98	1644.52
301.19	1687.53
301.40	1681.38
301.62	1697.77
301.83	1667.05
302.05	1728.49
302.26	1767.40
302.47	1718.25
302.69	1583.08
302.90	1724.39
303.12	1617.90
303.33	1824.74
303.54	1824.74
303.76	1724.39
303.97	1679.33
304.19	1763.30
304.40	1673.19
304.61	1779.68
304.83	1810.40
305.04	1800.16
305.26	1748.97
305.47	1685.48
305.68	1675.24
305.90	1626.09
306.11	1748.97
306.33	1648.61
306.54	1695.72
306.75	1656.81
306.97	1560.55
307.18	1703.91
307.39	1695.72
307.61	1683.43
307.82	1695.72
308.04	1746.92
308.25	1650.66
308.46	1671.14
308.68	1712.10
308.89	1685.48
309.10	1701.86
309.32	1828.84
309.53	1681.38
309.74	1775.59
309.96	1683.43
310.17	1769.44
310.39	1630.18
310.60	1724.39
310.81	1738.73
311.03	1710.05
311.24	1740.77
311.45	1722.34
311.67	1783.78
311.88	1689.57
312.09	1730.53
312.31	1693.67
312.52	1781.73
312.73	1734.63
312.95	1679.33
313.16	1630.18
313.37	1769.44
313.59	1751.01
313.80	1843.17
314.01	1824.74
314.23	1753.06
314.44	1615.85
314.65	1662.95
314.87	1789.92
315.08	1738.73
315.29	1681.38
315.51	1669.09
315.72	1687.53
315.93	1800.16
316.15	1685.48
316.36	1609.70
316.57	1705.96
316.79	1744.87
317.00	1587.18
317.21	1716.20
317.43	1646.57
317.64	1660.90
317.85	1685.48
318.07	1609.70
318.28	1673.19
318.49	1845.22
318.70	1882.08
318.92	1773.54
319.13	1861.60
319.34	1875.94
319.56	1767.40
319.77	1832.93
319.98	1730.53
320.20	1789.92
320.41	1781.73
320.62	1732.58
320.83	1724.39
321.05	1818.60
321.26	1714.15
321.47	1759.21
321.69	1773.54
321.90	1595.37
322.11	1621.99
322.32	1730.53
322.54	1769.44
322.75	1607.66
322.96	1894.37
323.18	1714.15
323.39	1652.71
323.60	1718.25
323.81	1785.83
324.03	1677.29
324.24	1619.94
324.45	1726.44
324.66	1630.18
324.88	1773.54
325.09	1810.40
325.30	1759.21
325.52	1697.77
325.73	1767.40
325.94	1599.46
326.15	1607.66
326.37	1769.44
326.58	1716.20
326.79	1734.63
327.00	1679.33
327.22	1716.20
327.43	1675.24
327.64	1658.85
327.85	1755.11
328.07	1720.29
328.28	1814.50
328.49	1732.58
328.70	1667.05
328.92	1732.58
329.13	1703.91
329.34	1697.77
329.55	1761.25
329.76	1742.82
329.98	1665.00
330.19	1828.84
330.40	1724.39
330.61	1712.10
330.83	1783.78
331.04	1714.15
331.25	1720.29
331.46	1669.09
331.68	1648.61
331.89	1775.59
332.10	1759.21
332.31	1677.29
332.52	1703.91
332.74	1843.17
332.95	1656.81
333.16	1650.66
333.37	1742.82
333.58	1757.16
333.80	1662.95
334.01	1638.38
334.22	1724.39
334.43	1656.81
334.64	1665.00
334.86	1650.66
335.07	1621.99
335.28	1738.73
335.49	1601.51
335.70	1755.11
335.92	1779.68
336.13	1771.49
336.34	1669.09
336.55	1705.96
336.76	1671.14
336.98	1644.52
337.19	1712.10
337.40	1763.30
337.61	1775.59
337.82	1652.71
338.04	1759.21
338.25	1681.38
338.46	1697.77
338.67	1732.58
338.88	1619.94
339.09	1595.37
339.31	1673.19
339.52	1652.71
339.73	1712.10
339.94	1705.96
340.15	1818.60
340.36	1634.28
340.58	1701.86
340.79	1683.43
341.00	1695.72
341.21	1599.46
341.42	1830.88
341.63	1642.47
341.85	1648.61
342.06	1755.11
342.27	1695.72
342.48	1818.60
342.69	1642.47
342.90	1730.53
343.12	1740.77
343.33	1691.62
343.54	1779.68
343.75	1761.25
343.96	1759.21
344.17	1662.95
344.38	1712.10
344.60	1689.57
344.81	1617.90
345.02	1681.38
345.23	1810.40
345.44	1787.88
345.65	1699.81
345.86	1738.73
346.07	1695.72
346.29	1638.38
346.50	1671.14
346.71	1767.40
346.92	1822.69
347.13	1736.68
347.34	1718.25
347.55	1673.19
347.76	1769.44
347.98	1679.33
348.19	1617.90
348.40	1818.60
348.61	1722.34
348.82	1769.44
349.03	1777.64
349.24	1648.61
349.45	1857.51
349.66	1560.55
349.88	1703.91
350.09	1730.53
350.30	1740.77
350.51	1665.00
350.72	1708.01
350.93	1751.01
351.14	1705.96
351.35	1771.49
351.56	1800.16
351.77	1767.40
351.99	1753.06
352.20	1812.45
352.41	1804.26
352.62	1656.81
352.83	1724.39
353.04	1716.20
353.25	1703.91
353.46	1748.97
353.67	1769.44
353.88	1619.94
354.09	1767.40
354.30	1726.44
354.52	1726.44
354.73	1730.53
354.94	1714.15
355.15	1687.53
355.36	1826.79
355.57	1673.19
355.78	1748.97
355.99	1687.53
356.20	1679.33
356.41	1767.40
356.62	1751.01
356.83	1748.97
357.04	1746.92
357.25	1552.36
357.46	1712.10
357.68	1593.32
357.89	1728.49
358.10	1640.42
358.31	1693.67
358.52	1705.96
358.73	1554.41
358.94	1642.47
359.15	1726.44
359.36	1718.25
359.57	1673.19
359.78	1712.10
359.99	1644.52
360.20	1695.72
360.41	1748.97
360.62	1755.11
360.83	1794.02
361.04	1763.30
361.25	1734.63
361.46	1849.32
361.67	1691.62
361.88	1744.87
362.09	1767.40
362.30	1693.67
362.51	1671.14
362.72	1699.81
362.93	1724.39
363.14	1720.29
363.35	1751.01
363.56	1656.81
363.78	1773.54
363.99	1771.49
364.20	1644.52
364.41	1748.97
364.62	1837.03
364.83	1658.85
365.04	1732.58
365.25	1697.77
365.46	1839.08
365.67	1730.53
365.88	1644.52
366.09	1656.81
366.30	1660.90
366.51	1755.11
366.72	1685.48
366.93	1728.49
367.14	1710.05
367.35	1794.02
367.56	1775.59
367.77	1738.73
367.98	1744.87
368.18	1681.38
368.39	1701.86
368.60	1673.19
368.81	1693.67
369.02	1691.62
369.23	1687.53
369.44	1679.33
369.65	1578.98
369.86	1757.16
370.07	1722.34
370.28	1671.14
370.49	1701.86
370.70	1687.53
370.91	1708.01
371.12	1740.77
371.33	1685.48
371.54	1701.86
371.75	1738.73
371.96	1566.70
372.17	1746.92
372.38	1746.92
372.59	1794.02
372.80	1681.38
373.01	1669.09
373.22	1779.68
373.43	1718.25
373.64	1615.85
373.85	1822.69
374.06	1837.03
374.26	1726.44
374.47	1716.20
374.68	1832.93
374.89	1710.05
375.10	1673.19
375.31	1746.92
375.52	1796.07
375.73	1654.76
375.94	1740.77
376.15	1859.56
376.36	1624.04
376.57	1742.82
376.78	1658.85
376.99	1753.06
377.20	1789.92
377.40	1730.53
377.61	1841.12
377.82	1630.18
378.03	1818.60
378.24	1726.44
378.45	1738.73
378.66	1712.10
378.87	1560.55
379.08	1591.27
379.29	1644.52
379.50	1755.11
379.71	1722.34
379.91	1753.06
380.12	1679.33
380.33	1705.96
380.54	1656.81
380.75	1630.18
380.96	1718.25
381.17	1828.84
381.38	1785.83
381.59	1722.34
381.80	1781.73
382.00	1861.60
382.21	1746.92
382.42	1779.68
382.63	1873.89
382.84	1685.48
383.05	1789.92
383.26	1791.97
383.47	1667.05
383.68	1781.73
383.88	1705.96
384.09	1740.77
384.30	1804.26
384.51	1775.59
384.72	1712.10
384.93	1669.09
385.14	1708.01
385.35	1755.11
385.55	1644.52
385.76	1738.73
385.97	1611.75
386.18	1640.42
386.39	1679.33
386.60	1718.25
386.81	1656.81
387.02	1646.57
387.22	1665.00
387.43	1738.73
387.64	1818.60
387.85	1863.65
388.06	2191.33
388.27	4065.22
388.48	6535.07
388.68	7835.53
388.89	9176.95
389.10	9367.41
389.31	8312.71
389.52	7276.43
389.73	6377.37
389.93	5957.54
390.14	5654.44
390.35	4945.84
390.56	4542.39
390.77	3776.45
390.98	3006.42
391.18	2482.14
391.39	2136.03
391.60	1851.36
391.81	1867.75
392.02	1730.53
392.23	1828.84
392.43	1759.21
392.64	1861.60
392.85	1732.58
393.06	1722.34
393.27	1730.53
393.47	1654.76
393.68	1804.26
393.89	1857.51
394.10	1826.79
394.31	1718.25
394.52	1660.90
394.72	1671.14
394.93	1755.11
395.14	1615.85
395.35	1667.05
395.56	1665.00
395.76	1718.25
395.97	1796.07
396.18	1845.22
396.39	1847.27
396.60	2066.40
396.80	1935.33
397.01	1773.54
397.22	1822.69
397.43	1914.85
397.64	1673.19
397.84	1824.74
398.05	1849.32
398.26	1708.01
398.47	1781.73
398.67	1763.30
398.88	1712.10
399.09	1783.78
399.30	1734.63
399.51	1773.54
399.71	1685.48
399.92	1642.47
400.13	1669.09
400.34	1646.57
400.54	1765.35
400.75	1794.02
400.96	1634.28
401.17	1789.92
401.37	1689.57
401.58	1746.92
401.79	1701.86
402.00	1871.84
402.21	1937.38
402.41	1929.19
402.62	2000.87
402.83	1959.91
403.04	1947.62
403.24	2050.02
403.45	1867.75
403.66	1861.60
403.87	1853.41
404.07	1882.08
404.28	1927.14
404.49	1927.14
404.70	1796.07
404.90	1837.03
405.11	1779.68
405.32	1712.10
405.52	1675.24
405.73	1621.99
405.94	1665.00
406.15	1679.33
406.35	1857.51
406.56	1832.93
406.77	1714.15
406.98	1769.44
407.18	1697.77
407.39	1804.26
407.60	1769.44
407.80	1677.29
408.01	1665.00
408.22	1673.19
408.43	1626.09
408.63	1757.16
408.84	1716.20
409.05	1783.78
409.25	1683.43
409.46	1656.81
409.67	1685.48
409.88	1685.48
410.08	1740.77
410.29	1658.85
410.50	1753.06
410.70	1748.97
410.91	1634.28
411.12	1765.35
411.32	1734.63
411.53	1689.57
411.74	1800.16
411.95	1796.07
412.15	1738.73
412.36	1785.83
412.57	1753.06
412.77	1753.06
412.98	1701.86
413.19	1728.49
413.39	1779.68
413.60	1769.44
413.81	1847.27
414.01	1654.76
414.22	1718.25
414.43	1796.07
414.63	1695.72
414.84	1773.54
415.05	1697.77
415.25	1626.09
415.46	1716.20
415.67	1722.34
415.87	1757.16
416.08	1703.91
416.29	1650.66
416.49	1722.34
416.70	1656.81
416.91	1755.11
417.11	1695.72
417.32	1744.87
417.53	1822.69
417.73	1732.58
417.94	1783.78
418.15	1671.14
418.35	1763.30
418.56	1755.11
418.77	1847.27
418.97	1751.01
419.18	1712.10
419.38	1771.49
419.59	1787.88
419.80	1863.65
420.00	1619.94
420.21	1775.59
420.42	1677.29
420.62	1662.95
420.83	1656.81
421.04	1703.91
421.24	1667.05
421.45	1767.40
421.65	1732.58
421.86	1644.52
422.07	1810.40
422.27	1787.88
422.48	1732.58
422.69	1619.94
422.89	1712.10
423.10	1789.92
423.30	1638.38
423.51	1759.21
423.72	1708.01
423.92	1765.35
424.13	1665.00
424.33	1689.57
424.54	1802.21
424.75	1734.63
424.95	1849.32
425.16	1818.60
425.36	1699.81
425.57	1734.63
425.78	1748.97
425.98	1775.59
426.19	1769.44
426.39	1611.75
426.60	1744.87
426.81	1791.97
427.01	1695.72
427.22	1595.37
427.42	1644.52
427.63	1697.77
427.83	1714.15
428.04	1814.50
428.25	1775.59
428.45	1767.40
428.66	1724.39
428.86	1652.71
429.07	1679.33
429.28	1730.53
429.48	1753.06
429.69	1665.00
429.89	1720.29
430.10	1615.85
430.30	1732.58
430.51	1722.34
430.71	1681.38
430.92	1716.20
431.13	1730.53
431.33	1751.01
431.54	1763.30
431.74	1794.02
431.95	1845.22
432.15	1634.28
432.36	1701.86
432.56	1791.97
432.77	1869.80
432.98	1859.56
433.18	1734.63
433.39	1712.10
433.59	1691.62
433.80	1812.45
434.00	1886.18
434.21	1708.01
434.41	1648.61
434.62	1841.12
434.82	1574.89
435.03	1679.33
435.23	1716.20
435.44	1697.77
435.64	1662.95
435.85	1779.68
436.06	1791.97
436.26	1660.90
436.47	1712.10
436.67	1718.25
436.88	1732.58
437.08	1763.30
437.29	1800.16
437.49	1718.25
437.70	1830.88
437.90	1787.88
438.11	1808.36
438.31	1826.79
438.52	1755.11
438.72	1822.69
438.93	1941.47
439.13	1761.25
439.34	1802.21
439.54	1652.71
439.75	1845.22
439.95	1832.93
440.16	1755.11
440.36	1828.84
440.57	1748.97
440.77	1757.16
440.98	1769.44
441.18	1744.87
441.39	1697.77
441.59	1722.34
441.80	1767.40
442.00	1701.86
442.21	1814.50
442.41	1650.66
442.62	1779.68
442.82	1671.14
443.02	1662.95
443.23	1730.53
443.43	1738.73
443.64	1785.83
443.84	1665.00
444.05	1804.26
444.25	1783.78
444.46	1726.44
444.66	1701.86
444.87	1828.84
445.07	1701.86
445.28	1767.40
445.48	1785.83
445.69	1761.25
445.89	1904.61
446.09	1796.07
446.30	2070.50
446.50	2574.30
446.71	3571.66
446.91	4163.52
447.12	4585.40
447.32	4753.34
447.53	4138.94
447.73	3858.37
447.93	3426.25
448.14	3373.00
448.34	3112.91
448.55	2822.10
448.75	2865.11
448.96	2691.03
449.16	2324.44
449.36	2310.11
449.57	2123.74
449.77	1902.56
449.98	1744.87
450.18	1832.93
450.39	1818.60
450.59	1779.68
450.79	1697.77
451.00	1722.34
451.20	1816.55
451.41	1726.44
451.61	1693.67
451.81	1736.68
452.02	1705.96
452.22	1656.81
452.43	1787.88
452.63	1714.15
452.84	1705.96
453.04	1783.78
453.24	1755.11
453.45	1687.53
453.65	1785.83
453.86	1785.83
454.06	1775.59
454.26	1718.25
454.47	1718.25
454.67	1851.36
454.87	1636.33
455.08	1705.96
455.28	1859.56
455.49	1812.45
455.69	1695.72
455.89	1814.50
456.10	1841.12
456.30	1722.34
456.51	1695.72
456.71	1742.82
456.91	1812.45
457.12	1767.40
457.32	1738.73
457.52	1660.90
457.73	1849.32
457.93	1828.84
458.14	1730.53
458.34	1650.66
458.54	1759.21
458.75	1714.15
458.95	1806.31
459.15	1785.83
459.36	1826.79
459.56	1800.16
459.76	1865.70
459.97	1708.01
460.17	1746.92
460.37	1763.30
460.58	1800.16
460.78	1841.12
460.99	1773.54
461.19	1753.06
461.39	1732.58
461.60	1712.10
461.80	1724.39
462.00	1755.11
462.21	1769.44
462.41	1699.81
462.61	1665.00
462.82	1673.19
463.02	1744.87
463.22	1656.81
463.43	1730.53
463.63	1763.30
463.83	1814.50
464.04	1763.30
464.24	1787.88
464.44	1722.34
464.64	1773.54
464.85	1789.92
465.05	1746.92
465.25	1757.16
465.46	1728.49
465.66	1751.01
465.86	1767.40
466.07	1746.92
466.27	1734.63
466.47	1644.52
466.68	1617.90
466.88	1730.53
467.08	1728.49
467.29	1789.92
467.49	1732.58
467.69	1777.64
467.89	1783.78
468.10	1732.58
468.30	1765.35
468.50	1824.74
468.71	1718.25
468.91	1648.61
469.11	1900.52
469.31	1699.81
469.52	1767.40
469.72	1867.75
469.92	1837.03
470.13	1746.92
470.33	1787.88
470.53	1898.47
470.73	2095.07
470.94	2299.87
471.14	2277.34
471.34	2500.57
471.54	2369.50
471.75	2211.81
471.95	2066.40
472.15	2086.88
472.36	2099.17
472.56	2011.11
472.76	2074.59
472.96	2009.06
473.17	1923.04
473.37	1894.37
473.57	1777.64
473.77	1853.41
473.98	1728.49
474.18	1744.87
474.38	1914.85
474.58	1720.29
474.79	1740.77
474.99	1802.21
475.19	1816.55
475.39	1714.15
475.60	1769.44
475.80	1718.25
476.00	1695.72
476.20	1718.25
476.41	1734.63
476.61	1832.93
476.81	1804.26
477.01	1732.58
477.21	1869.80
477.42	1828.84
477.62	1630.18
477.82	1769.44
478.02	1746.92
478.23	1755.11
478.43	1720.29
478.63	1693.67
478.83	1705.96
479.03	1722.34
479.24	1837.03
479.44	1826.79
479.64	1724.39
479.84	1695.72
480.04	1689.57
480.25	1779.68
480.45	1656.81
480.65	1724.39
480.85	1863.65
481.06	1742.82
481.26	1785.83
481.46	1802.21
481.66	1716.20
481.86	1667.05
482.06	1742.82
482.27	1718.25
482.47	1701.86
482.67	1765.35
482.87	1751.01
483.07	1789.92
483.28	1730.53
483.48	1621.99
483.68	1765.35
483.88	1708.01
484.08	1599.46
484.29	1650.66
484.49	1728.49
484.69	1626.09
484.89	1722.34
485.09	1796.07
485.29	1718.25
485.50	1716.20
485.70	1728.49
485.90	1765.35
486.10	1718.25
486.30	1783.78
486.50	1820.64
486.71	1810.40
486.91	1671.14
487.11	1869.80
487.31	1634.28
487.51	1777.64
487.71	1671.14
487.91	1654.76
488.12	1662.95
488.32	1560.55
488.52	1683.43
488.72	1595.37
488.92	1771.49
489.12	1802.21
489.32	1755.11
489.53	1781.73
489.73	1658.85
489.93	1830.88
490.13	1695.72
490.33	1693.67
490.53	1746.92
490.73	1785.83
490.94	1660.90
491.14	1791.97
491.34	1777.64
491.54	2148.32
491.74	2545.63
491.94	2947.03
492.14	2934.74
492.34	2934.74
492.54	2736.09
492.75	2559.96
492.95	2377.69
493.15	2281.44
493.35	2349.02
493.55	2238.43
493.75	2158.56
493.95	2097.12
494.15	2021.35
494.35	1980.39
494.56	1791.97
494.76	1773.54
494.96	1849.32
495.16	1816.55
495.36	1771.49
495.56	1796.07
495.76	1800.16
495.96	1779.68
496.16	1656.81
496.36	1818.60
496.56	1701.86
496.77	1720.29
496.97	1761.25
497.17	1767.40
497.37	1648.61
497.57	1785.83
497.77	1791.97
497.97	1685.48
498.17	1767.40
498.37	1677.29
498.57	1755.11
498.77	1658.85
498.97	1820.64
499.17	1884.13
499.38	1724.39
499.58	1746.92
499.78	1789.92
499.98	1798.12
500.18	1777.64
500.38	1691.62
500.58	1906.66
500.78	2439.13
500.98	4458.43
501.18	5740.46
501.38	6444.96
501.58	6784.92
501.78	6336.42
501.98	5197.74
502.18	4874.17
502.38	4245.44
502.58	4009.92
502.78	3655.62
502.98	3485.64
503.18	3381.20
503.38	3114.96
503.59	2820.05
503.79	2566.10
503.99	2482.14
504.19	2248.67
504.39	2172.89
504.59	2248.67
504.79	2172.89
504.99	1992.67
505.19	1959.91
505.39	1873.89
505.59	2002.91
505.79	1882.08
505.99	1798.12
506.19	1785.83
506.39	1845.22
506.59	1748.97
506.79	1830.88
506.99	1880.04
507.19	1761.25
507.39	1746.92
507.59	1669.09
507.79	1646.57
507.99	1722.34
508.19	1691.62
508.39	1787.88
508.59	1734.63
508.79	1914.85
508.99	1861.60
509.19	1652.71
509.39	1763.30
509.59	1656.81
509.79	1724.39
509.99	1757.16
510.19	1742.82
510.39	1722.34
510.59	1748.97
510.79	1742.82
510.99	1689.57
511.19	1691.62
511.39	1769.44
511.59	1765.35
511.79	1800.16
511.99	1722.34
512.19	1802.21
512.38	1695.72
512.58	1753.06
512.78	1722.34
512.98	1789.92
513.18	1869.80
513.38	1703.91
513.58	1853.41
513.78	1705.96
513.98	1728.49
514.18	1660.90
514.38	1740.77
514.58	1820.64
514.78	1761.25
514.98	1787.88
515.18	1734.63
515.38	1775.59
515.58	1818.60
515.78	1746.92
515.98	1726.44
516.18	1687.53
516.38	1710.05
516.57	1634.28
516.77	1691.62
516.97	1753.06
517.17	1650.66
517.37	1724.39
517.57	1877.99
517.77	1710.05
517.97	1701.86
518.17	1789.92
518.37	1693.67
518.57	1603.56
518.77	1689.57
518.97	1613.80
519.16	1765.35
519.36	1843.17
519.56	1699.81
519.76	1705.96
519.96	1736.68
520.16	1843.17
520.36	1751.01
520.56	1791.97
520.76	1642.47
520.96	1705.96
521.16	1703.91
521.35	1853.41
521.55	1791.97
521.75	1781.73
521.95	1703.91
522.15	1665.00
522.35	1669.09
522.55	1703.91
522.75	1771.49
522.95	1716.20
523.14	1679.33
523.34	1734.63
523.54	1714.15
523.74	1798.12
523.94	1742.82
524.14	1648.61
524.34	1730.53
524.54	1824.74
524.73	1714.15
524.93	1701.86
525.13	1732.58
525.33	1701.86
525.53	1896.42
525.73	1824.74
525.93	1742.82
526.13	1726.44
526.32	1667.05
526.52	1753.06
526.72	1867.75
526.92	1728.49
527.12	1771.49
527.32	1714.15
527.52	1732.58
527.71	1765.35
527.91	1708.01
528.11	1761.25
528.31	1775.59
528.51	1683.43
528.71	1697.77
528.90	1804.26
529.10	1775.59
529.30	1796.07
529.50	1562.60
529.70	1705.96
529.90	1781.73
530.09	1759.21
530.29	1738.73
530.49	1734.63
530.69	1877.99
530.89	1794.02
531.09	1761.25
531.28	1730.53
531.48	1781.73
531.68	1683.43
531.88	1708.01
532.08	1800.16
532.28	1701.86
532.47	1816.55
532.67	1751.01
532.87	1783.78
533.07	1738.73
533.27	1716.20
533.46	1804.26
533.66	1734.63
533.86	1804.26
534.06	1718.25
534.26	1748.97
534.45	1705.96
534.65	1755.11
534.85	1646.57
535.05	1675.24
535.25	1773.54
535.44	1662.95
535.64	1857.51
535.84	1722.34
536.04	1755.11
536.24	1701.86
536.43	1703.91
536.63	1769.44
536.83	1693.67
537.03	1705.96
537.22	1613.80
537.42	1609.70
537.62	1712.10
537.82	1662.95
538.02	1742.82
538.21	1806.31
538.41	1890.28
538.61	1826.79
538.81	1683.43
539.00	1804.26
539.20	1673.19
539.40	1726.44
539.60	1767.40
539.79	1697.77
539.99	1796.07
540.19	1697.77
540.39	1742.82
540.58	1718.25
540.78	1771.49
540.98	1781.73
541.18	1826.79
541.37	1837.03
541.57	1730.53
541.77	1699.81
541.97	1701.86
542.16	1652.71
542.36	1720.29
542.56	1734.63
542.76	1845.22
542.95	1697.77
543.15	1783.78
543.35	1744.87
543.54	1777.64
543.74	1683.43
543.94	1806.31
544.14	1796.07
544.33	1820.64
544.53	1720.29
544.73	1703.91
544.93	1755.11
545.12	1763.30
545.32	1744.87
545.52	1714.15
545.71	1648.61
545.91	1730.53
546.11	1779.68
546.30	1681.38
546.50	1796.07
546.70	1753.06
546.90	1759.21
547.09	1701.86
547.29	1720.29
547.49	1742.82
547.68	1640.42
547.88	1677.29
548.08	1781.73
548.27	2238.43
548.47	1802.21
548.67	1718.25
548.87	1783.78
549.06	1693.67
549.26	1722.34
549.46	1765.35
549.65	1701.86
549.85	1753.06
550.05	1789.92
550.24	1751.01
550.44	1832.93
550.64	1802.21
550.83	1765.35
551.03	1794.02
551.23	1783.78
551.42	1802.21
551.62	1771.49
551.82	1703.91
552.01	1746.92
552.21	1832.93
552.41	1765.35
552.60	1880.04
552.80	1791.97
553.00	1724.39
553.19	1738.73
553.39	1794.02
553.59	1628.14
553.78	1785.83
553.98	1705.96
554.17	1705.96
554.37	1812.45
554.57	1763.30
554.76	1701.86
554.96	1748.97
555.16	1779.68
555.35	1800.16
555.55	1732.58
555.75	1695.72
555.94	1808.36
556.14	1638.38
556.33	1806.31
556.53	1814.50
556.73	1662.95
556.92	1798.12
557.12	1804.26
557.32	1822.69
557.51	1843.17
557.71	1826.79
557.90	1808.36
558.10	1863.65
558.30	1738.73
558.49	1755.11
558.69	1718.25
558.88	1771.49
559.08	1738.73
559.28	1822.69
559.47	1732.58
559.67	1748.97
559.86	1826.79
560.06	1812.45
560.26	1705.96
560.45	1730.53
560.65	1703.91
560.84	1787.88
561.04	1714.15
561.24	1777.64
561.43	1640.42
561.63	1814.50
561.82	1714.15
562.02	1751.01
562.22	1677.29
562.41	1714.15
562.61	1746.92
562.80	1781.73
563.00	1869.80
563.19	1757.16
563.39	1701.86
563.59	1734.63
563.78	1734.63
563.98	1638.38
564.17	1740.77
564.37	1693.67
564.56	1705.96
564.76	1671.14
564.96	1869.80
565.15	1816.55
565.35	1941.47
565.54	1693.67
565.74	1761.25
565.93	1802.21
566.13	1697.77
566.32	1744.87
566.52	1759.21
566.71	1775.59
566.91	1746.92
567.11	1746.92
567.30	1746.92
567.50	1755.11
567.69	1847.27
567.89	1712.10
568.08	1703.91
568.28	1724.39
568.47	1669.09
568.67	1724.39
568.86	1691.62
569.06	1765.35
569.25	1712.10
569.45	1695.72
569.64	1683.43
569.84	1746.92
570.04	1787.88
570.23	1662.95
570.43	1767.40
570.62	1740.77
570.82	1853.41
571.01	1734.63
571.21	1703.91
571.40	1609.70
571.60	1826.79
571.79	1777.64
571.99	1769.44
572.18	1714.15
572.38	1773.54
572.57	1755.11
572.77	1699.81
572.96	1886.18
573.16	1775.59
573.35	1701.86
573.55	1798.12
573.74	1796.07
573.94	1705.96
574.13	1712.10
574.33	1771.49
574.52	1830.88
574.71	1714.15
574.91	1800.16
575.10	1689.57
575.30	1714.15
575.49	1722.34
575.69	1730.53
575.88	1746.92
576.08	1734.63
576.27	1812.45
576.47	1789.92
576.66	1843.17
576.86	1787.88
577.05	1841.12
577.25	1814.50
577.44	1785.83
577.64	1757.16
577.83	1877.99
578.02	1708.01
578.22	1769.44
578.41	1769.44
578.61	1791.97
578.80	1667.05
579.00	1740.77
579.19	1738.73
579.39	1769.44
579.58	1826.79
579.77	1755.11
579.97	1902.56
580.16	1796.07
580.36	1851.36
580.55	1824.74
580.75	1767.40
580.94	1777.64
581.13	1810.40
581.33	1923.04
581.52	1761.25
581.72	1837.03
581.91	1820.64
582.11	1734.63
582.30	1855.46
582.49	1777.64
582.69	1984.48
582.88	1765.35
583.08	1681.38
583.27	1783.78
583.47	1775.59
583.66	1714.15
583.85	1816.55
584.05	1681.38
584.24	1849.32
584.44	1794.02
584.63	1867.75
584.82	1738.73
585.02	1841.12
585.21	1863.65
585.41	1937.38
585.60	1806.31
585.79	1941.47
585.99	1912.80
586.18	1910.75
586.37	2176.99
586.57	3389.39
586.76	9557.87
586.96	23199.39
587.15	32962.06
587.34	38876.59
587.54	40394.14
587.73	34610.67
587.93	25292.41
588.12	20381.38
588.31	17436.41
588.51	15415.06
588.70	14462.76
588.89	13332.28
589.09	11896.65
589.28	10432.35
589.47	9043.83
589.67	7690.12
589.86	6135.71
590.06	4620.22
590.25	3725.26
590.44	3104.72
590.64	2578.39
590.83	2158.56
591.02	2068.45
591.22	1880.04
591.41	1931.23
591.60	1837.03
591.80	1945.57
591.99	1816.55
592.18	1763.30
592.38	1867.75
592.57	1728.49
592.76	1753.06
592.96	1869.80
593.15	1781.73
593.34	1816.55
593.54	1697.77
593.73	1732.58
593.92	1808.36
594.12	1806.31
594.31	1796.07
594.50	1804.26
594.70	1806.31
594.89	1869.80
595.08	1640.42
595.28	1755.11
595.47	1900.52
595.66	1732.58
595.86	1673.19
596.05	1691.62
596.24	1705.96
596.43	1871.84
596.63	1837.03
596.82	1730.53
597.01	1761.25
597.21	1783.78
597.40	1824.74
597.59	1757.16
597.79	1716.20
597.98	1736.68
598.17	1718.25
598.36	1812.45
598.56	1769.44
598.75	1714.15
598.94	1816.55
599.14	1722.34
599.33	1679.33
599.52	1718.25
599.71	1796.07
599.91	1861.60
600.10	1753.06
600.29	1712.10
600.48	1779.68
600.68	1759.21
600.87	1751.01
601.06	1699.81
601.26	1763.30
601.45	1828.84
601.64	1636.33
601.83	1830.88
602.03	1718.25
602.22	1693.67
602.41	1804.26
602.60	1800.16
602.80	1814.50
602.99	1791.97
603.18	1755.11
603.37	1765.35
603.57	1667.05
603.76	1746.92
603.95	1767.40
604.14	1738.73
604.34	1738.73
604.53	1812.45
604.72	1804.26
604.91	1818.60
605.10	1746.92
605.30	1691.62
605.49	1820.64
605.68	1808.36
605.87	1818.60
606.07	1665.00
606.26	1689.57
606.45	1781.73
606.64	1716.20
606.84	1800.16
607.03	1722.34
607.22	1839.08
607.41	1757.16
607.60	1734.63
607.80	1816.55
607.99	1769.44
608.18	1787.88
608.37	1697.77
608.56	1796.07
608.76	1738.73
608.95	1777.64
609.14	1767.40
609.33	1783.78
609.52	1804.26
609.72	1759.21
609.91	1791.97
610.10	1761.25
610.29	1861.60
610.48	1718.25
610.68	1746.92
610.87	1726.44
611.06	1771.49
611.25	1658.85
611.44	1841.12
611.63	1751.01
611.83	1763.30
612.02	1587.18
612.21	1812.45
612.40	1552.36
612.59	1708.01
612.79	1705.96
612.98	1703.91
613.17	1796.07
613.36	1697.77
613.55	1886.18
613.74	1714.15
613.93	1763.30
614.13	1814.50
614.32	1785.83
614.51	1767.40
614.70	1679.33
614.89	1714.15
615.08	1771.49
615.28	2033.63
615.47	1650.66
615.66	1732.58
615.85	1687.53
616.04	1822.69
616.23	1832.93
616.42	1673.19
616.62	1730.53
616.81	1845.22
617.00	1802.21
617.19	1810.40
617.38	1714.15
617.57	1677.29
617.76	1742.82
617.95	1832.93
618.15	1753.06
618.34	1845.22
618.53	1642.47
618.72	1771.49
618.91	1843.17
619.10	1822.69
619.29	1701.86
619.48	1710.05
619.68	1673.19
619.87	1748.97
620.06	1665.00
620.25	1740.77
620.44	1705.96
620.63	1763.30
620.82	1677.29
621.01	1712.10
621.20	1691.62
621.39	1720.29
621.59	1783.78
621.78	1703.91
621.97	1699.81
622.16	1783.78
622.35	1763.30
622.54	1796.07
622.73	1873.89
622.92	1626.09
623.11	1734.63
623.30	1703.91
623.49	1796.07
623.68	1708.01
623.88	1828.84
624.07	1665.00
624.26	1769.44
624.45	1732.58
624.64	1669.09
624.83	1740.77
625.02	1769.44
625.21	1738.73
625.40	1769.44
625.59	1830.88
625.78	1681.38
625.97	1755.11
626.16	1755.11
626.35	1726.44
626.54	1693.67
626.74	1804.26
626.93	1728.49
627.12	1734.63
627.31	1738.73
627.50	1726.44
627.69	1763.30
627.88	1675.24
628.07	1626.09
628.26	1630.18
628.45	1644.52
628.64	1683.43
628.83	1755.11
629.02	1636.33
629.21	1751.01
629.40	1785.83
629.59	1710.05
629.78	1712.10
629.97	1652.71
630.16	1751.01
630.35	1722.34
630.54	1615.85
630.73	1771.49
630.92	1693.67
631.11	1683.43
631.30	1683.43
631.49	1767.40
631.68	1736.68
631.87	1755.11
632.06	1597.42
632.25	1855.46
632.44	1710.05
632.63	1710.05
632.82	1718.25
633.01	1705.96
633.20	1677.29
633.39	1611.75
633.58	1693.67
633.77	1705.96
633.96	1796.07
634.15	1767.40
634.34	1785.83
634.53	1695.72
634.72	1697.77
634.91	1574.89
635.10	1755.11
635.29	1832.93
635.48	1720.29
635.67	1722.34
635.86	1656.81
636.05	1755.11
636.24	1732.58
636.43	1787.88
636.62	1708.01
636.81	1630.18
637.00	1617.90
637.19	1759.21
637.38	1734.63
637.57	1681.38
637.76	1683.43
637.95	1773.54
638.14	1705.96
638.33	1652.71
638.52	1746.92
638.71	1669.09
638.89	1615.85
639.08	1875.94
639.27	1783.78
639.46	1705.96
639.65	1751.01
639.84	1705.96
640.03	1787.88
640.22	1665.00
640.41	1783.78
640.60	1730.53
640.79	1767.40
640.98	1781.73
641.17	1777.64
641.36	1779.68
641.55	1683.43
641.74	1677.29
641.92	1683.43
642.11	1644.52
642.30	1665.00
642.49	1695.72
642.68	1722.34
642.87	1642.47
643.06	1730.53
643.25	1708.01
643.44	1775.59
643.63	1712.10
643.82	1722.34
644.00	1685.48
644.19	1712.10
644.38	1759.21
644.57	1751.01
644.76	1714.15
644.95	1693.67
645.14	1730.53
645.33	1732.58
645.52	1699.81
645.71	1708.01
645.89	1665.00
646.08	1673.19
646.27	1673.19
646.46	1794.02
646.65	1687.53
646.84	1732.58
647.03	1714.15
647.22	1759.21
647.40	1728.49
647.59	1740.77
647.78	1619.94
647.97	1660.90
648.16	1648.61
648.35	1759.21
648.54	1761.25
648.73	1724.39
648.91	1804.26
649.10	1771.49
649.29	1626.09
649.48	1675.24
649.67	1716.20
649.86	1781.73
650.05	1665.00
650.23	1818.60
650.42	1710.05
650.61	1722.34
650.80	1751.01
650.99	1804.26
651.18	1798.12
651.36	1720.29
651.55	1748.97
651.74	1683.43
651.93	1738.73
652.12	1712.10
652.31	1746.92
652.49	1675.24
652.68	1626.09
652.87	1824.74
653.06	1779.68
653.25	1882.08
653.44	1669.09
653.62	1810.40
653.81	1722.34
654.00	1675.24
654.19	1722.34
654.38	1871.84
654.56	1722.34
654.75	1796.07
654.94	1748.97
655.13	1759.21
655.32	1730.53
655.51	1746.92
655.69	1708.01
655.88	1783.78
656.07	1710.05
656.26	1656.81
656.45	1605.61
656.63	1691.62
656.82	1724.39
657.01	1804.26
657.20	1751.01
657.38	1822.69
657.57	1734.63
657.76	1595.37
657.95	1728.49
658.14	1673.19
658.32	1681.38
658.51	1738.73
658.70	1740.77
658.89	1734.63
659.08	1746.92
659.26	1730.53
659.45	1675.24
659.64	1732.58
659.83	1671.14
660.01	1902.56
660.20	1714.15
660.39	1798.12
660.58	1636.33
660.76	1763.30
660.95	1695.72
661.14	1753.06
661.33	1624.04
661.51	1738.73
661.70	1626.09
661.89	1742.82
662.08	1665.00
662.26	1687.53
662.45	1685.48
662.64	1894.37
662.83	1742.82
663.01	1693.67
663.20	1665.00
663.39	1761.25
663.58	1642.47
663.76	1732.58
663.95	1765.35
664.14	1726.44
664.32	1771.49
664.51	1714.15
664.70	1642.47
664.89	1697.77
665.07	1685.48
665.26	1732.58
665.45	1671.14
665.64	1753.06
665.82	1769.44
666.01	1781.73
666.20	1646.57
666.38	1787.88
666.57	1789.92
666.76	2230.24
666.95	4394.94
667.13	9955.18
667.32	14733.09
667.51	17215.23
667.69	18124.52
667.88	17084.16
668.07	11749.20
668.25	9209.72
668.44	7808.90
668.63	7174.03
668.81	6571.93
669.00	5924.77
669.19	5609.39
669.38	4913.08
669.56	4444.09
669.75	3809.22
669.94	3303.37
670.12	2901.97
670.31	2510.81
670.50	2306.01
670.68	2045.92
670.87	1937.38
671.06	1808.36
671.24	1806.31
671.43	1837.03
671.62	1783.78
671.80	1744.87
671.99	1738.73
672.18	1708.01
672.36	1748.97
672.55	1708.01
672.74	1773.54
672.92	1697.77
673.11	1826.79
673.29	1673.19
673.48	1777.64
673.67	1652.71
673.85	1740.77
674.04	1724.39
674.23	1705.96
674.41	1740.77
674.60	1634.28
674.79	1708.01
674.97	1640.42
675.16	1726.44
675.34	1806.31
675.53	1585.13
675.72	1767.40
675.90	1777.64
676.09	1615.85
676.28	1751.01
676.46	1611.75
676.65	1669.09
676.83	1722.34
677.02	1773.54
677.21	1677.29
677.39	1716.20
677.58	1695.72
677.77	1708.01
677.95	1724.39
678.14	1726.44
678.32	1687.53
678.51	1699.81
678.70	1841.12
678.88	1757.16
679.07	1783.78
679.25	1714.15
679.44	1726.44
679.63	1646.57
679.81	1722.34
680.00	1789.92
680.18	1744.87
680.37	1834.98
680.55	1771.49
680.74	1671.14
680.93	1656.81
681.11	1751.01
681.30	1701.86
681.48	1669.09
681.67	1689.57
681.85	1753.06
682.04	1724.39
682.23	1761.25
682.41	1736.68
682.60	1755.11
682.78	1783.78
682.97	1570.79
683.15	1755.11
683.34	1714.15
683.53	1773.54
683.71	1628.14
683.90	1794.02
684.08	1773.54
684.27	1712.10
684.45	1726.44
684.64	1804.26
684.82	1705.96
685.01	1798.12
685.19	1732.58
685.38	1779.68
685.57	1705.96
685.75	1689.57
685.94	1646.57
686.12	1675.24
686.31	1673.19
686.49	1763.30
686.68	1656.81
686.86	1720.29
687.05	1730.53
687.23	1816.55
687.42	1710.05
687.60	1619.94
687.79	1794.02
687.97	1783.78
688.16	1761.25
688.34	1839.08
688.53	1687.53
688.71	1785.83
688.90	1789.92
689.08	1714.15
689.27	1636.33
689.45	1755.11
689.64	1744.87
689.82	1751.01
690.01	1685.48
690.19	1740.77
690.38	1687.53
690.56	1802.21
690.75	1679.33
690.93	1708.01
691.12	1638.38
691.30	1693.67
691.49	1665.00
691.67	1773.54
691.86	1783.78
692.04	1689.57
692.23	1665.00
692.41	1634.28
692.60	1800.16
692.78	1789.92
692.97	1646.57
693.15	1798.12
693.34	1751.01
693.52	1767.40
693.71	1708.01
693.89	1697.77
694.08	1673.19
694.26	1787.88
694.44	1773.54
694.63	1755.11
694.81	1677.29
695.00	1681.38
695.18	1802.21
695.37	1834.98
695.55	1716.20
695.74	1640.42
695.92	1660.90
696.10	1785.83
696.29	1722.34
696.47	1740.77
696.66	1628.14
696.84	1628.14
697.03	1751.01
697.21	1839.08
697.40	2242.53
697.58	1763.30
697.76	1673.19
697.95	1613.80
698.13	1667.05
698.32	1683.43
698.50	1650.66
698.68	1785.83
698.87	1744.87
699.05	1767.40
699.24	1724.39
699.42	1607.66
699.61	1771.49
699.79	1753.06
699.97	1759.21
700.16	1742.82
700.34	1630.18
700.53	1740.77
700.71	1771.49
700.89	1740.77
701.08	1761.25
701.26	1665.00
701.45	2072.54
701.63	1677.29
701.81	1728.49
702.00	1730.53
702.18	1699.81
702.37	1675.24
702.55	1691.62
702.73	1673.19
702.92	1652.71
703.10	1691.62
703.28	1716.20
703.47	1628.14
703.65	1765.35
703.84	1845.22
704.02	1667.05
704.20	1818.60
704.39	1695.72
704.57	1761.25
704.75	1763.30
704.94	1832.93
705.12	1712.10
705.30	1751.01
705.49	2265.05
705.67	4403.13
705.86	9127.80
706.04	12220.23
706.22	13715.25
706.41	14720.80
706.59	13213.49
706.77	9097.08
706.96	7157.65
707.14	6254.50
707.32	5857.19
707.51	5431.21
707.69	4708.28
707.87	4057.03
708.06	3336.14
708.24	2805.72
708.42	2346.97
708.61	2295.77
708.79	1990.63
708.97	1865.70
709.16	1824.74
709.34	1789.92
709.52	1847.27
709.71	1730.53
709.89	1746.92
710.07	1652.71
710.26	1605.61
710.44	1683.43
710.62	1794.02
710.80	1673.19
710.99	1808.36
711.17	1910.75
711.35	1660.90
711.54	1689.57
711.72	1767.40
711.90	1716.20
712.09	1712.10
712.27	1705.96
712.45	1714.15
712.63	1685.48
712.82	1703.91
713.00	1722.34
713.18	1730.53
713.37	1857.51
713.55	1800.16
713.73	1691.62
713.91	1806.31
714.10	1755.11
714.28	1656.81
714.46	1755.11
714.65	1687.53
714.83	1798.12
715.01	1794.02
715.19	1705.96
715.38	1665.00
715.56	1634.28
715.74	1685.48
715.92	1665.00
716.11	1734.63
716.29	1667.05
716.47	1730.53
716.65	1656.81
716.84	1583.08
717.02	1796.07
717.20	1595.37
717.38	1691.62
717.57	1746.92
717.75	1763.30
717.93	1650.66
718.11	1697.77
718.30	1626.09
718.48	1789.92
718.66	1808.36
718.84	1787.88
719.03	1644.52
719.21	1646.57
719.39	1744.87
719.57	1746.92
719.75	1761.25
719.94	1667.05
720.12	1734.63
720.30	1730.53
720.48	1759.21
720.67	1581.03
720.85	1626.09
721.03	1658.85
721.21	1636.33
721.39	1767.40
721.58	1775.59
721.76	1634.28
721.94	1695.72
722.12	1781.73
722.30	1783.78
722.49	1691.62
722.67	1738.73
722.85	1656.81
723.03	1646.57
723.21	1628.14
723.40	1695.72
723.58	1759.21
723.76	1777.64
723.94	1759.21
724.12	1732.58
724.30	1746.92
724.49	1796.07
724.67	1675.24
724.85	1785.83
725.03	1724.39
725.21	1753.06
725.40	1765.35
725.58	1740.77
725.76	1861.60
725.94	1673.19
726.12	1619.94
726.30	1685.48
726.49	1708.01
726.67	1656.81
726.85	1746.92
727.03	1689.57
727.21	2119.65
727.39	2889.68
727.57	3690.44
727.76	4145.09
727.94	4210.62
728.12	4274.11
728.30	3528.65
728.48	2920.40
728.66	2613.21
728.84	2451.42
729.03	2217.95
729.21	2138.08
729.39	1988.58
729.57	1880.04
729.75	1925.09
729.93	1882.08
730.11	1621.99
730.30	1681.38
730.48	1720.29
730.66	1804.26
730.84	1765.35
731.02	1728.49
731.20	1689.57
731.38	1660.90
731.56	1669.09
731.74	1613.80
731.93	1699.81
732.11	1728.49
732.29	1751.01
732.47	1751.01
732.65	1751.01
732.83	1789.92
733.01	1685.48
733.19	1636.33
733.37	1806.31
733.56	1712.10
733.74	1597.42
733.92	1787.88
734.10	1685.48
734.28	1722.34
734.46	1640.42
734.64	1687.53
734.82	1644.52
735.00	1656.81
735.18	1705.96
735.36	1732.58
735.54	1705.96
735.73	1722.34
735.91	1685.48
736.09	1744.87
736.27	1722.34
736.45	1734.63
736.63	1728.49
736.81	1720.29
736.99	1697.77
737.17	1763.30
737.35	1658.85
737.53	1726.44
737.71	1746.92
737.89	1734.63
738.07	1648.61
738.25	1652.71
738.43	1609.70
738.61	1699.81
738.80	1683.43
738.98	1621.99
739.16	1699.81
739.34	1613.80
739.52	1816.55
739.70	1689.57
739.88	1673.19
740.06	1751.01
740.24	1632.23
740.42	1789.92
740.60	1609.70
740.78	1656.81
740.96	1626.09
741.14	1685.48
741.32	1708.01
741.50	1673.19
741.68	1800.16
741.86	1779.68
742.04	1669.09
742.22	1658.85
742.40	1710.05
742.58	1755.11
742.76	1718.25
742.94	1767.40
743.12	1628.14
743.30	1705.96
743.48	1757.16
743.66	1699.81
743.84	1753.06
744.02	1662.95
744.20	1644.52
744.38	1705.96
744.56	1726.44
744.74	1839.08
744.92	1728.49
745.10	1826.79
745.28	1826.79
745.46	1763.30
745.64	1708.01
745.82	1779.68
746.00	1673.19
746.18	1728.49
746.36	1652.71
746.54	1773.54
746.72	1691.62
746.90	1712.10
747.08	1777.64
747.26	1654.76
747.44	1761.25
747.62	1714.15
747.80	1646.57
747.98	1716.20
748.15	1677.29
748.33	1843.17
748.51	1599.46
748.69	1798.12
748.87	1685.48
749.05	1695.72
749.23	1691.62
749.41	1699.81
749.59	1712.10
749.77	1759.21
749.95	1746.92
750.13	1587.18
750.31	1767.40
750.49	1742.82
750.67	1697.77
750.85	1726.44
751.03	1693.67
751.20	1818.60
751.38	1734.63
751.56	1646.57
751.74	1673.19
751.92	1685.48
752.10	1710.05
752.28	1751.01
752.46	1779.68
752.64	1746.92
752.82	1726.44
753.00	1757.16
753.18	1697.77
753.35	1761.25
753.53	1697.77
753.71	1779.68
753.89	1751.01
754.07	1689.57
754.25	1794.02
754.43	1714.15
754.61	1632.23
754.79	1722.34
754.97	1695.72
755.14	1775.59
755.32	1599.46
755.50	1677.29
755.68	1636.33
755.86	1644.52
756.04	1716.20
756.22	1675.24
756.40	1726.44
756.57	1814.50
756.75	1718.25
756.93	1669.09
757.11	1818.60
757.29	1654.76
757.47	1646.57
757.65	1691.62
757.82	1542.12
758.00	1697.77
758.18	1662.95
758.36	1734.63
758.54	1804.26
758.72	1581.03
758.90	1712.10
759.07	1697.77
759.25	1699.81
759.43	1703.91
759.61	1632.23
759.79	2187.23
759.97	1822.69
760.15	1677.29
760.32	1669.09
760.50	1675.24
760.68	1746.92
760.86	1630.18
761.04	1748.97
761.22	1708.01
761.39	1708.01
761.57	1751.01
761.75	1718.25
761.93	1693.67
762.11	1665.00
762.28	1730.53
762.46	1703.91
762.64	1837.03
762.82	1656.81
763.00	1691.62
763.18	1826.79
763.35	1722.34
763.53	1738.73
763.71	1742.82
763.89	1675.24
764.07	1751.01
764.24	1714.15
764.42	1794.02
764.60	1734.63
764.78	1714.15
764.96	1742.82
765.13	1796.07
765.31	1691.62
765.49	1673.19
765.67	1613.80
765.84	1574.89
766.02	1693.67
766.20	1656.81
766.38	1746.92
766.56	1794.02
766.73	1730.53
766.91	1667.05
767.09	1755.11
767.27	1708.01
767.44	1648.61
767.62	1626.09
767.80	1681.38
767.98	1705.96
768.15	1693.67
768.33	1695.72
768.51	1732.58
768.69	1689.57
768.87	1746.92
769.04	1665.00
769.22	1837.03
769.40	1791.97
769.58	1890.28
769.75	1708.01
769.93	1755.11
770.11	1652.71
770.28	1701.86
770.46	1722.34
770.64	1718.25
770.82	1705.96
770.99	1654.76
771.17	1697.77
771.35	1720.29
771.53	1685.48
771.70	1687.53
771.88	1677.29
772.06	1675.24
772.23	1740.77
772.41	1636.33
772.59	1746.92
772.77	1656.81
772.94	1701.86
773.12	1714.15
773.30	1714.15
773.47	1718.25
773.65	1689.57
773.83	1816.55
774.01	1701.86
774.18	1667.05
774.36	1714.15
774.54	1648.61
774.71	1654.76
774.89	1673.19
775.07	1738.73
775.24	1734.63
775.42	1685.48
775.60	1869.80
775.78	1697.77
775.95	1679.33
776.13	1591.27
776.31	1587.18
776.48	1652.71
776.66	1759.21
776.84	1763.30
777.01	1736.68
777.19	1714.15
777.37	1681.38
777.54	1697.77
777.72	1771.49
777.90	1814.50
778.07	1703.91
778.25	1859.56
778.43	1742.82
778.60	1718.25
778.78	1785.83
778.96	1736.68
779.13	1677.29
779.31	1744.87
779.49	1746.92
779.66	1748.97
779.84	1730.53
780.01	1765.35
780.19	1699.81
780.37	1794.02
780.54	1751.01
780.72	1728.49
780.90	1705.96
781.07	1640.42
781.25	1671.14
781.43	1730.53
781.60	1800.16
781.78	1783.78
781.95	1697.77
782.13	1691.62
782.31	1685.48
782.48	1675.24
782.66	1652.71
782.83	1845.22
783.01	1693.67
783.19	1767.40
783.36	1679.33
783.54	1632.23
783.72	1771.49
783.89	1634.28
784.07	1783.78
784.24	1679.33
784.42	1683.43
784.60	1771.49
784.77	1671.14
784.95	1626.09
785.12	1701.86
785.30	1769.44
785.47	1714.15
785.65	1644.52
785.83	1695.72
786.00	1693.67
786.18	1740.77
786.35	1587.18
786.53	1599.46
786.71	1814.50
786.88	1726.44
787.06	1695.72
787.23	1708.01
787.41	1681.38
787.58	1677.29
787.76	1644.52
787.94	1722.34
788.11	1763.30
788.29	1658.85
788.46	1691.62
788.64	1669.09
788.81	1693.67
788.99	1695.72
789.16	1642.47
789.34	1675.24
789.52	1638.38
789.69	1753.06
789.87	1624.04
790.04	1683.43
790.22	1722.34
790.39	1845.22
790.57	1673.19
790.74	1626.09
790.92	1751.01
791.09	1605.61
791.27	1685.48
791.44	1818.60
791.62	1714.15
791.79	1800.16
791.97	1738.73
792.15	1984.48
792.32	1748.97
792.50	1710.05
792.67	1820.64
792.85	1779.68
793.02	1726.44
793.20	1654.76
793.37	1589.22
793.55	1656.81
793.72	1660.90
793.90	1796.07
794.07	1673.19
794.25	1662.95
794.42	1652.71
794.60	1673.19
794.77	1757.16
794.95	1748.97
795.12	1738.73
795.30	1691.62
795.47	1554.41
795.65	1826.79
795.82	1779.68
796.00	1675.24
796.17	1640.42
796.34	1697.77
796.52	1716.20
796.69	1738.73
796.87	1695.72
797.04	1685.48
797.22	1781.73
797.39	1681.38
797.57	1730.53
797.74	1767.40
797.92	1736.68
798.09	1679.33
798.27	1757.16
798.44	1714.15
798.62	1675.24
798.79	1683.43
798.96	1710.05
799.14	1675.24
799.31	1767.40
799.49	1769.44
799.66	1695.72
799.84	1753.06
800.01	1665.00
800.19	1732.58
800.36	1607.66
800.53	1669.09
800.71	1701.86
800.88	1787.88
801.06	1693.67
801.23	1708.01
801.41	1761.25
801.58	1619.94
801.75	1685.48
801.93	1683.43
802.10	1744.87
802.28	1626.09
802.45	1609.70
802.63	1800.16
802.80	1796.07
802.97	1718.25
803.15	1705.96
803.32	1642.47
803.50	1599.46
803.67	1665.00
803.84	1574.89
804.02	1665.00
804.19	1646.57
804.37	1572.84
804.54	1671.14
804.71	1720.29
804.89	1748.97
805.06	1665.00
805.24	1675.24
805.41	1613.80
805.58	1662.95
805.76	1859.56
805.93	1775.59
806.10	1804.26
806.28	1728.49
806.45	1671.14
806.63	1781.73
806.80	1685.48
806.97	1648.61
807.15	1810.40
807.32	1730.53
807.49	1755.11
807.67	1578.98
807.84	1763.30
808.01	1644.52
808.19	1818.60
808.36	1845.22
808.54	1636.33
808.71	1671.14
808.88	1677.29
809.06	1746.92
809.23	1798.12
809.40	1669.09
809.58	1755.11
809.75	1722.34
809.92	1624.04
810.10	1824.74
810.27	1691.62
810.44	1699.81
810.62	1773.54
810.79	1744.87
810.96	1679.33
811.14	1708.01
811.31	1714.15
811.48	1748.97
811.66	1687.53
811.83	1841.12
812.00	1791.97
812.18	1703.91
812.35	1869.80
812.52	1685.48
812.69	1630.18
812.87	1679.33
813.04	1718.25
813.21	1718.25
813.39	1669.09
813.56	1648.61
813.73	1759.21
813.91	1714.15
814.08	1775.59
814.25	1718.25
814.42	1628.14
814.60	1701.86
814.77	1755.11
814.94	1685.48
815.12	1710.05
815.29	1820.64
815.46	1667.05
815.63	1738.73
815.81	1734.63
815.98	1699.81
816.15	1656.81
816.33	1736.68
816.50	1744.87
816.67	1734.63
816.84	1697.77
817.02	1636.33
817.19	1687.53
817.36	1722.34
817.53	1701.86
817.71	1662.95
817.88	1769.44
818.05	1671.14
818.22	1740.77
818.40	1857.51
818.57	1744.87
818.74	1730.53
818.91	1708.01
819.09	1646.57
819.26	1748.97
819.43	1638.38
819.60	1656.81
819.78	1691.62
819.95	1837.03
820.12	1609.70
820.29	1751.01
820.47	1738.73
820.64	1634.28
820.81	1691.62
820.98	1673.19
821.15	1691.62
821.33	1730.53
821.50	1609.70
821.67	1720.29
821.84	1712.10
822.02	1722.34
822.19	1736.68
822.36	1708.01
822.53	1677.29
822.70	1724.39
822.88	1736.68
823.05	1777.64
823.22	1705.96
823.39	1796.07
823.56	1660.90
823.74	1812.45
823.91	1646.57
824.08	1685.48
824.25	1583.08
824.42	1789.92
824.60	1578.98
824.77	1699.81
824.94	1730.53
825.11	1757.16
825.28	1552.36
825.45	1697.77
825.63	1736.68
825.80	1689.57
825.97	1761.25
826.14	1687.53
826.31	1656.81
826.48	1759.21
826.66	1658.85
826.83	1718.25
827.00	1720.29
827.17	1673.19
827.34	1714.15
827.51	1691.62
827.69	1728.49
827.86	1638.38
828.03	1730.53
828.20	1720.29
828.37	1683.43
828.54	1724.39
828.71	1642.47
828.89	1785.83
829.06	1675.24
829.23	1841.12
829.40	1693.67
829.57	1728.49
829.74	1812.45
829.91	1701.86
830.09	1671.14
830.26	1751.01
830.43	1755.11
830.60	1667.05
830.77	1744.87
830.94	1800.16
831.11	1753.06
831.28	1685.48
831.46	1800.16
831.63	1710.05
831.80	1673.19
831.97	1708.01
832.14	1673.19
832.31	1849.32
832.48	1699.81
832.65	1691.62
832.82	1699.81
832.99	1708.01
833.17	1615.85
833.34	1761.25
833.51	1812.45
833.68	1636.33
833.85	1759.21
834.02	1630.18
834.19	1650.66
834.36	1734.63
834.53	1714.15
834.70	1726.44
834.87	1724.39
835.04	1675.24
835.22	1662.95
835.39	1701.86
835.56	1701.86
835.73	1712.10
835.90	1769.44
836.07	1660.90
836.24	1732.58
836.41	1648.61
836.58	1681.38
836.75	1804.26
836.92	1669.09
837.09	1681.38
837.26	1716.20
837.43	1691.62
837.60	1714.15
837.77	1718.25
837.94	1712.10
838.12	1732.58
838.29	1738.73
838.46	1615.85
838.63	1665.00
838.80	1728.49
838.97	1761.25
839.14	1679.33
839.31	1693.67
839.48	1751.01
839.65	1701.86
839.82	1798.12
839.99	1736.68
840.16	1769.44
840.33	1634.28
840.50	1761.25
840.67	1691.62
840.84	1644.52
841.01	1679.33
841.18	1665.00
841.35	1667.05
841.52	1734.63
841.69	1886.18
841.86	1710.05
842.03	1714.15
842.20	1746.92
842.37	1699.81
842.54	1689.57
842.71	1718.25
842.88	1624.04
843.05	1742.82
843.22	1685.48
843.39	1677.29
843.56	1654.76
843.73	1689.57
843.90	1728.49
844.07	1646.57
844.24	1800.16
844.41	1759.21
844.58	1732.58
844.75	1697.77
844.92	1738.73
845.09	1730.53
845.26	1689.57
845.43	1687.53
845.60	1701.86
845.77	1769.44
845.94	1693.67
846.10	1730.53
846.27	1611.75
846.44	1722.34
846.61	1587.18
846.78	1708.01
846.95	1787.88
847.12	1621.99
847.29	1583.08
847.46	1621.99
847.63	1642.47
847.80	1705.96
847.97	1652.71
848.14	1736.68
848.31	1650.66
848.48	1556.46
848.65	1701.86
848.82	1626.09
848.98	1886.18
849.15	1789.92
849.32	1769.44
849.49	1777.64
849.66	1660.90
849.83	1753.06
850.00	1626.09
850.17	1798.12
850.34	1656.81
850.51	1654.76
850.68	1705.96
850.85	1832.93
851.01	1734.63
851.18	1748.97
851.35	1753.06
851.52	1687.53
851.69	1751.01
851.86	1613.80
852.03	1685.48
852.20	1718.25
852.37	1599.46
852.53	1617.90
852.70	1646.57
852.87	1761.25
853.04	1724.39
853.21	1746.92
853.38	1656.81
853.55	1767.40
853.72	1789.92
853.89	1656.81
854.05	1587.18
854.22	1712.10
854.39	1689.57
854.56	1748.97
854.73	1816.55
854.90	1636.33
855.07	1728.49
855.23	1671.14
855.40	1632.23
855.57	1621.99
855.74	1538.02
855.91	1890.28
856.08	1632.23
856.25	1634.28
856.41	1705.96
856.58	1615.85
856.75	1687.53
856.92	1705.96
857.09	1699.81
857.26	1542.12
857.42	1689.57
857.59	1751.01
857.76	1687.53
857.93	1701.86
858.10	1693.67
858.27	1677.29
858.43	1701.86
858.60	1697.77
858.77	1650.66
858.94	1611.75
859.11	1775.59
859.27	1679.33
859.44	1677.29
859.61	1757.16
859.78	1746.92
859.95	1679.33
860.12	1646.57
860.28	1806.31
860.45	1818.60
860.62	1669.09
860.79	1718.25
860.95	1681.38
861.12	1648.61
861.29	1658.85
861.46	1736.68
861.63	1740.77
861.79	1671.14
861.96	1701.86
862.13	1714.15
862.30	1794.02
862.47	1710.05
862.63	1646.57
862.80	1800.16
862.97	1718.25
863.14	1714.15
863.30	1753.06
863.47	1683.43
863.64	1796.07
863.81	1712.10
863.97	1652.71
864.14	1730.53
864.31	1681.38
864.48	1742.82
864.65	1687.53
864.81	1775.59
864.98	1738.73
865.15	1738.73
865.32	1744.87
865.48	1722.34
865.65	1751.01
865.82	1789.92
865.98	1726.44
866.15	1781.73
866.32	1667.05
866.49	1730.53
866.65	1779.68
866.82	1652.71
866.99	1705.96
867.16	1697.77
867.32	1714.15
867.49	1681.38
867.66	1689.57
867.83	1685.48
867.99	1574.89
868.16	1669.09
868.33	1708.01
868.49	1730.53
868.66	1708.01
868.83	1791.97
868.99	1703.91
869.16	1748.97
869.33	1800.16
869.50	1779.68
869.66	1732.58
869.83	1718.25
870.00	1689.57
870.16	1705.96
870.33	1710.05
870.50	1689.57
870.66	1708.01
870.83	1804.26
871.00	1783.78
871.17	1736.68
871.33	1716.20
871.50	1710.05
871.67	1708.01
871.83	1697.77
872.00	1771.49
872.17	1660.90
872.33	1730.53
872.50	1773.54
872.67	1695.72
872.83	1662.95
873.00	1701.86
873.17	1695.72
873.33	1724.39
873.50	1781.73
873.67	1607.66
873.83	1708.01
874.00	1681.38
874.16	1789.92
874.33	1693.67
874.50	1597.42
874.66	1771.49
874.83	1787.88
875.00	1767.40
875.16	1730.53
875.33	1794.02
875.50	1599.46
875.66	1656.81
875.83	1789.92
875.99	1767.40
876.16	1658.85
876.33	1644.52
876.49	1814.50
876.66	1787.88
876.83	1652.71
876.99	1628.14
877.16	1705.96
877.32	1757.16
877.49	1662.95
877.66	1630.18
877.82	1767.40
877.99	1753.06
878.15	1787.88
878.32	1701.86
878.49	1755.11
878.65	1761.25
878.82	1769.44
878.98	1634.28
879.15	1736.68
879.32	1832.93
879.48	1775.59
879.65	1656.81
879.81	1689.57
879.98	1718.25
880.15	1744.87
880.31	1722.34
880.48	1658.85
880.64	1779.68
880.81	1751.01
880.97	1912.80
881.14	1791.97
881.31	1652.71
881.47	1744.87
881.64	1654.76
881.80	1667.05
881.97	1753.06
882.13	1832.93
882.30	1701.86
882.47	1665.00
882.63	1662.95
882.80	1646.57
882.96	1654.76
883.13	1714.15
883.29	1699.81
883.46	1798.12
883.62	1781.73
883.79	1734.63
883.95	1699.81
884.12	1763.30
884.29	1740.77
884.45	1687.53
884.62	1763.30
884.78	1685.48
884.95	1779.68
885.11	1714.15
885.28	1695.72
885.44	1650.66
885.61	1697.77
885.77	1736.68
885.94	1742.82
886.10	1755.11
886.27	1638.38
886.43	1679.33
886.60	1697.77
886.76	1746.92
886.93	1597.42
887.09	1726.44
887.26	1601.51
887.42	1748.97
887.59	1732.58
887.75	1847.27
887.92	1826.79
888.08	1685.48
888.25	1796.07
888.41	1832.93
888.58	1691.62
888.74	1667.05
888.91	1693.67
>>>>>End Processed Spectral Data<<<<<
