SpectraSuite Data File
++++++++++++++++++++++++++++++++++++
Date: Mon Jun 06 16:51:37 CEST 2016
User: root
Dark Spectrum Present: No
Reference Spectrum Present: No
Number of Sampled Component Spectra: 1
Spectrometers: USB4C02835
Integration Time (usec): 100000 (USB4C02835)
Spectra Averaged: 1 (USB4C02835)
Boxcar Smoothing: 0 (USB4C02835)
Correct for Electrical Dark: No (USB4C02835)
Strobe/Lamp Enabled: No (USB4C02835)
Correct for Detector Non-linearity: No (USB4C02835)
Correct for Stray Light: No (USB4C02835)
Number of Pixels in Processed Spectrum: 3648
>>>>>Begin Processed Spectral Data<<<<<
177.47	1492.97
177.69	1492.97
177.91	1492.97
178.13	1482.73
178.36	1437.67
178.58	1705.96
178.80	1705.96
179.02	1644.52
179.24	1687.53
179.46	1662.95
179.68	1779.68
179.90	1658.85
180.13	1613.80
180.35	1708.01
180.57	1652.71
180.79	1765.35
181.01	1726.44
181.23	1822.69
181.45	1818.60
181.67	1646.57
181.90	1763.30
182.12	1660.90
182.34	1626.09
182.56	1685.48
182.78	1808.36
183.00	1652.71
183.22	1636.33
183.44	1634.28
183.66	1857.51
183.89	1755.11
184.11	1708.01
184.33	1697.77
184.55	1761.25
184.77	1716.20
184.99	1740.77
185.21	1689.57
185.43	1902.56
185.65	1728.49
185.87	1783.78
186.10	1828.84
186.32	1869.80
186.54	1757.16
186.76	1740.77
186.98	1759.21
187.20	1716.20
187.42	1740.77
187.64	1697.77
187.86	1779.68
188.08	1687.53
188.30	1679.33
188.52	1755.11
188.75	1724.39
188.97	1726.44
189.19	1697.77
189.41	1710.05
189.63	1748.97
189.85	1736.68
190.07	1636.33
190.29	1673.19
190.51	1673.19
190.73	1652.71
190.95	1804.26
191.17	1710.05
191.39	1667.05
191.61	1615.85
191.84	1662.95
192.06	1753.06
192.28	1583.08
192.50	1890.28
192.72	1695.72
192.94	1695.72
193.16	1755.11
193.38	1773.54
193.60	1632.23
193.82	1683.43
194.04	1755.11
194.26	1693.67
194.48	1689.57
194.70	1611.75
194.92	1638.38
195.14	1767.40
195.36	1679.33
195.58	1710.05
195.80	1722.34
196.02	1734.63
196.24	1685.48
196.46	1787.88
196.69	1726.44
196.91	1927.14
197.13	1585.13
197.35	1771.49
197.57	1857.51
197.79	1787.88
198.01	1800.16
198.23	1740.77
198.45	1753.06
198.67	1615.85
198.89	1742.82
199.11	1771.49
199.33	1695.72
199.55	1613.80
199.77	1652.71
199.99	1851.36
200.21	1652.71
200.43	1656.81
200.65	1640.42
200.87	1566.70
201.09	1691.62
201.31	1697.77
201.53	1742.82
201.75	1658.85
201.97	1683.43
202.19	1708.01
202.41	1697.77
202.63	1845.22
202.85	1771.49
203.07	1763.30
203.29	1769.44
203.51	1619.94
203.73	1593.32
203.95	1824.74
204.17	1712.10
204.39	1701.86
204.61	1697.77
204.83	1675.24
205.05	1748.97
205.27	1798.12
205.49	1853.41
205.71	1753.06
205.93	1597.42
206.15	1679.33
206.37	1660.90
206.59	1708.01
206.81	1626.09
207.03	1699.81
207.25	1662.95
207.47	1710.05
207.69	1667.05
207.91	1851.36
208.13	1757.16
208.34	1693.67
208.56	1734.63
208.78	1771.49
209.00	1705.96
209.22	1687.53
209.44	1705.96
209.66	1673.19
209.88	1742.82
210.10	1703.91
210.32	1644.52
210.54	1804.26
210.76	1763.30
210.98	1689.57
211.20	1619.94
211.42	1746.92
211.64	1796.07
211.86	1738.73
212.08	1736.68
212.30	1787.88
212.52	1667.05
212.74	1691.62
212.96	1679.33
213.17	1808.36
213.39	1767.40
213.61	1855.46
213.83	1646.57
214.05	1662.95
214.27	1804.26
214.49	1683.43
214.71	1630.18
214.93	1771.49
215.15	1720.29
215.37	1796.07
215.59	1613.80
215.81	1734.63
216.03	1775.59
216.24	1767.40
216.46	1732.58
216.68	1708.01
216.90	1744.87
217.12	1685.48
217.34	1675.24
217.56	1667.05
217.78	1746.92
218.00	1660.90
218.22	1775.59
218.44	1693.67
218.66	1734.63
218.87	1837.03
219.09	1720.29
219.31	1724.39
219.53	1644.52
219.75	1685.48
219.97	1667.05
220.19	1720.29
220.41	1703.91
220.63	1800.16
220.85	1798.12
221.06	1675.24
221.28	1757.16
221.50	1728.49
221.72	1740.77
221.94	1712.10
222.16	1632.23
222.38	1675.24
222.60	1824.74
222.82	1685.48
223.03	1816.55
223.25	1634.28
223.47	1753.06
223.69	1808.36
223.91	1716.20
224.13	1730.53
224.35	1716.20
224.57	1847.27
224.78	1800.16
225.00	1650.66
225.22	1669.09
225.44	1779.68
225.66	1724.39
225.88	1673.19
226.10	1710.05
226.32	1714.15
226.53	1847.27
226.75	1671.14
226.97	1687.53
227.19	1722.34
227.41	1621.99
227.63	1617.90
227.85	1658.85
228.06	1710.05
228.28	1751.01
228.50	1769.44
228.72	1660.90
228.94	1677.29
229.16	1648.61
229.37	1662.95
229.59	1685.48
229.81	1814.50
230.03	1771.49
230.25	1675.24
230.47	1675.24
230.69	1632.23
230.90	1740.77
231.12	1683.43
231.34	1712.10
231.56	1787.88
231.78	1775.59
232.00	1732.58
232.21	1632.23
232.43	1738.73
232.65	1601.51
232.87	1802.21
233.09	1658.85
233.30	1693.67
233.52	1798.12
233.74	1744.87
233.96	1683.43
234.18	1705.96
234.40	1687.53
234.61	1785.83
234.83	1656.81
235.05	1665.00
235.27	1898.47
235.49	1853.41
235.70	1683.43
235.92	1732.58
236.14	1703.91
236.36	1769.44
236.58	1654.76
236.79	1751.01
237.01	1705.96
237.23	1724.39
237.45	1816.55
237.67	1679.33
237.88	1675.24
238.10	1863.65
238.32	1646.57
238.54	1714.15
238.76	1691.62
238.97	1691.62
239.19	1705.96
239.41	1785.83
239.63	1808.36
239.85	1714.15
240.06	1714.15
240.28	1755.11
240.50	1769.44
240.72	1757.16
240.93	1665.00
241.15	1705.96
241.37	1730.53
241.59	1705.96
241.81	1773.54
242.02	1714.15
242.24	1675.24
242.46	1769.44
242.68	1681.38
242.89	1761.25
243.11	1687.53
243.33	1691.62
243.55	1761.25
243.76	1777.64
243.98	1693.67
244.20	1705.96
244.42	1646.57
244.64	1671.14
244.85	1685.48
245.07	1667.05
245.29	1714.15
245.51	1753.06
245.72	1716.20
245.94	1794.02
246.16	1648.61
246.38	1736.68
246.59	1687.53
246.81	1683.43
247.03	1642.47
247.24	1662.95
247.46	1677.29
247.68	1701.86
247.90	1679.33
248.11	1718.25
248.33	1710.05
248.55	1667.05
248.77	1736.68
248.98	1761.25
249.20	1765.35
249.42	1732.58
249.64	1808.36
249.85	1714.15
250.07	1734.63
250.29	1781.73
250.50	1771.49
250.72	1632.23
250.94	1730.53
251.16	1886.18
251.37	1679.33
251.59	1771.49
251.81	1771.49
252.02	1779.68
252.24	1617.90
252.46	1812.45
252.68	1691.62
252.89	1705.96
253.11	1587.18
253.33	1851.36
253.54	1783.78
253.76	1599.46
253.98	1736.68
254.20	1693.67
254.41	1671.14
254.63	1771.49
254.85	1699.81
255.06	1648.61
255.28	1728.49
255.50	1738.73
255.71	1665.00
255.93	1648.61
256.15	1673.19
256.36	1705.96
256.58	1665.00
256.80	1771.49
257.02	1695.72
257.23	1716.20
257.45	1710.05
257.67	1812.45
257.88	1671.14
258.10	1677.29
258.32	1681.38
258.53	1716.20
258.75	1810.40
258.97	1697.77
259.18	1710.05
259.40	1720.29
259.62	1798.12
259.83	1746.92
260.05	1742.82
260.27	1976.29
260.48	1769.44
260.70	1587.18
260.92	1658.85
261.13	1744.87
261.35	1640.42
261.57	1757.16
261.78	1611.75
262.00	1591.27
262.22	1800.16
262.43	1587.18
262.65	1671.14
262.86	1685.48
263.08	1812.45
263.30	1746.92
263.51	1587.18
263.73	1708.01
263.95	1873.89
264.16	1660.90
264.38	1724.39
264.60	1730.53
264.81	1736.68
265.03	1800.16
265.25	1734.63
265.46	1669.09
265.68	1763.30
265.89	1738.73
266.11	1726.44
266.33	1730.53
266.54	1787.88
266.76	1681.38
266.98	1748.97
267.19	1849.32
267.41	1765.35
267.62	1718.25
267.84	1591.27
268.06	1710.05
268.27	1722.34
268.49	1794.02
268.70	1839.08
268.92	1656.81
269.14	1568.74
269.35	1595.37
269.57	1697.77
269.79	1771.49
270.00	1609.70
270.22	1771.49
270.43	1689.57
270.65	1548.26
270.87	1734.63
271.08	1742.82
271.30	1716.20
271.51	1671.14
271.73	1755.11
271.95	1773.54
272.16	1693.67
272.38	1720.29
272.59	1732.58
272.81	1730.53
273.02	1691.62
273.24	1751.01
273.46	1779.68
273.67	1681.38
273.89	1730.53
274.10	1677.29
274.32	1703.91
274.54	1697.77
274.75	1703.91
274.97	1660.90
275.18	1708.01
275.40	1726.44
275.61	1673.19
275.83	1685.48
276.05	1632.23
276.26	1656.81
276.48	1779.68
276.69	1630.18
276.91	1640.42
277.12	1796.07
277.34	1718.25
277.55	1789.92
277.77	1650.66
277.99	1695.72
278.20	1697.77
278.42	1650.66
278.63	1583.08
278.85	1654.76
279.06	1595.37
279.28	1773.54
279.49	1693.67
279.71	1689.57
279.93	1755.11
280.14	1685.48
280.36	1679.33
280.57	1769.44
280.79	1777.64
281.00	1734.63
281.22	1722.34
281.43	1763.30
281.65	1589.22
281.86	1656.81
282.08	1767.40
282.29	1859.56
282.51	1695.72
282.73	1720.29
282.94	1611.75
283.16	1654.76
283.37	1853.41
283.59	1718.25
283.80	1738.73
284.02	1652.71
284.23	1761.25
284.45	1679.33
284.66	1685.48
284.88	1689.57
285.09	1773.54
285.31	1763.30
285.52	1757.16
285.74	1640.42
285.95	1787.88
286.17	1759.21
286.38	1681.38
286.60	1671.14
286.81	1617.90
287.03	1728.49
287.24	1701.86
287.46	1787.88
287.67	1667.05
287.89	1808.36
288.10	1669.09
288.32	1734.63
288.53	1783.78
288.75	1685.48
288.96	1734.63
289.18	1705.96
289.39	1720.29
289.61	1798.12
289.82	1841.12
290.04	1818.60
290.25	1628.14
290.47	1677.29
290.68	1624.04
290.90	1779.68
291.11	1648.61
291.33	1705.96
291.54	1660.90
291.76	1685.48
291.97	1775.59
292.18	1748.97
292.40	1669.09
292.61	1640.42
292.83	1783.78
293.04	1689.57
293.26	1701.86
293.47	1693.67
293.69	1695.72
293.90	1710.05
294.12	1785.83
294.33	1708.01
294.55	1734.63
294.76	1771.49
294.97	1740.77
295.19	1822.69
295.40	1656.81
295.62	1689.57
295.83	1744.87
296.05	1585.13
296.26	1767.40
296.48	1673.19
296.69	1652.71
296.90	1658.85
297.12	1804.26
297.33	1779.68
297.55	1742.82
297.76	1753.06
297.98	1687.53
298.19	1699.81
298.41	1734.63
298.62	1730.53
298.83	1816.55
299.05	1701.86
299.26	1683.43
299.48	1675.24
299.69	1660.90
299.90	1732.58
300.12	1671.14
300.33	1718.25
300.55	1724.39
300.76	1753.06
300.98	1703.91
301.19	1816.55
301.40	1691.62
301.62	1626.09
301.83	1687.53
302.05	1671.14
302.26	1683.43
302.47	1789.92
302.69	1685.48
302.90	1757.16
303.12	1585.13
303.33	1732.58
303.54	1800.16
303.76	1730.53
303.97	1654.76
304.19	1722.34
304.40	1703.91
304.61	1726.44
304.83	1777.64
305.04	1794.02
305.26	1746.92
305.47	1640.42
305.68	1765.35
305.90	1640.42
306.11	1781.73
306.33	1705.96
306.54	1689.57
306.75	1640.42
306.97	1734.63
307.18	1636.33
307.39	1675.24
307.61	1687.53
307.82	1689.57
308.04	1734.63
308.25	1720.29
308.46	1724.39
308.68	1642.47
308.89	1732.58
309.10	1789.92
309.32	1736.68
309.53	1763.30
309.74	1705.96
309.96	1687.53
310.17	1787.88
310.39	1638.38
310.60	1718.25
310.81	1751.01
311.03	1591.27
311.24	1714.15
311.45	1761.25
311.67	1806.31
311.88	1767.40
312.09	1718.25
312.31	1648.61
312.52	1630.18
312.73	1671.14
312.95	1695.72
313.16	1724.39
313.37	1716.20
313.59	1763.30
313.80	1765.35
314.01	1853.41
314.23	1673.19
314.44	1677.29
314.65	1585.13
314.87	1689.57
315.08	1716.20
315.29	1652.71
315.51	1538.02
315.72	1544.17
315.93	1857.51
316.15	1710.05
316.36	1648.61
316.57	1662.95
316.79	1783.78
317.00	1636.33
317.21	1734.63
317.43	1578.98
317.64	1677.29
317.85	1685.48
318.07	1671.14
318.28	1658.85
318.49	1884.13
318.70	1929.19
318.92	1787.88
319.13	1853.41
319.34	1896.42
319.56	1824.74
319.77	1742.82
319.98	1757.16
320.20	1818.60
320.41	1730.53
320.62	1746.92
320.83	1683.43
321.05	1882.08
321.26	1841.12
321.47	1763.30
321.69	1779.68
321.90	1628.14
322.11	1746.92
322.32	1724.39
322.54	1804.26
322.75	1695.72
322.96	1824.74
323.18	1636.33
323.39	1697.77
323.60	1632.23
323.81	1763.30
324.03	1757.16
324.24	1703.91
324.45	1662.95
324.66	1650.66
324.88	1763.30
325.09	1796.07
325.30	1744.87
325.52	1755.11
325.73	1734.63
325.94	1703.91
326.15	1638.38
326.37	1697.77
326.58	1728.49
326.79	1789.92
327.00	1718.25
327.22	1746.92
327.43	1658.85
327.64	1617.90
327.85	1742.82
328.07	1744.87
328.28	1787.88
328.49	1726.44
328.70	1738.73
328.92	1767.40
329.13	1714.15
329.34	1714.15
329.55	1791.97
329.76	1775.59
329.98	1673.19
330.19	1839.08
330.40	1724.39
330.61	1714.15
330.83	1708.01
331.04	1722.34
331.25	1699.81
331.46	1722.34
331.68	1730.53
331.89	1767.40
332.10	1720.29
332.31	1642.47
332.52	1693.67
332.74	1787.88
332.95	1624.04
333.16	1714.15
333.37	1757.16
333.58	1689.57
333.80	1761.25
334.01	1689.57
334.22	1671.14
334.43	1619.94
334.64	1746.92
334.86	1642.47
335.07	1667.05
335.28	1794.02
335.49	1669.09
335.70	1667.05
335.92	1773.54
336.13	1832.93
336.34	1714.15
336.55	1714.15
336.76	1740.77
336.98	1533.93
337.19	1722.34
337.40	1740.77
337.61	1738.73
337.82	1705.96
338.04	1689.57
338.25	1728.49
338.46	1734.63
338.67	1697.77
338.88	1681.38
339.09	1652.71
339.31	1675.24
339.52	1689.57
339.73	1634.28
339.94	1683.43
340.15	1677.29
340.36	1718.25
340.58	1656.81
340.79	1626.09
341.00	1681.38
341.21	1689.57
341.42	1787.88
341.63	1755.11
341.85	1746.92
342.06	1701.86
342.27	1654.76
342.48	1751.01
342.69	1619.94
342.90	1738.73
343.12	1699.81
343.33	1630.18
343.54	1763.30
343.75	1789.92
343.96	1734.63
344.17	1640.42
344.38	1669.09
344.60	1617.90
344.81	1576.94
345.02	1703.91
345.23	1720.29
345.44	1839.08
345.65	1767.40
345.86	1691.62
346.07	1705.96
346.29	1660.90
346.50	1751.01
346.71	1748.97
346.92	1857.51
347.13	1873.89
347.34	1740.77
347.55	1710.05
347.76	1736.68
347.98	1673.19
348.19	1673.19
348.40	1832.93
348.61	1675.24
348.82	1748.97
349.03	1800.16
349.24	1695.72
349.45	1828.84
349.66	1718.25
349.88	1710.05
350.09	1683.43
350.30	1757.16
350.51	1746.92
350.72	1746.92
350.93	1705.96
351.14	1638.38
351.35	1708.01
351.56	1665.00
351.77	1648.61
351.99	1689.57
352.20	1724.39
352.41	1787.88
352.62	1583.08
352.83	1677.29
353.04	1658.85
353.25	1634.28
353.46	1787.88
353.67	1712.10
353.88	1640.42
354.09	1722.34
354.30	1761.25
354.52	1744.87
354.73	1794.02
354.94	1654.76
355.15	1695.72
355.36	1845.22
355.57	1650.66
355.78	1724.39
355.99	1632.23
356.20	1761.25
356.41	1783.78
356.62	1726.44
356.83	1761.25
357.04	1787.88
357.25	1605.61
357.46	1679.33
357.68	1599.46
357.89	1603.56
358.10	1685.48
358.31	1730.53
358.52	1726.44
358.73	1662.95
358.94	1634.28
359.15	1662.95
359.36	1732.58
359.57	1714.15
359.78	1689.57
359.99	1755.11
360.20	1742.82
360.41	1732.58
360.62	1748.97
360.83	1689.57
361.04	1685.48
361.25	1810.40
361.46	1802.21
361.67	1785.83
361.88	1712.10
362.09	1785.83
362.30	1724.39
362.51	1724.39
362.72	1742.82
362.93	1791.97
363.14	1738.73
363.35	1720.29
363.56	1685.48
363.78	1755.11
363.99	1740.77
364.20	1648.61
364.41	1716.20
364.62	1806.31
364.83	1689.57
365.04	1673.19
365.25	1742.82
365.46	1830.88
365.67	1673.19
365.88	1697.77
366.09	1771.49
366.30	1662.95
366.51	1712.10
366.72	1681.38
366.93	1705.96
367.14	1775.59
367.35	1771.49
367.56	1679.33
367.77	1810.40
367.98	1648.61
368.18	1773.54
368.39	1679.33
368.60	1621.99
368.81	1742.82
369.02	1736.68
369.23	1646.57
369.44	1703.91
369.65	1689.57
369.86	1724.39
370.07	1763.30
370.28	1628.14
370.49	1714.15
370.70	1763.30
370.91	1624.04
371.12	1642.47
371.33	1775.59
371.54	1677.29
371.75	1800.16
371.96	1583.08
372.17	1665.00
372.38	1738.73
372.59	1755.11
372.80	1726.44
373.01	1714.15
373.22	1759.21
373.43	1718.25
373.64	1630.18
373.85	1832.93
374.06	1791.97
374.26	1708.01
374.47	1761.25
374.68	1837.03
374.89	1789.92
375.10	1710.05
375.31	1789.92
375.52	1624.04
375.73	1730.53
375.94	1662.95
376.15	1820.64
376.36	1632.23
376.57	1613.80
376.78	1730.53
376.99	1751.01
377.20	1763.30
377.40	1660.90
377.61	1798.12
377.82	1601.51
378.03	1779.68
378.24	1681.38
378.45	1718.25
378.66	1699.81
378.87	1673.19
379.08	1574.89
379.29	1677.29
379.50	1755.11
379.71	1689.57
379.91	1810.40
380.12	1710.05
380.33	1755.11
380.54	1644.52
380.75	1603.56
380.96	1730.53
381.17	1783.78
381.38	1736.68
381.59	1718.25
381.80	1755.11
382.00	1834.98
382.21	1757.16
382.42	1828.84
382.63	1832.93
382.84	1826.79
383.05	1806.31
383.26	1777.64
383.47	1689.57
383.68	1785.83
383.88	1791.97
384.09	1765.35
384.30	1828.84
384.51	1652.71
384.72	1705.96
384.93	1701.86
385.14	1691.62
385.35	1734.63
385.55	1628.14
385.76	1796.07
385.97	1697.77
386.18	1710.05
386.39	1677.29
386.60	1619.94
386.81	1742.82
387.02	1697.77
387.22	1626.09
387.43	1759.21
387.64	1853.41
387.85	1873.89
388.06	2254.81
388.27	4179.90
388.48	6563.74
388.68	8163.20
388.89	9619.31
389.10	10086.25
389.31	8468.35
389.52	7362.45
389.73	6688.67
389.93	6219.68
390.14	5826.47
390.35	5267.38
390.56	4511.68
390.77	3758.02
390.98	2961.36
391.18	2457.56
391.39	2109.41
391.60	1830.88
391.81	1861.60
392.02	1693.67
392.23	1837.03
392.43	1751.01
392.64	1818.60
392.85	1712.10
393.06	1830.88
393.27	1771.49
393.47	1705.96
393.68	1771.49
393.89	1728.49
394.10	1796.07
394.31	1695.72
394.52	1646.57
394.72	1693.67
394.93	1886.18
395.14	1648.61
395.35	1691.62
395.56	1648.61
395.76	1665.00
395.97	1832.93
396.18	1855.46
396.39	1886.18
396.60	2076.64
396.80	1869.80
397.01	1882.08
397.22	1767.40
397.43	1839.08
397.64	1695.72
397.84	1808.36
398.05	1826.79
398.26	1785.83
398.47	1732.58
398.67	1785.83
398.88	1730.53
399.09	1751.01
399.30	1718.25
399.51	1775.59
399.71	1718.25
399.92	1761.25
400.13	1705.96
400.34	1716.20
400.54	1671.14
400.75	1816.55
400.96	1734.63
401.17	1763.30
401.37	1683.43
401.58	1759.21
401.79	1722.34
402.00	1859.56
402.21	2029.54
402.41	1984.48
402.62	2021.35
402.83	2037.73
403.04	2074.59
403.24	2090.98
403.45	1834.98
403.66	1927.14
403.87	1906.66
404.07	1869.80
404.28	1939.43
404.49	1867.75
404.70	1787.88
404.90	1773.54
405.11	1759.21
405.32	1669.09
405.52	1665.00
405.73	1611.75
405.94	1740.77
406.15	1759.21
406.35	1769.44
406.56	1718.25
406.77	1728.49
406.98	1683.43
407.18	1667.05
407.39	1783.78
407.60	1667.05
407.80	1724.39
408.01	1728.49
408.22	1673.19
408.43	1697.77
408.63	1804.26
408.84	1730.53
409.05	1787.88
409.25	1632.23
409.46	1693.67
409.67	1626.09
409.88	1728.49
410.08	1742.82
410.29	1740.77
410.50	1705.96
410.70	1742.82
410.91	1687.53
411.12	1705.96
411.32	1773.54
411.53	1781.73
411.74	1877.99
411.95	1777.64
412.15	1812.45
412.36	1822.69
412.57	1759.21
412.77	1771.49
412.98	1834.98
413.19	1773.54
413.39	1785.83
413.60	1789.92
413.81	1744.87
414.01	1689.57
414.22	1730.53
414.43	1787.88
414.63	1708.01
414.84	1695.72
415.05	1708.01
415.25	1621.99
415.46	1767.40
415.67	1705.96
415.87	1710.05
416.08	1681.38
416.29	1621.99
416.49	1757.16
416.70	1761.25
416.91	1681.38
417.11	1665.00
417.32	1738.73
417.53	1751.01
417.73	1697.77
417.94	1724.39
418.15	1746.92
418.35	1665.00
418.56	1679.33
418.77	1900.52
418.97	1679.33
419.18	1751.01
419.38	1587.18
419.59	1724.39
419.80	1708.01
420.00	1744.87
420.21	1751.01
420.42	1777.64
420.62	1763.30
420.83	1634.28
421.04	1708.01
421.24	1621.99
421.45	1816.55
421.65	1734.63
421.86	1689.57
422.07	1689.57
422.27	1763.30
422.48	1740.77
422.69	1648.61
422.89	1685.48
423.10	1693.67
423.30	1681.38
423.51	1777.64
423.72	1720.29
423.92	1771.49
424.13	1624.04
424.33	1757.16
424.54	1724.39
424.75	1751.01
424.95	1806.31
425.16	1787.88
425.36	1685.48
425.57	1832.93
425.78	1708.01
425.98	1800.16
426.19	1665.00
426.39	1697.77
426.60	1714.15
426.81	1804.26
427.01	1673.19
427.22	1671.14
427.42	1665.00
427.63	1665.00
427.83	1683.43
428.04	1718.25
428.25	1812.45
428.45	1753.06
428.66	1779.68
428.86	1689.57
429.07	1703.91
429.28	1656.81
429.48	1669.09
429.69	1615.85
429.89	1712.10
430.10	1644.52
430.30	1712.10
430.51	1777.64
430.71	1691.62
430.92	1732.58
431.13	1669.09
431.33	1730.53
431.54	1738.73
431.74	1800.16
431.95	1916.90
432.15	1656.81
432.36	1791.97
432.56	1689.57
432.77	1839.08
432.98	1744.87
433.18	1742.82
433.39	1705.96
433.59	1724.39
433.80	1791.97
434.00	1882.08
434.21	1708.01
434.41	1705.96
434.62	1841.12
434.82	1699.81
435.03	1665.00
435.23	1757.16
435.44	1677.29
435.64	1728.49
435.85	1755.11
436.06	1800.16
436.26	1744.87
436.47	1646.57
436.67	1695.72
436.88	1687.53
437.08	1773.54
437.29	1857.51
437.49	1812.45
437.70	1826.79
437.90	1796.07
438.11	1918.95
438.31	1800.16
438.52	1859.56
438.72	1877.99
438.93	1941.47
439.13	1804.26
439.34	1853.41
439.54	1708.01
439.75	1896.42
439.95	1894.37
440.16	1755.11
440.36	1755.11
440.57	1859.56
440.77	1871.84
440.98	1722.34
441.18	1755.11
441.39	1689.57
441.59	1644.52
441.80	1904.61
442.00	1759.21
442.21	1773.54
442.41	1697.77
442.62	1777.64
442.82	1705.96
443.02	1837.03
443.23	1808.36
443.43	1667.05
443.64	1722.34
443.84	1675.24
444.05	1822.69
444.25	1695.72
444.46	1746.92
444.66	1736.68
444.87	1824.74
445.07	1683.43
445.28	1806.31
445.48	1834.98
445.69	1806.31
445.89	1939.43
446.09	1748.97
446.30	2095.07
446.50	2684.89
446.71	3723.21
446.91	4388.80
447.12	4782.01
447.32	4943.80
447.53	4368.32
447.73	3973.06
447.93	3524.55
448.14	3256.27
448.34	3172.30
448.55	2885.59
448.75	2879.44
448.96	2699.22
449.16	2539.48
449.36	2172.89
449.57	1992.67
449.77	1871.84
449.98	1759.21
450.18	1839.08
450.39	1851.36
450.59	1794.02
450.79	1714.15
451.00	1613.80
451.20	1869.80
451.41	1755.11
451.61	1845.22
451.81	1734.63
452.02	1730.53
452.22	1703.91
452.43	1746.92
452.63	1679.33
452.84	1708.01
453.04	1718.25
453.24	1767.40
453.45	1691.62
453.65	1755.11
453.86	1775.59
454.06	1730.53
454.26	1755.11
454.47	1695.72
454.67	1871.84
454.87	1800.16
455.08	1691.62
455.28	1859.56
455.49	1759.21
455.69	1658.85
455.89	1804.26
456.10	1802.21
456.30	1708.01
456.51	1816.55
456.71	1716.20
456.91	1761.25
457.12	1738.73
457.32	1755.11
457.52	1767.40
457.73	1767.40
457.93	1726.44
458.14	1712.10
458.34	1708.01
458.54	1736.68
458.75	1732.58
458.95	1849.32
459.15	1761.25
459.36	1759.21
459.56	1785.83
459.76	1847.27
459.97	1703.91
460.17	1724.39
460.37	1865.70
460.58	1691.62
460.78	1775.59
460.99	1665.00
461.19	1724.39
461.39	1708.01
461.60	1732.58
461.80	1771.49
462.00	1636.33
462.21	1662.95
462.41	1710.05
462.61	1636.33
462.82	1699.81
463.02	1730.53
463.22	1738.73
463.43	1830.88
463.63	1789.92
463.83	1773.54
464.04	1808.36
464.24	1734.63
464.44	1636.33
464.64	1744.87
464.85	1693.67
465.05	1845.22
465.25	1744.87
465.46	1761.25
465.66	1708.01
465.86	1744.87
466.07	1781.73
466.27	1771.49
466.47	1646.57
466.68	1638.38
466.88	1765.35
467.08	1806.31
467.29	1804.26
467.49	1777.64
467.69	1730.53
467.89	1718.25
468.10	1718.25
468.30	1746.92
468.50	1841.12
468.71	1748.97
468.91	1578.98
469.11	1861.60
469.31	1744.87
469.52	1697.77
469.72	1800.16
469.92	1886.18
470.13	1787.88
470.33	1798.12
470.53	1779.68
470.73	2074.59
470.94	2312.16
471.14	2289.63
471.34	2486.23
471.54	2410.46
471.75	2240.48
471.95	2119.65
472.15	2084.83
472.36	2099.17
472.56	2023.39
472.76	2039.78
472.96	2037.73
473.17	1898.47
473.37	1937.38
473.57	1812.45
473.77	1798.12
473.98	1728.49
474.18	1662.95
474.38	1888.23
474.58	1769.44
474.79	1685.48
474.99	1775.59
475.19	1834.98
475.39	1703.91
475.60	1779.68
475.80	1777.64
476.00	1742.82
476.20	1742.82
476.41	1726.44
476.61	1814.50
476.81	1808.36
477.01	1763.30
477.21	1839.08
477.42	1808.36
477.62	1714.15
477.82	1761.25
478.02	1642.47
478.23	1763.30
478.43	1621.99
478.63	1736.68
478.83	1714.15
479.03	1636.33
479.24	1810.40
479.44	1779.68
479.64	1681.38
479.84	1667.05
480.04	1746.92
480.25	1765.35
480.45	1720.29
480.65	1695.72
480.85	1796.07
481.06	1675.24
481.26	1796.07
481.46	1712.10
481.66	1724.39
481.86	1611.75
482.06	1820.64
482.27	1685.48
482.47	1673.19
482.67	1736.68
482.87	1742.82
483.07	1841.12
483.28	1712.10
483.48	1632.23
483.68	1703.91
483.88	1685.48
484.08	1533.93
484.29	1640.42
484.49	1757.16
484.69	1757.16
484.89	1830.88
485.09	1746.92
485.29	1681.38
485.50	1619.94
485.70	1710.05
485.90	1832.93
486.10	1791.97
486.30	1740.77
486.50	1730.53
486.71	1755.11
486.91	1824.74
487.11	1861.60
487.31	1660.90
487.51	1757.16
487.71	1687.53
487.91	1701.86
488.12	1656.81
488.32	1599.46
488.52	1685.48
488.72	1693.67
488.92	1785.83
489.12	1773.54
489.32	1796.07
489.53	1708.01
489.73	1671.14
489.93	1818.60
490.13	1705.96
490.33	1693.67
490.53	1703.91
490.73	1796.07
490.94	1705.96
491.14	1794.02
491.34	1826.79
491.54	2209.76
491.74	2574.30
491.94	2881.49
492.14	3014.61
492.34	2998.23
492.54	2660.31
492.75	2527.19
492.95	2445.27
493.15	2385.88
493.35	2281.44
493.55	2271.20
493.75	2131.94
493.95	2131.94
494.15	2039.78
494.35	1964.00
494.56	1855.46
494.76	1812.45
494.96	1785.83
495.16	1734.63
495.36	1783.78
495.56	1751.01
495.76	1699.81
495.96	1695.72
496.16	1689.57
496.36	1804.26
496.56	1748.97
496.77	1785.83
496.97	1695.72
497.17	1699.81
497.37	1613.80
497.57	1800.16
497.77	1703.91
497.97	1740.77
498.17	1751.01
498.37	1638.38
498.57	1767.40
498.77	1669.09
498.97	1822.69
499.17	1869.80
499.38	1679.33
499.58	1816.55
499.78	1834.98
499.98	1849.32
500.18	1693.67
500.38	1722.34
500.58	1939.43
500.78	2623.45
500.98	4597.69
501.18	5758.89
501.38	6928.28
501.58	7235.47
501.78	6442.91
501.98	5554.09
502.18	4978.61
502.38	4310.97
502.58	4216.77
502.78	3837.89
502.98	3727.30
503.18	3481.55
503.38	3184.59
503.59	2897.88
503.79	2635.74
503.99	2531.29
504.19	2340.83
504.39	2164.70
504.59	2197.47
504.79	2131.94
504.99	2090.98
505.19	1923.04
505.39	1832.93
505.59	1904.61
505.79	1900.52
505.99	1832.93
506.19	1877.99
506.39	1877.99
506.59	1732.58
506.79	1779.68
506.99	1814.50
507.19	1726.44
507.39	1767.40
507.59	1665.00
507.79	1687.53
507.99	1671.14
508.19	1783.78
508.39	1699.81
508.59	1710.05
508.79	1857.51
508.99	1863.65
509.19	1732.58
509.39	1759.21
509.59	1705.96
509.79	1683.43
509.99	1716.20
510.19	1781.73
510.39	1857.51
510.59	1720.29
510.79	1679.33
510.99	1679.33
511.19	1746.92
511.39	1779.68
511.59	1777.64
511.79	1802.21
511.99	1738.73
512.19	1865.70
512.38	1783.78
512.58	1685.48
512.78	1789.92
512.98	1796.07
513.18	1773.54
513.38	1699.81
513.58	1794.02
513.78	1730.53
513.98	1705.96
514.18	1732.58
514.38	1726.44
514.58	1773.54
514.78	1748.97
514.98	1673.19
515.18	1751.01
515.38	1660.90
515.58	1845.22
515.78	1681.38
515.98	1708.01
516.18	1746.92
516.38	1660.90
516.57	1673.19
516.77	1648.61
516.97	1777.64
517.17	1710.05
517.37	1677.29
517.57	1787.88
517.77	1787.88
517.97	1644.52
518.17	1808.36
518.37	1697.77
518.57	1738.73
518.77	1675.24
518.97	1736.68
519.16	1746.92
519.36	1779.68
519.56	1746.92
519.76	1777.64
519.96	1734.63
520.16	1851.36
520.36	1695.72
520.56	1812.45
520.76	1703.91
520.96	1656.81
521.16	1751.01
521.35	1826.79
521.55	1798.12
521.75	1736.68
521.95	1785.83
522.15	1744.87
522.35	1722.34
522.55	1693.67
522.75	1802.21
522.95	1847.27
523.14	1685.48
523.34	1775.59
523.54	1648.61
523.74	1701.86
523.94	1763.30
524.14	1673.19
524.34	1765.35
524.54	1761.25
524.73	1693.67
524.93	1740.77
525.13	1812.45
525.33	1578.98
525.53	1964.00
525.73	1781.73
525.93	1726.44
526.13	1808.36
526.32	1759.21
526.52	1763.30
526.72	1845.22
526.92	1798.12
527.12	1699.81
527.32	1660.90
527.52	1726.44
527.71	1808.36
527.91	1751.01
528.11	1742.82
528.31	1769.44
528.51	1617.90
528.71	1748.97
528.90	1738.73
529.10	1769.44
529.30	1796.07
529.50	1671.14
529.70	1720.29
529.90	1714.15
530.09	1701.86
530.29	1673.19
530.49	1648.61
530.69	1910.75
530.89	1828.84
531.09	1861.60
531.28	1705.96
531.48	1800.16
531.68	1755.11
531.88	1724.39
532.08	1734.63
532.28	1736.68
532.47	1703.91
532.67	1773.54
532.87	1724.39
533.07	1691.62
533.27	1748.97
533.46	1753.06
533.66	1826.79
533.86	1695.72
534.06	1853.41
534.26	1697.77
534.45	1818.60
534.65	1783.78
534.85	1744.87
535.05	1699.81
535.25	1744.87
535.44	1673.19
535.64	1812.45
535.84	1677.29
536.04	1695.72
536.24	1720.29
536.43	1679.33
536.63	1757.16
536.83	1769.44
537.03	1691.62
537.22	1669.09
537.42	1716.20
537.62	1744.87
537.82	1683.43
538.02	1816.55
538.21	1837.03
538.41	1943.52
538.61	1755.11
538.81	1675.24
539.00	1767.40
539.20	1669.09
539.40	1734.63
539.60	1714.15
539.79	1681.38
539.99	1748.97
540.19	1763.30
540.39	1765.35
540.58	1787.88
540.78	1791.97
540.98	1697.77
541.18	1830.88
541.37	1812.45
541.57	1724.39
541.77	1730.53
541.97	1736.68
542.16	1693.67
542.36	1728.49
542.56	1697.77
542.76	1828.84
542.95	1740.77
543.15	1753.06
543.35	1751.01
543.54	1681.38
543.74	1669.09
543.94	1787.88
544.14	1689.57
544.33	1802.21
544.53	1705.96
544.73	1705.96
544.93	1791.97
545.12	1824.74
545.32	1714.15
545.52	1755.11
545.71	1716.20
545.91	1695.72
546.11	1738.73
546.30	1675.24
546.50	1634.28
546.70	1802.21
546.90	1744.87
547.09	1601.51
547.29	1689.57
547.49	1769.44
547.68	1701.86
547.88	1728.49
548.08	1773.54
548.27	2211.81
548.47	1695.72
548.67	1708.01
548.87	1744.87
549.06	1734.63
549.26	1748.97
549.46	1718.25
549.65	1763.30
549.85	1773.54
550.05	1730.53
550.24	1601.51
550.44	1820.64
550.64	1673.19
550.83	1765.35
551.03	1753.06
551.23	1877.99
551.42	1753.06
551.62	1710.05
551.82	1734.63
552.01	1761.25
552.21	1779.68
552.41	1769.44
552.60	1779.68
552.80	1759.21
553.00	1662.95
553.19	1785.83
553.39	1810.40
553.59	1712.10
553.78	1738.73
553.98	1695.72
554.17	1732.58
554.37	1814.50
554.57	1787.88
554.76	1712.10
554.96	1708.01
555.16	1726.44
555.35	1732.58
555.55	1736.68
555.75	1730.53
555.94	1785.83
556.14	1533.93
556.33	1746.92
556.53	1685.48
556.73	1773.54
556.92	1824.74
557.12	1806.31
557.32	1841.12
557.51	1775.59
557.71	1726.44
557.90	1861.60
558.10	1779.68
558.30	1796.07
558.49	1693.67
558.69	1640.42
558.88	1759.21
559.08	1689.57
559.28	1755.11
559.47	1681.38
559.67	1789.92
559.86	1791.97
560.06	1751.01
560.26	1708.01
560.45	1791.97
560.65	1765.35
560.84	1806.31
561.04	1763.30
561.24	1740.77
561.43	1681.38
561.63	1871.84
561.82	1812.45
562.02	1763.30
562.22	1703.91
562.41	1662.95
562.61	1650.66
562.80	1683.43
563.00	1865.70
563.19	1730.53
563.39	1687.53
563.59	1787.88
563.78	1705.96
563.98	1656.81
564.17	1617.90
564.37	1654.76
564.56	1785.83
564.76	1703.91
564.96	1888.23
565.15	1687.53
565.35	1863.65
565.54	1695.72
565.74	1800.16
565.93	1738.73
566.13	1730.53
566.32	1824.74
566.52	1763.30
566.71	1685.48
566.91	1789.92
567.11	1730.53
567.30	1691.62
567.50	1783.78
567.69	1769.44
567.89	1675.24
568.08	1691.62
568.28	1802.21
568.47	1693.67
568.67	1759.21
568.86	1742.82
569.06	1777.64
569.25	1755.11
569.45	1671.14
569.64	1787.88
569.84	1798.12
570.04	1769.44
570.23	1685.48
570.43	1822.69
570.62	1798.12
570.82	1800.16
571.01	1722.34
571.21	1693.67
571.40	1701.86
571.60	1769.44
571.79	1796.07
571.99	1703.91
572.18	1617.90
572.38	1822.69
572.57	1734.63
572.77	1763.30
572.96	1871.84
573.16	1804.26
573.35	1761.25
573.55	1812.45
573.74	1826.79
573.94	1716.20
574.13	1812.45
574.33	1705.96
574.52	1806.31
574.71	1779.68
574.91	1728.49
575.10	1699.81
575.30	1757.16
575.49	1621.99
575.69	1722.34
575.88	1708.01
576.08	1751.01
576.27	1791.97
576.47	1761.25
576.66	1759.21
576.86	1814.50
577.05	1726.44
577.25	1775.59
577.44	1898.47
577.64	1724.39
577.83	1814.50
578.02	1712.10
578.22	1789.92
578.41	1837.03
578.61	1789.92
578.80	1755.11
579.00	1744.87
579.19	1800.16
579.39	1759.21
579.58	1814.50
579.77	1820.64
579.97	1818.60
580.16	1814.50
580.36	1814.50
580.55	1853.41
580.75	1812.45
580.94	1777.64
581.13	1867.75
581.33	1861.60
581.52	1767.40
581.72	1779.68
581.91	1859.56
582.11	1755.11
582.30	1828.84
582.49	1783.78
582.69	1935.33
582.88	1783.78
583.08	1841.12
583.27	1871.84
583.47	1834.98
583.66	1740.77
583.85	1726.44
584.05	1808.36
584.24	1818.60
584.44	1837.03
584.63	1800.16
584.82	1816.55
585.02	1886.18
585.21	1775.59
585.41	1877.99
585.60	1875.94
585.79	1873.89
585.99	1968.10
586.18	1843.17
586.37	2201.57
586.57	3305.42
586.76	9832.30
586.96	24510.09
587.15	34389.49
587.34	40594.84
587.54	42044.80
587.73	36421.08
587.93	26347.12
588.12	21405.37
588.31	18304.74
588.51	16373.51
588.70	15099.67
588.89	14118.70
589.09	12633.92
589.28	10882.91
589.47	9664.36
589.67	8060.80
589.86	6315.94
590.06	4919.22
590.25	3917.76
590.44	3108.82
590.64	2613.21
590.83	2252.77
591.02	2056.16
591.22	1910.75
591.41	1927.14
591.60	1820.64
591.80	1920.99
591.99	1763.30
592.18	1728.49
592.38	1775.59
592.57	1781.73
592.76	1769.44
592.96	1771.49
593.15	1708.01
593.34	1855.46
593.54	1785.83
593.73	1773.54
593.92	1769.44
594.12	1802.21
594.31	1724.39
594.50	1843.17
594.70	1865.70
594.89	1863.65
595.08	1701.86
595.28	1845.22
595.47	1992.67
595.66	1818.60
595.86	1611.75
596.05	1687.53
596.24	1757.16
596.43	1834.98
596.63	1804.26
596.82	1757.16
597.01	1755.11
597.21	1853.41
597.40	1744.87
597.59	1673.19
597.79	1722.34
597.98	1759.21
598.17	1814.50
598.36	1777.64
598.56	1763.30
598.75	1722.34
598.94	1847.27
599.14	1734.63
599.33	1755.11
599.52	1779.68
599.71	1763.30
599.91	1812.45
600.10	1767.40
600.29	1697.77
600.48	1744.87
600.68	1746.92
600.87	1775.59
601.06	1695.72
601.26	1757.16
601.45	1767.40
601.64	1755.11
601.83	1861.60
602.03	1679.33
602.22	1650.66
602.41	1814.50
602.60	1871.84
602.80	1832.93
602.99	1728.49
603.18	1730.53
603.37	1705.96
603.57	1755.11
603.76	1783.78
603.95	1759.21
604.14	1689.57
604.34	1769.44
604.53	1716.20
604.72	1759.21
604.91	1779.68
605.10	1687.53
605.30	1570.79
605.49	1845.22
605.68	1822.69
605.87	1761.25
606.07	1724.39
606.26	1759.21
606.45	1720.29
606.64	1771.49
606.84	1689.57
607.03	1712.10
607.22	1736.68
607.41	1671.14
607.60	1695.72
607.80	1820.64
607.99	1753.06
608.18	1724.39
608.37	1740.77
608.56	1728.49
608.76	1765.35
608.95	1834.98
609.14	1705.96
609.33	1773.54
609.52	1757.16
609.72	1746.92
609.91	1771.49
610.10	1791.97
610.29	1873.89
610.48	1775.59
610.68	1763.30
610.87	1685.48
611.06	1683.43
611.25	1753.06
611.44	1800.16
611.63	1777.64
611.83	1871.84
612.02	1734.63
612.21	1783.78
612.40	1669.09
612.59	1689.57
612.79	1722.34
612.98	1771.49
613.17	1761.25
613.36	1697.77
613.55	1837.03
613.74	1658.85
613.93	1724.39
614.13	1734.63
614.32	1701.86
614.51	1742.82
614.70	1722.34
614.89	1693.67
615.08	1796.07
615.28	2090.98
615.47	1730.53
615.66	1703.91
615.85	1746.92
616.04	1818.60
616.23	1755.11
616.42	1761.25
616.62	1714.15
616.81	1773.54
617.00	1751.01
617.19	1796.07
617.38	1722.34
617.57	1667.05
617.76	1779.68
617.95	1820.64
618.15	1777.64
618.34	1783.78
618.53	1724.39
618.72	1794.02
618.91	1775.59
619.10	1773.54
619.29	1730.53
619.48	1738.73
619.68	1599.46
619.87	1712.10
620.06	1615.85
620.25	1804.26
620.44	1703.91
620.63	1660.90
620.82	1755.11
621.01	1728.49
621.20	1734.63
621.39	1763.30
621.59	1738.73
621.78	1755.11
621.97	1714.15
622.16	1708.01
622.35	1699.81
622.54	1767.40
622.73	1751.01
622.92	1603.56
623.11	1785.83
623.30	1699.81
623.49	1761.25
623.68	1699.81
623.88	1837.03
624.07	1736.68
624.26	1755.11
624.45	1705.96
624.64	1736.68
624.83	1695.72
625.02	1755.11
625.21	1675.24
625.40	1728.49
625.59	1834.98
625.78	1730.53
625.97	1748.97
626.16	1769.44
626.35	1748.97
626.54	1726.44
626.74	1810.40
626.93	1708.01
627.12	1787.88
627.31	1787.88
627.50	1785.83
627.69	1771.49
627.88	1726.44
628.07	1699.81
628.26	1726.44
628.45	1751.01
628.64	1626.09
628.83	1693.67
629.02	1652.71
629.21	1814.50
629.40	1787.88
629.59	1716.20
629.78	1689.57
629.97	1689.57
630.16	1753.06
630.35	1771.49
630.54	1753.06
630.73	1740.77
630.92	1738.73
631.11	1669.09
631.30	1701.86
631.49	1710.05
631.68	1685.48
631.87	1744.87
632.06	1656.81
632.25	1779.68
632.44	1765.35
632.63	1705.96
632.82	1691.62
633.01	1656.81
633.20	1765.35
633.39	1701.86
633.58	1718.25
633.77	1742.82
633.96	1773.54
634.15	1767.40
634.34	1748.97
634.53	1746.92
634.72	1650.66
634.91	1703.91
635.10	1841.12
635.29	1783.78
635.48	1757.16
635.67	1726.44
635.86	1652.71
636.05	1699.81
636.24	1753.06
636.43	1693.67
636.62	1732.58
636.81	1531.88
637.00	1748.97
637.19	1757.16
637.38	1732.58
637.57	1669.09
637.76	1705.96
637.95	1689.57
638.14	1654.76
638.33	1708.01
638.52	1716.20
638.71	1691.62
638.89	1624.04
639.08	1898.47
639.27	1710.05
639.46	1746.92
639.65	1767.40
639.84	1763.30
640.03	1839.08
640.22	1716.20
640.41	1830.88
640.60	1658.85
640.79	1677.29
640.98	1695.72
641.17	1761.25
641.36	1744.87
641.55	1691.62
641.74	1611.75
641.92	1603.56
642.11	1689.57
642.30	1708.01
642.49	1738.73
642.68	1710.05
642.87	1718.25
643.06	1730.53
643.25	1699.81
643.44	1759.21
643.63	1746.92
643.82	1724.39
644.00	1638.38
644.19	1759.21
644.38	1638.38
644.57	1777.64
644.76	1742.82
644.95	1671.14
645.14	1687.53
645.33	1699.81
645.52	1689.57
645.71	1660.90
645.89	1603.56
646.08	1798.12
646.27	1779.68
646.46	1751.01
646.65	1646.57
646.84	1744.87
647.03	1679.33
647.22	1773.54
647.40	1718.25
647.59	1751.01
647.78	1714.15
647.97	1738.73
648.16	1712.10
648.35	1738.73
648.54	1736.68
648.73	1724.39
648.91	1751.01
649.10	1771.49
649.29	1687.53
649.48	1658.85
649.67	1826.79
649.86	1726.44
650.05	1648.61
650.23	1712.10
650.42	1675.24
650.61	1814.50
650.80	1765.35
650.99	1839.08
651.18	1763.30
651.36	1808.36
651.55	1611.75
651.74	1779.68
651.93	1779.68
652.12	1757.16
652.31	1703.91
652.49	1722.34
652.68	1669.09
652.87	1759.21
653.06	1753.06
653.25	1716.20
653.44	1714.15
653.62	1730.53
653.81	1679.33
654.00	1708.01
654.19	1775.59
654.38	1869.80
654.56	1791.97
654.75	1681.38
654.94	1773.54
655.13	1757.16
655.32	1718.25
655.51	1757.16
655.69	1652.71
655.88	1771.49
656.07	1742.82
656.26	1734.63
656.45	1695.72
656.63	1687.53
656.82	1814.50
657.01	1699.81
657.20	1679.33
657.38	1789.92
657.57	1630.18
657.76	1630.18
657.95	1728.49
658.14	1675.24
658.32	1683.43
658.51	1560.55
658.70	1730.53
658.89	1726.44
659.08	1671.14
659.26	1728.49
659.45	1675.24
659.64	1777.64
659.83	1650.66
660.01	1865.70
660.20	1736.68
660.39	1779.68
660.58	1652.71
660.76	1755.11
660.95	1601.51
661.14	1624.04
661.33	1665.00
661.51	1732.58
661.70	1615.85
661.89	1804.26
662.08	1802.21
662.26	1718.25
662.45	1689.57
662.64	1798.12
662.83	1781.73
663.01	1714.15
663.20	1675.24
663.39	1800.16
663.58	1687.53
663.76	1734.63
663.95	1693.67
664.14	1697.77
664.32	1710.05
664.51	1685.48
664.70	1601.51
664.89	1818.60
665.07	1679.33
665.26	1763.30
665.45	1685.48
665.64	1796.07
665.82	1751.01
666.01	1712.10
666.20	1673.19
666.38	1820.64
666.57	1773.54
666.76	2250.72
666.95	4566.97
667.13	10520.42
667.32	15433.49
667.51	18079.47
667.69	19349.21
667.88	18020.08
668.07	12478.27
668.25	9756.52
668.44	8173.44
668.63	7290.77
668.81	6754.20
669.00	6299.55
669.19	5715.88
669.38	5181.36
669.56	4571.07
669.75	4022.21
669.94	3426.25
670.12	2932.69
670.31	2512.86
670.50	2353.12
670.68	2070.50
670.87	1920.99
671.06	1775.59
671.24	1773.54
671.43	1851.36
671.62	1787.88
671.80	1724.39
671.99	1703.91
672.18	1744.87
672.36	1785.83
672.55	1783.78
672.74	1726.44
672.92	1689.57
673.11	1746.92
673.29	1646.57
673.48	1789.92
673.67	1687.53
673.85	1800.16
674.04	1703.91
674.23	1677.29
674.41	1802.21
674.60	1677.29
674.79	1589.22
674.97	1640.42
675.16	1714.15
675.34	1744.87
675.53	1710.05
675.72	1783.78
675.90	1740.77
676.09	1697.77
676.28	1759.21
676.46	1634.28
676.65	1650.66
676.83	1576.94
677.02	1695.72
677.21	1759.21
677.39	1742.82
677.58	1697.77
677.77	1601.51
677.95	1712.10
678.14	1798.12
678.32	1691.62
678.51	1740.77
678.70	1837.03
678.88	1734.63
679.07	1775.59
679.25	1757.16
679.44	1701.86
679.63	1605.61
679.81	1722.34
680.00	1816.55
680.18	1708.01
680.37	1775.59
680.55	1751.01
680.74	1597.42
680.93	1605.61
681.11	1724.39
681.30	1677.29
681.48	1746.92
681.67	1726.44
681.85	1736.68
682.04	1738.73
682.23	1724.39
682.41	1730.53
682.60	1734.63
682.78	1648.61
682.97	1710.05
683.15	1673.19
683.34	1728.49
683.53	1839.08
683.71	1689.57
683.90	1816.55
684.08	1794.02
684.27	1691.62
684.45	1767.40
684.64	1849.32
684.82	1757.16
685.01	1787.88
685.19	1628.14
685.38	1853.41
685.57	1740.77
685.75	1673.19
685.94	1673.19
686.12	1689.57
686.31	1683.43
686.49	1796.07
686.68	1601.51
686.86	1716.20
687.05	1673.19
687.23	1669.09
687.42	1675.24
687.60	1687.53
687.79	1677.29
687.97	1837.03
688.16	1773.54
688.34	1796.07
688.53	1615.85
688.71	1730.53
688.90	1884.13
689.08	1662.95
689.27	1648.61
689.45	1714.15
689.64	1728.49
689.82	1693.67
690.01	1765.35
690.19	1769.44
690.38	1708.01
690.56	1796.07
690.75	1615.85
690.93	1744.87
691.12	1656.81
691.30	1710.05
691.49	1728.49
691.67	1724.39
691.86	1853.41
692.04	1701.86
692.23	1718.25
692.41	1718.25
692.60	1837.03
692.78	1783.78
692.97	1669.09
693.15	1814.50
693.34	1861.60
693.52	1794.02
693.71	1699.81
693.89	1703.91
694.08	1611.75
694.26	1724.39
694.44	1771.49
694.63	1751.01
694.81	1683.43
695.00	1726.44
695.18	1773.54
695.37	1818.60
695.55	1759.21
695.74	1734.63
695.92	1673.19
696.10	1746.92
696.29	1683.43
696.47	1687.53
696.66	1626.09
696.84	1628.14
697.03	1716.20
697.21	1871.84
697.40	2301.92
697.58	1830.88
697.76	1650.66
697.95	1665.00
698.13	1662.95
698.32	1658.85
698.50	1665.00
698.68	1767.40
698.87	1732.58
699.05	1824.74
699.24	1728.49
699.42	1658.85
699.61	1761.25
699.79	1691.62
699.97	1695.72
700.16	1701.86
700.34	1677.29
700.53	1730.53
700.71	1818.60
700.89	1732.58
701.08	1748.97
701.26	1703.91
701.45	2070.50
701.63	1769.44
701.81	1695.72
702.00	1634.28
702.18	1728.49
702.37	1724.39
702.55	1716.20
702.73	1695.72
702.92	1691.62
703.10	1748.97
703.28	1773.54
703.47	1732.58
703.65	1748.97
703.84	1855.46
704.02	1712.10
704.20	1886.18
704.39	1658.85
704.57	1744.87
704.75	1800.16
704.94	1701.86
705.12	1697.77
705.30	1779.68
705.49	2281.44
705.67	4378.56
705.86	9428.85
706.04	12736.32
706.22	14604.07
706.41	15400.72
706.59	13997.87
706.77	9715.56
706.96	7483.28
707.14	6588.32
707.32	5914.53
707.51	5601.19
707.69	5046.20
707.87	4239.30
708.06	3588.04
708.24	2973.65
708.42	2392.03
708.61	2271.20
708.79	1910.75
708.97	1888.23
709.16	1824.74
709.34	1843.17
709.52	1683.43
709.71	1732.58
709.89	1853.41
710.07	1691.62
710.26	1781.73
710.44	1685.48
710.62	1837.03
710.80	1751.01
710.99	1789.92
711.17	1771.49
711.35	1705.96
711.54	1693.67
711.72	1802.21
711.90	1767.40
712.09	1757.16
712.27	1648.61
712.45	1748.97
712.63	1667.05
712.82	1656.81
713.00	1757.16
713.18	1847.27
713.37	1722.34
713.55	1681.38
713.73	1710.05
713.91	1761.25
714.10	1716.20
714.28	1691.62
714.46	1703.91
714.65	1781.73
714.83	1714.15
715.01	1652.71
715.19	1650.66
715.38	1705.96
715.56	1701.86
715.74	1718.25
715.92	1691.62
716.11	1779.68
716.29	1607.66
716.47	1703.91
716.65	1691.62
716.84	1624.04
717.02	1736.68
717.20	1593.32
717.38	1619.94
717.57	1732.58
717.75	1703.91
717.93	1710.05
718.11	1779.68
718.30	1632.23
718.48	1810.40
718.66	1705.96
718.84	1779.68
719.03	1691.62
719.21	1642.47
719.39	1771.49
719.57	1814.50
719.75	1751.01
719.94	1665.00
720.12	1705.96
720.30	1718.25
720.48	1779.68
720.67	1615.85
720.85	1677.29
721.03	1624.04
721.21	1662.95
721.39	1806.31
721.58	1736.68
721.76	1667.05
721.94	1718.25
722.12	1677.29
722.30	1845.22
722.49	1708.01
722.67	1777.64
722.85	1765.35
723.03	1617.90
723.21	1665.00
723.40	1761.25
723.58	1732.58
723.76	1757.16
723.94	1728.49
724.12	1710.05
724.30	1787.88
724.49	1808.36
724.67	1673.19
724.85	1736.68
725.03	1607.66
725.21	1810.40
725.40	1769.44
725.58	1626.09
725.76	1761.25
725.94	1734.63
726.12	1665.00
726.30	1726.44
726.49	1667.05
726.67	1644.52
726.85	1718.25
727.03	1779.68
727.21	2146.27
727.39	2891.73
727.57	3753.93
727.76	4233.15
727.94	4474.81
728.12	4417.47
728.30	3751.88
728.48	2963.41
728.66	2746.33
728.84	2525.15
729.03	2228.19
729.21	2185.18
729.39	2054.11
729.57	1845.22
729.75	1828.84
729.93	1839.08
730.11	1738.73
730.30	1685.48
730.48	1728.49
730.66	1746.92
730.84	1716.20
731.02	1705.96
731.20	1654.76
731.38	1679.33
731.56	1691.62
731.74	1730.53
731.93	1757.16
732.11	1765.35
732.29	1648.61
732.47	1759.21
732.65	1751.01
732.83	1742.82
733.01	1703.91
733.19	1595.37
733.37	1765.35
733.56	1738.73
733.74	1603.56
733.92	1791.97
734.10	1714.15
734.28	1730.53
734.46	1597.42
734.64	1603.56
734.82	1748.97
735.00	1724.39
735.18	1708.01
735.36	1740.77
735.54	1722.34
735.73	1761.25
735.91	1708.01
736.09	1705.96
736.27	1673.19
736.45	1746.92
736.63	1607.66
736.81	1685.48
736.99	1748.97
737.17	1830.88
737.35	1671.14
737.53	1644.52
737.71	1751.01
737.89	1705.96
738.07	1667.05
738.25	1705.96
738.43	1710.05
738.61	1718.25
738.80	1695.72
738.98	1665.00
739.16	1595.37
739.34	1769.44
739.52	1830.88
739.70	1689.57
739.88	1771.49
740.06	1720.29
740.24	1599.46
740.42	1753.06
740.60	1673.19
740.78	1656.81
740.96	1621.99
741.14	1697.77
741.32	1816.55
741.50	1615.85
741.68	1791.97
741.86	1771.49
742.04	1679.33
742.22	1613.80
742.40	1746.92
742.58	1751.01
742.76	1660.90
742.94	1738.73
743.12	1601.51
743.30	1689.57
743.48	1716.20
743.66	1673.19
743.84	1753.06
744.02	1716.20
744.20	1742.82
744.38	1677.29
744.56	1693.67
744.74	1773.54
744.92	1697.77
745.10	1804.26
745.28	1669.09
745.46	1779.68
745.64	1683.43
745.82	1744.87
746.00	1701.86
746.18	1771.49
746.36	1722.34
746.54	1761.25
746.72	1652.71
746.90	1685.48
747.08	1804.26
747.26	1681.38
747.44	1820.64
747.62	1728.49
747.80	1751.01
747.98	1826.79
748.15	1677.29
748.33	1804.26
748.51	1720.29
748.69	1759.21
748.87	1703.91
749.05	1644.52
749.23	1636.33
749.41	1767.40
749.59	1634.28
749.77	1746.92
749.95	1755.11
750.13	1654.76
750.31	1748.97
750.49	1710.05
750.67	1740.77
750.85	1837.03
751.03	1710.05
751.20	1859.56
751.38	1724.39
751.56	1703.91
751.74	1732.58
751.92	1652.71
752.10	1783.78
752.28	1722.34
752.46	1669.09
752.64	1673.19
752.82	1755.11
753.00	1779.68
753.18	1638.38
753.35	1689.57
753.53	1689.57
753.71	1710.05
753.89	1748.97
754.07	1744.87
754.25	1783.78
754.43	1689.57
754.61	1636.33
754.79	1740.77
754.97	1583.08
755.14	1791.97
755.32	1712.10
755.50	1683.43
755.68	1669.09
755.86	1597.42
756.04	1621.99
756.22	1607.66
756.40	1744.87
756.57	1810.40
756.75	1675.24
756.93	1843.17
757.11	1689.57
757.29	1628.14
757.47	1669.09
757.65	1630.18
757.82	1634.28
758.00	1619.94
758.18	1718.25
758.36	1695.72
758.54	1816.55
758.72	1632.23
758.90	1783.78
759.07	1673.19
759.25	1632.23
759.43	1724.39
759.61	1646.57
759.79	2226.14
759.97	1742.82
760.15	1677.29
760.32	1681.38
760.50	1744.87
760.68	1763.30
760.86	1683.43
761.04	1740.77
761.22	1755.11
761.39	1718.25
761.57	1708.01
761.75	1681.38
761.93	1777.64
762.11	1691.62
762.28	1714.15
762.46	1699.81
762.64	1705.96
762.82	1609.70
763.00	1701.86
763.18	1794.02
763.35	1703.91
763.53	1740.77
763.71	1810.40
763.89	1621.99
764.07	1734.63
764.24	1746.92
764.42	1798.12
764.60	1578.98
764.78	1746.92
764.96	1802.21
765.13	1785.83
765.31	1740.77
765.49	1710.05
765.67	1697.77
765.84	1683.43
766.02	1712.10
766.20	1675.24
766.38	1765.35
766.56	1730.53
766.73	1769.44
766.91	1675.24
767.09	1705.96
767.27	1746.92
767.44	1724.39
767.62	1822.69
767.80	1673.19
767.98	1730.53
768.15	1722.34
768.33	1742.82
768.51	1830.88
768.69	1695.72
768.87	1753.06
769.04	1705.96
769.22	1791.97
769.40	1796.07
769.58	1914.85
769.75	1798.12
769.93	1712.10
770.11	1724.39
770.28	1708.01
770.46	1730.53
770.64	1730.53
770.82	1708.01
770.99	1652.71
771.17	1800.16
771.35	1658.85
771.53	1689.57
771.70	1697.77
771.88	1757.16
772.06	1691.62
772.23	1697.77
772.41	1734.63
772.59	1667.05
772.77	1728.49
772.94	1660.90
773.12	1740.77
773.30	1722.34
773.47	1714.15
773.65	1644.52
773.83	1818.60
774.01	1728.49
774.18	1693.67
774.36	1705.96
774.54	1595.37
774.71	1718.25
774.89	1574.89
775.07	1665.00
775.24	1744.87
775.42	1597.42
775.60	1804.26
775.78	1665.00
775.95	1642.47
776.13	1587.18
776.31	1632.23
776.48	1720.29
776.66	1791.97
776.84	1714.15
777.01	1636.33
777.19	1683.43
777.37	1662.95
777.54	1712.10
777.72	1800.16
777.90	1779.68
778.07	1603.56
778.25	1873.89
778.43	1759.21
778.60	1591.27
778.78	1759.21
778.96	1677.29
779.13	1693.67
779.31	1744.87
779.49	1744.87
779.66	1718.25
779.84	1738.73
780.01	1705.96
780.19	1679.33
780.37	1820.64
780.54	1804.26
780.72	1619.94
780.90	1748.97
781.07	1685.48
781.25	1677.29
781.43	1740.77
781.60	1642.47
781.78	1726.44
781.95	1716.20
782.13	1703.91
782.31	1712.10
782.48	1630.18
782.66	1691.62
782.83	1855.46
783.01	1665.00
783.19	1814.50
783.36	1671.14
783.54	1595.37
783.72	1765.35
783.89	1724.39
784.07	1744.87
784.24	1742.82
784.42	1814.50
784.60	1710.05
784.77	1718.25
784.95	1595.37
785.12	1621.99
785.30	1685.48
785.47	1658.85
785.65	1615.85
785.83	1656.81
786.00	1755.11
786.18	1736.68
786.35	1576.94
786.53	1648.61
786.71	1759.21
786.88	1742.82
787.06	1748.97
787.23	1697.77
787.41	1742.82
787.58	1703.91
787.76	1718.25
787.94	1755.11
788.11	1701.86
788.29	1673.19
788.46	1677.29
788.64	1552.36
788.81	1677.29
788.99	1665.00
789.16	1681.38
789.34	1650.66
789.52	1650.66
789.69	1691.62
789.87	1605.61
790.04	1673.19
790.22	1703.91
790.39	1802.21
790.57	1626.09
790.74	1642.47
790.92	1759.21
791.09	1677.29
791.27	1703.91
791.44	1755.11
791.62	1665.00
791.79	1765.35
791.97	1634.28
792.15	1882.08
792.32	1697.77
792.50	1730.53
792.67	1796.07
792.85	1822.69
793.02	1671.14
793.20	1714.15
793.37	1742.82
793.55	1669.09
793.72	1581.03
793.90	1699.81
794.07	1681.38
794.25	1640.42
794.42	1701.86
794.60	1652.71
794.77	1714.15
794.95	1722.34
795.12	1714.15
795.30	1720.29
795.47	1595.37
795.65	1890.28
795.82	1722.34
796.00	1667.05
796.17	1669.09
796.34	1583.08
796.52	1736.68
796.69	1730.53
796.87	1759.21
797.04	1619.94
797.22	1730.53
797.39	1673.19
797.57	1837.03
797.74	1654.76
797.92	1765.35
798.09	1722.34
798.27	1816.55
798.44	1716.20
798.62	1712.10
798.79	1716.20
798.96	1699.81
799.14	1685.48
799.31	1787.88
799.49	1757.16
799.66	1650.66
799.84	1751.01
800.01	1724.39
800.19	1730.53
800.36	1628.14
800.53	1710.05
800.71	1695.72
800.88	1806.31
801.06	1638.38
801.23	1732.58
801.41	1701.86
801.58	1693.67
801.75	1677.29
801.93	1699.81
802.10	1748.97
802.28	1685.48
802.45	1796.07
802.63	1789.92
802.80	1816.55
802.97	1697.77
803.15	1712.10
803.32	1669.09
803.50	1578.98
803.67	1679.33
803.84	1724.39
804.02	1732.58
804.19	1660.90
804.37	1640.42
804.54	1687.53
804.71	1687.53
804.89	1646.57
805.06	1654.76
805.24	1677.29
805.41	1681.38
805.58	1609.70
805.76	1861.60
805.93	1789.92
806.10	1779.68
806.28	1714.15
806.45	1673.19
806.63	1701.86
806.80	1677.29
806.97	1662.95
807.15	1693.67
807.32	1705.96
807.49	1708.01
807.67	1656.81
807.84	1722.34
808.01	1578.98
808.19	1826.79
808.36	1798.12
808.54	1691.62
808.71	1585.13
808.88	1755.11
809.06	1769.44
809.23	1796.07
809.40	1640.42
809.58	1718.25
809.75	1703.91
809.92	1615.85
810.10	1834.98
810.27	1652.71
810.44	1757.16
810.62	1738.73
810.79	1763.30
810.96	1654.76
811.14	1662.95
811.31	1697.77
811.48	1761.25
811.66	1701.86
811.83	1765.35
812.00	1693.67
812.18	1722.34
812.35	1886.18
812.52	1644.52
812.69	1720.29
812.87	1748.97
813.04	1646.57
813.21	1697.77
813.39	1665.00
813.56	1675.24
813.73	1705.96
813.91	1636.33
814.08	1689.57
814.25	1691.62
814.42	1714.15
814.60	1667.05
814.77	1734.63
814.94	1673.19
815.12	1738.73
815.29	1796.07
815.46	1667.05
815.63	1712.10
815.81	1720.29
815.98	1712.10
816.15	1681.38
816.33	1767.40
816.50	1673.19
816.67	1730.53
816.84	1738.73
817.02	1734.63
817.19	1691.62
817.36	1703.91
817.53	1738.73
817.71	1695.72
817.88	1783.78
818.05	1624.04
818.22	1634.28
818.40	1730.53
818.57	1697.77
818.74	1705.96
818.91	1671.14
819.09	1759.21
819.26	1767.40
819.43	1642.47
819.60	1632.23
819.78	1738.73
819.95	1761.25
820.12	1669.09
820.29	1832.93
820.47	1738.73
820.64	1699.81
820.81	1658.85
820.98	1640.42
821.15	1638.38
821.33	1771.49
821.50	1677.29
821.67	1720.29
821.84	1671.14
822.02	1697.77
822.19	1794.02
822.36	1595.37
822.53	1673.19
822.70	1714.15
822.88	1746.92
823.05	1785.83
823.22	1705.96
823.39	1804.26
823.56	1656.81
823.74	1755.11
823.91	1638.38
824.08	1634.28
824.25	1648.61
824.42	1787.88
824.60	1683.43
824.77	1705.96
824.94	1669.09
825.11	1681.38
825.28	1609.70
825.45	1808.36
825.63	1632.23
825.80	1726.44
825.97	1716.20
826.14	1675.24
826.31	1646.57
826.48	1689.57
826.66	1728.49
826.83	1748.97
827.00	1763.30
827.17	1619.94
827.34	1689.57
827.51	1656.81
827.69	1697.77
827.86	1640.42
828.03	1761.25
828.20	1796.07
828.37	1628.14
828.54	1699.81
828.71	1710.05
828.89	1816.55
829.06	1671.14
829.23	1787.88
829.40	1687.53
829.57	1740.77
829.74	1742.82
829.91	1587.18
830.09	1609.70
830.26	1726.44
830.43	1777.64
830.60	1669.09
830.77	1693.67
830.94	1828.84
831.11	1751.01
831.28	1658.85
831.46	1759.21
831.63	1671.14
831.80	1708.01
831.97	1687.53
832.14	1695.72
832.31	1685.48
832.48	1732.58
832.65	1812.45
832.82	1771.49
832.99	1646.57
833.17	1638.38
833.34	1828.84
833.51	1714.15
833.68	1695.72
833.85	1796.07
834.02	1685.48
834.19	1703.91
834.36	1705.96
834.53	1628.14
834.70	1730.53
834.87	1771.49
835.04	1757.16
835.22	1650.66
835.39	1687.53
835.56	1630.18
835.73	1683.43
835.90	1775.59
836.07	1689.57
836.24	1798.12
836.41	1578.98
836.58	1675.24
836.75	1732.58
836.92	1673.19
837.09	1646.57
837.26	1699.81
837.43	1736.68
837.60	1746.92
837.77	1722.34
837.94	1736.68
838.12	1726.44
838.29	1746.92
838.46	1665.00
838.63	1679.33
838.80	1748.97
838.97	1781.73
839.14	1712.10
839.31	1671.14
839.48	1738.73
839.65	1685.48
839.82	1759.21
839.99	1652.71
840.16	1615.85
840.33	1677.29
840.50	1689.57
840.67	1705.96
840.84	1681.38
841.01	1718.25
841.18	1621.99
841.35	1771.49
841.52	1757.16
841.69	1787.88
841.86	1652.71
842.03	1705.96
842.20	1812.45
842.37	1671.14
842.54	1634.28
842.71	1660.90
842.88	1615.85
843.05	1753.06
843.22	1767.40
843.39	1744.87
843.56	1675.24
843.73	1710.05
843.90	1787.88
844.07	1740.77
844.24	1761.25
844.41	1742.82
844.58	1740.77
844.75	1681.38
844.92	1769.44
845.09	1665.00
845.26	1626.09
845.43	1730.53
845.60	1675.24
845.77	1728.49
845.94	1726.44
846.10	1771.49
846.27	1593.32
846.44	1710.05
846.61	1642.47
846.78	1673.19
846.95	1714.15
847.12	1667.05
847.29	1746.92
847.46	1689.57
847.63	1779.68
847.80	1652.71
847.97	1667.05
848.14	1808.36
848.31	1658.85
848.48	1683.43
848.65	1722.34
848.82	1742.82
848.98	1855.46
849.15	1671.14
849.32	1787.88
849.49	1738.73
849.66	1693.67
849.83	1744.87
850.00	1656.81
850.17	1757.16
850.34	1699.81
850.51	1746.92
850.68	1689.57
850.85	1877.99
851.01	1648.61
851.18	1708.01
851.35	1701.86
851.52	1714.15
851.69	1794.02
851.86	1564.65
852.03	1669.09
852.20	1775.59
852.37	1732.58
852.53	1648.61
852.70	1765.35
852.87	1665.00
853.04	1699.81
853.21	1660.90
853.38	1697.77
853.55	1789.92
853.72	1728.49
853.89	1716.20
854.05	1640.42
854.22	1650.66
854.39	1677.29
854.56	1683.43
854.73	1853.41
854.90	1691.62
855.07	1746.92
855.23	1712.10
855.40	1669.09
855.57	1728.49
855.74	1628.14
855.91	1875.94
856.08	1656.81
856.25	1648.61
856.41	1650.66
856.58	1595.37
856.75	1673.19
856.92	1611.75
857.09	1779.68
857.26	1593.32
857.42	1697.77
857.59	1679.33
857.76	1572.84
857.93	1718.25
858.10	1720.29
858.27	1662.95
858.43	1689.57
858.60	1660.90
858.77	1697.77
858.94	1673.19
859.11	1673.19
859.27	1708.01
859.44	1644.52
859.61	1802.21
859.78	1816.55
859.95	1634.28
860.12	1710.05
860.28	1814.50
860.45	1828.84
860.62	1677.29
860.79	1738.73
860.95	1714.15
861.12	1624.04
861.29	1624.04
861.46	1638.38
861.63	1656.81
861.79	1802.21
861.96	1630.18
862.13	1634.28
862.30	1802.21
862.47	1683.43
862.63	1679.33
862.80	1783.78
862.97	1740.77
863.14	1757.16
863.30	1705.96
863.47	1718.25
863.64	1734.63
863.81	1716.20
863.97	1726.44
864.14	1740.77
864.31	1660.90
864.48	1720.29
864.65	1716.20
864.81	1681.38
864.98	1685.48
865.15	1742.82
865.32	1734.63
865.48	1761.25
865.65	1791.97
865.82	1640.42
865.98	1705.96
866.15	1740.77
866.32	1722.34
866.49	1650.66
866.65	1777.64
866.82	1697.77
866.99	1763.30
867.16	1677.29
867.32	1732.58
867.49	1705.96
867.66	1665.00
867.83	1648.61
867.99	1621.99
868.16	1722.34
868.33	1701.86
868.49	1767.40
868.66	1667.05
868.83	1703.91
868.99	1650.66
869.16	1765.35
869.33	1759.21
869.50	1726.44
869.66	1738.73
869.83	1726.44
870.00	1593.32
870.16	1689.57
870.33	1734.63
870.50	1714.15
870.66	1691.62
870.83	1834.98
871.00	1753.06
871.17	1804.26
871.33	1759.21
871.50	1708.01
871.67	1726.44
871.83	1607.66
872.00	1787.88
872.17	1621.99
872.33	1785.83
872.50	1728.49
872.67	1714.15
872.83	1673.19
873.00	1736.68
873.17	1697.77
873.33	1671.14
873.50	1746.92
873.67	1720.29
873.83	1710.05
874.00	1687.53
874.16	1744.87
874.33	1718.25
874.50	1636.33
874.66	1693.67
874.83	1673.19
875.00	1791.97
875.16	1697.77
875.33	1773.54
875.50	1632.23
875.66	1652.71
875.83	1693.67
875.99	1738.73
876.16	1724.39
876.33	1665.00
876.49	1691.62
876.66	1734.63
876.83	1691.62
876.99	1660.90
877.16	1656.81
877.32	1718.25
877.49	1691.62
877.66	1728.49
877.82	1781.73
877.99	1726.44
878.15	1789.92
878.32	1691.62
878.49	1767.40
878.65	1656.81
878.82	1775.59
878.98	1658.85
879.15	1804.26
879.32	1693.67
879.48	1697.77
879.65	1677.29
879.81	1656.81
879.98	1695.72
880.15	1624.04
880.31	1691.62
880.48	1628.14
880.64	1714.15
880.81	1732.58
880.97	1787.88
881.14	1804.26
881.31	1722.34
881.47	1873.89
881.64	1746.92
881.80	1611.75
881.97	1673.19
882.13	1755.11
882.30	1615.85
882.47	1708.01
882.63	1628.14
882.80	1703.91
882.96	1759.21
883.13	1708.01
883.29	1742.82
883.46	1755.11
883.62	1814.50
883.79	1769.44
883.95	1771.49
884.12	1642.47
884.29	1718.25
884.45	1681.38
884.62	1746.92
884.78	1646.57
884.95	1751.01
885.11	1718.25
885.28	1697.77
885.44	1667.05
885.61	1718.25
885.77	1751.01
885.94	1767.40
886.10	1742.82
886.27	1701.86
886.43	1804.26
886.60	1753.06
886.76	1656.81
886.93	1679.33
887.09	1728.49
887.26	1546.22
887.42	1691.62
887.59	1820.64
887.75	1849.32
887.92	1724.39
888.08	1771.49
888.25	1773.54
888.41	1814.50
888.58	1712.10
888.74	1722.34
888.91	1667.05
>>>>>End Processed Spectral Data<<<<<
