SpectraSuite Data File
++++++++++++++++++++++++++++++++++++
Date: Mon Jun 06 13:07:57 CEST 2016
User: root
Dark Spectrum Present: No
Reference Spectrum Present: No
Number of Sampled Component Spectra: 1
Spectrometers: USB4C02835
Integration Time (usec): 100000 (USB4C02835)
Spectra Averaged: 1 (USB4C02835)
Boxcar Smoothing: 0 (USB4C02835)
Correct for Electrical Dark: No (USB4C02835)
Strobe/Lamp Enabled: No (USB4C02835)
Correct for Detector Non-linearity: No (USB4C02835)
Correct for Stray Light: No (USB4C02835)
Number of Pixels in Processed Spectrum: 3648
>>>>>Begin Processed Spectral Data<<<<<
177.47	1472.49
177.69	1472.49
177.91	1472.49
178.13	1460.20
178.36	1484.78
178.58	1636.33
178.80	1695.72
179.02	1669.09
179.24	1660.90
179.46	1673.19
179.68	1740.77
179.90	1660.90
180.13	1691.62
180.35	1697.77
180.57	1712.10
180.79	1665.00
181.01	1687.53
181.23	1787.88
181.45	1757.16
181.67	1740.77
181.90	1718.25
182.12	1648.61
182.34	1613.80
182.56	1683.43
182.78	1751.01
183.00	1712.10
183.22	1685.48
183.44	1544.17
183.66	1904.61
183.89	1779.68
184.11	1740.77
184.33	1753.06
184.55	1712.10
184.77	1701.86
184.99	1662.95
185.21	1638.38
185.43	1798.12
185.65	1748.97
185.87	1679.33
186.10	1771.49
186.32	1834.98
186.54	1757.16
186.76	1720.29
186.98	1763.30
187.20	1681.38
187.42	1652.71
187.64	1765.35
187.86	1734.63
188.08	1761.25
188.30	1671.14
188.52	1626.09
188.75	1783.78
188.97	1777.64
189.19	1628.14
189.41	1732.58
189.63	1728.49
189.85	1687.53
190.07	1617.90
190.29	1587.18
190.51	1675.24
190.73	1589.22
190.95	1779.68
191.17	1677.29
191.39	1611.75
191.61	1683.43
191.84	1687.53
192.06	1656.81
192.28	1740.77
192.50	1900.52
192.72	1757.16
192.94	1695.72
193.16	1712.10
193.38	1708.01
193.60	1648.61
193.82	1660.90
194.04	1814.50
194.26	1671.14
194.48	1714.15
194.70	1603.56
194.92	1624.04
195.14	1730.53
195.36	1705.96
195.58	1701.86
195.80	1697.77
196.02	1730.53
196.24	1753.06
196.46	1771.49
196.69	1771.49
196.91	1800.16
197.13	1683.43
197.35	1574.89
197.57	1738.73
197.79	1812.45
198.01	1796.07
198.23	1748.97
198.45	1685.48
198.67	1675.24
198.89	1687.53
199.11	1816.55
199.33	1656.81
199.55	1542.12
199.77	1646.57
199.99	1814.50
200.21	1708.01
200.43	1648.61
200.65	1673.19
200.87	1581.03
201.09	1662.95
201.31	1665.00
201.53	1673.19
201.75	1720.29
201.97	1789.92
202.19	1763.30
202.41	1734.63
202.63	1857.51
202.85	1757.16
203.07	1746.92
203.29	1658.85
203.51	1667.05
203.73	1650.66
203.95	1908.71
204.17	1714.15
204.39	1728.49
204.61	1708.01
204.83	1628.14
205.05	1714.15
205.27	1705.96
205.49	1845.22
205.71	1683.43
205.93	1654.76
206.15	1722.34
206.37	1640.42
206.59	1708.01
206.81	1605.61
207.03	1665.00
207.25	1640.42
207.47	1802.21
207.69	1722.34
207.91	1746.92
208.13	1714.15
208.34	1624.04
208.56	1683.43
208.78	1695.72
209.00	1667.05
209.22	1667.05
209.44	1685.48
209.66	1621.99
209.88	1677.29
210.10	1628.14
210.32	1730.53
210.54	1802.21
210.76	1748.97
210.98	1777.64
211.20	1656.81
211.42	1695.72
211.64	1765.35
211.86	1732.58
212.08	1667.05
212.30	1695.72
212.52	1695.72
212.74	1757.16
212.96	1734.63
213.17	1746.92
213.39	1613.80
213.61	1742.82
213.83	1738.73
214.05	1607.66
214.27	1769.44
214.49	1650.66
214.71	1595.37
214.93	1824.74
215.15	1665.00
215.37	1726.44
215.59	1572.84
215.81	1738.73
216.03	1751.01
216.24	1669.09
216.46	1710.05
216.68	1703.91
216.90	1705.96
217.12	1730.53
217.34	1705.96
217.56	1753.06
217.78	1773.54
218.00	1751.01
218.22	1665.00
218.44	1646.57
218.66	1697.77
218.87	1806.31
219.09	1665.00
219.31	1765.35
219.53	1703.91
219.75	1576.94
219.97	1701.86
220.19	1677.29
220.41	1693.67
220.63	1759.21
220.85	1710.05
221.06	1685.48
221.28	1744.87
221.50	1669.09
221.72	1763.30
221.94	1675.24
222.16	1638.38
222.38	1714.15
222.60	1685.48
222.82	1755.11
223.03	1714.15
223.25	1652.71
223.47	1757.16
223.69	1765.35
223.91	1646.57
224.13	1732.58
224.35	1656.81
224.57	1728.49
224.78	1765.35
225.00	1583.08
225.22	1662.95
225.44	1693.67
225.66	1738.73
225.88	1767.40
226.10	1769.44
226.32	1660.90
226.53	1828.84
226.75	1671.14
226.97	1693.67
227.19	1681.38
227.41	1599.46
227.63	1669.09
227.85	1601.51
228.06	1755.11
228.28	1621.99
228.50	1869.80
228.72	1632.23
228.94	1628.14
229.16	1617.90
229.37	1642.47
229.59	1642.47
229.81	1812.45
230.03	1683.43
230.25	1658.85
230.47	1679.33
230.69	1689.57
230.90	1779.68
231.12	1679.33
231.34	1660.90
231.56	1712.10
231.78	1564.65
232.00	1675.24
232.21	1697.77
232.43	1642.47
232.65	1619.94
232.87	1691.62
233.09	1585.13
233.30	1691.62
233.52	1746.92
233.74	1656.81
233.96	1742.82
234.18	1718.25
234.40	1654.76
234.61	1769.44
234.83	1599.46
235.05	1615.85
235.27	1810.40
235.49	1728.49
235.70	1757.16
235.92	1769.44
236.14	1705.96
236.36	1755.11
236.58	1638.38
236.79	1740.77
237.01	1691.62
237.23	1693.67
237.45	1775.59
237.67	1648.61
237.88	1708.01
238.10	1822.69
238.32	1636.33
238.54	1654.76
238.76	1705.96
238.97	1615.85
239.19	1626.09
239.41	1744.87
239.63	1763.30
239.85	1671.14
240.06	1679.33
240.28	1648.61
240.50	1744.87
240.72	1693.67
240.93	1722.34
241.15	1728.49
241.37	1697.77
241.59	1777.64
241.81	1701.86
242.02	1730.53
242.24	1685.48
242.46	1806.31
242.68	1732.58
242.89	1685.48
243.11	1685.48
243.33	1724.39
243.55	1736.68
243.76	1705.96
243.98	1710.05
244.20	1679.33
244.42	1724.39
244.64	1685.48
244.85	1558.50
245.07	1607.66
245.29	1738.73
245.51	1697.77
245.72	1705.96
245.94	1738.73
246.16	1671.14
246.38	1724.39
246.59	1687.53
246.81	1652.71
247.03	1697.77
247.24	1617.90
247.46	1673.19
247.68	1660.90
247.90	1675.24
248.11	1667.05
248.33	1751.01
248.55	1746.92
248.77	1777.64
248.98	1699.81
249.20	1679.33
249.42	1775.59
249.64	1726.44
249.85	1708.01
250.07	1710.05
250.29	1751.01
250.50	1701.86
250.72	1605.61
250.94	1636.33
251.16	1841.12
251.37	1753.06
251.59	1621.99
251.81	1710.05
252.02	1763.30
252.24	1658.85
252.46	1818.60
252.68	1708.01
252.89	1718.25
253.11	1574.89
253.33	1794.02
253.54	1789.92
253.76	1581.03
253.98	1679.33
254.20	1693.67
254.41	1638.38
254.63	1638.38
254.85	1613.80
255.06	1638.38
255.28	1771.49
255.50	1691.62
255.71	1640.42
255.93	1634.28
256.15	1689.57
256.36	1806.31
256.58	1621.99
256.80	1689.57
257.02	1662.95
257.23	1722.34
257.45	1732.58
257.67	1757.16
257.88	1689.57
258.10	1732.58
258.32	1740.77
258.53	1718.25
258.75	1720.29
258.97	1654.76
259.18	1683.43
259.40	1712.10
259.62	1798.12
259.83	1759.21
260.05	1767.40
260.27	1910.75
260.48	1697.77
260.70	1724.39
260.92	1685.48
261.13	1744.87
261.35	1722.34
261.57	1658.85
261.78	1574.89
262.00	1718.25
262.22	1740.77
262.43	1621.99
262.65	1669.09
262.86	1757.16
263.08	1822.69
263.30	1652.71
263.51	1585.13
263.73	1611.75
263.95	1804.26
264.16	1632.23
264.38	1667.05
264.60	1681.38
264.81	1757.16
265.03	1777.64
265.25	1650.66
265.46	1734.63
265.68	1771.49
265.89	1724.39
266.11	1667.05
266.33	1742.82
266.54	1847.27
266.76	1683.43
266.98	1751.01
267.19	1753.06
267.41	1740.77
267.62	1751.01
267.84	1624.04
268.06	1767.40
268.27	1732.58
268.49	1738.73
268.70	1767.40
268.92	1665.00
269.14	1693.67
269.35	1630.18
269.57	1728.49
269.79	1744.87
270.00	1691.62
270.22	1761.25
270.43	1677.29
270.65	1619.94
270.87	1714.15
271.08	1691.62
271.30	1703.91
271.51	1718.25
271.73	1624.04
271.95	1699.81
272.16	1697.77
272.38	1804.26
272.59	1656.81
272.81	1759.21
273.02	1720.29
273.24	1667.05
273.46	1761.25
273.67	1650.66
273.89	1681.38
274.10	1705.96
274.32	1742.82
274.54	1724.39
274.75	1787.88
274.97	1599.46
275.18	1720.29
275.40	1675.24
275.61	1732.58
275.83	1722.34
276.05	1654.76
276.26	1730.53
276.48	1720.29
276.69	1665.00
276.91	1648.61
277.12	1777.64
277.34	1804.26
277.55	1759.21
277.77	1673.19
277.99	1673.19
278.20	1718.25
278.42	1718.25
278.63	1648.61
278.85	1689.57
279.06	1718.25
279.28	1742.82
279.49	1800.16
279.71	1757.16
279.93	1765.35
280.14	1599.46
280.36	1581.03
280.57	1742.82
280.79	1794.02
281.00	1650.66
281.22	1738.73
281.43	1728.49
281.65	1617.90
281.86	1695.72
282.08	1755.11
282.29	1710.05
282.51	1652.71
282.73	1665.00
282.94	1617.90
283.16	1728.49
283.37	1810.40
283.59	1667.05
283.80	1701.86
284.02	1705.96
284.23	1755.11
284.45	1761.25
284.66	1671.14
284.88	1642.47
285.09	1708.01
285.31	1779.68
285.52	1628.14
285.74	1617.90
285.95	1791.97
286.17	1755.11
286.38	1675.24
286.60	1660.90
286.81	1669.09
287.03	1660.90
287.24	1703.91
287.46	1769.44
287.67	1705.96
287.89	1769.44
288.10	1724.39
288.32	1796.07
288.53	1744.87
288.75	1730.53
288.96	1742.82
289.18	1681.38
289.39	1714.15
289.61	1789.92
289.82	1781.73
290.04	1765.35
290.25	1662.95
290.47	1671.14
290.68	1712.10
290.90	1660.90
291.11	1613.80
291.33	1757.16
291.54	1669.09
291.76	1658.85
291.97	1796.07
292.18	1759.21
292.40	1667.05
292.61	1621.99
292.83	1808.36
293.04	1716.20
293.26	1751.01
293.47	1658.85
293.69	1644.52
293.90	1708.01
294.12	1759.21
294.33	1636.33
294.55	1646.57
294.76	1765.35
294.97	1722.34
295.19	1865.70
295.40	1638.38
295.62	1705.96
295.83	1748.97
296.05	1636.33
296.26	1808.36
296.48	1693.67
296.69	1611.75
296.90	1615.85
297.12	1742.82
297.33	1744.87
297.55	1673.19
297.76	1660.90
297.98	1677.29
298.19	1675.24
298.41	1767.40
298.62	1644.52
298.83	1787.88
299.05	1734.63
299.26	1705.96
299.48	1691.62
299.69	1726.44
299.90	1683.43
300.12	1656.81
300.33	1714.15
300.55	1728.49
300.76	1710.05
300.98	1687.53
301.19	1746.92
301.40	1624.04
301.62	1689.57
301.83	1683.43
302.05	1708.01
302.26	1691.62
302.47	1722.34
302.69	1617.90
302.90	1648.61
303.12	1665.00
303.33	1708.01
303.54	1724.39
303.76	1679.33
303.97	1761.25
304.19	1818.60
304.40	1599.46
304.61	1771.49
304.83	1814.50
305.04	1730.53
305.26	1800.16
305.47	1710.05
305.68	1708.01
305.90	1593.32
306.11	1787.88
306.33	1748.97
306.54	1652.71
306.75	1703.91
306.97	1574.89
307.18	1710.05
307.39	1693.67
307.61	1722.34
307.82	1673.19
308.04	1773.54
308.25	1656.81
308.46	1775.59
308.68	1714.15
308.89	1697.77
309.10	1730.53
309.32	1677.29
309.53	1720.29
309.74	1722.34
309.96	1751.01
310.17	1806.31
310.39	1667.05
310.60	1697.77
310.81	1685.48
311.03	1617.90
311.24	1771.49
311.45	1716.20
311.67	1751.01
311.88	1669.09
312.09	1671.14
312.31	1703.91
312.52	1675.24
312.73	1679.33
312.95	1599.46
313.16	1744.87
313.37	1787.88
313.59	1695.72
313.80	1824.74
314.01	1705.96
314.23	1617.90
314.44	1630.18
314.65	1624.04
314.87	1652.71
315.08	1671.14
315.29	1570.79
315.51	1601.51
315.72	1648.61
315.93	1759.21
316.15	1763.30
316.36	1552.36
316.57	1710.05
316.79	1716.20
317.00	1660.90
317.21	1708.01
317.43	1634.28
317.64	1744.87
317.85	1632.23
318.07	1646.57
318.28	1785.83
318.49	1734.63
318.70	1906.66
318.92	1847.27
319.13	1787.88
319.34	1849.32
319.56	1777.64
319.77	1794.02
319.98	1755.11
320.20	1738.73
320.41	1742.82
320.62	1757.16
320.83	1654.76
321.05	1779.68
321.26	1656.81
321.47	1740.77
321.69	1744.87
321.90	1632.23
322.11	1705.96
322.32	1697.77
322.54	1841.12
322.75	1732.58
322.96	1767.40
323.18	1576.94
323.39	1570.79
323.60	1640.42
323.81	1742.82
324.03	1710.05
324.24	1654.76
324.45	1677.29
324.66	1746.92
324.88	1742.82
325.09	1761.25
325.30	1693.67
325.52	1679.33
325.73	1677.29
325.94	1656.81
326.15	1587.18
326.37	1638.38
326.58	1804.26
326.79	1791.97
327.00	1708.01
327.22	1720.29
327.43	1681.38
327.64	1642.47
327.85	1771.49
328.07	1748.97
328.28	1763.30
328.49	1617.90
328.70	1675.24
328.92	1730.53
329.13	1783.78
329.34	1730.53
329.55	1824.74
329.76	1783.78
329.98	1667.05
330.19	1789.92
330.40	1734.63
330.61	1687.53
330.83	1759.21
331.04	1677.29
331.25	1724.39
331.46	1650.66
331.68	1724.39
331.89	1751.01
332.10	1634.28
332.31	1697.77
332.52	1654.76
332.74	1771.49
332.95	1595.37
333.16	1708.01
333.37	1755.11
333.58	1689.57
333.80	1665.00
334.01	1626.09
334.22	1681.38
334.43	1656.81
334.64	1736.68
334.86	1603.56
335.07	1671.14
335.28	1751.01
335.49	1628.14
335.70	1730.53
335.92	1693.67
336.13	1783.78
336.34	1736.68
336.55	1638.38
336.76	1685.48
336.98	1560.55
337.19	1748.97
337.40	1820.64
337.61	1789.92
337.82	1660.90
338.04	1736.68
338.25	1619.94
338.46	1683.43
338.67	1640.42
338.88	1656.81
339.09	1624.04
339.31	1697.77
339.52	1593.32
339.73	1613.80
339.94	1720.29
340.15	1724.39
340.36	1658.85
340.58	1724.39
340.79	1648.61
341.00	1791.97
341.21	1601.51
341.42	1787.88
341.63	1683.43
341.85	1783.78
342.06	1703.91
342.27	1662.95
342.48	1812.45
342.69	1621.99
342.90	1771.49
343.12	1761.25
343.33	1662.95
343.54	1701.86
343.75	1820.64
343.96	1734.63
344.17	1703.91
344.38	1671.14
344.60	1626.09
344.81	1619.94
345.02	1728.49
345.23	1773.54
345.44	1722.34
345.65	1675.24
345.86	1748.97
346.07	1613.80
346.29	1662.95
346.50	1705.96
346.71	1730.53
346.92	1710.05
347.13	1761.25
347.34	1603.56
347.55	1603.56
347.76	1785.83
347.98	1624.04
348.19	1718.25
348.40	1777.64
348.61	1671.14
348.82	1771.49
349.03	1767.40
349.24	1652.71
349.45	1798.12
349.66	1656.81
349.88	1736.68
350.09	1636.33
350.30	1779.68
350.51	1816.55
350.72	1708.01
350.93	1744.87
351.14	1710.05
351.35	1789.92
351.56	1669.09
351.77	1687.53
351.99	1789.92
352.20	1818.60
352.41	1781.73
352.62	1626.09
352.83	1716.20
353.04	1699.81
353.25	1621.99
353.46	1730.53
353.67	1773.54
353.88	1615.85
354.09	1685.48
354.30	1687.53
354.52	1699.81
354.73	1681.38
354.94	1671.14
355.15	1738.73
355.36	1761.25
355.57	1669.09
355.78	1794.02
355.99	1665.00
356.20	1701.86
356.41	1822.69
356.62	1693.67
356.83	1695.72
357.04	1824.74
357.25	1607.66
357.46	1644.52
357.68	1642.47
357.89	1689.57
358.10	1673.19
358.31	1630.18
358.52	1667.05
358.73	1632.23
358.94	1685.48
359.15	1642.47
359.36	1665.00
359.57	1763.30
359.78	1701.86
359.99	1673.19
360.20	1611.75
360.41	1650.66
360.62	1742.82
360.83	1689.57
361.04	1742.82
361.25	1712.10
361.46	1761.25
361.67	1685.48
361.88	1677.29
362.09	1751.01
362.30	1681.38
362.51	1673.19
362.72	1746.92
362.93	1738.73
363.14	1714.15
363.35	1722.34
363.56	1636.33
363.78	1791.97
363.99	1675.24
364.20	1716.20
364.41	1648.61
364.62	1779.68
364.83	1720.29
365.04	1691.62
365.25	1685.48
365.46	1748.97
365.67	1662.95
365.88	1578.98
366.09	1656.81
366.30	1636.33
366.51	1714.15
366.72	1638.38
366.93	1669.09
367.14	1652.71
367.35	1775.59
367.56	1724.39
367.77	1748.97
367.98	1759.21
368.18	1740.77
368.39	1689.57
368.60	1732.58
368.81	1736.68
369.02	1710.05
369.23	1667.05
369.44	1613.80
369.65	1646.57
369.86	1665.00
370.07	1746.92
370.28	1613.80
370.49	1783.78
370.70	1767.40
370.91	1658.85
371.12	1578.98
371.33	1722.34
371.54	1642.47
371.75	1755.11
371.96	1591.27
372.17	1726.44
372.38	1626.09
372.59	1736.68
372.80	1691.62
373.01	1716.20
373.22	1730.53
373.43	1720.29
373.64	1585.13
373.85	1744.87
374.06	1812.45
374.26	1753.06
374.47	1722.34
374.68	1871.84
374.89	1705.96
375.10	1658.85
375.31	1736.68
375.52	1759.21
375.73	1677.29
375.94	1648.61
376.15	1712.10
376.36	1671.14
376.57	1640.42
376.78	1681.38
376.99	1693.67
377.20	1867.75
377.40	1673.19
377.61	1820.64
377.82	1632.23
378.03	1722.34
378.24	1697.77
378.45	1652.71
378.66	1714.15
378.87	1595.37
379.08	1581.03
379.29	1740.77
379.50	1738.73
379.71	1687.53
379.91	1779.68
380.12	1794.02
380.33	1683.43
380.54	1601.51
380.75	1585.13
380.96	1677.29
381.17	1708.01
381.38	1708.01
381.59	1771.49
381.80	1714.15
382.00	1802.21
382.21	1767.40
382.42	1800.16
382.63	1935.33
382.84	1726.44
383.05	1757.16
383.26	1775.59
383.47	1748.97
383.68	1757.16
383.88	1767.40
384.09	1783.78
384.30	1804.26
384.51	1724.39
384.72	1699.81
384.93	1642.47
385.14	1703.91
385.35	1822.69
385.55	1630.18
385.76	1818.60
385.97	1658.85
386.18	1591.27
386.39	1621.99
386.60	1652.71
386.81	1751.01
387.02	1673.19
387.22	1681.38
387.43	1765.35
387.64	1818.60
387.85	1888.23
388.06	2260.96
388.27	4259.78
388.48	6664.09
388.68	8062.85
388.89	9424.75
389.10	9707.37
389.31	8359.81
389.52	7507.85
389.73	6739.87
389.93	6213.54
390.14	5818.28
390.35	5363.63
390.56	4491.20
390.77	3850.18
390.98	3016.66
391.18	2496.47
391.39	2113.50
391.60	1853.41
391.81	1822.69
392.02	1751.01
392.23	1845.22
392.43	1742.82
392.64	1812.45
392.85	1769.44
393.06	1796.07
393.27	1669.09
393.47	1621.99
393.68	1742.82
393.89	1642.47
394.10	1822.69
394.31	1748.97
394.52	1583.08
394.72	1675.24
394.93	1812.45
395.14	1634.28
395.35	1712.10
395.56	1617.90
395.76	1619.94
395.97	1800.16
396.18	1783.78
396.39	1830.88
396.60	1972.19
396.80	1869.80
397.01	1845.22
397.22	1877.99
397.43	1869.80
397.64	1712.10
397.84	1738.73
398.05	1837.03
398.26	1746.92
398.47	1732.58
398.67	1791.97
398.88	1701.86
399.09	1734.63
399.30	1667.05
399.51	1773.54
399.71	1624.04
399.92	1665.00
400.13	1738.73
400.34	1701.86
400.54	1701.86
400.75	1812.45
400.96	1738.73
401.17	1798.12
401.37	1738.73
401.58	1716.20
401.79	1708.01
402.00	1796.07
402.21	2023.39
402.41	1882.08
402.62	2035.68
402.83	1918.95
403.04	1953.76
403.24	2064.35
403.45	1806.31
403.66	1918.95
403.87	1865.70
404.07	1914.85
404.28	1898.47
404.49	1935.33
404.70	1804.26
404.90	1769.44
405.11	1763.30
405.32	1724.39
405.52	1693.67
405.73	1671.14
405.94	1685.48
406.15	1693.67
406.35	1697.77
406.56	1683.43
406.77	1746.92
406.98	1705.96
407.18	1689.57
407.39	1824.74
407.60	1665.00
407.80	1726.44
408.01	1728.49
408.22	1777.64
408.43	1681.38
408.63	1763.30
408.84	1689.57
409.05	1789.92
409.25	1669.09
409.46	1689.57
409.67	1624.04
409.88	1642.47
410.08	1716.20
410.29	1677.29
410.50	1783.78
410.70	1767.40
410.91	1636.33
411.12	1734.63
411.32	1662.95
411.53	1658.85
411.74	1826.79
411.95	1783.78
412.15	1734.63
412.36	1812.45
412.57	1740.77
412.77	1724.39
412.98	1744.87
413.19	1685.48
413.39	1759.21
413.60	1738.73
413.81	1804.26
414.01	1599.46
414.22	1724.39
414.43	1732.58
414.63	1660.90
414.84	1837.03
415.05	1751.01
415.25	1636.33
415.46	1683.43
415.67	1699.81
415.87	1675.24
416.08	1757.16
416.29	1675.24
416.49	1744.87
416.70	1708.01
416.91	1689.57
417.11	1701.86
417.32	1763.30
417.53	1759.21
417.73	1701.86
417.94	1644.52
418.15	1673.19
418.35	1638.38
418.56	1695.72
418.77	1779.68
418.97	1742.82
419.18	1681.38
419.38	1570.79
419.59	1644.52
419.80	1804.26
420.00	1624.04
420.21	1660.90
420.42	1746.92
420.62	1765.35
420.83	1675.24
421.04	1689.57
421.24	1671.14
421.45	1726.44
421.65	1738.73
421.86	1624.04
422.07	1796.07
422.27	1646.57
422.48	1720.29
422.69	1660.90
422.89	1724.39
423.10	1697.77
423.30	1624.04
423.51	1667.05
423.72	1871.84
423.92	1810.40
424.13	1615.85
424.33	1761.25
424.54	1767.40
424.75	1753.06
424.95	1769.44
425.16	1716.20
425.36	1630.18
425.57	1744.87
425.78	1791.97
425.98	1789.92
426.19	1673.19
426.39	1665.00
426.60	1751.01
426.81	1828.84
427.01	1720.29
427.22	1671.14
427.42	1650.66
427.63	1669.09
427.83	1748.97
428.04	1785.83
428.25	1718.25
428.45	1753.06
428.66	1796.07
428.86	1693.67
429.07	1687.53
429.28	1736.68
429.48	1632.23
429.69	1617.90
429.89	1722.34
430.10	1566.70
430.30	1738.73
430.51	1779.68
430.71	1656.81
430.92	1712.10
431.13	1695.72
431.33	1658.85
431.54	1701.86
431.74	1798.12
431.95	1826.79
432.15	1646.57
432.36	1642.47
432.56	1746.92
432.77	1738.73
432.98	1849.32
433.18	1718.25
433.39	1705.96
433.59	1624.04
433.80	1773.54
434.00	1837.03
434.21	1685.48
434.41	1599.46
434.62	1751.01
434.82	1644.52
435.03	1728.49
435.23	1693.67
435.44	1527.78
435.64	1695.72
435.85	1705.96
436.06	1767.40
436.26	1851.36
436.47	1691.62
436.67	1630.18
436.88	1701.86
437.08	1755.11
437.29	1751.01
437.49	1669.09
437.70	1779.68
437.90	1708.01
438.11	1914.85
438.31	1810.40
438.52	1884.13
438.72	1867.75
438.93	1869.80
439.13	1777.64
439.34	1816.55
439.54	1757.16
439.75	1820.64
439.95	1869.80
440.16	1681.38
440.36	1816.55
440.57	1763.30
440.77	1759.21
440.98	1736.68
441.18	1773.54
441.39	1677.29
441.59	1714.15
441.80	1755.11
442.00	1765.35
442.21	1751.01
442.41	1712.10
442.62	1720.29
442.82	1642.47
443.02	1665.00
443.23	1705.96
443.43	1687.53
443.64	1800.16
443.84	1693.67
444.05	1806.31
444.25	1683.43
444.46	1728.49
444.66	1691.62
444.87	1816.55
445.07	1617.90
445.28	1732.58
445.48	1800.16
445.69	1781.73
445.89	1898.47
446.09	1763.30
446.30	2054.11
446.50	2680.79
446.71	3676.10
446.91	4353.98
447.12	4628.41
447.32	4810.68
447.53	4296.64
447.73	3841.99
447.93	3440.59
448.14	3301.33
448.34	3219.41
448.55	2877.40
448.75	2818.00
448.96	2742.23
449.16	2437.08
449.36	2334.68
449.57	1968.10
449.77	1992.67
449.98	1769.44
450.18	1841.12
450.39	1824.74
450.59	1765.35
450.79	1722.34
451.00	1658.85
451.20	1845.22
451.41	1736.68
451.61	1734.63
451.81	1699.81
452.02	1734.63
452.22	1763.30
452.43	1693.67
452.63	1689.57
452.84	1712.10
453.04	1685.48
453.24	1730.53
453.45	1689.57
453.65	1708.01
453.86	1660.90
454.06	1732.58
454.26	1777.64
454.47	1718.25
454.67	1820.64
454.87	1732.58
455.08	1728.49
455.28	1816.55
455.49	1746.92
455.69	1628.14
455.89	1853.41
456.10	1794.02
456.30	1742.82
456.51	1730.53
456.71	1800.16
456.91	1716.20
457.12	1736.68
457.32	1783.78
457.52	1652.71
457.73	1810.40
457.93	1746.92
458.14	1800.16
458.34	1599.46
458.54	1734.63
458.75	1738.73
458.95	1837.03
459.15	1716.20
459.36	1742.82
459.56	1787.88
459.76	1849.32
459.97	1726.44
460.17	1744.87
460.37	1785.83
460.58	1712.10
460.78	1718.25
460.99	1673.19
461.19	1691.62
461.39	1726.44
461.60	1742.82
461.80	1718.25
462.00	1673.19
462.21	1681.38
462.41	1730.53
462.61	1667.05
462.82	1564.65
463.02	1714.15
463.22	1667.05
463.43	1804.26
463.63	1806.31
463.83	1765.35
464.04	1703.91
464.24	1820.64
464.44	1718.25
464.64	1685.48
464.85	1802.21
465.05	1865.70
465.25	1720.29
465.46	1689.57
465.66	1806.31
465.86	1787.88
466.07	1705.96
466.27	1683.43
466.47	1626.09
466.68	1675.24
466.88	1810.40
467.08	1742.82
467.29	1765.35
467.49	1777.64
467.69	1746.92
467.89	1775.59
468.10	1689.57
468.30	1708.01
468.50	1800.16
468.71	1861.60
468.91	1683.43
469.11	1839.08
469.31	1751.01
469.52	1693.67
469.72	1802.21
469.92	1877.99
470.13	1703.91
470.33	1701.86
470.53	1843.17
470.73	2076.64
470.94	2211.81
471.14	2336.73
471.34	2533.34
471.54	2439.13
471.75	2193.37
471.95	2078.69
472.15	2084.83
472.36	1947.62
472.56	2078.69
472.76	1939.43
472.96	2004.96
473.17	1927.14
473.37	1916.90
473.57	1820.64
473.77	1771.49
473.98	1746.92
474.18	1722.34
474.38	1855.46
474.58	1701.86
474.79	1738.73
474.99	1816.55
475.19	1761.25
475.39	1626.09
475.60	1755.11
475.80	1722.34
476.00	1751.01
476.20	1601.51
476.41	1779.68
476.61	1898.47
476.81	1759.21
477.01	1646.57
477.21	1886.18
477.42	1841.12
477.62	1665.00
477.82	1746.92
478.02	1734.63
478.23	1765.35
478.43	1648.61
478.63	1716.20
478.83	1703.91
479.03	1738.73
479.24	1900.52
479.44	1794.02
479.64	1583.08
479.84	1593.32
480.04	1656.81
480.25	1705.96
480.45	1611.75
480.65	1724.39
480.85	1757.16
481.06	1724.39
481.26	1640.42
481.46	1755.11
481.66	1757.16
481.86	1665.00
482.06	1767.40
482.27	1681.38
482.47	1738.73
482.67	1681.38
482.87	1697.77
483.07	1726.44
483.28	1691.62
483.48	1634.28
483.68	1748.97
483.88	1701.86
484.08	1632.23
484.29	1665.00
484.49	1621.99
484.69	1603.56
484.89	1771.49
485.09	1808.36
485.29	1751.01
485.50	1697.77
485.70	1695.72
485.90	1798.12
486.10	1820.64
486.30	1732.58
486.50	1820.64
486.71	1746.92
486.91	1744.87
487.11	1720.29
487.31	1689.57
487.51	1673.19
487.71	1630.18
487.91	1626.09
488.12	1722.34
488.32	1615.85
488.52	1761.25
488.72	1650.66
488.92	1779.68
489.12	1755.11
489.32	1806.31
489.53	1679.33
489.73	1613.80
489.93	1734.63
490.13	1681.38
490.33	1538.02
490.53	1740.77
490.73	1730.53
490.94	1656.81
491.14	1812.45
491.34	1777.64
491.54	2111.46
491.74	2553.82
491.94	2879.44
492.14	2998.23
492.34	2932.69
492.54	2738.13
492.75	2463.71
492.95	2367.45
493.15	2330.59
493.35	2258.91
493.55	2230.24
493.75	2205.66
493.95	2164.70
494.15	1996.77
494.35	1859.56
494.56	1804.26
494.76	1728.49
494.96	1732.58
495.16	1775.59
495.36	1697.77
495.56	1734.63
495.76	1744.87
495.96	1683.43
496.16	1628.14
496.36	1906.66
496.56	1841.12
496.77	1767.40
496.97	1689.57
497.17	1748.97
497.37	1658.85
497.57	1714.15
497.77	1744.87
497.97	1621.99
498.17	1705.96
498.37	1751.01
498.57	1810.40
498.77	1710.05
498.97	1826.79
499.17	1845.22
499.38	1746.92
499.58	1611.75
499.78	1804.26
499.98	1787.88
500.18	1746.92
500.38	1648.61
500.58	1853.41
500.78	2523.10
500.98	4501.44
501.18	5810.09
501.38	6590.36
501.58	7006.10
501.78	6688.67
501.98	5416.88
502.18	4872.12
502.38	4325.31
502.58	4118.47
502.78	3702.73
502.98	3585.99
503.18	3323.85
503.38	3141.58
503.59	2897.88
503.79	2680.79
503.99	2424.80
504.19	2342.88
504.39	2181.09
504.59	2084.83
504.79	2099.17
504.99	2035.68
505.19	1894.37
505.39	1855.46
505.59	1908.71
505.79	1882.08
505.99	1779.68
506.19	1777.64
506.39	1789.92
506.59	1796.07
506.79	1767.40
506.99	1865.70
507.19	1697.77
507.39	1777.64
507.59	1675.24
507.79	1730.53
507.99	1681.38
508.19	1683.43
508.39	1681.38
508.59	1677.29
508.79	1896.42
508.99	1843.17
509.19	1722.34
509.39	1783.78
509.59	1697.77
509.79	1757.16
509.99	1687.53
510.19	1816.55
510.39	1816.55
510.59	1755.11
510.79	1685.48
510.99	1730.53
511.19	1779.68
511.39	1779.68
511.59	1740.77
511.79	1763.30
511.99	1734.63
512.19	1738.73
512.38	1722.34
512.58	1734.63
512.78	1665.00
512.98	1890.28
513.18	1810.40
513.38	1638.38
513.58	1755.11
513.78	1683.43
513.98	1744.87
514.18	1794.02
514.38	1681.38
514.58	1691.62
514.78	1693.67
514.98	1646.57
515.18	1642.47
515.38	1626.09
515.58	1853.41
515.78	1748.97
515.98	1681.38
516.18	1724.39
516.38	1712.10
516.57	1759.21
516.77	1671.14
516.97	1755.11
517.17	1644.52
517.37	1597.42
517.57	1751.01
517.77	1687.53
517.97	1665.00
518.17	1771.49
518.37	1669.09
518.57	1691.62
518.77	1660.90
518.97	1685.48
519.16	1744.87
519.36	1761.25
519.56	1757.16
519.76	1771.49
519.96	1742.82
520.16	1855.46
520.36	1730.53
520.56	1832.93
520.76	1718.25
520.96	1724.39
521.16	1779.68
521.35	1742.82
521.55	1847.27
521.75	1757.16
521.95	1708.01
522.15	1675.24
522.35	1624.04
522.55	1765.35
522.75	1839.08
522.95	1712.10
523.14	1640.42
523.34	1779.68
523.54	1722.34
523.74	1728.49
523.94	1761.25
524.14	1597.42
524.34	1796.07
524.54	1834.98
524.73	1681.38
524.93	1652.71
525.13	1742.82
525.33	1742.82
525.53	1832.93
525.73	1712.10
525.93	1718.25
526.13	1615.85
526.32	1703.91
526.52	1818.60
526.72	1796.07
526.92	1701.86
527.12	1726.44
527.32	1609.70
527.52	1718.25
527.71	1716.20
527.91	1751.01
528.11	1691.62
528.31	1734.63
528.51	1673.19
528.71	1787.88
528.90	1775.59
529.10	1804.26
529.30	1853.41
529.50	1558.50
529.70	1761.25
529.90	1710.05
530.09	1748.97
530.29	1699.81
530.49	1714.15
530.69	1845.22
530.89	1714.15
531.09	1761.25
531.28	1699.81
531.48	1785.83
531.68	1734.63
531.88	1767.40
532.08	1828.84
532.28	1714.15
532.47	1728.49
532.67	1789.92
532.87	1685.48
533.07	1730.53
533.27	1726.44
533.46	1785.83
533.66	1767.40
533.86	1660.90
534.06	1671.14
534.26	1742.82
534.45	1730.53
534.65	1775.59
534.85	1748.97
535.05	1669.09
535.25	1779.68
535.44	1656.81
535.64	1693.67
535.84	1679.33
536.04	1728.49
536.24	1726.44
536.43	1626.09
536.63	1693.67
536.83	1722.34
537.03	1710.05
537.22	1673.19
537.42	1701.86
537.62	1705.96
537.82	1652.71
538.02	1830.88
538.21	1781.73
538.41	1955.81
538.61	1748.97
538.81	1638.38
539.00	1783.78
539.20	1689.57
539.40	1646.57
539.60	1738.73
539.79	1718.25
539.99	1728.49
540.19	1796.07
540.39	1699.81
540.58	1689.57
540.78	1763.30
540.98	1701.86
541.18	1763.30
541.37	1806.31
541.57	1767.40
541.77	1687.53
541.97	1748.97
542.16	1628.14
542.36	1638.38
542.56	1796.07
542.76	1869.80
542.95	1744.87
543.15	1769.44
543.35	1759.21
543.54	1654.76
543.74	1667.05
543.94	1681.38
544.14	1685.48
544.33	1783.78
544.53	1734.63
544.73	1738.73
544.93	1736.68
545.12	1791.97
545.32	1722.34
545.52	1716.20
545.71	1714.15
545.91	1714.15
546.11	1714.15
546.30	1689.57
546.50	1685.48
546.70	1808.36
546.90	1769.44
547.09	1640.42
547.29	1710.05
547.49	1773.54
547.68	1757.16
547.88	1650.66
548.08	1779.68
548.27	2146.27
548.47	1806.31
548.67	1748.97
548.87	1802.21
549.06	1673.19
549.26	1843.17
549.46	1722.34
549.65	1740.77
549.85	1693.67
550.05	1751.01
550.24	1628.14
550.44	1718.25
550.64	1796.07
550.83	1714.15
551.03	1824.74
551.23	1677.29
551.42	1769.44
551.62	1742.82
551.82	1677.29
552.01	1722.34
552.21	1804.26
552.41	1691.62
552.60	1906.66
552.80	1806.31
553.00	1703.91
553.19	1742.82
553.39	1787.88
553.59	1656.81
553.78	1751.01
553.98	1777.64
554.17	1621.99
554.37	1843.17
554.57	1843.17
554.76	1665.00
554.96	1728.49
555.16	1732.58
555.35	1714.15
555.55	1806.31
555.75	1742.82
555.94	1767.40
556.14	1650.66
556.33	1802.21
556.53	1763.30
556.73	1751.01
556.92	1701.86
557.12	1808.36
557.32	1830.88
557.51	1812.45
557.71	1724.39
557.90	1828.84
558.10	1818.60
558.30	1720.29
558.49	1728.49
558.69	1634.28
558.88	1714.15
559.08	1742.82
559.28	1730.53
559.47	1755.11
559.67	1771.49
559.86	1877.99
560.06	1714.15
560.26	1744.87
560.45	1732.58
560.65	1681.38
560.84	1763.30
561.04	1765.35
561.24	1740.77
561.43	1667.05
561.63	1826.79
561.82	1757.16
562.02	1732.58
562.22	1669.09
562.41	1722.34
562.61	1787.88
562.80	1634.28
563.00	1869.80
563.19	1767.40
563.39	1779.68
563.59	1800.16
563.78	1695.72
563.98	1683.43
564.17	1656.81
564.37	1605.61
564.56	1755.11
564.76	1701.86
564.96	1804.26
565.15	1763.30
565.35	1912.80
565.54	1603.56
565.74	1701.86
565.93	1781.73
566.13	1708.01
566.32	1800.16
566.52	1767.40
566.71	1699.81
566.91	1757.16
567.11	1814.50
567.30	1697.77
567.50	1802.21
567.69	1753.06
567.89	1730.53
568.08	1685.48
568.28	1681.38
568.47	1644.52
568.67	1789.92
568.86	1660.90
569.06	1742.82
569.25	1787.88
569.45	1673.19
569.64	1798.12
569.84	1714.15
570.04	1767.40
570.23	1726.44
570.43	1740.77
570.62	1732.58
570.82	1845.22
571.01	1714.15
571.21	1665.00
571.40	1724.39
571.60	1730.53
571.79	1771.49
571.99	1798.12
572.18	1662.95
572.38	1710.05
572.57	1640.42
572.77	1705.96
572.96	1923.04
573.16	1787.88
573.35	1806.31
573.55	1730.53
573.74	1804.26
573.94	1748.97
574.13	1767.40
574.33	1765.35
574.52	1814.50
574.71	1771.49
574.91	1740.77
575.10	1689.57
575.30	1771.49
575.49	1689.57
575.69	1734.63
575.88	1730.53
576.08	1669.09
576.27	1796.07
576.47	1748.97
576.66	1888.23
576.86	1892.32
577.05	1716.20
577.25	1710.05
577.44	1804.26
577.64	1691.62
577.83	1732.58
578.02	1652.71
578.22	1853.41
578.41	1845.22
578.61	1802.21
578.80	1714.15
579.00	1765.35
579.19	1726.44
579.39	1742.82
579.58	1791.97
579.77	1753.06
579.97	1796.07
580.16	1738.73
580.36	1796.07
580.55	1783.78
580.75	1732.58
580.94	1681.38
581.13	1820.64
581.33	1847.27
581.52	1718.25
581.72	1832.93
581.91	1904.61
582.11	1757.16
582.30	1726.44
582.49	1718.25
582.69	1886.18
582.88	1781.73
583.08	1777.64
583.27	1699.81
583.47	1789.92
583.66	1820.64
583.85	1697.77
584.05	1718.25
584.24	1798.12
584.44	1789.92
584.63	1732.58
584.82	1755.11
585.02	1800.16
585.21	1798.12
585.41	1855.46
585.60	1802.21
585.79	1855.46
585.99	1931.23
586.18	1929.19
586.37	2111.46
586.57	3366.86
586.76	9860.97
586.96	24006.29
587.15	33998.33
587.34	39753.12
587.54	41780.61
587.73	36081.11
587.93	25906.80
588.12	21399.23
588.31	18134.76
588.51	16275.21
588.70	15030.04
588.89	14167.85
589.09	12607.30
589.28	10882.91
589.47	9279.35
589.67	7858.06
589.86	6301.60
590.06	4794.29
590.25	3915.72
590.44	3028.95
590.64	2523.10
590.83	2285.53
591.02	2074.59
591.22	1902.56
591.41	1939.43
591.60	1773.54
591.80	1935.33
591.99	1779.68
592.18	1841.12
592.38	1832.93
592.57	1705.96
592.76	1763.30
592.96	1802.21
593.15	1716.20
593.34	1845.22
593.54	1732.58
593.73	1748.97
593.92	1824.74
594.12	1712.10
594.31	1730.53
594.50	1779.68
594.70	1804.26
594.89	1810.40
595.08	1697.77
595.28	1771.49
595.47	1927.14
595.66	1763.30
595.86	1785.83
596.05	1816.55
596.24	1712.10
596.43	1837.03
596.63	1834.98
596.82	1738.73
597.01	1722.34
597.21	1861.60
597.40	1767.40
597.59	1718.25
597.79	1763.30
597.98	1767.40
598.17	1757.16
598.36	1773.54
598.56	1789.92
598.75	1787.88
598.94	1781.73
599.14	1751.01
599.33	1753.06
599.52	1730.53
599.71	1740.77
599.91	1880.04
600.10	1767.40
600.29	1757.16
600.48	1744.87
600.68	1693.67
600.87	1816.55
601.06	1710.05
601.26	1837.03
601.45	1732.58
601.64	1628.14
601.83	1789.92
602.03	1705.96
602.22	1691.62
602.41	1798.12
602.60	1886.18
602.80	1689.57
602.99	1777.64
603.18	1673.19
603.37	1751.01
603.57	1798.12
603.76	1816.55
603.95	1767.40
604.14	1734.63
604.34	1677.29
604.53	1787.88
604.72	1714.15
604.91	1777.64
605.10	1765.35
605.30	1634.28
605.49	1841.12
605.68	1791.97
605.87	1767.40
606.07	1712.10
606.26	1662.95
606.45	1746.92
606.64	1748.97
606.84	1703.91
607.03	1677.29
607.22	1814.50
607.41	1726.44
607.60	1757.16
607.80	1742.82
607.99	1705.96
608.18	1808.36
608.37	1740.77
608.56	1736.68
608.76	1767.40
608.95	1814.50
609.14	1779.68
609.33	1730.53
609.52	1691.62
609.72	1763.30
609.91	1837.03
610.10	1841.12
610.29	1849.32
610.48	1740.77
610.68	1751.01
610.87	1712.10
611.06	1748.97
611.25	1687.53
611.44	1824.74
611.63	1730.53
611.83	1812.45
612.02	1654.76
612.21	1808.36
612.40	1613.80
612.59	1632.23
612.79	1691.62
612.98	1759.21
613.17	1710.05
613.36	1746.92
613.55	1812.45
613.74	1681.38
613.93	1685.48
614.13	1697.77
614.32	1796.07
614.51	1689.57
614.70	1683.43
614.89	1699.81
615.08	1728.49
615.28	2050.02
615.47	1703.91
615.66	1712.10
615.85	1757.16
616.04	1834.98
616.23	1796.07
616.42	1730.53
616.62	1705.96
616.81	1771.49
617.00	1689.57
617.19	1767.40
617.38	1656.81
617.57	1740.77
617.76	1783.78
617.95	1779.68
618.15	1781.73
618.34	1789.92
618.53	1624.04
618.72	1746.92
618.91	1857.51
619.10	1851.36
619.29	1646.57
619.48	1748.97
619.68	1726.44
619.87	1671.14
620.06	1628.14
620.25	1779.68
620.44	1705.96
620.63	1681.38
620.82	1751.01
621.01	1751.01
621.20	1738.73
621.39	1689.57
621.59	1730.53
621.78	1716.20
621.97	1675.24
622.16	1771.49
622.35	1671.14
622.54	1687.53
622.73	1798.12
622.92	1652.71
623.11	1716.20
623.30	1736.68
623.49	1779.68
623.68	1779.68
623.88	1744.87
624.07	1673.19
624.26	1718.25
624.45	1724.39
624.64	1677.29
624.83	1767.40
625.02	1642.47
625.21	1724.39
625.40	1787.88
625.59	1798.12
625.78	1677.29
625.97	1751.01
626.16	1814.50
626.35	1787.88
626.54	1656.81
626.74	1787.88
626.93	1673.19
627.12	1722.34
627.31	1748.97
627.50	1679.33
627.69	1755.11
627.88	1720.29
628.07	1736.68
628.26	1634.28
628.45	1683.43
628.64	1621.99
628.83	1771.49
629.02	1607.66
629.21	1785.83
629.40	1773.54
629.59	1665.00
629.78	1722.34
629.97	1656.81
630.16	1714.15
630.35	1646.57
630.54	1746.92
630.73	1654.76
630.92	1816.55
631.11	1685.48
631.30	1658.85
631.49	1763.30
631.68	1691.62
631.87	1714.15
632.06	1679.33
632.25	1830.88
632.44	1679.33
632.63	1722.34
632.82	1710.05
633.01	1587.18
633.20	1748.97
633.39	1728.49
633.58	1652.71
633.77	1769.44
633.96	1716.20
634.15	1730.53
634.34	1652.71
634.53	1712.10
634.72	1640.42
634.91	1607.66
635.10	1691.62
635.29	1689.57
635.48	1656.81
635.67	1679.33
635.86	1710.05
636.05	1787.88
636.24	1648.61
636.43	1732.58
636.62	1755.11
636.81	1572.84
637.00	1667.05
637.19	1742.82
637.38	1732.58
637.57	1648.61
637.76	1685.48
637.95	1708.01
638.14	1591.27
638.33	1710.05
638.52	1679.33
638.71	1652.71
638.89	1615.85
639.08	1896.42
639.27	1714.15
639.46	1705.96
639.65	1863.65
639.84	1771.49
640.03	1773.54
640.22	1740.77
640.41	1789.92
640.60	1679.33
640.79	1705.96
640.98	1740.77
641.17	1802.21
641.36	1714.15
641.55	1730.53
641.74	1648.61
641.92	1652.71
642.11	1701.86
642.30	1763.30
642.49	1673.19
642.68	1691.62
642.87	1789.92
643.06	1816.55
643.25	1652.71
643.44	1613.80
643.63	1722.34
643.82	1748.97
644.00	1665.00
644.19	1720.29
644.38	1744.87
644.57	1732.58
644.76	1683.43
644.95	1728.49
645.14	1736.68
645.33	1746.92
645.52	1648.61
645.71	1648.61
645.89	1662.95
646.08	1726.44
646.27	1644.52
646.46	1880.04
646.65	1609.70
646.84	1695.72
647.03	1607.66
647.22	1769.44
647.40	1751.01
647.59	1642.47
647.78	1665.00
647.97	1667.05
648.16	1632.23
648.35	1771.49
648.54	1765.35
648.73	1705.96
648.91	1724.39
649.10	1722.34
649.29	1652.71
649.48	1689.57
649.67	1681.38
649.86	1673.19
650.05	1677.29
650.23	1769.44
650.42	1671.14
650.61	1740.77
650.80	1714.15
650.99	1847.27
651.18	1796.07
651.36	1679.33
651.55	1619.94
651.74	1738.73
651.93	1636.33
652.12	1681.38
652.31	1583.08
652.49	1568.74
652.68	1671.14
652.87	1730.53
653.06	1751.01
653.25	1759.21
653.44	1701.86
653.62	1812.45
653.81	1785.83
654.00	1730.53
654.19	1669.09
654.38	1873.89
654.56	1720.29
654.75	1673.19
654.94	1689.57
655.13	1671.14
655.32	1746.92
655.51	1730.53
655.69	1638.38
655.88	1775.59
656.07	1683.43
656.26	1751.01
656.45	1708.01
656.63	1656.81
656.82	1812.45
657.01	1757.16
657.20	1689.57
657.38	1738.73
657.57	1699.81
657.76	1585.13
657.95	1744.87
658.14	1679.33
658.32	1728.49
658.51	1746.92
658.70	1740.77
658.89	1736.68
659.08	1679.33
659.26	1800.16
659.45	1583.08
659.64	1779.68
659.83	1751.01
660.01	1929.19
660.20	1757.16
660.39	1751.01
660.58	1589.22
660.76	1751.01
660.95	1626.09
661.14	1753.06
661.33	1607.66
661.51	1767.40
661.70	1703.91
661.89	1746.92
662.08	1648.61
662.26	1656.81
662.45	1683.43
662.64	1863.65
662.83	1712.10
663.01	1714.15
663.20	1751.01
663.39	1802.21
663.58	1677.29
663.76	1636.33
663.95	1841.12
664.14	1603.56
664.32	1658.85
664.51	1615.85
664.70	1656.81
664.89	1732.58
665.07	1667.05
665.26	1791.97
665.45	1714.15
665.64	1814.50
665.82	1744.87
666.01	1755.11
666.20	1683.43
666.38	1765.35
666.57	1738.73
666.76	2187.23
666.95	4528.06
667.13	10202.98
667.32	15091.48
667.51	17557.24
667.69	18611.94
667.88	17350.39
668.07	12259.14
668.25	9422.70
668.44	7964.55
668.63	7049.11
668.81	6844.31
669.00	6096.80
669.19	5638.06
669.38	5023.67
669.56	4351.93
669.75	3899.33
669.94	3334.09
670.12	2846.68
670.31	2576.34
670.50	2277.34
670.68	1976.29
670.87	1849.32
671.06	1785.83
671.24	1828.84
671.43	1781.73
671.62	1738.73
671.80	1748.97
671.99	1738.73
672.18	1779.68
672.36	1736.68
672.55	1728.49
672.74	1736.68
672.92	1691.62
673.11	1744.87
673.29	1617.90
673.48	1648.61
673.67	1710.05
673.85	1814.50
674.04	1746.92
674.23	1716.20
674.41	1855.46
674.60	1621.99
674.79	1667.05
674.97	1701.86
675.16	1687.53
675.34	1767.40
675.53	1695.72
675.72	1751.01
675.90	1789.92
676.09	1718.25
676.28	1677.29
676.46	1613.80
676.65	1804.26
676.83	1697.77
677.02	1669.09
677.21	1722.34
677.39	1716.20
677.58	1624.04
677.77	1591.27
677.95	1656.81
678.14	1615.85
678.32	1691.62
678.51	1734.63
678.70	1857.51
678.88	1650.66
679.07	1726.44
679.25	1726.44
679.44	1746.92
679.63	1685.48
679.81	1669.09
680.00	1724.39
680.18	1755.11
680.37	1736.68
680.55	1734.63
680.74	1665.00
680.93	1578.98
681.11	1701.86
681.30	1648.61
681.48	1691.62
681.67	1740.77
681.85	1697.77
682.04	1689.57
682.23	1777.64
682.41	1640.42
682.60	1693.67
682.78	1626.09
682.97	1744.87
683.15	1722.34
683.34	1726.44
683.53	1767.40
683.71	1658.85
683.90	1753.06
684.08	1812.45
684.27	1705.96
684.45	1800.16
684.64	1724.39
684.82	1671.14
685.01	1763.30
685.19	1691.62
685.38	1845.22
685.57	1738.73
685.75	1624.04
685.94	1701.86
686.12	1626.09
686.31	1701.86
686.49	1787.88
686.68	1630.18
686.86	1740.77
687.05	1656.81
687.23	1798.12
687.42	1699.81
687.60	1601.51
687.79	1685.48
687.97	1779.68
688.16	1841.12
688.34	1714.15
688.53	1574.89
688.71	1724.39
688.90	1771.49
689.08	1714.15
689.27	1669.09
689.45	1767.40
689.64	1779.68
689.82	1742.82
690.01	1712.10
690.19	1734.63
690.38	1767.40
690.56	1691.62
690.75	1644.52
690.93	1685.48
691.12	1699.81
691.30	1677.29
691.49	1681.38
691.67	1708.01
691.86	1828.84
692.04	1652.71
692.23	1689.57
692.41	1732.58
692.60	1832.93
692.78	1744.87
692.97	1683.43
693.15	1730.53
693.34	1867.75
693.52	1814.50
693.71	1665.00
693.89	1650.66
694.08	1630.18
694.26	1824.74
694.44	1744.87
694.63	1763.30
694.81	1677.29
695.00	1673.19
695.18	1730.53
695.37	1853.41
695.55	1730.53
695.74	1671.14
695.92	1605.61
696.10	1759.21
696.29	1673.19
696.47	1695.72
696.66	1697.77
696.84	1626.09
697.03	1644.52
697.21	1771.49
697.40	2324.44
697.58	1746.92
697.76	1767.40
697.95	1642.47
698.13	1699.81
698.32	1632.23
698.50	1689.57
698.68	1730.53
698.87	1728.49
699.05	1765.35
699.24	1701.86
699.42	1689.57
699.61	1730.53
699.79	1679.33
699.97	1751.01
700.16	1677.29
700.34	1576.94
700.53	1738.73
700.71	1837.03
700.89	1834.98
701.08	1705.96
701.26	1796.07
701.45	2088.93
701.63	1648.61
701.81	1685.48
702.00	1693.67
702.18	1775.59
702.37	1640.42
702.55	1628.14
702.73	1660.90
702.92	1636.33
703.10	1736.68
703.28	1710.05
703.47	1683.43
703.65	1718.25
703.84	1779.68
704.02	1710.05
704.20	1757.16
704.39	1734.63
704.57	1667.05
704.75	1718.25
704.94	1697.77
705.12	1732.58
705.30	1757.16
705.49	2265.05
705.67	4452.28
705.86	9348.98
706.04	12502.85
706.22	14305.06
706.41	15230.74
706.59	13610.80
706.77	9561.97
706.96	7448.46
707.14	6467.49
707.32	5898.15
707.51	5562.28
707.69	4855.73
707.87	4216.77
708.06	3565.51
708.24	3004.37
708.42	2439.13
708.61	2181.09
708.79	1898.47
708.97	1877.99
709.16	1791.97
709.34	1728.49
709.52	1695.72
709.71	1722.34
709.89	1701.86
710.07	1705.96
710.26	1550.31
710.44	1751.01
710.62	1800.16
710.80	1673.19
710.99	1757.16
711.17	1683.43
711.35	1708.01
711.54	1681.38
711.72	1822.69
711.90	1753.06
712.09	1804.26
712.27	1632.23
712.45	1726.44
712.63	1708.01
712.82	1730.53
713.00	1736.68
713.18	1787.88
713.37	1714.15
713.55	1689.57
713.73	1779.68
713.91	1705.96
714.10	1728.49
714.28	1738.73
714.46	1718.25
714.65	1742.82
714.83	1726.44
715.01	1738.73
715.19	1820.64
715.38	1650.66
715.56	1662.95
715.74	1710.05
715.92	1677.29
716.11	1763.30
716.29	1566.70
716.47	1734.63
716.65	1679.33
716.84	1646.57
717.02	1724.39
717.20	1693.67
717.38	1738.73
717.57	1728.49
717.75	1662.95
717.93	1658.85
718.11	1695.72
718.30	1708.01
718.48	1755.11
718.66	1740.77
718.84	1697.77
719.03	1724.39
719.21	1667.05
719.39	1880.04
719.57	1728.49
719.75	1775.59
719.94	1720.29
720.12	1710.05
720.30	1755.11
720.48	1730.53
720.67	1652.71
720.85	1628.14
721.03	1691.62
721.21	1619.94
721.39	1824.74
721.58	1673.19
721.76	1685.48
721.94	1734.63
722.12	1714.15
722.30	1816.55
722.49	1646.57
722.67	1687.53
722.85	1675.24
723.03	1658.85
723.21	1681.38
723.40	1677.29
723.58	1746.92
723.76	1765.35
723.94	1714.15
724.12	1728.49
724.30	1804.26
724.49	1771.49
724.67	1621.99
724.85	1779.68
725.03	1601.51
725.21	1697.77
725.40	1757.16
725.58	1665.00
725.76	1748.97
725.94	1662.95
726.12	1699.81
726.30	1734.63
726.49	1724.39
726.67	1679.33
726.85	1751.01
727.03	1734.63
727.21	2115.55
727.39	2899.92
727.57	3827.65
727.76	4255.68
727.94	4427.71
728.12	4274.11
728.30	3647.43
728.48	2953.17
728.66	2762.71
728.84	2549.72
729.03	2416.60
729.21	2144.22
729.39	1943.52
729.57	1828.84
729.75	1837.03
729.93	1859.56
730.11	1675.24
730.30	1697.77
730.48	1652.71
730.66	1806.31
730.84	1701.86
731.02	1716.20
731.20	1677.29
731.38	1720.29
731.56	1691.62
731.74	1613.80
731.93	1755.11
732.11	1675.24
732.29	1671.14
732.47	1742.82
732.65	1730.53
732.83	1865.70
733.01	1710.05
733.19	1748.97
733.37	1673.19
733.56	1730.53
733.74	1648.61
733.92	1791.97
734.10	1714.15
734.28	1806.31
734.46	1583.08
734.64	1687.53
734.82	1652.71
735.00	1677.29
735.18	1689.57
735.36	1761.25
735.54	1720.29
735.73	1740.77
735.91	1656.81
736.09	1744.87
736.27	1718.25
736.45	1703.91
736.63	1556.46
736.81	1710.05
736.99	1785.83
737.17	1716.20
737.35	1650.66
737.53	1687.53
737.71	1683.43
737.89	1839.08
738.07	1660.90
738.25	1667.05
738.43	1570.79
738.61	1728.49
738.80	1615.85
738.98	1705.96
739.16	1722.34
739.34	1687.53
739.52	1818.60
739.70	1693.67
739.88	1765.35
740.06	1746.92
740.24	1521.64
740.42	1802.21
740.60	1689.57
740.78	1652.71
740.96	1624.04
741.14	1708.01
741.32	1800.16
741.50	1611.75
741.68	1886.18
741.86	1800.16
742.04	1640.42
742.22	1667.05
742.40	1695.72
742.58	1781.73
742.76	1681.38
742.94	1748.97
743.12	1615.85
743.30	1640.42
743.48	1675.24
743.66	1705.96
743.84	1642.47
744.02	1689.57
744.20	1781.73
744.38	1599.46
744.56	1691.62
744.74	1820.64
744.92	1675.24
745.10	1785.83
745.28	1738.73
745.46	1830.88
745.64	1718.25
745.82	1724.39
746.00	1728.49
746.18	1775.59
746.36	1611.75
746.54	1785.83
746.72	1718.25
746.90	1697.77
747.08	1740.77
747.26	1736.68
747.44	1751.01
747.62	1724.39
747.80	1701.86
747.98	1769.44
748.15	1660.90
748.33	1800.16
748.51	1703.91
748.69	1730.53
748.87	1681.38
749.05	1681.38
749.23	1683.43
749.41	1771.49
749.59	1640.42
749.77	1738.73
749.95	1652.71
750.13	1695.72
750.31	1732.58
750.49	1718.25
750.67	1695.72
750.85	1798.12
751.03	1787.88
751.20	1871.84
751.38	1742.82
751.56	1748.97
751.74	1740.77
751.92	1691.62
752.10	1621.99
752.28	1742.82
752.46	1693.67
752.64	1703.91
752.82	1636.33
753.00	1773.54
753.18	1599.46
753.35	1671.14
753.53	1650.66
753.71	1564.65
753.89	1691.62
754.07	1644.52
754.25	1683.43
754.43	1695.72
754.61	1615.85
754.79	1691.62
754.97	1609.70
755.14	1742.82
755.32	1568.74
755.50	1687.53
755.68	1689.57
755.86	1576.94
756.04	1634.28
756.22	1611.75
756.40	1722.34
756.57	1802.21
756.75	1644.52
756.93	1728.49
757.11	1781.73
757.29	1701.86
757.47	1609.70
757.65	1603.56
757.82	1597.42
758.00	1609.70
758.18	1726.44
758.36	1673.19
758.54	1748.97
758.72	1646.57
758.90	1763.30
759.07	1761.25
759.25	1656.81
759.43	1714.15
759.61	1591.27
759.79	2156.51
759.97	1777.64
760.15	1683.43
760.32	1697.77
760.50	1697.77
760.68	1818.60
760.86	1638.38
761.04	1787.88
761.22	1783.78
761.39	1722.34
761.57	1681.38
761.75	1687.53
761.93	1697.77
762.11	1699.81
762.28	1660.90
762.46	1675.24
762.64	1697.77
762.82	1642.47
763.00	1732.58
763.18	1736.68
763.35	1605.61
763.53	1734.63
763.71	1669.09
763.89	1763.30
764.07	1677.29
764.24	1685.48
764.42	1718.25
764.60	1689.57
764.78	1767.40
764.96	1701.86
765.13	1697.77
765.31	1736.68
765.49	1712.10
765.67	1667.05
765.84	1683.43
766.02	1605.61
766.20	1554.41
766.38	1642.47
766.56	1679.33
766.73	1755.11
766.91	1720.29
767.09	1712.10
767.27	1757.16
767.44	1656.81
767.62	1771.49
767.80	1681.38
767.98	1669.09
768.15	1658.85
768.33	1779.68
768.51	1763.30
768.69	1753.06
768.87	1751.01
769.04	1710.05
769.22	1937.38
769.40	1791.97
769.58	1845.22
769.75	1681.38
769.93	1751.01
770.11	1728.49
770.28	1572.84
770.46	1665.00
770.64	1667.05
770.82	1757.16
770.99	1658.85
771.17	1740.77
771.35	1722.34
771.53	1728.49
771.70	1681.38
771.88	1652.71
772.06	1681.38
772.23	1736.68
772.41	1697.77
772.59	1757.16
772.77	1677.29
772.94	1636.33
773.12	1667.05
773.30	1738.73
773.47	1761.25
773.65	1671.14
773.83	1787.88
774.01	1591.27
774.18	1615.85
774.36	1740.77
774.54	1624.04
774.71	1691.62
774.89	1554.41
775.07	1699.81
775.24	1644.52
775.42	1746.92
775.60	1791.97
775.78	1640.42
775.95	1673.19
776.13	1640.42
776.31	1603.56
776.48	1681.38
776.66	1730.53
776.84	1638.38
777.01	1603.56
777.19	1671.14
777.37	1705.96
777.54	1763.30
777.72	1798.12
777.90	1710.05
778.07	1615.85
778.25	1837.03
778.43	1693.67
778.60	1646.57
778.78	1701.86
778.96	1755.11
779.13	1617.90
779.31	1673.19
779.49	1732.58
779.66	1689.57
779.84	1646.57
780.01	1591.27
780.19	1675.24
780.37	1822.69
780.54	1769.44
780.72	1697.77
780.90	1689.57
781.07	1703.91
781.25	1658.85
781.43	1759.21
781.60	1757.16
781.78	1757.16
781.95	1669.09
782.13	1701.86
782.31	1740.77
782.48	1667.05
782.66	1662.95
782.83	1751.01
783.01	1693.67
783.19	1753.06
783.36	1640.42
783.54	1658.85
783.72	1738.73
783.89	1658.85
784.07	1708.01
784.24	1660.90
784.42	1730.53
784.60	1673.19
784.77	1767.40
784.95	1574.89
785.12	1697.77
785.30	1785.83
785.47	1712.10
785.65	1648.61
785.83	1699.81
786.00	1667.05
786.18	1708.01
786.35	1708.01
786.53	1665.00
786.71	1701.86
786.88	1755.11
787.06	1744.87
787.23	1687.53
787.41	1679.33
787.58	1699.81
787.76	1621.99
787.94	1710.05
788.11	1761.25
788.29	1662.95
788.46	1648.61
788.64	1624.04
788.81	1728.49
788.99	1671.14
789.16	1638.38
789.34	1695.72
789.52	1607.66
789.69	1581.03
789.87	1644.52
790.04	1689.57
790.22	1744.87
790.39	1816.55
790.57	1656.81
790.74	1671.14
790.92	1728.49
791.09	1640.42
791.27	1656.81
791.44	1746.92
791.62	1718.25
791.79	1751.01
791.97	1757.16
792.15	1853.41
792.32	1683.43
792.50	1701.86
792.67	1753.06
792.85	1748.97
793.02	1691.62
793.20	1710.05
793.37	1652.71
793.55	1656.81
793.72	1613.80
793.90	1716.20
794.07	1597.42
794.25	1640.42
794.42	1691.62
794.60	1730.53
794.77	1746.92
794.95	1701.86
795.12	1771.49
795.30	1636.33
795.47	1634.28
795.65	1937.38
795.82	1648.61
796.00	1628.14
796.17	1632.23
796.34	1685.48
796.52	1759.21
796.69	1806.31
796.87	1726.44
797.04	1742.82
797.22	1671.14
797.39	1656.81
797.57	1751.01
797.74	1843.17
797.92	1714.15
798.09	1667.05
798.27	1740.77
798.44	1751.01
798.62	1648.61
798.79	1697.77
798.96	1701.86
799.14	1734.63
799.31	1769.44
799.49	1609.70
799.66	1695.72
799.84	1662.95
800.01	1601.51
800.19	1716.20
800.36	1693.67
800.53	1685.48
800.71	1714.15
800.88	1830.88
801.06	1679.33
801.23	1683.43
801.41	1738.73
801.58	1695.72
801.75	1667.05
801.93	1658.85
802.10	1738.73
802.28	1685.48
802.45	1640.42
802.63	1716.20
802.80	1742.82
802.97	1648.61
803.15	1675.24
803.32	1669.09
803.50	1697.77
803.67	1660.90
803.84	1693.67
804.02	1736.68
804.19	1716.20
804.37	1597.42
804.54	1578.98
804.71	1693.67
804.89	1730.53
805.06	1603.56
805.24	1658.85
805.41	1652.71
805.58	1708.01
805.76	1736.68
805.93	1720.29
806.10	1742.82
806.28	1734.63
806.45	1728.49
806.63	1765.35
806.80	1712.10
806.97	1669.09
807.15	1687.53
807.32	1683.43
807.49	1730.53
807.67	1656.81
807.84	1691.62
808.01	1624.04
808.19	1822.69
808.36	1828.84
808.54	1705.96
808.71	1576.94
808.88	1714.15
809.06	1730.53
809.23	1718.25
809.40	1619.94
809.58	1740.77
809.75	1695.72
809.92	1650.66
810.10	1800.16
810.27	1609.70
810.44	1820.64
810.62	1828.84
810.79	1710.05
810.96	1685.48
811.14	1662.95
811.31	1703.91
811.48	1710.05
811.66	1720.29
811.83	1742.82
812.00	1763.30
812.18	1730.53
812.35	1830.88
812.52	1705.96
812.69	1615.85
812.87	1673.19
813.04	1626.09
813.21	1632.23
813.39	1605.61
813.56	1578.98
813.73	1751.01
813.91	1619.94
814.08	1658.85
814.25	1705.96
814.42	1597.42
814.60	1689.57
814.77	1689.57
814.94	1701.86
815.12	1771.49
815.29	1755.11
815.46	1671.14
815.63	1613.80
815.81	1681.38
815.98	1654.76
816.15	1648.61
816.33	1710.05
816.50	1595.37
816.67	1601.51
816.84	1701.86
817.02	1665.00
817.19	1691.62
817.36	1724.39
817.53	1718.25
817.71	1660.90
817.88	1658.85
818.05	1662.95
818.22	1642.47
818.40	1796.07
818.57	1646.57
818.74	1730.53
818.91	1626.09
819.09	1738.73
819.26	1734.63
819.43	1648.61
819.60	1652.71
819.78	1726.44
819.95	1853.41
820.12	1646.57
820.29	1658.85
820.47	1736.68
820.64	1658.85
820.81	1607.66
820.98	1628.14
821.15	1656.81
821.33	1763.30
821.50	1626.09
821.67	1740.77
821.84	1691.62
822.02	1808.36
822.19	1759.21
822.36	1697.77
822.53	1656.81
822.70	1607.66
822.88	1724.39
823.05	1742.82
823.22	1748.97
823.39	1740.77
823.56	1632.23
823.74	1740.77
823.91	1621.99
824.08	1648.61
824.25	1621.99
824.42	1800.16
824.60	1632.23
824.77	1748.97
824.94	1773.54
825.11	1689.57
825.28	1624.04
825.45	1695.72
825.63	1773.54
825.80	1628.14
825.97	1705.96
826.14	1718.25
826.31	1656.81
826.48	1640.42
826.66	1689.57
826.83	1652.71
827.00	1724.39
827.17	1675.24
827.34	1677.29
827.51	1599.46
827.69	1703.91
827.86	1689.57
828.03	1695.72
828.20	1708.01
828.37	1689.57
828.54	1691.62
828.71	1654.76
828.89	1751.01
829.06	1736.68
829.23	1804.26
829.40	1748.97
829.57	1718.25
829.74	1744.87
829.91	1673.19
830.09	1665.00
830.26	1728.49
830.43	1705.96
830.60	1697.77
830.77	1667.05
830.94	1757.16
831.11	1724.39
831.28	1759.21
831.46	1716.20
831.63	1636.33
831.80	1781.73
831.97	1730.53
832.14	1708.01
832.31	1654.76
832.48	1720.29
832.65	1736.68
832.82	1763.30
832.99	1681.38
833.17	1712.10
833.34	1771.49
833.51	1757.16
833.68	1673.19
833.85	1816.55
834.02	1691.62
834.19	1685.48
834.36	1669.09
834.53	1724.39
834.70	1728.49
834.87	1757.16
835.04	1730.53
835.22	1585.13
835.39	1718.25
835.56	1648.61
835.73	1654.76
835.90	1767.40
836.07	1595.37
836.24	1808.36
836.41	1705.96
836.58	1628.14
836.75	1777.64
836.92	1714.15
837.09	1568.74
837.26	1748.97
837.43	1685.48
837.60	1624.04
837.77	1615.85
837.94	1751.01
838.12	1644.52
838.29	1718.25
838.46	1691.62
838.63	1652.71
838.80	1765.35
838.97	1759.21
839.14	1757.16
839.31	1703.91
839.48	1650.66
839.65	1742.82
839.82	1724.39
839.99	1679.33
840.16	1783.78
840.33	1716.20
840.50	1691.62
840.67	1626.09
840.84	1611.75
841.01	1718.25
841.18	1744.87
841.35	1669.09
841.52	1736.68
841.69	1865.70
841.86	1642.47
842.03	1716.20
842.20	1779.68
842.37	1718.25
842.54	1695.72
842.71	1687.53
842.88	1570.79
843.05	1746.92
843.22	1679.33
843.39	1705.96
843.56	1660.90
843.73	1646.57
843.90	1732.58
844.07	1703.91
844.24	1724.39
844.41	1769.44
844.58	1736.68
844.75	1732.58
844.92	1714.15
845.09	1660.90
845.26	1646.57
845.43	1722.34
845.60	1638.38
845.77	1693.67
845.94	1697.77
846.10	1746.92
846.27	1619.94
846.44	1599.46
846.61	1658.85
846.78	1726.44
846.95	1789.92
847.12	1701.86
847.29	1705.96
847.46	1673.19
847.63	1767.40
847.80	1656.81
847.97	1640.42
848.14	1765.35
848.31	1560.55
848.48	1642.47
848.65	1734.63
848.82	1703.91
848.98	1740.77
849.15	1714.15
849.32	1853.41
849.49	1787.88
849.66	1701.86
849.83	1658.85
850.00	1593.32
850.17	1746.92
850.34	1691.62
850.51	1591.27
850.68	1761.25
850.85	1794.02
851.01	1662.95
851.18	1699.81
851.35	1615.85
851.52	1775.59
851.69	1742.82
851.86	1587.18
852.03	1673.19
852.20	1685.48
852.37	1665.00
852.53	1634.28
852.70	1718.25
852.87	1714.15
853.04	1765.35
853.21	1656.81
853.38	1740.77
853.55	1767.40
853.72	1775.59
853.89	1689.57
854.05	1677.29
854.22	1683.43
854.39	1718.25
854.56	1677.29
854.73	1751.01
854.90	1636.33
855.07	1724.39
855.23	1660.90
855.40	1624.04
855.57	1658.85
855.74	1640.42
855.91	1873.89
856.08	1601.51
856.25	1648.61
856.41	1675.24
856.58	1650.66
856.75	1665.00
856.92	1689.57
857.09	1771.49
857.26	1650.66
857.42	1667.05
857.59	1759.21
857.76	1673.19
857.93	1728.49
858.10	1683.43
858.27	1689.57
858.43	1677.29
858.60	1613.80
858.77	1650.66
858.94	1619.94
859.11	1705.96
859.27	1650.66
859.44	1697.77
859.61	1804.26
859.78	1730.53
859.95	1716.20
860.12	1710.05
860.28	1781.73
860.45	1779.68
860.62	1691.62
860.79	1652.71
860.95	1744.87
861.12	1652.71
861.29	1615.85
861.46	1628.14
861.63	1685.48
861.79	1703.91
861.96	1603.56
862.13	1675.24
862.30	1761.25
862.47	1703.91
862.63	1665.00
862.80	1777.64
862.97	1734.63
863.14	1810.40
863.30	1757.16
863.47	1654.76
863.64	1834.98
863.81	1681.38
863.97	1650.66
864.14	1691.62
864.31	1685.48
864.48	1712.10
864.65	1701.86
864.81	1802.21
864.98	1650.66
865.15	1755.11
865.32	1732.58
865.48	1740.77
865.65	1738.73
865.82	1624.04
865.98	1671.14
866.15	1746.92
866.32	1681.38
866.49	1591.27
866.65	1724.39
866.82	1619.94
866.99	1748.97
867.16	1693.67
867.32	1705.96
867.49	1681.38
867.66	1736.68
867.83	1658.85
867.99	1593.32
868.16	1656.81
868.33	1652.71
868.49	1619.94
868.66	1681.38
868.83	1755.11
868.99	1689.57
869.16	1691.62
869.33	1746.92
869.50	1791.97
869.66	1689.57
869.83	1730.53
870.00	1638.38
870.16	1693.67
870.33	1650.66
870.50	1763.30
870.66	1665.00
870.83	1779.68
871.00	1691.62
871.17	1773.54
871.33	1726.44
871.50	1732.58
871.67	1695.72
871.83	1628.14
872.00	1765.35
872.17	1679.33
872.33	1757.16
872.50	1738.73
872.67	1675.24
872.83	1650.66
873.00	1769.44
873.17	1708.01
873.33	1755.11
873.50	1710.05
873.67	1683.43
873.83	1642.47
874.00	1644.52
874.16	1716.20
874.33	1685.48
874.50	1648.61
874.66	1699.81
874.83	1728.49
875.00	1732.58
875.16	1781.73
875.33	1757.16
875.50	1538.02
875.66	1716.20
875.83	1564.65
875.99	1607.66
876.16	1671.14
876.33	1624.04
876.49	1683.43
876.66	1740.77
876.83	1703.91
876.99	1619.94
877.16	1708.01
877.32	1656.81
877.49	1697.77
877.66	1669.09
877.82	1843.17
877.99	1662.95
878.15	1744.87
878.32	1785.83
878.49	1724.39
878.65	1675.24
878.82	1751.01
878.98	1675.24
879.15	1693.67
879.32	1804.26
879.48	1738.73
879.65	1621.99
879.81	1716.20
879.98	1708.01
880.15	1718.25
880.31	1751.01
880.48	1693.67
880.64	1757.16
880.81	1769.44
880.97	1775.59
881.14	1796.07
881.31	1640.42
881.47	1828.84
881.64	1656.81
881.80	1646.57
881.97	1640.42
882.13	1761.25
882.30	1699.81
882.47	1640.42
882.63	1667.05
882.80	1714.15
882.96	1605.61
883.13	1689.57
883.29	1628.14
883.46	1732.58
883.62	1863.65
883.79	1734.63
883.95	1705.96
884.12	1701.86
884.29	1779.68
884.45	1687.53
884.62	1744.87
884.78	1646.57
884.95	1779.68
885.11	1697.77
885.28	1714.15
885.44	1691.62
885.61	1761.25
885.77	1763.30
885.94	1728.49
886.10	1763.30
886.27	1669.09
886.43	1779.68
886.60	1746.92
886.76	1730.53
886.93	1599.46
887.09	1759.21
887.26	1648.61
887.42	1738.73
887.59	1773.54
887.75	1746.92
887.92	1708.01
888.08	1773.54
888.25	1716.20
888.41	1718.25
888.58	1685.48
888.74	1640.42
888.91	1642.47
>>>>>End Processed Spectral Data<<<<<
