SpectraSuite Data File
++++++++++++++++++++++++++++++++++++
Date: Mon Jun 06 14:02:57 CEST 2016
User: root
Dark Spectrum Present: No
Reference Spectrum Present: No
Number of Sampled Component Spectra: 1
Spectrometers: USB4C02835
Integration Time (usec): 100000 (USB4C02835)
Spectra Averaged: 1 (USB4C02835)
Boxcar Smoothing: 0 (USB4C02835)
Correct for Electrical Dark: No (USB4C02835)
Strobe/Lamp Enabled: No (USB4C02835)
Correct for Detector Non-linearity: No (USB4C02835)
Correct for Stray Light: No (USB4C02835)
Number of Pixels in Processed Spectrum: 3648
>>>>>Begin Processed Spectral Data<<<<<
177.47	1454.06
177.69	1454.06
177.91	1454.06
178.13	1513.45
178.36	1441.77
178.58	1648.61
178.80	1738.73
179.02	1648.61
179.24	1578.98
179.46	1738.73
179.68	1658.85
179.90	1679.33
180.13	1693.67
180.35	1644.52
180.57	1611.75
180.79	1757.16
181.01	1757.16
181.23	1746.92
181.45	1769.44
181.67	1687.53
181.90	1705.96
182.12	1570.79
182.34	1660.90
182.56	1703.91
182.78	1730.53
183.00	1705.96
183.22	1730.53
183.44	1638.38
183.66	1814.50
183.89	1753.06
184.11	1810.40
184.33	1783.78
184.55	1757.16
184.77	1761.25
184.99	1642.47
185.21	1732.58
185.43	1865.70
185.65	1693.67
185.87	1701.86
186.10	1830.88
186.32	1728.49
186.54	1832.93
186.76	1730.53
186.98	1746.92
187.20	1732.58
187.42	1656.81
187.64	1648.61
187.86	1640.42
188.08	1773.54
188.30	1675.24
188.52	1644.52
188.75	1828.84
188.97	1761.25
189.19	1689.57
189.41	1697.77
189.63	1654.76
189.85	1710.05
190.07	1523.69
190.29	1611.75
190.51	1671.14
190.73	1640.42
190.95	1746.92
191.17	1693.67
191.39	1595.37
191.61	1642.47
191.84	1607.66
192.06	1597.42
192.28	1599.46
192.50	1820.64
192.72	1712.10
192.94	1675.24
193.16	1761.25
193.38	1734.63
193.60	1701.86
193.82	1695.72
194.04	1761.25
194.26	1765.35
194.48	1691.62
194.70	1671.14
194.92	1636.33
195.14	1701.86
195.36	1667.05
195.58	1642.47
195.80	1671.14
196.02	1591.27
196.24	1701.86
196.46	1703.91
196.69	1693.67
196.91	1804.26
197.13	1656.81
197.35	1677.29
197.57	1804.26
197.79	1689.57
198.01	1796.07
198.23	1785.83
198.45	1736.68
198.67	1568.74
198.89	1599.46
199.11	1730.53
199.33	1621.99
199.55	1581.03
199.77	1695.72
199.99	1763.30
200.21	1705.96
200.43	1718.25
200.65	1644.52
200.87	1572.84
201.09	1751.01
201.31	1691.62
201.53	1716.20
201.75	1732.58
201.97	1644.52
202.19	1689.57
202.41	1753.06
202.63	1800.16
202.85	1685.48
203.07	1791.97
203.29	1695.72
203.51	1658.85
203.73	1656.81
203.95	1816.55
204.17	1728.49
204.39	1662.95
204.61	1646.57
204.83	1673.19
205.05	1757.16
205.27	1740.77
205.49	1824.74
205.71	1740.77
205.93	1652.71
206.15	1662.95
206.37	1691.62
206.59	1699.81
206.81	1689.57
207.03	1640.42
207.25	1648.61
207.47	1753.06
207.69	1748.97
207.91	1708.01
208.13	1828.84
208.34	1695.72
208.56	1658.85
208.78	1695.72
209.00	1597.42
209.22	1691.62
209.44	1718.25
209.66	1697.77
209.88	1693.67
210.10	1761.25
210.32	1742.82
210.54	1761.25
210.76	1669.09
210.98	1712.10
211.20	1619.94
211.42	1689.57
211.64	1771.49
211.86	1722.34
212.08	1783.78
212.30	1681.38
212.52	1740.77
212.74	1697.77
212.96	1679.33
213.17	1738.73
213.39	1796.07
213.61	1765.35
213.83	1738.73
214.05	1613.80
214.27	1730.53
214.49	1697.77
214.71	1740.77
214.93	1783.78
215.15	1736.68
215.37	1769.44
215.59	1615.85
215.81	1718.25
216.03	1775.59
216.24	1652.71
216.46	1679.33
216.68	1708.01
216.90	1734.63
217.12	1796.07
217.34	1716.20
217.56	1669.09
217.78	1732.58
218.00	1679.33
218.22	1675.24
218.44	1738.73
218.66	1708.01
218.87	1783.78
219.09	1599.46
219.31	1744.87
219.53	1669.09
219.75	1667.05
219.97	1701.86
220.19	1734.63
220.41	1601.51
220.63	1804.26
220.85	1765.35
221.06	1693.67
221.28	1787.88
221.50	1740.77
221.72	1718.25
221.94	1712.10
222.16	1687.53
222.38	1714.15
222.60	1624.04
222.82	1681.38
223.03	1718.25
223.25	1628.14
223.47	1699.81
223.69	1847.27
223.91	1669.09
224.13	1718.25
224.35	1581.03
224.57	1808.36
224.78	1722.34
225.00	1617.90
225.22	1683.43
225.44	1740.77
225.66	1683.43
225.88	1716.20
226.10	1740.77
226.32	1679.33
226.53	1781.73
226.75	1671.14
226.97	1730.53
227.19	1714.15
227.41	1685.48
227.63	1771.49
227.85	1650.66
228.06	1748.97
228.28	1636.33
228.50	1660.90
228.72	1656.81
228.94	1679.33
229.16	1562.60
229.37	1646.57
229.59	1593.32
229.81	1830.88
230.03	1718.25
230.25	1632.23
230.47	1705.96
230.69	1595.37
230.90	1726.44
231.12	1562.60
231.34	1730.53
231.56	1763.30
231.78	1699.81
232.00	1689.57
232.21	1705.96
232.43	1656.81
232.65	1603.56
232.87	1673.19
233.09	1583.08
233.30	1615.85
233.52	1705.96
233.74	1736.68
233.96	1708.01
234.18	1714.15
234.40	1695.72
234.61	1875.94
234.83	1677.29
235.05	1689.57
235.27	1773.54
235.49	1787.88
235.70	1726.44
235.92	1767.40
236.14	1759.21
236.36	1884.13
236.58	1621.99
236.79	1734.63
237.01	1777.64
237.23	1695.72
237.45	1755.11
237.67	1628.14
237.88	1712.10
238.10	1871.84
238.32	1613.80
238.54	1689.57
238.76	1767.40
238.97	1640.42
239.19	1656.81
239.41	1814.50
239.63	1806.31
239.85	1671.14
240.06	1687.53
240.28	1716.20
240.50	1744.87
240.72	1634.28
240.93	1665.00
241.15	1748.97
241.37	1755.11
241.59	1679.33
241.81	1779.68
242.02	1671.14
242.24	1710.05
242.46	1769.44
242.68	1605.61
242.89	1742.82
243.11	1748.97
243.33	1730.53
243.55	1730.53
243.76	1714.15
243.98	1662.95
244.20	1683.43
244.42	1675.24
244.64	1722.34
244.85	1609.70
245.07	1658.85
245.29	1759.21
245.51	1660.90
245.72	1720.29
245.94	1781.73
246.16	1630.18
246.38	1783.78
246.59	1619.94
246.81	1716.20
247.03	1695.72
247.24	1593.32
247.46	1714.15
247.68	1728.49
247.90	1605.61
248.11	1714.15
248.33	1751.01
248.55	1685.48
248.77	1669.09
248.98	1761.25
249.20	1746.92
249.42	1765.35
249.64	1742.82
249.85	1695.72
250.07	1710.05
250.29	1806.31
250.50	1675.24
250.72	1597.42
250.94	1656.81
251.16	1832.93
251.37	1736.68
251.59	1748.97
251.81	1740.77
252.02	1847.27
252.24	1687.53
252.46	1839.08
252.68	1636.33
252.89	1728.49
253.11	1621.99
253.33	1771.49
253.54	1804.26
253.76	1662.95
253.98	1665.00
254.20	1757.16
254.41	1644.52
254.63	1665.00
254.85	1658.85
255.06	1701.86
255.28	1755.11
255.50	1636.33
255.71	1665.00
255.93	1654.76
256.15	1671.14
256.36	1755.11
256.58	1691.62
256.80	1744.87
257.02	1722.34
257.23	1667.05
257.45	1736.68
257.67	1740.77
257.88	1665.00
258.10	1781.73
258.32	1677.29
258.53	1681.38
258.75	1794.02
258.97	1677.29
259.18	1689.57
259.40	1628.14
259.62	1806.31
259.83	1783.78
260.05	1773.54
260.27	2029.54
260.48	1744.87
260.70	1607.66
260.92	1642.47
261.13	1769.44
261.35	1652.71
261.57	1675.24
261.78	1611.75
262.00	1611.75
262.22	1701.86
262.43	1662.95
262.65	1705.96
262.86	1693.67
263.08	1806.31
263.30	1726.44
263.51	1576.94
263.73	1748.97
263.95	1693.67
264.16	1685.48
264.38	1601.51
264.60	1744.87
264.81	1716.20
265.03	1781.73
265.25	1753.06
265.46	1683.43
265.68	1820.64
265.89	1718.25
266.11	1640.42
266.33	1699.81
266.54	1769.44
266.76	1722.34
266.98	1714.15
267.19	1783.78
267.41	1771.49
267.62	1701.86
267.84	1570.79
268.06	1779.68
268.27	1681.38
268.49	1753.06
268.70	1779.68
268.92	1710.05
269.14	1710.05
269.35	1632.23
269.57	1677.29
269.79	1722.34
270.00	1636.33
270.22	1632.23
270.43	1703.91
270.65	1658.85
270.87	1677.29
271.08	1746.92
271.30	1794.02
271.51	1673.19
271.73	1691.62
271.95	1738.73
272.16	1728.49
272.38	1724.39
272.59	1654.76
272.81	1734.63
273.02	1722.34
273.24	1675.24
273.46	1740.77
273.67	1646.57
273.89	1763.30
274.10	1675.24
274.32	1753.06
274.54	1658.85
274.75	1732.58
274.97	1632.23
275.18	1701.86
275.40	1714.15
275.61	1630.18
275.83	1773.54
276.05	1626.09
276.26	1658.85
276.48	1652.71
276.69	1746.92
276.91	1716.20
277.12	1755.11
277.34	1757.16
277.55	1769.44
277.77	1716.20
277.99	1611.75
278.20	1681.38
278.42	1605.61
278.63	1595.37
278.85	1656.81
279.06	1660.90
279.28	1730.53
279.49	1787.88
279.71	1742.82
279.93	1673.19
280.14	1697.77
280.36	1613.80
280.57	1724.39
280.79	1794.02
281.00	1634.28
281.22	1656.81
281.43	1775.59
281.65	1640.42
281.86	1669.09
282.08	1765.35
282.29	1857.51
282.51	1601.51
282.73	1626.09
282.94	1609.70
283.16	1773.54
283.37	1775.59
283.59	1738.73
283.80	1771.49
284.02	1636.33
284.23	1693.67
284.45	1697.77
284.66	1697.77
284.88	1550.31
285.09	1708.01
285.31	1708.01
285.52	1714.15
285.74	1630.18
285.95	1765.35
286.17	1687.53
286.38	1748.97
286.60	1697.77
286.81	1673.19
287.03	1740.77
287.24	1699.81
287.46	1675.24
287.67	1767.40
287.89	1767.40
288.10	1703.91
288.32	1691.62
288.53	1744.87
288.75	1683.43
288.96	1708.01
289.18	1624.04
289.39	1712.10
289.61	1705.96
289.82	1742.82
290.04	1851.36
290.25	1658.85
290.47	1742.82
290.68	1671.14
290.90	1724.39
291.11	1640.42
291.33	1740.77
291.54	1591.27
291.76	1654.76
291.97	1775.59
292.18	1759.21
292.40	1675.24
292.61	1652.71
292.83	1857.51
293.04	1730.53
293.26	1751.01
293.47	1632.23
293.69	1710.05
293.90	1701.86
294.12	1820.64
294.33	1708.01
294.55	1677.29
294.76	1851.36
294.97	1763.30
295.19	1810.40
295.40	1738.73
295.62	1708.01
295.83	1675.24
296.05	1615.85
296.26	1708.01
296.48	1619.94
296.69	1697.77
296.90	1732.58
297.12	1724.39
297.33	1812.45
297.55	1714.15
297.76	1699.81
297.98	1767.40
298.19	1738.73
298.41	1671.14
298.62	1601.51
298.83	1808.36
299.05	1642.47
299.26	1650.66
299.48	1626.09
299.69	1808.36
299.90	1667.05
300.12	1710.05
300.33	1751.01
300.55	1654.76
300.76	1763.30
300.98	1671.14
301.19	1708.01
301.40	1693.67
301.62	1652.71
301.83	1710.05
302.05	1753.06
302.26	1697.77
302.47	1773.54
302.69	1556.46
302.90	1734.63
303.12	1570.79
303.33	1705.96
303.54	1771.49
303.76	1677.29
303.97	1695.72
304.19	1763.30
304.40	1681.38
304.61	1763.30
304.83	1804.26
305.04	1755.11
305.26	1689.57
305.47	1671.14
305.68	1701.86
305.90	1607.66
306.11	1685.48
306.33	1665.00
306.54	1613.80
306.75	1572.84
306.97	1615.85
307.18	1658.85
307.39	1665.00
307.61	1734.63
307.82	1753.06
308.04	1726.44
308.25	1665.00
308.46	1681.38
308.68	1724.39
308.89	1726.44
309.10	1718.25
309.32	1822.69
309.53	1863.65
309.74	1738.73
309.96	1744.87
310.17	1736.68
310.39	1705.96
310.60	1773.54
310.81	1757.16
311.03	1603.56
311.24	1681.38
311.45	1710.05
311.67	1787.88
311.88	1621.99
312.09	1675.24
312.31	1673.19
312.52	1742.82
312.73	1673.19
312.95	1654.76
313.16	1621.99
313.37	1791.97
313.59	1734.63
313.80	1746.92
314.01	1779.68
314.23	1638.38
314.44	1705.96
314.65	1624.04
314.87	1667.05
315.08	1703.91
315.29	1638.38
315.51	1638.38
315.72	1630.18
315.93	1785.83
316.15	1728.49
316.36	1675.24
316.57	1669.09
316.79	1703.91
317.00	1656.81
317.21	1722.34
317.43	1691.62
317.64	1669.09
317.85	1607.66
318.07	1642.47
318.28	1683.43
318.49	1894.37
318.70	1984.48
318.92	1767.40
319.13	1783.78
319.34	1867.75
319.56	1800.16
319.77	1867.75
319.98	1767.40
320.20	1765.35
320.41	1665.00
320.62	1751.01
320.83	1697.77
321.05	1804.26
321.26	1730.53
321.47	1695.72
321.69	1763.30
321.90	1689.57
322.11	1716.20
322.32	1693.67
322.54	1773.54
322.75	1626.09
322.96	1853.41
323.18	1558.50
323.39	1660.90
323.60	1595.37
323.81	1746.92
324.03	1634.28
324.24	1677.29
324.45	1665.00
324.66	1675.24
324.88	1751.01
325.09	1718.25
325.30	1695.72
325.52	1738.73
325.73	1716.20
325.94	1667.05
326.15	1624.04
326.37	1636.33
326.58	1726.44
326.79	1708.01
327.00	1671.14
327.22	1720.29
327.43	1716.20
327.64	1626.09
327.85	1738.73
328.07	1726.44
328.28	1839.08
328.49	1677.29
328.70	1783.78
328.92	1746.92
329.13	1691.62
329.34	1730.53
329.55	1794.02
329.76	1748.97
329.98	1722.34
330.19	1847.27
330.40	1746.92
330.61	1775.59
330.83	1726.44
331.04	1662.95
331.25	1665.00
331.46	1728.49
331.68	1603.56
331.89	1765.35
332.10	1675.24
332.31	1677.29
332.52	1728.49
332.74	1724.39
332.95	1591.27
333.16	1693.67
333.37	1738.73
333.58	1681.38
333.80	1683.43
334.01	1593.32
334.22	1548.26
334.43	1738.73
334.64	1644.52
334.86	1619.94
335.07	1691.62
335.28	1806.31
335.49	1693.67
335.70	1687.53
335.92	1769.44
336.13	1855.46
336.34	1693.67
336.55	1742.82
336.76	1671.14
336.98	1656.81
337.19	1697.77
337.40	1841.12
337.61	1871.84
337.82	1669.09
338.04	1763.30
338.25	1648.61
338.46	1683.43
338.67	1679.33
338.88	1648.61
339.09	1640.42
339.31	1607.66
339.52	1652.71
339.73	1611.75
339.94	1683.43
340.15	1734.63
340.36	1646.57
340.58	1667.05
340.79	1640.42
341.00	1748.97
341.21	1683.43
341.42	1791.97
341.63	1677.29
341.85	1781.73
342.06	1681.38
342.27	1636.33
342.48	1697.77
342.69	1556.46
342.90	1726.44
343.12	1718.25
343.33	1703.91
343.54	1849.32
343.75	1732.58
343.96	1712.10
344.17	1677.29
344.38	1693.67
344.60	1656.81
344.81	1621.99
345.02	1669.09
345.23	1705.96
345.44	1734.63
345.65	1671.14
345.86	1783.78
346.07	1669.09
346.29	1675.24
346.50	1730.53
346.71	1681.38
346.92	1724.39
347.13	1808.36
347.34	1673.19
347.55	1701.86
347.76	1738.73
347.98	1552.36
348.19	1644.52
348.40	1804.26
348.61	1656.81
348.82	1804.26
349.03	1794.02
349.24	1658.85
349.45	1783.78
349.66	1615.85
349.88	1640.42
350.09	1730.53
350.30	1746.92
350.51	1740.77
350.72	1708.01
350.93	1718.25
351.14	1734.63
351.35	1755.11
351.56	1714.15
351.77	1667.05
351.99	1732.58
352.20	1746.92
352.41	1755.11
352.62	1601.51
352.83	1746.92
353.04	1699.81
353.25	1701.86
353.46	1785.83
353.67	1763.30
353.88	1544.17
354.09	1662.95
354.30	1724.39
354.52	1775.59
354.73	1701.86
354.94	1695.72
355.15	1691.62
355.36	1798.12
355.57	1644.52
355.78	1744.87
355.99	1619.94
356.20	1636.33
356.41	1714.15
356.62	1773.54
356.83	1624.04
357.04	1753.06
357.25	1607.66
357.46	1734.63
357.68	1583.08
357.89	1693.67
358.10	1681.38
358.31	1681.38
358.52	1748.97
358.73	1662.95
358.94	1703.91
359.15	1693.67
359.36	1740.77
359.57	1656.81
359.78	1705.96
359.99	1712.10
360.20	1714.15
360.41	1689.57
360.62	1781.73
360.83	1755.11
361.04	1697.77
361.25	1771.49
361.46	1773.54
361.67	1796.07
361.88	1744.87
362.09	1728.49
362.30	1689.57
362.51	1650.66
362.72	1687.53
362.93	1804.26
363.14	1638.38
363.35	1693.67
363.56	1611.75
363.78	1757.16
363.99	1755.11
364.20	1724.39
364.41	1730.53
364.62	1767.40
364.83	1728.49
365.04	1710.05
365.25	1722.34
365.46	1888.23
365.67	1660.90
365.88	1628.14
366.09	1656.81
366.30	1624.04
366.51	1720.29
366.72	1675.24
366.93	1714.15
367.14	1640.42
367.35	1777.64
367.56	1689.57
367.77	1802.21
367.98	1724.39
368.18	1703.91
368.39	1740.77
368.60	1615.85
368.81	1738.73
369.02	1763.30
369.23	1779.68
369.44	1591.27
369.65	1619.94
369.86	1705.96
370.07	1769.44
370.28	1615.85
370.49	1744.87
370.70	1753.06
370.91	1671.14
371.12	1634.28
371.33	1728.49
371.54	1708.01
371.75	1820.64
371.96	1548.26
372.17	1665.00
372.38	1693.67
372.59	1781.73
372.80	1681.38
373.01	1669.09
373.22	1726.44
373.43	1787.88
373.64	1675.24
373.85	1777.64
374.06	1837.03
374.26	1783.78
374.47	1689.57
374.68	1714.15
374.89	1665.00
375.10	1671.14
375.31	1716.20
375.52	1689.57
375.73	1722.34
375.94	1705.96
376.15	1798.12
376.36	1638.38
376.57	1615.85
376.78	1611.75
376.99	1703.91
377.20	1693.67
377.40	1687.53
377.61	1757.16
377.82	1605.61
378.03	1849.32
378.24	1679.33
378.45	1728.49
378.66	1708.01
378.87	1593.32
379.08	1597.42
379.29	1720.29
379.50	1697.77
379.71	1695.72
379.91	1736.68
380.12	1746.92
380.33	1734.63
380.54	1751.01
380.75	1714.15
380.96	1677.29
381.17	1765.35
381.38	1662.95
381.59	1773.54
381.80	1710.05
382.00	1877.99
382.21	1714.15
382.42	1808.36
382.63	1865.70
382.84	1763.30
383.05	1730.53
383.26	1849.32
383.47	1740.77
383.68	1736.68
383.88	1773.54
384.09	1789.92
384.30	1769.44
384.51	1705.96
384.72	1703.91
384.93	1644.52
385.14	1660.90
385.35	1761.25
385.55	1556.46
385.76	1794.02
385.97	1791.97
386.18	1578.98
386.39	1779.68
386.60	1609.70
386.81	1671.14
387.02	1689.57
387.22	1656.81
387.43	1816.55
387.64	1802.21
387.85	1855.46
388.06	2146.27
388.27	4333.50
388.48	6666.14
388.68	8327.04
388.89	9705.32
389.10	9584.49
389.31	8603.52
389.52	7425.93
389.73	6821.78
389.93	6250.40
390.14	5855.14
390.35	5167.03
390.56	4632.51
390.77	3751.88
390.98	3074.00
391.18	2537.43
391.39	2185.18
391.60	1812.45
391.81	1830.88
392.02	1671.14
392.23	1892.32
392.43	1765.35
392.64	1763.30
392.85	1724.39
393.06	1771.49
393.27	1665.00
393.47	1697.77
393.68	1761.25
393.89	1646.57
394.10	1703.91
394.31	1665.00
394.52	1615.85
394.72	1609.70
394.93	1746.92
395.14	1652.71
395.35	1677.29
395.56	1681.38
395.76	1724.39
395.97	1820.64
396.18	1859.56
396.39	1855.46
396.60	2060.26
396.80	1861.60
397.01	1796.07
397.22	1755.11
397.43	1822.69
397.64	1771.49
397.84	1810.40
398.05	1804.26
398.26	1787.88
398.47	1755.11
398.67	1794.02
398.88	1701.86
399.09	1830.88
399.30	1642.47
399.51	1757.16
399.71	1734.63
399.92	1714.15
400.13	1730.53
400.34	1705.96
400.54	1720.29
400.75	1714.15
400.96	1701.86
401.17	1812.45
401.37	1701.86
401.58	1734.63
401.79	1681.38
402.00	1906.66
402.21	1976.29
402.41	1931.23
402.62	1978.34
402.83	1941.47
403.04	1986.53
403.24	2144.22
403.45	1783.78
403.66	1898.47
403.87	1916.90
404.07	1904.61
404.28	1884.13
404.49	1939.43
404.70	1814.50
404.90	1834.98
405.11	1757.16
405.32	1726.44
405.52	1568.74
405.73	1654.76
405.94	1705.96
406.15	1679.33
406.35	1695.72
406.56	1773.54
406.77	1759.21
406.98	1724.39
407.18	1687.53
407.39	1746.92
407.60	1695.72
407.80	1734.63
408.01	1650.66
408.22	1689.57
408.43	1677.29
408.63	1759.21
408.84	1685.48
409.05	1806.31
409.25	1681.38
409.46	1640.42
409.67	1650.66
409.88	1656.81
410.08	1742.82
410.29	1636.33
410.50	1785.83
410.70	1691.62
410.91	1734.63
411.12	1712.10
411.32	1714.15
411.53	1671.14
411.74	1724.39
411.95	1808.36
412.15	1724.39
412.36	1761.25
412.57	1814.50
412.77	1757.16
412.98	1693.67
413.19	1662.95
413.39	1789.92
413.60	1759.21
413.81	1812.45
414.01	1720.29
414.22	1763.30
414.43	1804.26
414.63	1695.72
414.84	1822.69
415.05	1671.14
415.25	1613.80
415.46	1794.02
415.67	1660.90
415.87	1720.29
416.08	1701.86
416.29	1685.48
416.49	1783.78
416.70	1656.81
416.91	1710.05
417.11	1685.48
417.32	1679.33
417.53	1789.92
417.73	1755.11
417.94	1734.63
418.15	1703.91
418.35	1705.96
418.56	1683.43
418.77	1861.60
418.97	1695.72
419.18	1636.33
419.38	1540.07
419.59	1689.57
419.80	1869.80
420.00	1613.80
420.21	1753.06
420.42	1734.63
420.62	1732.58
420.83	1681.38
421.04	1697.77
421.24	1710.05
421.45	1796.07
421.65	1716.20
421.86	1677.29
422.07	1746.92
422.27	1740.77
422.48	1722.34
422.69	1626.09
422.89	1697.77
423.10	1685.48
423.30	1626.09
423.51	1767.40
423.72	1685.48
423.92	1724.39
424.13	1650.66
424.33	1681.38
424.54	1773.54
424.75	1642.47
424.95	1845.22
425.16	1667.05
425.36	1744.87
425.57	1757.16
425.78	1726.44
425.98	1798.12
426.19	1646.57
426.39	1644.52
426.60	1722.34
426.81	1755.11
427.01	1613.80
427.22	1648.61
427.42	1603.56
427.63	1679.33
427.83	1763.30
428.04	1748.97
428.25	1826.79
428.45	1726.44
428.66	1755.11
428.86	1718.25
429.07	1701.86
429.28	1718.25
429.48	1765.35
429.69	1675.24
429.89	1742.82
430.10	1683.43
430.30	1669.09
430.51	1775.59
430.71	1632.23
430.92	1695.72
431.13	1697.77
431.33	1796.07
431.54	1751.01
431.74	1757.16
431.95	1810.40
432.15	1644.52
432.36	1710.05
432.56	1771.49
432.77	1808.36
432.98	1779.68
433.18	1693.67
433.39	1673.19
433.59	1638.38
433.80	1847.27
434.00	1853.41
434.21	1675.24
434.41	1669.09
434.62	1839.08
434.82	1693.67
435.03	1640.42
435.23	1630.18
435.44	1677.29
435.64	1712.10
435.85	1730.53
436.06	1777.64
436.26	1791.97
436.47	1701.86
436.67	1691.62
436.88	1681.38
437.08	1738.73
437.29	1761.25
437.49	1773.54
437.70	1789.92
437.90	1728.49
438.11	1908.71
438.31	1777.64
438.52	1810.40
438.72	1933.28
438.93	1912.80
439.13	1843.17
439.34	1808.36
439.54	1746.92
439.75	1820.64
439.95	1800.16
440.16	1695.72
440.36	1785.83
440.57	1697.77
440.77	1685.48
440.98	1720.29
441.18	1761.25
441.39	1697.77
441.59	1656.81
441.80	1847.27
442.00	1753.06
442.21	1769.44
442.41	1660.90
442.62	1775.59
442.82	1722.34
443.02	1720.29
443.23	1675.24
443.43	1757.16
443.64	1787.88
443.84	1656.81
444.05	1738.73
444.25	1720.29
444.46	1648.61
444.66	1728.49
444.87	1755.11
445.07	1566.70
445.28	1716.20
445.48	1710.05
445.69	1853.41
445.89	1877.99
446.09	1781.73
446.30	2035.68
446.50	2596.82
446.71	3778.50
446.91	4257.73
447.12	4695.99
447.32	4792.25
447.53	4308.93
447.73	3809.22
447.93	3526.60
448.14	3370.96
448.34	3182.54
448.55	2949.08
448.75	2807.77
448.96	2584.54
449.16	2387.93
449.36	2340.83
449.57	2115.55
449.77	1900.52
449.98	1832.93
450.18	1771.49
450.39	1898.47
450.59	1738.73
450.79	1746.92
451.00	1726.44
451.20	1789.92
451.41	1671.14
451.61	1791.97
451.81	1798.12
452.02	1738.73
452.22	1738.73
452.43	1677.29
452.63	1722.34
452.84	1714.15
453.04	1742.82
453.24	1699.81
453.45	1687.53
453.65	1755.11
453.86	1787.88
454.06	1705.96
454.26	1708.01
454.47	1679.33
454.67	1822.69
454.87	1736.68
455.08	1728.49
455.28	1875.94
455.49	1724.39
455.69	1658.85
455.89	1851.36
456.10	1755.11
456.30	1787.88
456.51	1828.84
456.71	1761.25
456.91	1726.44
457.12	1728.49
457.32	1679.33
457.52	1624.04
457.73	1695.72
457.93	1781.73
458.14	1734.63
458.34	1591.27
458.54	1722.34
458.75	1755.11
458.95	1730.53
459.15	1796.07
459.36	1712.10
459.56	1763.30
459.76	1830.88
459.97	1771.49
460.17	1802.21
460.37	1728.49
460.58	1712.10
460.78	1804.26
460.99	1753.06
461.19	1712.10
461.39	1675.24
461.60	1757.16
461.80	1718.25
462.00	1734.63
462.21	1601.51
462.41	1617.90
462.61	1619.94
462.82	1587.18
463.02	1769.44
463.22	1720.29
463.43	1789.92
463.63	1751.01
463.83	1755.11
464.04	1773.54
464.24	1748.97
464.44	1675.24
464.64	1767.40
464.85	1738.73
465.05	1787.88
465.25	1728.49
465.46	1710.05
465.66	1740.77
465.86	1714.15
466.07	1740.77
466.27	1716.20
466.47	1642.47
466.68	1697.77
466.88	1834.98
467.08	1773.54
467.29	1765.35
467.49	1740.77
467.69	1701.86
467.89	1837.03
468.10	1751.01
468.30	1746.92
468.50	1779.68
468.71	1787.88
468.91	1679.33
469.11	1763.30
469.31	1730.53
469.52	1652.71
469.72	1812.45
469.92	1863.65
470.13	1705.96
470.33	1705.96
470.53	1906.66
470.73	2062.30
470.94	2287.58
471.14	2299.87
471.34	2525.15
471.54	2320.35
471.75	2209.76
471.95	2164.70
472.15	2035.68
472.36	2150.37
472.56	2050.02
472.76	2113.50
472.96	1990.63
473.17	1898.47
473.37	1927.14
473.57	1757.16
473.77	1822.69
473.98	1759.21
474.18	1718.25
474.38	1898.47
474.58	1771.49
474.79	1687.53
474.99	1755.11
475.19	1796.07
475.39	1734.63
475.60	1755.11
475.80	1718.25
476.00	1730.53
476.20	1642.47
476.41	1703.91
476.61	1828.84
476.81	1777.64
477.01	1710.05
477.21	1898.47
477.42	1812.45
477.62	1726.44
477.82	1755.11
478.02	1777.64
478.23	1685.48
478.43	1660.90
478.63	1726.44
478.83	1636.33
479.03	1679.33
479.24	1777.64
479.44	1841.12
479.64	1636.33
479.84	1626.09
480.04	1708.01
480.25	1751.01
480.45	1640.42
480.65	1716.20
480.85	1828.84
481.06	1628.14
481.26	1710.05
481.46	1746.92
481.66	1751.01
481.86	1722.34
482.06	1806.31
482.27	1673.19
482.47	1652.71
482.67	1763.30
482.87	1701.86
483.07	1748.97
483.28	1701.86
483.48	1662.95
483.68	1732.58
483.88	1644.52
484.08	1621.99
484.29	1597.42
484.49	1669.09
484.69	1578.98
484.89	1734.63
485.09	1822.69
485.29	1687.53
485.50	1818.60
485.70	1648.61
485.90	1779.68
486.10	1751.01
486.30	1734.63
486.50	1740.77
486.71	1681.38
486.91	1759.21
487.11	1777.64
487.31	1689.57
487.51	1675.24
487.71	1667.05
487.91	1619.94
488.12	1679.33
488.32	1558.50
488.52	1703.91
488.72	1628.14
488.92	1755.11
489.12	1724.39
489.32	1779.68
489.53	1722.34
489.73	1652.71
489.93	1746.92
490.13	1634.28
490.33	1652.71
490.53	1673.19
490.73	1746.92
490.94	1687.53
491.14	1705.96
491.34	1865.70
491.54	2136.03
491.74	2566.10
491.94	2861.01
492.14	2959.31
492.34	2889.68
492.54	2797.53
492.75	2451.42
492.95	2402.27
493.15	2365.40
493.35	2334.68
493.55	2238.43
493.75	2113.50
493.95	2138.08
494.15	2052.06
494.35	1904.61
494.56	1877.99
494.76	1808.36
494.96	1695.72
495.16	1740.77
495.36	1673.19
495.56	1730.53
495.76	1808.36
495.96	1753.06
496.16	1603.56
496.36	1818.60
496.56	1734.63
496.77	1736.68
496.97	1728.49
497.17	1796.07
497.37	1681.38
497.57	1710.05
497.77	1646.57
497.97	1748.97
498.17	1724.39
498.37	1726.44
498.57	1738.73
498.77	1685.48
498.97	1771.49
499.17	1746.92
499.38	1689.57
499.58	1738.73
499.78	1734.63
499.98	1828.84
500.18	1695.72
500.38	1667.05
500.58	1961.95
500.78	2578.39
500.98	4507.58
501.18	5816.23
501.38	6836.12
501.58	7051.16
501.78	6643.61
501.98	5468.08
502.18	4935.60
502.38	4323.26
502.58	4009.92
502.78	3715.02
502.98	3690.44
503.18	3409.87
503.38	3198.93
503.59	2750.42
503.79	2742.23
503.99	2543.58
504.19	2287.58
504.39	2230.24
504.59	2158.56
504.79	2099.17
504.99	2090.98
505.19	1914.85
505.39	1880.04
505.59	1949.67
505.79	1920.99
505.99	1929.19
506.19	1802.21
506.39	1863.65
506.59	1734.63
506.79	1814.50
506.99	1810.40
507.19	1712.10
507.39	1681.38
507.59	1767.40
507.79	1697.77
507.99	1699.81
508.19	1767.40
508.39	1687.53
508.59	1667.05
508.79	1834.98
508.99	1837.03
509.19	1712.10
509.39	1728.49
509.59	1697.77
509.79	1669.09
509.99	1759.21
510.19	1794.02
510.39	1748.97
510.59	1701.86
510.79	1724.39
510.99	1662.95
511.19	1755.11
511.39	1794.02
511.59	1814.50
511.79	1822.69
511.99	1712.10
512.19	1880.04
512.38	1742.82
512.58	1759.21
512.78	1628.14
512.98	1714.15
513.18	1896.42
513.38	1660.90
513.58	1785.83
513.78	1771.49
513.98	1757.16
514.18	1640.42
514.38	1656.81
514.58	1751.01
514.78	1722.34
514.98	1609.70
515.18	1714.15
515.38	1660.90
515.58	1828.84
515.78	1636.33
515.98	1759.21
516.18	1785.83
516.38	1738.73
516.57	1771.49
516.77	1697.77
516.97	1769.44
517.17	1650.66
517.37	1654.76
517.57	1714.15
517.77	1687.53
517.97	1789.92
518.17	1734.63
518.37	1652.71
518.57	1755.11
518.77	1728.49
518.97	1763.30
519.16	1740.77
519.36	1877.99
519.56	1736.68
519.76	1736.68
519.96	1646.57
520.16	1757.16
520.36	1675.24
520.56	1746.92
520.76	1677.29
520.96	1736.68
521.16	1816.55
521.35	1824.74
521.55	1843.17
521.75	1751.01
521.95	1734.63
522.15	1720.29
522.35	1654.76
522.55	1662.95
522.75	1783.78
522.95	1626.09
523.14	1687.53
523.34	1732.58
523.54	1665.00
523.74	1802.21
523.94	1716.20
524.14	1617.90
524.34	1810.40
524.54	1753.06
524.73	1734.63
524.93	1757.16
525.13	1693.67
525.33	1681.38
525.53	1865.70
525.73	1806.31
525.93	1693.67
526.13	1765.35
526.32	1689.57
526.52	1718.25
526.72	1710.05
526.92	1740.77
527.12	1781.73
527.32	1703.91
527.52	1744.87
527.71	1796.07
527.91	1800.16
528.11	1728.49
528.31	1714.15
528.51	1619.94
528.71	1818.60
528.90	1718.25
529.10	1875.94
529.30	1800.16
529.50	1603.56
529.70	1767.40
529.90	1695.72
530.09	1687.53
530.29	1763.30
530.49	1718.25
530.69	1849.32
530.89	1775.59
531.09	1789.92
531.28	1742.82
531.48	1769.44
531.68	1703.91
531.88	1705.96
532.08	1757.16
532.28	1722.34
532.47	1818.60
532.67	1824.74
532.87	1828.84
533.07	1728.49
533.27	1769.44
533.46	1789.92
533.66	1763.30
533.86	1740.77
534.06	1695.72
534.26	1742.82
534.45	1755.11
534.65	1748.97
534.85	1800.16
535.05	1687.53
535.25	1740.77
535.44	1640.42
535.64	1812.45
535.84	1683.43
536.04	1699.81
536.24	1755.11
536.43	1730.53
536.63	1744.87
536.83	1658.85
537.03	1740.77
537.22	1716.20
537.42	1751.01
537.62	1636.33
537.82	1724.39
538.02	1794.02
538.21	1771.49
538.41	1900.52
538.61	1738.73
538.81	1771.49
539.00	1783.78
539.20	1644.52
539.40	1650.66
539.60	1816.55
539.79	1837.03
539.99	1748.97
540.19	1714.15
540.39	1710.05
540.58	1736.68
540.78	1771.49
540.98	1730.53
541.18	1851.36
541.37	1849.32
541.57	1746.92
541.77	1644.52
541.97	1695.72
542.16	1599.46
542.36	1714.15
542.56	1685.48
542.76	1773.54
542.95	1769.44
543.15	1730.53
543.35	1722.34
543.54	1781.73
543.74	1671.14
543.94	1845.22
544.14	1695.72
544.33	1714.15
544.53	1746.92
544.73	1720.29
544.93	1644.52
545.12	1669.09
545.32	1722.34
545.52	1695.72
545.71	1675.24
545.91	1714.15
546.11	1736.68
546.30	1716.20
546.50	1742.82
546.70	1777.64
546.90	1808.36
547.09	1685.48
547.29	1763.30
547.49	1748.97
547.68	1724.39
547.88	1722.34
548.08	1804.26
548.27	2136.03
548.47	1718.25
548.67	1804.26
548.87	1730.53
549.06	1728.49
549.26	1808.36
549.46	1757.16
549.65	1746.92
549.85	1763.30
550.05	1652.71
550.24	1679.33
550.44	1734.63
550.64	1689.57
550.83	1789.92
551.03	1736.68
551.23	1755.11
551.42	1808.36
551.62	1759.21
551.82	1714.15
552.01	1736.68
552.21	1791.97
552.41	1718.25
552.60	1859.56
552.80	1681.38
553.00	1683.43
553.19	1783.78
553.39	1916.90
553.59	1710.05
553.78	1744.87
553.98	1740.77
554.17	1716.20
554.37	1746.92
554.57	1726.44
554.76	1683.43
554.96	1705.96
555.16	1705.96
555.35	1712.10
555.55	1789.92
555.75	1718.25
555.94	1783.78
556.14	1720.29
556.33	1751.01
556.53	1779.68
556.73	1693.67
556.92	1755.11
557.12	1734.63
557.32	1841.12
557.51	1751.01
557.71	1740.77
557.90	1781.73
558.10	1931.23
558.30	1777.64
558.49	1761.25
558.69	1708.01
558.88	1785.83
559.08	1755.11
559.28	1757.16
559.47	1648.61
559.67	1773.54
559.86	1830.88
560.06	1761.25
560.26	1738.73
560.45	1759.21
560.65	1736.68
560.84	1753.06
561.04	1677.29
561.24	1796.07
561.43	1751.01
561.63	1785.83
561.82	1761.25
562.02	1767.40
562.22	1767.40
562.41	1732.58
562.61	1708.01
562.80	1724.39
563.00	1806.31
563.19	1695.72
563.39	1796.07
563.59	1771.49
563.78	1630.18
563.98	1675.24
564.17	1708.01
564.37	1695.72
564.56	1751.01
564.76	1701.86
564.96	1824.74
565.15	1738.73
565.35	1832.93
565.54	1728.49
565.74	1763.30
565.93	1728.49
566.13	1744.87
566.32	1794.02
566.52	1701.86
566.71	1744.87
566.91	1748.97
567.11	1734.63
567.30	1665.00
567.50	1771.49
567.69	1779.68
567.89	1765.35
568.08	1724.39
568.28	1769.44
568.47	1677.29
568.67	1730.53
568.86	1701.86
569.06	1755.11
569.25	1753.06
569.45	1677.29
569.64	1648.61
569.84	1673.19
570.04	1722.34
570.23	1630.18
570.43	1716.20
570.62	1746.92
570.82	1861.60
571.01	1718.25
571.21	1619.94
571.40	1662.95
571.60	1773.54
571.79	1834.98
571.99	1837.03
572.18	1654.76
572.38	1763.30
572.57	1687.53
572.77	1779.68
572.96	1785.83
573.16	1783.78
573.35	1730.53
573.55	1806.31
573.74	1744.87
573.94	1708.01
574.13	1673.19
574.33	1814.50
574.52	1759.21
574.71	1804.26
574.91	1744.87
575.10	1683.43
575.30	1734.63
575.49	1691.62
575.69	1755.11
575.88	1724.39
576.08	1728.49
576.27	1810.40
576.47	1718.25
576.66	1869.80
576.86	1826.79
577.05	1779.68
577.25	1824.74
577.44	1837.03
577.64	1691.62
577.83	1716.20
578.02	1703.91
578.22	1808.36
578.41	1888.23
578.61	1699.81
578.80	1656.81
579.00	1716.20
579.19	1769.44
579.39	1789.92
579.58	1810.40
579.77	1753.06
579.97	1781.73
580.16	1837.03
580.36	1867.75
580.55	1839.08
580.75	1705.96
580.94	1851.36
581.13	1783.78
581.33	1824.74
581.52	1753.06
581.72	1828.84
581.91	1847.27
582.11	1701.86
582.30	1697.77
582.49	1728.49
582.69	1822.69
582.88	1665.00
583.08	1767.40
583.27	1820.64
583.47	1753.06
583.66	1693.67
583.85	1722.34
584.05	1726.44
584.24	1849.32
584.44	1746.92
584.63	1783.78
584.82	1802.21
585.02	1906.66
585.21	1849.32
585.41	1859.56
585.60	1781.73
585.79	1949.67
585.99	1863.65
586.18	1865.70
586.37	2181.09
586.57	3356.62
586.76	9727.85
586.96	24049.30
587.15	34377.20
587.34	40002.97
587.54	41958.78
587.73	36564.43
587.93	26238.58
588.12	21493.43
588.31	18163.43
588.51	16639.75
588.70	15101.72
588.89	14098.22
589.09	12697.41
589.28	11054.94
589.47	9453.42
589.67	8077.19
589.86	6588.32
590.06	4915.12
590.25	4040.64
590.44	3133.39
590.64	2613.21
590.83	2283.49
591.02	2078.69
591.22	1937.38
591.41	1886.18
591.60	1843.17
591.80	2009.06
591.99	1705.96
592.18	1845.22
592.38	1828.84
592.57	1775.59
592.76	1789.92
592.96	1791.97
593.15	1779.68
593.34	1787.88
593.54	1748.97
593.73	1877.99
593.92	1855.46
594.12	1701.86
594.31	1714.15
594.50	1880.04
594.70	1736.68
594.89	1927.14
595.08	1671.14
595.28	1746.92
595.47	1904.61
595.66	1828.84
595.86	1681.38
596.05	1714.15
596.24	1734.63
596.43	1742.82
596.63	1818.60
596.82	1806.31
597.01	1775.59
597.21	1755.11
597.40	1708.01
597.59	1652.71
597.79	1738.73
597.98	1798.12
598.17	1720.29
598.36	1722.34
598.56	1814.50
598.75	1689.57
598.94	1720.29
599.14	1753.06
599.33	1732.58
599.52	1804.26
599.71	1798.12
599.91	1781.73
600.10	1726.44
600.29	1722.34
600.48	1671.14
600.68	1796.07
600.87	1720.29
601.06	1740.77
601.26	1734.63
601.45	1773.54
601.64	1695.72
601.83	1769.44
602.03	1665.00
602.22	1617.90
602.41	1861.60
602.60	1943.52
602.80	1757.16
602.99	1726.44
603.18	1726.44
603.37	1763.30
603.57	1808.36
603.76	1734.63
603.95	1744.87
604.14	1650.66
604.34	1718.25
604.53	1693.67
604.72	1775.59
604.91	1808.36
605.10	1753.06
605.30	1613.80
605.49	1892.32
605.68	1810.40
605.87	1640.42
606.07	1687.53
606.26	1724.39
606.45	1765.35
606.64	1757.16
606.84	1734.63
607.03	1740.77
607.22	1808.36
607.41	1742.82
607.60	1705.96
607.80	1712.10
607.99	1746.92
608.18	1751.01
608.37	1753.06
608.56	1718.25
608.76	1783.78
608.95	1863.65
609.14	1765.35
609.33	1785.83
609.52	1763.30
609.72	1765.35
609.91	1861.60
610.10	1769.44
610.29	1800.16
610.48	1765.35
610.68	1697.77
610.87	1677.29
611.06	1763.30
611.25	1710.05
611.44	1714.15
611.63	1734.63
611.83	1781.73
612.02	1611.75
612.21	1834.98
612.40	1593.32
612.59	1722.34
612.79	1578.98
612.98	1742.82
613.17	1828.84
613.36	1683.43
613.55	1800.16
613.74	1710.05
613.93	1675.24
614.13	1787.88
614.32	1771.49
614.51	1798.12
614.70	1730.53
614.89	1720.29
615.08	1724.39
615.28	2000.87
615.47	1685.48
615.66	1781.73
615.85	1701.86
616.04	1849.32
616.23	1636.33
616.42	1722.34
616.62	1787.88
616.81	1736.68
617.00	1708.01
617.19	1683.43
617.38	1716.20
617.57	1810.40
617.76	1697.77
617.95	1779.68
618.15	1765.35
618.34	1816.55
618.53	1632.23
618.72	1748.97
618.91	1789.92
619.10	1777.64
619.29	1751.01
619.48	1728.49
619.68	1748.97
619.87	1761.25
620.06	1619.94
620.25	1769.44
620.44	1673.19
620.63	1673.19
620.82	1714.15
621.01	1732.58
621.20	1740.77
621.39	1726.44
621.59	1759.21
621.78	1640.42
621.97	1705.96
622.16	1748.97
622.35	1806.31
622.54	1796.07
622.73	1791.97
622.92	1716.20
623.11	1703.91
623.30	1720.29
623.49	1759.21
623.68	1710.05
623.88	1691.62
624.07	1708.01
624.26	1695.72
624.45	1701.86
624.64	1722.34
624.83	1710.05
625.02	1734.63
625.21	1701.86
625.40	1734.63
625.59	1789.92
625.78	1746.92
625.97	1804.26
626.16	1751.01
626.35	1761.25
626.54	1671.14
626.74	1771.49
626.93	1673.19
627.12	1716.20
627.31	1773.54
627.50	1812.45
627.69	1746.92
627.88	1701.86
628.07	1738.73
628.26	1695.72
628.45	1632.23
628.64	1591.27
628.83	1746.92
629.02	1589.22
629.21	1732.58
629.40	1796.07
629.59	1669.09
629.78	1701.86
629.97	1699.81
630.16	1701.86
630.35	1650.66
630.54	1689.57
630.73	1677.29
630.92	1730.53
631.11	1708.01
631.30	1683.43
631.49	1746.92
631.68	1691.62
631.87	1734.63
632.06	1681.38
632.25	1888.23
632.44	1748.97
632.63	1746.92
632.82	1746.92
633.01	1654.76
633.20	1679.33
633.39	1689.57
633.58	1574.89
633.77	1720.29
633.96	1800.16
634.15	1708.01
634.34	1705.96
634.53	1740.77
634.72	1699.81
634.91	1576.94
635.10	1722.34
635.29	1751.01
635.48	1710.05
635.67	1681.38
635.86	1624.04
636.05	1794.02
636.24	1703.91
636.43	1820.64
636.62	1830.88
636.81	1607.66
637.00	1667.05
637.19	1810.40
637.38	1665.00
637.57	1753.06
637.76	1673.19
637.95	1648.61
638.14	1720.29
638.33	1662.95
638.52	1742.82
638.71	1656.81
638.89	1665.00
639.08	1847.27
639.27	1689.57
639.46	1669.09
639.65	1810.40
639.84	1718.25
640.03	1857.51
640.22	1683.43
640.41	1896.42
640.60	1730.53
640.79	1714.15
640.98	1691.62
641.17	1777.64
641.36	1785.83
641.55	1742.82
641.74	1681.38
641.92	1656.81
642.11	1636.33
642.30	1722.34
642.49	1648.61
642.68	1718.25
642.87	1718.25
643.06	1632.23
643.25	1738.73
643.44	1665.00
643.63	1646.57
643.82	1765.35
644.00	1671.14
644.19	1652.71
644.38	1695.72
644.57	1785.83
644.76	1769.44
644.95	1759.21
645.14	1685.48
645.33	1757.16
645.52	1660.90
645.71	1646.57
645.89	1673.19
646.08	1724.39
646.27	1734.63
646.46	1834.98
646.65	1611.75
646.84	1755.11
647.03	1708.01
647.22	1755.11
647.40	1732.58
647.59	1689.57
647.78	1638.38
647.97	1679.33
648.16	1636.33
648.35	1783.78
648.54	1812.45
648.73	1634.28
648.91	1822.69
649.10	1730.53
649.29	1697.77
649.48	1683.43
649.67	1726.44
649.86	1673.19
650.05	1746.92
650.23	1830.88
650.42	1710.05
650.61	1791.97
650.80	1734.63
650.99	1902.56
651.18	1753.06
651.36	1779.68
651.55	1767.40
651.74	1787.88
651.93	1593.32
652.12	1705.96
652.31	1681.38
652.49	1753.06
652.68	1648.61
652.87	1837.03
653.06	1665.00
653.25	1746.92
653.44	1757.16
653.62	1726.44
653.81	1769.44
654.00	1675.24
654.19	1781.73
654.38	1839.08
654.56	1740.77
654.75	1712.10
654.94	1845.22
655.13	1705.96
655.32	1701.86
655.51	1779.68
655.69	1662.95
655.88	1748.97
656.07	1691.62
656.26	1722.34
656.45	1636.33
656.63	1763.30
656.82	1710.05
657.01	1767.40
657.20	1705.96
657.38	1808.36
657.57	1644.52
657.76	1589.22
657.95	1710.05
658.14	1732.58
658.32	1746.92
658.51	1673.19
658.70	1798.12
658.89	1691.62
659.08	1744.87
659.26	1794.02
659.45	1667.05
659.64	1658.85
659.83	1656.81
660.01	1812.45
660.20	1677.29
660.39	1871.84
660.58	1574.89
660.76	1746.92
660.95	1685.48
661.14	1763.30
661.33	1642.47
661.51	1689.57
661.70	1660.90
661.89	1742.82
662.08	1689.57
662.26	1597.42
662.45	1671.14
662.64	1820.64
662.83	1816.55
663.01	1662.95
663.20	1675.24
663.39	1808.36
663.58	1691.62
663.76	1730.53
663.95	1722.34
664.14	1697.77
664.32	1787.88
664.51	1699.81
664.70	1589.22
664.89	1744.87
665.07	1683.43
665.26	1773.54
665.45	1714.15
665.64	1787.88
665.82	1755.11
666.01	1710.05
666.20	1761.25
666.38	1806.31
666.57	1806.31
666.76	2162.66
666.95	4460.48
667.13	10475.36
667.32	15124.25
667.51	17573.62
667.69	19017.44
667.88	17557.24
668.07	12355.40
668.25	9500.53
668.44	8075.14
668.63	7239.57
668.81	6893.46
669.00	6375.33
669.19	5853.09
669.38	5121.97
669.56	4515.77
669.75	3999.68
669.94	3350.48
670.12	2969.55
670.31	2568.15
670.50	2279.39
670.68	2082.78
670.87	1841.12
671.06	1834.98
671.24	1781.73
671.43	1769.44
671.62	1761.25
671.80	1834.98
671.99	1691.62
672.18	1712.10
672.36	1783.78
672.55	1724.39
672.74	1732.58
672.92	1697.77
673.11	1757.16
673.29	1673.19
673.48	1697.77
673.67	1767.40
673.85	1761.25
674.04	1687.53
674.23	1685.48
674.41	1873.89
674.60	1667.05
674.79	1695.72
674.97	1734.63
675.16	1699.81
675.34	1775.59
675.53	1712.10
675.72	1730.53
675.90	1873.89
676.09	1628.14
676.28	1771.49
676.46	1687.53
676.65	1751.01
676.83	1607.66
677.02	1675.24
677.21	1777.64
677.39	1761.25
677.58	1644.52
677.77	1746.92
677.95	1683.43
678.14	1632.23
678.32	1697.77
678.51	1638.38
678.70	1828.84
678.88	1642.47
679.07	1726.44
679.25	1730.53
679.44	1642.47
679.63	1617.90
679.81	1763.30
680.00	1730.53
680.18	1783.78
680.37	1734.63
680.55	1728.49
680.74	1628.14
680.93	1601.51
681.11	1734.63
681.30	1751.01
681.48	1738.73
681.67	1775.59
681.85	1687.53
682.04	1648.61
682.23	1728.49
682.41	1648.61
682.60	1665.00
682.78	1699.81
682.97	1695.72
683.15	1712.10
683.34	1673.19
683.53	1789.92
683.71	1650.66
683.90	1822.69
684.08	1808.36
684.27	1710.05
684.45	1767.40
684.64	1794.02
684.82	1656.81
685.01	1675.24
685.19	1615.85
685.38	1814.50
685.57	1673.19
685.75	1748.97
685.94	1671.14
686.12	1673.19
686.31	1697.77
686.49	1796.07
686.68	1558.50
686.86	1773.54
687.05	1683.43
687.23	1763.30
687.42	1619.94
687.60	1658.85
687.79	1705.96
687.97	1804.26
688.16	1810.40
688.34	1869.80
688.53	1591.27
688.71	1740.77
688.90	1796.07
689.08	1650.66
689.27	1710.05
689.45	1693.67
689.64	1716.20
689.82	1708.01
690.01	1732.58
690.19	1740.77
690.38	1722.34
690.56	1820.64
690.75	1624.04
690.93	1675.24
691.12	1675.24
691.30	1607.66
691.49	1722.34
691.67	1726.44
691.86	1789.92
692.04	1642.47
692.23	1624.04
692.41	1699.81
692.60	1802.21
692.78	1677.29
692.97	1728.49
693.15	1730.53
693.34	1865.70
693.52	1730.53
693.71	1660.90
693.89	1689.57
694.08	1576.94
694.26	1730.53
694.44	1761.25
694.63	1796.07
694.81	1640.42
695.00	1689.57
695.18	1771.49
695.37	1843.17
695.55	1714.15
695.74	1716.20
695.92	1648.61
696.10	1675.24
696.29	1656.81
696.47	1757.16
696.66	1716.20
696.84	1650.66
697.03	1716.20
697.21	1779.68
697.40	2277.34
697.58	1839.08
697.76	1693.67
697.95	1669.09
698.13	1683.43
698.32	1699.81
698.50	1712.10
698.68	1732.58
698.87	1736.68
699.05	1777.64
699.24	1701.86
699.42	1667.05
699.61	1675.24
699.79	1771.49
699.97	1695.72
700.16	1613.80
700.34	1650.66
700.53	1740.77
700.71	1810.40
700.89	1726.44
701.08	1705.96
701.26	1726.44
701.45	2025.44
701.63	1701.86
701.81	1673.19
702.00	1595.37
702.18	1755.11
702.37	1671.14
702.55	1732.58
702.73	1640.42
702.92	1619.94
703.10	1769.44
703.28	1724.39
703.47	1642.47
703.65	1798.12
703.84	1769.44
704.02	1593.32
704.20	1806.31
704.39	1648.61
704.57	1720.29
704.75	1705.96
704.94	1716.20
705.12	1714.15
705.30	1755.11
705.49	2226.14
705.67	4337.60
705.86	9445.23
706.04	12406.59
706.22	14341.93
706.41	15163.16
706.59	13815.60
706.77	9578.35
706.96	7522.19
707.14	6633.37
707.32	5937.06
707.51	5554.09
707.69	4995.00
707.87	4227.01
708.06	3469.26
708.24	2908.12
708.42	2379.74
708.61	2318.30
708.79	1939.43
708.97	1935.33
709.16	1882.08
709.34	1787.88
709.52	1667.05
709.71	1708.01
709.89	1828.84
710.07	1697.77
710.26	1660.90
710.44	1751.01
710.62	1751.01
710.80	1734.63
710.99	1777.64
711.17	1691.62
711.35	1685.48
711.54	1681.38
711.72	1736.68
711.90	1685.48
712.09	1748.97
712.27	1697.77
712.45	1830.88
712.63	1681.38
712.82	1652.71
713.00	1646.57
713.18	1699.81
713.37	1738.73
713.55	1695.72
713.73	1761.25
713.91	1757.16
714.10	1665.00
714.28	1691.62
714.46	1773.54
714.65	1708.01
714.83	1738.73
715.01	1757.16
715.19	1734.63
715.38	1615.85
715.56	1718.25
715.74	1712.10
715.92	1693.67
716.11	1726.44
716.29	1621.99
716.47	1705.96
716.65	1753.06
716.84	1599.46
717.02	1755.11
717.20	1654.76
717.38	1585.13
717.57	1748.97
717.75	1710.05
717.93	1669.09
718.11	1783.78
718.30	1636.33
718.48	1759.21
718.66	1759.21
718.84	1734.63
719.03	1671.14
719.21	1646.57
719.39	1759.21
719.57	1759.21
719.75	1798.12
719.94	1699.81
720.12	1683.43
720.30	1644.52
720.48	1812.45
720.67	1683.43
720.85	1626.09
721.03	1693.67
721.21	1624.04
721.39	1769.44
721.58	1730.53
721.76	1673.19
721.94	1652.71
722.12	1697.77
722.30	1806.31
722.49	1699.81
722.67	1742.82
722.85	1730.53
723.03	1644.52
723.21	1617.90
723.40	1736.68
723.58	1734.63
723.76	1781.73
723.94	1734.63
724.12	1748.97
724.30	1789.92
724.49	1787.88
724.67	1642.47
724.85	1757.16
725.03	1619.94
725.21	1765.35
725.40	1751.01
725.58	1671.14
725.76	1787.88
725.94	1712.10
726.12	1619.94
726.30	1636.33
726.49	1716.20
726.67	1650.66
726.85	1705.96
727.03	1742.82
727.21	2148.32
727.39	2865.11
727.57	3786.69
727.76	4233.15
727.94	4519.87
728.12	4345.79
728.30	3678.15
728.48	2944.98
728.66	2609.11
728.84	2576.34
729.03	2310.11
729.21	2142.18
729.39	2023.39
729.57	1787.88
729.75	1818.60
729.93	1851.36
730.11	1652.71
730.30	1695.72
730.48	1665.00
730.66	1769.44
730.84	1839.08
731.02	1724.39
731.20	1662.95
731.38	1732.58
731.56	1640.42
731.74	1652.71
731.93	1708.01
732.11	1724.39
732.29	1699.81
732.47	1703.91
732.65	1675.24
732.83	1781.73
733.01	1751.01
733.19	1677.29
733.37	1740.77
733.56	1742.82
733.74	1718.25
733.92	1773.54
734.10	1609.70
734.28	1669.09
734.46	1640.42
734.64	1685.48
734.82	1632.23
735.00	1681.38
735.18	1714.15
735.36	1734.63
735.54	1691.62
735.73	1734.63
735.91	1685.48
736.09	1710.05
736.27	1722.34
736.45	1681.38
736.63	1662.95
736.81	1679.33
736.99	1800.16
737.17	1777.64
737.35	1601.51
737.53	1667.05
737.71	1705.96
737.89	1789.92
738.07	1671.14
738.25	1689.57
738.43	1560.55
738.61	1638.38
738.80	1636.33
738.98	1718.25
739.16	1693.67
739.34	1619.94
739.52	1812.45
739.70	1665.00
739.88	1734.63
740.06	1720.29
740.24	1613.80
740.42	1806.31
740.60	1615.85
740.78	1724.39
740.96	1642.47
741.14	1705.96
741.32	1789.92
741.50	1632.23
741.68	1734.63
741.86	1814.50
742.04	1640.42
742.22	1642.47
742.40	1710.05
742.58	1738.73
742.76	1673.19
742.94	1716.20
743.12	1644.52
743.30	1701.86
743.48	1757.16
743.66	1660.90
743.84	1701.86
744.02	1718.25
744.20	1744.87
744.38	1685.48
744.56	1720.29
744.74	1787.88
744.92	1746.92
745.10	1726.44
745.28	1771.49
745.46	1767.40
745.64	1712.10
745.82	1734.63
746.00	1724.39
746.18	1708.01
746.36	1632.23
746.54	1656.81
746.72	1724.39
746.90	1671.14
747.08	1771.49
747.26	1722.34
747.44	1722.34
747.62	1761.25
747.80	1705.96
747.98	1708.01
748.15	1667.05
748.33	1773.54
748.51	1697.77
748.69	1730.53
748.87	1652.71
749.05	1609.70
749.23	1677.29
749.41	1687.53
749.59	1656.81
749.77	1740.77
749.95	1697.77
750.13	1638.38
750.31	1757.16
750.49	1669.09
750.67	1757.16
750.85	1771.49
751.03	1693.67
751.20	1841.12
751.38	1738.73
751.56	1691.62
751.74	1652.71
751.92	1675.24
752.10	1646.57
752.28	1746.92
752.46	1726.44
752.64	1689.57
752.82	1656.81
753.00	1834.98
753.18	1632.23
753.35	1683.43
753.53	1621.99
753.71	1722.34
753.89	1708.01
754.07	1673.19
754.25	1773.54
754.43	1679.33
754.61	1617.90
754.79	1716.20
754.97	1751.01
755.14	1779.68
755.32	1669.09
755.50	1732.58
755.68	1636.33
755.86	1619.94
756.04	1652.71
756.22	1581.03
756.40	1724.39
756.57	1789.92
756.75	1650.66
756.93	1759.21
757.11	1746.92
757.29	1677.29
757.47	1626.09
757.65	1652.71
757.82	1564.65
758.00	1607.66
758.18	1699.81
758.36	1669.09
758.54	1789.92
758.72	1626.09
758.90	1705.96
759.07	1689.57
759.25	1644.52
759.43	1767.40
759.61	1628.14
759.79	2234.33
759.97	1726.44
760.15	1660.90
760.32	1665.00
760.50	1695.72
760.68	1734.63
760.86	1624.04
761.04	1748.97
761.22	1708.01
761.39	1718.25
761.57	1773.54
761.75	1724.39
761.93	1722.34
762.11	1595.37
762.28	1732.58
762.46	1615.85
762.64	1757.16
762.82	1652.71
763.00	1669.09
763.18	1738.73
763.35	1636.33
763.53	1681.38
763.71	1740.77
763.89	1689.57
764.07	1669.09
764.24	1685.48
764.42	1677.29
764.60	1712.10
764.78	1695.72
764.96	1796.07
765.13	1697.77
765.31	1755.11
765.49	1687.53
765.67	1619.94
765.84	1726.44
766.02	1699.81
766.20	1640.42
766.38	1708.01
766.56	1710.05
766.73	1744.87
766.91	1730.53
767.09	1667.05
767.27	1734.63
767.44	1691.62
767.62	1736.68
767.80	1718.25
767.98	1677.29
768.15	1630.18
768.33	1718.25
768.51	1714.15
768.69	1671.14
768.87	1783.78
769.04	1775.59
769.22	1808.36
769.40	1781.73
769.58	1802.21
769.75	1648.61
769.93	1724.39
770.11	1703.91
770.28	1626.09
770.46	1708.01
770.64	1683.43
770.82	1687.53
770.99	1630.18
771.17	1732.58
771.35	1660.90
771.53	1724.39
771.70	1619.94
771.88	1732.58
772.06	1724.39
772.23	1683.43
772.41	1740.77
772.59	1757.16
772.77	1619.94
772.94	1720.29
773.12	1744.87
773.30	1646.57
773.47	1714.15
773.65	1712.10
773.83	1794.02
774.01	1667.05
774.18	1636.33
774.36	1705.96
774.54	1617.90
774.71	1726.44
774.89	1644.52
775.07	1644.52
775.24	1773.54
775.42	1648.61
775.60	1796.07
775.78	1689.57
775.95	1646.57
776.13	1574.89
776.31	1628.14
776.48	1728.49
776.66	1734.63
776.84	1773.54
777.01	1636.33
777.19	1685.48
777.37	1701.86
777.54	1728.49
777.72	1777.64
777.90	1693.67
778.07	1708.01
778.25	1861.60
778.43	1804.26
778.60	1685.48
778.78	1767.40
778.96	1882.08
779.13	1648.61
779.31	1789.92
779.49	1656.81
779.66	1734.63
779.84	1701.86
780.01	1708.01
780.19	1714.15
780.37	1771.49
780.54	1789.92
780.72	1691.62
780.90	1675.24
781.07	1722.34
781.25	1710.05
781.43	1624.04
781.60	1724.39
781.78	1683.43
781.95	1689.57
782.13	1642.47
782.31	1722.34
782.48	1601.51
782.66	1656.81
782.83	1826.79
783.01	1746.92
783.19	1701.86
783.36	1695.72
783.54	1599.46
783.72	1669.09
783.89	1677.29
784.07	1728.49
784.24	1705.96
784.42	1746.92
784.60	1673.19
784.77	1726.44
784.95	1574.89
785.12	1665.00
785.30	1742.82
785.47	1669.09
785.65	1677.29
785.83	1693.67
786.00	1726.44
786.18	1667.05
786.35	1626.09
786.53	1636.33
786.71	1736.68
786.88	1724.39
787.06	1728.49
787.23	1679.33
787.41	1619.94
787.58	1689.57
787.76	1720.29
787.94	1667.05
788.11	1734.63
788.29	1644.52
788.46	1689.57
788.64	1644.52
788.81	1658.85
788.99	1669.09
789.16	1626.09
789.34	1755.11
789.52	1746.92
789.69	1654.76
789.87	1619.94
790.04	1677.29
790.22	1724.39
790.39	1845.22
790.57	1626.09
790.74	1650.66
790.92	1744.87
791.09	1609.70
791.27	1765.35
791.44	1779.68
791.62	1708.01
791.79	1703.91
791.97	1699.81
792.15	1843.17
792.32	1738.73
792.50	1765.35
792.67	1820.64
792.85	1853.41
793.02	1644.52
793.20	1648.61
793.37	1632.23
793.55	1732.58
793.72	1611.75
793.90	1652.71
794.07	1724.39
794.25	1613.80
794.42	1699.81
794.60	1693.67
794.77	1656.81
794.95	1820.64
795.12	1722.34
795.30	1648.61
795.47	1574.89
795.65	1900.52
795.82	1683.43
796.00	1699.81
796.17	1662.95
796.34	1712.10
796.52	1701.86
796.69	1791.97
796.87	1705.96
797.04	1724.39
797.22	1810.40
797.39	1697.77
797.57	1753.06
797.74	1665.00
797.92	1761.25
798.09	1669.09
798.27	1740.77
798.44	1667.05
798.62	1724.39
798.79	1720.29
798.96	1724.39
799.14	1609.70
799.31	1781.73
799.49	1607.66
799.66	1662.95
799.84	1767.40
800.01	1640.42
800.19	1691.62
800.36	1581.03
800.53	1699.81
800.71	1685.48
800.88	1736.68
801.06	1665.00
801.23	1617.90
801.41	1683.43
801.58	1658.85
801.75	1724.39
801.93	1722.34
802.10	1675.24
802.28	1771.49
802.45	1726.44
802.63	1728.49
802.80	1767.40
802.97	1718.25
803.15	1769.44
803.32	1710.05
803.50	1624.04
803.67	1767.40
803.84	1669.09
804.02	1644.52
804.19	1710.05
804.37	1517.54
804.54	1630.18
804.71	1714.15
804.89	1708.01
805.06	1607.66
805.24	1626.09
805.41	1656.81
805.58	1730.53
805.76	1832.93
805.93	1771.49
806.10	1798.12
806.28	1781.73
806.45	1658.85
806.63	1765.35
806.80	1734.63
806.97	1685.48
807.15	1720.29
807.32	1734.63
807.49	1738.73
807.67	1611.75
807.84	1746.92
808.01	1695.72
808.19	1808.36
808.36	1861.60
808.54	1605.61
808.71	1660.90
808.88	1658.85
809.06	1662.95
809.23	1789.92
809.40	1675.24
809.58	1796.07
809.75	1701.86
809.92	1660.90
810.10	1791.97
810.27	1658.85
810.44	1703.91
810.62	1714.15
810.79	1677.29
810.96	1701.86
811.14	1646.57
811.31	1671.14
811.48	1710.05
811.66	1687.53
811.83	1693.67
812.00	1732.58
812.18	1736.68
812.35	1837.03
812.52	1581.03
812.69	1648.61
812.87	1691.62
813.04	1669.09
813.21	1728.49
813.39	1689.57
813.56	1638.38
813.73	1710.05
813.91	1665.00
814.08	1716.20
814.25	1722.34
814.42	1529.83
814.60	1660.90
814.77	1732.58
814.94	1642.47
815.12	1689.57
815.29	1800.16
815.46	1656.81
815.63	1759.21
815.81	1654.76
815.98	1673.19
816.15	1665.00
816.33	1755.11
816.50	1683.43
816.67	1767.40
816.84	1689.57
817.02	1650.66
817.19	1714.15
817.36	1769.44
817.53	1687.53
817.71	1714.15
817.88	1759.21
818.05	1677.29
818.22	1591.27
818.40	1791.97
818.57	1689.57
818.74	1691.62
818.91	1701.86
819.09	1685.48
819.26	1738.73
819.43	1632.23
819.60	1732.58
819.78	1804.26
819.95	1804.26
820.12	1617.90
820.29	1761.25
820.47	1755.11
820.64	1708.01
820.81	1578.98
820.98	1714.15
821.15	1583.08
821.33	1730.53
821.50	1693.67
821.67	1667.05
821.84	1634.28
822.02	1675.24
822.19	1697.77
822.36	1671.14
822.53	1691.62
822.70	1675.24
822.88	1665.00
823.05	1705.96
823.22	1730.53
823.39	1820.64
823.56	1720.29
823.74	1773.54
823.91	1628.14
824.08	1644.52
824.25	1636.33
824.42	1800.16
824.60	1671.14
824.77	1683.43
824.94	1654.76
825.11	1716.20
825.28	1630.18
825.45	1734.63
825.63	1689.57
825.80	1632.23
825.97	1695.72
826.14	1742.82
826.31	1675.24
826.48	1742.82
826.66	1660.90
826.83	1699.81
827.00	1755.11
827.17	1679.33
827.34	1677.29
827.51	1603.56
827.69	1730.53
827.86	1546.22
828.03	1679.33
828.20	1669.09
828.37	1671.14
828.54	1687.53
828.71	1621.99
828.89	1877.99
829.06	1703.91
829.23	1708.01
829.40	1595.37
829.57	1632.23
829.74	1701.86
829.91	1648.61
830.09	1570.79
830.26	1699.81
830.43	1841.12
830.60	1742.82
830.77	1740.77
830.94	1787.88
831.11	1785.83
831.28	1691.62
831.46	1658.85
831.63	1665.00
831.80	1712.10
831.97	1652.71
832.14	1712.10
832.31	1697.77
832.48	1687.53
832.65	1748.97
832.82	1779.68
832.99	1705.96
833.17	1648.61
833.34	1761.25
833.51	1714.15
833.68	1632.23
833.85	1779.68
834.02	1689.57
834.19	1726.44
834.36	1665.00
834.53	1660.90
834.70	1699.81
834.87	1726.44
835.04	1669.09
835.22	1714.15
835.39	1656.81
835.56	1630.18
835.73	1718.25
835.90	1654.76
836.07	1693.67
836.24	1740.77
836.41	1630.18
836.58	1734.63
836.75	1751.01
836.92	1746.92
837.09	1636.33
837.26	1773.54
837.43	1812.45
837.60	1726.44
837.77	1697.77
837.94	1751.01
838.12	1742.82
838.29	1695.72
838.46	1624.04
838.63	1742.82
838.80	1787.88
838.97	1710.05
839.14	1667.05
839.31	1683.43
839.48	1697.77
839.65	1667.05
839.82	1806.31
839.99	1683.43
840.16	1576.94
840.33	1605.61
840.50	1665.00
840.67	1538.02
840.84	1533.93
841.01	1679.33
841.18	1683.43
841.35	1628.14
841.52	1708.01
841.69	1794.02
841.86	1621.99
842.03	1703.91
842.20	1720.29
842.37	1714.15
842.54	1609.70
842.71	1695.72
842.88	1669.09
843.05	1697.77
843.22	1699.81
843.39	1699.81
843.56	1632.23
843.73	1652.71
843.90	1652.71
844.07	1693.67
844.24	1732.58
844.41	1708.01
844.58	1667.05
844.75	1697.77
844.92	1783.78
845.09	1648.61
845.26	1611.75
845.43	1724.39
845.60	1699.81
845.77	1742.82
845.94	1697.77
846.10	1720.29
846.27	1601.51
846.44	1640.42
846.61	1669.09
846.78	1710.05
846.95	1718.25
847.12	1648.61
847.29	1667.05
847.46	1656.81
847.63	1734.63
847.80	1636.33
847.97	1652.71
848.14	1859.56
848.31	1726.44
848.48	1689.57
848.65	1726.44
848.82	1656.81
848.98	1824.74
849.15	1656.81
849.32	1755.11
849.49	1804.26
849.66	1705.96
849.83	1746.92
850.00	1648.61
850.17	1787.88
850.34	1701.86
850.51	1650.66
850.68	1656.81
850.85	1718.25
851.01	1742.82
851.18	1701.86
851.35	1759.21
851.52	1716.20
851.69	1714.15
851.86	1640.42
852.03	1736.68
852.20	1773.54
852.37	1648.61
852.53	1624.04
852.70	1691.62
852.87	1673.19
853.04	1714.15
853.21	1671.14
853.38	1800.16
853.55	1753.06
853.72	1722.34
853.89	1648.61
854.05	1695.72
854.22	1724.39
854.39	1689.57
854.56	1669.09
854.73	1789.92
854.90	1570.79
855.07	1697.77
855.23	1703.91
855.40	1675.24
855.57	1761.25
855.74	1609.70
855.91	1834.98
856.08	1624.04
856.25	1576.94
856.41	1675.24
856.58	1767.40
856.75	1691.62
856.92	1658.85
857.09	1720.29
857.26	1673.19
857.42	1603.56
857.59	1722.34
857.76	1681.38
857.93	1697.77
858.10	1695.72
858.27	1689.57
858.43	1726.44
858.60	1685.48
858.77	1693.67
858.94	1607.66
859.11	1726.44
859.27	1708.01
859.44	1740.77
859.61	1791.97
859.78	1775.59
859.95	1650.66
860.12	1656.81
860.28	1777.64
860.45	1755.11
860.62	1728.49
860.79	1740.77
860.95	1679.33
861.12	1710.05
861.29	1681.38
861.46	1685.48
861.63	1669.09
861.79	1675.24
861.96	1615.85
862.13	1703.91
862.30	1732.58
862.47	1708.01
862.63	1646.57
862.80	1787.88
862.97	1744.87
863.14	1738.73
863.30	1722.34
863.47	1693.67
863.64	1824.74
863.81	1683.43
863.97	1638.38
864.14	1726.44
864.31	1681.38
864.48	1753.06
864.65	1708.01
864.81	1761.25
864.98	1669.09
865.15	1744.87
865.32	1693.67
865.48	1718.25
865.65	1718.25
865.82	1640.42
865.98	1693.67
866.15	1699.81
866.32	1609.70
866.49	1671.14
866.65	1710.05
866.82	1652.71
866.99	1718.25
867.16	1638.38
867.32	1619.94
867.49	1683.43
867.66	1642.47
867.83	1593.32
867.99	1581.03
868.16	1660.90
868.33	1660.90
868.49	1662.95
868.66	1703.91
868.83	1763.30
868.99	1671.14
869.16	1650.66
869.33	1779.68
869.50	1665.00
869.66	1730.53
869.83	1728.49
870.00	1644.52
870.16	1714.15
870.33	1787.88
870.50	1718.25
870.66	1716.20
870.83	1902.56
871.00	1718.25
871.17	1765.35
871.33	1708.01
871.50	1669.09
871.67	1748.97
871.83	1603.56
872.00	1882.08
872.17	1705.96
872.33	1769.44
872.50	1736.68
872.67	1662.95
872.83	1662.95
873.00	1675.24
873.17	1652.71
873.33	1726.44
873.50	1718.25
873.67	1669.09
873.83	1662.95
874.00	1705.96
874.16	1775.59
874.33	1673.19
874.50	1677.29
874.66	1728.49
874.83	1662.95
875.00	1779.68
875.16	1775.59
875.33	1787.88
875.50	1628.14
875.66	1673.19
875.83	1789.92
875.99	1685.48
876.16	1712.10
876.33	1675.24
876.49	1656.81
876.66	1671.14
876.83	1671.14
876.99	1535.98
877.16	1808.36
877.32	1654.76
877.49	1656.81
877.66	1648.61
877.82	1789.92
877.99	1683.43
878.15	1751.01
878.32	1648.61
878.49	1701.86
878.65	1648.61
878.82	1710.05
878.98	1673.19
879.15	1798.12
879.32	1730.53
879.48	1705.96
879.65	1734.63
879.81	1669.09
879.98	1632.23
880.15	1697.77
880.31	1687.53
880.48	1634.28
880.64	1785.83
880.81	1720.29
880.97	1781.73
881.14	1834.98
881.31	1636.33
881.47	1824.74
881.64	1732.58
881.80	1648.61
881.97	1796.07
882.13	1763.30
882.30	1585.13
882.47	1695.72
882.63	1624.04
882.80	1667.05
882.96	1708.01
883.13	1773.54
883.29	1646.57
883.46	1697.77
883.62	1800.16
883.79	1746.92
883.95	1722.34
884.12	1718.25
884.29	1773.54
884.45	1710.05
884.62	1687.53
884.78	1609.70
884.95	1800.16
885.11	1665.00
885.28	1726.44
885.44	1646.57
885.61	1673.19
885.77	1791.97
885.94	1779.68
886.10	1740.77
886.27	1701.86
886.43	1775.59
886.60	1773.54
886.76	1673.19
886.93	1701.86
887.09	1736.68
887.26	1554.41
887.42	1681.38
887.59	1814.50
887.75	1847.27
887.92	1738.73
888.08	1744.87
888.25	1800.16
888.41	1814.50
888.58	1796.07
888.74	1638.38
888.91	1642.47
>>>>>End Processed Spectral Data<<<<<
