SpectraSuite Data File
++++++++++++++++++++++++++++++++++++
Date: Mon Jun 06 14:54:17 CEST 2016
User: root
Dark Spectrum Present: No
Reference Spectrum Present: No
Number of Sampled Component Spectra: 1
Spectrometers: USB4C02835
Integration Time (usec): 100000 (USB4C02835)
Spectra Averaged: 1 (USB4C02835)
Boxcar Smoothing: 0 (USB4C02835)
Correct for Electrical Dark: No (USB4C02835)
Strobe/Lamp Enabled: No (USB4C02835)
Correct for Detector Non-linearity: No (USB4C02835)
Correct for Stray Light: No (USB4C02835)
Number of Pixels in Processed Spectrum: 3648
>>>>>Begin Processed Spectral Data<<<<<
177.47	1411.05
177.69	1411.05
177.91	1411.05
178.13	1388.52
178.36	1386.47
178.58	1654.76
178.80	1697.77
179.02	1624.04
179.24	1574.89
179.46	1722.34
179.68	1769.44
179.90	1671.14
180.13	1652.71
180.35	1621.99
180.57	1624.04
180.79	1691.62
181.01	1652.71
181.23	1734.63
181.45	1685.48
181.67	1679.33
181.90	1769.44
182.12	1656.81
182.34	1617.90
182.56	1669.09
182.78	1665.00
183.00	1722.34
183.22	1771.49
183.44	1521.64
183.66	1867.75
183.89	1828.84
184.11	1701.86
184.33	1656.81
184.55	1818.60
184.77	1677.29
184.99	1740.77
185.21	1689.57
185.43	1900.52
185.65	1665.00
185.87	1734.63
186.10	1822.69
186.32	1898.47
186.54	1671.14
186.76	1689.57
186.98	1748.97
187.20	1662.95
187.42	1644.52
187.64	1673.19
187.86	1660.90
188.08	1763.30
188.30	1595.37
188.52	1681.38
188.75	1730.53
188.97	1828.84
189.19	1650.66
189.41	1748.97
189.63	1722.34
189.85	1728.49
190.07	1632.23
190.29	1693.67
190.51	1734.63
190.73	1546.22
190.95	1755.11
191.17	1691.62
191.39	1591.27
191.61	1669.09
191.84	1650.66
192.06	1724.39
192.28	1626.09
192.50	1880.04
192.72	1705.96
192.94	1656.81
193.16	1755.11
193.38	1705.96
193.60	1652.71
193.82	1779.68
194.04	1714.15
194.26	1701.86
194.48	1714.15
194.70	1669.09
194.92	1656.81
195.14	1751.01
195.36	1669.09
195.58	1701.86
195.80	1665.00
196.02	1658.85
196.24	1699.81
196.46	1572.84
196.69	1646.57
196.91	1896.42
197.13	1626.09
197.35	1593.32
197.57	1845.22
197.79	1771.49
198.01	1759.21
198.23	1763.30
198.45	1703.91
198.67	1675.24
198.89	1705.96
199.11	1599.46
199.33	1599.46
199.55	1626.09
199.77	1720.29
199.99	1726.44
200.21	1632.23
200.43	1689.57
200.65	1656.81
200.87	1619.94
201.09	1691.62
201.31	1599.46
201.53	1734.63
201.75	1722.34
201.97	1771.49
202.19	1708.01
202.41	1699.81
202.63	1773.54
202.85	1648.61
203.07	1708.01
203.29	1630.18
203.51	1675.24
203.73	1724.39
203.95	1804.26
204.17	1708.01
204.39	1662.95
204.61	1701.86
204.83	1708.01
205.05	1781.73
205.27	1765.35
205.49	1796.07
205.71	1730.53
205.93	1615.85
206.15	1685.48
206.37	1716.20
206.59	1656.81
206.81	1621.99
207.03	1656.81
207.25	1650.66
207.47	1757.16
207.69	1669.09
207.91	1781.73
208.13	1759.21
208.34	1624.04
208.56	1630.18
208.78	1724.39
209.00	1689.57
209.22	1718.25
209.44	1624.04
209.66	1632.23
209.88	1759.21
210.10	1689.57
210.32	1714.15
210.54	1779.68
210.76	1683.43
210.98	1708.01
211.20	1531.88
211.42	1763.30
211.64	1708.01
211.86	1701.86
212.08	1701.86
212.30	1671.14
212.52	1640.42
212.74	1722.34
212.96	1703.91
213.17	1802.21
213.39	1675.24
213.61	1755.11
213.83	1667.05
214.05	1636.33
214.27	1789.92
214.49	1699.81
214.71	1675.24
214.93	1732.58
215.15	1632.23
215.37	1767.40
215.59	1738.73
215.81	1777.64
216.03	1736.68
216.24	1748.97
216.46	1722.34
216.68	1691.62
216.90	1665.00
217.12	1796.07
217.34	1701.86
217.56	1781.73
217.78	1773.54
218.00	1761.25
218.22	1710.05
218.44	1783.78
218.66	1767.40
218.87	1806.31
219.09	1746.92
219.31	1757.16
219.53	1650.66
219.75	1638.38
219.97	1689.57
220.19	1693.67
220.41	1691.62
220.63	1775.59
220.85	1720.29
221.06	1738.73
221.28	1783.78
221.50	1710.05
221.72	1763.30
221.94	1654.76
222.16	1724.39
222.38	1804.26
222.60	1636.33
222.82	1714.15
223.03	1718.25
223.25	1671.14
223.47	1775.59
223.69	1826.79
223.91	1724.39
224.13	1728.49
224.35	1677.29
224.57	1695.72
224.78	1722.34
225.00	1640.42
225.22	1656.81
225.44	1652.71
225.66	1761.25
225.88	1626.09
226.10	1773.54
226.32	1656.81
226.53	1771.49
226.75	1708.01
226.97	1691.62
227.19	1746.92
227.41	1722.34
227.63	1583.08
227.85	1628.14
228.06	1685.48
228.28	1751.01
228.50	1806.31
228.72	1673.19
228.94	1705.96
229.16	1681.38
229.37	1650.66
229.59	1689.57
229.81	1804.26
230.03	1701.86
230.25	1673.19
230.47	1617.90
230.69	1656.81
230.90	1755.11
231.12	1585.13
231.34	1763.30
231.56	1746.92
231.78	1665.00
232.00	1759.21
232.21	1779.68
232.43	1599.46
232.65	1550.31
232.87	1740.77
233.09	1650.66
233.30	1695.72
233.52	1732.58
233.74	1708.01
233.96	1675.24
234.18	1669.09
234.40	1683.43
234.61	1841.12
234.83	1671.14
235.05	1583.08
235.27	1841.12
235.49	1761.25
235.70	1736.68
235.92	1732.58
236.14	1746.92
236.36	1763.30
236.58	1634.28
236.79	1753.06
237.01	1718.25
237.23	1730.53
237.45	1789.92
237.67	1714.15
237.88	1703.91
238.10	1732.58
238.32	1644.52
238.54	1705.96
238.76	1681.38
238.97	1583.08
239.19	1697.77
239.41	1814.50
239.63	1791.97
239.85	1722.34
240.06	1669.09
240.28	1669.09
240.50	1767.40
240.72	1740.77
240.93	1646.57
241.15	1804.26
241.37	1701.86
241.59	1728.49
241.81	1714.15
242.02	1617.90
242.24	1800.16
242.46	1734.63
242.68	1693.67
242.89	1708.01
243.11	1710.05
243.33	1665.00
243.55	1722.34
243.76	1777.64
243.98	1695.72
244.20	1662.95
244.42	1689.57
244.64	1675.24
244.85	1703.91
245.07	1599.46
245.29	1726.44
245.51	1730.53
245.72	1712.10
245.94	1798.12
246.16	1718.25
246.38	1726.44
246.59	1667.05
246.81	1652.71
247.03	1662.95
247.24	1689.57
247.46	1675.24
247.68	1675.24
247.90	1662.95
248.11	1708.01
248.33	1763.30
248.55	1689.57
248.77	1779.68
248.98	1771.49
249.20	1769.44
249.42	1656.81
249.64	1787.88
249.85	1714.15
250.07	1714.15
250.29	1710.05
250.50	1787.88
250.72	1644.52
250.94	1722.34
251.16	1777.64
251.37	1683.43
251.59	1730.53
251.81	1710.05
252.02	1732.58
252.24	1669.09
252.46	1759.21
252.68	1646.57
252.89	1665.00
253.11	1607.66
253.33	1798.12
253.54	1773.54
253.76	1642.47
253.98	1705.96
254.20	1705.96
254.41	1630.18
254.63	1675.24
254.85	1669.09
255.06	1728.49
255.28	1761.25
255.50	1728.49
255.71	1665.00
255.93	1650.66
256.15	1705.96
256.36	1722.34
256.58	1671.14
256.80	1722.34
257.02	1689.57
257.23	1640.42
257.45	1695.72
257.67	1804.26
257.88	1658.85
258.10	1656.81
258.32	1687.53
258.53	1724.39
258.75	1724.39
258.97	1734.63
259.18	1695.72
259.40	1736.68
259.62	1841.12
259.83	1769.44
260.05	1779.68
260.27	1804.26
260.48	1783.78
260.70	1656.81
260.92	1640.42
261.13	1615.85
261.35	1714.15
261.57	1740.77
261.78	1675.24
262.00	1691.62
262.22	1826.79
262.43	1722.34
262.65	1662.95
262.86	1689.57
263.08	1769.44
263.30	1714.15
263.51	1710.05
263.73	1679.33
263.95	1773.54
264.16	1576.94
264.38	1626.09
264.60	1728.49
264.81	1771.49
265.03	1730.53
265.25	1671.14
265.46	1691.62
265.68	1716.20
265.89	1695.72
266.11	1644.52
266.33	1753.06
266.54	1800.16
266.76	1742.82
266.98	1734.63
267.19	1755.11
267.41	1761.25
267.62	1708.01
267.84	1636.33
268.06	1705.96
268.27	1734.63
268.49	1740.77
268.70	1748.97
268.92	1650.66
269.14	1605.61
269.35	1660.90
269.57	1660.90
269.79	1748.97
270.00	1619.94
270.22	1830.88
270.43	1673.19
270.65	1574.89
270.87	1712.10
271.08	1798.12
271.30	1673.19
271.51	1718.25
271.73	1701.86
271.95	1791.97
272.16	1759.21
272.38	1710.05
272.59	1624.04
272.81	1718.25
273.02	1701.86
273.24	1675.24
273.46	1685.48
273.67	1699.81
273.89	1691.62
274.10	1708.01
274.32	1648.61
274.54	1648.61
274.75	1691.62
274.97	1638.38
275.18	1710.05
275.40	1767.40
275.61	1716.20
275.83	1681.38
276.05	1646.57
276.26	1658.85
276.48	1777.64
276.69	1685.48
276.91	1736.68
277.12	1804.26
277.34	1656.81
277.55	1742.82
277.77	1716.20
277.99	1605.61
278.20	1677.29
278.42	1638.38
278.63	1583.08
278.85	1716.20
279.06	1609.70
279.28	1748.97
279.49	1724.39
279.71	1757.16
279.93	1669.09
280.14	1687.53
280.36	1697.77
280.57	1705.96
280.79	1763.30
281.00	1654.76
281.22	1730.53
281.43	1775.59
281.65	1665.00
281.86	1617.90
282.08	1812.45
282.29	1853.41
282.51	1662.95
282.73	1574.89
282.94	1581.03
283.16	1789.92
283.37	1888.23
283.59	1699.81
283.80	1710.05
284.02	1703.91
284.23	1689.57
284.45	1687.53
284.66	1703.91
284.88	1667.05
285.09	1675.24
285.31	1726.44
285.52	1710.05
285.74	1572.84
285.95	1798.12
286.17	1761.25
286.38	1767.40
286.60	1681.38
286.81	1683.43
287.03	1632.23
287.24	1695.72
287.46	1748.97
287.67	1708.01
287.89	1843.17
288.10	1646.57
288.32	1714.15
288.53	1794.02
288.75	1730.53
288.96	1712.10
289.18	1724.39
289.39	1656.81
289.61	1732.58
289.82	1796.07
290.04	1742.82
290.25	1556.46
290.47	1732.58
290.68	1669.09
290.90	1716.20
291.11	1654.76
291.33	1738.73
291.54	1773.54
291.76	1646.57
291.97	1708.01
292.18	1763.30
292.40	1726.44
292.61	1761.25
292.83	1855.46
293.04	1673.19
293.26	1685.48
293.47	1728.49
293.69	1644.52
293.90	1646.57
294.12	1841.12
294.33	1605.61
294.55	1730.53
294.76	1712.10
294.97	1773.54
295.19	1804.26
295.40	1732.58
295.62	1695.72
295.83	1687.53
296.05	1712.10
296.26	1720.29
296.48	1624.04
296.69	1699.81
296.90	1667.05
297.12	1728.49
297.33	1804.26
297.55	1708.01
297.76	1730.53
297.98	1738.73
298.19	1751.01
298.41	1714.15
298.62	1712.10
298.83	1769.44
299.05	1722.34
299.26	1734.63
299.48	1634.28
299.69	1734.63
299.90	1767.40
300.12	1654.76
300.33	1724.39
300.55	1695.72
300.76	1685.48
300.98	1617.90
301.19	1699.81
301.40	1703.91
301.62	1681.38
301.83	1779.68
302.05	1683.43
302.26	1759.21
302.47	1736.68
302.69	1665.00
302.90	1710.05
303.12	1624.04
303.33	1689.57
303.54	1871.84
303.76	1660.90
303.97	1718.25
304.19	1759.21
304.40	1595.37
304.61	1740.77
304.83	1769.44
305.04	1714.15
305.26	1710.05
305.47	1636.33
305.68	1703.91
305.90	1558.50
306.11	1746.92
306.33	1732.58
306.54	1732.58
306.75	1615.85
306.97	1597.42
307.18	1615.85
307.39	1667.05
307.61	1701.86
307.82	1714.15
308.04	1798.12
308.25	1685.48
308.46	1732.58
308.68	1683.43
308.89	1677.29
309.10	1806.31
309.32	1708.01
309.53	1642.47
309.74	1675.24
309.96	1708.01
310.17	1779.68
310.39	1687.53
310.60	1687.53
310.81	1703.91
311.03	1644.52
311.24	1728.49
311.45	1734.63
311.67	1783.78
311.88	1738.73
312.09	1685.48
312.31	1683.43
312.52	1695.72
312.73	1654.76
312.95	1554.41
313.16	1638.38
313.37	1751.01
313.59	1703.91
313.80	1763.30
314.01	1748.97
314.23	1644.52
314.44	1705.96
314.65	1601.51
314.87	1601.51
315.08	1613.80
315.29	1617.90
315.51	1679.33
315.72	1656.81
315.93	1742.82
316.15	1746.92
316.36	1701.86
316.57	1701.86
316.79	1697.77
317.00	1771.49
317.21	1673.19
317.43	1636.33
317.64	1798.12
317.85	1658.85
318.07	1626.09
318.28	1675.24
318.49	1800.16
318.70	1959.91
318.92	1769.44
319.13	1812.45
319.34	1845.22
319.56	1683.43
319.77	1818.60
319.98	1812.45
320.20	1820.64
320.41	1703.91
320.62	1742.82
320.83	1714.15
321.05	1810.40
321.26	1673.19
321.47	1714.15
321.69	1732.58
321.90	1613.80
322.11	1640.42
322.32	1683.43
322.54	1806.31
322.75	1693.67
322.96	1787.88
323.18	1681.38
323.39	1597.42
323.60	1603.56
323.81	1759.21
324.03	1691.62
324.24	1783.78
324.45	1691.62
324.66	1716.20
324.88	1710.05
325.09	1773.54
325.30	1701.86
325.52	1685.48
325.73	1728.49
325.94	1685.48
326.15	1552.36
326.37	1689.57
326.58	1785.83
326.79	1763.30
327.00	1617.90
327.22	1714.15
327.43	1695.72
327.64	1669.09
327.85	1740.77
328.07	1742.82
328.28	1794.02
328.49	1605.61
328.70	1710.05
328.92	1691.62
329.13	1712.10
329.34	1662.95
329.55	1734.63
329.76	1728.49
329.98	1738.73
330.19	1853.41
330.40	1656.81
330.61	1777.64
330.83	1740.77
331.04	1675.24
331.25	1714.15
331.46	1648.61
331.68	1654.76
331.89	1832.93
332.10	1677.29
332.31	1609.70
332.52	1716.20
332.74	1714.15
332.95	1611.75
333.16	1708.01
333.37	1763.30
333.58	1597.42
333.80	1671.14
334.01	1570.79
334.22	1654.76
334.43	1667.05
334.64	1669.09
334.86	1642.47
335.07	1642.47
335.28	1783.78
335.49	1615.85
335.70	1624.04
335.92	1794.02
336.13	1849.32
336.34	1765.35
336.55	1705.96
336.76	1734.63
336.98	1509.35
337.19	1665.00
337.40	1769.44
337.61	1873.89
337.82	1699.81
338.04	1761.25
338.25	1669.09
338.46	1662.95
338.67	1648.61
338.88	1665.00
339.09	1628.14
339.31	1683.43
339.52	1652.71
339.73	1683.43
339.94	1665.00
340.15	1839.08
340.36	1738.73
340.58	1650.66
340.79	1693.67
341.00	1789.92
341.21	1624.04
341.42	1828.84
341.63	1718.25
341.85	1746.92
342.06	1671.14
342.27	1624.04
342.48	1738.73
342.69	1669.09
342.90	1722.34
343.12	1710.05
343.33	1681.38
343.54	1771.49
343.75	1720.29
343.96	1665.00
344.17	1636.33
344.38	1591.27
344.60	1699.81
344.81	1695.72
345.02	1685.48
345.23	1798.12
345.44	1837.03
345.65	1755.11
345.86	1740.77
346.07	1716.20
346.29	1701.86
346.50	1697.77
346.71	1753.06
346.92	1761.25
347.13	1724.39
347.34	1720.29
347.55	1736.68
347.76	1732.58
347.98	1669.09
348.19	1673.19
348.40	1710.05
348.61	1677.29
348.82	1757.16
349.03	1765.35
349.24	1732.58
349.45	1806.31
349.66	1626.09
349.88	1621.99
350.09	1671.14
350.30	1771.49
350.51	1744.87
350.72	1691.62
350.93	1708.01
351.14	1638.38
351.35	1660.90
351.56	1656.81
351.77	1648.61
351.99	1722.34
352.20	1773.54
352.41	1669.09
352.62	1613.80
352.83	1742.82
353.04	1650.66
353.25	1669.09
353.46	1765.35
353.67	1660.90
353.88	1738.73
354.09	1746.92
354.30	1691.62
354.52	1714.15
354.73	1699.81
354.94	1738.73
355.15	1751.01
355.36	1810.40
355.57	1738.73
355.78	1677.29
355.99	1642.47
356.20	1701.86
356.41	1732.58
356.62	1718.25
356.83	1775.59
357.04	1785.83
357.25	1630.18
357.46	1701.86
357.68	1687.53
357.89	1656.81
358.10	1701.86
358.31	1708.01
358.52	1716.20
358.73	1669.09
358.94	1597.42
359.15	1746.92
359.36	1748.97
359.57	1693.67
359.78	1679.33
359.99	1796.07
360.20	1591.27
360.41	1679.33
360.62	1730.53
360.83	1771.49
361.04	1648.61
361.25	1640.42
361.46	1781.73
361.67	1685.48
361.88	1665.00
362.09	1732.58
362.30	1714.15
362.51	1685.48
362.72	1765.35
362.93	1796.07
363.14	1742.82
363.35	1683.43
363.56	1665.00
363.78	1753.06
363.99	1716.20
364.20	1578.98
364.41	1753.06
364.62	1839.08
364.83	1718.25
365.04	1640.42
365.25	1677.29
365.46	1806.31
365.67	1599.46
365.88	1621.99
366.09	1728.49
366.30	1701.86
366.51	1640.42
366.72	1574.89
366.93	1708.01
367.14	1732.58
367.35	1738.73
367.56	1644.52
367.77	1767.40
367.98	1726.44
368.18	1708.01
368.39	1673.19
368.60	1587.18
368.81	1748.97
369.02	1724.39
369.23	1693.67
369.44	1642.47
369.65	1654.76
369.86	1755.11
370.07	1751.01
370.28	1603.56
370.49	1779.68
370.70	1744.87
370.91	1587.18
371.12	1656.81
371.33	1779.68
371.54	1677.29
371.75	1751.01
371.96	1687.53
372.17	1609.70
372.38	1689.57
372.59	1763.30
372.80	1652.71
373.01	1726.44
373.22	1730.53
373.43	1785.83
373.64	1691.62
373.85	1767.40
374.06	1777.64
374.26	1785.83
374.47	1691.62
374.68	1763.30
374.89	1695.72
375.10	1742.82
375.31	1685.48
375.52	1763.30
375.73	1746.92
375.94	1710.05
376.15	1794.02
376.36	1691.62
376.57	1675.24
376.78	1742.82
376.99	1714.15
377.20	1759.21
377.40	1652.71
377.61	1742.82
377.82	1656.81
378.03	1769.44
378.24	1757.16
378.45	1714.15
378.66	1748.97
378.87	1595.37
379.08	1617.90
379.29	1701.86
379.50	1705.96
379.71	1683.43
379.91	1767.40
380.12	1705.96
380.33	1685.48
380.54	1767.40
380.75	1642.47
380.96	1642.47
381.17	1748.97
381.38	1748.97
381.59	1720.29
381.80	1755.11
382.00	1830.88
382.21	1802.21
382.42	1818.60
382.63	1767.40
382.84	1746.92
383.05	1755.11
383.26	1812.45
383.47	1689.57
383.68	1751.01
383.88	1746.92
384.09	1779.68
384.30	1841.12
384.51	1742.82
384.72	1619.94
384.93	1587.18
385.14	1669.09
385.35	1746.92
385.55	1634.28
385.76	1828.84
385.97	1701.86
386.18	1665.00
386.39	1654.76
386.60	1705.96
386.81	1675.24
387.02	1634.28
387.22	1681.38
387.43	1697.77
387.64	1726.44
387.85	1912.80
388.06	2187.23
388.27	4171.71
388.48	6393.76
388.68	7993.22
388.89	9414.51
389.10	9414.51
389.31	8392.58
389.52	7409.55
389.73	6387.61
389.93	6168.48
390.14	5683.11
390.35	5148.59
390.56	4450.24
390.77	3680.20
390.98	3002.32
391.18	2451.42
391.39	2101.22
391.60	1816.55
391.81	1802.21
392.02	1779.68
392.23	1828.84
392.43	1697.77
392.64	1785.83
392.85	1740.77
393.06	1847.27
393.27	1710.05
393.47	1660.90
393.68	1689.57
393.89	1677.29
394.10	1769.44
394.31	1654.76
394.52	1648.61
394.72	1665.00
394.93	1802.21
395.14	1619.94
395.35	1738.73
395.56	1660.90
395.76	1693.67
395.97	1839.08
396.18	1839.08
396.39	1753.06
396.60	1976.29
396.80	1832.93
397.01	1845.22
397.22	1785.83
397.43	1822.69
397.64	1701.86
397.84	1761.25
398.05	1877.99
398.26	1722.34
398.47	1714.15
398.67	1806.31
398.88	1718.25
399.09	1730.53
399.30	1644.52
399.51	1796.07
399.71	1570.79
399.92	1716.20
400.13	1693.67
400.34	1660.90
400.54	1708.01
400.75	1748.97
400.96	1796.07
401.17	1818.60
401.37	1669.09
401.58	1687.53
401.79	1777.64
402.00	1976.29
402.21	1988.58
402.41	1824.74
402.62	1968.10
402.83	2035.68
403.04	1886.18
403.24	2009.06
403.45	1798.12
403.66	1892.32
403.87	1884.13
404.07	1961.95
404.28	1970.15
404.49	1877.99
404.70	1814.50
404.90	1753.06
405.11	1810.40
405.32	1740.77
405.52	1701.86
405.73	1644.52
405.94	1695.72
406.15	1673.19
406.35	1753.06
406.56	1775.59
406.77	1699.81
406.98	1785.83
407.18	1638.38
407.39	1783.78
407.60	1683.43
407.80	1681.38
408.01	1642.47
408.22	1730.53
408.43	1755.11
408.63	1716.20
408.84	1718.25
409.05	1689.57
409.25	1648.61
409.46	1656.81
409.67	1785.83
409.88	1621.99
410.08	1681.38
410.29	1730.53
410.50	1708.01
410.70	1722.34
410.91	1646.57
411.12	1732.58
411.32	1732.58
411.53	1677.29
411.74	1775.59
411.95	1802.21
412.15	1728.49
412.36	1804.26
412.57	1701.86
412.77	1853.41
412.98	1705.96
413.19	1689.57
413.39	1699.81
413.60	1773.54
413.81	1738.73
414.01	1628.14
414.22	1740.77
414.43	1753.06
414.63	1751.01
414.84	1783.78
415.05	1757.16
415.25	1609.70
415.46	1779.68
415.67	1673.19
415.87	1714.15
416.08	1716.20
416.29	1671.14
416.49	1769.44
416.70	1689.57
416.91	1630.18
417.11	1626.09
417.32	1769.44
417.53	1849.32
417.73	1767.40
417.94	1714.15
418.15	1646.57
418.35	1726.44
418.56	1683.43
418.77	1800.16
418.97	1730.53
419.18	1673.19
419.38	1585.13
419.59	1673.19
419.80	1771.49
420.00	1662.95
420.21	1732.58
420.42	1759.21
420.62	1783.78
420.83	1677.29
421.04	1640.42
421.24	1697.77
421.45	1705.96
421.65	1650.66
421.86	1669.09
422.07	1722.34
422.27	1695.72
422.48	1705.96
422.69	1671.14
422.89	1703.91
423.10	1699.81
423.30	1578.98
423.51	1738.73
423.72	1748.97
423.92	1765.35
424.13	1640.42
424.33	1697.77
424.54	1791.97
424.75	1710.05
424.95	1783.78
425.16	1738.73
425.36	1708.01
425.57	1765.35
425.78	1740.77
425.98	1773.54
426.19	1632.23
426.39	1693.67
426.60	1748.97
426.81	1789.92
427.01	1785.83
427.22	1738.73
427.42	1648.61
427.63	1667.05
427.83	1755.11
428.04	1812.45
428.25	1781.73
428.45	1714.15
428.66	1662.95
428.86	1763.30
429.07	1724.39
429.28	1738.73
429.48	1665.00
429.69	1636.33
429.89	1656.81
430.10	1683.43
430.30	1691.62
430.51	1785.83
430.71	1722.34
430.92	1665.00
431.13	1673.19
431.33	1744.87
431.54	1726.44
431.74	1724.39
431.95	1814.50
432.15	1634.28
432.36	1732.58
432.56	1773.54
432.77	1804.26
432.98	1781.73
433.18	1767.40
433.39	1650.66
433.59	1660.90
433.80	1794.02
434.00	1898.47
434.21	1691.62
434.41	1728.49
434.62	1808.36
434.82	1558.50
435.03	1626.09
435.23	1724.39
435.44	1595.37
435.64	1697.77
435.85	1753.06
436.06	1789.92
436.26	1765.35
436.47	1634.28
436.67	1638.38
436.88	1736.68
437.08	1777.64
437.29	1769.44
437.49	1802.21
437.70	1830.88
437.90	1753.06
438.11	1794.02
438.31	1808.36
438.52	1812.45
438.72	1812.45
438.93	1847.27
439.13	1832.93
439.34	1845.22
439.54	1693.67
439.75	1818.60
439.95	1867.75
440.16	1673.19
440.36	1726.44
440.57	1779.68
440.77	1734.63
440.98	1744.87
441.18	1738.73
441.39	1640.42
441.59	1697.77
441.80	1783.78
442.00	1681.38
442.21	1748.97
442.41	1603.56
442.62	1781.73
442.82	1613.80
443.02	1726.44
443.23	1714.15
443.43	1767.40
443.64	1845.22
443.84	1652.71
444.05	1820.64
444.25	1763.30
444.46	1746.92
444.66	1783.78
444.87	1837.03
445.07	1613.80
445.28	1628.14
445.48	1773.54
445.69	1834.98
445.89	1880.04
446.09	1771.49
446.30	2017.25
446.50	2576.34
446.71	3678.15
446.91	4116.42
447.12	4583.35
447.32	4661.18
447.53	4138.94
447.73	3766.21
447.93	3420.11
448.14	3198.93
448.34	3108.82
448.55	2858.96
448.75	2789.33
448.96	2709.46
449.16	2367.45
449.36	2187.23
449.57	2013.15
449.77	1873.89
449.98	1734.63
450.18	1830.88
450.39	1781.73
450.59	1767.40
450.79	1728.49
451.00	1716.20
451.20	1830.88
451.41	1607.66
451.61	1699.81
451.81	1771.49
452.02	1699.81
452.22	1677.29
452.43	1652.71
452.63	1693.67
452.84	1722.34
453.04	1691.62
453.24	1757.16
453.45	1714.15
453.65	1701.86
453.86	1734.63
454.06	1722.34
454.26	1787.88
454.47	1683.43
454.67	1853.41
454.87	1808.36
455.08	1642.47
455.28	1773.54
455.49	1769.44
455.69	1677.29
455.89	1828.84
456.10	1812.45
456.30	1796.07
456.51	1714.15
456.71	1734.63
456.91	1746.92
457.12	1759.21
457.32	1767.40
457.52	1630.18
457.73	1812.45
457.93	1763.30
458.14	1748.97
458.34	1691.62
458.54	1765.35
458.75	1689.57
458.95	1804.26
459.15	1800.16
459.36	1685.48
459.56	1779.68
459.76	1875.94
459.97	1736.68
460.17	1755.11
460.37	1742.82
460.58	1765.35
460.78	1751.01
460.99	1720.29
461.19	1722.34
461.39	1665.00
461.60	1742.82
461.80	1818.60
462.00	1689.57
462.21	1673.19
462.41	1773.54
462.61	1677.29
462.82	1624.04
463.02	1687.53
463.22	1724.39
463.43	1802.21
463.63	1839.08
463.83	1783.78
464.04	1755.11
464.24	1773.54
464.44	1693.67
464.64	1728.49
464.85	1753.06
465.05	1812.45
465.25	1673.19
465.46	1693.67
465.66	1757.16
465.86	1759.21
466.07	1732.58
466.27	1679.33
466.47	1619.94
466.68	1652.71
466.88	1804.26
467.08	1787.88
467.29	1861.60
467.49	1673.19
467.69	1748.97
467.89	1812.45
468.10	1687.53
468.30	1689.57
468.50	1802.21
468.71	1767.40
468.91	1585.13
469.11	1832.93
469.31	1748.97
469.52	1736.68
469.72	1849.32
469.92	1806.31
470.13	1687.53
470.33	1701.86
470.53	1783.78
470.73	2090.98
470.94	2340.83
471.14	2320.35
471.34	2457.56
471.54	2361.31
471.75	2191.33
471.95	2121.70
472.15	1976.29
472.36	2068.45
472.56	1976.29
472.76	2019.30
472.96	2039.78
473.17	1968.10
473.37	1886.18
473.57	1806.31
473.77	1851.36
473.98	1710.05
474.18	1726.44
474.38	1863.65
474.58	1634.28
474.79	1693.67
474.99	1630.18
475.19	1724.39
475.39	1654.76
475.60	1710.05
475.80	1796.07
476.00	1708.01
476.20	1746.92
476.41	1730.53
476.61	1734.63
476.81	1818.60
477.01	1724.39
477.21	1892.32
477.42	1751.01
477.62	1710.05
477.82	1742.82
478.02	1685.48
478.23	1736.68
478.43	1759.21
478.63	1675.24
478.83	1730.53
479.03	1740.77
479.24	1812.45
479.44	1873.89
479.64	1662.95
479.84	1578.98
480.04	1628.14
480.25	1800.16
480.45	1730.53
480.65	1675.24
480.85	1781.73
481.06	1665.00
481.26	1722.34
481.46	1839.08
481.66	1826.79
481.86	1673.19
482.06	1800.16
482.27	1681.38
482.47	1679.33
482.67	1726.44
482.87	1701.86
483.07	1775.59
483.28	1681.38
483.48	1632.23
483.68	1710.05
483.88	1675.24
484.08	1665.00
484.29	1671.14
484.49	1703.91
484.69	1576.94
484.89	1785.83
485.09	1732.58
485.29	1724.39
485.50	1763.30
485.70	1640.42
485.90	1796.07
486.10	1740.77
486.30	1740.77
486.50	1759.21
486.71	1769.44
486.91	1742.82
487.11	1804.26
487.31	1617.90
487.51	1689.57
487.71	1732.58
487.91	1683.43
488.12	1689.57
488.32	1703.91
488.52	1712.10
488.72	1619.94
488.92	1724.39
489.12	1722.34
489.32	1781.73
489.53	1671.14
489.73	1673.19
489.93	1804.26
490.13	1611.75
490.33	1656.81
490.53	1693.67
490.73	1820.64
490.94	1607.66
491.14	1732.58
491.34	1865.70
491.54	2084.83
491.74	2422.75
491.94	2881.49
492.14	3041.23
492.34	2965.46
492.54	2676.70
492.75	2363.36
492.95	2478.04
493.15	2334.68
493.35	2252.77
493.55	2205.66
493.75	2076.64
493.95	2060.26
494.15	1972.19
494.35	1902.56
494.56	1906.66
494.76	1746.92
494.96	1759.21
495.16	1806.31
495.36	1748.97
495.56	1681.38
495.76	1708.01
495.96	1703.91
496.16	1773.54
496.36	1798.12
496.56	1677.29
496.77	1744.87
496.97	1705.96
497.17	1808.36
497.37	1703.91
497.57	1732.58
497.77	1677.29
497.97	1714.15
498.17	1759.21
498.37	1806.31
498.57	1722.34
498.77	1753.06
498.97	1796.07
499.17	1837.03
499.38	1755.11
499.58	1765.35
499.78	1738.73
499.98	1761.25
500.18	1755.11
500.38	1677.29
500.58	1996.77
500.78	2535.39
500.98	4569.02
501.18	5648.30
501.38	6453.15
501.58	7059.35
501.78	6244.26
501.98	5332.91
502.18	4769.72
502.38	4214.72
502.58	4122.56
502.78	3676.10
502.98	3553.23
503.18	3432.40
503.38	3098.58
503.59	2838.48
503.79	2594.78
503.99	2500.57
504.19	2277.34
504.39	2246.62
504.59	2113.50
504.79	2084.83
504.99	2031.58
505.19	1931.23
505.39	1820.64
505.59	1953.76
505.79	1869.80
505.99	1877.99
506.19	1810.40
506.39	1841.12
506.59	1701.86
506.79	1683.43
506.99	1832.93
507.19	1800.16
507.39	1726.44
507.59	1689.57
507.79	1685.48
507.99	1624.04
508.19	1767.40
508.39	1689.57
508.59	1671.14
508.79	1837.03
508.99	1787.88
509.19	1751.01
509.39	1800.16
509.59	1689.57
509.79	1628.14
509.99	1730.53
510.19	1837.03
510.39	1728.49
510.59	1773.54
510.79	1714.15
510.99	1644.52
511.19	1689.57
511.39	1863.65
511.59	1751.01
511.79	1824.74
511.99	1830.88
512.19	1755.11
512.38	1736.68
512.58	1703.91
512.78	1726.44
512.98	1771.49
513.18	1753.06
513.38	1677.29
513.58	1769.44
513.78	1632.23
513.98	1771.49
514.18	1759.21
514.38	1701.86
514.58	1687.53
514.78	1624.04
514.98	1699.81
515.18	1796.07
515.38	1703.91
515.58	1863.65
515.78	1689.57
515.98	1734.63
516.18	1761.25
516.38	1748.97
516.57	1720.29
516.77	1648.61
516.97	1794.02
517.17	1705.96
517.37	1617.90
517.57	1740.77
517.77	1785.83
517.97	1650.66
518.17	1763.30
518.37	1642.47
518.57	1699.81
518.77	1740.77
518.97	1751.01
519.16	1779.68
519.36	1712.10
519.56	1681.38
519.76	1777.64
519.96	1697.77
520.16	1867.75
520.36	1761.25
520.56	1783.78
520.76	1654.76
520.96	1679.33
521.16	1796.07
521.35	1814.50
521.55	1757.16
521.75	1638.38
521.95	1738.73
522.15	1728.49
522.35	1656.81
522.55	1665.00
522.75	1771.49
522.95	1697.77
523.14	1701.86
523.34	1732.58
523.54	1640.42
523.74	1744.87
523.94	1751.01
524.14	1712.10
524.34	1712.10
524.54	1726.44
524.73	1716.20
524.93	1777.64
525.13	1744.87
525.33	1701.86
525.53	1886.18
525.73	1755.11
525.93	1718.25
526.13	1699.81
526.32	1736.68
526.52	1824.74
526.72	1742.82
526.92	1726.44
527.12	1775.59
527.32	1673.19
527.52	1820.64
527.71	1720.29
527.91	1748.97
528.11	1748.97
528.31	1818.60
528.51	1716.20
528.71	1708.01
528.90	1746.92
529.10	1798.12
529.30	1724.39
529.50	1665.00
529.70	1744.87
529.90	1628.14
530.09	1669.09
530.29	1687.53
530.49	1757.16
530.69	1847.27
530.89	1794.02
531.09	1855.46
531.28	1783.78
531.48	1765.35
531.68	1779.68
531.88	1699.81
532.08	1757.16
532.28	1728.49
532.47	1755.11
532.67	1714.15
532.87	1744.87
533.07	1787.88
533.27	1806.31
533.46	1771.49
533.66	1765.35
533.86	1626.09
534.06	1740.77
534.26	1716.20
534.45	1691.62
534.65	1832.93
534.85	1773.54
535.05	1718.25
535.25	1818.60
535.44	1595.37
535.64	1761.25
535.84	1626.09
536.04	1705.96
536.24	1701.86
536.43	1710.05
536.63	1791.97
536.83	1757.16
537.03	1681.38
537.22	1644.52
537.42	1673.19
537.62	1759.21
537.82	1597.42
538.02	1787.88
538.21	1869.80
538.41	1871.84
538.61	1796.07
538.81	1730.53
539.00	1794.02
539.20	1650.66
539.40	1669.09
539.60	1748.97
539.79	1822.69
539.99	1724.39
540.19	1658.85
540.39	1705.96
540.58	1767.40
540.78	1740.77
540.98	1757.16
541.18	1816.55
541.37	1746.92
541.57	1716.20
541.77	1812.45
541.97	1710.05
542.16	1624.04
542.36	1695.72
542.56	1708.01
542.76	1796.07
542.95	1732.58
543.15	1808.36
543.35	1703.91
543.54	1665.00
543.74	1724.39
543.94	1839.08
544.14	1695.72
544.33	1853.41
544.53	1779.68
544.73	1728.49
544.93	1753.06
545.12	1716.20
545.32	1787.88
545.52	1722.34
545.71	1617.90
545.91	1753.06
546.11	1693.67
546.30	1662.95
546.50	1689.57
546.70	1703.91
546.90	1740.77
547.09	1603.56
547.29	1771.49
547.49	1824.74
547.68	1705.96
547.88	1734.63
548.08	1728.49
548.27	2125.79
548.47	1675.24
548.67	1710.05
548.87	1765.35
549.06	1671.14
549.26	1746.92
549.46	1765.35
549.65	1648.61
549.85	1757.16
550.05	1728.49
550.24	1650.66
550.44	1759.21
550.64	1726.44
550.83	1759.21
551.03	1814.50
551.23	1767.40
551.42	1834.98
551.62	1726.44
551.82	1763.30
552.01	1730.53
552.21	1834.98
552.41	1783.78
552.60	1763.30
552.80	1746.92
553.00	1697.77
553.19	1730.53
553.39	1861.60
553.59	1683.43
553.78	1816.55
553.98	1732.58
554.17	1705.96
554.37	1724.39
554.57	1748.97
554.76	1689.57
554.96	1767.40
555.16	1787.88
555.35	1728.49
555.55	1808.36
555.75	1691.62
555.94	1802.21
556.14	1603.56
556.33	1763.30
556.53	1769.44
556.73	1746.92
556.92	1814.50
557.12	1851.36
557.32	1822.69
557.51	1855.46
557.71	1769.44
557.90	1851.36
558.10	1769.44
558.30	1662.95
558.49	1722.34
558.69	1681.38
558.88	1773.54
559.08	1816.55
559.28	1708.01
559.47	1814.50
559.67	1767.40
559.86	1796.07
560.06	1720.29
560.26	1705.96
560.45	1761.25
560.65	1746.92
560.84	1882.08
561.04	1658.85
561.24	1714.15
561.43	1710.05
561.63	1859.56
561.82	1685.48
562.02	1751.01
562.22	1671.14
562.41	1703.91
562.61	1720.29
562.80	1703.91
563.00	1906.66
563.19	1748.97
563.39	1763.30
563.59	1814.50
563.78	1746.92
563.98	1626.09
564.17	1736.68
564.37	1642.47
564.56	1697.77
564.76	1722.34
564.96	1783.78
565.15	1757.16
565.35	1810.40
565.54	1728.49
565.74	1679.33
565.93	1710.05
566.13	1751.01
566.32	1744.87
566.52	1724.39
566.71	1730.53
566.91	1755.11
567.11	1771.49
567.30	1640.42
567.50	1736.68
567.69	1789.92
567.89	1683.43
568.08	1724.39
568.28	1734.63
568.47	1716.20
568.67	1744.87
568.86	1712.10
569.06	1789.92
569.25	1716.20
569.45	1714.15
569.64	1634.28
569.84	1705.96
570.04	1705.96
570.23	1669.09
570.43	1708.01
570.62	1757.16
570.82	1757.16
571.01	1701.86
571.21	1685.48
571.40	1687.53
571.60	1806.31
571.79	1765.35
571.99	1787.88
572.18	1656.81
572.38	1757.16
572.57	1753.06
572.77	1712.10
572.96	1916.90
573.16	1783.78
573.35	1693.67
573.55	1781.73
573.74	1708.01
573.94	1751.01
574.13	1757.16
574.33	1812.45
574.52	1783.78
574.71	1779.68
574.91	1783.78
575.10	1665.00
575.30	1785.83
575.49	1615.85
575.69	1714.15
575.88	1705.96
576.08	1613.80
576.27	1740.77
576.47	1685.48
576.66	1867.75
576.86	1837.03
577.05	1738.73
577.25	1798.12
577.44	1830.88
577.64	1728.49
577.83	1714.15
578.02	1794.02
578.22	1841.12
578.41	1859.56
578.61	1849.32
578.80	1646.57
579.00	1843.17
579.19	1693.67
579.39	1714.15
579.58	1767.40
579.77	1716.20
579.97	1845.22
580.16	1796.07
580.36	1775.59
580.55	1777.64
580.75	1724.39
580.94	1748.97
581.13	1861.60
581.33	1873.89
581.52	1814.50
581.72	1761.25
581.91	1865.70
582.11	1691.62
582.30	1826.79
582.49	1759.21
582.69	1888.23
582.88	1695.72
583.08	1665.00
583.27	1736.68
583.47	1769.44
583.66	1714.15
583.85	1718.25
584.05	1759.21
584.24	1806.31
584.44	1710.05
584.63	1802.21
584.82	1785.83
585.02	1839.08
585.21	1869.80
585.41	1742.82
585.60	1804.26
585.79	1880.04
585.99	1937.38
586.18	1796.07
586.37	2164.70
586.57	3375.05
586.76	9441.14
586.96	23439.00
587.15	32650.77
587.34	38460.85
587.54	40371.61
587.73	35151.34
587.93	25212.54
588.12	20944.58
588.31	17846.00
588.51	15736.59
588.70	14606.11
588.89	13367.09
589.09	12037.96
589.28	10659.68
589.47	9189.24
589.67	7505.81
589.86	6377.37
590.06	4736.95
590.25	3837.89
590.44	2967.51
590.64	2568.15
590.83	2254.81
591.02	2101.22
591.22	1886.18
591.41	1902.56
591.60	1861.60
591.80	1961.95
591.99	1726.44
592.18	1771.49
592.38	1843.17
592.57	1695.72
592.76	1767.40
592.96	1826.79
593.15	1699.81
593.34	1785.83
593.54	1730.53
593.73	1822.69
593.92	1738.73
594.12	1753.06
594.31	1767.40
594.50	1834.98
594.70	1730.53
594.89	1857.51
595.08	1693.67
595.28	1763.30
595.47	1939.43
595.66	1763.30
595.86	1746.92
596.05	1773.54
596.24	1712.10
596.43	1851.36
596.63	1808.36
596.82	1691.62
597.01	1767.40
597.21	1798.12
597.40	1830.88
597.59	1695.72
597.79	1759.21
597.98	1712.10
598.17	1773.54
598.36	1800.16
598.56	1751.01
598.75	1665.00
598.94	1775.59
599.14	1734.63
599.33	1654.76
599.52	1839.08
599.71	1724.39
599.91	1693.67
600.10	1742.82
600.29	1748.97
600.48	1703.91
600.68	1763.30
600.87	1800.16
601.06	1714.15
601.26	1738.73
601.45	1755.11
601.64	1673.19
601.83	1816.55
602.03	1673.19
602.22	1714.15
602.41	1771.49
602.60	1802.21
602.80	1769.44
602.99	1714.15
603.18	1724.39
603.37	1785.83
603.57	1765.35
603.76	1722.34
603.95	1710.05
604.14	1669.09
604.34	1693.67
604.53	1767.40
604.72	1740.77
604.91	1773.54
605.10	1804.26
605.30	1669.09
605.49	1873.89
605.68	1769.44
605.87	1703.91
606.07	1740.77
606.26	1701.86
606.45	1761.25
606.64	1738.73
606.84	1705.96
607.03	1742.82
607.22	1828.84
607.41	1570.79
607.60	1662.95
607.80	1761.25
607.99	1718.25
608.18	1759.21
608.37	1703.91
608.56	1718.25
608.76	1732.58
608.95	1794.02
609.14	1730.53
609.33	1730.53
609.52	1755.11
609.72	1736.68
609.91	1763.30
610.10	1783.78
610.29	1781.73
610.48	1742.82
610.68	1886.18
610.87	1714.15
611.06	1802.21
611.25	1697.77
611.44	1796.07
611.63	1687.53
611.83	1794.02
612.02	1689.57
612.21	1773.54
612.40	1662.95
612.59	1652.71
612.79	1693.67
612.98	1759.21
613.17	1796.07
613.36	1712.10
613.55	1816.55
613.74	1697.77
613.93	1665.00
614.13	1640.42
614.32	1781.73
614.51	1716.20
614.70	1693.67
614.89	1669.09
615.08	1738.73
615.28	2068.45
615.47	1714.15
615.66	1718.25
615.85	1685.48
616.04	1814.50
616.23	1730.53
616.42	1697.77
616.62	1763.30
616.81	1763.30
617.00	1718.25
617.19	1806.31
617.38	1665.00
617.57	1791.97
617.76	1767.40
617.95	1804.26
618.15	1712.10
618.34	1757.16
618.53	1628.14
618.72	1771.49
618.91	1730.53
619.10	1779.68
619.29	1746.92
619.48	1714.15
619.68	1722.34
619.87	1740.77
620.06	1654.76
620.25	1734.63
620.44	1767.40
620.63	1763.30
620.82	1662.95
621.01	1767.40
621.20	1679.33
621.39	1738.73
621.59	1761.25
621.78	1701.86
621.97	1773.54
622.16	1718.25
622.35	1724.39
622.54	1740.77
622.73	1763.30
622.92	1710.05
623.11	1865.70
623.30	1662.95
623.49	1800.16
623.68	1722.34
623.88	1720.29
624.07	1648.61
624.26	1783.78
624.45	1738.73
624.64	1693.67
624.83	1759.21
625.02	1642.47
625.21	1689.57
625.40	1734.63
625.59	1822.69
625.78	1712.10
625.97	1716.20
626.16	1740.77
626.35	1787.88
626.54	1748.97
626.74	1781.73
626.93	1658.85
627.12	1720.29
627.31	1794.02
627.50	1763.30
627.69	1761.25
627.88	1667.05
628.07	1660.90
628.26	1648.61
628.45	1673.19
628.64	1628.14
628.83	1681.38
629.02	1685.48
629.21	1753.06
629.40	1726.44
629.59	1628.14
629.78	1740.77
629.97	1740.77
630.16	1640.42
630.35	1644.52
630.54	1705.96
630.73	1689.57
630.92	1724.39
631.11	1640.42
631.30	1673.19
631.49	1800.16
631.68	1683.43
631.87	1757.16
632.06	1683.43
632.25	1890.28
632.44	1671.14
632.63	1746.92
632.82	1689.57
633.01	1755.11
633.20	1701.86
633.39	1683.43
633.58	1636.33
633.77	1722.34
633.96	1751.01
634.15	1779.68
634.34	1800.16
634.53	1710.05
634.72	1714.15
634.91	1685.48
635.10	1710.05
635.29	1699.81
635.48	1685.48
635.67	1732.58
635.86	1648.61
636.05	1761.25
636.24	1699.81
636.43	1738.73
636.62	1697.77
636.81	1611.75
637.00	1806.31
637.19	1755.11
637.38	1763.30
637.57	1652.71
637.76	1687.53
637.95	1705.96
638.14	1751.01
638.33	1716.20
638.52	1638.38
638.71	1619.94
638.89	1607.66
639.08	1853.41
639.27	1791.97
639.46	1736.68
639.65	1894.37
639.84	1730.53
640.03	1722.34
640.22	1685.48
640.41	1910.75
640.60	1714.15
640.79	1718.25
640.98	1681.38
641.17	1751.01
641.36	1773.54
641.55	1718.25
641.74	1609.70
641.92	1679.33
642.11	1708.01
642.30	1748.97
642.49	1685.48
642.68	1726.44
642.87	1681.38
643.06	1837.03
643.25	1613.80
643.44	1677.29
643.63	1779.68
643.82	1726.44
644.00	1648.61
644.19	1746.92
644.38	1697.77
644.57	1685.48
644.76	1759.21
644.95	1724.39
645.14	1775.59
645.33	1730.53
645.52	1681.38
645.71	1621.99
645.89	1689.57
646.08	1660.90
646.27	1718.25
646.46	1767.40
646.65	1619.94
646.84	1773.54
647.03	1673.19
647.22	1779.68
647.40	1753.06
647.59	1734.63
647.78	1558.50
647.97	1660.90
648.16	1681.38
648.35	1812.45
648.54	1775.59
648.73	1658.85
648.91	1771.49
649.10	1658.85
649.29	1746.92
649.48	1742.82
649.67	1701.86
649.86	1734.63
650.05	1662.95
650.23	1763.30
650.42	1660.90
650.61	1789.92
650.80	1785.83
650.99	1910.75
651.18	1800.16
651.36	1798.12
651.55	1607.66
651.74	1763.30
651.93	1669.09
652.12	1683.43
652.31	1716.20
652.49	1654.76
652.68	1755.11
652.87	1818.60
653.06	1736.68
653.25	1742.82
653.44	1755.11
653.62	1898.47
653.81	1671.14
654.00	1693.67
654.19	1722.34
654.38	1869.80
654.56	1763.30
654.75	1665.00
654.94	1724.39
655.13	1724.39
655.32	1757.16
655.51	1769.44
655.69	1763.30
655.88	1845.22
656.07	1744.87
656.26	1777.64
656.45	1695.72
656.63	1800.16
656.82	1808.36
657.01	1734.63
657.20	1736.68
657.38	1732.58
657.57	1677.29
657.76	1607.66
657.95	1822.69
658.14	1724.39
658.32	1693.67
658.51	1689.57
658.70	1746.92
658.89	1669.09
659.08	1656.81
659.26	1808.36
659.45	1605.61
659.64	1730.53
659.83	1662.95
660.01	1912.80
660.20	1736.68
660.39	1818.60
660.58	1599.46
660.76	1808.36
660.95	1687.53
661.14	1718.25
661.33	1617.90
661.51	1640.42
661.70	1660.90
661.89	1734.63
662.08	1689.57
662.26	1609.70
662.45	1638.38
662.64	1783.78
662.83	1751.01
663.01	1621.99
663.20	1734.63
663.39	1712.10
663.58	1695.72
663.76	1662.95
663.95	1740.77
664.14	1640.42
664.32	1624.04
664.51	1722.34
664.70	1587.18
664.89	1761.25
665.07	1734.63
665.26	1767.40
665.45	1693.67
665.64	1726.44
665.82	1738.73
666.01	1699.81
666.20	1730.53
666.38	1791.97
666.57	1757.16
666.76	2068.45
666.95	4212.67
667.13	9762.67
667.32	14552.87
667.51	17204.99
667.69	18231.02
667.88	16850.69
668.07	12040.01
668.25	9115.51
668.44	7653.26
668.63	7165.84
668.81	6528.92
669.00	6107.04
669.19	5476.27
669.38	4972.47
669.56	4292.54
669.75	3907.52
669.94	3368.91
670.12	2848.72
670.31	2494.43
670.50	2232.29
670.68	2004.96
670.87	1912.80
671.06	1789.92
671.24	1794.02
671.43	1859.56
671.62	1703.91
671.80	1677.29
671.99	1638.38
672.18	1755.11
672.36	1783.78
672.55	1771.49
672.74	1701.86
672.92	1695.72
673.11	1681.38
673.29	1673.19
673.48	1720.29
673.67	1671.14
673.85	1832.93
674.04	1701.86
674.23	1681.38
674.41	1898.47
674.60	1687.53
674.79	1662.95
674.97	1673.19
675.16	1710.05
675.34	1712.10
675.53	1708.01
675.72	1759.21
675.90	1765.35
676.09	1646.57
676.28	1718.25
676.46	1718.25
676.65	1720.29
676.83	1701.86
677.02	1720.29
677.21	1724.39
677.39	1720.29
677.58	1728.49
677.77	1652.71
677.95	1675.24
678.14	1691.62
678.32	1728.49
678.51	1699.81
678.70	1818.60
678.88	1683.43
679.07	1667.05
679.25	1685.48
679.44	1693.67
679.63	1671.14
679.81	1697.77
680.00	1718.25
680.18	1718.25
680.37	1802.21
680.55	1724.39
680.74	1630.18
680.93	1552.36
681.11	1761.25
681.30	1712.10
681.48	1730.53
681.67	1726.44
681.85	1710.05
682.04	1634.28
682.23	1722.34
682.41	1736.68
682.60	1662.95
682.78	1697.77
682.97	1617.90
683.15	1660.90
683.34	1746.92
683.53	1841.12
683.71	1642.47
683.90	1818.60
684.08	1820.64
684.27	1765.35
684.45	1751.01
684.64	1740.77
684.82	1724.39
685.01	1755.11
685.19	1746.92
685.38	1822.69
685.57	1714.15
685.75	1710.05
685.94	1683.43
686.12	1734.63
686.31	1621.99
686.49	1808.36
686.68	1683.43
686.86	1701.86
687.05	1650.66
687.23	1773.54
687.42	1712.10
687.60	1671.14
687.79	1716.20
687.97	1748.97
688.16	1767.40
688.34	1826.79
688.53	1646.57
688.71	1783.78
688.90	1822.69
689.08	1701.86
689.27	1673.19
689.45	1728.49
689.64	1720.29
689.82	1742.82
690.01	1689.57
690.19	1818.60
690.38	1697.77
690.56	1841.12
690.75	1660.90
690.93	1728.49
691.12	1705.96
691.30	1744.87
691.49	1617.90
691.67	1624.04
691.86	1902.56
692.04	1691.62
692.23	1601.51
692.41	1638.38
692.60	1800.16
692.78	1714.15
692.97	1669.09
693.15	1738.73
693.34	1812.45
693.52	1783.78
693.71	1634.28
693.89	1681.38
694.08	1525.74
694.26	1810.40
694.44	1740.77
694.63	1744.87
694.81	1681.38
695.00	1632.23
695.18	1681.38
695.37	1810.40
695.55	1779.68
695.74	1691.62
695.92	1626.09
696.10	1822.69
696.29	1521.64
696.47	1615.85
696.66	1681.38
696.84	1613.80
697.03	1728.49
697.21	1787.88
697.40	2209.76
697.58	1746.92
697.76	1738.73
697.95	1617.90
698.13	1716.20
698.32	1652.71
698.50	1716.20
698.68	1767.40
698.87	1759.21
699.05	1789.92
699.24	1742.82
699.42	1617.90
699.61	1763.30
699.79	1689.57
699.97	1718.25
700.16	1640.42
700.34	1636.33
700.53	1716.20
700.71	1851.36
700.89	1732.58
701.08	1738.73
701.26	1630.18
701.45	2050.02
701.63	1705.96
701.81	1667.05
702.00	1708.01
702.18	1728.49
702.37	1767.40
702.55	1695.72
702.73	1683.43
702.92	1665.00
703.10	1669.09
703.28	1703.91
703.47	1640.42
703.65	1755.11
703.84	1732.58
704.02	1712.10
704.20	1787.88
704.39	1710.05
704.57	1726.44
704.75	1763.30
704.94	1734.63
705.12	1697.77
705.30	1796.07
705.49	2201.57
705.67	4257.73
705.86	8961.91
706.04	11949.90
706.22	13881.13
706.41	14817.05
706.59	13363.00
706.77	9377.65
706.96	7022.48
707.14	6440.86
707.32	5828.52
707.51	5347.25
707.69	4685.75
707.87	4188.10
708.06	3452.88
708.24	2861.01
708.42	2426.84
708.61	2230.24
708.79	1916.90
708.97	1830.88
709.16	1816.55
709.34	1771.49
709.52	1746.92
709.71	1681.38
709.89	1757.16
710.07	1685.48
710.26	1673.19
710.44	1730.53
710.62	1658.85
710.80	1705.96
710.99	1703.91
711.17	1699.81
711.35	1638.38
711.54	1691.62
711.72	1839.08
711.90	1703.91
712.09	1763.30
712.27	1718.25
712.45	1740.77
712.63	1716.20
712.82	1636.33
713.00	1693.67
713.18	1732.58
713.37	1753.06
713.55	1812.45
713.73	1691.62
713.91	1716.20
714.10	1746.92
714.28	1691.62
714.46	1812.45
714.65	1761.25
714.83	1648.61
715.01	1689.57
715.19	1796.07
715.38	1654.76
715.56	1734.63
715.74	1732.58
715.92	1685.48
716.11	1753.06
716.29	1630.18
716.47	1656.81
716.65	1669.09
716.84	1695.72
717.02	1779.68
717.20	1619.94
717.38	1710.05
717.57	1794.02
717.75	1759.21
717.93	1691.62
718.11	1794.02
718.30	1558.50
718.48	1777.64
718.66	1662.95
718.84	1849.32
719.03	1736.68
719.21	1712.10
719.39	1722.34
719.57	1744.87
719.75	1759.21
719.94	1697.77
720.12	1699.81
720.30	1705.96
720.48	1828.84
720.67	1652.71
720.85	1619.94
721.03	1708.01
721.21	1644.52
721.39	1814.50
721.58	1732.58
721.76	1665.00
721.94	1695.72
722.12	1689.57
722.30	1714.15
722.49	1642.47
722.67	1683.43
722.85	1712.10
723.03	1667.05
723.21	1650.66
723.40	1691.62
723.58	1755.11
723.76	1724.39
723.94	1769.44
724.12	1712.10
724.30	1810.40
724.49	1791.97
724.67	1662.95
724.85	1767.40
725.03	1652.71
725.21	1734.63
725.40	1755.11
725.58	1619.94
725.76	1753.06
725.94	1714.15
726.12	1644.52
726.30	1691.62
726.49	1701.86
726.67	1718.25
726.85	1820.64
727.03	1822.69
727.21	2050.02
727.39	2824.15
727.57	3721.16
727.76	3966.92
727.94	4366.27
728.12	4249.54
728.30	3598.28
728.48	2975.70
728.66	2731.99
728.84	2562.01
729.03	2306.01
729.21	2136.03
729.39	1961.95
729.57	1873.89
729.75	1877.99
729.93	1796.07
730.11	1736.68
730.30	1753.06
730.48	1714.15
730.66	1759.21
730.84	1665.00
731.02	1681.38
731.20	1619.94
731.38	1701.86
731.56	1699.81
731.74	1640.42
731.93	1730.53
732.11	1724.39
732.29	1722.34
732.47	1714.15
732.65	1695.72
732.83	1796.07
733.01	1691.62
733.19	1685.48
733.37	1773.54
733.56	1728.49
733.74	1695.72
733.92	1751.01
734.10	1732.58
734.28	1765.35
734.46	1665.00
734.64	1685.48
734.82	1705.96
735.00	1644.52
735.18	1687.53
735.36	1701.86
735.54	1658.85
735.73	1679.33
735.91	1763.30
736.09	1736.68
736.27	1701.86
736.45	1722.34
736.63	1640.42
736.81	1716.20
736.99	1648.61
737.17	1744.87
737.35	1626.09
737.53	1722.34
737.71	1724.39
737.89	1824.74
738.07	1665.00
738.25	1687.53
738.43	1613.80
738.61	1712.10
738.80	1679.33
738.98	1638.38
739.16	1665.00
739.34	1693.67
739.52	1888.23
739.70	1697.77
739.88	1802.21
740.06	1732.58
740.24	1656.81
740.42	1791.97
740.60	1578.98
740.78	1617.90
740.96	1607.66
741.14	1636.33
741.32	1722.34
741.50	1691.62
741.68	1761.25
741.86	1685.48
742.04	1601.51
742.22	1595.37
742.40	1726.44
742.58	1800.16
742.76	1546.22
742.94	1769.44
743.12	1611.75
743.30	1746.92
743.48	1683.43
743.66	1665.00
743.84	1699.81
744.02	1757.16
744.20	1626.09
744.38	1669.09
744.56	1654.76
744.74	1746.92
744.92	1662.95
745.10	1781.73
745.28	1726.44
745.46	1705.96
745.64	1687.53
745.82	1779.68
746.00	1730.53
746.18	1736.68
746.36	1683.43
746.54	1695.72
746.72	1691.62
746.90	1572.84
747.08	1636.33
747.26	1697.77
747.44	1736.68
747.62	1759.21
747.80	1804.26
747.98	1798.12
748.15	1714.15
748.33	1740.77
748.51	1660.90
748.69	1652.71
748.87	1609.70
749.05	1718.25
749.23	1677.29
749.41	1775.59
749.59	1652.71
749.77	1804.26
749.95	1681.38
750.13	1648.61
750.31	1740.77
750.49	1681.38
750.67	1779.68
750.85	1820.64
751.03	1642.47
751.20	1855.46
751.38	1656.81
751.56	1673.19
751.74	1636.33
751.92	1652.71
752.10	1689.57
752.28	1763.30
752.46	1613.80
752.64	1710.05
752.82	1724.39
753.00	1808.36
753.18	1609.70
753.35	1660.90
753.53	1626.09
753.71	1687.53
753.89	1796.07
754.07	1673.19
754.25	1765.35
754.43	1691.62
754.61	1634.28
754.79	1714.15
754.97	1705.96
755.14	1701.86
755.32	1656.81
755.50	1730.53
755.68	1644.52
755.86	1665.00
756.04	1701.86
756.22	1554.41
756.40	1691.62
756.57	1804.26
756.75	1714.15
756.93	1755.11
757.11	1665.00
757.29	1716.20
757.47	1701.86
757.65	1558.50
757.82	1550.31
758.00	1566.70
758.18	1673.19
758.36	1652.71
758.54	1773.54
758.72	1677.29
758.90	1755.11
759.07	1708.01
759.25	1662.95
759.43	1726.44
759.61	1601.51
759.79	2213.85
759.97	1787.88
760.15	1675.24
760.32	1800.16
760.50	1658.85
760.68	1718.25
760.86	1617.90
761.04	1761.25
761.22	1751.01
761.39	1738.73
761.57	1705.96
761.75	1658.85
761.93	1771.49
762.11	1601.51
762.28	1656.81
762.46	1667.05
762.64	1761.25
762.82	1609.70
763.00	1708.01
763.18	1789.92
763.35	1538.02
763.53	1722.34
763.71	1693.67
763.89	1665.00
764.07	1761.25
764.24	1689.57
764.42	1748.97
764.60	1646.57
764.78	1757.16
764.96	1794.02
765.13	1845.22
765.31	1646.57
765.49	1695.72
765.67	1650.66
765.84	1665.00
766.02	1644.52
766.20	1601.51
766.38	1710.05
766.56	1730.53
766.73	1783.78
766.91	1687.53
767.09	1705.96
767.27	1683.43
767.44	1714.15
767.62	1724.39
767.80	1689.57
767.98	1667.05
768.15	1675.24
768.33	1738.73
768.51	1710.05
768.69	1781.73
768.87	1681.38
769.04	1730.53
769.22	1730.53
769.40	1761.25
769.58	1863.65
769.75	1671.14
769.93	1732.58
770.11	1687.53
770.28	1640.42
770.46	1687.53
770.64	1712.10
770.82	1746.92
770.99	1753.06
771.17	1751.01
771.35	1667.05
771.53	1656.81
771.70	1728.49
771.88	1683.43
772.06	1656.81
772.23	1779.68
772.41	1728.49
772.59	1662.95
772.77	1660.90
772.94	1662.95
773.12	1712.10
773.30	1656.81
773.47	1777.64
773.65	1611.75
773.83	1728.49
774.01	1755.11
774.18	1601.51
774.36	1636.33
774.54	1662.95
774.71	1810.40
774.89	1632.23
775.07	1662.95
775.24	1712.10
775.42	1662.95
775.60	1814.50
775.78	1677.29
775.95	1689.57
776.13	1681.38
776.31	1566.70
776.48	1701.86
776.66	1755.11
776.84	1726.44
777.01	1624.04
777.19	1671.14
777.37	1675.24
777.54	1730.53
777.72	1775.59
777.90	1705.96
778.07	1701.86
778.25	1912.80
778.43	1685.48
778.60	1669.09
778.78	1730.53
778.96	1839.08
779.13	1718.25
779.31	1798.12
779.49	1646.57
779.66	1699.81
779.84	1697.77
780.01	1738.73
780.19	1656.81
780.37	1740.77
780.54	1761.25
780.72	1671.14
780.90	1675.24
781.07	1634.28
781.25	1683.43
781.43	1794.02
781.60	1650.66
781.78	1738.73
781.95	1728.49
782.13	1665.00
782.31	1683.43
782.48	1566.70
782.66	1716.20
782.83	1877.99
783.01	1693.67
783.19	1794.02
783.36	1710.05
783.54	1576.94
783.72	1724.39
783.89	1652.71
784.07	1695.72
784.24	1742.82
784.42	1806.31
784.60	1710.05
784.77	1734.63
784.95	1695.72
785.12	1593.32
785.30	1683.43
785.47	1581.03
785.65	1632.23
785.83	1718.25
786.00	1615.85
786.18	1728.49
786.35	1607.66
786.53	1673.19
786.71	1671.14
786.88	1755.11
787.06	1740.77
787.23	1695.72
787.41	1632.23
787.58	1673.19
787.76	1578.98
787.94	1697.77
788.11	1742.82
788.29	1658.85
788.46	1660.90
788.64	1595.37
788.81	1685.48
788.99	1648.61
789.16	1636.33
789.34	1628.14
789.52	1665.00
789.69	1695.72
789.87	1613.80
790.04	1624.04
790.22	1665.00
790.39	1820.64
790.57	1638.38
790.74	1671.14
790.92	1644.52
791.09	1599.46
791.27	1722.34
791.44	1718.25
791.62	1679.33
791.79	1748.97
791.97	1740.77
792.15	1837.03
792.32	1781.73
792.50	1779.68
792.67	1763.30
792.85	1759.21
793.02	1669.09
793.20	1712.10
793.37	1615.85
793.55	1755.11
793.72	1576.94
793.90	1695.72
794.07	1613.80
794.25	1669.09
794.42	1699.81
794.60	1705.96
794.77	1744.87
794.95	1744.87
795.12	1763.30
795.30	1648.61
795.47	1558.50
795.65	1759.21
795.82	1669.09
796.00	1675.24
796.17	1603.56
796.34	1630.18
796.52	1738.73
796.69	1734.63
796.87	1718.25
797.04	1777.64
797.22	1740.77
797.39	1658.85
797.57	1730.53
797.74	1751.01
797.92	1771.49
798.09	1673.19
798.27	1812.45
798.44	1665.00
798.62	1720.29
798.79	1734.63
798.96	1751.01
799.14	1744.87
799.31	1888.23
799.49	1656.81
799.66	1738.73
799.84	1738.73
800.01	1671.14
800.19	1751.01
800.36	1636.33
800.53	1736.68
800.71	1646.57
800.88	1810.40
801.06	1679.33
801.23	1738.73
801.41	1644.52
801.58	1769.44
801.75	1595.37
801.93	1763.30
802.10	1744.87
802.28	1683.43
802.45	1673.19
802.63	1738.73
802.80	1763.30
802.97	1640.42
803.15	1697.77
803.32	1679.33
803.50	1613.80
803.67	1718.25
803.84	1564.65
804.02	1746.92
804.19	1757.16
804.37	1521.64
804.54	1650.66
804.71	1681.38
804.89	1720.29
805.06	1650.66
805.24	1710.05
805.41	1593.32
805.58	1644.52
805.76	1904.61
805.93	1679.33
806.10	1751.01
806.28	1720.29
806.45	1685.48
806.63	1697.77
806.80	1646.57
806.97	1728.49
807.15	1691.62
807.32	1652.71
807.49	1665.00
807.67	1591.27
807.84	1677.29
808.01	1611.75
808.19	1771.49
808.36	1812.45
808.54	1654.76
808.71	1734.63
808.88	1689.57
809.06	1736.68
809.23	1759.21
809.40	1681.38
809.58	1806.31
809.75	1699.81
809.92	1667.05
810.10	1796.07
810.27	1720.29
810.44	1722.34
810.62	1730.53
810.79	1710.05
810.96	1699.81
811.14	1718.25
811.31	1724.39
811.48	1755.11
811.66	1720.29
811.83	1767.40
812.00	1728.49
812.18	1728.49
812.35	1820.64
812.52	1603.56
812.69	1703.91
812.87	1613.80
813.04	1677.29
813.21	1675.24
813.39	1722.34
813.56	1628.14
813.73	1673.19
813.91	1560.55
814.08	1753.06
814.25	1681.38
814.42	1601.51
814.60	1652.71
814.77	1679.33
814.94	1673.19
815.12	1697.77
815.29	1744.87
815.46	1595.37
815.63	1574.89
815.81	1685.48
815.98	1654.76
816.15	1650.66
816.33	1677.29
816.50	1695.72
816.67	1673.19
816.84	1699.81
817.02	1583.08
817.19	1630.18
817.36	1697.77
817.53	1693.67
817.71	1617.90
817.88	1695.72
818.05	1665.00
818.22	1740.77
818.40	1804.26
818.57	1705.96
818.74	1578.98
818.91	1611.75
819.09	1794.02
819.26	1695.72
819.43	1644.52
819.60	1667.05
819.78	1691.62
819.95	1771.49
820.12	1650.66
820.29	1742.82
820.47	1785.83
820.64	1665.00
820.81	1652.71
820.98	1671.14
821.15	1646.57
821.33	1712.10
821.50	1660.90
821.67	1730.53
821.84	1710.05
822.02	1777.64
822.19	1736.68
822.36	1640.42
822.53	1677.29
822.70	1599.46
822.88	1665.00
823.05	1740.77
823.22	1746.92
823.39	1656.81
823.56	1691.62
823.74	1814.50
823.91	1677.29
824.08	1656.81
824.25	1656.81
824.42	1755.11
824.60	1669.09
824.77	1703.91
824.94	1683.43
825.11	1728.49
825.28	1587.18
825.45	1685.48
825.63	1656.81
825.80	1722.34
825.97	1755.11
826.14	1730.53
826.31	1656.81
826.48	1656.81
826.66	1658.85
826.83	1656.81
827.00	1712.10
827.17	1611.75
827.34	1730.53
827.51	1671.14
827.69	1593.32
827.86	1644.52
828.03	1689.57
828.20	1681.38
828.37	1615.85
828.54	1722.34
828.71	1624.04
828.89	1806.31
829.06	1787.88
829.23	1732.58
829.40	1650.66
829.57	1646.57
829.74	1773.54
829.91	1611.75
830.09	1693.67
830.26	1685.48
830.43	1810.40
830.60	1689.57
830.77	1705.96
830.94	1796.07
831.11	1777.64
831.28	1656.81
831.46	1779.68
831.63	1673.19
831.80	1689.57
831.97	1703.91
832.14	1697.77
832.31	1677.29
832.48	1771.49
832.65	1785.83
832.82	1669.09
832.99	1796.07
833.17	1572.84
833.34	1771.49
833.51	1716.20
833.68	1556.46
833.85	1767.40
834.02	1697.77
834.19	1560.55
834.36	1705.96
834.53	1691.62
834.70	1789.92
834.87	1730.53
835.04	1718.25
835.22	1636.33
835.39	1724.39
835.56	1583.08
835.73	1638.38
835.90	1681.38
836.07	1669.09
836.24	1757.16
836.41	1640.42
836.58	1613.80
836.75	1787.88
836.92	1624.04
837.09	1708.01
837.26	1722.34
837.43	1660.90
837.60	1744.87
837.77	1722.34
837.94	1667.05
838.12	1705.96
838.29	1697.77
838.46	1591.27
838.63	1609.70
838.80	1826.79
838.97	1636.33
839.14	1728.49
839.31	1665.00
839.48	1730.53
839.65	1638.38
839.82	1722.34
839.99	1730.53
840.16	1683.43
840.33	1708.01
840.50	1773.54
840.67	1669.09
840.84	1632.23
841.01	1708.01
841.18	1626.09
841.35	1695.72
841.52	1718.25
841.69	1841.12
841.86	1677.29
842.03	1654.76
842.20	1720.29
842.37	1634.28
842.54	1701.86
842.71	1681.38
842.88	1638.38
843.05	1671.14
843.22	1628.14
843.39	1697.77
843.56	1730.53
843.73	1759.21
843.90	1716.20
844.07	1683.43
844.24	1767.40
844.41	1681.38
844.58	1724.39
844.75	1718.25
844.92	1699.81
845.09	1718.25
845.26	1609.70
845.43	1761.25
845.60	1644.52
845.77	1724.39
845.94	1708.01
846.10	1757.16
846.27	1634.28
846.44	1593.32
846.61	1624.04
846.78	1712.10
846.95	1757.16
847.12	1632.23
847.29	1669.09
847.46	1589.22
847.63	1722.34
847.80	1619.94
847.97	1734.63
848.14	1748.97
848.31	1691.62
848.48	1630.18
848.65	1755.11
848.82	1611.75
848.98	1812.45
849.15	1726.44
849.32	1816.55
849.49	1736.68
849.66	1712.10
849.83	1736.68
850.00	1626.09
850.17	1724.39
850.34	1687.53
850.51	1634.28
850.68	1695.72
850.85	1853.41
851.01	1724.39
851.18	1679.33
851.35	1691.62
851.52	1710.05
851.69	1710.05
851.86	1611.75
852.03	1759.21
852.20	1822.69
852.37	1685.48
852.53	1593.32
852.70	1712.10
852.87	1718.25
853.04	1650.66
853.21	1705.96
853.38	1763.30
853.55	1714.15
853.72	1730.53
853.89	1607.66
854.05	1628.14
854.22	1677.29
854.39	1632.23
854.56	1736.68
854.73	1654.76
854.90	1634.28
855.07	1728.49
855.23	1662.95
855.40	1724.39
855.57	1636.33
855.74	1654.76
855.91	1849.32
856.08	1632.23
856.25	1640.42
856.41	1665.00
856.58	1621.99
856.75	1730.53
856.92	1671.14
857.09	1687.53
857.26	1607.66
857.42	1708.01
857.59	1730.53
857.76	1718.25
857.93	1761.25
858.10	1728.49
858.27	1632.23
858.43	1632.23
858.60	1773.54
858.77	1607.66
858.94	1699.81
859.11	1738.73
859.27	1722.34
859.44	1773.54
859.61	1730.53
859.78	1753.06
859.95	1804.26
860.12	1673.19
860.28	1839.08
860.45	1759.21
860.62	1669.09
860.79	1652.71
860.95	1658.85
861.12	1630.18
861.29	1652.71
861.46	1591.27
861.63	1656.81
861.79	1646.57
861.96	1632.23
862.13	1681.38
862.30	1767.40
862.47	1699.81
862.63	1671.14
862.80	1785.83
862.97	1722.34
863.14	1716.20
863.30	1716.20
863.47	1656.81
863.64	1775.59
863.81	1714.15
863.97	1626.09
864.14	1714.15
864.31	1699.81
864.48	1779.68
864.65	1703.91
864.81	1734.63
864.98	1769.44
865.15	1736.68
865.32	1720.29
865.48	1763.30
865.65	1775.59
865.82	1642.47
865.98	1746.92
866.15	1718.25
866.32	1652.71
866.49	1697.77
866.65	1796.07
866.82	1607.66
866.99	1724.39
867.16	1669.09
867.32	1648.61
867.49	1675.24
867.66	1654.76
867.83	1699.81
867.99	1665.00
868.16	1716.20
868.33	1628.14
868.49	1708.01
868.66	1751.01
868.83	1787.88
868.99	1730.53
869.16	1701.86
869.33	1738.73
869.50	1734.63
869.66	1634.28
869.83	1701.86
870.00	1630.18
870.16	1710.05
870.33	1601.51
870.50	1701.86
870.66	1746.92
870.83	1802.21
871.00	1624.04
871.17	1673.19
871.33	1691.62
871.50	1705.96
871.67	1730.53
871.83	1560.55
872.00	1771.49
872.17	1720.29
872.33	1767.40
872.50	1748.97
872.67	1714.15
872.83	1691.62
873.00	1712.10
873.17	1689.57
873.33	1761.25
873.50	1689.57
873.67	1738.73
873.83	1710.05
874.00	1646.57
874.16	1722.34
874.33	1765.35
874.50	1648.61
874.66	1673.19
874.83	1701.86
875.00	1734.63
875.16	1705.96
875.33	1789.92
875.50	1605.61
875.66	1644.52
875.83	1763.30
875.99	1705.96
876.16	1619.94
876.33	1601.51
876.49	1722.34
876.66	1732.58
876.83	1660.90
876.99	1628.14
877.16	1697.77
877.32	1673.19
877.49	1642.47
877.66	1734.63
877.82	1728.49
877.99	1730.53
878.15	1677.29
878.32	1769.44
878.49	1697.77
878.65	1695.72
878.82	1697.77
878.98	1589.22
879.15	1779.68
879.32	1761.25
879.48	1687.53
879.65	1732.58
879.81	1640.42
879.98	1624.04
880.15	1740.77
880.31	1736.68
880.48	1613.80
880.64	1728.49
880.81	1744.87
880.97	1830.88
881.14	1794.02
881.31	1626.09
881.47	1826.79
881.64	1619.94
881.80	1667.05
881.97	1718.25
882.13	1736.68
882.30	1673.19
882.47	1681.38
882.63	1599.46
882.80	1669.09
882.96	1679.33
883.13	1740.77
883.29	1609.70
883.46	1781.73
883.62	1800.16
883.79	1724.39
883.95	1683.43
884.12	1695.72
884.29	1794.02
884.45	1757.16
884.62	1710.05
884.78	1576.94
884.95	1812.45
885.11	1665.00
885.28	1779.68
885.44	1667.05
885.61	1654.76
885.77	1697.77
885.94	1785.83
886.10	1662.95
886.27	1722.34
886.43	1779.68
886.60	1724.39
886.76	1701.86
886.93	1638.38
887.09	1687.53
887.26	1679.33
887.42	1691.62
887.59	1763.30
887.75	1830.88
887.92	1708.01
888.08	1697.77
888.25	1785.83
888.41	1771.49
888.58	1726.44
888.74	1646.57
888.91	1705.96
>>>>>End Processed Spectral Data<<<<<
