SpectraSuite Data File
++++++++++++++++++++++++++++++++++++
Date: Mon Jun 06 12:56:17 CEST 2016
User: root
Dark Spectrum Present: No
Reference Spectrum Present: No
Number of Sampled Component Spectra: 1
Spectrometers: USB4C02835
Integration Time (usec): 100000 (USB4C02835)
Spectra Averaged: 1 (USB4C02835)
Boxcar Smoothing: 0 (USB4C02835)
Correct for Electrical Dark: No (USB4C02835)
Strobe/Lamp Enabled: No (USB4C02835)
Correct for Detector Non-linearity: No (USB4C02835)
Correct for Stray Light: No (USB4C02835)
Number of Pixels in Processed Spectrum: 3648
>>>>>Begin Processed Spectral Data<<<<<
177.47	1503.21
177.69	1503.21
177.91	1503.21
178.13	1449.96
178.36	1449.96
178.58	1587.18
178.80	1746.92
179.02	1583.08
179.24	1728.49
179.46	1765.35
179.68	1804.26
179.90	1724.39
180.13	1679.33
180.35	1628.14
180.57	1687.53
180.79	1775.59
181.01	1742.82
181.23	1734.63
181.45	1712.10
181.67	1736.68
181.90	1740.77
182.12	1595.37
182.34	1716.20
182.56	1738.73
182.78	1720.29
183.00	1654.76
183.22	1718.25
183.44	1609.70
183.66	1918.95
183.89	1820.64
184.11	1685.48
184.33	1773.54
184.55	1773.54
184.77	1732.58
184.99	1724.39
185.21	1652.71
185.43	1779.68
185.65	1669.09
185.87	1708.01
186.10	1828.84
186.32	1939.43
186.54	1748.97
186.76	1685.48
186.98	1800.16
187.20	1691.62
187.42	1720.29
187.64	1740.77
187.86	1679.33
188.08	1834.98
188.30	1621.99
188.52	1742.82
188.75	1789.92
188.97	1816.55
189.19	1599.46
189.41	1697.77
189.63	1724.39
189.85	1656.81
190.07	1685.48
190.29	1716.20
190.51	1724.39
190.73	1593.32
190.95	1761.25
191.17	1681.38
191.39	1687.53
191.61	1716.20
191.84	1738.73
192.06	1746.92
192.28	1613.80
192.50	1812.45
192.72	1708.01
192.94	1726.44
193.16	1783.78
193.38	1699.81
193.60	1673.19
193.82	1638.38
194.04	1759.21
194.26	1718.25
194.48	1714.15
194.70	1611.75
194.92	1685.48
195.14	1767.40
195.36	1763.30
195.58	1724.39
195.80	1634.28
196.02	1638.38
196.24	1757.16
196.46	1701.86
196.69	1660.90
196.91	1898.47
197.13	1697.77
197.35	1640.42
197.57	1855.46
197.79	1685.48
198.01	1697.77
198.23	1736.68
198.45	1701.86
198.67	1656.81
198.89	1687.53
199.11	1746.92
199.33	1689.57
199.55	1587.18
199.77	1687.53
199.99	1812.45
200.21	1656.81
200.43	1728.49
200.65	1673.19
200.87	1603.56
201.09	1673.19
201.31	1724.39
201.53	1697.77
201.75	1800.16
201.97	1742.82
202.19	1640.42
202.41	1781.73
202.63	1767.40
202.85	1746.92
203.07	1708.01
203.29	1632.23
203.51	1550.31
203.73	1595.37
203.95	1859.56
204.17	1652.71
204.39	1726.44
204.61	1669.09
204.83	1755.11
205.05	1755.11
205.27	1787.88
205.49	1808.36
205.71	1691.62
205.93	1660.90
206.15	1683.43
206.37	1740.77
206.59	1697.77
206.81	1611.75
207.03	1626.09
207.25	1677.29
207.47	1740.77
207.69	1693.67
207.91	1830.88
208.13	1794.02
208.34	1607.66
208.56	1708.01
208.78	1726.44
209.00	1662.95
209.22	1638.38
209.44	1660.90
209.66	1660.90
209.88	1751.01
210.10	1615.85
210.32	1701.86
210.54	1779.68
210.76	1650.66
210.98	1767.40
211.20	1624.04
211.42	1730.53
211.64	1769.44
211.86	1759.21
212.08	1746.92
212.30	1656.81
212.52	1665.00
212.74	1738.73
212.96	1736.68
213.17	1718.25
213.39	1693.67
213.61	1746.92
213.83	1742.82
214.05	1652.71
214.27	1755.11
214.49	1656.81
214.71	1724.39
214.93	1789.92
215.15	1677.29
215.37	1820.64
215.59	1560.55
215.81	1705.96
216.03	1789.92
216.24	1705.96
216.46	1669.09
216.68	1691.62
216.90	1714.15
217.12	1740.77
217.34	1722.34
217.56	1732.58
217.78	1808.36
218.00	1718.25
218.22	1718.25
218.44	1687.53
218.66	1783.78
218.87	1810.40
219.09	1669.09
219.31	1767.40
219.53	1691.62
219.75	1718.25
219.97	1691.62
220.19	1708.01
220.41	1705.96
220.63	1685.48
220.85	1691.62
221.06	1662.95
221.28	1806.31
221.50	1695.72
221.72	1681.38
221.94	1744.87
222.16	1658.85
222.38	1716.20
222.60	1728.49
222.82	1665.00
223.03	1708.01
223.25	1640.42
223.47	1740.77
223.69	1818.60
223.91	1841.12
224.13	1681.38
224.35	1658.85
224.57	1734.63
224.78	1724.39
225.00	1630.18
225.22	1648.61
225.44	1656.81
225.66	1812.45
225.88	1708.01
226.10	1773.54
226.32	1669.09
226.53	1720.29
226.75	1722.34
226.97	1650.66
227.19	1722.34
227.41	1679.33
227.63	1662.95
227.85	1656.81
228.06	1738.73
228.28	1730.53
228.50	1744.87
228.72	1646.57
228.94	1701.86
229.16	1484.78
229.37	1585.13
229.59	1671.14
229.81	1773.54
230.03	1685.48
230.25	1656.81
230.47	1662.95
230.69	1624.04
230.90	1755.11
231.12	1671.14
231.34	1703.91
231.56	1826.79
231.78	1677.29
232.00	1716.20
232.21	1746.92
232.43	1695.72
232.65	1605.61
232.87	1757.16
233.09	1689.57
233.30	1650.66
233.52	1771.49
233.74	1687.53
233.96	1699.81
234.18	1744.87
234.40	1634.28
234.61	1867.75
234.83	1621.99
235.05	1603.56
235.27	1861.60
235.49	1761.25
235.70	1691.62
235.92	1673.19
236.14	1722.34
236.36	1800.16
236.58	1626.09
236.79	1687.53
237.01	1669.09
237.23	1695.72
237.45	1832.93
237.67	1624.04
237.88	1681.38
238.10	1818.60
238.32	1701.86
238.54	1697.77
238.76	1683.43
238.97	1693.67
239.19	1652.71
239.41	1689.57
239.63	1832.93
239.85	1732.58
240.06	1691.62
240.28	1662.95
240.50	1738.73
240.72	1642.47
240.93	1679.33
241.15	1775.59
241.37	1656.81
241.59	1800.16
241.81	1656.81
242.02	1730.53
242.24	1654.76
242.46	1660.90
242.68	1701.86
242.89	1742.82
243.11	1740.77
243.33	1691.62
243.55	1755.11
243.76	1812.45
243.98	1673.19
244.20	1759.21
244.42	1751.01
244.64	1613.80
244.85	1601.51
245.07	1681.38
245.29	1753.06
245.51	1673.19
245.72	1683.43
245.94	1773.54
246.16	1751.01
246.38	1710.05
246.59	1642.47
246.81	1595.37
247.03	1734.63
247.24	1585.13
247.46	1648.61
247.68	1689.57
247.90	1679.33
248.11	1665.00
248.33	1701.86
248.55	1703.91
248.77	1744.87
248.98	1675.24
249.20	1767.40
249.42	1765.35
249.64	1658.85
249.85	1677.29
250.07	1675.24
250.29	1660.90
250.50	1775.59
250.72	1587.18
250.94	1794.02
251.16	1882.08
251.37	1738.73
251.59	1677.29
251.81	1726.44
252.02	1800.16
252.24	1728.49
252.46	1796.07
252.68	1595.37
252.89	1667.05
253.11	1587.18
253.33	1834.98
253.54	1771.49
253.76	1589.22
253.98	1683.43
254.20	1751.01
254.41	1601.51
254.63	1726.44
254.85	1613.80
255.06	1703.91
255.28	1789.92
255.50	1675.24
255.71	1574.89
255.93	1689.57
256.15	1691.62
256.36	1640.42
256.58	1665.00
256.80	1773.54
257.02	1617.90
257.23	1687.53
257.45	1679.33
257.67	1759.21
257.88	1667.05
258.10	1767.40
258.32	1710.05
258.53	1748.97
258.75	1751.01
258.97	1722.34
259.18	1738.73
259.40	1732.58
259.62	1779.68
259.83	1785.83
260.05	1689.57
260.27	2000.87
260.48	1818.60
260.70	1583.08
260.92	1699.81
261.13	1740.77
261.35	1761.25
261.57	1667.05
261.78	1679.33
262.00	1638.38
262.22	1718.25
262.43	1617.90
262.65	1660.90
262.86	1636.33
263.08	1865.70
263.30	1718.25
263.51	1615.85
263.73	1607.66
263.95	1767.40
264.16	1634.28
264.38	1755.11
264.60	1683.43
264.81	1683.43
265.03	1695.72
265.25	1730.53
265.46	1669.09
265.68	1681.38
265.89	1748.97
266.11	1562.60
266.33	1673.19
266.54	1773.54
266.76	1748.97
266.98	1808.36
267.19	1773.54
267.41	1718.25
267.62	1703.91
267.84	1710.05
268.06	1742.82
268.27	1677.29
268.49	1757.16
268.70	1818.60
268.92	1671.14
269.14	1615.85
269.35	1669.09
269.57	1654.76
269.79	1763.30
270.00	1685.48
270.22	1818.60
270.43	1640.42
270.65	1644.52
270.87	1746.92
271.08	1742.82
271.30	1703.91
271.51	1691.62
271.73	1820.64
271.95	1748.97
272.16	1667.05
272.38	1732.58
272.59	1714.15
272.81	1710.05
273.02	1759.21
273.24	1695.72
273.46	1777.64
273.67	1611.75
273.89	1712.10
274.10	1650.66
274.32	1779.68
274.54	1730.53
274.75	1673.19
274.97	1687.53
275.18	1687.53
275.40	1671.14
275.61	1728.49
275.83	1650.66
276.05	1593.32
276.26	1689.57
276.48	1714.15
276.69	1693.67
276.91	1607.66
277.12	1734.63
277.34	1730.53
277.55	1708.01
277.77	1683.43
277.99	1714.15
278.20	1691.62
278.42	1648.61
278.63	1660.90
278.85	1679.33
279.06	1611.75
279.28	1644.52
279.49	1773.54
279.71	1718.25
279.93	1689.57
280.14	1669.09
280.36	1642.47
280.57	1689.57
280.79	1730.53
281.00	1732.58
281.22	1624.04
281.43	1685.48
281.65	1673.19
281.86	1660.90
282.08	1796.07
282.29	1869.80
282.51	1689.57
282.73	1621.99
282.94	1638.38
283.16	1695.72
283.37	1859.56
283.59	1701.86
283.80	1716.20
284.02	1722.34
284.23	1722.34
284.45	1636.33
284.66	1628.14
284.88	1697.77
285.09	1736.68
285.31	1652.71
285.52	1697.77
285.74	1615.85
285.95	1814.50
286.17	1658.85
286.38	1753.06
286.60	1636.33
286.81	1609.70
287.03	1681.38
287.24	1681.38
287.46	1705.96
287.67	1683.43
287.89	1814.50
288.10	1708.01
288.32	1654.76
288.53	1798.12
288.75	1738.73
288.96	1730.53
289.18	1746.92
289.39	1689.57
289.61	1710.05
289.82	1767.40
290.04	1857.51
290.25	1562.60
290.47	1699.81
290.68	1697.77
290.90	1791.97
291.11	1603.56
291.33	1794.02
291.54	1675.24
291.76	1650.66
291.97	1722.34
292.18	1693.67
292.40	1718.25
292.61	1634.28
292.83	1812.45
293.04	1777.64
293.26	1667.05
293.47	1683.43
293.69	1572.84
293.90	1734.63
294.12	1859.56
294.33	1720.29
294.55	1710.05
294.76	1763.30
294.97	1689.57
295.19	1806.31
295.40	1673.19
295.62	1734.63
295.83	1765.35
296.05	1677.29
296.26	1734.63
296.48	1624.04
296.69	1646.57
296.90	1685.48
297.12	1802.21
297.33	1757.16
297.55	1699.81
297.76	1738.73
297.98	1708.01
298.19	1757.16
298.41	1660.90
298.62	1628.14
298.83	1759.21
299.05	1624.04
299.26	1685.48
299.48	1701.86
299.69	1722.34
299.90	1697.77
300.12	1681.38
300.33	1775.59
300.55	1759.21
300.76	1665.00
300.98	1636.33
301.19	1695.72
301.40	1732.58
301.62	1742.82
301.83	1673.19
302.05	1701.86
302.26	1683.43
302.47	1757.16
302.69	1654.76
302.90	1695.72
303.12	1587.18
303.33	1714.15
303.54	1806.31
303.76	1718.25
303.97	1705.96
304.19	1699.81
304.40	1656.81
304.61	1691.62
304.83	1824.74
305.04	1806.31
305.26	1724.39
305.47	1650.66
305.68	1658.85
305.90	1660.90
306.11	1716.20
306.33	1636.33
306.54	1705.96
306.75	1683.43
306.97	1675.24
307.18	1656.81
307.39	1593.32
307.61	1650.66
307.82	1677.29
308.04	1665.00
308.25	1660.90
308.46	1800.16
308.68	1697.77
308.89	1695.72
309.10	1769.44
309.32	1705.96
309.53	1734.63
309.74	1808.36
309.96	1726.44
310.17	1789.92
310.39	1669.09
310.60	1730.53
310.81	1660.90
311.03	1660.90
311.24	1787.88
311.45	1714.15
311.67	1791.97
311.88	1597.42
312.09	1626.09
312.31	1669.09
312.52	1769.44
312.73	1621.99
312.95	1652.71
313.16	1652.71
313.37	1718.25
313.59	1603.56
313.80	1679.33
314.01	1759.21
314.23	1656.81
314.44	1624.04
314.65	1677.29
314.87	1648.61
315.08	1679.33
315.29	1667.05
315.51	1677.29
315.72	1658.85
315.93	1761.25
316.15	1751.01
316.36	1738.73
316.57	1685.48
316.79	1691.62
317.00	1724.39
317.21	1695.72
317.43	1693.67
317.64	1708.01
317.85	1634.28
318.07	1660.90
318.28	1730.53
318.49	1808.36
318.70	1880.04
318.92	1796.07
319.13	1765.35
319.34	1904.61
319.56	1787.88
319.77	1804.26
319.98	1787.88
320.20	1757.16
320.41	1730.53
320.62	1765.35
320.83	1660.90
321.05	1832.93
321.26	1761.25
321.47	1681.38
321.69	1787.88
321.90	1597.42
322.11	1619.94
322.32	1640.42
322.54	1896.42
322.75	1742.82
322.96	1867.75
323.18	1656.81
323.39	1697.77
323.60	1685.48
323.81	1804.26
324.03	1708.01
324.24	1708.01
324.45	1734.63
324.66	1740.77
324.88	1691.62
325.09	1769.44
325.30	1667.05
325.52	1722.34
325.73	1736.68
325.94	1738.73
326.15	1701.86
326.37	1718.25
326.58	1746.92
326.79	1841.12
327.00	1642.47
327.22	1763.30
327.43	1634.28
327.64	1615.85
327.85	1771.49
328.07	1732.58
328.28	1820.64
328.49	1648.61
328.70	1685.48
328.92	1708.01
329.13	1775.59
329.34	1796.07
329.55	1773.54
329.76	1789.92
329.98	1679.33
330.19	1798.12
330.40	1679.33
330.61	1751.01
330.83	1753.06
331.04	1646.57
331.25	1734.63
331.46	1691.62
331.68	1658.85
331.89	1787.88
332.10	1718.25
332.31	1683.43
332.52	1667.05
332.74	1732.58
332.95	1628.14
333.16	1734.63
333.37	1701.86
333.58	1617.90
333.80	1759.21
334.01	1564.65
334.22	1732.58
334.43	1679.33
334.64	1624.04
334.86	1617.90
335.07	1624.04
335.28	1796.07
335.49	1640.42
335.70	1783.78
335.92	1695.72
336.13	1789.92
336.34	1693.67
336.55	1730.53
336.76	1705.96
336.98	1644.52
337.19	1712.10
337.40	1892.32
337.61	1849.32
337.82	1593.32
338.04	1656.81
338.25	1587.18
338.46	1652.71
338.67	1771.49
338.88	1675.24
339.09	1597.42
339.31	1677.29
339.52	1675.24
339.73	1714.15
339.94	1685.48
340.15	1714.15
340.36	1734.63
340.58	1699.81
340.79	1689.57
341.00	1658.85
341.21	1644.52
341.42	1769.44
341.63	1593.32
341.85	1697.77
342.06	1718.25
342.27	1648.61
342.48	1777.64
342.69	1509.35
342.90	1693.67
343.12	1634.28
343.33	1771.49
343.54	1800.16
343.75	1730.53
343.96	1665.00
344.17	1738.73
344.38	1675.24
344.60	1699.81
344.81	1687.53
345.02	1722.34
345.23	1710.05
345.44	1732.58
345.65	1771.49
345.86	1705.96
346.07	1757.16
346.29	1615.85
346.50	1748.97
346.71	1703.91
346.92	1755.11
347.13	1869.80
347.34	1718.25
347.55	1761.25
347.76	1714.15
347.98	1677.29
348.19	1677.29
348.40	1783.78
348.61	1718.25
348.82	1843.17
349.03	1753.06
349.24	1691.62
349.45	1785.83
349.66	1619.94
349.88	1773.54
350.09	1638.38
350.30	1714.15
350.51	1851.36
350.72	1716.20
350.93	1816.55
351.14	1720.29
351.35	1742.82
351.56	1744.87
351.77	1744.87
351.99	1730.53
352.20	1830.88
352.41	1777.64
352.62	1552.36
352.83	1634.28
353.04	1740.77
353.25	1734.63
353.46	1810.40
353.67	1785.83
353.88	1603.56
354.09	1769.44
354.30	1740.77
354.52	1765.35
354.73	1742.82
354.94	1710.05
355.15	1658.85
355.36	1855.46
355.57	1671.14
355.78	1705.96
355.99	1685.48
356.20	1632.23
356.41	1787.88
356.62	1685.48
356.83	1753.06
357.04	1779.68
357.25	1568.74
357.46	1660.90
357.68	1705.96
357.89	1701.86
358.10	1814.50
358.31	1615.85
358.52	1640.42
358.73	1640.42
358.94	1644.52
359.15	1642.47
359.36	1765.35
359.57	1660.90
359.78	1667.05
359.99	1775.59
360.20	1642.47
360.41	1665.00
360.62	1685.48
360.83	1654.76
361.04	1705.96
361.25	1693.67
361.46	1837.03
361.67	1703.91
361.88	1740.77
362.09	1701.86
362.30	1650.66
362.51	1679.33
362.72	1675.24
362.93	1712.10
363.14	1734.63
363.35	1755.11
363.56	1673.19
363.78	1755.11
363.99	1789.92
364.20	1648.61
364.41	1660.90
364.62	1837.03
364.83	1755.11
365.04	1689.57
365.25	1738.73
365.46	1814.50
365.67	1669.09
365.88	1624.04
366.09	1724.39
366.30	1593.32
366.51	1675.24
366.72	1611.75
366.93	1714.15
367.14	1734.63
367.35	1810.40
367.56	1759.21
367.77	1781.73
367.98	1689.57
368.18	1757.16
368.39	1730.53
368.60	1697.77
368.81	1757.16
369.02	1728.49
369.23	1667.05
369.44	1570.79
369.65	1626.09
369.86	1722.34
370.07	1703.91
370.28	1607.66
370.49	1722.34
370.70	1763.30
370.91	1652.71
371.12	1585.13
371.33	1748.97
371.54	1609.70
371.75	1802.21
371.96	1576.94
372.17	1755.11
372.38	1724.39
372.59	1757.16
372.80	1642.47
373.01	1732.58
373.22	1656.81
373.43	1712.10
373.64	1609.70
373.85	1814.50
374.06	1785.83
374.26	1761.25
374.47	1726.44
374.68	1742.82
374.89	1685.48
375.10	1660.90
375.31	1740.77
375.52	1673.19
375.73	1736.68
375.94	1572.84
376.15	1771.49
376.36	1640.42
376.57	1722.34
376.78	1638.38
376.99	1751.01
377.20	1730.53
377.40	1701.86
377.61	1751.01
377.82	1597.42
378.03	1787.88
378.24	1705.96
378.45	1753.06
378.66	1718.25
378.87	1587.18
379.08	1611.75
379.29	1656.81
379.50	1771.49
379.71	1630.18
379.91	1722.34
380.12	1730.53
380.33	1650.66
380.54	1714.15
380.75	1732.58
380.96	1605.61
381.17	1724.39
381.38	1685.48
381.59	1742.82
381.80	1724.39
382.00	1787.88
382.21	1742.82
382.42	1859.56
382.63	1861.60
382.84	1812.45
383.05	1791.97
383.26	1794.02
383.47	1724.39
383.68	1740.77
383.88	1732.58
384.09	1767.40
384.30	1863.65
384.51	1730.53
384.72	1687.53
384.93	1621.99
385.14	1681.38
385.35	1746.92
385.55	1685.48
385.76	1763.30
385.97	1683.43
386.18	1662.95
386.39	1615.85
386.60	1712.10
386.81	1714.15
387.02	1654.76
387.22	1650.66
387.43	1730.53
387.64	1753.06
387.85	1845.22
388.06	2174.94
388.27	4261.82
388.48	6780.82
388.68	8208.26
388.89	9729.90
389.10	9785.19
389.31	8572.80
389.52	7636.88
389.73	6760.34
389.93	6225.82
390.14	5935.01
390.35	5236.66
390.56	4405.18
390.77	3821.51
390.98	3014.61
391.18	2478.04
391.39	2201.57
391.60	1828.84
391.81	1832.93
392.02	1656.81
392.23	1865.70
392.43	1718.25
392.64	1816.55
392.85	1703.91
393.06	1748.97
393.27	1732.58
393.47	1673.19
393.68	1669.09
393.89	1693.67
394.10	1775.59
394.31	1695.72
394.52	1617.90
394.72	1626.09
394.93	1816.55
395.14	1607.66
395.35	1808.36
395.56	1736.68
395.76	1689.57
395.97	1804.26
396.18	1851.36
396.39	1828.84
396.60	2072.54
396.80	1906.66
397.01	1882.08
397.22	1796.07
397.43	1806.31
397.64	1738.73
397.84	1763.30
398.05	1841.12
398.26	1755.11
398.47	1763.30
398.67	1714.15
398.88	1701.86
399.09	1769.44
399.30	1697.77
399.51	1656.81
399.71	1675.24
399.92	1603.56
400.13	1714.15
400.34	1656.81
400.54	1665.00
400.75	1726.44
400.96	1730.53
401.17	1888.23
401.37	1726.44
401.58	1665.00
401.79	1796.07
402.00	1918.95
402.21	1980.39
402.41	2015.20
402.62	1959.91
402.83	2062.30
403.04	1986.53
403.24	1947.62
403.45	1884.13
403.66	1880.04
403.87	1875.94
404.07	1953.76
404.28	1888.23
404.49	1865.70
404.70	1730.53
404.90	1771.49
405.11	1728.49
405.32	1759.21
405.52	1728.49
405.73	1755.11
405.94	1636.33
406.15	1757.16
406.35	1732.58
406.56	1755.11
406.77	1673.19
406.98	1765.35
407.18	1652.71
407.39	1843.17
407.60	1699.81
407.80	1812.45
408.01	1705.96
408.22	1730.53
408.43	1671.14
408.63	1679.33
408.84	1828.84
409.05	1837.03
409.25	1562.60
409.46	1640.42
409.67	1628.14
409.88	1642.47
410.08	1708.01
410.29	1599.46
410.50	1781.73
410.70	1681.38
410.91	1652.71
411.12	1658.85
411.32	1759.21
411.53	1714.15
411.74	1773.54
411.95	1837.03
412.15	1681.38
412.36	1826.79
412.57	1828.84
412.77	1812.45
412.98	1621.99
413.19	1669.09
413.39	1738.73
413.60	1820.64
413.81	1828.84
414.01	1613.80
414.22	1814.50
414.43	1753.06
414.63	1619.94
414.84	1757.16
415.05	1746.92
415.25	1628.14
415.46	1751.01
415.67	1669.09
415.87	1742.82
416.08	1734.63
416.29	1697.77
416.49	1724.39
416.70	1591.27
416.91	1769.44
417.11	1691.62
417.32	1705.96
417.53	1791.97
417.73	1716.20
417.94	1673.19
418.15	1675.24
418.35	1716.20
418.56	1683.43
418.77	1865.70
418.97	1652.71
419.18	1718.25
419.38	1597.42
419.59	1708.01
419.80	1824.74
420.00	1662.95
420.21	1746.92
420.42	1728.49
420.62	1765.35
420.83	1583.08
421.04	1683.43
421.24	1669.09
421.45	1724.39
421.65	1734.63
421.86	1699.81
422.07	1834.98
422.27	1767.40
422.48	1734.63
422.69	1619.94
422.89	1693.67
423.10	1716.20
423.30	1607.66
423.51	1738.73
423.72	1675.24
423.92	1728.49
424.13	1617.90
424.33	1701.86
424.54	1716.20
424.75	1644.52
424.95	1820.64
425.16	1699.81
425.36	1665.00
425.57	1822.69
425.78	1789.92
425.98	1787.88
426.19	1716.20
426.39	1619.94
426.60	1705.96
426.81	1787.88
427.01	1777.64
427.22	1714.15
427.42	1683.43
427.63	1660.90
427.83	1765.35
428.04	1839.08
428.25	1787.88
428.45	1773.54
428.66	1767.40
428.86	1730.53
429.07	1722.34
429.28	1572.84
429.48	1726.44
429.69	1771.49
429.89	1753.06
430.10	1681.38
430.30	1763.30
430.51	1822.69
430.71	1691.62
430.92	1701.86
431.13	1587.18
431.33	1724.39
431.54	1728.49
431.74	1748.97
431.95	1791.97
432.15	1632.23
432.36	1681.38
432.56	1796.07
432.77	1837.03
432.98	1773.54
433.18	1718.25
433.39	1728.49
433.59	1662.95
433.80	1796.07
434.00	1839.08
434.21	1669.09
434.41	1689.57
434.62	1763.30
434.82	1679.33
435.03	1720.29
435.23	1714.15
435.44	1654.76
435.64	1665.00
435.85	1718.25
436.06	1800.16
436.26	1757.16
436.47	1695.72
436.67	1611.75
436.88	1740.77
437.08	1714.15
437.29	1802.21
437.49	1714.15
437.70	1726.44
437.90	1722.34
438.11	1880.04
438.31	1775.59
438.52	1877.99
438.72	1701.86
438.93	1902.56
439.13	1796.07
439.34	1853.41
439.54	1744.87
439.75	1748.97
439.95	1783.78
440.16	1701.86
440.36	1667.05
440.57	1818.60
440.77	1671.14
440.98	1744.87
441.18	1744.87
441.39	1636.33
441.59	1662.95
441.80	1816.55
442.00	1685.48
442.21	1785.83
442.41	1638.38
442.62	1755.11
442.82	1646.57
443.02	1777.64
443.23	1699.81
443.43	1699.81
443.64	1769.44
443.84	1660.90
444.05	1882.08
444.25	1708.01
444.46	1714.15
444.66	1806.31
444.87	1851.36
445.07	1597.42
445.28	1783.78
445.48	1781.73
445.69	1767.40
445.89	1873.89
446.09	1751.01
446.30	1945.57
446.50	2666.46
446.71	3760.07
446.91	4270.01
447.12	4808.63
447.32	4677.56
447.53	4245.44
447.73	3909.57
447.93	3547.08
448.14	3319.76
448.34	3192.78
448.55	2869.20
448.75	2805.72
448.96	2830.29
449.16	2453.47
449.36	2287.58
449.57	2017.25
449.77	1941.47
449.98	1791.97
450.18	1800.16
450.39	1802.21
450.59	1705.96
450.79	1796.07
451.00	1699.81
451.20	1753.06
451.41	1660.90
451.61	1736.68
451.81	1769.44
452.02	1691.62
452.22	1660.90
452.43	1689.57
452.63	1665.00
452.84	1712.10
453.04	1779.68
453.24	1740.77
453.45	1679.33
453.65	1740.77
453.86	1759.21
454.06	1677.29
454.26	1701.86
454.47	1642.47
454.67	1830.88
454.87	1748.97
455.08	1720.29
455.28	1789.92
455.49	1746.92
455.69	1744.87
455.89	1863.65
456.10	1767.40
456.30	1591.27
456.51	1771.49
456.71	1783.78
456.91	1853.41
457.12	1744.87
457.32	1779.68
457.52	1695.72
457.73	1820.64
457.93	1822.69
458.14	1705.96
458.34	1585.13
458.54	1673.19
458.75	1714.15
458.95	1748.97
459.15	1730.53
459.36	1732.58
459.56	1767.40
459.76	1828.84
459.97	1763.30
460.17	1701.86
460.37	1802.21
460.58	1699.81
460.78	1789.92
460.99	1662.95
461.19	1656.81
461.39	1722.34
461.60	1728.49
461.80	1779.68
462.00	1673.19
462.21	1642.47
462.41	1619.94
462.61	1693.67
462.82	1611.75
463.02	1759.21
463.22	1789.92
463.43	1787.88
463.63	1720.29
463.83	1828.84
464.04	1718.25
464.24	1705.96
464.44	1660.90
464.64	1732.58
464.85	1730.53
465.05	1763.30
465.25	1660.90
465.46	1695.72
465.66	1724.39
465.86	1822.69
466.07	1738.73
466.27	1744.87
466.47	1720.29
466.68	1591.27
466.88	1828.84
467.08	1710.05
467.29	1736.68
467.49	1742.82
467.69	1730.53
467.89	1763.30
468.10	1728.49
468.30	1738.73
468.50	1834.98
468.71	1769.44
468.91	1665.00
469.11	1798.12
469.31	1748.97
469.52	1677.29
469.72	1800.16
469.92	1783.78
470.13	1705.96
470.33	1732.58
470.53	1871.84
470.73	2086.88
470.94	2277.34
471.14	2344.92
471.34	2488.28
471.54	2447.32
471.75	2238.43
471.95	2136.03
472.15	2111.46
472.36	2121.70
472.56	2086.88
472.76	2009.06
472.96	2011.11
473.17	1982.43
473.37	1890.28
473.57	1755.11
473.77	1789.92
473.98	1816.55
474.18	1677.29
474.38	1834.98
474.58	1736.68
474.79	1671.14
474.99	1740.77
475.19	1816.55
475.39	1675.24
475.60	1679.33
475.80	1794.02
476.00	1652.71
476.20	1675.24
476.41	1708.01
476.61	1804.26
476.81	1789.92
477.01	1671.14
477.21	1935.33
477.42	1810.40
477.62	1697.77
477.82	1863.65
478.02	1675.24
478.23	1726.44
478.43	1636.33
478.63	1660.90
478.83	1708.01
479.03	1675.24
479.24	1820.64
479.44	1789.92
479.64	1658.85
479.84	1613.80
480.04	1724.39
480.25	1771.49
480.45	1660.90
480.65	1746.92
480.85	1816.55
481.06	1675.24
481.26	1785.83
481.46	1744.87
481.66	1669.09
481.86	1693.67
482.06	1748.97
482.27	1716.20
482.47	1660.90
482.67	1779.68
482.87	1669.09
483.07	1800.16
483.28	1724.39
483.48	1583.08
483.68	1687.53
483.88	1675.24
484.08	1603.56
484.29	1632.23
484.49	1718.25
484.69	1652.71
484.89	1763.30
485.09	1769.44
485.29	1767.40
485.50	1722.34
485.70	1697.77
485.90	1746.92
486.10	1761.25
486.30	1773.54
486.50	1748.97
486.71	1714.15
486.91	1748.97
487.11	1779.68
487.31	1671.14
487.51	1791.97
487.71	1654.76
487.91	1724.39
488.12	1652.71
488.32	1656.81
488.52	1720.29
488.72	1654.76
488.92	1708.01
489.12	1732.58
489.32	1810.40
489.53	1677.29
489.73	1658.85
489.93	1779.68
490.13	1644.52
490.33	1681.38
490.53	1732.58
490.73	1802.21
490.94	1699.81
491.14	1796.07
491.34	1894.37
491.54	2086.88
491.74	2582.49
491.94	2883.54
492.14	2942.93
492.34	3026.90
492.54	2670.55
492.75	2449.37
492.95	2398.17
493.15	2281.44
493.35	2297.82
493.55	2238.43
493.75	2220.00
493.95	2164.70
494.15	1959.91
494.35	1871.84
494.56	1873.89
494.76	1771.49
494.96	1810.40
495.16	1824.74
495.36	1687.53
495.56	1763.30
495.76	1701.86
495.96	1722.34
496.16	1691.62
496.36	1796.07
496.56	1703.91
496.77	1705.96
496.97	1701.86
497.17	1804.26
497.37	1601.51
497.57	1751.01
497.77	1640.42
497.97	1744.87
498.17	1767.40
498.37	1648.61
498.57	1654.76
498.77	1734.63
498.97	1800.16
499.17	1779.68
499.38	1705.96
499.58	1763.30
499.78	1920.99
499.98	1837.03
500.18	1738.73
500.38	1624.04
500.58	1920.99
500.78	2535.39
500.98	4513.72
501.18	5857.19
501.38	6866.84
501.58	7145.36
501.78	6780.82
501.98	5603.24
502.18	4911.03
502.38	4405.18
502.58	3981.25
502.78	3798.98
502.98	3667.91
503.18	3538.89
503.38	3184.59
503.59	2844.63
503.79	2648.02
503.99	2381.79
504.19	2248.67
504.39	2195.42
504.59	2168.80
504.79	2109.41
504.99	1970.15
505.19	1888.23
505.39	1861.60
505.59	1992.67
505.79	1904.61
505.99	1886.18
506.19	1787.88
506.39	1812.45
506.59	1734.63
506.79	1775.59
506.99	1875.94
507.19	1746.92
507.39	1736.68
507.59	1685.48
507.79	1767.40
507.99	1675.24
508.19	1742.82
508.39	1708.01
508.59	1753.06
508.79	1804.26
508.99	1791.97
509.19	1683.43
509.39	1732.58
509.59	1681.38
509.79	1603.56
509.99	1738.73
510.19	1796.07
510.39	1761.25
510.59	1816.55
510.79	1734.63
510.99	1724.39
511.19	1724.39
511.39	1916.90
511.59	1804.26
511.79	1794.02
511.99	1748.97
512.19	1783.78
512.38	1732.58
512.58	1718.25
512.78	1751.01
512.98	1826.79
513.18	1791.97
513.38	1669.09
513.58	1755.11
513.78	1693.67
513.98	1794.02
514.18	1720.29
514.38	1669.09
514.58	1748.97
514.78	1691.62
514.98	1675.24
515.18	1685.48
515.38	1585.13
515.58	1771.49
515.78	1701.86
515.98	1830.88
516.18	1708.01
516.38	1695.72
516.57	1611.75
516.77	1693.67
516.97	1808.36
517.17	1716.20
517.37	1748.97
517.57	1802.21
517.77	1689.57
517.97	1673.19
518.17	1779.68
518.37	1665.00
518.57	1710.05
518.77	1624.04
518.97	1730.53
519.16	1742.82
519.36	1748.97
519.56	1685.48
519.76	1669.09
519.96	1712.10
520.16	1855.46
520.36	1650.66
520.56	1837.03
520.76	1751.01
520.96	1738.73
521.16	1773.54
521.35	1796.07
521.55	1882.08
521.75	1763.30
521.95	1697.77
522.15	1677.29
522.35	1601.51
522.55	1662.95
522.75	1830.88
522.95	1718.25
523.14	1796.07
523.34	1708.01
523.54	1755.11
523.74	1798.12
523.94	1726.44
524.14	1669.09
524.34	1730.53
524.54	1763.30
524.73	1755.11
524.93	1781.73
525.13	1703.91
525.33	1652.71
525.53	1888.23
525.73	1703.91
525.93	1740.77
526.13	1701.86
526.32	1699.81
526.52	1755.11
526.72	1777.64
526.92	1726.44
527.12	1716.20
527.32	1718.25
527.52	1742.82
527.71	1775.59
527.91	1718.25
528.11	1675.24
528.31	1773.54
528.51	1714.15
528.71	1802.21
528.90	1734.63
529.10	1744.87
529.30	1806.31
529.50	1624.04
529.70	1660.90
529.90	1742.82
530.09	1755.11
530.29	1644.52
530.49	1773.54
530.69	1800.16
530.89	1757.16
531.09	1824.74
531.28	1781.73
531.48	1755.11
531.68	1751.01
531.88	1800.16
532.08	1732.58
532.28	1697.77
532.47	1771.49
532.67	1787.88
532.87	1773.54
533.07	1667.05
533.27	1757.16
533.46	1828.84
533.66	1697.77
533.86	1691.62
534.06	1669.09
534.26	1738.73
534.45	1714.15
534.65	1748.97
534.85	1714.15
535.05	1716.20
535.25	1834.98
535.44	1644.52
535.64	1828.84
535.84	1699.81
536.04	1726.44
536.24	1759.21
536.43	1646.57
536.63	1730.53
536.83	1675.24
537.03	1656.81
537.22	1669.09
537.42	1632.23
537.62	1648.61
537.82	1644.52
538.02	1810.40
538.21	1787.88
538.41	1839.08
538.61	1720.29
538.81	1705.96
539.00	1761.25
539.20	1695.72
539.40	1691.62
539.60	1703.91
539.79	1775.59
539.99	1675.24
540.19	1722.34
540.39	1687.53
540.58	1783.78
540.78	1759.21
540.98	1808.36
541.18	1781.73
541.37	1794.02
541.57	1720.29
541.77	1708.01
541.97	1701.86
542.16	1693.67
542.36	1728.49
542.56	1703.91
542.76	1826.79
542.95	1781.73
543.15	1763.30
543.35	1828.84
543.54	1685.48
543.74	1748.97
543.94	1703.91
544.14	1693.67
544.33	1736.68
544.53	1748.97
544.73	1736.68
544.93	1648.61
545.12	1767.40
545.32	1765.35
545.52	1726.44
545.71	1757.16
545.91	1669.09
546.11	1712.10
546.30	1703.91
546.50	1701.86
546.70	1828.84
546.90	1822.69
547.09	1615.85
547.29	1738.73
547.49	1759.21
547.68	1724.39
547.88	1609.70
548.08	1726.44
548.27	2201.57
548.47	1753.06
548.67	1771.49
548.87	1705.96
549.06	1794.02
549.26	1730.53
549.46	1710.05
549.65	1693.67
549.85	1826.79
550.05	1837.03
550.24	1652.71
550.44	1703.91
550.64	1748.97
550.83	1796.07
551.03	1816.55
551.23	1808.36
551.42	1761.25
551.62	1669.09
551.82	1730.53
552.01	1751.01
552.21	1761.25
552.41	1722.34
552.60	1783.78
552.80	1724.39
553.00	1667.05
553.19	1769.44
553.39	1820.64
553.59	1687.53
553.78	1775.59
553.98	1685.48
554.17	1699.81
554.37	1759.21
554.57	1806.31
554.76	1605.61
554.96	1722.34
555.16	1726.44
555.35	1751.01
555.55	1767.40
555.75	1785.83
555.94	1853.41
556.14	1638.38
556.33	1783.78
556.53	1734.63
556.73	1722.34
556.92	1808.36
557.12	1832.93
557.32	1800.16
557.51	1859.56
557.71	1712.10
557.90	1785.83
558.10	1818.60
558.30	1708.01
558.49	1693.67
558.69	1681.38
558.88	1806.31
559.08	1863.65
559.28	1681.38
559.47	1798.12
559.67	1724.39
559.86	1886.18
560.06	1732.58
560.26	1687.53
560.45	1759.21
560.65	1742.82
560.84	1808.36
561.04	1712.10
561.24	1794.02
561.43	1669.09
561.63	1802.21
561.82	1781.73
562.02	1705.96
562.22	1759.21
562.41	1662.95
562.61	1693.67
562.80	1759.21
563.00	1884.13
563.19	1718.25
563.39	1796.07
563.59	1726.44
563.78	1693.67
563.98	1660.90
564.17	1681.38
564.37	1636.33
564.56	1732.58
564.76	1595.37
564.96	1785.83
565.15	1755.11
565.35	1820.64
565.54	1736.68
565.74	1689.57
565.93	1681.38
566.13	1773.54
566.32	1773.54
566.52	1724.39
566.71	1654.76
566.91	1771.49
567.11	1660.90
567.30	1654.76
567.50	1757.16
567.69	1724.39
567.89	1712.10
568.08	1699.81
568.28	1757.16
568.47	1712.10
568.67	1755.11
568.86	1757.16
569.06	1742.82
569.25	1738.73
569.45	1726.44
569.64	1718.25
569.84	1714.15
570.04	1775.59
570.23	1708.01
570.43	1691.62
570.62	1753.06
570.82	1941.47
571.01	1632.23
571.21	1763.30
571.40	1714.15
571.60	1779.68
571.79	1804.26
571.99	1736.68
572.18	1728.49
572.38	1783.78
572.57	1757.16
572.77	1800.16
572.96	1908.71
573.16	1771.49
573.35	1779.68
573.55	1814.50
573.74	1791.97
573.94	1695.72
574.13	1681.38
574.33	1705.96
574.52	1789.92
574.71	1779.68
574.91	1736.68
575.10	1718.25
575.30	1746.92
575.49	1693.67
575.69	1656.81
575.88	1777.64
576.08	1724.39
576.27	1705.96
576.47	1759.21
576.66	1826.79
576.86	1804.26
577.05	1691.62
577.25	1777.64
577.44	1861.60
577.64	1767.40
577.83	1802.21
578.02	1785.83
578.22	1822.69
578.41	1822.69
578.61	1740.77
578.80	1693.67
579.00	1732.58
579.19	1681.38
579.39	1689.57
579.58	1718.25
579.77	1724.39
579.97	1779.68
580.16	1839.08
580.36	1759.21
580.55	1851.36
580.75	1744.87
580.94	1712.10
581.13	1816.55
581.33	1894.37
581.52	1791.97
581.72	1849.32
581.91	1769.44
582.11	1791.97
582.30	1798.12
582.49	1839.08
582.69	1812.45
582.88	1820.64
583.08	1824.74
583.27	1789.92
583.47	1744.87
583.66	1677.29
583.85	1738.73
584.05	1697.77
584.24	1767.40
584.44	1726.44
584.63	1779.68
584.82	1791.97
585.02	1808.36
585.21	1822.69
585.41	1820.64
585.60	1804.26
585.79	1935.33
585.99	1933.28
586.18	1781.73
586.37	2215.90
586.57	3323.85
586.76	9912.17
586.96	24493.71
587.15	34612.72
587.34	40732.05
587.54	42444.15
587.73	36779.47
587.93	26584.68
588.12	21741.24
588.31	18304.74
588.51	16477.96
588.70	15292.18
588.89	14268.20
589.09	12521.28
589.28	11073.37
589.47	9432.94
589.67	8075.14
589.86	6397.85
590.06	4913.08
590.25	3944.39
590.44	3123.15
590.64	2553.82
590.83	2246.62
591.02	2056.16
591.22	1888.23
591.41	1949.67
591.60	1816.55
591.80	1972.19
591.99	1726.44
592.18	1779.68
592.38	1808.36
592.57	1751.01
592.76	1832.93
592.96	1724.39
593.15	1820.64
593.34	1818.60
593.54	1734.63
593.73	1787.88
593.92	1759.21
594.12	1714.15
594.31	1767.40
594.50	1763.30
594.70	1845.22
594.89	1888.23
595.08	1656.81
595.28	1767.40
595.47	1980.39
595.66	1802.21
595.86	1665.00
596.05	1677.29
596.24	1685.48
596.43	1787.88
596.63	1849.32
596.82	1712.10
597.01	1720.29
597.21	1837.03
597.40	1826.79
597.59	1644.52
597.79	1687.53
597.98	1802.21
598.17	1824.74
598.36	1703.91
598.56	1724.39
598.75	1714.15
598.94	1759.21
599.14	1753.06
599.33	1640.42
599.52	1779.68
599.71	1755.11
599.91	1814.50
600.10	1777.64
600.29	1775.59
600.48	1787.88
600.68	1761.25
600.87	1746.92
601.06	1740.77
601.26	1697.77
601.45	1695.72
601.64	1710.05
601.83	1855.46
602.03	1685.48
602.22	1615.85
602.41	1773.54
602.60	1873.89
602.80	1785.83
602.99	1779.68
603.18	1607.66
603.37	1738.73
603.57	1691.62
603.76	1822.69
603.95	1769.44
604.14	1794.02
604.34	1730.53
604.53	1751.01
604.72	1740.77
604.91	1712.10
605.10	1722.34
605.30	1697.77
605.49	1867.75
605.68	1796.07
605.87	1732.58
606.07	1648.61
606.26	1785.83
606.45	1812.45
606.64	1775.59
606.84	1718.25
607.03	1748.97
607.22	1708.01
607.41	1718.25
607.60	1665.00
607.80	1748.97
607.99	1705.96
608.18	1791.97
608.37	1761.25
608.56	1689.57
608.76	1736.68
608.95	1804.26
609.14	1761.25
609.33	1697.77
609.52	1804.26
609.72	1660.90
609.91	1759.21
610.10	1773.54
610.29	1773.54
610.48	1800.16
610.68	1800.16
610.87	1761.25
611.06	1755.11
611.25	1652.71
611.44	1761.25
611.63	1673.19
611.83	1783.78
612.02	1662.95
612.21	1769.44
612.40	1560.55
612.59	1603.56
612.79	1703.91
612.98	1697.77
613.17	1818.60
613.36	1736.68
613.55	1830.88
613.74	1681.38
613.93	1759.21
614.13	1699.81
614.32	1746.92
614.51	1755.11
614.70	1757.16
614.89	1675.24
615.08	1777.64
615.28	2115.55
615.47	1685.48
615.66	1742.82
615.85	1705.96
616.04	1796.07
616.23	1796.07
616.42	1705.96
616.62	1761.25
616.81	1691.62
617.00	1742.82
617.19	1761.25
617.38	1712.10
617.57	1697.77
617.76	1767.40
617.95	1736.68
618.15	1742.82
618.34	1783.78
618.53	1648.61
618.72	1767.40
618.91	1773.54
619.10	1834.98
619.29	1632.23
619.48	1626.09
619.68	1665.00
619.87	1638.38
620.06	1613.80
620.25	1808.36
620.44	1689.57
620.63	1763.30
620.82	1712.10
621.01	1730.53
621.20	1759.21
621.39	1759.21
621.59	1730.53
621.78	1724.39
621.97	1689.57
622.16	1757.16
622.35	1697.77
622.54	1820.64
622.73	1787.88
622.92	1691.62
623.11	1742.82
623.30	1703.91
623.49	1697.77
623.68	1712.10
623.88	1726.44
624.07	1669.09
624.26	1734.63
624.45	1667.05
624.64	1759.21
624.83	1673.19
625.02	1681.38
625.21	1691.62
625.40	1648.61
625.59	1820.64
625.78	1765.35
625.97	1824.74
626.16	1714.15
626.35	1730.53
626.54	1679.33
626.74	1759.21
626.93	1685.48
627.12	1722.34
627.31	1730.53
627.50	1779.68
627.69	1779.68
627.88	1751.01
628.07	1671.14
628.26	1701.86
628.45	1660.90
628.64	1628.14
628.83	1714.15
629.02	1667.05
629.21	1781.73
629.40	1753.06
629.59	1667.05
629.78	1681.38
629.97	1669.09
630.16	1771.49
630.35	1693.67
630.54	1734.63
630.73	1695.72
630.92	1732.58
631.11	1665.00
631.30	1675.24
631.49	1695.72
631.68	1703.91
631.87	1765.35
632.06	1615.85
632.25	1816.55
632.44	1626.09
632.63	1714.15
632.82	1736.68
633.01	1669.09
633.20	1642.47
633.39	1742.82
633.58	1621.99
633.77	1681.38
633.96	1787.88
634.15	1767.40
634.34	1794.02
634.53	1759.21
634.72	1665.00
634.91	1699.81
635.10	1781.73
635.29	1701.86
635.48	1685.48
635.67	1673.19
635.86	1654.76
636.05	1740.77
636.24	1667.05
636.43	1710.05
636.62	1798.12
636.81	1558.50
637.00	1705.96
637.19	1708.01
637.38	1710.05
637.57	1656.81
637.76	1660.90
637.95	1720.29
638.14	1691.62
638.33	1669.09
638.52	1714.15
638.71	1626.09
638.89	1619.94
639.08	1867.75
639.27	1726.44
639.46	1728.49
639.65	1834.98
639.84	1755.11
640.03	1812.45
640.22	1677.29
640.41	1822.69
640.60	1595.37
640.79	1714.15
640.98	1679.33
641.17	1767.40
641.36	1640.42
641.55	1755.11
641.74	1644.52
641.92	1636.33
642.11	1658.85
642.30	1724.39
642.49	1673.19
642.68	1665.00
642.87	1708.01
643.06	1746.92
643.25	1636.33
643.44	1628.14
643.63	1736.68
643.82	1771.49
644.00	1759.21
644.19	1673.19
644.38	1681.38
644.57	1701.86
644.76	1738.73
644.95	1687.53
645.14	1718.25
645.33	1697.77
645.52	1716.20
645.71	1597.42
645.89	1705.96
646.08	1746.92
646.27	1708.01
646.46	1814.50
646.65	1617.90
646.84	1712.10
647.03	1617.90
647.22	1744.87
647.40	1753.06
647.59	1656.81
647.78	1621.99
647.97	1640.42
648.16	1628.14
648.35	1740.77
648.54	1791.97
648.73	1673.19
648.91	1724.39
649.10	1646.57
649.29	1708.01
649.48	1683.43
649.67	1736.68
649.86	1646.57
650.05	1669.09
650.23	1759.21
650.42	1677.29
650.61	1734.63
650.80	1705.96
650.99	1800.16
651.18	1759.21
651.36	1742.82
651.55	1708.01
651.74	1724.39
651.93	1691.62
652.12	1705.96
652.31	1724.39
652.49	1740.77
652.68	1673.19
652.87	1767.40
653.06	1718.25
653.25	1820.64
653.44	1753.06
653.62	1816.55
653.81	1703.91
654.00	1728.49
654.19	1746.92
654.38	1839.08
654.56	1701.86
654.75	1771.49
654.94	1730.53
655.13	1644.52
655.32	1667.05
655.51	1789.92
655.69	1728.49
655.88	1751.01
656.07	1601.51
656.26	1667.05
656.45	1648.61
656.63	1816.55
656.82	1787.88
657.01	1740.77
657.20	1701.86
657.38	1775.59
657.57	1734.63
657.76	1609.70
657.95	1769.44
658.14	1656.81
658.32	1691.62
658.51	1669.09
658.70	1701.86
658.89	1703.91
659.08	1744.87
659.26	1808.36
659.45	1697.77
659.64	1705.96
659.83	1662.95
660.01	1888.23
660.20	1800.16
660.39	1820.64
660.58	1591.27
660.76	1746.92
660.95	1679.33
661.14	1806.31
661.33	1624.04
661.51	1757.16
661.70	1738.73
661.89	1708.01
662.08	1771.49
662.26	1681.38
662.45	1636.33
662.64	1816.55
662.83	1693.67
663.01	1624.04
663.20	1724.39
663.39	1802.21
663.58	1667.05
663.76	1685.48
663.95	1830.88
664.14	1738.73
664.32	1705.96
664.51	1708.01
664.70	1722.34
664.89	1798.12
665.07	1656.81
665.26	1832.93
665.45	1695.72
665.64	1755.11
665.82	1734.63
666.01	1742.82
666.20	1740.77
666.38	1804.26
666.57	1849.32
666.76	2168.80
666.95	4534.20
667.13	10442.59
667.32	15261.46
667.51	17774.32
667.69	19031.77
667.88	17413.88
668.07	12304.20
668.25	9396.08
668.44	8159.11
668.63	7350.16
668.81	6645.66
669.00	6246.30
669.19	5803.94
669.38	5101.49
669.56	4511.68
669.75	3952.58
669.94	3522.51
670.12	2879.44
670.31	2504.67
670.50	2236.38
670.68	2007.01
670.87	1992.67
671.06	1837.03
671.24	1869.80
671.43	1779.68
671.62	1732.58
671.80	1714.15
671.99	1746.92
672.18	1742.82
672.36	1796.07
672.55	1759.21
672.74	1697.77
672.92	1673.19
673.11	1716.20
673.29	1578.98
673.48	1714.15
673.67	1697.77
673.85	1755.11
674.04	1660.90
674.23	1763.30
674.41	1843.17
674.60	1693.67
674.79	1685.48
674.97	1660.90
675.16	1703.91
675.34	1746.92
675.53	1689.57
675.72	1779.68
675.90	1779.68
676.09	1636.33
676.28	1691.62
676.46	1648.61
676.65	1742.82
676.83	1742.82
677.02	1736.68
677.21	1728.49
677.39	1652.71
677.58	1675.24
677.77	1781.73
677.95	1714.15
678.14	1720.29
678.32	1718.25
678.51	1691.62
678.70	1830.88
678.88	1658.85
679.07	1736.68
679.25	1753.06
679.44	1763.30
679.63	1677.29
679.81	1648.61
680.00	1722.34
680.18	1695.72
680.37	1691.62
680.55	1662.95
680.74	1681.38
680.93	1626.09
681.11	1767.40
681.30	1669.09
681.48	1681.38
681.67	1679.33
681.85	1660.90
682.04	1671.14
682.23	1705.96
682.41	1697.77
682.60	1660.90
682.78	1673.19
682.97	1624.04
683.15	1681.38
683.34	1718.25
683.53	1787.88
683.71	1603.56
683.90	1751.01
684.08	1748.97
684.27	1757.16
684.45	1683.43
684.64	1787.88
684.82	1609.70
685.01	1761.25
685.19	1751.01
685.38	1806.31
685.57	1665.00
685.75	1679.33
685.94	1671.14
686.12	1705.96
686.31	1712.10
686.49	1818.60
686.68	1591.27
686.86	1703.91
687.05	1744.87
687.23	1789.92
687.42	1746.92
687.60	1642.47
687.79	1744.87
687.97	1794.02
688.16	1794.02
688.34	1787.88
688.53	1638.38
688.71	1753.06
688.90	1779.68
689.08	1724.39
689.27	1615.85
689.45	1738.73
689.64	1755.11
689.82	1708.01
690.01	1720.29
690.19	1751.01
690.38	1660.90
690.56	1834.98
690.75	1628.14
690.93	1583.08
691.12	1697.77
691.30	1697.77
691.49	1683.43
691.67	1714.15
691.86	1826.79
692.04	1693.67
692.23	1652.71
692.41	1742.82
692.60	1869.80
692.78	1716.20
692.97	1658.85
693.15	1742.82
693.34	1824.74
693.52	1742.82
693.71	1679.33
693.89	1695.72
694.08	1597.42
694.26	1718.25
694.44	1720.29
694.63	1746.92
694.81	1572.84
695.00	1720.29
695.18	1769.44
695.37	1830.88
695.55	1726.44
695.74	1726.44
695.92	1683.43
696.10	1703.91
696.29	1685.48
696.47	1689.57
696.66	1656.81
696.84	1681.38
697.03	1675.24
697.21	1796.07
697.40	2351.07
697.58	1751.01
697.76	1722.34
697.95	1689.57
698.13	1722.34
698.32	1636.33
698.50	1810.40
698.68	1806.31
698.87	1767.40
699.05	1781.73
699.24	1724.39
699.42	1738.73
699.61	1730.53
699.79	1763.30
699.97	1675.24
700.16	1699.81
700.34	1681.38
700.53	1718.25
700.71	1789.92
700.89	1730.53
701.08	1695.72
701.26	1742.82
701.45	2183.13
701.63	1578.98
701.81	1689.57
702.00	1677.29
702.18	1638.38
702.37	1675.24
702.55	1773.54
702.73	1697.77
702.92	1589.22
703.10	1681.38
703.28	1755.11
703.47	1634.28
703.65	1771.49
703.84	1755.11
704.02	1628.14
704.20	1744.87
704.39	1624.04
704.57	1710.05
704.75	1775.59
704.94	1746.92
705.12	1697.77
705.30	1755.11
705.49	2269.15
705.67	4499.39
705.86	9621.36
706.04	12615.49
706.22	14518.05
706.41	15613.71
706.59	13844.27
706.77	9549.68
706.96	7382.93
707.14	6737.82
707.32	5984.16
707.51	5470.12
707.69	4925.36
707.87	4294.59
708.06	3534.79
708.24	3035.09
708.42	2457.56
708.61	2250.72
708.79	2033.63
708.97	1789.92
709.16	1847.27
709.34	1765.35
709.52	1796.07
709.71	1677.29
709.89	1816.55
710.07	1746.92
710.26	1710.05
710.44	1777.64
710.62	1791.97
710.80	1673.19
710.99	1734.63
711.17	1761.25
711.35	1789.92
711.54	1632.23
711.72	1802.21
711.90	1730.53
712.09	1730.53
712.27	1677.29
712.45	1732.58
712.63	1722.34
712.82	1669.09
713.00	1763.30
713.18	1767.40
713.37	1736.68
713.55	1771.49
713.73	1751.01
713.91	1716.20
714.10	1667.05
714.28	1714.15
714.46	1732.58
714.65	1695.72
714.83	1648.61
715.01	1652.71
715.19	1718.25
715.38	1632.23
715.56	1757.16
715.74	1675.24
715.92	1683.43
716.11	1771.49
716.29	1554.41
716.47	1697.77
716.65	1679.33
716.84	1578.98
717.02	1753.06
717.20	1628.14
717.38	1634.28
717.57	1703.91
717.75	1689.57
717.93	1611.75
718.11	1755.11
718.30	1617.90
718.48	1728.49
718.66	1777.64
718.84	1738.73
719.03	1669.09
719.21	1691.62
719.39	1736.68
719.57	1812.45
719.75	1640.42
719.94	1656.81
720.12	1708.01
720.30	1724.39
720.48	1802.21
720.67	1720.29
720.85	1640.42
721.03	1695.72
721.21	1681.38
721.39	1738.73
721.58	1755.11
721.76	1732.58
721.94	1667.05
722.12	1748.97
722.30	1783.78
722.49	1615.85
722.67	1748.97
722.85	1730.53
723.03	1648.61
723.21	1728.49
723.40	1722.34
723.58	1783.78
723.76	1718.25
723.94	1798.12
724.12	1728.49
724.30	1775.59
724.49	1789.92
724.67	1640.42
724.85	1771.49
725.03	1673.19
725.21	1759.21
725.40	1656.81
725.58	1589.22
725.76	1787.88
725.94	1716.20
726.12	1665.00
726.30	1726.44
726.49	1765.35
726.67	1656.81
726.85	1716.20
727.03	1787.88
727.21	2154.46
727.39	2938.84
727.57	3764.17
727.76	4200.38
727.94	4548.54
728.12	4286.40
728.30	3731.40
728.48	2940.88
728.66	2754.52
728.84	2506.71
729.03	2265.05
729.21	2176.99
729.39	2011.11
729.57	1822.69
729.75	1785.83
729.93	1798.12
730.11	1689.57
730.30	1662.95
730.48	1693.67
730.66	1759.21
730.84	1699.81
731.02	1697.77
731.20	1667.05
731.38	1697.77
731.56	1634.28
731.74	1595.37
731.93	1714.15
732.11	1738.73
732.29	1716.20
732.47	1781.73
732.65	1738.73
732.83	1787.88
733.01	1652.71
733.19	1724.39
733.37	1763.30
733.56	1759.21
733.74	1644.52
733.92	1708.01
734.10	1689.57
734.28	1683.43
734.46	1574.89
734.64	1691.62
734.82	1734.63
735.00	1693.67
735.18	1730.53
735.36	1710.05
735.54	1742.82
735.73	1714.15
735.91	1804.26
736.09	1654.76
736.27	1777.64
736.45	1630.18
736.63	1634.28
736.81	1761.25
736.99	1652.71
737.17	1806.31
737.35	1701.86
737.53	1744.87
737.71	1593.32
737.89	1722.34
738.07	1648.61
738.25	1593.32
738.43	1640.42
738.61	1662.95
738.80	1689.57
738.98	1656.81
739.16	1595.37
739.34	1617.90
739.52	1804.26
739.70	1673.19
739.88	1777.64
740.06	1693.67
740.24	1568.74
740.42	1796.07
740.60	1589.22
740.78	1695.72
740.96	1570.79
741.14	1685.48
741.32	1665.00
741.50	1638.38
741.68	1775.59
741.86	1779.68
742.04	1734.63
742.22	1619.94
742.40	1748.97
742.58	1740.77
742.76	1689.57
742.94	1779.68
743.12	1632.23
743.30	1675.24
743.48	1763.30
743.66	1591.27
743.84	1667.05
744.02	1652.71
744.20	1673.19
744.38	1705.96
744.56	1683.43
744.74	1769.44
744.92	1718.25
745.10	1783.78
745.28	1683.43
745.46	1748.97
745.64	1732.58
745.82	1744.87
746.00	1638.38
746.18	1740.77
746.36	1642.47
746.54	1763.30
746.72	1652.71
746.90	1656.81
747.08	1812.45
747.26	1687.53
747.44	1742.82
747.62	1638.38
747.80	1716.20
747.98	1753.06
748.15	1638.38
748.33	1820.64
748.51	1681.38
748.69	1701.86
748.87	1607.66
749.05	1697.77
749.23	1714.15
749.41	1763.30
749.59	1644.52
749.77	1714.15
749.95	1691.62
750.13	1595.37
750.31	1716.20
750.49	1716.20
750.67	1748.97
750.85	1845.22
751.03	1736.68
751.20	1787.88
751.38	1679.33
751.56	1679.33
751.74	1673.19
751.92	1730.53
752.10	1695.72
752.28	1779.68
752.46	1730.53
752.64	1685.48
752.82	1697.77
753.00	1708.01
753.18	1624.04
753.35	1730.53
753.53	1665.00
753.71	1669.09
753.89	1740.77
754.07	1726.44
754.25	1701.86
754.43	1691.62
754.61	1574.89
754.79	1814.50
754.97	1730.53
755.14	1767.40
755.32	1621.99
755.50	1724.39
755.68	1693.67
755.86	1509.35
756.04	1650.66
756.22	1705.96
756.40	1816.55
756.57	1824.74
756.75	1665.00
756.93	1755.11
757.11	1781.73
757.29	1601.51
757.47	1558.50
757.65	1615.85
757.82	1533.93
758.00	1626.09
758.18	1638.38
758.36	1589.22
758.54	1789.92
758.72	1621.99
758.90	1779.68
759.07	1728.49
759.25	1630.18
759.43	1718.25
759.61	1654.76
759.79	2144.22
759.97	1681.38
760.15	1677.29
760.32	1716.20
760.50	1693.67
760.68	1796.07
760.86	1585.13
761.04	1710.05
761.22	1820.64
761.39	1667.05
761.57	1714.15
761.75	1669.09
761.93	1714.15
762.11	1681.38
762.28	1710.05
762.46	1640.42
762.64	1763.30
762.82	1662.95
763.00	1667.05
763.18	1814.50
763.35	1667.05
763.53	1785.83
763.71	1734.63
763.89	1705.96
764.07	1732.58
764.24	1703.91
764.42	1683.43
764.60	1673.19
764.78	1779.68
764.96	1708.01
765.13	1726.44
765.31	1783.78
765.49	1716.20
765.67	1697.77
765.84	1677.29
766.02	1677.29
766.20	1628.14
766.38	1734.63
766.56	1669.09
766.73	1734.63
766.91	1714.15
767.09	1728.49
767.27	1742.82
767.44	1621.99
767.62	1808.36
767.80	1675.24
767.98	1644.52
768.15	1726.44
768.33	1773.54
768.51	1769.44
768.69	1722.34
768.87	1693.67
769.04	1687.53
769.22	1884.13
769.40	1806.31
769.58	1880.04
769.75	1665.00
769.93	1783.78
770.11	1679.33
770.28	1734.63
770.46	1759.21
770.64	1699.81
770.82	1675.24
770.99	1714.15
771.17	1697.77
771.35	1671.14
771.53	1681.38
771.70	1599.46
771.88	1687.53
772.06	1748.97
772.23	1644.52
772.41	1724.39
772.59	1650.66
772.77	1671.14
772.94	1740.77
773.12	1669.09
773.30	1667.05
773.47	1642.47
773.65	1697.77
773.83	1738.73
774.01	1779.68
774.18	1654.76
774.36	1710.05
774.54	1673.19
774.71	1677.29
774.89	1607.66
775.07	1716.20
775.24	1691.62
775.42	1665.00
775.60	1736.68
775.78	1689.57
775.95	1718.25
776.13	1619.94
776.31	1595.37
776.48	1724.39
776.66	1742.82
776.84	1695.72
777.01	1654.76
777.19	1615.85
777.37	1638.38
777.54	1726.44
777.72	1834.98
777.90	1748.97
778.07	1675.24
778.25	1839.08
778.43	1789.92
778.60	1681.38
778.78	1742.82
778.96	1785.83
779.13	1619.94
779.31	1785.83
779.49	1697.77
779.66	1677.29
779.84	1699.81
780.01	1748.97
780.19	1671.14
780.37	1708.01
780.54	1705.96
780.72	1650.66
780.90	1673.19
781.07	1617.90
781.25	1628.14
781.43	1783.78
781.60	1599.46
781.78	1710.05
781.95	1726.44
782.13	1697.77
782.31	1687.53
782.48	1638.38
782.66	1687.53
782.83	1867.75
783.01	1685.48
783.19	1710.05
783.36	1669.09
783.54	1619.94
783.72	1740.77
783.89	1703.91
784.07	1720.29
784.24	1689.57
784.42	1761.25
784.60	1722.34
784.77	1736.68
784.95	1636.33
785.12	1607.66
785.30	1662.95
785.47	1705.96
785.65	1673.19
785.83	1761.25
786.00	1697.77
786.18	1695.72
786.35	1687.53
786.53	1751.01
786.71	1794.02
786.88	1667.05
787.06	1683.43
787.23	1708.01
787.41	1671.14
787.58	1685.48
787.76	1660.90
787.94	1730.53
788.11	1724.39
788.29	1611.75
788.46	1628.14
788.64	1646.57
788.81	1746.92
788.99	1720.29
789.16	1617.90
789.34	1652.71
789.52	1665.00
789.69	1665.00
789.87	1597.42
790.04	1669.09
790.22	1738.73
790.39	1800.16
790.57	1662.95
790.74	1634.28
790.92	1714.15
791.09	1652.71
791.27	1755.11
791.44	1755.11
791.62	1646.57
791.79	1726.44
791.97	1667.05
792.15	1861.60
792.32	1699.81
792.50	1748.97
792.67	1785.83
792.85	1728.49
793.02	1701.86
793.20	1665.00
793.37	1605.61
793.55	1687.53
793.72	1624.04
793.90	1705.96
794.07	1705.96
794.25	1662.95
794.42	1718.25
794.60	1646.57
794.77	1751.01
794.95	1660.90
795.12	1742.82
795.30	1648.61
795.47	1630.18
795.65	1841.12
795.82	1693.67
796.00	1667.05
796.17	1695.72
796.34	1712.10
796.52	1748.97
796.69	1701.86
796.87	1755.11
797.04	1705.96
797.22	1785.83
797.39	1675.24
797.57	1742.82
797.74	1808.36
797.92	1656.81
798.09	1726.44
798.27	1693.67
798.44	1753.06
798.62	1656.81
798.79	1755.11
798.96	1746.92
799.14	1677.29
799.31	1857.51
799.49	1638.38
799.66	1640.42
799.84	1746.92
800.01	1595.37
800.19	1648.61
800.36	1587.18
800.53	1791.97
800.71	1720.29
800.88	1861.60
801.06	1632.23
801.23	1665.00
801.41	1665.00
801.58	1638.38
801.75	1681.38
801.93	1642.47
802.10	1722.34
802.28	1644.52
802.45	1632.23
802.63	1740.77
802.80	1742.82
802.97	1691.62
803.15	1654.76
803.32	1648.61
803.50	1601.51
803.67	1693.67
803.84	1687.53
804.02	1679.33
804.19	1683.43
804.37	1599.46
804.54	1636.33
804.71	1669.09
804.89	1648.61
805.06	1685.48
805.24	1718.25
805.41	1578.98
805.58	1603.56
805.76	1824.74
805.93	1615.85
806.10	1818.60
806.28	1718.25
806.45	1722.34
806.63	1718.25
806.80	1755.11
806.97	1695.72
807.15	1685.48
807.32	1728.49
807.49	1757.16
807.67	1650.66
807.84	1699.81
808.01	1691.62
808.19	1771.49
808.36	1773.54
808.54	1785.83
808.71	1669.09
808.88	1728.49
809.06	1695.72
809.23	1732.58
809.40	1615.85
809.58	1798.12
809.75	1673.19
809.92	1658.85
810.10	1822.69
810.27	1689.57
810.44	1705.96
810.62	1746.92
810.79	1665.00
810.96	1589.22
811.14	1691.62
811.31	1718.25
811.48	1781.73
811.66	1644.52
811.83	1757.16
812.00	1630.18
812.18	1687.53
812.35	1779.68
812.52	1691.62
812.69	1621.99
812.87	1726.44
813.04	1638.38
813.21	1685.48
813.39	1675.24
813.56	1638.38
813.73	1773.54
813.91	1650.66
814.08	1722.34
814.25	1654.76
814.42	1607.66
814.60	1677.29
814.77	1738.73
814.94	1648.61
815.12	1724.39
815.29	1785.83
815.46	1669.09
815.63	1697.77
815.81	1761.25
815.98	1716.20
816.15	1789.92
816.33	1628.14
816.50	1677.29
816.67	1636.33
816.84	1632.23
817.02	1648.61
817.19	1681.38
817.36	1634.28
817.53	1726.44
817.71	1705.96
817.88	1761.25
818.05	1695.72
818.22	1720.29
818.40	1859.56
818.57	1787.88
818.74	1705.96
818.91	1665.00
819.09	1716.20
819.26	1728.49
819.43	1599.46
819.60	1693.67
819.78	1759.21
819.95	1767.40
820.12	1654.76
820.29	1798.12
820.47	1726.44
820.64	1634.28
820.81	1603.56
820.98	1728.49
821.15	1708.01
821.33	1779.68
821.50	1621.99
821.67	1771.49
821.84	1718.25
822.02	1689.57
822.19	1822.69
822.36	1718.25
822.53	1687.53
822.70	1687.53
822.88	1630.18
823.05	1705.96
823.22	1753.06
823.39	1738.73
823.56	1677.29
823.74	1820.64
823.91	1685.48
824.08	1585.13
824.25	1607.66
824.42	1843.17
824.60	1628.14
824.77	1740.77
824.94	1775.59
825.11	1830.88
825.28	1605.61
825.45	1699.81
825.63	1757.16
825.80	1681.38
825.97	1708.01
826.14	1691.62
826.31	1634.28
826.48	1761.25
826.66	1638.38
826.83	1673.19
827.00	1642.47
827.17	1611.75
827.34	1652.71
827.51	1648.61
827.69	1716.20
827.86	1648.61
828.03	1724.39
828.20	1673.19
828.37	1685.48
828.54	1695.72
828.71	1648.61
828.89	1765.35
829.06	1699.81
829.23	1775.59
829.40	1730.53
829.57	1697.77
829.74	1728.49
829.91	1656.81
830.09	1665.00
830.26	1695.72
830.43	1761.25
830.60	1681.38
830.77	1773.54
830.94	1742.82
831.11	1710.05
831.28	1675.24
831.46	1742.82
831.63	1599.46
831.80	1751.01
831.97	1673.19
832.14	1691.62
832.31	1757.16
832.48	1771.49
832.65	1689.57
832.82	1757.16
832.99	1732.58
833.17	1685.48
833.34	1775.59
833.51	1751.01
833.68	1591.27
833.85	1691.62
834.02	1767.40
834.19	1574.89
834.36	1640.42
834.53	1658.85
834.70	1712.10
834.87	1826.79
835.04	1701.86
835.22	1667.05
835.39	1710.05
835.56	1683.43
835.73	1642.47
835.90	1726.44
836.07	1654.76
836.24	1761.25
836.41	1673.19
836.58	1677.29
836.75	1781.73
836.92	1712.10
837.09	1726.44
837.26	1738.73
837.43	1708.01
837.60	1781.73
837.77	1710.05
837.94	1736.68
838.12	1742.82
838.29	1791.97
838.46	1605.61
838.63	1638.38
838.80	1775.59
838.97	1761.25
839.14	1759.21
839.31	1671.14
839.48	1775.59
839.65	1619.94
839.82	1796.07
839.99	1728.49
840.16	1701.86
840.33	1677.29
840.50	1701.86
840.67	1730.53
840.84	1533.93
841.01	1699.81
841.18	1708.01
841.35	1744.87
841.52	1755.11
841.69	1796.07
841.86	1705.96
842.03	1689.57
842.20	1751.01
842.37	1687.53
842.54	1634.28
842.71	1638.38
842.88	1609.70
843.05	1710.05
843.22	1648.61
843.39	1779.68
843.56	1634.28
843.73	1765.35
843.90	1755.11
844.07	1648.61
844.24	1794.02
844.41	1708.01
844.58	1720.29
844.75	1693.67
844.92	1634.28
845.09	1703.91
845.26	1640.42
845.43	1753.06
845.60	1708.01
845.77	1710.05
845.94	1720.29
846.10	1671.14
846.27	1626.09
846.44	1619.94
846.61	1640.42
846.78	1732.58
846.95	1765.35
847.12	1630.18
847.29	1673.19
847.46	1648.61
847.63	1652.71
847.80	1644.52
847.97	1660.90
848.14	1849.32
848.31	1714.15
848.48	1583.08
848.65	1746.92
848.82	1667.05
848.98	1812.45
849.15	1787.88
849.32	1722.34
849.49	1740.77
849.66	1732.58
849.83	1656.81
850.00	1611.75
850.17	1726.44
850.34	1658.85
850.51	1671.14
850.68	1705.96
850.85	1904.61
851.01	1691.62
851.18	1691.62
851.35	1677.29
851.52	1728.49
851.69	1796.07
851.86	1613.80
852.03	1732.58
852.20	1744.87
852.37	1730.53
852.53	1626.09
852.70	1710.05
852.87	1615.85
853.04	1771.49
853.21	1714.15
853.38	1734.63
853.55	1828.84
853.72	1773.54
853.89	1624.04
854.05	1634.28
854.22	1728.49
854.39	1648.61
854.56	1644.52
854.73	1744.87
854.90	1681.38
855.07	1693.67
855.23	1654.76
855.40	1693.67
855.57	1671.14
855.74	1611.75
855.91	1800.16
856.08	1652.71
856.25	1642.47
856.41	1699.81
856.58	1650.66
856.75	1775.59
856.92	1679.33
857.09	1742.82
857.26	1654.76
857.42	1642.47
857.59	1701.86
857.76	1699.81
857.93	1701.86
858.10	1779.68
858.27	1619.94
858.43	1656.81
858.60	1722.34
858.77	1636.33
858.94	1675.24
859.11	1738.73
859.27	1740.77
859.44	1654.76
859.61	1796.07
859.78	1783.78
859.95	1769.44
860.12	1710.05
860.28	1779.68
860.45	1816.55
860.62	1658.85
860.79	1632.23
860.95	1642.47
861.12	1673.19
861.29	1730.53
861.46	1640.42
861.63	1671.14
861.79	1757.16
861.96	1619.94
862.13	1634.28
862.30	1800.16
862.47	1703.91
862.63	1654.76
862.80	1695.72
862.97	1728.49
863.14	1691.62
863.30	1685.48
863.47	1675.24
863.64	1751.01
863.81	1730.53
863.97	1726.44
864.14	1703.91
864.31	1665.00
864.48	1853.41
864.65	1626.09
864.81	1722.34
864.98	1724.39
865.15	1791.97
865.32	1794.02
865.48	1757.16
865.65	1697.77
865.82	1648.61
865.98	1730.53
866.15	1789.92
866.32	1673.19
866.49	1701.86
866.65	1751.01
866.82	1615.85
866.99	1673.19
867.16	1658.85
867.32	1675.24
867.49	1652.71
867.66	1703.91
867.83	1646.57
867.99	1669.09
868.16	1759.21
868.33	1628.14
868.49	1710.05
868.66	1718.25
868.83	1730.53
868.99	1673.19
869.16	1699.81
869.33	1712.10
869.50	1746.92
869.66	1656.81
869.83	1714.15
870.00	1654.76
870.16	1703.91
870.33	1746.92
870.50	1708.01
870.66	1671.14
870.83	1865.70
871.00	1689.57
871.17	1738.73
871.33	1740.77
871.50	1701.86
871.67	1646.57
871.83	1644.52
872.00	1730.53
872.17	1691.62
872.33	1742.82
872.50	1751.01
872.67	1712.10
872.83	1662.95
873.00	1654.76
873.17	1687.53
873.33	1742.82
873.50	1744.87
873.67	1685.48
873.83	1609.70
874.00	1708.01
874.16	1767.40
874.33	1665.00
874.50	1677.29
874.66	1632.23
874.83	1724.39
875.00	1746.92
875.16	1673.19
875.33	1791.97
875.50	1607.66
875.66	1687.53
875.83	1691.62
875.99	1701.86
876.16	1705.96
876.33	1630.18
876.49	1701.86
876.66	1685.48
876.83	1734.63
876.99	1556.46
877.16	1751.01
877.32	1611.75
877.49	1636.33
877.66	1716.20
877.82	1712.10
877.99	1757.16
878.15	1724.39
878.32	1619.94
878.49	1785.83
878.65	1669.09
878.82	1734.63
878.98	1697.77
879.15	1681.38
879.32	1753.06
879.48	1712.10
879.65	1751.01
879.81	1681.38
879.98	1691.62
880.15	1634.28
880.31	1714.15
880.48	1581.03
880.64	1734.63
880.81	1746.92
880.97	1697.77
881.14	1738.73
881.31	1640.42
881.47	1871.84
881.64	1722.34
881.80	1599.46
881.97	1683.43
882.13	1789.92
882.30	1624.04
882.47	1667.05
882.63	1605.61
882.80	1658.85
882.96	1654.76
883.13	1691.62
883.29	1734.63
883.46	1724.39
883.62	1769.44
883.79	1687.53
883.95	1665.00
884.12	1734.63
884.29	1710.05
884.45	1765.35
884.62	1683.43
884.78	1609.70
884.95	1798.12
885.11	1626.09
885.28	1781.73
885.44	1689.57
885.61	1724.39
885.77	1818.60
885.94	1812.45
886.10	1712.10
886.27	1703.91
886.43	1812.45
886.60	1755.11
886.76	1665.00
886.93	1613.80
887.09	1708.01
887.26	1650.66
887.42	1665.00
887.59	1732.58
887.75	1859.56
887.92	1771.49
888.08	1726.44
888.25	1796.07
888.41	1820.64
888.58	1720.29
888.74	1650.66
888.91	1660.90
>>>>>End Processed Spectral Data<<<<<
