SpectraSuite Data File
++++++++++++++++++++++++++++++++++++
Date: Mon Jun 06 16:53:37 CEST 2016
User: root
Dark Spectrum Present: No
Reference Spectrum Present: No
Number of Sampled Component Spectra: 1
Spectrometers: USB4C02835
Integration Time (usec): 100000 (USB4C02835)
Spectra Averaged: 1 (USB4C02835)
Boxcar Smoothing: 0 (USB4C02835)
Correct for Electrical Dark: No (USB4C02835)
Strobe/Lamp Enabled: No (USB4C02835)
Correct for Detector Non-linearity: No (USB4C02835)
Correct for Stray Light: No (USB4C02835)
Number of Pixels in Processed Spectrum: 3648
>>>>>Begin Processed Spectral Data<<<<<
177.47	1402.86
177.69	1402.86
177.91	1402.86
178.13	1456.11
178.36	1425.39
178.58	1673.19
178.80	1691.62
179.02	1632.23
179.24	1730.53
179.46	1658.85
179.68	1699.81
179.90	1705.96
180.13	1738.73
180.35	1660.90
180.57	1636.33
180.79	1742.82
181.01	1730.53
181.23	1740.77
181.45	1751.01
181.67	1759.21
181.90	1742.82
182.12	1728.49
182.34	1552.36
182.56	1613.80
182.78	1753.06
183.00	1687.53
183.22	1699.81
183.44	1626.09
183.66	1902.56
183.89	1755.11
184.11	1693.67
184.33	1796.07
184.55	1796.07
184.77	1681.38
184.99	1658.85
185.21	1714.15
185.43	1841.12
185.65	1691.62
185.87	1732.58
186.10	1812.45
186.32	1839.08
186.54	1701.86
186.76	1689.57
186.98	1714.15
187.20	1683.43
187.42	1691.62
187.64	1740.77
187.86	1773.54
188.08	1759.21
188.30	1654.76
188.52	1712.10
188.75	1787.88
188.97	1781.73
189.19	1675.24
189.41	1675.24
189.63	1794.02
189.85	1667.05
190.07	1660.90
190.29	1615.85
190.51	1701.86
190.73	1681.38
190.95	1761.25
191.17	1656.81
191.39	1634.28
191.61	1763.30
191.84	1667.05
192.06	1742.82
192.28	1587.18
192.50	1933.28
192.72	1751.01
192.94	1640.42
193.16	1734.63
193.38	1697.77
193.60	1570.79
193.82	1722.34
194.04	1785.83
194.26	1722.34
194.48	1675.24
194.70	1683.43
194.92	1638.38
195.14	1740.77
195.36	1681.38
195.58	1748.97
195.80	1716.20
196.02	1646.57
196.24	1677.29
196.46	1732.58
196.69	1726.44
196.91	1841.12
197.13	1644.52
197.35	1626.09
197.57	1730.53
197.79	1777.64
198.01	1730.53
198.23	1701.86
198.45	1785.83
198.67	1626.09
198.89	1697.77
199.11	1740.77
199.33	1669.09
199.55	1591.27
199.77	1710.05
199.99	1794.02
200.21	1718.25
200.43	1779.68
200.65	1656.81
200.87	1574.89
201.09	1638.38
201.31	1683.43
201.53	1808.36
201.75	1722.34
201.97	1757.16
202.19	1738.73
202.41	1701.86
202.63	1794.02
202.85	1726.44
203.07	1695.72
203.29	1665.00
203.51	1658.85
203.73	1710.05
203.95	1837.03
204.17	1787.88
204.39	1730.53
204.61	1695.72
204.83	1669.09
205.05	1710.05
205.27	1771.49
205.49	1834.98
205.71	1726.44
205.93	1691.62
206.15	1656.81
206.37	1697.77
206.59	1699.81
206.81	1683.43
207.03	1753.06
207.25	1636.33
207.47	1765.35
207.69	1726.44
207.91	1757.16
208.13	1771.49
208.34	1701.86
208.56	1603.56
208.78	1738.73
209.00	1695.72
209.22	1738.73
209.44	1730.53
209.66	1630.18
209.88	1679.33
210.10	1665.00
210.32	1642.47
210.54	1863.65
210.76	1634.28
210.98	1779.68
211.20	1626.09
211.42	1720.29
211.64	1800.16
211.86	1681.38
212.08	1757.16
212.30	1691.62
212.52	1681.38
212.74	1740.77
212.96	1714.15
213.17	1751.01
213.39	1837.03
213.61	1771.49
213.83	1748.97
214.05	1652.71
214.27	1771.49
214.49	1714.15
214.71	1689.57
214.93	1800.16
215.15	1744.87
215.37	1701.86
215.59	1613.80
215.81	1748.97
216.03	1822.69
216.24	1734.63
216.46	1755.11
216.68	1728.49
216.90	1705.96
217.12	1740.77
217.34	1751.01
217.56	1691.62
217.78	1816.55
218.00	1810.40
218.22	1671.14
218.44	1757.16
218.66	1703.91
218.87	1837.03
219.09	1628.14
219.31	1728.49
219.53	1746.92
219.75	1699.81
219.97	1697.77
220.19	1720.29
220.41	1701.86
220.63	1798.12
220.85	1716.20
221.06	1742.82
221.28	1808.36
221.50	1718.25
221.72	1695.72
221.94	1722.34
222.16	1798.12
222.38	1771.49
222.60	1748.97
222.82	1734.63
223.03	1785.83
223.25	1652.71
223.47	1767.40
223.69	1806.31
223.91	1757.16
224.13	1718.25
224.35	1621.99
224.57	1728.49
224.78	1742.82
225.00	1671.14
225.22	1685.48
225.44	1724.39
225.66	1740.77
225.88	1705.96
226.10	1796.07
226.32	1693.67
226.53	1771.49
226.75	1720.29
226.97	1695.72
227.19	1607.66
227.41	1720.29
227.63	1638.38
227.85	1642.47
228.06	1701.86
228.28	1701.86
228.50	1740.77
228.72	1679.33
228.94	1687.53
229.16	1628.14
229.37	1679.33
229.59	1771.49
229.81	1763.30
230.03	1681.38
230.25	1691.62
230.47	1691.62
230.69	1669.09
230.90	1773.54
231.12	1712.10
231.34	1671.14
231.56	1734.63
231.78	1597.42
232.00	1708.01
232.21	1644.52
232.43	1656.81
232.65	1574.89
232.87	1753.06
233.09	1679.33
233.30	1714.15
233.52	1683.43
233.74	1675.24
233.96	1687.53
234.18	1761.25
234.40	1640.42
234.61	1873.89
234.83	1615.85
235.05	1613.80
235.27	1824.74
235.49	1791.97
235.70	1710.05
235.92	1787.88
236.14	1703.91
236.36	1904.61
236.58	1695.72
236.79	1722.34
237.01	1634.28
237.23	1679.33
237.45	1773.54
237.67	1746.92
237.88	1689.57
238.10	1761.25
238.32	1646.57
238.54	1738.73
238.76	1728.49
238.97	1632.23
239.19	1662.95
239.41	1716.20
239.63	1816.55
239.85	1671.14
240.06	1671.14
240.28	1646.57
240.50	1826.79
240.72	1830.88
240.93	1701.86
241.15	1718.25
241.37	1615.85
241.59	1816.55
241.81	1726.44
242.02	1736.68
242.24	1724.39
242.46	1708.01
242.68	1628.14
242.89	1701.86
243.11	1779.68
243.33	1732.58
243.55	1730.53
243.76	1697.77
243.98	1814.50
244.20	1730.53
244.42	1705.96
244.64	1751.01
244.85	1646.57
245.07	1652.71
245.29	1757.16
245.51	1720.29
245.72	1757.16
245.94	1763.30
246.16	1732.58
246.38	1775.59
246.59	1695.72
246.81	1685.48
247.03	1705.96
247.24	1650.66
247.46	1724.39
247.68	1738.73
247.90	1646.57
248.11	1656.81
248.33	1710.05
248.55	1746.92
248.77	1677.29
248.98	1810.40
249.20	1859.56
249.42	1718.25
249.64	1755.11
249.85	1773.54
250.07	1740.77
250.29	1697.77
250.50	1730.53
250.72	1611.75
250.94	1753.06
251.16	1882.08
251.37	1771.49
251.59	1742.82
251.81	1771.49
252.02	1748.97
252.24	1685.48
252.46	1722.34
252.68	1683.43
252.89	1601.51
253.11	1628.14
253.33	1791.97
253.54	1748.97
253.76	1615.85
253.98	1640.42
254.20	1685.48
254.41	1642.47
254.63	1593.32
254.85	1677.29
255.06	1736.68
255.28	1736.68
255.50	1710.05
255.71	1685.48
255.93	1636.33
256.15	1693.67
256.36	1773.54
256.58	1699.81
256.80	1722.34
257.02	1787.88
257.23	1691.62
257.45	1695.72
257.67	1763.30
257.88	1697.77
258.10	1712.10
258.32	1632.23
258.53	1726.44
258.75	1765.35
258.97	1681.38
259.18	1691.62
259.40	1667.05
259.62	1751.01
259.83	1841.12
260.05	1777.64
260.27	1990.63
260.48	1765.35
260.70	1654.76
260.92	1701.86
261.13	1712.10
261.35	1695.72
261.57	1812.45
261.78	1669.09
262.00	1619.94
262.22	1720.29
262.43	1667.05
262.65	1687.53
262.86	1667.05
263.08	1814.50
263.30	1650.66
263.51	1640.42
263.73	1701.86
263.95	1769.44
264.16	1636.33
264.38	1677.29
264.60	1671.14
264.81	1714.15
265.03	1800.16
265.25	1802.21
265.46	1705.96
265.68	1724.39
265.89	1746.92
266.11	1621.99
266.33	1779.68
266.54	1773.54
266.76	1748.97
266.98	1718.25
267.19	1834.98
267.41	1763.30
267.62	1705.96
267.84	1656.81
268.06	1753.06
268.27	1724.39
268.49	1757.16
268.70	1767.40
268.92	1710.05
269.14	1714.15
269.35	1665.00
269.57	1695.72
269.79	1716.20
270.00	1701.86
270.22	1847.27
270.43	1621.99
270.65	1554.41
270.87	1695.72
271.08	1742.82
271.30	1802.21
271.51	1787.88
271.73	1791.97
271.95	1894.37
272.16	1724.39
272.38	1671.14
272.59	1667.05
272.81	1759.21
273.02	1718.25
273.24	1771.49
273.46	1763.30
273.67	1679.33
273.89	1673.19
274.10	1722.34
274.32	1761.25
274.54	1742.82
274.75	1814.50
274.97	1718.25
275.18	1716.20
275.40	1693.67
275.61	1693.67
275.83	1802.21
276.05	1638.38
276.26	1710.05
276.48	1779.68
276.69	1673.19
276.91	1697.77
277.12	1751.01
277.34	1730.53
277.55	1767.40
277.77	1691.62
277.99	1705.96
278.20	1638.38
278.42	1728.49
278.63	1636.33
278.85	1685.48
279.06	1617.90
279.28	1759.21
279.49	1712.10
279.71	1675.24
279.93	1816.55
280.14	1656.81
280.36	1701.86
280.57	1763.30
280.79	1761.25
281.00	1652.71
281.22	1636.33
281.43	1822.69
281.65	1603.56
281.86	1636.33
282.08	1779.68
282.29	1853.41
282.51	1699.81
282.73	1722.34
282.94	1710.05
283.16	1738.73
283.37	1806.31
283.59	1697.77
283.80	1748.97
284.02	1646.57
284.23	1667.05
284.45	1662.95
284.66	1718.25
284.88	1720.29
285.09	1699.81
285.31	1759.21
285.52	1681.38
285.74	1656.81
285.95	1691.62
286.17	1755.11
286.38	1703.91
286.60	1673.19
286.81	1654.76
287.03	1679.33
287.24	1675.24
287.46	1718.25
287.67	1697.77
287.89	1818.60
288.10	1675.24
288.32	1738.73
288.53	1791.97
288.75	1746.92
288.96	1830.88
289.18	1771.49
289.39	1753.06
289.61	1695.72
289.82	1769.44
290.04	1798.12
290.25	1705.96
290.47	1724.39
290.68	1669.09
290.90	1804.26
291.11	1650.66
291.33	1755.11
291.54	1615.85
291.76	1656.81
291.97	1742.82
292.18	1773.54
292.40	1632.23
292.61	1650.66
292.83	1920.99
293.04	1697.77
293.26	1804.26
293.47	1712.10
293.69	1685.48
293.90	1716.20
294.12	1757.16
294.33	1699.81
294.55	1755.11
294.76	1755.11
294.97	1769.44
295.19	1845.22
295.40	1677.29
295.62	1734.63
295.83	1785.83
296.05	1734.63
296.26	1755.11
296.48	1712.10
296.69	1734.63
296.90	1744.87
297.12	1662.95
297.33	1755.11
297.55	1665.00
297.76	1787.88
297.98	1781.73
298.19	1716.20
298.41	1701.86
298.62	1718.25
298.83	1781.73
299.05	1730.53
299.26	1716.20
299.48	1701.86
299.69	1814.50
299.90	1703.91
300.12	1644.52
300.33	1779.68
300.55	1785.83
300.76	1843.17
300.98	1628.14
301.19	1716.20
301.40	1679.33
301.62	1716.20
301.83	1783.78
302.05	1740.77
302.26	1689.57
302.47	1794.02
302.69	1681.38
302.90	1708.01
303.12	1636.33
303.33	1777.64
303.54	1818.60
303.76	1648.61
303.97	1789.92
304.19	1808.36
304.40	1669.09
304.61	1732.58
304.83	1796.07
305.04	1798.12
305.26	1703.91
305.47	1621.99
305.68	1693.67
305.90	1617.90
306.11	1767.40
306.33	1685.48
306.54	1675.24
306.75	1689.57
306.97	1697.77
307.18	1603.56
307.39	1646.57
307.61	1701.86
307.82	1728.49
308.04	1699.81
308.25	1703.91
308.46	1728.49
308.68	1714.15
308.89	1703.91
309.10	1763.30
309.32	1751.01
309.53	1708.01
309.74	1714.15
309.96	1687.53
310.17	1705.96
310.39	1601.51
310.60	1720.29
310.81	1720.29
311.03	1679.33
311.24	1734.63
311.45	1693.67
311.67	1861.60
311.88	1748.97
312.09	1628.14
312.31	1697.77
312.52	1718.25
312.73	1771.49
312.95	1658.85
313.16	1671.14
313.37	1771.49
313.59	1746.92
313.80	1718.25
314.01	1794.02
314.23	1701.86
314.44	1705.96
314.65	1599.46
314.87	1642.47
315.08	1650.66
315.29	1683.43
315.51	1679.33
315.72	1621.99
315.93	1820.64
316.15	1757.16
316.36	1640.42
316.57	1710.05
316.79	1726.44
317.00	1693.67
317.21	1697.77
317.43	1628.14
317.64	1634.28
317.85	1646.57
318.07	1636.33
318.28	1757.16
318.49	1777.64
318.70	1945.57
318.92	1794.02
319.13	1812.45
319.34	1884.13
319.56	1812.45
319.77	1902.56
319.98	1726.44
320.20	1765.35
320.41	1744.87
320.62	1720.29
320.83	1724.39
321.05	1859.56
321.26	1724.39
321.47	1650.66
321.69	1755.11
321.90	1665.00
322.11	1632.23
322.32	1675.24
322.54	1779.68
322.75	1734.63
322.96	1834.98
323.18	1599.46
323.39	1667.05
323.60	1777.64
323.81	1761.25
324.03	1671.14
324.24	1755.11
324.45	1705.96
324.66	1722.34
324.88	1708.01
325.09	1830.88
325.30	1730.53
325.52	1734.63
325.73	1738.73
325.94	1681.38
326.15	1593.32
326.37	1644.52
326.58	1751.01
326.79	1820.64
327.00	1636.33
327.22	1689.57
327.43	1712.10
327.64	1609.70
327.85	1701.86
328.07	1697.77
328.28	1761.25
328.49	1669.09
328.70	1722.34
328.92	1712.10
329.13	1697.77
329.34	1730.53
329.55	1759.21
329.76	1722.34
329.98	1665.00
330.19	1779.68
330.40	1665.00
330.61	1720.29
330.83	1763.30
331.04	1644.52
331.25	1722.34
331.46	1654.76
331.68	1697.77
331.89	1722.34
332.10	1673.19
332.31	1621.99
332.52	1746.92
332.74	1714.15
332.95	1648.61
333.16	1779.68
333.37	1755.11
333.58	1714.15
333.80	1673.19
334.01	1654.76
334.22	1740.77
334.43	1685.48
334.64	1671.14
334.86	1646.57
335.07	1710.05
335.28	1841.12
335.49	1656.81
335.70	1765.35
335.92	1822.69
336.13	1818.60
336.34	1800.16
336.55	1691.62
336.76	1751.01
336.98	1589.22
337.19	1718.25
337.40	1832.93
337.61	1880.04
337.82	1730.53
338.04	1728.49
338.25	1667.05
338.46	1665.00
338.67	1669.09
338.88	1628.14
339.09	1615.85
339.31	1701.86
339.52	1636.33
339.73	1636.33
339.94	1755.11
340.15	1748.97
340.36	1726.44
340.58	1759.21
340.79	1626.09
341.00	1738.73
341.21	1615.85
341.42	1740.77
341.63	1685.48
341.85	1748.97
342.06	1714.15
342.27	1669.09
342.48	1736.68
342.69	1597.42
342.90	1726.44
343.12	1765.35
343.33	1658.85
343.54	1736.68
343.75	1722.34
343.96	1671.14
344.17	1652.71
344.38	1720.29
344.60	1673.19
344.81	1652.71
345.02	1826.79
345.23	1736.68
345.44	1798.12
345.65	1740.77
345.86	1710.05
346.07	1744.87
346.29	1626.09
346.50	1712.10
346.71	1798.12
346.92	1734.63
347.13	1794.02
347.34	1689.57
347.55	1669.09
347.76	1646.57
347.98	1667.05
348.19	1755.11
348.40	1820.64
348.61	1744.87
348.82	1834.98
349.03	1812.45
349.24	1665.00
349.45	1779.68
349.66	1613.80
349.88	1687.53
350.09	1689.57
350.30	1748.97
350.51	1802.21
350.72	1742.82
350.93	1738.73
351.14	1703.91
351.35	1681.38
351.56	1730.53
351.77	1708.01
351.99	1759.21
352.20	1810.40
352.41	1746.92
352.62	1626.09
352.83	1660.90
353.04	1658.85
353.25	1566.70
353.46	1771.49
353.67	1822.69
353.88	1583.08
354.09	1851.36
354.30	1693.67
354.52	1701.86
354.73	1632.23
354.94	1726.44
355.15	1796.07
355.36	1869.80
355.57	1695.72
355.78	1705.96
355.99	1683.43
356.20	1634.28
356.41	1800.16
356.62	1683.43
356.83	1757.16
357.04	1800.16
357.25	1708.01
357.46	1685.48
357.68	1603.56
357.89	1597.42
358.10	1761.25
358.31	1677.29
358.52	1714.15
358.73	1681.38
358.94	1708.01
359.15	1628.14
359.36	1671.14
359.57	1777.64
359.78	1740.77
359.99	1755.11
360.20	1648.61
360.41	1638.38
360.62	1755.11
360.83	1705.96
361.04	1759.21
361.25	1767.40
361.46	1834.98
361.67	1757.16
361.88	1722.34
362.09	1736.68
362.30	1767.40
362.51	1685.48
362.72	1638.38
362.93	1753.06
363.14	1765.35
363.35	1755.11
363.56	1681.38
363.78	1837.03
363.99	1744.87
364.20	1621.99
364.41	1646.57
364.62	1841.12
364.83	1787.88
365.04	1755.11
365.25	1609.70
365.46	1851.36
365.67	1640.42
365.88	1667.05
366.09	1763.30
366.30	1667.05
366.51	1757.16
366.72	1697.77
366.93	1681.38
367.14	1642.47
367.35	1722.34
367.56	1773.54
367.77	1785.83
367.98	1667.05
368.18	1675.24
368.39	1796.07
368.60	1681.38
368.81	1751.01
369.02	1714.15
369.23	1714.15
369.44	1699.81
369.65	1648.61
369.86	1791.97
370.07	1742.82
370.28	1636.33
370.49	1728.49
370.70	1656.81
370.91	1679.33
371.12	1708.01
371.33	1810.40
371.54	1699.81
371.75	1791.97
371.96	1597.42
372.17	1695.72
372.38	1720.29
372.59	1789.92
372.80	1703.91
373.01	1689.57
373.22	1691.62
373.43	1710.05
373.64	1728.49
373.85	1779.68
374.06	1910.75
374.26	1693.67
374.47	1814.50
374.68	1767.40
374.89	1769.44
375.10	1703.91
375.31	1759.21
375.52	1681.38
375.73	1769.44
375.94	1671.14
376.15	1814.50
376.36	1675.24
376.57	1671.14
376.78	1669.09
376.99	1705.96
377.20	1894.37
377.40	1574.89
377.61	1839.08
377.82	1626.09
378.03	1775.59
378.24	1763.30
378.45	1728.49
378.66	1697.77
378.87	1628.14
379.08	1683.43
379.29	1742.82
379.50	1814.50
379.71	1703.91
379.91	1703.91
380.12	1658.85
380.33	1703.91
380.54	1628.14
380.75	1673.19
380.96	1730.53
381.17	1791.97
381.38	1734.63
381.59	1722.34
381.80	1769.44
382.00	1830.88
382.21	1738.73
382.42	1861.60
382.63	1863.65
382.84	1826.79
383.05	1763.30
383.26	1800.16
383.47	1705.96
383.68	1765.35
383.88	1714.15
384.09	1794.02
384.30	1828.84
384.51	1746.92
384.72	1714.15
384.93	1716.20
385.14	1685.48
385.35	1716.20
385.55	1607.66
385.76	1791.97
385.97	1748.97
386.18	1621.99
386.39	1720.29
386.60	1726.44
386.81	1716.20
387.02	1697.77
387.22	1695.72
387.43	1789.92
387.64	1798.12
387.85	1820.64
388.06	2176.99
388.27	4222.91
388.48	6913.94
388.68	8322.94
388.89	9643.88
389.10	9848.68
389.31	8621.95
389.52	7759.75
389.73	6817.69
389.93	6406.05
390.14	5826.47
390.35	5259.18
390.56	4501.44
390.77	3887.04
390.98	2981.84
391.18	2555.86
391.39	2103.26
391.60	1857.51
391.81	1849.32
392.02	1718.25
392.23	1837.03
392.43	1765.35
392.64	1859.56
392.85	1779.68
393.06	1789.92
393.27	1710.05
393.47	1683.43
393.68	1710.05
393.89	1710.05
394.10	1789.92
394.31	1654.76
394.52	1669.09
394.72	1665.00
394.93	1810.40
395.14	1624.04
395.35	1724.39
395.56	1687.53
395.76	1730.53
395.97	1787.88
396.18	1886.18
396.39	1796.07
396.60	1990.63
396.80	1857.51
397.01	1888.23
397.22	1871.84
397.43	1830.88
397.64	1724.39
397.84	1845.22
398.05	1773.54
398.26	1775.59
398.47	1783.78
398.67	1714.15
398.88	1757.16
399.09	1728.49
399.30	1734.63
399.51	1712.10
399.71	1689.57
399.92	1685.48
400.13	1744.87
400.34	1691.62
400.54	1751.01
400.75	1812.45
400.96	1783.78
401.17	1904.61
401.37	1753.06
401.58	1763.30
401.79	1699.81
402.00	1832.93
402.21	2011.11
402.41	1986.53
402.62	1990.63
402.83	2050.02
403.04	2025.44
403.24	2025.44
403.45	1902.56
403.66	1943.52
403.87	1900.52
404.07	1880.04
404.28	1855.46
404.49	1931.23
404.70	1712.10
404.90	1738.73
405.11	1804.26
405.32	1742.82
405.52	1697.77
405.73	1718.25
405.94	1685.48
406.15	1712.10
406.35	1679.33
406.56	1740.77
406.77	1710.05
406.98	1726.44
407.18	1662.95
407.39	1822.69
407.60	1712.10
407.80	1689.57
408.01	1665.00
408.22	1615.85
408.43	1665.00
408.63	1736.68
408.84	1718.25
409.05	1730.53
409.25	1669.09
409.46	1650.66
409.67	1689.57
409.88	1712.10
410.08	1785.83
410.29	1644.52
410.50	1738.73
410.70	1746.92
410.91	1746.92
411.12	1812.45
411.32	1722.34
411.53	1638.38
411.74	1751.01
411.95	1828.84
412.15	1765.35
412.36	1812.45
412.57	1761.25
412.77	1839.08
412.98	1691.62
413.19	1677.29
413.39	1810.40
413.60	1771.49
413.81	1808.36
414.01	1669.09
414.22	1718.25
414.43	1765.35
414.63	1736.68
414.84	1738.73
415.05	1732.58
415.25	1652.71
415.46	1738.73
415.67	1681.38
415.87	1669.09
416.08	1642.47
416.29	1695.72
416.49	1820.64
416.70	1615.85
416.91	1671.14
417.11	1720.29
417.32	1746.92
417.53	1730.53
417.73	1748.97
417.94	1658.85
418.15	1728.49
418.35	1681.38
418.56	1742.82
418.77	1892.32
418.97	1699.81
419.18	1665.00
419.38	1615.85
419.59	1669.09
419.80	1855.46
420.00	1683.43
420.21	1699.81
420.42	1798.12
420.62	1728.49
420.83	1648.61
421.04	1687.53
421.24	1679.33
421.45	1708.01
421.65	1832.93
421.86	1718.25
422.07	1794.02
422.27	1667.05
422.48	1740.77
422.69	1605.61
422.89	1667.05
423.10	1697.77
423.30	1605.61
423.51	1796.07
423.72	1759.21
423.92	1771.49
424.13	1644.52
424.33	1730.53
424.54	1751.01
424.75	1701.86
424.95	1820.64
425.16	1689.57
425.36	1693.67
425.57	1720.29
425.78	1718.25
425.98	1779.68
426.19	1656.81
426.39	1658.85
426.60	1779.68
426.81	1861.60
427.01	1806.31
427.22	1732.58
427.42	1636.33
427.63	1714.15
427.83	1703.91
428.04	1742.82
428.25	1755.11
428.45	1810.40
428.66	1755.11
428.86	1687.53
429.07	1712.10
429.28	1800.16
429.48	1675.24
429.69	1675.24
429.89	1642.47
430.10	1687.53
430.30	1773.54
430.51	1748.97
430.71	1708.01
430.92	1763.30
431.13	1667.05
431.33	1673.19
431.54	1732.58
431.74	1832.93
431.95	1810.40
432.15	1689.57
432.36	1783.78
432.56	1734.63
432.77	1855.46
432.98	1837.03
433.18	1718.25
433.39	1716.20
433.59	1693.67
433.80	1820.64
434.00	1855.46
434.21	1722.34
434.41	1720.29
434.62	1873.89
434.82	1781.73
435.03	1697.77
435.23	1761.25
435.44	1585.13
435.64	1800.16
435.85	1796.07
436.06	1718.25
436.26	1816.55
436.47	1638.38
436.67	1689.57
436.88	1718.25
437.08	1699.81
437.29	1781.73
437.49	1806.31
437.70	1718.25
437.90	1728.49
438.11	1832.93
438.31	1761.25
438.52	1859.56
438.72	1912.80
438.93	1968.10
439.13	1708.01
439.34	1828.84
439.54	1781.73
439.75	1849.32
439.95	1820.64
440.16	1705.96
440.36	1773.54
440.57	1759.21
440.77	1742.82
440.98	1701.86
441.18	1728.49
441.39	1710.05
441.59	1716.20
441.80	1816.55
442.00	1740.77
442.21	1853.41
442.41	1634.28
442.62	1791.97
442.82	1746.92
443.02	1689.57
443.23	1744.87
443.43	1798.12
443.64	1808.36
443.84	1720.29
444.05	1822.69
444.25	1710.05
444.46	1677.29
444.66	1703.91
444.87	1769.44
445.07	1656.81
445.28	1705.96
445.48	1765.35
445.69	1816.55
445.89	1888.23
446.09	1740.77
446.30	2015.20
446.50	2615.26
446.71	3735.50
446.91	4384.70
447.12	4902.84
447.32	4929.46
447.53	4315.07
447.73	3915.72
447.93	3491.79
448.14	3448.78
448.34	3231.69
448.55	2897.88
448.75	2906.07
448.96	2797.53
449.16	2420.70
449.36	2369.50
449.57	2140.13
449.77	1931.23
449.98	1746.92
450.18	1796.07
450.39	1808.36
450.59	1900.52
450.79	1722.34
451.00	1681.38
451.20	1775.59
451.41	1781.73
451.61	1769.44
451.81	1751.01
452.02	1800.16
452.22	1755.11
452.43	1660.90
452.63	1728.49
452.84	1716.20
453.04	1720.29
453.24	1814.50
453.45	1667.05
453.65	1697.77
453.86	1761.25
454.06	1697.77
454.26	1703.91
454.47	1712.10
454.67	1857.51
454.87	1705.96
455.08	1722.34
455.28	1781.73
455.49	1798.12
455.69	1669.09
455.89	1961.95
456.10	1802.21
456.30	1714.15
456.51	1830.88
456.71	1818.60
456.91	1714.15
457.12	1724.39
457.32	1808.36
457.52	1654.76
457.73	1740.77
457.93	1867.75
458.14	1751.01
458.34	1613.80
458.54	1720.29
458.75	1679.33
458.95	1818.60
459.15	1746.92
459.36	1738.73
459.56	1783.78
459.76	1933.28
459.97	1746.92
460.17	1689.57
460.37	1783.78
460.58	1714.15
460.78	1798.12
460.99	1695.72
461.19	1789.92
461.39	1662.95
461.60	1738.73
461.80	1783.78
462.00	1685.48
462.21	1624.04
462.41	1757.16
462.61	1714.15
462.82	1695.72
463.02	1787.88
463.22	1734.63
463.43	1728.49
463.63	1673.19
463.83	1814.50
464.04	1767.40
464.24	1785.83
464.44	1687.53
464.64	1679.33
464.85	1658.85
465.05	1794.02
465.25	1781.73
465.46	1759.21
465.66	1746.92
465.86	1794.02
466.07	1753.06
466.27	1757.16
466.47	1648.61
466.68	1662.95
466.88	1753.06
467.08	1720.29
467.29	1775.59
467.49	1595.37
467.69	1738.73
467.89	1697.77
468.10	1667.05
468.30	1767.40
468.50	1769.44
468.71	1773.54
468.91	1583.08
469.11	1791.97
469.31	1787.88
469.52	1658.85
469.72	1867.75
469.92	1812.45
470.13	1761.25
470.33	1834.98
470.53	1839.08
470.73	2160.61
470.94	2279.39
471.14	2359.26
471.34	2590.68
471.54	2412.51
471.75	2332.64
471.95	2107.36
472.15	2090.98
472.36	2131.94
472.56	2062.30
472.76	2047.97
472.96	2035.68
473.17	1937.38
473.37	1822.69
473.57	1779.68
473.77	1888.23
473.98	1798.12
474.18	1751.01
474.38	1869.80
474.58	1767.40
474.79	1728.49
474.99	1742.82
475.19	1773.54
475.39	1687.53
475.60	1757.16
475.80	1773.54
476.00	1738.73
476.20	1683.43
476.41	1728.49
476.61	1900.52
476.81	1802.21
477.01	1609.70
477.21	1875.94
477.42	1896.42
477.62	1734.63
477.82	1847.27
478.02	1763.30
478.23	1714.15
478.43	1671.14
478.63	1667.05
478.83	1699.81
479.03	1699.81
479.24	1765.35
479.44	1884.13
479.64	1662.95
479.84	1662.95
480.04	1640.42
480.25	1740.77
480.45	1681.38
480.65	1712.10
480.85	1771.49
481.06	1693.67
481.26	1777.64
481.46	1683.43
481.66	1791.97
481.86	1621.99
482.06	1763.30
482.27	1734.63
482.47	1734.63
482.67	1730.53
482.87	1669.09
483.07	1746.92
483.28	1681.38
483.48	1656.81
483.68	1695.72
483.88	1634.28
484.08	1591.27
484.29	1679.33
484.49	1724.39
484.69	1718.25
484.89	1884.13
485.09	1828.84
485.29	1718.25
485.50	1771.49
485.70	1753.06
485.90	1828.84
486.10	1742.82
486.30	1742.82
486.50	1722.34
486.71	1755.11
486.91	1822.69
487.11	1785.83
487.31	1691.62
487.51	1742.82
487.71	1722.34
487.91	1703.91
488.12	1708.01
488.32	1648.61
488.52	1722.34
488.72	1656.81
488.92	1732.58
489.12	1761.25
489.32	1742.82
489.53	1794.02
489.73	1705.96
489.93	1796.07
490.13	1646.57
490.33	1650.66
490.53	1769.44
490.73	1789.92
490.94	1699.81
491.14	1746.92
491.34	1828.84
491.54	2144.22
491.74	2602.97
491.94	3016.66
492.14	2955.22
492.34	3074.00
492.54	2772.95
492.75	2562.01
492.95	2465.75
493.15	2316.25
493.35	2299.87
493.55	2240.48
493.75	2185.18
493.95	2156.51
494.15	1968.10
494.35	1927.14
494.56	1890.28
494.76	1779.68
494.96	1746.92
495.16	1759.21
495.36	1757.16
495.56	1783.78
495.76	1816.55
495.96	1712.10
496.16	1662.95
496.36	1843.17
496.56	1773.54
496.77	1748.97
496.97	1763.30
497.17	1808.36
497.37	1574.89
497.57	1812.45
497.77	1701.86
497.97	1675.24
498.17	1652.71
498.37	1730.53
498.57	1800.16
498.77	1728.49
498.97	1744.87
499.17	1914.85
499.38	1718.25
499.58	1800.16
499.78	1832.93
499.98	1826.79
500.18	1800.16
500.38	1722.34
500.58	1927.14
500.78	2615.26
500.98	4601.79
501.18	5941.16
501.38	6868.89
501.58	7352.21
501.78	6690.71
501.98	5633.96
502.18	5017.52
502.38	4474.81
502.58	4177.86
502.78	3891.14
502.98	3667.91
503.18	3430.35
503.38	3203.02
503.59	2828.24
503.79	2676.70
503.99	2447.32
504.19	2363.36
504.39	2220.00
504.59	2164.70
504.79	2113.50
504.99	2017.25
505.19	1898.47
505.39	1865.70
505.59	1986.53
505.79	1927.14
505.99	1820.64
506.19	1814.50
506.39	1904.61
506.59	1736.68
506.79	1724.39
506.99	1900.52
507.19	1689.57
507.39	1744.87
507.59	1611.75
507.79	1695.72
507.99	1722.34
508.19	1822.69
508.39	1759.21
508.59	1746.92
508.79	1810.40
508.99	1857.51
509.19	1689.57
509.39	1834.98
509.59	1665.00
509.79	1701.86
509.99	1783.78
510.19	1720.29
510.39	1830.88
510.59	1769.44
510.79	1718.25
510.99	1646.57
511.19	1759.21
511.39	1800.16
511.59	1746.92
511.79	1873.89
511.99	1789.92
512.19	1779.68
512.38	1732.58
512.58	1724.39
512.78	1720.29
512.98	1791.97
513.18	1810.40
513.38	1656.81
513.58	1814.50
513.78	1740.77
513.98	1765.35
514.18	1767.40
514.38	1695.72
514.58	1726.44
514.78	1677.29
514.98	1722.34
515.18	1673.19
515.38	1740.77
515.58	1892.32
515.78	1753.06
515.98	1726.44
516.18	1779.68
516.38	1708.01
516.57	1695.72
516.77	1724.39
516.97	1738.73
517.17	1701.86
517.37	1609.70
517.57	1759.21
517.77	1755.11
517.97	1703.91
518.17	1804.26
518.37	1632.23
518.57	1687.53
518.77	1691.62
518.97	1720.29
519.16	1767.40
519.36	1787.88
519.56	1658.85
519.76	1667.05
519.96	1767.40
520.16	1779.68
520.36	1615.85
520.56	1845.22
520.76	1732.58
520.96	1742.82
521.16	1818.60
521.35	1808.36
521.55	1783.78
521.75	1683.43
521.95	1755.11
522.15	1724.39
522.35	1619.94
522.55	1724.39
522.75	1746.92
522.95	1767.40
523.14	1724.39
523.34	1757.16
523.54	1738.73
523.74	1693.67
523.94	1781.73
524.14	1687.53
524.34	1843.17
524.54	1814.50
524.73	1710.05
524.93	1828.84
525.13	1765.35
525.33	1742.82
525.53	1896.42
525.73	1789.92
525.93	1677.29
526.13	1759.21
526.32	1685.48
526.52	1800.16
526.72	1714.15
526.92	1763.30
527.12	1624.04
527.32	1693.67
527.52	1714.15
527.71	1794.02
527.91	1789.92
528.11	1728.49
528.31	1675.24
528.51	1720.29
528.71	1800.16
528.90	1810.40
529.10	1787.88
529.30	1884.13
529.50	1683.43
529.70	1714.15
529.90	1718.25
530.09	1775.59
530.29	1677.29
530.49	1683.43
530.69	1796.07
530.89	1671.14
531.09	1751.01
531.28	1701.86
531.48	1757.16
531.68	1708.01
531.88	1730.53
532.08	1763.30
532.28	1751.01
532.47	1767.40
532.67	1816.55
532.87	1773.54
533.07	1773.54
533.27	1761.25
533.46	1712.10
533.66	1720.29
533.86	1720.29
534.06	1720.29
534.26	1787.88
534.45	1765.35
534.65	1853.41
534.85	1730.53
535.05	1669.09
535.25	1798.12
535.44	1697.77
535.64	1794.02
535.84	1783.78
536.04	1679.33
536.24	1738.73
536.43	1748.97
536.63	1705.96
536.83	1759.21
537.03	1818.60
537.22	1689.57
537.42	1642.47
537.62	1767.40
537.82	1714.15
538.02	1789.92
538.21	1742.82
538.41	1918.95
538.61	1800.16
538.81	1712.10
539.00	1748.97
539.20	1658.85
539.40	1626.09
539.60	1716.20
539.79	1708.01
539.99	1701.86
540.19	1665.00
540.39	1734.63
540.58	1812.45
540.78	1810.40
540.98	1806.31
541.18	1730.53
541.37	1806.31
541.57	1693.67
541.77	1665.00
541.97	1755.11
542.16	1718.25
542.36	1767.40
542.56	1648.61
542.76	1882.08
542.95	1769.44
543.15	1804.26
543.35	1683.43
543.54	1673.19
543.74	1671.14
543.94	1810.40
544.14	1724.39
544.33	1755.11
544.53	1769.44
544.73	1724.39
544.93	1765.35
545.12	1738.73
545.32	1751.01
545.52	1746.92
545.71	1683.43
545.91	1808.36
546.11	1734.63
546.30	1740.77
546.50	1763.30
546.70	1746.92
546.90	1839.08
547.09	1675.24
547.29	1796.07
547.49	1787.88
547.68	1755.11
547.88	1683.43
548.08	1744.87
548.27	2148.32
548.47	1710.05
548.67	1751.01
548.87	1777.64
549.06	1726.44
549.26	1697.77
549.46	1816.55
549.65	1718.25
549.85	1767.40
550.05	1834.98
550.24	1689.57
550.44	1767.40
550.64	1763.30
550.83	1800.16
551.03	1820.64
551.23	1837.03
551.42	1789.92
551.62	1697.77
551.82	1781.73
552.01	1673.19
552.21	1808.36
552.41	1740.77
552.60	1746.92
552.80	1777.64
553.00	1740.77
553.19	1769.44
553.39	1834.98
553.59	1683.43
553.78	1759.21
553.98	1757.16
554.17	1656.81
554.37	1832.93
554.57	1808.36
554.76	1697.77
554.96	1726.44
555.16	1724.39
555.35	1693.67
555.55	1783.78
555.75	1761.25
555.94	1794.02
556.14	1599.46
556.33	1832.93
556.53	1753.06
556.73	1738.73
556.92	1796.07
557.12	1826.79
557.32	1888.23
557.51	1777.64
557.71	1748.97
557.90	1828.84
558.10	1832.93
558.30	1650.66
558.49	1785.83
558.69	1708.01
558.88	1730.53
559.08	1740.77
559.28	1710.05
559.47	1736.68
559.67	1742.82
559.86	1843.17
560.06	1789.92
560.26	1751.01
560.45	1789.92
560.65	1759.21
560.84	1839.08
561.04	1757.16
561.24	1824.74
561.43	1712.10
561.63	1755.11
561.82	1736.68
562.02	1904.61
562.22	1730.53
562.41	1654.76
562.61	1714.15
562.80	1687.53
563.00	1871.84
563.19	1722.34
563.39	1763.30
563.59	1783.78
563.78	1714.15
563.98	1699.81
564.17	1757.16
564.37	1644.52
564.56	1738.73
564.76	1628.14
564.96	1794.02
565.15	1751.01
565.35	1918.95
565.54	1699.81
565.74	1830.88
565.93	1744.87
566.13	1826.79
566.32	1781.73
566.52	1808.36
566.71	1787.88
566.91	1794.02
567.11	1761.25
567.30	1742.82
567.50	1761.25
567.69	1730.53
567.89	1775.59
568.08	1740.77
568.28	1787.88
568.47	1714.15
568.67	1773.54
568.86	1753.06
569.06	1820.64
569.25	1685.48
569.45	1634.28
569.64	1681.38
569.84	1710.05
570.04	1712.10
570.23	1796.07
570.43	1669.09
570.62	1763.30
570.82	1783.78
571.01	1771.49
571.21	1783.78
571.40	1685.48
571.60	1783.78
571.79	1738.73
571.99	1757.16
572.18	1730.53
572.38	1800.16
572.57	1746.92
572.77	1710.05
572.96	1896.42
573.16	1691.62
573.35	1697.77
573.55	1834.98
573.74	1802.21
573.94	1742.82
574.13	1695.72
574.33	1789.92
574.52	1861.60
574.71	1757.16
574.91	1732.58
575.10	1785.83
575.30	1724.39
575.49	1662.95
575.69	1742.82
575.88	1830.88
576.08	1785.83
576.27	1761.25
576.47	1791.97
576.66	1787.88
576.86	1871.84
577.05	1703.91
577.25	1806.31
577.44	1943.52
577.64	1691.62
577.83	1791.97
578.02	1703.91
578.22	1890.28
578.41	1855.46
578.61	1787.88
578.80	1630.18
579.00	1744.87
579.19	1753.06
579.39	1740.77
579.58	1783.78
579.77	1753.06
579.97	1761.25
580.16	1834.98
580.36	1791.97
580.55	1800.16
580.75	1800.16
580.94	1806.31
581.13	1851.36
581.33	1845.22
581.52	1796.07
581.72	1839.08
581.91	1843.17
582.11	1736.68
582.30	1767.40
582.49	1773.54
582.69	1824.74
582.88	1767.40
583.08	1828.84
583.27	1865.70
583.47	1832.93
583.66	1705.96
583.85	1740.77
584.05	1806.31
584.24	1789.92
584.44	1824.74
584.63	1808.36
584.82	1806.31
585.02	1845.22
585.21	1869.80
585.41	1904.61
585.60	1773.54
585.79	1875.94
585.99	1982.43
586.18	1937.38
586.37	2133.98
586.57	3432.40
586.76	10125.16
586.96	24553.10
587.15	34393.59
587.34	40785.30
587.54	42714.48
587.73	36988.36
587.93	26605.16
588.12	21747.38
588.31	18657.00
588.51	16256.78
588.70	15167.26
588.89	14395.17
589.09	12803.90
589.28	11073.37
589.47	9621.36
589.67	7960.45
589.86	6447.01
590.06	5023.67
590.25	3870.66
590.44	3188.69
590.64	2594.78
590.83	2144.22
591.02	2011.11
591.22	1974.24
591.41	1925.09
591.60	1794.02
591.80	1898.47
591.99	1884.13
592.18	1716.20
592.38	1834.98
592.57	1718.25
592.76	1822.69
592.96	1820.64
593.15	1832.93
593.34	1816.55
593.54	1703.91
593.73	1828.84
593.92	1824.74
594.12	1703.91
594.31	1814.50
594.50	1783.78
594.70	1816.55
594.89	1837.03
595.08	1685.48
595.28	1787.88
595.47	1939.43
595.66	1820.64
595.86	1712.10
596.05	1839.08
596.24	1683.43
596.43	1875.94
596.63	1783.78
596.82	1748.97
597.01	1755.11
597.21	1814.50
597.40	1769.44
597.59	1730.53
597.79	1771.49
597.98	1763.30
598.17	1804.26
598.36	1732.58
598.56	1783.78
598.75	1765.35
598.94	1744.87
599.14	1763.30
599.33	1751.01
599.52	1701.86
599.71	1773.54
599.91	1806.31
600.10	1767.40
600.29	1718.25
600.48	1808.36
600.68	1802.21
600.87	1740.77
601.06	1705.96
601.26	1732.58
601.45	1847.27
601.64	1738.73
601.83	1765.35
602.03	1718.25
602.22	1679.33
602.41	1734.63
602.60	1820.64
602.80	1796.07
602.99	1755.11
603.18	1755.11
603.37	1779.68
603.57	1695.72
603.76	1812.45
603.95	1865.70
604.14	1703.91
604.34	1718.25
604.53	1763.30
604.72	1751.01
604.91	1794.02
605.10	1802.21
605.30	1660.90
605.49	1880.04
605.68	1767.40
605.87	1794.02
606.07	1712.10
606.26	1742.82
606.45	1705.96
606.64	1794.02
606.84	1736.68
607.03	1720.29
607.22	1783.78
607.41	1703.91
607.60	1740.77
607.80	1775.59
607.99	1771.49
608.18	1753.06
608.37	1730.53
608.56	1652.71
608.76	1755.11
608.95	1865.70
609.14	1718.25
609.33	1837.03
609.52	1779.68
609.72	1724.39
609.91	1816.55
610.10	1742.82
610.29	1894.37
610.48	1767.40
610.68	1759.21
610.87	1757.16
611.06	1755.11
611.25	1734.63
611.44	1828.84
611.63	1693.67
611.83	1837.03
612.02	1679.33
612.21	1796.07
612.40	1650.66
612.59	1632.23
612.79	1718.25
612.98	1689.57
613.17	1806.31
613.36	1714.15
613.55	1894.37
613.74	1634.28
613.93	1726.44
614.13	1732.58
614.32	1779.68
614.51	1812.45
614.70	1730.53
614.89	1738.73
615.08	1744.87
615.28	2127.84
615.47	1642.47
615.66	1714.15
615.85	1746.92
616.04	1812.45
616.23	1671.14
616.42	1708.01
616.62	1748.97
616.81	1806.31
617.00	1777.64
617.19	1783.78
617.38	1701.86
617.57	1689.57
617.76	1748.97
617.95	1748.97
618.15	1769.44
618.34	1798.12
618.53	1660.90
618.72	1859.56
618.91	1753.06
619.10	1837.03
619.29	1794.02
619.48	1779.68
619.68	1681.38
619.87	1742.82
620.06	1701.86
620.25	1722.34
620.44	1755.11
620.63	1763.30
620.82	1814.50
621.01	1714.15
621.20	1683.43
621.39	1673.19
621.59	1726.44
621.78	1652.71
621.97	1658.85
622.16	1773.54
622.35	1726.44
622.54	1746.92
622.73	1787.88
622.92	1689.57
623.11	1839.08
623.30	1761.25
623.49	1798.12
623.68	1710.05
623.88	1851.36
624.07	1685.48
624.26	1705.96
624.45	1800.16
624.64	1671.14
624.83	1736.68
625.02	1728.49
625.21	1730.53
625.40	1705.96
625.59	1822.69
625.78	1753.06
625.97	1806.31
626.16	1789.92
626.35	1834.98
626.54	1746.92
626.74	1822.69
626.93	1722.34
627.12	1671.14
627.31	1871.84
627.50	1746.92
627.69	1767.40
627.88	1705.96
628.07	1714.15
628.26	1648.61
628.45	1714.15
628.64	1710.05
628.83	1732.58
629.02	1742.82
629.21	1705.96
629.40	1722.34
629.59	1665.00
629.78	1724.39
629.97	1697.77
630.16	1812.45
630.35	1763.30
630.54	1701.86
630.73	1726.44
630.92	1712.10
631.11	1705.96
631.30	1705.96
631.49	1744.87
631.68	1744.87
631.87	1736.68
632.06	1662.95
632.25	1808.36
632.44	1742.82
632.63	1736.68
632.82	1708.01
633.01	1718.25
633.20	1646.57
633.39	1652.71
633.58	1671.14
633.77	1742.82
633.96	1740.77
634.15	1867.75
634.34	1787.88
634.53	1697.77
634.72	1665.00
634.91	1675.24
635.10	1779.68
635.29	1759.21
635.48	1755.11
635.67	1693.67
635.86	1689.57
636.05	1855.46
636.24	1685.48
636.43	1714.15
636.62	1732.58
636.81	1587.18
637.00	1771.49
637.19	1806.31
637.38	1675.24
637.57	1712.10
637.76	1632.23
637.95	1697.77
638.14	1726.44
638.33	1701.86
638.52	1751.01
638.71	1671.14
638.89	1650.66
639.08	1863.65
639.27	1693.67
639.46	1726.44
639.65	1779.68
639.84	1677.29
640.03	1806.31
640.22	1681.38
640.41	1765.35
640.60	1734.63
640.79	1693.67
640.98	1701.86
641.17	1781.73
641.36	1759.21
641.55	1765.35
641.74	1613.80
641.92	1615.85
642.11	1642.47
642.30	1708.01
642.49	1665.00
642.68	1716.20
642.87	1728.49
643.06	1785.83
643.25	1722.34
643.44	1730.53
643.63	1722.34
643.82	1769.44
644.00	1701.86
644.19	1722.34
644.38	1673.19
644.57	1748.97
644.76	1804.26
644.95	1746.92
645.14	1695.72
645.33	1689.57
645.52	1742.82
645.71	1683.43
645.89	1673.19
646.08	1773.54
646.27	1599.46
646.46	1861.60
646.65	1638.38
646.84	1759.21
647.03	1638.38
647.22	1722.34
647.40	1714.15
647.59	1699.81
647.78	1644.52
647.97	1665.00
648.16	1640.42
648.35	1845.22
648.54	1732.58
648.73	1718.25
648.91	1761.25
649.10	1763.30
649.29	1730.53
649.48	1667.05
649.67	1673.19
649.86	1714.15
650.05	1740.77
650.23	1779.68
650.42	1746.92
650.61	1769.44
650.80	1775.59
650.99	1818.60
651.18	1796.07
651.36	1798.12
651.55	1724.39
651.74	1820.64
651.93	1656.81
652.12	1654.76
652.31	1716.20
652.49	1689.57
652.68	1761.25
652.87	1800.16
653.06	1798.12
653.25	1802.21
653.44	1626.09
653.62	1812.45
653.81	1791.97
654.00	1732.58
654.19	1724.39
654.38	1910.75
654.56	1794.02
654.75	1738.73
654.94	1771.49
655.13	1767.40
655.32	1767.40
655.51	1728.49
655.69	1642.47
655.88	1763.30
656.07	1624.04
656.26	1798.12
656.45	1646.57
656.63	1742.82
656.82	1738.73
657.01	1765.35
657.20	1708.01
657.38	1789.92
657.57	1683.43
657.76	1667.05
657.95	1765.35
658.14	1634.28
658.32	1703.91
658.51	1642.47
658.70	1761.25
658.89	1724.39
659.08	1718.25
659.26	1781.73
659.45	1710.05
659.64	1705.96
659.83	1640.42
660.01	1933.28
660.20	1705.96
660.39	1755.11
660.58	1691.62
660.76	1785.83
660.95	1681.38
661.14	1722.34
661.33	1648.61
661.51	1689.57
661.70	1640.42
661.89	1734.63
662.08	1769.44
662.26	1665.00
662.45	1779.68
662.64	1855.46
662.83	1728.49
663.01	1736.68
663.20	1724.39
663.39	1785.83
663.58	1691.62
663.76	1740.77
663.95	1722.34
664.14	1720.29
664.32	1705.96
664.51	1701.86
664.70	1656.81
664.89	1671.14
665.07	1665.00
665.26	1765.35
665.45	1673.19
665.64	1734.63
665.82	1753.06
666.01	1699.81
666.20	1691.62
666.38	1777.64
666.57	1777.64
666.76	2127.84
666.95	4511.68
667.13	10461.02
667.32	15619.86
667.51	18300.65
667.69	19160.80
667.88	17962.73
668.07	12676.93
668.25	9514.86
668.44	8163.20
668.63	7507.85
668.81	6883.22
669.00	6303.65
669.19	5760.94
669.38	5203.89
669.56	4669.37
669.75	4081.60
669.94	3426.25
670.12	2959.31
670.31	2566.10
670.50	2293.72
670.68	2088.93
670.87	1955.81
671.06	1789.92
671.24	1826.79
671.43	1875.94
671.62	1658.85
671.80	1779.68
671.99	1796.07
672.18	1738.73
672.36	1771.49
672.55	1759.21
672.74	1742.82
672.92	1779.68
673.11	1816.55
673.29	1603.56
673.48	1734.63
673.67	1732.58
673.85	1726.44
674.04	1730.53
674.23	1789.92
674.41	1751.01
674.60	1671.14
674.79	1701.86
674.97	1712.10
675.16	1755.11
675.34	1751.01
675.53	1648.61
675.72	1798.12
675.90	1714.15
676.09	1679.33
676.28	1705.96
676.46	1652.71
676.65	1740.77
676.83	1710.05
677.02	1683.43
677.21	1816.55
677.39	1765.35
677.58	1681.38
677.77	1667.05
677.95	1656.81
678.14	1665.00
678.32	1675.24
678.51	1703.91
678.70	1810.40
678.88	1689.57
679.07	1755.11
679.25	1701.86
679.44	1687.53
679.63	1669.09
679.81	1703.91
680.00	1804.26
680.18	1734.63
680.37	1744.87
680.55	1736.68
680.74	1681.38
680.93	1636.33
681.11	1699.81
681.30	1697.77
681.48	1728.49
681.67	1705.96
681.85	1667.05
682.04	1689.57
682.23	1796.07
682.41	1779.68
682.60	1665.00
682.78	1689.57
682.97	1669.09
683.15	1685.48
683.34	1816.55
683.53	1777.64
683.71	1634.28
683.90	1791.97
684.08	1787.88
684.27	1720.29
684.45	1771.49
684.64	1808.36
684.82	1679.33
685.01	1628.14
685.19	1746.92
685.38	1796.07
685.57	1703.91
685.75	1679.33
685.94	1679.33
686.12	1665.00
686.31	1701.86
686.49	1804.26
686.68	1654.76
686.86	1791.97
687.05	1695.72
687.23	1820.64
687.42	1628.14
687.60	1628.14
687.79	1773.54
687.97	1714.15
688.16	1785.83
688.34	1810.40
688.53	1638.38
688.71	1728.49
688.90	1880.04
689.08	1712.10
689.27	1578.98
689.45	1730.53
689.64	1814.50
689.82	1693.67
690.01	1732.58
690.19	1705.96
690.38	1685.48
690.56	1824.74
690.75	1712.10
690.93	1732.58
691.12	1691.62
691.30	1679.33
691.49	1681.38
691.67	1753.06
691.86	1814.50
692.04	1697.77
692.23	1658.85
692.41	1687.53
692.60	1845.22
692.78	1757.16
692.97	1761.25
693.15	1798.12
693.34	1855.46
693.52	1718.25
693.71	1753.06
693.89	1705.96
694.08	1673.19
694.26	1767.40
694.44	1755.11
694.63	1779.68
694.81	1652.71
695.00	1703.91
695.18	1716.20
695.37	1896.42
695.55	1701.86
695.74	1669.09
695.92	1665.00
696.10	1728.49
696.29	1640.42
696.47	1736.68
696.66	1632.23
696.84	1667.05
697.03	1689.57
697.21	1834.98
697.40	2336.73
697.58	1847.27
697.76	1705.96
697.95	1701.86
698.13	1646.57
698.32	1595.37
698.50	1677.29
698.68	1714.15
698.87	1740.77
699.05	1746.92
699.24	1765.35
699.42	1638.38
699.61	1746.92
699.79	1812.45
699.97	1724.39
700.16	1710.05
700.34	1656.81
700.53	1656.81
700.71	1802.21
700.89	1753.06
701.08	1703.91
701.26	1644.52
701.45	2103.26
701.63	1703.91
701.81	1689.57
702.00	1710.05
702.18	1832.93
702.37	1693.67
702.55	1683.43
702.73	1710.05
702.92	1630.18
703.10	1642.47
703.28	1705.96
703.47	1626.09
703.65	1800.16
703.84	1722.34
704.02	1705.96
704.20	1796.07
704.39	1634.28
704.57	1724.39
704.75	1814.50
704.94	1808.36
705.12	1755.11
705.30	1755.11
705.49	2293.72
705.67	4489.15
705.86	9582.45
706.04	12750.65
706.22	14636.83
706.41	15333.14
706.59	13909.80
706.77	9736.04
706.96	7321.49
707.14	6657.95
707.32	5908.39
707.51	5588.91
707.69	4841.40
707.87	4235.20
708.06	3495.88
708.24	2975.70
708.42	2449.37
708.61	2263.01
708.79	1877.99
708.97	1859.56
709.16	1908.71
709.34	1884.13
709.52	1771.49
709.71	1722.34
709.89	1753.06
710.07	1689.57
710.26	1673.19
710.44	1734.63
710.62	1808.36
710.80	1712.10
710.99	1773.54
711.17	1783.78
711.35	1775.59
711.54	1679.33
711.72	1757.16
711.90	1675.24
712.09	1740.77
712.27	1667.05
712.45	1759.21
712.63	1677.29
712.82	1724.39
713.00	1689.57
713.18	1708.01
713.37	1767.40
713.55	1744.87
713.73	1681.38
713.91	1814.50
714.10	1658.85
714.28	1730.53
714.46	1689.57
714.65	1667.05
714.83	1658.85
715.01	1728.49
715.19	1699.81
715.38	1671.14
715.56	1718.25
715.74	1683.43
715.92	1693.67
716.11	1802.21
716.29	1593.32
716.47	1689.57
716.65	1697.77
716.84	1662.95
717.02	1730.53
717.20	1572.84
717.38	1683.43
717.57	1777.64
717.75	1703.91
717.93	1679.33
718.11	1755.11
718.30	1730.53
718.48	1718.25
718.66	1744.87
718.84	1806.31
719.03	1757.16
719.21	1665.00
719.39	1837.03
719.57	1800.16
719.75	1787.88
719.94	1656.81
720.12	1736.68
720.30	1734.63
720.48	1740.77
720.67	1619.94
720.85	1595.37
721.03	1724.39
721.21	1646.57
721.39	1755.11
721.58	1718.25
721.76	1753.06
721.94	1777.64
722.12	1759.21
722.30	1841.12
722.49	1724.39
722.67	1677.29
722.85	1761.25
723.03	1681.38
723.21	1679.33
723.40	1757.16
723.58	1765.35
723.76	1781.73
723.94	1718.25
724.12	1740.77
724.30	1726.44
724.49	1734.63
724.67	1656.81
724.85	1851.36
725.03	1632.23
725.21	1724.39
725.40	1775.59
725.58	1705.96
725.76	1785.83
725.94	1767.40
726.12	1656.81
726.30	1761.25
726.49	1691.62
726.67	1677.29
726.85	1763.30
727.03	1818.60
727.21	2066.40
727.39	2936.79
727.57	3729.35
727.76	4118.47
727.94	4542.39
728.12	4382.65
728.30	3727.30
728.48	2977.75
728.66	2754.52
728.84	2557.91
729.03	2240.48
729.21	2222.05
729.39	2097.12
729.57	1832.93
729.75	1804.26
729.93	1830.88
730.11	1673.19
730.30	1742.82
730.48	1720.29
730.66	1886.18
730.84	1744.87
731.02	1697.77
731.20	1710.05
731.38	1695.72
731.56	1724.39
731.74	1642.47
731.93	1753.06
732.11	1744.87
732.29	1689.57
732.47	1759.21
732.65	1611.75
732.83	1734.63
733.01	1675.24
733.19	1683.43
733.37	1771.49
733.56	1689.57
733.74	1611.75
733.92	1697.77
734.10	1705.96
734.28	1675.24
734.46	1638.38
734.64	1667.05
734.82	1701.86
735.00	1722.34
735.18	1740.77
735.36	1724.39
735.54	1701.86
735.73	1665.00
735.91	1728.49
736.09	1757.16
736.27	1796.07
736.45	1738.73
736.63	1648.61
736.81	1611.75
736.99	1740.77
737.17	1812.45
737.35	1693.67
737.53	1734.63
737.71	1728.49
737.89	1722.34
738.07	1652.71
738.25	1671.14
738.43	1689.57
738.61	1660.90
738.80	1583.08
738.98	1558.50
739.16	1665.00
739.34	1669.09
739.52	1765.35
739.70	1759.21
739.88	1738.73
740.06	1828.84
740.24	1650.66
740.42	1757.16
740.60	1632.23
740.78	1726.44
740.96	1671.14
741.14	1722.34
741.32	1675.24
741.50	1638.38
741.68	1837.03
741.86	1861.60
742.04	1701.86
742.22	1613.80
742.40	1689.57
742.58	1755.11
742.76	1626.09
742.94	1816.55
743.12	1566.70
743.30	1624.04
743.48	1607.66
743.66	1669.09
743.84	1771.49
744.02	1681.38
744.20	1665.00
744.38	1667.05
744.56	1703.91
744.74	1810.40
744.92	1802.21
745.10	1685.48
745.28	1746.92
745.46	1867.75
745.64	1710.05
745.82	1787.88
746.00	1751.01
746.18	1744.87
746.36	1595.37
746.54	1785.83
746.72	1716.20
746.90	1636.33
747.08	1771.49
747.26	1673.19
747.44	1720.29
747.62	1656.81
747.80	1791.97
747.98	1781.73
748.15	1769.44
748.33	1755.11
748.51	1759.21
748.69	1705.96
748.87	1675.24
749.05	1722.34
749.23	1738.73
749.41	1685.48
749.59	1650.66
749.77	1787.88
749.95	1636.33
750.13	1669.09
750.31	1689.57
750.49	1748.97
750.67	1794.02
750.85	1804.26
751.03	1765.35
751.20	1826.79
751.38	1753.06
751.56	1658.85
751.74	1722.34
751.92	1705.96
752.10	1609.70
752.28	1781.73
752.46	1607.66
752.64	1708.01
752.82	1689.57
753.00	1783.78
753.18	1681.38
753.35	1681.38
753.53	1677.29
753.71	1691.62
753.89	1714.15
754.07	1734.63
754.25	1779.68
754.43	1722.34
754.61	1652.71
754.79	1736.68
754.97	1714.15
755.14	1812.45
755.32	1646.57
755.50	1728.49
755.68	1697.77
755.86	1609.70
756.04	1632.23
756.22	1581.03
756.40	1759.21
756.57	1834.98
756.75	1708.01
756.93	1751.01
757.11	1748.97
757.29	1732.58
757.47	1615.85
757.65	1675.24
757.82	1617.90
758.00	1642.47
758.18	1644.52
758.36	1724.39
758.54	1791.97
758.72	1626.09
758.90	1681.38
759.07	1640.42
759.25	1644.52
759.43	1759.21
759.61	1658.85
759.79	2232.29
759.97	1791.97
760.15	1681.38
760.32	1646.57
760.50	1679.33
760.68	1773.54
760.86	1578.98
761.04	1738.73
761.22	1734.63
761.39	1708.01
761.57	1724.39
761.75	1681.38
761.93	1734.63
762.11	1673.19
762.28	1779.68
762.46	1677.29
762.64	1771.49
762.82	1679.33
763.00	1759.21
763.18	1771.49
763.35	1673.19
763.53	1767.40
763.71	1773.54
763.89	1613.80
764.07	1689.57
764.24	1734.63
764.42	1765.35
764.60	1673.19
764.78	1671.14
764.96	1740.77
765.13	1738.73
765.31	1767.40
765.49	1695.72
765.67	1695.72
765.84	1695.72
766.02	1644.52
766.20	1681.38
766.38	1646.57
766.56	1728.49
766.73	1812.45
766.91	1726.44
767.09	1767.40
767.27	1638.38
767.44	1624.04
767.62	1755.11
767.80	1611.75
767.98	1699.81
768.15	1736.68
768.33	1773.54
768.51	1699.81
768.69	1759.21
768.87	1771.49
769.04	1755.11
769.22	1806.31
769.40	1789.92
769.58	1857.51
769.75	1759.21
769.93	1798.12
770.11	1677.29
770.28	1695.72
770.46	1738.73
770.64	1740.77
770.82	1677.29
770.99	1716.20
771.17	1796.07
771.35	1710.05
771.53	1708.01
771.70	1636.33
771.88	1712.10
772.06	1691.62
772.23	1665.00
772.41	1660.90
772.59	1714.15
772.77	1634.28
772.94	1673.19
773.12	1705.96
773.30	1703.91
773.47	1703.91
773.65	1648.61
773.83	1873.89
774.01	1697.77
774.18	1624.04
774.36	1681.38
774.54	1601.51
774.71	1724.39
774.89	1675.24
775.07	1593.32
775.24	1658.85
775.42	1615.85
775.60	1804.26
775.78	1714.15
775.95	1718.25
776.13	1654.76
776.31	1556.46
776.48	1744.87
776.66	1687.53
776.84	1669.09
777.01	1626.09
777.19	1642.47
777.37	1656.81
777.54	1740.77
777.72	1871.84
777.90	1744.87
778.07	1576.94
778.25	1951.71
778.43	1667.05
778.60	1732.58
778.78	1650.66
778.96	1746.92
779.13	1621.99
779.31	1740.77
779.49	1722.34
779.66	1691.62
779.84	1705.96
780.01	1738.73
780.19	1669.09
780.37	1755.11
780.54	1763.30
780.72	1759.21
780.90	1681.38
781.07	1697.77
781.25	1662.95
781.43	1783.78
781.60	1683.43
781.78	1744.87
781.95	1705.96
782.13	1585.13
782.31	1689.57
782.48	1603.56
782.66	1705.96
782.83	1853.41
783.01	1777.64
783.19	1675.24
783.36	1660.90
783.54	1617.90
783.72	1812.45
783.89	1779.68
784.07	1753.06
784.24	1677.29
784.42	1808.36
784.60	1806.31
784.77	1724.39
784.95	1632.23
785.12	1720.29
785.30	1691.62
785.47	1691.62
785.65	1609.70
785.83	1738.73
786.00	1697.77
786.18	1759.21
786.35	1679.33
786.53	1683.43
786.71	1683.43
786.88	1683.43
787.06	1734.63
787.23	1646.57
787.41	1648.61
787.58	1665.00
787.76	1673.19
787.94	1683.43
788.11	1667.05
788.29	1648.61
788.46	1718.25
788.64	1677.29
788.81	1656.81
788.99	1648.61
789.16	1660.90
789.34	1701.86
789.52	1699.81
789.69	1722.34
789.87	1628.14
790.04	1748.97
790.22	1732.58
790.39	1775.59
790.57	1671.14
790.74	1632.23
790.92	1765.35
791.09	1644.52
791.27	1722.34
791.44	1812.45
791.62	1681.38
791.79	1757.16
791.97	1777.64
792.15	1882.08
792.32	1775.59
792.50	1769.44
792.67	1824.74
792.85	1783.78
793.02	1728.49
793.20	1652.71
793.37	1656.81
793.55	1787.88
793.72	1533.93
793.90	1658.85
794.07	1632.23
794.25	1697.77
794.42	1646.57
794.60	1677.29
794.77	1787.88
794.95	1705.96
795.12	1806.31
795.30	1724.39
795.47	1619.94
795.65	1830.88
795.82	1705.96
796.00	1718.25
796.17	1601.51
796.34	1650.66
796.52	1642.47
796.69	1828.84
796.87	1751.01
797.04	1736.68
797.22	1812.45
797.39	1726.44
797.57	1656.81
797.74	1708.01
797.92	1751.01
798.09	1615.85
798.27	1738.73
798.44	1691.62
798.62	1744.87
798.79	1689.57
798.96	1755.11
799.14	1665.00
799.31	1847.27
799.49	1722.34
799.66	1632.23
799.84	1744.87
800.01	1583.08
800.19	1697.77
800.36	1607.66
800.53	1767.40
800.71	1673.19
800.88	1798.12
801.06	1630.18
801.23	1605.61
801.41	1630.18
801.58	1689.57
801.75	1728.49
801.93	1660.90
802.10	1779.68
802.28	1681.38
802.45	1765.35
802.63	1681.38
802.80	1806.31
802.97	1712.10
803.15	1675.24
803.32	1695.72
803.50	1662.95
803.67	1656.81
803.84	1677.29
804.02	1783.78
804.19	1687.53
804.37	1515.50
804.54	1617.90
804.71	1667.05
804.89	1742.82
805.06	1660.90
805.24	1644.52
805.41	1675.24
805.58	1687.53
805.76	1810.40
805.93	1656.81
806.10	1800.16
806.28	1783.78
806.45	1667.05
806.63	1798.12
806.80	1767.40
806.97	1701.86
807.15	1720.29
807.32	1716.20
807.49	1693.67
807.67	1665.00
807.84	1783.78
808.01	1628.14
808.19	1845.22
808.36	1802.21
808.54	1714.15
808.71	1675.24
808.88	1691.62
809.06	1847.27
809.23	1796.07
809.40	1681.38
809.58	1796.07
809.75	1679.33
809.92	1705.96
810.10	1759.21
810.27	1773.54
810.44	1681.38
810.62	1763.30
810.79	1660.90
810.96	1658.85
811.14	1572.84
811.31	1716.20
811.48	1769.44
811.66	1699.81
811.83	1779.68
812.00	1724.39
812.18	1726.44
812.35	1828.84
812.52	1665.00
812.69	1730.53
812.87	1740.77
813.04	1673.19
813.21	1726.44
813.39	1701.86
813.56	1720.29
813.73	1755.11
813.91	1648.61
814.08	1757.16
814.25	1701.86
814.42	1628.14
814.60	1656.81
814.77	1732.58
814.94	1693.67
815.12	1732.58
815.29	1814.50
815.46	1652.71
815.63	1767.40
815.81	1697.77
815.98	1611.75
816.15	1712.10
816.33	1708.01
816.50	1648.61
816.67	1624.04
816.84	1734.63
817.02	1642.47
817.19	1675.24
817.36	1720.29
817.53	1757.16
817.71	1708.01
817.88	1767.40
818.05	1744.87
818.22	1660.90
818.40	1734.63
818.57	1697.77
818.74	1681.38
818.91	1753.06
819.09	1808.36
819.26	1761.25
819.43	1624.04
819.60	1699.81
819.78	1769.44
819.95	1751.01
820.12	1611.75
820.29	1738.73
820.47	1834.98
820.64	1689.57
820.81	1675.24
820.98	1665.00
821.15	1708.01
821.33	1748.97
821.50	1595.37
821.67	1701.86
821.84	1646.57
822.02	1714.15
822.19	1769.44
822.36	1730.53
822.53	1548.26
822.70	1601.51
822.88	1691.62
823.05	1773.54
823.22	1730.53
823.39	1730.53
823.56	1697.77
823.74	1875.94
823.91	1642.47
824.08	1671.14
824.25	1720.29
824.42	1853.41
824.60	1648.61
824.77	1765.35
824.94	1689.57
825.11	1746.92
825.28	1701.86
825.45	1822.69
825.63	1681.38
825.80	1628.14
825.97	1695.72
826.14	1783.78
826.31	1628.14
826.48	1714.15
826.66	1656.81
826.83	1650.66
827.00	1738.73
827.17	1630.18
827.34	1748.97
827.51	1701.86
827.69	1689.57
827.86	1652.71
828.03	1718.25
828.20	1812.45
828.37	1712.10
828.54	1785.83
828.71	1728.49
828.89	1779.68
829.06	1755.11
829.23	1789.92
829.40	1644.52
829.57	1728.49
829.74	1705.96
829.91	1767.40
830.09	1677.29
830.26	1669.09
830.43	1806.31
830.60	1767.40
830.77	1761.25
830.94	1808.36
831.11	1769.44
831.28	1652.71
831.46	1814.50
831.63	1705.96
831.80	1769.44
831.97	1712.10
832.14	1681.38
832.31	1714.15
832.48	1716.20
832.65	1742.82
832.82	1718.25
832.99	1808.36
833.17	1689.57
833.34	1783.78
833.51	1728.49
833.68	1607.66
833.85	1853.41
834.02	1685.48
834.19	1710.05
834.36	1636.33
834.53	1753.06
834.70	1730.53
834.87	1804.26
835.04	1722.34
835.22	1619.94
835.39	1755.11
835.56	1634.28
835.73	1734.63
835.90	1738.73
836.07	1730.53
836.24	1761.25
836.41	1626.09
836.58	1691.62
836.75	1728.49
836.92	1621.99
837.09	1730.53
837.26	1759.21
837.43	1712.10
837.60	1673.19
837.77	1665.00
837.94	1779.68
838.12	1718.25
838.29	1689.57
838.46	1650.66
838.63	1656.81
838.80	1730.53
838.97	1822.69
839.14	1810.40
839.31	1699.81
839.48	1714.15
839.65	1665.00
839.82	1804.26
839.99	1751.01
840.16	1689.57
840.33	1660.90
840.50	1681.38
840.67	1613.80
840.84	1595.37
841.01	1714.15
841.18	1689.57
841.35	1771.49
841.52	1699.81
841.69	1839.08
841.86	1728.49
842.03	1679.33
842.20	1771.49
842.37	1781.73
842.54	1734.63
842.71	1665.00
842.88	1607.66
843.05	1705.96
843.22	1714.15
843.39	1748.97
843.56	1632.23
843.73	1724.39
843.90	1718.25
844.07	1695.72
844.24	1746.92
844.41	1769.44
844.58	1697.77
844.75	1681.38
844.92	1804.26
845.09	1730.53
845.26	1628.14
845.43	1716.20
845.60	1681.38
845.77	1755.11
845.94	1740.77
846.10	1730.53
846.27	1640.42
846.44	1671.14
846.61	1601.51
846.78	1753.06
846.95	1718.25
847.12	1675.24
847.29	1697.77
847.46	1667.05
847.63	1779.68
847.80	1667.05
847.97	1699.81
848.14	1900.52
848.31	1722.34
848.48	1683.43
848.65	1718.25
848.82	1734.63
848.98	1783.78
849.15	1730.53
849.32	1744.87
849.49	1705.96
849.66	1669.09
849.83	1720.29
850.00	1609.70
850.17	1746.92
850.34	1728.49
850.51	1673.19
850.68	1689.57
850.85	1875.94
851.01	1767.40
851.18	1708.01
851.35	1675.24
851.52	1710.05
851.69	1822.69
851.86	1681.38
852.03	1718.25
852.20	1705.96
852.37	1775.59
852.53	1634.28
852.70	1673.19
852.87	1730.53
853.04	1757.16
853.21	1697.77
853.38	1789.92
853.55	1757.16
853.72	1771.49
853.89	1636.33
854.05	1624.04
854.22	1720.29
854.39	1718.25
854.56	1759.21
854.73	1830.88
854.90	1640.42
855.07	1775.59
855.23	1734.63
855.40	1665.00
855.57	1662.95
855.74	1521.64
855.91	1882.08
856.08	1613.80
856.25	1585.13
856.41	1705.96
856.58	1578.98
856.75	1744.87
856.92	1673.19
857.09	1761.25
857.26	1626.09
857.42	1658.85
857.59	1703.91
857.76	1673.19
857.93	1691.62
858.10	1738.73
858.27	1648.61
858.43	1738.73
858.60	1671.14
858.77	1601.51
858.94	1705.96
859.11	1802.21
859.27	1697.77
859.44	1722.34
859.61	1820.64
859.78	1718.25
859.95	1675.24
860.12	1748.97
860.28	1837.03
860.45	1808.36
860.62	1615.85
860.79	1685.48
860.95	1695.72
861.12	1677.29
861.29	1665.00
861.46	1638.38
861.63	1744.87
861.79	1710.05
861.96	1718.25
862.13	1734.63
862.30	1753.06
862.47	1697.77
862.63	1660.90
862.80	1798.12
862.97	1712.10
863.14	1785.83
863.30	1673.19
863.47	1665.00
863.64	1804.26
863.81	1720.29
863.97	1736.68
864.14	1746.92
864.31	1671.14
864.48	1783.78
864.65	1628.14
864.81	1804.26
864.98	1691.62
865.15	1734.63
865.32	1763.30
865.48	1816.55
865.65	1791.97
865.82	1650.66
865.98	1746.92
866.15	1744.87
866.32	1726.44
866.49	1644.52
866.65	1771.49
866.82	1697.77
866.99	1628.14
867.16	1697.77
867.32	1667.05
867.49	1683.43
867.66	1689.57
867.83	1689.57
867.99	1593.32
868.16	1615.85
868.33	1646.57
868.49	1738.73
868.66	1591.27
868.83	1716.20
868.99	1689.57
869.16	1724.39
869.33	1712.10
869.50	1751.01
869.66	1732.58
869.83	1611.75
870.00	1646.57
870.16	1689.57
870.33	1671.14
870.50	1783.78
870.66	1765.35
870.83	1890.28
871.00	1632.23
871.17	1716.20
871.33	1734.63
871.50	1705.96
871.67	1732.58
871.83	1624.04
872.00	1802.21
872.17	1722.34
872.33	1757.16
872.50	1677.29
872.67	1710.05
872.83	1683.43
873.00	1630.18
873.17	1708.01
873.33	1783.78
873.50	1738.73
873.67	1679.33
873.83	1624.04
874.00	1648.61
874.16	1773.54
874.33	1757.16
874.50	1683.43
874.66	1667.05
874.83	1787.88
875.00	1744.87
875.16	1724.39
875.33	1779.68
875.50	1587.18
875.66	1669.09
875.83	1757.16
875.99	1779.68
876.16	1753.06
876.33	1660.90
876.49	1755.11
876.66	1701.86
876.83	1730.53
876.99	1626.09
877.16	1665.00
877.32	1740.77
877.49	1710.05
877.66	1710.05
877.82	1785.83
877.99	1714.15
878.15	1767.40
878.32	1796.07
878.49	1740.77
878.65	1642.47
878.82	1781.73
878.98	1687.53
879.15	1779.68
879.32	1720.29
879.48	1708.01
879.65	1746.92
879.81	1691.62
879.98	1634.28
880.15	1689.57
880.31	1658.85
880.48	1581.03
880.64	1705.96
880.81	1738.73
880.97	1841.12
881.14	1757.16
881.31	1662.95
881.47	1861.60
881.64	1691.62
881.80	1617.90
881.97	1712.10
882.13	1828.84
882.30	1662.95
882.47	1685.48
882.63	1667.05
882.80	1619.94
882.96	1685.48
883.13	1804.26
883.29	1759.21
883.46	1673.19
883.62	1785.83
883.79	1796.07
883.95	1748.97
884.12	1748.97
884.29	1730.53
884.45	1685.48
884.62	1791.97
884.78	1650.66
884.95	1787.88
885.11	1695.72
885.28	1742.82
885.44	1632.23
885.61	1697.77
885.77	1820.64
885.94	1716.20
886.10	1738.73
886.27	1701.86
886.43	1755.11
886.60	1763.30
886.76	1652.71
886.93	1648.61
887.09	1726.44
887.26	1597.42
887.42	1634.28
887.59	1759.21
887.75	1757.16
887.92	1814.50
888.08	1611.75
888.25	1785.83
888.41	1773.54
888.58	1736.68
888.74	1658.85
888.91	1744.87
>>>>>End Processed Spectral Data<<<<<
