SpectraSuite Data File
++++++++++++++++++++++++++++++++++++
Date: Mon Jun 06 17:03:17 CEST 2016
User: root
Dark Spectrum Present: No
Reference Spectrum Present: No
Number of Sampled Component Spectra: 1
Spectrometers: USB4C02835
Integration Time (usec): 100000 (USB4C02835)
Spectra Averaged: 1 (USB4C02835)
Boxcar Smoothing: 0 (USB4C02835)
Correct for Electrical Dark: No (USB4C02835)
Strobe/Lamp Enabled: No (USB4C02835)
Correct for Detector Non-linearity: No (USB4C02835)
Correct for Stray Light: No (USB4C02835)
Number of Pixels in Processed Spectrum: 3648
>>>>>Begin Processed Spectral Data<<<<<
177.47	1476.59
177.69	1476.59
177.91	1476.59
178.13	1392.62
178.36	1449.96
178.58	1650.66
178.80	1722.34
179.02	1681.38
179.24	1673.19
179.46	1697.77
179.68	1720.29
179.90	1681.38
180.13	1810.40
180.35	1697.77
180.57	1718.25
180.79	1701.86
181.01	1708.01
181.23	1734.63
181.45	1757.16
181.67	1699.81
181.90	1796.07
182.12	1691.62
182.34	1652.71
182.56	1748.97
182.78	1714.15
183.00	1734.63
183.22	1734.63
183.44	1570.79
183.66	1839.08
183.89	1839.08
184.11	1722.34
184.33	1718.25
184.55	1822.69
184.77	1699.81
184.99	1716.20
185.21	1710.05
185.43	1910.75
185.65	1685.48
185.87	1701.86
186.10	1902.56
186.32	1763.30
186.54	1757.16
186.76	1751.01
186.98	1751.01
187.20	1746.92
187.42	1685.48
187.64	1730.53
187.86	1722.34
188.08	1804.26
188.30	1667.05
188.52	1652.71
188.75	1814.50
188.97	1845.22
189.19	1648.61
189.41	1646.57
189.63	1722.34
189.85	1683.43
190.07	1628.14
190.29	1640.42
190.51	1740.77
190.73	1755.11
190.95	1806.31
191.17	1701.86
191.39	1619.94
191.61	1677.29
191.84	1763.30
192.06	1675.24
192.28	1632.23
192.50	1877.99
192.72	1644.52
192.94	1746.92
193.16	1837.03
193.38	1675.24
193.60	1671.14
193.82	1744.87
194.04	1753.06
194.26	1705.96
194.48	1730.53
194.70	1636.33
194.92	1642.47
195.14	1802.21
195.36	1726.44
195.58	1697.77
195.80	1712.10
196.02	1667.05
196.24	1695.72
196.46	1720.29
196.69	1685.48
196.91	1920.99
197.13	1753.06
197.35	1619.94
197.57	1734.63
197.79	1697.77
198.01	1722.34
198.23	1683.43
198.45	1675.24
198.67	1691.62
198.89	1732.58
199.11	1783.78
199.33	1714.15
199.55	1603.56
199.77	1695.72
199.99	1847.27
200.21	1720.29
200.43	1736.68
200.65	1654.76
200.87	1595.37
201.09	1691.62
201.31	1650.66
201.53	1720.29
201.75	1738.73
201.97	1738.73
202.19	1724.39
202.41	1683.43
202.63	1925.09
202.85	1763.30
203.07	1759.21
203.29	1648.61
203.51	1687.53
203.73	1640.42
203.95	1867.75
204.17	1726.44
204.39	1689.57
204.61	1669.09
204.83	1710.05
205.05	1775.59
205.27	1742.82
205.49	1800.16
205.71	1787.88
205.93	1732.58
206.15	1714.15
206.37	1753.06
206.59	1683.43
206.81	1658.85
207.03	1660.90
207.25	1656.81
207.47	1705.96
207.69	1746.92
207.91	1853.41
208.13	1806.31
208.34	1591.27
208.56	1648.61
208.78	1738.73
209.00	1744.87
209.22	1677.29
209.44	1667.05
209.66	1662.95
209.88	1642.47
210.10	1699.81
210.32	1708.01
210.54	1837.03
210.76	1699.81
210.98	1720.29
211.20	1593.32
211.42	1693.67
211.64	1779.68
211.86	1712.10
212.08	1701.86
212.30	1738.73
212.52	1720.29
212.74	1718.25
212.96	1699.81
213.17	1740.77
213.39	1730.53
213.61	1755.11
213.83	1671.14
214.05	1593.32
214.27	1734.63
214.49	1669.09
214.71	1683.43
214.93	1787.88
215.15	1712.10
215.37	1861.60
215.59	1662.95
215.81	1791.97
216.03	1755.11
216.24	1732.58
216.46	1734.63
216.68	1634.28
216.90	1705.96
217.12	1816.55
217.34	1724.39
217.56	1734.63
217.78	1767.40
218.00	1771.49
218.22	1755.11
218.44	1746.92
218.66	1689.57
218.87	1767.40
219.09	1726.44
219.31	1791.97
219.53	1736.68
219.75	1705.96
219.97	1722.34
220.19	1718.25
220.41	1738.73
220.63	1843.17
220.85	1748.97
221.06	1697.77
221.28	1794.02
221.50	1732.58
221.72	1763.30
221.94	1708.01
222.16	1589.22
222.38	1794.02
222.60	1740.77
222.82	1689.57
223.03	1744.87
223.25	1689.57
223.47	1708.01
223.69	1796.07
223.91	1775.59
224.13	1810.40
224.35	1679.33
224.57	1726.44
224.78	1732.58
225.00	1521.64
225.22	1679.33
225.44	1701.86
225.66	1779.68
225.88	1701.86
226.10	1814.50
226.32	1730.53
226.53	1816.55
226.75	1693.67
226.97	1740.77
227.19	1699.81
227.41	1714.15
227.63	1722.34
227.85	1632.23
228.06	1681.38
228.28	1800.16
228.50	1726.44
228.72	1601.51
228.94	1697.77
229.16	1591.27
229.37	1720.29
229.59	1753.06
229.81	1763.30
230.03	1773.54
230.25	1619.94
230.47	1675.24
230.69	1630.18
230.90	1779.68
231.12	1732.58
231.34	1669.09
231.56	1804.26
231.78	1644.52
232.00	1710.05
232.21	1757.16
232.43	1677.29
232.65	1656.81
232.87	1714.15
233.09	1648.61
233.30	1718.25
233.52	1677.29
233.74	1708.01
233.96	1669.09
234.18	1699.81
234.40	1705.96
234.61	1812.45
234.83	1652.71
235.05	1613.80
235.27	1822.69
235.49	1777.64
235.70	1740.77
235.92	1724.39
236.14	1677.29
236.36	1820.64
236.58	1681.38
236.79	1718.25
237.01	1640.42
237.23	1779.68
237.45	1894.37
237.67	1650.66
237.88	1759.21
238.10	1871.84
238.32	1652.71
238.54	1667.05
238.76	1658.85
238.97	1660.90
239.19	1697.77
239.41	1755.11
239.63	1826.79
239.85	1681.38
240.06	1746.92
240.28	1701.86
240.50	1679.33
240.72	1683.43
240.93	1771.49
241.15	1771.49
241.37	1673.19
241.59	1722.34
241.81	1705.96
242.02	1683.43
242.24	1761.25
242.46	1726.44
242.68	1703.91
242.89	1730.53
243.11	1720.29
243.33	1714.15
243.55	1685.48
243.76	1677.29
243.98	1628.14
244.20	1759.21
244.42	1796.07
244.64	1714.15
244.85	1626.09
245.07	1626.09
245.29	1787.88
245.51	1724.39
245.72	1753.06
245.94	1798.12
246.16	1699.81
246.38	1759.21
246.59	1695.72
246.81	1710.05
247.03	1732.58
247.24	1636.33
247.46	1761.25
247.68	1720.29
247.90	1714.15
248.11	1693.67
248.33	1701.86
248.55	1755.11
248.77	1710.05
248.98	1705.96
249.20	1777.64
249.42	1728.49
249.64	1773.54
249.85	1716.20
250.07	1679.33
250.29	1701.86
250.50	1748.97
250.72	1652.71
250.94	1794.02
251.16	1802.21
251.37	1722.34
251.59	1699.81
251.81	1724.39
252.02	1726.44
252.24	1708.01
252.46	1763.30
252.68	1699.81
252.89	1636.33
253.11	1624.04
253.33	1830.88
253.54	1665.00
253.76	1644.52
253.98	1705.96
254.20	1705.96
254.41	1621.99
254.63	1714.15
254.85	1636.33
255.06	1673.19
255.28	1724.39
255.50	1689.57
255.71	1679.33
255.93	1699.81
256.15	1714.15
256.36	1742.82
256.58	1687.53
256.80	1724.39
257.02	1771.49
257.23	1691.62
257.45	1693.67
257.67	1746.92
257.88	1658.85
258.10	1691.62
258.32	1804.26
258.53	1783.78
258.75	1759.21
258.97	1705.96
259.18	1685.48
259.40	1722.34
259.62	1857.51
259.83	1822.69
260.05	1701.86
260.27	1939.43
260.48	1693.67
260.70	1695.72
260.92	1603.56
261.13	1806.31
261.35	1814.50
261.57	1751.01
261.78	1699.81
262.00	1660.90
262.22	1730.53
262.43	1673.19
262.65	1572.84
262.86	1662.95
263.08	1814.50
263.30	1677.29
263.51	1636.33
263.73	1691.62
263.95	1757.16
264.16	1662.95
264.38	1746.92
264.60	1753.06
264.81	1748.97
265.03	1773.54
265.25	1734.63
265.46	1757.16
265.68	1791.97
265.89	1726.44
266.11	1654.76
266.33	1740.77
266.54	1806.31
266.76	1789.92
266.98	1771.49
267.19	1746.92
267.41	1710.05
267.62	1751.01
267.84	1615.85
268.06	1703.91
268.27	1718.25
268.49	1716.20
268.70	1746.92
268.92	1669.09
269.14	1648.61
269.35	1669.09
269.57	1703.91
269.79	1755.11
270.00	1595.37
270.22	1785.83
270.43	1695.72
270.65	1628.14
270.87	1662.95
271.08	1726.44
271.30	1802.21
271.51	1714.15
271.73	1732.58
271.95	1789.92
272.16	1722.34
272.38	1693.67
272.59	1589.22
272.81	1761.25
273.02	1693.67
273.24	1783.78
273.46	1695.72
273.67	1687.53
273.89	1724.39
274.10	1679.33
274.32	1828.84
274.54	1751.01
274.75	1703.91
274.97	1769.44
275.18	1730.53
275.40	1660.90
275.61	1677.29
275.83	1667.05
276.05	1685.48
276.26	1675.24
276.48	1738.73
276.69	1691.62
276.91	1636.33
277.12	1716.20
277.34	1677.29
277.55	1689.57
277.77	1732.58
277.99	1652.71
278.20	1671.14
278.42	1691.62
278.63	1667.05
278.85	1675.24
279.06	1687.53
279.28	1767.40
279.49	1740.77
279.71	1785.83
279.93	1644.52
280.14	1720.29
280.36	1648.61
280.57	1720.29
280.79	1787.88
281.00	1712.10
281.22	1751.01
281.43	1722.34
281.65	1558.50
281.86	1656.81
282.08	1757.16
282.29	1865.70
282.51	1679.33
282.73	1630.18
282.94	1644.52
283.16	1710.05
283.37	1742.82
283.59	1751.01
283.80	1759.21
284.02	1730.53
284.23	1755.11
284.45	1742.82
284.66	1607.66
284.88	1689.57
285.09	1759.21
285.31	1853.41
285.52	1701.86
285.74	1576.94
285.95	1767.40
286.17	1722.34
286.38	1728.49
286.60	1695.72
286.81	1775.59
287.03	1685.48
287.24	1665.00
287.46	1755.11
287.67	1753.06
287.89	1818.60
288.10	1656.81
288.32	1746.92
288.53	1789.92
288.75	1708.01
288.96	1730.53
289.18	1751.01
289.39	1728.49
289.61	1744.87
289.82	1824.74
290.04	1818.60
290.25	1699.81
290.47	1679.33
290.68	1660.90
290.90	1742.82
291.11	1640.42
291.33	1796.07
291.54	1626.09
291.76	1744.87
291.97	1691.62
292.18	1689.57
292.40	1718.25
292.61	1720.29
292.83	1873.89
293.04	1695.72
293.26	1703.91
293.47	1671.14
293.69	1669.09
293.90	1732.58
294.12	1742.82
294.33	1650.66
294.55	1777.64
294.76	1765.35
294.97	1808.36
295.19	1773.54
295.40	1667.05
295.62	1742.82
295.83	1775.59
296.05	1701.86
296.26	1708.01
296.48	1730.53
296.69	1697.77
296.90	1748.97
297.12	1742.82
297.33	1687.53
297.55	1693.67
297.76	1730.53
297.98	1777.64
298.19	1667.05
298.41	1687.53
298.62	1634.28
298.83	1841.12
299.05	1626.09
299.26	1644.52
299.48	1701.86
299.69	1783.78
299.90	1656.81
300.12	1746.92
300.33	1740.77
300.55	1652.71
300.76	1779.68
300.98	1697.77
301.19	1703.91
301.40	1763.30
301.62	1642.47
301.83	1789.92
302.05	1691.62
302.26	1728.49
302.47	1708.01
302.69	1652.71
302.90	1751.01
303.12	1603.56
303.33	1695.72
303.54	1824.74
303.76	1675.24
303.97	1783.78
304.19	1830.88
304.40	1751.01
304.61	1699.81
304.83	1771.49
305.04	1738.73
305.26	1685.48
305.47	1728.49
305.68	1730.53
305.90	1640.42
306.11	1728.49
306.33	1744.87
306.54	1710.05
306.75	1662.95
306.97	1603.56
307.18	1675.24
307.39	1734.63
307.61	1691.62
307.82	1673.19
308.04	1728.49
308.25	1699.81
308.46	1708.01
308.68	1751.01
308.89	1646.57
309.10	1744.87
309.32	1791.97
309.53	1722.34
309.74	1746.92
309.96	1675.24
310.17	1775.59
310.39	1685.48
310.60	1779.68
310.81	1708.01
311.03	1722.34
311.24	1777.64
311.45	1718.25
311.67	1699.81
311.88	1712.10
312.09	1695.72
312.31	1708.01
312.52	1665.00
312.73	1693.67
312.95	1685.48
313.16	1642.47
313.37	1798.12
313.59	1667.05
313.80	1765.35
314.01	1787.88
314.23	1681.38
314.44	1638.38
314.65	1685.48
314.87	1693.67
315.08	1693.67
315.29	1705.96
315.51	1644.52
315.72	1607.66
315.93	1746.92
316.15	1798.12
316.36	1771.49
316.57	1722.34
316.79	1794.02
317.00	1656.81
317.21	1771.49
317.43	1630.18
317.64	1656.81
317.85	1705.96
318.07	1669.09
318.28	1744.87
318.49	1767.40
318.70	1871.84
318.92	1791.97
319.13	1816.55
319.34	1867.75
319.56	1785.83
319.77	1796.07
319.98	1746.92
320.20	1728.49
320.41	1753.06
320.62	1757.16
320.83	1605.61
321.05	1918.95
321.26	1679.33
321.47	1763.30
321.69	1806.31
321.90	1660.90
322.11	1724.39
322.32	1740.77
322.54	1834.98
322.75	1773.54
322.96	1781.73
323.18	1619.94
323.39	1605.61
323.60	1734.63
323.81	1804.26
324.03	1730.53
324.24	1681.38
324.45	1722.34
324.66	1689.57
324.88	1757.16
325.09	1804.26
325.30	1732.58
325.52	1730.53
325.73	1728.49
325.94	1652.71
326.15	1660.90
326.37	1705.96
326.58	1753.06
326.79	1751.01
327.00	1712.10
327.22	1755.11
327.43	1650.66
327.64	1642.47
327.85	1796.07
328.07	1656.81
328.28	1888.23
328.49	1683.43
328.70	1777.64
328.92	1716.20
329.13	1720.29
329.34	1755.11
329.55	1834.98
329.76	1748.97
329.98	1669.09
330.19	1701.86
330.40	1773.54
330.61	1689.57
330.83	1748.97
331.04	1658.85
331.25	1736.68
331.46	1675.24
331.68	1667.05
331.89	1730.53
332.10	1728.49
332.31	1714.15
332.52	1654.76
332.74	1796.07
332.95	1667.05
333.16	1728.49
333.37	1730.53
333.58	1615.85
333.80	1783.78
334.01	1656.81
334.22	1658.85
334.43	1650.66
334.64	1615.85
334.86	1671.14
335.07	1681.38
335.28	1742.82
335.49	1621.99
335.70	1677.29
335.92	1757.16
336.13	1871.84
336.34	1708.01
336.55	1662.95
336.76	1757.16
336.98	1609.70
337.19	1748.97
337.40	1773.54
337.61	1830.88
337.82	1673.19
338.04	1685.48
338.25	1576.94
338.46	1705.96
338.67	1730.53
338.88	1628.14
339.09	1652.71
339.31	1691.62
339.52	1650.66
339.73	1722.34
339.94	1693.67
340.15	1744.87
340.36	1671.14
340.58	1701.86
340.79	1665.00
341.00	1691.62
341.21	1636.33
341.42	1898.47
341.63	1677.29
341.85	1728.49
342.06	1734.63
342.27	1710.05
342.48	1677.29
342.69	1685.48
342.90	1673.19
343.12	1738.73
343.33	1705.96
343.54	1781.73
343.75	1800.16
343.96	1714.15
344.17	1669.09
344.38	1708.01
344.60	1681.38
344.81	1675.24
345.02	1744.87
345.23	1767.40
345.44	1787.88
345.65	1673.19
345.86	1683.43
346.07	1751.01
346.29	1624.04
346.50	1751.01
346.71	1689.57
346.92	1777.64
347.13	1832.93
347.34	1730.53
347.55	1722.34
347.76	1777.64
347.98	1642.47
348.19	1796.07
348.40	1814.50
348.61	1665.00
348.82	1763.30
349.03	1765.35
349.24	1621.99
349.45	1787.88
349.66	1470.44
349.88	1687.53
350.09	1632.23
350.30	1794.02
350.51	1806.31
350.72	1683.43
350.93	1708.01
351.14	1642.47
351.35	1775.59
351.56	1720.29
351.77	1810.40
351.99	1767.40
352.20	1789.92
352.41	1877.99
352.62	1603.56
352.83	1779.68
353.04	1740.77
353.25	1671.14
353.46	1771.49
353.67	1808.36
353.88	1607.66
354.09	1673.19
354.30	1722.34
354.52	1777.64
354.73	1708.01
354.94	1665.00
355.15	1794.02
355.36	1757.16
355.57	1679.33
355.78	1738.73
355.99	1685.48
356.20	1681.38
356.41	1720.29
356.62	1691.62
356.83	1736.68
357.04	1796.07
357.25	1636.33
357.46	1656.81
357.68	1632.23
357.89	1611.75
358.10	1714.15
358.31	1660.90
358.52	1730.53
358.73	1646.57
358.94	1638.38
359.15	1632.23
359.36	1722.34
359.57	1785.83
359.78	1689.57
359.99	1769.44
360.20	1628.14
360.41	1751.01
360.62	1712.10
360.83	1697.77
361.04	1738.73
361.25	1734.63
361.46	1779.68
361.67	1708.01
361.88	1730.53
362.09	1783.78
362.30	1771.49
362.51	1705.96
362.72	1798.12
362.93	1773.54
363.14	1734.63
363.35	1705.96
363.56	1628.14
363.78	1771.49
363.99	1810.40
364.20	1650.66
364.41	1757.16
364.62	1779.68
364.83	1742.82
365.04	1712.10
365.25	1701.86
365.46	1755.11
365.67	1599.46
365.88	1636.33
366.09	1748.97
366.30	1669.09
366.51	1736.68
366.72	1632.23
366.93	1691.62
367.14	1693.67
367.35	1783.78
367.56	1761.25
367.77	1789.92
367.98	1681.38
368.18	1724.39
368.39	1845.22
368.60	1609.70
368.81	1726.44
369.02	1732.58
369.23	1800.16
369.44	1591.27
369.65	1693.67
369.86	1701.86
370.07	1718.25
370.28	1658.85
370.49	1673.19
370.70	1746.92
370.91	1697.77
371.12	1587.18
371.33	1794.02
371.54	1708.01
371.75	1789.92
371.96	1589.22
372.17	1697.77
372.38	1648.61
372.59	1683.43
372.80	1652.71
373.01	1685.48
373.22	1716.20
373.43	1691.62
373.64	1683.43
373.85	1763.30
374.06	1843.17
374.26	1767.40
374.47	1753.06
374.68	1744.87
374.89	1755.11
375.10	1691.62
375.31	1738.73
375.52	1722.34
375.73	1710.05
375.94	1624.04
376.15	1781.73
376.36	1681.38
376.57	1693.67
376.78	1724.39
376.99	1732.58
377.20	1818.60
377.40	1603.56
377.61	1828.84
377.82	1601.51
378.03	1742.82
378.24	1763.30
378.45	1644.52
378.66	1759.21
378.87	1585.13
379.08	1671.14
379.29	1634.28
379.50	1863.65
379.71	1685.48
379.91	1693.67
380.12	1660.90
380.33	1650.66
380.54	1796.07
380.75	1783.78
380.96	1669.09
381.17	1798.12
381.38	1767.40
381.59	1796.07
381.80	1755.11
382.00	1929.19
382.21	1701.86
382.42	1773.54
382.63	1880.04
382.84	1728.49
383.05	1779.68
383.26	1828.84
383.47	1726.44
383.68	1736.68
383.88	1748.97
384.09	1796.07
384.30	1806.31
384.51	1787.88
384.72	1705.96
384.93	1619.94
385.14	1677.29
385.35	1744.87
385.55	1714.15
385.76	1882.08
385.97	1730.53
386.18	1697.77
386.39	1697.77
386.60	1716.20
386.81	1665.00
387.02	1605.61
387.22	1656.81
387.43	1753.06
387.64	1812.45
387.85	1970.15
388.06	2199.52
388.27	4360.13
388.48	6717.34
388.68	8341.38
388.89	9498.48
389.10	9873.26
389.31	8505.21
389.52	7694.22
389.73	6674.33
389.93	6303.65
390.14	5818.28
390.35	5210.03
390.56	4636.60
390.77	3819.46
390.98	3018.71
391.18	2566.10
391.39	2076.64
391.60	1730.53
391.81	1845.22
392.02	1759.21
392.23	1841.12
392.43	1724.39
392.64	1787.88
392.85	1720.29
393.06	1843.17
393.27	1736.68
393.47	1681.38
393.68	1753.06
393.89	1669.09
394.10	1800.16
394.31	1718.25
394.52	1644.52
394.72	1675.24
394.93	1853.41
395.14	1609.70
395.35	1730.53
395.56	1716.20
395.76	1675.24
395.97	1800.16
396.18	1822.69
396.39	1839.08
396.60	2084.83
396.80	1863.65
397.01	1738.73
397.22	1830.88
397.43	1910.75
397.64	1804.26
397.84	1861.60
398.05	1869.80
398.26	1759.21
398.47	1804.26
398.67	1798.12
398.88	1732.58
399.09	1687.53
399.30	1679.33
399.51	1718.25
399.71	1667.05
399.92	1777.64
400.13	1689.57
400.34	1652.71
400.54	1681.38
400.75	1796.07
400.96	1814.50
401.17	1834.98
401.37	1775.59
401.58	1824.74
401.79	1675.24
402.00	1892.32
402.21	2097.12
402.41	1980.39
402.62	1964.00
402.83	2045.92
403.04	1951.71
403.24	2082.78
403.45	1857.51
403.66	1935.33
403.87	1816.55
404.07	1882.08
404.28	1886.18
404.49	1798.12
404.70	1748.97
404.90	1779.68
405.11	1687.53
405.32	1730.53
405.52	1677.29
405.73	1724.39
405.94	1693.67
406.15	1728.49
406.35	1777.64
406.56	1689.57
406.77	1781.73
406.98	1777.64
407.18	1714.15
407.39	1765.35
407.60	1665.00
407.80	1724.39
408.01	1628.14
408.22	1738.73
408.43	1759.21
408.63	1767.40
408.84	1808.36
409.05	1773.54
409.25	1652.71
409.46	1779.68
409.67	1675.24
409.88	1658.85
410.08	1716.20
410.29	1710.05
410.50	1738.73
410.70	1681.38
410.91	1646.57
411.12	1783.78
411.32	1767.40
411.53	1679.33
411.74	1787.88
411.95	1781.73
412.15	1791.97
412.36	1812.45
412.57	1746.92
412.77	1779.68
412.98	1761.25
413.19	1687.53
413.39	1767.40
413.60	1699.81
413.81	1849.32
414.01	1761.25
414.22	1755.11
414.43	1708.01
414.63	1699.81
414.84	1837.03
415.05	1683.43
415.25	1679.33
415.46	1677.29
415.67	1677.29
415.87	1763.30
416.08	1652.71
416.29	1710.05
416.49	1689.57
416.70	1751.01
416.91	1695.72
417.11	1730.53
417.32	1845.22
417.53	1804.26
417.73	1724.39
417.94	1708.01
418.15	1695.72
418.35	1730.53
418.56	1767.40
418.77	1812.45
418.97	1710.05
419.18	1734.63
419.38	1611.75
419.59	1703.91
419.80	1837.03
420.00	1646.57
420.21	1738.73
420.42	1765.35
420.62	1699.81
420.83	1703.91
421.04	1603.56
421.24	1683.43
421.45	1691.62
421.65	1697.77
421.86	1681.38
422.07	1730.53
422.27	1757.16
422.48	1701.86
422.69	1638.38
422.89	1718.25
423.10	1695.72
423.30	1665.00
423.51	1689.57
423.72	1677.29
423.92	1689.57
424.13	1697.77
424.33	1765.35
424.54	1718.25
424.75	1644.52
424.95	1841.12
425.16	1765.35
425.36	1681.38
425.57	1736.68
425.78	1701.86
425.98	1714.15
426.19	1628.14
426.39	1617.90
426.60	1699.81
426.81	1765.35
427.01	1681.38
427.22	1673.19
427.42	1644.52
427.63	1667.05
427.83	1785.83
428.04	1773.54
428.25	1705.96
428.45	1789.92
428.66	1753.06
428.86	1765.35
429.07	1748.97
429.28	1748.97
429.48	1677.29
429.69	1697.77
429.89	1669.09
430.10	1652.71
430.30	1693.67
430.51	1726.44
430.71	1652.71
430.92	1679.33
431.13	1701.86
431.33	1755.11
431.54	1744.87
431.74	1873.89
431.95	1812.45
432.15	1681.38
432.36	1656.81
432.56	1724.39
432.77	1720.29
432.98	1820.64
433.18	1740.77
433.39	1732.58
433.59	1753.06
433.80	1783.78
434.00	1853.41
434.21	1730.53
434.41	1687.53
434.62	1849.32
434.82	1667.05
435.03	1665.00
435.23	1789.92
435.44	1648.61
435.64	1703.91
435.85	1787.88
436.06	1767.40
436.26	1716.20
436.47	1724.39
436.67	1619.94
436.88	1722.34
437.08	1781.73
437.29	1837.03
437.49	1742.82
437.70	1812.45
437.90	1667.05
438.11	1861.60
438.31	1783.78
438.52	1869.80
438.72	1888.23
438.93	1968.10
439.13	1859.56
439.34	1830.88
439.54	1763.30
439.75	1800.16
439.95	1798.12
440.16	1779.68
440.36	1781.73
440.57	1787.88
440.77	1779.68
440.98	1748.97
441.18	1699.81
441.39	1671.14
441.59	1673.19
441.80	1808.36
442.00	1724.39
442.21	1794.02
442.41	1710.05
442.62	1794.02
442.82	1683.43
443.02	1701.86
443.23	1763.30
443.43	1703.91
443.64	1787.88
443.84	1720.29
444.05	1734.63
444.25	1753.06
444.46	1720.29
444.66	1703.91
444.87	1736.68
445.07	1658.85
445.28	1714.15
445.48	1783.78
445.69	1738.73
445.89	1923.04
446.09	1781.73
446.30	2060.26
446.50	2688.98
446.71	3719.11
446.91	4388.80
447.12	4825.01
447.32	4796.34
447.53	4446.14
447.73	3901.38
447.93	3508.17
448.14	3258.32
448.34	3200.98
448.55	2928.60
448.75	2924.50
448.96	2652.12
449.16	2422.75
449.36	2322.40
449.57	2043.87
449.77	1927.14
449.98	1761.25
450.18	1822.69
450.39	1810.40
450.59	1820.64
450.79	1800.16
451.00	1769.44
451.20	1853.41
451.41	1755.11
451.61	1701.86
451.81	1744.87
452.02	1681.38
452.22	1740.77
452.43	1796.07
452.63	1673.19
452.84	1751.01
453.04	1734.63
453.24	1701.86
453.45	1693.67
453.65	1751.01
453.86	1753.06
454.06	1720.29
454.26	1746.92
454.47	1714.15
454.67	1896.42
454.87	1832.93
455.08	1806.31
455.28	1814.50
455.49	1839.08
455.69	1701.86
455.89	1882.08
456.10	1783.78
456.30	1847.27
456.51	1716.20
456.71	1761.25
456.91	1839.08
457.12	1763.30
457.32	1791.97
457.52	1763.30
457.73	1703.91
457.93	1796.07
458.14	1726.44
458.34	1687.53
458.54	1695.72
458.75	1705.96
458.95	1771.49
459.15	1837.03
459.36	1734.63
459.56	1804.26
459.76	1902.56
459.97	1705.96
460.17	1783.78
460.37	1796.07
460.58	1714.15
460.78	1765.35
460.99	1730.53
461.19	1769.44
461.39	1710.05
461.60	1730.53
461.80	1796.07
462.00	1656.81
462.21	1660.90
462.41	1697.77
462.61	1654.76
462.82	1568.74
463.02	1800.16
463.22	1722.34
463.43	1757.16
463.63	1636.33
463.83	1800.16
464.04	1779.68
464.24	1681.38
464.44	1675.24
464.64	1734.63
464.85	1787.88
465.05	1781.73
465.25	1734.63
465.46	1646.57
465.66	1826.79
465.86	1765.35
466.07	1771.49
466.27	1691.62
466.47	1599.46
466.68	1593.32
466.88	1826.79
467.08	1804.26
467.29	1755.11
467.49	1726.44
467.69	1726.44
467.89	1751.01
468.10	1726.44
468.30	1818.60
468.50	1746.92
468.71	1785.83
468.91	1671.14
469.11	1845.22
469.31	1740.77
469.52	1628.14
469.72	1869.80
469.92	1863.65
470.13	1708.01
470.33	1765.35
470.53	1816.55
470.73	2070.50
470.94	2330.59
471.14	2355.16
471.34	2543.58
471.54	2408.41
471.75	2248.67
471.95	2115.55
472.15	2121.70
472.36	2103.26
472.56	2129.89
472.76	2039.78
472.96	1966.05
473.17	1910.75
473.37	1875.94
473.57	1867.75
473.77	1828.84
473.98	1828.84
474.18	1738.73
474.38	1841.12
474.58	1705.96
474.79	1720.29
474.99	1746.92
475.19	1828.84
475.39	1660.90
475.60	1755.11
475.80	1691.62
476.00	1736.68
476.20	1751.01
476.41	1773.54
476.61	1828.84
476.81	1759.21
477.01	1685.48
477.21	1902.56
477.42	1849.32
477.62	1611.75
477.82	1847.27
478.02	1742.82
478.23	1810.40
478.43	1656.81
478.63	1689.57
478.83	1763.30
479.03	1779.68
479.24	1808.36
479.44	1789.92
479.64	1679.33
479.84	1644.52
480.04	1669.09
480.25	1767.40
480.45	1652.71
480.65	1658.85
480.85	1763.30
481.06	1681.38
481.26	1820.64
481.46	1732.58
481.66	1751.01
481.86	1671.14
482.06	1796.07
482.27	1703.91
482.47	1699.81
482.67	1714.15
482.87	1689.57
483.07	1796.07
483.28	1701.86
483.48	1773.54
483.68	1722.34
483.88	1667.05
484.08	1619.94
484.29	1658.85
484.49	1673.19
484.69	1691.62
484.89	1789.92
485.09	1757.16
485.29	1738.73
485.50	1732.58
485.70	1726.44
485.90	1824.74
486.10	1736.68
486.30	1791.97
486.50	1753.06
486.71	1720.29
486.91	1726.44
487.11	1851.36
487.31	1675.24
487.51	1679.33
487.71	1595.37
487.91	1695.72
488.12	1665.00
488.32	1599.46
488.52	1738.73
488.72	1587.18
488.92	1779.68
489.12	1808.36
489.32	1847.27
489.53	1771.49
489.73	1603.56
489.93	1820.64
490.13	1705.96
490.33	1630.18
490.53	1714.15
490.73	1822.69
490.94	1716.20
491.14	1787.88
491.34	1867.75
491.54	2068.45
491.74	2574.30
491.94	2934.74
492.14	3127.25
492.34	3028.95
492.54	2736.09
492.75	2508.76
492.95	2471.90
493.15	2291.68
493.35	2310.11
493.55	2242.53
493.75	2207.71
493.95	2050.02
494.15	2000.87
494.35	1927.14
494.56	1808.36
494.76	1839.08
494.96	1753.06
495.16	1791.97
495.36	1714.15
495.56	1783.78
495.76	1687.53
495.96	1681.38
496.16	1650.66
496.36	1824.74
496.56	1691.62
496.77	1775.59
496.97	1710.05
497.17	1837.03
497.37	1718.25
497.57	1724.39
497.77	1740.77
497.97	1658.85
498.17	1736.68
498.37	1757.16
498.57	1746.92
498.77	1689.57
498.97	1785.83
499.17	1863.65
499.38	1689.57
499.58	1800.16
499.78	1800.16
499.98	1869.80
500.18	1728.49
500.38	1751.01
500.58	1882.08
500.78	2443.23
500.98	4431.80
501.18	5834.66
501.38	6856.60
501.58	7106.45
501.78	6647.71
501.98	5752.74
502.18	5003.19
502.38	4462.52
502.58	4128.70
502.78	3835.85
502.98	3680.20
503.18	3456.97
503.38	3305.42
503.59	2840.53
503.79	2625.50
503.99	2582.49
504.19	2211.81
504.39	2197.47
504.59	2117.60
504.79	2162.66
504.99	2033.63
505.19	1871.84
505.39	1884.13
505.59	2000.87
505.79	1904.61
505.99	1880.04
506.19	1830.88
506.39	1898.47
506.59	1857.51
506.79	1769.44
506.99	1751.01
507.19	1753.06
507.39	1796.07
507.59	1624.04
507.79	1710.05
507.99	1718.25
508.19	1708.01
508.39	1724.39
508.59	1777.64
508.79	1837.03
508.99	1871.84
509.19	1705.96
509.39	1781.73
509.59	1720.29
509.79	1763.30
509.99	1742.82
510.19	1863.65
510.39	1779.68
510.59	1771.49
510.79	1705.96
510.99	1708.01
511.19	1726.44
511.39	1763.30
511.59	1718.25
511.79	1730.53
511.99	1767.40
512.19	1886.18
512.38	1718.25
512.58	1744.87
512.78	1673.19
512.98	1777.64
513.18	1783.78
513.38	1671.14
513.58	1849.32
513.78	1714.15
513.98	1675.24
514.18	1755.11
514.38	1763.30
514.58	1718.25
514.78	1683.43
514.98	1732.58
515.18	1746.92
515.38	1695.72
515.58	1822.69
515.78	1720.29
515.98	1787.88
516.18	1705.96
516.38	1724.39
516.57	1710.05
516.77	1695.72
516.97	1775.59
517.17	1662.95
517.37	1699.81
517.57	1861.60
517.77	1767.40
517.97	1658.85
518.17	1773.54
518.37	1673.19
518.57	1691.62
518.77	1718.25
518.97	1710.05
519.16	1759.21
519.36	1865.70
519.56	1679.33
519.76	1763.30
519.96	1732.58
520.16	1812.45
520.36	1732.58
520.56	1812.45
520.76	1703.91
520.96	1720.29
521.16	1798.12
521.35	1787.88
521.55	1869.80
521.75	1660.90
521.95	1742.82
522.15	1714.15
522.35	1675.24
522.55	1693.67
522.75	1765.35
522.95	1769.44
523.14	1656.81
523.34	1701.86
523.54	1681.38
523.74	1763.30
523.94	1804.26
524.14	1759.21
524.34	1736.68
524.54	1796.07
524.73	1736.68
524.93	1791.97
525.13	1765.35
525.33	1640.42
525.53	1925.09
525.73	1714.15
525.93	1843.17
526.13	1677.29
526.32	1675.24
526.52	1808.36
526.72	1791.97
526.92	1740.77
527.12	1710.05
527.32	1636.33
527.52	1789.92
527.71	1697.77
527.91	1705.96
528.11	1718.25
528.31	1665.00
528.51	1701.86
528.71	1837.03
528.90	1759.21
529.10	1816.55
529.30	1820.64
529.50	1685.48
529.70	1665.00
529.90	1783.78
530.09	1726.44
530.29	1636.33
530.49	1761.25
530.69	1904.61
530.89	1777.64
531.09	1863.65
531.28	1734.63
531.48	1738.73
531.68	1720.29
531.88	1787.88
532.08	1798.12
532.28	1722.34
532.47	1773.54
532.67	1769.44
532.87	1763.30
533.07	1691.62
533.27	1800.16
533.46	1777.64
533.66	1732.58
533.86	1732.58
534.06	1636.33
534.26	1689.57
534.45	1675.24
534.65	1742.82
534.85	1769.44
535.05	1677.29
535.25	1759.21
535.44	1687.53
535.64	1726.44
535.84	1751.01
536.04	1734.63
536.24	1714.15
536.43	1757.16
536.63	1732.58
536.83	1712.10
537.03	1763.30
537.22	1650.66
537.42	1634.28
537.62	1781.73
537.82	1701.86
538.02	1773.54
538.21	1779.68
538.41	1882.08
538.61	1767.40
538.81	1646.57
539.00	1837.03
539.20	1609.70
539.40	1718.25
539.60	1839.08
539.79	1783.78
539.99	1736.68
540.19	1703.91
540.39	1652.71
540.58	1789.92
540.78	1808.36
540.98	1705.96
541.18	1861.60
541.37	1853.41
541.57	1794.02
541.77	1751.01
541.97	1732.58
542.16	1683.43
542.36	1761.25
542.56	1697.77
542.76	1834.98
542.95	1814.50
543.15	1804.26
543.35	1751.01
543.54	1665.00
543.74	1722.34
543.94	1734.63
544.14	1714.15
544.33	1701.86
544.53	1728.49
544.73	1718.25
544.93	1665.00
545.12	1767.40
545.32	1742.82
545.52	1773.54
545.71	1701.86
545.91	1703.91
546.11	1728.49
546.30	1699.81
546.50	1718.25
546.70	1820.64
546.90	1761.25
547.09	1712.10
547.29	1685.48
547.49	1832.93
547.68	1863.65
547.88	1763.30
548.08	1761.25
548.27	2242.53
548.47	1716.20
548.67	1681.38
548.87	1740.77
549.06	1796.07
549.26	1781.73
549.46	1779.68
549.65	1738.73
549.85	1757.16
550.05	1716.20
550.24	1683.43
550.44	1734.63
550.64	1687.53
550.83	1699.81
551.03	1810.40
551.23	1830.88
551.42	1796.07
551.62	1708.01
551.82	1779.68
552.01	1726.44
552.21	1845.22
552.41	1734.63
552.60	1824.74
552.80	1814.50
553.00	1781.73
553.19	1791.97
553.39	1863.65
553.59	1701.86
553.78	1800.16
553.98	1769.44
554.17	1671.14
554.37	1849.32
554.57	1816.55
554.76	1669.09
554.96	1701.86
555.16	1656.81
555.35	1753.06
555.55	1779.68
555.75	1779.68
555.94	1804.26
556.14	1705.96
556.33	1755.11
556.53	1755.11
556.73	1806.31
556.92	1722.34
557.12	1806.31
557.32	1865.70
557.51	1849.32
557.71	1761.25
557.90	1798.12
558.10	1871.84
558.30	1716.20
558.49	1763.30
558.69	1806.31
558.88	1791.97
559.08	1675.24
559.28	1697.77
559.47	1820.64
559.67	1814.50
559.86	1824.74
560.06	1757.16
560.26	1751.01
560.45	1738.73
560.65	1779.68
560.84	1816.55
561.04	1679.33
561.24	1757.16
561.43	1656.81
561.63	1933.28
561.82	1728.49
562.02	1814.50
562.22	1757.16
562.41	1638.38
562.61	1753.06
562.80	1640.42
563.00	1900.52
563.19	1761.25
563.39	1773.54
563.59	1781.73
563.78	1699.81
563.98	1636.33
564.17	1691.62
564.37	1691.62
564.56	1705.96
564.76	1734.63
564.96	1857.51
565.15	1697.77
565.35	1837.03
565.54	1652.71
565.74	1812.45
565.93	1722.34
566.13	1837.03
566.32	1738.73
566.52	1804.26
566.71	1703.91
566.91	1787.88
567.11	1759.21
567.30	1687.53
567.50	1767.40
567.69	1748.97
567.89	1718.25
568.08	1767.40
568.28	1753.06
568.47	1615.85
568.67	1800.16
568.86	1714.15
569.06	1779.68
569.25	1748.97
569.45	1716.20
569.64	1673.19
569.84	1796.07
570.04	1738.73
570.23	1712.10
570.43	1703.91
570.62	1796.07
570.82	1822.69
571.01	1683.43
571.21	1757.16
571.40	1681.38
571.60	1783.78
571.79	1775.59
571.99	1841.12
572.18	1652.71
572.38	1757.16
572.57	1722.34
572.77	1769.44
572.96	1898.47
573.16	1755.11
573.35	1818.60
573.55	1837.03
573.74	1824.74
573.94	1708.01
574.13	1613.80
574.33	1779.68
574.52	1841.12
574.71	1814.50
574.91	1732.58
575.10	1691.62
575.30	1732.58
575.49	1718.25
575.69	1671.14
575.88	1742.82
576.08	1740.77
576.27	1730.53
576.47	1748.97
576.66	1900.52
576.86	1824.74
577.05	1689.57
577.25	1759.21
577.44	1886.18
577.64	1652.71
577.83	1832.93
578.02	1736.68
578.22	1822.69
578.41	1804.26
578.61	1773.54
578.80	1712.10
579.00	1738.73
579.19	1732.58
579.39	1697.77
579.58	1841.12
579.77	1734.63
579.97	1843.17
580.16	1865.70
580.36	1867.75
580.55	1724.39
580.75	1746.92
580.94	1722.34
581.13	1783.78
581.33	1871.84
581.52	1705.96
581.72	1941.47
581.91	1832.93
582.11	1728.49
582.30	1781.73
582.49	1734.63
582.69	1890.28
582.88	1828.84
583.08	1890.28
583.27	1814.50
583.47	1798.12
583.66	1703.91
583.85	1763.30
584.05	1708.01
584.24	1769.44
584.44	1810.40
584.63	1834.98
584.82	1869.80
585.02	1841.12
585.21	1794.02
585.41	1787.88
585.60	1912.80
585.79	1918.95
585.99	1902.56
586.18	1890.28
586.37	2211.81
586.57	3358.67
586.76	9809.77
586.96	24856.20
587.15	34465.27
587.34	41051.53
587.54	42272.12
587.73	36943.31
587.93	26275.44
588.12	21556.92
588.31	18360.04
588.51	16355.08
588.70	15200.02
588.89	14155.56
589.09	12777.28
589.28	11077.46
589.47	9432.94
589.67	7970.69
589.86	6481.82
590.06	4890.55
590.25	3837.89
590.44	3057.62
590.64	2617.30
590.83	2189.28
591.02	2113.50
591.22	1931.23
591.41	1900.52
591.60	1814.50
591.80	1966.05
591.99	1728.49
592.18	1767.40
592.38	1884.13
592.57	1804.26
592.76	1724.39
592.96	1748.97
593.15	1826.79
593.34	1810.40
593.54	1740.77
593.73	1763.30
593.92	1804.26
594.12	1779.68
594.31	1759.21
594.50	1826.79
594.70	1763.30
594.89	1888.23
595.08	1765.35
595.28	1718.25
595.47	2043.87
595.66	1744.87
595.86	1787.88
596.05	1728.49
596.24	1718.25
596.43	1847.27
596.63	1820.64
596.82	1740.77
597.01	1748.97
597.21	1959.91
597.40	1787.88
597.59	1699.81
597.79	1701.86
597.98	1775.59
598.17	1783.78
598.36	1763.30
598.56	1777.64
598.75	1665.00
598.94	1822.69
599.14	1757.16
599.33	1716.20
599.52	1775.59
599.71	1791.97
599.91	1816.55
600.10	1855.46
600.29	1812.45
600.48	1816.55
600.68	1693.67
600.87	1798.12
601.06	1753.06
601.26	1757.16
601.45	1687.53
601.64	1744.87
601.83	1886.18
602.03	1691.62
602.22	1681.38
602.41	1814.50
602.60	1812.45
602.80	1753.06
602.99	1712.10
603.18	1693.67
603.37	1765.35
603.57	1738.73
603.76	1744.87
603.95	1787.88
604.14	1722.34
604.34	1732.58
604.53	1681.38
604.72	1734.63
604.91	1794.02
605.10	1804.26
605.30	1566.70
605.49	1812.45
605.68	1787.88
605.87	1832.93
606.07	1634.28
606.26	1781.73
606.45	1716.20
606.64	1769.44
606.84	1703.91
607.03	1738.73
607.22	1740.77
607.41	1679.33
607.60	1705.96
607.80	1722.34
607.99	1708.01
608.18	1740.77
608.37	1636.33
608.56	1748.97
608.76	1816.55
608.95	1789.92
609.14	1785.83
609.33	1781.73
609.52	1781.73
609.72	1716.20
609.91	1855.46
610.10	1669.09
610.29	1794.02
610.48	1761.25
610.68	1722.34
610.87	1734.63
611.06	1685.48
611.25	1820.64
611.44	1818.60
611.63	1658.85
611.83	1832.93
612.02	1675.24
612.21	1763.30
612.40	1626.09
612.59	1701.86
612.79	1765.35
612.98	1753.06
613.17	1828.84
613.36	1748.97
613.55	1832.93
613.74	1708.01
613.93	1683.43
614.13	1701.86
614.32	1683.43
614.51	1804.26
614.70	1740.77
614.89	1656.81
615.08	1726.44
615.28	2023.39
615.47	1730.53
615.66	1714.15
615.85	1798.12
616.04	1787.88
616.23	1714.15
616.42	1763.30
616.62	1753.06
616.81	1820.64
617.00	1695.72
617.19	1787.88
617.38	1660.90
617.57	1732.58
617.76	1769.44
617.95	1624.04
618.15	1718.25
618.34	1802.21
618.53	1640.42
618.72	1759.21
618.91	1859.56
619.10	1765.35
619.29	1726.44
619.48	1724.39
619.68	1738.73
619.87	1677.29
620.06	1689.57
620.25	1724.39
620.44	1728.49
620.63	1767.40
620.82	1814.50
621.01	1794.02
621.20	1751.01
621.39	1779.68
621.59	1734.63
621.78	1673.19
621.97	1689.57
622.16	1742.82
622.35	1830.88
622.54	1767.40
622.73	1781.73
622.92	1654.76
623.11	1794.02
623.30	1683.43
623.49	1787.88
623.68	1675.24
623.88	1785.83
624.07	1718.25
624.26	1679.33
624.45	1763.30
624.64	1662.95
624.83	1722.34
625.02	1761.25
625.21	1718.25
625.40	1697.77
625.59	1791.97
625.78	1804.26
625.97	1828.84
626.16	1734.63
626.35	1716.20
626.54	1748.97
626.74	1806.31
626.93	1767.40
627.12	1716.20
627.31	1753.06
627.50	1783.78
627.69	1779.68
627.88	1771.49
628.07	1693.67
628.26	1652.71
628.45	1763.30
628.64	1667.05
628.83	1701.86
629.02	1708.01
629.21	1693.67
629.40	1710.05
629.59	1695.72
629.78	1652.71
629.97	1742.82
630.16	1695.72
630.35	1726.44
630.54	1705.96
630.73	1656.81
630.92	1746.92
631.11	1720.29
631.30	1845.22
631.49	1669.09
631.68	1691.62
631.87	1755.11
632.06	1689.57
632.25	1863.65
632.44	1775.59
632.63	1675.24
632.82	1656.81
633.01	1658.85
633.20	1773.54
633.39	1685.48
633.58	1650.66
633.77	1708.01
633.96	1796.07
634.15	1732.58
634.34	1757.16
634.53	1697.77
634.72	1708.01
634.91	1650.66
635.10	1753.06
635.29	1845.22
635.48	1714.15
635.67	1673.19
635.86	1595.37
636.05	1783.78
636.24	1787.88
636.43	1710.05
636.62	1751.01
636.81	1605.61
637.00	1691.62
637.19	1787.88
637.38	1736.68
637.57	1714.15
637.76	1697.77
637.95	1730.53
638.14	1714.15
638.33	1755.11
638.52	1720.29
638.71	1691.62
638.89	1638.38
639.08	1875.94
639.27	1763.30
639.46	1765.35
639.65	1865.70
639.84	1740.77
640.03	1791.97
640.22	1634.28
640.41	1853.41
640.60	1691.62
640.79	1769.44
640.98	1665.00
641.17	1785.83
641.36	1714.15
641.55	1730.53
641.74	1636.33
641.92	1679.33
642.11	1587.18
642.30	1691.62
642.49	1691.62
642.68	1742.82
642.87	1720.29
643.06	1767.40
643.25	1667.05
643.44	1646.57
643.63	1703.91
643.82	1837.03
644.00	1654.76
644.19	1767.40
644.38	1603.56
644.57	1724.39
644.76	1751.01
644.95	1746.92
645.14	1697.77
645.33	1714.15
645.52	1726.44
645.71	1675.24
645.89	1734.63
646.08	1671.14
646.27	1677.29
646.46	1853.41
646.65	1607.66
646.84	1718.25
647.03	1718.25
647.22	1837.03
647.40	1826.79
647.59	1689.57
647.78	1687.53
647.97	1697.77
648.16	1671.14
648.35	1818.60
648.54	1783.78
648.73	1757.16
648.91	1695.72
649.10	1712.10
649.29	1710.05
649.48	1691.62
649.67	1730.53
649.86	1740.77
650.05	1716.20
650.23	1726.44
650.42	1701.86
650.61	1773.54
650.80	1818.60
650.99	1810.40
651.18	1806.31
651.36	1742.82
651.55	1673.19
651.74	1740.77
651.93	1656.81
652.12	1695.72
652.31	1783.78
652.49	1751.01
652.68	1761.25
652.87	1785.83
653.06	1787.88
653.25	1751.01
653.44	1675.24
653.62	1794.02
653.81	1746.92
654.00	1734.63
654.19	1761.25
654.38	1904.61
654.56	1720.29
654.75	1697.77
654.94	1744.87
655.13	1712.10
655.32	1683.43
655.51	1769.44
655.69	1697.77
655.88	1787.88
656.07	1716.20
656.26	1779.68
656.45	1720.29
656.63	1710.05
656.82	1781.73
657.01	1796.07
657.20	1665.00
657.38	1765.35
657.57	1697.77
657.76	1607.66
657.95	1759.21
658.14	1714.15
658.32	1662.95
658.51	1619.94
658.70	1705.96
658.89	1726.44
659.08	1791.97
659.26	1767.40
659.45	1681.38
659.64	1685.48
659.83	1652.71
660.01	1976.29
660.20	1841.12
660.39	1845.22
660.58	1660.90
660.76	1841.12
660.95	1617.90
661.14	1740.77
661.33	1636.33
661.51	1660.90
661.70	1628.14
661.89	1712.10
662.08	1656.81
662.26	1757.16
662.45	1755.11
662.64	1781.73
662.83	1798.12
663.01	1667.05
663.20	1695.72
663.39	1751.01
663.58	1669.09
663.76	1701.86
663.95	1796.07
664.14	1656.81
664.32	1730.53
664.51	1632.23
664.70	1576.94
664.89	1746.92
665.07	1607.66
665.26	1820.64
665.45	1695.72
665.64	1746.92
665.82	1662.95
666.01	1837.03
666.20	1652.71
666.38	1837.03
666.57	1767.40
666.76	2226.14
666.95	4513.72
667.13	10501.98
667.32	15382.29
667.51	18089.71
667.69	19015.39
667.88	17667.83
668.07	12445.51
668.25	9660.27
668.44	8152.96
668.63	7350.16
668.81	6971.29
669.00	6348.70
669.19	5789.61
669.38	5177.26
669.56	4536.25
669.75	4073.41
669.94	3446.73
670.12	2928.60
670.31	2578.39
670.50	2222.05
670.68	2035.68
670.87	1964.00
671.06	1853.41
671.24	1746.92
671.43	1861.60
671.62	1689.57
671.80	1613.80
671.99	1673.19
672.18	1767.40
672.36	1718.25
672.55	1748.97
672.74	1714.15
672.92	1705.96
673.11	1757.16
673.29	1646.57
673.48	1785.83
673.67	1693.67
673.85	1722.34
674.04	1714.15
674.23	1787.88
674.41	1781.73
674.60	1634.28
674.79	1689.57
674.97	1632.23
675.16	1726.44
675.34	1738.73
675.53	1765.35
675.72	1789.92
675.90	1869.80
676.09	1667.05
676.28	1734.63
676.46	1593.32
676.65	1751.01
676.83	1634.28
677.02	1673.19
677.21	1791.97
677.39	1722.34
677.58	1673.19
677.77	1740.77
677.95	1705.96
678.14	1720.29
678.32	1714.15
678.51	1695.72
678.70	1845.22
678.88	1636.33
679.07	1734.63
679.25	1791.97
679.44	1701.86
679.63	1705.96
679.81	1701.86
680.00	1761.25
680.18	1785.83
680.37	1814.50
680.55	1746.92
680.74	1595.37
680.93	1615.85
681.11	1734.63
681.30	1759.21
681.48	1718.25
681.67	1720.29
681.85	1767.40
682.04	1671.14
682.23	1736.68
682.41	1738.73
682.60	1701.86
682.78	1720.29
682.97	1681.38
683.15	1705.96
683.34	1726.44
683.53	1884.13
683.71	1640.42
683.90	1804.26
684.08	1791.97
684.27	1687.53
684.45	1779.68
684.64	1800.16
684.82	1662.95
685.01	1710.05
685.19	1753.06
685.38	1765.35
685.57	1679.33
685.75	1619.94
685.94	1677.29
686.12	1599.46
686.31	1689.57
686.49	1812.45
686.68	1638.38
686.86	1701.86
687.05	1691.62
687.23	1902.56
687.42	1722.34
687.60	1636.33
687.79	1808.36
687.97	1783.78
688.16	1841.12
688.34	1826.79
688.53	1636.33
688.71	1730.53
688.90	1798.12
689.08	1705.96
689.27	1630.18
689.45	1738.73
689.64	1753.06
689.82	1742.82
690.01	1730.53
690.19	1736.68
690.38	1728.49
690.56	1777.64
690.75	1746.92
690.93	1703.91
691.12	1665.00
691.30	1691.62
691.49	1619.94
691.67	1710.05
691.86	1796.07
692.04	1685.48
692.23	1732.58
692.41	1648.61
692.60	1851.36
692.78	1812.45
692.97	1724.39
693.15	1726.44
693.34	1853.41
693.52	1683.43
693.71	1685.48
693.89	1697.77
694.08	1621.99
694.26	1708.01
694.44	1724.39
694.63	1794.02
694.81	1714.15
695.00	1683.43
695.18	1800.16
695.37	1789.92
695.55	1763.30
695.74	1699.81
695.92	1630.18
696.10	1734.63
696.29	1546.22
696.47	1710.05
696.66	1677.29
696.84	1691.62
697.03	1662.95
697.21	1880.04
697.40	2310.11
697.58	1787.88
697.76	1708.01
697.95	1712.10
698.13	1609.70
698.32	1703.91
698.50	1722.34
698.68	1755.11
698.87	1720.29
699.05	1806.31
699.24	1687.53
699.42	1619.94
699.61	1734.63
699.79	1759.21
699.97	1691.62
700.16	1626.09
700.34	1757.16
700.53	1798.12
700.71	1832.93
700.89	1779.68
701.08	1677.29
701.26	1628.14
701.45	2105.31
701.63	1697.77
701.81	1759.21
702.00	1683.43
702.18	1695.72
702.37	1626.09
702.55	1726.44
702.73	1763.30
702.92	1630.18
703.10	1777.64
703.28	1726.44
703.47	1662.95
703.65	1773.54
703.84	1740.77
704.02	1640.42
704.20	1744.87
704.39	1595.37
704.57	1673.19
704.75	1751.01
704.94	1800.16
705.12	1734.63
705.30	1810.40
705.49	2193.37
705.67	4423.61
705.86	9250.67
706.04	12613.44
706.22	14454.56
706.41	15263.51
706.59	13891.37
706.77	9695.08
706.96	7350.16
707.14	6688.67
707.32	5978.02
707.51	5681.07
707.69	4863.93
707.87	4239.30
708.06	3547.08
708.24	3057.62
708.42	2531.29
708.61	2228.19
708.79	1914.85
708.97	1837.03
709.16	1753.06
709.34	1734.63
709.52	1734.63
709.71	1832.93
709.89	1779.68
710.07	1656.81
710.26	1677.29
710.44	1705.96
710.62	1722.34
710.80	1722.34
710.99	1781.73
711.17	1757.16
711.35	1683.43
711.54	1667.05
711.72	1708.01
711.90	1773.54
712.09	1677.29
712.27	1746.92
712.45	1781.73
712.63	1765.35
712.82	1726.44
713.00	1650.66
713.18	1746.92
713.37	1791.97
713.55	1765.35
713.73	1796.07
713.91	1730.53
714.10	1646.57
714.28	1765.35
714.46	1820.64
714.65	1761.25
714.83	1669.09
715.01	1757.16
715.19	1673.19
715.38	1667.05
715.56	1746.92
715.74	1626.09
715.92	1730.53
716.11	1798.12
716.29	1626.09
716.47	1765.35
716.65	1740.77
716.84	1611.75
717.02	1708.01
717.20	1652.71
717.38	1636.33
717.57	1798.12
717.75	1716.20
717.93	1742.82
718.11	1681.38
718.30	1615.85
718.48	1767.40
718.66	1767.40
718.84	1796.07
719.03	1667.05
719.21	1708.01
719.39	1820.64
719.57	1765.35
719.75	1755.11
719.94	1665.00
720.12	1712.10
720.30	1779.68
720.48	1712.10
720.67	1695.72
720.85	1669.09
721.03	1732.58
721.21	1615.85
721.39	1820.64
721.58	1708.01
721.76	1716.20
721.94	1773.54
722.12	1751.01
722.30	1800.16
722.49	1671.14
722.67	1732.58
722.85	1769.44
723.03	1699.81
723.21	1628.14
723.40	1619.94
723.58	1767.40
723.76	1726.44
723.94	1705.96
724.12	1648.61
724.30	1775.59
724.49	1710.05
724.67	1624.04
724.85	1789.92
725.03	1724.39
725.21	1732.58
725.40	1775.59
725.58	1636.33
725.76	1732.58
725.94	1740.77
726.12	1644.52
726.30	1681.38
726.49	1794.02
726.67	1689.57
726.85	1687.53
727.03	1804.26
727.21	2236.38
727.39	2912.21
727.57	3903.43
727.76	4302.78
727.94	4630.46
728.12	4485.05
728.30	3760.07
728.48	3100.62
728.66	2738.13
728.84	2500.57
729.03	2353.12
729.21	2226.14
729.39	1953.76
729.57	1865.70
729.75	1779.68
729.93	1841.12
730.11	1730.53
730.30	1751.01
730.48	1701.86
730.66	1802.21
730.84	1769.44
731.02	1642.47
731.20	1673.19
731.38	1710.05
731.56	1671.14
731.74	1697.77
731.93	1751.01
732.11	1724.39
732.29	1714.15
732.47	1769.44
732.65	1753.06
732.83	1828.84
733.01	1738.73
733.19	1601.51
733.37	1822.69
733.56	1751.01
733.74	1691.62
733.92	1718.25
734.10	1730.53
734.28	1771.49
734.46	1595.37
734.64	1720.29
734.82	1636.33
735.00	1714.15
735.18	1802.21
735.36	1742.82
735.54	1746.92
735.73	1763.30
735.91	1800.16
736.09	1746.92
736.27	1755.11
736.45	1773.54
736.63	1546.22
736.81	1671.14
736.99	1804.26
737.17	1787.88
737.35	1708.01
737.53	1687.53
737.71	1697.77
737.89	1738.73
738.07	1710.05
738.25	1712.10
738.43	1601.51
738.61	1740.77
738.80	1714.15
738.98	1648.61
739.16	1679.33
739.34	1746.92
739.52	1800.16
739.70	1681.38
739.88	1730.53
740.06	1736.68
740.24	1617.90
740.42	1816.55
740.60	1548.26
740.78	1658.85
740.96	1656.81
741.14	1640.42
741.32	1800.16
741.50	1677.29
741.68	1798.12
741.86	1818.60
742.04	1671.14
742.22	1658.85
742.40	1710.05
742.58	1736.68
742.76	1634.28
742.94	1781.73
743.12	1624.04
743.30	1693.67
743.48	1675.24
743.66	1714.15
743.84	1826.79
744.02	1679.33
744.20	1689.57
744.38	1644.52
744.56	1650.66
744.74	1814.50
744.92	1796.07
745.10	1804.26
745.28	1755.11
745.46	1800.16
745.64	1683.43
745.82	1753.06
746.00	1634.28
746.18	1734.63
746.36	1705.96
746.54	1734.63
746.72	1710.05
746.90	1748.97
747.08	1779.68
747.26	1660.90
747.44	1812.45
747.62	1748.97
747.80	1710.05
747.98	1794.02
748.15	1722.34
748.33	1761.25
748.51	1779.68
748.69	1773.54
748.87	1705.96
749.05	1665.00
749.23	1714.15
749.41	1738.73
749.59	1691.62
749.77	1804.26
749.95	1679.33
750.13	1654.76
750.31	1738.73
750.49	1632.23
750.67	1728.49
750.85	1820.64
751.03	1705.96
751.20	1806.31
751.38	1693.67
751.56	1675.24
751.74	1730.53
751.92	1726.44
752.10	1724.39
752.28	1812.45
752.46	1642.47
752.64	1724.39
752.82	1685.48
753.00	1775.59
753.18	1726.44
753.35	1673.19
753.53	1689.57
753.71	1650.66
753.89	1712.10
754.07	1769.44
754.25	1744.87
754.43	1718.25
754.61	1714.15
754.79	1697.77
754.97	1714.15
755.14	1777.64
755.32	1611.75
755.50	1777.64
755.68	1605.61
755.86	1638.38
756.04	1691.62
756.22	1603.56
756.40	1802.21
756.57	1818.60
756.75	1730.53
756.93	1710.05
757.11	1755.11
757.29	1660.90
757.47	1656.81
757.65	1714.15
757.82	1517.54
758.00	1689.57
758.18	1685.48
758.36	1736.68
758.54	1814.50
758.72	1650.66
758.90	1714.15
759.07	1675.24
759.25	1673.19
759.43	1765.35
759.61	1699.81
759.79	2150.37
759.97	1771.49
760.15	1730.53
760.32	1744.87
760.50	1742.82
760.68	1789.92
760.86	1615.85
761.04	1798.12
761.22	1746.92
761.39	1824.74
761.57	1744.87
761.75	1673.19
761.93	1765.35
762.11	1746.92
762.28	1718.25
762.46	1736.68
762.64	1691.62
762.82	1665.00
763.00	1710.05
763.18	1785.83
763.35	1665.00
763.53	1779.68
763.71	1734.63
763.89	1718.25
764.07	1701.86
764.24	1714.15
764.42	1724.39
764.60	1660.90
764.78	1685.48
764.96	1812.45
765.13	1761.25
765.31	1712.10
765.49	1816.55
765.67	1708.01
765.84	1689.57
766.02	1648.61
766.20	1576.94
766.38	1673.19
766.56	1779.68
766.73	1693.67
766.91	1779.68
767.09	1699.81
767.27	1701.86
767.44	1644.52
767.62	1665.00
767.80	1734.63
767.98	1595.37
768.15	1648.61
768.33	1693.67
768.51	1720.29
768.69	1738.73
768.87	1765.35
769.04	1794.02
769.22	1812.45
769.40	1859.56
769.58	1849.32
769.75	1763.30
769.93	1716.20
770.11	1710.05
770.28	1646.57
770.46	1808.36
770.64	1738.73
770.82	1736.68
770.99	1685.48
771.17	1767.40
771.35	1722.34
771.53	1753.06
771.70	1734.63
771.88	1714.15
772.06	1689.57
772.23	1746.92
772.41	1703.91
772.59	1654.76
772.77	1615.85
772.94	1738.73
773.12	1712.10
773.30	1677.29
773.47	1736.68
773.65	1652.71
773.83	1781.73
774.01	1669.09
774.18	1624.04
774.36	1724.39
774.54	1636.33
774.71	1718.25
774.89	1568.74
775.07	1570.79
775.24	1687.53
775.42	1730.53
775.60	1787.88
775.78	1726.44
775.95	1632.23
776.13	1621.99
776.31	1662.95
776.48	1775.59
776.66	1804.26
776.84	1718.25
777.01	1624.04
777.19	1642.47
777.37	1705.96
777.54	1783.78
777.72	1781.73
777.90	1705.96
778.07	1673.19
778.25	1855.46
778.43	1828.84
778.60	1738.73
778.78	1732.58
778.96	1826.79
779.13	1644.52
779.31	1824.74
779.49	1679.33
779.66	1746.92
779.84	1658.85
780.01	1675.24
780.19	1646.57
780.37	1787.88
780.54	1738.73
780.72	1636.33
780.90	1665.00
781.07	1773.54
781.25	1697.77
781.43	1742.82
781.60	1658.85
781.78	1740.77
781.95	1660.90
782.13	1736.68
782.31	1708.01
782.48	1652.71
782.66	1687.53
782.83	1890.28
783.01	1703.91
783.19	1787.88
783.36	1621.99
783.54	1642.47
783.72	1748.97
783.89	1714.15
784.07	1757.16
784.24	1769.44
784.42	1783.78
784.60	1712.10
784.77	1742.82
784.95	1677.29
785.12	1667.05
785.30	1748.97
785.47	1722.34
785.65	1650.66
785.83	1660.90
786.00	1697.77
786.18	1779.68
786.35	1644.52
786.53	1624.04
786.71	1818.60
786.88	1736.68
787.06	1708.01
787.23	1714.15
787.41	1665.00
787.58	1628.14
787.76	1650.66
787.94	1759.21
788.11	1744.87
788.29	1667.05
788.46	1710.05
788.64	1689.57
788.81	1714.15
788.99	1675.24
789.16	1640.42
789.34	1763.30
789.52	1658.85
789.69	1712.10
789.87	1550.31
790.04	1693.67
790.22	1779.68
790.39	1841.12
790.57	1685.48
790.74	1660.90
790.92	1712.10
791.09	1609.70
791.27	1669.09
791.44	1763.30
791.62	1703.91
791.79	1841.12
791.97	1716.20
792.15	1810.40
792.32	1689.57
792.50	1761.25
792.67	1785.83
792.85	1808.36
793.02	1740.77
793.20	1675.24
793.37	1624.04
793.55	1703.91
793.72	1718.25
793.90	1746.92
794.07	1726.44
794.25	1642.47
794.42	1722.34
794.60	1720.29
794.77	1701.86
794.95	1714.15
795.12	1800.16
795.30	1740.77
795.47	1515.50
795.65	1849.32
795.82	1738.73
796.00	1708.01
796.17	1716.20
796.34	1695.72
796.52	1777.64
796.69	1724.39
796.87	1656.81
797.04	1738.73
797.22	1767.40
797.39	1685.48
797.57	1734.63
797.74	1753.06
797.92	1718.25
798.09	1613.80
798.27	1794.02
798.44	1570.79
798.62	1607.66
798.79	1777.64
798.96	1744.87
799.14	1746.92
799.31	1837.03
799.49	1761.25
799.66	1705.96
799.84	1701.86
800.01	1648.61
800.19	1677.29
800.36	1583.08
800.53	1720.29
800.71	1742.82
800.88	1755.11
801.06	1718.25
801.23	1646.57
801.41	1619.94
801.58	1673.19
801.75	1699.81
801.93	1732.58
802.10	1708.01
802.28	1687.53
802.45	1638.38
802.63	1718.25
802.80	1759.21
802.97	1619.94
803.15	1710.05
803.32	1658.85
803.50	1640.42
803.67	1720.29
803.84	1654.76
804.02	1689.57
804.19	1712.10
804.37	1535.98
804.54	1650.66
804.71	1677.29
804.89	1716.20
805.06	1675.24
805.24	1615.85
805.41	1716.20
805.58	1615.85
805.76	1886.18
805.93	1720.29
806.10	1820.64
806.28	1720.29
806.45	1730.53
806.63	1701.86
806.80	1708.01
806.97	1662.95
807.15	1689.57
807.32	1697.77
807.49	1712.10
807.67	1636.33
807.84	1687.53
808.01	1636.33
808.19	1816.55
808.36	1748.97
808.54	1679.33
808.71	1671.14
808.88	1708.01
809.06	1734.63
809.23	1777.64
809.40	1699.81
809.58	1730.53
809.75	1683.43
809.92	1699.81
810.10	1873.89
810.27	1791.97
810.44	1644.52
810.62	1843.17
810.79	1714.15
810.96	1755.11
811.14	1662.95
811.31	1714.15
811.48	1724.39
811.66	1765.35
811.83	1783.78
812.00	1806.31
812.18	1748.97
812.35	1939.43
812.52	1751.01
812.69	1630.18
812.87	1710.05
813.04	1621.99
813.21	1665.00
813.39	1718.25
813.56	1658.85
813.73	1708.01
813.91	1583.08
814.08	1701.86
814.25	1656.81
814.42	1669.09
814.60	1669.09
814.77	1720.29
814.94	1728.49
815.12	1703.91
815.29	1810.40
815.46	1607.66
815.63	1798.12
815.81	1683.43
815.98	1746.92
816.15	1703.91
816.33	1714.15
816.50	1703.91
816.67	1689.57
816.84	1658.85
817.02	1630.18
817.19	1628.14
817.36	1791.97
817.53	1740.77
817.71	1677.29
817.88	1751.01
818.05	1665.00
818.22	1714.15
818.40	1800.16
818.57	1601.51
818.74	1765.35
818.91	1685.48
819.09	1767.40
819.26	1828.84
819.43	1726.44
819.60	1662.95
819.78	1724.39
819.95	1853.41
820.12	1638.38
820.29	1783.78
820.47	1732.58
820.64	1646.57
820.81	1560.55
820.98	1665.00
821.15	1554.41
821.33	1787.88
821.50	1662.95
821.67	1734.63
821.84	1767.40
822.02	1791.97
822.19	1802.21
822.36	1679.33
822.53	1703.91
822.70	1654.76
822.88	1771.49
823.05	1769.44
823.22	1744.87
823.39	1703.91
823.56	1697.77
823.74	1746.92
823.91	1673.19
824.08	1652.71
824.25	1697.77
824.42	1810.40
824.60	1669.09
824.77	1769.44
824.94	1710.05
825.11	1712.10
825.28	1621.99
825.45	1695.72
825.63	1630.18
825.80	1665.00
825.97	1703.91
826.14	1708.01
826.31	1621.99
826.48	1718.25
826.66	1626.09
826.83	1656.81
827.00	1710.05
827.17	1576.94
827.34	1648.61
827.51	1644.52
827.69	1679.33
827.86	1595.37
828.03	1673.19
828.20	1658.85
828.37	1701.86
828.54	1773.54
828.71	1564.65
828.89	1740.77
829.06	1654.76
829.23	1789.92
829.40	1595.37
829.57	1665.00
829.74	1740.77
829.91	1710.05
830.09	1708.01
830.26	1724.39
830.43	1761.25
830.60	1685.48
830.77	1734.63
830.94	1775.59
831.11	1722.34
831.28	1636.33
831.46	1759.21
831.63	1687.53
831.80	1722.34
831.97	1695.72
832.14	1648.61
832.31	1714.15
832.48	1695.72
832.65	1841.12
832.82	1710.05
832.99	1742.82
833.17	1650.66
833.34	1773.54
833.51	1763.30
833.68	1626.09
833.85	1837.03
834.02	1634.28
834.19	1658.85
834.36	1675.24
834.53	1708.01
834.70	1720.29
834.87	1777.64
835.04	1662.95
835.22	1736.68
835.39	1730.53
835.56	1648.61
835.73	1652.71
835.90	1710.05
836.07	1705.96
836.24	1718.25
836.41	1591.27
836.58	1687.53
836.75	1804.26
836.92	1720.29
837.09	1699.81
837.26	1712.10
837.43	1761.25
837.60	1757.16
837.77	1697.77
837.94	1744.87
838.12	1771.49
838.29	1697.77
838.46	1665.00
838.63	1603.56
838.80	1814.50
838.97	1757.16
839.14	1673.19
839.31	1665.00
839.48	1691.62
839.65	1646.57
839.82	1722.34
839.99	1724.39
840.16	1648.61
840.33	1740.77
840.50	1716.20
840.67	1691.62
840.84	1578.98
841.01	1654.76
841.18	1753.06
841.35	1681.38
841.52	1759.21
841.69	1810.40
841.86	1718.25
842.03	1734.63
842.20	1755.11
842.37	1736.68
842.54	1675.24
842.71	1714.15
842.88	1607.66
843.05	1798.12
843.22	1640.42
843.39	1748.97
843.56	1755.11
843.73	1775.59
843.90	1679.33
844.07	1650.66
844.24	1734.63
844.41	1708.01
844.58	1718.25
844.75	1701.86
844.92	1708.01
845.09	1685.48
845.26	1609.70
845.43	1705.96
845.60	1701.86
845.77	1697.77
845.94	1769.44
846.10	1757.16
846.27	1626.09
846.44	1765.35
846.61	1636.33
846.78	1728.49
846.95	1730.53
847.12	1726.44
847.29	1712.10
847.46	1642.47
847.63	1691.62
847.80	1665.00
847.97	1660.90
848.14	1816.55
848.31	1665.00
848.48	1621.99
848.65	1734.63
848.82	1665.00
848.98	1824.74
849.15	1759.21
849.32	1767.40
849.49	1804.26
849.66	1738.73
849.83	1753.06
850.00	1601.51
850.17	1763.30
850.34	1652.71
850.51	1691.62
850.68	1648.61
850.85	1826.79
851.01	1777.64
851.18	1681.38
851.35	1771.49
851.52	1773.54
851.69	1804.26
851.86	1626.09
852.03	1708.01
852.20	1753.06
852.37	1632.23
852.53	1632.23
852.70	1636.33
852.87	1718.25
853.04	1765.35
853.21	1681.38
853.38	1710.05
853.55	1826.79
853.72	1834.98
853.89	1611.75
854.05	1705.96
854.22	1693.67
854.39	1665.00
854.56	1681.38
854.73	1798.12
854.90	1701.86
855.07	1710.05
855.23	1705.96
855.40	1662.95
855.57	1703.91
855.74	1587.18
855.91	1843.17
856.08	1626.09
856.25	1611.75
856.41	1669.09
856.58	1656.81
856.75	1710.05
856.92	1589.22
857.09	1771.49
857.26	1650.66
857.42	1689.57
857.59	1728.49
857.76	1611.75
857.93	1718.25
858.10	1736.68
858.27	1675.24
858.43	1689.57
858.60	1673.19
858.77	1626.09
858.94	1734.63
859.11	1837.03
859.27	1699.81
859.44	1683.43
859.61	1816.55
859.78	1718.25
859.95	1724.39
860.12	1638.38
860.28	1834.98
860.45	1763.30
860.62	1693.67
860.79	1718.25
860.95	1665.00
861.12	1683.43
861.29	1621.99
861.46	1726.44
861.63	1705.96
861.79	1699.81
861.96	1695.72
862.13	1796.07
862.30	1783.78
862.47	1656.81
862.63	1716.20
862.80	1755.11
862.97	1726.44
863.14	1685.48
863.30	1669.09
863.47	1650.66
863.64	1785.83
863.81	1683.43
863.97	1697.77
864.14	1751.01
864.31	1689.57
864.48	1773.54
864.65	1671.14
864.81	1757.16
864.98	1763.30
865.15	1714.15
865.32	1810.40
865.48	1726.44
865.65	1791.97
865.82	1689.57
865.98	1746.92
866.15	1773.54
866.32	1683.43
866.49	1712.10
866.65	1808.36
866.82	1656.81
866.99	1748.97
867.16	1710.05
867.32	1650.66
867.49	1732.58
867.66	1677.29
867.83	1697.77
867.99	1613.80
868.16	1617.90
868.33	1669.09
868.49	1740.77
868.66	1708.01
868.83	1810.40
868.99	1755.11
869.16	1708.01
869.33	1761.25
869.50	1699.81
869.66	1691.62
869.83	1724.39
870.00	1626.09
870.16	1708.01
870.33	1673.19
870.50	1714.15
870.66	1695.72
870.83	1802.21
871.00	1675.24
871.17	1697.77
871.33	1787.88
871.50	1738.73
871.67	1652.71
871.83	1759.21
872.00	1806.31
872.17	1699.81
872.33	1783.78
872.50	1781.73
872.67	1708.01
872.83	1677.29
873.00	1779.68
873.17	1722.34
873.33	1703.91
873.50	1718.25
873.67	1714.15
873.83	1714.15
874.00	1705.96
874.16	1734.63
874.33	1732.58
874.50	1675.24
874.66	1742.82
874.83	1722.34
875.00	1724.39
875.16	1787.88
875.33	1757.16
875.50	1609.70
875.66	1718.25
875.83	1738.73
875.99	1746.92
876.16	1652.71
876.33	1591.27
876.49	1765.35
876.66	1775.59
876.83	1611.75
876.99	1646.57
877.16	1671.14
877.32	1673.19
877.49	1722.34
877.66	1720.29
877.82	1875.94
877.99	1695.72
878.15	1798.12
878.32	1808.36
878.49	1726.44
878.65	1609.70
878.82	1794.02
878.98	1611.75
879.15	1751.01
879.32	1683.43
879.48	1722.34
879.65	1742.82
879.81	1642.47
879.98	1644.52
880.15	1708.01
880.31	1642.47
880.48	1683.43
880.64	1701.86
880.81	1759.21
880.97	1812.45
881.14	1796.07
881.31	1638.38
881.47	1789.92
881.64	1683.43
881.80	1615.85
881.97	1742.82
882.13	1751.01
882.30	1681.38
882.47	1660.90
882.63	1705.96
882.80	1695.72
882.96	1671.14
883.13	1730.53
883.29	1697.77
883.46	1751.01
883.62	1814.50
883.79	1662.95
883.95	1712.10
884.12	1667.05
884.29	1748.97
884.45	1699.81
884.62	1769.44
884.78	1667.05
884.95	1812.45
885.11	1669.09
885.28	1716.20
885.44	1724.39
885.61	1738.73
885.77	1794.02
885.94	1759.21
886.10	1669.09
886.27	1624.04
886.43	1820.64
886.60	1757.16
886.76	1656.81
886.93	1650.66
887.09	1718.25
887.26	1656.81
887.42	1722.34
887.59	1785.83
887.75	1816.55
887.92	1800.16
888.08	1732.58
888.25	1800.16
888.41	1734.63
888.58	1751.01
888.74	1570.79
888.91	1687.53
>>>>>End Processed Spectral Data<<<<<
