SpectraSuite Data File
++++++++++++++++++++++++++++++++++++
Date: Mon Jun 06 12:52:17 CEST 2016
User: root
Dark Spectrum Present: No
Reference Spectrum Present: No
Number of Sampled Component Spectra: 1
Spectrometers: USB4C02835
Integration Time (usec): 100000 (USB4C02835)
Spectra Averaged: 1 (USB4C02835)
Boxcar Smoothing: 0 (USB4C02835)
Correct for Electrical Dark: No (USB4C02835)
Strobe/Lamp Enabled: No (USB4C02835)
Correct for Detector Non-linearity: No (USB4C02835)
Correct for Stray Light: No (USB4C02835)
Number of Pixels in Processed Spectrum: 3648
>>>>>Begin Processed Spectral Data<<<<<
177.47	1503.21
177.69	1503.21
177.91	1503.21
178.13	1460.20
178.36	1445.87
178.58	1652.71
178.80	1744.87
179.02	1705.96
179.24	1597.42
179.46	1697.77
179.68	1683.43
179.90	1669.09
180.13	1679.33
180.35	1660.90
180.57	1730.53
180.79	1755.11
181.01	1755.11
181.23	1789.92
181.45	1806.31
181.67	1716.20
181.90	1761.25
182.12	1638.38
182.34	1693.67
182.56	1802.21
182.78	1679.33
183.00	1699.81
183.22	1689.57
183.44	1640.42
183.66	1808.36
183.89	1742.82
184.11	1759.21
184.33	1746.92
184.55	1800.16
184.77	1677.29
184.99	1703.91
185.21	1710.05
185.43	1804.26
185.65	1697.77
185.87	1728.49
186.10	1777.64
186.32	1824.74
186.54	1701.86
186.76	1742.82
186.98	1740.77
187.20	1724.39
187.42	1691.62
187.64	1693.67
187.86	1734.63
188.08	1755.11
188.30	1601.51
188.52	1669.09
188.75	1773.54
188.97	1796.07
189.19	1650.66
189.41	1689.57
189.63	1718.25
189.85	1673.19
190.07	1662.95
190.29	1650.66
190.51	1726.44
190.73	1591.27
190.95	1824.74
191.17	1681.38
191.39	1652.71
191.61	1685.48
191.84	1705.96
192.06	1736.68
192.28	1632.23
192.50	1845.22
192.72	1779.68
192.94	1736.68
193.16	1808.36
193.38	1656.81
193.60	1615.85
193.82	1669.09
194.04	1783.78
194.26	1689.57
194.48	1710.05
194.70	1701.86
194.92	1685.48
195.14	1734.63
195.36	1652.71
195.58	1693.67
195.80	1720.29
196.02	1714.15
196.24	1708.01
196.46	1683.43
196.69	1585.13
196.91	1859.56
197.13	1617.90
197.35	1691.62
197.57	1802.21
197.79	1740.77
198.01	1656.81
198.23	1665.00
198.45	1724.39
198.67	1681.38
198.89	1705.96
199.11	1730.53
199.33	1705.96
199.55	1593.32
199.77	1675.24
199.99	1832.93
200.21	1609.70
200.43	1673.19
200.65	1595.37
200.87	1609.70
201.09	1726.44
201.31	1681.38
201.53	1689.57
201.75	1724.39
201.97	1716.20
202.19	1718.25
202.41	1730.53
202.63	1851.36
202.85	1818.60
203.07	1699.81
203.29	1658.85
203.51	1708.01
203.73	1703.91
203.95	1826.79
204.17	1703.91
204.39	1728.49
204.61	1742.82
204.83	1771.49
205.05	1728.49
205.27	1681.38
205.49	1736.68
205.71	1728.49
205.93	1691.62
206.15	1671.14
206.37	1718.25
206.59	1681.38
206.81	1587.18
207.03	1585.13
207.25	1626.09
207.47	1785.83
207.69	1726.44
207.91	1718.25
208.13	1712.10
208.34	1685.48
208.56	1705.96
208.78	1654.76
209.00	1720.29
209.22	1681.38
209.44	1681.38
209.66	1615.85
209.88	1748.97
210.10	1730.53
210.32	1685.48
210.54	1765.35
210.76	1689.57
210.98	1785.83
211.20	1632.23
211.42	1771.49
211.64	1775.59
211.86	1753.06
212.08	1796.07
212.30	1654.76
212.52	1656.81
212.74	1667.05
212.96	1730.53
213.17	1701.86
213.39	1705.96
213.61	1775.59
213.83	1689.57
214.05	1640.42
214.27	1734.63
214.49	1630.18
214.71	1671.14
214.93	1759.21
215.15	1767.40
215.37	1740.77
215.59	1603.56
215.81	1777.64
216.03	1767.40
216.24	1742.82
216.46	1628.14
216.68	1726.44
216.90	1738.73
217.12	1773.54
217.34	1701.86
217.56	1650.66
217.78	1818.60
218.00	1744.87
218.22	1697.77
218.44	1761.25
218.66	1728.49
218.87	1757.16
219.09	1685.48
219.31	1705.96
219.53	1617.90
219.75	1636.33
219.97	1683.43
220.19	1751.01
220.41	1726.44
220.63	1636.33
220.85	1716.20
221.06	1720.29
221.28	1810.40
221.50	1746.92
221.72	1685.48
221.94	1699.81
222.16	1673.19
222.38	1746.92
222.60	1783.78
222.82	1677.29
223.03	1724.39
223.25	1632.23
223.47	1728.49
223.69	1798.12
223.91	1757.16
224.13	1705.96
224.35	1640.42
224.57	1675.24
224.78	1699.81
225.00	1583.08
225.22	1656.81
225.44	1710.05
225.66	1689.57
225.88	1681.38
226.10	1736.68
226.32	1642.47
226.53	1814.50
226.75	1660.90
226.97	1671.14
227.19	1783.78
227.41	1642.47
227.63	1640.42
227.85	1546.22
228.06	1753.06
228.28	1718.25
228.50	1783.78
228.72	1654.76
228.94	1654.76
229.16	1679.33
229.37	1662.95
229.59	1665.00
229.81	1753.06
230.03	1630.18
230.25	1578.98
230.47	1640.42
230.69	1558.50
230.90	1675.24
231.12	1667.05
231.34	1748.97
231.56	1726.44
231.78	1613.80
232.00	1742.82
232.21	1697.77
232.43	1630.18
232.65	1587.18
232.87	1773.54
233.09	1683.43
233.30	1665.00
233.52	1669.09
233.74	1746.92
233.96	1658.85
234.18	1683.43
234.40	1740.77
234.61	1796.07
234.83	1605.61
235.05	1660.90
235.27	1822.69
235.49	1832.93
235.70	1736.68
235.92	1820.64
236.14	1650.66
236.36	1777.64
236.58	1640.42
236.79	1779.68
237.01	1679.33
237.23	1748.97
237.45	1820.64
237.67	1695.72
237.88	1763.30
238.10	1753.06
238.32	1681.38
238.54	1712.10
238.76	1681.38
238.97	1660.90
239.19	1642.47
239.41	1728.49
239.63	1771.49
239.85	1681.38
240.06	1714.15
240.28	1740.77
240.50	1757.16
240.72	1738.73
240.93	1665.00
241.15	1767.40
241.37	1687.53
241.59	1808.36
241.81	1658.85
242.02	1658.85
242.24	1699.81
242.46	1746.92
242.68	1675.24
242.89	1718.25
243.11	1728.49
243.33	1742.82
243.55	1716.20
243.76	1816.55
243.98	1646.57
244.20	1615.85
244.42	1693.67
244.64	1665.00
244.85	1646.57
245.07	1626.09
245.29	1748.97
245.51	1751.01
245.72	1689.57
245.94	1751.01
246.16	1679.33
246.38	1767.40
246.59	1689.57
246.81	1697.77
247.03	1681.38
247.24	1660.90
247.46	1665.00
247.68	1722.34
247.90	1691.62
248.11	1701.86
248.33	1757.16
248.55	1611.75
248.77	1689.57
248.98	1740.77
249.20	1800.16
249.42	1699.81
249.64	1701.86
249.85	1667.05
250.07	1624.04
250.29	1777.64
250.50	1736.68
250.72	1671.14
250.94	1779.68
251.16	1806.31
251.37	1722.34
251.59	1734.63
251.81	1757.16
252.02	1763.30
252.24	1675.24
252.46	1716.20
252.68	1644.52
252.89	1697.77
253.11	1705.96
253.33	1820.64
253.54	1722.34
253.76	1650.66
253.98	1677.29
254.20	1703.91
254.41	1624.04
254.63	1746.92
254.85	1636.33
255.06	1662.95
255.28	1662.95
255.50	1685.48
255.71	1687.53
255.93	1581.03
256.15	1662.95
256.36	1689.57
256.58	1646.57
256.80	1667.05
257.02	1703.91
257.23	1751.01
257.45	1654.76
257.67	1765.35
257.88	1697.77
258.10	1789.92
258.32	1691.62
258.53	1748.97
258.75	1783.78
258.97	1617.90
259.18	1748.97
259.40	1732.58
259.62	1781.73
259.83	1748.97
260.05	1718.25
260.27	2011.11
260.48	1767.40
260.70	1673.19
260.92	1689.57
261.13	1763.30
261.35	1722.34
261.57	1724.39
261.78	1599.46
262.00	1640.42
262.22	1697.77
262.43	1652.71
262.65	1681.38
262.86	1783.78
263.08	1802.21
263.30	1753.06
263.51	1634.28
263.73	1720.29
263.95	1796.07
264.16	1667.05
264.38	1644.52
264.60	1720.29
264.81	1669.09
265.03	1746.92
265.25	1708.01
265.46	1740.77
265.68	1736.68
265.89	1685.48
266.11	1619.94
266.33	1691.62
266.54	1691.62
266.76	1783.78
266.98	1662.95
267.19	1812.45
267.41	1779.68
267.62	1767.40
267.84	1685.48
268.06	1730.53
268.27	1718.25
268.49	1816.55
268.70	1744.87
268.92	1656.81
269.14	1611.75
269.35	1683.43
269.57	1695.72
269.79	1734.63
270.00	1705.96
270.22	1873.89
270.43	1636.33
270.65	1626.09
270.87	1740.77
271.08	1720.29
271.30	1714.15
271.51	1665.00
271.73	1683.43
271.95	1843.17
272.16	1705.96
272.38	1791.97
272.59	1636.33
272.81	1724.39
273.02	1755.11
273.24	1826.79
273.46	1755.11
273.67	1552.36
273.89	1718.25
274.10	1587.18
274.32	1693.67
274.54	1738.73
274.75	1703.91
274.97	1658.85
275.18	1746.92
275.40	1681.38
275.61	1767.40
275.83	1667.05
276.05	1591.27
276.26	1703.91
276.48	1769.44
276.69	1665.00
276.91	1677.29
277.12	1671.14
277.34	1683.43
277.55	1755.11
277.77	1695.72
277.99	1703.91
278.20	1640.42
278.42	1626.09
278.63	1617.90
278.85	1656.81
279.06	1654.76
279.28	1667.05
279.49	1724.39
279.71	1697.77
279.93	1744.87
280.14	1673.19
280.36	1691.62
280.57	1720.29
280.79	1816.55
281.00	1656.81
281.22	1660.90
281.43	1822.69
281.65	1626.09
281.86	1628.14
282.08	1703.91
282.29	1775.59
282.51	1644.52
282.73	1671.14
282.94	1611.75
283.16	1765.35
283.37	1857.51
283.59	1746.92
283.80	1742.82
284.02	1638.38
284.23	1714.15
284.45	1685.48
284.66	1617.90
284.88	1695.72
285.09	1671.14
285.31	1705.96
285.52	1736.68
285.74	1599.46
285.95	1699.81
286.17	1767.40
286.38	1802.21
286.60	1703.91
286.81	1673.19
287.03	1630.18
287.24	1669.09
287.46	1800.16
287.67	1728.49
287.89	1814.50
288.10	1650.66
288.32	1728.49
288.53	1767.40
288.75	1718.25
288.96	1714.15
289.18	1640.42
289.39	1773.54
289.61	1738.73
289.82	1816.55
290.04	1816.55
290.25	1621.99
290.47	1714.15
290.68	1640.42
290.90	1763.30
291.11	1646.57
291.33	1712.10
291.54	1599.46
291.76	1708.01
291.97	1781.73
292.18	1755.11
292.40	1673.19
292.61	1665.00
292.83	1769.44
293.04	1769.44
293.26	1722.34
293.47	1671.14
293.69	1722.34
293.90	1732.58
294.12	1779.68
294.33	1736.68
294.55	1665.00
294.76	1732.58
294.97	1773.54
295.19	1765.35
295.40	1658.85
295.62	1771.49
295.83	1767.40
296.05	1660.90
296.26	1705.96
296.48	1640.42
296.69	1693.67
296.90	1740.77
297.12	1732.58
297.33	1808.36
297.55	1669.09
297.76	1726.44
297.98	1636.33
298.19	1665.00
298.41	1695.72
298.62	1656.81
298.83	1822.69
299.05	1681.38
299.26	1662.95
299.48	1669.09
299.69	1695.72
299.90	1796.07
300.12	1601.51
300.33	1777.64
300.55	1673.19
300.76	1683.43
300.98	1615.85
301.19	1759.21
301.40	1701.86
301.62	1595.37
301.83	1839.08
302.05	1708.01
302.26	1757.16
302.47	1695.72
302.69	1574.89
302.90	1730.53
303.12	1632.23
303.33	1736.68
303.54	1820.64
303.76	1691.62
303.97	1720.29
304.19	1783.78
304.40	1628.14
304.61	1759.21
304.83	1718.25
305.04	1763.30
305.26	1783.78
305.47	1640.42
305.68	1644.52
305.90	1615.85
306.11	1720.29
306.33	1656.81
306.54	1673.19
306.75	1683.43
306.97	1640.42
307.18	1665.00
307.39	1689.57
307.61	1726.44
307.82	1648.61
308.04	1787.88
308.25	1693.67
308.46	1708.01
308.68	1638.38
308.89	1677.29
309.10	1724.39
309.32	1771.49
309.53	1689.57
309.74	1742.82
309.96	1681.38
310.17	1763.30
310.39	1714.15
310.60	1751.01
310.81	1718.25
311.03	1685.48
311.24	1660.90
311.45	1673.19
311.67	1804.26
311.88	1714.15
312.09	1624.04
312.31	1640.42
312.52	1769.44
312.73	1679.33
312.95	1763.30
313.16	1699.81
313.37	1787.88
313.59	1783.78
313.80	1798.12
314.01	1738.73
314.23	1708.01
314.44	1632.23
314.65	1644.52
314.87	1626.09
315.08	1648.61
315.29	1720.29
315.51	1615.85
315.72	1601.51
315.93	1853.41
316.15	1724.39
316.36	1636.33
316.57	1689.57
316.79	1609.70
317.00	1710.05
317.21	1742.82
317.43	1601.51
317.64	1660.90
317.85	1685.48
318.07	1689.57
318.28	1744.87
318.49	1818.60
318.70	1904.61
318.92	1787.88
319.13	1820.64
319.34	1830.88
319.56	1818.60
319.77	1708.01
319.98	1712.10
320.20	1832.93
320.41	1814.50
320.62	1791.97
320.83	1705.96
321.05	1857.51
321.26	1755.11
321.47	1677.29
321.69	1779.68
321.90	1691.62
322.11	1660.90
322.32	1642.47
322.54	1742.82
322.75	1722.34
322.96	1851.36
323.18	1607.66
323.39	1548.26
323.60	1691.62
323.81	1714.15
324.03	1648.61
324.24	1703.91
324.45	1708.01
324.66	1687.53
324.88	1636.33
325.09	1789.92
325.30	1695.72
325.52	1738.73
325.73	1695.72
325.94	1660.90
326.15	1615.85
326.37	1699.81
326.58	1722.34
326.79	1712.10
327.00	1705.96
327.22	1689.57
327.43	1609.70
327.64	1673.19
327.85	1638.38
328.07	1710.05
328.28	1830.88
328.49	1632.23
328.70	1652.71
328.92	1705.96
329.13	1626.09
329.34	1773.54
329.55	1810.40
329.76	1720.29
329.98	1652.71
330.19	1791.97
330.40	1738.73
330.61	1679.33
330.83	1783.78
331.04	1667.05
331.25	1751.01
331.46	1716.20
331.68	1624.04
331.89	1798.12
332.10	1705.96
332.31	1572.84
332.52	1611.75
332.74	1767.40
332.95	1605.61
333.16	1726.44
333.37	1775.59
333.58	1667.05
333.80	1687.53
334.01	1693.67
334.22	1648.61
334.43	1695.72
334.64	1724.39
334.86	1570.79
335.07	1705.96
335.28	1732.58
335.49	1669.09
335.70	1736.68
335.92	1742.82
336.13	1861.60
336.34	1751.01
336.55	1689.57
336.76	1634.28
336.98	1621.99
337.19	1734.63
337.40	1804.26
337.61	1849.32
337.82	1613.80
338.04	1806.31
338.25	1605.61
338.46	1597.42
338.67	1705.96
338.88	1642.47
339.09	1646.57
339.31	1624.04
339.52	1615.85
339.73	1671.14
339.94	1691.62
340.15	1675.24
340.36	1681.38
340.58	1712.10
340.79	1665.00
341.00	1658.85
341.21	1617.90
341.42	1773.54
341.63	1652.71
341.85	1705.96
342.06	1720.29
342.27	1626.09
342.48	1671.14
342.69	1632.23
342.90	1730.53
343.12	1685.48
343.33	1738.73
343.54	1744.87
343.75	1783.78
343.96	1644.52
344.17	1599.46
344.38	1644.52
344.60	1687.53
344.81	1656.81
345.02	1665.00
345.23	1812.45
345.44	1787.88
345.65	1662.95
345.86	1753.06
346.07	1722.34
346.29	1652.71
346.50	1683.43
346.71	1744.87
346.92	1796.07
347.13	1830.88
347.34	1724.39
347.55	1673.19
347.76	1740.77
347.98	1611.75
348.19	1613.80
348.40	1740.77
348.61	1677.29
348.82	1837.03
349.03	1746.92
349.24	1673.19
349.45	1759.21
349.66	1591.27
349.88	1751.01
350.09	1722.34
350.30	1746.92
350.51	1726.44
350.72	1742.82
350.93	1730.53
351.14	1675.24
351.35	1708.01
351.56	1667.05
351.77	1765.35
351.99	1650.66
352.20	1787.88
352.41	1710.05
352.62	1585.13
352.83	1691.62
353.04	1701.86
353.25	1695.72
353.46	1783.78
353.67	1777.64
353.88	1593.32
354.09	1693.67
354.30	1605.61
354.52	1695.72
354.73	1699.81
354.94	1669.09
355.15	1726.44
355.36	1791.97
355.57	1675.24
355.78	1728.49
355.99	1683.43
356.20	1648.61
356.41	1761.25
356.62	1722.34
356.83	1716.20
357.04	1855.46
357.25	1587.18
357.46	1748.97
357.68	1591.27
357.89	1595.37
358.10	1681.38
358.31	1695.72
358.52	1714.15
358.73	1585.13
358.94	1617.90
359.15	1703.91
359.36	1705.96
359.57	1662.95
359.78	1683.43
359.99	1736.68
360.20	1589.22
360.41	1720.29
360.62	1697.77
360.83	1710.05
361.04	1662.95
361.25	1673.19
361.46	1828.84
361.67	1701.86
361.88	1808.36
362.09	1738.73
362.30	1722.34
362.51	1677.29
362.72	1740.77
362.93	1765.35
363.14	1742.82
363.35	1751.01
363.56	1691.62
363.78	1763.30
363.99	1751.01
364.20	1681.38
364.41	1726.44
364.62	1822.69
364.83	1697.77
365.04	1734.63
365.25	1771.49
365.46	1904.61
365.67	1654.76
365.88	1677.29
366.09	1740.77
366.30	1720.29
366.51	1697.77
366.72	1605.61
366.93	1697.77
367.14	1730.53
367.35	1726.44
367.56	1734.63
367.77	1783.78
367.98	1701.86
368.18	1681.38
368.39	1658.85
368.60	1597.42
368.81	1742.82
369.02	1730.53
369.23	1691.62
369.44	1628.14
369.65	1697.77
369.86	1757.16
370.07	1746.92
370.28	1615.85
370.49	1726.44
370.70	1726.44
370.91	1605.61
371.12	1652.71
371.33	1738.73
371.54	1718.25
371.75	1816.55
371.96	1624.04
372.17	1757.16
372.38	1658.85
372.59	1710.05
372.80	1646.57
373.01	1708.01
373.22	1728.49
373.43	1724.39
373.64	1617.90
373.85	1779.68
374.06	1771.49
374.26	1839.08
374.47	1755.11
374.68	1853.41
374.89	1789.92
375.10	1708.01
375.31	1712.10
375.52	1765.35
375.73	1730.53
375.94	1595.37
376.15	1808.36
376.36	1689.57
376.57	1652.71
376.78	1695.72
376.99	1718.25
377.20	1710.05
377.40	1679.33
377.61	1789.92
377.82	1624.04
378.03	1751.01
378.24	1751.01
378.45	1693.67
378.66	1789.92
378.87	1677.29
379.08	1759.21
379.29	1718.25
379.50	1830.88
379.71	1669.09
379.91	1757.16
380.12	1718.25
380.33	1783.78
380.54	1708.01
380.75	1703.91
380.96	1691.62
381.17	1755.11
381.38	1695.72
381.59	1730.53
381.80	1708.01
382.00	1822.69
382.21	1720.29
382.42	1802.21
382.63	1871.84
382.84	1800.16
383.05	1791.97
383.26	1777.64
383.47	1755.11
383.68	1761.25
383.88	1757.16
384.09	1746.92
384.30	1820.64
384.51	1650.66
384.72	1626.09
384.93	1732.58
385.14	1665.00
385.35	1742.82
385.55	1665.00
385.76	1796.07
385.97	1699.81
386.18	1566.70
386.39	1671.14
386.60	1687.53
386.81	1714.15
387.02	1644.52
387.22	1673.19
387.43	1742.82
387.64	1757.16
387.85	1822.69
388.06	2271.20
388.27	4288.45
388.48	6848.41
388.68	8224.64
388.89	9652.08
389.10	9983.85
389.31	8642.43
389.52	7690.12
389.73	6711.19
389.93	6334.37
390.14	5830.57
390.35	5259.18
390.56	4640.70
390.77	3880.90
390.98	2987.99
391.18	2500.57
391.39	2093.02
391.60	1875.94
391.81	1740.77
392.02	1685.48
392.23	1818.60
392.43	1722.34
392.64	1710.05
392.85	1718.25
393.06	1794.02
393.27	1675.24
393.47	1697.77
393.68	1669.09
393.89	1654.76
394.10	1785.83
394.31	1691.62
394.52	1685.48
394.72	1738.73
394.93	1748.97
395.14	1587.18
395.35	1800.16
395.56	1667.05
395.76	1767.40
395.97	1845.22
396.18	1832.93
396.39	1837.03
396.60	1980.39
396.80	1851.36
397.01	1873.89
397.22	1849.32
397.43	1857.51
397.64	1718.25
397.84	1791.97
398.05	1882.08
398.26	1763.30
398.47	1769.44
398.67	1830.88
398.88	1775.59
399.09	1730.53
399.30	1689.57
399.51	1689.57
399.71	1677.29
399.92	1728.49
400.13	1701.86
400.34	1705.96
400.54	1636.33
400.75	1751.01
400.96	1703.91
401.17	1822.69
401.37	1798.12
401.58	1730.53
401.79	1669.09
402.00	1875.94
402.21	1970.15
402.41	1945.57
402.62	1984.48
402.83	2015.20
403.04	1941.47
403.24	2160.61
403.45	1820.64
403.66	1886.18
403.87	1867.75
404.07	1865.70
404.28	1937.38
404.49	1949.67
404.70	1810.40
404.90	1798.12
405.11	1730.53
405.32	1740.77
405.52	1617.90
405.73	1728.49
405.94	1667.05
406.15	1697.77
406.35	1677.29
406.56	1796.07
406.77	1773.54
406.98	1783.78
407.18	1644.52
407.39	1738.73
407.60	1691.62
407.80	1724.39
408.01	1662.95
408.22	1714.15
408.43	1687.53
408.63	1773.54
408.84	1701.86
409.05	1816.55
409.25	1638.38
409.46	1658.85
409.67	1699.81
409.88	1626.09
410.08	1732.58
410.29	1673.19
410.50	1773.54
410.70	1691.62
410.91	1597.42
411.12	1734.63
411.32	1722.34
411.53	1751.01
411.74	1800.16
411.95	1695.72
412.15	1789.92
412.36	1716.20
412.57	1736.68
412.77	1785.83
412.98	1716.20
413.19	1712.10
413.39	1736.68
413.60	1726.44
413.81	1765.35
414.01	1632.23
414.22	1734.63
414.43	1732.58
414.63	1679.33
414.84	1765.35
415.05	1755.11
415.25	1708.01
415.46	1791.97
415.67	1638.38
415.87	1679.33
416.08	1658.85
416.29	1716.20
416.49	1730.53
416.70	1683.43
416.91	1662.95
417.11	1636.33
417.32	1759.21
417.53	1691.62
417.73	1742.82
417.94	1705.96
418.15	1744.87
418.35	1632.23
418.56	1703.91
418.77	1873.89
418.97	1656.81
419.18	1650.66
419.38	1615.85
419.59	1718.25
419.80	1746.92
420.00	1722.34
420.21	1703.91
420.42	1789.92
420.62	1615.85
420.83	1681.38
421.04	1708.01
421.24	1681.38
421.45	1734.63
421.65	1765.35
421.86	1683.43
422.07	1767.40
422.27	1718.25
422.48	1695.72
422.69	1667.05
422.89	1712.10
423.10	1730.53
423.30	1665.00
423.51	1769.44
423.72	1736.68
423.92	1771.49
424.13	1591.27
424.33	1726.44
424.54	1794.02
424.75	1714.15
424.95	1777.64
425.16	1722.34
425.36	1607.66
425.57	1689.57
425.78	1753.06
425.98	1722.34
426.19	1632.23
426.39	1699.81
426.60	1693.67
426.81	1746.92
427.01	1708.01
427.22	1681.38
427.42	1578.98
427.63	1689.57
427.83	1794.02
428.04	1746.92
428.25	1808.36
428.45	1779.68
428.66	1828.84
428.86	1742.82
429.07	1718.25
429.28	1761.25
429.48	1771.49
429.69	1673.19
429.89	1695.72
430.10	1652.71
430.30	1787.88
430.51	1769.44
430.71	1650.66
430.92	1755.11
431.13	1677.29
431.33	1748.97
431.54	1759.21
431.74	1800.16
431.95	1867.75
432.15	1624.04
432.36	1718.25
432.56	1777.64
432.77	1689.57
432.98	1787.88
433.18	1759.21
433.39	1687.53
433.59	1624.04
433.80	1822.69
434.00	1785.83
434.21	1662.95
434.41	1703.91
434.62	1855.46
434.82	1701.86
435.03	1675.24
435.23	1662.95
435.44	1626.09
435.64	1693.67
435.85	1648.61
436.06	1681.38
436.26	1773.54
436.47	1671.14
436.67	1689.57
436.88	1630.18
437.08	1705.96
437.29	1746.92
437.49	1751.01
437.70	1728.49
437.90	1697.77
438.11	1808.36
438.31	1697.77
438.52	1859.56
438.72	1822.69
438.93	1923.04
439.13	1804.26
439.34	1859.56
439.54	1726.44
439.75	1837.03
439.95	1736.68
440.16	1699.81
440.36	1759.21
440.57	1705.96
440.77	1798.12
440.98	1740.77
441.18	1796.07
441.39	1714.15
441.59	1632.23
441.80	1767.40
442.00	1748.97
442.21	1806.31
442.41	1671.14
442.62	1789.92
442.82	1767.40
443.02	1763.30
443.23	1714.15
443.43	1689.57
443.64	1738.73
443.84	1695.72
444.05	1796.07
444.25	1716.20
444.46	1675.24
444.66	1701.86
444.87	1759.21
445.07	1681.38
445.28	1787.88
445.48	1837.03
445.69	1789.92
445.89	1830.88
446.09	1681.38
446.30	2009.06
446.50	2617.30
446.71	3807.17
446.91	4274.11
447.12	4863.93
447.32	4798.39
447.53	4286.40
447.73	3715.02
447.93	3571.66
448.14	3211.22
448.34	3209.17
448.55	2955.22
448.75	2854.87
448.96	2662.36
449.16	2471.90
449.36	2281.44
449.57	2119.65
449.77	1867.75
449.98	1808.36
450.18	1880.04
450.39	1802.21
450.59	1738.73
450.79	1703.91
451.00	1634.28
451.20	1796.07
451.41	1701.86
451.61	1777.64
451.81	1734.63
452.02	1761.25
452.22	1718.25
452.43	1626.09
452.63	1699.81
452.84	1685.48
453.04	1671.14
453.24	1705.96
453.45	1708.01
453.65	1701.86
453.86	1785.83
454.06	1753.06
454.26	1779.68
454.47	1638.38
454.67	1886.18
454.87	1718.25
455.08	1683.43
455.28	1843.17
455.49	1751.01
455.69	1744.87
455.89	1820.64
456.10	1806.31
456.30	1718.25
456.51	1755.11
456.71	1746.92
456.91	1822.69
457.12	1761.25
457.32	1783.78
457.52	1705.96
457.73	1789.92
457.93	1783.78
458.14	1703.91
458.34	1710.05
458.54	1693.67
458.75	1744.87
458.95	1718.25
459.15	1753.06
459.36	1751.01
459.56	1845.22
459.76	1837.03
459.97	1640.42
460.17	1687.53
460.37	1824.74
460.58	1671.14
460.78	1689.57
460.99	1761.25
461.19	1787.88
461.39	1701.86
461.60	1679.33
461.80	1779.68
462.00	1683.43
462.21	1703.91
462.41	1701.86
462.61	1681.38
462.82	1652.71
463.02	1746.92
463.22	1718.25
463.43	1769.44
463.63	1779.68
463.83	1755.11
464.04	1742.82
464.24	1656.81
464.44	1572.84
464.64	1662.95
464.85	1775.59
465.05	1773.54
465.25	1763.30
465.46	1765.35
465.66	1812.45
465.86	1710.05
466.07	1785.83
466.27	1734.63
466.47	1689.57
466.68	1597.42
466.88	1837.03
467.08	1730.53
467.29	1769.44
467.49	1781.73
467.69	1712.10
467.89	1722.34
468.10	1722.34
468.30	1669.09
468.50	1791.97
468.71	1761.25
468.91	1603.56
469.11	1867.75
469.31	1673.19
469.52	1708.01
469.72	1722.34
469.92	1859.56
470.13	1687.53
470.33	1724.39
470.53	1808.36
470.73	2111.46
470.94	2295.77
471.14	2314.20
471.34	2543.58
471.54	2475.99
471.75	2230.24
471.95	2084.83
472.15	2088.93
472.36	2084.83
472.56	2117.60
472.76	2095.07
472.96	2021.35
473.17	1880.04
473.37	1900.52
473.57	1822.69
473.77	1796.07
473.98	1759.21
474.18	1677.29
474.38	1857.51
474.58	1656.81
474.79	1621.99
474.99	1738.73
475.19	1757.16
475.39	1658.85
475.60	1728.49
475.80	1755.11
476.00	1798.12
476.20	1734.63
476.41	1755.11
476.61	1855.46
476.81	1863.65
477.01	1718.25
477.21	1814.50
477.42	1845.22
477.62	1695.72
477.82	1841.12
478.02	1710.05
478.23	1783.78
478.43	1681.38
478.63	1755.11
478.83	1710.05
479.03	1660.90
479.24	1765.35
479.44	1855.46
479.64	1646.57
479.84	1675.24
480.04	1703.91
480.25	1789.92
480.45	1710.05
480.65	1693.67
480.85	1814.50
481.06	1689.57
481.26	1744.87
481.46	1658.85
481.66	1748.97
481.86	1701.86
482.06	1753.06
482.27	1753.06
482.47	1703.91
482.67	1779.68
482.87	1681.38
483.07	1791.97
483.28	1693.67
483.48	1646.57
483.68	1679.33
483.88	1669.09
484.08	1570.79
484.29	1636.33
484.49	1697.77
484.69	1603.56
484.89	1800.16
485.09	1746.92
485.29	1751.01
485.50	1767.40
485.70	1644.52
485.90	1773.54
486.10	1701.86
486.30	1740.77
486.50	1789.92
486.71	1775.59
486.91	1712.10
487.11	1834.98
487.31	1652.71
487.51	1761.25
487.71	1677.29
487.91	1634.28
488.12	1611.75
488.32	1587.18
488.52	1656.81
488.72	1640.42
488.92	1705.96
489.12	1812.45
489.32	1753.06
489.53	1734.63
489.73	1628.14
489.93	1748.97
490.13	1628.14
490.33	1615.85
490.53	1751.01
490.73	1763.30
490.94	1693.67
491.14	1789.92
491.34	1863.65
491.54	2146.27
491.74	2541.53
491.94	2879.44
492.14	2928.60
492.34	2975.70
492.54	2807.77
492.75	2459.61
492.95	2402.27
493.15	2287.58
493.35	2322.40
493.55	2183.13
493.75	2113.50
493.95	2142.18
494.15	2007.01
494.35	1902.56
494.56	1789.92
494.76	1787.88
494.96	1857.51
495.16	1789.92
495.36	1724.39
495.56	1763.30
495.76	1744.87
495.96	1632.23
496.16	1718.25
496.36	1808.36
496.56	1634.28
496.77	1687.53
496.97	1701.86
497.17	1757.16
497.37	1650.66
497.57	1730.53
497.77	1759.21
497.97	1624.04
498.17	1724.39
498.37	1642.47
498.57	1804.26
498.77	1734.63
498.97	1699.81
499.17	1841.12
499.38	1769.44
499.58	1736.68
499.78	1765.35
499.98	1820.64
500.18	1685.48
500.38	1691.62
500.58	1953.76
500.78	2500.57
500.98	4472.76
501.18	5762.98
501.38	6711.19
501.58	7045.01
501.78	6528.92
501.98	5609.39
502.18	4974.52
502.38	4435.90
502.58	4202.43
502.78	3778.50
502.98	3753.93
503.18	3434.44
503.38	3117.01
503.59	2789.33
503.79	2709.46
503.99	2461.66
504.19	2263.01
504.39	2168.80
504.59	2107.36
504.79	2099.17
504.99	2093.02
505.19	1863.65
505.39	1918.95
505.59	1959.91
505.79	1880.04
505.99	1853.41
506.19	1765.35
506.39	1882.08
506.59	1759.21
506.79	1724.39
506.99	1837.03
507.19	1794.02
507.39	1718.25
507.59	1722.34
507.79	1660.90
507.99	1720.29
508.19	1687.53
508.39	1673.19
508.59	1726.44
508.79	1789.92
508.99	1884.13
509.19	1740.77
509.39	1701.86
509.59	1714.15
509.79	1609.70
509.99	1765.35
510.19	1808.36
510.39	1722.34
510.59	1695.72
510.79	1822.69
510.99	1705.96
511.19	1695.72
511.39	1765.35
511.59	1787.88
511.79	1832.93
511.99	1722.34
512.19	1783.78
512.38	1779.68
512.58	1671.14
512.78	1681.38
512.98	1751.01
513.18	1744.87
513.38	1589.22
513.58	1822.69
513.78	1708.01
513.98	1767.40
514.18	1658.85
514.38	1671.14
514.58	1722.34
514.78	1669.09
514.98	1742.82
515.18	1705.96
515.38	1761.25
515.58	1800.16
515.78	1705.96
515.98	1798.12
516.18	1736.68
516.38	1759.21
516.57	1744.87
516.77	1722.34
516.97	1738.73
517.17	1689.57
517.37	1677.29
517.57	1716.20
517.77	1677.29
517.97	1665.00
518.17	1738.73
518.37	1667.05
518.57	1654.76
518.77	1687.53
518.97	1687.53
519.16	1808.36
519.36	1777.64
519.56	1681.38
519.76	1775.59
519.96	1722.34
520.16	1785.83
520.36	1714.15
520.56	1837.03
520.76	1712.10
520.96	1624.04
521.16	1759.21
521.35	1789.92
521.55	1769.44
521.75	1677.29
521.95	1703.91
522.15	1806.31
522.35	1640.42
522.55	1650.66
522.75	1755.11
522.95	1619.94
523.14	1638.38
523.34	1781.73
523.54	1767.40
523.74	1615.85
523.94	1740.77
524.14	1609.70
524.34	1699.81
524.54	1863.65
524.73	1697.77
524.93	1751.01
525.13	1767.40
525.33	1669.09
525.53	1890.28
525.73	1781.73
525.93	1753.06
526.13	1689.57
526.32	1640.42
526.52	1785.83
526.72	1742.82
526.92	1689.57
527.12	1648.61
527.32	1626.09
527.52	1759.21
527.71	1724.39
527.91	1746.92
528.11	1714.15
528.31	1673.19
528.51	1652.71
528.71	1761.25
528.90	1773.54
529.10	1814.50
529.30	1837.03
529.50	1687.53
529.70	1681.38
529.90	1789.92
530.09	1710.05
530.29	1665.00
530.49	1703.91
530.69	1812.45
530.89	1689.57
531.09	1789.92
531.28	1714.15
531.48	1783.78
531.68	1775.59
531.88	1675.24
532.08	1693.67
532.28	1669.09
532.47	1791.97
532.67	1785.83
532.87	1791.97
533.07	1703.91
533.27	1814.50
533.46	1734.63
533.66	1759.21
533.86	1779.68
534.06	1744.87
534.26	1738.73
534.45	1781.73
534.65	1763.30
534.85	1775.59
535.05	1665.00
535.25	1728.49
535.44	1652.71
535.64	1777.64
535.84	1699.81
536.04	1701.86
536.24	1722.34
536.43	1681.38
536.63	1748.97
536.83	1718.25
537.03	1705.96
537.22	1646.57
537.42	1634.28
537.62	1689.57
537.82	1679.33
538.02	1794.02
538.21	1775.59
538.41	1927.14
538.61	1744.87
538.81	1708.01
539.00	1744.87
539.20	1722.34
539.40	1691.62
539.60	1744.87
539.79	1730.53
539.99	1757.16
540.19	1681.38
540.39	1794.02
540.58	1759.21
540.78	1783.78
540.98	1675.24
541.18	1763.30
541.37	1773.54
541.57	1748.97
541.77	1814.50
541.97	1667.05
542.16	1693.67
542.36	1624.04
542.56	1902.56
542.76	1812.45
542.95	1740.77
543.15	1773.54
543.35	1757.16
543.54	1660.90
543.74	1699.81
543.94	1777.64
544.14	1710.05
544.33	1751.01
544.53	1691.62
544.73	1742.82
544.93	1724.39
545.12	1726.44
545.32	1669.09
545.52	1751.01
545.71	1656.81
545.91	1718.25
546.11	1730.53
546.30	1712.10
546.50	1746.92
546.70	1816.55
546.90	1755.11
547.09	1693.67
547.29	1730.53
547.49	1824.74
547.68	1685.48
547.88	1619.94
548.08	1718.25
548.27	2170.85
548.47	1761.25
548.67	1687.53
548.87	1804.26
549.06	1746.92
549.26	1699.81
549.46	1714.15
549.65	1697.77
549.85	1667.05
550.05	1757.16
550.24	1681.38
550.44	1734.63
550.64	1699.81
550.83	1751.01
551.03	1765.35
551.23	1740.77
551.42	1714.15
551.62	1720.29
551.82	1736.68
552.01	1646.57
552.21	1769.44
552.41	1767.40
552.60	1845.22
552.80	1779.68
553.00	1751.01
553.19	1681.38
553.39	1853.41
553.59	1695.72
553.78	1773.54
553.98	1834.98
554.17	1665.00
554.37	1767.40
554.57	1783.78
554.76	1759.21
554.96	1693.67
555.16	1705.96
555.35	1714.15
555.55	1746.92
555.75	1806.31
555.94	1857.51
556.14	1652.71
556.33	1753.06
556.53	1658.85
556.73	1763.30
556.92	1726.44
557.12	1800.16
557.32	1806.31
557.51	1832.93
557.71	1818.60
557.90	1697.77
558.10	1812.45
558.30	1710.05
558.49	1734.63
558.69	1722.34
558.88	1744.87
559.08	1728.49
559.28	1734.63
559.47	1783.78
559.67	1732.58
559.86	1755.11
560.06	1742.82
560.26	1746.92
560.45	1834.98
560.65	1761.25
560.84	1785.83
561.04	1689.57
561.24	1708.01
561.43	1652.71
561.63	1761.25
561.82	1806.31
562.02	1695.72
562.22	1699.81
562.41	1683.43
562.61	1785.83
562.80	1634.28
563.00	1857.51
563.19	1769.44
563.39	1853.41
563.59	1775.59
563.78	1677.29
563.98	1589.22
564.17	1648.61
564.37	1636.33
564.56	1714.15
564.76	1687.53
564.96	1853.41
565.15	1761.25
565.35	1828.84
565.54	1804.26
565.74	1794.02
565.93	1855.46
566.13	1748.97
566.32	1785.83
566.52	1794.02
566.71	1671.14
566.91	1736.68
567.11	1726.44
567.30	1744.87
567.50	1779.68
567.69	1789.92
567.89	1763.30
568.08	1691.62
568.28	1763.30
568.47	1712.10
568.67	1722.34
568.86	1720.29
569.06	1843.17
569.25	1771.49
569.45	1718.25
569.64	1724.39
569.84	1705.96
570.04	1742.82
570.23	1677.29
570.43	1740.77
570.62	1726.44
570.82	1800.16
571.01	1677.29
571.21	1689.57
571.40	1685.48
571.60	1845.22
571.79	1724.39
571.99	1683.43
572.18	1599.46
572.38	1730.53
572.57	1650.66
572.77	1767.40
572.96	1908.71
573.16	1740.77
573.35	1736.68
573.55	1755.11
573.74	1744.87
573.94	1828.84
574.13	1679.33
574.33	1800.16
574.52	1839.08
574.71	1783.78
574.91	1773.54
575.10	1679.33
575.30	1740.77
575.49	1640.42
575.69	1718.25
575.88	1753.06
576.08	1775.59
576.27	1796.07
576.47	1738.73
576.66	1841.12
576.86	1789.92
577.05	1779.68
577.25	1724.39
577.44	1880.04
577.64	1720.29
577.83	1796.07
578.02	1736.68
578.22	1814.50
578.41	1775.59
578.61	1665.00
578.80	1730.53
579.00	1761.25
579.19	1757.16
579.39	1757.16
579.58	1859.56
579.77	1763.30
579.97	1810.40
580.16	1908.71
580.36	1853.41
580.55	1806.31
580.75	1755.11
580.94	1763.30
581.13	1824.74
581.33	1804.26
581.52	1753.06
581.72	1888.23
581.91	1834.98
582.11	1761.25
582.30	1767.40
582.49	1818.60
582.69	1865.70
582.88	1794.02
583.08	1789.92
583.27	1787.88
583.47	1734.63
583.66	1777.64
583.85	1687.53
584.05	1769.44
584.24	1769.44
584.44	1804.26
584.63	1839.08
584.82	1767.40
585.02	1761.25
585.21	1798.12
585.41	1837.03
585.60	1849.32
585.79	1923.04
585.99	1910.75
586.18	1894.37
586.37	2172.89
586.57	3385.29
586.76	10028.90
586.96	24698.50
587.15	34487.79
587.34	40705.43
587.54	42777.97
587.73	36947.40
587.93	26715.75
588.12	21765.81
588.31	18579.17
588.51	16531.20
588.70	15310.61
588.89	14321.45
589.09	12529.47
589.28	11114.33
589.47	9557.87
589.67	7948.17
589.86	6459.29
590.06	4921.27
590.25	3909.57
590.44	3119.06
590.64	2701.27
590.83	2248.67
591.02	2140.13
591.22	1986.53
591.41	1914.85
591.60	1822.69
591.80	1929.19
591.99	1822.69
592.18	1755.11
592.38	1849.32
592.57	1771.49
592.76	1798.12
592.96	1748.97
593.15	1828.84
593.34	1789.92
593.54	1787.88
593.73	1800.16
593.92	1789.92
594.12	1781.73
594.31	1773.54
594.50	1888.23
594.70	1722.34
594.89	1976.29
595.08	1712.10
595.28	1859.56
595.47	1902.56
595.66	1710.05
595.86	1710.05
596.05	1712.10
596.24	1708.01
596.43	1863.65
596.63	1869.80
596.82	1763.30
597.01	1691.62
597.21	1886.18
597.40	1834.98
597.59	1761.25
597.79	1751.01
597.98	1689.57
598.17	1703.91
598.36	1705.96
598.56	1728.49
598.75	1740.77
598.94	1691.62
599.14	1714.15
599.33	1607.66
599.52	1804.26
599.71	1746.92
599.91	1806.31
600.10	1804.26
600.29	1785.83
600.48	1757.16
600.68	1738.73
600.87	1763.30
601.06	1673.19
601.26	1695.72
601.45	1787.88
601.64	1691.62
601.83	1757.16
602.03	1644.52
602.22	1730.53
602.41	1755.11
602.60	1796.07
602.80	1789.92
602.99	1757.16
603.18	1652.71
603.37	1755.11
603.57	1732.58
603.76	1742.82
603.95	1761.25
604.14	1714.15
604.34	1669.09
604.53	1779.68
604.72	1718.25
604.91	1796.07
605.10	1728.49
605.30	1679.33
605.49	1816.55
605.68	1822.69
605.87	1791.97
606.07	1705.96
606.26	1722.34
606.45	1738.73
606.64	1697.77
606.84	1728.49
607.03	1730.53
607.22	1789.92
607.41	1665.00
607.60	1757.16
607.80	1746.92
607.99	1712.10
608.18	1732.58
608.37	1689.57
608.56	1710.05
608.76	1904.61
608.95	1796.07
609.14	1701.86
609.33	1734.63
609.52	1759.21
609.72	1757.16
609.91	1728.49
610.10	1794.02
610.29	1789.92
610.48	1796.07
610.68	1824.74
610.87	1712.10
611.06	1755.11
611.25	1734.63
611.44	1791.97
611.63	1658.85
611.83	1791.97
612.02	1673.19
612.21	1824.74
612.40	1640.42
612.59	1665.00
612.79	1701.86
612.98	1826.79
613.17	1812.45
613.36	1728.49
613.55	1845.22
613.74	1669.09
613.93	1640.42
614.13	1738.73
614.32	1695.72
614.51	1810.40
614.70	1722.34
614.89	1658.85
615.08	1726.44
615.28	2037.73
615.47	1652.71
615.66	1730.53
615.85	1728.49
616.04	1826.79
616.23	1701.86
616.42	1648.61
616.62	1685.48
616.81	1800.16
617.00	1609.70
617.19	1742.82
617.38	1665.00
617.57	1689.57
617.76	1755.11
617.95	1746.92
618.15	1740.77
618.34	1789.92
618.53	1617.90
618.72	1812.45
618.91	1781.73
619.10	1824.74
619.29	1722.34
619.48	1779.68
619.68	1677.29
619.87	1701.86
620.06	1632.23
620.25	1791.97
620.44	1693.67
620.63	1742.82
620.82	1712.10
621.01	1734.63
621.20	1718.25
621.39	1738.73
621.59	1722.34
621.78	1632.23
621.97	1718.25
622.16	1789.92
622.35	1675.24
622.54	1763.30
622.73	1691.62
622.92	1685.48
623.11	1759.21
623.30	1714.15
623.49	1775.59
623.68	1685.48
623.88	1771.49
624.07	1755.11
624.26	1693.67
624.45	1734.63
624.64	1632.23
624.83	1808.36
625.02	1791.97
625.21	1738.73
625.40	1751.01
625.59	1781.73
625.78	1728.49
625.97	1808.36
626.16	1726.44
626.35	1761.25
626.54	1712.10
626.74	1783.78
626.93	1779.68
627.12	1656.81
627.31	1818.60
627.50	1751.01
627.69	1781.73
627.88	1705.96
628.07	1726.44
628.26	1597.42
628.45	1738.73
628.64	1665.00
628.83	1679.33
629.02	1679.33
629.21	1697.77
629.40	1720.29
629.59	1718.25
629.78	1583.08
629.97	1689.57
630.16	1675.24
630.35	1736.68
630.54	1705.96
630.73	1714.15
630.92	1767.40
631.11	1669.09
631.30	1781.73
631.49	1728.49
631.68	1658.85
631.87	1783.78
632.06	1589.22
632.25	1814.50
632.44	1742.82
632.63	1773.54
632.82	1705.96
633.01	1681.38
633.20	1755.11
633.39	1660.90
633.58	1650.66
633.77	1773.54
633.96	1744.87
634.15	1720.29
634.34	1679.33
634.53	1751.01
634.72	1683.43
634.91	1665.00
635.10	1753.06
635.29	1730.53
635.48	1695.72
635.67	1611.75
635.86	1597.42
636.05	1826.79
636.24	1679.33
636.43	1767.40
636.62	1751.01
636.81	1550.31
637.00	1742.82
637.19	1728.49
637.38	1677.29
637.57	1675.24
637.76	1683.43
637.95	1687.53
638.14	1603.56
638.33	1722.34
638.52	1753.06
638.71	1681.38
638.89	1599.46
639.08	1753.06
639.27	1763.30
639.46	1640.42
639.65	1841.12
639.84	1675.24
640.03	1740.77
640.22	1677.29
640.41	1826.79
640.60	1648.61
640.79	1705.96
640.98	1710.05
641.17	1761.25
641.36	1744.87
641.55	1726.44
641.74	1658.85
641.92	1609.70
642.11	1662.95
642.30	1708.01
642.49	1751.01
642.68	1710.05
642.87	1701.86
643.06	1761.25
643.25	1642.47
643.44	1675.24
643.63	1726.44
643.82	1720.29
644.00	1644.52
644.19	1773.54
644.38	1683.43
644.57	1800.16
644.76	1730.53
644.95	1693.67
645.14	1751.01
645.33	1603.56
645.52	1742.82
645.71	1652.71
645.89	1671.14
646.08	1744.87
646.27	1642.47
646.46	1871.84
646.65	1632.23
646.84	1759.21
647.03	1628.14
647.22	1826.79
647.40	1816.55
647.59	1753.06
647.78	1671.14
647.97	1636.33
648.16	1673.19
648.35	1734.63
648.54	1791.97
648.73	1712.10
648.91	1732.58
649.10	1738.73
649.29	1656.81
649.48	1677.29
649.67	1767.40
649.86	1728.49
650.05	1642.47
650.23	1753.06
650.42	1626.09
650.61	1751.01
650.80	1730.53
650.99	1855.46
651.18	1673.19
651.36	1796.07
651.55	1697.77
651.74	1748.97
651.93	1728.49
652.12	1761.25
652.31	1712.10
652.49	1693.67
652.68	1634.28
652.87	1802.21
653.06	1710.05
653.25	1855.46
653.44	1748.97
653.62	1751.01
653.81	1708.01
654.00	1699.81
654.19	1757.16
654.38	1871.84
654.56	1748.97
654.75	1689.57
654.94	1730.53
655.13	1781.73
655.32	1673.19
655.51	1787.88
655.69	1753.06
655.88	1787.88
656.07	1658.85
656.26	1773.54
656.45	1660.90
656.63	1665.00
656.82	1777.64
657.01	1769.44
657.20	1714.15
657.38	1748.97
657.57	1673.19
657.76	1597.42
657.95	1841.12
658.14	1667.05
658.32	1732.58
658.51	1570.79
658.70	1738.73
658.89	1812.45
659.08	1722.34
659.26	1783.78
659.45	1632.23
659.64	1708.01
659.83	1648.61
660.01	1886.18
660.20	1738.73
660.39	1763.30
660.58	1654.76
660.76	1728.49
660.95	1683.43
661.14	1675.24
661.33	1701.86
661.51	1708.01
661.70	1673.19
661.89	1705.96
662.08	1738.73
662.26	1578.98
662.45	1691.62
662.64	1824.74
662.83	1796.07
663.01	1621.99
663.20	1662.95
663.39	1767.40
663.58	1705.96
663.76	1687.53
663.95	1748.97
664.14	1681.38
664.32	1621.99
664.51	1673.19
664.70	1683.43
664.89	1718.25
665.07	1591.27
665.26	1726.44
665.45	1683.43
665.64	1742.82
665.82	1796.07
666.01	1789.92
666.20	1724.39
666.38	1787.88
666.57	1796.07
666.76	2144.22
666.95	4474.81
667.13	10348.39
667.32	15441.68
667.51	17815.28
667.69	18912.99
667.88	17757.94
668.07	12457.79
668.25	9414.51
668.44	8085.38
668.63	7333.78
668.81	6881.18
669.00	6268.83
669.19	5582.76
669.38	5195.70
669.56	4562.87
669.75	3852.23
669.94	3479.50
670.12	2889.68
670.31	2523.10
670.50	2297.82
670.68	2107.36
670.87	1976.29
671.06	1892.32
671.24	1748.97
671.43	1832.93
671.62	1785.83
671.80	1705.96
671.99	1738.73
672.18	1748.97
672.36	1748.97
672.55	1714.15
672.74	1611.75
672.92	1705.96
673.11	1777.64
673.29	1724.39
673.48	1742.82
673.67	1685.48
673.85	1748.97
674.04	1693.67
674.23	1712.10
674.41	1781.73
674.60	1667.05
674.79	1703.91
674.97	1667.05
675.16	1781.73
675.34	1787.88
675.53	1626.09
675.72	1660.90
675.90	1847.27
676.09	1677.29
676.28	1705.96
676.46	1646.57
676.65	1742.82
676.83	1650.66
677.02	1640.42
677.21	1728.49
677.39	1744.87
677.58	1705.96
677.77	1660.90
677.95	1697.77
678.14	1714.15
678.32	1675.24
678.51	1671.14
678.70	1832.93
678.88	1609.70
679.07	1695.72
679.25	1775.59
679.44	1679.33
679.63	1587.18
679.81	1757.16
680.00	1732.58
680.18	1759.21
680.37	1789.92
680.55	1714.15
680.74	1576.94
680.93	1609.70
681.11	1736.68
681.30	1689.57
681.48	1808.36
681.67	1697.77
681.85	1644.52
682.04	1642.47
682.23	1705.96
682.41	1705.96
682.60	1695.72
682.78	1677.29
682.97	1644.52
683.15	1810.40
683.34	1714.15
683.53	1773.54
683.71	1601.51
683.90	1837.03
684.08	1771.49
684.27	1656.81
684.45	1759.21
684.64	1751.01
684.82	1636.33
685.01	1839.08
685.19	1693.67
685.38	1761.25
685.57	1718.25
685.75	1673.19
685.94	1726.44
686.12	1546.22
686.31	1697.77
686.49	1869.80
686.68	1574.89
686.86	1732.58
687.05	1648.61
687.23	1761.25
687.42	1667.05
687.60	1638.38
687.79	1724.39
687.97	1806.31
688.16	1787.88
688.34	1804.26
688.53	1730.53
688.71	1738.73
688.90	1781.73
689.08	1673.19
689.27	1609.70
689.45	1687.53
689.64	1734.63
689.82	1767.40
690.01	1816.55
690.19	1632.23
690.38	1701.86
690.56	1796.07
690.75	1669.09
690.93	1699.81
691.12	1583.08
691.30	1689.57
691.49	1689.57
691.67	1683.43
691.86	1755.11
692.04	1730.53
692.23	1689.57
692.41	1656.81
692.60	1789.92
692.78	1718.25
692.97	1765.35
693.15	1744.87
693.34	1785.83
693.52	1771.49
693.71	1687.53
693.89	1693.67
694.08	1644.52
694.26	1837.03
694.44	1757.16
694.63	1798.12
694.81	1693.67
695.00	1767.40
695.18	1748.97
695.37	1814.50
695.55	1738.73
695.74	1722.34
695.92	1665.00
696.10	1767.40
696.29	1566.70
696.47	1720.29
696.66	1615.85
696.84	1687.53
697.03	1740.77
697.21	1843.17
697.40	2287.58
697.58	1812.45
697.76	1695.72
697.95	1740.77
698.13	1632.23
698.32	1726.44
698.50	1660.90
698.68	1746.92
698.87	1740.77
699.05	1785.83
699.24	1769.44
699.42	1699.81
699.61	1621.99
699.79	1759.21
699.97	1685.48
700.16	1730.53
700.34	1605.61
700.53	1677.29
700.71	1755.11
700.89	1738.73
701.08	1736.68
701.26	1724.39
701.45	2070.50
701.63	1593.32
701.81	1687.53
702.00	1675.24
702.18	1720.29
702.37	1576.94
702.55	1658.85
702.73	1679.33
702.92	1630.18
703.10	1728.49
703.28	1742.82
703.47	1636.33
703.65	1837.03
703.84	1732.58
704.02	1724.39
704.20	1855.46
704.39	1660.90
704.57	1667.05
704.75	1767.40
704.94	1808.36
705.12	1716.20
705.30	1812.45
705.49	2242.53
705.67	4515.77
705.86	9412.46
706.04	12812.09
706.22	14751.52
706.41	15496.98
706.59	13874.99
706.77	9676.65
706.96	7430.03
707.14	6705.05
707.32	5900.20
707.51	5515.18
707.69	4898.74
707.87	4239.30
708.06	3512.27
708.24	3012.56
708.42	2324.44
708.61	2222.05
708.79	1923.04
708.97	1845.22
709.16	1798.12
709.34	1757.16
709.52	1634.28
709.71	1677.29
709.89	1714.15
710.07	1669.09
710.26	1640.42
710.44	1748.97
710.62	1796.07
710.80	1726.44
710.99	1781.73
711.17	1763.30
711.35	1689.57
711.54	1751.01
711.72	1767.40
711.90	1767.40
712.09	1779.68
712.27	1599.46
712.45	1732.58
712.63	1665.00
712.82	1740.77
713.00	1697.77
713.18	1714.15
713.37	1679.33
713.55	1724.39
713.73	1738.73
713.91	1726.44
714.10	1712.10
714.28	1732.58
714.46	1728.49
714.65	1722.34
714.83	1761.25
715.01	1714.15
715.19	1712.10
715.38	1613.80
715.56	1767.40
715.74	1699.81
715.92	1654.76
716.11	1779.68
716.29	1624.04
716.47	1734.63
716.65	1746.92
716.84	1621.99
717.02	1775.59
717.20	1523.69
717.38	1578.98
717.57	1767.40
717.75	1658.85
717.93	1689.57
718.11	1746.92
718.30	1640.42
718.48	1763.30
718.66	1716.20
718.84	1714.15
719.03	1679.33
719.21	1734.63
719.39	1791.97
719.57	1781.73
719.75	1732.58
719.94	1714.15
720.12	1736.68
720.30	1689.57
720.48	1767.40
720.67	1669.09
720.85	1662.95
721.03	1679.33
721.21	1556.46
721.39	1755.11
721.58	1748.97
721.76	1681.38
721.94	1732.58
722.12	1718.25
722.30	1726.44
722.49	1763.30
722.67	1710.05
722.85	1853.41
723.03	1699.81
723.21	1665.00
723.40	1724.39
723.58	1812.45
723.76	1755.11
723.94	1742.82
724.12	1662.95
724.30	1769.44
724.49	1746.92
724.67	1595.37
724.85	1746.92
725.03	1615.85
725.21	1794.02
725.40	1736.68
725.58	1628.14
725.76	1726.44
725.94	1738.73
726.12	1593.32
726.30	1640.42
726.49	1626.09
726.67	1746.92
726.85	1687.53
727.03	1794.02
727.21	2176.99
727.39	2922.45
727.57	3870.66
727.76	4278.21
727.94	4509.63
728.12	4302.78
728.30	3616.71
728.48	3012.56
728.66	2686.94
728.84	2521.05
729.03	2267.10
729.21	2172.89
729.39	1951.71
729.57	1787.88
729.75	1767.40
729.93	1841.12
730.11	1726.44
730.30	1662.95
730.48	1648.61
730.66	1837.03
730.84	1757.16
731.02	1710.05
731.20	1624.04
731.38	1712.10
731.56	1716.20
731.74	1640.42
731.93	1783.78
732.11	1656.81
732.29	1650.66
732.47	1675.24
732.65	1679.33
732.83	1771.49
733.01	1734.63
733.19	1603.56
733.37	1736.68
733.56	1738.73
733.74	1656.81
733.92	1791.97
734.10	1779.68
734.28	1722.34
734.46	1615.85
734.64	1714.15
734.82	1656.81
735.00	1654.76
735.18	1611.75
735.36	1642.47
735.54	1699.81
735.73	1705.96
735.91	1689.57
736.09	1740.77
736.27	1652.71
736.45	1671.14
736.63	1595.37
736.81	1673.19
736.99	1710.05
737.17	1773.54
737.35	1734.63
737.53	1703.91
737.71	1746.92
737.89	1765.35
738.07	1646.57
738.25	1722.34
738.43	1693.67
738.61	1673.19
738.80	1710.05
738.98	1685.48
739.16	1738.73
739.34	1642.47
739.52	1812.45
739.70	1669.09
739.88	1722.34
740.06	1816.55
740.24	1599.46
740.42	1824.74
740.60	1574.89
740.78	1613.80
740.96	1607.66
741.14	1626.09
741.32	1677.29
741.50	1574.89
741.68	1804.26
741.86	1828.84
742.04	1632.23
742.22	1560.55
742.40	1726.44
742.58	1646.57
742.76	1607.66
742.94	1787.88
743.12	1607.66
743.30	1640.42
743.48	1730.53
743.66	1646.57
743.84	1671.14
744.02	1681.38
744.20	1796.07
744.38	1671.14
744.56	1691.62
744.74	1820.64
744.92	1734.63
745.10	1777.64
745.28	1718.25
745.46	1810.40
745.64	1673.19
745.82	1789.92
746.00	1705.96
746.18	1650.66
746.36	1609.70
746.54	1646.57
746.72	1716.20
746.90	1660.90
747.08	1712.10
747.26	1679.33
747.44	1767.40
747.62	1724.39
747.80	1701.86
747.98	1787.88
748.15	1628.14
748.33	1808.36
748.51	1681.38
748.69	1748.97
748.87	1650.66
749.05	1712.10
749.23	1640.42
749.41	1742.82
749.59	1687.53
749.77	1785.83
749.95	1667.05
750.13	1589.22
750.31	1687.53
750.49	1671.14
750.67	1728.49
750.85	1800.16
751.03	1681.38
751.20	1755.11
751.38	1763.30
751.56	1624.04
751.74	1718.25
751.92	1628.14
752.10	1576.94
752.28	1734.63
752.46	1716.20
752.64	1660.90
752.82	1720.29
753.00	1765.35
753.18	1667.05
753.35	1716.20
753.53	1683.43
753.71	1681.38
753.89	1626.09
754.07	1708.01
754.25	1740.77
754.43	1734.63
754.61	1642.47
754.79	1718.25
754.97	1652.71
755.14	1716.20
755.32	1662.95
755.50	1710.05
755.68	1751.01
755.86	1722.34
756.04	1593.32
756.22	1634.28
756.40	1755.11
756.57	1828.84
756.75	1712.10
756.93	1769.44
757.11	1804.26
757.29	1609.70
757.47	1574.89
757.65	1642.47
757.82	1540.07
758.00	1701.86
758.18	1619.94
758.36	1652.71
758.54	1849.32
758.72	1642.47
758.90	1738.73
759.07	1658.85
759.25	1693.67
759.43	1798.12
759.61	1673.19
759.79	2220.00
759.97	1738.73
760.15	1642.47
760.32	1593.32
760.50	1744.87
760.68	1794.02
760.86	1638.38
761.04	1779.68
761.22	1767.40
761.39	1748.97
761.57	1804.26
761.75	1773.54
761.93	1732.58
762.11	1689.57
762.28	1665.00
762.46	1628.14
762.64	1806.31
762.82	1675.24
763.00	1691.62
763.18	1794.02
763.35	1671.14
763.53	1703.91
763.71	1746.92
763.89	1701.86
764.07	1736.68
764.24	1685.48
764.42	1763.30
764.60	1691.62
764.78	1705.96
764.96	1746.92
765.13	1787.88
765.31	1708.01
765.49	1740.77
765.67	1611.75
765.84	1697.77
766.02	1638.38
766.20	1701.86
766.38	1757.16
766.56	1699.81
766.73	1701.86
766.91	1687.53
767.09	1740.77
767.27	1794.02
767.44	1693.67
767.62	1705.96
767.80	1732.58
767.98	1667.05
768.15	1634.28
768.33	1740.77
768.51	1726.44
768.69	1701.86
768.87	1710.05
769.04	1736.68
769.22	1822.69
769.40	1834.98
769.58	1867.75
769.75	1675.24
769.93	1769.44
770.11	1714.15
770.28	1574.89
770.46	1730.53
770.64	1679.33
770.82	1671.14
770.99	1695.72
771.17	1705.96
771.35	1646.57
771.53	1759.21
771.70	1630.18
771.88	1673.19
772.06	1710.05
772.23	1720.29
772.41	1708.01
772.59	1751.01
772.77	1628.14
772.94	1740.77
773.12	1798.12
773.30	1673.19
773.47	1771.49
773.65	1683.43
773.83	1810.40
774.01	1679.33
774.18	1566.70
774.36	1662.95
774.54	1642.47
774.71	1751.01
774.89	1634.28
775.07	1640.42
775.24	1665.00
775.42	1685.48
775.60	1822.69
775.78	1667.05
775.95	1634.28
776.13	1605.61
776.31	1560.55
776.48	1656.81
776.66	1832.93
776.84	1660.90
777.01	1662.95
777.19	1693.67
777.37	1558.50
777.54	1726.44
777.72	1871.84
777.90	1667.05
778.07	1695.72
778.25	1834.98
778.43	1699.81
778.60	1701.86
778.78	1742.82
778.96	1806.31
779.13	1640.42
779.31	1726.44
779.49	1677.29
779.66	1701.86
779.84	1689.57
780.01	1619.94
780.19	1656.81
780.37	1806.31
780.54	1734.63
780.72	1646.57
780.90	1650.66
781.07	1734.63
781.25	1599.46
781.43	1806.31
781.60	1718.25
781.78	1662.95
781.95	1662.95
782.13	1634.28
782.31	1689.57
782.48	1632.23
782.66	1742.82
782.83	1736.68
783.01	1751.01
783.19	1732.58
783.36	1716.20
783.54	1644.52
783.72	1654.76
783.89	1738.73
784.07	1667.05
784.24	1748.97
784.42	1798.12
784.60	1701.86
784.77	1691.62
784.95	1572.84
785.12	1673.19
785.30	1712.10
785.47	1681.38
785.65	1662.95
785.83	1695.72
786.00	1689.57
786.18	1679.33
786.35	1650.66
786.53	1697.77
786.71	1744.87
786.88	1714.15
787.06	1681.38
787.23	1685.48
787.41	1658.85
787.58	1650.66
787.76	1662.95
787.94	1677.29
788.11	1697.77
788.29	1615.85
788.46	1583.08
788.64	1671.14
788.81	1705.96
788.99	1701.86
789.16	1642.47
789.34	1671.14
789.52	1605.61
789.69	1658.85
789.87	1589.22
790.04	1669.09
790.22	1650.66
790.39	1783.78
790.57	1605.61
790.74	1685.48
790.92	1796.07
791.09	1665.00
791.27	1695.72
791.44	1775.59
791.62	1726.44
791.79	1712.10
791.97	1607.66
792.15	1877.99
792.32	1759.21
792.50	1722.34
792.67	1779.68
792.85	1828.84
793.02	1714.15
793.20	1634.28
793.37	1546.22
793.55	1677.29
793.72	1687.53
793.90	1736.68
794.07	1681.38
794.25	1642.47
794.42	1693.67
794.60	1677.29
794.77	1683.43
794.95	1691.62
795.12	1769.44
795.30	1708.01
795.47	1662.95
795.65	1877.99
795.82	1728.49
796.00	1613.80
796.17	1681.38
796.34	1648.61
796.52	1693.67
796.69	1720.29
796.87	1800.16
797.04	1697.77
797.22	1755.11
797.39	1675.24
797.57	1693.67
797.74	1703.91
797.92	1669.09
798.09	1720.29
798.27	1761.25
798.44	1775.59
798.62	1650.66
798.79	1640.42
798.96	1769.44
799.14	1689.57
799.31	1863.65
799.49	1697.77
799.66	1720.29
799.84	1703.91
800.01	1652.71
800.19	1626.09
800.36	1609.70
800.53	1701.86
800.71	1783.78
800.88	1824.74
801.06	1607.66
801.23	1701.86
801.41	1767.40
801.58	1724.39
801.75	1687.53
801.93	1669.09
802.10	1720.29
802.28	1708.01
802.45	1644.52
802.63	1716.20
802.80	1789.92
802.97	1691.62
803.15	1638.38
803.32	1732.58
803.50	1589.22
803.67	1718.25
803.84	1724.39
804.02	1710.05
804.19	1632.23
804.37	1585.13
804.54	1578.98
804.71	1755.11
804.89	1675.24
805.06	1658.85
805.24	1615.85
805.41	1644.52
805.58	1619.94
805.76	1798.12
805.93	1740.77
806.10	1773.54
806.28	1787.88
806.45	1757.16
806.63	1689.57
806.80	1740.77
806.97	1624.04
807.15	1710.05
807.32	1665.00
807.49	1642.47
807.67	1617.90
807.84	1708.01
808.01	1648.61
808.19	1767.40
808.36	1800.16
808.54	1701.86
808.71	1671.14
808.88	1755.11
809.06	1728.49
809.23	1746.92
809.40	1654.76
809.58	1865.70
809.75	1701.86
809.92	1718.25
810.10	1783.78
810.27	1685.48
810.44	1785.83
810.62	1710.05
810.79	1748.97
810.96	1656.81
811.14	1597.42
811.31	1697.77
811.48	1720.29
811.66	1708.01
811.83	1648.61
812.00	1669.09
812.18	1759.21
812.35	1873.89
812.52	1587.18
812.69	1640.42
812.87	1705.96
813.04	1673.19
813.21	1691.62
813.39	1665.00
813.56	1624.04
813.73	1787.88
813.91	1591.27
814.08	1718.25
814.25	1693.67
814.42	1681.38
814.60	1732.58
814.77	1734.63
814.94	1687.53
815.12	1621.99
815.29	1763.30
815.46	1701.86
815.63	1720.29
815.81	1693.67
815.98	1658.85
816.15	1640.42
816.33	1710.05
816.50	1644.52
816.67	1632.23
816.84	1732.58
817.02	1626.09
817.19	1662.95
817.36	1705.96
817.53	1744.87
817.71	1560.55
817.88	1673.19
818.05	1660.90
818.22	1705.96
818.40	1877.99
818.57	1716.20
818.74	1744.87
818.91	1701.86
819.09	1791.97
819.26	1806.31
819.43	1685.48
819.60	1722.34
819.78	1740.77
819.95	1849.32
820.12	1667.05
820.29	1720.29
820.47	1710.05
820.64	1687.53
820.81	1644.52
820.98	1667.05
821.15	1644.52
821.33	1667.05
821.50	1644.52
821.67	1771.49
821.84	1562.60
822.02	1742.82
822.19	1791.97
822.36	1605.61
822.53	1603.56
822.70	1689.57
822.88	1632.23
823.05	1761.25
823.22	1689.57
823.39	1802.21
823.56	1695.72
823.74	1849.32
823.91	1613.80
824.08	1558.50
824.25	1667.05
824.42	1697.77
824.60	1621.99
824.77	1632.23
824.94	1699.81
825.11	1667.05
825.28	1632.23
825.45	1701.86
825.63	1693.67
825.80	1662.95
825.97	1710.05
826.14	1708.01
826.31	1587.18
826.48	1769.44
826.66	1593.32
826.83	1720.29
827.00	1693.67
827.17	1617.90
827.34	1683.43
827.51	1644.52
827.69	1619.94
827.86	1632.23
828.03	1601.51
828.20	1671.14
828.37	1642.47
828.54	1771.49
828.71	1675.24
828.89	1791.97
829.06	1697.77
829.23	1781.73
829.40	1599.46
829.57	1652.71
829.74	1738.73
829.91	1611.75
830.09	1609.70
830.26	1785.83
830.43	1699.81
830.60	1757.16
830.77	1740.77
830.94	1728.49
831.11	1757.16
831.28	1722.34
831.46	1785.83
831.63	1642.47
831.80	1787.88
831.97	1667.05
832.14	1652.71
832.31	1804.26
832.48	1638.38
832.65	1685.48
832.82	1757.16
832.99	1673.19
833.17	1660.90
833.34	1789.92
833.51	1699.81
833.68	1640.42
833.85	1730.53
834.02	1658.85
834.19	1628.14
834.36	1695.72
834.53	1699.81
834.70	1740.77
834.87	1701.86
835.04	1697.77
835.22	1624.04
835.39	1665.00
835.56	1654.76
835.73	1677.29
835.90	1710.05
836.07	1621.99
836.24	1667.05
836.41	1665.00
836.58	1630.18
836.75	1777.64
836.92	1650.66
837.09	1667.05
837.26	1722.34
837.43	1667.05
837.60	1728.49
837.77	1626.09
837.94	1708.01
838.12	1751.01
838.29	1736.68
838.46	1619.94
838.63	1691.62
838.80	1732.58
838.97	1693.67
839.14	1714.15
839.31	1744.87
839.48	1767.40
839.65	1675.24
839.82	1699.81
839.99	1728.49
840.16	1697.77
840.33	1650.66
840.50	1656.81
840.67	1658.85
840.84	1607.66
841.01	1662.95
841.18	1722.34
841.35	1701.86
841.52	1734.63
841.69	1871.84
841.86	1736.68
842.03	1753.06
842.20	1701.86
842.37	1656.81
842.54	1722.34
842.71	1705.96
842.88	1595.37
843.05	1816.55
843.22	1624.04
843.39	1742.82
843.56	1646.57
843.73	1697.77
843.90	1695.72
844.07	1691.62
844.24	1746.92
844.41	1742.82
844.58	1732.58
844.75	1730.53
844.92	1650.66
845.09	1712.10
845.26	1626.09
845.43	1732.58
845.60	1712.10
845.77	1736.68
845.94	1744.87
846.10	1716.20
846.27	1632.23
846.44	1599.46
846.61	1650.66
846.78	1734.63
846.95	1722.34
847.12	1658.85
847.29	1665.00
847.46	1527.78
847.63	1738.73
847.80	1685.48
847.97	1701.86
848.14	1830.88
848.31	1689.57
848.48	1560.55
848.65	1667.05
848.82	1640.42
848.98	1777.64
849.15	1814.50
849.32	1808.36
849.49	1757.16
849.66	1734.63
849.83	1648.61
850.00	1597.42
850.17	1746.92
850.34	1591.27
850.51	1734.63
850.68	1648.61
850.85	1871.84
851.01	1755.11
851.18	1683.43
851.35	1667.05
851.52	1662.95
851.69	1718.25
851.86	1665.00
852.03	1699.81
852.20	1804.26
852.37	1726.44
852.53	1656.81
852.70	1714.15
852.87	1757.16
853.04	1617.90
853.21	1736.68
853.38	1808.36
853.55	1703.91
853.72	1767.40
853.89	1621.99
854.05	1591.27
854.22	1705.96
854.39	1675.24
854.56	1740.77
854.73	1685.48
854.90	1644.52
855.07	1757.16
855.23	1732.58
855.40	1689.57
855.57	1716.20
855.74	1648.61
855.91	1853.41
856.08	1556.46
856.25	1654.76
856.41	1599.46
856.58	1701.86
856.75	1738.73
856.92	1658.85
857.09	1697.77
857.26	1603.56
857.42	1665.00
857.59	1681.38
857.76	1648.61
857.93	1703.91
858.10	1726.44
858.27	1728.49
858.43	1695.72
858.60	1681.38
858.77	1638.38
858.94	1724.39
859.11	1738.73
859.27	1603.56
859.44	1626.09
859.61	1779.68
859.78	1705.96
859.95	1697.77
860.12	1640.42
860.28	1798.12
860.45	1847.27
860.62	1681.38
860.79	1689.57
860.95	1632.23
861.12	1615.85
861.29	1665.00
861.46	1683.43
861.63	1691.62
861.79	1738.73
861.96	1630.18
862.13	1689.57
862.30	1771.49
862.47	1615.85
862.63	1689.57
862.80	1742.82
862.97	1673.19
863.14	1738.73
863.30	1699.81
863.47	1673.19
863.64	1779.68
863.81	1710.05
863.97	1673.19
864.14	1748.97
864.31	1687.53
864.48	1726.44
864.65	1718.25
864.81	1781.73
864.98	1703.91
865.15	1685.48
865.32	1777.64
865.48	1787.88
865.65	1724.39
865.82	1644.52
865.98	1705.96
866.15	1730.53
866.32	1685.48
866.49	1683.43
866.65	1712.10
866.82	1738.73
866.99	1701.86
867.16	1601.51
867.32	1710.05
867.49	1689.57
867.66	1699.81
867.83	1699.81
867.99	1619.94
868.16	1640.42
868.33	1689.57
868.49	1742.82
868.66	1630.18
868.83	1798.12
868.99	1742.82
869.16	1677.29
869.33	1773.54
869.50	1716.20
869.66	1654.76
869.83	1669.09
870.00	1628.14
870.16	1669.09
870.33	1740.77
870.50	1843.17
870.66	1667.05
870.83	1771.49
871.00	1755.11
871.17	1703.91
871.33	1701.86
871.50	1662.95
871.67	1769.44
871.83	1687.53
872.00	1746.92
872.17	1652.71
872.33	1775.59
872.50	1781.73
872.67	1662.95
872.83	1613.80
873.00	1710.05
873.17	1658.85
873.33	1703.91
873.50	1785.83
873.67	1671.14
873.83	1648.61
874.00	1730.53
874.16	1722.34
874.33	1683.43
874.50	1656.81
874.66	1738.73
874.83	1615.85
875.00	1728.49
875.16	1771.49
875.33	1808.36
875.50	1542.12
875.66	1697.77
875.83	1740.77
875.99	1806.31
876.16	1613.80
876.33	1656.81
876.49	1695.72
876.66	1722.34
876.83	1624.04
876.99	1607.66
877.16	1640.42
877.32	1658.85
877.49	1652.71
877.66	1777.64
877.82	1785.83
877.99	1681.38
878.15	1775.59
878.32	1683.43
878.49	1695.72
878.65	1734.63
878.82	1738.73
878.98	1650.66
879.15	1773.54
879.32	1658.85
879.48	1710.05
879.65	1730.53
879.81	1705.96
879.98	1677.29
880.15	1687.53
880.31	1773.54
880.48	1679.33
880.64	1769.44
880.81	1681.38
880.97	1783.78
881.14	1755.11
881.31	1568.74
881.47	1886.18
881.64	1691.62
881.80	1691.62
881.97	1662.95
882.13	1759.21
882.30	1728.49
882.47	1640.42
882.63	1714.15
882.80	1589.22
882.96	1716.20
883.13	1771.49
883.29	1718.25
883.46	1687.53
883.62	1753.06
883.79	1724.39
883.95	1652.71
884.12	1712.10
884.29	1736.68
884.45	1617.90
884.62	1685.48
884.78	1718.25
884.95	1871.84
885.11	1568.74
885.28	1773.54
885.44	1634.28
885.61	1814.50
885.77	1828.84
885.94	1753.06
886.10	1718.25
886.27	1683.43
886.43	1755.11
886.60	1742.82
886.76	1728.49
886.93	1609.70
887.09	1757.16
887.26	1705.96
887.42	1705.96
887.59	1748.97
887.75	1808.36
887.92	1761.25
888.08	1742.82
888.25	1734.63
888.41	1714.15
888.58	1656.81
888.74	1601.51
888.91	1665.00
>>>>>End Processed Spectral Data<<<<<
