SpectraSuite Data File
++++++++++++++++++++++++++++++++++++
Date: Mon Jun 06 17:15:17 CEST 2016
User: root
Dark Spectrum Present: No
Reference Spectrum Present: No
Number of Sampled Component Spectra: 1
Spectrometers: USB4C02835
Integration Time (usec): 100000 (USB4C02835)
Spectra Averaged: 1 (USB4C02835)
Boxcar Smoothing: 0 (USB4C02835)
Correct for Electrical Dark: No (USB4C02835)
Strobe/Lamp Enabled: No (USB4C02835)
Correct for Detector Non-linearity: No (USB4C02835)
Correct for Stray Light: No (USB4C02835)
Number of Pixels in Processed Spectrum: 3648
>>>>>Begin Processed Spectral Data<<<<<
177.47	1558.50
177.69	1558.50
177.91	1558.50
178.13	1392.62
178.36	1447.91
178.58	1673.19
178.80	1746.92
179.02	1626.09
179.24	1671.14
179.46	1671.14
179.68	1771.49
179.90	1755.11
180.13	1656.81
180.35	1685.48
180.57	1667.05
180.79	1775.59
181.01	1636.33
181.23	1736.68
181.45	1818.60
181.67	1728.49
181.90	1710.05
182.12	1660.90
182.34	1685.48
182.56	1771.49
182.78	1689.57
183.00	1728.49
183.22	1734.63
183.44	1656.81
183.66	1851.36
183.89	1734.63
184.11	1658.85
184.33	1740.77
184.55	1779.68
184.77	1710.05
184.99	1753.06
185.21	1699.81
185.43	1873.89
185.65	1724.39
185.87	1675.24
186.10	1863.65
186.32	1849.32
186.54	1802.21
186.76	1718.25
186.98	1869.80
187.20	1699.81
187.42	1708.01
187.64	1740.77
187.86	1685.48
188.08	1744.87
188.30	1740.77
188.52	1685.48
188.75	1755.11
188.97	1810.40
189.19	1665.00
189.41	1656.81
189.63	1728.49
189.85	1673.19
190.07	1578.98
190.29	1724.39
190.51	1720.29
190.73	1615.85
190.95	1742.82
191.17	1679.33
191.39	1574.89
191.61	1650.66
191.84	1687.53
192.06	1769.44
192.28	1570.79
192.50	1896.42
192.72	1806.31
192.94	1767.40
193.16	1763.30
193.38	1789.92
193.60	1669.09
193.82	1765.35
194.04	1685.48
194.26	1769.44
194.48	1613.80
194.70	1632.23
194.92	1660.90
195.14	1728.49
195.36	1693.67
195.58	1705.96
195.80	1726.44
196.02	1630.18
196.24	1720.29
196.46	1714.15
196.69	1714.15
196.91	1789.92
197.13	1665.00
197.35	1699.81
197.57	1826.79
197.79	1705.96
198.01	1650.66
198.23	1744.87
198.45	1761.25
198.67	1671.14
198.89	1607.66
199.11	1701.86
199.33	1703.91
199.55	1611.75
199.77	1724.39
199.99	1767.40
200.21	1644.52
200.43	1812.45
200.65	1718.25
200.87	1566.70
201.09	1673.19
201.31	1759.21
201.53	1757.16
201.75	1730.53
201.97	1751.01
202.19	1798.12
202.41	1775.59
202.63	1767.40
202.85	1808.36
203.07	1769.44
203.29	1679.33
203.51	1624.04
203.73	1621.99
203.95	1871.84
204.17	1712.10
204.39	1730.53
204.61	1658.85
204.83	1699.81
205.05	1726.44
205.27	1814.50
205.49	1828.84
205.71	1660.90
205.93	1644.52
206.15	1654.76
206.37	1648.61
206.59	1763.30
206.81	1689.57
207.03	1632.23
207.25	1681.38
207.47	1794.02
207.69	1691.62
207.91	1853.41
208.13	1779.68
208.34	1634.28
208.56	1609.70
208.78	1718.25
209.00	1705.96
209.22	1675.24
209.44	1701.86
209.66	1671.14
209.88	1701.86
210.10	1736.68
210.32	1681.38
210.54	1785.83
210.76	1705.96
210.98	1779.68
211.20	1621.99
211.42	1628.14
211.64	1791.97
211.86	1736.68
212.08	1667.05
212.30	1789.92
212.52	1740.77
212.74	1755.11
212.96	1710.05
213.17	1720.29
213.39	1699.81
213.61	1759.21
213.83	1794.02
214.05	1605.61
214.27	1701.86
214.49	1685.48
214.71	1675.24
214.93	1742.82
215.15	1697.77
215.37	1724.39
215.59	1583.08
215.81	1732.58
216.03	1751.01
216.24	1673.19
216.46	1748.97
216.68	1714.15
216.90	1740.77
217.12	1748.97
217.34	1746.92
217.56	1791.97
217.78	1789.92
218.00	1728.49
218.22	1730.53
218.44	1724.39
218.66	1624.04
218.87	1794.02
219.09	1693.67
219.31	1718.25
219.53	1671.14
219.75	1673.19
219.97	1742.82
220.19	1714.15
220.41	1734.63
220.63	1779.68
220.85	1673.19
221.06	1759.21
221.28	1658.85
221.50	1728.49
221.72	1654.76
221.94	1691.62
222.16	1718.25
222.38	1759.21
222.60	1796.07
222.82	1624.04
223.03	1802.21
223.25	1656.81
223.47	1796.07
223.69	1820.64
223.91	1732.58
224.13	1726.44
224.35	1650.66
224.57	1802.21
224.78	1796.07
225.00	1738.73
225.22	1662.95
225.44	1777.64
225.66	1753.06
225.88	1726.44
226.10	1710.05
226.32	1746.92
226.53	1732.58
226.75	1626.09
226.97	1677.29
227.19	1691.62
227.41	1630.18
227.63	1691.62
227.85	1609.70
228.06	1671.14
228.28	1722.34
228.50	1738.73
228.72	1710.05
228.94	1697.77
229.16	1595.37
229.37	1755.11
229.59	1705.96
229.81	1765.35
230.03	1675.24
230.25	1640.42
230.47	1742.82
230.69	1599.46
230.90	1753.06
231.12	1726.44
231.34	1759.21
231.56	1777.64
231.78	1648.61
232.00	1697.77
232.21	1734.63
232.43	1671.14
232.65	1619.94
232.87	1705.96
233.09	1654.76
233.30	1599.46
233.52	1746.92
233.74	1705.96
233.96	1746.92
234.18	1665.00
234.40	1662.95
234.61	1853.41
234.83	1693.67
235.05	1638.38
235.27	1851.36
235.49	1843.17
235.70	1697.77
235.92	1851.36
236.14	1759.21
236.36	1861.60
236.58	1599.46
236.79	1828.84
237.01	1652.71
237.23	1710.05
237.45	1783.78
237.67	1681.38
237.88	1726.44
238.10	1877.99
238.32	1714.15
238.54	1624.04
238.76	1720.29
238.97	1617.90
239.19	1667.05
239.41	1789.92
239.63	1722.34
239.85	1708.01
240.06	1673.19
240.28	1691.62
240.50	1751.01
240.72	1845.22
240.93	1767.40
241.15	1783.78
241.37	1691.62
241.59	1787.88
241.81	1722.34
242.02	1738.73
242.24	1767.40
242.46	1751.01
242.68	1630.18
242.89	1703.91
243.11	1828.84
243.33	1738.73
243.55	1681.38
243.76	1724.39
243.98	1632.23
244.20	1665.00
244.42	1757.16
244.64	1669.09
244.85	1609.70
245.07	1636.33
245.29	1740.77
245.51	1796.07
245.72	1736.68
245.94	1736.68
246.16	1701.86
246.38	1746.92
246.59	1679.33
246.81	1716.20
247.03	1705.96
247.24	1595.37
247.46	1703.91
247.68	1714.15
247.90	1695.72
248.11	1638.38
248.33	1785.83
248.55	1744.87
248.77	1685.48
248.98	1722.34
249.20	1798.12
249.42	1710.05
249.64	1755.11
249.85	1695.72
250.07	1683.43
250.29	1744.87
250.50	1714.15
250.72	1675.24
250.94	1773.54
251.16	1847.27
251.37	1767.40
251.59	1665.00
251.81	1751.01
252.02	1779.68
252.24	1660.90
252.46	1783.78
252.68	1687.53
252.89	1583.08
253.11	1650.66
253.33	1771.49
253.54	1767.40
253.76	1695.72
253.98	1738.73
254.20	1658.85
254.41	1527.78
254.63	1712.10
254.85	1689.57
255.06	1724.39
255.28	1775.59
255.50	1677.29
255.71	1687.53
255.93	1689.57
256.15	1730.53
256.36	1744.87
256.58	1708.01
256.80	1806.31
257.02	1701.86
257.23	1669.09
257.45	1777.64
257.67	1751.01
257.88	1689.57
258.10	1753.06
258.32	1648.61
258.53	1601.51
258.75	1820.64
258.97	1697.77
259.18	1740.77
259.40	1748.97
259.62	1884.13
259.83	1746.92
260.05	1759.21
260.27	1984.48
260.48	1736.68
260.70	1730.53
260.92	1697.77
261.13	1726.44
261.35	1804.26
261.57	1679.33
261.78	1605.61
262.00	1654.76
262.22	1757.16
262.43	1595.37
262.65	1632.23
262.86	1669.09
263.08	1832.93
263.30	1775.59
263.51	1673.19
263.73	1630.18
263.95	1861.60
264.16	1712.10
264.38	1720.29
264.60	1744.87
264.81	1689.57
265.03	1839.08
265.25	1771.49
265.46	1708.01
265.68	1791.97
265.89	1746.92
266.11	1630.18
266.33	1714.15
266.54	1859.56
266.76	1679.33
266.98	1726.44
267.19	1800.16
267.41	1783.78
267.62	1726.44
267.84	1665.00
268.06	1771.49
268.27	1736.68
268.49	1767.40
268.70	1806.31
268.92	1667.05
269.14	1667.05
269.35	1628.14
269.57	1724.39
269.79	1810.40
270.00	1744.87
270.22	1802.21
270.43	1705.96
270.65	1617.90
270.87	1708.01
271.08	1794.02
271.30	1757.16
271.51	1665.00
271.73	1734.63
271.95	1800.16
272.16	1701.86
272.38	1738.73
272.59	1665.00
272.81	1712.10
273.02	1714.15
273.24	1818.60
273.46	1748.97
273.67	1648.61
273.89	1683.43
274.10	1687.53
274.32	1755.11
274.54	1710.05
274.75	1699.81
274.97	1724.39
275.18	1695.72
275.40	1683.43
275.61	1716.20
275.83	1693.67
276.05	1624.04
276.26	1742.82
276.48	1748.97
276.69	1697.77
276.91	1621.99
277.12	1724.39
277.34	1779.68
277.55	1781.73
277.77	1746.92
277.99	1746.92
278.20	1710.05
278.42	1619.94
278.63	1671.14
278.85	1669.09
279.06	1654.76
279.28	1667.05
279.49	1783.78
279.71	1767.40
279.93	1765.35
280.14	1656.81
280.36	1607.66
280.57	1841.12
280.79	1685.48
281.00	1751.01
281.22	1693.67
281.43	1742.82
281.65	1589.22
281.86	1642.47
282.08	1701.86
282.29	1847.27
282.51	1662.95
282.73	1611.75
282.94	1662.95
283.16	1746.92
283.37	1794.02
283.59	1730.53
283.80	1703.91
284.02	1693.67
284.23	1767.40
284.45	1611.75
284.66	1621.99
284.88	1732.58
285.09	1738.73
285.31	1746.92
285.52	1826.79
285.74	1624.04
285.95	1777.64
286.17	1816.55
286.38	1804.26
286.60	1609.70
286.81	1679.33
287.03	1677.29
287.24	1744.87
287.46	1710.05
287.67	1681.38
287.89	1863.65
288.10	1732.58
288.32	1732.58
288.53	1839.08
288.75	1660.90
288.96	1798.12
289.18	1681.38
289.39	1740.77
289.61	1796.07
289.82	1851.36
290.04	1830.88
290.25	1763.30
290.47	1695.72
290.68	1753.06
290.90	1767.40
291.11	1632.23
291.33	1751.01
291.54	1703.91
291.76	1687.53
291.97	1708.01
292.18	1769.44
292.40	1708.01
292.61	1748.97
292.83	1828.84
293.04	1732.58
293.26	1748.97
293.47	1662.95
293.69	1681.38
293.90	1730.53
294.12	1789.92
294.33	1681.38
294.55	1683.43
294.76	1787.88
294.97	1791.97
295.19	1830.88
295.40	1761.25
295.62	1763.30
295.83	1763.30
296.05	1617.90
296.26	1734.63
296.48	1665.00
296.69	1765.35
296.90	1720.29
297.12	1728.49
297.33	1765.35
297.55	1730.53
297.76	1746.92
297.98	1783.78
298.19	1703.91
298.41	1736.68
298.62	1677.29
298.83	1810.40
299.05	1744.87
299.26	1601.51
299.48	1740.77
299.69	1705.96
299.90	1732.58
300.12	1626.09
300.33	1726.44
300.55	1671.14
300.76	1830.88
300.98	1611.75
301.19	1695.72
301.40	1646.57
301.62	1693.67
301.83	1736.68
302.05	1751.01
302.26	1769.44
302.47	1761.25
302.69	1626.09
302.90	1701.86
303.12	1638.38
303.33	1734.63
303.54	1763.30
303.76	1716.20
303.97	1738.73
304.19	1718.25
304.40	1755.11
304.61	1781.73
304.83	1869.80
305.04	1802.21
305.26	1734.63
305.47	1675.24
305.68	1671.14
305.90	1642.47
306.11	1730.53
306.33	1751.01
306.54	1726.44
306.75	1632.23
306.97	1632.23
307.18	1652.71
307.39	1677.29
307.61	1765.35
307.82	1685.48
308.04	1685.48
308.25	1652.71
308.46	1759.21
308.68	1734.63
308.89	1722.34
309.10	1763.30
309.32	1791.97
309.53	1566.70
309.74	1794.02
309.96	1681.38
310.17	1730.53
310.39	1648.61
310.60	1726.44
310.81	1697.77
311.03	1601.51
311.24	1773.54
311.45	1722.34
311.67	1816.55
311.88	1673.19
312.09	1679.33
312.31	1636.33
312.52	1730.53
312.73	1748.97
312.95	1665.00
313.16	1677.29
313.37	1789.92
313.59	1748.97
313.80	1734.63
314.01	1806.31
314.23	1605.61
314.44	1648.61
314.65	1615.85
314.87	1697.77
315.08	1728.49
315.29	1660.90
315.51	1710.05
315.72	1697.77
315.93	1888.23
316.15	1880.04
316.36	1634.28
316.57	1714.15
316.79	1755.11
317.00	1734.63
317.21	1673.19
317.43	1818.60
317.64	1736.68
317.85	1626.09
318.07	1665.00
318.28	1720.29
318.49	1900.52
318.70	1929.19
318.92	1834.98
319.13	1880.04
319.34	1845.22
319.56	1789.92
319.77	1755.11
319.98	1828.84
320.20	1828.84
320.41	1763.30
320.62	1763.30
320.83	1654.76
321.05	1900.52
321.26	1757.16
321.47	1708.01
321.69	1830.88
321.90	1671.14
322.11	1646.57
322.32	1740.77
322.54	1806.31
322.75	1693.67
322.96	1894.37
323.18	1658.85
323.39	1656.81
323.60	1693.67
323.81	1757.16
324.03	1630.18
324.24	1732.58
324.45	1740.77
324.66	1742.82
324.88	1791.97
325.09	1730.53
325.30	1724.39
325.52	1724.39
325.73	1748.97
325.94	1646.57
326.15	1599.46
326.37	1662.95
326.58	1806.31
326.79	1755.11
327.00	1599.46
327.22	1691.62
327.43	1708.01
327.64	1660.90
327.85	1738.73
328.07	1710.05
328.28	1837.03
328.49	1722.34
328.70	1728.49
328.92	1775.59
329.13	1705.96
329.34	1730.53
329.55	1804.26
329.76	1708.01
329.98	1742.82
330.19	1832.93
330.40	1660.90
330.61	1773.54
330.83	1681.38
331.04	1609.70
331.25	1701.86
331.46	1699.81
331.68	1697.77
331.89	1779.68
332.10	1779.68
332.31	1617.90
332.52	1789.92
332.74	1751.01
332.95	1677.29
333.16	1724.39
333.37	1783.78
333.58	1748.97
333.80	1734.63
334.01	1634.28
334.22	1740.77
334.43	1689.57
334.64	1640.42
334.86	1701.86
335.07	1656.81
335.28	1712.10
335.49	1605.61
335.70	1708.01
335.92	1830.88
336.13	1804.26
336.34	1789.92
336.55	1757.16
336.76	1783.78
336.98	1583.08
337.19	1660.90
337.40	1794.02
337.61	1818.60
337.82	1699.81
338.04	1726.44
338.25	1677.29
338.46	1753.06
338.67	1716.20
338.88	1679.33
339.09	1644.52
339.31	1683.43
339.52	1642.47
339.73	1595.37
339.94	1691.62
340.15	1763.30
340.36	1685.48
340.58	1759.21
340.79	1624.04
341.00	1744.87
341.21	1636.33
341.42	1789.92
341.63	1773.54
341.85	1783.78
342.06	1689.57
342.27	1708.01
342.48	1708.01
342.69	1691.62
342.90	1746.92
343.12	1755.11
343.33	1703.91
343.54	1708.01
343.75	1794.02
343.96	1665.00
344.17	1665.00
344.38	1720.29
344.60	1683.43
344.81	1636.33
345.02	1628.14
345.23	1877.99
345.44	1771.49
345.65	1849.32
345.86	1693.67
346.07	1665.00
346.29	1662.95
346.50	1718.25
346.71	1804.26
346.92	1738.73
347.13	1841.12
347.34	1714.15
347.55	1714.15
347.76	1708.01
347.98	1626.09
348.19	1619.94
348.40	1755.11
348.61	1675.24
348.82	1802.21
349.03	1714.15
349.24	1673.19
349.45	1822.69
349.66	1718.25
349.88	1703.91
350.09	1630.18
350.30	1763.30
350.51	1779.68
350.72	1765.35
350.93	1736.68
351.14	1716.20
351.35	1701.86
351.56	1716.20
351.77	1708.01
351.99	1767.40
352.20	1814.50
352.41	1773.54
352.62	1630.18
352.83	1716.20
353.04	1697.77
353.25	1730.53
353.46	1775.59
353.67	1748.97
353.88	1599.46
354.09	1794.02
354.30	1744.87
354.52	1777.64
354.73	1681.38
354.94	1714.15
355.15	1757.16
355.36	1832.93
355.57	1626.09
355.78	1697.77
355.99	1699.81
356.20	1753.06
356.41	1808.36
356.62	1724.39
356.83	1744.87
357.04	1763.30
357.25	1638.38
357.46	1728.49
357.68	1611.75
357.89	1662.95
358.10	1730.53
358.31	1722.34
358.52	1783.78
358.73	1654.76
358.94	1609.70
359.15	1574.89
359.36	1730.53
359.57	1759.21
359.78	1669.09
359.99	1730.53
360.20	1605.61
360.41	1740.77
360.62	1736.68
360.83	1763.30
361.04	1736.68
361.25	1757.16
361.46	1796.07
361.67	1759.21
361.88	1763.30
362.09	1818.60
362.30	1740.77
362.51	1722.34
362.72	1789.92
362.93	1746.92
363.14	1802.21
363.35	1710.05
363.56	1640.42
363.78	1755.11
363.99	1783.78
364.20	1673.19
364.41	1693.67
364.62	1716.20
364.83	1722.34
365.04	1808.36
365.25	1695.72
365.46	1824.74
365.67	1669.09
365.88	1642.47
366.09	1722.34
366.30	1665.00
366.51	1736.68
366.72	1681.38
366.93	1699.81
367.14	1697.77
367.35	1810.40
367.56	1665.00
367.77	1894.37
367.98	1671.14
368.18	1798.12
368.39	1705.96
368.60	1675.24
368.81	1800.16
369.02	1746.92
369.23	1714.15
369.44	1605.61
369.65	1611.75
369.86	1699.81
370.07	1775.59
370.28	1746.92
370.49	1773.54
370.70	1816.55
370.91	1652.71
371.12	1642.47
371.33	1865.70
371.54	1642.47
371.75	1841.12
371.96	1630.18
372.17	1712.10
372.38	1775.59
372.59	1748.97
372.80	1744.87
373.01	1683.43
373.22	1716.20
373.43	1763.30
373.64	1615.85
373.85	1730.53
374.06	1845.22
374.26	1742.82
374.47	1818.60
374.68	1742.82
374.89	1759.21
375.10	1650.66
375.31	1722.34
375.52	1769.44
375.73	1759.21
375.94	1701.86
376.15	1839.08
376.36	1636.33
376.57	1640.42
376.78	1734.63
376.99	1771.49
377.20	1746.92
377.40	1609.70
377.61	1781.73
377.82	1660.90
378.03	1888.23
378.24	1755.11
378.45	1703.91
378.66	1683.43
378.87	1677.29
379.08	1624.04
379.29	1728.49
379.50	1691.62
379.71	1740.77
379.91	1765.35
380.12	1656.81
380.33	1728.49
380.54	1636.33
380.75	1738.73
380.96	1812.45
381.17	1753.06
381.38	1687.53
381.59	1699.81
381.80	1734.63
382.00	1714.15
382.21	1748.97
382.42	1894.37
382.63	1898.47
382.84	1751.01
383.05	1771.49
383.26	1775.59
383.47	1724.39
383.68	1734.63
383.88	1800.16
384.09	1720.29
384.30	1783.78
384.51	1701.86
384.72	1726.44
384.93	1613.80
385.14	1738.73
385.35	1746.92
385.55	1685.48
385.76	1855.46
385.97	1751.01
386.18	1640.42
386.39	1669.09
386.60	1681.38
386.81	1773.54
387.02	1673.19
387.22	1662.95
387.43	1791.97
387.64	1779.68
387.85	1851.36
388.06	2256.86
388.27	4116.42
388.48	6690.71
388.68	8261.51
388.89	9682.80
389.10	9897.83
389.31	8546.17
389.52	7796.62
389.73	6791.06
389.93	6363.04
390.14	5924.77
390.35	5214.13
390.56	4599.74
390.77	3686.34
390.98	3129.30
391.18	2613.21
391.39	2154.46
391.60	1818.60
391.81	1783.78
392.02	1634.28
392.23	1882.08
392.43	1763.30
392.64	1863.65
392.85	1738.73
393.06	1769.44
393.27	1714.15
393.47	1652.71
393.68	1730.53
393.89	1761.25
394.10	1699.81
394.31	1701.86
394.52	1601.51
394.72	1724.39
394.93	1783.78
395.14	1650.66
395.35	1761.25
395.56	1673.19
395.76	1705.96
395.97	1740.77
396.18	1746.92
396.39	1798.12
396.60	2060.26
396.80	1931.23
397.01	1828.84
397.22	1841.12
397.43	1763.30
397.64	1839.08
397.84	1757.16
398.05	1871.84
398.26	1732.58
398.47	1789.92
398.67	1783.78
398.88	1746.92
399.09	1736.68
399.30	1718.25
399.51	1771.49
399.71	1685.48
399.92	1693.67
400.13	1755.11
400.34	1724.39
400.54	1681.38
400.75	1867.75
400.96	1748.97
401.17	1839.08
401.37	1787.88
401.58	1789.92
401.79	1757.16
402.00	1871.84
402.21	1968.10
402.41	2000.87
402.62	2000.87
402.83	2060.26
403.04	1986.53
403.24	2035.68
403.45	1865.70
403.66	1902.56
403.87	1830.88
404.07	1898.47
404.28	1957.86
404.49	1779.68
404.70	1839.08
404.90	1765.35
405.11	1746.92
405.32	1746.92
405.52	1679.33
405.73	1720.29
405.94	1669.09
406.15	1652.71
406.35	1812.45
406.56	1732.58
406.77	1748.97
406.98	1722.34
407.18	1683.43
407.39	1828.84
407.60	1628.14
407.80	1693.67
408.01	1644.52
408.22	1671.14
408.43	1644.52
408.63	1703.91
408.84	1699.81
409.05	1724.39
409.25	1636.33
409.46	1656.81
409.67	1767.40
409.88	1705.96
410.08	1660.90
410.29	1755.11
410.50	1744.87
410.70	1753.06
410.91	1636.33
411.12	1779.68
411.32	1699.81
411.53	1681.38
411.74	1839.08
411.95	1828.84
412.15	1726.44
412.36	1843.17
412.57	1759.21
412.77	1755.11
412.98	1755.11
413.19	1691.62
413.39	1779.68
413.60	1822.69
413.81	1804.26
414.01	1626.09
414.22	1730.53
414.43	1837.03
414.63	1718.25
414.84	1742.82
415.05	1796.07
415.25	1660.90
415.46	1773.54
415.67	1685.48
415.87	1787.88
416.08	1775.59
416.29	1683.43
416.49	1726.44
416.70	1722.34
416.91	1656.81
417.11	1744.87
417.32	1738.73
417.53	1802.21
417.73	1771.49
417.94	1675.24
418.15	1718.25
418.35	1716.20
418.56	1753.06
418.77	1806.31
418.97	1705.96
419.18	1656.81
419.38	1621.99
419.59	1660.90
419.80	1767.40
420.00	1701.86
420.21	1705.96
420.42	1808.36
420.62	1734.63
420.83	1712.10
421.04	1763.30
421.24	1683.43
421.45	1751.01
421.65	1714.15
421.86	1777.64
422.07	1683.43
422.27	1689.57
422.48	1810.40
422.69	1624.04
422.89	1720.29
423.10	1681.38
423.30	1603.56
423.51	1718.25
423.72	1740.77
423.92	1697.77
424.13	1609.70
424.33	1738.73
424.54	1787.88
424.75	1742.82
424.95	1849.32
425.16	1714.15
425.36	1710.05
425.57	1734.63
425.78	1722.34
425.98	1820.64
426.19	1636.33
426.39	1667.05
426.60	1693.67
426.81	1841.12
427.01	1669.09
427.22	1681.38
427.42	1576.94
427.63	1630.18
427.83	1755.11
428.04	1787.88
428.25	1697.77
428.45	1767.40
428.66	1787.88
428.86	1697.77
429.07	1656.81
429.28	1746.92
429.48	1738.73
429.69	1652.71
429.89	1748.97
430.10	1710.05
430.30	1767.40
430.51	1751.01
430.71	1656.81
430.92	1767.40
431.13	1695.72
431.33	1738.73
431.54	1779.68
431.74	1720.29
431.95	1873.89
432.15	1621.99
432.36	1730.53
432.56	1796.07
432.77	1857.51
432.98	1834.98
433.18	1701.86
433.39	1748.97
433.59	1794.02
433.80	1818.60
434.00	1826.79
434.21	1746.92
434.41	1650.66
434.62	1873.89
434.82	1685.48
435.03	1632.23
435.23	1710.05
435.44	1587.18
435.64	1701.86
435.85	1677.29
436.06	1781.73
436.26	1669.09
436.47	1683.43
436.67	1679.33
436.88	1669.09
437.08	1816.55
437.29	1824.74
437.49	1738.73
437.70	1759.21
437.90	1705.96
438.11	1845.22
438.31	1759.21
438.52	1802.21
438.72	1814.50
438.93	1890.28
439.13	1867.75
439.34	1855.46
439.54	1718.25
439.75	1847.27
439.95	1828.84
440.16	1720.29
440.36	1757.16
440.57	1806.31
440.77	1804.26
440.98	1699.81
441.18	1818.60
441.39	1724.39
441.59	1673.19
441.80	1916.90
442.00	1738.73
442.21	1896.42
442.41	1662.95
442.62	1759.21
442.82	1658.85
443.02	1683.43
443.23	1791.97
443.43	1708.01
443.64	1779.68
443.84	1648.61
444.05	1791.97
444.25	1753.06
444.46	1710.05
444.66	1742.82
444.87	1748.97
445.07	1671.14
445.28	1691.62
445.48	1816.55
445.69	1789.92
445.89	1902.56
446.09	1771.49
446.30	2031.58
446.50	2627.54
446.71	3688.39
446.91	4417.47
447.12	4663.22
447.32	4878.26
447.53	4349.89
447.73	3868.61
447.93	3557.32
448.14	3389.39
448.34	3221.45
448.55	2908.12
448.75	2811.86
448.96	2562.01
449.16	2484.19
449.36	2318.30
449.57	2023.39
449.77	1970.15
449.98	1839.08
450.18	1794.02
450.39	1791.97
450.59	1822.69
450.79	1761.25
451.00	1726.44
451.20	1796.07
451.41	1708.01
451.61	1804.26
451.81	1742.82
452.02	1644.52
452.22	1660.90
452.43	1740.77
452.63	1662.95
452.84	1759.21
453.04	1789.92
453.24	1718.25
453.45	1646.57
453.65	1662.95
453.86	1716.20
454.06	1796.07
454.26	1689.57
454.47	1744.87
454.67	1841.12
454.87	1804.26
455.08	1769.44
455.28	1869.80
455.49	1705.96
455.69	1738.73
455.89	1828.84
456.10	1857.51
456.30	1667.05
456.51	1720.29
456.71	1748.97
456.91	1726.44
457.12	1751.01
457.32	1751.01
457.52	1732.58
457.73	1705.96
457.93	1767.40
458.14	1673.19
458.34	1630.18
458.54	1734.63
458.75	1751.01
458.95	1726.44
459.15	1791.97
459.36	1703.91
459.56	1757.16
459.76	1828.84
459.97	1710.05
460.17	1769.44
460.37	1779.68
460.58	1703.91
460.78	1804.26
460.99	1689.57
461.19	1746.92
461.39	1689.57
461.60	1701.86
461.80	1820.64
462.00	1714.15
462.21	1722.34
462.41	1716.20
462.61	1656.81
462.82	1658.85
463.02	1806.31
463.22	1720.29
463.43	1822.69
463.63	1798.12
463.83	1761.25
464.04	1675.24
464.24	1789.92
464.44	1751.01
464.64	1789.92
464.85	1746.92
465.05	1814.50
465.25	1714.15
465.46	1769.44
465.66	1767.40
465.86	1765.35
466.07	1769.44
466.27	1751.01
466.47	1665.00
466.68	1720.29
466.88	1808.36
467.08	1701.86
467.29	1746.92
467.49	1753.06
467.69	1697.77
467.89	1722.34
468.10	1714.15
468.30	1761.25
468.50	1863.65
468.71	1732.58
468.91	1695.72
469.11	1818.60
469.31	1716.20
469.52	1718.25
469.72	1802.21
469.92	1808.36
470.13	1769.44
470.33	1812.45
470.53	1812.45
470.73	2076.64
470.94	2322.40
471.14	2265.05
471.34	2555.86
471.54	2385.88
471.75	2299.87
471.95	2099.17
472.15	2101.22
472.36	2133.98
472.56	2029.54
472.76	2086.88
472.96	2015.20
473.17	1968.10
473.37	1902.56
473.57	1810.40
473.77	1814.50
473.98	1697.77
474.18	1744.87
474.38	1855.46
474.58	1708.01
474.79	1701.86
474.99	1791.97
475.19	1787.88
475.39	1652.71
475.60	1742.82
475.80	1740.77
476.00	1718.25
476.20	1673.19
476.41	1742.82
476.61	1763.30
476.81	1834.98
477.01	1693.67
477.21	1906.66
477.42	1873.89
477.62	1681.38
477.82	1814.50
478.02	1716.20
478.23	1830.88
478.43	1621.99
478.63	1650.66
478.83	1789.92
479.03	1746.92
479.24	1791.97
479.44	1728.49
479.64	1615.85
479.84	1642.47
480.04	1736.68
480.25	1708.01
480.45	1740.77
480.65	1718.25
480.85	1824.74
481.06	1665.00
481.26	1822.69
481.46	1759.21
481.66	1751.01
481.86	1720.29
482.06	1730.53
482.27	1687.53
482.47	1650.66
482.67	1730.53
482.87	1730.53
483.07	1767.40
483.28	1660.90
483.48	1779.68
483.68	1673.19
483.88	1662.95
484.08	1607.66
484.29	1677.29
484.49	1798.12
484.69	1689.57
484.89	1845.22
485.09	1781.73
485.29	1779.68
485.50	1810.40
485.70	1679.33
485.90	1830.88
486.10	1751.01
486.30	1800.16
486.50	1834.98
486.71	1722.34
486.91	1652.71
487.11	1771.49
487.31	1705.96
487.51	1773.54
487.71	1718.25
487.91	1722.34
488.12	1744.87
488.32	1585.13
488.52	1714.15
488.72	1632.23
488.92	1763.30
489.12	1761.25
489.32	1837.03
489.53	1687.53
489.73	1613.80
489.93	1859.56
490.13	1718.25
490.33	1660.90
490.53	1763.30
490.73	1832.93
490.94	1630.18
491.14	1767.40
491.34	1828.84
491.54	2093.02
491.74	2576.34
491.94	3008.47
492.14	2975.70
492.34	3141.58
492.54	2760.66
492.75	2602.97
492.95	2389.98
493.15	2357.21
493.35	2336.73
493.55	2248.67
493.75	2195.42
493.95	2088.93
494.15	2009.06
494.35	1961.95
494.56	1867.75
494.76	1773.54
494.96	1779.68
495.16	1791.97
495.36	1736.68
495.56	1681.38
495.76	1732.58
495.96	1734.63
496.16	1671.14
496.36	1814.50
496.56	1687.53
496.77	1765.35
496.97	1761.25
497.17	1732.58
497.37	1695.72
497.57	1724.39
497.77	1701.86
497.97	1701.86
498.17	1705.96
498.37	1701.86
498.57	1728.49
498.77	1685.48
498.97	1769.44
499.17	1873.89
499.38	1708.01
499.58	1742.82
499.78	1816.55
499.98	1877.99
500.18	1763.30
500.38	1667.05
500.58	1908.71
500.78	2570.20
500.98	4648.89
501.18	5810.09
501.38	6809.50
501.58	7114.64
501.78	6735.77
501.98	5556.14
502.18	5179.31
502.38	4442.04
502.58	4159.42
502.78	3833.80
502.98	3655.62
503.18	3379.15
503.38	3174.35
503.59	2889.68
503.79	2674.65
503.99	2467.80
504.19	2328.54
504.39	2183.13
504.59	2174.94
504.79	2082.78
504.99	2070.50
505.19	1984.48
505.39	1902.56
505.59	1949.67
505.79	1875.94
505.99	1861.60
506.19	1820.64
506.39	1931.23
506.59	1855.46
506.79	1740.77
506.99	1822.69
507.19	1777.64
507.39	1796.07
507.59	1648.61
507.79	1697.77
507.99	1736.68
508.19	1736.68
508.39	1720.29
508.59	1673.19
508.79	1820.64
508.99	1832.93
509.19	1701.86
509.39	1789.92
509.59	1652.71
509.79	1644.52
509.99	1779.68
510.19	1826.79
510.39	1757.16
510.59	1773.54
510.79	1732.58
510.99	1703.91
511.19	1794.02
511.39	1814.50
511.59	1757.16
511.79	1855.46
511.99	1730.53
512.19	1810.40
512.38	1716.20
512.58	1718.25
512.78	1740.77
512.98	1759.21
513.18	1777.64
513.38	1673.19
513.58	1763.30
513.78	1728.49
513.98	1757.16
514.18	1775.59
514.38	1802.21
514.58	1791.97
514.78	1708.01
514.98	1654.76
515.18	1761.25
515.38	1677.29
515.58	1822.69
515.78	1714.15
515.98	1759.21
516.18	1746.92
516.38	1705.96
516.57	1675.24
516.77	1708.01
516.97	1865.70
517.17	1791.97
517.37	1636.33
517.57	1783.78
517.77	1755.11
517.97	1689.57
518.17	1732.58
518.37	1730.53
518.57	1726.44
518.77	1693.67
518.97	1689.57
519.16	1734.63
519.36	1816.55
519.56	1714.15
519.76	1705.96
519.96	1720.29
520.16	1865.70
520.36	1677.29
520.56	1873.89
520.76	1720.29
520.96	1716.20
521.16	1822.69
521.35	1845.22
521.55	1865.70
521.75	1734.63
521.95	1722.34
522.15	1693.67
522.35	1638.38
522.55	1691.62
522.75	1777.64
522.95	1814.50
523.14	1732.58
523.34	1695.72
523.54	1787.88
523.74	1730.53
523.94	1746.92
524.14	1634.28
524.34	1728.49
524.54	1861.60
524.73	1683.43
524.93	1724.39
525.13	1759.21
525.33	1734.63
525.53	1937.38
525.73	1746.92
525.93	1798.12
526.13	1746.92
526.32	1757.16
526.52	1796.07
526.72	1734.63
526.92	1767.40
527.12	1673.19
527.32	1675.24
527.52	1759.21
527.71	1802.21
527.91	1712.10
528.11	1683.43
528.31	1699.81
528.51	1679.33
528.71	1779.68
528.90	1722.34
529.10	1732.58
529.30	1818.60
529.50	1712.10
529.70	1738.73
529.90	1665.00
530.09	1783.78
530.29	1703.91
530.49	1624.04
530.69	1800.16
530.89	1753.06
531.09	1820.64
531.28	1753.06
531.48	1734.63
531.68	1822.69
531.88	1824.74
532.08	1787.88
532.28	1718.25
532.47	1791.97
532.67	1789.92
532.87	1791.97
533.07	1667.05
533.27	1736.68
533.46	1802.21
533.66	1728.49
533.86	1798.12
534.06	1746.92
534.26	1730.53
534.45	1746.92
534.65	1814.50
534.85	1830.88
535.05	1746.92
535.25	1810.40
535.44	1658.85
535.64	1781.73
535.84	1757.16
536.04	1710.05
536.24	1681.38
536.43	1746.92
536.63	1812.45
536.83	1783.78
537.03	1765.35
537.22	1619.94
537.42	1642.47
537.62	1757.16
537.82	1718.25
538.02	1832.93
538.21	1746.92
538.41	1927.14
538.61	1730.53
538.81	1710.05
539.00	1822.69
539.20	1599.46
539.40	1748.97
539.60	1818.60
539.79	1839.08
539.99	1652.71
540.19	1748.97
540.39	1742.82
540.58	1742.82
540.78	1746.92
540.98	1814.50
541.18	1748.97
541.37	1740.77
541.57	1765.35
541.77	1804.26
541.97	1605.61
542.16	1740.77
542.36	1689.57
542.56	1791.97
542.76	1847.27
542.95	1746.92
543.15	1775.59
543.35	1736.68
543.54	1687.53
543.74	1689.57
543.94	1832.93
544.14	1718.25
544.33	1794.02
544.53	1740.77
544.73	1769.44
544.93	1722.34
545.12	1800.16
545.32	1767.40
545.52	1777.64
545.71	1673.19
545.91	1767.40
546.11	1671.14
546.30	1710.05
546.50	1722.34
546.70	1738.73
546.90	1689.57
547.09	1689.57
547.29	1806.31
547.49	1841.12
547.68	1685.48
547.88	1714.15
548.08	1839.08
548.27	2209.76
548.47	1675.24
548.67	1710.05
548.87	1728.49
549.06	1665.00
549.26	1839.08
549.46	1818.60
549.65	1722.34
549.85	1820.64
550.05	1781.73
550.24	1679.33
550.44	1818.60
550.64	1683.43
550.83	1783.78
551.03	1796.07
551.23	1845.22
551.42	1738.73
551.62	1708.01
551.82	1763.30
552.01	1779.68
552.21	1781.73
552.41	1669.09
552.60	1779.68
552.80	1697.77
553.00	1646.57
553.19	1775.59
553.39	1910.75
553.59	1722.34
553.78	1708.01
553.98	1847.27
554.17	1646.57
554.37	1736.68
554.57	1751.01
554.76	1617.90
554.96	1689.57
555.16	1724.39
555.35	1828.84
555.55	1820.64
555.75	1765.35
555.94	1779.68
556.14	1656.81
556.33	1714.15
556.53	1759.21
556.73	1787.88
556.92	1820.64
557.12	1796.07
557.32	1886.18
557.51	1837.03
557.71	1814.50
557.90	1761.25
558.10	1791.97
558.30	1746.92
558.49	1718.25
558.69	1675.24
558.88	1740.77
559.08	1767.40
559.28	1669.09
559.47	1673.19
559.67	1853.41
559.86	1867.75
560.06	1814.50
560.26	1701.86
560.45	1722.34
560.65	1720.29
560.84	1935.33
561.04	1701.86
561.24	1763.30
561.43	1722.34
561.63	1882.08
561.82	1740.77
562.02	1771.49
562.22	1705.96
562.41	1712.10
562.61	1822.69
562.80	1701.86
563.00	1955.81
563.19	1779.68
563.39	1798.12
563.59	1804.26
563.78	1662.95
563.98	1656.81
564.17	1748.97
564.37	1640.42
564.56	1775.59
564.76	1685.48
564.96	1816.55
565.15	1734.63
565.35	1859.56
565.54	1701.86
565.74	1726.44
565.93	1800.16
566.13	1771.49
566.32	1808.36
566.52	1748.97
566.71	1699.81
566.91	1769.44
567.11	1785.83
567.30	1705.96
567.50	1681.38
567.69	1830.88
567.89	1738.73
568.08	1695.72
568.28	1837.03
568.47	1689.57
568.67	1865.70
568.86	1718.25
569.06	1806.31
569.25	1744.87
569.45	1632.23
569.64	1716.20
569.84	1724.39
570.04	1783.78
570.23	1734.63
570.43	1779.68
570.62	1691.62
570.82	1824.74
571.01	1693.67
571.21	1730.53
571.40	1687.53
571.60	1779.68
571.79	1673.19
571.99	1724.39
572.18	1824.74
572.38	1794.02
572.57	1759.21
572.77	1812.45
572.96	1959.91
573.16	1701.86
573.35	1689.57
573.55	1857.51
573.74	1755.11
573.94	1728.49
574.13	1738.73
574.33	1789.92
574.52	1785.83
574.71	1699.81
574.91	1759.21
575.10	1744.87
575.30	1732.58
575.49	1765.35
575.69	1705.96
575.88	1767.40
576.08	1783.78
576.27	1748.97
576.47	1751.01
576.66	1843.17
576.86	1771.49
577.05	1730.53
577.25	1781.73
577.44	1925.09
577.64	1718.25
577.83	1796.07
578.02	1771.49
578.22	1787.88
578.41	1837.03
578.61	1806.31
578.80	1642.47
579.00	1757.16
579.19	1708.01
579.39	1802.21
579.58	1820.64
579.77	1804.26
579.97	1845.22
580.16	1812.45
580.36	1783.78
580.55	1861.60
580.75	1857.51
580.94	1751.01
581.13	1851.36
581.33	1859.56
581.52	1744.87
581.72	1906.66
581.91	1875.94
582.11	1769.44
582.30	1787.88
582.49	1767.40
582.69	1847.27
582.88	1736.68
583.08	1755.11
583.27	1794.02
583.47	1763.30
583.66	1769.44
583.85	1642.47
584.05	1755.11
584.24	1810.40
584.44	1759.21
584.63	1847.27
584.82	1839.08
585.02	1798.12
585.21	1804.26
585.41	1818.60
585.60	1791.97
585.79	1972.19
585.99	1871.84
586.18	1851.36
586.37	2248.67
586.57	3526.60
586.76	9822.06
586.96	24399.50
587.15	34123.26
587.34	40336.79
587.54	42415.48
587.73	36648.40
587.93	26238.58
588.12	21194.43
588.31	18511.59
588.51	16381.70
588.70	15269.66
588.89	13948.72
589.09	12455.75
589.28	11020.12
589.47	9379.70
589.67	7923.59
589.86	6371.23
590.06	5038.00
590.25	3860.42
590.44	3117.01
590.64	2541.53
590.83	2314.20
591.02	2205.66
591.22	1898.47
591.41	1990.63
591.60	1875.94
591.80	1931.23
591.99	1796.07
592.18	1689.57
592.38	1843.17
592.57	1755.11
592.76	1812.45
592.96	1877.99
593.15	1789.92
593.34	1910.75
593.54	1839.08
593.73	1785.83
593.92	1767.40
594.12	1701.86
594.31	1810.40
594.50	1818.60
594.70	1740.77
594.89	1980.39
595.08	1638.38
595.28	1789.92
595.47	1882.08
595.66	1773.54
595.86	1689.57
596.05	1746.92
596.24	1724.39
596.43	1843.17
596.63	1908.71
596.82	1744.87
597.01	1681.38
597.21	1832.93
597.40	1779.68
597.59	1681.38
597.79	1710.05
597.98	1787.88
598.17	1753.06
598.36	1724.39
598.56	1812.45
598.75	1716.20
598.94	1673.19
599.14	1742.82
599.33	1689.57
599.52	1726.44
599.71	1773.54
599.91	1787.88
600.10	1761.25
600.29	1753.06
600.48	1785.83
600.68	1716.20
600.87	1781.73
601.06	1716.20
601.26	1689.57
601.45	1773.54
601.64	1738.73
601.83	1886.18
602.03	1804.26
602.22	1701.86
602.41	1816.55
602.60	1916.90
602.80	1800.16
602.99	1796.07
603.18	1613.80
603.37	1775.59
603.57	1812.45
603.76	1804.26
603.95	1714.15
604.14	1738.73
604.34	1705.96
604.53	1740.77
604.72	1751.01
604.91	1816.55
605.10	1841.12
605.30	1665.00
605.49	1753.06
605.68	1781.73
605.87	1775.59
606.07	1724.39
606.26	1791.97
606.45	1791.97
606.64	1775.59
606.84	1769.44
607.03	1726.44
607.22	1738.73
607.41	1722.34
607.60	1708.01
607.80	1755.11
607.99	1742.82
608.18	1728.49
608.37	1757.16
608.56	1710.05
608.76	1771.49
608.95	1748.97
609.14	1787.88
609.33	1712.10
609.52	1730.53
609.72	1787.88
609.91	1800.16
610.10	1716.20
610.29	1779.68
610.48	1877.99
610.68	1683.43
610.87	1738.73
611.06	1751.01
611.25	1722.34
611.44	1804.26
611.63	1685.48
611.83	1816.55
612.02	1638.38
612.21	1871.84
612.40	1712.10
612.59	1695.72
612.79	1662.95
612.98	1765.35
613.17	1853.41
613.36	1720.29
613.55	1830.88
613.74	1697.77
613.93	1619.94
614.13	1699.81
614.32	1789.92
614.51	1783.78
614.70	1654.76
614.89	1642.47
615.08	1777.64
615.28	2144.22
615.47	1615.85
615.66	1732.58
615.85	1689.57
616.04	1806.31
616.23	1730.53
616.42	1736.68
616.62	1789.92
616.81	1714.15
617.00	1734.63
617.19	1730.53
617.38	1671.14
617.57	1763.30
617.76	1775.59
617.95	1773.54
618.15	1718.25
618.34	1759.21
618.53	1646.57
618.72	1789.92
618.91	1796.07
619.10	1808.36
619.29	1787.88
619.48	1738.73
619.68	1605.61
619.87	1677.29
620.06	1708.01
620.25	1812.45
620.44	1769.44
620.63	1667.05
620.82	1734.63
621.01	1744.87
621.20	1701.86
621.39	1730.53
621.59	1808.36
621.78	1777.64
621.97	1740.77
622.16	1755.11
622.35	1726.44
622.54	1824.74
622.73	1839.08
622.92	1703.91
623.11	1691.62
623.30	1779.68
623.49	1734.63
623.68	1722.34
623.88	1742.82
624.07	1673.19
624.26	1652.71
624.45	1773.54
624.64	1669.09
624.83	1742.82
625.02	1751.01
625.21	1783.78
625.40	1687.53
625.59	1822.69
625.78	1728.49
625.97	1820.64
626.16	1755.11
626.35	1796.07
626.54	1718.25
626.74	1794.02
626.93	1673.19
627.12	1763.30
627.31	1730.53
627.50	1724.39
627.69	1759.21
627.88	1652.71
628.07	1683.43
628.26	1662.95
628.45	1705.96
628.64	1615.85
628.83	1771.49
629.02	1748.97
629.21	1724.39
629.40	1783.78
629.59	1718.25
629.78	1781.73
629.97	1658.85
630.16	1656.81
630.35	1781.73
630.54	1710.05
630.73	1662.95
630.92	1615.85
631.11	1763.30
631.30	1716.20
631.49	1785.83
631.68	1748.97
631.87	1701.86
632.06	1718.25
632.25	1931.23
632.44	1697.77
632.63	1695.72
632.82	1656.81
633.01	1730.53
633.20	1671.14
633.39	1683.43
633.58	1689.57
633.77	1722.34
633.96	1746.92
634.15	1732.58
634.34	1748.97
634.53	1730.53
634.72	1703.91
634.91	1689.57
635.10	1812.45
635.29	1824.74
635.48	1730.53
635.67	1742.82
635.86	1634.28
636.05	1791.97
636.24	1697.77
636.43	1802.21
636.62	1732.58
636.81	1703.91
637.00	1703.91
637.19	1746.92
637.38	1757.16
637.57	1632.23
637.76	1718.25
637.95	1751.01
638.14	1697.77
638.33	1740.77
638.52	1769.44
638.71	1701.86
638.89	1673.19
639.08	1824.74
639.27	1816.55
639.46	1597.42
639.65	1820.64
639.84	1781.73
640.03	1800.16
640.22	1736.68
640.41	1867.75
640.60	1658.85
640.79	1767.40
640.98	1685.48
641.17	1820.64
641.36	1671.14
641.55	1726.44
641.74	1640.42
641.92	1705.96
642.11	1509.35
642.30	1705.96
642.49	1691.62
642.68	1671.14
642.87	1732.58
643.06	1722.34
643.25	1656.81
643.44	1675.24
643.63	1763.30
643.82	1841.12
644.00	1765.35
644.19	1656.81
644.38	1710.05
644.57	1789.92
644.76	1746.92
644.95	1728.49
645.14	1810.40
645.33	1697.77
645.52	1708.01
645.71	1697.77
645.89	1621.99
646.08	1746.92
646.27	1679.33
646.46	1851.36
646.65	1652.71
646.84	1751.01
647.03	1736.68
647.22	1728.49
647.40	1685.48
647.59	1708.01
647.78	1591.27
647.97	1583.08
648.16	1738.73
648.35	1773.54
648.54	1771.49
648.73	1724.39
648.91	1769.44
649.10	1722.34
649.29	1714.15
649.48	1730.53
649.67	1732.58
649.86	1757.16
650.05	1699.81
650.23	1806.31
650.42	1677.29
650.61	1726.44
650.80	1769.44
650.99	1863.65
651.18	1802.21
651.36	1806.31
651.55	1734.63
651.74	1775.59
651.93	1654.76
652.12	1660.90
652.31	1699.81
652.49	1685.48
652.68	1701.86
652.87	1818.60
653.06	1777.64
653.25	1789.92
653.44	1710.05
653.62	1837.03
653.81	1691.62
654.00	1744.87
654.19	1712.10
654.38	1861.60
654.56	1773.54
654.75	1628.14
654.94	1775.59
655.13	1732.58
655.32	1783.78
655.51	1771.49
655.69	1685.48
655.88	1783.78
656.07	1685.48
656.26	1759.21
656.45	1658.85
656.63	1708.01
656.82	1730.53
657.01	1822.69
657.20	1667.05
657.38	1888.23
657.57	1734.63
657.76	1687.53
657.95	1771.49
658.14	1687.53
658.32	1806.31
658.51	1695.72
658.70	1738.73
658.89	1671.14
659.08	1699.81
659.26	1785.83
659.45	1525.74
659.64	1777.64
659.83	1697.77
660.01	1904.61
660.20	1685.48
660.39	1839.08
660.58	1654.76
660.76	1785.83
660.95	1642.47
661.14	1648.61
661.33	1685.48
661.51	1669.09
661.70	1785.83
661.89	1746.92
662.08	1699.81
662.26	1693.67
662.45	1671.14
662.64	1802.21
662.83	1763.30
663.01	1667.05
663.20	1654.76
663.39	1810.40
663.58	1759.21
663.76	1677.29
663.95	1726.44
664.14	1632.23
664.32	1691.62
664.51	1626.09
664.70	1632.23
664.89	1660.90
665.07	1591.27
665.26	1771.49
665.45	1613.80
665.64	1746.92
665.82	1753.06
666.01	1736.68
666.20	1681.38
666.38	1751.01
666.57	1857.51
666.76	2230.24
666.95	4519.87
667.13	10493.79
667.32	15349.53
667.51	17917.68
667.69	19261.15
667.88	18089.71
668.07	12484.42
668.25	9660.27
668.44	8107.91
668.63	7507.85
668.81	6846.36
669.00	6268.83
669.19	5760.94
669.38	5130.16
669.56	4630.46
669.75	4016.07
669.94	3344.33
670.12	2934.74
670.31	2586.58
670.50	2314.20
670.68	2181.09
670.87	1828.84
671.06	1720.29
671.24	1773.54
671.43	1806.31
671.62	1734.63
671.80	1665.00
671.99	1771.49
672.18	1730.53
672.36	1855.46
672.55	1703.91
672.74	1718.25
672.92	1660.90
673.11	1699.81
673.29	1724.39
673.48	1814.50
673.67	1757.16
673.85	1839.08
674.04	1687.53
674.23	1738.73
674.41	1837.03
674.60	1667.05
674.79	1578.98
674.97	1640.42
675.16	1759.21
675.34	1808.36
675.53	1628.14
675.72	1757.16
675.90	1882.08
676.09	1761.25
676.28	1763.30
676.46	1591.27
676.65	1759.21
676.83	1701.86
677.02	1665.00
677.21	1691.62
677.39	1785.83
677.58	1685.48
677.77	1689.57
677.95	1642.47
678.14	1783.78
678.32	1722.34
678.51	1718.25
678.70	1781.73
678.88	1730.53
679.07	1767.40
679.25	1738.73
679.44	1697.77
679.63	1568.74
679.81	1796.07
680.00	1798.12
680.18	1755.11
680.37	1712.10
680.55	1779.68
680.74	1665.00
680.93	1599.46
681.11	1789.92
681.30	1708.01
681.48	1751.01
681.67	1708.01
681.85	1755.11
682.04	1605.61
682.23	1738.73
682.41	1826.79
682.60	1773.54
682.78	1757.16
682.97	1658.85
683.15	1800.16
683.34	1763.30
683.53	1800.16
683.71	1636.33
683.90	1773.54
684.08	1849.32
684.27	1693.67
684.45	1730.53
684.64	1867.75
684.82	1574.89
685.01	1742.82
685.19	1685.48
685.38	1798.12
685.57	1748.97
685.75	1673.19
685.94	1689.57
686.12	1669.09
686.31	1755.11
686.49	1806.31
686.68	1658.85
686.86	1718.25
687.05	1716.20
687.23	1751.01
687.42	1710.05
687.60	1697.77
687.79	1765.35
687.97	1763.30
688.16	1845.22
688.34	1763.30
688.53	1675.24
688.71	1742.82
688.90	1734.63
689.08	1697.77
689.27	1550.31
689.45	1748.97
689.64	1724.39
689.82	1705.96
690.01	1775.59
690.19	1779.68
690.38	1681.38
690.56	1796.07
690.75	1628.14
690.93	1632.23
691.12	1712.10
691.30	1755.11
691.49	1679.33
691.67	1669.09
691.86	1849.32
692.04	1687.53
692.23	1628.14
692.41	1724.39
692.60	1861.60
692.78	1720.29
692.97	1718.25
693.15	1703.91
693.34	1832.93
693.52	1710.05
693.71	1726.44
693.89	1660.90
694.08	1593.32
694.26	1722.34
694.44	1789.92
694.63	1734.63
694.81	1665.00
695.00	1689.57
695.18	1724.39
695.37	1736.68
695.55	1773.54
695.74	1724.39
695.92	1665.00
696.10	1830.88
696.29	1667.05
696.47	1787.88
696.66	1648.61
696.84	1665.00
697.03	1726.44
697.21	1871.84
697.40	2349.02
697.58	1796.07
697.76	1658.85
697.95	1617.90
698.13	1617.90
698.32	1691.62
698.50	1738.73
698.68	1746.92
698.87	1771.49
699.05	1834.98
699.24	1722.34
699.42	1697.77
699.61	1671.14
699.79	1693.67
699.97	1734.63
700.16	1640.42
700.34	1628.14
700.53	1740.77
700.71	1744.87
700.89	1701.86
701.08	1728.49
701.26	1800.16
701.45	2152.42
701.63	1691.62
701.81	1716.20
702.00	1671.14
702.18	1783.78
702.37	1679.33
702.55	1808.36
702.73	1662.95
702.92	1638.38
703.10	1779.68
703.28	1753.06
703.47	1703.91
703.65	1791.97
703.84	1841.12
704.02	1738.73
704.20	1761.25
704.39	1701.86
704.57	1759.21
704.75	1796.07
704.94	1759.21
705.12	1781.73
705.30	1763.30
705.49	2295.77
705.67	4407.23
705.86	9564.01
706.04	12734.27
706.22	14532.39
706.41	15542.03
706.59	13928.24
706.77	9475.95
706.96	7317.39
707.14	6571.93
707.32	6066.08
707.51	5552.04
707.69	5013.43
707.87	4337.60
708.06	3618.76
708.24	3024.85
708.42	2568.15
708.61	2318.30
708.79	1902.56
708.97	1873.89
709.16	1742.82
709.34	1761.25
709.52	1718.25
709.71	1748.97
709.89	1759.21
710.07	1718.25
710.26	1701.86
710.44	1746.92
710.62	1738.73
710.80	1761.25
710.99	1800.16
711.17	1804.26
711.35	1656.81
711.54	1646.57
711.72	1726.44
711.90	1767.40
712.09	1699.81
712.27	1665.00
712.45	1791.97
712.63	1662.95
712.82	1675.24
713.00	1708.01
713.18	1767.40
713.37	1763.30
713.55	1728.49
713.73	1755.11
713.91	1791.97
714.10	1710.05
714.28	1724.39
714.46	1755.11
714.65	1746.92
714.83	1718.25
715.01	1695.72
715.19	1798.12
715.38	1677.29
715.56	1738.73
715.74	1730.53
715.92	1621.99
716.11	1818.60
716.29	1636.33
716.47	1714.15
716.65	1724.39
716.84	1630.18
717.02	1802.21
717.20	1650.66
717.38	1724.39
717.57	1791.97
717.75	1777.64
717.93	1718.25
718.11	1697.77
718.30	1736.68
718.48	1708.01
718.66	1748.97
718.84	1738.73
719.03	1763.30
719.21	1654.76
719.39	1808.36
719.57	1767.40
719.75	1791.97
719.94	1669.09
720.12	1757.16
720.30	1736.68
720.48	1761.25
720.67	1611.75
720.85	1644.52
721.03	1677.29
721.21	1714.15
721.39	1777.64
721.58	1718.25
721.76	1621.99
721.94	1732.58
722.12	1738.73
722.30	1794.02
722.49	1738.73
722.67	1685.48
722.85	1656.81
723.03	1626.09
723.21	1703.91
723.40	1771.49
723.58	1755.11
723.76	1724.39
723.94	1765.35
724.12	1755.11
724.30	1679.33
724.49	1744.87
724.67	1677.29
724.85	1763.30
725.03	1646.57
725.21	1810.40
725.40	1740.77
725.58	1681.38
725.76	1759.21
725.94	1640.42
726.12	1673.19
726.30	1763.30
726.49	1683.43
726.67	1677.29
726.85	1763.30
727.03	1796.07
727.21	2226.14
727.39	2918.36
727.57	3805.13
727.76	4114.37
727.94	4609.98
728.12	4368.32
728.30	3770.31
728.48	2959.31
728.66	2731.99
728.84	2580.44
729.03	2377.69
729.21	2164.70
729.39	2013.15
729.57	1769.44
729.75	1849.32
729.93	1849.32
730.11	1708.01
730.30	1720.29
730.48	1673.19
730.66	1789.92
730.84	1718.25
731.02	1640.42
731.20	1665.00
731.38	1775.59
731.56	1648.61
731.74	1699.81
731.93	1742.82
732.11	1744.87
732.29	1658.85
732.47	1708.01
732.65	1695.72
732.83	1773.54
733.01	1662.95
733.19	1669.09
733.37	1812.45
733.56	1728.49
733.74	1597.42
733.92	1853.41
734.10	1669.09
734.28	1656.81
734.46	1691.62
734.64	1671.14
734.82	1648.61
735.00	1634.28
735.18	1621.99
735.36	1748.97
735.54	1705.96
735.73	1724.39
735.91	1736.68
736.09	1689.57
736.27	1656.81
736.45	1730.53
736.63	1619.94
736.81	1748.97
736.99	1681.38
737.17	1808.36
737.35	1755.11
737.53	1724.39
737.71	1658.85
737.89	1787.88
738.07	1746.92
738.25	1626.09
738.43	1667.05
738.61	1697.77
738.80	1705.96
738.98	1685.48
739.16	1720.29
739.34	1677.29
739.52	1701.86
739.70	1652.71
739.88	1808.36
740.06	1814.50
740.24	1687.53
740.42	1877.99
740.60	1642.47
740.78	1636.33
740.96	1583.08
741.14	1714.15
741.32	1693.67
741.50	1628.14
741.68	1781.73
741.86	1841.12
742.04	1740.77
742.22	1703.91
742.40	1761.25
742.58	1738.73
742.76	1695.72
742.94	1812.45
743.12	1613.80
743.30	1689.57
743.48	1705.96
743.66	1652.71
743.84	1740.77
744.02	1705.96
744.20	1648.61
744.38	1605.61
744.56	1734.63
744.74	1738.73
744.92	1773.54
745.10	1759.21
745.28	1730.53
745.46	1781.73
745.64	1736.68
745.82	1771.49
746.00	1740.77
746.18	1771.49
746.36	1677.29
746.54	1689.57
746.72	1681.38
746.90	1697.77
747.08	1847.27
747.26	1742.82
747.44	1728.49
747.62	1746.92
747.80	1691.62
747.98	1761.25
748.15	1652.71
748.33	1863.65
748.51	1677.29
748.69	1689.57
748.87	1722.34
749.05	1726.44
749.23	1677.29
749.41	1812.45
749.59	1693.67
749.77	1708.01
749.95	1718.25
750.13	1732.58
750.31	1730.53
750.49	1693.67
750.67	1726.44
750.85	1787.88
751.03	1730.53
751.20	1832.93
751.38	1667.05
751.56	1650.66
751.74	1753.06
751.92	1708.01
752.10	1648.61
752.28	1806.31
752.46	1671.14
752.64	1695.72
752.82	1742.82
753.00	1824.74
753.18	1701.86
753.35	1765.35
753.53	1677.29
753.71	1654.76
753.89	1779.68
754.07	1705.96
754.25	1665.00
754.43	1705.96
754.61	1656.81
754.79	1701.86
754.97	1697.77
755.14	1777.64
755.32	1648.61
755.50	1726.44
755.68	1730.53
755.86	1609.70
756.04	1677.29
756.22	1611.75
756.40	1761.25
756.57	1816.55
756.75	1630.18
756.93	1738.73
757.11	1785.83
757.29	1701.86
757.47	1640.42
757.65	1650.66
757.82	1652.71
758.00	1703.91
758.18	1705.96
758.36	1685.48
758.54	1734.63
758.72	1636.33
758.90	1777.64
759.07	1697.77
759.25	1675.24
759.43	1777.64
759.61	1677.29
759.79	2230.24
759.97	1683.43
760.15	1714.15
760.32	1624.04
760.50	1746.92
760.68	1845.22
760.86	1640.42
761.04	1691.62
761.22	1830.88
761.39	1699.81
761.57	1681.38
761.75	1710.05
761.93	1816.55
762.11	1720.29
762.28	1705.96
762.46	1595.37
762.64	1761.25
762.82	1677.29
763.00	1691.62
763.18	1857.51
763.35	1619.94
763.53	1806.31
763.71	1767.40
763.89	1740.77
764.07	1658.85
764.24	1726.44
764.42	1753.06
764.60	1755.11
764.78	1665.00
764.96	1781.73
765.13	1730.53
765.31	1705.96
765.49	1683.43
765.67	1667.05
765.84	1601.51
766.02	1628.14
766.20	1605.61
766.38	1640.42
766.56	1771.49
766.73	1832.93
766.91	1697.77
767.09	1734.63
767.27	1740.77
767.44	1673.19
767.62	1708.01
767.80	1667.05
767.98	1681.38
768.15	1748.97
768.33	1728.49
768.51	1814.50
768.69	1730.53
768.87	1744.87
769.04	1697.77
769.22	1877.99
769.40	1832.93
769.58	1865.70
769.75	1738.73
769.93	1732.58
770.11	1660.90
770.28	1665.00
770.46	1783.78
770.64	1822.69
770.82	1665.00
770.99	1621.99
771.17	1697.77
771.35	1714.15
771.53	1724.39
771.70	1724.39
771.88	1615.85
772.06	1689.57
772.23	1667.05
772.41	1728.49
772.59	1613.80
772.77	1660.90
772.94	1681.38
773.12	1691.62
773.30	1634.28
773.47	1726.44
773.65	1679.33
773.83	1871.84
774.01	1714.15
774.18	1652.71
774.36	1650.66
774.54	1566.70
774.71	1689.57
774.89	1675.24
775.07	1675.24
775.24	1660.90
775.42	1748.97
775.60	1894.37
775.78	1673.19
775.95	1607.66
776.13	1572.84
776.31	1574.89
776.48	1746.92
776.66	1726.44
776.84	1746.92
777.01	1695.72
777.19	1691.62
777.37	1632.23
777.54	1718.25
777.72	1869.80
777.90	1708.01
778.07	1642.47
778.25	1845.22
778.43	1755.11
778.60	1673.19
778.78	1732.58
778.96	1800.16
779.13	1716.20
779.31	1771.49
779.49	1601.51
779.66	1665.00
779.84	1767.40
780.01	1699.81
780.19	1662.95
780.37	1757.16
780.54	1744.87
780.72	1708.01
780.90	1697.77
781.07	1619.94
781.25	1673.19
781.43	1767.40
781.60	1736.68
781.78	1824.74
781.95	1691.62
782.13	1667.05
782.31	1662.95
782.48	1576.94
782.66	1681.38
782.83	1832.93
783.01	1720.29
783.19	1773.54
783.36	1718.25
783.54	1603.56
783.72	1714.15
783.89	1757.16
784.07	1794.02
784.24	1779.68
784.42	1855.46
784.60	1695.72
784.77	1726.44
784.95	1615.85
785.12	1638.38
785.30	1691.62
785.47	1705.96
785.65	1648.61
785.83	1744.87
786.00	1679.33
786.18	1744.87
786.35	1624.04
786.53	1679.33
786.71	1753.06
786.88	1730.53
787.06	1748.97
787.23	1744.87
787.41	1656.81
787.58	1738.73
787.76	1638.38
787.94	1701.86
788.11	1720.29
788.29	1585.13
788.46	1662.95
788.64	1597.42
788.81	1798.12
788.99	1658.85
789.16	1646.57
789.34	1665.00
789.52	1716.20
789.69	1712.10
789.87	1650.66
790.04	1658.85
790.22	1740.77
790.39	1845.22
790.57	1689.57
790.74	1693.67
790.92	1806.31
791.09	1675.24
791.27	1722.34
791.44	1861.60
791.62	1734.63
791.79	1757.16
791.97	1654.76
792.15	1873.89
792.32	1767.40
792.50	1791.97
792.67	1796.07
792.85	1789.92
793.02	1665.00
793.20	1791.97
793.37	1603.56
793.55	1679.33
793.72	1677.29
793.90	1708.01
794.07	1652.71
794.25	1640.42
794.42	1746.92
794.60	1714.15
794.77	1677.29
794.95	1806.31
795.12	1824.74
795.30	1730.53
795.47	1591.27
795.65	1884.13
795.82	1748.97
796.00	1689.57
796.17	1744.87
796.34	1667.05
796.52	1757.16
796.69	1748.97
796.87	1744.87
797.04	1753.06
797.22	1742.82
797.39	1718.25
797.57	1687.53
797.74	1730.53
797.92	1757.16
798.09	1685.48
798.27	1732.58
798.44	1763.30
798.62	1671.14
798.79	1677.29
798.96	1742.82
799.14	1724.39
799.31	1859.56
799.49	1679.33
799.66	1685.48
799.84	1753.06
800.01	1687.53
800.19	1710.05
800.36	1683.43
800.53	1783.78
800.71	1716.20
800.88	1775.59
801.06	1646.57
801.23	1628.14
801.41	1771.49
801.58	1701.86
801.75	1662.95
801.93	1701.86
802.10	1742.82
802.28	1716.20
802.45	1699.81
802.63	1755.11
802.80	1789.92
802.97	1644.52
803.15	1634.28
803.32	1710.05
803.50	1603.56
803.67	1632.23
803.84	1628.14
804.02	1679.33
804.19	1656.81
804.37	1581.03
804.54	1644.52
804.71	1683.43
804.89	1712.10
805.06	1646.57
805.24	1644.52
805.41	1658.85
805.58	1576.94
805.76	1830.88
805.93	1656.81
806.10	1791.97
806.28	1796.07
806.45	1697.77
806.63	1701.86
806.80	1708.01
806.97	1738.73
807.15	1705.96
807.32	1755.11
807.49	1650.66
807.67	1685.48
807.84	1841.12
808.01	1658.85
808.19	1791.97
808.36	1869.80
808.54	1728.49
808.71	1677.29
808.88	1679.33
809.06	1759.21
809.23	1804.26
809.40	1669.09
809.58	1837.03
809.75	1703.91
809.92	1685.48
810.10	1855.46
810.27	1734.63
810.44	1775.59
810.62	1755.11
810.79	1748.97
810.96	1726.44
811.14	1708.01
811.31	1732.58
811.48	1761.25
811.66	1673.19
811.83	1783.78
812.00	1677.29
812.18	1695.72
812.35	1781.73
812.52	1646.57
812.69	1738.73
812.87	1718.25
813.04	1683.43
813.21	1701.86
813.39	1683.43
813.56	1644.52
813.73	1785.83
813.91	1574.89
814.08	1748.97
814.25	1740.77
814.42	1646.57
814.60	1708.01
814.77	1720.29
814.94	1705.96
815.12	1744.87
815.29	1755.11
815.46	1644.52
815.63	1726.44
815.81	1695.72
815.98	1691.62
816.15	1624.04
816.33	1740.77
816.50	1685.48
816.67	1716.20
816.84	1724.39
817.02	1566.70
817.19	1605.61
817.36	1724.39
817.53	1748.97
817.71	1656.81
817.88	1701.86
818.05	1705.96
818.22	1699.81
818.40	1808.36
818.57	1638.38
818.74	1740.77
818.91	1597.42
819.09	1744.87
819.26	1828.84
819.43	1693.67
819.60	1746.92
819.78	1693.67
819.95	1816.55
820.12	1640.42
820.29	1771.49
820.47	1759.21
820.64	1701.86
820.81	1691.62
820.98	1708.01
821.15	1755.11
821.33	1740.77
821.50	1597.42
821.67	1720.29
821.84	1619.94
822.02	1765.35
822.19	1734.63
822.36	1665.00
822.53	1734.63
822.70	1597.42
822.88	1695.72
823.05	1785.83
823.22	1730.53
823.39	1757.16
823.56	1652.71
823.74	1810.40
823.91	1640.42
824.08	1619.94
824.25	1648.61
824.42	1765.35
824.60	1642.47
824.77	1789.92
824.94	1746.92
825.11	1759.21
825.28	1607.66
825.45	1650.66
825.63	1673.19
825.80	1681.38
825.97	1601.51
826.14	1791.97
826.31	1587.18
826.48	1761.25
826.66	1646.57
826.83	1665.00
827.00	1705.96
827.17	1671.14
827.34	1734.63
827.51	1642.47
827.69	1646.57
827.86	1595.37
828.03	1691.62
828.20	1667.05
828.37	1628.14
828.54	1806.31
828.71	1652.71
828.89	1761.25
829.06	1720.29
829.23	1841.12
829.40	1615.85
829.57	1634.28
829.74	1779.68
829.91	1675.24
830.09	1685.48
830.26	1708.01
830.43	1783.78
830.60	1677.29
830.77	1736.68
830.94	1814.50
831.11	1728.49
831.28	1718.25
831.46	1814.50
831.63	1646.57
831.80	1787.88
831.97	1689.57
832.14	1744.87
832.31	1783.78
832.48	1681.38
832.65	1757.16
832.82	1695.72
832.99	1767.40
833.17	1650.66
833.34	1849.32
833.51	1693.67
833.68	1605.61
833.85	1820.64
834.02	1648.61
834.19	1656.81
834.36	1673.19
834.53	1834.98
834.70	1712.10
834.87	1753.06
835.04	1701.86
835.22	1724.39
835.39	1740.77
835.56	1648.61
835.73	1728.49
835.90	1712.10
836.07	1683.43
836.24	1816.55
836.41	1562.60
836.58	1687.53
836.75	1787.88
836.92	1724.39
837.09	1634.28
837.26	1695.72
837.43	1746.92
837.60	1722.34
837.77	1693.67
837.94	1824.74
838.12	1740.77
838.29	1726.44
838.46	1665.00
838.63	1652.71
838.80	1822.69
838.97	1691.62
839.14	1705.96
839.31	1648.61
839.48	1787.88
839.65	1665.00
839.82	1841.12
839.99	1724.39
840.16	1669.09
840.33	1613.80
840.50	1689.57
840.67	1660.90
840.84	1593.32
841.01	1769.44
841.18	1685.48
841.35	1746.92
841.52	1779.68
841.69	1847.27
841.86	1773.54
842.03	1703.91
842.20	1796.07
842.37	1732.58
842.54	1673.19
842.71	1785.83
842.88	1656.81
843.05	1693.67
843.22	1701.86
843.39	1757.16
843.56	1720.29
843.73	1753.06
843.90	1660.90
844.07	1753.06
844.24	1716.20
844.41	1716.20
844.58	1755.11
844.75	1724.39
844.92	1705.96
845.09	1621.99
845.26	1677.29
845.43	1791.97
845.60	1718.25
845.77	1716.20
845.94	1710.05
846.10	1796.07
846.27	1591.27
846.44	1621.99
846.61	1667.05
846.78	1681.38
846.95	1791.97
847.12	1730.53
847.29	1648.61
847.46	1708.01
847.63	1849.32
847.80	1632.23
847.97	1675.24
848.14	1777.64
848.31	1691.62
848.48	1652.71
848.65	1703.91
848.82	1619.94
848.98	1773.54
849.15	1728.49
849.32	1775.59
849.49	1751.01
849.66	1714.15
849.83	1656.81
850.00	1599.46
850.17	1759.21
850.34	1787.88
850.51	1685.48
850.68	1722.34
850.85	1822.69
851.01	1681.38
851.18	1675.24
851.35	1718.25
851.52	1697.77
851.69	1812.45
851.86	1613.80
852.03	1609.70
852.20	1740.77
852.37	1656.81
852.53	1597.42
852.70	1708.01
852.87	1742.82
853.04	1769.44
853.21	1636.33
853.38	1748.97
853.55	1755.11
853.72	1791.97
853.89	1578.98
854.05	1658.85
854.22	1691.62
854.39	1642.47
854.56	1730.53
854.73	1845.22
854.90	1599.46
855.07	1746.92
855.23	1722.34
855.40	1734.63
855.57	1761.25
855.74	1640.42
855.91	1884.13
856.08	1654.76
856.25	1599.46
856.41	1689.57
856.58	1652.71
856.75	1718.25
856.92	1656.81
857.09	1718.25
857.26	1599.46
857.42	1720.29
857.59	1710.05
857.76	1640.42
857.93	1767.40
858.10	1701.86
858.27	1644.52
858.43	1730.53
858.60	1699.81
858.77	1681.38
858.94	1642.47
859.11	1789.92
859.27	1673.19
859.44	1716.20
859.61	1812.45
859.78	1687.53
859.95	1624.04
860.12	1681.38
860.28	1871.84
860.45	1724.39
860.62	1703.91
860.79	1722.34
860.95	1708.01
861.12	1638.38
861.29	1687.53
861.46	1652.71
861.63	1662.95
861.79	1701.86
861.96	1708.01
862.13	1665.00
862.30	1783.78
862.47	1634.28
862.63	1662.95
862.80	1705.96
862.97	1849.32
863.14	1714.15
863.30	1763.30
863.47	1650.66
863.64	1806.31
863.81	1755.11
863.97	1691.62
864.14	1744.87
864.31	1673.19
864.48	1820.64
864.65	1673.19
864.81	1738.73
864.98	1781.73
865.15	1738.73
865.32	1734.63
865.48	1820.64
865.65	1785.83
865.82	1681.38
865.98	1667.05
866.15	1800.16
866.32	1759.21
866.49	1708.01
866.65	1769.44
866.82	1730.53
866.99	1771.49
867.16	1648.61
867.32	1691.62
867.49	1714.15
867.66	1714.15
867.83	1732.58
867.99	1654.76
868.16	1716.20
868.33	1701.86
868.49	1705.96
868.66	1714.15
868.83	1720.29
868.99	1669.09
869.16	1699.81
869.33	1791.97
869.50	1740.77
869.66	1730.53
869.83	1681.38
870.00	1570.79
870.16	1746.92
870.33	1755.11
870.50	1818.60
870.66	1673.19
870.83	1845.22
871.00	1724.39
871.17	1740.77
871.33	1765.35
871.50	1630.18
871.67	1751.01
871.83	1576.94
872.00	1824.74
872.17	1697.77
872.33	1740.77
872.50	1714.15
872.67	1646.57
872.83	1683.43
873.00	1746.92
873.17	1675.24
873.33	1787.88
873.50	1736.68
873.67	1576.94
873.83	1701.86
874.00	1705.96
874.16	1779.68
874.33	1767.40
874.50	1673.19
874.66	1673.19
874.83	1734.63
875.00	1708.01
875.16	1675.24
875.33	1794.02
875.50	1695.72
875.66	1683.43
875.83	1705.96
875.99	1740.77
876.16	1675.24
876.33	1665.00
876.49	1708.01
876.66	1728.49
876.83	1644.52
876.99	1615.85
877.16	1748.97
877.32	1746.92
877.49	1714.15
877.66	1689.57
877.82	1738.73
877.99	1697.77
878.15	1734.63
878.32	1755.11
878.49	1705.96
878.65	1681.38
878.82	1794.02
878.98	1656.81
879.15	1765.35
879.32	1802.21
879.48	1759.21
879.65	1603.56
879.81	1671.14
879.98	1677.29
880.15	1667.05
880.31	1767.40
880.48	1611.75
880.64	1787.88
880.81	1710.05
880.97	1781.73
881.14	1746.92
881.31	1583.08
881.47	1892.32
881.64	1667.05
881.80	1609.70
881.97	1701.86
882.13	1761.25
882.30	1669.09
882.47	1671.14
882.63	1642.47
882.80	1593.32
882.96	1693.67
883.13	1822.69
883.29	1699.81
883.46	1746.92
883.62	1759.21
883.79	1695.72
883.95	1818.60
884.12	1736.68
884.29	1712.10
884.45	1765.35
884.62	1736.68
884.78	1716.20
884.95	1742.82
885.11	1685.48
885.28	1742.82
885.44	1665.00
885.61	1665.00
885.77	1783.78
885.94	1732.58
886.10	1677.29
886.27	1673.19
886.43	1771.49
886.60	1775.59
886.76	1597.42
886.93	1667.05
887.09	1703.91
887.26	1718.25
887.42	1613.80
887.59	1785.83
887.75	1755.11
887.92	1798.12
888.08	1755.11
888.25	1804.26
888.41	1841.12
888.58	1677.29
888.74	1689.57
888.91	1646.57
>>>>>End Processed Spectral Data<<<<<
