SpectraSuite Data File
++++++++++++++++++++++++++++++++++++
Date: Mon Jun 06 12:35:17 CEST 2016
User: root
Dark Spectrum Present: No
Reference Spectrum Present: No
Number of Sampled Component Spectra: 1
Spectrometers: USB4C02835
Integration Time (usec): 100000 (USB4C02835)
Spectra Averaged: 1 (USB4C02835)
Boxcar Smoothing: 0 (USB4C02835)
Correct for Electrical Dark: No (USB4C02835)
Strobe/Lamp Enabled: No (USB4C02835)
Correct for Detector Non-linearity: No (USB4C02835)
Correct for Stray Light: No (USB4C02835)
Number of Pixels in Processed Spectrum: 3648
>>>>>Begin Processed Spectral Data<<<<<
177.47	1441.77
177.69	1441.77
177.91	1441.77
178.13	1447.91
178.36	1484.78
178.58	1632.23
178.80	1701.86
179.02	1685.48
179.24	1599.46
179.46	1701.86
179.68	1710.05
179.90	1699.81
180.13	1687.53
180.35	1656.81
180.57	1685.48
180.79	1791.97
181.01	1667.05
181.23	1781.73
181.45	1730.53
181.67	1787.88
181.90	1667.05
182.12	1681.38
182.34	1617.90
182.56	1734.63
182.78	1669.09
183.00	1593.32
183.22	1730.53
183.44	1638.38
183.66	1798.12
183.89	1761.25
184.11	1662.95
184.33	1740.77
184.55	1804.26
184.77	1740.77
184.99	1722.34
185.21	1593.32
185.43	1783.78
185.65	1617.90
185.87	1730.53
186.10	1800.16
186.32	1834.98
186.54	1712.10
186.76	1732.58
186.98	1767.40
187.20	1742.82
187.42	1724.39
187.64	1722.34
187.86	1710.05
188.08	1789.92
188.30	1683.43
188.52	1738.73
188.75	1638.38
188.97	1789.92
189.19	1660.90
189.41	1712.10
189.63	1716.20
189.85	1732.58
190.07	1619.94
190.29	1546.22
190.51	1718.25
190.73	1624.04
190.95	1796.07
191.17	1718.25
191.39	1593.32
191.61	1748.97
191.84	1716.20
192.06	1800.16
192.28	1593.32
192.50	1882.08
192.72	1714.15
192.94	1681.38
193.16	1765.35
193.38	1712.10
193.60	1611.75
193.82	1722.34
194.04	1724.39
194.26	1751.01
194.48	1669.09
194.70	1640.42
194.92	1660.90
195.14	1699.81
195.36	1603.56
195.58	1671.14
195.80	1703.91
196.02	1697.77
196.24	1695.72
196.46	1708.01
196.69	1671.14
196.91	1771.49
197.13	1665.00
197.35	1630.18
197.57	1775.59
197.79	1808.36
198.01	1701.86
198.23	1773.54
198.45	1722.34
198.67	1634.28
198.89	1701.86
199.11	1755.11
199.33	1607.66
199.55	1576.94
199.77	1695.72
199.99	1732.58
200.21	1665.00
200.43	1726.44
200.65	1615.85
200.87	1527.78
201.09	1716.20
201.31	1724.39
201.53	1681.38
201.75	1740.77
201.97	1714.15
202.19	1757.16
202.41	1675.24
202.63	1832.93
202.85	1695.72
203.07	1710.05
203.29	1677.29
203.51	1683.43
203.73	1683.43
203.95	1855.46
204.17	1742.82
204.39	1714.15
204.61	1671.14
204.83	1665.00
205.05	1722.34
205.27	1722.34
205.49	1791.97
205.71	1722.34
205.93	1611.75
206.15	1654.76
206.37	1701.86
206.59	1646.57
206.81	1646.57
207.03	1619.94
207.25	1591.27
207.47	1728.49
207.69	1775.59
207.91	1779.68
208.13	1826.79
208.34	1671.14
208.56	1714.15
208.78	1751.01
209.00	1714.15
209.22	1607.66
209.44	1732.58
209.66	1665.00
209.88	1722.34
210.10	1662.95
210.32	1669.09
210.54	1808.36
210.76	1710.05
210.98	1802.21
211.20	1523.69
211.42	1685.48
211.64	1775.59
211.86	1708.01
212.08	1777.64
212.30	1681.38
212.52	1660.90
212.74	1753.06
212.96	1728.49
213.17	1746.92
213.39	1734.63
213.61	1753.06
213.83	1736.68
214.05	1624.04
214.27	1708.01
214.49	1681.38
214.71	1671.14
214.93	1779.68
215.15	1722.34
215.37	1742.82
215.59	1650.66
215.81	1744.87
216.03	1689.57
216.24	1675.24
216.46	1695.72
216.68	1681.38
216.90	1712.10
217.12	1808.36
217.34	1705.96
217.56	1710.05
217.78	1763.30
218.00	1769.44
218.22	1732.58
218.44	1755.11
218.66	1726.44
218.87	1837.03
219.09	1662.95
219.31	1728.49
219.53	1736.68
219.75	1720.29
219.97	1646.57
220.19	1703.91
220.41	1644.52
220.63	1791.97
220.85	1724.39
221.06	1595.37
221.28	1746.92
221.50	1687.53
221.72	1673.19
221.94	1728.49
222.16	1654.76
222.38	1734.63
222.60	1714.15
222.82	1632.23
223.03	1755.11
223.25	1611.75
223.47	1701.86
223.69	1892.32
223.91	1736.68
224.13	1714.15
224.35	1650.66
224.57	1802.21
224.78	1726.44
225.00	1673.19
225.22	1685.48
225.44	1748.97
225.66	1738.73
225.88	1632.23
226.10	1669.09
226.32	1724.39
226.53	1826.79
226.75	1726.44
226.97	1720.29
227.19	1679.33
227.41	1675.24
227.63	1673.19
227.85	1628.14
228.06	1613.80
228.28	1669.09
228.50	1726.44
228.72	1624.04
228.94	1691.62
229.16	1683.43
229.37	1638.38
229.59	1638.38
229.81	1779.68
230.03	1697.77
230.25	1689.57
230.47	1640.42
230.69	1699.81
230.90	1703.91
231.12	1638.38
231.34	1683.43
231.56	1732.58
231.78	1644.52
232.00	1738.73
232.21	1615.85
232.43	1671.14
232.65	1583.08
232.87	1734.63
233.09	1634.28
233.30	1652.71
233.52	1724.39
233.74	1673.19
233.96	1708.01
234.18	1712.10
234.40	1710.05
234.61	1765.35
234.83	1587.18
235.05	1632.23
235.27	1816.55
235.49	1802.21
235.70	1742.82
235.92	1746.92
236.14	1755.11
236.36	1882.08
236.58	1646.57
236.79	1755.11
237.01	1673.19
237.23	1798.12
237.45	1806.31
237.67	1654.76
237.88	1652.71
238.10	1875.94
238.32	1656.81
238.54	1718.25
238.76	1687.53
238.97	1675.24
239.19	1617.90
239.41	1691.62
239.63	1822.69
239.85	1687.53
240.06	1685.48
240.28	1675.24
240.50	1855.46
240.72	1763.30
240.93	1605.61
241.15	1808.36
241.37	1685.48
241.59	1714.15
241.81	1767.40
242.02	1730.53
242.24	1755.11
242.46	1751.01
242.68	1632.23
242.89	1689.57
243.11	1728.49
243.33	1697.77
243.55	1746.92
243.76	1689.57
243.98	1683.43
244.20	1708.01
244.42	1665.00
244.64	1796.07
244.85	1656.81
245.07	1677.29
245.29	1658.85
245.51	1699.81
245.72	1724.39
245.94	1828.84
246.16	1722.34
246.38	1724.39
246.59	1597.42
246.81	1714.15
247.03	1675.24
247.24	1568.74
247.46	1636.33
247.68	1648.61
247.90	1648.61
248.11	1720.29
248.33	1763.30
248.55	1673.19
248.77	1810.40
248.98	1685.48
249.20	1791.97
249.42	1660.90
249.64	1701.86
249.85	1701.86
250.07	1681.38
250.29	1720.29
250.50	1716.20
250.72	1591.27
250.94	1681.38
251.16	1814.50
251.37	1730.53
251.59	1724.39
251.81	1708.01
252.02	1789.92
252.24	1646.57
252.46	1730.53
252.68	1691.62
252.89	1689.57
253.11	1591.27
253.33	1802.21
253.54	1685.48
253.76	1644.52
253.98	1703.91
254.20	1611.75
254.41	1636.33
254.63	1685.48
254.85	1644.52
255.06	1763.30
255.28	1683.43
255.50	1699.81
255.71	1693.67
255.93	1605.61
256.15	1695.72
256.36	1671.14
256.58	1687.53
256.80	1701.86
257.02	1708.01
257.23	1624.04
257.45	1769.44
257.67	1703.91
257.88	1687.53
258.10	1783.78
258.32	1701.86
258.53	1675.24
258.75	1837.03
258.97	1677.29
259.18	1699.81
259.40	1669.09
259.62	1751.01
259.83	1675.24
260.05	1710.05
260.27	1849.32
260.48	1759.21
260.70	1638.38
260.92	1621.99
261.13	1800.16
261.35	1628.14
261.57	1794.02
261.78	1603.56
262.00	1634.28
262.22	1736.68
262.43	1624.04
262.65	1695.72
262.86	1634.28
263.08	1855.46
263.30	1675.24
263.51	1581.03
263.73	1591.27
263.95	1777.64
264.16	1705.96
264.38	1775.59
264.60	1757.16
264.81	1685.48
265.03	1779.68
265.25	1814.50
265.46	1681.38
265.68	1804.26
265.89	1726.44
266.11	1587.18
266.33	1697.77
266.54	1673.19
266.76	1710.05
266.98	1777.64
267.19	1849.32
267.41	1705.96
267.62	1652.71
267.84	1583.08
268.06	1693.67
268.27	1708.01
268.49	1820.64
268.70	1710.05
268.92	1658.85
269.14	1626.09
269.35	1560.55
269.57	1722.34
269.79	1722.34
270.00	1689.57
270.22	1789.92
270.43	1691.62
270.65	1607.66
270.87	1648.61
271.08	1714.15
271.30	1724.39
271.51	1742.82
271.73	1724.39
271.95	1785.83
272.16	1691.62
272.38	1724.39
272.59	1736.68
272.81	1710.05
273.02	1746.92
273.24	1791.97
273.46	1814.50
273.67	1691.62
273.89	1634.28
274.10	1683.43
274.32	1771.49
274.54	1687.53
274.75	1765.35
274.97	1691.62
275.18	1740.77
275.40	1732.58
275.61	1691.62
275.83	1679.33
276.05	1585.13
276.26	1720.29
276.48	1804.26
276.69	1660.90
276.91	1634.28
277.12	1802.21
277.34	1675.24
277.55	1781.73
277.77	1740.77
277.99	1609.70
278.20	1660.90
278.42	1671.14
278.63	1630.18
278.85	1656.81
279.06	1644.52
279.28	1771.49
279.49	1705.96
279.71	1779.68
279.93	1705.96
280.14	1726.44
280.36	1650.66
280.57	1775.59
280.79	1748.97
281.00	1601.51
281.22	1640.42
281.43	1724.39
281.65	1583.08
281.86	1667.05
282.08	1708.01
282.29	1789.92
282.51	1632.23
282.73	1593.32
282.94	1558.50
283.16	1708.01
283.37	1787.88
283.59	1683.43
283.80	1681.38
284.02	1662.95
284.23	1660.90
284.45	1660.90
284.66	1660.90
284.88	1730.53
285.09	1761.25
285.31	1617.90
285.52	1738.73
285.74	1642.47
285.95	1767.40
286.17	1628.14
286.38	1705.96
286.60	1685.48
286.81	1654.76
287.03	1630.18
287.24	1599.46
287.46	1708.01
287.67	1613.80
287.89	1751.01
288.10	1775.59
288.32	1699.81
288.53	1748.97
288.75	1671.14
288.96	1693.67
289.18	1681.38
289.39	1748.97
289.61	1705.96
289.82	1738.73
290.04	1816.55
290.25	1595.37
290.47	1675.24
290.68	1648.61
290.90	1763.30
291.11	1593.32
291.33	1763.30
291.54	1591.27
291.76	1638.38
291.97	1720.29
292.18	1742.82
292.40	1669.09
292.61	1656.81
292.83	1779.68
293.04	1783.78
293.26	1656.81
293.47	1687.53
293.69	1562.60
293.90	1687.53
294.12	1720.29
294.33	1720.29
294.55	1669.09
294.76	1691.62
294.97	1744.87
295.19	1832.93
295.40	1648.61
295.62	1695.72
295.83	1751.01
296.05	1621.99
296.26	1710.05
296.48	1626.09
296.69	1705.96
296.90	1718.25
297.12	1701.86
297.33	1736.68
297.55	1775.59
297.76	1628.14
297.98	1781.73
298.19	1648.61
298.41	1578.98
298.62	1691.62
298.83	1665.00
299.05	1630.18
299.26	1642.47
299.48	1689.57
299.69	1671.14
299.90	1732.58
300.12	1656.81
300.33	1738.73
300.55	1736.68
300.76	1761.25
300.98	1611.75
301.19	1748.97
301.40	1671.14
301.62	1660.90
301.83	1730.53
302.05	1710.05
302.26	1615.85
302.47	1695.72
302.69	1654.76
302.90	1718.25
303.12	1578.98
303.33	1757.16
303.54	1736.68
303.76	1714.15
303.97	1673.19
304.19	1859.56
304.40	1566.70
304.61	1714.15
304.83	1865.70
305.04	1722.34
305.26	1726.44
305.47	1699.81
305.68	1689.57
305.90	1654.76
306.11	1812.45
306.33	1695.72
306.54	1716.20
306.75	1681.38
306.97	1626.09
307.18	1642.47
307.39	1658.85
307.61	1677.29
307.82	1662.95
308.04	1705.96
308.25	1634.28
308.46	1673.19
308.68	1689.57
308.89	1722.34
309.10	1820.64
309.32	1642.47
309.53	1748.97
309.74	1646.57
309.96	1617.90
310.17	1761.25
310.39	1640.42
310.60	1673.19
310.81	1626.09
311.03	1660.90
311.24	1775.59
311.45	1771.49
311.67	1812.45
311.88	1726.44
312.09	1662.95
312.31	1636.33
312.52	1689.57
312.73	1755.11
312.95	1646.57
313.16	1634.28
313.37	1744.87
313.59	1722.34
313.80	1769.44
314.01	1818.60
314.23	1679.33
314.44	1683.43
314.65	1617.90
314.87	1662.95
315.08	1757.16
315.29	1656.81
315.51	1689.57
315.72	1681.38
315.93	1798.12
316.15	1697.77
316.36	1624.04
316.57	1732.58
316.79	1714.15
317.00	1671.14
317.21	1775.59
317.43	1697.77
317.64	1714.15
317.85	1660.90
318.07	1689.57
318.28	1796.07
318.49	1816.55
318.70	1906.66
318.92	1816.55
319.13	1830.88
319.34	1791.97
319.56	1812.45
319.77	1744.87
319.98	1800.16
320.20	1791.97
320.41	1677.29
320.62	1767.40
320.83	1675.24
321.05	1818.60
321.26	1748.97
321.47	1609.70
321.69	1800.16
321.90	1624.04
322.11	1757.16
322.32	1710.05
322.54	1763.30
322.75	1714.15
322.96	1826.79
323.18	1671.14
323.39	1542.12
323.60	1640.42
323.81	1742.82
324.03	1669.09
324.24	1673.19
324.45	1636.33
324.66	1650.66
324.88	1777.64
325.09	1796.07
325.30	1718.25
325.52	1767.40
325.73	1708.01
325.94	1632.23
326.15	1621.99
326.37	1683.43
326.58	1783.78
326.79	1724.39
327.00	1701.86
327.22	1720.29
327.43	1681.38
327.64	1609.70
327.85	1761.25
328.07	1685.48
328.28	1810.40
328.49	1667.05
328.70	1669.09
328.92	1712.10
329.13	1708.01
329.34	1712.10
329.55	1781.73
329.76	1728.49
329.98	1675.24
330.19	1714.15
330.40	1718.25
330.61	1685.48
330.83	1806.31
331.04	1644.52
331.25	1712.10
331.46	1681.38
331.68	1654.76
331.89	1779.68
332.10	1665.00
332.31	1638.38
332.52	1683.43
332.74	1828.84
332.95	1626.09
333.16	1652.71
333.37	1712.10
333.58	1642.47
333.80	1681.38
334.01	1654.76
334.22	1730.53
334.43	1654.76
334.64	1728.49
334.86	1722.34
335.07	1669.09
335.28	1738.73
335.49	1648.61
335.70	1724.39
335.92	1769.44
336.13	1769.44
336.34	1701.86
336.55	1673.19
336.76	1652.71
336.98	1587.18
337.19	1701.86
337.40	1767.40
337.61	1816.55
337.82	1730.53
338.04	1781.73
338.25	1687.53
338.46	1718.25
338.67	1642.47
338.88	1650.66
339.09	1605.61
339.31	1650.66
339.52	1677.29
339.73	1679.33
339.94	1673.19
340.15	1781.73
340.36	1671.14
340.58	1691.62
340.79	1628.14
341.00	1802.21
341.21	1644.52
341.42	1777.64
341.63	1624.04
341.85	1771.49
342.06	1658.85
342.27	1634.28
342.48	1681.38
342.69	1566.70
342.90	1724.39
343.12	1648.61
343.33	1644.52
343.54	1751.01
343.75	1708.01
343.96	1656.81
344.17	1601.51
344.38	1650.66
344.60	1689.57
344.81	1630.18
345.02	1654.76
345.23	1763.30
345.44	1822.69
345.65	1781.73
345.86	1703.91
346.07	1722.34
346.29	1705.96
346.50	1652.71
346.71	1701.86
346.92	1761.25
347.13	1763.30
347.34	1642.47
347.55	1742.82
347.76	1689.57
347.98	1583.08
348.19	1656.81
348.40	1853.41
348.61	1751.01
348.82	1763.30
349.03	1650.66
349.24	1679.33
349.45	1775.59
349.66	1595.37
349.88	1787.88
350.09	1648.61
350.30	1732.58
350.51	1732.58
350.72	1755.11
350.93	1687.53
351.14	1712.10
351.35	1808.36
351.56	1753.06
351.77	1681.38
351.99	1773.54
352.20	1794.02
352.41	1736.68
352.62	1562.60
352.83	1642.47
353.04	1669.09
353.25	1683.43
353.46	1830.88
353.67	1697.77
353.88	1560.55
354.09	1748.97
354.30	1705.96
354.52	1712.10
354.73	1687.53
354.94	1716.20
355.15	1769.44
355.36	1775.59
355.57	1669.09
355.78	1714.15
355.99	1751.01
356.20	1689.57
356.41	1714.15
356.62	1781.73
356.83	1683.43
357.04	1757.16
357.25	1589.22
357.46	1724.39
357.68	1685.48
357.89	1658.85
358.10	1652.71
358.31	1767.40
358.52	1810.40
358.73	1607.66
358.94	1558.50
359.15	1626.09
359.36	1775.59
359.57	1736.68
359.78	1771.49
359.99	1726.44
360.20	1665.00
360.41	1640.42
360.62	1708.01
360.83	1767.40
361.04	1691.62
361.25	1652.71
361.46	1824.74
361.67	1650.66
361.88	1708.01
362.09	1742.82
362.30	1691.62
362.51	1683.43
362.72	1718.25
362.93	1724.39
363.14	1687.53
363.35	1652.71
363.56	1691.62
363.78	1791.97
363.99	1705.96
364.20	1658.85
364.41	1665.00
364.62	1787.88
364.83	1712.10
365.04	1656.81
365.25	1689.57
365.46	1824.74
365.67	1583.08
365.88	1621.99
366.09	1652.71
366.30	1681.38
366.51	1665.00
366.72	1632.23
366.93	1699.81
367.14	1646.57
367.35	1761.25
367.56	1683.43
367.77	1783.78
367.98	1722.34
368.18	1748.97
368.39	1705.96
368.60	1550.31
368.81	1703.91
369.02	1746.92
369.23	1681.38
369.44	1587.18
369.65	1626.09
369.86	1720.29
370.07	1787.88
370.28	1632.23
370.49	1755.11
370.70	1722.34
370.91	1738.73
371.12	1638.38
371.33	1677.29
371.54	1671.14
371.75	1771.49
371.96	1572.84
372.17	1746.92
372.38	1624.04
372.59	1757.16
372.80	1665.00
373.01	1611.75
373.22	1656.81
373.43	1777.64
373.64	1669.09
373.85	1781.73
374.06	1800.16
374.26	1660.90
374.47	1656.81
374.68	1775.59
374.89	1714.15
375.10	1669.09
375.31	1767.40
375.52	1638.38
375.73	1734.63
375.94	1634.28
376.15	1769.44
376.36	1658.85
376.57	1763.30
376.78	1699.81
376.99	1751.01
377.20	1751.01
377.40	1562.60
377.61	1748.97
377.82	1587.18
378.03	1738.73
378.24	1730.53
378.45	1699.81
378.66	1734.63
378.87	1607.66
379.08	1640.42
379.29	1714.15
379.50	1761.25
379.71	1726.44
379.91	1673.19
380.12	1783.78
380.33	1693.67
380.54	1703.91
380.75	1691.62
380.96	1697.77
381.17	1667.05
381.38	1699.81
381.59	1763.30
381.80	1742.82
382.00	1906.66
382.21	1794.02
382.42	1861.60
382.63	1791.97
382.84	1701.86
383.05	1755.11
383.26	1746.92
383.47	1689.57
383.68	1744.87
383.88	1732.58
384.09	1732.58
384.30	1853.41
384.51	1685.48
384.72	1628.14
384.93	1673.19
385.14	1740.77
385.35	1759.21
385.55	1611.75
385.76	1714.15
385.97	1728.49
386.18	1654.76
386.39	1697.77
386.60	1660.90
386.81	1705.96
387.02	1636.33
387.22	1603.56
387.43	1761.25
387.64	1738.73
387.85	1890.28
388.06	2275.29
388.27	4179.90
388.48	6760.34
388.68	8138.63
388.89	9715.56
389.10	9934.70
389.31	8494.97
389.52	7591.82
389.73	6619.04
389.93	6188.96
390.14	5818.28
390.35	5205.94
390.56	4618.17
390.77	3796.93
390.98	2949.08
391.18	2516.95
391.39	2045.92
391.60	1892.32
391.81	1816.55
392.02	1642.47
392.23	1820.64
392.43	1718.25
392.64	1839.08
392.85	1662.95
393.06	1826.79
393.27	1671.14
393.47	1673.19
393.68	1730.53
393.89	1734.63
394.10	1759.21
394.31	1720.29
394.52	1601.51
394.72	1642.47
394.93	1761.25
395.14	1722.34
395.35	1728.49
395.56	1685.48
395.76	1679.33
395.97	1808.36
396.18	1839.08
396.39	1755.11
396.60	1994.72
396.80	1834.98
397.01	1779.68
397.22	1867.75
397.43	1871.84
397.64	1751.01
397.84	1834.98
398.05	1949.67
398.26	1705.96
398.47	1781.73
398.67	1785.83
398.88	1716.20
399.09	1695.72
399.30	1705.96
399.51	1675.24
399.71	1662.95
399.92	1740.77
400.13	1732.58
400.34	1701.86
400.54	1691.62
400.75	1781.73
400.96	1787.88
401.17	1753.06
401.37	1744.87
401.58	1677.29
401.79	1693.67
402.00	1849.32
402.21	1992.67
402.41	1929.19
402.62	2084.83
402.83	2033.63
403.04	2004.96
403.24	2021.35
403.45	1845.22
403.66	1894.37
403.87	1898.47
404.07	1855.46
404.28	1877.99
404.49	1914.85
404.70	1712.10
404.90	1714.15
405.11	1712.10
405.32	1769.44
405.52	1654.76
405.73	1675.24
405.94	1603.56
406.15	1718.25
406.35	1710.05
406.56	1714.15
406.77	1671.14
406.98	1724.39
407.18	1703.91
407.39	1732.58
407.60	1650.66
407.80	1675.24
408.01	1714.15
408.22	1728.49
408.43	1691.62
408.63	1781.73
408.84	1710.05
409.05	1757.16
409.25	1718.25
409.46	1640.42
409.67	1671.14
409.88	1665.00
410.08	1730.53
410.29	1701.86
410.50	1708.01
410.70	1714.15
410.91	1615.85
411.12	1789.92
411.32	1695.72
411.53	1716.20
411.74	1791.97
411.95	1818.60
412.15	1687.53
412.36	1748.97
412.57	1814.50
412.77	1794.02
412.98	1757.16
413.19	1689.57
413.39	1710.05
413.60	1759.21
413.81	1800.16
414.01	1644.52
414.22	1751.01
414.43	1763.30
414.63	1677.29
414.84	1787.88
415.05	1773.54
415.25	1693.67
415.46	1769.44
415.67	1619.94
415.87	1679.33
416.08	1689.57
416.29	1703.91
416.49	1665.00
416.70	1669.09
416.91	1726.44
417.11	1708.01
417.32	1759.21
417.53	1693.67
417.73	1701.86
417.94	1652.71
418.15	1667.05
418.35	1728.49
418.56	1658.85
418.77	1861.60
418.97	1736.68
419.18	1705.96
419.38	1587.18
419.59	1640.42
419.80	1794.02
420.00	1740.77
420.21	1714.15
420.42	1691.62
420.62	1738.73
420.83	1607.66
421.04	1634.28
421.24	1636.33
421.45	1787.88
421.65	1748.97
421.86	1611.75
422.07	1781.73
422.27	1703.91
422.48	1726.44
422.69	1685.48
422.89	1665.00
423.10	1718.25
423.30	1667.05
423.51	1638.38
423.72	1679.33
423.92	1755.11
424.13	1609.70
424.33	1636.33
424.54	1761.25
424.75	1697.77
424.95	1814.50
425.16	1691.62
425.36	1705.96
425.57	1730.53
425.78	1740.77
425.98	1748.97
426.19	1691.62
426.39	1679.33
426.60	1703.91
426.81	1765.35
427.01	1748.97
427.22	1718.25
427.42	1611.75
427.63	1693.67
427.83	1771.49
428.04	1732.58
428.25	1736.68
428.45	1722.34
428.66	1695.72
428.86	1697.77
429.07	1665.00
429.28	1714.15
429.48	1736.68
429.69	1656.81
429.89	1744.87
430.10	1697.77
430.30	1787.88
430.51	1773.54
430.71	1601.51
430.92	1685.48
431.13	1658.85
431.33	1779.68
431.54	1755.11
431.74	1769.44
431.95	1775.59
432.15	1628.14
432.36	1767.40
432.56	1626.09
432.77	1841.12
432.98	1798.12
433.18	1708.01
433.39	1667.05
433.59	1691.62
433.80	1845.22
434.00	1826.79
434.21	1738.73
434.41	1644.52
434.62	1789.92
434.82	1712.10
435.03	1689.57
435.23	1765.35
435.44	1652.71
435.64	1736.68
435.85	1656.81
436.06	1773.54
436.26	1695.72
436.47	1689.57
436.67	1656.81
436.88	1712.10
437.08	1769.44
437.29	1736.68
437.49	1708.01
437.70	1759.21
437.90	1718.25
438.11	1837.03
438.31	1757.16
438.52	1906.66
438.72	1773.54
438.93	1828.84
439.13	1804.26
439.34	1857.51
439.54	1736.68
439.75	1763.30
439.95	1824.74
440.16	1751.01
440.36	1740.77
440.57	1800.16
440.77	1695.72
440.98	1751.01
441.18	1779.68
441.39	1689.57
441.59	1583.08
441.80	1783.78
442.00	1714.15
442.21	1771.49
442.41	1656.81
442.62	1759.21
442.82	1640.42
443.02	1726.44
443.23	1767.40
443.43	1697.77
443.64	1738.73
443.84	1701.86
444.05	1824.74
444.25	1742.82
444.46	1681.38
444.66	1740.77
444.87	1771.49
445.07	1621.99
445.28	1695.72
445.48	1806.31
445.69	1755.11
445.89	1855.46
446.09	1783.78
446.30	2025.44
446.50	2590.68
446.71	3745.73
446.91	4276.16
447.12	4714.42
447.32	4741.05
447.53	4306.88
447.73	3852.23
447.93	3487.69
448.14	3186.64
448.34	3147.73
448.55	2863.06
448.75	2838.48
448.96	2703.32
449.16	2430.94
449.36	2269.15
449.57	2123.74
449.77	1861.60
449.98	1720.29
450.18	1722.34
450.39	1730.53
450.59	1763.30
450.79	1748.97
451.00	1767.40
451.20	1746.92
451.41	1681.38
451.61	1769.44
451.81	1742.82
452.02	1785.83
452.22	1728.49
452.43	1677.29
452.63	1699.81
452.84	1736.68
453.04	1759.21
453.24	1677.29
453.45	1767.40
453.65	1701.86
453.86	1759.21
454.06	1757.16
454.26	1808.36
454.47	1695.72
454.67	1708.01
454.87	1644.52
455.08	1779.68
455.28	1775.59
455.49	1783.78
455.69	1669.09
455.89	1787.88
456.10	1847.27
456.30	1720.29
456.51	1718.25
456.71	1806.31
456.91	1773.54
457.12	1697.77
457.32	1716.20
457.52	1732.58
457.73	1794.02
457.93	1787.88
458.14	1697.77
458.34	1630.18
458.54	1763.30
458.75	1716.20
458.95	1824.74
459.15	1691.62
459.36	1740.77
459.56	1689.57
459.76	1894.37
459.97	1742.82
460.17	1759.21
460.37	1812.45
460.58	1691.62
460.78	1751.01
460.99	1683.43
461.19	1804.26
461.39	1728.49
461.60	1794.02
461.80	1808.36
462.00	1628.14
462.21	1683.43
462.41	1685.48
462.61	1671.14
462.82	1601.51
463.02	1757.16
463.22	1710.05
463.43	1769.44
463.63	1716.20
463.83	1824.74
464.04	1757.16
464.24	1736.68
464.44	1744.87
464.64	1718.25
464.85	1667.05
465.05	1789.92
465.25	1736.68
465.46	1640.42
465.66	1738.73
465.86	1775.59
466.07	1789.92
466.27	1714.15
466.47	1556.46
466.68	1658.85
466.88	1785.83
467.08	1779.68
467.29	1763.30
467.49	1765.35
467.69	1714.15
467.89	1669.09
468.10	1691.62
468.30	1834.98
468.50	1845.22
468.71	1773.54
468.91	1583.08
469.11	1824.74
469.31	1708.01
469.52	1677.29
469.72	1757.16
469.92	1826.79
470.13	1755.11
470.33	1755.11
470.53	1849.32
470.73	2123.74
470.94	2279.39
471.14	2361.31
471.34	2482.14
471.54	2418.65
471.75	2256.86
471.95	2191.33
472.15	2170.85
472.36	2109.41
472.56	2037.73
472.76	1986.53
472.96	1998.82
473.17	1947.62
473.37	1865.70
473.57	1832.93
473.77	1798.12
473.98	1814.50
474.18	1798.12
474.38	1945.57
474.58	1740.77
474.79	1640.42
474.99	1703.91
475.19	1789.92
475.39	1628.14
475.60	1730.53
475.80	1710.05
476.00	1726.44
476.20	1667.05
476.41	1761.25
476.61	1787.88
476.81	1826.79
477.01	1662.95
477.21	1824.74
477.42	1705.96
477.62	1611.75
477.82	1777.64
478.02	1697.77
478.23	1753.06
478.43	1675.24
478.63	1656.81
478.83	1732.58
479.03	1726.44
479.24	1763.30
479.44	1843.17
479.64	1656.81
479.84	1632.23
480.04	1650.66
480.25	1796.07
480.45	1636.33
480.65	1742.82
480.85	1734.63
481.06	1675.24
481.26	1755.11
481.46	1740.77
481.66	1703.91
481.86	1671.14
482.06	1734.63
482.27	1667.05
482.47	1699.81
482.67	1787.88
482.87	1724.39
483.07	1804.26
483.28	1689.57
483.48	1646.57
483.68	1701.86
483.88	1671.14
484.08	1652.71
484.29	1642.47
484.49	1755.11
484.69	1691.62
484.89	1767.40
485.09	1849.32
485.29	1740.77
485.50	1742.82
485.70	1673.19
485.90	1810.40
486.10	1685.48
486.30	1710.05
486.50	1802.21
486.71	1785.83
486.91	1767.40
487.11	1773.54
487.31	1576.94
487.51	1683.43
487.71	1701.86
487.91	1656.81
488.12	1630.18
488.32	1564.65
488.52	1716.20
488.72	1654.76
488.92	1732.58
489.12	1851.36
489.32	1789.92
489.53	1740.77
489.73	1544.17
489.93	1839.08
490.13	1576.94
490.33	1677.29
490.53	1748.97
490.73	1751.01
490.94	1710.05
491.14	1738.73
491.34	1857.51
491.54	2113.50
491.74	2562.01
491.94	2904.02
492.14	3033.04
492.34	2942.93
492.54	2740.18
492.75	2533.34
492.95	2435.03
493.15	2314.20
493.35	2297.82
493.55	2197.47
493.75	2179.04
493.95	2232.29
494.15	2039.78
494.35	1884.13
494.56	1912.80
494.76	1781.73
494.96	1783.78
495.16	1837.03
495.36	1746.92
495.56	1767.40
495.76	1753.06
495.96	1746.92
496.16	1761.25
496.36	1822.69
496.56	1755.11
496.77	1771.49
496.97	1667.05
497.17	1826.79
497.37	1638.38
497.57	1679.33
497.77	1781.73
497.97	1642.47
498.17	1705.96
498.37	1660.90
498.57	1802.21
498.77	1667.05
498.97	1695.72
499.17	1822.69
499.38	1716.20
499.58	1779.68
499.78	1699.81
499.98	1742.82
500.18	1671.14
500.38	1722.34
500.58	1869.80
500.78	2461.66
500.98	4589.50
501.18	5849.00
501.38	6827.93
501.58	6963.09
501.78	6539.16
501.98	5541.80
502.18	4911.03
502.38	4378.56
502.58	4138.94
502.78	3831.75
502.98	3624.90
503.18	3467.21
503.38	3217.36
503.59	2856.92
503.79	2652.12
503.99	2516.95
504.19	2291.68
504.39	2230.24
504.59	2113.50
504.79	2074.59
504.99	2142.18
505.19	2029.54
505.39	1869.80
505.59	1974.24
505.79	1900.52
505.99	1855.46
506.19	1877.99
506.39	1920.99
506.59	1642.47
506.79	1705.96
506.99	1841.12
507.19	1773.54
507.39	1730.53
507.59	1714.15
507.79	1699.81
507.99	1695.72
508.19	1673.19
508.39	1662.95
508.59	1703.91
508.79	1849.32
508.99	1828.84
509.19	1716.20
509.39	1802.21
509.59	1603.56
509.79	1675.24
509.99	1714.15
510.19	1746.92
510.39	1814.50
510.59	1783.78
510.79	1642.47
510.99	1665.00
511.19	1613.80
511.39	1806.31
511.59	1796.07
511.79	1783.78
511.99	1710.05
512.19	1761.25
512.38	1703.91
512.58	1722.34
512.78	1761.25
512.98	1843.17
513.18	1775.59
513.38	1677.29
513.58	1773.54
513.78	1755.11
513.98	1740.77
514.18	1751.01
514.38	1693.67
514.58	1716.20
514.78	1730.53
514.98	1681.38
515.18	1724.39
515.38	1648.61
515.58	1779.68
515.78	1718.25
515.98	1746.92
516.18	1722.34
516.38	1824.74
516.57	1675.24
516.77	1708.01
516.97	1853.41
517.17	1773.54
517.37	1650.66
517.57	1742.82
517.77	1787.88
517.97	1724.39
518.17	1720.29
518.37	1681.38
518.57	1738.73
518.77	1722.34
518.97	1646.57
519.16	1748.97
519.36	1794.02
519.56	1687.53
519.76	1738.73
519.96	1728.49
520.16	1830.88
520.36	1652.71
520.56	1808.36
520.76	1730.53
520.96	1732.58
521.16	1804.26
521.35	1677.29
521.55	1763.30
521.75	1732.58
521.95	1662.95
522.15	1722.34
522.35	1675.24
522.55	1640.42
522.75	1710.05
522.95	1708.01
523.14	1701.86
523.34	1767.40
523.54	1742.82
523.74	1746.92
523.94	1746.92
524.14	1689.57
524.34	1710.05
524.54	1787.88
524.73	1636.33
524.93	1746.92
525.13	1787.88
525.33	1734.63
525.53	1861.60
525.73	1789.92
525.93	1701.86
526.13	1695.72
526.32	1738.73
526.52	1755.11
526.72	1820.64
526.92	1740.77
527.12	1775.59
527.32	1695.72
527.52	1769.44
527.71	1804.26
527.91	1761.25
528.11	1699.81
528.31	1777.64
528.51	1701.86
528.71	1746.92
528.90	1755.11
529.10	1789.92
529.30	1744.87
529.50	1683.43
529.70	1853.41
529.90	1806.31
530.09	1746.92
530.29	1656.81
530.49	1638.38
530.69	1865.70
530.89	1669.09
531.09	1665.00
531.28	1699.81
531.48	1738.73
531.68	1765.35
531.88	1738.73
532.08	1798.12
532.28	1650.66
532.47	1800.16
532.67	1787.88
532.87	1779.68
533.07	1726.44
533.27	1714.15
533.46	1763.30
533.66	1665.00
533.86	1718.25
534.06	1787.88
534.26	1773.54
534.45	1667.05
534.65	1705.96
534.85	1697.77
535.05	1650.66
535.25	1720.29
535.44	1718.25
535.64	1730.53
535.84	1751.01
536.04	1710.05
536.24	1738.73
536.43	1665.00
536.63	1689.57
536.83	1644.52
537.03	1708.01
537.22	1615.85
537.42	1685.48
537.62	1724.39
537.82	1665.00
538.02	1810.40
538.21	1748.97
538.41	1845.22
538.61	1746.92
538.81	1710.05
539.00	1859.56
539.20	1677.29
539.40	1726.44
539.60	1777.64
539.79	1732.58
539.99	1785.83
540.19	1746.92
540.39	1714.15
540.58	1771.49
540.78	1759.21
540.98	1716.20
541.18	1759.21
541.37	1812.45
541.57	1697.77
541.77	1742.82
541.97	1681.38
542.16	1636.33
542.36	1734.63
542.56	1730.53
542.76	1869.80
542.95	1771.49
543.15	1757.16
543.35	1726.44
543.54	1744.87
543.74	1662.95
543.94	1810.40
544.14	1703.91
544.33	1712.10
544.53	1708.01
544.73	1800.16
544.93	1734.63
545.12	1632.23
545.32	1767.40
545.52	1691.62
545.71	1699.81
545.91	1722.34
546.11	1667.05
546.30	1724.39
546.50	1703.91
546.70	1724.39
546.90	1804.26
547.09	1619.94
547.29	1759.21
547.49	1720.29
547.68	1724.39
547.88	1652.71
548.08	1765.35
548.27	2172.89
548.47	1675.24
548.67	1794.02
548.87	1763.30
549.06	1728.49
549.26	1740.77
549.46	1716.20
549.65	1759.21
549.85	1710.05
550.05	1800.16
550.24	1681.38
550.44	1724.39
550.64	1759.21
550.83	1685.48
551.03	1759.21
551.23	1728.49
551.42	1716.20
551.62	1753.06
551.82	1738.73
552.01	1775.59
552.21	1808.36
552.41	1751.01
552.60	1787.88
552.80	1689.57
553.00	1650.66
553.19	1757.16
553.39	1787.88
553.59	1710.05
553.78	1781.73
553.98	1763.30
554.17	1583.08
554.37	1787.88
554.57	1798.12
554.76	1648.61
554.96	1701.86
555.16	1648.61
555.35	1746.92
555.55	1769.44
555.75	1746.92
555.94	1705.96
556.14	1662.95
556.33	1810.40
556.53	1763.30
556.73	1753.06
556.92	1798.12
557.12	1806.31
557.32	1759.21
557.51	1771.49
557.71	1802.21
557.90	1849.32
558.10	1742.82
558.30	1691.62
558.49	1724.39
558.69	1656.81
558.88	1718.25
559.08	1699.81
559.28	1705.96
559.47	1689.57
559.67	1785.83
559.86	1834.98
560.06	1777.64
560.26	1744.87
560.45	1710.05
560.65	1767.40
560.84	1845.22
561.04	1701.86
561.24	1738.73
561.43	1679.33
561.63	1806.31
561.82	1763.30
562.02	1826.79
562.22	1644.52
562.41	1679.33
562.61	1718.25
562.80	1640.42
563.00	1869.80
563.19	1789.92
563.39	1771.49
563.59	1744.87
563.78	1656.81
563.98	1697.77
564.17	1705.96
564.37	1689.57
564.56	1708.01
564.76	1740.77
564.96	1761.25
565.15	1724.39
565.35	1906.66
565.54	1740.77
565.74	1765.35
565.93	1781.73
566.13	1789.92
566.32	1791.97
566.52	1781.73
566.71	1712.10
566.91	1763.30
567.11	1701.86
567.30	1658.85
567.50	1730.53
567.69	1662.95
567.89	1722.34
568.08	1708.01
568.28	1808.36
568.47	1689.57
568.67	1742.82
568.86	1746.92
569.06	1820.64
569.25	1705.96
569.45	1726.44
569.64	1667.05
569.84	1763.30
570.04	1742.82
570.23	1734.63
570.43	1716.20
570.62	1736.68
570.82	1818.60
571.01	1708.01
571.21	1718.25
571.40	1697.77
571.60	1771.49
571.79	1781.73
571.99	1751.01
572.18	1703.91
572.38	1787.88
572.57	1712.10
572.77	1728.49
572.96	1902.56
573.16	1708.01
573.35	1712.10
573.55	1794.02
573.74	1830.88
573.94	1767.40
574.13	1679.33
574.33	1814.50
574.52	1763.30
574.71	1718.25
574.91	1810.40
575.10	1648.61
575.30	1732.58
575.49	1742.82
575.69	1744.87
575.88	1789.92
576.08	1683.43
576.27	1726.44
576.47	1742.82
576.66	1880.04
576.86	1804.26
577.05	1746.92
577.25	1808.36
577.44	1886.18
577.64	1732.58
577.83	1755.11
578.02	1722.34
578.22	1812.45
578.41	1751.01
578.61	1783.78
578.80	1675.24
579.00	1701.86
579.19	1738.73
579.39	1765.35
579.58	1806.31
579.77	1708.01
579.97	1877.99
580.16	1806.31
580.36	1822.69
580.55	1898.47
580.75	1726.44
580.94	1755.11
581.13	1785.83
581.33	1783.78
581.52	1740.77
581.72	1896.42
581.91	1875.94
582.11	1753.06
582.30	1734.63
582.49	1775.59
582.69	1724.39
582.88	1830.88
583.08	1728.49
583.27	1820.64
583.47	1718.25
583.66	1703.91
583.85	1681.38
584.05	1703.91
584.24	1875.94
584.44	1746.92
584.63	1787.88
584.82	1763.30
585.02	1787.88
585.21	1894.37
585.41	1791.97
585.60	1779.68
585.79	1900.52
585.99	1914.85
586.18	1834.98
586.37	2146.27
586.57	3430.35
586.76	9772.91
586.96	24503.95
587.15	34553.33
587.34	40428.95
587.54	41872.77
587.73	36199.90
587.93	26338.93
588.12	21313.21
588.31	18304.74
588.51	16328.45
588.70	15075.10
588.89	13995.82
589.09	12717.89
589.28	11054.94
589.47	9430.90
589.67	7853.96
589.86	6287.26
590.06	4900.79
590.25	3868.61
590.44	3082.19
590.64	2592.73
590.83	2201.57
591.02	2080.74
591.22	1882.08
591.41	1896.42
591.60	1837.03
591.80	1978.34
591.99	1701.86
592.18	1806.31
592.38	1802.21
592.57	1839.08
592.76	1748.97
592.96	1787.88
593.15	1728.49
593.34	1841.12
593.54	1816.55
593.73	1779.68
593.92	1728.49
594.12	1744.87
594.31	1740.77
594.50	1785.83
594.70	1777.64
594.89	1853.41
595.08	1689.57
595.28	1732.58
595.47	1861.60
595.66	1859.56
595.86	1652.71
596.05	1669.09
596.24	1697.77
596.43	1859.56
596.63	1808.36
596.82	1667.05
597.01	1777.64
597.21	1820.64
597.40	1777.64
597.59	1751.01
597.79	1720.29
597.98	1781.73
598.17	1746.92
598.36	1685.48
598.56	1796.07
598.75	1677.29
598.94	1736.68
599.14	1775.59
599.33	1640.42
599.52	1769.44
599.71	1804.26
599.91	1769.44
600.10	1740.77
600.29	1742.82
600.48	1687.53
600.68	1781.73
600.87	1748.97
601.06	1658.85
601.26	1763.30
601.45	1804.26
601.64	1710.05
601.83	1804.26
602.03	1705.96
602.22	1697.77
602.41	1808.36
602.60	1933.28
602.80	1722.34
602.99	1783.78
603.18	1662.95
603.37	1773.54
603.57	1738.73
603.76	1771.49
603.95	1837.03
604.14	1765.35
604.34	1701.86
604.53	1816.55
604.72	1746.92
604.91	1746.92
605.10	1746.92
605.30	1667.05
605.49	1869.80
605.68	1767.40
605.87	1796.07
606.07	1703.91
606.26	1691.62
606.45	1845.22
606.64	1800.16
606.84	1675.24
607.03	1753.06
607.22	1712.10
607.41	1683.43
607.60	1732.58
607.80	1779.68
607.99	1724.39
608.18	1753.06
608.37	1759.21
608.56	1722.34
608.76	1738.73
608.95	1857.51
609.14	1712.10
609.33	1740.77
609.52	1802.21
609.72	1714.15
609.91	1785.83
610.10	1824.74
610.29	1751.01
610.48	1773.54
610.68	1710.05
610.87	1775.59
611.06	1765.35
611.25	1724.39
611.44	1828.84
611.63	1669.09
611.83	1820.64
612.02	1628.14
612.21	1834.98
612.40	1587.18
612.59	1675.24
612.79	1660.90
612.98	1730.53
613.17	1751.01
613.36	1675.24
613.55	1832.93
613.74	1751.01
613.93	1669.09
614.13	1673.19
614.32	1767.40
614.51	1746.92
614.70	1763.30
614.89	1789.92
615.08	1798.12
615.28	1986.53
615.47	1734.63
615.66	1714.15
615.85	1656.81
616.04	1787.88
616.23	1708.01
616.42	1691.62
616.62	1771.49
616.81	1798.12
617.00	1714.15
617.19	1765.35
617.38	1740.77
617.57	1765.35
617.76	1824.74
617.95	1671.14
618.15	1791.97
618.34	1755.11
618.53	1544.17
618.72	1794.02
618.91	1791.97
619.10	1841.12
619.29	1685.48
619.48	1779.68
619.68	1665.00
619.87	1671.14
620.06	1583.08
620.25	1763.30
620.44	1689.57
620.63	1759.21
620.82	1617.90
621.01	1710.05
621.20	1763.30
621.39	1783.78
621.59	1789.92
621.78	1675.24
621.97	1828.84
622.16	1767.40
622.35	1673.19
622.54	1724.39
622.73	1820.64
622.92	1619.94
623.11	1761.25
623.30	1738.73
623.49	1683.43
623.68	1675.24
623.88	1843.17
624.07	1732.58
624.26	1746.92
624.45	1677.29
624.64	1689.57
624.83	1726.44
625.02	1656.81
625.21	1693.67
625.40	1765.35
625.59	1894.37
625.78	1615.85
625.97	1789.92
626.16	1728.49
626.35	1699.81
626.54	1755.11
626.74	1779.68
626.93	1697.77
627.12	1720.29
627.31	1787.88
627.50	1673.19
627.69	1744.87
627.88	1697.77
628.07	1648.61
628.26	1630.18
628.45	1724.39
628.64	1621.99
628.83	1685.48
629.02	1648.61
629.21	1781.73
629.40	1685.48
629.59	1687.53
629.78	1742.82
629.97	1662.95
630.16	1775.59
630.35	1652.71
630.54	1748.97
630.73	1732.58
630.92	1728.49
631.11	1695.72
631.30	1773.54
631.49	1767.40
631.68	1701.86
631.87	1705.96
632.06	1660.90
632.25	1832.93
632.44	1765.35
632.63	1712.10
632.82	1697.77
633.01	1619.94
633.20	1669.09
633.39	1656.81
633.58	1695.72
633.77	1630.18
633.96	1708.01
634.15	1767.40
634.34	1769.44
634.53	1730.53
634.72	1710.05
634.91	1615.85
635.10	1722.34
635.29	1787.88
635.48	1726.44
635.67	1685.48
635.86	1699.81
636.05	1736.68
636.24	1757.16
636.43	1755.11
636.62	1712.10
636.81	1583.08
637.00	1701.86
637.19	1787.88
637.38	1767.40
637.57	1656.81
637.76	1683.43
637.95	1769.44
638.14	1675.24
638.33	1714.15
638.52	1794.02
638.71	1597.42
638.89	1648.61
639.08	1920.99
639.27	1705.96
639.46	1685.48
639.65	1755.11
639.84	1736.68
640.03	1738.73
640.22	1654.76
640.41	1824.74
640.60	1712.10
640.79	1730.53
640.98	1611.75
641.17	1734.63
641.36	1771.49
641.55	1705.96
641.74	1689.57
641.92	1675.24
642.11	1650.66
642.30	1718.25
642.49	1667.05
642.68	1685.48
642.87	1748.97
643.06	1785.83
643.25	1574.89
643.44	1710.05
643.63	1730.53
643.82	1714.15
644.00	1660.90
644.19	1744.87
644.38	1708.01
644.57	1640.42
644.76	1800.16
644.95	1693.67
645.14	1687.53
645.33	1693.67
645.52	1759.21
645.71	1615.85
645.89	1642.47
646.08	1677.29
646.27	1759.21
646.46	1859.56
646.65	1624.04
646.84	1728.49
647.03	1681.38
647.22	1746.92
647.40	1732.58
647.59	1708.01
647.78	1648.61
647.97	1611.75
648.16	1621.99
648.35	1771.49
648.54	1816.55
648.73	1728.49
648.91	1685.48
649.10	1701.86
649.29	1665.00
649.48	1761.25
649.67	1714.15
649.86	1726.44
650.05	1632.23
650.23	1779.68
650.42	1626.09
650.61	1763.30
650.80	1839.08
650.99	1814.50
651.18	1744.87
651.36	1783.78
651.55	1689.57
651.74	1847.27
651.93	1763.30
652.12	1728.49
652.31	1710.05
652.49	1648.61
652.68	1689.57
652.87	1736.68
653.06	1705.96
653.25	1757.16
653.44	1697.77
653.62	1699.81
653.81	1722.34
654.00	1677.29
654.19	1775.59
654.38	1898.47
654.56	1771.49
654.75	1728.49
654.94	1843.17
655.13	1726.44
655.32	1615.85
655.51	1849.32
655.69	1628.14
655.88	1681.38
656.07	1648.61
656.26	1779.68
656.45	1658.85
656.63	1730.53
656.82	1726.44
657.01	1742.82
657.20	1708.01
657.38	1804.26
657.57	1679.33
657.76	1691.62
657.95	1763.30
658.14	1765.35
658.32	1740.77
658.51	1660.90
658.70	1732.58
658.89	1759.21
659.08	1736.68
659.26	1689.57
659.45	1679.33
659.64	1763.30
659.83	1708.01
660.01	1877.99
660.20	1665.00
660.39	1798.12
660.58	1609.70
660.76	1761.25
660.95	1603.56
661.14	1718.25
661.33	1636.33
661.51	1773.54
661.70	1658.85
661.89	1748.97
662.08	1771.49
662.26	1605.61
662.45	1677.29
662.64	1742.82
662.83	1746.92
663.01	1646.57
663.20	1652.71
663.39	1769.44
663.58	1708.01
663.76	1681.38
663.95	1710.05
664.14	1681.38
664.32	1693.67
664.51	1654.76
664.70	1624.04
664.89	1732.58
665.07	1767.40
665.26	1791.97
665.45	1658.85
665.64	1742.82
665.82	1757.16
666.01	1767.40
666.20	1636.33
666.38	1771.49
666.57	1791.97
666.76	2213.85
666.95	4474.81
667.13	10530.66
667.32	15148.82
667.51	17667.83
667.69	18802.40
667.88	17483.51
668.07	12218.18
668.25	9705.32
668.44	8044.42
668.63	7354.26
668.81	6850.46
669.00	6244.26
669.19	5767.08
669.38	5162.93
669.56	4597.69
669.75	3891.14
669.94	3420.11
670.12	2930.64
670.31	2580.44
670.50	2334.68
670.68	2045.92
670.87	1939.43
671.06	1728.49
671.24	1853.41
671.43	1886.18
671.62	1781.73
671.80	1673.19
671.99	1771.49
672.18	1718.25
672.36	1769.44
672.55	1775.59
672.74	1705.96
672.92	1656.81
673.11	1746.92
673.29	1716.20
673.48	1738.73
673.67	1705.96
673.85	1806.31
674.04	1718.25
674.23	1732.58
674.41	1771.49
674.60	1677.29
674.79	1599.46
674.97	1716.20
675.16	1816.55
675.34	1785.83
675.53	1691.62
675.72	1691.62
675.90	1918.95
676.09	1648.61
676.28	1677.29
676.46	1665.00
676.65	1683.43
676.83	1656.81
677.02	1699.81
677.21	1697.77
677.39	1785.83
677.58	1669.09
677.77	1722.34
677.95	1691.62
678.14	1689.57
678.32	1757.16
678.51	1681.38
678.70	1822.69
678.88	1697.77
679.07	1740.77
679.25	1705.96
679.44	1691.62
679.63	1617.90
679.81	1732.58
680.00	1773.54
680.18	1671.14
680.37	1785.83
680.55	1732.58
680.74	1656.81
680.93	1654.76
681.11	1675.24
681.30	1718.25
681.48	1744.87
681.67	1685.48
681.85	1685.48
682.04	1695.72
682.23	1726.44
682.41	1722.34
682.60	1617.90
682.78	1716.20
682.97	1689.57
683.15	1687.53
683.34	1703.91
683.53	1798.12
683.71	1662.95
683.90	1710.05
684.08	1775.59
684.27	1708.01
684.45	1667.05
684.64	1722.34
684.82	1695.72
685.01	1710.05
685.19	1595.37
685.38	1800.16
685.57	1677.29
685.75	1673.19
685.94	1675.24
686.12	1646.57
686.31	1652.71
686.49	1724.39
686.68	1605.61
686.86	1697.77
687.05	1685.48
687.23	1794.02
687.42	1640.42
687.60	1648.61
687.79	1677.29
687.97	1798.12
688.16	1742.82
688.34	1738.73
688.53	1626.09
688.71	1677.29
688.90	1773.54
689.08	1732.58
689.27	1603.56
689.45	1744.87
689.64	1720.29
689.82	1718.25
690.01	1744.87
690.19	1656.81
690.38	1691.62
690.56	1744.87
690.75	1667.05
690.93	1630.18
691.12	1638.38
691.30	1665.00
691.49	1630.18
691.67	1624.04
691.86	1798.12
692.04	1662.95
692.23	1605.61
692.41	1619.94
692.60	1812.45
692.78	1716.20
692.97	1665.00
693.15	1724.39
693.34	1841.12
693.52	1787.88
693.71	1656.81
693.89	1744.87
694.08	1624.04
694.26	1703.91
694.44	1751.01
694.63	1720.29
694.81	1669.09
695.00	1667.05
695.18	1728.49
695.37	1861.60
695.55	1775.59
695.74	1722.34
695.92	1650.66
696.10	1781.73
696.29	1644.52
696.47	1660.90
696.66	1636.33
696.84	1658.85
697.03	1695.72
697.21	1843.17
697.40	2306.01
697.58	1771.49
697.76	1697.77
697.95	1703.91
698.13	1648.61
698.32	1665.00
698.50	1740.77
698.68	1679.33
698.87	1771.49
699.05	1742.82
699.24	1773.54
699.42	1691.62
699.61	1767.40
699.79	1759.21
699.97	1691.62
700.16	1621.99
700.34	1636.33
700.53	1708.01
700.71	1806.31
700.89	1794.02
701.08	1673.19
701.26	1730.53
701.45	2039.78
701.63	1693.67
701.81	1769.44
702.00	1603.56
702.18	1656.81
702.37	1679.33
702.55	1759.21
702.73	1726.44
702.92	1617.90
703.10	1789.92
703.28	1701.86
703.47	1695.72
703.65	1794.02
703.84	1849.32
704.02	1685.48
704.20	1757.16
704.39	1681.38
704.57	1679.33
704.75	1679.33
704.94	1693.67
705.12	1744.87
705.30	1798.12
705.49	2275.29
705.67	4452.28
705.86	9344.88
706.04	12740.41
706.22	14446.37
706.41	15681.30
706.59	13868.84
706.77	9611.12
706.96	7348.11
707.14	6563.74
707.32	5937.06
707.51	5576.62
707.69	4954.04
707.87	4243.39
708.06	3610.57
708.24	2936.79
708.42	2377.69
708.61	2295.77
708.79	1908.71
708.97	1888.23
709.16	1789.92
709.34	1773.54
709.52	1734.63
709.71	1675.24
709.89	1779.68
710.07	1669.09
710.26	1671.14
710.44	1654.76
710.62	1730.53
710.80	1742.82
710.99	1779.68
711.17	1708.01
711.35	1642.47
711.54	1669.09
711.72	1816.55
711.90	1751.01
712.09	1748.97
712.27	1695.72
712.45	1767.40
712.63	1685.48
712.82	1742.82
713.00	1671.14
713.18	1794.02
713.37	1744.87
713.55	1783.78
713.73	1685.48
713.91	1783.78
714.10	1681.38
714.28	1691.62
714.46	1671.14
714.65	1695.72
714.83	1708.01
715.01	1757.16
715.19	1742.82
715.38	1667.05
715.56	1685.48
715.74	1710.05
715.92	1607.66
716.11	1791.97
716.29	1638.38
716.47	1689.57
716.65	1689.57
716.84	1589.22
717.02	1761.25
717.20	1718.25
717.38	1642.47
717.57	1689.57
717.75	1687.53
717.93	1740.77
718.11	1703.91
718.30	1714.15
718.48	1691.62
718.66	1761.25
718.84	1767.40
719.03	1728.49
719.21	1599.46
719.39	1800.16
719.57	1705.96
719.75	1761.25
719.94	1617.90
720.12	1753.06
720.30	1736.68
720.48	1703.91
720.67	1669.09
720.85	1712.10
721.03	1708.01
721.21	1615.85
721.39	1785.83
721.58	1818.60
721.76	1705.96
721.94	1724.39
722.12	1677.29
722.30	1761.25
722.49	1730.53
722.67	1738.73
722.85	1673.19
723.03	1619.94
723.21	1712.10
723.40	1779.68
723.58	1695.72
723.76	1740.77
723.94	1769.44
724.12	1785.83
724.30	1746.92
724.49	1757.16
724.67	1646.57
724.85	1832.93
725.03	1632.23
725.21	1767.40
725.40	1718.25
725.58	1665.00
725.76	1738.73
725.94	1730.53
726.12	1658.85
726.30	1720.29
726.49	1722.34
726.67	1640.42
726.85	1740.77
727.03	1787.88
727.21	2228.19
727.39	2934.74
727.57	3778.50
727.76	4206.53
727.94	4370.37
728.12	4431.80
728.30	3725.26
728.48	2906.07
728.66	2760.66
728.84	2555.86
729.03	2232.29
729.21	2162.66
729.39	2017.25
729.57	1798.12
729.75	1820.64
729.93	1814.50
730.11	1642.47
730.30	1781.73
730.48	1681.38
730.66	1832.93
730.84	1759.21
731.02	1708.01
731.20	1679.33
731.38	1658.85
731.56	1675.24
731.74	1693.67
731.93	1662.95
732.11	1710.05
732.29	1638.38
732.47	1681.38
732.65	1751.01
732.83	1810.40
733.01	1724.39
733.19	1681.38
733.37	1699.81
733.56	1644.52
733.74	1679.33
733.92	1785.83
734.10	1681.38
734.28	1665.00
734.46	1566.70
734.64	1744.87
734.82	1611.75
735.00	1644.52
735.18	1669.09
735.36	1589.22
735.54	1609.70
735.73	1746.92
735.91	1763.30
736.09	1732.58
736.27	1710.05
736.45	1734.63
736.63	1552.36
736.81	1640.42
736.99	1746.92
737.17	1691.62
737.35	1689.57
737.53	1736.68
737.71	1751.01
737.89	1744.87
738.07	1605.61
738.25	1658.85
738.43	1615.85
738.61	1644.52
738.80	1630.18
738.98	1626.09
739.16	1632.23
739.34	1742.82
739.52	1769.44
739.70	1691.62
739.88	1697.77
740.06	1818.60
740.24	1607.66
740.42	1759.21
740.60	1558.50
740.78	1650.66
740.96	1646.57
741.14	1740.77
741.32	1701.86
741.50	1628.14
741.68	1820.64
741.86	1814.50
742.04	1636.33
742.22	1626.09
742.40	1679.33
742.58	1656.81
742.76	1697.77
742.94	1742.82
743.12	1521.64
743.30	1669.09
743.48	1708.01
743.66	1589.22
743.84	1710.05
744.02	1691.62
744.20	1630.18
744.38	1691.62
744.56	1763.30
744.74	1794.02
744.92	1738.73
745.10	1775.59
745.28	1710.05
745.46	1746.92
745.64	1669.09
745.82	1665.00
746.00	1730.53
746.18	1699.81
746.36	1607.66
746.54	1705.96
746.72	1726.44
746.90	1650.66
747.08	1781.73
747.26	1685.48
747.44	1705.96
747.62	1685.48
747.80	1730.53
747.98	1708.01
748.15	1724.39
748.33	1738.73
748.51	1675.24
748.69	1722.34
748.87	1681.38
749.05	1757.16
749.23	1714.15
749.41	1714.15
749.59	1740.77
749.77	1748.97
749.95	1699.81
750.13	1732.58
750.31	1787.88
750.49	1658.85
750.67	1796.07
750.85	1775.59
751.03	1722.34
751.20	1810.40
751.38	1683.43
751.56	1720.29
751.74	1693.67
751.92	1615.85
752.10	1636.33
752.28	1708.01
752.46	1679.33
752.64	1720.29
752.82	1691.62
753.00	1826.79
753.18	1683.43
753.35	1640.42
753.53	1660.90
753.71	1617.90
753.89	1642.47
754.07	1665.00
754.25	1765.35
754.43	1681.38
754.61	1665.00
754.79	1748.97
754.97	1658.85
755.14	1771.49
755.32	1714.15
755.50	1703.91
755.68	1714.15
755.86	1652.71
756.04	1656.81
756.22	1624.04
756.40	1771.49
756.57	1757.16
756.75	1683.43
756.93	1740.77
757.11	1769.44
757.29	1626.09
757.47	1673.19
757.65	1599.46
757.82	1611.75
758.00	1714.15
758.18	1603.56
758.36	1636.33
758.54	1728.49
758.72	1646.57
758.90	1738.73
759.07	1753.06
759.25	1648.61
759.43	1705.96
759.61	1697.77
759.79	2187.23
759.97	1785.83
760.15	1675.24
760.32	1697.77
760.50	1665.00
760.68	1763.30
760.86	1585.13
761.04	1718.25
761.22	1755.11
761.39	1730.53
761.57	1695.72
761.75	1646.57
761.93	1796.07
762.11	1761.25
762.28	1667.05
762.46	1601.51
762.64	1810.40
762.82	1626.09
763.00	1757.16
763.18	1763.30
763.35	1677.29
763.53	1701.86
763.71	1751.01
763.89	1738.73
764.07	1710.05
764.24	1716.20
764.42	1718.25
764.60	1648.61
764.78	1652.71
764.96	1746.92
765.13	1714.15
765.31	1757.16
765.49	1751.01
765.67	1558.50
765.84	1576.94
766.02	1662.95
766.20	1591.27
766.38	1742.82
766.56	1697.77
766.73	1771.49
766.91	1671.14
767.09	1683.43
767.27	1755.11
767.44	1626.09
767.62	1712.10
767.80	1673.19
767.98	1632.23
768.15	1681.38
768.33	1675.24
768.51	1714.15
768.69	1701.86
768.87	1718.25
769.04	1630.18
769.22	1800.16
769.40	1710.05
769.58	1845.22
769.75	1683.43
769.93	1773.54
770.11	1695.72
770.28	1595.37
770.46	1794.02
770.64	1650.66
770.82	1667.05
770.99	1734.63
771.17	1798.12
771.35	1632.23
771.53	1691.62
771.70	1714.15
771.88	1701.86
772.06	1689.57
772.23	1705.96
772.41	1751.01
772.59	1671.14
772.77	1587.18
772.94	1652.71
773.12	1730.53
773.30	1738.73
773.47	1718.25
773.65	1662.95
773.83	1779.68
774.01	1701.86
774.18	1566.70
774.36	1695.72
774.54	1646.57
774.71	1675.24
774.89	1626.09
775.07	1646.57
775.24	1685.48
775.42	1681.38
775.60	1789.92
775.78	1689.57
775.95	1607.66
776.13	1552.36
776.31	1535.98
776.48	1775.59
776.66	1763.30
776.84	1714.15
777.01	1619.94
777.19	1583.08
777.37	1630.18
777.54	1775.59
777.72	1697.77
777.90	1751.01
778.07	1656.81
778.25	1806.31
778.43	1753.06
778.60	1624.04
778.78	1662.95
778.96	1834.98
779.13	1673.19
779.31	1720.29
779.49	1677.29
779.66	1697.77
779.84	1736.68
780.01	1718.25
780.19	1595.37
780.37	1658.85
780.54	1710.05
780.72	1693.67
780.90	1685.48
781.07	1691.62
781.25	1675.24
781.43	1724.39
781.60	1683.43
781.78	1800.16
781.95	1638.38
782.13	1646.57
782.31	1720.29
782.48	1630.18
782.66	1701.86
782.83	1755.11
783.01	1753.06
783.19	1787.88
783.36	1722.34
783.54	1703.91
783.72	1714.15
783.89	1660.90
784.07	1708.01
784.24	1789.92
784.42	1834.98
784.60	1640.42
784.77	1746.92
784.95	1650.66
785.12	1658.85
785.30	1687.53
785.47	1599.46
785.65	1677.29
785.83	1665.00
786.00	1609.70
786.18	1722.34
786.35	1599.46
786.53	1595.37
786.71	1767.40
786.88	1744.87
787.06	1699.81
787.23	1638.38
787.41	1636.33
787.58	1732.58
787.76	1671.14
787.94	1691.62
788.11	1800.16
788.29	1626.09
788.46	1679.33
788.64	1632.23
788.81	1730.53
788.99	1683.43
789.16	1632.23
789.34	1681.38
789.52	1585.13
789.69	1675.24
789.87	1607.66
790.04	1648.61
790.22	1662.95
790.39	1820.64
790.57	1615.85
790.74	1630.18
790.92	1834.98
791.09	1501.16
791.27	1689.57
791.44	1812.45
791.62	1718.25
791.79	1834.98
791.97	1648.61
792.15	1912.80
792.32	1687.53
792.50	1701.86
792.67	1771.49
792.85	1791.97
793.02	1621.99
793.20	1675.24
793.37	1677.29
793.55	1695.72
793.72	1630.18
793.90	1765.35
794.07	1652.71
794.25	1638.38
794.42	1726.44
794.60	1652.71
794.77	1687.53
794.95	1720.29
795.12	1785.83
795.30	1677.29
795.47	1550.31
795.65	1824.74
795.82	1677.29
796.00	1617.90
796.17	1714.15
796.34	1673.19
796.52	1683.43
796.69	1779.68
796.87	1734.63
797.04	1681.38
797.22	1734.63
797.39	1687.53
797.57	1695.72
797.74	1691.62
797.92	1730.53
798.09	1626.09
798.27	1767.40
798.44	1734.63
798.62	1650.66
798.79	1736.68
798.96	1773.54
799.14	1697.77
799.31	1882.08
799.49	1644.52
799.66	1652.71
799.84	1675.24
800.01	1628.14
800.19	1632.23
800.36	1538.02
800.53	1687.53
800.71	1714.15
800.88	1789.92
801.06	1632.23
801.23	1628.14
801.41	1644.52
801.58	1607.66
801.75	1665.00
801.93	1744.87
802.10	1710.05
802.28	1726.44
802.45	1662.95
802.63	1738.73
802.80	1730.53
802.97	1714.15
803.15	1656.81
803.32	1718.25
803.50	1646.57
803.67	1605.61
803.84	1712.10
804.02	1591.27
804.19	1742.82
804.37	1542.12
804.54	1665.00
804.71	1714.15
804.89	1703.91
805.06	1619.94
805.24	1710.05
805.41	1656.81
805.58	1638.38
805.76	1791.97
805.93	1697.77
806.10	1714.15
806.28	1728.49
806.45	1730.53
806.63	1621.99
806.80	1710.05
806.97	1708.01
807.15	1654.76
807.32	1736.68
807.49	1654.76
807.67	1638.38
807.84	1701.86
808.01	1585.13
808.19	1796.07
808.36	1720.29
808.54	1656.81
808.71	1658.85
808.88	1687.53
809.06	1742.82
809.23	1812.45
809.40	1607.66
809.58	1755.11
809.75	1683.43
809.92	1548.26
810.10	1863.65
810.27	1732.58
810.44	1703.91
810.62	1765.35
810.79	1640.42
810.96	1593.32
811.14	1646.57
811.31	1724.39
811.48	1753.06
811.66	1738.73
811.83	1769.44
812.00	1708.01
812.18	1773.54
812.35	1763.30
812.52	1677.29
812.69	1636.33
812.87	1697.77
813.04	1634.28
813.21	1712.10
813.39	1613.80
813.56	1595.37
813.73	1771.49
813.91	1619.94
814.08	1718.25
814.25	1658.85
814.42	1675.24
814.60	1626.09
814.77	1683.43
814.94	1681.38
815.12	1710.05
815.29	1753.06
815.46	1654.76
815.63	1714.15
815.81	1644.52
815.98	1642.47
816.15	1626.09
816.33	1789.92
816.50	1708.01
816.67	1646.57
816.84	1728.49
817.02	1628.14
817.19	1708.01
817.36	1722.34
817.53	1632.23
817.71	1708.01
817.88	1777.64
818.05	1687.53
818.22	1732.58
818.40	1834.98
818.57	1710.05
818.74	1783.78
818.91	1677.29
819.09	1765.35
819.26	1703.91
819.43	1703.91
819.60	1665.00
819.78	1691.62
819.95	1783.78
820.12	1640.42
820.29	1773.54
820.47	1785.83
820.64	1636.33
820.81	1613.80
820.98	1665.00
821.15	1611.75
821.33	1703.91
821.50	1560.55
821.67	1734.63
821.84	1628.14
822.02	1761.25
822.19	1695.72
822.36	1701.86
822.53	1689.57
822.70	1634.28
822.88	1595.37
823.05	1771.49
823.22	1626.09
823.39	1771.49
823.56	1683.43
823.74	1800.16
823.91	1634.28
824.08	1591.27
824.25	1697.77
824.42	1683.43
824.60	1593.32
824.77	1800.16
824.94	1662.95
825.11	1705.96
825.28	1632.23
825.45	1730.53
825.63	1740.77
825.80	1673.19
825.97	1755.11
826.14	1650.66
826.31	1540.07
826.48	1728.49
826.66	1542.12
826.83	1714.15
827.00	1644.52
827.17	1675.24
827.34	1710.05
827.51	1626.09
827.69	1689.57
827.86	1650.66
828.03	1615.85
828.20	1734.63
828.37	1636.33
828.54	1660.90
828.71	1665.00
828.89	1740.77
829.06	1617.90
829.23	1728.49
829.40	1677.29
829.57	1589.22
829.74	1705.96
829.91	1675.24
830.09	1638.38
830.26	1765.35
830.43	1837.03
830.60	1617.90
830.77	1734.63
830.94	1773.54
831.11	1746.92
831.28	1628.14
831.46	1693.67
831.63	1677.29
831.80	1742.82
831.97	1679.33
832.14	1652.71
832.31	1699.81
832.48	1701.86
832.65	1722.34
832.82	1691.62
832.99	1738.73
833.17	1632.23
833.34	1814.50
833.51	1697.77
833.68	1583.08
833.85	1722.34
834.02	1601.51
834.19	1626.09
834.36	1591.27
834.53	1738.73
834.70	1755.11
834.87	1732.58
835.04	1673.19
835.22	1658.85
835.39	1728.49
835.56	1603.56
835.73	1656.81
835.90	1705.96
836.07	1675.24
836.24	1794.02
836.41	1701.86
836.58	1677.29
836.75	1796.07
836.92	1675.24
837.09	1595.37
837.26	1701.86
837.43	1712.10
837.60	1746.92
837.77	1650.66
837.94	1714.15
838.12	1763.30
838.29	1710.05
838.46	1755.11
838.63	1648.61
838.80	1753.06
838.97	1765.35
839.14	1658.85
839.31	1701.86
839.48	1728.49
839.65	1705.96
839.82	1716.20
839.99	1681.38
840.16	1701.86
840.33	1654.76
840.50	1714.15
840.67	1677.29
840.84	1507.30
841.01	1640.42
841.18	1697.77
841.35	1726.44
841.52	1742.82
841.69	1742.82
841.86	1689.57
842.03	1619.94
842.20	1738.73
842.37	1648.61
842.54	1683.43
842.71	1742.82
842.88	1593.32
843.05	1744.87
843.22	1675.24
843.39	1751.01
843.56	1693.67
843.73	1712.10
843.90	1757.16
844.07	1722.34
844.24	1761.25
844.41	1742.82
844.58	1708.01
844.75	1722.34
844.92	1767.40
845.09	1685.48
845.26	1605.61
845.43	1667.05
845.60	1648.61
845.77	1732.58
845.94	1650.66
846.10	1726.44
846.27	1587.18
846.44	1671.14
846.61	1626.09
846.78	1693.67
846.95	1722.34
847.12	1757.16
847.29	1722.34
847.46	1660.90
847.63	1703.91
847.80	1642.47
847.97	1660.90
848.14	1839.08
848.31	1720.29
848.48	1636.33
848.65	1753.06
848.82	1662.95
848.98	1787.88
849.15	1671.14
849.32	1730.53
849.49	1759.21
849.66	1665.00
849.83	1662.95
850.00	1624.04
850.17	1738.73
850.34	1673.19
850.51	1634.28
850.68	1621.99
850.85	1802.21
851.01	1681.38
851.18	1654.76
851.35	1689.57
851.52	1712.10
851.69	1779.68
851.86	1624.04
852.03	1722.34
852.20	1777.64
852.37	1613.80
852.53	1583.08
852.70	1736.68
852.87	1681.38
853.04	1681.38
853.21	1710.05
853.38	1779.68
853.55	1806.31
853.72	1734.63
853.89	1638.38
854.05	1730.53
854.22	1738.73
854.39	1619.94
854.56	1681.38
854.73	1697.77
854.90	1669.09
855.07	1667.05
855.23	1761.25
855.40	1642.47
855.57	1662.95
855.74	1642.47
855.91	1894.37
856.08	1619.94
856.25	1689.57
856.41	1665.00
856.58	1669.09
856.75	1689.57
856.92	1615.85
857.09	1693.67
857.26	1615.85
857.42	1634.28
857.59	1728.49
857.76	1708.01
857.93	1701.86
858.10	1722.34
858.27	1599.46
858.43	1683.43
858.60	1656.81
858.77	1648.61
858.94	1697.77
859.11	1769.44
859.27	1638.38
859.44	1705.96
859.61	1724.39
859.78	1718.25
859.95	1675.24
860.12	1630.18
860.28	1783.78
860.45	1849.32
860.62	1634.28
860.79	1667.05
860.95	1658.85
861.12	1654.76
861.29	1591.27
861.46	1660.90
861.63	1685.48
861.79	1677.29
861.96	1562.60
862.13	1732.58
862.30	1763.30
862.47	1638.38
862.63	1624.04
862.80	1718.25
862.97	1665.00
863.14	1708.01
863.30	1783.78
863.47	1656.81
863.64	1849.32
863.81	1714.15
863.97	1701.86
864.14	1695.72
864.31	1738.73
864.48	1734.63
864.65	1720.29
864.81	1609.70
864.98	1632.23
865.15	1708.01
865.32	1738.73
865.48	1820.64
865.65	1806.31
865.82	1621.99
865.98	1703.91
866.15	1732.58
866.32	1665.00
866.49	1665.00
866.65	1769.44
866.82	1683.43
866.99	1671.14
867.16	1671.14
867.32	1621.99
867.49	1728.49
867.66	1703.91
867.83	1679.33
867.99	1601.51
868.16	1689.57
868.33	1648.61
868.49	1654.76
868.66	1662.95
868.83	1691.62
868.99	1658.85
869.16	1671.14
869.33	1781.73
869.50	1710.05
869.66	1693.67
869.83	1652.71
870.00	1624.04
870.16	1677.29
870.33	1648.61
870.50	1746.92
870.66	1687.53
870.83	1804.26
871.00	1642.47
871.17	1722.34
871.33	1787.88
871.50	1660.90
871.67	1679.33
871.83	1714.15
872.00	1802.21
872.17	1669.09
872.33	1853.41
872.50	1742.82
872.67	1662.95
872.83	1634.28
873.00	1748.97
873.17	1665.00
873.33	1689.57
873.50	1806.31
873.67	1683.43
873.83	1638.38
874.00	1648.61
874.16	1714.15
874.33	1796.07
874.50	1562.60
874.66	1753.06
874.83	1726.44
875.00	1714.15
875.16	1798.12
875.33	1767.40
875.50	1679.33
875.66	1710.05
875.83	1667.05
875.99	1748.97
876.16	1662.95
876.33	1675.24
876.49	1757.16
876.66	1681.38
876.83	1689.57
876.99	1617.90
877.16	1673.19
877.32	1683.43
877.49	1673.19
877.66	1718.25
877.82	1740.77
877.99	1662.95
878.15	1816.55
878.32	1652.71
878.49	1738.73
878.65	1660.90
878.82	1814.50
878.98	1740.77
879.15	1804.26
879.32	1679.33
879.48	1708.01
879.65	1705.96
879.81	1617.90
879.98	1685.48
880.15	1656.81
880.31	1714.15
880.48	1587.18
880.64	1771.49
880.81	1697.77
880.97	1832.93
881.14	1839.08
881.31	1624.04
881.47	1810.40
881.64	1701.86
881.80	1634.28
881.97	1712.10
882.13	1683.43
882.30	1605.61
882.47	1611.75
882.63	1673.19
882.80	1681.38
882.96	1646.57
883.13	1742.82
883.29	1710.05
883.46	1734.63
883.62	1830.88
883.79	1730.53
883.95	1761.25
884.12	1689.57
884.29	1746.92
884.45	1697.77
884.62	1703.91
884.78	1683.43
884.95	1714.15
885.11	1648.61
885.28	1714.15
885.44	1689.57
885.61	1675.24
885.77	1734.63
885.94	1781.73
886.10	1714.15
886.27	1687.53
886.43	1773.54
886.60	1800.16
886.76	1652.71
886.93	1632.23
887.09	1689.57
887.26	1630.18
887.42	1716.20
887.59	1689.57
887.75	1900.52
887.92	1775.59
888.08	1730.53
888.25	1779.68
888.41	1671.14
888.58	1703.91
888.74	1644.52
888.91	1730.53
>>>>>End Processed Spectral Data<<<<<
