SpectraSuite Data File
++++++++++++++++++++++++++++++++++++
Date: Mon Jun 06 12:47:17 CEST 2016
User: root
Dark Spectrum Present: No
Reference Spectrum Present: No
Number of Sampled Component Spectra: 1
Spectrometers: USB4C02835
Integration Time (usec): 100000 (USB4C02835)
Spectra Averaged: 1 (USB4C02835)
Boxcar Smoothing: 0 (USB4C02835)
Correct for Electrical Dark: No (USB4C02835)
Strobe/Lamp Enabled: No (USB4C02835)
Correct for Detector Non-linearity: No (USB4C02835)
Correct for Stray Light: No (USB4C02835)
Number of Pixels in Processed Spectrum: 3648
>>>>>Begin Processed Spectral Data<<<<<
177.47	1482.73
177.69	1482.73
177.91	1482.73
178.13	1468.39
178.36	1462.25
178.58	1742.82
178.80	1710.05
179.02	1650.66
179.24	1689.57
179.46	1705.96
179.68	1787.88
179.90	1652.71
180.13	1732.58
180.35	1683.43
180.57	1683.43
180.79	1812.45
181.01	1693.67
181.23	1691.62
181.45	1669.09
181.67	1791.97
181.90	1636.33
182.12	1730.53
182.34	1730.53
182.56	1742.82
182.78	1691.62
183.00	1789.92
183.22	1726.44
183.44	1548.26
183.66	1869.80
183.89	1751.01
184.11	1671.14
184.33	1736.68
184.55	1841.12
184.77	1722.34
184.99	1699.81
185.21	1669.09
185.43	1845.22
185.65	1640.42
185.87	1718.25
186.10	1759.21
186.32	1798.12
186.54	1738.73
186.76	1669.09
186.98	1781.73
187.20	1611.75
187.42	1677.29
187.64	1708.01
187.86	1740.77
188.08	1738.73
188.30	1632.23
188.52	1693.67
188.75	1769.44
188.97	1822.69
189.19	1701.86
189.41	1695.72
189.63	1748.97
189.85	1652.71
190.07	1636.33
190.29	1665.00
190.51	1718.25
190.73	1613.80
190.95	1740.77
191.17	1656.81
191.39	1648.61
191.61	1658.85
191.84	1699.81
192.06	1783.78
192.28	1572.84
192.50	1865.70
192.72	1726.44
192.94	1683.43
193.16	1742.82
193.38	1757.16
193.60	1617.90
193.82	1658.85
194.04	1759.21
194.26	1730.53
194.48	1730.53
194.70	1671.14
194.92	1667.05
195.14	1716.20
195.36	1660.90
195.58	1722.34
195.80	1703.91
196.02	1632.23
196.24	1800.16
196.46	1796.07
196.69	1619.94
196.91	1837.03
197.13	1671.14
197.35	1705.96
197.57	1804.26
197.79	1791.97
198.01	1734.63
198.23	1755.11
198.45	1660.90
198.67	1613.80
198.89	1619.94
199.11	1720.29
199.33	1689.57
199.55	1560.55
199.77	1716.20
199.99	1777.64
200.21	1697.77
200.43	1669.09
200.65	1632.23
200.87	1583.08
201.09	1642.47
201.31	1595.37
201.53	1728.49
201.75	1701.86
201.97	1742.82
202.19	1574.89
202.41	1755.11
202.63	1787.88
202.85	1722.34
203.07	1738.73
203.29	1681.38
203.51	1652.71
203.73	1615.85
203.95	1894.37
204.17	1748.97
204.39	1716.20
204.61	1685.48
204.83	1673.19
205.05	1783.78
205.27	1751.01
205.49	1755.11
205.71	1691.62
205.93	1607.66
206.15	1660.90
206.37	1675.24
206.59	1689.57
206.81	1695.72
207.03	1626.09
207.25	1673.19
207.47	1763.30
207.69	1699.81
207.91	1773.54
208.13	1703.91
208.34	1617.90
208.56	1675.24
208.78	1708.01
209.00	1699.81
209.22	1662.95
209.44	1697.77
209.66	1714.15
209.88	1730.53
210.10	1714.15
210.32	1693.67
210.54	1755.11
210.76	1675.24
210.98	1767.40
211.20	1583.08
211.42	1667.05
211.64	1746.92
211.86	1705.96
212.08	1703.91
212.30	1734.63
212.52	1638.38
212.74	1748.97
212.96	1734.63
213.17	1791.97
213.39	1695.72
213.61	1779.68
213.83	1675.24
214.05	1701.86
214.27	1783.78
214.49	1615.85
214.71	1699.81
214.93	1789.92
215.15	1681.38
215.37	1757.16
215.59	1554.41
215.81	1714.15
216.03	1742.82
216.24	1734.63
216.46	1693.67
216.68	1665.00
216.90	1720.29
217.12	1746.92
217.34	1693.67
217.56	1728.49
217.78	1771.49
218.00	1757.16
218.22	1685.48
218.44	1699.81
218.66	1693.67
218.87	1693.67
219.09	1681.38
219.31	1779.68
219.53	1691.62
219.75	1689.57
219.97	1730.53
220.19	1599.46
220.41	1617.90
220.63	1816.55
220.85	1716.20
221.06	1660.90
221.28	1742.82
221.50	1705.96
221.72	1621.99
221.94	1644.52
222.16	1681.38
222.38	1720.29
222.60	1730.53
222.82	1656.81
223.03	1765.35
223.25	1683.43
223.47	1689.57
223.69	1814.50
223.91	1654.76
224.13	1650.66
224.35	1669.09
224.57	1804.26
224.78	1703.91
225.00	1640.42
225.22	1761.25
225.44	1667.05
225.66	1722.34
225.88	1675.24
226.10	1728.49
226.32	1681.38
226.53	1751.01
226.75	1779.68
226.97	1669.09
227.19	1697.77
227.41	1726.44
227.63	1701.86
227.85	1662.95
228.06	1714.15
228.28	1679.33
228.50	1701.86
228.72	1685.48
228.94	1632.23
229.16	1595.37
229.37	1638.38
229.59	1624.04
229.81	1748.97
230.03	1630.18
230.25	1626.09
230.47	1601.51
230.69	1738.73
230.90	1771.49
231.12	1673.19
231.34	1681.38
231.56	1691.62
231.78	1656.81
232.00	1642.47
232.21	1679.33
232.43	1681.38
232.65	1562.60
232.87	1697.77
233.09	1613.80
233.30	1648.61
233.52	1732.58
233.74	1613.80
233.96	1595.37
234.18	1708.01
234.40	1699.81
234.61	1695.72
234.83	1695.72
235.05	1671.14
235.27	1822.69
235.49	1763.30
235.70	1724.39
235.92	1806.31
236.14	1746.92
236.36	1800.16
236.58	1605.61
236.79	1751.01
237.01	1740.77
237.23	1617.90
237.45	1794.02
237.67	1748.97
237.88	1716.20
238.10	1787.88
238.32	1656.81
238.54	1681.38
238.76	1732.58
238.97	1675.24
239.19	1640.42
239.41	1718.25
239.63	1800.16
239.85	1695.72
240.06	1714.15
240.28	1642.47
240.50	1746.92
240.72	1667.05
240.93	1671.14
241.15	1765.35
241.37	1687.53
241.59	1755.11
241.81	1619.94
242.02	1656.81
242.24	1738.73
242.46	1705.96
242.68	1669.09
242.89	1681.38
243.11	1775.59
243.33	1671.14
243.55	1658.85
243.76	1789.92
243.98	1712.10
244.20	1695.72
244.42	1787.88
244.64	1679.33
244.85	1583.08
245.07	1712.10
245.29	1677.29
245.51	1720.29
245.72	1689.57
245.94	1755.11
246.16	1720.29
246.38	1714.15
246.59	1660.90
246.81	1669.09
247.03	1667.05
247.24	1511.40
247.46	1650.66
247.68	1722.34
247.90	1656.81
248.11	1701.86
248.33	1765.35
248.55	1650.66
248.77	1728.49
248.98	1732.58
249.20	1730.53
249.42	1677.29
249.64	1642.47
249.85	1693.67
250.07	1656.81
250.29	1763.30
250.50	1697.77
250.72	1624.04
250.94	1642.47
251.16	1763.30
251.37	1771.49
251.59	1746.92
251.81	1732.58
252.02	1783.78
252.24	1726.44
252.46	1746.92
252.68	1687.53
252.89	1621.99
253.11	1613.80
253.33	1763.30
253.54	1789.92
253.76	1634.28
253.98	1656.81
254.20	1751.01
254.41	1607.66
254.63	1675.24
254.85	1595.37
255.06	1681.38
255.28	1724.39
255.50	1648.61
255.71	1765.35
255.93	1595.37
256.15	1695.72
256.36	1773.54
256.58	1630.18
256.80	1726.44
257.02	1642.47
257.23	1703.91
257.45	1742.82
257.67	1732.58
257.88	1654.76
258.10	1757.16
258.32	1732.58
258.53	1738.73
258.75	1738.73
258.97	1669.09
259.18	1654.76
259.40	1716.20
259.62	1742.82
259.83	1798.12
260.05	1740.77
260.27	1986.53
260.48	1724.39
260.70	1644.52
260.92	1640.42
261.13	1685.48
261.35	1648.61
261.57	1689.57
261.78	1589.22
262.00	1679.33
262.22	1681.38
262.43	1673.19
262.65	1636.33
262.86	1667.05
263.08	1765.35
263.30	1728.49
263.51	1615.85
263.73	1603.56
263.95	1791.97
264.16	1683.43
264.38	1646.57
264.60	1775.59
264.81	1687.53
265.03	1855.46
265.25	1734.63
265.46	1716.20
265.68	1748.97
265.89	1808.36
266.11	1587.18
266.33	1675.24
266.54	1767.40
266.76	1755.11
266.98	1697.77
267.19	1726.44
267.41	1755.11
267.62	1705.96
267.84	1624.04
268.06	1689.57
268.27	1675.24
268.49	1742.82
268.70	1761.25
268.92	1650.66
269.14	1689.57
269.35	1634.28
269.57	1665.00
269.79	1695.72
270.00	1708.01
270.22	1755.11
270.43	1675.24
270.65	1621.99
270.87	1724.39
271.08	1734.63
271.30	1763.30
271.51	1642.47
271.73	1753.06
271.95	1839.08
272.16	1652.71
272.38	1656.81
272.59	1687.53
272.81	1734.63
273.02	1738.73
273.24	1677.29
273.46	1775.59
273.67	1644.52
273.89	1638.38
274.10	1628.14
274.32	1771.49
274.54	1708.01
274.75	1732.58
274.97	1697.77
275.18	1781.73
275.40	1689.57
275.61	1687.53
275.83	1681.38
276.05	1654.76
276.26	1746.92
276.48	1697.77
276.69	1736.68
276.91	1630.18
277.12	1789.92
277.34	1808.36
277.55	1708.01
277.77	1689.57
277.99	1748.97
278.20	1644.52
278.42	1697.77
278.63	1693.67
278.85	1650.66
279.06	1685.48
279.28	1812.45
279.49	1777.64
279.71	1753.06
279.93	1656.81
280.14	1693.67
280.36	1621.99
280.57	1779.68
280.79	1734.63
281.00	1593.32
281.22	1636.33
281.43	1699.81
281.65	1689.57
281.86	1611.75
282.08	1781.73
282.29	1773.54
282.51	1597.42
282.73	1669.09
282.94	1619.94
283.16	1775.59
283.37	1787.88
283.59	1718.25
283.80	1687.53
284.02	1691.62
284.23	1679.33
284.45	1660.90
284.66	1603.56
284.88	1689.57
285.09	1714.15
285.31	1708.01
285.52	1691.62
285.74	1644.52
285.95	1783.78
286.17	1816.55
286.38	1730.53
286.60	1667.05
286.81	1572.84
287.03	1667.05
287.24	1746.92
287.46	1714.15
287.67	1693.67
287.89	1751.01
288.10	1660.90
288.32	1726.44
288.53	1751.01
288.75	1714.15
288.96	1701.86
289.18	1636.33
289.39	1689.57
289.61	1800.16
289.82	1767.40
290.04	1757.16
290.25	1648.61
290.47	1695.72
290.68	1699.81
290.90	1710.05
291.11	1636.33
291.33	1755.11
291.54	1675.24
291.76	1677.29
291.97	1701.86
292.18	1669.09
292.40	1726.44
292.61	1628.14
292.83	1810.40
293.04	1757.16
293.26	1677.29
293.47	1640.42
293.69	1607.66
293.90	1644.52
294.12	1775.59
294.33	1685.48
294.55	1683.43
294.76	1714.15
294.97	1798.12
295.19	1804.26
295.40	1720.29
295.62	1730.53
295.83	1785.83
296.05	1685.48
296.26	1689.57
296.48	1675.24
296.69	1689.57
296.90	1636.33
297.12	1771.49
297.33	1726.44
297.55	1671.14
297.76	1763.30
297.98	1763.30
298.19	1708.01
298.41	1705.96
298.62	1654.76
298.83	1751.01
299.05	1724.39
299.26	1669.09
299.48	1658.85
299.69	1689.57
299.90	1742.82
300.12	1621.99
300.33	1751.01
300.55	1695.72
300.76	1689.57
300.98	1654.76
301.19	1716.20
301.40	1650.66
301.62	1734.63
301.83	1769.44
302.05	1740.77
302.26	1679.33
302.47	1763.30
302.69	1587.18
302.90	1665.00
303.12	1628.14
303.33	1712.10
303.54	1816.55
303.76	1701.86
303.97	1744.87
304.19	1757.16
304.40	1621.99
304.61	1710.05
304.83	1730.53
305.04	1728.49
305.26	1701.86
305.47	1740.77
305.68	1642.47
305.90	1593.32
306.11	1787.88
306.33	1732.58
306.54	1660.90
306.75	1607.66
306.97	1621.99
307.18	1636.33
307.39	1587.18
307.61	1771.49
307.82	1728.49
308.04	1697.77
308.25	1697.77
308.46	1716.20
308.68	1695.72
308.89	1740.77
309.10	1738.73
309.32	1724.39
309.53	1669.09
309.74	1757.16
309.96	1693.67
310.17	1806.31
310.39	1691.62
310.60	1746.92
310.81	1718.25
311.03	1636.33
311.24	1818.60
311.45	1746.92
311.67	1820.64
311.88	1789.92
312.09	1726.44
312.31	1703.91
312.52	1640.42
312.73	1718.25
312.95	1605.61
313.16	1624.04
313.37	1839.08
313.59	1763.30
313.80	1619.94
314.01	1820.64
314.23	1708.01
314.44	1710.05
314.65	1609.70
314.87	1658.85
315.08	1724.39
315.29	1624.04
315.51	1652.71
315.72	1648.61
315.93	1789.92
316.15	1683.43
316.36	1650.66
316.57	1728.49
316.79	1728.49
317.00	1777.64
317.21	1746.92
317.43	1697.77
317.64	1705.96
317.85	1681.38
318.07	1617.90
318.28	1765.35
318.49	1757.16
318.70	1920.99
318.92	1808.36
319.13	1865.70
319.34	1884.13
319.56	1738.73
319.77	1763.30
319.98	1738.73
320.20	1845.22
320.41	1802.21
320.62	1691.62
320.83	1642.47
321.05	1775.59
321.26	1751.01
321.47	1644.52
321.69	1828.84
321.90	1646.57
322.11	1718.25
322.32	1714.15
322.54	1693.67
322.75	1687.53
322.96	1884.13
323.18	1583.08
323.39	1685.48
323.60	1644.52
323.81	1789.92
324.03	1603.56
324.24	1697.77
324.45	1701.86
324.66	1675.24
324.88	1734.63
325.09	1763.30
325.30	1675.24
325.52	1738.73
325.73	1728.49
325.94	1630.18
326.15	1640.42
326.37	1640.42
326.58	1767.40
326.79	1796.07
327.00	1646.57
327.22	1720.29
327.43	1759.21
327.64	1626.09
327.85	1755.11
328.07	1742.82
328.28	1779.68
328.49	1673.19
328.70	1648.61
328.92	1730.53
329.13	1708.01
329.34	1730.53
329.55	1779.68
329.76	1789.92
329.98	1685.48
330.19	1802.21
330.40	1660.90
330.61	1730.53
330.83	1730.53
331.04	1658.85
331.25	1722.34
331.46	1652.71
331.68	1644.52
331.89	1705.96
332.10	1732.58
332.31	1689.57
332.52	1740.77
332.74	1726.44
332.95	1662.95
333.16	1703.91
333.37	1736.68
333.58	1675.24
333.80	1673.19
334.01	1617.90
334.22	1699.81
334.43	1691.62
334.64	1736.68
334.86	1632.23
335.07	1683.43
335.28	1724.39
335.49	1581.03
335.70	1794.02
335.92	1703.91
336.13	1785.83
336.34	1781.73
336.55	1699.81
336.76	1742.82
336.98	1576.94
337.19	1726.44
337.40	1761.25
337.61	1812.45
337.82	1675.24
338.04	1763.30
338.25	1480.68
338.46	1695.72
338.67	1654.76
338.88	1726.44
339.09	1662.95
339.31	1665.00
339.52	1697.77
339.73	1703.91
339.94	1714.15
340.15	1757.16
340.36	1691.62
340.58	1726.44
340.79	1699.81
341.00	1728.49
341.21	1587.18
341.42	1781.73
341.63	1660.90
341.85	1781.73
342.06	1734.63
342.27	1656.81
342.48	1761.25
342.69	1587.18
342.90	1675.24
343.12	1738.73
343.33	1656.81
343.54	1755.11
343.75	1757.16
343.96	1714.15
344.17	1689.57
344.38	1677.29
344.60	1603.56
344.81	1609.70
345.02	1648.61
345.23	1687.53
345.44	1814.50
345.65	1759.21
345.86	1646.57
346.07	1683.43
346.29	1611.75
346.50	1695.72
346.71	1665.00
346.92	1787.88
347.13	1857.51
347.34	1724.39
347.55	1646.57
347.76	1722.34
347.98	1681.38
348.19	1683.43
348.40	1689.57
348.61	1632.23
348.82	1761.25
349.03	1773.54
349.24	1621.99
349.45	1775.59
349.66	1648.61
349.88	1714.15
350.09	1677.29
350.30	1742.82
350.51	1771.49
350.72	1722.34
350.93	1662.95
351.14	1656.81
351.35	1695.72
351.56	1714.15
351.77	1759.21
351.99	1667.05
352.20	1765.35
352.41	1849.32
352.62	1566.70
352.83	1662.95
353.04	1701.86
353.25	1636.33
353.46	1785.83
353.67	1783.78
353.88	1572.84
354.09	1667.05
354.30	1716.20
354.52	1667.05
354.73	1697.77
354.94	1667.05
355.15	1724.39
355.36	1777.64
355.57	1716.20
355.78	1697.77
355.99	1673.19
356.20	1679.33
356.41	1773.54
356.62	1679.33
356.83	1560.55
357.04	1714.15
357.25	1624.04
357.46	1656.81
357.68	1611.75
357.89	1665.00
358.10	1689.57
358.31	1665.00
358.52	1673.19
358.73	1744.87
358.94	1632.23
359.15	1701.86
359.36	1783.78
359.57	1724.39
359.78	1650.66
359.99	1732.58
360.20	1621.99
360.41	1675.24
360.62	1757.16
360.83	1695.72
361.04	1738.73
361.25	1767.40
361.46	1769.44
361.67	1714.15
361.88	1814.50
362.09	1796.07
362.30	1779.68
362.51	1617.90
362.72	1701.86
362.93	1791.97
363.14	1699.81
363.35	1705.96
363.56	1671.14
363.78	1714.15
363.99	1726.44
364.20	1689.57
364.41	1787.88
364.62	1810.40
364.83	1701.86
365.04	1691.62
365.25	1685.48
365.46	1791.97
365.67	1572.84
365.88	1628.14
366.09	1646.57
366.30	1648.61
366.51	1722.34
366.72	1677.29
366.93	1681.38
367.14	1730.53
367.35	1714.15
367.56	1705.96
367.77	1779.68
367.98	1724.39
368.18	1699.81
368.39	1687.53
368.60	1640.42
368.81	1705.96
369.02	1705.96
369.23	1693.67
369.44	1665.00
369.65	1630.18
369.86	1656.81
370.07	1765.35
370.28	1648.61
370.49	1730.53
370.70	1783.78
370.91	1546.22
371.12	1585.13
371.33	1677.29
371.54	1732.58
371.75	1796.07
371.96	1591.27
372.17	1693.67
372.38	1644.52
372.59	1724.39
372.80	1667.05
373.01	1773.54
373.22	1644.52
373.43	1697.77
373.64	1656.81
373.85	1748.97
374.06	1800.16
374.26	1683.43
374.47	1763.30
374.68	1796.07
374.89	1742.82
375.10	1716.20
375.31	1787.88
375.52	1677.29
375.73	1732.58
375.94	1626.09
376.15	1738.73
376.36	1687.53
376.57	1728.49
376.78	1662.95
376.99	1736.68
377.20	1697.77
377.40	1656.81
377.61	1771.49
377.82	1591.27
378.03	1716.20
378.24	1724.39
378.45	1671.14
378.66	1728.49
378.87	1630.18
379.08	1591.27
379.29	1779.68
379.50	1783.78
379.71	1632.23
379.91	1763.30
380.12	1748.97
380.33	1726.44
380.54	1718.25
380.75	1652.71
380.96	1685.48
381.17	1732.58
381.38	1691.62
381.59	1730.53
381.80	1716.20
382.00	1845.22
382.21	1802.21
382.42	1806.31
382.63	1802.21
382.84	1767.40
383.05	1673.19
383.26	1773.54
383.47	1679.33
383.68	1757.16
383.88	1775.59
384.09	1734.63
384.30	1818.60
384.51	1705.96
384.72	1701.86
384.93	1624.04
385.14	1736.68
385.35	1720.29
385.55	1673.19
385.76	1779.68
385.97	1808.36
386.18	1652.71
386.39	1673.19
386.60	1640.42
386.81	1783.78
387.02	1665.00
387.22	1617.90
387.43	1720.29
387.64	1675.24
387.85	1845.22
388.06	2314.20
388.27	4378.56
388.48	6819.74
388.68	8349.57
388.89	9668.46
389.10	9803.63
389.31	8562.56
389.52	7640.97
389.73	6799.26
389.93	6238.11
390.14	5840.81
390.35	5253.04
390.56	4509.63
390.77	3708.87
390.98	3000.27
391.18	2478.04
391.39	2054.11
391.60	1808.36
391.81	1808.36
392.02	1746.92
392.23	1857.51
392.43	1769.44
392.64	1882.08
392.85	1708.01
393.06	1880.04
393.27	1734.63
393.47	1613.80
393.68	1648.61
393.89	1656.81
394.10	1765.35
394.31	1652.71
394.52	1607.66
394.72	1699.81
394.93	1740.77
395.14	1628.14
395.35	1634.28
395.56	1783.78
395.76	1697.77
395.97	1751.01
396.18	1794.02
396.39	1869.80
396.60	2066.40
396.80	1945.57
397.01	1812.45
397.22	1826.79
397.43	1806.31
397.64	1806.31
397.84	1804.26
398.05	1816.55
398.26	1800.16
398.47	1763.30
398.67	1779.68
398.88	1697.77
399.09	1796.07
399.30	1755.11
399.51	1708.01
399.71	1648.61
399.92	1662.95
400.13	1687.53
400.34	1679.33
400.54	1718.25
400.75	1859.56
400.96	1699.81
401.17	1783.78
401.37	1683.43
401.58	1720.29
401.79	1755.11
402.00	1877.99
402.21	1959.91
402.41	1933.28
402.62	2076.64
402.83	2060.26
403.04	1968.10
403.24	2052.06
403.45	1832.93
403.66	1945.57
403.87	1818.60
404.07	1873.89
404.28	1947.62
404.49	1843.17
404.70	1753.06
404.90	1800.16
405.11	1767.40
405.32	1753.06
405.52	1673.19
405.73	1673.19
405.94	1673.19
406.15	1689.57
406.35	1738.73
406.56	1730.53
406.77	1746.92
406.98	1746.92
407.18	1662.95
407.39	1724.39
407.60	1658.85
407.80	1665.00
408.01	1646.57
408.22	1685.48
408.43	1605.61
408.63	1730.53
408.84	1779.68
409.05	1720.29
409.25	1748.97
409.46	1654.76
409.67	1673.19
409.88	1673.19
410.08	1726.44
410.29	1691.62
410.50	1751.01
410.70	1728.49
410.91	1716.20
411.12	1636.33
411.32	1712.10
411.53	1724.39
411.74	1722.34
411.95	1798.12
412.15	1748.97
412.36	1755.11
412.57	1693.67
412.77	1703.91
412.98	1673.19
413.19	1658.85
413.39	1705.96
413.60	1794.02
413.81	1720.29
414.01	1662.95
414.22	1722.34
414.43	1722.34
414.63	1691.62
414.84	1656.81
415.05	1687.53
415.25	1630.18
415.46	1720.29
415.67	1708.01
415.87	1724.39
416.08	1720.29
416.29	1636.33
416.49	1726.44
416.70	1689.57
416.91	1624.04
417.11	1767.40
417.32	1728.49
417.53	1808.36
417.73	1681.38
417.94	1695.72
418.15	1619.94
418.35	1677.29
418.56	1720.29
418.77	1853.41
418.97	1740.77
419.18	1636.33
419.38	1658.85
419.59	1720.29
419.80	1863.65
420.00	1669.09
420.21	1697.77
420.42	1794.02
420.62	1781.73
420.83	1699.81
421.04	1683.43
421.24	1699.81
421.45	1722.34
421.65	1771.49
421.86	1660.90
422.07	1738.73
422.27	1726.44
422.48	1746.92
422.69	1648.61
422.89	1734.63
423.10	1708.01
423.30	1624.04
423.51	1611.75
423.72	1673.19
423.92	1712.10
424.13	1710.05
424.33	1755.11
424.54	1730.53
424.75	1753.06
424.95	1798.12
425.16	1765.35
425.36	1712.10
425.57	1787.88
425.78	1746.92
425.98	1787.88
426.19	1624.04
426.39	1665.00
426.60	1691.62
426.81	1773.54
427.01	1738.73
427.22	1671.14
427.42	1638.38
427.63	1648.61
427.83	1781.73
428.04	1794.02
428.25	1820.64
428.45	1773.54
428.66	1798.12
428.86	1716.20
429.07	1716.20
429.28	1697.77
429.48	1697.77
429.69	1677.29
429.89	1755.11
430.10	1632.23
430.30	1849.32
430.51	1730.53
430.71	1581.03
430.92	1755.11
431.13	1687.53
431.33	1802.21
431.54	1728.49
431.74	1820.64
431.95	1843.17
432.15	1550.31
432.36	1638.38
432.56	1734.63
432.77	1818.60
432.98	1820.64
433.18	1751.01
433.39	1632.23
433.59	1746.92
433.80	1824.74
434.00	1865.70
434.21	1691.62
434.41	1632.23
434.62	1910.75
434.82	1681.38
435.03	1599.46
435.23	1710.05
435.44	1689.57
435.64	1697.77
435.85	1753.06
436.06	1730.53
436.26	1712.10
436.47	1710.05
436.67	1687.53
436.88	1712.10
437.08	1748.97
437.29	1814.50
437.49	1732.58
437.70	1814.50
437.90	1716.20
438.11	1863.65
438.31	1761.25
438.52	1796.07
438.72	1839.08
438.93	1984.48
439.13	1755.11
439.34	1810.40
439.54	1738.73
439.75	1720.29
439.95	1771.49
440.16	1732.58
440.36	1777.64
440.57	1718.25
440.77	1726.44
440.98	1691.62
441.18	1787.88
441.39	1742.82
441.59	1675.24
441.80	1857.51
442.00	1746.92
442.21	1787.88
442.41	1669.09
442.62	1730.53
442.82	1638.38
443.02	1665.00
443.23	1679.33
443.43	1748.97
443.64	1845.22
443.84	1632.23
444.05	1845.22
444.25	1787.88
444.46	1671.14
444.66	1716.20
444.87	1828.84
445.07	1581.03
445.28	1685.48
445.48	1798.12
445.69	1689.57
445.89	1853.41
446.09	1730.53
446.30	1968.10
446.50	2645.98
446.71	3708.87
446.91	4458.43
447.12	4761.53
447.32	4722.62
447.53	4487.10
447.73	3788.74
447.93	3452.88
448.14	3233.74
448.34	3076.05
448.55	2854.87
448.75	2922.45
448.96	2672.60
449.16	2402.27
449.36	2197.47
449.57	2062.30
449.77	1916.90
449.98	1789.92
450.18	1828.84
450.39	1771.49
450.59	1828.84
450.79	1744.87
451.00	1742.82
451.20	1837.03
451.41	1718.25
451.61	1771.49
451.81	1722.34
452.02	1691.62
452.22	1697.77
452.43	1695.72
452.63	1720.29
452.84	1759.21
453.04	1691.62
453.24	1726.44
453.45	1699.81
453.65	1695.72
453.86	1718.25
454.06	1785.83
454.26	1769.44
454.47	1705.96
454.67	1853.41
454.87	1695.72
455.08	1751.01
455.28	1818.60
455.49	1804.26
455.69	1654.76
455.89	1843.17
456.10	1804.26
456.30	1722.34
456.51	1728.49
456.71	1767.40
456.91	1738.73
457.12	1763.30
457.32	1755.11
457.52	1738.73
457.73	1832.93
457.93	1828.84
458.14	1679.33
458.34	1746.92
458.54	1714.15
458.75	1730.53
458.95	1695.72
459.15	1703.91
459.36	1753.06
459.56	1806.31
459.76	1841.12
459.97	1744.87
460.17	1744.87
460.37	1748.97
460.58	1722.34
460.78	1691.62
460.99	1705.96
461.19	1710.05
461.39	1720.29
461.60	1691.62
461.80	1812.45
462.00	1722.34
462.21	1685.48
462.41	1624.04
462.61	1722.34
462.82	1636.33
463.02	1734.63
463.22	1697.77
463.43	1767.40
463.63	1787.88
463.83	1802.21
464.04	1769.44
464.24	1761.25
464.44	1744.87
464.64	1693.67
464.85	1738.73
465.05	1791.97
465.25	1697.77
465.46	1697.77
465.66	1748.97
465.86	1746.92
466.07	1753.06
466.27	1679.33
466.47	1671.14
466.68	1642.47
466.88	1783.78
467.08	1798.12
467.29	1724.39
467.49	1787.88
467.69	1753.06
467.89	1804.26
468.10	1681.38
468.30	1787.88
468.50	1757.16
468.71	1761.25
468.91	1665.00
469.11	1785.83
469.31	1691.62
469.52	1675.24
469.72	1837.03
469.92	1865.70
470.13	1699.81
470.33	1726.44
470.53	1863.65
470.73	2099.17
470.94	2174.94
471.14	2363.36
471.34	2525.15
471.54	2398.17
471.75	2234.33
471.95	2113.50
472.15	2056.16
472.36	2136.03
472.56	2070.50
472.76	2025.44
472.96	2037.73
473.17	1914.85
473.37	1828.84
473.57	1777.64
473.77	1787.88
473.98	1789.92
474.18	1665.00
474.38	1904.61
474.58	1648.61
474.79	1748.97
474.99	1787.88
475.19	1742.82
475.39	1605.61
475.60	1796.07
475.80	1722.34
476.00	1781.73
476.20	1685.48
476.41	1796.07
476.61	1757.16
476.81	1777.64
477.01	1619.94
477.21	1875.94
477.42	1800.16
477.62	1648.61
477.82	1789.92
478.02	1708.01
478.23	1703.91
478.43	1667.05
478.63	1820.64
478.83	1644.52
479.03	1728.49
479.24	1861.60
479.44	1783.78
479.64	1593.32
479.84	1607.66
480.04	1632.23
480.25	1773.54
480.45	1701.86
480.65	1685.48
480.85	1753.06
481.06	1746.92
481.26	1701.86
481.46	1761.25
481.66	1767.40
481.86	1691.62
482.06	1802.21
482.27	1724.39
482.47	1660.90
482.67	1757.16
482.87	1662.95
483.07	1775.59
483.28	1624.04
483.48	1611.75
483.68	1699.81
483.88	1640.42
484.08	1613.80
484.29	1695.72
484.49	1759.21
484.69	1615.85
484.89	1773.54
485.09	1781.73
485.29	1726.44
485.50	1810.40
485.70	1746.92
485.90	1767.40
486.10	1789.92
486.30	1742.82
486.50	1828.84
486.71	1722.34
486.91	1753.06
487.11	1742.82
487.31	1593.32
487.51	1847.27
487.71	1597.42
487.91	1689.57
488.12	1636.33
488.32	1681.38
488.52	1675.24
488.72	1744.87
488.92	1683.43
489.12	1773.54
489.32	1820.64
489.53	1753.06
489.73	1628.14
489.93	1824.74
490.13	1697.77
490.33	1628.14
490.53	1714.15
490.73	1773.54
490.94	1636.33
491.14	1787.88
491.34	1832.93
491.54	2127.84
491.74	2623.45
491.94	2916.31
492.14	3006.42
492.34	2994.13
492.54	2838.48
492.75	2467.80
492.95	2506.71
493.15	2344.92
493.35	2189.28
493.55	2281.44
493.75	2111.46
493.95	2037.73
494.15	2058.21
494.35	1849.32
494.56	1843.17
494.76	1783.78
494.96	1800.16
495.16	1798.12
495.36	1681.38
495.56	1761.25
495.76	1738.73
495.96	1742.82
496.16	1726.44
496.36	1837.03
496.56	1705.96
496.77	1701.86
496.97	1734.63
497.17	1738.73
497.37	1693.67
497.57	1757.16
497.77	1691.62
497.97	1738.73
498.17	1673.19
498.37	1660.90
498.57	1753.06
498.77	1693.67
498.97	1830.88
499.17	1812.45
499.38	1689.57
499.58	1681.38
499.78	1734.63
499.98	1705.96
500.18	1712.10
500.38	1806.31
500.58	1986.53
500.78	2643.93
500.98	4427.71
501.18	5830.57
501.38	6809.50
501.58	7104.40
501.78	6694.81
501.98	5459.88
502.18	4997.04
502.38	4409.28
502.58	4057.03
502.78	3702.73
502.98	3610.57
503.18	3471.31
503.38	3143.63
503.59	2762.71
503.79	2639.83
503.99	2445.27
504.19	2324.44
504.39	2183.13
504.59	2256.86
504.79	2074.59
504.99	2050.02
505.19	2009.06
505.39	1923.04
505.59	1916.90
505.79	1853.41
505.99	1896.42
506.19	1769.44
506.39	1826.79
506.59	1771.49
506.79	1740.77
506.99	1785.83
507.19	1779.68
507.39	1718.25
507.59	1662.95
507.79	1695.72
507.99	1697.77
508.19	1726.44
508.39	1665.00
508.59	1701.86
508.79	1863.65
508.99	1822.69
509.19	1681.38
509.39	1740.77
509.59	1671.14
509.79	1701.86
509.99	1732.58
510.19	1800.16
510.39	1718.25
510.59	1783.78
510.79	1726.44
510.99	1644.52
511.19	1763.30
511.39	1787.88
511.59	1781.73
511.79	1759.21
511.99	1718.25
512.19	1804.26
512.38	1765.35
512.58	1726.44
512.78	1658.85
512.98	1810.40
513.18	1800.16
513.38	1636.33
513.58	1697.77
513.78	1724.39
513.98	1685.48
514.18	1779.68
514.38	1681.38
514.58	1769.44
514.78	1681.38
514.98	1714.15
515.18	1667.05
515.38	1685.48
515.58	1781.73
515.78	1732.58
515.98	1812.45
516.18	1755.11
516.38	1728.49
516.57	1691.62
516.77	1761.25
516.97	1738.73
517.17	1736.68
517.37	1642.47
517.57	1738.73
517.77	1761.25
517.97	1730.53
518.17	1744.87
518.37	1667.05
518.57	1695.72
518.77	1720.29
518.97	1761.25
519.16	1810.40
519.36	1832.93
519.56	1716.20
519.76	1701.86
519.96	1699.81
520.16	1769.44
520.36	1724.39
520.56	1824.74
520.76	1759.21
520.96	1759.21
521.16	1834.98
521.35	1796.07
521.55	1857.51
521.75	1716.20
521.95	1675.24
522.15	1644.52
522.35	1662.95
522.55	1773.54
522.75	1796.07
522.95	1716.20
523.14	1628.14
523.34	1767.40
523.54	1650.66
523.74	1728.49
523.94	1703.91
524.14	1591.27
524.34	1755.11
524.54	1812.45
524.73	1753.06
524.93	1789.92
525.13	1779.68
525.33	1619.94
525.53	1834.98
525.73	1796.07
525.93	1787.88
526.13	1697.77
526.32	1667.05
526.52	1720.29
526.72	1857.51
526.92	1665.00
527.12	1685.48
527.32	1585.13
527.52	1738.73
527.71	1734.63
527.91	1806.31
528.11	1736.68
528.31	1740.77
528.51	1673.19
528.71	1787.88
528.90	1744.87
529.10	1730.53
529.30	1763.30
529.50	1697.77
529.70	1765.35
529.90	1689.57
530.09	1800.16
530.29	1683.43
530.49	1642.47
530.69	1884.13
530.89	1796.07
531.09	1783.78
531.28	1728.49
531.48	1871.84
531.68	1714.15
531.88	1751.01
532.08	1763.30
532.28	1656.81
532.47	1691.62
532.67	1728.49
532.87	1755.11
533.07	1722.34
533.27	1751.01
533.46	1783.78
533.66	1746.92
533.86	1748.97
534.06	1693.67
534.26	1777.64
534.45	1736.68
534.65	1736.68
534.85	1767.40
535.05	1683.43
535.25	1710.05
535.44	1667.05
535.64	1732.58
535.84	1705.96
536.04	1685.48
536.24	1636.33
536.43	1767.40
536.63	1867.75
536.83	1667.05
537.03	1748.97
537.22	1638.38
537.42	1685.48
537.62	1746.92
537.82	1662.95
538.02	1800.16
538.21	1888.23
538.41	1925.09
538.61	1726.44
538.81	1742.82
539.00	1830.88
539.20	1667.05
539.40	1687.53
539.60	1767.40
539.79	1771.49
539.99	1746.92
540.19	1687.53
540.39	1722.34
540.58	1710.05
540.78	1816.55
540.98	1767.40
541.18	1800.16
541.37	1783.78
541.57	1654.76
541.77	1734.63
541.97	1720.29
542.16	1634.28
542.36	1718.25
542.56	1703.91
542.76	1789.92
542.95	1753.06
543.15	1769.44
543.35	1681.38
543.54	1673.19
543.74	1648.61
543.94	1787.88
544.14	1695.72
544.33	1740.77
544.53	1794.02
544.73	1683.43
544.93	1714.15
545.12	1777.64
545.32	1816.55
545.52	1710.05
545.71	1681.38
545.91	1732.58
546.11	1748.97
546.30	1734.63
546.50	1742.82
546.70	1716.20
546.90	1765.35
547.09	1572.84
547.29	1685.48
547.49	1763.30
547.68	1726.44
547.88	1693.67
548.08	1736.68
548.27	2185.18
548.47	1703.91
548.67	1632.23
548.87	1724.39
549.06	1615.85
549.26	1767.40
549.46	1658.85
549.65	1748.97
549.85	1714.15
550.05	1818.60
550.24	1697.77
550.44	1697.77
550.64	1802.21
550.83	1732.58
551.03	1798.12
551.23	1771.49
551.42	1765.35
551.62	1734.63
551.82	1744.87
552.01	1677.29
552.21	1822.69
552.41	1783.78
552.60	1800.16
552.80	1855.46
553.00	1730.53
553.19	1718.25
553.39	1791.97
553.59	1716.20
553.78	1787.88
553.98	1787.88
554.17	1697.77
554.37	1771.49
554.57	1738.73
554.76	1716.20
554.96	1644.52
555.16	1781.73
555.35	1755.11
555.55	1785.83
555.75	1763.30
555.94	1755.11
556.14	1619.94
556.33	1722.34
556.53	1775.59
556.73	1718.25
556.92	1779.68
557.12	1851.36
557.32	1779.68
557.51	1796.07
557.71	1738.73
557.90	1861.60
558.10	1759.21
558.30	1728.49
558.49	1695.72
558.69	1789.92
558.88	1755.11
559.08	1697.77
559.28	1800.16
559.47	1685.48
559.67	1740.77
559.86	1865.70
560.06	1722.34
560.26	1769.44
560.45	1755.11
560.65	1665.00
560.84	1834.98
561.04	1718.25
561.24	1789.92
561.43	1691.62
561.63	1824.74
561.82	1732.58
562.02	1746.92
562.22	1609.70
562.41	1693.67
562.61	1691.62
562.80	1730.53
563.00	1877.99
563.19	1730.53
563.39	1701.86
563.59	1779.68
563.78	1669.09
563.98	1658.85
564.17	1638.38
564.37	1568.74
564.56	1755.11
564.76	1630.18
564.96	1753.06
565.15	1779.68
565.35	1791.97
565.54	1697.77
565.74	1863.65
565.93	1693.67
566.13	1724.39
566.32	1763.30
566.52	1767.40
566.71	1701.86
566.91	1867.75
567.11	1699.81
567.30	1691.62
567.50	1744.87
567.69	1730.53
567.89	1669.09
568.08	1679.33
568.28	1779.68
568.47	1648.61
568.67	1804.26
568.86	1703.91
569.06	1800.16
569.25	1718.25
569.45	1665.00
569.64	1697.77
569.84	1701.86
570.04	1732.58
570.23	1726.44
570.43	1744.87
570.62	1826.79
570.82	1851.36
571.01	1710.05
571.21	1632.23
571.40	1699.81
571.60	1818.60
571.79	1732.58
571.99	1783.78
572.18	1630.18
572.38	1712.10
572.57	1769.44
572.77	1834.98
572.96	1949.67
573.16	1640.42
573.35	1687.53
573.55	1886.18
573.74	1779.68
573.94	1783.78
574.13	1652.71
574.33	1804.26
574.52	1695.72
574.71	1736.68
574.91	1777.64
575.10	1714.15
575.30	1687.53
575.49	1695.72
575.69	1808.36
575.88	1779.68
576.08	1714.15
576.27	1853.41
576.47	1740.77
576.66	1759.21
576.86	1755.11
577.05	1830.88
577.25	1714.15
577.44	1869.80
577.64	1742.82
577.83	1779.68
578.02	1734.63
578.22	1798.12
578.41	1841.12
578.61	1769.44
578.80	1636.33
579.00	1763.30
579.19	1669.09
579.39	1781.73
579.58	1808.36
579.77	1834.98
579.97	1759.21
580.16	1808.36
580.36	1781.73
580.55	1851.36
580.75	1781.73
580.94	1718.25
581.13	1800.16
581.33	1824.74
581.52	1738.73
581.72	1826.79
581.91	1830.88
582.11	1673.19
582.30	1802.21
582.49	1728.49
582.69	1818.60
582.88	1832.93
583.08	1714.15
583.27	1853.41
583.47	1828.84
583.66	1662.95
583.85	1646.57
584.05	1757.16
584.24	1818.60
584.44	1802.21
584.63	1832.93
584.82	1851.36
585.02	1773.54
585.21	1904.61
585.41	1804.26
585.60	1800.16
585.79	1863.65
585.99	1947.62
586.18	1875.94
586.37	2172.89
586.57	3469.26
586.76	10035.05
586.96	24542.86
587.15	34659.82
587.34	40385.94
587.54	42501.50
587.73	37031.37
587.93	26660.46
588.12	21683.89
588.31	18271.98
588.51	16383.75
588.70	15228.70
588.89	14036.78
589.09	12635.97
589.28	10901.34
589.47	9578.35
589.67	8103.81
589.86	6571.93
590.06	5031.86
590.25	4026.31
590.44	3088.34
590.64	2416.60
590.83	2191.33
591.02	2105.31
591.22	1966.05
591.41	1882.08
591.60	1814.50
591.80	1957.86
591.99	1773.54
592.18	1763.30
592.38	1828.84
592.57	1763.30
592.76	1804.26
592.96	1722.34
593.15	1687.53
593.34	1853.41
593.54	1781.73
593.73	1861.60
593.92	1834.98
594.12	1781.73
594.31	1783.78
594.50	1757.16
594.70	1843.17
594.89	1945.57
595.08	1716.20
595.28	1751.01
595.47	1976.29
595.66	1853.41
595.86	1732.58
596.05	1708.01
596.24	1746.92
596.43	1837.03
596.63	1812.45
596.82	1800.16
597.01	1685.48
597.21	1779.68
597.40	1697.77
597.59	1755.11
597.79	1646.57
597.98	1789.92
598.17	1791.97
598.36	1687.53
598.56	1767.40
598.75	1701.86
598.94	1767.40
599.14	1658.85
599.33	1722.34
599.52	1744.87
599.71	1730.53
599.91	1794.02
600.10	1871.84
600.29	1732.58
600.48	1763.30
600.68	1796.07
600.87	1769.44
601.06	1730.53
601.26	1689.57
601.45	1775.59
601.64	1720.29
601.83	1814.50
602.03	1710.05
602.22	1699.81
602.41	1712.10
602.60	1839.08
602.80	1818.60
602.99	1712.10
603.18	1705.96
603.37	1726.44
603.57	1755.11
603.76	1810.40
603.95	1773.54
604.14	1691.62
604.34	1708.01
604.53	1689.57
604.72	1730.53
604.91	1730.53
605.10	1789.92
605.30	1587.18
605.49	1892.32
605.68	1802.21
605.87	1796.07
606.07	1738.73
606.26	1734.63
606.45	1783.78
606.64	1757.16
606.84	1687.53
607.03	1722.34
607.22	1785.83
607.41	1576.94
607.60	1716.20
607.80	1742.82
607.99	1720.29
608.18	1712.10
608.37	1724.39
608.56	1732.58
608.76	1841.12
608.95	1859.56
609.14	1841.12
609.33	1804.26
609.52	1783.78
609.72	1697.77
609.91	1757.16
610.10	1804.26
610.29	1738.73
610.48	1783.78
610.68	1748.97
610.87	1675.24
611.06	1828.84
611.25	1708.01
611.44	1755.11
611.63	1697.77
611.83	1783.78
612.02	1630.18
612.21	1724.39
612.40	1644.52
612.59	1624.04
612.79	1677.29
612.98	1779.68
613.17	1794.02
613.36	1683.43
613.55	1787.88
613.74	1695.72
613.93	1802.21
614.13	1738.73
614.32	1761.25
614.51	1673.19
614.70	1734.63
614.89	1648.61
615.08	1765.35
615.28	1931.23
615.47	1761.25
615.66	1755.11
615.85	1716.20
616.04	1738.73
616.23	1738.73
616.42	1763.30
616.62	1746.92
616.81	1693.67
617.00	1687.53
617.19	1767.40
617.38	1726.44
617.57	1767.40
617.76	1724.39
617.95	1656.81
618.15	1757.16
618.34	1875.94
618.53	1660.90
618.72	1765.35
618.91	1853.41
619.10	1865.70
619.29	1746.92
619.48	1685.48
619.68	1660.90
619.87	1744.87
620.06	1632.23
620.25	1802.21
620.44	1640.42
620.63	1658.85
620.82	1720.29
621.01	1697.77
621.20	1796.07
621.39	1683.43
621.59	1744.87
621.78	1716.20
621.97	1697.77
622.16	1748.97
622.35	1724.39
622.54	1769.44
622.73	1830.88
622.92	1613.80
623.11	1726.44
623.30	1714.15
623.49	1794.02
623.68	1632.23
623.88	1828.84
624.07	1673.19
624.26	1734.63
624.45	1708.01
624.64	1755.11
624.83	1751.01
625.02	1751.01
625.21	1761.25
625.40	1689.57
625.59	1783.78
625.78	1722.34
625.97	1714.15
626.16	1755.11
626.35	1708.01
626.54	1648.61
626.74	1806.31
626.93	1705.96
627.12	1718.25
627.31	1730.53
627.50	1777.64
627.69	1791.97
627.88	1662.95
628.07	1705.96
628.26	1597.42
628.45	1652.71
628.64	1732.58
628.83	1685.48
629.02	1665.00
629.21	1769.44
629.40	1718.25
629.59	1591.27
629.78	1656.81
629.97	1748.97
630.16	1619.94
630.35	1673.19
630.54	1685.48
630.73	1703.91
630.92	1779.68
631.11	1673.19
631.30	1695.72
631.49	1724.39
631.68	1705.96
631.87	1748.97
632.06	1677.29
632.25	1841.12
632.44	1699.81
632.63	1665.00
632.82	1701.86
633.01	1650.66
633.20	1726.44
633.39	1716.20
633.58	1656.81
633.77	1624.04
633.96	1771.49
634.15	1830.88
634.34	1726.44
634.53	1763.30
634.72	1642.47
634.91	1601.51
635.10	1812.45
635.29	1748.97
635.48	1791.97
635.67	1665.00
635.86	1626.09
636.05	1755.11
636.24	1732.58
636.43	1722.34
636.62	1701.86
636.81	1554.41
637.00	1757.16
637.19	1744.87
637.38	1710.05
637.57	1734.63
637.76	1699.81
637.95	1665.00
638.14	1656.81
638.33	1662.95
638.52	1726.44
638.71	1642.47
638.89	1665.00
639.08	1843.17
639.27	1742.82
639.46	1699.81
639.65	1798.12
639.84	1675.24
640.03	1841.12
640.22	1765.35
640.41	1867.75
640.60	1679.33
640.79	1691.62
640.98	1642.47
641.17	1777.64
641.36	1710.05
641.55	1689.57
641.74	1650.66
641.92	1691.62
642.11	1658.85
642.30	1665.00
642.49	1611.75
642.68	1665.00
642.87	1779.68
643.06	1761.25
643.25	1665.00
643.44	1716.20
643.63	1691.62
643.82	1742.82
644.00	1656.81
644.19	1736.68
644.38	1624.04
644.57	1710.05
644.76	1765.35
644.95	1671.14
645.14	1722.34
645.33	1617.90
645.52	1701.86
645.71	1650.66
645.89	1624.04
646.08	1730.53
646.27	1681.38
646.46	1824.74
646.65	1603.56
646.84	1802.21
647.03	1656.81
647.22	1783.78
647.40	1728.49
647.59	1673.19
647.78	1638.38
647.97	1691.62
648.16	1644.52
648.35	1824.74
648.54	1820.64
648.73	1751.01
648.91	1699.81
649.10	1689.57
649.29	1669.09
649.48	1763.30
649.67	1646.57
649.86	1751.01
650.05	1646.57
650.23	1775.59
650.42	1695.72
650.61	1767.40
650.80	1677.29
650.99	1865.70
651.18	1785.83
651.36	1710.05
651.55	1685.48
651.74	1798.12
651.93	1689.57
652.12	1681.38
652.31	1712.10
652.49	1658.85
652.68	1685.48
652.87	1767.40
653.06	1746.92
653.25	1755.11
653.44	1765.35
653.62	1830.88
653.81	1632.23
654.00	1751.01
654.19	1734.63
654.38	1908.71
654.56	1728.49
654.75	1710.05
654.94	1767.40
655.13	1738.73
655.32	1642.47
655.51	1824.74
655.69	1742.82
655.88	1705.96
656.07	1691.62
656.26	1703.91
656.45	1695.72
656.63	1744.87
656.82	1669.09
657.01	1708.01
657.20	1734.63
657.38	1779.68
657.57	1730.53
657.76	1585.13
657.95	1757.16
658.14	1660.90
658.32	1751.01
658.51	1730.53
658.70	1703.91
658.89	1689.57
659.08	1767.40
659.26	1738.73
659.45	1693.67
659.64	1748.97
659.83	1697.77
660.01	1861.60
660.20	1658.85
660.39	1779.68
660.58	1642.47
660.76	1759.21
660.95	1660.90
661.14	1718.25
661.33	1662.95
661.51	1748.97
661.70	1699.81
661.89	1726.44
662.08	1652.71
662.26	1615.85
662.45	1751.01
662.64	1812.45
662.83	1767.40
663.01	1642.47
663.20	1679.33
663.39	1777.64
663.58	1697.77
663.76	1677.29
663.95	1834.98
664.14	1681.38
664.32	1695.72
664.51	1738.73
664.70	1644.52
664.89	1746.92
665.07	1632.23
665.26	1773.54
665.45	1738.73
665.64	1791.97
665.82	1761.25
666.01	1796.07
666.20	1689.57
666.38	1880.04
666.57	1796.07
666.76	2193.37
666.95	4609.98
667.13	10530.66
667.32	15449.88
667.51	17759.98
667.69	18915.04
667.88	17649.39
668.07	12353.35
668.25	9795.43
668.44	8095.62
668.63	7268.24
668.81	6766.49
669.00	6254.50
669.19	5808.04
669.38	5228.46
669.56	4675.51
669.75	4005.83
669.94	3502.03
670.12	2934.74
670.31	2547.67
670.50	2279.39
670.68	2131.94
670.87	1955.81
671.06	1708.01
671.24	1763.30
671.43	1804.26
671.62	1761.25
671.80	1695.72
671.99	1736.68
672.18	1806.31
672.36	1695.72
672.55	1753.06
672.74	1671.14
672.92	1710.05
673.11	1730.53
673.29	1642.47
673.48	1822.69
673.67	1701.86
673.85	1787.88
674.04	1673.19
674.23	1681.38
674.41	1753.06
674.60	1681.38
674.79	1636.33
674.97	1701.86
675.16	1804.26
675.34	1796.07
675.53	1677.29
675.72	1722.34
675.90	1855.46
676.09	1662.95
676.28	1687.53
676.46	1654.76
676.65	1796.07
676.83	1619.94
677.02	1681.38
677.21	1746.92
677.39	1705.96
677.58	1755.11
677.77	1693.67
677.95	1765.35
678.14	1738.73
678.32	1757.16
678.51	1662.95
678.70	1820.64
678.88	1667.05
679.07	1710.05
679.25	1667.05
679.44	1689.57
679.63	1689.57
679.81	1693.67
680.00	1755.11
680.18	1755.11
680.37	1853.41
680.55	1732.58
680.74	1646.57
680.93	1722.34
681.11	1712.10
681.30	1720.29
681.48	1757.16
681.67	1699.81
681.85	1759.21
682.04	1681.38
682.23	1751.01
682.41	1681.38
682.60	1677.29
682.78	1697.77
682.97	1615.85
683.15	1751.01
683.34	1714.15
683.53	1763.30
683.71	1636.33
683.90	1779.68
684.08	1806.31
684.27	1720.29
684.45	1759.21
684.64	1800.16
684.82	1724.39
685.01	1751.01
685.19	1693.67
685.38	1853.41
685.57	1652.71
685.75	1708.01
685.94	1681.38
686.12	1671.14
686.31	1716.20
686.49	1779.68
686.68	1626.09
686.86	1730.53
687.05	1683.43
687.23	1781.73
687.42	1671.14
687.60	1644.52
687.79	1767.40
687.97	1820.64
688.16	1798.12
688.34	1757.16
688.53	1609.70
688.71	1728.49
688.90	1847.27
689.08	1689.57
689.27	1644.52
689.45	1734.63
689.64	1681.38
689.82	1687.53
690.01	1703.91
690.19	1718.25
690.38	1724.39
690.56	1810.40
690.75	1638.38
690.93	1691.62
691.12	1718.25
691.30	1763.30
691.49	1660.90
691.67	1734.63
691.86	1740.77
692.04	1660.90
692.23	1669.09
692.41	1714.15
692.60	1869.80
692.78	1753.06
692.97	1689.57
693.15	1730.53
693.34	1736.68
693.52	1783.78
693.71	1683.43
693.89	1705.96
694.08	1646.57
694.26	1705.96
694.44	1726.44
694.63	1748.97
694.81	1640.42
695.00	1705.96
695.18	1794.02
695.37	1861.60
695.55	1742.82
695.74	1724.39
695.92	1650.66
696.10	1722.34
696.29	1697.77
696.47	1697.77
696.66	1624.04
696.84	1677.29
697.03	1751.01
697.21	1785.83
697.40	2351.07
697.58	1798.12
697.76	1615.85
697.95	1708.01
698.13	1556.46
698.32	1662.95
698.50	1708.01
698.68	1710.05
698.87	1665.00
699.05	1779.68
699.24	1736.68
699.42	1685.48
699.61	1730.53
699.79	1691.62
699.97	1742.82
700.16	1654.76
700.34	1665.00
700.53	1769.44
700.71	1796.07
700.89	1783.78
701.08	1736.68
701.26	1761.25
701.45	2035.68
701.63	1689.57
701.81	1669.09
702.00	1570.79
702.18	1734.63
702.37	1656.81
702.55	1732.58
702.73	1718.25
702.92	1572.84
703.10	1757.16
703.28	1689.57
703.47	1697.77
703.65	1822.69
703.84	1806.31
704.02	1685.48
704.20	1859.56
704.39	1630.18
704.57	1726.44
704.75	1781.73
704.94	1734.63
705.12	1677.29
705.30	1787.88
705.49	2359.26
705.67	4411.32
705.86	9498.48
706.04	12488.51
706.22	14403.36
706.41	15462.16
706.59	13997.87
706.77	9697.13
706.96	7427.98
707.14	6588.32
707.32	6133.67
707.51	5762.98
707.69	5007.28
707.87	4190.14
708.06	3579.85
708.24	2983.89
708.42	2441.18
708.61	2277.34
708.79	1910.75
708.97	1802.21
709.16	1820.64
709.34	1712.10
709.52	1677.29
709.71	1755.11
709.89	1796.07
710.07	1654.76
710.26	1683.43
710.44	1751.01
710.62	1796.07
710.80	1712.10
710.99	1843.17
711.17	1830.88
711.35	1677.29
711.54	1640.42
711.72	1710.05
711.90	1732.58
712.09	1734.63
712.27	1591.27
712.45	1740.77
712.63	1701.86
712.82	1722.34
713.00	1724.39
713.18	1744.87
713.37	1748.97
713.55	1779.68
713.73	1679.33
713.91	1777.64
714.10	1656.81
714.28	1636.33
714.46	1732.58
714.65	1718.25
714.83	1765.35
715.01	1689.57
715.19	1763.30
715.38	1691.62
715.56	1779.68
715.74	1685.48
715.92	1726.44
716.11	1804.26
716.29	1603.56
716.47	1679.33
716.65	1687.53
716.84	1624.04
717.02	1757.16
717.20	1648.61
717.38	1746.92
717.57	1705.96
717.75	1722.34
717.93	1617.90
718.11	1648.61
718.30	1624.04
718.48	1824.74
718.66	1701.86
718.84	1755.11
719.03	1673.19
719.21	1560.55
719.39	1775.59
719.57	1724.39
719.75	1802.21
719.94	1626.09
720.12	1652.71
720.30	1656.81
720.48	1705.96
720.67	1675.24
720.85	1595.37
721.03	1689.57
721.21	1671.14
721.39	1746.92
721.58	1839.08
721.76	1652.71
721.94	1755.11
722.12	1701.86
722.30	1740.77
722.49	1648.61
722.67	1730.53
722.85	1738.73
723.03	1636.33
723.21	1634.28
723.40	1667.05
723.58	1718.25
723.76	1742.82
723.94	1753.06
724.12	1656.81
724.30	1748.97
724.49	1742.82
724.67	1642.47
724.85	1779.68
725.03	1603.56
725.21	1728.49
725.40	1818.60
725.58	1708.01
725.76	1738.73
725.94	1714.15
726.12	1611.75
726.30	1728.49
726.49	1699.81
726.67	1660.90
726.85	1671.14
727.03	1740.77
727.21	2191.33
727.39	2914.26
727.57	3911.62
727.76	4167.62
727.94	4421.56
728.12	4384.70
728.30	3758.02
728.48	2953.17
728.66	2756.57
728.84	2525.15
729.03	2287.58
729.21	2088.93
729.39	1927.14
729.57	1880.04
729.75	1802.21
729.93	1867.75
730.11	1675.24
730.30	1681.38
730.48	1724.39
730.66	1769.44
730.84	1746.92
731.02	1755.11
731.20	1691.62
731.38	1697.77
731.56	1568.74
731.74	1660.90
731.93	1771.49
732.11	1728.49
732.29	1648.61
732.47	1781.73
732.65	1691.62
732.83	1726.44
733.01	1703.91
733.19	1742.82
733.37	1724.39
733.56	1703.91
733.74	1728.49
733.92	1779.68
734.10	1587.18
734.28	1722.34
734.46	1662.95
734.64	1642.47
734.82	1677.29
735.00	1679.33
735.18	1656.81
735.36	1734.63
735.54	1720.29
735.73	1722.34
735.91	1693.67
736.09	1767.40
736.27	1695.72
736.45	1693.67
736.63	1624.04
736.81	1673.19
736.99	1812.45
737.17	1808.36
737.35	1716.20
737.53	1675.24
737.71	1693.67
737.89	1767.40
738.07	1595.37
738.25	1677.29
738.43	1578.98
738.61	1677.29
738.80	1615.85
738.98	1669.09
739.16	1681.38
739.34	1685.48
739.52	1800.16
739.70	1677.29
739.88	1699.81
740.06	1759.21
740.24	1593.32
740.42	1716.20
740.60	1601.51
740.78	1656.81
740.96	1669.09
741.14	1630.18
741.32	1677.29
741.50	1574.89
741.68	1863.65
741.86	1695.72
742.04	1607.66
742.22	1634.28
742.40	1738.73
742.58	1769.44
742.76	1650.66
742.94	1787.88
743.12	1587.18
743.30	1615.85
743.48	1738.73
743.66	1609.70
743.84	1648.61
744.02	1665.00
744.20	1644.52
744.38	1619.94
744.56	1648.61
744.74	1753.06
744.92	1779.68
745.10	1818.60
745.28	1710.05
745.46	1824.74
745.64	1695.72
745.82	1755.11
746.00	1759.21
746.18	1732.58
746.36	1638.38
746.54	1716.20
746.72	1634.28
746.90	1669.09
747.08	1738.73
747.26	1673.19
747.44	1732.58
747.62	1718.25
747.80	1708.01
747.98	1726.44
748.15	1628.14
748.33	1841.12
748.51	1728.49
748.69	1769.44
748.87	1679.33
749.05	1624.04
749.23	1687.53
749.41	1669.09
749.59	1642.47
749.77	1685.48
749.95	1669.09
750.13	1617.90
750.31	1757.16
750.49	1718.25
750.67	1728.49
750.85	1859.56
751.03	1710.05
751.20	1802.21
751.38	1771.49
751.56	1611.75
751.74	1748.97
751.92	1669.09
752.10	1619.94
752.28	1796.07
752.46	1615.85
752.64	1648.61
752.82	1665.00
753.00	1691.62
753.18	1652.71
753.35	1615.85
753.53	1732.58
753.71	1644.52
753.89	1742.82
754.07	1712.10
754.25	1677.29
754.43	1722.34
754.61	1656.81
754.79	1714.15
754.97	1759.21
755.14	1734.63
755.32	1621.99
755.50	1771.49
755.68	1701.86
755.86	1695.72
756.04	1624.04
756.22	1587.18
756.40	1763.30
756.57	1746.92
756.75	1755.11
756.93	1773.54
757.11	1771.49
757.29	1667.05
757.47	1632.23
757.65	1619.94
757.82	1583.08
758.00	1650.66
758.18	1599.46
758.36	1677.29
758.54	1705.96
758.72	1581.03
758.90	1701.86
759.07	1656.81
759.25	1683.43
759.43	1720.29
759.61	1642.47
759.79	2107.36
759.97	1699.81
760.15	1675.24
760.32	1724.39
760.50	1695.72
760.68	1808.36
760.86	1570.79
761.04	1777.64
761.22	1744.87
761.39	1624.04
761.57	1660.90
761.75	1677.29
761.93	1765.35
762.11	1667.05
762.28	1724.39
762.46	1632.23
762.64	1703.91
762.82	1665.00
763.00	1669.09
763.18	1834.98
763.35	1624.04
763.53	1675.24
763.71	1701.86
763.89	1662.95
764.07	1665.00
764.24	1646.57
764.42	1753.06
764.60	1730.53
764.78	1667.05
764.96	1726.44
765.13	1761.25
765.31	1658.85
765.49	1763.30
765.67	1605.61
765.84	1695.72
766.02	1630.18
766.20	1611.75
766.38	1802.21
766.56	1781.73
766.73	1675.24
766.91	1662.95
767.09	1613.80
767.27	1800.16
767.44	1630.18
767.62	1810.40
767.80	1681.38
767.98	1628.14
768.15	1665.00
768.33	1763.30
768.51	1736.68
768.69	1734.63
768.87	1677.29
769.04	1632.23
769.22	1830.88
769.40	1705.96
769.58	1837.03
769.75	1656.81
769.93	1720.29
770.11	1656.81
770.28	1712.10
770.46	1755.11
770.64	1677.29
770.82	1744.87
770.99	1679.33
771.17	1804.26
771.35	1621.99
771.53	1761.25
771.70	1624.04
771.88	1705.96
772.06	1712.10
772.23	1626.09
772.41	1763.30
772.59	1671.14
772.77	1652.71
772.94	1736.68
773.12	1730.53
773.30	1683.43
773.47	1617.90
773.65	1654.76
773.83	1757.16
774.01	1748.97
774.18	1636.33
774.36	1753.06
774.54	1562.60
774.71	1691.62
774.89	1685.48
775.07	1665.00
775.24	1714.15
775.42	1609.70
775.60	1884.13
775.78	1652.71
775.95	1595.37
776.13	1628.14
776.31	1632.23
776.48	1718.25
776.66	1755.11
776.84	1644.52
777.01	1640.42
777.19	1695.72
777.37	1714.15
777.54	1724.39
777.72	1912.80
777.90	1697.77
778.07	1521.64
778.25	1935.33
778.43	1730.53
778.60	1685.48
778.78	1755.11
778.96	1732.58
779.13	1624.04
779.31	1732.58
779.49	1724.39
779.66	1687.53
779.84	1667.05
780.01	1728.49
780.19	1656.81
780.37	1695.72
780.54	1755.11
780.72	1611.75
780.90	1671.14
781.07	1693.67
781.25	1656.81
781.43	1759.21
781.60	1720.29
781.78	1714.15
781.95	1665.00
782.13	1615.85
782.31	1648.61
782.48	1542.12
782.66	1677.29
782.83	1783.78
783.01	1708.01
783.19	1763.30
783.36	1695.72
783.54	1605.61
783.72	1708.01
783.89	1718.25
784.07	1703.91
784.24	1759.21
784.42	1843.17
784.60	1710.05
784.77	1746.92
784.95	1630.18
785.12	1621.99
785.30	1675.24
785.47	1648.61
785.65	1665.00
785.83	1726.44
786.00	1628.14
786.18	1724.39
786.35	1621.99
786.53	1652.71
786.71	1761.25
786.88	1771.49
787.06	1689.57
787.23	1751.01
787.41	1665.00
787.58	1667.05
787.76	1675.24
787.94	1667.05
788.11	1665.00
788.29	1591.27
788.46	1669.09
788.64	1597.42
788.81	1669.09
788.99	1665.00
789.16	1636.33
789.34	1607.66
789.52	1660.90
789.69	1638.38
789.87	1595.37
790.04	1675.24
790.22	1722.34
790.39	1830.88
790.57	1687.53
790.74	1646.57
790.92	1734.63
791.09	1540.07
791.27	1689.57
791.44	1775.59
791.62	1636.33
791.79	1712.10
791.97	1630.18
792.15	1933.28
792.32	1665.00
792.50	1755.11
792.67	1830.88
792.85	1814.50
793.02	1730.53
793.20	1671.14
793.37	1624.04
793.55	1658.85
793.72	1701.86
793.90	1767.40
794.07	1652.71
794.25	1673.19
794.42	1658.85
794.60	1681.38
794.77	1769.44
794.95	1751.01
795.12	1708.01
795.30	1689.57
795.47	1538.02
795.65	1859.56
795.82	1734.63
796.00	1695.72
796.17	1644.52
796.34	1636.33
796.52	1632.23
796.69	1761.25
796.87	1773.54
797.04	1736.68
797.22	1763.30
797.39	1697.77
797.57	1740.77
797.74	1714.15
797.92	1628.14
798.09	1621.99
798.27	1701.86
798.44	1755.11
798.62	1660.90
798.79	1789.92
798.96	1701.86
799.14	1677.29
799.31	1863.65
799.49	1644.52
799.66	1677.29
799.84	1677.29
800.01	1673.19
800.19	1701.86
800.36	1636.33
800.53	1751.01
800.71	1699.81
800.88	1755.11
801.06	1667.05
801.23	1691.62
801.41	1632.23
801.58	1693.67
801.75	1626.09
801.93	1689.57
802.10	1722.34
802.28	1595.37
802.45	1650.66
802.63	1718.25
802.80	1734.63
802.97	1718.25
803.15	1662.95
803.32	1699.81
803.50	1630.18
803.67	1650.66
803.84	1667.05
804.02	1697.77
804.19	1677.29
804.37	1662.95
804.54	1613.80
804.71	1685.48
804.89	1718.25
805.06	1632.23
805.24	1595.37
805.41	1687.53
805.58	1665.00
805.76	1847.27
805.93	1726.44
806.10	1757.16
806.28	1697.77
806.45	1726.44
806.63	1679.33
806.80	1777.64
806.97	1746.92
807.15	1634.28
807.32	1691.62
807.49	1720.29
807.67	1533.93
807.84	1742.82
808.01	1685.48
808.19	1785.83
808.36	1738.73
808.54	1687.53
808.71	1624.04
808.88	1634.28
809.06	1697.77
809.23	1714.15
809.40	1712.10
809.58	1703.91
809.75	1738.73
809.92	1722.34
810.10	1861.60
810.27	1636.33
810.44	1736.68
810.62	1740.77
810.79	1695.72
810.96	1665.00
811.14	1693.67
811.31	1718.25
811.48	1810.40
811.66	1705.96
811.83	1779.68
812.00	1677.29
812.18	1683.43
812.35	1818.60
812.52	1675.24
812.69	1640.42
812.87	1683.43
813.04	1574.89
813.21	1732.58
813.39	1703.91
813.56	1611.75
813.73	1681.38
813.91	1603.56
814.08	1708.01
814.25	1689.57
814.42	1640.42
814.60	1720.29
814.77	1771.49
814.94	1718.25
815.12	1693.67
815.29	1761.25
815.46	1677.29
815.63	1740.77
815.81	1603.56
815.98	1722.34
816.15	1701.86
816.33	1691.62
816.50	1685.48
816.67	1695.72
816.84	1699.81
817.02	1599.46
817.19	1763.30
817.36	1730.53
817.53	1724.39
817.71	1712.10
817.88	1656.81
818.05	1673.19
818.22	1728.49
818.40	1787.88
818.57	1603.56
818.74	1712.10
818.91	1689.57
819.09	1697.77
819.26	1824.74
819.43	1638.38
819.60	1660.90
819.78	1783.78
819.95	1722.34
820.12	1740.77
820.29	1681.38
820.47	1779.68
820.64	1658.85
820.81	1648.61
820.98	1656.81
821.15	1572.84
821.33	1675.24
821.50	1599.46
821.67	1722.34
821.84	1693.67
822.02	1660.90
822.19	1779.68
822.36	1619.94
822.53	1662.95
822.70	1591.27
822.88	1724.39
823.05	1810.40
823.22	1583.08
823.39	1802.21
823.56	1669.09
823.74	1834.98
823.91	1683.43
824.08	1609.70
824.25	1662.95
824.42	1767.40
824.60	1621.99
824.77	1701.86
824.94	1656.81
825.11	1714.15
825.28	1621.99
825.45	1648.61
825.63	1767.40
825.80	1636.33
825.97	1603.56
826.14	1722.34
826.31	1626.09
826.48	1814.50
826.66	1662.95
826.83	1742.82
827.00	1714.15
827.17	1708.01
827.34	1673.19
827.51	1714.15
827.69	1695.72
827.86	1603.56
828.03	1714.15
828.20	1685.48
828.37	1597.42
828.54	1763.30
828.71	1734.63
828.89	1697.77
829.06	1720.29
829.23	1763.30
829.40	1613.80
829.57	1673.19
829.74	1837.03
829.91	1656.81
830.09	1581.03
830.26	1691.62
830.43	1751.01
830.60	1763.30
830.77	1681.38
830.94	1755.11
831.11	1683.43
831.28	1691.62
831.46	1787.88
831.63	1701.86
831.80	1650.66
831.97	1609.70
832.14	1718.25
832.31	1753.06
832.48	1636.33
832.65	1720.29
832.82	1714.15
832.99	1812.45
833.17	1644.52
833.34	1781.73
833.51	1656.81
833.68	1673.19
833.85	1710.05
834.02	1652.71
834.19	1632.23
834.36	1667.05
834.53	1806.31
834.70	1665.00
834.87	1773.54
835.04	1779.68
835.22	1697.77
835.39	1751.01
835.56	1591.27
835.73	1771.49
835.90	1765.35
836.07	1632.23
836.24	1744.87
836.41	1648.61
836.58	1626.09
836.75	1837.03
836.92	1665.00
837.09	1693.67
837.26	1755.11
837.43	1695.72
837.60	1738.73
837.77	1691.62
837.94	1738.73
838.12	1755.11
838.29	1748.97
838.46	1714.15
838.63	1624.04
838.80	1728.49
838.97	1722.34
839.14	1656.81
839.31	1806.31
839.48	1689.57
839.65	1624.04
839.82	1763.30
839.99	1660.90
840.16	1728.49
840.33	1665.00
840.50	1705.96
840.67	1677.29
840.84	1568.74
841.01	1646.57
841.18	1652.71
841.35	1705.96
841.52	1673.19
841.69	1869.80
841.86	1734.63
842.03	1648.61
842.20	1728.49
842.37	1638.38
842.54	1779.68
842.71	1660.90
842.88	1607.66
843.05	1814.50
843.22	1697.77
843.39	1748.97
843.56	1714.15
843.73	1714.15
843.90	1794.02
844.07	1712.10
844.24	1781.73
844.41	1755.11
844.58	1699.81
844.75	1667.05
844.92	1714.15
845.09	1685.48
845.26	1591.27
845.43	1701.86
845.60	1673.19
845.77	1794.02
845.94	1744.87
846.10	1742.82
846.27	1630.18
846.44	1634.28
846.61	1642.47
846.78	1687.53
846.95	1736.68
847.12	1681.38
847.29	1722.34
847.46	1679.33
847.63	1771.49
847.80	1613.80
847.97	1693.67
848.14	1814.50
848.31	1593.32
848.48	1652.71
848.65	1624.04
848.82	1634.28
848.98	1785.83
849.15	1701.86
849.32	1804.26
849.49	1685.48
849.66	1734.63
849.83	1642.47
850.00	1615.85
850.17	1693.67
850.34	1718.25
850.51	1658.85
850.68	1716.20
850.85	1861.60
851.01	1708.01
851.18	1716.20
851.35	1695.72
851.52	1789.92
851.69	1822.69
851.86	1595.37
852.03	1662.95
852.20	1683.43
852.37	1734.63
852.53	1595.37
852.70	1746.92
852.87	1720.29
853.04	1751.01
853.21	1693.67
853.38	1759.21
853.55	1763.30
853.72	1773.54
853.89	1638.38
854.05	1697.77
854.22	1642.47
854.39	1691.62
854.56	1726.44
854.73	1738.73
854.90	1638.38
855.07	1691.62
855.23	1667.05
855.40	1673.19
855.57	1708.01
855.74	1644.52
855.91	1902.56
856.08	1619.94
856.25	1554.41
856.41	1669.09
856.58	1652.71
856.75	1701.86
856.92	1546.22
857.09	1699.81
857.26	1624.04
857.42	1728.49
857.59	1785.83
857.76	1644.52
857.93	1689.57
858.10	1787.88
858.27	1675.24
858.43	1726.44
858.60	1712.10
858.77	1617.90
858.94	1583.08
859.11	1791.97
859.27	1697.77
859.44	1650.66
859.61	1777.64
859.78	1656.81
859.95	1665.00
860.12	1632.23
860.28	1804.26
860.45	1882.08
860.62	1624.04
860.79	1697.77
860.95	1615.85
861.12	1712.10
861.29	1630.18
861.46	1607.66
861.63	1617.90
861.79	1740.77
861.96	1574.89
862.13	1660.90
862.30	1712.10
862.47	1609.70
862.63	1585.13
862.80	1742.82
862.97	1810.40
863.14	1777.64
863.30	1804.26
863.47	1624.04
863.64	1740.77
863.81	1681.38
863.97	1656.81
864.14	1699.81
864.31	1716.20
864.48	1675.24
864.65	1636.33
864.81	1697.77
864.98	1728.49
865.15	1777.64
865.32	1781.73
865.48	1783.78
865.65	1740.77
865.82	1726.44
865.98	1767.40
866.15	1736.68
866.32	1716.20
866.49	1675.24
866.65	1775.59
866.82	1626.09
866.99	1718.25
867.16	1642.47
867.32	1626.09
867.49	1662.95
867.66	1699.81
867.83	1730.53
867.99	1599.46
868.16	1738.73
868.33	1738.73
868.49	1640.42
868.66	1638.38
868.83	1722.34
868.99	1820.64
869.16	1683.43
869.33	1781.73
869.50	1755.11
869.66	1720.29
869.83	1646.57
870.00	1611.75
870.16	1689.57
870.33	1581.03
870.50	1683.43
870.66	1734.63
870.83	1740.77
871.00	1701.86
871.17	1689.57
871.33	1763.30
871.50	1644.52
871.67	1714.15
871.83	1595.37
872.00	1847.27
872.17	1769.44
872.33	1787.88
872.50	1722.34
872.67	1650.66
872.83	1665.00
873.00	1755.11
873.17	1628.14
873.33	1798.12
873.50	1798.12
873.67	1581.03
873.83	1640.42
874.00	1662.95
874.16	1746.92
874.33	1671.14
874.50	1650.66
874.66	1753.06
874.83	1665.00
875.00	1738.73
875.16	1822.69
875.33	1826.79
875.50	1585.13
875.66	1611.75
875.83	1710.05
875.99	1724.39
876.16	1701.86
876.33	1644.52
876.49	1667.05
876.66	1740.77
876.83	1693.67
876.99	1574.89
877.16	1703.91
877.32	1683.43
877.49	1726.44
877.66	1685.48
877.82	1742.82
877.99	1718.25
878.15	1724.39
878.32	1677.29
878.49	1697.77
878.65	1699.81
878.82	1732.58
878.98	1642.47
879.15	1810.40
879.32	1685.48
879.48	1757.16
879.65	1697.77
879.81	1765.35
879.98	1658.85
880.15	1699.81
880.31	1763.30
880.48	1640.42
880.64	1773.54
880.81	1730.53
880.97	1832.93
881.14	1812.45
881.31	1701.86
881.47	1839.08
881.64	1691.62
881.80	1679.33
881.97	1726.44
882.13	1763.30
882.30	1621.99
882.47	1685.48
882.63	1617.90
882.80	1669.09
882.96	1685.48
883.13	1693.67
883.29	1650.66
883.46	1640.42
883.62	1796.07
883.79	1689.57
883.95	1722.34
884.12	1726.44
884.29	1759.21
884.45	1640.42
884.62	1738.73
884.78	1591.27
884.95	1779.68
885.11	1697.77
885.28	1628.14
885.44	1642.47
885.61	1722.34
885.77	1816.55
885.94	1742.82
886.10	1681.38
886.27	1699.81
886.43	1789.92
886.60	1775.59
886.76	1615.85
886.93	1613.80
887.09	1777.64
887.26	1644.52
887.42	1703.91
887.59	1681.38
887.75	1822.69
887.92	1845.22
888.08	1652.71
888.25	1779.68
888.41	1757.16
888.58	1675.24
888.74	1679.33
888.91	1626.09
>>>>>End Processed Spectral Data<<<<<
