SpectraSuite Data File
++++++++++++++++++++++++++++++++++++
Date: Mon Jun 06 17:25:17 CEST 2016
User: root
Dark Spectrum Present: No
Reference Spectrum Present: No
Number of Sampled Component Spectra: 1
Spectrometers: USB4C02835
Integration Time (usec): 100000 (USB4C02835)
Spectra Averaged: 1 (USB4C02835)
Boxcar Smoothing: 0 (USB4C02835)
Correct for Electrical Dark: No (USB4C02835)
Strobe/Lamp Enabled: No (USB4C02835)
Correct for Detector Non-linearity: No (USB4C02835)
Correct for Stray Light: No (USB4C02835)
Number of Pixels in Processed Spectrum: 3648
>>>>>Begin Processed Spectral Data<<<<<
177.47	1507.30
177.69	1507.30
177.91	1507.30
178.13	1490.92
178.36	1443.82
178.58	1660.90
178.80	1773.54
179.02	1644.52
179.24	1654.76
179.46	1732.58
179.68	1740.77
179.90	1720.29
180.13	1796.07
180.35	1712.10
180.57	1705.96
180.79	1732.58
181.01	1730.53
181.23	1748.97
181.45	1767.40
181.67	1734.63
181.90	1824.74
182.12	1683.43
182.34	1599.46
182.56	1771.49
182.78	1714.15
183.00	1705.96
183.22	1726.44
183.44	1697.77
183.66	1806.31
183.89	1802.21
184.11	1697.77
184.33	1685.48
184.55	1769.44
184.77	1785.83
184.99	1751.01
185.21	1722.34
185.43	1785.83
185.65	1705.96
185.87	1746.92
186.10	1867.75
186.32	1869.80
186.54	1755.11
186.76	1722.34
186.98	1787.88
187.20	1728.49
187.42	1724.39
187.64	1730.53
187.86	1656.81
188.08	1716.20
188.30	1632.23
188.52	1640.42
188.75	1802.21
188.97	1783.78
189.19	1636.33
189.41	1724.39
189.63	1710.05
189.85	1638.38
190.07	1597.42
190.29	1570.79
190.51	1675.24
190.73	1656.81
190.95	1787.88
191.17	1791.97
191.39	1662.95
191.61	1769.44
191.84	1740.77
192.06	1699.81
192.28	1591.27
192.50	1886.18
192.72	1691.62
192.94	1722.34
193.16	1820.64
193.38	1720.29
193.60	1642.47
193.82	1662.95
194.04	1828.84
194.26	1787.88
194.48	1742.82
194.70	1722.34
194.92	1667.05
195.14	1738.73
195.36	1665.00
195.58	1753.06
195.80	1689.57
196.02	1636.33
196.24	1652.71
196.46	1779.68
196.69	1632.23
196.91	1816.55
197.13	1714.15
197.35	1615.85
197.57	1859.56
197.79	1746.92
198.01	1744.87
198.23	1710.05
198.45	1763.30
198.67	1660.90
198.89	1722.34
199.11	1712.10
199.33	1644.52
199.55	1640.42
199.77	1677.29
199.99	1710.05
200.21	1689.57
200.43	1658.85
200.65	1693.67
200.87	1624.04
201.09	1685.48
201.31	1691.62
201.53	1791.97
201.75	1748.97
201.97	1691.62
202.19	1617.90
202.41	1753.06
202.63	1853.41
202.85	1771.49
203.07	1677.29
203.29	1722.34
203.51	1705.96
203.73	1658.85
203.95	1933.28
204.17	1662.95
204.39	1746.92
204.61	1744.87
204.83	1705.96
205.05	1673.19
205.27	1734.63
205.49	1800.16
205.71	1675.24
205.93	1640.42
206.15	1671.14
206.37	1724.39
206.59	1658.85
206.81	1662.95
207.03	1640.42
207.25	1640.42
207.47	1703.91
207.69	1681.38
207.91	1753.06
208.13	1822.69
208.34	1638.38
208.56	1658.85
208.78	1734.63
209.00	1636.33
209.22	1619.94
209.44	1757.16
209.66	1728.49
209.88	1646.57
210.10	1681.38
210.32	1742.82
210.54	1744.87
210.76	1710.05
210.98	1746.92
211.20	1607.66
211.42	1775.59
211.64	1757.16
211.86	1769.44
212.08	1761.25
212.30	1689.57
212.52	1748.97
212.74	1722.34
212.96	1712.10
213.17	1771.49
213.39	1726.44
213.61	1806.31
213.83	1742.82
214.05	1609.70
214.27	1728.49
214.49	1687.53
214.71	1742.82
214.93	1763.30
215.15	1665.00
215.37	1765.35
215.59	1574.89
215.81	1746.92
216.03	1695.72
216.24	1781.73
216.46	1759.21
216.68	1773.54
216.90	1669.09
217.12	1689.57
217.34	1693.67
217.56	1714.15
217.78	1746.92
218.00	1773.54
218.22	1683.43
218.44	1730.53
218.66	1685.48
218.87	1859.56
219.09	1705.96
219.31	1794.02
219.53	1689.57
219.75	1697.77
219.97	1662.95
220.19	1703.91
220.41	1669.09
220.63	1798.12
220.85	1734.63
221.06	1691.62
221.28	1728.49
221.50	1791.97
221.72	1669.09
221.94	1722.34
222.16	1693.67
222.38	1806.31
222.60	1724.39
222.82	1673.19
223.03	1730.53
223.25	1695.72
223.47	1718.25
223.69	1828.84
223.91	1802.21
224.13	1742.82
224.35	1609.70
224.57	1746.92
224.78	1755.11
225.00	1675.24
225.22	1734.63
225.44	1601.51
225.66	1714.15
225.88	1656.81
226.10	1695.72
226.32	1738.73
226.53	1841.12
226.75	1759.21
226.97	1738.73
227.19	1755.11
227.41	1681.38
227.63	1638.38
227.85	1673.19
228.06	1748.97
228.28	1679.33
228.50	1796.07
228.72	1632.23
228.94	1714.15
229.16	1656.81
229.37	1644.52
229.59	1548.26
229.81	1810.40
230.03	1665.00
230.25	1605.61
230.47	1693.67
230.69	1732.58
230.90	1816.55
231.12	1665.00
231.34	1701.86
231.56	1746.92
231.78	1628.14
232.00	1787.88
232.21	1738.73
232.43	1708.01
232.65	1638.38
232.87	1744.87
233.09	1638.38
233.30	1687.53
233.52	1783.78
233.74	1736.68
233.96	1732.58
234.18	1751.01
234.40	1695.72
234.61	1720.29
234.83	1671.14
235.05	1636.33
235.27	1843.17
235.49	1667.05
235.70	1777.64
235.92	1757.16
236.14	1705.96
236.36	1908.71
236.58	1658.85
236.79	1820.64
237.01	1730.53
237.23	1726.44
237.45	1841.12
237.67	1644.52
237.88	1708.01
238.10	1814.50
238.32	1650.66
238.54	1732.58
238.76	1658.85
238.97	1632.23
239.19	1746.92
239.41	1687.53
239.63	1781.73
239.85	1689.57
240.06	1703.91
240.28	1615.85
240.50	1804.26
240.72	1705.96
240.93	1654.76
241.15	1755.11
241.37	1667.05
241.59	1814.50
241.81	1777.64
242.02	1671.14
242.24	1837.03
242.46	1697.77
242.68	1726.44
242.89	1828.84
243.11	1818.60
243.33	1708.01
243.55	1742.82
243.76	1755.11
243.98	1652.71
244.20	1679.33
244.42	1677.29
244.64	1681.38
244.85	1695.72
245.07	1697.77
245.29	1773.54
245.51	1714.15
245.72	1767.40
245.94	1779.68
246.16	1665.00
246.38	1777.64
246.59	1673.19
246.81	1687.53
247.03	1685.48
247.24	1632.23
247.46	1728.49
247.68	1789.92
247.90	1714.15
248.11	1650.66
248.33	1775.59
248.55	1638.38
248.77	1716.20
248.98	1757.16
249.20	1859.56
249.42	1722.34
249.64	1701.86
249.85	1662.95
250.07	1705.96
250.29	1744.87
250.50	1767.40
250.72	1617.90
250.94	1789.92
251.16	1771.49
251.37	1804.26
251.59	1691.62
251.81	1742.82
252.02	1927.14
252.24	1648.61
252.46	1812.45
252.68	1699.81
252.89	1695.72
253.11	1656.81
253.33	1781.73
253.54	1787.88
253.76	1632.23
253.98	1701.86
254.20	1738.73
254.41	1669.09
254.63	1736.68
254.85	1634.28
255.06	1697.77
255.28	1771.49
255.50	1779.68
255.71	1660.90
255.93	1640.42
256.15	1665.00
256.36	1708.01
256.58	1748.97
256.80	1714.15
257.02	1710.05
257.23	1646.57
257.45	1656.81
257.67	1683.43
257.88	1660.90
258.10	1648.61
258.32	1744.87
258.53	1722.34
258.75	1800.16
258.97	1626.09
259.18	1703.91
259.40	1832.93
259.62	1763.30
259.83	1785.83
260.05	1767.40
260.27	1992.67
260.48	1730.53
260.70	1740.77
260.92	1683.43
261.13	1712.10
261.35	1697.77
261.57	1742.82
261.78	1558.50
262.00	1644.52
262.22	1710.05
262.43	1632.23
262.65	1708.01
262.86	1761.25
263.08	1849.32
263.30	1697.77
263.51	1687.53
263.73	1738.73
263.95	1759.21
264.16	1695.72
264.38	1617.90
264.60	1789.92
264.81	1703.91
265.03	1789.92
265.25	1675.24
265.46	1710.05
265.68	1669.09
265.89	1740.77
266.11	1624.04
266.33	1769.44
266.54	1757.16
266.76	1734.63
266.98	1755.11
267.19	1751.01
267.41	1738.73
267.62	1652.71
267.84	1626.09
268.06	1828.84
268.27	1689.57
268.49	1800.16
268.70	1781.73
268.92	1701.86
269.14	1671.14
269.35	1646.57
269.57	1779.68
269.79	1769.44
270.00	1728.49
270.22	1791.97
270.43	1726.44
270.65	1603.56
270.87	1771.49
271.08	1759.21
271.30	1769.44
271.51	1796.07
271.73	1765.35
271.95	1787.88
272.16	1728.49
272.38	1718.25
272.59	1640.42
272.81	1714.15
273.02	1755.11
273.24	1779.68
273.46	1669.09
273.67	1560.55
273.89	1654.76
274.10	1621.99
274.32	1767.40
274.54	1757.16
274.75	1701.86
274.97	1642.47
275.18	1757.16
275.40	1703.91
275.61	1726.44
275.83	1714.15
276.05	1658.85
276.26	1748.97
276.48	1773.54
276.69	1673.19
276.91	1699.81
277.12	1712.10
277.34	1787.88
277.55	1804.26
277.77	1751.01
277.99	1740.77
278.20	1689.57
278.42	1624.04
278.63	1718.25
278.85	1738.73
279.06	1722.34
279.28	1738.73
279.49	1714.15
279.71	1787.88
279.93	1701.86
280.14	1769.44
280.36	1705.96
280.57	1718.25
280.79	1751.01
281.00	1603.56
281.22	1773.54
281.43	1808.36
281.65	1624.04
281.86	1667.05
282.08	1800.16
282.29	1812.45
282.51	1603.56
282.73	1619.94
282.94	1677.29
283.16	1746.92
283.37	1802.21
283.59	1683.43
283.80	1687.53
284.02	1685.48
284.23	1759.21
284.45	1781.73
284.66	1724.39
284.88	1701.86
285.09	1640.42
285.31	1722.34
285.52	1771.49
285.74	1683.43
285.95	1789.92
286.17	1767.40
286.38	1759.21
286.60	1685.48
286.81	1667.05
287.03	1755.11
287.24	1728.49
287.46	1767.40
287.67	1695.72
287.89	1832.93
288.10	1748.97
288.32	1732.58
288.53	1857.51
288.75	1714.15
288.96	1734.63
289.18	1660.90
289.39	1755.11
289.61	1746.92
289.82	1802.21
290.04	1837.03
290.25	1685.48
290.47	1728.49
290.68	1687.53
290.90	1796.07
291.11	1658.85
291.33	1783.78
291.54	1665.00
291.76	1656.81
291.97	1732.58
292.18	1779.68
292.40	1757.16
292.61	1714.15
292.83	1824.74
293.04	1746.92
293.26	1638.38
293.47	1767.40
293.69	1695.72
293.90	1697.77
294.12	1824.74
294.33	1730.53
294.55	1742.82
294.76	1828.84
294.97	1767.40
295.19	1837.03
295.40	1703.91
295.62	1695.72
295.83	1751.01
296.05	1656.81
296.26	1755.11
296.48	1652.71
296.69	1769.44
296.90	1599.46
297.12	1789.92
297.33	1806.31
297.55	1755.11
297.76	1800.16
297.98	1720.29
298.19	1767.40
298.41	1718.25
298.62	1701.86
298.83	1781.73
299.05	1691.62
299.26	1710.05
299.48	1652.71
299.69	1740.77
299.90	1812.45
300.12	1759.21
300.33	1683.43
300.55	1734.63
300.76	1716.20
300.98	1662.95
301.19	1751.01
301.40	1667.05
301.62	1751.01
301.83	1763.30
302.05	1671.14
302.26	1763.30
302.47	1769.44
302.69	1593.32
302.90	1697.77
303.12	1619.94
303.33	1818.60
303.54	1773.54
303.76	1665.00
303.97	1742.82
304.19	1783.78
304.40	1621.99
304.61	1708.01
304.83	1832.93
305.04	1751.01
305.26	1708.01
305.47	1744.87
305.68	1697.77
305.90	1632.23
306.11	1769.44
306.33	1619.94
306.54	1728.49
306.75	1691.62
306.97	1646.57
307.18	1673.19
307.39	1701.86
307.61	1791.97
307.82	1673.19
308.04	1730.53
308.25	1720.29
308.46	1748.97
308.68	1783.78
308.89	1722.34
309.10	1810.40
309.32	1736.68
309.53	1695.72
309.74	1763.30
309.96	1677.29
310.17	1818.60
310.39	1779.68
310.60	1724.39
310.81	1691.62
311.03	1703.91
311.24	1751.01
311.45	1771.49
311.67	1853.41
311.88	1785.83
312.09	1732.58
312.31	1681.38
312.52	1607.66
312.73	1751.01
312.95	1658.85
313.16	1718.25
313.37	1865.70
313.59	1726.44
313.80	1759.21
314.01	1789.92
314.23	1648.61
314.44	1632.23
314.65	1595.37
314.87	1697.77
315.08	1736.68
315.29	1656.81
315.51	1648.61
315.72	1613.80
315.93	1828.84
316.15	1781.73
316.36	1720.29
316.57	1734.63
316.79	1765.35
317.00	1662.95
317.21	1742.82
317.43	1667.05
317.64	1714.15
317.85	1718.25
318.07	1722.34
318.28	1775.59
318.49	1744.87
318.70	1875.94
318.92	1806.31
319.13	1828.84
319.34	1726.44
319.56	1832.93
319.77	1771.49
319.98	1808.36
320.20	1740.77
320.41	1765.35
320.62	1753.06
320.83	1644.52
321.05	1814.50
321.26	1783.78
321.47	1597.42
321.69	1789.92
321.90	1755.11
322.11	1675.24
322.32	1738.73
322.54	1826.79
322.75	1697.77
322.96	1759.21
323.18	1681.38
323.39	1566.70
323.60	1732.58
323.81	1791.97
324.03	1665.00
324.24	1665.00
324.45	1736.68
324.66	1763.30
324.88	1816.55
325.09	1804.26
325.30	1662.95
325.52	1763.30
325.73	1703.91
325.94	1605.61
326.15	1667.05
326.37	1673.19
326.58	1791.97
326.79	1791.97
327.00	1615.85
327.22	1742.82
327.43	1656.81
327.64	1730.53
327.85	1779.68
328.07	1775.59
328.28	1734.63
328.49	1687.53
328.70	1734.63
328.92	1628.14
329.13	1701.86
329.34	1755.11
329.55	1834.98
329.76	1701.86
329.98	1716.20
330.19	1738.73
330.40	1877.99
330.61	1767.40
330.83	1740.77
331.04	1697.77
331.25	1681.38
331.46	1728.49
331.68	1693.67
331.89	1728.49
332.10	1744.87
332.31	1654.76
332.52	1732.58
332.74	1867.75
332.95	1566.70
333.16	1687.53
333.37	1767.40
333.58	1669.09
333.80	1689.57
334.01	1658.85
334.22	1658.85
334.43	1687.53
334.64	1699.81
334.86	1640.42
335.07	1669.09
335.28	1828.84
335.49	1665.00
335.70	1744.87
335.92	1769.44
336.13	1845.22
336.34	1746.92
336.55	1660.90
336.76	1736.68
336.98	1556.46
337.19	1759.21
337.40	1869.80
337.61	1839.08
337.82	1685.48
338.04	1796.07
338.25	1656.81
338.46	1703.91
338.67	1617.90
338.88	1665.00
339.09	1583.08
339.31	1640.42
339.52	1740.77
339.73	1644.52
339.94	1689.57
340.15	1771.49
340.36	1589.22
340.58	1765.35
340.79	1705.96
341.00	1705.96
341.21	1665.00
341.42	1744.87
341.63	1679.33
341.85	1783.78
342.06	1765.35
342.27	1669.09
342.48	1783.78
342.69	1693.67
342.90	1763.30
343.12	1814.50
343.33	1673.19
343.54	1744.87
343.75	1818.60
343.96	1681.38
344.17	1660.90
344.38	1669.09
344.60	1617.90
344.81	1658.85
345.02	1732.58
345.23	1746.92
345.44	1865.70
345.65	1736.68
345.86	1740.77
346.07	1724.39
346.29	1660.90
346.50	1728.49
346.71	1755.11
346.92	1820.64
347.13	1888.23
347.34	1685.48
347.55	1718.25
347.76	1851.36
347.98	1665.00
348.19	1689.57
348.40	1779.68
348.61	1636.33
348.82	1771.49
349.03	1767.40
349.24	1662.95
349.45	1806.31
349.66	1621.99
349.88	1697.77
350.09	1701.86
350.30	1767.40
350.51	1808.36
350.72	1753.06
350.93	1777.64
351.14	1671.14
351.35	1726.44
351.56	1703.91
351.77	1794.02
351.99	1730.53
352.20	1828.84
352.41	1755.11
352.62	1570.79
352.83	1658.85
353.04	1722.34
353.25	1640.42
353.46	1773.54
353.67	1732.58
353.88	1632.23
354.09	1763.30
354.30	1675.24
354.52	1716.20
354.73	1720.29
354.94	1658.85
355.15	1722.34
355.36	1773.54
355.57	1683.43
355.78	1669.09
355.99	1703.91
356.20	1751.01
356.41	1859.56
356.62	1689.57
356.83	1652.71
357.04	1818.60
357.25	1613.80
357.46	1630.18
357.68	1572.84
357.89	1648.61
358.10	1705.96
358.31	1658.85
358.52	1763.30
358.73	1763.30
358.94	1599.46
359.15	1673.19
359.36	1871.84
359.57	1687.53
359.78	1751.01
359.99	1761.25
360.20	1697.77
360.41	1630.18
360.62	1744.87
360.83	1742.82
361.04	1765.35
361.25	1677.29
361.46	1937.38
361.67	1708.01
361.88	1763.30
362.09	1763.30
362.30	1703.91
362.51	1726.44
362.72	1652.71
362.93	1757.16
363.14	1714.15
363.35	1742.82
363.56	1640.42
363.78	1753.06
363.99	1773.54
364.20	1669.09
364.41	1738.73
364.62	1857.51
364.83	1724.39
365.04	1697.77
365.25	1705.96
365.46	1873.89
365.67	1734.63
365.88	1615.85
366.09	1742.82
366.30	1679.33
366.51	1681.38
366.72	1654.76
366.93	1740.77
367.14	1638.38
367.35	1812.45
367.56	1697.77
367.77	1826.79
367.98	1765.35
368.18	1660.90
368.39	1695.72
368.60	1699.81
368.81	1683.43
369.02	1679.33
369.23	1718.25
369.44	1613.80
369.65	1716.20
369.86	1738.73
370.07	1753.06
370.28	1677.29
370.49	1759.21
370.70	1728.49
370.91	1679.33
371.12	1615.85
371.33	1765.35
371.54	1779.68
371.75	1753.06
371.96	1587.18
372.17	1722.34
372.38	1720.29
372.59	1775.59
372.80	1681.38
373.01	1601.51
373.22	1732.58
373.43	1816.55
373.64	1648.61
373.85	1746.92
374.06	1800.16
374.26	1708.01
374.47	1789.92
374.68	1785.83
374.89	1695.72
375.10	1689.57
375.31	1800.16
375.52	1728.49
375.73	1728.49
375.94	1650.66
376.15	1810.40
376.36	1691.62
376.57	1658.85
376.78	1697.77
376.99	1751.01
377.20	1712.10
377.40	1738.73
377.61	1857.51
377.82	1712.10
378.03	1806.31
378.24	1626.09
378.45	1757.16
378.66	1718.25
378.87	1634.28
379.08	1658.85
379.29	1708.01
379.50	1744.87
379.71	1705.96
379.91	1808.36
380.12	1699.81
380.33	1685.48
380.54	1718.25
380.75	1650.66
380.96	1710.05
381.17	1759.21
381.38	1771.49
381.59	1712.10
381.80	1650.66
382.00	1806.31
382.21	1732.58
382.42	1882.08
382.63	1867.75
382.84	1794.02
383.05	1832.93
383.26	1855.46
383.47	1761.25
383.68	1771.49
383.88	1763.30
384.09	1828.84
384.30	1798.12
384.51	1751.01
384.72	1712.10
384.93	1675.24
385.14	1695.72
385.35	1779.68
385.55	1644.52
385.76	1804.26
385.97	1683.43
386.18	1734.63
386.39	1648.61
386.60	1703.91
386.81	1779.68
387.02	1634.28
387.22	1619.94
387.43	1802.21
387.64	1808.36
387.85	1826.79
388.06	2207.71
388.27	4315.07
388.48	6670.23
388.68	8247.17
388.89	9586.54
389.10	9817.96
389.31	8540.03
389.52	7661.45
389.73	6635.42
389.93	6231.97
390.14	5842.85
390.35	5263.28
390.56	4638.65
390.77	3653.58
390.98	3055.57
391.18	2545.63
391.39	2183.13
391.60	1812.45
391.81	1888.23
392.02	1755.11
392.23	1892.32
392.43	1738.73
392.64	1820.64
392.85	1697.77
393.06	1851.36
393.27	1757.16
393.47	1705.96
393.68	1812.45
393.89	1726.44
394.10	1751.01
394.31	1683.43
394.52	1673.19
394.72	1665.00
394.93	1812.45
395.14	1697.77
395.35	1667.05
395.56	1677.29
395.76	1677.29
395.97	1699.81
396.18	1888.23
396.39	1812.45
396.60	2052.06
396.80	1949.67
397.01	1865.70
397.22	1816.55
397.43	1894.37
397.64	1787.88
397.84	1839.08
398.05	1892.32
398.26	1753.06
398.47	1732.58
398.67	1826.79
398.88	1636.33
399.09	1746.92
399.30	1642.47
399.51	1705.96
399.71	1705.96
399.92	1705.96
400.13	1710.05
400.34	1751.01
400.54	1748.97
400.75	1775.59
400.96	1697.77
401.17	1742.82
401.37	1730.53
401.58	1759.21
401.79	1726.44
402.00	1810.40
402.21	2017.25
402.41	1976.29
402.62	1982.43
402.83	2072.54
403.04	2039.78
403.24	2082.78
403.45	1824.74
403.66	1855.46
403.87	1845.22
404.07	1832.93
404.28	1970.15
404.49	1847.27
404.70	1753.06
404.90	1787.88
405.11	1798.12
405.32	1812.45
405.52	1675.24
405.73	1705.96
405.94	1677.29
406.15	1703.91
406.35	1705.96
406.56	1724.39
406.77	1738.73
406.98	1732.58
407.18	1673.19
407.39	1781.73
407.60	1734.63
407.80	1828.84
408.01	1759.21
408.22	1751.01
408.43	1720.29
408.63	1724.39
408.84	1716.20
409.05	1824.74
409.25	1740.77
409.46	1730.53
409.67	1697.77
409.88	1677.29
410.08	1726.44
410.29	1673.19
410.50	1773.54
410.70	1722.34
410.91	1583.08
411.12	1755.11
411.32	1722.34
411.53	1683.43
411.74	1755.11
411.95	1826.79
412.15	1787.88
412.36	1748.97
412.57	1880.04
412.77	1851.36
412.98	1748.97
413.19	1693.67
413.39	1757.16
413.60	1775.59
413.81	1865.70
414.01	1677.29
414.22	1769.44
414.43	1789.92
414.63	1699.81
414.84	1769.44
415.05	1718.25
415.25	1648.61
415.46	1746.92
415.67	1658.85
415.87	1736.68
416.08	1740.77
416.29	1763.30
416.49	1757.16
416.70	1693.67
416.91	1679.33
417.11	1705.96
417.32	1820.64
417.53	1697.77
417.73	1779.68
417.94	1736.68
418.15	1734.63
418.35	1673.19
418.56	1720.29
418.77	1830.88
418.97	1751.01
419.18	1703.91
419.38	1644.52
419.59	1714.15
419.80	1773.54
420.00	1665.00
420.21	1751.01
420.42	1826.79
420.62	1695.72
420.83	1621.99
421.04	1736.68
421.24	1718.25
421.45	1728.49
421.65	1748.97
421.86	1718.25
422.07	1777.64
422.27	1734.63
422.48	1740.77
422.69	1601.51
422.89	1693.67
423.10	1693.67
423.30	1648.61
423.51	1767.40
423.72	1806.31
423.92	1855.46
424.13	1523.69
424.33	1738.73
424.54	1779.68
424.75	1722.34
424.95	1814.50
425.16	1658.85
425.36	1673.19
425.57	1769.44
425.78	1650.66
425.98	1843.17
426.19	1677.29
426.39	1679.33
426.60	1695.72
426.81	1869.80
427.01	1656.81
427.22	1722.34
427.42	1591.27
427.63	1648.61
427.83	1769.44
428.04	1814.50
428.25	1828.84
428.45	1781.73
428.66	1763.30
428.86	1687.53
429.07	1757.16
429.28	1730.53
429.48	1679.33
429.69	1740.77
429.89	1732.58
430.10	1636.33
430.30	1808.36
430.51	1714.15
430.71	1630.18
430.92	1710.05
431.13	1742.82
431.33	1839.08
431.54	1724.39
431.74	1830.88
431.95	1816.55
432.15	1714.15
432.36	1705.96
432.56	1779.68
432.77	1841.12
432.98	1843.17
433.18	1753.06
433.39	1677.29
433.59	1699.81
433.80	1832.93
434.00	1873.89
434.21	1708.01
434.41	1669.09
434.62	1910.75
434.82	1722.34
435.03	1630.18
435.23	1734.63
435.44	1654.76
435.64	1714.15
435.85	1763.30
436.06	1726.44
436.26	1783.78
436.47	1648.61
436.67	1681.38
436.88	1710.05
437.08	1732.58
437.29	1740.77
437.49	1697.77
437.70	1742.82
437.90	1716.20
438.11	1884.13
438.31	1728.49
438.52	1892.32
438.72	1841.12
438.93	1839.08
439.13	1853.41
439.34	1837.03
439.54	1757.16
439.75	1837.03
439.95	1853.41
440.16	1763.30
440.36	1687.53
440.57	1800.16
440.77	1724.39
440.98	1751.01
441.18	1714.15
441.39	1683.43
441.59	1734.63
441.80	1808.36
442.00	1701.86
442.21	1771.49
442.41	1632.23
442.62	1849.32
442.82	1732.58
443.02	1740.77
443.23	1734.63
443.43	1716.20
443.64	1785.83
443.84	1689.57
444.05	1820.64
444.25	1726.44
444.46	1742.82
444.66	1783.78
444.87	1849.32
445.07	1624.04
445.28	1703.91
445.48	1820.64
445.69	1662.95
445.89	1900.52
446.09	1816.55
446.30	2039.78
446.50	2656.22
446.71	3737.54
446.91	4364.22
447.12	4712.38
447.32	4845.49
447.53	4364.22
447.73	3901.38
447.93	3567.56
448.14	3229.65
448.34	3139.54
448.55	2938.84
448.75	2809.81
448.96	2682.84
449.16	2375.64
449.36	2179.04
449.57	2025.44
449.77	1898.47
449.98	1834.98
450.18	1863.65
450.39	1820.64
450.59	1767.40
450.79	1814.50
451.00	1722.34
451.20	1728.49
451.41	1753.06
451.61	1718.25
451.81	1753.06
452.02	1695.72
452.22	1718.25
452.43	1701.86
452.63	1640.42
452.84	1787.88
453.04	1669.09
453.24	1732.58
453.45	1722.34
453.65	1683.43
453.86	1712.10
454.06	1726.44
454.26	1773.54
454.47	1652.71
454.67	1777.64
454.87	1822.69
455.08	1751.01
455.28	1804.26
455.49	1751.01
455.69	1695.72
455.89	1855.46
456.10	1843.17
456.30	1662.95
456.51	1767.40
456.71	1740.77
456.91	1808.36
457.12	1814.50
457.32	1736.68
457.52	1677.29
457.73	1802.21
457.93	1828.84
458.14	1671.14
458.34	1646.57
458.54	1746.92
458.75	1703.91
458.95	1794.02
459.15	1689.57
459.36	1800.16
459.56	1730.53
459.76	1796.07
459.97	1714.15
460.17	1689.57
460.37	1794.02
460.58	1708.01
460.78	1744.87
460.99	1751.01
461.19	1751.01
461.39	1777.64
461.60	1722.34
461.80	1824.74
462.00	1650.66
462.21	1798.12
462.41	1722.34
462.61	1697.77
462.82	1642.47
463.02	1744.87
463.22	1718.25
463.43	1828.84
463.63	1726.44
463.83	1929.19
464.04	1820.64
464.24	1767.40
464.44	1757.16
464.64	1773.54
464.85	1808.36
465.05	1806.31
465.25	1763.30
465.46	1701.86
465.66	1742.82
465.86	1714.15
466.07	1722.34
466.27	1681.38
466.47	1646.57
466.68	1662.95
466.88	1818.60
467.08	1814.50
467.29	1757.16
467.49	1767.40
467.69	1740.77
467.89	1724.39
468.10	1763.30
468.30	1765.35
468.50	1818.60
468.71	1824.74
468.91	1624.04
469.11	1802.21
469.31	1773.54
469.52	1712.10
469.72	1865.70
469.92	1808.36
470.13	1720.29
470.33	1775.59
470.53	1841.12
470.73	2205.66
470.94	2328.54
471.14	2359.26
471.34	2607.06
471.54	2416.60
471.75	2191.33
471.95	2111.46
472.15	2133.98
472.36	2088.93
472.56	2127.84
472.76	2074.59
472.96	1992.67
473.17	1976.29
473.37	1851.36
473.57	1773.54
473.77	1845.22
473.98	1769.44
474.18	1705.96
474.38	1875.94
474.58	1787.88
474.79	1765.35
474.99	1755.11
475.19	1791.97
475.39	1642.47
475.60	1654.76
475.80	1755.11
476.00	1828.84
476.20	1615.85
476.41	1703.91
476.61	1767.40
476.81	1779.68
477.01	1703.91
477.21	2000.87
477.42	1785.83
477.62	1634.28
477.82	1824.74
478.02	1726.44
478.23	1693.67
478.43	1648.61
478.63	1753.06
478.83	1697.77
479.03	1734.63
479.24	1748.97
479.44	1873.89
479.64	1701.86
479.84	1660.90
480.04	1683.43
480.25	1781.73
480.45	1734.63
480.65	1638.38
480.85	1724.39
481.06	1730.53
481.26	1689.57
481.46	1781.73
481.66	1767.40
481.86	1685.48
482.06	1814.50
482.27	1714.15
482.47	1726.44
482.67	1736.68
482.87	1779.68
483.07	1802.21
483.28	1728.49
483.48	1791.97
483.68	1671.14
483.88	1662.95
484.08	1665.00
484.29	1654.76
484.49	1728.49
484.69	1632.23
484.89	1828.84
485.09	1771.49
485.29	1767.40
485.50	1740.77
485.70	1667.05
485.90	1851.36
486.10	1773.54
486.30	1771.49
486.50	1734.63
486.71	1779.68
486.91	1791.97
487.11	1806.31
487.31	1615.85
487.51	1802.21
487.71	1701.86
487.91	1630.18
488.12	1685.48
488.32	1677.29
488.52	1720.29
488.72	1611.75
488.92	1746.92
489.12	1818.60
489.32	1759.21
489.53	1769.44
489.73	1640.42
489.93	1861.60
490.13	1617.90
490.33	1673.19
490.53	1767.40
490.73	1771.49
490.94	1656.81
491.14	1822.69
491.34	1914.85
491.54	2160.61
491.74	2617.30
491.94	2875.35
492.14	3059.67
492.34	3059.67
492.54	2789.33
492.75	2437.08
492.95	2457.56
493.15	2363.36
493.35	2275.29
493.55	2312.16
493.75	2133.98
493.95	2234.33
494.15	2039.78
494.35	1882.08
494.56	1880.04
494.76	1820.64
494.96	1837.03
495.16	1837.03
495.36	1791.97
495.56	1701.86
495.76	1765.35
495.96	1722.34
496.16	1753.06
496.36	1845.22
496.56	1726.44
496.77	1722.34
496.97	1701.86
497.17	1818.60
497.37	1654.76
497.57	1748.97
497.77	1755.11
497.97	1685.48
498.17	1748.97
498.37	1738.73
498.57	1746.92
498.77	1701.86
498.97	1845.22
499.17	1894.37
499.38	1718.25
499.58	1785.83
499.78	1765.35
499.98	1812.45
500.18	1683.43
500.38	1703.91
500.58	1951.71
500.78	2510.81
500.98	4612.03
501.18	5900.20
501.38	6616.99
501.58	7114.64
501.78	6580.12
501.98	5558.19
502.18	5015.48
502.38	4423.61
502.58	4128.70
502.78	3764.17
502.98	3606.47
503.18	3516.36
503.38	3098.58
503.59	2910.16
503.79	2672.60
503.99	2486.23
504.19	2301.92
504.39	2136.03
504.59	2189.28
504.79	2095.07
504.99	2035.68
505.19	1996.77
505.39	1882.08
505.59	1961.95
505.79	1959.91
505.99	1853.41
506.19	1806.31
506.39	1923.04
506.59	1722.34
506.79	1757.16
506.99	1802.21
507.19	1677.29
507.39	1767.40
507.59	1697.77
507.79	1697.77
507.99	1722.34
508.19	1746.92
508.39	1683.43
508.59	1689.57
508.79	1798.12
508.99	1841.12
509.19	1689.57
509.39	1812.45
509.59	1736.68
509.79	1742.82
509.99	1794.02
510.19	1734.63
510.39	1785.83
510.59	1701.86
510.79	1755.11
510.99	1665.00
511.19	1722.34
511.39	1810.40
511.59	1822.69
511.79	1806.31
511.99	1734.63
512.19	1845.22
512.38	1734.63
512.58	1742.82
512.78	1744.87
512.98	1853.41
513.18	1787.88
513.38	1691.62
513.58	1802.21
513.78	1718.25
513.98	1773.54
514.18	1755.11
514.38	1708.01
514.58	1697.77
514.78	1736.68
514.98	1712.10
515.18	1736.68
515.38	1746.92
515.58	1869.80
515.78	1763.30
515.98	1789.92
516.18	1712.10
516.38	1767.40
516.57	1675.24
516.77	1800.16
516.97	1761.25
517.17	1683.43
517.37	1640.42
517.57	1787.88
517.77	1748.97
517.97	1654.76
518.17	1710.05
518.37	1708.01
518.57	1746.92
518.77	1642.47
518.97	1802.21
519.16	1787.88
519.36	1851.36
519.56	1740.77
519.76	1771.49
519.96	1742.82
520.16	1906.66
520.36	1728.49
520.56	1808.36
520.76	1710.05
520.96	1724.39
521.16	1806.31
521.35	1855.46
521.55	1824.74
521.75	1757.16
521.95	1656.81
522.15	1691.62
522.35	1689.57
522.55	1710.05
522.75	1740.77
522.95	1705.96
523.14	1687.53
523.34	1724.39
523.54	1685.48
523.74	1814.50
523.94	1810.40
524.14	1703.91
524.34	1660.90
524.54	1763.30
524.73	1798.12
524.93	1798.12
525.13	1744.87
525.33	1658.85
525.53	1894.37
525.73	1734.63
525.93	1853.41
526.13	1718.25
526.32	1640.42
526.52	1781.73
526.72	1796.07
526.92	1720.29
527.12	1748.97
527.32	1632.23
527.52	1783.78
527.71	1773.54
527.91	1775.59
528.11	1716.20
528.31	1734.63
528.51	1656.81
528.71	1765.35
528.90	1728.49
529.10	1802.21
529.30	1769.44
529.50	1628.14
529.70	1708.01
529.90	1718.25
530.09	1748.97
530.29	1708.01
530.49	1691.62
530.69	1849.32
530.89	1783.78
531.09	1839.08
531.28	1736.68
531.48	1771.49
531.68	1763.30
531.88	1705.96
532.08	1832.93
532.28	1716.20
532.47	1724.39
532.67	1742.82
532.87	1826.79
533.07	1726.44
533.27	1724.39
533.46	1800.16
533.66	1765.35
533.86	1710.05
534.06	1710.05
534.26	1779.68
534.45	1685.48
534.65	1757.16
534.85	1775.59
535.05	1763.30
535.25	1755.11
535.44	1693.67
535.64	1810.40
535.84	1773.54
536.04	1755.11
536.24	1675.24
536.43	1734.63
536.63	1773.54
536.83	1710.05
537.03	1732.58
537.22	1673.19
537.42	1583.08
537.62	1759.21
537.82	1744.87
538.02	1828.84
538.21	1734.63
538.41	1806.31
538.61	1730.53
538.81	1775.59
539.00	1773.54
539.20	1665.00
539.40	1736.68
539.60	1767.40
539.79	1785.83
539.99	1744.87
540.19	1648.61
540.39	1802.21
540.58	1746.92
540.78	1753.06
540.98	1767.40
541.18	1771.49
541.37	1789.92
541.57	1748.97
541.77	1757.16
541.97	1675.24
542.16	1665.00
542.36	1728.49
542.56	1794.02
542.76	1888.23
542.95	1798.12
543.15	1806.31
543.35	1787.88
543.54	1689.57
543.74	1757.16
543.94	1908.71
544.14	1650.66
544.33	1796.07
544.53	1767.40
544.73	1705.96
544.93	1724.39
545.12	1753.06
545.32	1798.12
545.52	1748.97
545.71	1699.81
545.91	1632.23
546.11	1705.96
546.30	1703.91
546.50	1742.82
546.70	1808.36
546.90	1705.96
547.09	1621.99
547.29	1632.23
547.49	1822.69
547.68	1787.88
547.88	1654.76
548.08	1771.49
548.27	2217.95
548.47	1724.39
548.67	1693.67
548.87	1820.64
549.06	1755.11
549.26	1816.55
549.46	1814.50
549.65	1683.43
549.85	1712.10
550.05	1789.92
550.24	1687.53
550.44	1748.97
550.64	1787.88
550.83	1771.49
551.03	1818.60
551.23	1794.02
551.42	1789.92
551.62	1726.44
551.82	1761.25
552.01	1748.97
552.21	1810.40
552.41	1759.21
552.60	1767.40
552.80	1728.49
553.00	1669.09
553.19	1665.00
553.39	1873.89
553.59	1712.10
553.78	1759.21
553.98	1765.35
554.17	1718.25
554.37	1742.82
554.57	1812.45
554.76	1759.21
554.96	1675.24
555.16	1755.11
555.35	1777.64
555.55	1798.12
555.75	1785.83
555.94	1759.21
556.14	1638.38
556.33	1753.06
556.53	1726.44
556.73	1787.88
556.92	1763.30
557.12	1789.92
557.32	1789.92
557.51	1832.93
557.71	1787.88
557.90	1830.88
558.10	1757.16
558.30	1732.58
558.49	1726.44
558.69	1765.35
558.88	1806.31
559.08	1728.49
559.28	1757.16
559.47	1724.39
559.67	1777.64
559.86	1857.51
560.06	1857.51
560.26	1675.24
560.45	1767.40
560.65	1708.01
560.84	1818.60
561.04	1736.68
561.24	1791.97
561.43	1771.49
561.63	1908.71
561.82	1763.30
562.02	1714.15
562.22	1761.25
562.41	1710.05
562.61	1740.77
562.80	1761.25
563.00	1908.71
563.19	1834.98
563.39	1751.01
563.59	1822.69
563.78	1724.39
563.98	1654.76
564.17	1724.39
564.37	1617.90
564.56	1783.78
564.76	1710.05
564.96	1761.25
565.15	1855.46
565.35	1828.84
565.54	1687.53
565.74	1804.26
565.93	1763.30
566.13	1787.88
566.32	1767.40
566.52	1730.53
566.71	1794.02
566.91	1753.06
567.11	1746.92
567.30	1742.82
567.50	1865.70
567.69	1767.40
567.89	1804.26
568.08	1701.86
568.28	1767.40
568.47	1703.91
568.67	1734.63
568.86	1665.00
569.06	1828.84
569.25	1736.68
569.45	1671.14
569.64	1787.88
569.84	1720.29
570.04	1773.54
570.23	1650.66
570.43	1730.53
570.62	1677.29
570.82	1855.46
571.01	1710.05
571.21	1736.68
571.40	1671.14
571.60	1759.21
571.79	1832.93
571.99	1824.74
572.18	1685.48
572.38	1738.73
572.57	1701.86
572.77	1853.41
572.96	1884.13
573.16	1779.68
573.35	1701.86
573.55	1820.64
573.74	1763.30
573.94	1710.05
574.13	1802.21
574.33	1800.16
574.52	1783.78
574.71	1738.73
574.91	1748.97
575.10	1759.21
575.30	1759.21
575.49	1718.25
575.69	1761.25
575.88	1798.12
576.08	1720.29
576.27	1806.31
576.47	1746.92
576.66	1918.95
576.86	1816.55
577.05	1789.92
577.25	1779.68
577.44	1959.91
577.64	1787.88
577.83	1822.69
578.02	1701.86
578.22	1880.04
578.41	1810.40
578.61	1708.01
578.80	1759.21
579.00	1787.88
579.19	1767.40
579.39	1783.78
579.58	1859.56
579.77	1787.88
579.97	1767.40
580.16	1818.60
580.36	1785.83
580.55	1849.32
580.75	1783.78
580.94	1769.44
581.13	1806.31
581.33	1849.32
581.52	1753.06
581.72	1947.62
581.91	1837.03
582.11	1730.53
582.30	1757.16
582.49	1787.88
582.69	1843.17
582.88	1789.92
583.08	1761.25
583.27	1808.36
583.47	1703.91
583.66	1806.31
583.85	1681.38
584.05	1755.11
584.24	1818.60
584.44	1761.25
584.63	1847.27
584.82	1777.64
585.02	1898.47
585.21	1863.65
585.41	1814.50
585.60	1769.44
585.79	1918.95
585.99	1949.67
586.18	1873.89
586.37	2256.86
586.57	3381.20
586.76	9832.30
586.96	24307.34
587.15	34276.85
587.34	39996.83
587.54	41835.91
587.73	36113.88
587.93	26338.93
588.12	21374.65
588.31	18339.56
588.51	16330.50
588.70	15251.22
588.89	13809.45
589.09	12455.75
589.28	11083.61
589.47	9283.44
589.67	7856.01
589.86	6285.22
590.06	4868.02
590.25	3954.63
590.44	3092.43
590.64	2621.40
590.83	2328.54
591.02	2099.17
591.22	1978.34
591.41	2011.11
591.60	1787.88
591.80	1949.67
591.99	1746.92
592.18	1796.07
592.38	1933.28
592.57	1730.53
592.76	1757.16
592.96	1755.11
593.15	1751.01
593.34	1837.03
593.54	1742.82
593.73	1789.92
593.92	1755.11
594.12	1751.01
594.31	1794.02
594.50	1816.55
594.70	1841.12
594.89	1877.99
595.08	1636.33
595.28	1877.99
595.47	1943.52
595.66	1796.07
595.86	1746.92
596.05	1699.81
596.24	1753.06
596.43	1877.99
596.63	1810.40
596.82	1695.72
597.01	1783.78
597.21	1771.49
597.40	1773.54
597.59	1843.17
597.79	1693.67
597.98	1851.36
598.17	1769.44
598.36	1742.82
598.56	1767.40
598.75	1767.40
598.94	1708.01
599.14	1822.69
599.33	1671.14
599.52	1787.88
599.71	1746.92
599.91	1853.41
600.10	1808.36
600.29	1748.97
600.48	1771.49
600.68	1796.07
600.87	1818.60
601.06	1677.29
601.26	1730.53
601.45	1775.59
601.64	1769.44
601.83	1765.35
602.03	1703.91
602.22	1693.67
602.41	1828.84
602.60	1882.08
602.80	1820.64
602.99	1783.78
603.18	1718.25
603.37	1781.73
603.57	1783.78
603.76	1789.92
603.95	1806.31
604.14	1751.01
604.34	1677.29
604.53	1732.58
604.72	1763.30
604.91	1826.79
605.10	1722.34
605.30	1685.48
605.49	1857.51
605.68	1798.12
605.87	1787.88
606.07	1665.00
606.26	1742.82
606.45	1804.26
606.64	1781.73
606.84	1751.01
607.03	1679.33
607.22	1849.32
607.41	1697.77
607.60	1708.01
607.80	1857.51
607.99	1718.25
608.18	1632.23
608.37	1697.77
608.56	1726.44
608.76	1748.97
608.95	1785.83
609.14	1708.01
609.33	1800.16
609.52	1716.20
609.72	1665.00
609.91	1724.39
610.10	1718.25
610.29	1845.22
610.48	1775.59
610.68	1771.49
610.87	1662.95
611.06	1757.16
611.25	1814.50
611.44	1794.02
611.63	1654.76
611.83	1802.21
612.02	1673.19
612.21	1808.36
612.40	1658.85
612.59	1693.67
612.79	1730.53
612.98	1679.33
613.17	1877.99
613.36	1769.44
613.55	1755.11
613.74	1720.29
613.93	1755.11
614.13	1812.45
614.32	1789.92
614.51	1773.54
614.70	1726.44
614.89	1738.73
615.08	1787.88
615.28	2019.30
615.47	1617.90
615.66	1718.25
615.85	1705.96
616.04	1851.36
616.23	1783.78
616.42	1757.16
616.62	1712.10
616.81	1869.80
617.00	1734.63
617.19	1794.02
617.38	1791.97
617.57	1751.01
617.76	1728.49
617.95	1828.84
618.15	1777.64
618.34	1804.26
618.53	1728.49
618.72	1767.40
618.91	1820.64
619.10	1804.26
619.29	1765.35
619.48	1701.86
619.68	1691.62
619.87	1734.63
620.06	1665.00
620.25	1730.53
620.44	1742.82
620.63	1677.29
620.82	1789.92
621.01	1759.21
621.20	1771.49
621.39	1726.44
621.59	1806.31
621.78	1722.34
621.97	1710.05
622.16	1777.64
622.35	1771.49
622.54	1769.44
622.73	1767.40
622.92	1679.33
623.11	1769.44
623.30	1693.67
623.49	1794.02
623.68	1755.11
623.88	1779.68
624.07	1748.97
624.26	1751.01
624.45	1669.09
624.64	1736.68
624.83	1767.40
625.02	1806.31
625.21	1740.77
625.40	1724.39
625.59	1742.82
625.78	1759.21
625.97	1755.11
626.16	1767.40
626.35	1642.47
626.54	1763.30
626.74	1832.93
626.93	1765.35
627.12	1744.87
627.31	1826.79
627.50	1775.59
627.69	1767.40
627.88	1677.29
628.07	1824.74
628.26	1632.23
628.45	1728.49
628.64	1671.14
628.83	1730.53
629.02	1667.05
629.21	1765.35
629.40	1796.07
629.59	1662.95
629.78	1695.72
629.97	1800.16
630.16	1730.53
630.35	1767.40
630.54	1751.01
630.73	1695.72
630.92	1804.26
631.11	1646.57
631.30	1781.73
631.49	1837.03
631.68	1755.11
631.87	1769.44
632.06	1683.43
632.25	1849.32
632.44	1794.02
632.63	1712.10
632.82	1708.01
633.01	1693.67
633.20	1732.58
633.39	1708.01
633.58	1636.33
633.77	1701.86
633.96	1742.82
634.15	1746.92
634.34	1804.26
634.53	1683.43
634.72	1679.33
634.91	1609.70
635.10	1699.81
635.29	1755.11
635.48	1773.54
635.67	1765.35
635.86	1621.99
636.05	1763.30
636.24	1724.39
636.43	1839.08
636.62	1742.82
636.81	1566.70
637.00	1722.34
637.19	1763.30
637.38	1744.87
637.57	1681.38
637.76	1677.29
637.95	1781.73
638.14	1748.97
638.33	1693.67
638.52	1628.14
638.71	1652.71
638.89	1624.04
639.08	1824.74
639.27	1757.16
639.46	1648.61
639.65	1839.08
639.84	1789.92
640.03	1777.64
640.22	1656.81
640.41	1779.68
640.60	1722.34
640.79	1855.46
640.98	1753.06
641.17	1830.88
641.36	1773.54
641.55	1783.78
641.74	1640.42
641.92	1685.48
642.11	1695.72
642.30	1701.86
642.49	1714.15
642.68	1599.46
642.87	1687.53
643.06	1759.21
643.25	1710.05
643.44	1656.81
643.63	1708.01
643.82	1826.79
644.00	1718.25
644.19	1710.05
644.38	1599.46
644.57	1779.68
644.76	1775.59
644.95	1765.35
645.14	1716.20
645.33	1767.40
645.52	1773.54
645.71	1710.05
645.89	1708.01
646.08	1751.01
646.27	1714.15
646.46	1787.88
646.65	1597.42
646.84	1683.43
647.03	1763.30
647.22	1771.49
647.40	1728.49
647.59	1740.77
647.78	1689.57
647.97	1710.05
648.16	1634.28
648.35	1769.44
648.54	1781.73
648.73	1767.40
648.91	1841.12
649.10	1791.97
649.29	1757.16
649.48	1755.11
649.67	1716.20
649.86	1755.11
650.05	1759.21
650.23	1775.59
650.42	1697.77
650.61	1746.92
650.80	1730.53
650.99	1796.07
651.18	1767.40
651.36	1800.16
651.55	1722.34
651.74	1767.40
651.93	1658.85
652.12	1615.85
652.31	1673.19
652.49	1681.38
652.68	1667.05
652.87	1714.15
653.06	1720.29
653.25	1849.32
653.44	1755.11
653.62	1837.03
653.81	1726.44
654.00	1787.88
654.19	1724.39
654.38	1898.47
654.56	1744.87
654.75	1775.59
654.94	1800.16
655.13	1697.77
655.32	1662.95
655.51	1767.40
655.69	1656.81
655.88	1812.45
656.07	1728.49
656.26	1787.88
656.45	1683.43
656.63	1746.92
656.82	1753.06
657.01	1734.63
657.20	1685.48
657.38	1798.12
657.57	1654.76
657.76	1724.39
657.95	1785.83
658.14	1724.39
658.32	1734.63
658.51	1689.57
658.70	1800.16
658.89	1773.54
659.08	1724.39
659.26	1734.63
659.45	1660.90
659.64	1775.59
659.83	1644.52
660.01	1931.23
660.20	1740.77
660.39	1849.32
660.58	1581.03
660.76	1738.73
660.95	1607.66
661.14	1816.55
661.33	1626.09
661.51	1710.05
661.70	1781.73
661.89	1695.72
662.08	1669.09
662.26	1658.85
662.45	1734.63
662.64	1773.54
662.83	1812.45
663.01	1671.14
663.20	1671.14
663.39	1759.21
663.58	1671.14
663.76	1726.44
663.95	1816.55
664.14	1685.48
664.32	1720.29
664.51	1683.43
664.70	1667.05
664.89	1720.29
665.07	1689.57
665.26	1732.58
665.45	1654.76
665.64	1779.68
665.82	1751.01
666.01	1791.97
666.20	1724.39
666.38	1775.59
666.57	1775.59
666.76	2248.67
666.95	4442.04
667.13	10504.03
667.32	15304.47
667.51	17837.81
667.69	18824.93
667.88	17622.77
668.07	12433.22
668.25	9549.68
668.44	8126.34
668.63	7393.17
668.81	6864.79
669.00	6360.99
669.19	5687.21
669.38	5087.15
669.56	4585.40
669.75	3930.05
669.94	3426.25
670.12	2893.78
670.31	2516.95
670.50	2263.01
670.68	2054.11
670.87	1841.12
671.06	1900.52
671.24	1789.92
671.43	1826.79
671.62	1777.64
671.80	1728.49
671.99	1763.30
672.18	1708.01
672.36	1818.60
672.55	1689.57
672.74	1765.35
672.92	1744.87
673.11	1755.11
673.29	1673.19
673.48	1753.06
673.67	1722.34
673.85	1804.26
674.04	1691.62
674.23	1767.40
674.41	1845.22
674.60	1667.05
674.79	1632.23
674.97	1726.44
675.16	1775.59
675.34	1730.53
675.53	1724.39
675.72	1712.10
675.90	1855.46
676.09	1722.34
676.28	1708.01
676.46	1654.76
676.65	1767.40
676.83	1640.42
677.02	1726.44
677.21	1677.29
677.39	1740.77
677.58	1708.01
677.77	1636.33
677.95	1705.96
678.14	1675.24
678.32	1736.68
678.51	1654.76
678.70	1796.07
678.88	1673.19
679.07	1804.26
679.25	1767.40
679.44	1779.68
679.63	1683.43
679.81	1681.38
680.00	1816.55
680.18	1789.92
680.37	1742.82
680.55	1703.91
680.74	1632.23
680.93	1689.57
681.11	1746.92
681.30	1783.78
681.48	1710.05
681.67	1732.58
681.85	1751.01
682.04	1691.62
682.23	1746.92
682.41	1755.11
682.60	1677.29
682.78	1701.86
682.97	1656.81
683.15	1759.21
683.34	1759.21
683.53	1759.21
683.71	1718.25
683.90	1820.64
684.08	1834.98
684.27	1751.01
684.45	1765.35
684.64	1855.46
684.82	1720.29
685.01	1738.73
685.19	1738.73
685.38	1789.92
685.57	1748.97
685.75	1601.51
685.94	1615.85
686.12	1675.24
686.31	1677.29
686.49	1755.11
686.68	1560.55
686.86	1789.92
687.05	1732.58
687.23	1837.03
687.42	1640.42
687.60	1658.85
687.79	1796.07
687.97	1794.02
688.16	1818.60
688.34	1697.77
688.53	1662.95
688.71	1691.62
688.90	1841.12
689.08	1722.34
689.27	1691.62
689.45	1771.49
689.64	1728.49
689.82	1705.96
690.01	1701.86
690.19	1804.26
690.38	1679.33
690.56	1818.60
690.75	1669.09
690.93	1708.01
691.12	1667.05
691.30	1710.05
691.49	1683.43
691.67	1738.73
691.86	1814.50
692.04	1728.49
692.23	1693.67
692.41	1673.19
692.60	1843.17
692.78	1820.64
692.97	1712.10
693.15	1697.77
693.34	1839.08
693.52	1738.73
693.71	1689.57
693.89	1697.77
694.08	1638.38
694.26	1755.11
694.44	1789.92
694.63	1771.49
694.81	1675.24
695.00	1718.25
695.18	1761.25
695.37	1927.14
695.55	1687.53
695.74	1699.81
695.92	1693.67
696.10	1718.25
696.29	1640.42
696.47	1650.66
696.66	1689.57
696.84	1652.71
697.03	1716.20
697.21	1845.22
697.40	2283.49
697.58	1847.27
697.76	1644.52
697.95	1714.15
698.13	1699.81
698.32	1685.48
698.50	1691.62
698.68	1748.97
698.87	1791.97
699.05	1794.02
699.24	1736.68
699.42	1689.57
699.61	1734.63
699.79	1738.73
699.97	1771.49
700.16	1718.25
700.34	1644.52
700.53	1779.68
700.71	1773.54
700.89	1744.87
701.08	1722.34
701.26	1689.57
701.45	2111.46
701.63	1656.81
701.81	1722.34
702.00	1728.49
702.18	1701.86
702.37	1673.19
702.55	1722.34
702.73	1640.42
702.92	1617.90
703.10	1789.92
703.28	1708.01
703.47	1681.38
703.65	1671.14
703.84	1814.50
704.02	1693.67
704.20	1730.53
704.39	1665.00
704.57	1683.43
704.75	1697.77
704.94	1818.60
705.12	1726.44
705.30	1806.31
705.49	2330.59
705.67	4333.50
705.86	9236.34
706.04	12525.38
706.22	14384.93
706.41	15281.94
706.59	13653.81
706.77	9555.82
706.96	7341.97
707.14	6602.65
707.32	5932.97
707.51	5523.37
707.69	4886.45
707.87	4208.58
708.06	3377.10
708.24	2971.60
708.42	2519.00
708.61	2230.24
708.79	1896.42
708.97	1847.27
709.16	1859.56
709.34	1732.58
709.52	1742.82
709.71	1734.63
709.89	1806.31
710.07	1691.62
710.26	1673.19
710.44	1656.81
710.62	1775.59
710.80	1695.72
710.99	1781.73
711.17	1773.54
711.35	1691.62
711.54	1738.73
711.72	1751.01
711.90	1798.12
712.09	1693.67
712.27	1673.19
712.45	1804.26
712.63	1669.09
712.82	1728.49
713.00	1722.34
713.18	1757.16
713.37	1869.80
713.55	1806.31
713.73	1730.53
713.91	1820.64
714.10	1718.25
714.28	1769.44
714.46	1777.64
714.65	1722.34
714.83	1787.88
715.01	1720.29
715.19	1759.21
715.38	1646.57
715.56	1849.32
715.74	1705.96
715.92	1574.89
716.11	1855.46
716.29	1650.66
716.47	1726.44
716.65	1685.48
716.84	1593.32
717.02	1757.16
717.20	1665.00
717.38	1714.15
717.57	1783.78
717.75	1726.44
717.93	1656.81
718.11	1671.14
718.30	1695.72
718.48	1644.52
718.66	1724.39
718.84	1796.07
719.03	1763.30
719.21	1658.85
719.39	1859.56
719.57	1687.53
719.75	1773.54
719.94	1681.38
720.12	1681.38
720.30	1718.25
720.48	1814.50
720.67	1667.05
720.85	1671.14
721.03	1718.25
721.21	1701.86
721.39	1824.74
721.58	1744.87
721.76	1740.77
721.94	1775.59
722.12	1781.73
722.30	1804.26
722.49	1638.38
722.67	1748.97
722.85	1740.77
723.03	1640.42
723.21	1646.57
723.40	1753.06
723.58	1775.59
723.76	1798.12
723.94	1808.36
724.12	1755.11
724.30	1783.78
724.49	1785.83
724.67	1640.42
724.85	1794.02
725.03	1587.18
725.21	1783.78
725.40	1753.06
725.58	1689.57
725.76	1832.93
725.94	1777.64
726.12	1667.05
726.30	1708.01
726.49	1687.53
726.67	1609.70
726.85	1787.88
727.03	1804.26
727.21	2226.14
727.39	2981.84
727.57	3753.93
727.76	4204.48
727.94	4495.29
728.12	4362.17
728.30	3659.72
728.48	2949.08
728.66	2797.53
728.84	2547.67
729.03	2328.54
729.21	2181.09
729.39	1937.38
729.57	1826.79
729.75	1837.03
729.93	1841.12
730.11	1740.77
730.30	1767.40
730.48	1683.43
730.66	1791.97
730.84	1761.25
731.02	1769.44
731.20	1650.66
731.38	1771.49
731.56	1736.68
731.74	1599.46
731.93	1769.44
732.11	1705.96
732.29	1662.95
732.47	1730.53
732.65	1759.21
732.83	1898.47
733.01	1695.72
733.19	1730.53
733.37	1794.02
733.56	1648.61
733.74	1671.14
733.92	1734.63
734.10	1683.43
734.28	1775.59
734.46	1593.32
734.64	1583.08
734.82	1691.62
735.00	1701.86
735.18	1718.25
735.36	1710.05
735.54	1718.25
735.73	1693.67
735.91	1763.30
736.09	1746.92
736.27	1759.21
736.45	1783.78
736.63	1615.85
736.81	1685.48
736.99	1744.87
737.17	1814.50
737.35	1726.44
737.53	1753.06
737.71	1742.82
737.89	1755.11
738.07	1685.48
738.25	1675.24
738.43	1665.00
738.61	1775.59
738.80	1632.23
738.98	1665.00
739.16	1583.08
739.34	1607.66
739.52	1812.45
739.70	1667.05
739.88	1705.96
740.06	1728.49
740.24	1617.90
740.42	1753.06
740.60	1632.23
740.78	1667.05
740.96	1642.47
741.14	1675.24
741.32	1757.16
741.50	1669.09
741.68	1837.03
741.86	1802.21
742.04	1701.86
742.22	1695.72
742.40	1753.06
742.58	1650.66
742.76	1703.91
742.94	1722.34
743.12	1562.60
743.30	1712.10
743.48	1611.75
743.66	1730.53
743.84	1675.24
744.02	1738.73
744.20	1708.01
744.38	1595.37
744.56	1681.38
744.74	1746.92
744.92	1718.25
745.10	1873.89
745.28	1632.23
745.46	1806.31
745.64	1703.91
745.82	1746.92
746.00	1779.68
746.18	1738.73
746.36	1667.05
746.54	1697.77
746.72	1677.29
746.90	1691.62
747.08	1740.77
747.26	1687.53
747.44	1808.36
747.62	1722.34
747.80	1734.63
747.98	1751.01
748.15	1671.14
748.33	1789.92
748.51	1679.33
748.69	1785.83
748.87	1636.33
749.05	1757.16
749.23	1677.29
749.41	1744.87
749.59	1685.48
749.77	1804.26
749.95	1742.82
750.13	1677.29
750.31	1734.63
750.49	1724.39
750.67	1736.68
750.85	1751.01
751.03	1695.72
751.20	1832.93
751.38	1728.49
751.56	1716.20
751.74	1667.05
751.92	1683.43
752.10	1597.42
752.28	1755.11
752.46	1644.52
752.64	1730.53
752.82	1646.57
753.00	1847.27
753.18	1738.73
753.35	1681.38
753.53	1728.49
753.71	1650.66
753.89	1742.82
754.07	1753.06
754.25	1738.73
754.43	1726.44
754.61	1617.90
754.79	1787.88
754.97	1628.14
755.14	1753.06
755.32	1636.33
755.50	1677.29
755.68	1763.30
755.86	1654.76
756.04	1669.09
756.22	1636.33
756.40	1828.84
756.57	1810.40
756.75	1708.01
756.93	1794.02
757.11	1789.92
757.29	1697.77
757.47	1654.76
757.65	1660.90
757.82	1652.71
758.00	1691.62
758.18	1673.19
758.36	1650.66
758.54	1841.12
758.72	1628.14
758.90	1759.21
759.07	1701.86
759.25	1669.09
759.43	1814.50
759.61	1654.76
759.79	2213.85
759.97	1740.77
760.15	1808.36
760.32	1697.77
760.50	1763.30
760.68	1789.92
760.86	1630.18
761.04	1804.26
761.22	1734.63
761.39	1738.73
761.57	1742.82
761.75	1705.96
761.93	1798.12
762.11	1679.33
762.28	1718.25
762.46	1632.23
762.64	1724.39
762.82	1630.18
763.00	1695.72
763.18	1740.77
763.35	1613.80
763.53	1697.77
763.71	1667.05
763.89	1714.15
764.07	1687.53
764.24	1658.85
764.42	1740.77
764.60	1718.25
764.78	1771.49
764.96	1775.59
765.13	1804.26
765.31	1724.39
765.49	1773.54
765.67	1683.43
765.84	1677.29
766.02	1744.87
766.20	1628.14
766.38	1624.04
766.56	1691.62
766.73	1714.15
766.91	1699.81
767.09	1701.86
767.27	1757.16
767.44	1699.81
767.62	1759.21
767.80	1714.15
767.98	1658.85
768.15	1644.52
768.33	1744.87
768.51	1742.82
768.69	1734.63
768.87	1755.11
769.04	1681.38
769.22	1914.85
769.40	1791.97
769.58	1873.89
769.75	1685.48
769.93	1824.74
770.11	1718.25
770.28	1677.29
770.46	1751.01
770.64	1742.82
770.82	1691.62
770.99	1734.63
771.17	1753.06
771.35	1695.72
771.53	1714.15
771.70	1738.73
771.88	1714.15
772.06	1673.19
772.23	1714.15
772.41	1783.78
772.59	1679.33
772.77	1626.09
772.94	1812.45
773.12	1740.77
773.30	1689.57
773.47	1652.71
773.65	1732.58
773.83	1796.07
774.01	1650.66
774.18	1621.99
774.36	1710.05
774.54	1646.57
774.71	1712.10
774.89	1615.85
775.07	1652.71
775.24	1757.16
775.42	1701.86
775.60	1814.50
775.78	1775.59
775.95	1587.18
776.13	1644.52
776.31	1601.51
776.48	1652.71
776.66	1802.21
776.84	1820.64
777.01	1677.29
777.19	1605.61
777.37	1699.81
777.54	1761.25
777.72	1869.80
777.90	1705.96
778.07	1667.05
778.25	1910.75
778.43	1742.82
778.60	1734.63
778.78	1802.21
778.96	1710.05
779.13	1628.14
779.31	1744.87
779.49	1730.53
779.66	1763.30
779.84	1611.75
780.01	1691.62
780.19	1675.24
780.37	1814.50
780.54	1679.33
780.72	1718.25
780.90	1742.82
781.07	1701.86
781.25	1708.01
781.43	1736.68
781.60	1677.29
781.78	1804.26
781.95	1701.86
782.13	1771.49
782.31	1720.29
782.48	1576.94
782.66	1794.02
782.83	1828.84
783.01	1736.68
783.19	1730.53
783.36	1726.44
783.54	1658.85
783.72	1693.67
783.89	1671.14
784.07	1742.82
784.24	1738.73
784.42	1861.60
784.60	1736.68
784.77	1726.44
784.95	1671.14
785.12	1685.48
785.30	1710.05
785.47	1648.61
785.65	1626.09
785.83	1669.09
786.00	1632.23
786.18	1697.77
786.35	1685.48
786.53	1679.33
786.71	1738.73
786.88	1720.29
787.06	1759.21
787.23	1771.49
787.41	1685.48
787.58	1673.19
787.76	1716.20
787.94	1771.49
788.11	1705.96
788.29	1681.38
788.46	1615.85
788.64	1644.52
788.81	1708.01
788.99	1652.71
789.16	1617.90
789.34	1734.63
789.52	1597.42
789.69	1742.82
789.87	1628.14
790.04	1716.20
790.22	1697.77
790.39	1812.45
790.57	1656.81
790.74	1718.25
790.92	1755.11
791.09	1652.71
791.27	1691.62
791.44	1724.39
791.62	1724.39
791.79	1734.63
791.97	1710.05
792.15	1871.84
792.32	1695.72
792.50	1751.01
792.67	1716.20
792.85	1865.70
793.02	1712.10
793.20	1638.38
793.37	1673.19
793.55	1736.68
793.72	1685.48
793.90	1746.92
794.07	1626.09
794.25	1656.81
794.42	1771.49
794.60	1740.77
794.77	1775.59
794.95	1769.44
795.12	1787.88
795.30	1628.14
795.47	1615.85
795.65	1894.37
795.82	1730.53
796.00	1683.43
796.17	1716.20
796.34	1722.34
796.52	1726.44
796.69	1787.88
796.87	1830.88
797.04	1767.40
797.22	1730.53
797.39	1744.87
797.57	1718.25
797.74	1744.87
797.92	1755.11
798.09	1656.81
798.27	1841.12
798.44	1714.15
798.62	1658.85
798.79	1796.07
798.96	1679.33
799.14	1675.24
799.31	1839.08
799.49	1730.53
799.66	1634.28
799.84	1734.63
800.01	1624.04
800.19	1730.53
800.36	1642.47
800.53	1740.77
800.71	1718.25
800.88	1812.45
801.06	1636.33
801.23	1683.43
801.41	1642.47
801.58	1652.71
801.75	1626.09
801.93	1734.63
802.10	1705.96
802.28	1705.96
802.45	1605.61
802.63	1791.97
802.80	1734.63
802.97	1705.96
803.15	1722.34
803.32	1667.05
803.50	1667.05
803.67	1648.61
803.84	1595.37
804.02	1722.34
804.19	1687.53
804.37	1568.74
804.54	1644.52
804.71	1673.19
804.89	1714.15
805.06	1695.72
805.24	1677.29
805.41	1673.19
805.58	1718.25
805.76	1755.11
805.93	1693.67
806.10	1757.16
806.28	1726.44
806.45	1693.67
806.63	1644.52
806.80	1767.40
806.97	1716.20
807.15	1746.92
807.32	1726.44
807.49	1671.14
807.67	1679.33
807.84	1736.68
808.01	1673.19
808.19	1837.03
808.36	1841.12
808.54	1679.33
808.71	1650.66
808.88	1787.88
809.06	1650.66
809.23	1779.68
809.40	1697.77
809.58	1740.77
809.75	1658.85
809.92	1712.10
810.10	1824.74
810.27	1777.64
810.44	1761.25
810.62	1738.73
810.79	1701.86
810.96	1718.25
811.14	1714.15
811.31	1734.63
811.48	1683.43
811.66	1671.14
811.83	1781.73
812.00	1677.29
812.18	1726.44
812.35	1822.69
812.52	1679.33
812.69	1652.71
812.87	1705.96
813.04	1730.53
813.21	1705.96
813.39	1652.71
813.56	1619.94
813.73	1771.49
813.91	1621.99
814.08	1705.96
814.25	1724.39
814.42	1673.19
814.60	1775.59
814.77	1724.39
814.94	1673.19
815.12	1689.57
815.29	1771.49
815.46	1691.62
815.63	1744.87
815.81	1714.15
815.98	1640.42
816.15	1648.61
816.33	1705.96
816.50	1732.58
816.67	1722.34
816.84	1683.43
817.02	1640.42
817.19	1665.00
817.36	1757.16
817.53	1732.58
817.71	1656.81
817.88	1714.15
818.05	1710.05
818.22	1677.29
818.40	1761.25
818.57	1632.23
818.74	1753.06
818.91	1787.88
819.09	1769.44
819.26	1759.21
819.43	1615.85
819.60	1660.90
819.78	1736.68
819.95	1791.97
820.12	1677.29
820.29	1740.77
820.47	1767.40
820.64	1634.28
820.81	1636.33
820.98	1667.05
821.15	1699.81
821.33	1667.05
821.50	1624.04
821.67	1722.34
821.84	1718.25
822.02	1779.68
822.19	1867.75
822.36	1730.53
822.53	1705.96
822.70	1599.46
822.88	1724.39
823.05	1832.93
823.22	1601.51
823.39	1755.11
823.56	1689.57
823.74	1882.08
823.91	1617.90
824.08	1611.75
824.25	1703.91
824.42	1769.44
824.60	1712.10
824.77	1744.87
824.94	1673.19
825.11	1781.73
825.28	1724.39
825.45	1742.82
825.63	1767.40
825.80	1656.81
825.97	1742.82
826.14	1689.57
826.31	1638.38
826.48	1759.21
826.66	1726.44
826.83	1710.05
827.00	1671.14
827.17	1671.14
827.34	1691.62
827.51	1718.25
827.69	1746.92
827.86	1552.36
828.03	1689.57
828.20	1710.05
828.37	1695.72
828.54	1693.67
828.71	1693.67
828.89	1796.07
829.06	1714.15
829.23	1787.88
829.40	1665.00
829.57	1714.15
829.74	1767.40
829.91	1789.92
830.09	1587.18
830.26	1751.01
830.43	1785.83
830.60	1716.20
830.77	1714.15
830.94	1796.07
831.11	1761.25
831.28	1740.77
831.46	1722.34
831.63	1689.57
831.80	1728.49
831.97	1714.15
832.14	1720.29
832.31	1738.73
832.48	1611.75
832.65	1814.50
832.82	1755.11
832.99	1759.21
833.17	1724.39
833.34	1775.59
833.51	1662.95
833.68	1591.27
833.85	1783.78
834.02	1652.71
834.19	1605.61
834.36	1593.32
834.53	1726.44
834.70	1841.12
834.87	1673.19
835.04	1738.73
835.22	1740.77
835.39	1636.33
835.56	1628.14
835.73	1695.72
835.90	1734.63
836.07	1654.76
836.24	1679.33
836.41	1658.85
836.58	1654.76
836.75	1740.77
836.92	1738.73
837.09	1658.85
837.26	1730.53
837.43	1683.43
837.60	1687.53
837.77	1683.43
837.94	1746.92
838.12	1722.34
838.29	1742.82
838.46	1685.48
838.63	1691.62
838.80	1753.06
838.97	1714.15
839.14	1777.64
839.31	1677.29
839.48	1759.21
839.65	1632.23
839.82	1744.87
839.99	1767.40
840.16	1765.35
840.33	1716.20
840.50	1716.20
840.67	1732.58
840.84	1615.85
841.01	1757.16
841.18	1658.85
841.35	1677.29
841.52	1642.47
841.69	1869.80
841.86	1771.49
842.03	1697.77
842.20	1703.91
842.37	1693.67
842.54	1753.06
842.71	1726.44
842.88	1652.71
843.05	1771.49
843.22	1708.01
843.39	1746.92
843.56	1718.25
843.73	1650.66
843.90	1714.15
844.07	1681.38
844.24	1728.49
844.41	1710.05
844.58	1724.39
844.75	1701.86
844.92	1755.11
845.09	1701.86
845.26	1644.52
845.43	1691.62
845.60	1744.87
845.77	1681.38
845.94	1763.30
846.10	1736.68
846.27	1644.52
846.44	1634.28
846.61	1714.15
846.78	1744.87
846.95	1783.78
847.12	1714.15
847.29	1615.85
847.46	1624.04
847.63	1773.54
847.80	1716.20
847.97	1669.09
848.14	1814.50
848.31	1755.11
848.48	1710.05
848.65	1746.92
848.82	1662.95
848.98	1820.64
849.15	1736.68
849.32	1800.16
849.49	1789.92
849.66	1724.39
849.83	1669.09
850.00	1599.46
850.17	1806.31
850.34	1634.28
850.51	1619.94
850.68	1615.85
850.85	1834.98
851.01	1716.20
851.18	1693.67
851.35	1689.57
851.52	1738.73
851.69	1744.87
851.86	1656.81
852.03	1636.33
852.20	1740.77
852.37	1730.53
852.53	1677.29
852.70	1720.29
852.87	1726.44
853.04	1718.25
853.21	1648.61
853.38	1718.25
853.55	1726.44
853.72	1738.73
853.89	1611.75
854.05	1652.71
854.22	1654.76
854.39	1691.62
854.56	1759.21
854.73	1687.53
854.90	1689.57
855.07	1648.61
855.23	1691.62
855.40	1763.30
855.57	1701.86
855.74	1583.08
855.91	1851.36
856.08	1677.29
856.25	1726.44
856.41	1730.53
856.58	1730.53
856.75	1685.48
856.92	1632.23
857.09	1699.81
857.26	1589.22
857.42	1693.67
857.59	1773.54
857.76	1794.02
857.93	1802.21
858.10	1761.25
858.27	1595.37
858.43	1761.25
858.60	1648.61
858.77	1628.14
858.94	1662.95
859.11	1804.26
859.27	1638.38
859.44	1703.91
859.61	1771.49
859.78	1730.53
859.95	1681.38
860.12	1673.19
860.28	1798.12
860.45	1841.12
860.62	1660.90
860.79	1759.21
860.95	1667.05
861.12	1722.34
861.29	1677.29
861.46	1683.43
861.63	1757.16
861.79	1710.05
861.96	1669.09
862.13	1679.33
862.30	1816.55
862.47	1644.52
862.63	1673.19
862.80	1767.40
862.97	1710.05
863.14	1798.12
863.30	1675.24
863.47	1636.33
863.64	1718.25
863.81	1724.39
863.97	1671.14
864.14	1777.64
864.31	1693.67
864.48	1751.01
864.65	1708.01
864.81	1730.53
864.98	1730.53
865.15	1734.63
865.32	1775.59
865.48	1736.68
865.65	1757.16
865.82	1665.00
865.98	1744.87
866.15	1806.31
866.32	1644.52
866.49	1656.81
866.65	1796.07
866.82	1642.47
866.99	1673.19
867.16	1681.38
867.32	1662.95
867.49	1716.20
867.66	1662.95
867.83	1624.04
867.99	1683.43
868.16	1695.72
868.33	1679.33
868.49	1689.57
868.66	1689.57
868.83	1777.64
868.99	1753.06
869.16	1765.35
869.33	1841.12
869.50	1726.44
869.66	1662.95
869.83	1671.14
870.00	1679.33
870.16	1701.86
870.33	1693.67
870.50	1757.16
870.66	1757.16
870.83	1802.21
871.00	1724.39
871.17	1656.81
871.33	1800.16
871.50	1742.82
871.67	1675.24
871.83	1636.33
872.00	1845.22
872.17	1652.71
872.33	1814.50
872.50	1722.34
872.67	1683.43
872.83	1740.77
873.00	1705.96
873.17	1714.15
873.33	1769.44
873.50	1742.82
873.67	1669.09
873.83	1703.91
874.00	1675.24
874.16	1826.79
874.33	1845.22
874.50	1611.75
874.66	1722.34
874.83	1697.77
875.00	1726.44
875.16	1732.58
875.33	1755.11
875.50	1628.14
875.66	1673.19
875.83	1705.96
875.99	1785.83
876.16	1667.05
876.33	1718.25
876.49	1738.73
876.66	1744.87
876.83	1724.39
876.99	1687.53
877.16	1722.34
877.32	1740.77
877.49	1609.70
877.66	1789.92
877.82	1777.64
877.99	1734.63
878.15	1777.64
878.32	1677.29
878.49	1755.11
878.65	1710.05
878.82	1791.97
878.98	1628.14
879.15	1763.30
879.32	1810.40
879.48	1683.43
879.65	1660.90
879.81	1652.71
879.98	1763.30
880.15	1765.35
880.31	1687.53
880.48	1677.29
880.64	1695.72
880.81	1708.01
880.97	1800.16
881.14	1769.44
881.31	1638.38
881.47	1839.08
881.64	1662.95
881.80	1636.33
881.97	1800.16
882.13	1679.33
882.30	1617.90
882.47	1671.14
882.63	1701.86
882.80	1656.81
882.96	1642.47
883.13	1779.68
883.29	1722.34
883.46	1849.32
883.62	1787.88
883.79	1730.53
883.95	1736.68
884.12	1726.44
884.29	1771.49
884.45	1740.77
884.62	1697.77
884.78	1638.38
884.95	1810.40
885.11	1648.61
885.28	1730.53
885.44	1718.25
885.61	1736.68
885.77	1781.73
885.94	1769.44
886.10	1685.48
886.27	1640.42
886.43	1839.08
886.60	1759.21
886.76	1757.16
886.93	1699.81
887.09	1759.21
887.26	1648.61
887.42	1710.05
887.59	1789.92
887.75	1794.02
887.92	1746.92
888.08	1761.25
888.25	1767.40
888.41	1710.05
888.58	1746.92
888.74	1642.47
888.91	1712.10
>>>>>End Processed Spectral Data<<<<<
