SpectraSuite Data File
++++++++++++++++++++++++++++++++++++
Date: Mon Jun 06 12:58:17 CEST 2016
User: root
Dark Spectrum Present: No
Reference Spectrum Present: No
Number of Sampled Component Spectra: 1
Spectrometers: USB4C02835
Integration Time (usec): 100000 (USB4C02835)
Spectra Averaged: 1 (USB4C02835)
Boxcar Smoothing: 0 (USB4C02835)
Correct for Electrical Dark: No (USB4C02835)
Strobe/Lamp Enabled: No (USB4C02835)
Correct for Detector Non-linearity: No (USB4C02835)
Correct for Stray Light: No (USB4C02835)
Number of Pixels in Processed Spectrum: 3648
>>>>>Begin Processed Spectral Data<<<<<
177.47	1542.12
177.69	1542.12
177.91	1542.12
178.13	1443.82
178.36	1492.97
178.58	1630.18
178.80	1761.25
179.02	1581.03
179.24	1662.95
179.46	1685.48
179.68	1736.68
179.90	1673.19
180.13	1718.25
180.35	1761.25
180.57	1632.23
180.79	1728.49
181.01	1665.00
181.23	1767.40
181.45	1779.68
181.67	1660.90
181.90	1755.11
182.12	1671.14
182.34	1601.51
182.56	1679.33
182.78	1775.59
183.00	1722.34
183.22	1730.53
183.44	1533.93
183.66	1738.73
183.89	1759.21
184.11	1644.52
184.33	1673.19
184.55	1705.96
184.77	1703.91
184.99	1748.97
185.21	1638.38
185.43	1918.95
185.65	1697.77
185.87	1665.00
186.10	1818.60
186.32	1794.02
186.54	1667.05
186.76	1703.91
186.98	1697.77
187.20	1716.20
187.42	1693.67
187.64	1640.42
187.86	1734.63
188.08	1783.78
188.30	1640.42
188.52	1716.20
188.75	1798.12
188.97	1753.06
189.19	1619.94
189.41	1626.09
189.63	1761.25
189.85	1662.95
190.07	1601.51
190.29	1665.00
190.51	1708.01
190.73	1697.77
190.95	1755.11
191.17	1679.33
191.39	1554.41
191.61	1675.24
191.84	1751.01
192.06	1689.57
192.28	1562.60
192.50	1796.07
192.72	1699.81
192.94	1656.81
193.16	1746.92
193.38	1771.49
193.60	1613.80
193.82	1665.00
194.04	1814.50
194.26	1736.68
194.48	1695.72
194.70	1650.66
194.92	1662.95
195.14	1759.21
195.36	1624.04
195.58	1734.63
195.80	1626.09
196.02	1632.23
196.24	1712.10
196.46	1783.78
196.69	1699.81
196.91	1839.08
197.13	1578.98
197.35	1724.39
197.57	1767.40
197.79	1751.01
198.01	1681.38
198.23	1773.54
198.45	1601.51
198.67	1595.37
198.89	1691.62
199.11	1710.05
199.33	1601.51
199.55	1505.26
199.77	1632.23
199.99	1791.97
200.21	1738.73
200.43	1714.15
200.65	1646.57
200.87	1544.17
201.09	1624.04
201.31	1632.23
201.53	1716.20
201.75	1720.29
201.97	1638.38
202.19	1736.68
202.41	1744.87
202.63	1787.88
202.85	1701.86
203.07	1714.15
203.29	1624.04
203.51	1687.53
203.73	1681.38
203.95	1820.64
204.17	1748.97
204.39	1736.68
204.61	1712.10
204.83	1693.67
205.05	1667.05
205.27	1759.21
205.49	1859.56
205.71	1697.77
205.93	1607.66
206.15	1699.81
206.37	1673.19
206.59	1665.00
206.81	1634.28
207.03	1619.94
207.25	1679.33
207.47	1677.29
207.69	1673.19
207.91	1779.68
208.13	1669.09
208.34	1689.57
208.56	1634.28
208.78	1757.16
209.00	1701.86
209.22	1566.70
209.44	1677.29
209.66	1701.86
209.88	1705.96
210.10	1726.44
210.32	1640.42
210.54	1697.77
210.76	1693.67
210.98	1744.87
211.20	1542.12
211.42	1671.14
211.64	1761.25
211.86	1798.12
212.08	1730.53
212.30	1644.52
212.52	1632.23
212.74	1732.58
212.96	1660.90
213.17	1703.91
213.39	1693.67
213.61	1734.63
213.83	1814.50
214.05	1615.85
214.27	1703.91
214.49	1574.89
214.71	1675.24
214.93	1716.20
215.15	1748.97
215.37	1746.92
215.59	1570.79
215.81	1671.14
216.03	1748.97
216.24	1759.21
216.46	1761.25
216.68	1693.67
216.90	1755.11
217.12	1736.68
217.34	1710.05
217.56	1740.77
217.78	1730.53
218.00	1740.77
218.22	1732.58
218.44	1693.67
218.66	1716.20
218.87	1845.22
219.09	1705.96
219.31	1658.85
219.53	1761.25
219.75	1701.86
219.97	1708.01
220.19	1701.86
220.41	1665.00
220.63	1769.44
220.85	1656.81
221.06	1658.85
221.28	1724.39
221.50	1861.60
221.72	1652.71
221.94	1748.97
222.16	1701.86
222.38	1808.36
222.60	1789.92
222.82	1638.38
223.03	1746.92
223.25	1667.05
223.47	1730.53
223.69	1804.26
223.91	1763.30
224.13	1697.77
224.35	1720.29
224.57	1796.07
224.78	1712.10
225.00	1667.05
225.22	1691.62
225.44	1738.73
225.66	1703.91
225.88	1685.48
226.10	1787.88
226.32	1701.86
226.53	1712.10
226.75	1701.86
226.97	1718.25
227.19	1695.72
227.41	1558.50
227.63	1699.81
227.85	1662.95
228.06	1736.68
228.28	1746.92
228.50	1732.58
228.72	1730.53
228.94	1730.53
229.16	1626.09
229.37	1671.14
229.59	1673.19
229.81	1753.06
230.03	1689.57
230.25	1660.90
230.47	1601.51
230.69	1728.49
230.90	1861.60
231.12	1609.70
231.34	1685.48
231.56	1751.01
231.78	1648.61
232.00	1757.16
232.21	1677.29
232.43	1705.96
232.65	1630.18
232.87	1734.63
233.09	1634.28
233.30	1710.05
233.52	1812.45
233.74	1773.54
233.96	1703.91
234.18	1656.81
234.40	1671.14
234.61	1775.59
234.83	1624.04
235.05	1669.09
235.27	1808.36
235.49	1722.34
235.70	1722.34
235.92	1855.46
236.14	1691.62
236.36	1828.84
236.58	1642.47
236.79	1697.77
237.01	1634.28
237.23	1687.53
237.45	1730.53
237.67	1658.85
237.88	1701.86
238.10	1730.53
238.32	1593.32
238.54	1685.48
238.76	1685.48
238.97	1667.05
239.19	1658.85
239.41	1701.86
239.63	1767.40
239.85	1683.43
240.06	1689.57
240.28	1734.63
240.50	1658.85
240.72	1628.14
240.93	1736.68
241.15	1767.40
241.37	1681.38
241.59	1742.82
241.81	1648.61
242.02	1687.53
242.24	1730.53
242.46	1722.34
242.68	1710.05
242.89	1718.25
243.11	1740.77
243.33	1687.53
243.55	1695.72
243.76	1714.15
243.98	1562.60
244.20	1697.77
244.42	1724.39
244.64	1712.10
244.85	1642.47
245.07	1689.57
245.29	1732.58
245.51	1759.21
245.72	1697.77
245.94	1798.12
246.16	1621.99
246.38	1742.82
246.59	1736.68
246.81	1685.48
247.03	1722.34
247.24	1540.07
247.46	1621.99
247.68	1628.14
247.90	1638.38
248.11	1712.10
248.33	1710.05
248.55	1753.06
248.77	1753.06
248.98	1718.25
249.20	1802.21
249.42	1632.23
249.64	1746.92
249.85	1724.39
250.07	1574.89
250.29	1841.12
250.50	1658.85
250.72	1669.09
250.94	1755.11
251.16	1736.68
251.37	1714.15
251.59	1685.48
251.81	1800.16
252.02	1822.69
252.24	1662.95
252.46	1775.59
252.68	1615.85
252.89	1613.80
253.11	1593.32
253.33	1822.69
253.54	1789.92
253.76	1581.03
253.98	1595.37
254.20	1765.35
254.41	1652.71
254.63	1705.96
254.85	1632.23
255.06	1654.76
255.28	1738.73
255.50	1658.85
255.71	1648.61
255.93	1652.71
256.15	1638.38
256.36	1650.66
256.58	1652.71
256.80	1781.73
257.02	1624.04
257.23	1755.11
257.45	1712.10
257.67	1705.96
257.88	1665.00
258.10	1679.33
258.32	1632.23
258.53	1691.62
258.75	1732.58
258.97	1624.04
259.18	1740.77
259.40	1755.11
259.62	1789.92
259.83	1761.25
260.05	1705.96
260.27	1976.29
260.48	1724.39
260.70	1626.09
260.92	1626.09
261.13	1791.97
261.35	1681.38
261.57	1671.14
261.78	1599.46
262.00	1665.00
262.22	1746.92
262.43	1677.29
262.65	1658.85
262.86	1673.19
263.08	1828.84
263.30	1751.01
263.51	1574.89
263.73	1654.76
263.95	1779.68
264.16	1685.48
264.38	1662.95
264.60	1800.16
264.81	1734.63
265.03	1755.11
265.25	1757.16
265.46	1673.19
265.68	1802.21
265.89	1673.19
266.11	1687.53
266.33	1718.25
266.54	1669.09
266.76	1689.57
266.98	1781.73
267.19	1779.68
267.41	1708.01
267.62	1742.82
267.84	1697.77
268.06	1652.71
268.27	1681.38
268.49	1730.53
268.70	1783.78
268.92	1703.91
269.14	1621.99
269.35	1593.32
269.57	1660.90
269.79	1720.29
270.00	1603.56
270.22	1806.31
270.43	1658.85
270.65	1556.46
270.87	1683.43
271.08	1794.02
271.30	1658.85
271.51	1671.14
271.73	1724.39
271.95	1724.39
272.16	1718.25
272.38	1689.57
272.59	1710.05
272.81	1726.44
273.02	1683.43
273.24	1796.07
273.46	1742.82
273.67	1640.42
273.89	1634.28
274.10	1591.27
274.32	1712.10
274.54	1724.39
274.75	1683.43
274.97	1607.66
275.18	1808.36
275.40	1763.30
275.61	1630.18
275.83	1742.82
276.05	1611.75
276.26	1628.14
276.48	1718.25
276.69	1636.33
276.91	1550.31
277.12	1769.44
277.34	1746.92
277.55	1726.44
277.77	1736.68
277.99	1644.52
278.20	1683.43
278.42	1701.86
278.63	1726.44
278.85	1611.75
279.06	1644.52
279.28	1671.14
279.49	1767.40
279.71	1740.77
279.93	1667.05
280.14	1671.14
280.36	1628.14
280.57	1746.92
280.79	1744.87
281.00	1673.19
281.22	1583.08
281.43	1742.82
281.65	1638.38
281.86	1677.29
282.08	1763.30
282.29	1822.69
282.51	1669.09
282.73	1701.86
282.94	1552.36
283.16	1726.44
283.37	1746.92
283.59	1740.77
283.80	1828.84
284.02	1677.29
284.23	1755.11
284.45	1673.19
284.66	1677.29
284.88	1701.86
285.09	1746.92
285.31	1740.77
285.52	1691.62
285.74	1628.14
285.95	1742.82
286.17	1732.58
286.38	1693.67
286.60	1738.73
286.81	1667.05
287.03	1591.27
287.24	1681.38
287.46	1763.30
287.67	1748.97
287.89	1875.94
288.10	1677.29
288.32	1726.44
288.53	1736.68
288.75	1703.91
288.96	1744.87
289.18	1708.01
289.39	1683.43
289.61	1787.88
289.82	1777.64
290.04	1755.11
290.25	1652.71
290.47	1665.00
290.68	1708.01
290.90	1771.49
291.11	1693.67
291.33	1669.09
291.54	1734.63
291.76	1605.61
291.97	1726.44
292.18	1701.86
292.40	1640.42
292.61	1656.81
292.83	1791.97
293.04	1679.33
293.26	1755.11
293.47	1726.44
293.69	1632.23
293.90	1650.66
294.12	1763.30
294.33	1669.09
294.55	1681.38
294.76	1730.53
294.97	1822.69
295.19	1904.61
295.40	1744.87
295.62	1669.09
295.83	1744.87
296.05	1660.90
296.26	1712.10
296.48	1699.81
296.69	1689.57
296.90	1798.12
297.12	1728.49
297.33	1773.54
297.55	1759.21
297.76	1689.57
297.98	1777.64
298.19	1789.92
298.41	1638.38
298.62	1628.14
298.83	1785.83
299.05	1751.01
299.26	1689.57
299.48	1634.28
299.69	1736.68
299.90	1759.21
300.12	1667.05
300.33	1763.30
300.55	1724.39
300.76	1783.78
300.98	1624.04
301.19	1753.06
301.40	1720.29
301.62	1675.24
301.83	1722.34
302.05	1759.21
302.26	1746.92
302.47	1679.33
302.69	1687.53
302.90	1675.24
303.12	1578.98
303.33	1718.25
303.54	1800.16
303.76	1697.77
303.97	1712.10
304.19	1818.60
304.40	1708.01
304.61	1714.15
304.83	1826.79
305.04	1796.07
305.26	1734.63
305.47	1636.33
305.68	1656.81
305.90	1652.71
306.11	1705.96
306.33	1679.33
306.54	1738.73
306.75	1646.57
306.97	1548.26
307.18	1722.34
307.39	1669.09
307.61	1802.21
307.82	1667.05
308.04	1720.29
308.25	1652.71
308.46	1689.57
308.68	1708.01
308.89	1681.38
309.10	1736.68
309.32	1765.35
309.53	1738.73
309.74	1705.96
309.96	1673.19
310.17	1771.49
310.39	1675.24
310.60	1681.38
310.81	1730.53
311.03	1675.24
311.24	1722.34
311.45	1701.86
311.67	1828.84
311.88	1753.06
312.09	1685.48
312.31	1656.81
312.52	1691.62
312.73	1578.98
312.95	1679.33
313.16	1652.71
313.37	1775.59
313.59	1701.86
313.80	1794.02
314.01	1789.92
314.23	1683.43
314.44	1673.19
314.65	1669.09
314.87	1710.05
315.08	1677.29
315.29	1687.53
315.51	1615.85
315.72	1591.27
315.93	1785.83
316.15	1718.25
316.36	1691.62
316.57	1648.61
316.79	1714.15
317.00	1650.66
317.21	1699.81
317.43	1607.66
317.64	1751.01
317.85	1665.00
318.07	1611.75
318.28	1710.05
318.49	1828.84
318.70	1935.33
318.92	1839.08
319.13	1861.60
319.34	1841.12
319.56	1816.55
319.77	1761.25
319.98	1767.40
320.20	1712.10
320.41	1761.25
320.62	1708.01
320.83	1757.16
321.05	1810.40
321.26	1705.96
321.47	1671.14
321.69	1763.30
321.90	1656.81
322.11	1683.43
322.32	1730.53
322.54	1808.36
322.75	1656.81
322.96	1800.16
323.18	1619.94
323.39	1550.31
323.60	1708.01
323.81	1763.30
324.03	1673.19
324.24	1716.20
324.45	1843.17
324.66	1732.58
324.88	1769.44
325.09	1798.12
325.30	1703.91
325.52	1683.43
325.73	1757.16
325.94	1615.85
326.15	1619.94
326.37	1656.81
326.58	1714.15
326.79	1787.88
327.00	1632.23
327.22	1771.49
327.43	1628.14
327.64	1605.61
327.85	1757.16
328.07	1703.91
328.28	1802.21
328.49	1595.37
328.70	1660.90
328.92	1697.77
329.13	1636.33
329.34	1679.33
329.55	1820.64
329.76	1789.92
329.98	1718.25
330.19	1744.87
330.40	1738.73
330.61	1681.38
330.83	1708.01
331.04	1669.09
331.25	1630.18
331.46	1759.21
331.68	1685.48
331.89	1751.01
332.10	1732.58
332.31	1628.14
332.52	1701.86
332.74	1761.25
332.95	1675.24
333.16	1746.92
333.37	1746.92
333.58	1683.43
333.80	1712.10
334.01	1587.18
334.22	1734.63
334.43	1667.05
334.64	1716.20
334.86	1634.28
335.07	1642.47
335.28	1753.06
335.49	1583.08
335.70	1796.07
335.92	1761.25
336.13	1763.30
336.34	1646.57
336.55	1687.53
336.76	1669.09
336.98	1630.18
337.19	1767.40
337.40	1755.11
337.61	1910.75
337.82	1679.33
338.04	1802.21
338.25	1681.38
338.46	1662.95
338.67	1671.14
338.88	1677.29
339.09	1587.18
339.31	1744.87
339.52	1624.04
339.73	1685.48
339.94	1789.92
340.15	1783.78
340.36	1652.71
340.58	1701.86
340.79	1593.32
341.00	1779.68
341.21	1615.85
341.42	1748.97
341.63	1640.42
341.85	1800.16
342.06	1755.11
342.27	1646.57
342.48	1816.55
342.69	1656.81
342.90	1656.81
343.12	1691.62
343.33	1650.66
343.54	1773.54
343.75	1853.41
343.96	1705.96
344.17	1636.33
344.38	1689.57
344.60	1705.96
344.81	1671.14
345.02	1691.62
345.23	1802.21
345.44	1781.73
345.65	1755.11
345.86	1718.25
346.07	1703.91
346.29	1632.23
346.50	1744.87
346.71	1755.11
346.92	1771.49
347.13	1920.99
347.34	1699.81
347.55	1734.63
347.76	1681.38
347.98	1509.35
348.19	1757.16
348.40	1791.97
348.61	1728.49
348.82	1804.26
349.03	1710.05
349.24	1665.00
349.45	1748.97
349.66	1603.56
349.88	1652.71
350.09	1652.71
350.30	1791.97
350.51	1710.05
350.72	1662.95
350.93	1732.58
351.14	1697.77
351.35	1738.73
351.56	1726.44
351.77	1781.73
351.99	1740.77
352.20	1812.45
352.41	1783.78
352.62	1665.00
352.83	1669.09
353.04	1613.80
353.25	1630.18
353.46	1806.31
353.67	1773.54
353.88	1576.94
354.09	1718.25
354.30	1740.77
354.52	1712.10
354.73	1675.24
354.94	1667.05
355.15	1705.96
355.36	1892.32
355.57	1701.86
355.78	1748.97
355.99	1673.19
356.20	1665.00
356.41	1759.21
356.62	1755.11
356.83	1675.24
357.04	1853.41
357.25	1632.23
357.46	1716.20
357.68	1597.42
357.89	1619.94
358.10	1712.10
358.31	1624.04
358.52	1695.72
358.73	1642.47
358.94	1634.28
359.15	1687.53
359.36	1755.11
359.57	1648.61
359.78	1722.34
359.99	1779.68
360.20	1681.38
360.41	1753.06
360.62	1818.60
360.83	1679.33
361.04	1675.24
361.25	1751.01
361.46	1779.68
361.67	1730.53
361.88	1826.79
362.09	1746.92
362.30	1806.31
362.51	1705.96
362.72	1714.15
362.93	1767.40
363.14	1738.73
363.35	1712.10
363.56	1652.71
363.78	1843.17
363.99	1724.39
364.20	1628.14
364.41	1703.91
364.62	1851.36
364.83	1765.35
365.04	1708.01
365.25	1724.39
365.46	1781.73
365.67	1673.19
365.88	1677.29
366.09	1671.14
366.30	1662.95
366.51	1656.81
366.72	1595.37
366.93	1673.19
367.14	1755.11
367.35	1697.77
367.56	1662.95
367.77	1746.92
367.98	1742.82
368.18	1742.82
368.39	1730.53
368.60	1593.32
368.81	1720.29
369.02	1761.25
369.23	1689.57
369.44	1593.32
369.65	1708.01
369.86	1710.05
370.07	1714.15
370.28	1634.28
370.49	1652.71
370.70	1734.63
370.91	1665.00
371.12	1617.90
371.33	1693.67
371.54	1638.38
371.75	1785.83
371.96	1546.22
372.17	1744.87
372.38	1632.23
372.59	1701.86
372.80	1736.68
373.01	1656.81
373.22	1757.16
373.43	1736.68
373.64	1736.68
373.85	1767.40
374.06	1738.73
374.26	1746.92
374.47	1673.19
374.68	1791.97
374.89	1660.90
375.10	1763.30
375.31	1761.25
375.52	1757.16
375.73	1718.25
375.94	1669.09
376.15	1777.64
376.36	1740.77
376.57	1742.82
376.78	1693.67
376.99	1730.53
377.20	1773.54
377.40	1572.84
377.61	1787.88
377.82	1644.52
378.03	1720.29
378.24	1765.35
378.45	1710.05
378.66	1779.68
378.87	1615.85
379.08	1599.46
379.29	1718.25
379.50	1777.64
379.71	1695.72
379.91	1769.44
380.12	1708.01
380.33	1689.57
380.54	1798.12
380.75	1624.04
380.96	1712.10
381.17	1748.97
381.38	1728.49
381.59	1730.53
381.80	1695.72
382.00	1839.08
382.21	1687.53
382.42	1841.12
382.63	1871.84
382.84	1789.92
383.05	1845.22
383.26	1837.03
383.47	1722.34
383.68	1791.97
383.88	1718.25
384.09	1732.58
384.30	1826.79
384.51	1779.68
384.72	1691.62
384.93	1697.77
385.14	1712.10
385.35	1708.01
385.55	1681.38
385.76	1791.97
385.97	1728.49
386.18	1619.94
386.39	1611.75
386.60	1673.19
386.81	1748.97
387.02	1621.99
387.22	1628.14
387.43	1804.26
387.64	1736.68
387.85	1908.71
388.06	2232.29
388.27	4239.30
388.48	6758.30
388.68	8189.83
388.89	9791.34
389.10	9881.45
389.31	8648.57
389.52	7503.76
389.73	6588.32
389.93	6258.59
390.14	5769.13
390.35	5181.36
390.56	4495.29
390.77	3833.80
390.98	3041.23
391.18	2435.03
391.39	2142.18
391.60	1810.40
391.81	1873.89
392.02	1685.48
392.23	1882.08
392.43	1726.44
392.64	1816.55
392.85	1683.43
393.06	1863.65
393.27	1675.24
393.47	1724.39
393.68	1722.34
393.89	1636.33
394.10	1771.49
394.31	1581.03
394.52	1640.42
394.72	1710.05
394.93	1781.73
395.14	1601.51
395.35	1718.25
395.56	1697.77
395.76	1726.44
395.97	1771.49
396.18	1818.60
396.39	1853.41
396.60	1959.91
396.80	1935.33
397.01	1839.08
397.22	1832.93
397.43	1775.59
397.64	1705.96
397.84	1767.40
398.05	1865.70
398.26	1755.11
398.47	1800.16
398.67	1716.20
398.88	1726.44
399.09	1753.06
399.30	1648.61
399.51	1673.19
399.71	1695.72
399.92	1753.06
400.13	1671.14
400.34	1591.27
400.54	1710.05
400.75	1796.07
400.96	1740.77
401.17	1849.32
401.37	1712.10
401.58	1603.56
401.79	1708.01
402.00	1796.07
402.21	2000.87
402.41	1964.00
402.62	2009.06
402.83	1974.24
403.04	1935.33
403.24	2076.64
403.45	1861.60
403.66	1976.29
403.87	1863.65
404.07	1966.05
404.28	1867.75
404.49	1818.60
404.70	1718.25
404.90	1837.03
405.11	1759.21
405.32	1759.21
405.52	1615.85
405.73	1665.00
405.94	1665.00
406.15	1730.53
406.35	1771.49
406.56	1751.01
406.77	1677.29
406.98	1771.49
407.18	1640.42
407.39	1787.88
407.60	1662.95
407.80	1734.63
408.01	1669.09
408.22	1777.64
408.43	1591.27
408.63	1716.20
408.84	1759.21
409.05	1736.68
409.25	1724.39
409.46	1624.04
409.67	1742.82
409.88	1675.24
410.08	1755.11
410.29	1607.66
410.50	1734.63
410.70	1724.39
410.91	1679.33
411.12	1722.34
411.32	1685.48
411.53	1691.62
411.74	1732.58
411.95	1726.44
412.15	1751.01
412.36	1734.63
412.57	1716.20
412.77	1779.68
412.98	1691.62
413.19	1765.35
413.39	1742.82
413.60	1771.49
413.81	1794.02
414.01	1642.47
414.22	1775.59
414.43	1802.21
414.63	1726.44
414.84	1781.73
415.05	1660.90
415.25	1585.13
415.46	1824.74
415.67	1652.71
415.87	1775.59
416.08	1726.44
416.29	1695.72
416.49	1638.38
416.70	1687.53
416.91	1705.96
417.11	1695.72
417.32	1662.95
417.53	1740.77
417.73	1785.83
417.94	1609.70
418.15	1695.72
418.35	1677.29
418.56	1710.05
418.77	1722.34
418.97	1716.20
419.18	1710.05
419.38	1656.81
419.59	1722.34
419.80	1732.58
420.00	1621.99
420.21	1695.72
420.42	1751.01
420.62	1720.29
420.83	1636.33
421.04	1701.86
421.24	1759.21
421.45	1718.25
421.65	1693.67
421.86	1656.81
422.07	1769.44
422.27	1701.86
422.48	1695.72
422.69	1665.00
422.89	1701.86
423.10	1705.96
423.30	1677.29
423.51	1728.49
423.72	1665.00
423.92	1748.97
424.13	1632.23
424.33	1775.59
424.54	1826.79
424.75	1783.78
424.95	1759.21
425.16	1701.86
425.36	1708.01
425.57	1748.97
425.78	1834.98
425.98	1746.92
426.19	1710.05
426.39	1677.29
426.60	1689.57
426.81	1751.01
427.01	1712.10
427.22	1673.19
427.42	1648.61
427.63	1619.94
427.83	1718.25
428.04	1714.15
428.25	1722.34
428.45	1816.55
428.66	1824.74
428.86	1701.86
429.07	1703.91
429.28	1724.39
429.48	1599.46
429.69	1652.71
429.89	1619.94
430.10	1628.14
430.30	1681.38
430.51	1740.77
430.71	1683.43
430.92	1708.01
431.13	1732.58
431.33	1765.35
431.54	1736.68
431.74	1824.74
431.95	1820.64
432.15	1615.85
432.36	1765.35
432.56	1816.55
432.77	1783.78
432.98	1847.27
433.18	1726.44
433.39	1703.91
433.59	1699.81
433.80	1773.54
434.00	1888.23
434.21	1740.77
434.41	1683.43
434.62	1787.88
434.82	1650.66
435.03	1689.57
435.23	1728.49
435.44	1591.27
435.64	1687.53
435.85	1759.21
436.06	1734.63
436.26	1757.16
436.47	1730.53
436.67	1769.44
436.88	1697.77
437.08	1665.00
437.29	1837.03
437.49	1718.25
437.70	1775.59
437.90	1757.16
438.11	1755.11
438.31	1748.97
438.52	1873.89
438.72	1961.95
438.93	1927.14
439.13	1814.50
439.34	1820.64
439.54	1701.86
439.75	1839.08
439.95	1800.16
440.16	1761.25
440.36	1759.21
440.57	1802.21
440.77	1728.49
440.98	1753.06
441.18	1718.25
441.39	1728.49
441.59	1740.77
441.80	1863.65
442.00	1689.57
442.21	1865.70
442.41	1703.91
442.62	1822.69
442.82	1734.63
443.02	1695.72
443.23	1644.52
443.43	1781.73
443.64	1746.92
443.84	1673.19
444.05	1798.12
444.25	1759.21
444.46	1740.77
444.66	1728.49
444.87	1824.74
445.07	1570.79
445.28	1695.72
445.48	1841.12
445.69	1808.36
445.89	1871.84
446.09	1738.73
446.30	2125.79
446.50	2576.34
446.71	3657.67
446.91	4184.00
447.12	4759.48
447.32	4806.58
447.53	4267.97
447.73	3919.81
447.93	3481.55
448.14	3315.66
448.34	3110.86
448.55	2885.59
448.75	2875.35
448.96	2680.79
449.16	2490.33
449.36	2244.57
449.57	2035.68
449.77	1898.47
449.98	1740.77
450.18	1785.83
450.39	1849.32
450.59	1791.97
450.79	1791.97
451.00	1740.77
451.20	1796.07
451.41	1681.38
451.61	1824.74
451.81	1710.05
452.02	1720.29
452.22	1675.24
452.43	1687.53
452.63	1703.91
452.84	1773.54
453.04	1759.21
453.24	1779.68
453.45	1705.96
453.65	1761.25
453.86	1697.77
454.06	1787.88
454.26	1710.05
454.47	1787.88
454.67	1873.89
454.87	1777.64
455.08	1720.29
455.28	1826.79
455.49	1812.45
455.69	1683.43
455.89	1832.93
456.10	1802.21
456.30	1738.73
456.51	1734.63
456.71	1712.10
456.91	1738.73
457.12	1755.11
457.32	1753.06
457.52	1652.71
457.73	1718.25
457.93	1781.73
458.14	1640.42
458.34	1656.81
458.54	1734.63
458.75	1667.05
458.95	1728.49
459.15	1691.62
459.36	1675.24
459.56	1839.08
459.76	1853.41
459.97	1761.25
460.17	1738.73
460.37	1818.60
460.58	1765.35
460.78	1755.11
460.99	1701.86
461.19	1673.19
461.39	1736.68
461.60	1757.16
461.80	1730.53
462.00	1675.24
462.21	1753.06
462.41	1697.77
462.61	1693.67
462.82	1603.56
463.02	1734.63
463.22	1781.73
463.43	1753.06
463.63	1667.05
463.83	1767.40
464.04	1701.86
464.24	1701.86
464.44	1671.14
464.64	1763.30
464.85	1800.16
465.05	1761.25
465.25	1736.68
465.46	1714.15
465.66	1703.91
465.86	1783.78
466.07	1701.86
466.27	1724.39
466.47	1681.38
466.68	1621.99
466.88	1769.44
467.08	1732.58
467.29	1787.88
467.49	1732.58
467.69	1771.49
467.89	1738.73
468.10	1769.44
468.30	1742.82
468.50	1785.83
468.71	1730.53
468.91	1535.98
469.11	1871.84
469.31	1714.15
469.52	1689.57
469.72	1865.70
469.92	1906.66
470.13	1779.68
470.33	1714.15
470.53	1812.45
470.73	2179.04
470.94	2301.92
471.14	2379.74
471.34	2504.67
471.54	2379.74
471.75	2174.94
471.95	2127.84
472.15	2123.74
472.36	2017.25
472.56	2115.55
472.76	2066.40
472.96	1966.05
473.17	1929.19
473.37	1890.28
473.57	1814.50
473.77	1845.22
473.98	1779.68
474.18	1771.49
474.38	1873.89
474.58	1714.15
474.79	1656.81
474.99	1691.62
475.19	1757.16
475.39	1589.22
475.60	1779.68
475.80	1656.81
476.00	1726.44
476.20	1693.67
476.41	1724.39
476.61	1789.92
476.81	1761.25
477.01	1683.43
477.21	1830.88
477.42	1843.17
477.62	1619.94
477.82	1761.25
478.02	1753.06
478.23	1763.30
478.43	1716.20
478.63	1634.28
478.83	1710.05
479.03	1746.92
479.24	1806.31
479.44	1791.97
479.64	1732.58
479.84	1581.03
480.04	1701.86
480.25	1755.11
480.45	1679.33
480.65	1755.11
480.85	1787.88
481.06	1726.44
481.26	1712.10
481.46	1847.27
481.66	1744.87
481.86	1673.19
482.06	1861.60
482.27	1718.25
482.47	1669.09
482.67	1783.78
482.87	1681.38
483.07	1808.36
483.28	1652.71
483.48	1726.44
483.68	1734.63
483.88	1697.77
484.08	1636.33
484.29	1705.96
484.49	1734.63
484.69	1683.43
484.89	1767.40
485.09	1759.21
485.29	1761.25
485.50	1742.82
485.70	1652.71
485.90	1744.87
486.10	1726.44
486.30	1763.30
486.50	1808.36
486.71	1748.97
486.91	1798.12
487.11	1804.26
487.31	1701.86
487.51	1703.91
487.71	1714.15
487.91	1689.57
488.12	1660.90
488.32	1589.22
488.52	1699.81
488.72	1595.37
488.92	1685.48
489.12	1828.84
489.32	1824.74
489.53	1759.21
489.73	1609.70
489.93	1787.88
490.13	1662.95
490.33	1675.24
490.53	1755.11
490.73	1812.45
490.94	1574.89
491.14	1865.70
491.34	1851.36
491.54	2156.51
491.74	2578.39
491.94	2840.53
492.14	3010.51
492.34	3028.95
492.54	2764.76
492.75	2412.51
492.95	2441.18
493.15	2297.82
493.35	2344.92
493.55	2246.62
493.75	2226.14
493.95	2117.60
494.15	2082.78
494.35	1884.13
494.56	1859.56
494.76	1724.39
494.96	1769.44
495.16	1773.54
495.36	1724.39
495.56	1779.68
495.76	1691.62
495.96	1689.57
496.16	1636.33
496.36	1847.27
496.56	1787.88
496.77	1748.97
496.97	1677.29
497.17	1785.83
497.37	1695.72
497.57	1765.35
497.77	1781.73
497.97	1656.81
498.17	1712.10
498.37	1775.59
498.57	1753.06
498.77	1710.05
498.97	1761.25
499.17	1814.50
499.38	1732.58
499.58	1802.21
499.78	1806.31
499.98	1845.22
500.18	1775.59
500.38	1677.29
500.58	1902.56
500.78	2568.15
500.98	4560.83
501.18	5904.29
501.38	6703.00
501.58	7010.20
501.78	6649.75
501.98	5597.10
502.18	4865.97
502.38	4464.57
502.58	4204.48
502.78	3776.45
502.98	3647.43
503.18	3413.96
503.38	3258.32
503.59	2873.30
503.79	2693.08
503.99	2533.34
504.19	2279.39
504.39	2185.18
504.59	2172.89
504.79	2148.32
504.99	2021.35
505.19	1927.14
505.39	1832.93
505.59	1976.29
505.79	1902.56
505.99	1843.17
506.19	1746.92
506.39	1855.46
506.59	1814.50
506.79	1753.06
506.99	1832.93
507.19	1765.35
507.39	1767.40
507.59	1744.87
507.79	1675.24
507.99	1665.00
508.19	1691.62
508.39	1765.35
508.59	1744.87
508.79	1826.79
508.99	1902.56
509.19	1681.38
509.39	1691.62
509.59	1734.63
509.79	1677.29
509.99	1767.40
510.19	1740.77
510.39	1777.64
510.59	1767.40
510.79	1626.09
510.99	1677.29
511.19	1738.73
511.39	1804.26
511.59	1724.39
511.79	1755.11
511.99	1701.86
512.19	1814.50
512.38	1691.62
512.58	1710.05
512.78	1753.06
512.98	1816.55
513.18	1869.80
513.38	1624.04
513.58	1796.07
513.78	1708.01
513.98	1748.97
514.18	1658.85
514.38	1683.43
514.58	1728.49
514.78	1583.08
514.98	1732.58
515.18	1773.54
515.38	1665.00
515.58	1789.92
515.78	1691.62
515.98	1619.94
516.18	1734.63
516.38	1724.39
516.57	1732.58
516.77	1800.16
516.97	1724.39
517.17	1673.19
517.37	1578.98
517.57	1744.87
517.77	1736.68
517.97	1757.16
518.17	1781.73
518.37	1720.29
518.57	1681.38
518.77	1640.42
518.97	1693.67
519.16	1740.77
519.36	1834.98
519.56	1671.14
519.76	1677.29
519.96	1746.92
520.16	1826.79
520.36	1638.38
520.56	1867.75
520.76	1722.34
520.96	1757.16
521.16	1773.54
521.35	1802.21
521.55	1816.55
521.75	1765.35
521.95	1689.57
522.15	1714.15
522.35	1671.14
522.55	1654.76
522.75	1738.73
522.95	1691.62
523.14	1732.58
523.34	1806.31
523.54	1685.48
523.74	1728.49
523.94	1761.25
524.14	1593.32
524.34	1785.83
524.54	1841.12
524.73	1746.92
524.93	1781.73
525.13	1757.16
525.33	1693.67
525.53	1877.99
525.73	1755.11
525.93	1701.86
526.13	1734.63
526.32	1738.73
526.52	1800.16
526.72	1796.07
526.92	1722.34
527.12	1669.09
527.32	1671.14
527.52	1783.78
527.71	1806.31
527.91	1812.45
528.11	1695.72
528.31	1689.57
528.51	1632.23
528.71	1767.40
528.90	1794.02
529.10	1810.40
529.30	1744.87
529.50	1650.66
529.70	1708.01
529.90	1808.36
530.09	1796.07
530.29	1656.81
530.49	1701.86
530.69	1832.93
530.89	1734.63
531.09	1820.64
531.28	1648.61
531.48	1755.11
531.68	1710.05
531.88	1693.67
532.08	1742.82
532.28	1738.73
532.47	1794.02
532.67	1851.36
532.87	1767.40
533.07	1722.34
533.27	1761.25
533.46	1779.68
533.66	1802.21
533.86	1746.92
534.06	1681.38
534.26	1787.88
534.45	1724.39
534.65	1794.02
534.85	1701.86
535.05	1685.48
535.25	1759.21
535.44	1644.52
535.64	1791.97
535.84	1683.43
536.04	1722.34
536.24	1689.57
536.43	1669.09
536.63	1763.30
536.83	1736.68
537.03	1730.53
537.22	1660.90
537.42	1613.80
537.62	1730.53
537.82	1718.25
538.02	1794.02
538.21	1839.08
538.41	1818.60
538.61	1812.45
538.81	1714.15
539.00	1794.02
539.20	1607.66
539.40	1746.92
539.60	1724.39
539.79	1800.16
539.99	1734.63
540.19	1718.25
540.39	1703.91
540.58	1777.64
540.78	1794.02
540.98	1746.92
541.18	1796.07
541.37	1716.20
541.57	1695.72
541.77	1849.32
541.97	1665.00
542.16	1583.08
542.36	1734.63
542.56	1681.38
542.76	1849.32
542.95	1730.53
543.15	1841.12
543.35	1736.68
543.54	1693.67
543.74	1714.15
543.94	1796.07
544.14	1738.73
544.33	1781.73
544.53	1701.86
544.73	1714.15
544.93	1681.38
545.12	1701.86
545.32	1765.35
545.52	1701.86
545.71	1609.70
545.91	1716.20
546.11	1710.05
546.30	1732.58
546.50	1703.91
546.70	1789.92
546.90	1699.81
547.09	1621.99
547.29	1769.44
547.49	1785.83
547.68	1691.62
547.88	1742.82
548.08	1789.92
548.27	2136.03
548.47	1697.77
548.67	1708.01
548.87	1808.36
549.06	1675.24
549.26	1708.01
549.46	1734.63
549.65	1732.58
549.85	1675.24
550.05	1732.58
550.24	1658.85
550.44	1679.33
550.64	1771.49
550.83	1687.53
551.03	1865.70
551.23	1757.16
551.42	1765.35
551.62	1748.97
551.82	1708.01
552.01	1773.54
552.21	1837.03
552.41	1791.97
552.60	1808.36
552.80	1693.67
553.00	1724.39
553.19	1791.97
553.39	1808.36
553.59	1605.61
553.78	1718.25
553.98	1853.41
554.17	1722.34
554.37	1705.96
554.57	1767.40
554.76	1568.74
554.96	1703.91
555.16	1660.90
555.35	1744.87
555.55	1705.96
555.75	1798.12
555.94	1753.06
556.14	1689.57
556.33	1767.40
556.53	1703.91
556.73	1689.57
556.92	1726.44
557.12	1804.26
557.32	1851.36
557.51	1812.45
557.71	1771.49
557.90	1828.84
558.10	1794.02
558.30	1675.24
558.49	1662.95
558.69	1742.82
558.88	1726.44
559.08	1734.63
559.28	1767.40
559.47	1742.82
559.67	1708.01
559.86	1802.21
560.06	1710.05
560.26	1710.05
560.45	1783.78
560.65	1775.59
560.84	1873.89
561.04	1763.30
561.24	1804.26
561.43	1712.10
561.63	1843.17
561.82	1722.34
562.02	1796.07
562.22	1703.91
562.41	1755.11
562.61	1785.83
562.80	1703.91
563.00	1900.52
563.19	1728.49
563.39	1740.77
563.59	1738.73
563.78	1681.38
563.98	1695.72
564.17	1759.21
564.37	1638.38
564.56	1740.77
564.76	1597.42
564.96	1918.95
565.15	1683.43
565.35	1906.66
565.54	1769.44
565.74	1736.68
565.93	1728.49
566.13	1652.71
566.32	1683.43
566.52	1705.96
566.71	1710.05
566.91	1908.71
567.11	1681.38
567.30	1697.77
567.50	1718.25
567.69	1757.16
567.89	1744.87
568.08	1673.19
568.28	1726.44
568.47	1681.38
568.67	1730.53
568.86	1753.06
569.06	1814.50
569.25	1724.39
569.45	1646.57
569.64	1675.24
569.84	1740.77
570.04	1630.18
570.23	1648.61
570.43	1681.38
570.62	1806.31
570.82	1884.13
571.01	1630.18
571.21	1710.05
571.40	1607.66
571.60	1748.97
571.79	1773.54
571.99	1683.43
572.18	1695.72
572.38	1761.25
572.57	1796.07
572.77	1771.49
572.96	1871.84
573.16	1699.81
573.35	1767.40
573.55	1820.64
573.74	1787.88
573.94	1787.88
574.13	1742.82
574.33	1882.08
574.52	1806.31
574.71	1722.34
574.91	1794.02
575.10	1638.38
575.30	1720.29
575.49	1701.86
575.69	1687.53
575.88	1777.64
576.08	1714.15
576.27	1787.88
576.47	1697.77
576.66	1806.31
576.86	1771.49
577.05	1832.93
577.25	1769.44
577.44	1789.92
577.64	1656.81
577.83	1814.50
578.02	1744.87
578.22	1847.27
578.41	1957.86
578.61	1746.92
578.80	1648.61
579.00	1708.01
579.19	1753.06
579.39	1791.97
579.58	1814.50
579.77	1730.53
579.97	1832.93
580.16	1757.16
580.36	1794.02
580.55	1841.12
580.75	1791.97
580.94	1691.62
581.13	1867.75
581.33	1767.40
581.52	1798.12
581.72	1820.64
581.91	1884.13
582.11	1714.15
582.30	1714.15
582.49	1763.30
582.69	1847.27
582.88	1802.21
583.08	1740.77
583.27	1837.03
583.47	1804.26
583.66	1759.21
583.85	1693.67
584.05	1693.67
584.24	1841.12
584.44	1812.45
584.63	1865.70
584.82	1837.03
585.02	1832.93
585.21	1849.32
585.41	1888.23
585.60	1796.07
585.79	1882.08
585.99	2009.06
586.18	1808.36
586.37	2185.18
586.57	3391.44
586.76	10041.19
586.96	24694.41
587.15	34582.00
587.34	40785.30
587.54	42526.07
587.73	36447.70
587.93	26527.34
588.12	21448.38
588.31	18345.70
588.51	16615.17
588.70	15275.80
588.89	14108.46
589.09	12549.95
589.28	11009.88
589.47	9420.66
589.67	7880.58
589.86	6549.40
590.06	4974.52
590.25	3919.81
590.44	3074.00
590.64	2510.81
590.83	2252.77
591.02	2052.06
591.22	1943.52
591.41	1845.22
591.60	1791.97
591.80	1894.37
591.99	1724.39
592.18	1697.77
592.38	1824.74
592.57	1671.14
592.76	1740.77
592.96	1785.83
593.15	1744.87
593.34	1824.74
593.54	1779.68
593.73	1767.40
593.92	1781.73
594.12	1757.16
594.31	1804.26
594.50	1798.12
594.70	1810.40
594.89	1945.57
595.08	1644.52
595.28	1773.54
595.47	1961.95
595.66	1785.83
595.86	1642.47
596.05	1753.06
596.24	1728.49
596.43	1814.50
596.63	1814.50
596.82	1738.73
597.01	1740.77
597.21	1869.80
597.40	1769.44
597.59	1761.25
597.79	1730.53
597.98	1697.77
598.17	1667.05
598.36	1767.40
598.56	1755.11
598.75	1708.01
598.94	1798.12
599.14	1789.92
599.33	1730.53
599.52	1748.97
599.71	1783.78
599.91	1818.60
600.10	1730.53
600.29	1671.14
600.48	1773.54
600.68	1738.73
600.87	1693.67
601.06	1763.30
601.26	1687.53
601.45	1798.12
601.64	1806.31
601.83	1775.59
602.03	1693.67
602.22	1683.43
602.41	1857.51
602.60	1884.13
602.80	1794.02
602.99	1742.82
603.18	1710.05
603.37	1767.40
603.57	1751.01
603.76	1732.58
603.95	1800.16
604.14	1708.01
604.34	1669.09
604.53	1763.30
604.72	1767.40
604.91	1644.52
605.10	1695.72
605.30	1634.28
605.49	1845.22
605.68	1771.49
605.87	1726.44
606.07	1675.24
606.26	1716.20
606.45	1787.88
606.64	1685.48
606.84	1695.72
607.03	1701.86
607.22	1730.53
607.41	1597.42
607.60	1716.20
607.80	1779.68
607.99	1673.19
608.18	1791.97
608.37	1738.73
608.56	1722.34
608.76	1773.54
608.95	1775.59
609.14	1783.78
609.33	1748.97
609.52	1783.78
609.72	1787.88
609.91	1767.40
610.10	1681.38
610.29	1822.69
610.48	1773.54
610.68	1755.11
610.87	1763.30
611.06	1748.97
611.25	1708.01
611.44	1787.88
611.63	1669.09
611.83	1796.07
612.02	1710.05
612.21	1722.34
612.40	1624.04
612.59	1574.89
612.79	1601.51
612.98	1708.01
613.17	1834.98
613.36	1751.01
613.55	1804.26
613.74	1697.77
613.93	1673.19
614.13	1669.09
614.32	1675.24
614.51	1732.58
614.70	1759.21
614.89	1679.33
615.08	1757.16
615.28	2054.11
615.47	1613.80
615.66	1652.71
615.85	1703.91
616.04	1796.07
616.23	1695.72
616.42	1699.81
616.62	1761.25
616.81	1820.64
617.00	1613.80
617.19	1787.88
617.38	1736.68
617.57	1757.16
617.76	1740.77
617.95	1767.40
618.15	1748.97
618.34	1808.36
618.53	1738.73
618.72	1800.16
618.91	1839.08
619.10	1789.92
619.29	1673.19
619.48	1701.86
619.68	1624.04
619.87	1744.87
620.06	1669.09
620.25	1695.72
620.44	1701.86
620.63	1785.83
620.82	1679.33
621.01	1716.20
621.20	1816.55
621.39	1753.06
621.59	1712.10
621.78	1667.05
621.97	1732.58
622.16	1708.01
622.35	1689.57
622.54	1812.45
622.73	1802.21
622.92	1662.95
623.11	1814.50
623.30	1699.81
623.49	1767.40
623.68	1765.35
623.88	1746.92
624.07	1656.81
624.26	1673.19
624.45	1769.44
624.64	1677.29
624.83	1742.82
625.02	1769.44
625.21	1705.96
625.40	1644.52
625.59	1818.60
625.78	1736.68
625.97	1744.87
626.16	1775.59
626.35	1693.67
626.54	1771.49
626.74	1798.12
626.93	1753.06
627.12	1683.43
627.31	1746.92
627.50	1705.96
627.69	1757.16
627.88	1744.87
628.07	1751.01
628.26	1675.24
628.45	1693.67
628.64	1691.62
628.83	1716.20
629.02	1642.47
629.21	1753.06
629.40	1751.01
629.59	1624.04
629.78	1699.81
629.97	1671.14
630.16	1804.26
630.35	1708.01
630.54	1730.53
630.73	1654.76
630.92	1634.28
631.11	1703.91
631.30	1681.38
631.49	1716.20
631.68	1652.71
631.87	1769.44
632.06	1640.42
632.25	1796.07
632.44	1685.48
632.63	1695.72
632.82	1720.29
633.01	1656.81
633.20	1689.57
633.39	1656.81
633.58	1617.90
633.77	1734.63
633.96	1689.57
634.15	1787.88
634.34	1697.77
634.53	1736.68
634.72	1705.96
634.91	1738.73
635.10	1757.16
635.29	1716.20
635.48	1740.77
635.67	1761.25
635.86	1701.86
636.05	1757.16
636.24	1757.16
636.43	1714.15
636.62	1689.57
636.81	1607.66
637.00	1751.01
637.19	1722.34
637.38	1718.25
637.57	1691.62
637.76	1681.38
637.95	1759.21
638.14	1636.33
638.33	1656.81
638.52	1705.96
638.71	1677.29
638.89	1613.80
639.08	1871.84
639.27	1759.21
639.46	1654.76
639.65	1794.02
639.84	1677.29
640.03	1746.92
640.22	1730.53
640.41	1851.36
640.60	1669.09
640.79	1691.62
640.98	1603.56
641.17	1787.88
641.36	1673.19
641.55	1681.38
641.74	1701.86
641.92	1687.53
642.11	1628.14
642.30	1640.42
642.49	1662.95
642.68	1726.44
642.87	1675.24
643.06	1759.21
643.25	1689.57
643.44	1677.29
643.63	1673.19
643.82	1791.97
644.00	1720.29
644.19	1662.95
644.38	1636.33
644.57	1697.77
644.76	1738.73
644.95	1632.23
645.14	1744.87
645.33	1740.77
645.52	1624.04
645.71	1607.66
645.89	1613.80
646.08	1712.10
646.27	1681.38
646.46	1902.56
646.65	1656.81
646.84	1642.47
647.03	1626.09
647.22	1746.92
647.40	1761.25
647.59	1744.87
647.78	1673.19
647.97	1695.72
648.16	1658.85
648.35	1808.36
648.54	1804.26
648.73	1667.05
648.91	1798.12
649.10	1742.82
649.29	1681.38
649.48	1742.82
649.67	1746.92
649.86	1740.77
650.05	1693.67
650.23	1693.67
650.42	1677.29
650.61	1724.39
650.80	1765.35
650.99	1841.12
651.18	1800.16
651.36	1781.73
651.55	1691.62
651.74	1763.30
651.93	1660.90
652.12	1751.01
652.31	1738.73
652.49	1730.53
652.68	1716.20
652.87	1853.41
653.06	1685.48
653.25	1787.88
653.44	1726.44
653.62	1775.59
653.81	1685.48
654.00	1677.29
654.19	1708.01
654.38	1787.88
654.56	1738.73
654.75	1685.48
654.94	1775.59
655.13	1753.06
655.32	1681.38
655.51	1775.59
655.69	1697.77
655.88	1777.64
656.07	1642.47
656.26	1763.30
656.45	1652.71
656.63	1703.91
656.82	1751.01
657.01	1779.68
657.20	1677.29
657.38	1802.21
657.57	1679.33
657.76	1599.46
657.95	1757.16
658.14	1710.05
658.32	1775.59
658.51	1640.42
658.70	1685.48
658.89	1738.73
659.08	1712.10
659.26	1787.88
659.45	1693.67
659.64	1777.64
659.83	1665.00
660.01	1828.84
660.20	1656.81
660.39	1808.36
660.58	1570.79
660.76	1759.21
660.95	1601.51
661.14	1732.58
661.33	1640.42
661.51	1714.15
661.70	1691.62
661.89	1720.29
662.08	1697.77
662.26	1712.10
662.45	1648.61
662.64	1834.98
662.83	1806.31
663.01	1714.15
663.20	1671.14
663.39	1738.73
663.58	1642.47
663.76	1689.57
663.95	1798.12
664.14	1599.46
664.32	1685.48
664.51	1658.85
664.70	1697.77
664.89	1685.48
665.07	1679.33
665.26	1787.88
665.45	1613.80
665.64	1775.59
665.82	1746.92
666.01	1789.92
666.20	1685.48
666.38	1775.59
666.57	1839.08
666.76	2160.61
666.95	4442.04
667.13	10551.14
667.32	15173.40
667.51	17823.47
667.69	19183.32
667.88	17475.32
668.07	12203.85
668.25	9498.48
668.44	8099.72
668.63	7204.75
668.81	6991.77
669.00	6287.26
669.19	5646.25
669.38	5107.63
669.56	4446.14
669.75	3860.42
669.94	3381.20
670.12	2852.82
670.31	2500.57
670.50	2287.58
670.68	2035.68
670.87	1884.13
671.06	1808.36
671.24	1796.07
671.43	1845.22
671.62	1777.64
671.80	1714.15
671.99	1804.26
672.18	1693.67
672.36	1859.56
672.55	1650.66
672.74	1656.81
672.92	1701.86
673.11	1740.77
673.29	1701.86
673.48	1779.68
673.67	1683.43
673.85	1742.82
674.04	1697.77
674.23	1701.86
674.41	1857.51
674.60	1736.68
674.79	1593.32
674.97	1724.39
675.16	1714.15
675.34	1759.21
675.53	1712.10
675.72	1726.44
675.90	1818.60
676.09	1685.48
676.28	1730.53
676.46	1628.14
676.65	1775.59
676.83	1669.09
677.02	1746.92
677.21	1660.90
677.39	1679.33
677.58	1597.42
677.77	1708.01
677.95	1644.52
678.14	1753.06
678.32	1611.75
678.51	1703.91
678.70	1818.60
678.88	1677.29
679.07	1726.44
679.25	1710.05
679.44	1697.77
679.63	1665.00
679.81	1789.92
680.00	1746.92
680.18	1800.16
680.37	1714.15
680.55	1722.34
680.74	1572.84
680.93	1591.27
681.11	1681.38
681.30	1722.34
681.48	1660.90
681.67	1642.47
681.85	1632.23
682.04	1708.01
682.23	1791.97
682.41	1714.15
682.60	1689.57
682.78	1763.30
682.97	1626.09
683.15	1708.01
683.34	1728.49
683.53	1796.07
683.71	1656.81
683.90	1748.97
684.08	1822.69
684.27	1693.67
684.45	1740.77
684.64	1746.92
684.82	1667.05
685.01	1714.15
685.19	1660.90
685.38	1705.96
685.57	1644.52
685.75	1636.33
685.94	1714.15
686.12	1613.80
686.31	1679.33
686.49	1796.07
686.68	1607.66
686.86	1683.43
687.05	1677.29
687.23	1832.93
687.42	1654.76
687.60	1644.52
687.79	1708.01
687.97	1853.41
688.16	1816.55
688.34	1791.97
688.53	1644.52
688.71	1722.34
688.90	1751.01
689.08	1679.33
689.27	1669.09
689.45	1755.11
689.64	1779.68
689.82	1703.91
690.01	1744.87
690.19	1755.11
690.38	1650.66
690.56	1828.84
690.75	1650.66
690.93	1708.01
691.12	1689.57
691.30	1763.30
691.49	1669.09
691.67	1685.48
691.86	1777.64
692.04	1652.71
692.23	1638.38
692.41	1689.57
692.60	1826.79
692.78	1800.16
692.97	1634.28
693.15	1845.22
693.34	1796.07
693.52	1763.30
693.71	1689.57
693.89	1710.05
694.08	1617.90
694.26	1691.62
694.44	1730.53
694.63	1665.00
694.81	1673.19
695.00	1609.70
695.18	1800.16
695.37	1834.98
695.55	1785.83
695.74	1705.96
695.92	1714.15
696.10	1812.45
696.29	1677.29
696.47	1689.57
696.66	1642.47
696.84	1681.38
697.03	1658.85
697.21	1877.99
697.40	2295.77
697.58	1765.35
697.76	1712.10
697.95	1595.37
698.13	1548.26
698.32	1703.91
698.50	1697.77
698.68	1783.78
698.87	1808.36
699.05	1783.78
699.24	1687.53
699.42	1691.62
699.61	1689.57
699.79	1669.09
699.97	1753.06
700.16	1609.70
700.34	1613.80
700.53	1697.77
700.71	1748.97
700.89	1763.30
701.08	1710.05
701.26	1806.31
701.45	2088.93
701.63	1708.01
701.81	1697.77
702.00	1695.72
702.18	1779.68
702.37	1650.66
702.55	1742.82
702.73	1681.38
702.92	1658.85
703.10	1771.49
703.28	1681.38
703.47	1712.10
703.65	1728.49
703.84	1785.83
704.02	1662.95
704.20	1877.99
704.39	1650.66
704.57	1658.85
704.75	1710.05
704.94	1798.12
705.12	1753.06
705.30	1740.77
705.49	2279.39
705.67	4622.27
705.86	9475.95
706.04	12719.93
706.22	14645.02
706.41	15247.13
706.59	14008.11
706.77	9697.13
706.96	7407.50
707.14	6625.18
707.32	6170.53
707.51	5504.94
707.69	4839.35
707.87	4220.86
708.06	3489.74
708.24	3039.19
708.42	2432.99
708.61	2230.24
708.79	1896.42
708.97	1896.42
709.16	1779.68
709.34	1728.49
709.52	1798.12
709.71	1701.86
709.89	1751.01
710.07	1675.24
710.26	1673.19
710.44	1734.63
710.62	1746.92
710.80	1730.53
710.99	1693.67
711.17	1791.97
711.35	1640.42
711.54	1716.20
711.72	1736.68
711.90	1763.30
712.09	1708.01
712.27	1642.47
712.45	1796.07
712.63	1683.43
712.82	1720.29
713.00	1665.00
713.18	1740.77
713.37	1736.68
713.55	1718.25
713.73	1712.10
713.91	1759.21
714.10	1628.14
714.28	1744.87
714.46	1751.01
714.65	1728.49
714.83	1785.83
715.01	1640.42
715.19	1644.52
715.38	1689.57
715.56	1755.11
715.74	1693.67
715.92	1632.23
716.11	1820.64
716.29	1542.12
716.47	1732.58
716.65	1703.91
716.84	1701.86
717.02	1824.74
717.20	1595.37
717.38	1638.38
717.57	1685.48
717.75	1712.10
717.93	1732.58
718.11	1740.77
718.30	1675.24
718.48	1740.77
718.66	1755.11
718.84	1816.55
719.03	1712.10
719.21	1712.10
719.39	1794.02
719.57	1708.01
719.75	1710.05
719.94	1615.85
720.12	1714.15
720.30	1738.73
720.48	1837.03
720.67	1656.81
720.85	1699.81
721.03	1634.28
721.21	1595.37
721.39	1781.73
721.58	1689.57
721.76	1624.04
721.94	1759.21
722.12	1730.53
722.30	1732.58
722.49	1644.52
722.67	1720.29
722.85	1759.21
723.03	1617.90
723.21	1609.70
723.40	1714.15
723.58	1730.53
723.76	1722.34
723.94	1837.03
724.12	1675.24
724.30	1734.63
724.49	1683.43
724.67	1691.62
724.85	1697.77
725.03	1626.09
725.21	1734.63
725.40	1675.24
725.58	1640.42
725.76	1722.34
725.94	1771.49
726.12	1644.52
726.30	1701.86
726.49	1675.24
726.67	1705.96
726.85	1734.63
727.03	1732.58
727.21	2090.98
727.39	2848.72
727.57	3864.52
727.76	4143.04
727.94	4417.47
728.12	4370.37
728.30	3649.48
728.48	2983.89
728.66	2777.05
728.84	2435.03
729.03	2363.36
729.21	2052.06
729.39	1943.52
729.57	1865.70
729.75	1759.21
729.93	1865.70
730.11	1681.38
730.30	1726.44
730.48	1656.81
730.66	1861.60
730.84	1789.92
731.02	1714.15
731.20	1677.29
731.38	1683.43
731.56	1632.23
731.74	1671.14
731.93	1742.82
732.11	1738.73
732.29	1675.24
732.47	1759.21
732.65	1746.92
732.83	1812.45
733.01	1789.92
733.19	1685.48
733.37	1779.68
733.56	1730.53
733.74	1699.81
733.92	1847.27
734.10	1628.14
734.28	1779.68
734.46	1609.70
734.64	1591.27
734.82	1605.61
735.00	1636.33
735.18	1640.42
735.36	1660.90
735.54	1697.77
735.73	1767.40
735.91	1712.10
736.09	1710.05
736.27	1740.77
736.45	1714.15
736.63	1607.66
736.81	1720.29
736.99	1751.01
737.17	1873.89
737.35	1617.90
737.53	1761.25
737.71	1656.81
737.89	1740.77
738.07	1662.95
738.25	1570.79
738.43	1669.09
738.61	1763.30
738.80	1695.72
738.98	1648.61
739.16	1581.03
739.34	1669.09
739.52	1837.03
739.70	1628.14
739.88	1734.63
740.06	1720.29
740.24	1570.79
740.42	1746.92
740.60	1626.09
740.78	1615.85
740.96	1658.85
741.14	1689.57
741.32	1701.86
741.50	1619.94
741.68	1867.75
741.86	1701.86
742.04	1685.48
742.22	1697.77
742.40	1781.73
742.58	1738.73
742.76	1640.42
742.94	1753.06
743.12	1574.89
743.30	1691.62
743.48	1685.48
743.66	1624.04
743.84	1689.57
744.02	1687.53
744.20	1689.57
744.38	1624.04
744.56	1646.57
744.74	1779.68
744.92	1697.77
745.10	1783.78
745.28	1769.44
745.46	1769.44
745.64	1710.05
745.82	1718.25
746.00	1724.39
746.18	1685.48
746.36	1660.90
746.54	1703.91
746.72	1757.16
746.90	1632.23
747.08	1789.92
747.26	1695.72
747.44	1746.92
747.62	1710.05
747.80	1722.34
747.98	1785.83
748.15	1667.05
748.33	1724.39
748.51	1660.90
748.69	1699.81
748.87	1681.38
749.05	1689.57
749.23	1761.25
749.41	1673.19
749.59	1746.92
749.77	1771.49
749.95	1603.56
750.13	1693.67
750.31	1726.44
750.49	1738.73
750.67	1771.49
750.85	1769.44
751.03	1689.57
751.20	1896.42
751.38	1726.44
751.56	1665.00
751.74	1695.72
751.92	1601.51
752.10	1572.84
752.28	1781.73
752.46	1714.15
752.64	1759.21
752.82	1714.15
753.00	1761.25
753.18	1611.75
753.35	1703.91
753.53	1763.30
753.71	1669.09
753.89	1736.68
754.07	1652.71
754.25	1812.45
754.43	1669.09
754.61	1636.33
754.79	1671.14
754.97	1730.53
755.14	1808.36
755.32	1634.28
755.50	1724.39
755.68	1654.76
755.86	1599.46
756.04	1683.43
756.22	1613.80
756.40	1691.62
756.57	1753.06
756.75	1632.23
756.93	1718.25
757.11	1773.54
757.29	1769.44
757.47	1687.53
757.65	1609.70
757.82	1585.13
758.00	1632.23
758.18	1681.38
758.36	1679.33
758.54	1734.63
758.72	1673.19
758.90	1755.11
759.07	1671.14
759.25	1634.28
759.43	1773.54
759.61	1607.66
759.79	2174.94
759.97	1673.19
760.15	1714.15
760.32	1736.68
760.50	1738.73
760.68	1757.16
760.86	1585.13
761.04	1771.49
761.22	1716.20
761.39	1697.77
761.57	1755.11
761.75	1701.86
761.93	1712.10
762.11	1720.29
762.28	1736.68
762.46	1587.18
762.64	1693.67
762.82	1605.61
763.00	1679.33
763.18	1701.86
763.35	1632.23
763.53	1734.63
763.71	1660.90
763.89	1746.92
764.07	1775.59
764.24	1708.01
764.42	1751.01
764.60	1699.81
764.78	1738.73
764.96	1757.16
765.13	1759.21
765.31	1705.96
765.49	1736.68
765.67	1695.72
765.84	1681.38
766.02	1679.33
766.20	1683.43
766.38	1759.21
766.56	1746.92
766.73	1759.21
766.91	1710.05
767.09	1656.81
767.27	1755.11
767.44	1677.29
767.62	1753.06
767.80	1675.24
767.98	1724.39
768.15	1714.15
768.33	1751.01
768.51	1802.21
768.69	1808.36
768.87	1693.67
769.04	1732.58
769.22	1904.61
769.40	1896.42
769.58	1837.03
769.75	1742.82
769.93	1714.15
770.11	1687.53
770.28	1656.81
770.46	1712.10
770.64	1703.91
770.82	1732.58
770.99	1746.92
771.17	1726.44
771.35	1656.81
771.53	1705.96
771.70	1695.72
771.88	1720.29
772.06	1705.96
772.23	1710.05
772.41	1716.20
772.59	1732.58
772.77	1628.14
772.94	1742.82
773.12	1718.25
773.30	1632.23
773.47	1761.25
773.65	1636.33
773.83	1769.44
774.01	1681.38
774.18	1589.22
774.36	1714.15
774.54	1677.29
774.71	1726.44
774.89	1619.94
775.07	1585.13
775.24	1619.94
775.42	1615.85
775.60	1824.74
775.78	1732.58
775.95	1648.61
776.13	1665.00
776.31	1566.70
776.48	1710.05
776.66	1771.49
776.84	1693.67
777.01	1624.04
777.19	1667.05
777.37	1718.25
777.54	1728.49
777.72	1771.49
777.90	1763.30
778.07	1720.29
778.25	1923.04
778.43	1765.35
778.60	1646.57
778.78	1740.77
778.96	1806.31
779.13	1607.66
779.31	1742.82
779.49	1626.09
779.66	1742.82
779.84	1734.63
780.01	1646.57
780.19	1650.66
780.37	1812.45
780.54	1691.62
780.72	1660.90
780.90	1714.15
781.07	1652.71
781.25	1714.15
781.43	1804.26
781.60	1744.87
781.78	1748.97
781.95	1644.52
782.13	1603.56
782.31	1728.49
782.48	1658.85
782.66	1693.67
782.83	1804.26
783.01	1775.59
783.19	1689.57
783.36	1722.34
783.54	1609.70
783.72	1736.68
783.89	1685.48
784.07	1748.97
784.24	1673.19
784.42	1755.11
784.60	1677.29
784.77	1673.19
784.95	1628.14
785.12	1671.14
785.30	1718.25
785.47	1603.56
785.65	1669.09
785.83	1748.97
786.00	1611.75
786.18	1685.48
786.35	1595.37
786.53	1652.71
786.71	1746.92
786.88	1789.92
787.06	1724.39
787.23	1683.43
787.41	1730.53
787.58	1646.57
787.76	1624.04
787.94	1691.62
788.11	1636.33
788.29	1681.38
788.46	1673.19
788.64	1705.96
788.81	1576.94
788.99	1646.57
789.16	1636.33
789.34	1677.29
789.52	1683.43
789.69	1689.57
789.87	1613.80
790.04	1660.90
790.22	1683.43
790.39	1853.41
790.57	1601.51
790.74	1705.96
790.92	1761.25
791.09	1648.61
791.27	1742.82
791.44	1806.31
791.62	1658.85
791.79	1779.68
791.97	1703.91
792.15	1859.56
792.32	1724.39
792.50	1746.92
792.67	1687.53
792.85	1757.16
793.02	1726.44
793.20	1738.73
793.37	1591.27
793.55	1697.77
793.72	1687.53
793.90	1710.05
794.07	1607.66
794.25	1609.70
794.42	1714.15
794.60	1576.94
794.77	1716.20
794.95	1787.88
795.12	1757.16
795.30	1736.68
795.47	1632.23
795.65	1843.17
795.82	1734.63
796.00	1691.62
796.17	1673.19
796.34	1660.90
796.52	1751.01
796.69	1697.77
796.87	1755.11
797.04	1693.67
797.22	1701.86
797.39	1722.34
797.57	1789.92
797.74	1708.01
797.92	1701.86
798.09	1593.32
798.27	1744.87
798.44	1701.86
798.62	1619.94
798.79	1726.44
798.96	1742.82
799.14	1753.06
799.31	1808.36
799.49	1755.11
799.66	1681.38
799.84	1705.96
800.01	1644.52
800.19	1660.90
800.36	1624.04
800.53	1718.25
800.71	1703.91
800.88	1748.97
801.06	1648.61
801.23	1671.14
801.41	1677.29
801.58	1650.66
801.75	1619.94
801.93	1720.29
802.10	1769.44
802.28	1646.57
802.45	1673.19
802.63	1755.11
802.80	1714.15
802.97	1716.20
803.15	1718.25
803.32	1658.85
803.50	1595.37
803.67	1681.38
803.84	1560.55
804.02	1689.57
804.19	1658.85
804.37	1619.94
804.54	1701.86
804.71	1757.16
804.89	1710.05
805.06	1687.53
805.24	1650.66
805.41	1671.14
805.58	1679.33
805.76	1849.32
805.93	1650.66
806.10	1822.69
806.28	1703.91
806.45	1730.53
806.63	1765.35
806.80	1722.34
806.97	1757.16
807.15	1728.49
807.32	1748.97
807.49	1765.35
807.67	1636.33
807.84	1759.21
808.01	1595.37
808.19	1841.12
808.36	1755.11
808.54	1665.00
808.71	1605.61
808.88	1759.21
809.06	1673.19
809.23	1789.92
809.40	1683.43
809.58	1730.53
809.75	1675.24
809.92	1652.71
810.10	1859.56
810.27	1689.57
810.44	1742.82
810.62	1751.01
810.79	1708.01
810.96	1632.23
811.14	1660.90
811.31	1673.19
811.48	1730.53
811.66	1615.85
811.83	1736.68
812.00	1759.21
812.18	1718.25
812.35	1804.26
812.52	1675.24
812.69	1703.91
812.87	1744.87
813.04	1718.25
813.21	1722.34
813.39	1644.52
813.56	1646.57
813.73	1828.84
813.91	1699.81
814.08	1703.91
814.25	1722.34
814.42	1652.71
814.60	1695.72
814.77	1693.67
814.94	1726.44
815.12	1742.82
815.29	1773.54
815.46	1689.57
815.63	1665.00
815.81	1708.01
815.98	1683.43
816.15	1689.57
816.33	1777.64
816.50	1677.29
816.67	1742.82
816.84	1667.05
817.02	1714.15
817.19	1763.30
817.36	1673.19
817.53	1701.86
817.71	1652.71
817.88	1724.39
818.05	1738.73
818.22	1699.81
818.40	1816.55
818.57	1705.96
818.74	1648.61
818.91	1734.63
819.09	1685.48
819.26	1712.10
819.43	1746.92
819.60	1689.57
819.78	1763.30
819.95	1708.01
820.12	1640.42
820.29	1708.01
820.47	1689.57
820.64	1679.33
820.81	1634.28
820.98	1697.77
821.15	1628.14
821.33	1796.07
821.50	1662.95
821.67	1746.92
821.84	1660.90
822.02	1798.12
822.19	1816.55
822.36	1714.15
822.53	1693.67
822.70	1583.08
822.88	1652.71
823.05	1802.21
823.22	1665.00
823.39	1714.15
823.56	1777.64
823.74	1732.58
823.91	1701.86
824.08	1656.81
824.25	1558.50
824.42	1753.06
824.60	1673.19
824.77	1738.73
824.94	1720.29
825.11	1673.19
825.28	1673.19
825.45	1703.91
825.63	1652.71
825.80	1624.04
825.97	1720.29
826.14	1681.38
826.31	1640.42
826.48	1679.33
826.66	1652.71
826.83	1632.23
827.00	1763.30
827.17	1728.49
827.34	1654.76
827.51	1705.96
827.69	1667.05
827.86	1667.05
828.03	1757.16
828.20	1689.57
828.37	1665.00
828.54	1712.10
828.71	1617.90
828.89	1816.55
829.06	1701.86
829.23	1787.88
829.40	1654.76
829.57	1683.43
829.74	1804.26
829.91	1570.79
830.09	1632.23
830.26	1740.77
830.43	1759.21
830.60	1646.57
830.77	1685.48
830.94	1744.87
831.11	1744.87
831.28	1658.85
831.46	1804.26
831.63	1683.43
831.80	1697.77
831.97	1708.01
832.14	1742.82
832.31	1734.63
832.48	1748.97
832.65	1708.01
832.82	1685.48
832.99	1775.59
833.17	1687.53
833.34	1757.16
833.51	1765.35
833.68	1630.18
833.85	1740.77
834.02	1636.33
834.19	1679.33
834.36	1593.32
834.53	1691.62
834.70	1818.60
834.87	1767.40
835.04	1689.57
835.22	1710.05
835.39	1673.19
835.56	1691.62
835.73	1652.71
835.90	1708.01
836.07	1660.90
836.24	1685.48
836.41	1683.43
836.58	1703.91
836.75	1691.62
836.92	1744.87
837.09	1642.47
837.26	1816.55
837.43	1716.20
837.60	1763.30
837.77	1660.90
837.94	1718.25
838.12	1804.26
838.29	1759.21
838.46	1617.90
838.63	1605.61
838.80	1779.68
838.97	1736.68
839.14	1746.92
839.31	1644.52
839.48	1734.63
839.65	1740.77
839.82	1732.58
839.99	1716.20
840.16	1681.38
840.33	1599.46
840.50	1667.05
840.67	1669.09
840.84	1615.85
841.01	1708.01
841.18	1642.47
841.35	1673.19
841.52	1830.88
841.69	1802.21
841.86	1744.87
842.03	1662.95
842.20	1712.10
842.37	1705.96
842.54	1755.11
842.71	1716.20
842.88	1652.71
843.05	1681.38
843.22	1632.23
843.39	1718.25
843.56	1685.48
843.73	1724.39
843.90	1689.57
844.07	1724.39
844.24	1730.53
844.41	1726.44
844.58	1761.25
844.75	1630.18
844.92	1718.25
845.09	1687.53
845.26	1687.53
845.43	1742.82
845.60	1757.16
845.77	1761.25
845.94	1705.96
846.10	1759.21
846.27	1634.28
846.44	1595.37
846.61	1628.14
846.78	1732.58
846.95	1699.81
847.12	1638.38
847.29	1648.61
847.46	1611.75
847.63	1712.10
847.80	1630.18
847.97	1734.63
848.14	1853.41
848.31	1744.87
848.48	1656.81
848.65	1658.85
848.82	1581.03
848.98	1820.64
849.15	1753.06
849.32	1773.54
849.49	1777.64
849.66	1619.94
849.83	1658.85
850.00	1601.51
850.17	1677.29
850.34	1781.73
850.51	1689.57
850.68	1710.05
850.85	1757.16
851.01	1626.09
851.18	1685.48
851.35	1701.86
851.52	1669.09
851.69	1822.69
851.86	1578.98
852.03	1687.53
852.20	1726.44
852.37	1751.01
852.53	1705.96
852.70	1667.05
852.87	1699.81
853.04	1757.16
853.21	1712.10
853.38	1781.73
853.55	1785.83
853.72	1787.88
853.89	1591.27
854.05	1695.72
854.22	1710.05
854.39	1644.52
854.56	1755.11
854.73	1806.31
854.90	1597.42
855.07	1648.61
855.23	1648.61
855.40	1669.09
855.57	1675.24
855.74	1568.74
855.91	1828.84
856.08	1607.66
856.25	1697.77
856.41	1730.53
856.58	1626.09
856.75	1724.39
856.92	1705.96
857.09	1789.92
857.26	1609.70
857.42	1744.87
857.59	1726.44
857.76	1705.96
857.93	1638.38
858.10	1732.58
858.27	1691.62
858.43	1667.05
858.60	1654.76
858.77	1607.66
858.94	1697.77
859.11	1814.50
859.27	1673.19
859.44	1628.14
859.61	1796.07
859.78	1728.49
859.95	1708.01
860.12	1714.15
860.28	1787.88
860.45	1812.45
860.62	1673.19
860.79	1757.16
860.95	1660.90
861.12	1630.18
861.29	1642.47
861.46	1687.53
861.63	1697.77
861.79	1683.43
861.96	1681.38
862.13	1615.85
862.30	1804.26
862.47	1640.42
862.63	1669.09
862.80	1695.72
862.97	1751.01
863.14	1718.25
863.30	1742.82
863.47	1587.18
863.64	1732.58
863.81	1722.34
863.97	1689.57
864.14	1671.14
864.31	1759.21
864.48	1818.60
864.65	1660.90
864.81	1746.92
864.98	1699.81
865.15	1726.44
865.32	1800.16
865.48	1728.49
865.65	1818.60
865.82	1669.09
865.98	1771.49
866.15	1691.62
866.32	1648.61
866.49	1695.72
866.65	1757.16
866.82	1652.71
866.99	1716.20
867.16	1665.00
867.32	1599.46
867.49	1660.90
867.66	1681.38
867.83	1677.29
867.99	1675.24
868.16	1673.19
868.33	1613.80
868.49	1738.73
868.66	1724.39
868.83	1730.53
868.99	1667.05
869.16	1746.92
869.33	1740.77
869.50	1755.11
869.66	1712.10
869.83	1714.15
870.00	1597.42
870.16	1736.68
870.33	1718.25
870.50	1742.82
870.66	1744.87
870.83	1855.46
871.00	1613.80
871.17	1783.78
871.33	1726.44
871.50	1714.15
871.67	1701.86
871.83	1660.90
872.00	1818.60
872.17	1656.81
872.33	1722.34
872.50	1726.44
872.67	1683.43
872.83	1722.34
873.00	1730.53
873.17	1689.57
873.33	1781.73
873.50	1748.97
873.67	1583.08
873.83	1662.95
874.00	1689.57
874.16	1742.82
874.33	1671.14
874.50	1652.71
874.66	1697.77
874.83	1710.05
875.00	1740.77
875.16	1771.49
875.33	1677.29
875.50	1722.34
875.66	1677.29
875.83	1732.58
875.99	1794.02
876.16	1683.43
876.33	1552.36
876.49	1753.06
876.66	1673.19
876.83	1759.21
876.99	1619.94
877.16	1652.71
877.32	1712.10
877.49	1710.05
877.66	1726.44
877.82	1761.25
877.99	1765.35
878.15	1863.65
878.32	1660.90
878.49	1652.71
878.65	1675.24
878.82	1775.59
878.98	1679.33
879.15	1751.01
879.32	1734.63
879.48	1677.29
879.65	1691.62
879.81	1705.96
879.98	1628.14
880.15	1660.90
880.31	1724.39
880.48	1660.90
880.64	1746.92
880.81	1751.01
880.97	1845.22
881.14	1767.40
881.31	1648.61
881.47	1847.27
881.64	1730.53
881.80	1583.08
881.97	1742.82
882.13	1771.49
882.30	1773.54
882.47	1585.13
882.63	1611.75
882.80	1673.19
882.96	1615.85
883.13	1728.49
883.29	1675.24
883.46	1740.77
883.62	1751.01
883.79	1640.42
883.95	1722.34
884.12	1742.82
884.29	1832.93
884.45	1742.82
884.62	1734.63
884.78	1716.20
884.95	1759.21
885.11	1624.04
885.28	1685.48
885.44	1689.57
885.61	1658.85
885.77	1767.40
885.94	1755.11
886.10	1675.24
886.27	1658.85
886.43	1806.31
886.60	1724.39
886.76	1771.49
886.93	1640.42
887.09	1648.61
887.26	1583.08
887.42	1736.68
887.59	1759.21
887.75	1796.07
887.92	1699.81
888.08	1777.64
888.25	1796.07
888.41	1699.81
888.58	1759.21
888.74	1634.28
888.91	1716.20
>>>>>End Processed Spectral Data<<<<<
