SpectraSuite Data File
++++++++++++++++++++++++++++++++++++
Date: Mon Jun 06 12:51:37 CEST 2016
User: root
Dark Spectrum Present: No
Reference Spectrum Present: No
Number of Sampled Component Spectra: 1
Spectrometers: USB4C02835
Integration Time (usec): 100000 (USB4C02835)
Spectra Averaged: 1 (USB4C02835)
Boxcar Smoothing: 0 (USB4C02835)
Correct for Electrical Dark: No (USB4C02835)
Strobe/Lamp Enabled: No (USB4C02835)
Correct for Detector Non-linearity: No (USB4C02835)
Correct for Stray Light: No (USB4C02835)
Number of Pixels in Processed Spectrum: 3648
>>>>>Begin Processed Spectral Data<<<<<
177.47	1439.72
177.69	1439.72
177.91	1439.72
178.13	1533.93
178.36	1449.96
178.58	1644.52
178.80	1771.49
179.02	1644.52
179.24	1722.34
179.46	1621.99
179.68	1785.83
179.90	1728.49
180.13	1667.05
180.35	1630.18
180.57	1693.67
180.79	1755.11
181.01	1675.24
181.23	1800.16
181.45	1722.34
181.67	1765.35
181.90	1728.49
182.12	1677.29
182.34	1621.99
182.56	1685.48
182.78	1673.19
183.00	1587.18
183.22	1710.05
183.44	1554.41
183.66	1910.75
183.89	1822.69
184.11	1673.19
184.33	1751.01
184.55	1767.40
184.77	1738.73
184.99	1681.38
185.21	1779.68
185.43	1757.16
185.65	1679.33
185.87	1689.57
186.10	1755.11
186.32	1849.32
186.54	1712.10
186.76	1671.14
186.98	1779.68
187.20	1736.68
187.42	1701.86
187.64	1734.63
187.86	1771.49
188.08	1716.20
188.30	1671.14
188.52	1742.82
188.75	1734.63
188.97	1685.48
189.19	1628.14
189.41	1648.61
189.63	1712.10
189.85	1794.02
190.07	1595.37
190.29	1634.28
190.51	1697.77
190.73	1658.85
190.95	1828.84
191.17	1697.77
191.39	1621.99
191.61	1658.85
191.84	1634.28
192.06	1783.78
192.28	1613.80
192.50	1857.51
192.72	1742.82
192.94	1673.19
193.16	1744.87
193.38	1691.62
193.60	1683.43
193.82	1718.25
194.04	1763.30
194.26	1720.29
194.48	1763.30
194.70	1671.14
194.92	1708.01
195.14	1828.84
195.36	1656.81
195.58	1693.67
195.80	1679.33
196.02	1619.94
196.24	1722.34
196.46	1679.33
196.69	1720.29
196.91	1814.50
197.13	1689.57
197.35	1650.66
197.57	1753.06
197.79	1662.95
198.01	1724.39
198.23	1728.49
198.45	1748.97
198.67	1587.18
198.89	1703.91
199.11	1753.06
199.33	1742.82
199.55	1599.46
199.77	1712.10
199.99	1787.88
200.21	1628.14
200.43	1738.73
200.65	1656.81
200.87	1626.09
201.09	1636.33
201.31	1652.71
201.53	1685.48
201.75	1708.01
201.97	1689.57
202.19	1732.58
202.41	1791.97
202.63	1818.60
202.85	1689.57
203.07	1677.29
203.29	1689.57
203.51	1650.66
203.73	1673.19
203.95	1871.84
204.17	1701.86
204.39	1736.68
204.61	1662.95
204.83	1658.85
205.05	1748.97
205.27	1775.59
205.49	1808.36
205.71	1728.49
205.93	1640.42
206.15	1644.52
206.37	1710.05
206.59	1669.09
206.81	1656.81
207.03	1648.61
207.25	1644.52
207.47	1798.12
207.69	1624.04
207.91	1826.79
208.13	1763.30
208.34	1691.62
208.56	1642.47
208.78	1671.14
209.00	1685.48
209.22	1607.66
209.44	1669.09
209.66	1748.97
209.88	1755.11
210.10	1619.94
210.32	1677.29
210.54	1722.34
210.76	1679.33
210.98	1736.68
211.20	1562.60
211.42	1716.20
211.64	1783.78
211.86	1765.35
212.08	1728.49
212.30	1705.96
212.52	1681.38
212.74	1673.19
212.96	1648.61
213.17	1765.35
213.39	1681.38
213.61	1789.92
213.83	1722.34
214.05	1605.61
214.27	1746.92
214.49	1548.26
214.71	1646.57
214.93	1757.16
215.15	1595.37
215.37	1730.53
215.59	1652.71
215.81	1679.33
216.03	1783.78
216.24	1740.77
216.46	1658.85
216.68	1771.49
216.90	1748.97
217.12	1730.53
217.34	1738.73
217.56	1732.58
217.78	1755.11
218.00	1769.44
218.22	1673.19
218.44	1705.96
218.66	1675.24
218.87	1738.73
219.09	1718.25
219.31	1718.25
219.53	1652.71
219.75	1689.57
219.97	1751.01
220.19	1802.21
220.41	1695.72
220.63	1708.01
220.85	1720.29
221.06	1652.71
221.28	1738.73
221.50	1720.29
221.72	1738.73
221.94	1730.53
222.16	1689.57
222.38	1732.58
222.60	1763.30
222.82	1662.95
223.03	1738.73
223.25	1640.42
223.47	1734.63
223.69	1865.70
223.91	1705.96
224.13	1722.34
224.35	1646.57
224.57	1718.25
224.78	1724.39
225.00	1609.70
225.22	1617.90
225.44	1722.34
225.66	1730.53
225.88	1689.57
226.10	1777.64
226.32	1636.33
226.53	1777.64
226.75	1652.71
226.97	1673.19
227.19	1705.96
227.41	1703.91
227.63	1701.86
227.85	1615.85
228.06	1693.67
228.28	1742.82
228.50	1763.30
228.72	1660.90
228.94	1665.00
229.16	1615.85
229.37	1621.99
229.59	1689.57
229.81	1789.92
230.03	1626.09
230.25	1613.80
230.47	1587.18
230.69	1585.13
230.90	1751.01
231.12	1636.33
231.34	1705.96
231.56	1763.30
231.78	1628.14
232.00	1732.58
232.21	1671.14
232.43	1679.33
232.65	1595.37
232.87	1677.29
233.09	1650.66
233.30	1603.56
233.52	1740.77
233.74	1738.73
233.96	1658.85
234.18	1722.34
234.40	1654.76
234.61	1785.83
234.83	1587.18
235.05	1652.71
235.27	1841.12
235.49	1816.55
235.70	1740.77
235.92	1779.68
236.14	1705.96
236.36	1796.07
236.58	1681.38
236.79	1746.92
237.01	1773.54
237.23	1695.72
237.45	1765.35
237.67	1626.09
237.88	1660.90
238.10	1863.65
238.32	1593.32
238.54	1712.10
238.76	1644.52
238.97	1779.68
239.19	1671.14
239.41	1798.12
239.63	1691.62
239.85	1722.34
240.06	1687.53
240.28	1714.15
240.50	1802.21
240.72	1712.10
240.93	1597.42
241.15	1773.54
241.37	1667.05
241.59	1796.07
241.81	1681.38
242.02	1613.80
242.24	1705.96
242.46	1732.58
242.68	1736.68
242.89	1714.15
243.11	1726.44
243.33	1720.29
243.55	1728.49
243.76	1730.53
243.98	1621.99
244.20	1773.54
244.42	1665.00
244.64	1681.38
244.85	1650.66
245.07	1644.52
245.29	1697.77
245.51	1632.23
245.72	1724.39
245.94	1716.20
246.16	1714.15
246.38	1673.19
246.59	1640.42
246.81	1656.81
247.03	1658.85
247.24	1538.02
247.46	1705.96
247.68	1699.81
247.90	1742.82
248.11	1685.48
248.33	1701.86
248.55	1673.19
248.77	1679.33
248.98	1722.34
249.20	1902.56
249.42	1718.25
249.64	1712.10
249.85	1609.70
250.07	1775.59
250.29	1724.39
250.50	1773.54
250.72	1564.65
250.94	1751.01
251.16	1886.18
251.37	1855.46
251.59	1755.11
251.81	1751.01
252.02	1763.30
252.24	1605.61
252.46	1748.97
252.68	1650.66
252.89	1687.53
253.11	1617.90
253.33	1783.78
253.54	1726.44
253.76	1650.66
253.98	1697.77
254.20	1718.25
254.41	1675.24
254.63	1669.09
254.85	1636.33
255.06	1642.47
255.28	1746.92
255.50	1699.81
255.71	1687.53
255.93	1634.28
256.15	1691.62
256.36	1689.57
256.58	1681.38
256.80	1722.34
257.02	1660.90
257.23	1716.20
257.45	1681.38
257.67	1714.15
257.88	1630.18
258.10	1689.57
258.32	1656.81
258.53	1665.00
258.75	1767.40
258.97	1693.67
259.18	1701.86
259.40	1701.86
259.62	1796.07
259.83	1798.12
260.05	1738.73
260.27	2033.63
260.48	1718.25
260.70	1656.81
260.92	1691.62
261.13	1689.57
261.35	1660.90
261.57	1755.11
261.78	1599.46
262.00	1621.99
262.22	1701.86
262.43	1605.61
262.65	1695.72
262.86	1740.77
263.08	1886.18
263.30	1658.85
263.51	1624.04
263.73	1746.92
263.95	1769.44
264.16	1607.66
264.38	1603.56
264.60	1757.16
264.81	1669.09
265.03	1691.62
265.25	1701.86
265.46	1642.47
265.68	1837.03
265.89	1746.92
266.11	1667.05
266.33	1705.96
266.54	1777.64
266.76	1683.43
266.98	1804.26
267.19	1775.59
267.41	1757.16
267.62	1673.19
267.84	1654.76
268.06	1738.73
268.27	1703.91
268.49	1728.49
268.70	1869.80
268.92	1656.81
269.14	1673.19
269.35	1632.23
269.57	1701.86
269.79	1685.48
270.00	1615.85
270.22	1818.60
270.43	1701.86
270.65	1576.94
270.87	1787.88
271.08	1763.30
271.30	1716.20
271.51	1677.29
271.73	1710.05
271.95	1794.02
272.16	1763.30
272.38	1697.77
272.59	1730.53
272.81	1705.96
273.02	1726.44
273.24	1687.53
273.46	1753.06
273.67	1669.09
273.89	1710.05
274.10	1660.90
274.32	1783.78
274.54	1726.44
274.75	1673.19
274.97	1665.00
275.18	1773.54
275.40	1710.05
275.61	1691.62
275.83	1691.62
276.05	1638.38
276.26	1660.90
276.48	1767.40
276.69	1671.14
276.91	1669.09
277.12	1720.29
277.34	1712.10
277.55	1818.60
277.77	1724.39
277.99	1667.05
278.20	1591.27
278.42	1599.46
278.63	1665.00
278.85	1705.96
279.06	1662.95
279.28	1724.39
279.49	1669.09
279.71	1740.77
279.93	1673.19
280.14	1613.80
280.36	1660.90
280.57	1669.09
280.79	1679.33
281.00	1683.43
281.22	1660.90
281.43	1740.77
281.65	1599.46
281.86	1660.90
282.08	1787.88
282.29	1802.21
282.51	1523.69
282.73	1658.85
282.94	1673.19
283.16	1765.35
283.37	1814.50
283.59	1722.34
283.80	1712.10
284.02	1757.16
284.23	1800.16
284.45	1632.23
284.66	1583.08
284.88	1640.42
285.09	1726.44
285.31	1648.61
285.52	1744.87
285.74	1617.90
285.95	1787.88
286.17	1701.86
286.38	1753.06
286.60	1701.86
286.81	1718.25
287.03	1742.82
287.24	1757.16
287.46	1705.96
287.67	1638.38
287.89	1837.03
288.10	1691.62
288.32	1699.81
288.53	1830.88
288.75	1701.86
288.96	1779.68
289.18	1656.81
289.39	1679.33
289.61	1816.55
289.82	1851.36
290.04	1785.83
290.25	1603.56
290.47	1662.95
290.68	1699.81
290.90	1785.83
291.11	1576.94
291.33	1687.53
291.54	1615.85
291.76	1646.57
291.97	1769.44
292.18	1718.25
292.40	1675.24
292.61	1699.81
292.83	1853.41
293.04	1730.53
293.26	1757.16
293.47	1679.33
293.69	1662.95
293.90	1703.91
294.12	1748.97
294.33	1642.47
294.55	1675.24
294.76	1839.08
294.97	1800.16
295.19	1787.88
295.40	1697.77
295.62	1720.29
295.83	1777.64
296.05	1611.75
296.26	1675.24
296.48	1654.76
296.69	1765.35
296.90	1675.24
297.12	1757.16
297.33	1787.88
297.55	1638.38
297.76	1699.81
297.98	1816.55
298.19	1738.73
298.41	1689.57
298.62	1624.04
298.83	1767.40
299.05	1699.81
299.26	1654.76
299.48	1644.52
299.69	1781.73
299.90	1675.24
300.12	1615.85
300.33	1726.44
300.55	1740.77
300.76	1724.39
300.98	1650.66
301.19	1705.96
301.40	1619.94
301.62	1607.66
301.83	1669.09
302.05	1656.81
302.26	1669.09
302.47	1697.77
302.69	1658.85
302.90	1660.90
303.12	1558.50
303.33	1677.29
303.54	1775.59
303.76	1730.53
303.97	1630.18
304.19	1734.63
304.40	1703.91
304.61	1730.53
304.83	1808.36
305.04	1816.55
305.26	1734.63
305.47	1687.53
305.68	1734.63
305.90	1697.77
306.11	1746.92
306.33	1705.96
306.54	1693.67
306.75	1667.05
306.97	1619.94
307.18	1716.20
307.39	1667.05
307.61	1773.54
307.82	1732.58
308.04	1658.85
308.25	1665.00
308.46	1722.34
308.68	1667.05
308.89	1730.53
309.10	1718.25
309.32	1787.88
309.53	1585.13
309.74	1718.25
309.96	1677.29
310.17	1845.22
310.39	1685.48
310.60	1773.54
310.81	1671.14
311.03	1642.47
311.24	1748.97
311.45	1722.34
311.67	1865.70
311.88	1794.02
312.09	1630.18
312.31	1640.42
312.52	1681.38
312.73	1652.71
312.95	1632.23
313.16	1685.48
313.37	1779.68
313.59	1771.49
313.80	1708.01
314.01	1767.40
314.23	1761.25
314.44	1638.38
314.65	1603.56
314.87	1724.39
315.08	1681.38
315.29	1736.68
315.51	1574.89
315.72	1619.94
315.93	1755.11
316.15	1730.53
316.36	1648.61
316.57	1656.81
316.79	1763.30
317.00	1685.48
317.21	1734.63
317.43	1679.33
317.64	1656.81
317.85	1687.53
318.07	1753.06
318.28	1646.57
318.49	1732.58
318.70	1939.43
318.92	1841.12
319.13	1796.07
319.34	1814.50
319.56	1794.02
319.77	1791.97
319.98	1794.02
320.20	1773.54
320.41	1730.53
320.62	1746.92
320.83	1665.00
321.05	1771.49
321.26	1656.81
321.47	1738.73
321.69	1779.68
321.90	1568.74
322.11	1624.04
322.32	1667.05
322.54	1673.19
322.75	1640.42
322.96	1820.64
323.18	1638.38
323.39	1581.03
323.60	1585.13
323.81	1755.11
324.03	1642.47
324.24	1644.52
324.45	1765.35
324.66	1679.33
324.88	1740.77
325.09	1683.43
325.30	1669.09
325.52	1722.34
325.73	1744.87
325.94	1570.79
326.15	1615.85
326.37	1644.52
326.58	1734.63
326.79	1794.02
327.00	1652.71
327.22	1687.53
327.43	1671.14
327.64	1665.00
327.85	1656.81
328.07	1677.29
328.28	1781.73
328.49	1689.57
328.70	1652.71
328.92	1728.49
329.13	1611.75
329.34	1730.53
329.55	1777.64
329.76	1695.72
329.98	1640.42
330.19	1748.97
330.40	1720.29
330.61	1705.96
330.83	1775.59
331.04	1656.81
331.25	1763.30
331.46	1691.62
331.68	1599.46
331.89	1701.86
332.10	1667.05
332.31	1630.18
332.52	1734.63
332.74	1814.50
332.95	1599.46
333.16	1656.81
333.37	1789.92
333.58	1724.39
333.80	1703.91
334.01	1671.14
334.22	1677.29
334.43	1650.66
334.64	1705.96
334.86	1624.04
335.07	1638.38
335.28	1783.78
335.49	1652.71
335.70	1751.01
335.92	1767.40
336.13	1828.84
336.34	1740.77
336.55	1699.81
336.76	1726.44
336.98	1566.70
337.19	1628.14
337.40	1808.36
337.61	1859.56
337.82	1677.29
338.04	1845.22
338.25	1658.85
338.46	1714.15
338.67	1705.96
338.88	1640.42
339.09	1673.19
339.31	1630.18
339.52	1593.32
339.73	1597.42
339.94	1619.94
340.15	1697.77
340.36	1693.67
340.58	1675.24
340.79	1574.89
341.00	1748.97
341.21	1550.31
341.42	1785.83
341.63	1665.00
341.85	1736.68
342.06	1689.57
342.27	1609.70
342.48	1808.36
342.69	1595.37
342.90	1660.90
343.12	1701.86
343.33	1675.24
343.54	1701.86
343.75	1744.87
343.96	1708.01
344.17	1642.47
344.38	1800.16
344.60	1650.66
344.81	1617.90
345.02	1675.24
345.23	1806.31
345.44	1771.49
345.65	1744.87
345.86	1718.25
346.07	1673.19
346.29	1660.90
346.50	1714.15
346.71	1765.35
346.92	1802.21
347.13	1837.03
347.34	1667.05
347.55	1685.48
347.76	1669.09
347.98	1662.95
348.19	1654.76
348.40	1763.30
348.61	1646.57
348.82	1748.97
349.03	1714.15
349.24	1701.86
349.45	1808.36
349.66	1617.90
349.88	1716.20
350.09	1701.86
350.30	1802.21
350.51	1818.60
350.72	1681.38
350.93	1699.81
351.14	1685.48
351.35	1609.70
351.56	1628.14
351.77	1697.77
351.99	1712.10
352.20	1802.21
352.41	1804.26
352.62	1601.51
352.83	1701.86
353.04	1677.29
353.25	1724.39
353.46	1734.63
353.67	1740.77
353.88	1640.42
354.09	1701.86
354.30	1716.20
354.52	1699.81
354.73	1806.31
354.94	1583.08
355.15	1673.19
355.36	1771.49
355.57	1687.53
355.78	1679.33
355.99	1701.86
356.20	1789.92
356.41	1734.63
356.62	1679.33
356.83	1705.96
357.04	1787.88
357.25	1652.71
357.46	1662.95
357.68	1603.56
357.89	1646.57
358.10	1628.14
358.31	1796.07
358.52	1740.77
358.73	1581.03
358.94	1585.13
359.15	1708.01
359.36	1775.59
359.57	1675.24
359.78	1658.85
359.99	1802.21
360.20	1658.85
360.41	1654.76
360.62	1689.57
360.83	1759.21
361.04	1738.73
361.25	1761.25
361.46	1759.21
361.67	1773.54
361.88	1726.44
362.09	1718.25
362.30	1716.20
362.51	1689.57
362.72	1703.91
362.93	1722.34
363.14	1744.87
363.35	1683.43
363.56	1673.19
363.78	1773.54
363.99	1744.87
364.20	1699.81
364.41	1703.91
364.62	1812.45
364.83	1728.49
365.04	1708.01
365.25	1687.53
365.46	1781.73
365.67	1665.00
365.88	1687.53
366.09	1665.00
366.30	1669.09
366.51	1693.67
366.72	1613.80
366.93	1724.39
367.14	1640.42
367.35	1806.31
367.56	1708.01
367.77	1693.67
367.98	1742.82
368.18	1671.14
368.39	1722.34
368.60	1626.09
368.81	1794.02
369.02	1695.72
369.23	1685.48
369.44	1656.81
369.65	1679.33
369.86	1746.92
370.07	1705.96
370.28	1669.09
370.49	1681.38
370.70	1804.26
370.91	1677.29
371.12	1689.57
371.33	1771.49
371.54	1619.94
371.75	1822.69
371.96	1621.99
372.17	1708.01
372.38	1716.20
372.59	1822.69
372.80	1658.85
373.01	1671.14
373.22	1658.85
373.43	1722.34
373.64	1597.42
373.85	1785.83
374.06	1798.12
374.26	1677.29
374.47	1783.78
374.68	1800.16
374.89	1734.63
375.10	1673.19
375.31	1777.64
375.52	1697.77
375.73	1687.53
375.94	1667.05
376.15	1732.58
376.36	1603.56
376.57	1697.77
376.78	1691.62
376.99	1738.73
377.20	1726.44
377.40	1701.86
377.61	1855.46
377.82	1697.77
378.03	1779.68
378.24	1683.43
378.45	1650.66
378.66	1763.30
378.87	1591.27
379.08	1599.46
379.29	1687.53
379.50	1667.05
379.71	1730.53
379.91	1730.53
380.12	1701.86
380.33	1734.63
380.54	1738.73
380.75	1681.38
380.96	1720.29
381.17	1742.82
381.38	1783.78
381.59	1720.29
381.80	1642.47
382.00	1877.99
382.21	1742.82
382.42	1773.54
382.63	1925.09
382.84	1781.73
383.05	1769.44
383.26	1812.45
383.47	1755.11
383.68	1730.53
383.88	1769.44
384.09	1751.01
384.30	1820.64
384.51	1804.26
384.72	1662.95
384.93	1697.77
385.14	1681.38
385.35	1755.11
385.55	1679.33
385.76	1714.15
385.97	1753.06
386.18	1630.18
386.39	1740.77
386.60	1673.19
386.81	1722.34
387.02	1671.14
387.22	1757.16
387.43	1738.73
387.64	1673.19
387.85	1929.19
388.06	2179.04
388.27	4231.10
388.48	6811.54
388.68	8296.32
388.89	9729.90
389.10	9734.00
389.31	8671.10
389.52	7677.83
389.73	6834.07
389.93	6322.08
390.14	5781.42
390.35	5248.94
390.56	4605.88
390.77	3792.84
390.98	3086.29
391.18	2486.23
391.39	2095.07
391.60	1781.73
391.81	1902.56
392.02	1701.86
392.23	1814.50
392.43	1773.54
392.64	1775.59
392.85	1693.67
393.06	1808.36
393.27	1783.78
393.47	1656.81
393.68	1773.54
393.89	1710.05
394.10	1705.96
394.31	1753.06
394.52	1556.46
394.72	1730.53
394.93	1796.07
395.14	1695.72
395.35	1708.01
395.56	1677.29
395.76	1794.02
395.97	1789.92
396.18	1810.40
396.39	1869.80
396.60	2058.21
396.80	1939.43
397.01	1845.22
397.22	1765.35
397.43	1841.12
397.64	1759.21
397.84	1765.35
398.05	1843.17
398.26	1826.79
398.47	1800.16
398.67	1781.73
398.88	1705.96
399.09	1755.11
399.30	1675.24
399.51	1814.50
399.71	1630.18
399.92	1658.85
400.13	1759.21
400.34	1699.81
400.54	1703.91
400.75	1877.99
400.96	1689.57
401.17	1787.88
401.37	1751.01
401.58	1687.53
401.79	1734.63
402.00	1873.89
402.21	1990.63
402.41	1937.38
402.62	1994.72
402.83	2031.58
403.04	2004.96
403.24	1982.43
403.45	1810.40
403.66	1912.80
403.87	1910.75
404.07	1923.04
404.28	1908.71
404.49	1853.41
404.70	1814.50
404.90	1859.56
405.11	1732.58
405.32	1789.92
405.52	1734.63
405.73	1718.25
405.94	1660.90
406.15	1673.19
406.35	1716.20
406.56	1685.48
406.77	1773.54
406.98	1796.07
407.18	1673.19
407.39	1824.74
407.60	1665.00
407.80	1724.39
408.01	1665.00
408.22	1806.31
408.43	1621.99
408.63	1722.34
408.84	1732.58
409.05	1810.40
409.25	1597.42
409.46	1689.57
409.67	1710.05
409.88	1646.57
410.08	1753.06
410.29	1697.77
410.50	1695.72
410.70	1779.68
410.91	1701.86
411.12	1761.25
411.32	1695.72
411.53	1667.05
411.74	1761.25
411.95	1751.01
412.15	1787.88
412.36	1742.82
412.57	1757.16
412.77	1822.69
412.98	1689.57
413.19	1710.05
413.39	1722.34
413.60	1738.73
413.81	1775.59
414.01	1648.61
414.22	1740.77
414.43	1732.58
414.63	1701.86
414.84	1812.45
415.05	1708.01
415.25	1613.80
415.46	1757.16
415.67	1583.08
415.87	1716.20
416.08	1755.11
416.29	1630.18
416.49	1740.77
416.70	1628.14
416.91	1714.15
417.11	1693.67
417.32	1771.49
417.53	1789.92
417.73	1728.49
417.94	1658.85
418.15	1730.53
418.35	1675.24
418.56	1683.43
418.77	1834.98
418.97	1728.49
419.18	1712.10
419.38	1540.07
419.59	1787.88
419.80	1775.59
420.00	1710.05
420.21	1708.01
420.42	1744.87
420.62	1724.39
420.83	1708.01
421.04	1701.86
421.24	1767.40
421.45	1736.68
421.65	1798.12
421.86	1773.54
422.07	1726.44
422.27	1701.86
422.48	1710.05
422.69	1552.36
422.89	1687.53
423.10	1689.57
423.30	1671.14
423.51	1683.43
423.72	1654.76
423.92	1746.92
424.13	1695.72
424.33	1763.30
424.54	1730.53
424.75	1720.29
424.95	1808.36
425.16	1740.77
425.36	1728.49
425.57	1740.77
425.78	1687.53
425.98	1771.49
426.19	1716.20
426.39	1667.05
426.60	1724.39
426.81	1751.01
427.01	1740.77
427.22	1621.99
427.42	1589.22
427.63	1630.18
427.83	1746.92
428.04	1812.45
428.25	1724.39
428.45	1740.77
428.66	1775.59
428.86	1665.00
429.07	1734.63
429.28	1767.40
429.48	1677.29
429.69	1650.66
429.89	1671.14
430.10	1681.38
430.30	1847.27
430.51	1728.49
430.71	1636.33
430.92	1691.62
431.13	1665.00
431.33	1714.15
431.54	1730.53
431.74	1730.53
431.95	1853.41
432.15	1714.15
432.36	1744.87
432.56	1716.20
432.77	1826.79
432.98	1794.02
433.18	1687.53
433.39	1767.40
433.59	1705.96
433.80	1810.40
434.00	1857.51
434.21	1751.01
434.41	1638.38
434.62	1837.03
434.82	1712.10
435.03	1640.42
435.23	1712.10
435.44	1632.23
435.64	1687.53
435.85	1751.01
436.06	1740.77
436.26	1769.44
436.47	1763.30
436.67	1748.97
436.88	1683.43
437.08	1710.05
437.29	1791.97
437.49	1611.75
437.70	1734.63
437.90	1714.15
438.11	1841.12
438.31	1824.74
438.52	1800.16
438.72	1834.98
438.93	1863.65
439.13	1798.12
439.34	1814.50
439.54	1751.01
439.75	1734.63
439.95	1744.87
440.16	1703.91
440.36	1710.05
440.57	1767.40
440.77	1763.30
440.98	1699.81
441.18	1720.29
441.39	1708.01
441.59	1644.52
441.80	1841.12
442.00	1744.87
442.21	1769.44
442.41	1652.71
442.62	1699.81
442.82	1642.47
443.02	1740.77
443.23	1818.60
443.43	1701.86
443.64	1798.12
443.84	1751.01
444.05	1812.45
444.25	1714.15
444.46	1708.01
444.66	1716.20
444.87	1857.51
445.07	1669.09
445.28	1691.62
445.48	1812.45
445.69	1789.92
445.89	1869.80
446.09	1757.16
446.30	1947.62
446.50	2738.13
446.71	3885.00
446.91	4284.35
447.12	4726.71
447.32	4798.39
447.53	4319.17
447.73	3885.00
447.93	3561.42
448.14	3319.76
448.34	3237.84
448.55	2897.88
448.75	2834.39
448.96	2742.23
449.16	2361.31
449.36	2312.16
449.57	2029.54
449.77	1943.52
449.98	1742.82
450.18	1849.32
450.39	1820.64
450.59	1726.44
450.79	1689.57
451.00	1703.91
451.20	1814.50
451.41	1703.91
451.61	1757.16
451.81	1722.34
452.02	1693.67
452.22	1685.48
452.43	1716.20
452.63	1660.90
452.84	1681.38
453.04	1781.73
453.24	1677.29
453.45	1693.67
453.65	1753.06
453.86	1761.25
454.06	1755.11
454.26	1763.30
454.47	1665.00
454.67	1814.50
454.87	1724.39
455.08	1665.00
455.28	1828.84
455.49	1699.81
455.69	1681.38
455.89	1861.60
456.10	1865.70
456.30	1703.91
456.51	1732.58
456.71	1718.25
456.91	1769.44
457.12	1732.58
457.32	1759.21
457.52	1650.66
457.73	1759.21
457.93	1740.77
458.14	1701.86
458.34	1632.23
458.54	1742.82
458.75	1751.01
458.95	1810.40
459.15	1724.39
459.36	1718.25
459.56	1808.36
459.76	1798.12
459.97	1824.74
460.17	1644.52
460.37	1759.21
460.58	1787.88
460.78	1787.88
460.99	1667.05
461.19	1675.24
461.39	1689.57
461.60	1656.81
461.80	1794.02
462.00	1640.42
462.21	1685.48
462.41	1701.86
462.61	1691.62
462.82	1636.33
463.02	1710.05
463.22	1722.34
463.43	1722.34
463.63	1744.87
463.83	1804.26
464.04	1746.92
464.24	1716.20
464.44	1730.53
464.64	1773.54
464.85	1832.93
465.05	1802.21
465.25	1632.23
465.46	1714.15
465.66	1740.77
465.86	1632.23
466.07	1773.54
466.27	1632.23
466.47	1626.09
466.68	1681.38
466.88	1744.87
467.08	1755.11
467.29	1818.60
467.49	1734.63
467.69	1710.05
467.89	1814.50
468.10	1716.20
468.30	1677.29
468.50	1689.57
468.71	1771.49
468.91	1658.85
469.11	1894.37
469.31	1724.39
469.52	1591.27
469.72	1851.36
469.92	1898.47
470.13	1665.00
470.33	1789.92
470.53	1841.12
470.73	2074.59
470.94	2234.33
471.14	2365.40
471.34	2467.80
471.54	2443.23
471.75	2217.95
471.95	2131.94
472.15	2025.44
472.36	2115.55
472.56	1982.43
472.76	2066.40
472.96	1984.48
473.17	1875.94
473.37	1857.51
473.57	1771.49
473.77	1800.16
473.98	1705.96
474.18	1691.62
474.38	1896.42
474.58	1710.05
474.79	1697.77
474.99	1763.30
475.19	1771.49
475.39	1656.81
475.60	1730.53
475.80	1824.74
476.00	1662.95
476.20	1689.57
476.41	1660.90
476.61	1800.16
476.81	1822.69
477.01	1722.34
477.21	1787.88
477.42	1800.16
477.62	1636.33
477.82	1689.57
478.02	1720.29
478.23	1812.45
478.43	1669.09
478.63	1685.48
478.83	1693.67
479.03	1699.81
479.24	1759.21
479.44	1812.45
479.64	1689.57
479.84	1665.00
480.04	1630.18
480.25	1789.92
480.45	1677.29
480.65	1632.23
480.85	1777.64
481.06	1701.86
481.26	1730.53
481.46	1816.55
481.66	1748.97
481.86	1638.38
482.06	1767.40
482.27	1699.81
482.47	1755.11
482.67	1701.86
482.87	1695.72
483.07	1748.97
483.28	1714.15
483.48	1701.86
483.68	1669.09
483.88	1638.38
484.08	1558.50
484.29	1648.61
484.49	1636.33
484.69	1652.71
484.89	1800.16
485.09	1705.96
485.29	1757.16
485.50	1708.01
485.70	1624.04
485.90	1804.26
486.10	1742.82
486.30	1681.38
486.50	1777.64
486.71	1656.81
486.91	1744.87
487.11	1871.84
487.31	1640.42
487.51	1673.19
487.71	1667.05
487.91	1658.85
488.12	1615.85
488.32	1583.08
488.52	1624.04
488.72	1587.18
488.92	1679.33
489.12	1708.01
489.32	1763.30
489.53	1771.49
489.73	1632.23
489.93	1871.84
490.13	1701.86
490.33	1679.33
490.53	1748.97
490.73	1783.78
490.94	1687.53
491.14	1816.55
491.34	1812.45
491.54	2115.55
491.74	2508.76
491.94	2879.44
492.14	3063.76
492.34	3014.61
492.54	2674.65
492.75	2502.62
492.95	2414.56
493.15	2346.97
493.35	2269.15
493.55	2211.81
493.75	2043.87
493.95	2164.70
494.15	2082.78
494.35	1902.56
494.56	1839.08
494.76	1763.30
494.96	1718.25
495.16	1783.78
495.36	1742.82
495.56	1697.77
495.76	1755.11
495.96	1804.26
496.16	1714.15
496.36	1863.65
496.56	1665.00
496.77	1730.53
496.97	1761.25
497.17	1685.48
497.37	1640.42
497.57	1787.88
497.77	1742.82
497.97	1650.66
498.17	1685.48
498.37	1708.01
498.57	1751.01
498.77	1714.15
498.97	1771.49
499.17	1757.16
499.38	1712.10
499.58	1757.16
499.78	1806.31
499.98	1812.45
500.18	1710.05
500.38	1640.42
500.58	1918.95
500.78	2523.10
500.98	4624.31
501.18	5824.42
501.38	6754.20
501.58	6987.67
501.78	6875.03
501.98	5644.20
502.18	4876.21
502.38	4442.04
502.58	4147.14
502.78	3805.13
502.98	3575.75
503.18	3364.81
503.38	3243.98
503.59	2836.44
503.79	2539.48
503.99	2514.91
504.19	2322.40
504.39	2234.33
504.59	2236.38
504.79	2140.13
504.99	2072.54
505.19	1902.56
505.39	1880.04
505.59	1964.00
505.79	1865.70
505.99	1771.49
506.19	1804.26
506.39	1839.08
506.59	1810.40
506.79	1824.74
506.99	1798.12
507.19	1740.77
507.39	1732.58
507.59	1716.20
507.79	1765.35
507.99	1716.20
508.19	1703.91
508.39	1730.53
508.59	1800.16
508.79	1787.88
508.99	1841.12
509.19	1708.01
509.39	1757.16
509.59	1730.53
509.79	1699.81
509.99	1771.49
510.19	1712.10
510.39	1746.92
510.59	1759.21
510.79	1705.96
510.99	1662.95
511.19	1787.88
511.39	1771.49
511.59	1724.39
511.79	1785.83
511.99	1740.77
512.19	1814.50
512.38	1716.20
512.58	1636.33
512.78	1787.88
512.98	1730.53
513.18	1843.17
513.38	1617.90
513.58	1810.40
513.78	1734.63
513.98	1761.25
514.18	1736.68
514.38	1730.53
514.58	1783.78
514.78	1705.96
514.98	1644.52
515.18	1652.71
515.38	1636.33
515.58	1843.17
515.78	1742.82
515.98	1734.63
516.18	1736.68
516.38	1722.34
516.57	1683.43
516.77	1818.60
516.97	1665.00
517.17	1728.49
517.37	1605.61
517.57	1738.73
517.77	1746.92
517.97	1730.53
518.17	1714.15
518.37	1703.91
518.57	1691.62
518.77	1691.62
518.97	1716.20
519.16	1867.75
519.36	1781.73
519.56	1695.72
519.76	1718.25
519.96	1800.16
520.16	1787.88
520.36	1619.94
520.56	1888.23
520.76	1689.57
520.96	1763.30
521.16	1712.10
521.35	1820.64
521.55	1853.41
521.75	1734.63
521.95	1748.97
522.15	1791.97
522.35	1648.61
522.55	1662.95
522.75	1765.35
522.95	1787.88
523.14	1648.61
523.34	1763.30
523.54	1705.96
523.74	1757.16
523.94	1736.68
524.14	1652.71
524.34	1806.31
524.54	1773.54
524.73	1691.62
524.93	1789.92
525.13	1716.20
525.33	1665.00
525.53	1947.62
525.73	1791.97
525.93	1757.16
526.13	1755.11
526.32	1812.45
526.52	1789.92
526.72	1818.60
526.92	1695.72
527.12	1722.34
527.32	1630.18
527.52	1763.30
527.71	1722.34
527.91	1714.15
528.11	1671.14
528.31	1679.33
528.51	1681.38
528.71	1755.11
528.90	1800.16
529.10	1789.92
529.30	1761.25
529.50	1572.84
529.70	1742.82
529.90	1677.29
530.09	1722.34
530.29	1634.28
530.49	1748.97
530.69	1865.70
530.89	1732.58
531.09	1748.97
531.28	1681.38
531.48	1746.92
531.68	1724.39
531.88	1771.49
532.08	1763.30
532.28	1765.35
532.47	1791.97
532.67	1814.50
532.87	1667.05
533.07	1699.81
533.27	1802.21
533.46	1794.02
533.66	1789.92
533.86	1722.34
534.06	1765.35
534.26	1736.68
534.45	1611.75
534.65	1773.54
534.85	1720.29
535.05	1697.77
535.25	1740.77
535.44	1701.86
535.64	1767.40
535.84	1693.67
536.04	1722.34
536.24	1695.72
536.43	1679.33
536.63	1742.82
536.83	1771.49
537.03	1685.48
537.22	1630.18
537.42	1636.33
537.62	1759.21
537.82	1730.53
538.02	1722.34
538.21	1785.83
538.41	1806.31
538.61	1703.91
538.81	1722.34
539.00	1798.12
539.20	1681.38
539.40	1761.25
539.60	1761.25
539.79	1773.54
539.99	1740.77
540.19	1656.81
540.39	1740.77
540.58	1748.97
540.78	1798.12
540.98	1732.58
541.18	1773.54
541.37	1804.26
541.57	1761.25
541.77	1779.68
541.97	1619.94
542.16	1687.53
542.36	1783.78
542.56	1787.88
542.76	1857.51
542.95	1853.41
543.15	1769.44
543.35	1787.88
543.54	1634.28
543.74	1759.21
543.94	1730.53
544.14	1820.64
544.33	1841.12
544.53	1740.77
544.73	1720.29
544.93	1736.68
545.12	1720.29
545.32	1755.11
545.52	1699.81
545.71	1669.09
545.91	1630.18
546.11	1697.77
546.30	1665.00
546.50	1820.64
546.70	1728.49
546.90	1783.78
547.09	1630.18
547.29	1691.62
547.49	1783.78
547.68	1763.30
547.88	1679.33
548.08	1726.44
548.27	2203.61
548.47	1691.62
548.67	1667.05
548.87	1781.73
549.06	1751.01
549.26	1726.44
549.46	1798.12
549.65	1720.29
549.85	1822.69
550.05	1820.64
550.24	1716.20
550.44	1761.25
550.64	1761.25
550.83	1677.29
551.03	1812.45
551.23	1777.64
551.42	1708.01
551.62	1718.25
551.82	1732.58
552.01	1724.39
552.21	1796.07
552.41	1716.20
552.60	1837.03
552.80	1763.30
553.00	1701.86
553.19	1685.48
553.39	1800.16
553.59	1673.19
553.78	1753.06
553.98	1742.82
554.17	1656.81
554.37	1806.31
554.57	1796.07
554.76	1669.09
554.96	1808.36
555.16	1837.03
555.35	1691.62
555.55	1746.92
555.75	1771.49
555.94	1808.36
556.14	1669.09
556.33	1796.07
556.53	1738.73
556.73	1808.36
556.92	1652.71
557.12	1826.79
557.32	1865.70
557.51	1765.35
557.71	1712.10
557.90	1834.98
558.10	1761.25
558.30	1660.90
558.49	1740.77
558.69	1759.21
558.88	1843.17
559.08	1677.29
559.28	1658.85
559.47	1687.53
559.67	1843.17
559.86	1816.55
560.06	1849.32
560.26	1755.11
560.45	1781.73
560.65	1730.53
560.84	1771.49
561.04	1710.05
561.24	1785.83
561.43	1632.23
561.63	1781.73
561.82	1765.35
562.02	1804.26
562.22	1669.09
562.41	1765.35
562.61	1724.39
562.80	1632.23
563.00	1882.08
563.19	1822.69
563.39	1748.97
563.59	1783.78
563.78	1587.18
563.98	1578.98
564.17	1652.71
564.37	1665.00
564.56	1730.53
564.76	1724.39
564.96	1808.36
565.15	1730.53
565.35	1837.03
565.54	1679.33
565.74	1802.21
565.93	1669.09
566.13	1759.21
566.32	1757.16
566.52	1804.26
566.71	1761.25
566.91	1820.64
567.11	1701.86
567.30	1730.53
567.50	1716.20
567.69	1787.88
567.89	1785.83
568.08	1730.53
568.28	1787.88
568.47	1648.61
568.67	1800.16
568.86	1712.10
569.06	1763.30
569.25	1722.34
569.45	1755.11
569.64	1714.15
569.84	1718.25
570.04	1767.40
570.23	1703.91
570.43	1640.42
570.62	1791.97
570.82	1832.93
571.01	1660.90
571.21	1712.10
571.40	1701.86
571.60	1714.15
571.79	1783.78
571.99	1755.11
572.18	1724.39
572.38	1671.14
572.57	1701.86
572.77	1714.15
572.96	1806.31
573.16	1734.63
573.35	1730.53
573.55	1839.08
573.74	1783.78
573.94	1658.85
574.13	1769.44
574.33	1812.45
574.52	1728.49
574.71	1753.06
574.91	1722.34
575.10	1642.47
575.30	1701.86
575.49	1648.61
575.69	1761.25
575.88	1759.21
576.08	1718.25
576.27	1771.49
576.47	1744.87
576.66	1794.02
576.86	1810.40
577.05	1677.29
577.25	1826.79
577.44	1943.52
577.64	1753.06
577.83	1810.40
578.02	1671.14
578.22	1798.12
578.41	1857.51
578.61	1746.92
578.80	1667.05
579.00	1695.72
579.19	1785.83
579.39	1714.15
579.58	1886.18
579.77	1769.44
579.97	1787.88
580.16	1765.35
580.36	1894.37
580.55	1808.36
580.75	1767.40
580.94	1853.41
581.13	1847.27
581.33	1904.61
581.52	1744.87
581.72	1927.14
581.91	1830.88
582.11	1761.25
582.30	1779.68
582.49	1791.97
582.69	1828.84
582.88	1705.96
583.08	1763.30
583.27	1769.44
583.47	1769.44
583.66	1718.25
583.85	1710.05
584.05	1650.66
584.24	1822.69
584.44	1861.60
584.63	1789.92
584.82	1798.12
585.02	1759.21
585.21	1841.12
585.41	1773.54
585.60	1861.60
585.79	1925.09
585.99	1941.47
586.18	1841.12
586.37	2164.70
586.57	3405.77
586.76	9914.22
586.96	24768.13
587.15	34905.58
587.34	40828.30
587.54	42728.82
587.73	37064.14
587.93	26476.14
588.12	21601.97
588.31	18591.46
588.51	16346.89
588.70	15163.16
588.89	14128.94
589.09	12826.43
589.28	11265.88
589.47	9584.49
589.67	8032.13
589.86	6555.55
590.06	5038.00
590.25	3938.24
590.44	3119.06
590.64	2572.25
590.83	2226.14
591.02	2111.46
591.22	1871.84
591.41	1877.99
591.60	1847.27
591.80	1951.71
591.99	1734.63
592.18	1718.25
592.38	1824.74
592.57	1751.01
592.76	1816.55
592.96	1814.50
593.15	1728.49
593.34	1796.07
593.54	1783.78
593.73	1757.16
593.92	1697.77
594.12	1798.12
594.31	1783.78
594.50	1902.56
594.70	1845.22
594.89	1914.85
595.08	1658.85
595.28	1816.55
595.47	1916.90
595.66	1736.68
595.86	1712.10
596.05	1738.73
596.24	1767.40
596.43	1742.82
596.63	1796.07
596.82	1773.54
597.01	1791.97
597.21	1861.60
597.40	1785.83
597.59	1699.81
597.79	1740.77
597.98	1728.49
598.17	1771.49
598.36	1746.92
598.56	1701.86
598.75	1722.34
598.94	1765.35
599.14	1705.96
599.33	1722.34
599.52	1742.82
599.71	1705.96
599.91	1779.68
600.10	1761.25
600.29	1703.91
600.48	1726.44
600.68	1757.16
600.87	1763.30
601.06	1724.39
601.26	1769.44
601.45	1763.30
601.64	1621.99
601.83	1818.60
602.03	1802.21
602.22	1654.76
602.41	1816.55
602.60	1882.08
602.80	1845.22
602.99	1683.43
603.18	1681.38
603.37	1705.96
603.57	1742.82
603.76	1751.01
603.95	1789.92
604.14	1728.49
604.34	1777.64
604.53	1656.81
604.72	1738.73
604.91	1781.73
605.10	1738.73
605.30	1677.29
605.49	1820.64
605.68	1798.12
605.87	1699.81
606.07	1769.44
606.26	1753.06
606.45	1783.78
606.64	1808.36
606.84	1767.40
607.03	1763.30
607.22	1738.73
607.41	1695.72
607.60	1779.68
607.80	1757.16
607.99	1724.39
608.18	1761.25
608.37	1742.82
608.56	1652.71
608.76	1787.88
608.95	1824.74
609.14	1761.25
609.33	1740.77
609.52	1789.92
609.72	1652.71
609.91	1757.16
610.10	1728.49
610.29	1763.30
610.48	1736.68
610.68	1816.55
610.87	1738.73
611.06	1718.25
611.25	1699.81
611.44	1767.40
611.63	1671.14
611.83	1834.98
612.02	1681.38
612.21	1802.21
612.40	1691.62
612.59	1589.22
612.79	1671.14
612.98	1744.87
613.17	1802.21
613.36	1726.44
613.55	1800.16
613.74	1671.14
613.93	1636.33
614.13	1751.01
614.32	1751.01
614.51	1701.86
614.70	1679.33
614.89	1703.91
615.08	1748.97
615.28	2050.02
615.47	1669.09
615.66	1726.44
615.85	1705.96
616.04	1783.78
616.23	1689.57
616.42	1736.68
616.62	1701.86
616.81	1730.53
617.00	1730.53
617.19	1675.24
617.38	1742.82
617.57	1689.57
617.76	1724.39
617.95	1822.69
618.15	1738.73
618.34	1816.55
618.53	1640.42
618.72	1757.16
618.91	1761.25
619.10	1841.12
619.29	1718.25
619.48	1771.49
619.68	1654.76
619.87	1755.11
620.06	1648.61
620.25	1740.77
620.44	1730.53
620.63	1787.88
620.82	1652.71
621.01	1753.06
621.20	1697.77
621.39	1765.35
621.59	1775.59
621.78	1718.25
621.97	1728.49
622.16	1773.54
622.35	1771.49
622.54	1783.78
622.73	1804.26
622.92	1681.38
623.11	1785.83
623.30	1695.72
623.49	1728.49
623.68	1753.06
623.88	1820.64
624.07	1718.25
624.26	1621.99
624.45	1753.06
624.64	1755.11
624.83	1755.11
625.02	1697.77
625.21	1710.05
625.40	1644.52
625.59	1818.60
625.78	1669.09
625.97	1806.31
626.16	1808.36
626.35	1791.97
626.54	1679.33
626.74	1804.26
626.93	1665.00
627.12	1757.16
627.31	1732.58
627.50	1818.60
627.69	1759.21
627.88	1665.00
628.07	1677.29
628.26	1673.19
628.45	1654.76
628.64	1619.94
628.83	1738.73
629.02	1675.24
629.21	1800.16
629.40	1783.78
629.59	1681.38
629.78	1683.43
629.97	1712.10
630.16	1730.53
630.35	1685.48
630.54	1748.97
630.73	1703.91
630.92	1710.05
631.11	1693.67
631.30	1687.53
631.49	1806.31
631.68	1714.15
631.87	1746.92
632.06	1628.14
632.25	1875.94
632.44	1742.82
632.63	1697.77
632.82	1675.24
633.01	1681.38
633.20	1720.29
633.39	1656.81
633.58	1609.70
633.77	1736.68
633.96	1718.25
634.15	1763.30
634.34	1779.68
634.53	1761.25
634.72	1812.45
634.91	1599.46
635.10	1753.06
635.29	1736.68
635.48	1730.53
635.67	1628.14
635.86	1662.95
636.05	1849.32
636.24	1697.77
636.43	1689.57
636.62	1746.92
636.81	1581.03
637.00	1779.68
637.19	1796.07
637.38	1785.83
637.57	1695.72
637.76	1720.29
637.95	1794.02
638.14	1677.29
638.33	1734.63
638.52	1683.43
638.71	1665.00
638.89	1640.42
639.08	1820.64
639.27	1734.63
639.46	1689.57
639.65	1773.54
639.84	1718.25
640.03	1720.29
640.22	1640.42
640.41	1761.25
640.60	1685.48
640.79	1665.00
640.98	1689.57
641.17	1705.96
641.36	1742.82
641.55	1712.10
641.74	1632.23
641.92	1718.25
642.11	1697.77
642.30	1662.95
642.49	1697.77
642.68	1673.19
642.87	1662.95
643.06	1673.19
643.25	1759.21
643.44	1679.33
643.63	1730.53
643.82	1742.82
644.00	1685.48
644.19	1804.26
644.38	1669.09
644.57	1751.01
644.76	1683.43
644.95	1763.30
645.14	1748.97
645.33	1697.77
645.52	1675.24
645.71	1679.33
645.89	1677.29
646.08	1681.38
646.27	1691.62
646.46	1861.60
646.65	1648.61
646.84	1693.67
647.03	1671.14
647.22	1822.69
647.40	1640.42
647.59	1761.25
647.78	1624.04
647.97	1679.33
648.16	1628.14
648.35	1771.49
648.54	1763.30
648.73	1656.81
648.91	1783.78
649.10	1705.96
649.29	1710.05
649.48	1656.81
649.67	1656.81
649.86	1654.76
650.05	1679.33
650.23	1767.40
650.42	1626.09
650.61	1673.19
650.80	1695.72
650.99	1820.64
651.18	1818.60
651.36	1746.92
651.55	1695.72
651.74	1771.49
651.93	1626.09
652.12	1656.81
652.31	1703.91
652.49	1658.85
652.68	1736.68
652.87	1869.80
653.06	1644.52
653.25	1771.49
653.44	1716.20
653.62	1746.92
653.81	1718.25
654.00	1710.05
654.19	1777.64
654.38	1912.80
654.56	1730.53
654.75	1730.53
654.94	1796.07
655.13	1677.29
655.32	1642.47
655.51	1769.44
655.69	1773.54
655.88	1757.16
656.07	1685.48
656.26	1724.39
656.45	1656.81
656.63	1751.01
656.82	1761.25
657.01	1714.15
657.20	1652.71
657.38	1732.58
657.57	1748.97
657.76	1587.18
657.95	1710.05
658.14	1746.92
658.32	1755.11
658.51	1748.97
658.70	1699.81
658.89	1740.77
659.08	1673.19
659.26	1789.92
659.45	1732.58
659.64	1738.73
659.83	1681.38
660.01	1935.33
660.20	1734.63
660.39	1814.50
660.58	1585.13
660.76	1746.92
660.95	1677.29
661.14	1679.33
661.33	1556.46
661.51	1697.77
661.70	1753.06
661.89	1730.53
662.08	1679.33
662.26	1642.47
662.45	1632.23
662.64	1818.60
662.83	1736.68
663.01	1718.25
663.20	1757.16
663.39	1767.40
663.58	1652.71
663.76	1648.61
663.95	1757.16
664.14	1673.19
664.32	1683.43
664.51	1740.77
664.70	1626.09
664.89	1765.35
665.07	1621.99
665.26	1787.88
665.45	1673.19
665.64	1837.03
665.82	1724.39
666.01	1824.74
666.20	1699.81
666.38	1865.70
666.57	1814.50
666.76	2191.33
666.95	4704.18
667.13	10524.51
667.32	15257.37
667.51	17854.19
667.69	19183.32
667.88	17620.72
668.07	12318.53
668.25	9555.82
668.44	7964.55
668.63	7374.74
668.81	6791.06
669.00	6203.30
669.19	5668.78
669.38	5121.97
669.56	4747.19
669.75	4050.88
669.94	3448.78
670.12	2916.31
670.31	2512.86
670.50	2285.53
670.68	2023.39
670.87	1908.71
671.06	1873.89
671.24	1796.07
671.43	1808.36
671.62	1755.11
671.80	1685.48
671.99	1732.58
672.18	1753.06
672.36	1798.12
672.55	1771.49
672.74	1671.14
672.92	1714.15
673.11	1787.88
673.29	1628.14
673.48	1791.97
673.67	1759.21
673.85	1710.05
674.04	1687.53
674.23	1720.29
674.41	1781.73
674.60	1632.23
674.79	1660.90
674.97	1638.38
675.16	1789.92
675.34	1763.30
675.53	1654.76
675.72	1759.21
675.90	1742.82
676.09	1638.38
676.28	1675.24
676.46	1535.98
676.65	1789.92
676.83	1689.57
677.02	1732.58
677.21	1677.29
677.39	1757.16
677.58	1722.34
677.77	1746.92
677.95	1632.23
678.14	1675.24
678.32	1785.83
678.51	1679.33
678.70	1808.36
678.88	1673.19
679.07	1759.21
679.25	1744.87
679.44	1710.05
679.63	1652.71
679.81	1730.53
680.00	1834.98
680.18	1714.15
680.37	1763.30
680.55	1689.57
680.74	1634.28
680.93	1574.89
681.11	1734.63
681.30	1667.05
681.48	1708.01
681.67	1736.68
681.85	1742.82
682.04	1708.01
682.23	1734.63
682.41	1687.53
682.60	1738.73
682.78	1654.76
682.97	1746.92
683.15	1685.48
683.34	1667.05
683.53	1783.78
683.71	1621.99
683.90	1804.26
684.08	1720.29
684.27	1673.19
684.45	1728.49
684.64	1806.31
684.82	1667.05
685.01	1736.68
685.19	1656.81
685.38	1755.11
685.57	1720.29
685.75	1691.62
685.94	1677.29
686.12	1648.61
686.31	1687.53
686.49	1812.45
686.68	1685.48
686.86	1738.73
687.05	1603.56
687.23	1802.21
687.42	1673.19
687.60	1570.79
687.79	1697.77
687.97	1798.12
688.16	1761.25
688.34	1693.67
688.53	1593.32
688.71	1724.39
688.90	1808.36
689.08	1740.77
689.27	1583.08
689.45	1796.07
689.64	1720.29
689.82	1759.21
690.01	1738.73
690.19	1746.92
690.38	1775.59
690.56	1820.64
690.75	1677.29
690.93	1632.23
691.12	1718.25
691.30	1728.49
691.49	1697.77
691.67	1724.39
691.86	1789.92
692.04	1689.57
692.23	1634.28
692.41	1736.68
692.60	1857.51
692.78	1804.26
692.97	1665.00
693.15	1753.06
693.34	1810.40
693.52	1814.50
693.71	1695.72
693.89	1619.94
694.08	1652.71
694.26	1837.03
694.44	1656.81
694.63	1703.91
694.81	1578.98
695.00	1667.05
695.18	1687.53
695.37	1759.21
695.55	1662.95
695.74	1677.29
695.92	1679.33
696.10	1765.35
696.29	1671.14
696.47	1691.62
696.66	1630.18
696.84	1722.34
697.03	1728.49
697.21	1863.65
697.40	2301.92
697.58	1736.68
697.76	1720.29
697.95	1683.43
698.13	1662.95
698.32	1681.38
698.50	1699.81
698.68	1693.67
698.87	1697.77
699.05	1826.79
699.24	1726.44
699.42	1724.39
699.61	1763.30
699.79	1742.82
699.97	1761.25
700.16	1660.90
700.34	1576.94
700.53	1787.88
700.71	1804.26
700.89	1740.77
701.08	1710.05
701.26	1738.73
701.45	2072.54
701.63	1693.67
701.81	1578.98
702.00	1589.22
702.18	1712.10
702.37	1560.55
702.55	1722.34
702.73	1705.96
702.92	1619.94
703.10	1765.35
703.28	1742.82
703.47	1601.51
703.65	1787.88
703.84	1808.36
704.02	1681.38
704.20	1710.05
704.39	1671.14
704.57	1644.52
704.75	1779.68
704.94	1722.34
705.12	1693.67
705.30	1871.84
705.49	2291.68
705.67	4536.25
705.86	9553.77
706.04	12779.32
706.22	14712.61
706.41	15437.59
706.59	14067.50
706.77	9938.79
706.96	7479.18
707.14	6692.76
707.32	6045.60
707.51	5648.30
707.69	4917.17
707.87	4227.01
708.06	3467.21
708.24	2969.55
708.42	2412.51
708.61	2230.24
708.79	1937.38
708.97	1877.99
709.16	1800.16
709.34	1751.01
709.52	1732.58
709.71	1781.73
709.89	1748.97
710.07	1675.24
710.26	1646.57
710.44	1671.14
710.62	1714.15
710.80	1648.61
710.99	1718.25
711.17	1798.12
711.35	1648.61
711.54	1726.44
711.72	1771.49
711.90	1687.53
712.09	1687.53
712.27	1699.81
712.45	1775.59
712.63	1665.00
712.82	1714.15
713.00	1759.21
713.18	1703.91
713.37	1724.39
713.55	1767.40
713.73	1705.96
713.91	1744.87
714.10	1642.47
714.28	1705.96
714.46	1730.53
714.65	1712.10
714.83	1701.86
715.01	1644.52
715.19	1746.92
715.38	1677.29
715.56	1644.52
715.74	1658.85
715.92	1685.48
716.11	1779.68
716.29	1658.85
716.47	1677.29
716.65	1746.92
716.84	1624.04
717.02	1769.44
717.20	1652.71
717.38	1677.29
717.57	1712.10
717.75	1705.96
717.93	1683.43
718.11	1812.45
718.30	1652.71
718.48	1652.71
718.66	1744.87
718.84	1771.49
719.03	1724.39
719.21	1615.85
719.39	1888.23
719.57	1718.25
719.75	1724.39
719.94	1722.34
720.12	1695.72
720.30	1722.34
720.48	1789.92
720.67	1689.57
720.85	1634.28
721.03	1708.01
721.21	1626.09
721.39	1775.59
721.58	1732.58
721.76	1789.92
721.94	1689.57
722.12	1716.20
722.30	1824.74
722.49	1693.67
722.67	1746.92
722.85	1767.40
723.03	1660.90
723.21	1716.20
723.40	1738.73
723.58	1718.25
723.76	1728.49
723.94	1777.64
724.12	1740.77
724.30	1796.07
724.49	1740.77
724.67	1687.53
724.85	1783.78
725.03	1714.15
725.21	1720.29
725.40	1808.36
725.58	1665.00
725.76	1796.07
725.94	1732.58
726.12	1701.86
726.30	1710.05
726.49	1763.30
726.67	1619.94
726.85	1779.68
727.03	1769.44
727.21	2209.76
727.39	2985.94
727.57	3784.65
727.76	4147.14
727.94	4435.90
728.12	4399.04
728.30	3704.78
728.48	2951.12
728.66	2754.52
728.84	2529.24
729.03	2330.59
729.21	2164.70
729.39	1976.29
729.57	1845.22
729.75	1806.31
729.93	1849.32
730.11	1691.62
730.30	1646.57
730.48	1683.43
730.66	1849.32
730.84	1726.44
731.02	1665.00
731.20	1671.14
731.38	1748.97
731.56	1689.57
731.74	1644.52
731.93	1759.21
732.11	1691.62
732.29	1667.05
732.47	1791.97
732.65	1665.00
732.83	1744.87
733.01	1648.61
733.19	1718.25
733.37	1787.88
733.56	1781.73
733.74	1667.05
733.92	1806.31
734.10	1648.61
734.28	1683.43
734.46	1673.19
734.64	1732.58
734.82	1660.90
735.00	1681.38
735.18	1730.53
735.36	1695.72
735.54	1691.62
735.73	1746.92
735.91	1656.81
736.09	1742.82
736.27	1675.24
736.45	1783.78
736.63	1634.28
736.81	1695.72
736.99	1771.49
737.17	1761.25
737.35	1658.85
737.53	1699.81
737.71	1755.11
737.89	1849.32
738.07	1744.87
738.25	1669.09
738.43	1679.33
738.61	1710.05
738.80	1644.52
738.98	1669.09
739.16	1658.85
739.34	1675.24
739.52	1804.26
739.70	1632.23
739.88	1734.63
740.06	1791.97
740.24	1550.31
740.42	1728.49
740.60	1597.42
740.78	1677.29
740.96	1597.42
741.14	1685.48
741.32	1662.95
741.50	1628.14
741.68	1847.27
741.86	1775.59
742.04	1591.27
742.22	1634.28
742.40	1701.86
742.58	1775.59
742.76	1675.24
742.94	1708.01
743.12	1591.27
743.30	1683.43
743.48	1650.66
743.66	1701.86
743.84	1802.21
744.02	1662.95
744.20	1683.43
744.38	1599.46
744.56	1753.06
744.74	1828.84
744.92	1753.06
745.10	1812.45
745.28	1755.11
745.46	1748.97
745.64	1695.72
745.82	1710.05
746.00	1740.77
746.18	1748.97
746.36	1660.90
746.54	1734.63
746.72	1730.53
746.90	1613.80
747.08	1728.49
747.26	1667.05
747.44	1728.49
747.62	1716.20
747.80	1746.92
747.98	1734.63
748.15	1691.62
748.33	1796.07
748.51	1755.11
748.69	1722.34
748.87	1601.51
749.05	1677.29
749.23	1654.76
749.41	1689.57
749.59	1767.40
749.77	1744.87
749.95	1691.62
750.13	1646.57
750.31	1759.21
750.49	1677.29
750.67	1734.63
750.85	1775.59
751.03	1685.48
751.20	1746.92
751.38	1705.96
751.56	1730.53
751.74	1652.71
751.92	1693.67
752.10	1708.01
752.28	1763.30
752.46	1710.05
752.64	1730.53
752.82	1634.28
753.00	1728.49
753.18	1697.77
753.35	1658.85
753.53	1648.61
753.71	1617.90
753.89	1720.29
754.07	1728.49
754.25	1699.81
754.43	1769.44
754.61	1636.33
754.79	1675.24
754.97	1665.00
755.14	1767.40
755.32	1667.05
755.50	1738.73
755.68	1685.48
755.86	1656.81
756.04	1654.76
756.22	1632.23
756.40	1693.67
756.57	1847.27
756.75	1673.19
756.93	1775.59
757.11	1759.21
757.29	1634.28
757.47	1642.47
757.65	1628.14
757.82	1595.37
758.00	1701.86
758.18	1677.29
758.36	1665.00
758.54	1748.97
758.72	1685.48
758.90	1810.40
759.07	1738.73
759.25	1617.90
759.43	1748.97
759.61	1585.13
759.79	2119.65
759.97	1839.08
760.15	1646.57
760.32	1658.85
760.50	1687.53
760.68	1746.92
760.86	1626.09
761.04	1800.16
761.22	1769.44
761.39	1789.92
761.57	1808.36
761.75	1736.68
761.93	1763.30
762.11	1705.96
762.28	1746.92
762.46	1685.48
762.64	1720.29
762.82	1687.53
763.00	1691.62
763.18	1791.97
763.35	1626.09
763.53	1759.21
763.71	1673.19
763.89	1615.85
764.07	1773.54
764.24	1748.97
764.42	1710.05
764.60	1648.61
764.78	1710.05
764.96	1681.38
765.13	1785.83
765.31	1765.35
765.49	1738.73
765.67	1658.85
765.84	1734.63
766.02	1728.49
766.20	1628.14
766.38	1742.82
766.56	1720.29
766.73	1757.16
766.91	1710.05
767.09	1673.19
767.27	1671.14
767.44	1679.33
767.62	1691.62
767.80	1742.82
767.98	1665.00
768.15	1685.48
768.33	1734.63
768.51	1753.06
768.69	1714.15
768.87	1648.61
769.04	1691.62
769.22	1820.64
769.40	1763.30
769.58	1851.36
769.75	1738.73
769.93	1830.88
770.11	1658.85
770.28	1632.23
770.46	1744.87
770.64	1667.05
770.82	1736.68
770.99	1732.58
771.17	1734.63
771.35	1701.86
771.53	1679.33
771.70	1687.53
771.88	1761.25
772.06	1693.67
772.23	1654.76
772.41	1767.40
772.59	1714.15
772.77	1617.90
772.94	1708.01
773.12	1724.39
773.30	1656.81
773.47	1783.78
773.65	1681.38
773.83	1759.21
774.01	1701.86
774.18	1662.95
774.36	1677.29
774.54	1665.00
774.71	1701.86
774.89	1597.42
775.07	1624.04
775.24	1646.57
775.42	1640.42
775.60	1820.64
775.78	1681.38
775.95	1683.43
776.13	1613.80
776.31	1583.08
776.48	1710.05
776.66	1726.44
776.84	1693.67
777.01	1650.66
777.19	1613.80
777.37	1716.20
777.54	1710.05
777.72	1820.64
777.90	1714.15
778.07	1615.85
778.25	1867.75
778.43	1732.58
778.60	1726.44
778.78	1740.77
778.96	1794.02
779.13	1599.46
779.31	1791.97
779.49	1691.62
779.66	1716.20
779.84	1701.86
780.01	1734.63
780.19	1636.33
780.37	1730.53
780.54	1691.62
780.72	1673.19
780.90	1724.39
781.07	1656.81
781.25	1660.90
781.43	1783.78
781.60	1665.00
781.78	1810.40
781.95	1712.10
782.13	1687.53
782.31	1665.00
782.48	1636.33
782.66	1699.81
782.83	1816.55
783.01	1726.44
783.19	1708.01
783.36	1685.48
783.54	1568.74
783.72	1734.63
783.89	1632.23
784.07	1712.10
784.24	1720.29
784.42	1763.30
784.60	1765.35
784.77	1720.29
784.95	1615.85
785.12	1720.29
785.30	1726.44
785.47	1658.85
785.65	1630.18
785.83	1656.81
786.00	1669.09
786.18	1779.68
786.35	1689.57
786.53	1724.39
786.71	1740.77
786.88	1722.34
787.06	1673.19
787.23	1615.85
787.41	1601.51
787.58	1728.49
787.76	1679.33
787.94	1751.01
788.11	1746.92
788.29	1667.05
788.46	1667.05
788.64	1595.37
788.81	1652.71
788.99	1697.77
789.16	1624.04
789.34	1660.90
789.52	1662.95
789.69	1687.53
789.87	1626.09
790.04	1714.15
790.22	1730.53
790.39	1820.64
790.57	1617.90
790.74	1640.42
790.92	1779.68
791.09	1628.14
791.27	1730.53
791.44	1718.25
791.62	1701.86
791.79	1697.77
791.97	1763.30
792.15	1837.03
792.32	1748.97
792.50	1658.85
792.67	1728.49
792.85	1679.33
793.02	1730.53
793.20	1615.85
793.37	1624.04
793.55	1699.81
793.72	1630.18
793.90	1783.78
794.07	1646.57
794.25	1689.57
794.42	1679.33
794.60	1667.05
794.77	1708.01
794.95	1683.43
795.12	1693.67
795.30	1660.90
795.47	1587.18
795.65	1869.80
795.82	1765.35
796.00	1677.29
796.17	1656.81
796.34	1718.25
796.52	1726.44
796.69	1693.67
796.87	1718.25
797.04	1667.05
797.22	1677.29
797.39	1708.01
797.57	1759.21
797.74	1615.85
797.92	1652.71
798.09	1703.91
798.27	1746.92
798.44	1728.49
798.62	1675.24
798.79	1705.96
798.96	1710.05
799.14	1632.23
799.31	1789.92
799.49	1624.04
799.66	1746.92
799.84	1683.43
800.01	1640.42
800.19	1697.77
800.36	1589.22
800.53	1703.91
800.71	1681.38
800.88	1816.55
801.06	1607.66
801.23	1673.19
801.41	1693.67
801.58	1656.81
801.75	1609.70
801.93	1681.38
802.10	1742.82
802.28	1691.62
802.45	1591.27
802.63	1691.62
802.80	1763.30
802.97	1705.96
803.15	1771.49
803.32	1652.71
803.50	1570.79
803.67	1632.23
803.84	1638.38
804.02	1705.96
804.19	1685.48
804.37	1656.81
804.54	1671.14
804.71	1746.92
804.89	1697.77
805.06	1673.19
805.24	1630.18
805.41	1621.99
805.58	1714.15
805.76	1812.45
805.93	1720.29
806.10	1726.44
806.28	1767.40
806.45	1648.61
806.63	1703.91
806.80	1751.01
806.97	1740.77
807.15	1751.01
807.32	1652.71
807.49	1699.81
807.67	1640.42
807.84	1689.57
808.01	1552.36
808.19	1806.31
808.36	1808.36
808.54	1744.87
808.71	1615.85
808.88	1691.62
809.06	1708.01
809.23	1796.07
809.40	1734.63
809.58	1826.79
809.75	1695.72
809.92	1638.38
810.10	1785.83
810.27	1697.77
810.44	1705.96
810.62	1744.87
810.79	1689.57
810.96	1669.09
811.14	1638.38
811.31	1660.90
811.48	1724.39
811.66	1675.24
811.83	1718.25
812.00	1759.21
812.18	1693.67
812.35	1824.74
812.52	1644.52
812.69	1673.19
812.87	1640.42
813.04	1667.05
813.21	1736.68
813.39	1742.82
813.56	1640.42
813.73	1783.78
813.91	1595.37
814.08	1757.16
814.25	1683.43
814.42	1628.14
814.60	1662.95
814.77	1703.91
814.94	1683.43
815.12	1681.38
815.29	1740.77
815.46	1642.47
815.63	1708.01
815.81	1691.62
815.98	1638.38
816.15	1718.25
816.33	1740.77
816.50	1718.25
816.67	1681.38
816.84	1675.24
817.02	1593.32
817.19	1728.49
817.36	1658.85
817.53	1730.53
817.71	1628.14
817.88	1779.68
818.05	1697.77
818.22	1669.09
818.40	1806.31
818.57	1683.43
818.74	1679.33
818.91	1714.15
819.09	1789.92
819.26	1701.86
819.43	1671.14
819.60	1648.61
819.78	1714.15
819.95	1728.49
820.12	1605.61
820.29	1849.32
820.47	1783.78
820.64	1603.56
820.81	1644.52
820.98	1669.09
821.15	1669.09
821.33	1691.62
821.50	1583.08
821.67	1771.49
821.84	1701.86
822.02	1718.25
822.19	1787.88
822.36	1689.57
822.53	1691.62
822.70	1673.19
822.88	1705.96
823.05	1806.31
823.22	1648.61
823.39	1753.06
823.56	1718.25
823.74	1755.11
823.91	1615.85
824.08	1675.24
824.25	1624.04
824.42	1732.58
824.60	1662.95
824.77	1722.34
824.94	1681.38
825.11	1689.57
825.28	1632.23
825.45	1726.44
825.63	1712.10
825.80	1638.38
825.97	1716.20
826.14	1712.10
826.31	1607.66
826.48	1699.81
826.66	1677.29
826.83	1654.76
827.00	1751.01
827.17	1687.53
827.34	1716.20
827.51	1642.47
827.69	1718.25
827.86	1642.47
828.03	1671.14
828.20	1712.10
828.37	1681.38
828.54	1744.87
828.71	1701.86
828.89	1769.44
829.06	1730.53
829.23	1796.07
829.40	1671.14
829.57	1716.20
829.74	1712.10
829.91	1628.14
830.09	1642.47
830.26	1744.87
830.43	1720.29
830.60	1658.85
830.77	1796.07
830.94	1751.01
831.11	1734.63
831.28	1632.23
831.46	1714.15
831.63	1691.62
831.80	1736.68
831.97	1570.79
832.14	1681.38
832.31	1748.97
832.48	1693.67
832.65	1787.88
832.82	1693.67
832.99	1687.53
833.17	1675.24
833.34	1777.64
833.51	1757.16
833.68	1564.65
833.85	1703.91
834.02	1615.85
834.19	1642.47
834.36	1603.56
834.53	1767.40
834.70	1828.84
834.87	1679.33
835.04	1689.57
835.22	1630.18
835.39	1746.92
835.56	1589.22
835.73	1652.71
835.90	1726.44
836.07	1705.96
836.24	1667.05
836.41	1636.33
836.58	1648.61
836.75	1716.20
836.92	1722.34
837.09	1697.77
837.26	1714.15
837.43	1652.71
837.60	1648.61
837.77	1652.71
837.94	1732.58
838.12	1740.77
838.29	1701.86
838.46	1632.23
838.63	1617.90
838.80	1834.98
838.97	1773.54
839.14	1732.58
839.31	1712.10
839.48	1722.34
839.65	1736.68
839.82	1714.15
839.99	1755.11
840.16	1660.90
840.33	1646.57
840.50	1763.30
840.67	1644.52
840.84	1572.84
841.01	1753.06
841.18	1650.66
841.35	1716.20
841.52	1814.50
841.69	1800.16
841.86	1738.73
842.03	1650.66
842.20	1695.72
842.37	1689.57
842.54	1667.05
842.71	1742.82
842.88	1566.70
843.05	1818.60
843.22	1660.90
843.39	1714.15
843.56	1673.19
843.73	1695.72
843.90	1804.26
844.07	1746.92
844.24	1804.26
844.41	1730.53
844.58	1716.20
844.75	1746.92
844.92	1640.42
845.09	1703.91
845.26	1654.76
845.43	1730.53
845.60	1607.66
845.77	1681.38
845.94	1615.85
846.10	1755.11
846.27	1658.85
846.44	1624.04
846.61	1687.53
846.78	1755.11
846.95	1757.16
847.12	1742.82
847.29	1662.95
847.46	1644.52
847.63	1789.92
847.80	1683.43
847.97	1673.19
848.14	1814.50
848.31	1712.10
848.48	1587.18
848.65	1787.88
848.82	1660.90
848.98	1853.41
849.15	1765.35
849.32	1789.92
849.49	1658.85
849.66	1691.62
849.83	1646.57
850.00	1679.33
850.17	1789.92
850.34	1648.61
850.51	1677.29
850.68	1675.24
850.85	1826.79
851.01	1624.04
851.18	1744.87
851.35	1685.48
851.52	1722.34
851.69	1806.31
851.86	1753.06
852.03	1660.90
852.20	1759.21
852.37	1640.42
852.53	1683.43
852.70	1673.19
852.87	1732.58
853.04	1748.97
853.21	1665.00
853.38	1767.40
853.55	1761.25
853.72	1757.16
853.89	1683.43
854.05	1677.29
854.22	1720.29
854.39	1681.38
854.56	1710.05
854.73	1693.67
854.90	1710.05
855.07	1609.70
855.23	1685.48
855.40	1679.33
855.57	1685.48
855.74	1591.27
855.91	1865.70
856.08	1574.89
856.25	1667.05
856.41	1740.77
856.58	1640.42
856.75	1671.14
856.92	1652.71
857.09	1662.95
857.26	1574.89
857.42	1652.71
857.59	1710.05
857.76	1716.20
857.93	1687.53
858.10	1646.57
858.27	1634.28
858.43	1703.91
858.60	1658.85
858.77	1607.66
858.94	1660.90
859.11	1800.16
859.27	1603.56
859.44	1675.24
859.61	1804.26
859.78	1742.82
859.95	1613.80
860.12	1640.42
860.28	1779.68
860.45	1746.92
860.62	1607.66
860.79	1724.39
860.95	1734.63
861.12	1603.56
861.29	1665.00
861.46	1675.24
861.63	1695.72
861.79	1662.95
861.96	1685.48
862.13	1716.20
862.30	1746.92
862.47	1683.43
862.63	1621.99
862.80	1736.68
862.97	1726.44
863.14	1714.15
863.30	1734.63
863.47	1669.09
863.64	1781.73
863.81	1728.49
863.97	1572.84
864.14	1699.81
864.31	1744.87
864.48	1673.19
864.65	1703.91
864.81	1685.48
864.98	1699.81
865.15	1724.39
865.32	1802.21
865.48	1722.34
865.65	1767.40
865.82	1677.29
865.98	1744.87
866.15	1714.15
866.32	1669.09
866.49	1675.24
866.65	1761.25
866.82	1636.33
866.99	1658.85
867.16	1669.09
867.32	1601.51
867.49	1644.52
867.66	1697.77
867.83	1685.48
867.99	1601.51
868.16	1660.90
868.33	1617.90
868.49	1673.19
868.66	1675.24
868.83	1816.55
868.99	1671.14
869.16	1755.11
869.33	1771.49
869.50	1822.69
869.66	1695.72
869.83	1681.38
870.00	1605.61
870.16	1681.38
870.33	1722.34
870.50	1708.01
870.66	1705.96
870.83	1730.53
871.00	1730.53
871.17	1621.99
871.33	1658.85
871.50	1728.49
871.67	1691.62
871.83	1683.43
872.00	1822.69
872.17	1665.00
872.33	1748.97
872.50	1763.30
872.67	1644.52
872.83	1673.19
873.00	1763.30
873.17	1671.14
873.33	1734.63
873.50	1726.44
873.67	1601.51
873.83	1693.67
874.00	1687.53
874.16	1800.16
874.33	1673.19
874.50	1574.89
874.66	1732.58
874.83	1701.86
875.00	1703.91
875.16	1681.38
875.33	1779.68
875.50	1550.31
875.66	1697.77
875.83	1675.24
875.99	1814.50
876.16	1697.77
876.33	1658.85
876.49	1681.38
876.66	1728.49
876.83	1638.38
876.99	1642.47
877.16	1656.81
877.32	1673.19
877.49	1689.57
877.66	1652.71
877.82	1769.44
877.99	1751.01
878.15	1714.15
878.32	1660.90
878.49	1693.67
878.65	1681.38
878.82	1830.88
878.98	1638.38
879.15	1699.81
879.32	1748.97
879.48	1652.71
879.65	1681.38
879.81	1691.62
879.98	1650.66
880.15	1732.58
880.31	1712.10
880.48	1613.80
880.64	1748.97
880.81	1763.30
880.97	1851.36
881.14	1695.72
881.31	1636.33
881.47	1886.18
881.64	1697.77
881.80	1667.05
881.97	1697.77
882.13	1796.07
882.30	1697.77
882.47	1689.57
882.63	1605.61
882.80	1640.42
882.96	1652.71
883.13	1796.07
883.29	1716.20
883.46	1687.53
883.62	1834.98
883.79	1718.25
883.95	1746.92
884.12	1753.06
884.29	1794.02
884.45	1673.19
884.62	1726.44
884.78	1671.14
884.95	1796.07
885.11	1640.42
885.28	1746.92
885.44	1636.33
885.61	1703.91
885.77	1814.50
885.94	1763.30
886.10	1724.39
886.27	1734.63
886.43	1742.82
886.60	1783.78
886.76	1642.47
886.93	1669.09
887.09	1708.01
887.26	1640.42
887.42	1665.00
887.59	1773.54
887.75	1847.27
887.92	1816.55
888.08	1746.92
888.25	1742.82
888.41	1738.73
888.58	1708.01
888.74	1615.85
888.91	1650.66
>>>>>End Processed Spectral Data<<<<<
