SpectraSuite Data File
++++++++++++++++++++++++++++++++++++
Date: Mon Jun 06 13:36:37 CEST 2016
User: root
Dark Spectrum Present: No
Reference Spectrum Present: No
Number of Sampled Component Spectra: 1
Spectrometers: USB4C02835
Integration Time (usec): 100000 (USB4C02835)
Spectra Averaged: 1 (USB4C02835)
Boxcar Smoothing: 0 (USB4C02835)
Correct for Electrical Dark: No (USB4C02835)
Strobe/Lamp Enabled: No (USB4C02835)
Correct for Detector Non-linearity: No (USB4C02835)
Correct for Stray Light: No (USB4C02835)
Number of Pixels in Processed Spectrum: 3648
>>>>>Begin Processed Spectral Data<<<<<
177.47	1443.82
177.69	1443.82
177.91	1443.82
178.13	1523.69
178.36	1458.15
178.58	1568.74
178.80	1673.19
179.02	1626.09
179.24	1591.27
179.46	1744.87
179.68	1718.25
179.90	1593.32
180.13	1718.25
180.35	1693.67
180.57	1794.02
180.79	1722.34
181.01	1718.25
181.23	1742.82
181.45	1689.57
181.67	1722.34
181.90	1775.59
182.12	1644.52
182.34	1562.60
182.56	1732.58
182.78	1708.01
183.00	1699.81
183.22	1665.00
183.44	1611.75
183.66	1914.85
183.89	1751.01
184.11	1691.62
184.33	1755.11
184.55	1791.97
184.77	1656.81
184.99	1681.38
185.21	1681.38
185.43	1873.89
185.65	1708.01
185.87	1716.20
186.10	1759.21
186.32	1796.07
186.54	1718.25
186.76	1753.06
186.98	1742.82
187.20	1730.53
187.42	1740.77
187.64	1689.57
187.86	1722.34
188.08	1751.01
188.30	1726.44
188.52	1681.38
188.75	1779.68
188.97	1726.44
189.19	1656.81
189.41	1634.28
189.63	1621.99
189.85	1708.01
190.07	1634.28
190.29	1591.27
190.51	1800.16
190.73	1564.65
190.95	1767.40
191.17	1746.92
191.39	1699.81
191.61	1656.81
191.84	1650.66
192.06	1742.82
192.28	1644.52
192.50	1904.61
192.72	1837.03
192.94	1652.71
193.16	1769.44
193.38	1683.43
193.60	1648.61
193.82	1650.66
194.04	1722.34
194.26	1667.05
194.48	1699.81
194.70	1701.86
194.92	1628.14
195.14	1732.58
195.36	1650.66
195.58	1632.23
195.80	1695.72
196.02	1654.76
196.24	1650.66
196.46	1726.44
196.69	1654.76
196.91	1841.12
197.13	1697.77
197.35	1581.03
197.57	1681.38
197.79	1738.73
198.01	1738.73
198.23	1742.82
198.45	1656.81
198.67	1591.27
198.89	1660.90
199.11	1734.63
199.33	1648.61
199.55	1609.70
199.77	1720.29
199.99	1767.40
200.21	1658.85
200.43	1785.83
200.65	1585.13
200.87	1648.61
201.09	1607.66
201.31	1710.05
201.53	1714.15
201.75	1703.91
201.97	1646.57
202.19	1699.81
202.41	1757.16
202.63	1791.97
202.85	1677.29
203.07	1726.44
203.29	1679.33
203.51	1665.00
203.73	1566.70
203.95	1806.31
204.17	1658.85
204.39	1738.73
204.61	1652.71
204.83	1759.21
205.05	1742.82
205.27	1748.97
205.49	1853.41
205.71	1724.39
205.93	1636.33
206.15	1636.33
206.37	1662.95
206.59	1638.38
206.81	1644.52
207.03	1675.24
207.25	1687.53
207.47	1779.68
207.69	1689.57
207.91	1730.53
208.13	1746.92
208.34	1671.14
208.56	1650.66
208.78	1718.25
209.00	1689.57
209.22	1636.33
209.44	1763.30
209.66	1726.44
209.88	1660.90
210.10	1685.48
210.32	1677.29
210.54	1763.30
210.76	1722.34
210.98	1708.01
211.20	1593.32
211.42	1736.68
211.64	1724.39
211.86	1708.01
212.08	1667.05
212.30	1710.05
212.52	1644.52
212.74	1720.29
212.96	1703.91
213.17	1808.36
213.39	1759.21
213.61	1722.34
213.83	1675.24
214.05	1652.71
214.27	1734.63
214.49	1695.72
214.71	1628.14
214.93	1824.74
215.15	1683.43
215.37	1708.01
215.59	1589.22
215.81	1769.44
216.03	1773.54
216.24	1708.01
216.46	1683.43
216.68	1697.77
216.90	1755.11
217.12	1746.92
217.34	1763.30
217.56	1826.79
217.78	1769.44
218.00	1732.58
218.22	1773.54
218.44	1765.35
218.66	1650.66
218.87	1755.11
219.09	1626.09
219.31	1701.86
219.53	1804.26
219.75	1689.57
219.97	1615.85
220.19	1652.71
220.41	1687.53
220.63	1722.34
220.85	1763.30
221.06	1634.28
221.28	1757.16
221.50	1669.09
221.72	1621.99
221.94	1703.91
222.16	1681.38
222.38	1726.44
222.60	1728.49
222.82	1732.58
223.03	1775.59
223.25	1660.90
223.47	1734.63
223.69	1736.68
223.91	1738.73
224.13	1671.14
224.35	1708.01
224.57	1720.29
224.78	1681.38
225.00	1624.04
225.22	1667.05
225.44	1673.19
225.66	1701.86
225.88	1722.34
226.10	1755.11
226.32	1730.53
226.53	1722.34
226.75	1681.38
226.97	1701.86
227.19	1740.77
227.41	1628.14
227.63	1734.63
227.85	1667.05
228.06	1689.57
228.28	1671.14
228.50	1791.97
228.72	1757.16
228.94	1710.05
229.16	1677.29
229.37	1689.57
229.59	1578.98
229.81	1808.36
230.03	1644.52
230.25	1578.98
230.47	1585.13
230.69	1658.85
230.90	1718.25
231.12	1685.48
231.34	1736.68
231.56	1744.87
231.78	1693.67
232.00	1714.15
232.21	1699.81
232.43	1665.00
232.65	1601.51
232.87	1724.39
233.09	1609.70
233.30	1628.14
233.52	1720.29
233.74	1701.86
233.96	1703.91
234.18	1705.96
234.40	1689.57
234.61	1755.11
234.83	1689.57
235.05	1572.84
235.27	1777.64
235.49	1710.05
235.70	1681.38
235.92	1765.35
236.14	1742.82
236.36	1798.12
236.58	1691.62
236.79	1699.81
237.01	1683.43
237.23	1693.67
237.45	1837.03
237.67	1689.57
237.88	1714.15
238.10	1734.63
238.32	1710.05
238.54	1703.91
238.76	1646.57
238.97	1689.57
239.19	1662.95
239.41	1763.30
239.63	1691.62
239.85	1574.89
240.06	1591.27
240.28	1699.81
240.50	1804.26
240.72	1665.00
240.93	1708.01
241.15	1814.50
241.37	1720.29
241.59	1789.92
241.81	1621.99
242.02	1673.19
242.24	1691.62
242.46	1746.92
242.68	1675.24
242.89	1701.86
243.11	1740.77
243.33	1648.61
243.55	1640.42
243.76	1662.95
243.98	1662.95
244.20	1656.81
244.42	1624.04
244.64	1730.53
244.85	1605.61
245.07	1652.71
245.29	1705.96
245.51	1738.73
245.72	1714.15
245.94	1851.36
246.16	1675.24
246.38	1734.63
246.59	1673.19
246.81	1632.23
247.03	1697.77
247.24	1626.09
247.46	1652.71
247.68	1677.29
247.90	1646.57
248.11	1685.48
248.33	1759.21
248.55	1705.96
248.77	1665.00
248.98	1722.34
249.20	1869.80
249.42	1751.01
249.64	1722.34
249.85	1634.28
250.07	1642.47
250.29	1767.40
250.50	1710.05
250.72	1652.71
250.94	1748.97
251.16	1847.27
251.37	1804.26
251.59	1689.57
251.81	1740.77
252.02	1808.36
252.24	1652.71
252.46	1779.68
252.68	1630.18
252.89	1644.52
253.11	1656.81
253.33	1796.07
253.54	1757.16
253.76	1587.18
253.98	1667.05
254.20	1697.77
254.41	1701.86
254.63	1740.77
254.85	1599.46
255.06	1716.20
255.28	1718.25
255.50	1744.87
255.71	1732.58
255.93	1597.42
256.15	1669.09
256.36	1689.57
256.58	1699.81
256.80	1675.24
257.02	1701.86
257.23	1687.53
257.45	1710.05
257.67	1724.39
257.88	1652.71
258.10	1728.49
258.32	1662.95
258.53	1658.85
258.75	1816.55
258.97	1669.09
259.18	1722.34
259.40	1722.34
259.62	1877.99
259.83	1738.73
260.05	1705.96
260.27	1959.91
260.48	1714.15
260.70	1677.29
260.92	1691.62
261.13	1712.10
261.35	1728.49
261.57	1697.77
261.78	1634.28
262.00	1634.28
262.22	1703.91
262.43	1681.38
262.65	1636.33
262.86	1689.57
263.08	1857.51
263.30	1724.39
263.51	1669.09
263.73	1587.18
263.95	1751.01
264.16	1660.90
264.38	1777.64
264.60	1779.68
264.81	1703.91
265.03	1718.25
265.25	1755.11
265.46	1644.52
265.68	1820.64
265.89	1677.29
266.11	1621.99
266.33	1808.36
266.54	1783.78
266.76	1714.15
266.98	1718.25
267.19	1812.45
267.41	1763.30
267.62	1662.95
267.84	1587.18
268.06	1730.53
268.27	1718.25
268.49	1773.54
268.70	1718.25
268.92	1705.96
269.14	1634.28
269.35	1632.23
269.57	1718.25
269.79	1734.63
270.00	1669.09
270.22	1712.10
270.43	1613.80
270.65	1619.94
270.87	1712.10
271.08	1705.96
271.30	1673.19
271.51	1736.68
271.73	1759.21
271.95	1794.02
272.16	1730.53
272.38	1714.15
272.59	1746.92
272.81	1701.86
273.02	1777.64
273.24	1714.15
273.46	1699.81
273.67	1658.85
273.89	1658.85
274.10	1587.18
274.32	1714.15
274.54	1705.96
274.75	1705.96
274.97	1777.64
275.18	1724.39
275.40	1800.16
275.61	1605.61
275.83	1763.30
276.05	1681.38
276.26	1697.77
276.48	1726.44
276.69	1662.95
276.91	1683.43
277.12	1779.68
277.34	1746.92
277.55	1720.29
277.77	1763.30
277.99	1728.49
278.20	1615.85
278.42	1599.46
278.63	1673.19
278.85	1671.14
279.06	1619.94
279.28	1751.01
279.49	1773.54
279.71	1775.59
279.93	1652.71
280.14	1722.34
280.36	1710.05
280.57	1773.54
280.79	1839.08
281.00	1658.85
281.22	1619.94
281.43	1751.01
281.65	1615.85
281.86	1626.09
282.08	1810.40
282.29	1791.97
282.51	1628.14
282.73	1613.80
282.94	1636.33
283.16	1765.35
283.37	1763.30
283.59	1675.24
283.80	1697.77
284.02	1726.44
284.23	1722.34
284.45	1617.90
284.66	1652.71
284.88	1671.14
285.09	1761.25
285.31	1726.44
285.52	1703.91
285.74	1544.17
285.95	1695.72
286.17	1718.25
286.38	1636.33
286.60	1681.38
286.81	1671.14
287.03	1697.77
287.24	1689.57
287.46	1751.01
287.67	1691.62
287.89	1806.31
288.10	1746.92
288.32	1708.01
288.53	1779.68
288.75	1796.07
288.96	1642.47
289.18	1652.71
289.39	1652.71
289.61	1785.83
289.82	1814.50
290.04	1730.53
290.25	1640.42
290.47	1667.05
290.68	1697.77
290.90	1798.12
291.11	1583.08
291.33	1781.73
291.54	1626.09
291.76	1652.71
291.97	1701.86
292.18	1710.05
292.40	1683.43
292.61	1689.57
292.83	1777.64
293.04	1703.91
293.26	1787.88
293.47	1640.42
293.69	1681.38
293.90	1748.97
294.12	1667.05
294.33	1693.67
294.55	1673.19
294.76	1775.59
294.97	1691.62
295.19	1773.54
295.40	1665.00
295.62	1712.10
295.83	1701.86
296.05	1593.32
296.26	1693.67
296.48	1624.04
296.69	1701.86
296.90	1703.91
297.12	1753.06
297.33	1779.68
297.55	1740.77
297.76	1738.73
297.98	1728.49
298.19	1763.30
298.41	1697.77
298.62	1626.09
298.83	1818.60
299.05	1646.57
299.26	1689.57
299.48	1685.48
299.69	1744.87
299.90	1689.57
300.12	1624.04
300.33	1777.64
300.55	1679.33
300.76	1716.20
300.98	1646.57
301.19	1732.58
301.40	1751.01
301.62	1658.85
301.83	1769.44
302.05	1687.53
302.26	1726.44
302.47	1736.68
302.69	1660.90
302.90	1730.53
303.12	1544.17
303.33	1753.06
303.54	1775.59
303.76	1732.58
303.97	1652.71
304.19	1757.16
304.40	1589.22
304.61	1691.62
304.83	1837.03
305.04	1732.58
305.26	1722.34
305.47	1679.33
305.68	1757.16
305.90	1658.85
306.11	1837.03
306.33	1703.91
306.54	1685.48
306.75	1619.94
306.97	1611.75
307.18	1648.61
307.39	1615.85
307.61	1646.57
307.82	1603.56
308.04	1724.39
308.25	1669.09
308.46	1738.73
308.68	1662.95
308.89	1689.57
309.10	1697.77
309.32	1705.96
309.53	1675.24
309.74	1751.01
309.96	1667.05
310.17	1794.02
310.39	1667.05
310.60	1693.67
310.81	1681.38
311.03	1621.99
311.24	1746.92
311.45	1673.19
311.67	1810.40
311.88	1720.29
312.09	1722.34
312.31	1724.39
312.52	1748.97
312.73	1724.39
312.95	1609.70
313.16	1642.47
313.37	1816.55
313.59	1728.49
313.80	1859.56
314.01	1757.16
314.23	1738.73
314.44	1673.19
314.65	1685.48
314.87	1607.66
315.08	1605.61
315.29	1734.63
315.51	1609.70
315.72	1611.75
315.93	1818.60
316.15	1724.39
316.36	1689.57
316.57	1691.62
316.79	1755.11
317.00	1669.09
317.21	1714.15
317.43	1665.00
317.64	1724.39
317.85	1626.09
318.07	1697.77
318.28	1718.25
318.49	1863.65
318.70	1898.47
318.92	1867.75
319.13	1810.40
319.34	1841.12
319.56	1753.06
319.77	1787.88
319.98	1808.36
320.20	1759.21
320.41	1744.87
320.62	1710.05
320.83	1658.85
321.05	1875.94
321.26	1757.16
321.47	1730.53
321.69	1861.60
321.90	1665.00
322.11	1658.85
322.32	1689.57
322.54	1781.73
322.75	1722.34
322.96	1877.99
323.18	1628.14
323.39	1607.66
323.60	1632.23
323.81	1718.25
324.03	1642.47
324.24	1691.62
324.45	1728.49
324.66	1656.81
324.88	1755.11
325.09	1710.05
325.30	1677.29
325.52	1683.43
325.73	1679.33
325.94	1638.38
326.15	1609.70
326.37	1714.15
326.58	1765.35
326.79	1757.16
327.00	1728.49
327.22	1685.48
327.43	1630.18
327.64	1605.61
327.85	1646.57
328.07	1718.25
328.28	1861.60
328.49	1630.18
328.70	1681.38
328.92	1730.53
329.13	1677.29
329.34	1732.58
329.55	1796.07
329.76	1773.54
329.98	1638.38
330.19	1748.97
330.40	1708.01
330.61	1716.20
330.83	1748.97
331.04	1595.37
331.25	1728.49
331.46	1634.28
331.68	1677.29
331.89	1730.53
332.10	1703.91
332.31	1730.53
332.52	1634.28
332.74	1738.73
332.95	1626.09
333.16	1732.58
333.37	1689.57
333.58	1644.52
333.80	1730.53
334.01	1650.66
334.22	1652.71
334.43	1656.81
334.64	1660.90
334.86	1603.56
335.07	1671.14
335.28	1748.97
335.49	1687.53
335.70	1665.00
335.92	1771.49
336.13	1812.45
336.34	1681.38
336.55	1705.96
336.76	1740.77
336.98	1636.33
337.19	1701.86
337.40	1800.16
337.61	1828.84
337.82	1624.04
338.04	1714.15
338.25	1552.36
338.46	1640.42
338.67	1665.00
338.88	1626.09
339.09	1570.79
339.31	1728.49
339.52	1632.23
339.73	1546.22
339.94	1775.59
340.15	1740.77
340.36	1665.00
340.58	1730.53
340.79	1683.43
341.00	1703.91
341.21	1595.37
341.42	1722.34
341.63	1730.53
341.85	1701.86
342.06	1675.24
342.27	1697.77
342.48	1732.58
342.69	1601.51
342.90	1746.92
343.12	1669.09
343.33	1701.86
343.54	1630.18
343.75	1855.46
343.96	1665.00
344.17	1669.09
344.38	1691.62
344.60	1642.47
344.81	1619.94
345.02	1708.01
345.23	1714.15
345.44	1755.11
345.65	1763.30
345.86	1710.05
346.07	1656.81
346.29	1671.14
346.50	1722.34
346.71	1644.52
346.92	1773.54
347.13	1877.99
347.34	1722.34
347.55	1703.91
347.76	1740.77
347.98	1683.43
348.19	1665.00
348.40	1787.88
348.61	1705.96
348.82	1779.68
349.03	1769.44
349.24	1687.53
349.45	1857.51
349.66	1583.08
349.88	1738.73
350.09	1691.62
350.30	1748.97
350.51	1685.48
350.72	1724.39
350.93	1785.83
351.14	1619.94
351.35	1695.72
351.56	1683.43
351.77	1683.43
351.99	1720.29
352.20	1738.73
352.41	1767.40
352.62	1591.27
352.83	1691.62
353.04	1660.90
353.25	1734.63
353.46	1783.78
353.67	1621.99
353.88	1669.09
354.09	1738.73
354.30	1679.33
354.52	1736.68
354.73	1621.99
354.94	1660.90
355.15	1746.92
355.36	1796.07
355.57	1628.14
355.78	1673.19
355.99	1603.56
356.20	1603.56
356.41	1789.92
356.62	1701.86
356.83	1685.48
357.04	1748.97
357.25	1621.99
357.46	1708.01
357.68	1593.32
357.89	1679.33
358.10	1705.96
358.31	1691.62
358.52	1728.49
358.73	1619.94
358.94	1695.72
359.15	1681.38
359.36	1718.25
359.57	1693.67
359.78	1687.53
359.99	1722.34
360.20	1656.81
360.41	1708.01
360.62	1742.82
360.83	1740.77
361.04	1710.05
361.25	1726.44
361.46	1837.03
361.67	1701.86
361.88	1746.92
362.09	1777.64
362.30	1742.82
362.51	1613.80
362.72	1628.14
362.93	1751.01
363.14	1755.11
363.35	1798.12
363.56	1656.81
363.78	1714.15
363.99	1675.24
364.20	1675.24
364.41	1757.16
364.62	1818.60
364.83	1693.67
365.04	1619.94
365.25	1738.73
365.46	1800.16
365.67	1677.29
365.88	1490.92
366.09	1673.19
366.30	1617.90
366.51	1718.25
366.72	1697.77
366.93	1591.27
367.14	1736.68
367.35	1738.73
367.56	1699.81
367.77	1789.92
367.98	1662.95
368.18	1708.01
368.39	1728.49
368.60	1644.52
368.81	1736.68
369.02	1744.87
369.23	1730.53
369.44	1574.89
369.65	1693.67
369.86	1726.44
370.07	1767.40
370.28	1703.91
370.49	1751.01
370.70	1734.63
370.91	1595.37
371.12	1644.52
371.33	1837.03
371.54	1658.85
371.75	1783.78
371.96	1648.61
372.17	1697.77
372.38	1693.67
372.59	1650.66
372.80	1601.51
373.01	1599.46
373.22	1781.73
373.43	1775.59
373.64	1609.70
373.85	1791.97
374.06	1757.16
374.26	1736.68
374.47	1734.63
374.68	1789.92
374.89	1646.57
375.10	1617.90
375.31	1779.68
375.52	1724.39
375.73	1726.44
375.94	1603.56
376.15	1753.06
376.36	1599.46
376.57	1689.57
376.78	1730.53
376.99	1693.67
377.20	1777.64
377.40	1710.05
377.61	1783.78
377.82	1638.38
378.03	1724.39
378.24	1775.59
378.45	1718.25
378.66	1730.53
378.87	1648.61
379.08	1673.19
379.29	1646.57
379.50	1794.02
379.71	1617.90
379.91	1689.57
380.12	1656.81
380.33	1730.53
380.54	1705.96
380.75	1695.72
380.96	1662.95
381.17	1789.92
381.38	1695.72
381.59	1714.15
381.80	1669.09
382.00	1863.65
382.21	1757.16
382.42	1804.26
382.63	1769.44
382.84	1708.01
383.05	1785.83
383.26	1824.74
383.47	1787.88
383.68	1730.53
383.88	1658.85
384.09	1716.20
384.30	1849.32
384.51	1746.92
384.72	1714.15
384.93	1705.96
385.14	1644.52
385.35	1834.98
385.55	1611.75
385.76	1763.30
385.97	1689.57
386.18	1656.81
386.39	1691.62
386.60	1644.52
386.81	1701.86
387.02	1652.71
387.22	1644.52
387.43	1818.60
387.64	1785.83
387.85	1869.80
388.06	2187.23
388.27	4159.42
388.48	6813.59
388.68	8222.59
388.89	9688.94
389.10	9725.80
389.31	8341.38
389.52	7514.00
389.73	6619.04
389.93	6256.54
390.14	5787.56
390.35	4984.76
390.56	4599.74
390.77	3819.46
390.98	3047.38
391.18	2478.04
391.39	2136.03
391.60	1771.49
391.81	1894.37
392.02	1701.86
392.23	1824.74
392.43	1689.57
392.64	1800.16
392.85	1759.21
393.06	1755.11
393.27	1607.66
393.47	1710.05
393.68	1757.16
393.89	1626.09
394.10	1826.79
394.31	1683.43
394.52	1603.56
394.72	1626.09
394.93	1783.78
395.14	1615.85
395.35	1816.55
395.56	1615.85
395.76	1773.54
395.97	1775.59
396.18	1853.41
396.39	1828.84
396.60	1976.29
396.80	1888.23
397.01	1800.16
397.22	1794.02
397.43	1820.64
397.64	1724.39
397.84	1773.54
398.05	1794.02
398.26	1775.59
398.47	1775.59
398.67	1726.44
398.88	1708.01
399.09	1748.97
399.30	1746.92
399.51	1757.16
399.71	1712.10
399.92	1755.11
400.13	1746.92
400.34	1677.29
400.54	1705.96
400.75	1822.69
400.96	1705.96
401.17	1853.41
401.37	1726.44
401.58	1796.07
401.79	1759.21
402.00	1830.88
402.21	1961.95
402.41	1970.15
402.62	1966.05
402.83	1910.75
403.04	2009.06
403.24	2025.44
403.45	1773.54
403.66	1873.89
403.87	1871.84
404.07	1890.28
404.28	1935.33
404.49	1871.84
404.70	1794.02
404.90	1796.07
405.11	1773.54
405.32	1710.05
405.52	1730.53
405.73	1640.42
405.94	1665.00
406.15	1701.86
406.35	1724.39
406.56	1777.64
406.77	1681.38
406.98	1732.58
407.18	1728.49
407.39	1818.60
407.60	1708.01
407.80	1787.88
408.01	1689.57
408.22	1697.77
408.43	1691.62
408.63	1767.40
408.84	1703.91
409.05	1746.92
409.25	1675.24
409.46	1660.90
409.67	1683.43
409.88	1693.67
410.08	1701.86
410.29	1673.19
410.50	1744.87
410.70	1710.05
410.91	1619.94
411.12	1667.05
411.32	1701.86
411.53	1748.97
411.74	1804.26
411.95	1701.86
412.15	1748.97
412.36	1763.30
412.57	1738.73
412.77	1779.68
412.98	1730.53
413.19	1705.96
413.39	1822.69
413.60	1681.38
413.81	1722.34
414.01	1613.80
414.22	1740.77
414.43	1736.68
414.63	1691.62
414.84	1710.05
415.05	1714.15
415.25	1595.37
415.46	1751.01
415.67	1675.24
415.87	1665.00
416.08	1751.01
416.29	1669.09
416.49	1730.53
416.70	1726.44
416.91	1669.09
417.11	1699.81
417.32	1740.77
417.53	1710.05
417.73	1714.15
417.94	1662.95
418.15	1708.01
418.35	1673.19
418.56	1691.62
418.77	1779.68
418.97	1705.96
419.18	1677.29
419.38	1566.70
419.59	1695.72
419.80	1822.69
420.00	1583.08
420.21	1640.42
420.42	1710.05
420.62	1662.95
420.83	1640.42
421.04	1660.90
421.24	1654.76
421.45	1808.36
421.65	1794.02
421.86	1718.25
422.07	1648.61
422.27	1794.02
422.48	1736.68
422.69	1691.62
422.89	1736.68
423.10	1665.00
423.30	1638.38
423.51	1665.00
423.72	1730.53
423.92	1816.55
424.13	1665.00
424.33	1662.95
424.54	1683.43
424.75	1695.72
424.95	1798.12
425.16	1654.76
425.36	1660.90
425.57	1748.97
425.78	1748.97
425.98	1753.06
426.19	1751.01
426.39	1656.81
426.60	1720.29
426.81	1804.26
427.01	1703.91
427.22	1695.72
427.42	1640.42
427.63	1593.32
427.83	1679.33
428.04	1751.01
428.25	1777.64
428.45	1710.05
428.66	1773.54
428.86	1812.45
429.07	1677.29
429.28	1724.39
429.48	1722.34
429.69	1619.94
429.89	1722.34
430.10	1701.86
430.30	1724.39
430.51	1769.44
430.71	1642.47
430.92	1658.85
431.13	1687.53
431.33	1730.53
431.54	1693.67
431.74	1736.68
431.95	1898.47
432.15	1679.33
432.36	1679.33
432.56	1748.97
432.77	1837.03
432.98	1789.92
433.18	1716.20
433.39	1738.73
433.59	1708.01
433.80	1877.99
434.00	1855.46
434.21	1683.43
434.41	1677.29
434.62	1851.36
434.82	1679.33
435.03	1599.46
435.23	1673.19
435.44	1626.09
435.64	1708.01
435.85	1685.48
436.06	1742.82
436.26	1804.26
436.47	1683.43
436.67	1691.62
436.88	1695.72
437.08	1767.40
437.29	1712.10
437.49	1691.62
437.70	1771.49
437.90	1656.81
438.11	1814.50
438.31	1777.64
438.52	1832.93
438.72	1843.17
438.93	1863.65
439.13	1734.63
439.34	1869.80
439.54	1710.05
439.75	1755.11
439.95	1769.44
440.16	1632.23
440.36	1800.16
440.57	1755.11
440.77	1738.73
440.98	1697.77
441.18	1699.81
441.39	1761.25
441.59	1683.43
441.80	1808.36
442.00	1681.38
442.21	1746.92
442.41	1603.56
442.62	1722.34
442.82	1665.00
443.02	1748.97
443.23	1671.14
443.43	1738.73
443.64	1699.81
443.84	1646.57
444.05	1781.73
444.25	1769.44
444.46	1712.10
444.66	1734.63
444.87	1837.03
445.07	1619.94
445.28	1738.73
445.48	1763.30
445.69	1695.72
445.89	1859.56
446.09	1767.40
446.30	2080.74
446.50	2766.81
446.71	3723.21
446.91	4327.36
447.12	4712.38
447.32	4845.49
447.53	4255.68
447.73	3917.76
447.93	3465.16
448.14	3192.78
448.34	3188.69
448.55	2856.92
448.75	2844.63
448.96	2707.41
449.16	2375.64
449.36	2258.91
449.57	2050.02
449.77	1890.28
449.98	1738.73
450.18	1724.39
450.39	1826.79
450.59	1820.64
450.79	1742.82
451.00	1742.82
451.20	1791.97
451.41	1681.38
451.61	1718.25
451.81	1656.81
452.02	1708.01
452.22	1746.92
452.43	1691.62
452.63	1751.01
452.84	1742.82
453.04	1736.68
453.24	1671.14
453.45	1789.92
453.65	1673.19
453.86	1726.44
454.06	1822.69
454.26	1714.15
454.47	1662.95
454.67	1800.16
454.87	1781.73
455.08	1755.11
455.28	1763.30
455.49	1773.54
455.69	1619.94
455.89	1865.70
456.10	1748.97
456.30	1691.62
456.51	1787.88
456.71	1773.54
456.91	1685.48
457.12	1748.97
457.32	1742.82
457.52	1724.39
457.73	1859.56
457.93	1716.20
458.14	1710.05
458.34	1677.29
458.54	1697.77
458.75	1689.57
458.95	1662.95
459.15	1708.01
459.36	1714.15
459.56	1808.36
459.76	1845.22
459.97	1740.77
460.17	1755.11
460.37	1740.77
460.58	1748.97
460.78	1720.29
460.99	1646.57
461.19	1679.33
461.39	1710.05
461.60	1767.40
461.80	1755.11
462.00	1619.94
462.21	1677.29
462.41	1701.86
462.61	1695.72
462.82	1615.85
463.02	1703.91
463.22	1681.38
463.43	1818.60
463.63	1708.01
463.83	1771.49
464.04	1796.07
464.24	1779.68
464.44	1624.04
464.64	1699.81
464.85	1771.49
465.05	1830.88
465.25	1705.96
465.46	1708.01
465.66	1767.40
465.86	1746.92
466.07	1812.45
466.27	1820.64
466.47	1665.00
466.68	1574.89
466.88	1791.97
467.08	1783.78
467.29	1740.77
467.49	1708.01
467.69	1705.96
467.89	1783.78
468.10	1701.86
468.30	1789.92
468.50	1738.73
468.71	1742.82
468.91	1712.10
469.11	1800.16
469.31	1681.38
469.52	1665.00
469.72	1806.31
469.92	1759.21
470.13	1642.47
470.33	1748.97
470.53	1837.03
470.73	2082.78
470.94	2213.85
471.14	2289.63
471.34	2508.76
471.54	2359.26
471.75	2224.09
471.95	2080.74
472.15	2074.59
472.36	2068.45
472.56	2058.21
472.76	2095.07
472.96	1980.39
473.17	1939.43
473.37	1880.04
473.57	1781.73
473.77	1732.58
473.98	1726.44
474.18	1646.57
474.38	1898.47
474.58	1701.86
474.79	1669.09
474.99	1767.40
475.19	1748.97
475.39	1701.86
475.60	1732.58
475.80	1767.40
476.00	1683.43
476.20	1726.44
476.41	1703.91
476.61	1820.64
476.81	1724.39
477.01	1718.25
477.21	1800.16
477.42	1738.73
477.62	1687.53
477.82	1789.92
478.02	1695.72
478.23	1798.12
478.43	1705.96
478.63	1679.33
478.83	1695.72
479.03	1695.72
479.24	1849.32
479.44	1816.55
479.64	1689.57
479.84	1615.85
480.04	1636.33
480.25	1783.78
480.45	1619.94
480.65	1689.57
480.85	1755.11
481.06	1660.90
481.26	1757.16
481.46	1771.49
481.66	1738.73
481.86	1716.20
482.06	1791.97
482.27	1691.62
482.47	1648.61
482.67	1697.77
482.87	1693.67
483.07	1785.83
483.28	1740.77
483.48	1621.99
483.68	1689.57
483.88	1671.14
484.08	1552.36
484.29	1665.00
484.49	1736.68
484.69	1681.38
484.89	1769.44
485.09	1753.06
485.29	1701.86
485.50	1689.57
485.70	1722.34
485.90	1791.97
486.10	1638.38
486.30	1753.06
486.50	1781.73
486.71	1783.78
486.91	1820.64
487.11	1894.37
487.31	1593.32
487.51	1738.73
487.71	1728.49
487.91	1681.38
488.12	1636.33
488.32	1685.48
488.52	1722.34
488.72	1669.09
488.92	1740.77
489.12	1771.49
489.32	1785.83
489.53	1689.57
489.73	1669.09
489.93	1832.93
490.13	1681.38
490.33	1675.24
490.53	1744.87
490.73	1789.92
490.94	1636.33
491.14	1740.77
491.34	1816.55
491.54	2097.12
491.74	2547.67
491.94	2918.36
492.14	3033.04
492.34	2979.79
492.54	2693.08
492.75	2478.04
492.95	2463.71
493.15	2367.45
493.35	2232.29
493.55	2172.89
493.75	2189.28
493.95	2078.69
494.15	1984.48
494.35	1933.28
494.56	1867.75
494.76	1843.17
494.96	1746.92
495.16	1843.17
495.36	1742.82
495.56	1675.24
495.76	1660.90
495.96	1771.49
496.16	1660.90
496.36	1804.26
496.56	1660.90
496.77	1738.73
496.97	1658.85
497.17	1736.68
497.37	1685.48
497.57	1730.53
497.77	1775.59
497.97	1701.86
498.17	1779.68
498.37	1665.00
498.57	1789.92
498.77	1675.24
498.97	1808.36
499.17	1841.12
499.38	1685.48
499.58	1689.57
499.78	1734.63
499.98	1781.73
500.18	1753.06
500.38	1619.94
500.58	1970.15
500.78	2521.05
500.98	4427.71
501.18	5711.78
501.38	6649.75
501.58	7028.63
501.78	6461.34
501.98	5441.45
502.18	5015.48
502.38	4364.22
502.58	4177.86
502.78	3719.11
502.98	3768.26
503.18	3463.12
503.38	3067.86
503.59	2881.49
503.79	2680.79
503.99	2549.72
504.19	2303.96
504.39	2176.99
504.59	2250.72
504.79	2082.78
504.99	1970.15
505.19	1877.99
505.39	1875.94
505.59	1927.14
505.79	1890.28
505.99	1855.46
506.19	1822.69
506.39	1810.40
506.59	1728.49
506.79	1724.39
506.99	1808.36
507.19	1761.25
507.39	1699.81
507.59	1697.77
507.79	1681.38
507.99	1644.52
508.19	1679.33
508.39	1669.09
508.59	1771.49
508.79	1773.54
508.99	1806.31
509.19	1658.85
509.39	1767.40
509.59	1677.29
509.79	1761.25
509.99	1736.68
510.19	1759.21
510.39	1791.97
510.59	1753.06
510.79	1705.96
510.99	1662.95
511.19	1736.68
511.39	1816.55
511.59	1804.26
511.79	1822.69
511.99	1718.25
512.19	1787.88
512.38	1716.20
512.58	1691.62
512.78	1769.44
512.98	1771.49
513.18	1812.45
513.38	1671.14
513.58	1751.01
513.78	1615.85
513.98	1708.01
514.18	1773.54
514.38	1746.92
514.58	1759.21
514.78	1662.95
514.98	1689.57
515.18	1687.53
515.38	1652.71
515.58	1861.60
515.78	1683.43
515.98	1824.74
516.18	1767.40
516.38	1689.57
516.57	1652.71
516.77	1722.34
516.97	1724.39
517.17	1734.63
517.37	1708.01
517.57	1703.91
517.77	1607.66
517.97	1714.15
518.17	1798.12
518.37	1687.53
518.57	1677.29
518.77	1683.43
518.97	1744.87
519.16	1751.01
519.36	1818.60
519.56	1689.57
519.76	1712.10
519.96	1728.49
520.16	1773.54
520.36	1722.34
520.56	1769.44
520.76	1669.09
520.96	1646.57
521.16	1783.78
521.35	1738.73
521.55	1906.66
521.75	1726.44
521.95	1677.29
522.15	1775.59
522.35	1722.34
522.55	1685.48
522.75	1779.68
522.95	1681.38
523.14	1796.07
523.34	1691.62
523.54	1755.11
523.74	1791.97
523.94	1738.73
524.14	1634.28
524.34	1746.92
524.54	1785.83
524.73	1804.26
524.93	1681.38
525.13	1730.53
525.33	1669.09
525.53	1812.45
525.73	1724.39
525.93	1673.19
526.13	1640.42
526.32	1726.44
526.52	1771.49
526.72	1791.97
526.92	1671.14
527.12	1710.05
527.32	1613.80
527.52	1724.39
527.71	1718.25
527.91	1773.54
528.11	1671.14
528.31	1738.73
528.51	1734.63
528.71	1759.21
528.90	1841.12
529.10	1800.16
529.30	1744.87
529.50	1638.38
529.70	1746.92
529.90	1730.53
530.09	1783.78
530.29	1656.81
530.49	1591.27
530.69	1843.17
530.89	1724.39
531.09	1816.55
531.28	1748.97
531.48	1748.97
531.68	1789.92
531.88	1734.63
532.08	1738.73
532.28	1775.59
532.47	1789.92
532.67	1728.49
532.87	1714.15
533.07	1658.85
533.27	1773.54
533.46	1714.15
533.66	1732.58
533.86	1738.73
534.06	1734.63
534.26	1714.15
534.45	1705.96
534.65	1796.07
534.85	1759.21
535.05	1669.09
535.25	1767.40
535.44	1636.33
535.64	1789.92
535.84	1724.39
536.04	1771.49
536.24	1673.19
536.43	1712.10
536.63	1742.82
536.83	1720.29
537.03	1757.16
537.22	1624.04
537.42	1658.85
537.62	1724.39
537.82	1691.62
538.02	1832.93
538.21	1769.44
538.41	1949.67
538.61	1667.05
538.81	1650.66
539.00	1757.16
539.20	1611.75
539.40	1691.62
539.60	1781.73
539.79	1748.97
539.99	1712.10
540.19	1712.10
540.39	1740.77
540.58	1812.45
540.78	1826.79
540.98	1710.05
541.18	1734.63
541.37	1832.93
541.57	1738.73
541.77	1783.78
541.97	1662.95
542.16	1646.57
542.36	1728.49
542.56	1677.29
542.76	1804.26
542.95	1738.73
543.15	1812.45
543.35	1740.77
543.54	1689.57
543.74	1675.24
543.94	1857.51
544.14	1658.85
544.33	1798.12
544.53	1658.85
544.73	1748.97
544.93	1736.68
545.12	1689.57
545.32	1767.40
545.52	1712.10
545.71	1667.05
545.91	1693.67
546.11	1742.82
546.30	1642.47
546.50	1679.33
546.70	1765.35
546.90	1791.97
547.09	1695.72
547.29	1753.06
547.49	1722.34
547.68	1732.58
547.88	1738.73
548.08	1800.16
548.27	2183.13
548.47	1654.76
548.67	1665.00
548.87	1716.20
549.06	1638.38
549.26	1798.12
549.46	1767.40
549.65	1732.58
549.85	1710.05
550.05	1804.26
550.24	1660.90
550.44	1753.06
550.64	1771.49
550.83	1662.95
551.03	1763.30
551.23	1763.30
551.42	1740.77
551.62	1767.40
551.82	1726.44
552.01	1705.96
552.21	1771.49
552.41	1724.39
552.60	1767.40
552.80	1740.77
553.00	1619.94
553.19	1671.14
553.39	1834.98
553.59	1626.09
553.78	1812.45
553.98	1828.84
554.17	1583.08
554.37	1652.71
554.57	1740.77
554.76	1716.20
554.96	1730.53
555.16	1751.01
555.35	1753.06
555.55	1716.20
555.75	1763.30
555.94	1783.78
556.14	1601.51
556.33	1757.16
556.53	1685.48
556.73	1798.12
556.92	1779.68
557.12	1861.60
557.32	1832.93
557.51	1804.26
557.71	1712.10
557.90	1818.60
558.10	1861.60
558.30	1699.81
558.49	1677.29
558.69	1771.49
558.88	1708.01
559.08	1726.44
559.28	1742.82
559.47	1781.73
559.67	1714.15
559.86	1877.99
560.06	1800.16
560.26	1673.19
560.45	1771.49
560.65	1730.53
560.84	1783.78
561.04	1689.57
561.24	1822.69
561.43	1691.62
561.63	1845.22
561.82	1757.16
562.02	1763.30
562.22	1681.38
562.41	1699.81
562.61	1751.01
562.80	1722.34
563.00	1857.51
563.19	1779.68
563.39	1763.30
563.59	1710.05
563.78	1667.05
563.98	1603.56
564.17	1763.30
564.37	1669.09
564.56	1681.38
564.76	1740.77
564.96	1798.12
565.15	1667.05
565.35	1830.88
565.54	1751.01
565.74	1783.78
565.93	1716.20
566.13	1718.25
566.32	1810.40
566.52	1767.40
566.71	1689.57
566.91	1746.92
567.11	1701.86
567.30	1679.33
567.50	1761.25
567.69	1740.77
567.89	1738.73
568.08	1689.57
568.28	1751.01
568.47	1716.20
568.67	1742.82
568.86	1652.71
569.06	1812.45
569.25	1732.58
569.45	1662.95
569.64	1699.81
569.84	1759.21
570.04	1724.39
570.23	1671.14
570.43	1761.25
570.62	1753.06
570.82	1888.23
571.01	1679.33
571.21	1689.57
571.40	1716.20
571.60	1781.73
571.79	1722.34
571.99	1748.97
572.18	1744.87
572.38	1751.01
572.57	1730.53
572.77	1785.83
572.96	1906.66
573.16	1757.16
573.35	1839.08
573.55	1871.84
573.74	1779.68
573.94	1667.05
574.13	1708.01
574.33	1751.01
574.52	1804.26
574.71	1708.01
574.91	1796.07
575.10	1724.39
575.30	1650.66
575.49	1716.20
575.69	1724.39
575.88	1718.25
576.08	1730.53
576.27	1759.21
576.47	1765.35
576.66	1796.07
576.86	1767.40
577.05	1744.87
577.25	1767.40
577.44	1820.64
577.64	1736.68
577.83	1753.06
578.02	1701.86
578.22	1841.12
578.41	1853.41
578.61	1710.05
578.80	1658.85
579.00	1822.69
579.19	1777.64
579.39	1775.59
579.58	1675.24
579.77	1705.96
579.97	1853.41
580.16	1839.08
580.36	1810.40
580.55	1814.50
580.75	1814.50
580.94	1669.09
581.13	1845.22
581.33	1765.35
581.52	1724.39
581.72	1847.27
581.91	1849.32
582.11	1785.83
582.30	1867.75
582.49	1798.12
582.69	1814.50
582.88	1744.87
583.08	1697.77
583.27	1810.40
583.47	1748.97
583.66	1683.43
583.85	1689.57
584.05	1695.72
584.24	1812.45
584.44	1796.07
584.63	1781.73
584.82	1783.78
585.02	1843.17
585.21	1847.27
585.41	1837.03
585.60	1814.50
585.79	1873.89
585.99	1882.08
586.18	1877.99
586.37	2222.05
586.57	3403.72
586.76	9707.37
586.96	24583.82
587.15	34622.96
587.34	40320.41
587.54	42368.38
587.73	36429.27
587.93	26613.35
588.12	21487.29
588.31	18085.61
588.51	16297.74
588.70	15042.33
588.89	14196.52
589.09	12574.53
589.28	11046.74
589.47	9453.42
589.67	7995.27
589.86	6254.50
590.06	4849.59
590.25	4054.98
590.44	3172.30
590.64	2617.30
590.83	2269.15
591.02	2144.22
591.22	1914.85
591.41	1896.42
591.60	1804.26
591.80	1953.76
591.99	1734.63
592.18	1808.36
592.38	1884.13
592.57	1765.35
592.76	1767.40
592.96	1787.88
593.15	1724.39
593.34	1738.73
593.54	1771.49
593.73	1804.26
593.92	1753.06
594.12	1632.23
594.31	1781.73
594.50	1857.51
594.70	1814.50
594.89	1839.08
595.08	1681.38
595.28	1798.12
595.47	1873.89
595.66	1791.97
595.86	1671.14
596.05	1724.39
596.24	1759.21
596.43	1794.02
596.63	1804.26
596.82	1751.01
597.01	1685.48
597.21	1898.47
597.40	1703.91
597.59	1763.30
597.79	1757.16
597.98	1769.44
598.17	1791.97
598.36	1712.10
598.56	1748.97
598.75	1708.01
598.94	1775.59
599.14	1789.92
599.33	1714.15
599.52	1791.97
599.71	1753.06
599.91	1759.21
600.10	1796.07
600.29	1689.57
600.48	1714.15
600.68	1763.30
600.87	1812.45
601.06	1648.61
601.26	1701.86
601.45	1779.68
601.64	1714.15
601.83	1822.69
602.03	1712.10
602.22	1650.66
602.41	1759.21
602.60	1832.93
602.80	1753.06
602.99	1777.64
603.18	1718.25
603.37	1757.16
603.57	1775.59
603.76	1828.84
603.95	1849.32
604.14	1751.01
604.34	1667.05
604.53	1693.67
604.72	1720.29
604.91	1800.16
605.10	1804.26
605.30	1724.39
605.49	1834.98
605.68	1777.64
605.87	1746.92
606.07	1738.73
606.26	1703.91
606.45	1748.97
606.64	1771.49
606.84	1732.58
607.03	1701.86
607.22	1718.25
607.41	1636.33
607.60	1740.77
607.80	1755.11
607.99	1691.62
608.18	1746.92
608.37	1787.88
608.56	1648.61
608.76	1798.12
608.95	1804.26
609.14	1714.15
609.33	1765.35
609.52	1759.21
609.72	1783.78
609.91	1822.69
610.10	1691.62
610.29	1802.21
610.48	1730.53
610.68	1679.33
610.87	1679.33
611.06	1773.54
611.25	1753.06
611.44	1806.31
611.63	1736.68
611.83	1867.75
612.02	1658.85
612.21	1853.41
612.40	1581.03
612.59	1585.13
612.79	1624.04
612.98	1732.58
613.17	1826.79
613.36	1708.01
613.55	1775.59
613.74	1642.47
613.93	1742.82
614.13	1714.15
614.32	1759.21
614.51	1746.92
614.70	1714.15
614.89	1679.33
615.08	1730.53
615.28	2019.30
615.47	1658.85
615.66	1757.16
615.85	1765.35
616.04	1822.69
616.23	1738.73
616.42	1708.01
616.62	1802.21
616.81	1681.38
617.00	1726.44
617.19	1832.93
617.38	1732.58
617.57	1730.53
617.76	1751.01
617.95	1796.07
618.15	1708.01
618.34	1861.60
618.53	1740.77
618.72	1734.63
618.91	1746.92
619.10	1851.36
619.29	1773.54
619.48	1755.11
619.68	1640.42
619.87	1730.53
620.06	1595.37
620.25	1740.77
620.44	1751.01
620.63	1685.48
620.82	1679.33
621.01	1759.21
621.20	1726.44
621.39	1701.86
621.59	1753.06
621.78	1740.77
621.97	1730.53
622.16	1753.06
622.35	1720.29
622.54	1834.98
622.73	1740.77
622.92	1601.51
623.11	1802.21
623.30	1703.91
623.49	1763.30
623.68	1681.38
623.88	1794.02
624.07	1679.33
624.26	1638.38
624.45	1677.29
624.64	1689.57
624.83	1658.85
625.02	1716.20
625.21	1759.21
625.40	1767.40
625.59	1789.92
625.78	1716.20
625.97	1736.68
626.16	1783.78
626.35	1791.97
626.54	1755.11
626.74	1744.87
626.93	1703.91
627.12	1693.67
627.31	1808.36
627.50	1748.97
627.69	1677.29
627.88	1722.34
628.07	1705.96
628.26	1607.66
628.45	1665.00
628.64	1658.85
628.83	1787.88
629.02	1556.46
629.21	1732.58
629.40	1703.91
629.59	1662.95
629.78	1658.85
629.97	1728.49
630.16	1716.20
630.35	1755.11
630.54	1728.49
630.73	1650.66
630.92	1763.30
631.11	1665.00
631.30	1771.49
631.49	1703.91
631.68	1714.15
631.87	1642.47
632.06	1662.95
632.25	1884.13
632.44	1626.09
632.63	1669.09
632.82	1699.81
633.01	1656.81
633.20	1791.97
633.39	1691.62
633.58	1705.96
633.77	1744.87
633.96	1726.44
634.15	1730.53
634.34	1722.34
634.53	1726.44
634.72	1738.73
634.91	1630.18
635.10	1730.53
635.29	1728.49
635.48	1759.21
635.67	1691.62
635.86	1585.13
636.05	1834.98
636.24	1665.00
636.43	1685.48
636.62	1726.44
636.81	1566.70
637.00	1736.68
637.19	1710.05
637.38	1697.77
637.57	1658.85
637.76	1658.85
637.95	1703.91
638.14	1656.81
638.33	1716.20
638.52	1708.01
638.71	1714.15
638.89	1603.56
639.08	1877.99
639.27	1771.49
639.46	1681.38
639.65	1783.78
639.84	1726.44
640.03	1800.16
640.22	1787.88
640.41	1808.36
640.60	1697.77
640.79	1656.81
640.98	1675.24
641.17	1800.16
641.36	1716.20
641.55	1738.73
641.74	1673.19
641.92	1607.66
642.11	1578.98
642.30	1699.81
642.49	1607.66
642.68	1699.81
642.87	1744.87
643.06	1781.73
643.25	1628.14
643.44	1650.66
643.63	1701.86
643.82	1681.38
644.00	1576.94
644.19	1695.72
644.38	1585.13
644.57	1656.81
644.76	1773.54
644.95	1667.05
645.14	1691.62
645.33	1693.67
645.52	1712.10
645.71	1648.61
645.89	1630.18
646.08	1689.57
646.27	1708.01
646.46	1783.78
646.65	1599.46
646.84	1759.21
647.03	1662.95
647.22	1818.60
647.40	1720.29
647.59	1656.81
647.78	1654.76
647.97	1712.10
648.16	1681.38
648.35	1757.16
648.54	1730.53
648.73	1656.81
648.91	1814.50
649.10	1611.75
649.29	1621.99
649.48	1714.15
649.67	1732.58
649.86	1693.67
650.05	1667.05
650.23	1816.55
650.42	1691.62
650.61	1697.77
650.80	1777.64
650.99	1830.88
651.18	1767.40
651.36	1791.97
651.55	1712.10
651.74	1791.97
651.93	1632.23
652.12	1675.24
652.31	1624.04
652.49	1724.39
652.68	1607.66
652.87	1779.68
653.06	1669.09
653.25	1789.92
653.44	1736.68
653.62	1859.56
653.81	1632.23
654.00	1761.25
654.19	1771.49
654.38	1824.74
654.56	1730.53
654.75	1644.52
654.94	1738.73
655.13	1720.29
655.32	1671.14
655.51	1761.25
655.69	1685.48
655.88	1724.39
656.07	1650.66
656.26	1751.01
656.45	1667.05
656.63	1716.20
656.82	1808.36
657.01	1769.44
657.20	1681.38
657.38	1767.40
657.57	1746.92
657.76	1660.90
657.95	1765.35
658.14	1714.15
658.32	1675.24
658.51	1640.42
658.70	1697.77
658.89	1736.68
659.08	1722.34
659.26	1880.04
659.45	1673.19
659.64	1845.22
659.83	1654.76
660.01	1871.84
660.20	1701.86
660.39	1830.88
660.58	1628.14
660.76	1806.31
660.95	1609.70
661.14	1697.77
661.33	1624.04
661.51	1648.61
661.70	1646.57
661.89	1814.50
662.08	1730.53
662.26	1689.57
662.45	1634.28
662.64	1810.40
662.83	1779.68
663.01	1628.14
663.20	1685.48
663.39	1832.93
663.58	1732.58
663.76	1751.01
663.95	1759.21
664.14	1703.91
664.32	1701.86
664.51	1656.81
664.70	1595.37
664.89	1738.73
665.07	1624.04
665.26	1765.35
665.45	1630.18
665.64	1724.39
665.82	1781.73
666.01	1744.87
666.20	1660.90
666.38	1742.82
666.57	1783.78
666.76	2234.33
666.95	4528.06
667.13	10215.27
667.32	15226.65
667.51	17893.10
667.69	18972.38
667.88	17788.66
668.07	12435.27
668.25	9584.49
668.44	8044.42
668.63	7260.05
668.81	6770.58
669.00	6344.61
669.19	5461.93
669.38	5023.67
669.56	4593.59
669.75	3903.43
669.94	3377.10
670.12	2889.68
670.31	2521.05
670.50	2285.53
670.68	2041.82
670.87	1925.09
671.06	1765.35
671.24	1783.78
671.43	1857.51
671.62	1767.40
671.80	1726.44
671.99	1810.40
672.18	1769.44
672.36	1771.49
672.55	1701.86
672.74	1728.49
672.92	1677.29
673.11	1714.15
673.29	1654.76
673.48	1822.69
673.67	1742.82
673.85	1800.16
674.04	1718.25
674.23	1751.01
674.41	1732.58
674.60	1751.01
674.79	1667.05
674.97	1611.75
675.16	1755.11
675.34	1761.25
675.53	1619.94
675.72	1658.85
675.90	1783.78
676.09	1701.86
676.28	1726.44
676.46	1615.85
676.65	1785.83
676.83	1722.34
677.02	1693.67
677.21	1742.82
677.39	1753.06
677.58	1722.34
677.77	1673.19
677.95	1603.56
678.14	1673.19
678.32	1722.34
678.51	1685.48
678.70	1804.26
678.88	1675.24
679.07	1748.97
679.25	1722.34
679.44	1730.53
679.63	1587.18
679.81	1769.44
680.00	1771.49
680.18	1703.91
680.37	1742.82
680.55	1708.01
680.74	1658.85
680.93	1634.28
681.11	1683.43
681.30	1679.33
681.48	1712.10
681.67	1716.20
681.85	1650.66
682.04	1732.58
682.23	1685.48
682.41	1781.73
682.60	1693.67
682.78	1615.85
682.97	1630.18
683.15	1708.01
683.34	1771.49
683.53	1781.73
683.71	1685.48
683.90	1767.40
684.08	1839.08
684.27	1751.01
684.45	1716.20
684.64	1742.82
684.82	1685.48
685.01	1710.05
685.19	1710.05
685.38	1777.64
685.57	1734.63
685.75	1681.38
685.94	1689.57
686.12	1642.47
686.31	1669.09
686.49	1814.50
686.68	1628.14
686.86	1755.11
687.05	1748.97
687.23	1806.31
687.42	1662.95
687.60	1634.28
687.79	1761.25
687.97	1847.27
688.16	1769.44
688.34	1779.68
688.53	1609.70
688.71	1671.14
688.90	1736.68
689.08	1681.38
689.27	1581.03
689.45	1742.82
689.64	1736.68
689.82	1658.85
690.01	1722.34
690.19	1771.49
690.38	1671.14
690.56	1779.68
690.75	1658.85
690.93	1712.10
691.12	1630.18
691.30	1656.81
691.49	1660.90
691.67	1697.77
691.86	1800.16
692.04	1605.61
692.23	1654.76
692.41	1669.09
692.60	1841.12
692.78	1777.64
692.97	1671.14
693.15	1642.47
693.34	1857.51
693.52	1806.31
693.71	1658.85
693.89	1656.81
694.08	1703.91
694.26	1724.39
694.44	1767.40
694.63	1734.63
694.81	1654.76
695.00	1710.05
695.18	1804.26
695.37	1824.74
695.55	1675.24
695.74	1650.66
695.92	1679.33
696.10	1757.16
696.29	1658.85
696.47	1632.23
696.66	1597.42
696.84	1673.19
697.03	1714.15
697.21	1710.05
697.40	2295.77
697.58	1730.53
697.76	1718.25
697.95	1619.94
698.13	1642.47
698.32	1714.15
698.50	1710.05
698.68	1820.64
698.87	1728.49
699.05	1816.55
699.24	1720.29
699.42	1621.99
699.61	1691.62
699.79	1695.72
699.97	1683.43
700.16	1619.94
700.34	1636.33
700.53	1673.19
700.71	1722.34
700.89	1775.59
701.08	1679.33
701.26	1695.72
701.45	2074.59
701.63	1740.77
701.81	1671.14
702.00	1660.90
702.18	1642.47
702.37	1609.70
702.55	1851.36
702.73	1730.53
702.92	1621.99
703.10	1722.34
703.28	1671.14
703.47	1667.05
703.65	1759.21
703.84	1880.04
704.02	1705.96
704.20	1841.12
704.39	1679.33
704.57	1669.09
704.75	1730.53
704.94	1736.68
705.12	1699.81
705.30	1773.54
705.49	2201.57
705.67	4390.84
705.86	9258.87
706.04	12603.20
706.22	14339.88
706.41	15304.47
706.59	13821.74
706.77	9740.14
706.96	7368.59
707.14	6664.09
707.32	5910.44
707.51	5564.33
707.69	5072.82
707.87	4259.78
708.06	3579.85
708.24	3026.90
708.42	2502.62
708.61	2336.73
708.79	1994.72
708.97	1849.32
709.16	1806.31
709.34	1740.77
709.52	1675.24
709.71	1705.96
709.89	1726.44
710.07	1748.97
710.26	1671.14
710.44	1710.05
710.62	1746.92
710.80	1615.85
710.99	1767.40
711.17	1783.78
711.35	1673.19
711.54	1658.85
711.72	1730.53
711.90	1740.77
712.09	1771.49
712.27	1742.82
712.45	1734.63
712.63	1693.67
712.82	1718.25
713.00	1742.82
713.18	1728.49
713.37	1703.91
713.55	1755.11
713.73	1730.53
713.91	1697.77
714.10	1621.99
714.28	1685.48
714.46	1687.53
714.65	1732.58
714.83	1687.53
715.01	1683.43
715.19	1724.39
715.38	1611.75
715.56	1804.26
715.74	1669.09
715.92	1662.95
716.11	1724.39
716.29	1609.70
716.47	1738.73
716.65	1751.01
716.84	1593.32
717.02	1716.20
717.20	1611.75
717.38	1597.42
717.57	1714.15
717.75	1718.25
717.93	1669.09
718.11	1642.47
718.30	1628.14
718.48	1722.34
718.66	1751.01
718.84	1714.15
719.03	1699.81
719.21	1617.90
719.39	1785.83
719.57	1779.68
719.75	1748.97
719.94	1640.42
720.12	1669.09
720.30	1662.95
720.48	1710.05
720.67	1671.14
720.85	1613.80
721.03	1658.85
721.21	1562.60
721.39	1791.97
721.58	1730.53
721.76	1689.57
721.94	1800.16
722.12	1689.57
722.30	1753.06
722.49	1681.38
722.67	1728.49
722.85	1718.25
723.03	1714.15
723.21	1757.16
723.40	1699.81
723.58	1726.44
723.76	1712.10
723.94	1763.30
724.12	1728.49
724.30	1775.59
724.49	1724.39
724.67	1607.66
724.85	1783.78
725.03	1605.61
725.21	1763.30
725.40	1837.03
725.58	1652.71
725.76	1695.72
725.94	1785.83
726.12	1695.72
726.30	1755.11
726.49	1740.77
726.67	1654.76
726.85	1763.30
727.03	1724.39
727.21	2072.54
727.39	2756.57
727.57	3798.98
727.76	4149.18
727.94	4349.89
728.12	4417.47
728.30	3559.37
728.48	3026.90
728.66	2785.24
728.84	2514.91
729.03	2281.44
729.21	2086.88
729.39	1951.71
729.57	1798.12
729.75	1804.26
729.93	1796.07
730.11	1710.05
730.30	1671.14
730.48	1617.90
730.66	1822.69
730.84	1681.38
731.02	1701.86
731.20	1675.24
731.38	1710.05
731.56	1683.43
731.74	1654.76
731.93	1724.39
732.11	1759.21
732.29	1650.66
732.47	1791.97
732.65	1683.43
732.83	1806.31
733.01	1751.01
733.19	1632.23
733.37	1730.53
733.56	1710.05
733.74	1748.97
733.92	1787.88
734.10	1665.00
734.28	1662.95
734.46	1685.48
734.64	1693.67
734.82	1667.05
735.00	1628.14
735.18	1576.94
735.36	1751.01
735.54	1742.82
735.73	1699.81
735.91	1742.82
736.09	1775.59
736.27	1669.09
736.45	1734.63
736.63	1601.51
736.81	1699.81
736.99	1697.77
737.17	1908.71
737.35	1587.18
737.53	1757.16
737.71	1714.15
737.89	1802.21
738.07	1665.00
738.25	1718.25
738.43	1609.70
738.61	1742.82
738.80	1611.75
738.98	1648.61
739.16	1724.39
739.34	1705.96
739.52	1744.87
739.70	1695.72
739.88	1785.83
740.06	1802.21
740.24	1611.75
740.42	1798.12
740.60	1611.75
740.78	1687.53
740.96	1662.95
741.14	1607.66
741.32	1712.10
741.50	1572.84
741.68	1832.93
741.86	1802.21
742.04	1662.95
742.22	1708.01
742.40	1660.90
742.58	1703.91
742.76	1632.23
742.94	1781.73
743.12	1701.86
743.30	1722.34
743.48	1667.05
743.66	1634.28
743.84	1755.11
744.02	1683.43
744.20	1724.39
744.38	1628.14
744.56	1738.73
744.74	1781.73
744.92	1685.48
745.10	1845.22
745.28	1718.25
745.46	1757.16
745.64	1714.15
745.82	1765.35
746.00	1681.38
746.18	1714.15
746.36	1626.09
746.54	1677.29
746.72	1656.81
746.90	1630.18
747.08	1757.16
747.26	1714.15
747.44	1746.92
747.62	1720.29
747.80	1787.88
747.98	1728.49
748.15	1730.53
748.33	1773.54
748.51	1673.19
748.69	1677.29
748.87	1658.85
749.05	1660.90
749.23	1609.70
749.41	1802.21
749.59	1732.58
749.77	1712.10
749.95	1648.61
750.13	1695.72
750.31	1710.05
750.49	1574.89
750.67	1728.49
750.85	1755.11
751.03	1712.10
751.20	1830.88
751.38	1654.76
751.56	1656.81
751.74	1732.58
751.92	1734.63
752.10	1648.61
752.28	1746.92
752.46	1710.05
752.64	1642.47
752.82	1697.77
753.00	1751.01
753.18	1753.06
753.35	1710.05
753.53	1652.71
753.71	1705.96
753.89	1789.92
754.07	1685.48
754.25	1779.68
754.43	1777.64
754.61	1669.09
754.79	1665.00
754.97	1695.72
755.14	1785.83
755.32	1714.15
755.50	1742.82
755.68	1746.92
755.86	1699.81
756.04	1677.29
756.22	1581.03
756.40	1695.72
756.57	1794.02
756.75	1701.86
756.93	1697.77
757.11	1783.78
757.29	1591.27
757.47	1665.00
757.65	1593.32
757.82	1593.32
758.00	1675.24
758.18	1665.00
758.36	1644.52
758.54	1837.03
758.72	1550.31
758.90	1722.34
759.07	1701.86
759.25	1611.75
759.43	1718.25
759.61	1677.29
759.79	2183.13
759.97	1734.63
760.15	1789.92
760.32	1671.14
760.50	1734.63
760.68	1810.40
760.86	1521.64
761.04	1800.16
761.22	1720.29
761.39	1722.34
761.57	1728.49
761.75	1771.49
761.93	1699.81
762.11	1671.14
762.28	1767.40
762.46	1644.52
762.64	1726.44
762.82	1619.94
763.00	1753.06
763.18	1765.35
763.35	1662.95
763.53	1746.92
763.71	1720.29
763.89	1716.20
764.07	1716.20
764.24	1687.53
764.42	1775.59
764.60	1650.66
764.78	1716.20
764.96	1699.81
765.13	1738.73
765.31	1701.86
765.49	1746.92
765.67	1603.56
765.84	1671.14
766.02	1712.10
766.20	1697.77
766.38	1771.49
766.56	1746.92
766.73	1763.30
766.91	1708.01
767.09	1634.28
767.27	1718.25
767.44	1619.94
767.62	1773.54
767.80	1675.24
767.98	1660.90
768.15	1689.57
768.33	1757.16
768.51	1761.25
768.69	1751.01
768.87	1710.05
769.04	1628.14
769.22	1816.55
769.40	1812.45
769.58	1855.46
769.75	1656.81
769.93	1771.49
770.11	1728.49
770.28	1642.47
770.46	1767.40
770.64	1757.16
770.82	1648.61
770.99	1728.49
771.17	1697.77
771.35	1738.73
771.53	1683.43
771.70	1738.73
771.88	1685.48
772.06	1740.77
772.23	1716.20
772.41	1689.57
772.59	1634.28
772.77	1595.37
772.94	1679.33
773.12	1591.27
773.30	1634.28
773.47	1685.48
773.65	1677.29
773.83	1773.54
774.01	1615.85
774.18	1554.41
774.36	1689.57
774.54	1624.04
774.71	1726.44
774.89	1658.85
775.07	1712.10
775.24	1632.23
775.42	1681.38
775.60	1796.07
775.78	1677.29
775.95	1646.57
776.13	1611.75
776.31	1525.74
776.48	1746.92
776.66	1787.88
776.84	1640.42
777.01	1697.77
777.19	1642.47
777.37	1599.46
777.54	1640.42
777.72	1802.21
777.90	1722.34
778.07	1652.71
778.25	1871.84
778.43	1728.49
778.60	1681.38
778.78	1763.30
778.96	1771.49
779.13	1675.24
779.31	1775.59
779.49	1626.09
779.66	1759.21
779.84	1757.16
780.01	1693.67
780.19	1705.96
780.37	1665.00
780.54	1699.81
780.72	1574.89
780.90	1681.38
781.07	1701.86
781.25	1652.71
781.43	1783.78
781.60	1658.85
781.78	1730.53
781.95	1734.63
782.13	1624.04
782.31	1644.52
782.48	1603.56
782.66	1613.80
782.83	1818.60
783.01	1757.16
783.19	1759.21
783.36	1626.09
783.54	1681.38
783.72	1705.96
783.89	1636.33
784.07	1665.00
784.24	1767.40
784.42	1800.16
784.60	1675.24
784.77	1718.25
784.95	1621.99
785.12	1648.61
785.30	1765.35
785.47	1685.48
785.65	1720.29
785.83	1632.23
786.00	1648.61
786.18	1689.57
786.35	1632.23
786.53	1675.24
786.71	1718.25
786.88	1705.96
787.06	1748.97
787.23	1695.72
787.41	1691.62
787.58	1769.44
787.76	1572.84
787.94	1753.06
788.11	1703.91
788.29	1681.38
788.46	1578.98
788.64	1687.53
788.81	1708.01
788.99	1644.52
789.16	1593.32
789.34	1638.38
789.52	1712.10
789.69	1658.85
789.87	1613.80
790.04	1724.39
790.22	1734.63
790.39	1818.60
790.57	1654.76
790.74	1638.38
790.92	1771.49
791.09	1728.49
791.27	1726.44
791.44	1677.29
791.62	1728.49
791.79	1712.10
791.97	1701.86
792.15	1863.65
792.32	1734.63
792.50	1714.15
792.67	1771.49
792.85	1837.03
793.02	1734.63
793.20	1656.81
793.37	1523.69
793.55	1695.72
793.72	1601.51
793.90	1667.05
794.07	1683.43
794.25	1615.85
794.42	1718.25
794.60	1722.34
794.77	1771.49
794.95	1703.91
795.12	1732.58
795.30	1679.33
795.47	1556.46
795.65	1892.32
795.82	1658.85
796.00	1671.14
796.17	1701.86
796.34	1679.33
796.52	1705.96
796.69	1787.88
796.87	1755.11
797.04	1714.15
797.22	1705.96
797.39	1740.77
797.57	1712.10
797.74	1734.63
797.92	1640.42
798.09	1689.57
798.27	1744.87
798.44	1697.77
798.62	1699.81
798.79	1726.44
798.96	1761.25
799.14	1695.72
799.31	1830.88
799.49	1716.20
799.66	1718.25
799.84	1626.09
800.01	1599.46
800.19	1722.34
800.36	1613.80
800.53	1726.44
800.71	1683.43
800.88	1759.21
801.06	1634.28
801.23	1771.49
801.41	1593.32
801.58	1621.99
801.75	1681.38
801.93	1775.59
802.10	1712.10
802.28	1705.96
802.45	1689.57
802.63	1685.48
802.80	1767.40
802.97	1650.66
803.15	1650.66
803.32	1658.85
803.50	1624.04
803.67	1697.77
803.84	1636.33
804.02	1693.67
804.19	1583.08
804.37	1632.23
804.54	1581.03
804.71	1652.71
804.89	1732.58
805.06	1679.33
805.24	1628.14
805.41	1632.23
805.58	1665.00
805.76	1761.25
805.93	1730.53
806.10	1773.54
806.28	1667.05
806.45	1742.82
806.63	1708.01
806.80	1732.58
806.97	1669.09
807.15	1685.48
807.32	1662.95
807.49	1740.77
807.67	1624.04
807.84	1802.21
808.01	1640.42
808.19	1804.26
808.36	1800.16
808.54	1626.09
808.71	1644.52
808.88	1669.09
809.06	1798.12
809.23	1802.21
809.40	1624.04
809.58	1781.73
809.75	1683.43
809.92	1626.09
810.10	1839.08
810.27	1683.43
810.44	1746.92
810.62	1730.53
810.79	1742.82
810.96	1687.53
811.14	1656.81
811.31	1755.11
811.48	1769.44
811.66	1685.48
811.83	1726.44
812.00	1759.21
812.18	1701.86
812.35	1863.65
812.52	1695.72
812.69	1748.97
812.87	1681.38
813.04	1583.08
813.21	1783.78
813.39	1710.05
813.56	1667.05
813.73	1767.40
813.91	1687.53
814.08	1699.81
814.25	1746.92
814.42	1607.66
814.60	1705.96
814.77	1732.58
814.94	1712.10
815.12	1693.67
815.29	1791.97
815.46	1662.95
815.63	1660.90
815.81	1718.25
815.98	1734.63
816.15	1697.77
816.33	1763.30
816.50	1734.63
816.67	1638.38
816.84	1751.01
817.02	1583.08
817.19	1685.48
817.36	1716.20
817.53	1730.53
817.71	1570.79
817.88	1708.01
818.05	1703.91
818.22	1652.71
818.40	1822.69
818.57	1724.39
818.74	1677.29
818.91	1755.11
819.09	1703.91
819.26	1740.77
819.43	1685.48
819.60	1681.38
819.78	1714.15
819.95	1812.45
820.12	1626.09
820.29	1746.92
820.47	1697.77
820.64	1662.95
820.81	1636.33
820.98	1626.09
821.15	1673.19
821.33	1648.61
821.50	1685.48
821.67	1697.77
821.84	1658.85
822.02	1724.39
822.19	1642.47
822.36	1714.15
822.53	1683.43
822.70	1658.85
822.88	1726.44
823.05	1751.01
823.22	1730.53
823.39	1732.58
823.56	1710.05
823.74	1759.21
823.91	1681.38
824.08	1587.18
824.25	1626.09
824.42	1808.36
824.60	1615.85
824.77	1681.38
824.94	1691.62
825.11	1783.78
825.28	1632.23
825.45	1708.01
825.63	1652.71
825.80	1593.32
825.97	1726.44
826.14	1681.38
826.31	1671.14
826.48	1611.75
826.66	1691.62
826.83	1732.58
827.00	1724.39
827.17	1648.61
827.34	1658.85
827.51	1697.77
827.69	1710.05
827.86	1566.70
828.03	1730.53
828.20	1675.24
828.37	1615.85
828.54	1689.57
828.71	1636.33
828.89	1751.01
829.06	1716.20
829.23	1804.26
829.40	1611.75
829.57	1710.05
829.74	1736.68
829.91	1665.00
830.09	1605.61
830.26	1697.77
830.43	1753.06
830.60	1705.96
830.77	1691.62
830.94	1763.30
831.11	1710.05
831.28	1665.00
831.46	1798.12
831.63	1695.72
831.80	1697.77
831.97	1638.38
832.14	1708.01
832.31	1703.91
832.48	1626.09
832.65	1740.77
832.82	1710.05
832.99	1732.58
833.17	1658.85
833.34	1800.16
833.51	1751.01
833.68	1578.98
833.85	1748.97
834.02	1632.23
834.19	1654.76
834.36	1693.67
834.53	1699.81
834.70	1765.35
834.87	1720.29
835.04	1693.67
835.22	1656.81
835.39	1689.57
835.56	1619.94
835.73	1685.48
835.90	1734.63
836.07	1675.24
836.24	1777.64
836.41	1628.14
836.58	1669.09
836.75	1730.53
836.92	1701.86
837.09	1638.38
837.26	1746.92
837.43	1675.24
837.60	1763.30
837.77	1691.62
837.94	1800.16
838.12	1714.15
838.29	1738.73
838.46	1636.33
838.63	1652.71
838.80	1765.35
838.97	1691.62
839.14	1734.63
839.31	1673.19
839.48	1695.72
839.65	1695.72
839.82	1753.06
839.99	1705.96
840.16	1742.82
840.33	1665.00
840.50	1738.73
840.67	1691.62
840.84	1589.22
841.01	1740.77
841.18	1595.37
841.35	1693.67
841.52	1767.40
841.69	1820.64
841.86	1695.72
842.03	1718.25
842.20	1744.87
842.37	1695.72
842.54	1705.96
842.71	1796.07
842.88	1685.48
843.05	1789.92
843.22	1628.14
843.39	1746.92
843.56	1662.95
843.73	1726.44
843.90	1742.82
844.07	1648.61
844.24	1703.91
844.41	1687.53
844.58	1667.05
844.75	1621.99
844.92	1705.96
845.09	1724.39
845.26	1687.53
845.43	1718.25
845.60	1640.42
845.77	1771.49
845.94	1660.90
846.10	1822.69
846.27	1632.23
846.44	1642.47
846.61	1652.71
846.78	1660.90
846.95	1697.77
847.12	1650.66
847.29	1648.61
847.46	1665.00
847.63	1697.77
847.80	1595.37
847.97	1626.09
848.14	1802.21
848.31	1624.04
848.48	1613.80
848.65	1679.33
848.82	1648.61
848.98	1812.45
849.15	1763.30
849.32	1730.53
849.49	1701.86
849.66	1681.38
849.83	1716.20
850.00	1656.81
850.17	1714.15
850.34	1634.28
850.51	1658.85
850.68	1648.61
850.85	1865.70
851.01	1771.49
851.18	1679.33
851.35	1628.14
851.52	1691.62
851.69	1748.97
851.86	1552.36
852.03	1679.33
852.20	1765.35
852.37	1681.38
852.53	1691.62
852.70	1669.09
852.87	1683.43
853.04	1710.05
853.21	1720.29
853.38	1812.45
853.55	1759.21
853.72	1767.40
853.89	1585.13
854.05	1671.14
854.22	1718.25
854.39	1679.33
854.56	1740.77
854.73	1781.73
854.90	1652.71
855.07	1755.11
855.23	1675.24
855.40	1648.61
855.57	1748.97
855.74	1603.56
855.91	1910.75
856.08	1570.79
856.25	1595.37
856.41	1720.29
856.58	1669.09
856.75	1777.64
856.92	1564.65
857.09	1675.24
857.26	1589.22
857.42	1656.81
857.59	1712.10
857.76	1667.05
857.93	1703.91
858.10	1695.72
858.27	1660.90
858.43	1708.01
858.60	1665.00
858.77	1640.42
858.94	1585.13
859.11	1816.55
859.27	1720.29
859.44	1640.42
859.61	1800.16
859.78	1736.68
859.95	1683.43
860.12	1660.90
860.28	1796.07
860.45	1824.74
860.62	1671.14
860.79	1669.09
860.95	1695.72
861.12	1640.42
861.29	1646.57
861.46	1730.53
861.63	1671.14
861.79	1650.66
861.96	1656.81
862.13	1718.25
862.30	1720.29
862.47	1624.04
862.63	1677.29
862.80	1736.68
862.97	1757.16
863.14	1710.05
863.30	1736.68
863.47	1589.22
863.64	1710.05
863.81	1753.06
863.97	1644.52
864.14	1701.86
864.31	1689.57
864.48	1691.62
864.65	1748.97
864.81	1738.73
864.98	1712.10
865.15	1646.57
865.32	1710.05
865.48	1724.39
865.65	1740.77
865.82	1632.23
865.98	1710.05
866.15	1753.06
866.32	1673.19
866.49	1685.48
866.65	1730.53
866.82	1691.62
866.99	1628.14
867.16	1591.27
867.32	1662.95
867.49	1716.20
867.66	1724.39
867.83	1640.42
867.99	1599.46
868.16	1648.61
868.33	1609.70
868.49	1591.27
868.66	1693.67
868.83	1705.96
868.99	1722.34
869.16	1703.91
869.33	1669.09
869.50	1787.88
869.66	1621.99
869.83	1615.85
870.00	1603.56
870.16	1708.01
870.33	1667.05
870.50	1718.25
870.66	1734.63
870.83	1802.21
871.00	1718.25
871.17	1681.38
871.33	1734.63
871.50	1701.86
871.67	1632.23
871.83	1673.19
872.00	1822.69
872.17	1646.57
872.33	1759.21
872.50	1820.64
872.67	1710.05
872.83	1665.00
873.00	1660.90
873.17	1701.86
873.33	1771.49
873.50	1669.09
873.67	1589.22
873.83	1624.04
874.00	1656.81
874.16	1822.69
874.33	1722.34
874.50	1689.57
874.66	1699.81
874.83	1748.97
875.00	1746.92
875.16	1722.34
875.33	1791.97
875.50	1529.83
875.66	1599.46
875.83	1705.96
875.99	1751.01
876.16	1673.19
876.33	1648.61
876.49	1751.01
876.66	1716.20
876.83	1757.16
876.99	1685.48
877.16	1673.19
877.32	1710.05
877.49	1710.05
877.66	1697.77
877.82	1771.49
877.99	1681.38
878.15	1740.77
878.32	1636.33
878.49	1603.56
878.65	1656.81
878.82	1738.73
878.98	1607.66
879.15	1648.61
879.32	1775.59
879.48	1648.61
879.65	1675.24
879.81	1628.14
879.98	1652.71
880.15	1644.52
880.31	1691.62
880.48	1736.68
880.64	1775.59
880.81	1712.10
880.97	1785.83
881.14	1742.82
881.31	1619.94
881.47	1857.51
881.64	1683.43
881.80	1624.04
881.97	1689.57
882.13	1708.01
882.30	1607.66
882.47	1681.38
882.63	1630.18
882.80	1636.33
882.96	1658.85
883.13	1763.30
883.29	1697.77
883.46	1642.47
883.62	1759.21
883.79	1658.85
883.95	1693.67
884.12	1753.06
884.29	1734.63
884.45	1650.66
884.62	1726.44
884.78	1685.48
884.95	1775.59
885.11	1703.91
885.28	1720.29
885.44	1697.77
885.61	1755.11
885.77	1681.38
885.94	1816.55
886.10	1751.01
886.27	1697.77
886.43	1791.97
886.60	1808.36
886.76	1728.49
886.93	1638.38
887.09	1705.96
887.26	1648.61
887.42	1734.63
887.59	1796.07
887.75	1830.88
887.92	1691.62
888.08	1685.48
888.25	1824.74
888.41	1740.77
888.58	1642.47
888.74	1632.23
888.91	1595.37
>>>>>End Processed Spectral Data<<<<<
