SpectraSuite Data File
++++++++++++++++++++++++++++++++++++
Date: Mon Jun 06 14:35:37 CEST 2016
User: root
Dark Spectrum Present: No
Reference Spectrum Present: No
Number of Sampled Component Spectra: 1
Spectrometers: USB4C02835
Integration Time (usec): 100000 (USB4C02835)
Spectra Averaged: 1 (USB4C02835)
Boxcar Smoothing: 0 (USB4C02835)
Correct for Electrical Dark: No (USB4C02835)
Strobe/Lamp Enabled: No (USB4C02835)
Correct for Detector Non-linearity: No (USB4C02835)
Correct for Stray Light: No (USB4C02835)
Number of Pixels in Processed Spectrum: 3648
>>>>>Begin Processed Spectral Data<<<<<
177.47	1503.21
177.69	1503.21
177.91	1503.21
178.13	1470.44
178.36	1476.59
178.58	1648.61
178.80	1734.63
179.02	1621.99
179.24	1603.56
179.46	1665.00
179.68	1736.68
179.90	1691.62
180.13	1710.05
180.35	1665.00
180.57	1800.16
180.79	1742.82
181.01	1675.24
181.23	1787.88
181.45	1779.68
181.67	1656.81
181.90	1726.44
182.12	1632.23
182.34	1662.95
182.56	1712.10
182.78	1718.25
183.00	1716.20
183.22	1761.25
183.44	1601.51
183.66	1845.22
183.89	1787.88
184.11	1654.76
184.33	1656.81
184.55	1738.73
184.77	1705.96
184.99	1730.53
185.21	1679.33
185.43	1875.94
185.65	1724.39
185.87	1716.20
186.10	1814.50
186.32	1767.40
186.54	1763.30
186.76	1726.44
186.98	1744.87
187.20	1675.24
187.42	1589.22
187.64	1767.40
187.86	1732.58
188.08	1763.30
188.30	1660.90
188.52	1679.33
188.75	1775.59
188.97	1773.54
189.19	1611.75
189.41	1771.49
189.63	1718.25
189.85	1697.77
190.07	1566.70
190.29	1605.61
190.51	1722.34
190.73	1603.56
190.95	1732.58
191.17	1691.62
191.39	1617.90
191.61	1681.38
191.84	1669.09
192.06	1705.96
192.28	1671.14
192.50	1900.52
192.72	1742.82
192.94	1695.72
193.16	1761.25
193.38	1660.90
193.60	1675.24
193.82	1726.44
194.04	1748.97
194.26	1738.73
194.48	1718.25
194.70	1636.33
194.92	1683.43
195.14	1714.15
195.36	1662.95
195.58	1685.48
195.80	1796.07
196.02	1607.66
196.24	1761.25
196.46	1652.71
196.69	1710.05
196.91	1802.21
197.13	1705.96
197.35	1562.60
197.57	1726.44
197.79	1742.82
198.01	1693.67
198.23	1824.74
198.45	1751.01
198.67	1638.38
198.89	1681.38
199.11	1705.96
199.33	1624.04
199.55	1611.75
199.77	1679.33
199.99	1794.02
200.21	1669.09
200.43	1755.11
200.65	1634.28
200.87	1546.22
201.09	1689.57
201.31	1691.62
201.53	1716.20
201.75	1689.57
201.97	1722.34
202.19	1648.61
202.41	1755.11
202.63	1794.02
202.85	1783.78
203.07	1701.86
203.29	1710.05
203.51	1691.62
203.73	1599.46
203.95	1882.08
204.17	1624.04
204.39	1671.14
204.61	1566.70
204.83	1617.90
205.05	1806.31
205.27	1748.97
205.49	1839.08
205.71	1708.01
205.93	1646.57
206.15	1654.76
206.37	1718.25
206.59	1693.67
206.81	1603.56
207.03	1599.46
207.25	1638.38
207.47	1773.54
207.69	1679.33
207.91	1834.98
208.13	1806.31
208.34	1685.48
208.56	1628.14
208.78	1724.39
209.00	1730.53
209.22	1740.77
209.44	1740.77
209.66	1703.91
209.88	1677.29
210.10	1683.43
210.32	1648.61
210.54	1769.44
210.76	1566.70
210.98	1789.92
211.20	1587.18
211.42	1636.33
211.64	1751.01
211.86	1751.01
212.08	1740.77
212.30	1710.05
212.52	1695.72
212.74	1746.92
212.96	1701.86
213.17	1734.63
213.39	1697.77
213.61	1822.69
213.83	1789.92
214.05	1574.89
214.27	1814.50
214.49	1652.71
214.71	1691.62
214.93	1787.88
215.15	1724.39
215.37	1740.77
215.59	1628.14
215.81	1724.39
216.03	1771.49
216.24	1658.85
216.46	1738.73
216.68	1671.14
216.90	1748.97
217.12	1769.44
217.34	1728.49
217.56	1724.39
217.78	1701.86
218.00	1675.24
218.22	1689.57
218.44	1701.86
218.66	1675.24
218.87	1769.44
219.09	1624.04
219.31	1722.34
219.53	1728.49
219.75	1667.05
219.97	1726.44
220.19	1699.81
220.41	1611.75
220.63	1757.16
220.85	1687.53
221.06	1671.14
221.28	1753.06
221.50	1712.10
221.72	1742.82
221.94	1634.28
222.16	1722.34
222.38	1777.64
222.60	1714.15
222.82	1730.53
223.03	1781.73
223.25	1578.98
223.47	1767.40
223.69	1877.99
223.91	1685.48
224.13	1683.43
224.35	1718.25
224.57	1800.16
224.78	1742.82
225.00	1613.80
225.22	1710.05
225.44	1667.05
225.66	1744.87
225.88	1603.56
226.10	1728.49
226.32	1718.25
226.53	1748.97
226.75	1701.86
226.97	1644.52
227.19	1701.86
227.41	1665.00
227.63	1714.15
227.85	1617.90
228.06	1738.73
228.28	1683.43
228.50	1722.34
228.72	1687.53
228.94	1638.38
229.16	1634.28
229.37	1681.38
229.59	1660.90
229.81	1746.92
230.03	1597.42
230.25	1613.80
230.47	1587.18
230.69	1599.46
230.90	1757.16
231.12	1656.81
231.34	1701.86
231.56	1728.49
231.78	1681.38
232.00	1601.51
232.21	1671.14
232.43	1599.46
232.65	1521.64
232.87	1669.09
233.09	1681.38
233.30	1734.63
233.52	1710.05
233.74	1691.62
233.96	1726.44
234.18	1671.14
234.40	1636.33
234.61	1847.27
234.83	1638.38
235.05	1675.24
235.27	1791.97
235.49	1753.06
235.70	1697.77
235.92	1748.97
236.14	1730.53
236.36	1800.16
236.58	1621.99
236.79	1787.88
237.01	1691.62
237.23	1671.14
237.45	1834.98
237.67	1681.38
237.88	1738.73
238.10	1804.26
238.32	1712.10
238.54	1781.73
238.76	1701.86
238.97	1673.19
239.19	1634.28
239.41	1681.38
239.63	1775.59
239.85	1609.70
240.06	1662.95
240.28	1640.42
240.50	1718.25
240.72	1736.68
240.93	1730.53
241.15	1683.43
241.37	1728.49
241.59	1677.29
241.81	1609.70
242.02	1714.15
242.24	1824.74
242.46	1783.78
242.68	1689.57
242.89	1771.49
243.11	1769.44
243.33	1738.73
243.55	1763.30
243.76	1787.88
243.98	1675.24
244.20	1677.29
244.42	1650.66
244.64	1652.71
244.85	1660.90
245.07	1650.66
245.29	1757.16
245.51	1644.52
245.72	1714.15
245.94	1746.92
246.16	1701.86
246.38	1746.92
246.59	1669.09
246.81	1671.14
247.03	1697.77
247.24	1617.90
247.46	1658.85
247.68	1726.44
247.90	1662.95
248.11	1652.71
248.33	1693.67
248.55	1699.81
248.77	1718.25
248.98	1714.15
249.20	1781.73
249.42	1755.11
249.64	1667.05
249.85	1660.90
250.07	1619.94
250.29	1740.77
250.50	1765.35
250.72	1648.61
250.94	1681.38
251.16	1804.26
251.37	1763.30
251.59	1742.82
251.81	1699.81
252.02	1796.07
252.24	1652.71
252.46	1753.06
252.68	1609.70
252.89	1701.86
253.11	1650.66
253.33	1849.32
253.54	1785.83
253.76	1581.03
253.98	1675.24
254.20	1687.53
254.41	1601.51
254.63	1685.48
254.85	1677.29
255.06	1660.90
255.28	1650.66
255.50	1753.06
255.71	1771.49
255.93	1619.94
256.15	1642.47
256.36	1687.53
256.58	1691.62
256.80	1691.62
257.02	1734.63
257.23	1632.23
257.45	1687.53
257.67	1771.49
257.88	1642.47
258.10	1671.14
258.32	1736.68
258.53	1658.85
258.75	1757.16
258.97	1669.09
259.18	1681.38
259.40	1617.90
259.62	1810.40
259.83	1834.98
260.05	1720.29
260.27	1986.53
260.48	1794.02
260.70	1617.90
260.92	1714.15
261.13	1714.15
261.35	1652.71
261.57	1708.01
261.78	1648.61
262.00	1617.90
262.22	1671.14
262.43	1656.81
262.65	1734.63
262.86	1771.49
263.08	1800.16
263.30	1708.01
263.51	1611.75
263.73	1708.01
263.95	1767.40
264.16	1617.90
264.38	1685.48
264.60	1708.01
264.81	1673.19
265.03	1697.77
265.25	1699.81
265.46	1730.53
265.68	1785.83
265.89	1687.53
266.11	1636.33
266.33	1718.25
266.54	1742.82
266.76	1679.33
266.98	1634.28
267.19	1832.93
267.41	1728.49
267.62	1630.18
267.84	1599.46
268.06	1685.48
268.27	1708.01
268.49	1742.82
268.70	1697.77
268.92	1757.16
269.14	1708.01
269.35	1632.23
269.57	1728.49
269.79	1746.92
270.00	1728.49
270.22	1834.98
270.43	1679.33
270.65	1638.38
270.87	1740.77
271.08	1695.72
271.30	1679.33
271.51	1740.77
271.73	1748.97
271.95	1730.53
272.16	1759.21
272.38	1746.92
272.59	1687.53
272.81	1746.92
273.02	1726.44
273.24	1718.25
273.46	1683.43
273.67	1603.56
273.89	1605.61
274.10	1689.57
274.32	1753.06
274.54	1751.01
274.75	1716.20
274.97	1710.05
275.18	1705.96
275.40	1708.01
275.61	1681.38
275.83	1757.16
276.05	1572.84
276.26	1671.14
276.48	1695.72
276.69	1654.76
276.91	1730.53
277.12	1771.49
277.34	1732.58
277.55	1738.73
277.77	1648.61
277.99	1658.85
278.20	1640.42
278.42	1656.81
278.63	1593.32
278.85	1640.42
279.06	1673.19
279.28	1726.44
279.49	1705.96
279.71	1722.34
279.93	1677.29
280.14	1718.25
280.36	1599.46
280.57	1722.34
280.79	1779.68
281.00	1705.96
281.22	1734.63
281.43	1724.39
281.65	1578.98
281.86	1658.85
282.08	1703.91
282.29	1812.45
282.51	1572.84
282.73	1683.43
282.94	1593.32
283.16	1742.82
283.37	1810.40
283.59	1652.71
283.80	1785.83
284.02	1648.61
284.23	1789.92
284.45	1636.33
284.66	1640.42
284.88	1724.39
285.09	1734.63
285.31	1689.57
285.52	1734.63
285.74	1538.02
285.95	1685.48
286.17	1732.58
286.38	1654.76
286.60	1603.56
286.81	1699.81
287.03	1628.14
287.24	1681.38
287.46	1798.12
287.67	1708.01
287.89	1839.08
288.10	1728.49
288.32	1728.49
288.53	1744.87
288.75	1746.92
288.96	1763.30
289.18	1720.29
289.39	1689.57
289.61	1728.49
289.82	1783.78
290.04	1837.03
290.25	1687.53
290.47	1748.97
290.68	1669.09
290.90	1728.49
291.11	1607.66
291.33	1812.45
291.54	1652.71
291.76	1648.61
291.97	1748.97
292.18	1753.06
292.40	1675.24
292.61	1660.90
292.83	1783.78
293.04	1705.96
293.26	1697.77
293.47	1648.61
293.69	1634.28
293.90	1695.72
294.12	1761.25
294.33	1759.21
294.55	1654.76
294.76	1742.82
294.97	1728.49
295.19	1834.98
295.40	1724.39
295.62	1697.77
295.83	1746.92
296.05	1742.82
296.26	1769.44
296.48	1703.91
296.69	1654.76
296.90	1703.91
297.12	1740.77
297.33	1814.50
297.55	1693.67
297.76	1736.68
297.98	1767.40
298.19	1636.33
298.41	1718.25
298.62	1665.00
298.83	1808.36
299.05	1681.38
299.26	1736.68
299.48	1675.24
299.69	1722.34
299.90	1716.20
300.12	1697.77
300.33	1724.39
300.55	1685.48
300.76	1751.01
300.98	1603.56
301.19	1699.81
301.40	1742.82
301.62	1691.62
301.83	1699.81
302.05	1714.15
302.26	1761.25
302.47	1628.14
302.69	1574.89
302.90	1716.20
303.12	1693.67
303.33	1824.74
303.54	1767.40
303.76	1665.00
303.97	1789.92
304.19	1726.44
304.40	1708.01
304.61	1658.85
304.83	1810.40
305.04	1734.63
305.26	1687.53
305.47	1685.48
305.68	1644.52
305.90	1617.90
306.11	1798.12
306.33	1710.05
306.54	1667.05
306.75	1640.42
306.97	1638.38
307.18	1708.01
307.39	1736.68
307.61	1730.53
307.82	1701.86
308.04	1665.00
308.25	1673.19
308.46	1744.87
308.68	1703.91
308.89	1728.49
309.10	1822.69
309.32	1705.96
309.53	1650.66
309.74	1683.43
309.96	1660.90
310.17	1753.06
310.39	1695.72
310.60	1658.85
310.81	1691.62
311.03	1638.38
311.24	1708.01
311.45	1724.39
311.67	1837.03
311.88	1685.48
312.09	1665.00
312.31	1638.38
312.52	1685.48
312.73	1720.29
312.95	1613.80
313.16	1667.05
313.37	1837.03
313.59	1685.48
313.80	1728.49
314.01	1724.39
314.23	1689.57
314.44	1615.85
314.65	1685.48
314.87	1699.81
315.08	1665.00
315.29	1685.48
315.51	1642.47
315.72	1687.53
315.93	1738.73
316.15	1708.01
316.36	1683.43
316.57	1695.72
316.79	1746.92
317.00	1581.03
317.21	1701.86
317.43	1673.19
317.64	1755.11
317.85	1646.57
318.07	1609.70
318.28	1730.53
318.49	1830.88
318.70	1925.09
318.92	1832.93
319.13	1789.92
319.34	1875.94
319.56	1798.12
319.77	1826.79
319.98	1789.92
320.20	1710.05
320.41	1808.36
320.62	1730.53
320.83	1712.10
321.05	1810.40
321.26	1746.92
321.47	1689.57
321.69	1730.53
321.90	1677.29
322.11	1718.25
322.32	1726.44
322.54	1810.40
322.75	1685.48
322.96	1785.83
323.18	1638.38
323.39	1544.17
323.60	1609.70
323.81	1708.01
324.03	1628.14
324.24	1701.86
324.45	1734.63
324.66	1701.86
324.88	1806.31
325.09	1740.77
325.30	1687.53
325.52	1748.97
325.73	1656.81
325.94	1648.61
326.15	1609.70
326.37	1705.96
326.58	1699.81
326.79	1806.31
327.00	1642.47
327.22	1755.11
327.43	1603.56
327.64	1699.81
327.85	1761.25
328.07	1759.21
328.28	1820.64
328.49	1671.14
328.70	1726.44
328.92	1730.53
329.13	1781.73
329.34	1728.49
329.55	1773.54
329.76	1691.62
329.98	1701.86
330.19	1781.73
330.40	1705.96
330.61	1652.71
330.83	1763.30
331.04	1683.43
331.25	1691.62
331.46	1710.05
331.68	1695.72
331.89	1722.34
332.10	1691.62
332.31	1669.09
332.52	1669.09
332.74	1775.59
332.95	1660.90
333.16	1634.28
333.37	1761.25
333.58	1734.63
333.80	1665.00
334.01	1677.29
334.22	1632.23
334.43	1673.19
334.64	1677.29
334.86	1603.56
335.07	1708.01
335.28	1820.64
335.49	1638.38
335.70	1791.97
335.92	1832.93
336.13	1880.04
336.34	1693.67
336.55	1687.53
336.76	1738.73
336.98	1677.29
337.19	1665.00
337.40	1755.11
337.61	1871.84
337.82	1642.47
338.04	1683.43
338.25	1642.47
338.46	1703.91
338.67	1742.82
338.88	1687.53
339.09	1583.08
339.31	1630.18
339.52	1660.90
339.73	1634.28
339.94	1740.77
340.15	1693.67
340.36	1697.77
340.58	1699.81
340.79	1642.47
341.00	1722.34
341.21	1677.29
341.42	1757.16
341.63	1724.39
341.85	1789.92
342.06	1740.77
342.27	1583.08
342.48	1746.92
342.69	1583.08
342.90	1748.97
343.12	1716.20
343.33	1681.38
343.54	1734.63
343.75	1791.97
343.96	1755.11
344.17	1716.20
344.38	1736.68
344.60	1722.34
344.81	1630.18
345.02	1701.86
345.23	1705.96
345.44	1845.22
345.65	1730.53
345.86	1748.97
346.07	1683.43
346.29	1689.57
346.50	1822.69
346.71	1814.50
346.92	1751.01
347.13	1820.64
347.34	1699.81
347.55	1746.92
347.76	1734.63
347.98	1665.00
348.19	1720.29
348.40	1882.08
348.61	1654.76
348.82	1830.88
349.03	1779.68
349.24	1738.73
349.45	1877.99
349.66	1566.70
349.88	1708.01
350.09	1677.29
350.30	1781.73
350.51	1806.31
350.72	1665.00
350.93	1738.73
351.14	1695.72
351.35	1665.00
351.56	1660.90
351.77	1753.06
351.99	1712.10
352.20	1820.64
352.41	1761.25
352.62	1572.84
352.83	1642.47
353.04	1675.24
353.25	1705.96
353.46	1759.21
353.67	1726.44
353.88	1691.62
354.09	1746.92
354.30	1718.25
354.52	1744.87
354.73	1705.96
354.94	1703.91
355.15	1648.61
355.36	1810.40
355.57	1779.68
355.78	1681.38
355.99	1699.81
356.20	1605.61
356.41	1789.92
356.62	1783.78
356.83	1685.48
357.04	1705.96
357.25	1683.43
357.46	1646.57
357.68	1673.19
357.89	1761.25
358.10	1718.25
358.31	1732.58
358.52	1591.27
358.73	1740.77
358.94	1685.48
359.15	1679.33
359.36	1742.82
359.57	1691.62
359.78	1634.28
359.99	1730.53
360.20	1636.33
360.41	1701.86
360.62	1763.30
360.83	1662.95
361.04	1675.24
361.25	1734.63
361.46	1748.97
361.67	1662.95
361.88	1755.11
362.09	1736.68
362.30	1660.90
362.51	1699.81
362.72	1646.57
362.93	1753.06
363.14	1691.62
363.35	1656.81
363.56	1644.52
363.78	1695.72
363.99	1748.97
364.20	1654.76
364.41	1673.19
364.62	1834.98
364.83	1800.16
365.04	1740.77
365.25	1621.99
365.46	1769.44
365.67	1656.81
365.88	1693.67
366.09	1648.61
366.30	1703.91
366.51	1705.96
366.72	1660.90
366.93	1681.38
367.14	1636.33
367.35	1796.07
367.56	1730.53
367.77	1791.97
367.98	1751.01
368.18	1736.68
368.39	1763.30
368.60	1646.57
368.81	1710.05
369.02	1687.53
369.23	1695.72
369.44	1628.14
369.65	1734.63
369.86	1726.44
370.07	1697.77
370.28	1585.13
370.49	1738.73
370.70	1834.98
370.91	1624.04
371.12	1665.00
371.33	1730.53
371.54	1675.24
371.75	1855.46
371.96	1642.47
372.17	1683.43
372.38	1691.62
372.59	1650.66
372.80	1685.48
373.01	1763.30
373.22	1718.25
373.43	1771.49
373.64	1611.75
373.85	1757.16
374.06	1759.21
374.26	1683.43
374.47	1699.81
374.68	1771.49
374.89	1626.09
375.10	1660.90
375.31	1779.68
375.52	1746.92
375.73	1658.85
375.94	1646.57
376.15	1757.16
376.36	1601.51
376.57	1712.10
376.78	1679.33
376.99	1787.88
377.20	1742.82
377.40	1720.29
377.61	1796.07
377.82	1576.94
378.03	1834.98
378.24	1701.86
378.45	1755.11
378.66	1718.25
378.87	1595.37
379.08	1613.80
379.29	1673.19
379.50	1820.64
379.71	1689.57
379.91	1765.35
380.12	1728.49
380.33	1742.82
380.54	1777.64
380.75	1710.05
380.96	1677.29
381.17	1841.12
381.38	1697.77
381.59	1708.01
381.80	1759.21
382.00	1877.99
382.21	1679.33
382.42	1759.21
382.63	1880.04
382.84	1789.92
383.05	1810.40
383.26	1828.84
383.47	1787.88
383.68	1720.29
383.88	1732.58
384.09	1730.53
384.30	1855.46
384.51	1771.49
384.72	1599.46
384.93	1648.61
385.14	1746.92
385.35	1808.36
385.55	1574.89
385.76	1757.16
385.97	1744.87
386.18	1605.61
386.39	1605.61
386.60	1650.66
386.81	1636.33
387.02	1689.57
387.22	1644.52
387.43	1732.58
387.64	1732.58
387.85	1923.04
388.06	2228.19
388.27	4480.96
388.48	6952.85
388.68	8241.03
388.89	9645.93
389.10	9768.81
389.31	8595.32
389.52	7624.59
389.73	6813.59
389.93	6113.19
390.14	5814.18
390.35	5361.58
390.56	4642.75
390.77	3848.13
390.98	3078.10
391.18	2582.49
391.39	2133.98
391.60	1884.13
391.81	1759.21
392.02	1779.68
392.23	1841.12
392.43	1740.77
392.64	1773.54
392.85	1728.49
393.06	1837.03
393.27	1746.92
393.47	1765.35
393.68	1742.82
393.89	1681.38
394.10	1880.04
394.31	1746.92
394.52	1613.80
394.72	1656.81
394.93	1796.07
395.14	1708.01
395.35	1755.11
395.56	1679.33
395.76	1722.34
395.97	1773.54
396.18	1820.64
396.39	1822.69
396.60	2056.16
396.80	1832.93
397.01	1855.46
397.22	1775.59
397.43	1888.23
397.64	1734.63
397.84	1787.88
398.05	1910.75
398.26	1683.43
398.47	1818.60
398.67	1748.97
398.88	1759.21
399.09	1779.68
399.30	1773.54
399.51	1691.62
399.71	1665.00
399.92	1671.14
400.13	1812.45
400.34	1665.00
400.54	1738.73
400.75	1755.11
400.96	1763.30
401.17	1740.77
401.37	1742.82
401.58	1742.82
401.79	1697.77
402.00	1796.07
402.21	2029.54
402.41	1955.81
402.62	1968.10
402.83	2088.93
403.04	1978.34
403.24	2119.65
403.45	1886.18
403.66	1937.38
403.87	1812.45
404.07	1912.80
404.28	1894.37
404.49	1863.65
404.70	1771.49
404.90	1800.16
405.11	1751.01
405.32	1699.81
405.52	1638.38
405.73	1662.95
405.94	1634.28
406.15	1726.44
406.35	1667.05
406.56	1773.54
406.77	1740.77
406.98	1738.73
407.18	1591.27
407.39	1730.53
407.60	1726.44
407.80	1746.92
408.01	1716.20
408.22	1718.25
408.43	1671.14
408.63	1718.25
408.84	1771.49
409.05	1683.43
409.25	1558.50
409.46	1677.29
409.67	1677.29
409.88	1697.77
410.08	1673.19
410.29	1669.09
410.50	1796.07
410.70	1755.11
410.91	1601.51
411.12	1720.29
411.32	1634.28
411.53	1677.29
411.74	1800.16
411.95	1843.17
412.15	1798.12
412.36	1779.68
412.57	1708.01
412.77	1814.50
412.98	1787.88
413.19	1771.49
413.39	1794.02
413.60	1785.83
413.81	1789.92
414.01	1621.99
414.22	1791.97
414.43	1728.49
414.63	1714.15
414.84	1763.30
415.05	1671.14
415.25	1677.29
415.46	1724.39
415.67	1673.19
415.87	1683.43
416.08	1710.05
416.29	1687.53
416.49	1800.16
416.70	1679.33
416.91	1652.71
417.11	1699.81
417.32	1699.81
417.53	1781.73
417.73	1687.53
417.94	1699.81
418.15	1673.19
418.35	1738.73
418.56	1718.25
418.77	1896.42
418.97	1720.29
419.18	1660.90
419.38	1630.18
419.59	1667.05
419.80	1761.25
420.00	1703.91
420.21	1765.35
420.42	1744.87
420.62	1761.25
420.83	1730.53
421.04	1667.05
421.24	1617.90
421.45	1759.21
421.65	1689.57
421.86	1742.82
422.07	1839.08
422.27	1693.67
422.48	1742.82
422.69	1656.81
422.89	1628.14
423.10	1722.34
423.30	1679.33
423.51	1708.01
423.72	1697.77
423.92	1849.32
424.13	1634.28
424.33	1681.38
424.54	1800.16
424.75	1675.24
424.95	1787.88
425.16	1726.44
425.36	1667.05
425.57	1777.64
425.78	1705.96
425.98	1798.12
426.19	1665.00
426.39	1642.47
426.60	1701.86
426.81	1763.30
427.01	1728.49
427.22	1654.76
427.42	1681.38
427.63	1656.81
427.83	1796.07
428.04	1800.16
428.25	1806.31
428.45	1722.34
428.66	1744.87
428.86	1751.01
429.07	1712.10
429.28	1724.39
429.48	1626.09
429.69	1736.68
429.89	1697.77
430.10	1667.05
430.30	1820.64
430.51	1753.06
430.71	1771.49
430.92	1769.44
431.13	1681.38
431.33	1646.57
431.54	1744.87
431.74	1724.39
431.95	1785.83
432.15	1576.94
432.36	1736.68
432.56	1720.29
432.77	1755.11
432.98	1804.26
433.18	1714.15
433.39	1632.23
433.59	1687.53
433.80	1775.59
434.00	1867.75
434.21	1634.28
434.41	1708.01
434.62	1791.97
434.82	1656.81
435.03	1714.15
435.23	1689.57
435.44	1607.66
435.64	1728.49
435.85	1755.11
436.06	1730.53
436.26	1765.35
436.47	1691.62
436.67	1701.86
436.88	1665.00
437.08	1755.11
437.29	1830.88
437.49	1722.34
437.70	1812.45
437.90	1783.78
438.11	1837.03
438.31	1826.79
438.52	1877.99
438.72	1814.50
438.93	1832.93
439.13	1816.55
439.34	1781.73
439.54	1794.02
439.75	1800.16
439.95	1771.49
440.16	1687.53
440.36	1773.54
440.57	1767.40
440.77	1757.16
440.98	1683.43
441.18	1738.73
441.39	1679.33
441.59	1628.14
441.80	1826.79
442.00	1736.68
442.21	1828.84
442.41	1632.23
442.62	1773.54
442.82	1640.42
443.02	1736.68
443.23	1738.73
443.43	1722.34
443.64	1791.97
443.84	1716.20
444.05	1855.46
444.25	1773.54
444.46	1755.11
444.66	1699.81
444.87	1812.45
445.07	1708.01
445.28	1775.59
445.48	1763.30
445.69	1828.84
445.89	1783.78
446.09	1724.39
446.30	2072.54
446.50	2693.08
446.71	3788.74
446.91	4310.97
447.12	4704.18
447.32	4847.54
447.53	4294.59
447.73	3858.37
447.93	3553.23
448.14	3309.52
448.34	3184.59
448.55	2985.94
448.75	2889.68
448.96	2666.46
449.16	2453.47
449.36	2291.68
449.57	1972.19
449.77	1873.89
449.98	1765.35
450.18	1757.16
450.39	1761.25
450.59	1785.83
450.79	1714.15
451.00	1652.71
451.20	1777.64
451.41	1736.68
451.61	1665.00
451.81	1675.24
452.02	1701.86
452.22	1656.81
452.43	1751.01
452.63	1701.86
452.84	1736.68
453.04	1710.05
453.24	1705.96
453.45	1736.68
453.65	1773.54
453.86	1761.25
454.06	1656.81
454.26	1714.15
454.47	1734.63
454.67	1787.88
454.87	1673.19
455.08	1734.63
455.28	1761.25
455.49	1746.92
455.69	1648.61
455.89	1841.12
456.10	1763.30
456.30	1744.87
456.51	1767.40
456.71	1751.01
456.91	1738.73
457.12	1681.38
457.32	1751.01
457.52	1599.46
457.73	1732.58
457.93	1812.45
458.14	1697.77
458.34	1681.38
458.54	1689.57
458.75	1701.86
458.95	1843.17
459.15	1751.01
459.36	1730.53
459.56	1732.58
459.76	1947.62
459.97	1669.09
460.17	1771.49
460.37	1859.56
460.58	1763.30
460.78	1773.54
460.99	1701.86
461.19	1712.10
461.39	1658.85
461.60	1695.72
461.80	1730.53
462.00	1665.00
462.21	1757.16
462.41	1720.29
462.61	1652.71
462.82	1681.38
463.02	1769.44
463.22	1765.35
463.43	1804.26
463.63	1708.01
463.83	1779.68
464.04	1753.06
464.24	1738.73
464.44	1734.63
464.64	1679.33
464.85	1714.15
465.05	1812.45
465.25	1744.87
465.46	1777.64
465.66	1738.73
465.86	1755.11
466.07	1708.01
466.27	1751.01
466.47	1689.57
466.68	1642.47
466.88	1746.92
467.08	1765.35
467.29	1755.11
467.49	1783.78
467.69	1691.62
467.89	1767.40
468.10	1644.52
468.30	1830.88
468.50	1775.59
468.71	1794.02
468.91	1601.51
469.11	1804.26
469.31	1650.66
469.52	1665.00
469.72	1722.34
469.92	1824.74
470.13	1714.15
470.33	1759.21
470.53	1832.93
470.73	2213.85
470.94	2230.24
471.14	2392.03
471.34	2547.67
471.54	2346.97
471.75	2254.81
471.95	2123.74
472.15	2097.12
472.36	2115.55
472.56	2093.02
472.76	2017.25
472.96	2066.40
473.17	1877.99
473.37	1898.47
473.57	1814.50
473.77	1802.21
473.98	1722.34
474.18	1722.34
474.38	1933.28
474.58	1716.20
474.79	1683.43
474.99	1732.58
475.19	1841.12
475.39	1714.15
475.60	1720.29
475.80	1685.48
476.00	1744.87
476.20	1673.19
476.41	1708.01
476.61	1851.36
476.81	1757.16
477.01	1642.47
477.21	1849.32
477.42	1779.68
477.62	1671.14
477.82	1730.53
478.02	1691.62
478.23	1765.35
478.43	1665.00
478.63	1734.63
478.83	1751.01
479.03	1677.29
479.24	1785.83
479.44	1828.84
479.64	1656.81
479.84	1648.61
480.04	1648.61
480.25	1794.02
480.45	1728.49
480.65	1665.00
480.85	1798.12
481.06	1615.85
481.26	1705.96
481.46	1708.01
481.66	1734.63
481.86	1632.23
482.06	1761.25
482.27	1656.81
482.47	1662.95
482.67	1697.77
482.87	1656.81
483.07	1830.88
483.28	1753.06
483.48	1718.25
483.68	1828.84
483.88	1624.04
484.08	1570.79
484.29	1685.48
484.49	1755.11
484.69	1578.98
484.89	1773.54
485.09	1738.73
485.29	1787.88
485.50	1779.68
485.70	1650.66
485.90	1798.12
486.10	1665.00
486.30	1769.44
486.50	1736.68
486.71	1794.02
486.91	1804.26
487.11	1734.63
487.31	1656.81
487.51	1748.97
487.71	1656.81
487.91	1650.66
488.12	1644.52
488.32	1603.56
488.52	1699.81
488.72	1687.53
488.92	1691.62
489.12	1753.06
489.32	1751.01
489.53	1767.40
489.73	1624.04
489.93	1886.18
490.13	1640.42
490.33	1669.09
490.53	1798.12
490.73	1849.32
490.94	1607.66
491.14	1705.96
491.34	1759.21
491.54	2107.36
491.74	2455.51
491.94	2973.65
492.14	3080.14
492.34	2965.46
492.54	2783.19
492.75	2469.85
492.95	2486.23
493.15	2371.55
493.35	2338.78
493.55	2228.19
493.75	2160.61
493.95	2152.42
494.15	2021.35
494.35	1929.19
494.56	1847.27
494.76	1816.55
494.96	1847.27
495.16	1800.16
495.36	1689.57
495.56	1742.82
495.76	1683.43
495.96	1695.72
496.16	1744.87
496.36	1796.07
496.56	1755.11
496.77	1705.96
496.97	1708.01
497.17	1710.05
497.37	1597.42
497.57	1724.39
497.77	1738.73
497.97	1751.01
498.17	1708.01
498.37	1691.62
498.57	1763.30
498.77	1771.49
498.97	1724.39
499.17	1820.64
499.38	1814.50
499.58	1746.92
499.78	1804.26
499.98	1769.44
500.18	1718.25
500.38	1701.86
500.58	1929.19
500.78	2525.15
500.98	4589.50
501.18	5871.53
501.38	6752.15
501.58	7225.23
501.78	6705.05
501.98	5566.38
502.18	5093.30
502.38	4575.16
502.58	4132.80
502.78	3885.00
502.98	3647.43
503.18	3485.64
503.38	3188.69
503.59	2844.63
503.79	2787.29
503.99	2596.82
504.19	2340.83
504.39	2250.72
504.59	2133.98
504.79	2117.60
504.99	2050.02
505.19	1896.42
505.39	1847.27
505.59	2033.63
505.79	1914.85
505.99	1818.60
506.19	1712.10
506.39	1877.99
506.59	1765.35
506.79	1697.77
506.99	1761.25
507.19	1810.40
507.39	1695.72
507.59	1658.85
507.79	1665.00
507.99	1708.01
508.19	1673.19
508.39	1718.25
508.59	1669.09
508.79	1861.60
508.99	1822.69
509.19	1648.61
509.39	1763.30
509.59	1687.53
509.79	1773.54
509.99	1757.16
510.19	1767.40
510.39	1810.40
510.59	1746.92
510.79	1728.49
510.99	1640.42
511.19	1720.29
511.39	1808.36
511.59	1736.68
511.79	1812.45
511.99	1730.53
512.19	1720.29
512.38	1740.77
512.58	1701.86
512.78	1759.21
512.98	1767.40
513.18	1845.22
513.38	1701.86
513.58	1716.20
513.78	1703.91
513.98	1687.53
514.18	1669.09
514.38	1763.30
514.58	1753.06
514.78	1609.70
514.98	1615.85
515.18	1695.72
515.38	1646.57
515.58	1820.64
515.78	1744.87
515.98	1726.44
516.18	1710.05
516.38	1777.64
516.57	1699.81
516.77	1693.67
516.97	1665.00
517.17	1640.42
517.37	1712.10
517.57	1798.12
517.77	1665.00
517.97	1687.53
518.17	1746.92
518.37	1714.15
518.57	1740.77
518.77	1720.29
518.97	1699.81
519.16	1820.64
519.36	1855.46
519.56	1769.44
519.76	1634.28
519.96	1814.50
520.16	1810.40
520.36	1671.14
520.56	1726.44
520.76	1726.44
520.96	1705.96
521.16	1738.73
521.35	1845.22
521.55	1837.03
521.75	1767.40
521.95	1689.57
522.15	1753.06
522.35	1677.29
522.55	1708.01
522.75	1701.86
522.95	1687.53
523.14	1656.81
523.34	1738.73
523.54	1710.05
523.74	1789.92
523.94	1695.72
524.14	1697.77
524.34	1740.77
524.54	1828.84
524.73	1710.05
524.93	1738.73
525.13	1738.73
525.33	1703.91
525.53	1871.84
525.73	1703.91
525.93	1722.34
526.13	1665.00
526.32	1689.57
526.52	1796.07
526.72	1794.02
526.92	1697.77
527.12	1724.39
527.32	1685.48
527.52	1748.97
527.71	1746.92
527.91	1675.24
528.11	1722.34
528.31	1708.01
528.51	1730.53
528.71	1808.36
528.90	1693.67
529.10	1759.21
529.30	1853.41
529.50	1585.13
529.70	1818.60
529.90	1665.00
530.09	1761.25
530.29	1609.70
530.49	1646.57
530.69	1865.70
530.89	1722.34
531.09	1816.55
531.28	1679.33
531.48	1810.40
531.68	1791.97
531.88	1722.34
532.08	1775.59
532.28	1673.19
532.47	1773.54
532.67	1744.87
532.87	1730.53
533.07	1738.73
533.27	1775.59
533.46	1785.83
533.66	1783.78
533.86	1751.01
534.06	1714.15
534.26	1718.25
534.45	1781.73
534.65	1812.45
534.85	1740.77
535.05	1691.62
535.25	1757.16
535.44	1710.05
535.64	1767.40
535.84	1724.39
536.04	1650.66
536.24	1669.09
536.43	1732.58
536.63	1746.92
536.83	1734.63
537.03	1783.78
537.22	1701.86
537.42	1648.61
537.62	1734.63
537.82	1714.15
538.02	1773.54
538.21	1877.99
538.41	1865.70
538.61	1785.83
538.81	1685.48
539.00	1714.15
539.20	1677.29
539.40	1673.19
539.60	1785.83
539.79	1755.11
539.99	1730.53
540.19	1683.43
540.39	1652.71
540.58	1761.25
540.78	1732.58
540.98	1755.11
541.18	1777.64
541.37	1791.97
541.57	1683.43
541.77	1753.06
541.97	1660.90
542.16	1665.00
542.36	1744.87
542.56	1730.53
542.76	1796.07
542.95	1808.36
543.15	1701.86
543.35	1791.97
543.54	1667.05
543.74	1667.05
543.94	1767.40
544.14	1728.49
544.33	1738.73
544.53	1716.20
544.73	1714.15
544.93	1701.86
545.12	1714.15
545.32	1732.58
545.52	1759.21
545.71	1581.03
545.91	1652.71
546.11	1687.53
546.30	1714.15
546.50	1697.77
546.70	1826.79
546.90	1761.25
547.09	1658.85
547.29	1765.35
547.49	1791.97
547.68	1767.40
547.88	1708.01
548.08	1755.11
548.27	2205.66
548.47	1746.92
548.67	1615.85
548.87	1779.68
549.06	1724.39
549.26	1679.33
549.46	1800.16
549.65	1640.42
549.85	1742.82
550.05	1791.97
550.24	1628.14
550.44	1773.54
550.64	1683.43
550.83	1861.60
551.03	1804.26
551.23	1773.54
551.42	1851.36
551.62	1724.39
551.82	1773.54
552.01	1677.29
552.21	1791.97
552.41	1787.88
552.60	1775.59
552.80	1746.92
553.00	1693.67
553.19	1722.34
553.39	1802.21
553.59	1644.52
553.78	1822.69
553.98	1716.20
554.17	1611.75
554.37	1802.21
554.57	1812.45
554.76	1615.85
554.96	1646.57
555.16	1669.09
555.35	1763.30
555.55	1710.05
555.75	1720.29
555.94	1843.17
556.14	1720.29
556.33	1705.96
556.53	1738.73
556.73	1800.16
556.92	1791.97
557.12	1777.64
557.32	1843.17
557.51	1812.45
557.71	1720.29
557.90	1886.18
558.10	1820.64
558.30	1726.44
558.49	1726.44
558.69	1683.43
558.88	1695.72
559.08	1685.48
559.28	1726.44
559.47	1728.49
559.67	1828.84
559.86	1798.12
560.06	1767.40
560.26	1738.73
560.45	1812.45
560.65	1648.61
560.84	1753.06
561.04	1714.15
561.24	1701.86
561.43	1710.05
561.63	1841.12
561.82	1796.07
562.02	1806.31
562.22	1648.61
562.41	1650.66
562.61	1624.04
562.80	1644.52
563.00	1871.84
563.19	1810.40
563.39	1859.56
563.59	1748.97
563.78	1701.86
563.98	1636.33
564.17	1751.01
564.37	1748.97
564.56	1718.25
564.76	1681.38
564.96	1820.64
565.15	1716.20
565.35	1841.12
565.54	1677.29
565.74	1783.78
565.93	1771.49
566.13	1769.44
566.32	1626.09
566.52	1751.01
566.71	1812.45
566.91	1703.91
567.11	1726.44
567.30	1710.05
567.50	1820.64
567.69	1755.11
567.89	1779.68
568.08	1732.58
568.28	1730.53
568.47	1705.96
568.67	1761.25
568.86	1812.45
569.06	1767.40
569.25	1785.83
569.45	1673.19
569.64	1751.01
569.84	1673.19
570.04	1785.83
570.23	1744.87
570.43	1751.01
570.62	1710.05
570.82	1816.55
571.01	1626.09
571.21	1744.87
571.40	1626.09
571.60	1820.64
571.79	1806.31
571.99	1828.84
572.18	1732.58
572.38	1736.68
572.57	1716.20
572.77	1734.63
572.96	1834.98
573.16	1757.16
573.35	1773.54
573.55	1785.83
573.74	1755.11
573.94	1697.77
574.13	1697.77
574.33	1738.73
574.52	1834.98
574.71	1781.73
574.91	1800.16
575.10	1669.09
575.30	1716.20
575.49	1634.28
575.69	1673.19
575.88	1759.21
576.08	1734.63
576.27	1771.49
576.47	1744.87
576.66	1802.21
576.86	1742.82
577.05	1677.29
577.25	1724.39
577.44	1849.32
577.64	1681.38
577.83	1806.31
578.02	1718.25
578.22	1834.98
578.41	1857.51
578.61	1710.05
578.80	1677.29
579.00	1736.68
579.19	1761.25
579.39	1853.41
579.58	1748.97
579.77	1708.01
579.97	1898.47
580.16	1789.92
580.36	1814.50
580.55	1787.88
580.75	1773.54
580.94	1730.53
581.13	1875.94
581.33	1847.27
581.52	1703.91
581.72	1920.99
581.91	1877.99
582.11	1648.61
582.30	1736.68
582.49	1855.46
582.69	1847.27
582.88	1683.43
583.08	1775.59
583.27	1751.01
583.47	1759.21
583.66	1693.67
583.85	1726.44
584.05	1744.87
584.24	1806.31
584.44	1767.40
584.63	1769.44
584.82	1857.51
585.02	1859.56
585.21	1837.03
585.41	1855.46
585.60	1798.12
585.79	1906.66
585.99	1882.08
586.18	1824.74
586.37	2322.40
586.57	3461.07
586.76	9932.65
586.96	24802.95
587.15	34975.21
587.34	41346.44
587.54	42820.98
587.73	37299.65
587.93	26699.37
588.12	21612.21
588.31	18640.61
588.51	16664.32
588.70	15550.23
588.89	14272.29
589.09	12789.56
589.28	11261.78
589.47	9613.17
589.67	8101.76
589.86	6573.98
590.06	5029.81
590.25	3872.71
590.44	3106.77
590.64	2635.74
590.83	2224.09
591.02	2113.50
591.22	2031.58
591.41	1894.37
591.60	1769.44
591.80	1890.28
591.99	1814.50
592.18	1855.46
592.38	1853.41
592.57	1701.86
592.76	1869.80
592.96	1767.40
593.15	1716.20
593.34	1826.79
593.54	1757.16
593.73	1828.84
593.92	1755.11
594.12	1757.16
594.31	1738.73
594.50	1822.69
594.70	1763.30
594.89	1783.78
595.08	1673.19
595.28	1761.25
595.47	1890.28
595.66	1779.68
595.86	1679.33
596.05	1761.25
596.24	1689.57
596.43	1763.30
596.63	1802.21
596.82	1820.64
597.01	1808.36
597.21	1853.41
597.40	1775.59
597.59	1808.36
597.79	1693.67
597.98	1757.16
598.17	1779.68
598.36	1775.59
598.56	1787.88
598.75	1722.34
598.94	1693.67
599.14	1742.82
599.33	1708.01
599.52	1746.92
599.71	1726.44
599.91	1796.07
600.10	1769.44
600.29	1742.82
600.48	1787.88
600.68	1744.87
600.87	1681.38
601.06	1642.47
601.26	1740.77
601.45	1738.73
601.64	1783.78
601.83	1787.88
602.03	1767.40
602.22	1679.33
602.41	1732.58
602.60	1898.47
602.80	1812.45
602.99	1712.10
603.18	1767.40
603.37	1763.30
603.57	1802.21
603.76	1837.03
603.95	1738.73
604.14	1751.01
604.34	1705.96
604.53	1761.25
604.72	1767.40
604.91	1808.36
605.10	1759.21
605.30	1757.16
605.49	1869.80
605.68	1808.36
605.87	1783.78
606.07	1693.67
606.26	1761.25
606.45	1861.60
606.64	1777.64
606.84	1679.33
607.03	1730.53
607.22	1738.73
607.41	1669.09
607.60	1738.73
607.80	1796.07
607.99	1699.81
608.18	1720.29
608.37	1748.97
608.56	1763.30
608.76	1746.92
608.95	1822.69
609.14	1705.96
609.33	1767.40
609.52	1751.01
609.72	1650.66
609.91	1757.16
610.10	1781.73
610.29	1802.21
610.48	1734.63
610.68	1738.73
610.87	1703.91
611.06	1785.83
611.25	1646.57
611.44	1789.92
611.63	1763.30
611.83	1810.40
612.02	1677.29
612.21	1804.26
612.40	1615.85
612.59	1744.87
612.79	1738.73
612.98	1718.25
613.17	1742.82
613.36	1705.96
613.55	1822.69
613.74	1703.91
613.93	1783.78
614.13	1710.05
614.32	1767.40
614.51	1683.43
614.70	1708.01
614.89	1714.15
615.08	1673.19
615.28	2035.68
615.47	1734.63
615.66	1693.67
615.85	1679.33
616.04	1808.36
616.23	1728.49
616.42	1691.62
616.62	1720.29
616.81	1677.29
617.00	1710.05
617.19	1746.92
617.38	1744.87
617.57	1738.73
617.76	1763.30
617.95	1740.77
618.15	1746.92
618.34	1730.53
618.53	1595.37
618.72	1644.52
618.91	1845.22
619.10	1802.21
619.29	1720.29
619.48	1683.43
619.68	1662.95
619.87	1716.20
620.06	1677.29
620.25	1708.01
620.44	1763.30
620.63	1724.39
620.82	1695.72
621.01	1712.10
621.20	1787.88
621.39	1738.73
621.59	1757.16
621.78	1744.87
621.97	1701.86
622.16	1767.40
622.35	1654.76
622.54	1738.73
622.73	1837.03
622.92	1691.62
623.11	1701.86
623.30	1687.53
623.49	1761.25
623.68	1701.86
623.88	1816.55
624.07	1738.73
624.26	1746.92
624.45	1746.92
624.64	1693.67
624.83	1722.34
625.02	1720.29
625.21	1689.57
625.40	1673.19
625.59	1785.83
625.78	1810.40
625.97	1751.01
626.16	1804.26
626.35	1685.48
626.54	1693.67
626.74	1867.75
626.93	1722.34
627.12	1701.86
627.31	1800.16
627.50	1771.49
627.69	1734.63
627.88	1619.94
628.07	1722.34
628.26	1605.61
628.45	1648.61
628.64	1697.77
628.83	1716.20
629.02	1660.90
629.21	1718.25
629.40	1755.11
629.59	1675.24
629.78	1660.90
629.97	1701.86
630.16	1720.29
630.35	1726.44
630.54	1691.62
630.73	1744.87
630.92	1753.06
631.11	1701.86
631.30	1728.49
631.49	1699.81
631.68	1660.90
631.87	1726.44
632.06	1652.71
632.25	1796.07
632.44	1726.44
632.63	1710.05
632.82	1644.52
633.01	1662.95
633.20	1724.39
633.39	1742.82
633.58	1583.08
633.77	1755.11
633.96	1708.01
634.15	1787.88
634.34	1757.16
634.53	1726.44
634.72	1724.39
634.91	1613.80
635.10	1773.54
635.29	1769.44
635.48	1710.05
635.67	1683.43
635.86	1654.76
636.05	1796.07
636.24	1744.87
636.43	1738.73
636.62	1781.73
636.81	1626.09
637.00	1767.40
637.19	1665.00
637.38	1710.05
637.57	1693.67
637.76	1638.38
637.95	1712.10
638.14	1699.81
638.33	1716.20
638.52	1744.87
638.71	1677.29
638.89	1634.28
639.08	1834.98
639.27	1705.96
639.46	1658.85
639.65	1781.73
639.84	1736.68
640.03	1748.97
640.22	1683.43
640.41	1771.49
640.60	1675.24
640.79	1753.06
640.98	1734.63
641.17	1769.44
641.36	1691.62
641.55	1701.86
641.74	1603.56
641.92	1665.00
642.11	1687.53
642.30	1681.38
642.49	1671.14
642.68	1624.04
642.87	1738.73
643.06	1718.25
643.25	1685.48
643.44	1689.57
643.63	1732.58
643.82	1744.87
644.00	1660.90
644.19	1667.05
644.38	1632.23
644.57	1763.30
644.76	1658.85
644.95	1757.16
645.14	1742.82
645.33	1705.96
645.52	1748.97
645.71	1630.18
645.89	1695.72
646.08	1763.30
646.27	1679.33
646.46	1851.36
646.65	1599.46
646.84	1751.01
647.03	1662.95
647.22	1861.60
647.40	1765.35
647.59	1708.01
647.78	1732.58
647.97	1679.33
648.16	1638.38
648.35	1675.24
648.54	1744.87
648.73	1640.42
648.91	1761.25
649.10	1765.35
649.29	1718.25
649.48	1720.29
649.67	1804.26
649.86	1689.57
650.05	1705.96
650.23	1746.92
650.42	1802.21
650.61	1789.92
650.80	1734.63
650.99	1828.84
651.18	1748.97
651.36	1785.83
651.55	1632.23
651.74	1736.68
651.93	1636.33
652.12	1728.49
652.31	1720.29
652.49	1777.64
652.68	1701.86
652.87	1753.06
653.06	1738.73
653.25	1761.25
653.44	1742.82
653.62	1757.16
653.81	1632.23
654.00	1718.25
654.19	1720.29
654.38	1861.60
654.56	1783.78
654.75	1677.29
654.94	1865.70
655.13	1701.86
655.32	1628.14
655.51	1740.77
655.69	1671.14
655.88	1757.16
656.07	1597.42
656.26	1753.06
656.45	1697.77
656.63	1636.33
656.82	1681.38
657.01	1757.16
657.20	1644.52
657.38	1746.92
657.57	1632.23
657.76	1636.33
657.95	1728.49
658.14	1607.66
658.32	1740.77
658.51	1673.19
658.70	1708.01
658.89	1708.01
659.08	1705.96
659.26	1806.31
659.45	1677.29
659.64	1794.02
659.83	1660.90
660.01	1857.51
660.20	1740.77
660.39	1708.01
660.58	1669.09
660.76	1679.33
660.95	1646.57
661.14	1773.54
661.33	1640.42
661.51	1703.91
661.70	1683.43
661.89	1710.05
662.08	1742.82
662.26	1603.56
662.45	1632.23
662.64	1896.42
662.83	1794.02
663.01	1621.99
663.20	1677.29
663.39	1843.17
663.58	1701.86
663.76	1689.57
663.95	1773.54
664.14	1613.80
664.32	1705.96
664.51	1697.77
664.70	1677.29
664.89	1736.68
665.07	1626.09
665.26	1826.79
665.45	1626.09
665.64	1736.68
665.82	1724.39
666.01	1796.07
666.20	1726.44
666.38	1751.01
666.57	1763.30
666.76	2191.33
666.95	4532.15
667.13	10391.39
667.32	15646.48
667.51	18288.36
667.69	19431.13
667.88	18245.35
668.07	12480.32
668.25	9797.48
668.44	8179.59
668.63	7387.02
668.81	6868.89
669.00	6320.03
669.19	5760.94
669.38	5117.87
669.56	4609.98
669.75	4048.83
669.94	3475.40
670.12	2944.98
670.31	2643.93
670.50	2250.72
670.68	2090.98
670.87	1927.14
671.06	1812.45
671.24	1787.88
671.43	1865.70
671.62	1654.76
671.80	1685.48
671.99	1777.64
672.18	1673.19
672.36	1810.40
672.55	1740.77
672.74	1699.81
672.92	1634.28
673.11	1773.54
673.29	1699.81
673.48	1781.73
673.67	1701.86
673.85	1791.97
674.04	1681.38
674.23	1716.20
674.41	1763.30
674.60	1736.68
674.79	1607.66
674.97	1734.63
675.16	1705.96
675.34	1814.50
675.53	1701.86
675.72	1771.49
675.90	1779.68
676.09	1724.39
676.28	1751.01
676.46	1619.94
676.65	1753.06
676.83	1617.90
677.02	1662.95
677.21	1718.25
677.39	1701.86
677.58	1652.71
677.77	1693.67
677.95	1730.53
678.14	1751.01
678.32	1644.52
678.51	1718.25
678.70	1841.12
678.88	1751.01
679.07	1693.67
679.25	1658.85
679.44	1710.05
679.63	1685.48
679.81	1689.57
680.00	1734.63
680.18	1834.98
680.37	1791.97
680.55	1837.03
680.74	1638.38
680.93	1615.85
681.11	1769.44
681.30	1679.33
681.48	1730.53
681.67	1662.95
681.85	1685.48
682.04	1660.90
682.23	1787.88
682.41	1738.73
682.60	1714.15
682.78	1722.34
682.97	1703.91
683.15	1691.62
683.34	1746.92
683.53	1847.27
683.71	1683.43
683.90	1832.93
684.08	1777.64
684.27	1705.96
684.45	1808.36
684.64	1798.12
684.82	1759.21
685.01	1724.39
685.19	1767.40
685.38	1802.21
685.57	1677.29
685.75	1697.77
685.94	1708.01
686.12	1646.57
686.31	1677.29
686.49	1765.35
686.68	1589.22
686.86	1693.67
687.05	1652.71
687.23	1779.68
687.42	1597.42
687.60	1603.56
687.79	1771.49
687.97	1804.26
688.16	1746.92
688.34	1738.73
688.53	1617.90
688.71	1748.97
688.90	1740.77
689.08	1761.25
689.27	1607.66
689.45	1794.02
689.64	1738.73
689.82	1751.01
690.01	1794.02
690.19	1701.86
690.38	1656.81
690.56	1789.92
690.75	1669.09
690.93	1695.72
691.12	1675.24
691.30	1712.10
691.49	1662.95
691.67	1705.96
691.86	1755.11
692.04	1720.29
692.23	1665.00
692.41	1722.34
692.60	1869.80
692.78	1746.92
692.97	1634.28
693.15	1722.34
693.34	1880.04
693.52	1736.68
693.71	1662.95
693.89	1771.49
694.08	1591.27
694.26	1679.33
694.44	1697.77
694.63	1740.77
694.81	1662.95
695.00	1619.94
695.18	1767.40
695.37	1785.83
695.55	1759.21
695.74	1730.53
695.92	1642.47
696.10	1798.12
696.29	1624.04
696.47	1683.43
696.66	1624.04
696.84	1679.33
697.03	1656.81
697.21	1855.46
697.40	2189.28
697.58	1734.63
697.76	1746.92
697.95	1632.23
698.13	1652.71
698.32	1712.10
698.50	1736.68
698.68	1728.49
698.87	1714.15
699.05	1759.21
699.24	1695.72
699.42	1699.81
699.61	1708.01
699.79	1671.14
699.97	1730.53
700.16	1652.71
700.34	1591.27
700.53	1705.96
700.71	1816.55
700.89	1767.40
701.08	1683.43
701.26	1755.11
701.45	2142.18
701.63	1691.62
701.81	1644.52
702.00	1716.20
702.18	1695.72
702.37	1703.91
702.55	1726.44
702.73	1714.15
702.92	1705.96
703.10	1777.64
703.28	1767.40
703.47	1640.42
703.65	1847.27
703.84	1753.06
704.02	1644.52
704.20	1751.01
704.39	1624.04
704.57	1701.86
704.75	1734.63
704.94	1810.40
705.12	1679.33
705.30	1755.11
705.49	2250.72
705.67	4507.58
705.86	9406.32
706.04	12904.25
706.22	14728.99
706.41	15435.54
706.59	14155.56
706.77	9828.20
706.96	7528.33
707.14	6791.06
707.32	6072.23
707.51	5681.07
707.69	5072.82
707.87	4184.00
708.06	3653.58
708.24	3035.09
708.42	2463.71
708.61	2295.77
708.79	1900.52
708.97	1814.50
709.16	1820.64
709.34	1748.97
709.52	1722.34
709.71	1722.34
709.89	1742.82
710.07	1722.34
710.26	1669.09
710.44	1693.67
710.62	1759.21
710.80	1714.15
710.99	1755.11
711.17	1789.92
711.35	1677.29
711.54	1730.53
711.72	1728.49
711.90	1701.86
712.09	1705.96
712.27	1652.71
712.45	1693.67
712.63	1677.29
712.82	1673.19
713.00	1714.15
713.18	1732.58
713.37	1677.29
713.55	1755.11
713.73	1744.87
713.91	1755.11
714.10	1679.33
714.28	1662.95
714.46	1748.97
714.65	1722.34
714.83	1746.92
715.01	1714.15
715.19	1724.39
715.38	1710.05
715.56	1759.21
715.74	1697.77
715.92	1601.51
716.11	1783.78
716.29	1648.61
716.47	1654.76
716.65	1712.10
716.84	1636.33
717.02	1787.88
717.20	1634.28
717.38	1650.66
717.57	1693.67
717.75	1773.54
717.93	1724.39
718.11	1734.63
718.30	1630.18
718.48	1693.67
718.66	1755.11
718.84	1789.92
719.03	1738.73
719.21	1644.52
719.39	1783.78
719.57	1804.26
719.75	1798.12
719.94	1619.94
720.12	1708.01
720.30	1820.64
720.48	1763.30
720.67	1757.16
720.85	1687.53
721.03	1730.53
721.21	1679.33
721.39	1781.73
721.58	1738.73
721.76	1634.28
721.94	1759.21
722.12	1716.20
722.30	1773.54
722.49	1646.57
722.67	1681.38
722.85	1669.09
723.03	1538.02
723.21	1673.19
723.40	1689.57
723.58	1681.38
723.76	1710.05
723.94	1699.81
724.12	1738.73
724.30	1773.54
724.49	1746.92
724.67	1572.84
724.85	1744.87
725.03	1679.33
725.21	1726.44
725.40	1720.29
725.58	1796.07
725.76	1685.48
725.94	1697.77
726.12	1617.90
726.30	1748.97
726.49	1699.81
726.67	1667.05
726.85	1726.44
727.03	1779.68
727.21	2117.60
727.39	2918.36
727.57	3833.80
727.76	4390.84
727.94	4499.39
728.12	4351.93
728.30	3692.49
728.48	3035.09
728.66	2824.15
728.84	2617.30
729.03	2369.50
729.21	2224.09
729.39	2021.35
729.57	1794.02
729.75	1859.56
729.93	1837.03
730.11	1695.72
730.30	1714.15
730.48	1724.39
730.66	1818.60
730.84	1837.03
731.02	1722.34
731.20	1660.90
731.38	1675.24
731.56	1652.71
731.74	1662.95
731.93	1763.30
732.11	1773.54
732.29	1648.61
732.47	1753.06
732.65	1732.58
732.83	1746.92
733.01	1689.57
733.19	1658.85
733.37	1740.77
733.56	1775.59
733.74	1675.24
733.92	1712.10
734.10	1724.39
734.28	1724.39
734.46	1636.33
734.64	1646.57
734.82	1687.53
735.00	1660.90
735.18	1662.95
735.36	1677.29
735.54	1714.15
735.73	1681.38
735.91	1697.77
736.09	1771.49
736.27	1697.77
736.45	1785.83
736.63	1626.09
736.81	1636.33
736.99	1773.54
737.17	1812.45
737.35	1746.92
737.53	1673.19
737.71	1660.90
737.89	1775.59
738.07	1658.85
738.25	1634.28
738.43	1578.98
738.61	1767.40
738.80	1601.51
738.98	1568.74
739.16	1624.04
739.34	1652.71
739.52	1771.49
739.70	1689.57
739.88	1718.25
740.06	1757.16
740.24	1607.66
740.42	1759.21
740.60	1640.42
740.78	1728.49
740.96	1667.05
741.14	1703.91
741.32	1763.30
741.50	1634.28
741.68	1789.92
741.86	1775.59
742.04	1710.05
742.22	1638.38
742.40	1679.33
742.58	1779.68
742.76	1669.09
742.94	1712.10
743.12	1658.85
743.30	1714.15
743.48	1767.40
743.66	1744.87
743.84	1640.42
744.02	1779.68
744.20	1673.19
744.38	1693.67
744.56	1648.61
744.74	1820.64
744.92	1724.39
745.10	1826.79
745.28	1759.21
745.46	1753.06
745.64	1689.57
745.82	1796.07
746.00	1675.24
746.18	1705.96
746.36	1642.47
746.54	1683.43
746.72	1656.81
746.90	1599.46
747.08	1751.01
747.26	1714.15
747.44	1677.29
747.62	1701.86
747.80	1753.06
747.98	1857.51
748.15	1673.19
748.33	1765.35
748.51	1683.43
748.69	1726.44
748.87	1738.73
749.05	1726.44
749.23	1665.00
749.41	1767.40
749.59	1699.81
749.77	1767.40
749.95	1728.49
750.13	1652.71
750.31	1773.54
750.49	1703.91
750.67	1701.86
750.85	1849.32
751.03	1773.54
751.20	1830.88
751.38	1693.67
751.56	1703.91
751.74	1656.81
751.92	1697.77
752.10	1554.41
752.28	1753.06
752.46	1701.86
752.64	1632.23
752.82	1656.81
753.00	1722.34
753.18	1585.13
753.35	1619.94
753.53	1634.28
753.71	1675.24
753.89	1718.25
754.07	1675.24
754.25	1730.53
754.43	1638.38
754.61	1685.48
754.79	1730.53
754.97	1683.43
755.14	1748.97
755.32	1677.29
755.50	1742.82
755.68	1599.46
755.86	1632.23
756.04	1693.67
756.22	1605.61
756.40	1724.39
756.57	1759.21
756.75	1652.71
756.93	1771.49
757.11	1748.97
757.29	1599.46
757.47	1712.10
757.65	1595.37
757.82	1554.41
758.00	1624.04
758.18	1662.95
758.36	1617.90
758.54	1822.69
758.72	1626.09
758.90	1865.70
759.07	1722.34
759.25	1648.61
759.43	1716.20
759.61	1691.62
759.79	2267.10
759.97	1759.21
760.15	1632.23
760.32	1638.38
760.50	1667.05
760.68	1734.63
760.86	1640.42
761.04	1728.49
761.22	1804.26
761.39	1705.96
761.57	1714.15
761.75	1687.53
761.93	1691.62
762.11	1673.19
762.28	1683.43
762.46	1648.61
762.64	1746.92
762.82	1630.18
763.00	1724.39
763.18	1769.44
763.35	1619.94
763.53	1777.64
763.71	1605.61
763.89	1681.38
764.07	1710.05
764.24	1701.86
764.42	1746.92
764.60	1636.33
764.78	1650.66
764.96	1742.82
765.13	1781.73
765.31	1613.80
765.49	1720.29
765.67	1617.90
765.84	1624.04
766.02	1650.66
766.20	1667.05
766.38	1677.29
766.56	1685.48
766.73	1746.92
766.91	1720.29
767.09	1787.88
767.27	1669.09
767.44	1583.08
767.62	1697.77
767.80	1726.44
767.98	1742.82
768.15	1644.52
768.33	1726.44
768.51	1716.20
768.69	1730.53
768.87	1697.77
769.04	1644.52
769.22	1820.64
769.40	1785.83
769.58	1824.74
769.75	1740.77
769.93	1771.49
770.11	1710.05
770.28	1755.11
770.46	1681.38
770.64	1683.43
770.82	1687.53
770.99	1693.67
771.17	1693.67
771.35	1673.19
771.53	1671.14
771.70	1732.58
771.88	1665.00
772.06	1570.79
772.23	1652.71
772.41	1763.30
772.59	1644.52
772.77	1617.90
772.94	1693.67
773.12	1740.77
773.30	1615.85
773.47	1693.67
773.65	1656.81
773.83	1773.54
774.01	1697.77
774.18	1542.12
774.36	1755.11
774.54	1652.71
774.71	1701.86
774.89	1648.61
775.07	1656.81
775.24	1640.42
775.42	1736.68
775.60	1763.30
775.78	1675.24
775.95	1628.14
776.13	1632.23
776.31	1636.33
776.48	1722.34
776.66	1777.64
776.84	1722.34
777.01	1638.38
777.19	1673.19
777.37	1685.48
777.54	1691.62
777.72	1875.94
777.90	1751.01
778.07	1693.67
778.25	1820.64
778.43	1746.92
778.60	1607.66
778.78	1767.40
778.96	1810.40
779.13	1708.01
779.31	1789.92
779.49	1714.15
779.66	1714.15
779.84	1693.67
780.01	1701.86
780.19	1636.33
780.37	1800.16
780.54	1779.68
780.72	1667.05
780.90	1648.61
781.07	1710.05
781.25	1667.05
781.43	1722.34
781.60	1671.14
781.78	1779.68
781.95	1667.05
782.13	1660.90
782.31	1675.24
782.48	1591.27
782.66	1730.53
782.83	1873.89
783.01	1693.67
783.19	1697.77
783.36	1671.14
783.54	1617.90
783.72	1755.11
783.89	1703.91
784.07	1736.68
784.24	1732.58
784.42	1828.84
784.60	1705.96
784.77	1787.88
784.95	1585.13
785.12	1669.09
785.30	1712.10
785.47	1642.47
785.65	1640.42
785.83	1603.56
786.00	1632.23
786.18	1734.63
786.35	1714.15
786.53	1646.57
786.71	1732.58
786.88	1744.87
787.06	1728.49
787.23	1691.62
787.41	1656.81
787.58	1689.57
787.76	1640.42
787.94	1718.25
788.11	1677.29
788.29	1734.63
788.46	1673.19
788.64	1626.09
788.81	1611.75
788.99	1652.71
789.16	1708.01
789.34	1691.62
789.52	1662.95
789.69	1681.38
789.87	1581.03
790.04	1669.09
790.22	1691.62
790.39	1830.88
790.57	1554.41
790.74	1599.46
790.92	1728.49
791.09	1583.08
791.27	1693.67
791.44	1802.21
791.62	1720.29
791.79	1722.34
791.97	1726.44
792.15	1910.75
792.32	1718.25
792.50	1769.44
792.67	1767.40
792.85	1742.82
793.02	1761.25
793.20	1632.23
793.37	1679.33
793.55	1669.09
793.72	1679.33
793.90	1697.77
794.07	1671.14
794.25	1652.71
794.42	1746.92
794.60	1597.42
794.77	1783.78
794.95	1744.87
795.12	1708.01
795.30	1742.82
795.47	1558.50
795.65	1845.22
795.82	1722.34
796.00	1671.14
796.17	1689.57
796.34	1624.04
796.52	1691.62
796.69	1714.15
796.87	1689.57
797.04	1697.77
797.22	1689.57
797.39	1742.82
797.57	1763.30
797.74	1755.11
797.92	1628.14
798.09	1675.24
798.27	1705.96
798.44	1732.58
798.62	1673.19
798.79	1705.96
798.96	1728.49
799.14	1718.25
799.31	1812.45
799.49	1730.53
799.66	1697.77
799.84	1796.07
800.01	1613.80
800.19	1658.85
800.36	1564.65
800.53	1650.66
800.71	1701.86
800.88	1773.54
801.06	1697.77
801.23	1683.43
801.41	1683.43
801.58	1652.71
801.75	1638.38
801.93	1769.44
802.10	1753.06
802.28	1705.96
802.45	1734.63
802.63	1767.40
802.80	1716.20
802.97	1689.57
803.15	1662.95
803.32	1691.62
803.50	1624.04
803.67	1703.91
803.84	1615.85
804.02	1744.87
804.19	1673.19
804.37	1521.64
804.54	1587.18
804.71	1755.11
804.89	1787.88
805.06	1675.24
805.24	1671.14
805.41	1701.86
805.58	1636.33
805.76	1822.69
805.93	1685.48
806.10	1722.34
806.28	1834.98
806.45	1621.99
806.63	1736.68
806.80	1691.62
806.97	1673.19
807.15	1720.29
807.32	1736.68
807.49	1728.49
807.67	1724.39
807.84	1718.25
808.01	1675.24
808.19	1877.99
808.36	1882.08
808.54	1656.81
808.71	1652.71
808.88	1671.14
809.06	1769.44
809.23	1791.97
809.40	1636.33
809.58	1728.49
809.75	1697.77
809.92	1603.56
810.10	1783.78
810.27	1689.57
810.44	1714.15
810.62	1644.52
810.79	1726.44
810.96	1685.48
811.14	1697.77
811.31	1691.62
811.48	1617.90
811.66	1697.77
811.83	1820.64
812.00	1742.82
812.18	1789.92
812.35	1824.74
812.52	1705.96
812.69	1703.91
812.87	1785.83
813.04	1675.24
813.21	1636.33
813.39	1703.91
813.56	1689.57
813.73	1789.92
813.91	1646.57
814.08	1744.87
814.25	1691.62
814.42	1681.38
814.60	1662.95
814.77	1740.77
814.94	1765.35
815.12	1730.53
815.29	1751.01
815.46	1640.42
815.63	1695.72
815.81	1718.25
815.98	1632.23
816.15	1757.16
816.33	1665.00
816.50	1648.61
816.67	1701.86
816.84	1667.05
817.02	1646.57
817.19	1708.01
817.36	1662.95
817.53	1804.26
817.71	1665.00
817.88	1736.68
818.05	1689.57
818.22	1665.00
818.40	1759.21
818.57	1669.09
818.74	1693.67
818.91	1624.04
819.09	1681.38
819.26	1779.68
819.43	1656.81
819.60	1669.09
819.78	1705.96
819.95	1787.88
820.12	1632.23
820.29	1648.61
820.47	1740.77
820.64	1714.15
820.81	1628.14
820.98	1560.55
821.15	1683.43
821.33	1724.39
821.50	1650.66
821.67	1716.20
821.84	1669.09
822.02	1783.78
822.19	1740.77
822.36	1712.10
822.53	1671.14
822.70	1689.57
822.88	1615.85
823.05	1742.82
823.22	1730.53
823.39	1638.38
823.56	1679.33
823.74	1718.25
823.91	1673.19
824.08	1710.05
824.25	1695.72
824.42	1787.88
824.60	1617.90
824.77	1740.77
824.94	1681.38
825.11	1683.43
825.28	1644.52
825.45	1744.87
825.63	1665.00
825.80	1675.24
825.97	1673.19
826.14	1722.34
826.31	1665.00
826.48	1724.39
826.66	1609.70
826.83	1650.66
827.00	1761.25
827.17	1665.00
827.34	1619.94
827.51	1642.47
827.69	1718.25
827.86	1607.66
828.03	1638.38
828.20	1683.43
828.37	1595.37
828.54	1783.78
828.71	1619.94
828.89	1724.39
829.06	1685.48
829.23	1746.92
829.40	1587.18
829.57	1652.71
829.74	1816.55
829.91	1691.62
830.09	1691.62
830.26	1673.19
830.43	1677.29
830.60	1748.97
830.77	1687.53
830.94	1732.58
831.11	1761.25
831.28	1613.80
831.46	1800.16
831.63	1636.33
831.80	1777.64
831.97	1708.01
832.14	1597.42
832.31	1693.67
832.48	1679.33
832.65	1720.29
832.82	1716.20
832.99	1677.29
833.17	1558.50
833.34	1736.68
833.51	1746.92
833.68	1550.31
833.85	1789.92
834.02	1660.90
834.19	1654.76
834.36	1665.00
834.53	1689.57
834.70	1714.15
834.87	1761.25
835.04	1720.29
835.22	1632.23
835.39	1712.10
835.56	1576.94
835.73	1699.81
835.90	1744.87
836.07	1658.85
836.24	1669.09
836.41	1617.90
836.58	1683.43
836.75	1755.11
836.92	1791.97
837.09	1701.86
837.26	1718.25
837.43	1697.77
837.60	1722.34
837.77	1640.42
837.94	1705.96
838.12	1728.49
838.29	1759.21
838.46	1626.09
838.63	1597.42
838.80	1812.45
838.97	1734.63
839.14	1689.57
839.31	1689.57
839.48	1712.10
839.65	1648.61
839.82	1761.25
839.99	1679.33
840.16	1632.23
840.33	1662.95
840.50	1724.39
840.67	1687.53
840.84	1535.98
841.01	1660.90
841.18	1638.38
841.35	1710.05
841.52	1660.90
841.69	1771.49
841.86	1744.87
842.03	1734.63
842.20	1652.71
842.37	1634.28
842.54	1601.51
842.71	1701.86
842.88	1583.08
843.05	1765.35
843.22	1615.85
843.39	1679.33
843.56	1669.09
843.73	1722.34
843.90	1681.38
844.07	1677.29
844.24	1771.49
844.41	1740.77
844.58	1626.09
844.75	1718.25
844.92	1689.57
845.09	1708.01
845.26	1679.33
845.43	1742.82
845.60	1607.66
845.77	1705.96
845.94	1783.78
846.10	1652.71
846.27	1619.94
846.44	1619.94
846.61	1644.52
846.78	1730.53
846.95	1724.39
847.12	1658.85
847.29	1599.46
847.46	1638.38
847.63	1791.97
847.80	1632.23
847.97	1779.68
848.14	1755.11
848.31	1654.76
848.48	1613.80
848.65	1722.34
848.82	1679.33
848.98	1761.25
849.15	1753.06
849.32	1767.40
849.49	1738.73
849.66	1740.77
849.83	1662.95
850.00	1589.22
850.17	1730.53
850.34	1714.15
850.51	1636.33
850.68	1673.19
850.85	1794.02
851.01	1714.15
851.18	1763.30
851.35	1691.62
851.52	1724.39
851.69	1804.26
851.86	1642.47
852.03	1656.81
852.20	1746.92
852.37	1654.76
852.53	1640.42
852.70	1755.11
852.87	1744.87
853.04	1671.14
853.21	1695.72
853.38	1808.36
853.55	1728.49
853.72	1800.16
853.89	1656.81
854.05	1650.66
854.22	1660.90
854.39	1619.94
854.56	1714.15
854.73	1728.49
854.90	1679.33
855.07	1665.00
855.23	1599.46
855.40	1640.42
855.57	1648.61
855.74	1601.51
855.91	1808.36
856.08	1650.66
856.25	1636.33
856.41	1669.09
856.58	1662.95
856.75	1669.09
856.92	1646.57
857.09	1748.97
857.26	1615.85
857.42	1636.33
857.59	1683.43
857.76	1695.72
857.93	1703.91
858.10	1730.53
858.27	1689.57
858.43	1705.96
858.60	1644.52
858.77	1640.42
858.94	1636.33
859.11	1806.31
859.27	1626.09
859.44	1626.09
859.61	1841.12
859.78	1763.30
859.95	1716.20
860.12	1708.01
860.28	1796.07
860.45	1806.31
860.62	1667.05
860.79	1734.63
860.95	1693.67
861.12	1681.38
861.29	1626.09
861.46	1705.96
861.63	1691.62
861.79	1660.90
861.96	1730.53
862.13	1722.34
862.30	1722.34
862.47	1667.05
862.63	1687.53
862.80	1748.97
862.97	1767.40
863.14	1755.11
863.30	1685.48
863.47	1660.90
863.64	1753.06
863.81	1740.77
863.97	1667.05
864.14	1710.05
864.31	1714.15
864.48	1730.53
864.65	1660.90
864.81	1687.53
864.98	1722.34
865.15	1701.86
865.32	1720.29
865.48	1759.21
865.65	1705.96
865.82	1677.29
865.98	1681.38
866.15	1671.14
866.32	1652.71
866.49	1679.33
866.65	1732.58
866.82	1628.14
866.99	1648.61
867.16	1732.58
867.32	1609.70
867.49	1771.49
867.66	1728.49
867.83	1626.09
867.99	1640.42
868.16	1748.97
868.33	1615.85
868.49	1757.16
868.66	1650.66
868.83	1705.96
868.99	1689.57
869.16	1714.15
869.33	1806.31
869.50	1767.40
869.66	1669.09
869.83	1673.19
870.00	1654.76
870.16	1718.25
870.33	1675.24
870.50	1808.36
870.66	1644.52
870.83	1810.40
871.00	1669.09
871.17	1730.53
871.33	1728.49
871.50	1796.07
871.67	1712.10
871.83	1603.56
872.00	1789.92
872.17	1685.48
872.33	1810.40
872.50	1816.55
872.67	1701.86
872.83	1748.97
873.00	1787.88
873.17	1724.39
873.33	1748.97
873.50	1691.62
873.67	1599.46
873.83	1650.66
874.00	1638.38
874.16	1802.21
874.33	1703.91
874.50	1667.05
874.66	1728.49
874.83	1667.05
875.00	1763.30
875.16	1708.01
875.33	1779.68
875.50	1599.46
875.66	1703.91
875.83	1691.62
875.99	1728.49
876.16	1710.05
876.33	1636.33
876.49	1685.48
876.66	1691.62
876.83	1673.19
876.99	1583.08
877.16	1710.05
877.32	1626.09
877.49	1609.70
877.66	1783.78
877.82	1789.92
877.99	1755.11
878.15	1789.92
878.32	1636.33
878.49	1667.05
878.65	1660.90
878.82	1824.74
878.98	1658.85
879.15	1742.82
879.32	1740.77
879.48	1722.34
879.65	1695.72
879.81	1677.29
879.98	1650.66
880.15	1652.71
880.31	1837.03
880.48	1652.71
880.64	1753.06
880.81	1785.83
880.97	1769.44
881.14	1781.73
881.31	1748.97
881.47	1896.42
881.64	1720.29
881.80	1638.38
881.97	1689.57
882.13	1812.45
882.30	1667.05
882.47	1656.81
882.63	1640.42
882.80	1685.48
882.96	1675.24
883.13	1767.40
883.29	1605.61
883.46	1685.48
883.62	1810.40
883.79	1703.91
883.95	1769.44
884.12	1730.53
884.29	1767.40
884.45	1693.67
884.62	1710.05
884.78	1677.29
884.95	1773.54
885.11	1587.18
885.28	1703.91
885.44	1648.61
885.61	1677.29
885.77	1681.38
885.94	1736.68
886.10	1671.14
886.27	1716.20
886.43	1746.92
886.60	1789.92
886.76	1746.92
886.93	1640.42
887.09	1669.09
887.26	1658.85
887.42	1794.02
887.59	1701.86
887.75	1724.39
887.92	1748.97
888.08	1740.77
888.25	1718.25
888.41	1679.33
888.58	1724.39
888.74	1613.80
888.91	1650.66
>>>>>End Processed Spectral Data<<<<<
