SpectraSuite Data File
++++++++++++++++++++++++++++++++++++
Date: Mon Jun 06 16:55:37 CEST 2016
User: root
Dark Spectrum Present: No
Reference Spectrum Present: No
Number of Sampled Component Spectra: 1
Spectrometers: USB4C02835
Integration Time (usec): 100000 (USB4C02835)
Spectra Averaged: 1 (USB4C02835)
Boxcar Smoothing: 0 (USB4C02835)
Correct for Electrical Dark: No (USB4C02835)
Strobe/Lamp Enabled: No (USB4C02835)
Correct for Detector Non-linearity: No (USB4C02835)
Correct for Stray Light: No (USB4C02835)
Number of Pixels in Processed Spectrum: 3648
>>>>>Begin Processed Spectral Data<<<<<
177.47	1454.06
177.69	1454.06
177.91	1454.06
178.13	1476.59
178.36	1501.16
178.58	1656.81
178.80	1720.29
179.02	1632.23
179.24	1591.27
179.46	1699.81
179.68	1718.25
179.90	1734.63
180.13	1714.15
180.35	1679.33
180.57	1675.24
180.79	1761.25
181.01	1732.58
181.23	1785.83
181.45	1808.36
181.67	1740.77
181.90	1804.26
182.12	1728.49
182.34	1656.81
182.56	1742.82
182.78	1677.29
183.00	1669.09
183.22	1732.58
183.44	1572.84
183.66	1822.69
183.89	1740.77
184.11	1728.49
184.33	1783.78
184.55	1705.96
184.77	1685.48
184.99	1691.62
185.21	1636.33
185.43	1898.47
185.65	1632.23
185.87	1710.05
186.10	1777.64
186.32	1857.51
186.54	1681.38
186.76	1708.01
186.98	1722.34
187.20	1740.77
187.42	1673.19
187.64	1722.34
187.86	1740.77
188.08	1736.68
188.30	1691.62
188.52	1671.14
188.75	1804.26
188.97	1767.40
189.19	1689.57
189.41	1699.81
189.63	1718.25
189.85	1673.19
190.07	1685.48
190.29	1624.04
190.51	1806.31
190.73	1656.81
190.95	1740.77
191.17	1794.02
191.39	1630.18
191.61	1712.10
191.84	1675.24
192.06	1779.68
192.28	1619.94
192.50	1906.66
192.72	1716.20
192.94	1679.33
193.16	1753.06
193.38	1675.24
193.60	1730.53
193.82	1632.23
194.04	1796.07
194.26	1679.33
194.48	1687.53
194.70	1701.86
194.92	1644.52
195.14	1695.72
195.36	1699.81
195.58	1738.73
195.80	1712.10
196.02	1601.51
196.24	1681.38
196.46	1763.30
196.69	1687.53
196.91	1918.95
197.13	1662.95
197.35	1605.61
197.57	1763.30
197.79	1720.29
198.01	1736.68
198.23	1763.30
198.45	1703.91
198.67	1642.47
198.89	1720.29
199.11	1685.48
199.33	1722.34
199.55	1654.76
199.77	1671.14
199.99	1720.29
200.21	1652.71
200.43	1716.20
200.65	1640.42
200.87	1609.70
201.09	1662.95
201.31	1771.49
201.53	1775.59
201.75	1628.14
201.97	1751.01
202.19	1699.81
202.41	1757.16
202.63	1826.79
202.85	1728.49
203.07	1761.25
203.29	1689.57
203.51	1697.77
203.73	1671.14
203.95	1861.60
204.17	1785.83
204.39	1771.49
204.61	1673.19
204.83	1675.24
205.05	1705.96
205.27	1665.00
205.49	1824.74
205.71	1615.85
205.93	1621.99
206.15	1640.42
206.37	1757.16
206.59	1738.73
206.81	1689.57
207.03	1603.56
207.25	1581.03
207.47	1810.40
207.69	1708.01
207.91	1818.60
208.13	1757.16
208.34	1658.85
208.56	1673.19
208.78	1732.58
209.00	1705.96
209.22	1599.46
209.44	1736.68
209.66	1683.43
209.88	1693.67
210.10	1693.67
210.32	1681.38
210.54	1746.92
210.76	1667.05
210.98	1814.50
211.20	1619.94
211.42	1742.82
211.64	1742.82
211.86	1681.38
212.08	1619.94
212.30	1734.63
212.52	1718.25
212.74	1603.56
212.96	1742.82
213.17	1718.25
213.39	1832.93
213.61	1853.41
213.83	1689.57
214.05	1660.90
214.27	1777.64
214.49	1642.47
214.71	1638.38
214.93	1798.12
215.15	1748.97
215.37	1718.25
215.59	1613.80
215.81	1691.62
216.03	1828.84
216.24	1775.59
216.46	1673.19
216.68	1771.49
216.90	1753.06
217.12	1765.35
217.34	1751.01
217.56	1785.83
217.78	1824.74
218.00	1746.92
218.22	1669.09
218.44	1730.53
218.66	1822.69
218.87	1865.70
219.09	1658.85
219.31	1832.93
219.53	1701.86
219.75	1705.96
219.97	1726.44
220.19	1626.09
220.41	1705.96
220.63	1816.55
220.85	1771.49
221.06	1734.63
221.28	1779.68
221.50	1787.88
221.72	1665.00
221.94	1701.86
222.16	1691.62
222.38	1693.67
222.60	1777.64
222.82	1742.82
223.03	1652.71
223.25	1642.47
223.47	1773.54
223.69	1865.70
223.91	1779.68
224.13	1691.62
224.35	1652.71
224.57	1800.16
224.78	1728.49
225.00	1658.85
225.22	1744.87
225.44	1681.38
225.66	1740.77
225.88	1683.43
226.10	1755.11
226.32	1697.77
226.53	1755.11
226.75	1705.96
226.97	1703.91
227.19	1669.09
227.41	1665.00
227.63	1609.70
227.85	1630.18
228.06	1689.57
228.28	1722.34
228.50	1787.88
228.72	1669.09
228.94	1667.05
229.16	1546.22
229.37	1689.57
229.59	1699.81
229.81	1796.07
230.03	1683.43
230.25	1687.53
230.47	1638.38
230.69	1613.80
230.90	1726.44
231.12	1650.66
231.34	1755.11
231.56	1767.40
231.78	1626.09
232.00	1718.25
232.21	1796.07
232.43	1683.43
232.65	1632.23
232.87	1728.49
233.09	1693.67
233.30	1640.42
233.52	1726.44
233.74	1718.25
233.96	1595.37
234.18	1669.09
234.40	1699.81
234.61	1787.88
234.83	1595.37
235.05	1619.94
235.27	1880.04
235.49	1828.84
235.70	1652.71
235.92	1718.25
236.14	1763.30
236.36	1822.69
236.58	1605.61
236.79	1726.44
237.01	1632.23
237.23	1740.77
237.45	1832.93
237.67	1699.81
237.88	1753.06
238.10	1822.69
238.32	1648.61
238.54	1761.25
238.76	1712.10
238.97	1603.56
239.19	1638.38
239.41	1804.26
239.63	1748.97
239.85	1703.91
240.06	1734.63
240.28	1695.72
240.50	1759.21
240.72	1753.06
240.93	1820.64
241.15	1742.82
241.37	1679.33
241.59	1705.96
241.81	1751.01
242.02	1673.19
242.24	1765.35
242.46	1732.58
242.68	1667.05
242.89	1705.96
243.11	1779.68
243.33	1779.68
243.55	1722.34
243.76	1757.16
243.98	1673.19
244.20	1703.91
244.42	1763.30
244.64	1671.14
244.85	1710.05
245.07	1703.91
245.29	1744.87
245.51	1689.57
245.72	1804.26
245.94	1748.97
246.16	1742.82
246.38	1779.68
246.59	1644.52
246.81	1613.80
247.03	1779.68
247.24	1621.99
247.46	1599.46
247.68	1759.21
247.90	1681.38
248.11	1671.14
248.33	1738.73
248.55	1673.19
248.77	1722.34
248.98	1726.44
249.20	1816.55
249.42	1728.49
249.64	1738.73
249.85	1724.39
250.07	1714.15
250.29	1671.14
250.50	1759.21
250.72	1656.81
250.94	1736.68
251.16	1814.50
251.37	1761.25
251.59	1755.11
251.81	1724.39
252.02	1804.26
252.24	1611.75
252.46	1787.88
252.68	1658.85
252.89	1644.52
253.11	1652.71
253.33	1789.92
253.54	1816.55
253.76	1652.71
253.98	1689.57
254.20	1654.76
254.41	1611.75
254.63	1722.34
254.85	1710.05
255.06	1648.61
255.28	1734.63
255.50	1710.05
255.71	1619.94
255.93	1662.95
256.15	1677.29
256.36	1738.73
256.58	1677.29
256.80	1732.58
257.02	1734.63
257.23	1658.85
257.45	1703.91
257.67	1773.54
257.88	1648.61
258.10	1794.02
258.32	1726.44
258.53	1771.49
258.75	1851.36
258.97	1615.85
259.18	1671.14
259.40	1748.97
259.62	1861.60
259.83	1828.84
260.05	1718.25
260.27	2058.21
260.48	1716.20
260.70	1673.19
260.92	1644.52
261.13	1763.30
261.35	1763.30
261.57	1722.34
261.78	1556.46
262.00	1736.68
262.22	1703.91
262.43	1632.23
262.65	1650.66
262.86	1697.77
263.08	1798.12
263.30	1783.78
263.51	1603.56
263.73	1665.00
263.95	1771.49
264.16	1697.77
264.38	1687.53
264.60	1734.63
264.81	1769.44
265.03	1744.87
265.25	1728.49
265.46	1652.71
265.68	1744.87
265.89	1761.25
266.11	1578.98
266.33	1748.97
266.54	1810.40
266.76	1816.55
266.98	1734.63
267.19	1775.59
267.41	1748.97
267.62	1644.52
267.84	1712.10
268.06	1765.35
268.27	1718.25
268.49	1732.58
268.70	1689.57
268.92	1673.19
269.14	1673.19
269.35	1603.56
269.57	1644.52
269.79	1708.01
270.00	1695.72
270.22	1765.35
270.43	1619.94
270.65	1599.46
270.87	1751.01
271.08	1689.57
271.30	1763.30
271.51	1742.82
271.73	1753.06
271.95	1822.69
272.16	1718.25
272.38	1757.16
272.59	1654.76
272.81	1683.43
273.02	1705.96
273.24	1742.82
273.46	1746.92
273.67	1652.71
273.89	1613.80
274.10	1624.04
274.32	1804.26
274.54	1777.64
274.75	1763.30
274.97	1763.30
275.18	1757.16
275.40	1642.47
275.61	1710.05
275.83	1695.72
276.05	1630.18
276.26	1675.24
276.48	1691.62
276.69	1613.80
276.91	1701.86
277.12	1816.55
277.34	1748.97
277.55	1779.68
277.77	1722.34
277.99	1703.91
278.20	1693.67
278.42	1628.14
278.63	1662.95
278.85	1679.33
279.06	1636.33
279.28	1683.43
279.49	1689.57
279.71	1697.77
279.93	1669.09
280.14	1744.87
280.36	1697.77
280.57	1824.74
280.79	1798.12
281.00	1599.46
281.22	1710.05
281.43	1787.88
281.65	1544.17
281.86	1650.66
282.08	1722.34
282.29	1773.54
282.51	1705.96
282.73	1718.25
282.94	1558.50
283.16	1804.26
283.37	1787.88
283.59	1730.53
283.80	1740.77
284.02	1724.39
284.23	1783.78
284.45	1693.67
284.66	1701.86
284.88	1671.14
285.09	1683.43
285.31	1720.29
285.52	1658.85
285.74	1648.61
285.95	1703.91
286.17	1699.81
286.38	1787.88
286.60	1703.91
286.81	1716.20
287.03	1667.05
287.24	1720.29
287.46	1759.21
287.67	1763.30
287.89	1783.78
288.10	1703.91
288.32	1738.73
288.53	1746.92
288.75	1763.30
288.96	1777.64
289.18	1708.01
289.39	1730.53
289.61	1775.59
289.82	1810.40
290.04	1804.26
290.25	1607.66
290.47	1667.05
290.68	1720.29
290.90	1718.25
291.11	1665.00
291.33	1767.40
291.54	1701.86
291.76	1687.53
291.97	1744.87
292.18	1751.01
292.40	1626.09
292.61	1701.86
292.83	1828.84
293.04	1718.25
293.26	1769.44
293.47	1648.61
293.69	1691.62
293.90	1656.81
294.12	1816.55
294.33	1697.77
294.55	1714.15
294.76	1736.68
294.97	1814.50
295.19	1843.17
295.40	1611.75
295.62	1787.88
295.83	1767.40
296.05	1665.00
296.26	1761.25
296.48	1722.34
296.69	1812.45
296.90	1667.05
297.12	1738.73
297.33	1765.35
297.55	1783.78
297.76	1716.20
297.98	1740.77
298.19	1677.29
298.41	1708.01
298.62	1607.66
298.83	1839.08
299.05	1677.29
299.26	1716.20
299.48	1705.96
299.69	1759.21
299.90	1714.15
300.12	1617.90
300.33	1728.49
300.55	1681.38
300.76	1765.35
300.98	1658.85
301.19	1722.34
301.40	1722.34
301.62	1753.06
301.83	1708.01
302.05	1683.43
302.26	1701.86
302.47	1767.40
302.69	1677.29
302.90	1677.29
303.12	1611.75
303.33	1693.67
303.54	1746.92
303.76	1726.44
303.97	1656.81
304.19	1822.69
304.40	1613.80
304.61	1732.58
304.83	1802.21
305.04	1771.49
305.26	1779.68
305.47	1601.51
305.68	1681.38
305.90	1689.57
306.11	1841.12
306.33	1662.95
306.54	1597.42
306.75	1601.51
306.97	1671.14
307.18	1652.71
307.39	1755.11
307.61	1742.82
307.82	1730.53
308.04	1765.35
308.25	1697.77
308.46	1695.72
308.68	1726.44
308.89	1679.33
309.10	1808.36
309.32	1667.05
309.53	1683.43
309.74	1708.01
309.96	1726.44
310.17	1679.33
310.39	1689.57
310.60	1716.20
310.81	1738.73
311.03	1667.05
311.24	1728.49
311.45	1691.62
311.67	1865.70
311.88	1722.34
312.09	1683.43
312.31	1693.67
312.52	1765.35
312.73	1748.97
312.95	1607.66
313.16	1773.54
313.37	1761.25
313.59	1722.34
313.80	1738.73
314.01	1773.54
314.23	1595.37
314.44	1689.57
314.65	1630.18
314.87	1652.71
315.08	1662.95
315.29	1685.48
315.51	1671.14
315.72	1630.18
315.93	1728.49
316.15	1726.44
316.36	1593.32
316.57	1730.53
316.79	1705.96
317.00	1785.83
317.21	1734.63
317.43	1574.89
317.64	1656.81
317.85	1636.33
318.07	1683.43
318.28	1693.67
318.49	1796.07
318.70	1886.18
318.92	1849.32
319.13	1810.40
319.34	1927.14
319.56	1773.54
319.77	1841.12
319.98	1802.21
320.20	1751.01
320.41	1765.35
320.62	1753.06
320.83	1636.33
321.05	1851.36
321.26	1726.44
321.47	1677.29
321.69	1755.11
321.90	1601.51
322.11	1697.77
322.32	1660.90
322.54	1832.93
322.75	1689.57
322.96	1839.08
323.18	1648.61
323.39	1630.18
323.60	1574.89
323.81	1796.07
324.03	1703.91
324.24	1746.92
324.45	1820.64
324.66	1693.67
324.88	1837.03
325.09	1806.31
325.30	1783.78
325.52	1732.58
325.73	1732.58
325.94	1626.09
326.15	1662.95
326.37	1736.68
326.58	1744.87
326.79	1812.45
327.00	1634.28
327.22	1714.15
327.43	1716.20
327.64	1681.38
327.85	1734.63
328.07	1697.77
328.28	1873.89
328.49	1730.53
328.70	1669.09
328.92	1710.05
329.13	1687.53
329.34	1710.05
329.55	1789.92
329.76	1738.73
329.98	1773.54
330.19	1773.54
330.40	1705.96
330.61	1773.54
330.83	1748.97
331.04	1628.14
331.25	1742.82
331.46	1705.96
331.68	1708.01
331.89	1810.40
332.10	1724.39
332.31	1648.61
332.52	1714.15
332.74	1798.12
332.95	1624.04
333.16	1624.04
333.37	1753.06
333.58	1638.38
333.80	1677.29
334.01	1617.90
334.22	1691.62
334.43	1650.66
334.64	1656.81
334.86	1585.13
335.07	1697.77
335.28	1660.90
335.49	1687.53
335.70	1746.92
335.92	1794.02
336.13	1759.21
336.34	1779.68
336.55	1648.61
336.76	1687.53
336.98	1589.22
337.19	1652.71
337.40	1789.92
337.61	1859.56
337.82	1705.96
338.04	1818.60
338.25	1685.48
338.46	1767.40
338.67	1673.19
338.88	1710.05
339.09	1615.85
339.31	1681.38
339.52	1574.89
339.73	1640.42
339.94	1681.38
340.15	1757.16
340.36	1718.25
340.58	1724.39
340.79	1689.57
341.00	1687.53
341.21	1671.14
341.42	1687.53
341.63	1660.90
341.85	1679.33
342.06	1740.77
342.27	1671.14
342.48	1726.44
342.69	1644.52
342.90	1701.86
343.12	1818.60
343.33	1701.86
343.54	1738.73
343.75	1806.31
343.96	1712.10
344.17	1730.53
344.38	1742.82
344.60	1671.14
344.81	1710.05
345.02	1693.67
345.23	1710.05
345.44	1755.11
345.65	1746.92
345.86	1771.49
346.07	1693.67
346.29	1660.90
346.50	1673.19
346.71	1759.21
346.92	1773.54
347.13	1830.88
347.34	1681.38
347.55	1689.57
347.76	1722.34
347.98	1589.22
348.19	1681.38
348.40	1781.73
348.61	1681.38
348.82	1781.73
349.03	1712.10
349.24	1710.05
349.45	1847.27
349.66	1632.23
349.88	1691.62
350.09	1652.71
350.30	1763.30
350.51	1812.45
350.72	1775.59
350.93	1751.01
351.14	1660.90
351.35	1644.52
351.56	1783.78
351.77	1695.72
351.99	1746.92
352.20	1777.64
352.41	1781.73
352.62	1558.50
352.83	1742.82
353.04	1703.91
353.25	1667.05
353.46	1718.25
353.67	1724.39
353.88	1550.31
354.09	1775.59
354.30	1705.96
354.52	1753.06
354.73	1693.67
354.94	1701.86
355.15	1724.39
355.36	1839.08
355.57	1697.77
355.78	1691.62
355.99	1697.77
356.20	1626.09
356.41	1718.25
356.62	1734.63
356.83	1689.57
357.04	1755.11
357.25	1650.66
357.46	1775.59
357.68	1654.76
357.89	1636.33
358.10	1712.10
358.31	1734.63
358.52	1726.44
358.73	1642.47
358.94	1683.43
359.15	1697.77
359.36	1677.29
359.57	1757.16
359.78	1779.68
359.99	1820.64
360.20	1675.24
360.41	1769.44
360.62	1726.44
360.83	1744.87
361.04	1763.30
361.25	1654.76
361.46	1798.12
361.67	1701.86
361.88	1675.24
362.09	1722.34
362.30	1726.44
362.51	1619.94
362.72	1665.00
362.93	1689.57
363.14	1755.11
363.35	1718.25
363.56	1660.90
363.78	1785.83
363.99	1648.61
364.20	1611.75
364.41	1703.91
364.62	1699.81
364.83	1695.72
365.04	1708.01
365.25	1646.57
365.46	1828.84
365.67	1630.18
365.88	1613.80
366.09	1673.19
366.30	1705.96
366.51	1687.53
366.72	1714.15
366.93	1691.62
367.14	1798.12
367.35	1714.15
367.56	1705.96
367.77	1777.64
367.98	1744.87
368.18	1740.77
368.39	1779.68
368.60	1544.17
368.81	1796.07
369.02	1763.30
369.23	1654.76
369.44	1660.90
369.65	1581.03
369.86	1742.82
370.07	1751.01
370.28	1658.85
370.49	1687.53
370.70	1722.34
370.91	1562.60
371.12	1630.18
371.33	1769.44
371.54	1662.95
371.75	1824.74
371.96	1591.27
372.17	1757.16
372.38	1675.24
372.59	1744.87
372.80	1703.91
373.01	1675.24
373.22	1714.15
373.43	1742.82
373.64	1677.29
373.85	1748.97
374.06	1771.49
374.26	1818.60
374.47	1720.29
374.68	1857.51
374.89	1767.40
375.10	1656.81
375.31	1767.40
375.52	1730.53
375.73	1687.53
375.94	1691.62
376.15	1806.31
376.36	1673.19
376.57	1658.85
376.78	1646.57
376.99	1710.05
377.20	1763.30
377.40	1693.67
377.61	1841.12
377.82	1585.13
378.03	1771.49
378.24	1720.29
378.45	1701.86
378.66	1783.78
378.87	1654.76
379.08	1630.18
379.29	1728.49
379.50	1757.16
379.71	1675.24
379.91	1710.05
380.12	1695.72
380.33	1738.73
380.54	1677.29
380.75	1738.73
380.96	1656.81
381.17	1722.34
381.38	1701.86
381.59	1757.16
381.80	1755.11
382.00	1826.79
382.21	1679.33
382.42	1832.93
382.63	1888.23
382.84	1779.68
383.05	1716.20
383.26	1828.84
383.47	1755.11
383.68	1794.02
383.88	1759.21
384.09	1695.72
384.30	1814.50
384.51	1781.73
384.72	1671.14
384.93	1667.05
385.14	1738.73
385.35	1748.97
385.55	1652.71
385.76	1744.87
385.97	1703.91
386.18	1640.42
386.39	1705.96
386.60	1697.77
386.81	1708.01
387.02	1660.90
387.22	1624.04
387.43	1806.31
387.64	1761.25
387.85	1740.77
388.06	2172.89
388.27	4286.40
388.48	6846.36
388.68	8234.88
388.89	9731.95
389.10	9815.91
389.31	8714.11
389.52	7696.27
389.73	6735.77
389.93	6256.54
390.14	5715.88
390.35	5154.74
390.56	4552.63
390.77	3872.71
390.98	2985.94
391.18	2467.80
391.39	2109.41
391.60	1863.65
391.81	1804.26
392.02	1728.49
392.23	1871.84
392.43	1736.68
392.64	1775.59
392.85	1671.14
393.06	1841.12
393.27	1656.81
393.47	1693.67
393.68	1720.29
393.89	1734.63
394.10	1759.21
394.31	1708.01
394.52	1632.23
394.72	1718.25
394.93	1732.58
395.14	1665.00
395.35	1773.54
395.56	1673.19
395.76	1746.92
395.97	1738.73
396.18	1904.61
396.39	1806.31
396.60	2009.06
396.80	1851.36
397.01	1808.36
397.22	1863.65
397.43	1853.41
397.64	1736.68
397.84	1757.16
398.05	1920.99
398.26	1800.16
398.47	1751.01
398.67	1800.16
398.88	1773.54
399.09	1751.01
399.30	1626.09
399.51	1681.38
399.71	1658.85
399.92	1656.81
400.13	1845.22
400.34	1732.58
400.54	1744.87
400.75	1773.54
400.96	1765.35
401.17	1834.98
401.37	1781.73
401.58	1722.34
401.79	1789.92
402.00	1773.54
402.21	1914.85
402.41	1976.29
402.62	2027.49
402.83	2072.54
403.04	1980.39
403.24	2047.97
403.45	1779.68
403.66	1920.99
403.87	1808.36
404.07	1943.52
404.28	1902.56
404.49	1920.99
404.70	1832.93
404.90	1759.21
405.11	1712.10
405.32	1794.02
405.52	1705.96
405.73	1691.62
405.94	1667.05
406.15	1712.10
406.35	1779.68
406.56	1744.87
406.77	1712.10
406.98	1763.30
407.18	1624.04
407.39	1746.92
407.60	1626.09
407.80	1748.97
408.01	1726.44
408.22	1787.88
408.43	1658.85
408.63	1732.58
408.84	1773.54
409.05	1769.44
409.25	1681.38
409.46	1732.58
409.67	1738.73
409.88	1744.87
410.08	1812.45
410.29	1753.06
410.50	1796.07
410.70	1714.15
410.91	1685.48
411.12	1705.96
411.32	1748.97
411.53	1642.47
411.74	1753.06
411.95	1796.07
412.15	1728.49
412.36	1806.31
412.57	1769.44
412.77	1837.03
412.98	1718.25
413.19	1705.96
413.39	1781.73
413.60	1742.82
413.81	1771.49
414.01	1689.57
414.22	1734.63
414.43	1742.82
414.63	1615.85
414.84	1738.73
415.05	1714.15
415.25	1705.96
415.46	1806.31
415.67	1728.49
415.87	1681.38
416.08	1734.63
416.29	1703.91
416.49	1785.83
416.70	1746.92
416.91	1695.72
417.11	1806.31
417.32	1755.11
417.53	1716.20
417.73	1767.40
417.94	1708.01
418.15	1751.01
418.35	1660.90
418.56	1738.73
418.77	1806.31
418.97	1689.57
419.18	1746.92
419.38	1656.81
419.59	1634.28
419.80	1791.97
420.00	1740.77
420.21	1714.15
420.42	1720.29
420.62	1712.10
420.83	1755.11
421.04	1685.48
421.24	1712.10
421.45	1769.44
421.65	1716.20
421.86	1736.68
422.07	1794.02
422.27	1665.00
422.48	1724.39
422.69	1619.94
422.89	1691.62
423.10	1751.01
423.30	1691.62
423.51	1679.33
423.72	1761.25
423.92	1714.15
424.13	1619.94
424.33	1746.92
424.54	1740.77
424.75	1718.25
424.95	1814.50
425.16	1728.49
425.36	1714.15
425.57	1720.29
425.78	1814.50
425.98	1718.25
426.19	1681.38
426.39	1615.85
426.60	1751.01
426.81	1857.51
427.01	1712.10
427.22	1753.06
427.42	1611.75
427.63	1734.63
427.83	1730.53
428.04	1773.54
428.25	1800.16
428.45	1837.03
428.66	1798.12
428.86	1775.59
429.07	1685.48
429.28	1665.00
429.48	1673.19
429.69	1675.24
429.89	1761.25
430.10	1685.48
430.30	1718.25
430.51	1671.14
430.71	1677.29
430.92	1658.85
431.13	1691.62
431.33	1798.12
431.54	1722.34
431.74	1808.36
431.95	1886.18
432.15	1689.57
432.36	1740.77
432.56	1734.63
432.77	1869.80
432.98	1798.12
433.18	1755.11
433.39	1658.85
433.59	1667.05
433.80	1830.88
434.00	1863.65
434.21	1791.97
434.41	1728.49
434.62	1806.31
434.82	1669.09
435.03	1697.77
435.23	1710.05
435.44	1642.47
435.64	1783.78
435.85	1681.38
436.06	1767.40
436.26	1791.97
436.47	1779.68
436.67	1697.77
436.88	1714.15
437.08	1748.97
437.29	1716.20
437.49	1759.21
437.70	1804.26
437.90	1708.01
438.11	1789.92
438.31	1877.99
438.52	1830.88
438.72	1855.46
438.93	1888.23
439.13	1759.21
439.34	1820.64
439.54	1771.49
439.75	1787.88
439.95	1845.22
440.16	1769.44
440.36	1746.92
440.57	1779.68
440.77	1738.73
440.98	1783.78
441.18	1775.59
441.39	1724.39
441.59	1656.81
441.80	1818.60
442.00	1781.73
442.21	1753.06
442.41	1685.48
442.62	1748.97
442.82	1669.09
443.02	1722.34
443.23	1812.45
443.43	1648.61
443.64	1787.88
443.84	1681.38
444.05	1828.84
444.25	1773.54
444.46	1738.73
444.66	1746.92
444.87	1798.12
445.07	1636.33
445.28	1703.91
445.48	1824.74
445.69	1751.01
445.89	1843.17
446.09	1703.91
446.30	2070.50
446.50	2623.45
446.71	3674.06
446.91	4319.17
447.12	4716.47
447.32	4982.71
447.53	4454.33
447.73	3852.23
447.93	3559.37
448.14	3319.76
448.34	3196.88
448.55	3014.61
448.75	2830.29
448.96	2758.61
449.16	2424.80
449.36	2263.01
449.57	2082.78
449.77	1894.37
449.98	1761.25
450.18	1832.93
450.39	1794.02
450.59	1783.78
450.79	1726.44
451.00	1648.61
451.20	1769.44
451.41	1746.92
451.61	1796.07
451.81	1759.21
452.02	1716.20
452.22	1708.01
452.43	1716.20
452.63	1757.16
452.84	1759.21
453.04	1718.25
453.24	1775.59
453.45	1714.15
453.65	1753.06
453.86	1722.34
454.06	1810.40
454.26	1804.26
454.47	1683.43
454.67	1884.13
454.87	1748.97
455.08	1677.29
455.28	1798.12
455.49	1837.03
455.69	1751.01
455.89	1843.17
456.10	1845.22
456.30	1755.11
456.51	1802.21
456.71	1820.64
456.91	1779.68
457.12	1654.76
457.32	1798.12
457.52	1714.15
457.73	1777.64
457.93	1753.06
458.14	1761.25
458.34	1642.47
458.54	1755.11
458.75	1742.82
458.95	1783.78
459.15	1800.16
459.36	1789.92
459.56	1812.45
459.76	1869.80
459.97	1806.31
460.17	1810.40
460.37	1765.35
460.58	1693.67
460.78	1785.83
460.99	1714.15
461.19	1679.33
461.39	1712.10
461.60	1746.92
461.80	1753.06
462.00	1667.05
462.21	1714.15
462.41	1632.23
462.61	1710.05
462.82	1619.94
463.02	1796.07
463.22	1720.29
463.43	1781.73
463.63	1755.11
463.83	1796.07
464.04	1718.25
464.24	1683.43
464.44	1595.37
464.64	1703.91
464.85	1716.20
465.05	1804.26
465.25	1736.68
465.46	1730.53
465.66	1800.16
465.86	1755.11
466.07	1714.15
466.27	1800.16
466.47	1714.15
466.68	1644.52
466.88	1791.97
467.08	1773.54
467.29	1771.49
467.49	1769.44
467.69	1658.85
467.89	1728.49
468.10	1703.91
468.30	1773.54
468.50	1753.06
468.71	1806.31
468.91	1581.03
469.11	1791.97
469.31	1681.38
469.52	1699.81
469.72	1886.18
469.92	1814.50
470.13	1732.58
470.33	1765.35
470.53	1826.79
470.73	2029.54
470.94	2338.78
471.14	2256.86
471.34	2537.43
471.54	2385.88
471.75	2211.81
471.95	2224.09
472.15	2095.07
472.36	2043.87
472.56	2123.74
472.76	2029.54
472.96	2066.40
473.17	1939.43
473.37	1894.37
473.57	1802.21
473.77	1855.46
473.98	1755.11
474.18	1705.96
474.38	1843.17
474.58	1656.81
474.79	1757.16
474.99	1710.05
475.19	1765.35
475.39	1626.09
475.60	1703.91
475.80	1712.10
476.00	1765.35
476.20	1671.14
476.41	1812.45
476.61	1865.70
476.81	1828.84
477.01	1683.43
477.21	1853.41
477.42	1822.69
477.62	1705.96
477.82	1779.68
478.02	1683.43
478.23	1763.30
478.43	1646.57
478.63	1755.11
478.83	1679.33
479.03	1656.81
479.24	1806.31
479.44	1814.50
479.64	1658.85
479.84	1681.38
480.04	1726.44
480.25	1746.92
480.45	1673.19
480.65	1746.92
480.85	1771.49
481.06	1785.83
481.26	1714.15
481.46	1802.21
481.66	1728.49
481.86	1671.14
482.06	1828.84
482.27	1632.23
482.47	1671.14
482.67	1785.83
482.87	1775.59
483.07	1800.16
483.28	1728.49
483.48	1591.27
483.68	1660.90
483.88	1617.90
484.08	1652.71
484.29	1681.38
484.49	1777.64
484.69	1654.76
484.89	1816.55
485.09	1761.25
485.29	1730.53
485.50	1789.92
485.70	1646.57
485.90	1736.68
486.10	1773.54
486.30	1843.17
486.50	1802.21
486.71	1822.69
486.91	1828.84
487.11	1794.02
487.31	1689.57
487.51	1693.67
487.71	1599.46
487.91	1671.14
488.12	1615.85
488.32	1591.27
488.52	1679.33
488.72	1630.18
488.92	1710.05
489.12	1808.36
489.32	1863.65
489.53	1742.82
489.73	1699.81
489.93	1863.65
490.13	1683.43
490.33	1632.23
490.53	1697.77
490.73	1806.31
490.94	1671.14
491.14	1779.68
491.34	1863.65
491.54	2131.94
491.74	2516.95
491.94	2930.64
492.14	3002.32
492.34	3026.90
492.54	2738.13
492.75	2516.95
492.95	2410.46
493.15	2164.70
493.35	2371.55
493.55	2236.38
493.75	2131.94
493.95	2150.37
494.15	2000.87
494.35	1894.37
494.56	1818.60
494.76	1812.45
494.96	1796.07
495.16	1851.36
495.36	1722.34
495.56	1716.20
495.76	1683.43
495.96	1714.15
496.16	1724.39
496.36	1877.99
496.56	1726.44
496.77	1822.69
496.97	1724.39
497.17	1828.84
497.37	1712.10
497.57	1746.92
497.77	1716.20
497.97	1703.91
498.17	1779.68
498.37	1669.09
498.57	1777.64
498.77	1722.34
498.97	1841.12
499.17	1857.51
499.38	1742.82
499.58	1728.49
499.78	1794.02
499.98	1806.31
500.18	1722.34
500.38	1755.11
500.58	1964.00
500.78	2539.48
500.98	4515.77
501.18	5853.09
501.38	6924.18
501.58	7268.24
501.78	6750.10
501.98	5547.95
502.18	5072.82
502.38	4495.29
502.58	4155.33
502.78	3930.05
502.98	3688.39
503.18	3506.12
503.38	3295.18
503.59	2912.21
503.79	2602.97
503.99	2484.19
504.19	2373.60
504.39	2258.91
504.59	2193.37
504.79	2181.09
504.99	2078.69
505.19	1896.42
505.39	1863.65
505.59	2009.06
505.79	1953.76
505.99	1861.60
506.19	1798.12
506.39	1947.62
506.59	1712.10
506.79	1689.57
506.99	1810.40
507.19	1779.68
507.39	1761.25
507.59	1691.62
507.79	1648.61
507.99	1718.25
508.19	1683.43
508.39	1705.96
508.59	1708.01
508.79	1839.08
508.99	1818.60
509.19	1687.53
509.39	1728.49
509.59	1732.58
509.79	1710.05
509.99	1761.25
510.19	1826.79
510.39	1839.08
510.59	1687.53
510.79	1687.53
510.99	1734.63
511.19	1728.49
511.39	1826.79
511.59	1769.44
511.79	1808.36
511.99	1773.54
512.19	1794.02
512.38	1775.59
512.58	1679.33
512.78	1716.20
512.98	1804.26
513.18	1869.80
513.38	1705.96
513.58	1794.02
513.78	1701.86
513.98	1759.21
514.18	1693.67
514.38	1722.34
514.58	1834.98
514.78	1695.72
514.98	1626.09
515.18	1761.25
515.38	1660.90
515.58	1861.60
515.78	1722.34
515.98	1667.05
516.18	1732.58
516.38	1742.82
516.57	1712.10
516.77	1701.86
516.97	1791.97
517.17	1732.58
517.37	1632.23
517.57	1777.64
517.77	1730.53
517.97	1665.00
518.17	1738.73
518.37	1687.53
518.57	1695.72
518.77	1738.73
518.97	1703.91
519.16	1761.25
519.36	1787.88
519.56	1642.47
519.76	1710.05
519.96	1697.77
520.16	1820.64
520.36	1685.48
520.56	1902.56
520.76	1615.85
520.96	1730.53
521.16	1773.54
521.35	1718.25
521.55	1882.08
521.75	1796.07
521.95	1720.29
522.15	1695.72
522.35	1669.09
522.55	1673.19
522.75	1785.83
522.95	1742.82
523.14	1679.33
523.34	1677.29
523.54	1732.58
523.74	1781.73
523.94	1691.62
524.14	1775.59
524.34	1843.17
524.54	1789.92
524.73	1757.16
524.93	1734.63
525.13	1691.62
525.33	1619.94
525.53	1853.41
525.73	1785.83
525.93	1777.64
526.13	1728.49
526.32	1734.63
526.52	1787.88
526.72	1771.49
526.92	1714.15
527.12	1755.11
527.32	1665.00
527.52	1751.01
527.71	1791.97
527.91	1658.85
528.11	1708.01
528.31	1726.44
528.51	1671.14
528.71	1771.49
528.90	1720.29
529.10	1820.64
529.30	1777.64
529.50	1642.47
529.70	1728.49
529.90	1734.63
530.09	1769.44
530.29	1724.39
530.49	1628.14
530.69	1871.84
530.89	1726.44
531.09	1818.60
531.28	1687.53
531.48	1769.44
531.68	1837.03
531.88	1701.86
532.08	1802.21
532.28	1753.06
532.47	1773.54
532.67	1812.45
532.87	1751.01
533.07	1667.05
533.27	1728.49
533.46	1853.41
533.66	1791.97
533.86	1718.25
534.06	1708.01
534.26	1812.45
534.45	1712.10
534.65	1798.12
534.85	1798.12
535.05	1632.23
535.25	1824.74
535.44	1611.75
535.64	1740.77
535.84	1736.68
536.04	1755.11
536.24	1703.91
536.43	1691.62
536.63	1800.16
536.83	1648.61
537.03	1746.92
537.22	1675.24
537.42	1648.61
537.62	1798.12
537.82	1736.68
538.02	1816.55
538.21	1781.73
538.41	1900.52
538.61	1789.92
538.81	1677.29
539.00	1810.40
539.20	1673.19
539.40	1691.62
539.60	1748.97
539.79	1746.92
539.99	1751.01
540.19	1695.72
540.39	1767.40
540.58	1699.81
540.78	1630.18
540.98	1734.63
541.18	1791.97
541.37	1837.03
541.57	1738.73
541.77	1812.45
541.97	1669.09
542.16	1681.38
542.36	1748.97
542.56	1703.91
542.76	1853.41
542.95	1720.29
543.15	1757.16
543.35	1748.97
543.54	1765.35
543.74	1720.29
543.94	1867.75
544.14	1777.64
544.33	1802.21
544.53	1705.96
544.73	1738.73
544.93	1714.15
545.12	1718.25
545.32	1798.12
545.52	1767.40
545.71	1648.61
545.91	1675.24
546.11	1677.29
546.30	1656.81
546.50	1740.77
546.70	1738.73
546.90	1763.30
547.09	1589.22
547.29	1685.48
547.49	1775.59
547.68	1783.78
547.88	1589.22
548.08	1765.35
548.27	2109.41
548.47	1751.01
548.67	1759.21
548.87	1796.07
549.06	1656.81
549.26	1751.01
549.46	1800.16
549.65	1757.16
549.85	1734.63
550.05	1755.11
550.24	1759.21
550.44	1728.49
550.64	1703.91
550.83	1796.07
551.03	1847.27
551.23	1839.08
551.42	1755.11
551.62	1720.29
551.82	1746.92
552.01	1689.57
552.21	1785.83
552.41	1689.57
552.60	1763.30
552.80	1761.25
553.00	1730.53
553.19	1681.38
553.39	1794.02
553.59	1716.20
553.78	1751.01
553.98	1714.15
554.17	1691.62
554.37	1787.88
554.57	1820.64
554.76	1677.29
554.96	1740.77
555.16	1748.97
555.35	1808.36
555.55	1806.31
555.75	1791.97
555.94	1765.35
556.14	1587.18
556.33	1761.25
556.53	1751.01
556.73	1648.61
556.92	1740.77
557.12	1767.40
557.32	1855.46
557.51	1787.88
557.71	1789.92
557.90	1861.60
558.10	1796.07
558.30	1781.73
558.49	1683.43
558.69	1759.21
558.88	1720.29
559.08	1789.92
559.28	1728.49
559.47	1785.83
559.67	1665.00
559.86	1914.85
560.06	1759.21
560.26	1753.06
560.45	1738.73
560.65	1712.10
560.84	1796.07
561.04	1648.61
561.24	1812.45
561.43	1714.15
561.63	1808.36
561.82	1726.44
562.02	1710.05
562.22	1689.57
562.41	1714.15
562.61	1796.07
562.80	1710.05
563.00	1951.71
563.19	1779.68
563.39	1738.73
563.59	1703.91
563.78	1679.33
563.98	1636.33
564.17	1718.25
564.37	1675.24
564.56	1742.82
564.76	1738.73
564.96	1802.21
565.15	1732.58
565.35	1810.40
565.54	1640.42
565.74	1779.68
565.93	1794.02
566.13	1794.02
566.32	1755.11
566.52	1808.36
566.71	1781.73
566.91	1859.56
567.11	1734.63
567.30	1800.16
567.50	1777.64
567.69	1779.68
567.89	1783.78
568.08	1642.47
568.28	1779.68
568.47	1722.34
568.67	1755.11
568.86	1736.68
569.06	1759.21
569.25	1665.00
569.45	1746.92
569.64	1728.49
569.84	1740.77
570.04	1732.58
570.23	1724.39
570.43	1667.05
570.62	1781.73
570.82	1853.41
571.01	1683.43
571.21	1748.97
571.40	1802.21
571.60	1820.64
571.79	1832.93
571.99	1757.16
572.18	1703.91
572.38	1779.68
572.57	1751.01
572.77	1781.73
572.96	1904.61
573.16	1796.07
573.35	1685.48
573.55	1834.98
573.74	1746.92
573.94	1763.30
574.13	1708.01
574.33	1757.16
574.52	1869.80
574.71	1826.79
574.91	1839.08
575.10	1642.47
575.30	1789.92
575.49	1660.90
575.69	1738.73
575.88	1847.27
576.08	1810.40
576.27	1730.53
576.47	1712.10
576.66	1824.74
576.86	1791.97
577.05	1759.21
577.25	1855.46
577.44	1880.04
577.64	1726.44
577.83	1775.59
578.02	1765.35
578.22	1837.03
578.41	1890.28
578.61	1716.20
578.80	1671.14
579.00	1748.97
579.19	1673.19
579.39	1808.36
579.58	1796.07
579.77	1742.82
579.97	1902.56
580.16	1837.03
580.36	1832.93
580.55	1888.23
580.75	1767.40
580.94	1748.97
581.13	1845.22
581.33	1859.56
581.52	1755.11
581.72	1947.62
581.91	1837.03
582.11	1701.86
582.30	1693.67
582.49	1744.87
582.69	1867.75
582.88	1791.97
583.08	1822.69
583.27	1822.69
583.47	1789.92
583.66	1761.25
583.85	1662.95
584.05	1716.20
584.24	1763.30
584.44	1712.10
584.63	1773.54
584.82	1843.17
585.02	1869.80
585.21	1853.41
585.41	1783.78
585.60	1845.22
585.79	1882.08
585.99	1886.18
586.18	1904.61
586.37	2236.38
586.57	3373.00
586.76	10139.49
586.96	24309.39
587.15	34516.47
587.34	40566.16
587.54	42136.96
587.73	36910.54
587.93	26637.93
588.12	21784.24
588.31	18552.55
588.51	16563.97
588.70	14925.60
588.89	14169.90
589.09	12361.54
589.28	11007.83
589.47	9365.36
589.67	8046.47
589.86	6477.73
590.06	4966.32
590.25	3950.53
590.44	3117.01
590.64	2619.35
590.83	2232.29
591.02	2189.28
591.22	1918.95
591.41	1857.51
591.60	1767.40
591.80	1945.57
591.99	1761.25
592.18	1800.16
592.38	1822.69
592.57	1779.68
592.76	1826.79
592.96	1748.97
593.15	1759.21
593.34	1785.83
593.54	1720.29
593.73	1824.74
593.92	1769.44
594.12	1742.82
594.31	1761.25
594.50	1806.31
594.70	1771.49
594.89	1906.66
595.08	1744.87
595.28	1783.78
595.47	1972.19
595.66	1804.26
595.86	1712.10
596.05	1683.43
596.24	1722.34
596.43	1822.69
596.63	1861.60
596.82	1787.88
597.01	1787.88
597.21	1935.33
597.40	1781.73
597.59	1644.52
597.79	1681.38
597.98	1779.68
598.17	1804.26
598.36	1740.77
598.56	1869.80
598.75	1732.58
598.94	1791.97
599.14	1720.29
599.33	1779.68
599.52	1697.77
599.71	1783.78
599.91	1828.84
600.10	1759.21
600.29	1689.57
600.48	1812.45
600.68	1765.35
600.87	1718.25
601.06	1732.58
601.26	1763.30
601.45	1822.69
601.64	1681.38
601.83	1779.68
602.03	1683.43
602.22	1683.43
602.41	1771.49
602.60	1855.46
602.80	1781.73
602.99	1744.87
603.18	1699.81
603.37	1699.81
603.57	1779.68
603.76	1794.02
603.95	1871.84
604.14	1720.29
604.34	1740.77
604.53	1654.76
604.72	1767.40
604.91	1681.38
605.10	1712.10
605.30	1738.73
605.49	1898.47
605.68	1757.16
605.87	1722.34
606.07	1718.25
606.26	1726.44
606.45	1824.74
606.64	1716.20
606.84	1791.97
607.03	1765.35
607.22	1761.25
607.41	1669.09
607.60	1726.44
607.80	1806.31
607.99	1675.24
608.18	1732.58
608.37	1697.77
608.56	1677.29
608.76	1697.77
608.95	1861.60
609.14	1755.11
609.33	1785.83
609.52	1806.31
609.72	1677.29
609.91	1779.68
610.10	1736.68
610.29	1849.32
610.48	1839.08
610.68	1751.01
610.87	1685.48
611.06	1798.12
611.25	1740.77
611.44	1828.84
611.63	1787.88
611.83	1863.65
612.02	1712.10
612.21	1863.65
612.40	1613.80
612.59	1722.34
612.79	1648.61
612.98	1777.64
613.17	1918.95
613.36	1767.40
613.55	1828.84
613.74	1697.77
613.93	1751.01
614.13	1765.35
614.32	1853.41
614.51	1765.35
614.70	1714.15
614.89	1724.39
615.08	1767.40
615.28	2060.26
615.47	1652.71
615.66	1748.97
615.85	1730.53
616.04	1746.92
616.23	1691.62
616.42	1705.96
616.62	1650.66
616.81	1734.63
617.00	1693.67
617.19	1748.97
617.38	1675.24
617.57	1834.98
617.76	1708.01
617.95	1841.12
618.15	1708.01
618.34	1775.59
618.53	1685.48
618.72	1810.40
618.91	1918.95
619.10	1886.18
619.29	1767.40
619.48	1742.82
619.68	1671.14
619.87	1689.57
620.06	1648.61
620.25	1828.84
620.44	1755.11
620.63	1779.68
620.82	1738.73
621.01	1787.88
621.20	1748.97
621.39	1718.25
621.59	1697.77
621.78	1695.72
621.97	1740.77
622.16	1757.16
622.35	1718.25
622.54	1820.64
622.73	1796.07
622.92	1675.24
623.11	1728.49
623.30	1695.72
623.49	1781.73
623.68	1667.05
623.88	1804.26
624.07	1701.86
624.26	1705.96
624.45	1695.72
624.64	1703.91
624.83	1697.77
625.02	1710.05
625.21	1777.64
625.40	1769.44
625.59	1757.16
625.78	1671.14
625.97	1791.97
626.16	1673.19
626.35	1761.25
626.54	1714.15
626.74	1796.07
626.93	1660.90
627.12	1665.00
627.31	1757.16
627.50	1775.59
627.69	1705.96
627.88	1652.71
628.07	1802.21
628.26	1677.29
628.45	1732.58
628.64	1642.47
628.83	1744.87
629.02	1654.76
629.21	1794.02
629.40	1861.60
629.59	1632.23
629.78	1683.43
629.97	1720.29
630.16	1679.33
630.35	1681.38
630.54	1687.53
630.73	1748.97
630.92	1775.59
631.11	1675.24
631.30	1691.62
631.49	1820.64
631.68	1783.78
631.87	1822.69
632.06	1648.61
632.25	1886.18
632.44	1787.88
632.63	1783.78
632.82	1734.63
633.01	1654.76
633.20	1636.33
633.39	1740.77
633.58	1607.66
633.77	1652.71
633.96	1740.77
634.15	1753.06
634.34	1724.39
634.53	1802.21
634.72	1703.91
634.91	1718.25
635.10	1814.50
635.29	1818.60
635.48	1728.49
635.67	1726.44
635.86	1648.61
636.05	1773.54
636.24	1675.24
636.43	1687.53
636.62	1783.78
636.81	1589.22
637.00	1822.69
637.19	1800.16
637.38	1740.77
637.57	1705.96
637.76	1755.11
637.95	1755.11
638.14	1730.53
638.33	1736.68
638.52	1728.49
638.71	1656.81
638.89	1675.24
639.08	1880.04
639.27	1718.25
639.46	1628.14
639.65	1759.21
639.84	1738.73
640.03	1794.02
640.22	1689.57
640.41	1757.16
640.60	1689.57
640.79	1712.10
640.98	1689.57
641.17	1730.53
641.36	1642.47
641.55	1726.44
641.74	1652.71
641.92	1675.24
642.11	1660.90
642.30	1710.05
642.49	1687.53
642.68	1699.81
642.87	1697.77
643.06	1710.05
643.25	1712.10
643.44	1714.15
643.63	1703.91
643.82	1779.68
644.00	1619.94
644.19	1681.38
644.38	1675.24
644.57	1685.48
644.76	1681.38
644.95	1730.53
645.14	1771.49
645.33	1730.53
645.52	1777.64
645.71	1703.91
645.89	1726.44
646.08	1724.39
646.27	1626.09
646.46	1816.55
646.65	1648.61
646.84	1710.05
647.03	1652.71
647.22	1781.73
647.40	1697.77
647.59	1656.81
647.78	1583.08
647.97	1617.90
648.16	1613.80
648.35	1800.16
648.54	1738.73
648.73	1665.00
648.91	1843.17
649.10	1708.01
649.29	1736.68
649.48	1734.63
649.67	1705.96
649.86	1710.05
650.05	1771.49
650.23	1847.27
650.42	1611.75
650.61	1734.63
650.80	1734.63
650.99	1839.08
651.18	1759.21
651.36	1746.92
651.55	1671.14
651.74	1781.73
651.93	1763.30
652.12	1775.59
652.31	1748.97
652.49	1734.63
652.68	1728.49
652.87	1826.79
653.06	1705.96
653.25	1771.49
653.44	1720.29
653.62	1775.59
653.81	1728.49
654.00	1740.77
654.19	1769.44
654.38	1828.84
654.56	1755.11
654.75	1781.73
654.94	1859.56
655.13	1681.38
655.32	1697.77
655.51	1806.31
655.69	1673.19
655.88	1845.22
656.07	1656.81
656.26	1693.67
656.45	1712.10
656.63	1802.21
656.82	1763.30
657.01	1757.16
657.20	1640.42
657.38	1845.22
657.57	1644.52
657.76	1681.38
657.95	1861.60
658.14	1701.86
658.32	1720.29
658.51	1718.25
658.70	1757.16
658.89	1724.39
659.08	1697.77
659.26	1804.26
659.45	1611.75
659.64	1765.35
659.83	1671.14
660.01	1912.80
660.20	1669.09
660.39	1837.03
660.58	1570.79
660.76	1781.73
660.95	1679.33
661.14	1769.44
661.33	1660.90
661.51	1759.21
661.70	1732.58
661.89	1769.44
662.08	1697.77
662.26	1628.14
662.45	1583.08
662.64	1748.97
662.83	1751.01
663.01	1626.09
663.20	1673.19
663.39	1845.22
663.58	1703.91
663.76	1693.67
663.95	1785.83
664.14	1683.43
664.32	1701.86
664.51	1679.33
664.70	1591.27
664.89	1701.86
665.07	1636.33
665.26	1789.92
665.45	1695.72
665.64	1751.01
665.82	1646.57
666.01	1843.17
666.20	1716.20
666.38	1849.32
666.57	1787.88
666.76	2248.67
666.95	4571.07
667.13	10387.30
667.32	15439.64
667.51	17809.14
667.69	19197.66
667.88	18108.14
668.07	12560.19
668.25	9621.36
668.44	8179.59
668.63	7729.03
668.81	6942.61
669.00	6281.12
669.19	5793.70
669.38	5183.41
669.56	4550.59
669.75	4091.84
669.94	3518.41
670.12	2979.79
670.31	2609.11
670.50	2234.33
670.68	2115.55
670.87	1978.34
671.06	1888.23
671.24	1757.16
671.43	1841.12
671.62	1734.63
671.80	1667.05
671.99	1771.49
672.18	1796.07
672.36	1722.34
672.55	1667.05
672.74	1730.53
672.92	1695.72
673.11	1716.20
673.29	1675.24
673.48	1894.37
673.67	1669.09
673.85	1802.21
674.04	1710.05
674.23	1738.73
674.41	1755.11
674.60	1634.28
674.79	1644.52
674.97	1730.53
675.16	1785.83
675.34	1826.79
675.53	1675.24
675.72	1736.68
675.90	1816.55
676.09	1695.72
676.28	1675.24
676.46	1585.13
676.65	1724.39
676.83	1681.38
677.02	1703.91
677.21	1667.05
677.39	1697.77
677.58	1654.76
677.77	1660.90
677.95	1667.05
678.14	1703.91
678.32	1744.87
678.51	1804.26
678.70	1759.21
678.88	1730.53
679.07	1656.81
679.25	1716.20
679.44	1699.81
679.63	1628.14
679.81	1740.77
680.00	1755.11
680.18	1730.53
680.37	1861.60
680.55	1734.63
680.74	1648.61
680.93	1613.80
681.11	1746.92
681.30	1738.73
681.48	1665.00
681.67	1636.33
681.85	1718.25
682.04	1716.20
682.23	1796.07
682.41	1695.72
682.60	1671.14
682.78	1714.15
682.97	1650.66
683.15	1695.72
683.34	1757.16
683.53	1820.64
683.71	1681.38
683.90	1822.69
684.08	1744.87
684.27	1708.01
684.45	1771.49
684.64	1738.73
684.82	1712.10
685.01	1804.26
685.19	1763.30
685.38	1812.45
685.57	1728.49
685.75	1636.33
685.94	1689.57
686.12	1708.01
686.31	1724.39
686.49	1853.41
686.68	1605.61
686.86	1775.59
687.05	1753.06
687.23	1759.21
687.42	1669.09
687.60	1644.52
687.79	1794.02
687.97	1722.34
688.16	1708.01
688.34	1798.12
688.53	1652.71
688.71	1632.23
688.90	1818.60
689.08	1689.57
689.27	1615.85
689.45	1779.68
689.64	1740.77
689.82	1685.48
690.01	1806.31
690.19	1736.68
690.38	1675.24
690.56	1869.80
690.75	1677.29
690.93	1683.43
691.12	1701.86
691.30	1728.49
691.49	1683.43
691.67	1646.57
691.86	1824.74
692.04	1699.81
692.23	1656.81
692.41	1652.71
692.60	1853.41
692.78	1779.68
692.97	1738.73
693.15	1681.38
693.34	1804.26
693.52	1804.26
693.71	1667.05
693.89	1695.72
694.08	1689.57
694.26	1783.78
694.44	1705.96
694.63	1730.53
694.81	1687.53
695.00	1722.34
695.18	1806.31
695.37	1832.93
695.55	1705.96
695.74	1738.73
695.92	1705.96
696.10	1771.49
696.29	1654.76
696.47	1726.44
696.66	1656.81
696.84	1732.58
697.03	1732.58
697.21	1873.89
697.40	2306.01
697.58	1818.60
697.76	1667.05
697.95	1759.21
698.13	1673.19
698.32	1689.57
698.50	1757.16
698.68	1791.97
698.87	1759.21
699.05	1853.41
699.24	1673.19
699.42	1693.67
699.61	1785.83
699.79	1767.40
699.97	1712.10
700.16	1665.00
700.34	1644.52
700.53	1718.25
700.71	1796.07
700.89	1812.45
701.08	1701.86
701.26	1695.72
701.45	2064.35
701.63	1685.48
701.81	1693.67
702.00	1671.14
702.18	1724.39
702.37	1699.81
702.55	1679.33
702.73	1708.01
702.92	1572.84
703.10	1771.49
703.28	1712.10
703.47	1720.29
703.65	1808.36
703.84	1710.05
704.02	1689.57
704.20	1800.16
704.39	1693.67
704.57	1783.78
704.75	1804.26
704.94	1785.83
705.12	1710.05
705.30	1820.64
705.49	2293.72
705.67	4347.84
705.86	9467.76
706.04	12674.88
706.22	14513.95
706.41	15263.51
706.59	13844.27
706.77	9574.25
706.96	7417.74
707.14	6735.77
707.32	6092.71
707.51	5509.04
707.69	4984.76
707.87	4290.49
708.06	3524.55
708.24	2897.88
708.42	2406.36
708.61	2258.91
708.79	1855.46
708.97	1796.07
709.16	1751.01
709.34	1769.44
709.52	1751.01
709.71	1804.26
709.89	1802.21
710.07	1681.38
710.26	1658.85
710.44	1748.97
710.62	1763.30
710.80	1705.96
710.99	1849.32
711.17	1744.87
711.35	1701.86
711.54	1665.00
711.72	1832.93
711.90	1722.34
712.09	1710.05
712.27	1654.76
712.45	1748.97
712.63	1755.11
712.82	1716.20
713.00	1728.49
713.18	1759.21
713.37	1728.49
713.55	1779.68
713.73	1763.30
713.91	1791.97
714.10	1701.86
714.28	1710.05
714.46	1705.96
714.65	1730.53
714.83	1761.25
715.01	1755.11
715.19	1746.92
715.38	1636.33
715.56	1724.39
715.74	1683.43
715.92	1619.94
716.11	1767.40
716.29	1599.46
716.47	1673.19
716.65	1691.62
716.84	1626.09
717.02	1703.91
717.20	1691.62
717.38	1695.72
717.57	1796.07
717.75	1748.97
717.93	1681.38
718.11	1804.26
718.30	1607.66
718.48	1697.77
718.66	1738.73
718.84	1781.73
719.03	1730.53
719.21	1732.58
719.39	1810.40
719.57	1695.72
719.75	1787.88
719.94	1695.72
720.12	1724.39
720.30	1724.39
720.48	1703.91
720.67	1648.61
720.85	1648.61
721.03	1689.57
721.21	1638.38
721.39	1802.21
721.58	1753.06
721.76	1730.53
721.94	1724.39
722.12	1761.25
722.30	1884.13
722.49	1644.52
722.67	1708.01
722.85	1724.39
723.03	1566.70
723.21	1638.38
723.40	1734.63
723.58	1751.01
723.76	1777.64
723.94	1779.68
724.12	1650.66
724.30	1855.46
724.49	1720.29
724.67	1693.67
724.85	1789.92
725.03	1697.77
725.21	1683.43
725.40	1775.59
725.58	1587.18
725.76	1751.01
725.94	1818.60
726.12	1744.87
726.30	1746.92
726.49	1744.87
726.67	1671.14
726.85	1738.73
727.03	1791.97
727.21	2199.52
727.39	2887.64
727.57	3813.32
727.76	4239.30
727.94	4585.40
728.12	4390.84
728.30	3751.88
728.48	2852.82
728.66	2713.56
728.84	2562.01
729.03	2396.12
729.21	2131.94
729.39	1959.91
729.57	1869.80
729.75	1781.73
729.93	1931.23
730.11	1720.29
730.30	1710.05
730.48	1683.43
730.66	1843.17
730.84	1828.84
731.02	1765.35
731.20	1621.99
731.38	1781.73
731.56	1644.52
731.74	1634.28
731.93	1746.92
732.11	1755.11
732.29	1685.48
732.47	1773.54
732.65	1677.29
732.83	1802.21
733.01	1800.16
733.19	1648.61
733.37	1767.40
733.56	1728.49
733.74	1660.90
733.92	1765.35
734.10	1697.77
734.28	1720.29
734.46	1687.53
734.64	1652.71
734.82	1708.01
735.00	1593.32
735.18	1712.10
735.36	1703.91
735.54	1656.81
735.73	1742.82
735.91	1710.05
736.09	1746.92
736.27	1736.68
736.45	1710.05
736.63	1671.14
736.81	1669.09
736.99	1748.97
737.17	1755.11
737.35	1613.80
737.53	1685.48
737.71	1742.82
737.89	1794.02
738.07	1619.94
738.25	1671.14
738.43	1632.23
738.61	1693.67
738.80	1562.60
738.98	1708.01
739.16	1665.00
739.34	1708.01
739.52	1785.83
739.70	1718.25
739.88	1744.87
740.06	1761.25
740.24	1611.75
740.42	1798.12
740.60	1597.42
740.78	1669.09
740.96	1642.47
741.14	1658.85
741.32	1693.67
741.50	1632.23
741.68	1892.32
741.86	1810.40
742.04	1634.28
742.22	1679.33
742.40	1734.63
742.58	1679.33
742.76	1646.57
742.94	1712.10
743.12	1648.61
743.30	1656.81
743.48	1642.47
743.66	1638.38
743.84	1699.81
744.02	1677.29
744.20	1599.46
744.38	1656.81
744.56	1683.43
744.74	1837.03
744.92	1734.63
745.10	1789.92
745.28	1744.87
745.46	1832.93
745.64	1675.24
745.82	1779.68
746.00	1738.73
746.18	1767.40
746.36	1652.71
746.54	1714.15
746.72	1771.49
746.90	1662.95
747.08	1771.49
747.26	1628.14
747.44	1732.58
747.62	1685.48
747.80	1765.35
747.98	1794.02
748.15	1714.15
748.33	1837.03
748.51	1787.88
748.69	1740.77
748.87	1609.70
749.05	1746.92
749.23	1705.96
749.41	1773.54
749.59	1630.18
749.77	1740.77
749.95	1693.67
750.13	1708.01
750.31	1771.49
750.49	1740.77
750.67	1751.01
750.85	1804.26
751.03	1673.19
751.20	1853.41
751.38	1734.63
751.56	1673.19
751.74	1624.04
751.92	1693.67
752.10	1648.61
752.28	1824.74
752.46	1669.09
752.64	1669.09
752.82	1650.66
753.00	1742.82
753.18	1665.00
753.35	1626.09
753.53	1667.05
753.71	1740.77
753.89	1716.20
754.07	1701.86
754.25	1724.39
754.43	1701.86
754.61	1683.43
754.79	1777.64
754.97	1669.09
755.14	1763.30
755.32	1589.22
755.50	1771.49
755.68	1714.15
755.86	1654.76
756.04	1634.28
756.22	1591.27
756.40	1748.97
756.57	1877.99
756.75	1671.14
756.93	1732.58
757.11	1724.39
757.29	1697.77
757.47	1667.05
757.65	1581.03
757.82	1546.22
758.00	1613.80
758.18	1665.00
758.36	1624.04
758.54	1804.26
758.72	1599.46
758.90	1751.01
759.07	1728.49
759.25	1642.47
759.43	1767.40
759.61	1642.47
759.79	2246.62
759.97	1675.24
760.15	1681.38
760.32	1714.15
760.50	1755.11
760.68	1806.31
760.86	1615.85
761.04	1802.21
761.22	1755.11
761.39	1746.92
761.57	1826.79
761.75	1732.58
761.93	1665.00
762.11	1642.47
762.28	1677.29
762.46	1665.00
762.64	1781.73
762.82	1603.56
763.00	1701.86
763.18	1837.03
763.35	1656.81
763.53	1763.30
763.71	1695.72
763.89	1673.19
764.07	1724.39
764.24	1699.81
764.42	1751.01
764.60	1673.19
764.78	1751.01
764.96	1771.49
765.13	1697.77
765.31	1667.05
765.49	1699.81
765.67	1660.90
765.84	1611.75
766.02	1701.86
766.20	1658.85
766.38	1697.77
766.56	1746.92
766.73	1798.12
766.91	1691.62
767.09	1724.39
767.27	1781.73
767.44	1654.76
767.62	1730.53
767.80	1751.01
767.98	1724.39
768.15	1718.25
768.33	1814.50
768.51	1744.87
768.69	1687.53
768.87	1755.11
769.04	1691.62
769.22	1779.68
769.40	1791.97
769.58	1841.12
769.75	1722.34
769.93	1873.89
770.11	1615.85
770.28	1710.05
770.46	1740.77
770.64	1734.63
770.82	1675.24
770.99	1679.33
771.17	1808.36
771.35	1728.49
771.53	1708.01
771.70	1615.85
771.88	1767.40
772.06	1695.72
772.23	1685.48
772.41	1669.09
772.59	1652.71
772.77	1650.66
772.94	1681.38
773.12	1775.59
773.30	1669.09
773.47	1740.77
773.65	1642.47
773.83	1769.44
774.01	1642.47
774.18	1640.42
774.36	1736.68
774.54	1667.05
774.71	1675.24
774.89	1644.52
775.07	1699.81
775.24	1687.53
775.42	1673.19
775.60	1804.26
775.78	1806.31
775.95	1636.33
776.13	1660.90
776.31	1607.66
776.48	1679.33
776.66	1785.83
776.84	1753.06
777.01	1650.66
777.19	1671.14
777.37	1603.56
777.54	1699.81
777.72	1832.93
777.90	1755.11
778.07	1652.71
778.25	1853.41
778.43	1804.26
778.60	1693.67
778.78	1728.49
778.96	1779.68
779.13	1705.96
779.31	1812.45
779.49	1740.77
779.66	1800.16
779.84	1677.29
780.01	1638.38
780.19	1634.28
780.37	1820.64
780.54	1800.16
780.72	1621.99
780.90	1644.52
781.07	1710.05
781.25	1662.95
781.43	1783.78
781.60	1695.72
781.78	1742.82
781.95	1699.81
782.13	1718.25
782.31	1763.30
782.48	1605.61
782.66	1689.57
782.83	1814.50
783.01	1773.54
783.19	1767.40
783.36	1689.57
783.54	1683.43
783.72	1789.92
783.89	1624.04
784.07	1728.49
784.24	1759.21
784.42	1777.64
784.60	1662.95
784.77	1712.10
784.95	1650.66
785.12	1751.01
785.30	1701.86
785.47	1681.38
785.65	1677.29
785.83	1679.33
786.00	1638.38
786.18	1687.53
786.35	1687.53
786.53	1699.81
786.71	1658.85
786.88	1693.67
787.06	1746.92
787.23	1710.05
787.41	1658.85
787.58	1738.73
787.76	1689.57
787.94	1714.15
788.11	1746.92
788.29	1642.47
788.46	1724.39
788.64	1601.51
788.81	1718.25
788.99	1648.61
789.16	1650.66
789.34	1808.36
789.52	1740.77
789.69	1599.46
789.87	1656.81
790.04	1718.25
790.22	1695.72
790.39	1841.12
790.57	1703.91
790.74	1646.57
790.92	1755.11
791.09	1671.14
791.27	1757.16
791.44	1765.35
791.62	1708.01
791.79	1734.63
791.97	1775.59
792.15	1920.99
792.32	1724.39
792.50	1710.05
792.67	1781.73
792.85	1769.44
793.02	1714.15
793.20	1697.77
793.37	1644.52
793.55	1771.49
793.72	1675.24
793.90	1765.35
794.07	1615.85
794.25	1601.51
794.42	1708.01
794.60	1775.59
794.77	1681.38
794.95	1722.34
795.12	1660.90
795.30	1720.29
795.47	1626.09
795.65	1886.18
795.82	1693.67
796.00	1601.51
796.17	1605.61
796.34	1644.52
796.52	1728.49
796.69	1681.38
796.87	1783.78
797.04	1781.73
797.22	1763.30
797.39	1693.67
797.57	1742.82
797.74	1669.09
797.92	1705.96
798.09	1746.92
798.27	1814.50
798.44	1689.57
798.62	1624.04
798.79	1689.57
798.96	1767.40
799.14	1710.05
799.31	1869.80
799.49	1671.14
799.66	1697.77
799.84	1730.53
800.01	1642.47
800.19	1697.77
800.36	1605.61
800.53	1708.01
800.71	1693.67
800.88	1755.11
801.06	1607.66
801.23	1621.99
801.41	1710.05
801.58	1791.97
801.75	1718.25
801.93	1683.43
802.10	1781.73
802.28	1679.33
802.45	1667.05
802.63	1757.16
802.80	1794.02
802.97	1636.33
803.15	1695.72
803.32	1677.29
803.50	1624.04
803.67	1662.95
803.84	1634.28
804.02	1755.11
804.19	1671.14
804.37	1576.94
804.54	1656.81
804.71	1675.24
804.89	1714.15
805.06	1701.86
805.24	1634.28
805.41	1683.43
805.58	1675.24
805.76	1804.26
805.93	1675.24
806.10	1779.68
806.28	1667.05
806.45	1710.05
806.63	1697.77
806.80	1746.92
806.97	1671.14
807.15	1751.01
807.32	1779.68
807.49	1779.68
807.67	1554.41
807.84	1718.25
808.01	1644.52
808.19	1853.41
808.36	1785.83
808.54	1757.16
808.71	1570.79
808.88	1755.11
809.06	1718.25
809.23	1751.01
809.40	1738.73
809.58	1695.72
809.75	1671.14
809.92	1683.43
810.10	1882.08
810.27	1679.33
810.44	1757.16
810.62	1759.21
810.79	1712.10
810.96	1656.81
811.14	1654.76
811.31	1738.73
811.48	1759.21
811.66	1677.29
811.83	1787.88
812.00	1767.40
812.18	1742.82
812.35	1822.69
812.52	1685.48
812.69	1685.48
812.87	1724.39
813.04	1681.38
813.21	1695.72
813.39	1722.34
813.56	1687.53
813.73	1746.92
813.91	1660.90
814.08	1648.61
814.25	1695.72
814.42	1603.56
814.60	1697.77
814.77	1665.00
814.94	1687.53
815.12	1726.44
815.29	1830.88
815.46	1673.19
815.63	1734.63
815.81	1728.49
815.98	1687.53
816.15	1714.15
816.33	1751.01
816.50	1724.39
816.67	1744.87
816.84	1755.11
817.02	1640.42
817.19	1640.42
817.36	1683.43
817.53	1771.49
817.71	1681.38
817.88	1839.08
818.05	1693.67
818.22	1675.24
818.40	1812.45
818.57	1722.34
818.74	1712.10
818.91	1718.25
819.09	1718.25
819.26	1714.15
819.43	1685.48
819.60	1609.70
819.78	1769.44
819.95	1787.88
820.12	1701.86
820.29	1771.49
820.47	1785.83
820.64	1652.71
820.81	1683.43
820.98	1716.20
821.15	1656.81
821.33	1753.06
821.50	1642.47
821.67	1742.82
821.84	1662.95
822.02	1767.40
822.19	1742.82
822.36	1701.86
822.53	1642.47
822.70	1607.66
822.88	1751.01
823.05	1746.92
823.22	1742.82
823.39	1751.01
823.56	1697.77
823.74	1853.41
823.91	1648.61
824.08	1630.18
824.25	1677.29
824.42	1814.50
824.60	1628.14
824.77	1681.38
824.94	1695.72
825.11	1730.53
825.28	1728.49
825.45	1699.81
825.63	1708.01
825.80	1640.42
825.97	1820.64
826.14	1751.01
826.31	1619.94
826.48	1716.20
826.66	1699.81
826.83	1732.58
827.00	1632.23
827.17	1644.52
827.34	1720.29
827.51	1626.09
827.69	1677.29
827.86	1587.18
828.03	1681.38
828.20	1679.33
828.37	1658.85
828.54	1701.86
828.71	1679.33
828.89	1816.55
829.06	1724.39
829.23	1765.35
829.40	1615.85
829.57	1685.48
829.74	1810.40
829.91	1607.66
830.09	1695.72
830.26	1671.14
830.43	1742.82
830.60	1712.10
830.77	1837.03
830.94	1718.25
831.11	1728.49
831.28	1652.71
831.46	1828.84
831.63	1685.48
831.80	1800.16
831.97	1599.46
832.14	1708.01
832.31	1689.57
832.48	1673.19
832.65	1775.59
832.82	1726.44
832.99	1794.02
833.17	1683.43
833.34	1759.21
833.51	1665.00
833.68	1540.07
833.85	1748.97
834.02	1699.81
834.19	1701.86
834.36	1646.57
834.53	1656.81
834.70	1777.64
834.87	1812.45
835.04	1673.19
835.22	1669.09
835.39	1738.73
835.56	1634.28
835.73	1611.75
835.90	1787.88
836.07	1650.66
836.24	1802.21
836.41	1613.80
836.58	1691.62
836.75	1712.10
836.92	1730.53
837.09	1722.34
837.26	1746.92
837.43	1728.49
837.60	1691.62
837.77	1726.44
837.94	1726.44
838.12	1796.07
838.29	1742.82
838.46	1591.27
838.63	1615.85
838.80	1796.07
838.97	1767.40
839.14	1767.40
839.31	1632.23
839.48	1757.16
839.65	1693.67
839.82	1714.15
839.99	1703.91
840.16	1652.71
840.33	1697.77
840.50	1712.10
840.67	1650.66
840.84	1564.65
841.01	1728.49
841.18	1697.77
841.35	1640.42
841.52	1728.49
841.69	1794.02
841.86	1753.06
842.03	1695.72
842.20	1767.40
842.37	1658.85
842.54	1712.10
842.71	1767.40
842.88	1593.32
843.05	1714.15
843.22	1714.15
843.39	1777.64
843.56	1652.71
843.73	1677.29
843.90	1802.21
844.07	1748.97
844.24	1693.67
844.41	1708.01
844.58	1640.42
844.75	1714.15
844.92	1763.30
845.09	1710.05
845.26	1636.33
845.43	1742.82
845.60	1658.85
845.77	1654.76
845.94	1720.29
846.10	1740.77
846.27	1621.99
846.44	1656.81
846.61	1619.94
846.78	1705.96
846.95	1753.06
847.12	1728.49
847.29	1630.18
847.46	1595.37
847.63	1732.58
847.80	1687.53
847.97	1697.77
848.14	1820.64
848.31	1597.42
848.48	1644.52
848.65	1681.38
848.82	1564.65
848.98	1812.45
849.15	1718.25
849.32	1775.59
849.49	1771.49
849.66	1689.57
849.83	1630.18
850.00	1665.00
850.17	1720.29
850.34	1716.20
850.51	1691.62
850.68	1658.85
850.85	1796.07
851.01	1775.59
851.18	1679.33
851.35	1691.62
851.52	1742.82
851.69	1845.22
851.86	1699.81
852.03	1665.00
852.20	1755.11
852.37	1689.57
852.53	1611.75
852.70	1656.81
852.87	1703.91
853.04	1767.40
853.21	1695.72
853.38	1791.97
853.55	1818.60
853.72	1820.64
853.89	1624.04
854.05	1619.94
854.22	1628.14
854.39	1632.23
854.56	1644.52
854.73	1783.78
854.90	1693.67
855.07	1660.90
855.23	1712.10
855.40	1714.15
855.57	1757.16
855.74	1560.55
855.91	1806.31
856.08	1611.75
856.25	1628.14
856.41	1687.53
856.58	1757.16
856.75	1716.20
856.92	1714.15
857.09	1804.26
857.26	1646.57
857.42	1738.73
857.59	1689.57
857.76	1681.38
857.93	1691.62
858.10	1763.30
858.27	1597.42
858.43	1791.97
858.60	1630.18
858.77	1615.85
858.94	1695.72
859.11	1763.30
859.27	1673.19
859.44	1736.68
859.61	1814.50
859.78	1775.59
859.95	1710.05
860.12	1677.29
860.28	1847.27
860.45	1888.23
860.62	1644.52
860.79	1662.95
860.95	1675.24
861.12	1705.96
861.29	1564.65
861.46	1619.94
861.63	1746.92
861.79	1710.05
861.96	1626.09
862.13	1671.14
862.30	1751.01
862.47	1671.14
862.63	1597.42
862.80	1779.68
862.97	1712.10
863.14	1714.15
863.30	1714.15
863.47	1662.95
863.64	1800.16
863.81	1662.95
863.97	1748.97
864.14	1716.20
864.31	1720.29
864.48	1744.87
864.65	1626.09
864.81	1781.73
864.98	1697.77
865.15	1812.45
865.32	1726.44
865.48	1708.01
865.65	1738.73
865.82	1673.19
865.98	1751.01
866.15	1822.69
866.32	1691.62
866.49	1636.33
866.65	1714.15
866.82	1630.18
866.99	1730.53
867.16	1662.95
867.32	1781.73
867.49	1595.37
867.66	1722.34
867.83	1636.33
867.99	1652.71
868.16	1693.67
868.33	1650.66
868.49	1705.96
868.66	1734.63
868.83	1773.54
868.99	1732.58
869.16	1734.63
869.33	1775.59
869.50	1767.40
869.66	1685.48
869.83	1722.34
870.00	1669.09
870.16	1763.30
870.33	1673.19
870.50	1826.79
870.66	1710.05
870.83	1755.11
871.00	1675.24
871.17	1787.88
871.33	1736.68
871.50	1656.81
871.67	1660.90
871.83	1724.39
872.00	1830.88
872.17	1621.99
872.33	1796.07
872.50	1744.87
872.67	1718.25
872.83	1703.91
873.00	1718.25
873.17	1673.19
873.33	1751.01
873.50	1722.34
873.67	1652.71
873.83	1665.00
874.00	1716.20
874.16	1755.11
874.33	1763.30
874.50	1619.94
874.66	1734.63
874.83	1636.33
875.00	1755.11
875.16	1748.97
875.33	1740.77
875.50	1609.70
875.66	1589.22
875.83	1779.68
875.99	1693.67
876.16	1705.96
876.33	1611.75
876.49	1710.05
876.66	1703.91
876.83	1681.38
876.99	1597.42
877.16	1730.53
877.32	1734.63
877.49	1726.44
877.66	1697.77
877.82	1806.31
877.99	1714.15
878.15	1777.64
878.32	1662.95
878.49	1710.05
878.65	1652.71
878.82	1779.68
878.98	1669.09
879.15	1742.82
879.32	1697.77
879.48	1806.31
879.65	1693.67
879.81	1685.48
879.98	1644.52
880.15	1732.58
880.31	1691.62
880.48	1730.53
880.64	1755.11
880.81	1703.91
880.97	1757.16
881.14	1771.49
881.31	1689.57
881.47	1828.84
881.64	1599.46
881.80	1605.61
881.97	1703.91
882.13	1740.77
882.30	1638.38
882.47	1642.47
882.63	1640.42
882.80	1679.33
882.96	1593.32
883.13	1781.73
883.29	1716.20
883.46	1724.39
883.62	1826.79
883.79	1632.23
883.95	1742.82
884.12	1701.86
884.29	1712.10
884.45	1679.33
884.62	1736.68
884.78	1689.57
884.95	1687.53
885.11	1673.19
885.28	1753.06
885.44	1691.62
885.61	1716.20
885.77	1779.68
885.94	1746.92
886.10	1767.40
886.27	1687.53
886.43	1787.88
886.60	1820.64
886.76	1628.14
886.93	1703.91
887.09	1755.11
887.26	1583.08
887.42	1734.63
887.59	1742.82
887.75	1830.88
887.92	1767.40
888.08	1751.01
888.25	1808.36
888.41	1714.15
888.58	1767.40
888.74	1708.01
888.91	1693.67
>>>>>End Processed Spectral Data<<<<<
