SpectraSuite Data File
++++++++++++++++++++++++++++++++++++
Date: Mon Jun 06 12:51:17 CEST 2016
User: root
Dark Spectrum Present: No
Reference Spectrum Present: No
Number of Sampled Component Spectra: 1
Spectrometers: USB4C02835
Integration Time (usec): 100000 (USB4C02835)
Spectra Averaged: 1 (USB4C02835)
Boxcar Smoothing: 0 (USB4C02835)
Correct for Electrical Dark: No (USB4C02835)
Strobe/Lamp Enabled: No (USB4C02835)
Correct for Detector Non-linearity: No (USB4C02835)
Correct for Stray Light: No (USB4C02835)
Number of Pixels in Processed Spectrum: 3648
>>>>>Begin Processed Spectral Data<<<<<
177.47	1478.63
177.69	1478.63
177.91	1478.63
178.13	1452.01
178.36	1513.45
178.58	1669.09
178.80	1681.38
179.02	1628.14
179.24	1675.24
179.46	1673.19
179.68	1746.92
179.90	1630.18
180.13	1722.34
180.35	1589.22
180.57	1728.49
180.79	1775.59
181.01	1656.81
181.23	1746.92
181.45	1757.16
181.67	1828.84
181.90	1697.77
182.12	1697.77
182.34	1611.75
182.56	1779.68
182.78	1695.72
183.00	1718.25
183.22	1669.09
183.44	1613.80
183.66	1882.08
183.89	1789.92
184.11	1699.81
184.33	1675.24
184.55	1718.25
184.77	1669.09
184.99	1746.92
185.21	1632.23
185.43	1900.52
185.65	1652.71
185.87	1660.90
186.10	1773.54
186.32	1804.26
186.54	1710.05
186.76	1708.01
186.98	1744.87
187.20	1716.20
187.42	1736.68
187.64	1693.67
187.86	1730.53
188.08	1681.38
188.30	1669.09
188.52	1669.09
188.75	1660.90
188.97	1722.34
189.19	1720.29
189.41	1712.10
189.63	1728.49
189.85	1683.43
190.07	1591.27
190.29	1607.66
190.51	1712.10
190.73	1595.37
190.95	1748.97
191.17	1736.68
191.39	1587.18
191.61	1685.48
191.84	1712.10
192.06	1769.44
192.28	1599.46
192.50	1867.75
192.72	1730.53
192.94	1708.01
193.16	1771.49
193.38	1755.11
193.60	1695.72
193.82	1638.38
194.04	1814.50
194.26	1691.62
194.48	1777.64
194.70	1658.85
194.92	1697.77
195.14	1730.53
195.36	1656.81
195.58	1685.48
195.80	1662.95
196.02	1667.05
196.24	1716.20
196.46	1705.96
196.69	1699.81
196.91	1808.36
197.13	1775.59
197.35	1642.47
197.57	1779.68
197.79	1665.00
198.01	1703.91
198.23	1689.57
198.45	1701.86
198.67	1587.18
198.89	1703.91
199.11	1705.96
199.33	1673.19
199.55	1619.94
199.77	1705.96
199.99	1740.77
200.21	1593.32
200.43	1789.92
200.65	1578.98
200.87	1572.84
201.09	1660.90
201.31	1648.61
201.53	1775.59
201.75	1665.00
201.97	1732.58
202.19	1656.81
202.41	1722.34
202.63	1798.12
202.85	1779.68
203.07	1687.53
203.29	1687.53
203.51	1658.85
203.73	1701.86
203.95	1830.88
204.17	1767.40
204.39	1710.05
204.61	1636.33
204.83	1687.53
205.05	1716.20
205.27	1699.81
205.49	1775.59
205.71	1708.01
205.93	1687.53
206.15	1654.76
206.37	1703.91
206.59	1693.67
206.81	1648.61
207.03	1656.81
207.25	1634.28
207.47	1791.97
207.69	1724.39
207.91	1771.49
208.13	1748.97
208.34	1724.39
208.56	1652.71
208.78	1718.25
209.00	1683.43
209.22	1609.70
209.44	1607.66
209.66	1673.19
209.88	1697.77
210.10	1669.09
210.32	1718.25
210.54	1728.49
210.76	1691.62
210.98	1740.77
211.20	1538.02
211.42	1740.77
211.64	1785.83
211.86	1732.58
212.08	1714.15
212.30	1677.29
212.52	1578.98
212.74	1720.29
212.96	1787.88
213.17	1738.73
213.39	1710.05
213.61	1820.64
213.83	1740.77
214.05	1691.62
214.27	1658.85
214.49	1681.38
214.71	1705.96
214.93	1800.16
215.15	1703.91
215.37	1759.21
215.59	1603.56
215.81	1658.85
216.03	1759.21
216.24	1687.53
216.46	1724.39
216.68	1787.88
216.90	1755.11
217.12	1722.34
217.34	1712.10
217.56	1705.96
217.78	1757.16
218.00	1708.01
218.22	1740.77
218.44	1771.49
218.66	1740.77
218.87	1828.84
219.09	1589.22
219.31	1816.55
219.53	1773.54
219.75	1675.24
219.97	1708.01
220.19	1816.55
220.41	1677.29
220.63	1753.06
220.85	1656.81
221.06	1708.01
221.28	1730.53
221.50	1773.54
221.72	1638.38
221.94	1705.96
222.16	1665.00
222.38	1763.30
222.60	1779.68
222.82	1650.66
223.03	1753.06
223.25	1652.71
223.47	1808.36
223.69	1744.87
223.91	1632.23
224.13	1738.73
224.35	1665.00
224.57	1869.80
224.78	1746.92
225.00	1607.66
225.22	1705.96
225.44	1724.39
225.66	1683.43
225.88	1679.33
226.10	1757.16
226.32	1681.38
226.53	1828.84
226.75	1691.62
226.97	1662.95
227.19	1656.81
227.41	1603.56
227.63	1615.85
227.85	1628.14
228.06	1691.62
228.28	1701.86
228.50	1726.44
228.72	1650.66
228.94	1673.19
229.16	1679.33
229.37	1642.47
229.59	1681.38
229.81	1714.15
230.03	1681.38
230.25	1589.22
230.47	1646.57
230.69	1619.94
230.90	1734.63
231.12	1683.43
231.34	1765.35
231.56	1777.64
231.78	1671.14
232.00	1658.85
232.21	1732.58
232.43	1675.24
232.65	1589.22
232.87	1796.07
233.09	1693.67
233.30	1724.39
233.52	1662.95
233.74	1710.05
233.96	1767.40
234.18	1720.29
234.40	1683.43
234.61	1824.74
234.83	1646.57
235.05	1638.38
235.27	1769.44
235.49	1781.73
235.70	1722.34
235.92	1660.90
236.14	1724.39
236.36	1877.99
236.58	1605.61
236.79	1712.10
237.01	1640.42
237.23	1755.11
237.45	1839.08
237.67	1775.59
237.88	1775.59
238.10	1746.92
238.32	1667.05
238.54	1650.66
238.76	1718.25
238.97	1683.43
239.19	1673.19
239.41	1710.05
239.63	1783.78
239.85	1714.15
240.06	1679.33
240.28	1705.96
240.50	1828.84
240.72	1734.63
240.93	1685.48
241.15	1730.53
241.37	1771.49
241.59	1757.16
241.81	1677.29
242.02	1695.72
242.24	1695.72
242.46	1753.06
242.68	1619.94
242.89	1730.53
243.11	1748.97
243.33	1701.86
243.55	1697.77
243.76	1722.34
243.98	1718.25
244.20	1755.11
244.42	1744.87
244.64	1705.96
244.85	1603.56
245.07	1683.43
245.29	1695.72
245.51	1685.48
245.72	1669.09
245.94	1728.49
246.16	1746.92
246.38	1734.63
246.59	1712.10
246.81	1607.66
247.03	1673.19
247.24	1660.90
247.46	1624.04
247.68	1757.16
247.90	1667.05
248.11	1718.25
248.33	1742.82
248.55	1734.63
248.77	1722.34
248.98	1798.12
249.20	1824.74
249.42	1699.81
249.64	1722.34
249.85	1724.39
250.07	1714.15
250.29	1769.44
250.50	1783.78
250.72	1632.23
250.94	1683.43
251.16	1783.78
251.37	1744.87
251.59	1693.67
251.81	1732.58
252.02	1736.68
252.24	1728.49
252.46	1722.34
252.68	1640.42
252.89	1660.90
253.11	1677.29
253.33	1837.03
253.54	1796.07
253.76	1621.99
253.98	1689.57
254.20	1646.57
254.41	1660.90
254.63	1685.48
254.85	1626.09
255.06	1640.42
255.28	1771.49
255.50	1675.24
255.71	1712.10
255.93	1673.19
256.15	1673.19
256.36	1701.86
256.58	1650.66
256.80	1699.81
257.02	1675.24
257.23	1656.81
257.45	1697.77
257.67	1667.05
257.88	1624.04
258.10	1703.91
258.32	1648.61
258.53	1665.00
258.75	1759.21
258.97	1697.77
259.18	1687.53
259.40	1660.90
259.62	1722.34
259.83	1789.92
260.05	1773.54
260.27	1976.29
260.48	1708.01
260.70	1665.00
260.92	1775.59
261.13	1714.15
261.35	1708.01
261.57	1777.64
261.78	1669.09
262.00	1634.28
262.22	1699.81
262.43	1617.90
262.65	1578.98
262.86	1777.64
263.08	1730.53
263.30	1769.44
263.51	1591.27
263.73	1671.14
263.95	1712.10
264.16	1609.70
264.38	1689.57
264.60	1722.34
264.81	1628.14
265.03	1771.49
265.25	1730.53
265.46	1722.34
265.68	1771.49
265.89	1669.09
266.11	1640.42
266.33	1779.68
266.54	1828.84
266.76	1691.62
266.98	1759.21
267.19	1765.35
267.41	1781.73
267.62	1656.81
267.84	1693.67
268.06	1671.14
268.27	1773.54
268.49	1806.31
268.70	1812.45
268.92	1781.73
269.14	1671.14
269.35	1636.33
269.57	1656.81
269.79	1777.64
270.00	1628.14
270.22	1757.16
270.43	1638.38
270.65	1595.37
270.87	1665.00
271.08	1789.92
271.30	1736.68
271.51	1724.39
271.73	1814.50
271.95	1802.21
272.16	1705.96
272.38	1734.63
272.59	1732.58
272.81	1642.47
273.02	1654.76
273.24	1761.25
273.46	1675.24
273.67	1621.99
273.89	1658.85
274.10	1671.14
274.32	1837.03
274.54	1669.09
274.75	1710.05
274.97	1705.96
275.18	1763.30
275.40	1732.58
275.61	1658.85
275.83	1757.16
276.05	1593.32
276.26	1615.85
276.48	1703.91
276.69	1626.09
276.91	1634.28
277.12	1787.88
277.34	1730.53
277.55	1765.35
277.77	1714.15
277.99	1751.01
278.20	1636.33
278.42	1667.05
278.63	1611.75
278.85	1671.14
279.06	1660.90
279.28	1679.33
279.49	1785.83
279.71	1716.20
279.93	1701.86
280.14	1660.90
280.36	1705.96
280.57	1718.25
280.79	1722.34
281.00	1656.81
281.22	1630.18
281.43	1896.42
281.65	1624.04
281.86	1562.60
282.08	1755.11
282.29	1820.64
282.51	1619.94
282.73	1640.42
282.94	1640.42
283.16	1751.01
283.37	1796.07
283.59	1716.20
283.80	1742.82
284.02	1675.24
284.23	1728.49
284.45	1683.43
284.66	1658.85
284.88	1665.00
285.09	1691.62
285.31	1734.63
285.52	1671.14
285.74	1632.23
285.95	1679.33
286.17	1746.92
286.38	1712.10
286.60	1574.89
286.81	1699.81
287.03	1740.77
287.24	1642.47
287.46	1732.58
287.67	1636.33
287.89	1771.49
288.10	1712.10
288.32	1708.01
288.53	1746.92
288.75	1632.23
288.96	1818.60
289.18	1746.92
289.39	1683.43
289.61	1691.62
289.82	1824.74
290.04	1818.60
290.25	1736.68
290.47	1726.44
290.68	1656.81
290.90	1697.77
291.11	1648.61
291.33	1816.55
291.54	1619.94
291.76	1648.61
291.97	1679.33
292.18	1746.92
292.40	1650.66
292.61	1671.14
292.83	1908.71
293.04	1724.39
293.26	1699.81
293.47	1662.95
293.69	1611.75
293.90	1687.53
294.12	1742.82
294.33	1708.01
294.55	1652.71
294.76	1775.59
294.97	1767.40
295.19	1871.84
295.40	1716.20
295.62	1722.34
295.83	1710.05
296.05	1720.29
296.26	1771.49
296.48	1632.23
296.69	1708.01
296.90	1738.73
297.12	1753.06
297.33	1738.73
297.55	1708.01
297.76	1675.24
297.98	1783.78
298.19	1669.09
298.41	1640.42
298.62	1646.57
298.83	1824.74
299.05	1714.15
299.26	1626.09
299.48	1728.49
299.69	1742.82
299.90	1667.05
300.12	1611.75
300.33	1820.64
300.55	1708.01
300.76	1796.07
300.98	1613.80
301.19	1740.77
301.40	1714.15
301.62	1755.11
301.83	1779.68
302.05	1669.09
302.26	1716.20
302.47	1658.85
302.69	1636.33
302.90	1734.63
303.12	1640.42
303.33	1738.73
303.54	1812.45
303.76	1669.09
303.97	1650.66
304.19	1769.44
304.40	1697.77
304.61	1724.39
304.83	1777.64
305.04	1691.62
305.26	1658.85
305.47	1677.29
305.68	1673.19
305.90	1652.71
306.11	1775.59
306.33	1746.92
306.54	1710.05
306.75	1656.81
306.97	1671.14
307.18	1609.70
307.39	1705.96
307.61	1742.82
307.82	1687.53
308.04	1759.21
308.25	1591.27
308.46	1679.33
308.68	1785.83
308.89	1675.24
309.10	1869.80
309.32	1693.67
309.53	1732.58
309.74	1808.36
309.96	1681.38
310.17	1785.83
310.39	1607.66
310.60	1765.35
310.81	1693.67
311.03	1699.81
311.24	1789.92
311.45	1665.00
311.67	1765.35
311.88	1697.77
312.09	1703.91
312.31	1687.53
312.52	1753.06
312.73	1695.72
312.95	1650.66
313.16	1632.23
313.37	1785.83
313.59	1689.57
313.80	1701.86
314.01	1755.11
314.23	1671.14
314.44	1617.90
314.65	1636.33
314.87	1595.37
315.08	1701.86
315.29	1658.85
315.51	1617.90
315.72	1695.72
315.93	1751.01
316.15	1771.49
316.36	1636.33
316.57	1759.21
316.79	1765.35
317.00	1718.25
317.21	1662.95
317.43	1593.32
317.64	1689.57
317.85	1712.10
318.07	1677.29
318.28	1755.11
318.49	1757.16
318.70	1855.46
318.92	1808.36
319.13	1753.06
319.34	1796.07
319.56	1734.63
319.77	1761.25
319.98	1755.11
320.20	1775.59
320.41	1732.58
320.62	1806.31
320.83	1732.58
321.05	1779.68
321.26	1763.30
321.47	1695.72
321.69	1716.20
321.90	1640.42
322.11	1728.49
322.32	1656.81
322.54	1738.73
322.75	1665.00
322.96	1796.07
323.18	1665.00
323.39	1603.56
323.60	1640.42
323.81	1736.68
324.03	1652.71
324.24	1738.73
324.45	1689.57
324.66	1671.14
324.88	1771.49
325.09	1863.65
325.30	1720.29
325.52	1716.20
325.73	1714.15
325.94	1609.70
326.15	1673.19
326.37	1689.57
326.58	1736.68
326.79	1708.01
327.00	1759.21
327.22	1712.10
327.43	1671.14
327.64	1599.46
327.85	1730.53
328.07	1640.42
328.28	1742.82
328.49	1712.10
328.70	1619.94
328.92	1697.77
329.13	1699.81
329.34	1765.35
329.55	1796.07
329.76	1726.44
329.98	1738.73
330.19	1791.97
330.40	1746.92
330.61	1687.53
330.83	1759.21
331.04	1638.38
331.25	1720.29
331.46	1656.81
331.68	1669.09
331.89	1771.49
332.10	1679.33
332.31	1636.33
332.52	1693.67
332.74	1718.25
332.95	1583.08
333.16	1708.01
333.37	1726.44
333.58	1656.81
333.80	1757.16
334.01	1671.14
334.22	1791.97
334.43	1703.91
334.64	1679.33
334.86	1656.81
335.07	1646.57
335.28	1787.88
335.49	1630.18
335.70	1773.54
335.92	1726.44
336.13	1800.16
336.34	1716.20
336.55	1626.09
336.76	1744.87
336.98	1568.74
337.19	1755.11
337.40	1837.03
337.61	1728.49
337.82	1673.19
338.04	1810.40
338.25	1581.03
338.46	1658.85
338.67	1705.96
338.88	1705.96
339.09	1691.62
339.31	1665.00
339.52	1578.98
339.73	1689.57
339.94	1671.14
340.15	1742.82
340.36	1689.57
340.58	1654.76
340.79	1662.95
341.00	1689.57
341.21	1677.29
341.42	1841.12
341.63	1683.43
341.85	1746.92
342.06	1736.68
342.27	1634.28
342.48	1812.45
342.69	1656.81
342.90	1695.72
343.12	1701.86
343.33	1689.57
343.54	1757.16
343.75	1789.92
343.96	1689.57
344.17	1591.27
344.38	1673.19
344.60	1646.57
344.81	1648.61
345.02	1716.20
345.23	1773.54
345.44	1812.45
345.65	1685.48
345.86	1740.77
346.07	1687.53
346.29	1685.48
346.50	1705.96
346.71	1705.96
346.92	1753.06
347.13	1882.08
347.34	1708.01
347.55	1652.71
347.76	1755.11
347.98	1650.66
348.19	1675.24
348.40	1748.97
348.61	1716.20
348.82	1834.98
349.03	1734.63
349.24	1597.42
349.45	1816.55
349.66	1615.85
349.88	1703.91
350.09	1665.00
350.30	1787.88
350.51	1775.59
350.72	1720.29
350.93	1689.57
351.14	1699.81
351.35	1746.92
351.56	1705.96
351.77	1681.38
351.99	1685.48
352.20	1824.74
352.41	1779.68
352.62	1562.60
352.83	1640.42
353.04	1701.86
353.25	1632.23
353.46	1738.73
353.67	1748.97
353.88	1621.99
354.09	1658.85
354.30	1660.90
354.52	1699.81
354.73	1726.44
354.94	1683.43
355.15	1644.52
355.36	1673.19
355.57	1669.09
355.78	1775.59
355.99	1660.90
356.20	1626.09
356.41	1779.68
356.62	1683.43
356.83	1722.34
357.04	1777.64
357.25	1611.75
357.46	1699.81
357.68	1640.42
357.89	1644.52
358.10	1665.00
358.31	1683.43
358.52	1644.52
358.73	1650.66
358.94	1683.43
359.15	1695.72
359.36	1722.34
359.57	1730.53
359.78	1650.66
359.99	1716.20
360.20	1673.19
360.41	1740.77
360.62	1755.11
360.83	1699.81
361.04	1683.43
361.25	1687.53
361.46	1830.88
361.67	1726.44
361.88	1740.77
362.09	1767.40
362.30	1783.78
362.51	1638.38
362.72	1685.48
362.93	1796.07
363.14	1665.00
363.35	1646.57
363.56	1691.62
363.78	1720.29
363.99	1757.16
364.20	1716.20
364.41	1689.57
364.62	1822.69
364.83	1744.87
365.04	1650.66
365.25	1654.76
365.46	1810.40
365.67	1621.99
365.88	1708.01
366.09	1720.29
366.30	1650.66
366.51	1701.86
366.72	1550.31
366.93	1636.33
367.14	1697.77
367.35	1812.45
367.56	1703.91
367.77	1699.81
367.98	1621.99
368.18	1794.02
368.39	1734.63
368.60	1644.52
368.81	1746.92
369.02	1691.62
369.23	1673.19
369.44	1626.09
369.65	1677.29
369.86	1732.58
370.07	1751.01
370.28	1650.66
370.49	1751.01
370.70	1687.53
370.91	1576.94
371.12	1697.77
371.33	1857.51
371.54	1656.81
371.75	1703.91
371.96	1558.50
372.17	1669.09
372.38	1728.49
372.59	1638.38
372.80	1683.43
373.01	1621.99
373.22	1628.14
373.43	1662.95
373.64	1665.00
373.85	1751.01
374.06	1837.03
374.26	1642.47
374.47	1746.92
374.68	1787.88
374.89	1679.33
375.10	1740.77
375.31	1769.44
375.52	1740.77
375.73	1642.47
375.94	1652.71
376.15	1732.58
376.36	1658.85
376.57	1638.38
376.78	1621.99
376.99	1724.39
377.20	1744.87
377.40	1626.09
377.61	1816.55
377.82	1624.04
378.03	1751.01
378.24	1667.05
378.45	1708.01
378.66	1748.97
378.87	1677.29
379.08	1654.76
379.29	1785.83
379.50	1730.53
379.71	1689.57
379.91	1697.77
380.12	1667.05
380.33	1710.05
380.54	1703.91
380.75	1697.77
380.96	1744.87
381.17	1730.53
381.38	1681.38
381.59	1742.82
381.80	1691.62
382.00	1789.92
382.21	1742.82
382.42	1914.85
382.63	1978.34
382.84	1777.64
383.05	1794.02
383.26	1808.36
383.47	1767.40
383.68	1789.92
383.88	1751.01
384.09	1650.66
384.30	1787.88
384.51	1757.16
384.72	1753.06
384.93	1605.61
385.14	1714.15
385.35	1771.49
385.55	1665.00
385.76	1714.15
385.97	1683.43
386.18	1634.28
386.39	1624.04
386.60	1720.29
386.81	1714.15
387.02	1660.90
387.22	1654.76
387.43	1763.30
387.64	1763.30
387.85	1902.56
388.06	2215.90
388.27	4310.97
388.48	6739.87
388.68	8339.33
388.89	9633.64
389.10	9969.51
389.31	8820.60
389.52	7597.96
389.73	6713.24
389.93	6350.75
390.14	5846.95
390.35	5179.31
390.56	4521.92
390.77	3831.75
390.98	2979.79
391.18	2484.19
391.39	2078.69
391.60	1849.32
391.81	1808.36
392.02	1673.19
392.23	1832.93
392.43	1785.83
392.64	1767.40
392.85	1718.25
393.06	1796.07
393.27	1787.88
393.47	1681.38
393.68	1656.81
393.89	1708.01
394.10	1789.92
394.31	1687.53
394.52	1716.20
394.72	1798.12
394.93	1763.30
395.14	1646.57
395.35	1708.01
395.56	1662.95
395.76	1685.48
395.97	1863.65
396.18	1861.60
396.39	1824.74
396.60	1941.47
396.80	1861.60
397.01	1863.65
397.22	1771.49
397.43	1783.78
397.64	1685.48
397.84	1830.88
398.05	1822.69
398.26	1761.25
398.47	1769.44
398.67	1732.58
398.88	1722.34
399.09	1728.49
399.30	1699.81
399.51	1753.06
399.71	1675.24
399.92	1759.21
400.13	1769.44
400.34	1703.91
400.54	1689.57
400.75	1830.88
400.96	1730.53
401.17	1861.60
401.37	1726.44
401.58	1712.10
401.79	1683.43
402.00	1857.51
402.21	1947.62
402.41	1935.33
402.62	2062.30
402.83	2103.26
403.04	2011.11
403.24	2054.11
403.45	1869.80
403.66	1918.95
403.87	1941.47
404.07	1886.18
404.28	1847.27
404.49	1787.88
404.70	1785.83
404.90	1845.22
405.11	1732.58
405.32	1695.72
405.52	1701.86
405.73	1710.05
405.94	1628.14
406.15	1744.87
406.35	1765.35
406.56	1742.82
406.77	1697.77
406.98	1751.01
407.18	1617.90
407.39	1828.84
407.60	1646.57
407.80	1730.53
408.01	1660.90
408.22	1798.12
408.43	1650.66
408.63	1785.83
408.84	1740.77
409.05	1802.21
409.25	1650.66
409.46	1705.96
409.67	1675.24
409.88	1697.77
410.08	1697.77
410.29	1689.57
410.50	1734.63
410.70	1789.92
410.91	1607.66
411.12	1742.82
411.32	1656.81
411.53	1660.90
411.74	1775.59
411.95	1830.88
412.15	1816.55
412.36	1765.35
412.57	1828.84
412.77	1767.40
412.98	1722.34
413.19	1708.01
413.39	1748.97
413.60	1755.11
413.81	1820.64
414.01	1699.81
414.22	1742.82
414.43	1722.34
414.63	1652.71
414.84	1740.77
415.05	1701.86
415.25	1667.05
415.46	1691.62
415.67	1767.40
415.87	1656.81
416.08	1757.16
416.29	1728.49
416.49	1746.92
416.70	1726.44
416.91	1705.96
417.11	1642.47
417.32	1699.81
417.53	1789.92
417.73	1748.97
417.94	1712.10
418.15	1685.48
418.35	1667.05
418.56	1767.40
418.77	1769.44
418.97	1667.05
419.18	1687.53
419.38	1558.50
419.59	1607.66
419.80	1755.11
420.00	1636.33
420.21	1724.39
420.42	1763.30
420.62	1781.73
420.83	1660.90
421.04	1710.05
421.24	1609.70
421.45	1769.44
421.65	1722.34
421.86	1691.62
422.07	1763.30
422.27	1744.87
422.48	1701.86
422.69	1665.00
422.89	1789.92
423.10	1724.39
423.30	1687.53
423.51	1746.92
423.72	1771.49
423.92	1730.53
424.13	1734.63
424.33	1701.86
424.54	1783.78
424.75	1789.92
424.95	1812.45
425.16	1710.05
425.36	1697.77
425.57	1740.77
425.78	1755.11
425.98	1691.62
426.19	1722.34
426.39	1646.57
426.60	1689.57
426.81	1744.87
427.01	1740.77
427.22	1634.28
427.42	1583.08
427.63	1624.04
427.83	1771.49
428.04	1839.08
428.25	1734.63
428.45	1830.88
428.66	1796.07
428.86	1716.20
429.07	1652.71
429.28	1738.73
429.48	1658.85
429.69	1681.38
429.89	1746.92
430.10	1695.72
430.30	1681.38
430.51	1775.59
430.71	1617.90
430.92	1736.68
431.13	1617.90
431.33	1789.92
431.54	1662.95
431.74	1742.82
431.95	1837.03
432.15	1673.19
432.36	1753.06
432.56	1675.24
432.77	1783.78
432.98	1824.74
433.18	1800.16
433.39	1677.29
433.59	1716.20
433.80	1806.31
434.00	1775.59
434.21	1671.14
434.41	1669.09
434.62	1886.18
434.82	1652.71
435.03	1609.70
435.23	1679.33
435.44	1574.89
435.64	1724.39
435.85	1681.38
436.06	1753.06
436.26	1712.10
436.47	1705.96
436.67	1724.39
436.88	1748.97
437.08	1742.82
437.29	1781.73
437.49	1744.87
437.70	1683.43
437.90	1716.20
438.11	1880.04
438.31	1787.88
438.52	1857.51
438.72	1837.03
438.93	1902.56
439.13	1763.30
439.34	1843.17
439.54	1804.26
439.75	1701.86
439.95	1802.21
440.16	1757.16
440.36	1759.21
440.57	1763.30
440.77	1757.16
440.98	1767.40
441.18	1728.49
441.39	1697.77
441.59	1619.94
441.80	1824.74
442.00	1722.34
442.21	1832.93
442.41	1595.37
442.62	1785.83
442.82	1605.61
443.02	1794.02
443.23	1748.97
443.43	1683.43
443.64	1814.50
443.84	1705.96
444.05	1789.92
444.25	1755.11
444.46	1722.34
444.66	1738.73
444.87	1775.59
445.07	1665.00
445.28	1808.36
445.48	1896.42
445.69	1769.44
445.89	1918.95
446.09	1759.21
446.30	2004.96
446.50	2557.91
446.71	3758.02
446.91	4237.25
447.12	4749.24
447.32	4818.87
447.53	4427.71
447.73	3786.69
447.93	3639.24
448.14	3205.07
448.34	3147.73
448.55	2848.72
448.75	2861.01
448.96	2639.83
449.16	2422.75
449.36	2303.96
449.57	2052.06
449.77	1929.19
449.98	1812.45
450.18	1789.92
450.39	1843.17
450.59	1685.48
450.79	1726.44
451.00	1708.01
451.20	1722.34
451.41	1738.73
451.61	1685.48
451.81	1695.72
452.02	1677.29
452.22	1716.20
452.43	1675.24
452.63	1755.11
452.84	1726.44
453.04	1691.62
453.24	1718.25
453.45	1732.58
453.65	1765.35
453.86	1794.02
454.06	1705.96
454.26	1773.54
454.47	1646.57
454.67	1820.64
454.87	1732.58
455.08	1773.54
455.28	1800.16
455.49	1804.26
455.69	1708.01
455.89	1865.70
456.10	1857.51
456.30	1695.72
456.51	1796.07
456.71	1757.16
456.91	1787.88
457.12	1736.68
457.32	1746.92
457.52	1634.28
457.73	1736.68
457.93	1765.35
458.14	1675.24
458.34	1603.56
458.54	1677.29
458.75	1740.77
458.95	1738.73
459.15	1722.34
459.36	1779.68
459.56	1691.62
459.76	1853.41
459.97	1638.38
460.17	1677.29
460.37	1759.21
460.58	1681.38
460.78	1740.77
460.99	1652.71
461.19	1701.86
461.39	1746.92
461.60	1718.25
461.80	1769.44
462.00	1714.15
462.21	1718.25
462.41	1769.44
462.61	1617.90
462.82	1677.29
463.02	1771.49
463.22	1726.44
463.43	1845.22
463.63	1769.44
463.83	1787.88
464.04	1755.11
464.24	1730.53
464.44	1697.77
464.64	1761.25
464.85	1834.98
465.05	1783.78
465.25	1744.87
465.46	1679.33
465.66	1767.40
465.86	1738.73
466.07	1755.11
466.27	1724.39
466.47	1624.04
466.68	1699.81
466.88	1785.83
467.08	1816.55
467.29	1779.68
467.49	1767.40
467.69	1759.21
467.89	1718.25
468.10	1804.26
468.30	1763.30
468.50	1832.93
468.71	1759.21
468.91	1685.48
469.11	1818.60
469.31	1710.05
469.52	1744.87
469.72	1843.17
469.92	1867.75
470.13	1726.44
470.33	1755.11
470.53	1906.66
470.73	2072.54
470.94	2265.05
471.14	2342.88
471.34	2512.86
471.54	2410.46
471.75	2176.99
471.95	2107.36
472.15	2070.50
472.36	2047.97
472.56	2150.37
472.76	2015.20
472.96	2025.44
473.17	1947.62
473.37	1822.69
473.57	1818.60
473.77	1849.32
473.98	1759.21
474.18	1701.86
474.38	1933.28
474.58	1665.00
474.79	1652.71
474.99	1800.16
475.19	1734.63
475.39	1628.14
475.60	1746.92
475.80	1769.44
476.00	1708.01
476.20	1695.72
476.41	1748.97
476.61	1789.92
476.81	1753.06
477.01	1681.38
477.21	1894.37
477.42	1755.11
477.62	1626.09
477.82	1802.21
478.02	1675.24
478.23	1845.22
478.43	1660.90
478.63	1724.39
478.83	1718.25
479.03	1730.53
479.24	1824.74
479.44	1804.26
479.64	1689.57
479.84	1591.27
480.04	1724.39
480.25	1742.82
480.45	1746.92
480.65	1697.77
480.85	1798.12
481.06	1712.10
481.26	1671.14
481.46	1740.77
481.66	1611.75
481.86	1677.29
482.06	1728.49
482.27	1648.61
482.47	1699.81
482.67	1746.92
482.87	1640.42
483.07	1853.41
483.28	1685.48
483.48	1656.81
483.68	1671.14
483.88	1669.09
484.08	1644.52
484.29	1667.05
484.49	1683.43
484.69	1677.29
484.89	1775.59
485.09	1783.78
485.29	1765.35
485.50	1685.48
485.70	1718.25
485.90	1765.35
486.10	1740.77
486.30	1716.20
486.50	1771.49
486.71	1763.30
486.91	1814.50
487.11	1751.01
487.31	1609.70
487.51	1722.34
487.71	1716.20
487.91	1626.09
488.12	1624.04
488.32	1593.32
488.52	1738.73
488.72	1658.85
488.92	1759.21
489.12	1705.96
489.32	1787.88
489.53	1687.53
489.73	1646.57
489.93	1783.78
490.13	1744.87
490.33	1691.62
490.53	1642.47
490.73	1816.55
490.94	1593.32
491.14	1802.21
491.34	1757.16
491.54	2133.98
491.74	2553.82
491.94	2881.49
492.14	3043.28
492.34	2977.75
492.54	2834.39
492.75	2422.75
492.95	2496.47
493.15	2314.20
493.35	2281.44
493.55	2248.67
493.75	2107.36
493.95	2164.70
494.15	2047.97
494.35	1906.66
494.56	1779.68
494.76	1673.19
494.96	1714.15
495.16	1746.92
495.36	1730.53
495.56	1705.96
495.76	1742.82
495.96	1732.58
496.16	1681.38
496.36	1853.41
496.56	1716.20
496.77	1746.92
496.97	1710.05
497.17	1779.68
497.37	1699.81
497.57	1763.30
497.77	1662.95
497.97	1710.05
498.17	1689.57
498.37	1636.33
498.57	1794.02
498.77	1751.01
498.97	1722.34
499.17	1769.44
499.38	1722.34
499.58	1730.53
499.78	1783.78
499.98	1826.79
500.18	1693.67
500.38	1714.15
500.58	1949.67
500.78	2545.63
500.98	4558.78
501.18	5898.15
501.38	6758.30
501.58	7047.06
501.78	6637.47
501.98	5513.13
502.18	5076.91
502.38	4366.27
502.58	4122.56
502.78	3723.21
502.98	3719.11
503.18	3385.29
503.38	3127.25
503.59	2871.25
503.79	2668.50
503.99	2426.84
504.19	2220.00
504.39	2207.71
504.59	2207.71
504.79	2080.74
504.99	2084.83
505.19	1906.66
505.39	1875.94
505.59	1925.09
505.79	1892.32
505.99	1828.84
506.19	1718.25
506.39	1869.80
506.59	1777.64
506.79	1789.92
506.99	1796.07
507.19	1748.97
507.39	1732.58
507.59	1705.96
507.79	1826.79
507.99	1693.67
508.19	1798.12
508.39	1648.61
508.59	1730.53
508.79	1832.93
508.99	1796.07
509.19	1669.09
509.39	1796.07
509.59	1583.08
509.79	1671.14
509.99	1705.96
510.19	1783.78
510.39	1759.21
510.59	1726.44
510.79	1734.63
510.99	1687.53
511.19	1652.71
511.39	1826.79
511.59	1757.16
511.79	1767.40
511.99	1689.57
512.19	1812.45
512.38	1763.30
512.58	1677.29
512.78	1759.21
512.98	1748.97
513.18	1853.41
513.38	1662.95
513.58	1808.36
513.78	1730.53
513.98	1669.09
514.18	1722.34
514.38	1714.15
514.58	1777.64
514.78	1785.83
514.98	1660.90
515.18	1644.52
515.38	1689.57
515.58	1837.03
515.78	1681.38
515.98	1697.77
516.18	1783.78
516.38	1794.02
516.57	1699.81
516.77	1724.39
516.97	1730.53
517.17	1708.01
517.37	1617.90
517.57	1824.74
517.77	1640.42
517.97	1759.21
518.17	1796.07
518.37	1746.92
518.57	1738.73
518.77	1673.19
518.97	1687.53
519.16	1746.92
519.36	1773.54
519.56	1710.05
519.76	1759.21
519.96	1699.81
520.16	1785.83
520.36	1683.43
520.56	1763.30
520.76	1724.39
520.96	1714.15
521.16	1773.54
521.35	1767.40
521.55	1783.78
521.75	1789.92
521.95	1705.96
522.15	1665.00
522.35	1650.66
522.55	1705.96
522.75	1751.01
522.95	1726.44
523.14	1652.71
523.34	1789.92
523.54	1660.90
523.74	1785.83
523.94	1804.26
524.14	1648.61
524.34	1753.06
524.54	1837.03
524.73	1712.10
524.93	1693.67
525.13	1812.45
525.33	1710.05
525.53	1918.95
525.73	1796.07
525.93	1671.14
526.13	1634.28
526.32	1705.96
526.52	1767.40
526.72	1740.77
526.92	1755.11
527.12	1712.10
527.32	1658.85
527.52	1720.29
527.71	1734.63
527.91	1800.16
528.11	1759.21
528.31	1755.11
528.51	1650.66
528.71	1734.63
528.90	1802.21
529.10	1865.70
529.30	1755.11
529.50	1621.99
529.70	1740.77
529.90	1751.01
530.09	1697.77
530.29	1658.85
530.49	1683.43
530.69	1849.32
530.89	1824.74
531.09	1789.92
531.28	1695.72
531.48	1787.88
531.68	1720.29
531.88	1662.95
532.08	1722.34
532.28	1783.78
532.47	1740.77
532.67	1828.84
532.87	1751.01
533.07	1671.14
533.27	1771.49
533.46	1732.58
533.66	1767.40
533.86	1695.72
534.06	1665.00
534.26	1765.35
534.45	1685.48
534.65	1839.08
534.85	1751.01
535.05	1689.57
535.25	1748.97
535.44	1628.14
535.64	1701.86
535.84	1734.63
536.04	1732.58
536.24	1777.64
536.43	1740.77
536.63	1751.01
536.83	1738.73
537.03	1695.72
537.22	1656.81
537.42	1679.33
537.62	1603.56
537.82	1679.33
538.02	1847.27
538.21	1794.02
538.41	1898.47
538.61	1802.21
538.81	1683.43
539.00	1742.82
539.20	1611.75
539.40	1714.15
539.60	1742.82
539.79	1738.73
539.99	1753.06
540.19	1705.96
540.39	1705.96
540.58	1689.57
540.78	1742.82
540.98	1728.49
541.18	1720.29
541.37	1787.88
541.57	1689.57
541.77	1730.53
541.97	1632.23
542.16	1646.57
542.36	1802.21
542.56	1787.88
542.76	1882.08
542.95	1742.82
543.15	1787.88
543.35	1806.31
543.54	1730.53
543.74	1722.34
543.94	1791.97
544.14	1738.73
544.33	1802.21
544.53	1738.73
544.73	1742.82
544.93	1705.96
545.12	1703.91
545.32	1734.63
545.52	1769.44
545.71	1609.70
545.91	1630.18
546.11	1701.86
546.30	1695.72
546.50	1753.06
546.70	1748.97
546.90	1763.30
547.09	1683.43
547.29	1736.68
547.49	1703.91
547.68	1742.82
547.88	1714.15
548.08	1730.53
548.27	2213.85
548.47	1751.01
548.67	1708.01
548.87	1834.98
549.06	1734.63
549.26	1828.84
549.46	1730.53
549.65	1730.53
549.85	1808.36
550.05	1757.16
550.24	1640.42
550.44	1722.34
550.64	1742.82
550.83	1724.39
551.03	1771.49
551.23	1826.79
551.42	1718.25
551.62	1769.44
551.82	1777.64
552.01	1699.81
552.21	1802.21
552.41	1691.62
552.60	1734.63
552.80	1716.20
553.00	1742.82
553.19	1783.78
553.39	1851.36
553.59	1624.04
553.78	1794.02
553.98	1791.97
554.17	1681.38
554.37	1767.40
554.57	1736.68
554.76	1708.01
554.96	1693.67
555.16	1779.68
555.35	1703.91
555.55	1794.02
555.75	1730.53
555.94	1796.07
556.14	1716.20
556.33	1834.98
556.53	1708.01
556.73	1677.29
556.92	1781.73
557.12	1808.36
557.32	1875.94
557.51	1806.31
557.71	1755.11
557.90	1828.84
558.10	1820.64
558.30	1789.92
558.49	1748.97
558.69	1677.29
558.88	1783.78
559.08	1714.15
559.28	1703.91
559.47	1841.12
559.67	1746.92
559.86	1843.17
560.06	1800.16
560.26	1763.30
560.45	1736.68
560.65	1714.15
560.84	1826.79
561.04	1724.39
561.24	1734.63
561.43	1689.57
561.63	1837.03
561.82	1746.92
562.02	1806.31
562.22	1689.57
562.41	1628.14
562.61	1714.15
562.80	1644.52
563.00	1920.99
563.19	1726.44
563.39	1726.44
563.59	1775.59
563.78	1562.60
563.98	1599.46
564.17	1755.11
564.37	1677.29
564.56	1677.29
564.76	1667.05
564.96	1775.59
565.15	1722.34
565.35	1822.69
565.54	1744.87
565.74	1744.87
565.93	1744.87
566.13	1736.68
566.32	1777.64
566.52	1834.98
566.71	1636.33
566.91	1771.49
567.11	1771.49
567.30	1695.72
567.50	1732.58
567.69	1697.77
567.89	1810.40
568.08	1642.47
568.28	1796.07
568.47	1691.62
568.67	1794.02
568.86	1667.05
569.06	1814.50
569.25	1703.91
569.45	1636.33
569.64	1767.40
569.84	1720.29
570.04	1732.58
570.23	1724.39
570.43	1687.53
570.62	1701.86
570.82	1863.65
571.01	1650.66
571.21	1724.39
571.40	1738.73
571.60	1806.31
571.79	1705.96
571.99	1734.63
572.18	1718.25
572.38	1730.53
572.57	1738.73
572.77	1773.54
572.96	1927.14
573.16	1775.59
573.35	1757.16
573.55	1746.92
573.74	1742.82
573.94	1761.25
574.13	1720.29
574.33	1757.16
574.52	1826.79
574.71	1751.01
574.91	1742.82
575.10	1613.80
575.30	1708.01
575.49	1681.38
575.69	1748.97
575.88	1763.30
576.08	1777.64
576.27	1718.25
576.47	1794.02
576.66	1896.42
576.86	1853.41
577.05	1748.97
577.25	1708.01
577.44	1783.78
577.64	1677.29
577.83	1851.36
578.02	1718.25
578.22	1853.41
578.41	1812.45
578.61	1753.06
578.80	1619.94
579.00	1765.35
579.19	1757.16
579.39	1806.31
579.58	1787.88
579.77	1771.49
579.97	1855.46
580.16	1828.84
580.36	1830.88
580.55	1839.08
580.75	1822.69
580.94	1761.25
581.13	1847.27
581.33	1839.08
581.52	1730.53
581.72	1855.46
581.91	1804.26
582.11	1728.49
582.30	1775.59
582.49	1705.96
582.69	1787.88
582.88	1834.98
583.08	1746.92
583.27	1871.84
583.47	1839.08
583.66	1656.81
583.85	1687.53
584.05	1763.30
584.24	1841.12
584.44	1781.73
584.63	1822.69
584.82	1861.60
585.02	1830.88
585.21	1820.64
585.41	1818.60
585.60	1830.88
585.79	1916.90
585.99	2009.06
586.18	1857.51
586.37	2160.61
586.57	3336.14
586.76	9893.74
586.96	24209.04
587.15	35016.17
587.34	40756.63
587.54	42210.68
587.73	36783.57
587.93	26568.30
588.12	21685.94
588.31	18312.94
588.51	16500.48
588.70	15281.94
588.89	14286.63
589.09	12562.24
589.28	11169.62
589.47	9373.55
589.67	7923.59
589.86	6508.44
590.06	4949.94
590.25	3925.96
590.44	3067.86
590.64	2541.53
590.83	2207.71
591.02	2000.87
591.22	1877.99
591.41	1898.47
591.60	1943.52
591.80	1863.65
591.99	1812.45
592.18	1796.07
592.38	1822.69
592.57	1699.81
592.76	1738.73
592.96	1791.97
593.15	1699.81
593.34	1779.68
593.54	1689.57
593.73	1820.64
593.92	1712.10
594.12	1832.93
594.31	1738.73
594.50	1757.16
594.70	1808.36
594.89	1888.23
595.08	1673.19
595.28	1753.06
595.47	1976.29
595.66	1853.41
595.86	1660.90
596.05	1744.87
596.24	1744.87
596.43	1865.70
596.63	1810.40
596.82	1722.34
597.01	1720.29
597.21	1904.61
597.40	1794.02
597.59	1724.39
597.79	1689.57
597.98	1730.53
598.17	1759.21
598.36	1693.67
598.56	1789.92
598.75	1675.24
598.94	1787.88
599.14	1787.88
599.33	1652.71
599.52	1789.92
599.71	1730.53
599.91	1738.73
600.10	1689.57
600.29	1746.92
600.48	1718.25
600.68	1718.25
600.87	1744.87
601.06	1703.91
601.26	1746.92
601.45	1757.16
601.64	1687.53
601.83	1775.59
602.03	1697.77
602.22	1689.57
602.41	1763.30
602.60	1861.60
602.80	1810.40
602.99	1732.58
603.18	1736.68
603.37	1759.21
603.57	1791.97
603.76	1794.02
603.95	1783.78
604.14	1724.39
604.34	1744.87
604.53	1806.31
604.72	1708.01
604.91	1710.05
605.10	1794.02
605.30	1619.94
605.49	1863.65
605.68	1810.40
605.87	1695.72
606.07	1738.73
606.26	1763.30
606.45	1703.91
606.64	1761.25
606.84	1716.20
607.03	1730.53
607.22	1810.40
607.41	1703.91
607.60	1726.44
607.80	1818.60
607.99	1728.49
608.18	1751.01
608.37	1779.68
608.56	1648.61
608.76	1732.58
608.95	1837.03
609.14	1759.21
609.33	1738.73
609.52	1703.91
609.72	1689.57
609.91	1742.82
610.10	1720.29
610.29	1804.26
610.48	1691.62
610.68	1705.96
610.87	1689.57
611.06	1800.16
611.25	1738.73
611.44	1740.77
611.63	1695.72
611.83	1804.26
612.02	1617.90
612.21	1798.12
612.40	1644.52
612.59	1646.57
612.79	1689.57
612.98	1701.86
613.17	1810.40
613.36	1738.73
613.55	1769.44
613.74	1679.33
613.93	1699.81
614.13	1781.73
614.32	1765.35
614.51	1699.81
614.70	1669.09
614.89	1656.81
615.08	1740.77
615.28	2058.21
615.47	1658.85
615.66	1734.63
615.85	1681.38
616.04	1791.97
616.23	1714.15
616.42	1652.71
616.62	1753.06
616.81	1695.72
617.00	1701.86
617.19	1703.91
617.38	1656.81
617.57	1730.53
617.76	1742.82
617.95	1794.02
618.15	1738.73
618.34	1718.25
618.53	1642.47
618.72	1763.30
618.91	1738.73
619.10	1779.68
619.29	1687.53
619.48	1695.72
619.68	1695.72
619.87	1687.53
620.06	1624.04
620.25	1810.40
620.44	1687.53
620.63	1673.19
620.82	1667.05
621.01	1683.43
621.20	1810.40
621.39	1746.92
621.59	1767.40
621.78	1753.06
621.97	1656.81
622.16	1767.40
622.35	1728.49
622.54	1755.11
622.73	1787.88
622.92	1708.01
623.11	1781.73
623.30	1677.29
623.49	1769.44
623.68	1689.57
623.88	1769.44
624.07	1722.34
624.26	1744.87
624.45	1759.21
624.64	1689.57
624.83	1673.19
625.02	1730.53
625.21	1705.96
625.40	1763.30
625.59	1785.83
625.78	1689.57
625.97	1751.01
626.16	1759.21
626.35	1748.97
626.54	1710.05
626.74	1759.21
626.93	1673.19
627.12	1578.98
627.31	1798.12
627.50	1796.07
627.69	1810.40
627.88	1695.72
628.07	1734.63
628.26	1726.44
628.45	1667.05
628.64	1595.37
628.83	1646.57
629.02	1634.28
629.21	1771.49
629.40	1753.06
629.59	1675.24
629.78	1746.92
629.97	1673.19
630.16	1705.96
630.35	1683.43
630.54	1763.30
630.73	1611.75
630.92	1683.43
631.11	1656.81
631.30	1724.39
631.49	1777.64
631.68	1691.62
631.87	1730.53
632.06	1587.18
632.25	1880.04
632.44	1685.48
632.63	1808.36
632.82	1607.66
633.01	1652.71
633.20	1722.34
633.39	1691.62
633.58	1646.57
633.77	1691.62
633.96	1765.35
634.15	1665.00
634.34	1812.45
634.53	1814.50
634.72	1667.05
634.91	1581.03
635.10	1732.58
635.29	1708.01
635.48	1705.96
635.67	1671.14
635.86	1722.34
636.05	1794.02
636.24	1710.05
636.43	1679.33
636.62	1783.78
636.81	1658.85
637.00	1740.77
637.19	1712.10
637.38	1781.73
637.57	1650.66
637.76	1718.25
637.95	1746.92
638.14	1669.09
638.33	1665.00
638.52	1816.55
638.71	1595.37
638.89	1675.24
639.08	1810.40
639.27	1759.21
639.46	1748.97
639.65	1806.31
639.84	1742.82
640.03	1755.11
640.22	1765.35
640.41	1796.07
640.60	1656.81
640.79	1708.01
640.98	1677.29
641.17	1697.77
641.36	1755.11
641.55	1705.96
641.74	1636.33
641.92	1621.99
642.11	1675.24
642.30	1673.19
642.49	1681.38
642.68	1691.62
642.87	1681.38
643.06	1742.82
643.25	1740.77
643.44	1693.67
643.63	1736.68
643.82	1783.78
644.00	1665.00
644.19	1673.19
644.38	1693.67
644.57	1726.44
644.76	1753.06
644.95	1662.95
645.14	1695.72
645.33	1679.33
645.52	1695.72
645.71	1642.47
645.89	1665.00
646.08	1767.40
646.27	1679.33
646.46	1894.37
646.65	1658.85
646.84	1755.11
647.03	1730.53
647.22	1710.05
647.40	1726.44
647.59	1685.48
647.78	1650.66
647.97	1644.52
648.16	1691.62
648.35	1789.92
648.54	1738.73
648.73	1646.57
648.91	1732.58
649.10	1699.81
649.29	1691.62
649.48	1734.63
649.67	1730.53
649.86	1751.01
650.05	1677.29
650.23	1781.73
650.42	1679.33
650.61	1787.88
650.80	1781.73
650.99	1894.37
651.18	1775.59
651.36	1767.40
651.55	1689.57
651.74	1812.45
651.93	1728.49
652.12	1681.38
652.31	1683.43
652.49	1730.53
652.68	1734.63
652.87	1740.77
653.06	1697.77
653.25	1812.45
653.44	1695.72
653.62	1828.84
653.81	1724.39
654.00	1724.39
654.19	1705.96
654.38	1849.32
654.56	1714.15
654.75	1751.01
654.94	1789.92
655.13	1738.73
655.32	1691.62
655.51	1718.25
655.69	1703.91
655.88	1802.21
656.07	1660.90
656.26	1767.40
656.45	1628.14
656.63	1742.82
656.82	1681.38
657.01	1798.12
657.20	1718.25
657.38	1810.40
657.57	1673.19
657.76	1640.42
657.95	1738.73
658.14	1720.29
658.32	1697.77
658.51	1675.24
658.70	1693.67
658.89	1705.96
659.08	1757.16
659.26	1779.68
659.45	1652.71
659.64	1660.90
659.83	1621.99
660.01	1843.17
660.20	1802.21
660.39	1886.18
660.58	1607.66
660.76	1730.53
660.95	1669.09
661.14	1718.25
661.33	1624.04
661.51	1619.94
661.70	1681.38
661.89	1726.44
662.08	1693.67
662.26	1685.48
662.45	1611.75
662.64	1726.44
662.83	1757.16
663.01	1599.46
663.20	1621.99
663.39	1777.64
663.58	1679.33
663.76	1689.57
663.95	1808.36
664.14	1671.14
664.32	1689.57
664.51	1705.96
664.70	1578.98
664.89	1738.73
665.07	1599.46
665.26	1775.59
665.45	1687.53
665.64	1839.08
665.82	1775.59
666.01	1699.81
666.20	1722.34
666.38	1775.59
666.57	1796.07
666.76	2287.58
666.95	4745.14
667.13	10532.70
667.32	15202.07
667.51	17921.77
667.69	19173.08
667.88	17698.55
668.07	12523.33
668.25	9391.98
668.44	8132.48
668.63	7356.30
668.81	6739.87
669.00	6246.30
669.19	5599.15
669.38	5146.55
669.56	4507.58
669.75	3942.34
669.94	3438.54
670.12	2875.35
670.31	2564.06
670.50	2176.99
670.68	1986.53
670.87	1966.05
671.06	1810.40
671.24	1816.55
671.43	1787.88
671.62	1669.09
671.80	1757.16
671.99	1738.73
672.18	1685.48
672.36	1716.20
672.55	1714.15
672.74	1744.87
672.92	1667.05
673.11	1771.49
673.29	1701.86
673.48	1738.73
673.67	1652.71
673.85	1787.88
674.04	1703.91
674.23	1787.88
674.41	1728.49
674.60	1662.95
674.79	1617.90
674.97	1644.52
675.16	1748.97
675.34	1761.25
675.53	1734.63
675.72	1769.44
675.90	1789.92
676.09	1710.05
676.28	1755.11
676.46	1644.52
676.65	1789.92
676.83	1748.97
677.02	1722.34
677.21	1724.39
677.39	1751.01
677.58	1710.05
677.77	1724.39
677.95	1710.05
678.14	1677.29
678.32	1679.33
678.51	1650.66
678.70	1779.68
678.88	1648.61
679.07	1701.86
679.25	1675.24
679.44	1677.29
679.63	1605.61
679.81	1755.11
680.00	1796.07
680.18	1736.68
680.37	1785.83
680.55	1677.29
680.74	1605.61
680.93	1640.42
681.11	1775.59
681.30	1656.81
681.48	1710.05
681.67	1724.39
681.85	1638.38
682.04	1650.66
682.23	1810.40
682.41	1708.01
682.60	1689.57
682.78	1708.01
682.97	1636.33
683.15	1660.90
683.34	1728.49
683.53	1775.59
683.71	1619.94
683.90	1783.78
684.08	1759.21
684.27	1695.72
684.45	1726.44
684.64	1794.02
684.82	1613.80
685.01	1630.18
685.19	1671.14
685.38	1839.08
685.57	1726.44
685.75	1648.61
685.94	1740.77
686.12	1648.61
686.31	1660.90
686.49	1763.30
686.68	1542.12
686.86	1767.40
687.05	1650.66
687.23	1759.21
687.42	1681.38
687.60	1687.53
687.79	1681.38
687.97	1798.12
688.16	1689.57
688.34	1820.64
688.53	1574.89
688.71	1697.77
688.90	1779.68
689.08	1740.77
689.27	1562.60
689.45	1734.63
689.64	1730.53
689.82	1742.82
690.01	1730.53
690.19	1724.39
690.38	1701.86
690.56	1791.97
690.75	1570.79
690.93	1726.44
691.12	1611.75
691.30	1757.16
691.49	1708.01
691.67	1722.34
691.86	1865.70
692.04	1662.95
692.23	1611.75
692.41	1691.62
692.60	1824.74
692.78	1734.63
692.97	1695.72
693.15	1667.05
693.34	1834.98
693.52	1744.87
693.71	1654.76
693.89	1671.14
694.08	1556.46
694.26	1742.82
694.44	1728.49
694.63	1773.54
694.81	1634.28
695.00	1669.09
695.18	1738.73
695.37	1843.17
695.55	1640.42
695.74	1718.25
695.92	1679.33
696.10	1785.83
696.29	1587.18
696.47	1656.81
696.66	1576.94
696.84	1681.38
697.03	1746.92
697.21	1720.29
697.40	2256.86
697.58	1789.92
697.76	1730.53
697.95	1718.25
698.13	1611.75
698.32	1656.81
698.50	1607.66
698.68	1660.90
698.87	1753.06
699.05	1839.08
699.24	1697.77
699.42	1689.57
699.61	1775.59
699.79	1740.77
699.97	1701.86
700.16	1615.85
700.34	1619.94
700.53	1779.68
700.71	1802.21
700.89	1820.64
701.08	1681.38
701.26	1660.90
701.45	2109.41
701.63	1712.10
701.81	1746.92
702.00	1732.58
702.18	1703.91
702.37	1685.48
702.55	1697.77
702.73	1755.11
702.92	1624.04
703.10	1734.63
703.28	1720.29
703.47	1669.09
703.65	1701.86
703.84	1804.26
704.02	1656.81
704.20	1687.53
704.39	1689.57
704.57	1740.77
704.75	1697.77
704.94	1703.91
705.12	1769.44
705.30	1812.45
705.49	2230.24
705.67	4487.10
705.86	9656.17
706.04	12701.50
706.22	14667.55
706.41	15533.84
706.59	13780.78
706.77	9654.12
706.96	7423.89
707.14	6608.80
707.32	5910.44
707.51	5715.88
707.69	4847.54
707.87	4177.86
708.06	3590.09
708.24	2990.03
708.42	2490.33
708.61	2265.05
708.79	1888.23
708.97	1839.08
709.16	1810.40
709.34	1732.58
709.52	1736.68
709.71	1695.72
709.89	1755.11
710.07	1716.20
710.26	1714.15
710.44	1665.00
710.62	1755.11
710.80	1779.68
710.99	1746.92
711.17	1751.01
711.35	1689.57
711.54	1689.57
711.72	1824.74
711.90	1691.62
712.09	1683.43
712.27	1624.04
712.45	1744.87
712.63	1679.33
712.82	1669.09
713.00	1703.91
713.18	1738.73
713.37	1624.04
713.55	1734.63
713.73	1722.34
713.91	1728.49
714.10	1671.14
714.28	1710.05
714.46	1736.68
714.65	1787.88
714.83	1718.25
715.01	1734.63
715.19	1691.62
715.38	1654.76
715.56	1736.68
715.74	1640.42
715.92	1642.47
716.11	1773.54
716.29	1587.18
716.47	1691.62
716.65	1738.73
716.84	1634.28
717.02	1820.64
717.20	1642.47
717.38	1613.80
717.57	1814.50
717.75	1687.53
717.93	1685.48
718.11	1746.92
718.30	1632.23
718.48	1789.92
718.66	1789.92
718.84	1789.92
719.03	1728.49
719.21	1644.52
719.39	1822.69
719.57	1705.96
719.75	1708.01
719.94	1652.71
720.12	1615.85
720.30	1701.86
720.48	1703.91
720.67	1648.61
720.85	1695.72
721.03	1757.16
721.21	1658.85
721.39	1814.50
721.58	1703.91
721.76	1660.90
721.94	1738.73
722.12	1742.82
722.30	1818.60
722.49	1673.19
722.67	1701.86
722.85	1701.86
723.03	1605.61
723.21	1644.52
723.40	1667.05
723.58	1716.20
723.76	1714.15
723.94	1769.44
724.12	1677.29
724.30	1834.98
724.49	1712.10
724.67	1685.48
724.85	1857.51
725.03	1642.47
725.21	1712.10
725.40	1712.10
725.58	1599.46
725.76	1753.06
725.94	1695.72
726.12	1660.90
726.30	1695.72
726.49	1722.34
726.67	1714.15
726.85	1722.34
727.03	1773.54
727.21	2131.94
727.39	2824.15
727.57	3739.59
727.76	4134.85
727.94	4530.11
728.12	4253.63
728.30	3749.83
728.48	2918.36
728.66	2830.29
728.84	2467.80
729.03	2336.73
729.21	2142.18
729.39	1996.77
729.57	1808.36
729.75	1882.08
729.93	1767.40
730.11	1644.52
730.30	1648.61
730.48	1755.11
730.66	1783.78
730.84	1693.67
731.02	1771.49
731.20	1656.81
731.38	1658.85
731.56	1585.13
731.74	1595.37
731.93	1683.43
732.11	1667.05
732.29	1701.86
732.47	1734.63
732.65	1679.33
732.83	1761.25
733.01	1728.49
733.19	1603.56
733.37	1697.77
733.56	1722.34
733.74	1685.48
733.92	1746.92
734.10	1701.86
734.28	1810.40
734.46	1724.39
734.64	1751.01
734.82	1701.86
735.00	1687.53
735.18	1662.95
735.36	1761.25
735.54	1648.61
735.73	1716.20
735.91	1660.90
736.09	1779.68
736.27	1740.77
736.45	1665.00
736.63	1607.66
736.81	1644.52
736.99	1714.15
737.17	1773.54
737.35	1626.09
737.53	1734.63
737.71	1644.52
737.89	1806.31
738.07	1660.90
738.25	1591.27
738.43	1636.33
738.61	1677.29
738.80	1669.09
738.98	1601.51
739.16	1775.59
739.34	1624.04
739.52	1779.68
739.70	1673.19
739.88	1679.33
740.06	1744.87
740.24	1611.75
740.42	1771.49
740.60	1593.32
740.78	1716.20
740.96	1624.04
741.14	1638.38
741.32	1681.38
741.50	1644.52
741.68	1771.49
741.86	1787.88
742.04	1697.77
742.22	1656.81
742.40	1720.29
742.58	1732.58
742.76	1656.81
742.94	1714.15
743.12	1652.71
743.30	1681.38
743.48	1738.73
743.66	1636.33
743.84	1689.57
744.02	1736.68
744.20	1628.14
744.38	1660.90
744.56	1615.85
744.74	1834.98
744.92	1806.31
745.10	1787.88
745.28	1679.33
745.46	1753.06
745.64	1720.29
745.82	1796.07
746.00	1669.09
746.18	1665.00
746.36	1632.23
746.54	1740.77
746.72	1652.71
746.90	1656.81
747.08	1812.45
747.26	1630.18
747.44	1757.16
747.62	1724.39
747.80	1687.53
747.98	1708.01
748.15	1673.19
748.33	1787.88
748.51	1681.38
748.69	1703.91
748.87	1652.71
749.05	1744.87
749.23	1673.19
749.41	1763.30
749.59	1665.00
749.77	1753.06
749.95	1667.05
750.13	1658.85
750.31	1748.97
750.49	1611.75
750.67	1828.84
750.85	1781.73
751.03	1767.40
751.20	1777.64
751.38	1738.73
751.56	1724.39
751.74	1671.14
751.92	1681.38
752.10	1695.72
752.28	1683.43
752.46	1687.53
752.64	1652.71
752.82	1677.29
753.00	1736.68
753.18	1679.33
753.35	1650.66
753.53	1673.19
753.71	1681.38
753.89	1681.38
754.07	1710.05
754.25	1730.53
754.43	1685.48
754.61	1638.38
754.79	1652.71
754.97	1722.34
755.14	1740.77
755.32	1644.52
755.50	1708.01
755.68	1673.19
755.86	1636.33
756.04	1648.61
756.22	1619.94
756.40	1798.12
756.57	1806.31
756.75	1681.38
756.93	1759.21
757.11	1748.97
757.29	1679.33
757.47	1648.61
757.65	1650.66
757.82	1628.14
758.00	1648.61
758.18	1611.75
758.36	1564.65
758.54	1781.73
758.72	1675.24
758.90	1746.92
759.07	1712.10
759.25	1591.27
759.43	1718.25
759.61	1648.61
759.79	2138.08
759.97	1742.82
760.15	1699.81
760.32	1679.33
760.50	1710.05
760.68	1841.12
760.86	1628.14
761.04	1724.39
761.22	1755.11
761.39	1767.40
761.57	1705.96
761.75	1669.09
761.93	1714.15
762.11	1665.00
762.28	1740.77
762.46	1677.29
762.64	1763.30
762.82	1636.33
763.00	1720.29
763.18	1736.68
763.35	1685.48
763.53	1765.35
763.71	1736.68
763.89	1652.71
764.07	1738.73
764.24	1669.09
764.42	1783.78
764.60	1652.71
764.78	1710.05
764.96	1716.20
765.13	1830.88
765.31	1677.29
765.49	1746.92
765.67	1607.66
765.84	1681.38
766.02	1654.76
766.20	1566.70
766.38	1648.61
766.56	1677.29
766.73	1808.36
766.91	1714.15
767.09	1773.54
767.27	1697.77
767.44	1673.19
767.62	1722.34
767.80	1732.58
767.98	1689.57
768.15	1738.73
768.33	1812.45
768.51	1683.43
768.69	1748.97
768.87	1718.25
769.04	1675.24
769.22	1853.41
769.40	1755.11
769.58	1816.55
769.75	1718.25
769.93	1843.17
770.11	1703.91
770.28	1669.09
770.46	1759.21
770.64	1710.05
770.82	1644.52
770.99	1646.57
771.17	1693.67
771.35	1662.95
771.53	1675.24
771.70	1722.34
771.88	1769.44
772.06	1656.81
772.23	1742.82
772.41	1730.53
772.59	1701.86
772.77	1656.81
772.94	1771.49
773.12	1738.73
773.30	1708.01
773.47	1693.67
773.65	1652.71
773.83	1818.60
774.01	1701.86
774.18	1624.04
774.36	1685.48
774.54	1581.03
774.71	1687.53
774.89	1564.65
775.07	1636.33
775.24	1685.48
775.42	1609.70
775.60	1751.01
775.78	1673.19
775.95	1621.99
776.13	1675.24
776.31	1605.61
776.48	1667.05
776.66	1658.85
776.84	1665.00
777.01	1671.14
777.19	1669.09
777.37	1624.04
777.54	1701.86
777.72	1767.40
777.90	1669.09
778.07	1589.22
778.25	1927.14
778.43	1785.83
778.60	1689.57
778.78	1714.15
778.96	1800.16
779.13	1564.65
779.31	1789.92
779.49	1697.77
779.66	1763.30
779.84	1673.19
780.01	1693.67
780.19	1613.80
780.37	1728.49
780.54	1787.88
780.72	1714.15
780.90	1671.14
781.07	1697.77
781.25	1648.61
781.43	1761.25
781.60	1705.96
781.78	1695.72
781.95	1646.57
782.13	1599.46
782.31	1671.14
782.48	1662.95
782.66	1619.94
782.83	1771.49
783.01	1681.38
783.19	1710.05
783.36	1648.61
783.54	1658.85
783.72	1705.96
783.89	1724.39
784.07	1740.77
784.24	1689.57
784.42	1873.89
784.60	1679.33
784.77	1712.10
784.95	1570.79
785.12	1632.23
785.30	1716.20
785.47	1701.86
785.65	1673.19
785.83	1683.43
786.00	1675.24
786.18	1658.85
786.35	1681.38
786.53	1724.39
786.71	1785.83
786.88	1744.87
787.06	1658.85
787.23	1646.57
787.41	1617.90
787.58	1726.44
787.76	1691.62
787.94	1738.73
788.11	1732.58
788.29	1656.81
788.46	1632.23
788.64	1648.61
788.81	1718.25
788.99	1576.94
789.16	1691.62
789.34	1685.48
789.52	1738.73
789.69	1634.28
789.87	1589.22
790.04	1556.46
790.22	1660.90
790.39	1771.49
790.57	1609.70
790.74	1677.29
790.92	1734.63
791.09	1646.57
791.27	1650.66
791.44	1851.36
791.62	1742.82
791.79	1699.81
791.97	1789.92
792.15	1859.56
792.32	1742.82
792.50	1730.53
792.67	1744.87
792.85	1738.73
793.02	1710.05
793.20	1617.90
793.37	1628.14
793.55	1705.96
793.72	1550.31
793.90	1673.19
794.07	1646.57
794.25	1644.52
794.42	1748.97
794.60	1667.05
794.77	1779.68
794.95	1771.49
795.12	1769.44
795.30	1693.67
795.47	1638.38
795.65	1859.56
795.82	1730.53
796.00	1681.38
796.17	1638.38
796.34	1734.63
796.52	1701.86
796.69	1683.43
796.87	1679.33
797.04	1650.66
797.22	1845.22
797.39	1697.77
797.57	1791.97
797.74	1650.66
797.92	1691.62
798.09	1796.07
798.27	1755.11
798.44	1730.53
798.62	1615.85
798.79	1689.57
798.96	1699.81
799.14	1708.01
799.31	1849.32
799.49	1693.67
799.66	1665.00
799.84	1634.28
800.01	1660.90
800.19	1693.67
800.36	1615.85
800.53	1689.57
800.71	1675.24
800.88	1742.82
801.06	1652.71
801.23	1693.67
801.41	1734.63
801.58	1660.90
801.75	1617.90
801.93	1763.30
802.10	1675.24
802.28	1638.38
802.45	1644.52
802.63	1767.40
802.80	1800.16
802.97	1673.19
803.15	1652.71
803.32	1642.47
803.50	1679.33
803.67	1656.81
803.84	1564.65
804.02	1681.38
804.19	1722.34
804.37	1538.02
804.54	1646.57
804.71	1662.95
804.89	1687.53
805.06	1652.71
805.24	1662.95
805.41	1650.66
805.58	1669.09
805.76	1855.46
805.93	1775.59
806.10	1730.53
806.28	1773.54
806.45	1802.21
806.63	1705.96
806.80	1656.81
806.97	1701.86
807.15	1751.01
807.32	1773.54
807.49	1681.38
807.67	1695.72
807.84	1714.15
808.01	1689.57
808.19	1738.73
808.36	1820.64
808.54	1599.46
808.71	1669.09
808.88	1712.10
809.06	1787.88
809.23	1800.16
809.40	1701.86
809.58	1732.58
809.75	1730.53
809.92	1619.94
810.10	1787.88
810.27	1681.38
810.44	1703.91
810.62	1816.55
810.79	1691.62
810.96	1681.38
811.14	1671.14
811.31	1734.63
811.48	1671.14
811.66	1673.19
811.83	1730.53
812.00	1705.96
812.18	1710.05
812.35	1845.22
812.52	1634.28
812.69	1673.19
812.87	1638.38
813.04	1753.06
813.21	1742.82
813.39	1576.94
813.56	1591.27
813.73	1712.10
813.91	1630.18
814.08	1708.01
814.25	1701.86
814.42	1654.76
814.60	1662.95
814.77	1720.29
814.94	1781.73
815.12	1746.92
815.29	1824.74
815.46	1636.33
815.63	1665.00
815.81	1662.95
815.98	1587.18
816.15	1669.09
816.33	1634.28
816.50	1634.28
816.67	1718.25
816.84	1726.44
817.02	1665.00
817.19	1624.04
817.36	1742.82
817.53	1722.34
817.71	1589.22
817.88	1716.20
818.05	1662.95
818.22	1675.24
818.40	1761.25
818.57	1652.71
818.74	1689.57
818.91	1710.05
819.09	1767.40
819.26	1781.73
819.43	1626.09
819.60	1679.33
819.78	1746.92
819.95	1808.36
820.12	1587.18
820.29	1746.92
820.47	1816.55
820.64	1677.29
820.81	1693.67
820.98	1669.09
821.15	1693.67
821.33	1794.02
821.50	1640.42
821.67	1759.21
821.84	1697.77
822.02	1652.71
822.19	1740.77
822.36	1691.62
822.53	1652.71
822.70	1605.61
822.88	1644.52
823.05	1787.88
823.22	1722.34
823.39	1667.05
823.56	1722.34
823.74	1820.64
823.91	1644.52
824.08	1626.09
824.25	1730.53
824.42	1728.49
824.60	1640.42
824.77	1693.67
824.94	1718.25
825.11	1675.24
825.28	1619.94
825.45	1687.53
825.63	1730.53
825.80	1658.85
825.97	1767.40
826.14	1716.20
826.31	1564.65
826.48	1683.43
826.66	1693.67
826.83	1652.71
827.00	1710.05
827.17	1636.33
827.34	1724.39
827.51	1621.99
827.69	1632.23
827.86	1662.95
828.03	1685.48
828.20	1636.33
828.37	1644.52
828.54	1759.21
828.71	1751.01
828.89	1804.26
829.06	1648.61
829.23	1767.40
829.40	1671.14
829.57	1673.19
829.74	1734.63
829.91	1732.58
830.09	1687.53
830.26	1728.49
830.43	1755.11
830.60	1744.87
830.77	1716.20
830.94	1789.92
831.11	1748.97
831.28	1665.00
831.46	1755.11
831.63	1644.52
831.80	1691.62
831.97	1634.28
832.14	1642.47
832.31	1720.29
832.48	1751.01
832.65	1763.30
832.82	1693.67
832.99	1714.15
833.17	1652.71
833.34	1708.01
833.51	1722.34
833.68	1607.66
833.85	1742.82
834.02	1652.71
834.19	1601.51
834.36	1693.67
834.53	1703.91
834.70	1769.44
834.87	1656.81
835.04	1660.90
835.22	1716.20
835.39	1693.67
835.56	1652.71
835.73	1683.43
835.90	1730.53
836.07	1675.24
836.24	1726.44
836.41	1593.32
836.58	1759.21
836.75	1710.05
836.92	1757.16
837.09	1632.23
837.26	1751.01
837.43	1667.05
837.60	1724.39
837.77	1697.77
837.94	1712.10
838.12	1718.25
838.29	1677.29
838.46	1640.42
838.63	1630.18
838.80	1812.45
838.97	1699.81
839.14	1777.64
839.31	1710.05
839.48	1662.95
839.65	1697.77
839.82	1751.01
839.99	1628.14
840.16	1746.92
840.33	1658.85
840.50	1654.76
840.67	1652.71
840.84	1611.75
841.01	1773.54
841.18	1621.99
841.35	1660.90
841.52	1832.93
841.69	1761.25
841.86	1748.97
842.03	1660.90
842.20	1708.01
842.37	1740.77
842.54	1699.81
842.71	1665.00
842.88	1714.15
843.05	1701.86
843.22	1681.38
843.39	1718.25
843.56	1699.81
843.73	1724.39
843.90	1683.43
844.07	1673.19
844.24	1648.61
844.41	1740.77
844.58	1744.87
844.75	1644.52
844.92	1746.92
845.09	1681.38
845.26	1722.34
845.43	1736.68
845.60	1632.23
845.77	1734.63
845.94	1724.39
846.10	1804.26
846.27	1585.13
846.44	1601.51
846.61	1589.22
846.78	1697.77
846.95	1763.30
847.12	1607.66
847.29	1710.05
847.46	1607.66
847.63	1730.53
847.80	1665.00
847.97	1675.24
848.14	1851.36
848.31	1673.19
848.48	1531.88
848.65	1681.38
848.82	1656.81
848.98	1853.41
849.15	1728.49
849.32	1787.88
849.49	1728.49
849.66	1726.44
849.83	1705.96
850.00	1630.18
850.17	1738.73
850.34	1705.96
850.51	1619.94
850.68	1697.77
850.85	1861.60
851.01	1726.44
851.18	1667.05
851.35	1724.39
851.52	1738.73
851.69	1808.36
851.86	1597.42
852.03	1617.90
852.20	1777.64
852.37	1667.05
852.53	1609.70
852.70	1763.30
852.87	1726.44
853.04	1759.21
853.21	1640.42
853.38	1708.01
853.55	1783.78
853.72	1753.06
853.89	1611.75
854.05	1693.67
854.22	1712.10
854.39	1697.77
854.56	1687.53
854.73	1845.22
854.90	1697.77
855.07	1716.20
855.23	1646.57
855.40	1714.15
855.57	1673.19
855.74	1550.31
855.91	1832.93
856.08	1593.32
856.25	1603.56
856.41	1658.85
856.58	1720.29
856.75	1732.58
856.92	1599.46
857.09	1730.53
857.26	1640.42
857.42	1773.54
857.59	1679.33
857.76	1681.38
857.93	1738.73
858.10	1685.48
858.27	1636.33
858.43	1757.16
858.60	1609.70
858.77	1689.57
858.94	1705.96
859.11	1730.53
859.27	1615.85
859.44	1650.66
859.61	1804.26
859.78	1718.25
859.95	1669.09
860.12	1683.43
860.28	1714.15
860.45	1757.16
860.62	1703.91
860.79	1732.58
860.95	1644.52
861.12	1665.00
861.29	1701.86
861.46	1724.39
861.63	1718.25
861.79	1701.86
861.96	1705.96
862.13	1685.48
862.30	1714.15
862.47	1658.85
862.63	1638.38
862.80	1712.10
862.97	1714.15
863.14	1759.21
863.30	1685.48
863.47	1722.34
863.64	1730.53
863.81	1687.53
863.97	1705.96
864.14	1609.70
864.31	1685.48
864.48	1726.44
864.65	1685.48
864.81	1697.77
864.98	1769.44
865.15	1708.01
865.32	1810.40
865.48	1714.15
865.65	1773.54
865.82	1697.77
865.98	1767.40
866.15	1732.58
866.32	1742.82
866.49	1697.77
866.65	1839.08
866.82	1710.05
866.99	1685.48
867.16	1624.04
867.32	1652.71
867.49	1708.01
867.66	1642.47
867.83	1691.62
867.99	1585.13
868.16	1685.48
868.33	1671.14
868.49	1699.81
868.66	1673.19
868.83	1728.49
868.99	1693.67
869.16	1681.38
869.33	1705.96
869.50	1761.25
869.66	1665.00
869.83	1630.18
870.00	1605.61
870.16	1763.30
870.33	1685.48
870.50	1681.38
870.66	1710.05
870.83	1755.11
871.00	1718.25
871.17	1732.58
871.33	1705.96
871.50	1763.30
871.67	1617.90
871.83	1630.18
872.00	1824.74
872.17	1624.04
872.33	1818.60
872.50	1777.64
872.67	1656.81
872.83	1581.03
873.00	1681.38
873.17	1644.52
873.33	1765.35
873.50	1656.81
873.67	1726.44
873.83	1646.57
874.00	1652.71
874.16	1695.72
874.33	1671.14
874.50	1634.28
874.66	1732.58
874.83	1648.61
875.00	1804.26
875.16	1751.01
875.33	1777.64
875.50	1544.17
875.66	1681.38
875.83	1722.34
875.99	1857.51
876.16	1718.25
876.33	1597.42
876.49	1705.96
876.66	1781.73
876.83	1646.57
876.99	1652.71
877.16	1701.86
877.32	1673.19
877.49	1669.09
877.66	1703.91
877.82	1816.55
877.99	1722.34
878.15	1730.53
878.32	1669.09
878.49	1771.49
878.65	1665.00
878.82	1863.65
878.98	1679.33
879.15	1722.34
879.32	1722.34
879.48	1644.52
879.65	1681.38
879.81	1730.53
879.98	1601.51
880.15	1599.46
880.31	1742.82
880.48	1638.38
880.64	1789.92
880.81	1656.81
880.97	1763.30
881.14	1732.58
881.31	1642.47
881.47	1798.12
881.64	1658.85
881.80	1599.46
881.97	1724.39
882.13	1701.86
882.30	1697.77
882.47	1667.05
882.63	1650.66
882.80	1701.86
882.96	1652.71
883.13	1732.58
883.29	1697.77
883.46	1705.96
883.62	1820.64
883.79	1748.97
883.95	1738.73
884.12	1648.61
884.29	1667.05
884.45	1687.53
884.62	1728.49
884.78	1617.90
884.95	1734.63
885.11	1566.70
885.28	1755.11
885.44	1695.72
885.61	1679.33
885.77	1800.16
885.94	1746.92
886.10	1628.14
886.27	1669.09
886.43	1781.73
886.60	1765.35
886.76	1697.77
886.93	1646.57
887.09	1667.05
887.26	1648.61
887.42	1767.40
887.59	1775.59
887.75	1742.82
887.92	1726.44
888.08	1738.73
888.25	1685.48
888.41	1681.38
888.58	1718.25
888.74	1662.95
888.91	1570.79
>>>>>End Processed Spectral Data<<<<<
