SpectraSuite Data File
++++++++++++++++++++++++++++++++++++
Date: Wed May 04 18:44:12 CEST 2016
User: root
Dark Spectrum Present: No
Reference Spectrum Present: No
Number of Sampled Component Spectra: 1
Spectrometers: USB4C02835
Integration Time (usec): 100000 (USB4C02835)
Spectra Averaged: 1 (USB4C02835)
Boxcar Smoothing: 0 (USB4C02835)
Correct for Electrical Dark: No (USB4C02835)
Strobe/Lamp Enabled: No (USB4C02835)
Correct for Detector Non-linearity: No (USB4C02835)
Correct for Stray Light: No (USB4C02835)
Number of Pixels in Processed Spectrum: 3648
>>>>>Begin Processed Spectral Data<<<<<
177.47	1517.54
177.69	1517.54
177.91	1517.54
178.13	1439.72
178.36	1468.39
178.58	1640.42
178.80	1775.59
179.02	1638.38
179.24	1634.28
179.46	1621.99
179.68	1679.33
179.90	1699.81
180.13	1626.09
180.35	1628.14
180.57	1705.96
180.79	1677.29
181.01	1648.61
181.23	1697.77
181.45	1779.68
181.67	1724.39
181.90	1816.55
182.12	1589.22
182.34	1650.66
182.56	1761.25
182.78	1669.09
183.00	1708.01
183.22	1734.63
183.44	1585.13
183.66	1884.13
183.89	1763.30
184.11	1769.44
184.33	1691.62
184.55	1746.92
184.77	1730.53
184.99	1628.14
185.21	1619.94
185.43	1816.55
185.65	1642.47
185.87	1746.92
186.10	1810.40
186.32	1841.12
186.54	1677.29
186.76	1746.92
186.98	1720.29
187.20	1679.33
187.42	1738.73
187.64	1660.90
187.86	1777.64
188.08	1757.16
188.30	1705.96
188.52	1818.60
188.75	1748.97
188.97	1757.16
189.19	1636.33
189.41	1779.68
189.63	1712.10
189.85	1693.67
190.07	1533.93
190.29	1574.89
190.51	1732.58
190.73	1619.94
190.95	1755.11
191.17	1675.24
191.39	1648.61
191.61	1656.81
191.84	1705.96
192.06	1728.49
192.28	1611.75
192.50	1834.98
192.72	1718.25
192.94	1660.90
193.16	1748.97
193.38	1712.10
193.60	1628.14
193.82	1681.38
194.04	1802.21
194.26	1650.66
194.48	1736.68
194.70	1695.72
194.92	1673.19
195.14	1712.10
195.36	1648.61
195.58	1679.33
195.80	1693.67
196.02	1665.00
196.24	1728.49
196.46	1732.58
196.69	1611.75
196.91	1902.56
197.13	1783.78
197.35	1685.48
197.57	1791.97
197.79	1720.29
198.01	1652.71
198.23	1722.34
198.45	1689.57
198.67	1611.75
198.89	1677.29
199.11	1705.96
199.33	1703.91
199.55	1568.74
199.77	1605.61
199.99	1794.02
200.21	1689.57
200.43	1705.96
200.65	1593.32
200.87	1634.28
201.09	1769.44
201.31	1648.61
201.53	1779.68
201.75	1757.16
201.97	1685.48
202.19	1796.07
202.41	1726.44
202.63	1785.83
202.85	1710.05
203.07	1697.77
203.29	1708.01
203.51	1703.91
203.73	1658.85
203.95	1837.03
204.17	1685.48
204.39	1751.01
204.61	1724.39
204.83	1626.09
205.05	1787.88
205.27	1697.77
205.49	1841.12
205.71	1701.86
205.93	1665.00
206.15	1558.50
206.37	1769.44
206.59	1685.48
206.81	1667.05
207.03	1640.42
207.25	1769.44
207.47	1761.25
207.69	1746.92
207.91	1765.35
208.13	1730.53
208.34	1675.24
208.56	1734.63
208.78	1679.33
209.00	1695.72
209.22	1650.66
209.44	1677.29
209.66	1650.66
209.88	1732.58
210.10	1632.23
210.32	1673.19
210.54	1740.77
210.76	1722.34
210.98	1798.12
211.20	1513.45
211.42	1691.62
211.64	1763.30
211.86	1765.35
212.08	1693.67
212.30	1648.61
212.52	1685.48
212.74	1753.06
212.96	1714.15
213.17	1738.73
213.39	1751.01
213.61	1736.68
213.83	1781.73
214.05	1714.15
214.27	1718.25
214.49	1675.24
214.71	1701.86
214.93	1796.07
215.15	1679.33
215.37	1746.92
215.59	1660.90
215.81	1783.78
216.03	1699.81
216.24	1765.35
216.46	1720.29
216.68	1685.48
216.90	1738.73
217.12	1734.63
217.34	1703.91
217.56	1695.72
217.78	1830.88
218.00	1730.53
218.22	1765.35
218.44	1781.73
218.66	1636.33
218.87	1779.68
219.09	1726.44
219.31	1708.01
219.53	1845.22
219.75	1712.10
219.97	1632.23
220.19	1687.53
220.41	1677.29
220.63	1869.80
220.85	1734.63
221.06	1689.57
221.28	1773.54
221.50	1761.25
221.72	1703.91
221.94	1748.97
222.16	1771.49
222.38	1726.44
222.60	1724.39
222.82	1755.11
223.03	1781.73
223.25	1597.42
223.47	1765.35
223.69	1808.36
223.91	1722.34
224.13	1699.81
224.35	1693.67
224.57	1771.49
224.78	1781.73
225.00	1742.82
225.22	1708.01
225.44	1722.34
225.66	1742.82
225.88	1712.10
226.10	1804.26
226.32	1632.23
226.53	1759.21
226.75	1648.61
226.97	1748.97
227.19	1708.01
227.41	1671.14
227.63	1658.85
227.85	1656.81
228.06	1685.48
228.28	1728.49
228.50	1753.06
228.72	1671.14
228.94	1675.24
229.16	1609.70
229.37	1701.86
229.59	1683.43
229.81	1769.44
230.03	1710.05
230.25	1630.18
230.47	1636.33
230.69	1665.00
230.90	1742.82
231.12	1677.29
231.34	1726.44
231.56	1808.36
231.78	1685.48
232.00	1712.10
232.21	1646.57
232.43	1738.73
232.65	1624.04
232.87	1722.34
233.09	1630.18
233.30	1665.00
233.52	1832.93
233.74	1689.57
233.96	1710.05
234.18	1751.01
234.40	1656.81
234.61	1736.68
234.83	1650.66
235.05	1597.42
235.27	1824.74
235.49	1777.64
235.70	1748.97
235.92	1781.73
236.14	1669.09
236.36	1804.26
236.58	1646.57
236.79	1746.92
237.01	1691.62
237.23	1658.85
237.45	1746.92
237.67	1613.80
237.88	1636.33
238.10	1832.93
238.32	1669.09
238.54	1714.15
238.76	1718.25
238.97	1714.15
239.19	1722.34
239.41	1742.82
239.63	1775.59
239.85	1705.96
240.06	1632.23
240.28	1695.72
240.50	1820.64
240.72	1712.10
240.93	1658.85
241.15	1859.56
241.37	1658.85
241.59	1742.82
241.81	1691.62
242.02	1683.43
242.24	1755.11
242.46	1705.96
242.68	1740.77
242.89	1716.20
243.11	1757.16
243.33	1703.91
243.55	1773.54
243.76	1734.63
243.98	1802.21
244.20	1693.67
244.42	1712.10
244.64	1673.19
244.85	1609.70
245.07	1638.38
245.29	1806.31
245.51	1751.01
245.72	1697.77
245.94	1783.78
246.16	1738.73
246.38	1781.73
246.59	1697.77
246.81	1644.52
247.03	1654.76
247.24	1558.50
247.46	1718.25
247.68	1714.15
247.90	1681.38
248.11	1705.96
248.33	1746.92
248.55	1708.01
248.77	1722.34
248.98	1767.40
249.20	1771.49
249.42	1697.77
249.64	1718.25
249.85	1638.38
250.07	1681.38
250.29	1662.95
250.50	1697.77
250.72	1605.61
250.94	1744.87
251.16	1759.21
251.37	1773.54
251.59	1726.44
251.81	1771.49
252.02	1787.88
252.24	1605.61
252.46	1820.64
252.68	1624.04
252.89	1671.14
253.11	1589.22
253.33	1841.12
253.54	1701.86
253.76	1640.42
253.98	1693.67
254.20	1734.63
254.41	1611.75
254.63	1732.58
254.85	1665.00
255.06	1712.10
255.28	1697.77
255.50	1632.23
255.71	1681.38
255.93	1599.46
256.15	1673.19
256.36	1720.29
256.58	1665.00
256.80	1689.57
257.02	1644.52
257.23	1619.94
257.45	1662.95
257.67	1705.96
257.88	1693.67
258.10	1718.25
258.32	1718.25
258.53	1665.00
258.75	1767.40
258.97	1665.00
259.18	1716.20
259.40	1777.64
259.62	1806.31
259.83	1703.91
260.05	1781.73
260.27	1959.91
260.48	1789.92
260.70	1542.12
260.92	1693.67
261.13	1761.25
261.35	1785.83
261.57	1732.58
261.78	1667.05
262.00	1597.42
262.22	1720.29
262.43	1695.72
262.65	1648.61
262.86	1751.01
263.08	1834.98
263.30	1691.62
263.51	1630.18
263.73	1705.96
263.95	1767.40
264.16	1640.42
264.38	1605.61
264.60	1689.57
264.81	1646.57
265.03	1660.90
265.25	1753.06
265.46	1751.01
265.68	1736.68
265.89	1699.81
266.11	1615.85
266.33	1738.73
266.54	1724.39
266.76	1716.20
266.98	1804.26
267.19	1777.64
267.41	1746.92
267.62	1773.54
267.84	1685.48
268.06	1757.16
268.27	1691.62
268.49	1734.63
268.70	1751.01
268.92	1665.00
269.14	1617.90
269.35	1660.90
269.57	1613.80
269.79	1769.44
270.00	1585.13
270.22	1716.20
270.43	1689.57
270.65	1609.70
270.87	1738.73
271.08	1757.16
271.30	1798.12
271.51	1720.29
271.73	1722.34
271.95	1791.97
272.16	1681.38
272.38	1740.77
272.59	1720.29
272.81	1751.01
273.02	1708.01
273.24	1677.29
273.46	1763.30
273.67	1685.48
273.89	1697.77
274.10	1583.08
274.32	1740.77
274.54	1689.57
274.75	1798.12
274.97	1632.23
275.18	1751.01
275.40	1767.40
275.61	1708.01
275.83	1837.03
276.05	1656.81
276.26	1755.11
276.48	1777.64
276.69	1667.05
276.91	1681.38
277.12	1791.97
277.34	1777.64
277.55	1673.19
277.77	1730.53
277.99	1665.00
278.20	1640.42
278.42	1673.19
278.63	1656.81
278.85	1699.81
279.06	1677.29
279.28	1677.29
279.49	1748.97
279.71	1685.48
279.93	1654.76
280.14	1646.57
280.36	1652.71
280.57	1769.44
280.79	1783.78
281.00	1699.81
281.22	1675.24
281.43	1740.77
281.65	1591.27
281.86	1736.68
282.08	1685.48
282.29	1796.07
282.51	1607.66
282.73	1675.24
282.94	1640.42
283.16	1757.16
283.37	1771.49
283.59	1687.53
283.80	1822.69
284.02	1783.78
284.23	1748.97
284.45	1685.48
284.66	1705.96
284.88	1638.38
285.09	1642.47
285.31	1804.26
285.52	1802.21
285.74	1624.04
285.95	1785.83
286.17	1710.05
286.38	1763.30
286.60	1654.76
286.81	1732.58
287.03	1734.63
287.24	1779.68
287.46	1753.06
287.67	1652.71
287.89	1722.34
288.10	1746.92
288.32	1695.72
288.53	1777.64
288.75	1794.02
288.96	1705.96
289.18	1626.09
289.39	1714.15
289.61	1695.72
289.82	1820.64
290.04	1830.88
290.25	1648.61
290.47	1751.01
290.68	1724.39
290.90	1728.49
291.11	1640.42
291.33	1691.62
291.54	1638.38
291.76	1638.38
291.97	1693.67
292.18	1722.34
292.40	1662.95
292.61	1722.34
292.83	1800.16
293.04	1705.96
293.26	1697.77
293.47	1687.53
293.69	1691.62
293.90	1685.48
294.12	1824.74
294.33	1679.33
294.55	1662.95
294.76	1716.20
294.97	1771.49
295.19	1918.95
295.40	1726.44
295.62	1787.88
295.83	1816.55
296.05	1693.67
296.26	1787.88
296.48	1566.70
296.69	1648.61
296.90	1755.11
297.12	1761.25
297.33	1730.53
297.55	1699.81
297.76	1753.06
297.98	1763.30
298.19	1708.01
298.41	1771.49
298.62	1748.97
298.83	1849.32
299.05	1660.90
299.26	1642.47
299.48	1728.49
299.69	1720.29
299.90	1599.46
300.12	1640.42
300.33	1710.05
300.55	1765.35
300.76	1724.39
300.98	1593.32
301.19	1720.29
301.40	1665.00
301.62	1687.53
301.83	1748.97
302.05	1712.10
302.26	1728.49
302.47	1722.34
302.69	1697.77
302.90	1738.73
303.12	1650.66
303.33	1808.36
303.54	1775.59
303.76	1640.42
303.97	1728.49
304.19	1779.68
304.40	1613.80
304.61	1740.77
304.83	1800.16
305.04	1800.16
305.26	1740.77
305.47	1748.97
305.68	1677.29
305.90	1583.08
306.11	1742.82
306.33	1609.70
306.54	1701.86
306.75	1644.52
306.97	1644.52
307.18	1640.42
307.39	1708.01
307.61	1753.06
307.82	1722.34
308.04	1726.44
308.25	1617.90
308.46	1738.73
308.68	1701.86
308.89	1693.67
309.10	1794.02
309.32	1718.25
309.53	1753.06
309.74	1671.14
309.96	1693.67
310.17	1798.12
310.39	1646.57
310.60	1761.25
310.81	1720.29
311.03	1603.56
311.24	1669.09
311.45	1695.72
311.67	1859.56
311.88	1732.58
312.09	1636.33
312.31	1720.29
312.52	1691.62
312.73	1687.53
312.95	1673.19
313.16	1648.61
313.37	1755.11
313.59	1767.40
313.80	1746.92
314.01	1787.88
314.23	1658.85
314.44	1677.29
314.65	1640.42
314.87	1738.73
315.08	1689.57
315.29	1650.66
315.51	1656.81
315.72	1566.70
315.93	1777.64
316.15	1718.25
316.36	1673.19
316.57	1705.96
316.79	1716.20
317.00	1642.47
317.21	1742.82
317.43	1689.57
317.64	1759.21
317.85	1685.48
318.07	1675.24
318.28	1816.55
318.49	1834.98
318.70	1894.37
318.92	1906.66
319.13	1892.32
319.34	1910.75
319.56	1798.12
319.77	1925.09
319.98	1845.22
320.20	1851.36
320.41	1773.54
320.62	1718.25
320.83	1771.49
321.05	1959.91
321.26	1732.58
321.47	1769.44
321.69	1691.62
321.90	1642.47
322.11	1615.85
322.32	1654.76
322.54	1671.14
322.75	1689.57
322.96	1796.07
323.18	1644.52
323.39	1632.23
323.60	1640.42
323.81	1798.12
324.03	1679.33
324.24	1679.33
324.45	1779.68
324.66	1732.58
324.88	1767.40
325.09	1720.29
325.30	1787.88
325.52	1701.86
325.73	1613.80
325.94	1652.71
326.15	1667.05
326.37	1601.51
326.58	1767.40
326.79	1712.10
327.00	1654.76
327.22	1683.43
327.43	1652.71
327.64	1626.09
327.85	1761.25
328.07	1695.72
328.28	1736.68
328.49	1736.68
328.70	1699.81
328.92	1728.49
329.13	1710.05
329.34	1738.73
329.55	1787.88
329.76	1728.49
329.98	1585.13
330.19	1806.31
330.40	1763.30
330.61	1656.81
330.83	1767.40
331.04	1605.61
331.25	1746.92
331.46	1701.86
331.68	1642.47
331.89	1718.25
332.10	1710.05
332.31	1626.09
332.52	1712.10
332.74	1783.78
332.95	1673.19
333.16	1671.14
333.37	1722.34
333.58	1665.00
333.80	1755.11
334.01	1587.18
334.22	1714.15
334.43	1673.19
334.64	1677.29
334.86	1624.04
335.07	1701.86
335.28	1751.01
335.49	1632.23
335.70	1695.72
335.92	1787.88
336.13	1871.84
336.34	1796.07
336.55	1708.01
336.76	1751.01
336.98	1609.70
337.19	1705.96
337.40	1806.31
337.61	1773.54
337.82	1724.39
338.04	1697.77
338.25	1607.66
338.46	1621.99
338.67	1681.38
338.88	1640.42
339.09	1636.33
339.31	1652.71
339.52	1607.66
339.73	1644.52
339.94	1732.58
340.15	1779.68
340.36	1683.43
340.58	1681.38
340.79	1646.57
341.00	1705.96
341.21	1638.38
341.42	1808.36
341.63	1726.44
341.85	1748.97
342.06	1755.11
342.27	1601.51
342.48	1703.91
342.69	1689.57
342.90	1757.16
343.12	1783.78
343.33	1681.38
343.54	1662.95
343.75	1755.11
343.96	1652.71
344.17	1697.77
344.38	1732.58
344.60	1679.33
344.81	1669.09
345.02	1677.29
345.23	1722.34
345.44	1847.27
345.65	1802.21
345.86	1769.44
346.07	1712.10
346.29	1671.14
346.50	1763.30
346.71	1736.68
346.92	1863.65
347.13	1779.68
347.34	1734.63
347.55	1718.25
347.76	1726.44
347.98	1626.09
348.19	1730.53
348.40	1812.45
348.61	1685.48
348.82	1804.26
349.03	1769.44
349.24	1650.66
349.45	1820.64
349.66	1601.51
349.88	1710.05
350.09	1574.89
350.30	1765.35
350.51	1841.12
350.72	1679.33
350.93	1718.25
351.14	1751.01
351.35	1755.11
351.56	1730.53
351.77	1746.92
351.99	1726.44
352.20	1812.45
352.41	1804.26
352.62	1626.09
352.83	1738.73
353.04	1701.86
353.25	1710.05
353.46	1820.64
353.67	1726.44
353.88	1644.52
354.09	1728.49
354.30	1730.53
354.52	1755.11
354.73	1685.48
354.94	1761.25
355.15	1703.91
355.36	1761.25
355.57	1708.01
355.78	1718.25
355.99	1652.71
356.20	1677.29
356.41	1785.83
356.62	1695.72
356.83	1687.53
357.04	1800.16
357.25	1685.48
357.46	1671.14
357.68	1642.47
357.89	1619.94
358.10	1642.47
358.31	1730.53
358.52	1679.33
358.73	1667.05
358.94	1683.43
359.15	1611.75
359.36	1708.01
359.57	1665.00
359.78	1636.33
359.99	1722.34
360.20	1650.66
360.41	1724.39
360.62	1761.25
360.83	1710.05
361.04	1712.10
361.25	1673.19
361.46	1791.97
361.67	1710.05
361.88	1712.10
362.09	1783.78
362.30	1832.93
362.51	1667.05
362.72	1708.01
362.93	1703.91
363.14	1798.12
363.35	1746.92
363.56	1701.86
363.78	1781.73
363.99	1716.20
364.20	1675.24
364.41	1667.05
364.62	1847.27
364.83	1681.38
365.04	1669.09
365.25	1740.77
365.46	1808.36
365.67	1691.62
365.88	1744.87
366.09	1665.00
366.30	1642.47
366.51	1701.86
366.72	1673.19
366.93	1679.33
367.14	1628.14
367.35	1773.54
367.56	1660.90
367.77	1796.07
367.98	1705.96
368.18	1751.01
368.39	1716.20
368.60	1691.62
368.81	1726.44
369.02	1781.73
369.23	1667.05
369.44	1619.94
369.65	1665.00
369.86	1681.38
370.07	1779.68
370.28	1656.81
370.49	1705.96
370.70	1761.25
370.91	1710.05
371.12	1628.14
371.33	1845.22
371.54	1669.09
371.75	1806.31
371.96	1576.94
372.17	1646.57
372.38	1716.20
372.59	1656.81
372.80	1726.44
373.01	1656.81
373.22	1712.10
373.43	1660.90
373.64	1685.48
373.85	1820.64
374.06	1855.46
374.26	1763.30
374.47	1738.73
374.68	1767.40
374.89	1681.38
375.10	1652.71
375.31	1757.16
375.52	1673.19
375.73	1658.85
375.94	1652.71
376.15	1812.45
376.36	1675.24
376.57	1708.01
376.78	1669.09
376.99	1673.19
377.20	1841.12
377.40	1699.81
377.61	1843.17
377.82	1742.82
378.03	1703.91
378.24	1740.77
378.45	1685.48
378.66	1710.05
378.87	1611.75
379.08	1654.76
379.29	1730.53
379.50	1814.50
379.71	1681.38
379.91	1722.34
380.12	1642.47
380.33	1689.57
380.54	1767.40
380.75	1732.58
380.96	1687.53
381.17	1787.88
381.38	1763.30
381.59	1732.58
381.80	1781.73
382.00	1812.45
382.21	1804.26
382.42	1839.08
382.63	1873.89
382.84	1800.16
383.05	1785.83
383.26	1877.99
383.47	1771.49
383.68	1796.07
383.88	1771.49
384.09	1736.68
384.30	1740.77
384.51	1765.35
384.72	1796.07
384.93	1665.00
385.14	1697.77
385.35	1728.49
385.55	1636.33
385.76	1757.16
385.97	1712.10
386.18	1615.85
386.39	1658.85
386.60	1742.82
386.81	1699.81
387.02	1681.38
387.22	1662.95
387.43	1837.03
387.64	1904.61
387.85	1898.47
388.06	2232.29
388.27	4755.38
388.48	9107.32
388.68	11568.98
388.89	13594.42
389.10	14014.25
389.31	11839.31
389.52	9844.59
389.73	8568.70
389.93	7776.14
390.14	7153.55
390.35	6563.74
390.56	6072.23
390.77	4872.12
390.98	3901.38
391.18	3024.85
391.39	2408.41
391.60	1947.62
391.81	1929.19
392.02	1783.78
392.23	1796.07
392.43	1708.01
392.64	1802.21
392.85	1675.24
393.06	1785.83
393.27	1667.05
393.47	1701.86
393.68	1802.21
393.89	1708.01
394.10	1828.84
394.31	1753.06
394.52	1673.19
394.72	1710.05
394.93	1779.68
395.14	1630.18
395.35	1712.10
395.56	1738.73
395.76	1748.97
395.97	1794.02
396.18	1859.56
396.39	1863.65
396.60	2101.22
396.80	1939.43
397.01	1853.41
397.22	1931.23
397.43	1910.75
397.64	1730.53
397.84	1783.78
398.05	1888.23
398.26	1808.36
398.47	1755.11
398.67	1845.22
398.88	1689.57
399.09	1736.68
399.30	1669.09
399.51	1810.40
399.71	1677.29
399.92	1662.95
400.13	1656.81
400.34	1748.97
400.54	1691.62
400.75	1808.36
400.96	1685.48
401.17	1779.68
401.37	1705.96
401.58	1646.57
401.79	1654.76
402.00	1929.19
402.21	2037.73
402.41	2068.45
402.62	2107.36
402.83	2224.09
403.04	2140.13
403.24	2168.80
403.45	1820.64
403.66	2019.30
403.87	1880.04
404.07	1996.77
404.28	2009.06
404.49	1884.13
404.70	1847.27
404.90	1804.26
405.11	1783.78
405.32	1806.31
405.52	1656.81
405.73	1642.47
405.94	1697.77
406.15	1685.48
406.35	1785.83
406.56	1753.06
406.77	1695.72
406.98	1771.49
407.18	1730.53
407.39	1800.16
407.60	1685.48
407.80	1669.09
408.01	1703.91
408.22	1726.44
408.43	1581.03
408.63	1697.77
408.84	1730.53
409.05	1742.82
409.25	1697.77
409.46	1605.61
409.67	1705.96
409.88	1652.71
410.08	1718.25
410.29	1724.39
410.50	1703.91
410.70	1732.58
410.91	1730.53
411.12	1695.72
411.32	1644.52
411.53	1796.07
411.74	1824.74
411.95	1830.88
412.15	1732.58
412.36	1820.64
412.57	1771.49
412.77	1812.45
412.98	1746.92
413.19	1771.49
413.39	1710.05
413.60	1716.20
413.81	1810.40
414.01	1683.43
414.22	1748.97
414.43	1826.79
414.63	1802.21
414.84	1796.07
415.05	1767.40
415.25	1626.09
415.46	1746.92
415.67	1660.90
415.87	1816.55
416.08	1705.96
416.29	1716.20
416.49	1789.92
416.70	1746.92
416.91	1726.44
417.11	1697.77
417.32	1722.34
417.53	1812.45
417.73	1677.29
417.94	1734.63
418.15	1728.49
418.35	1730.53
418.56	1658.85
418.77	1787.88
418.97	1693.67
419.18	1730.53
419.38	1640.42
419.59	1683.43
419.80	1820.64
420.00	1660.90
420.21	1730.53
420.42	1814.50
420.62	1699.81
420.83	1650.66
421.04	1724.39
421.24	1722.34
421.45	1755.11
421.65	1775.59
421.86	1675.24
422.07	1755.11
422.27	1673.19
422.48	1675.24
422.69	1574.89
422.89	1671.14
423.10	1720.29
423.30	1605.61
423.51	1720.29
423.72	1728.49
423.92	1796.07
424.13	1755.11
424.33	1722.34
424.54	1738.73
424.75	1777.64
424.95	1869.80
425.16	1812.45
425.36	1656.81
425.57	1775.59
425.78	1769.44
425.98	1648.61
426.19	1736.68
426.39	1642.47
426.60	1783.78
426.81	1773.54
427.01	1781.73
427.22	1652.71
427.42	1671.14
427.63	1628.14
427.83	1759.21
428.04	1802.21
428.25	1839.08
428.45	1777.64
428.66	1705.96
428.86	1662.95
429.07	1724.39
429.28	1687.53
429.48	1744.87
429.69	1646.57
429.89	1712.10
430.10	1660.90
430.30	1744.87
430.51	1775.59
430.71	1640.42
430.92	1669.09
431.13	1665.00
431.33	1732.58
431.54	1826.79
431.74	1798.12
431.95	1857.51
432.15	1646.57
432.36	1834.98
432.56	1722.34
432.77	1726.44
432.98	1785.83
433.18	1730.53
433.39	1726.44
433.59	1695.72
433.80	1869.80
434.00	1834.98
434.21	1660.90
434.41	1665.00
434.62	1863.65
434.82	1665.00
435.03	1644.52
435.23	1777.64
435.44	1626.09
435.64	1718.25
435.85	1777.64
436.06	1744.87
436.26	1763.30
436.47	1724.39
436.67	1644.52
436.88	1724.39
437.08	1783.78
437.29	1777.64
437.49	1722.34
437.70	1812.45
437.90	1726.44
438.11	1877.99
438.31	1773.54
438.52	1875.94
438.72	1918.95
438.93	1970.15
439.13	1804.26
439.34	1888.23
439.54	1781.73
439.75	1896.42
439.95	1804.26
440.16	1693.67
440.36	1732.58
440.57	1859.56
440.77	1757.16
440.98	1728.49
441.18	1705.96
441.39	1683.43
441.59	1708.01
441.80	1818.60
442.00	1677.29
442.21	1808.36
442.41	1667.05
442.62	1798.12
442.82	1730.53
443.02	1779.68
443.23	1744.87
443.43	1748.97
443.64	1822.69
443.84	1703.91
444.05	1775.59
444.25	1720.29
444.46	1705.96
444.66	1769.44
444.87	1826.79
445.07	1613.80
445.28	1744.87
445.48	1861.60
445.69	1710.05
445.89	1851.36
446.09	1791.97
446.30	1972.19
446.50	2586.58
446.71	4171.71
446.91	5240.75
447.12	5756.84
447.32	5982.12
447.53	5203.89
447.73	4276.16
447.93	3944.39
448.14	3704.78
448.34	3448.78
448.55	3037.14
448.75	3090.38
448.96	2934.74
449.16	2691.03
449.36	2498.52
449.57	2119.65
449.77	1902.56
449.98	1710.05
450.18	1777.64
450.39	1781.73
450.59	1794.02
450.79	1742.82
451.00	1722.34
451.20	1712.10
451.41	1734.63
451.61	1724.39
451.81	1695.72
452.02	1738.73
452.22	1679.33
452.43	1753.06
452.63	1695.72
452.84	1703.91
453.04	1699.81
453.24	1720.29
453.45	1775.59
453.65	1757.16
453.86	1763.30
454.06	1718.25
454.26	1781.73
454.47	1630.18
454.67	1806.31
454.87	1736.68
455.08	1677.29
455.28	1904.61
455.49	1783.78
455.69	1679.33
455.89	1810.40
456.10	1781.73
456.30	1697.77
456.51	1730.53
456.71	1724.39
456.91	1777.64
457.12	1789.92
457.32	1763.30
457.52	1714.15
457.73	1851.36
457.93	1777.64
458.14	1683.43
458.34	1701.86
458.54	1744.87
458.75	1705.96
458.95	1759.21
459.15	1751.01
459.36	1767.40
459.56	1791.97
459.76	1918.95
459.97	1761.25
460.17	1714.15
460.37	1804.26
460.58	1728.49
460.78	1699.81
460.99	1726.44
461.19	1742.82
461.39	1677.29
461.60	1656.81
461.80	1794.02
462.00	1665.00
462.21	1763.30
462.41	1693.67
462.61	1693.67
462.82	1650.66
463.02	1759.21
463.22	1712.10
463.43	1779.68
463.63	1675.24
463.83	1812.45
464.04	1746.92
464.24	1714.15
464.44	1693.67
464.64	1771.49
464.85	1771.49
465.05	1785.83
465.25	1697.77
465.46	1736.68
465.66	1773.54
465.86	1800.16
466.07	1691.62
466.27	1777.64
466.47	1773.54
466.68	1652.71
466.88	1785.83
467.08	1816.55
467.29	1806.31
467.49	1742.82
467.69	1751.01
467.89	1785.83
468.10	1740.77
468.30	1753.06
468.50	1798.12
468.71	1720.29
468.91	1722.34
469.11	1839.08
469.31	1775.59
469.52	1701.86
469.72	1830.88
469.92	1830.88
470.13	1699.81
470.33	1724.39
470.53	1863.65
470.73	2107.36
470.94	2523.10
471.14	2736.09
471.34	2992.08
471.54	2918.36
471.75	2533.34
471.95	2435.03
472.15	2287.58
472.36	2150.37
472.56	2242.53
472.76	2152.42
472.96	2195.42
473.17	2041.82
473.37	2062.30
473.57	1925.09
473.77	1820.64
473.98	1802.21
474.18	1693.67
474.38	1896.42
474.58	1728.49
474.79	1730.53
474.99	1787.88
475.19	1824.74
475.39	1662.95
475.60	1789.92
475.80	1665.00
476.00	1787.88
476.20	1656.81
476.41	1699.81
476.61	1859.56
476.81	1863.65
477.01	1697.77
477.21	1820.64
477.42	1779.68
477.62	1646.57
477.82	1681.38
478.02	1708.01
478.23	1716.20
478.43	1646.57
478.63	1703.91
478.83	1701.86
479.03	1718.25
479.24	1755.11
479.44	1855.46
479.64	1724.39
479.84	1671.14
480.04	1679.33
480.25	1738.73
480.45	1667.05
480.65	1736.68
480.85	1730.53
481.06	1699.81
481.26	1742.82
481.46	1673.19
481.66	1722.34
481.86	1677.29
482.06	1789.92
482.27	1660.90
482.47	1710.05
482.67	1777.64
482.87	1662.95
483.07	1824.74
483.28	1648.61
483.48	1665.00
483.68	1759.21
483.88	1742.82
484.08	1603.56
484.29	1679.33
484.49	1740.77
484.69	1701.86
484.89	1830.88
485.09	1744.87
485.29	1810.40
485.50	1699.81
485.70	1724.39
485.90	1781.73
486.10	1701.86
486.30	1650.66
486.50	1775.59
486.71	1675.24
486.91	1722.34
487.11	1761.25
487.31	1644.52
487.51	1722.34
487.71	1744.87
487.91	1695.72
488.12	1683.43
488.32	1593.32
488.52	1656.81
488.72	1609.70
488.92	1771.49
489.12	1787.88
489.32	1796.07
489.53	1730.53
489.73	1630.18
489.93	1853.41
490.13	1681.38
490.33	1617.90
490.53	1834.98
490.73	1787.88
490.94	1621.99
491.14	1787.88
491.34	1820.64
491.54	2117.60
491.74	2688.98
491.94	3223.50
492.14	3526.60
492.34	3542.99
492.54	3213.26
492.75	2705.37
492.95	2664.41
493.15	2441.18
493.35	2418.65
493.55	2377.69
493.75	2146.27
493.95	2133.98
494.15	2129.89
494.35	1920.99
494.56	1931.23
494.76	1779.68
494.96	1701.86
495.16	1806.31
495.36	1783.78
495.56	1718.25
495.76	1769.44
495.96	1730.53
496.16	1691.62
496.36	1841.12
496.56	1781.73
496.77	1779.68
496.97	1796.07
497.17	1759.21
497.37	1697.77
497.57	1779.68
497.77	1697.77
497.97	1722.34
498.17	1683.43
498.37	1740.77
498.57	1751.01
498.77	1785.83
498.97	1660.90
499.17	1812.45
499.38	1699.81
499.58	1693.67
499.78	1820.64
499.98	1869.80
500.18	1730.53
500.38	1697.77
500.58	1892.32
500.78	2402.27
500.98	4544.44
501.18	6510.49
501.38	8097.67
501.58	8996.73
501.78	8742.78
501.98	7012.24
502.18	5799.85
502.38	5078.96
502.58	4515.77
502.78	3958.72
502.98	4048.83
503.18	3837.89
503.38	3512.27
503.59	3145.68
503.79	2959.31
503.99	2674.65
504.19	2428.89
504.39	2389.98
504.59	2439.13
504.79	2326.49
504.99	2332.64
505.19	2121.70
505.39	2021.35
505.59	1970.15
505.79	1943.52
505.99	1884.13
506.19	1906.66
506.39	1873.89
506.59	1832.93
506.79	1806.31
506.99	1746.92
507.19	1789.92
507.39	1789.92
507.59	1609.70
507.79	1759.21
507.99	1667.05
508.19	1751.01
508.39	1810.40
508.59	1730.53
508.79	1828.84
508.99	1843.17
509.19	1708.01
509.39	1736.68
509.59	1693.67
509.79	1730.53
509.99	1658.85
510.19	1775.59
510.39	1806.31
510.59	1773.54
510.79	1720.29
510.99	1632.23
511.19	1761.25
511.39	1822.69
511.59	1824.74
511.79	1724.39
511.99	1701.86
512.19	1751.01
512.38	1816.55
512.58	1697.77
512.78	1708.01
512.98	1738.73
513.18	1789.92
513.38	1615.85
513.58	1769.44
513.78	1634.28
513.98	1798.12
514.18	1679.33
514.38	1791.97
514.58	1691.62
514.78	1644.52
514.98	1650.66
515.18	1748.97
515.38	1632.23
515.58	1810.40
515.78	1714.15
515.98	1785.83
516.18	1814.50
516.38	1665.00
516.57	1734.63
516.77	1763.30
516.97	1732.58
517.17	1765.35
517.37	1644.52
517.57	1757.16
517.77	1724.39
517.97	1656.81
518.17	1751.01
518.37	1648.61
518.57	1718.25
518.77	1705.96
518.97	1716.20
519.16	1806.31
519.36	1798.12
519.56	1742.82
519.76	1701.86
519.96	1777.64
520.16	1822.69
520.36	1708.01
520.56	1796.07
520.76	1732.58
520.96	1691.62
521.16	1859.56
521.35	1775.59
521.55	1843.17
521.75	1781.73
521.95	1708.01
522.15	1759.21
522.35	1587.18
522.55	1720.29
522.75	1779.68
522.95	1681.38
523.14	1697.77
523.34	1720.29
523.54	1691.62
523.74	1777.64
523.94	1751.01
524.14	1708.01
524.34	1763.30
524.54	1861.60
524.73	1611.75
524.93	1810.40
525.13	1738.73
525.33	1626.09
525.53	1855.46
525.73	1820.64
525.93	1773.54
526.13	1732.58
526.32	1710.05
526.52	1779.68
526.72	1845.22
526.92	1742.82
527.12	1724.39
527.32	1683.43
527.52	1771.49
527.71	1773.54
527.91	1699.81
528.11	1710.05
528.31	1753.06
528.51	1697.77
528.71	1748.97
528.90	1753.06
529.10	1789.92
529.30	1902.56
529.50	1648.61
529.70	1662.95
529.90	1722.34
530.09	1779.68
530.29	1665.00
530.49	1652.71
530.69	1857.51
530.89	1751.01
531.09	1798.12
531.28	1665.00
531.48	1845.22
531.68	1759.21
531.88	1759.21
532.08	1775.59
532.28	1665.00
532.47	1798.12
532.67	1865.70
532.87	1662.95
533.07	1652.71
533.27	1802.21
533.46	1814.50
533.66	1767.40
533.86	1767.40
534.06	1742.82
534.26	1789.92
534.45	1736.68
534.65	1751.01
534.85	1740.77
535.05	1673.19
535.25	1732.58
535.44	1720.29
535.64	1798.12
535.84	1693.67
536.04	1724.39
536.24	1732.58
536.43	1691.62
536.63	1724.39
536.83	1781.73
537.03	1755.11
537.22	1626.09
537.42	1611.75
537.62	1693.67
537.82	1714.15
538.02	1781.73
538.21	1779.68
538.41	1869.80
538.61	1742.82
538.81	1695.72
539.00	1865.70
539.20	1695.72
539.40	1699.81
539.60	1701.86
539.79	1720.29
539.99	1693.67
540.19	1679.33
540.39	1765.35
540.58	1748.97
540.78	1761.25
540.98	1710.05
541.18	1763.30
541.37	1781.73
541.57	1798.12
541.77	1753.06
541.97	1589.22
542.16	1576.94
542.36	1691.62
542.56	1886.18
542.76	1853.41
542.95	1781.73
543.15	1753.06
543.35	1822.69
543.54	1769.44
543.74	1734.63
543.94	1824.74
544.14	1746.92
544.33	1804.26
544.53	1730.53
544.73	1755.11
544.93	1738.73
545.12	1759.21
545.32	1714.15
545.52	1689.57
545.71	1654.76
545.91	1693.67
546.11	1673.19
546.30	1781.73
546.50	1783.78
546.70	1777.64
546.90	1724.39
547.09	1669.09
547.29	1724.39
547.49	1781.73
547.68	1712.10
547.88	1759.21
548.08	1812.45
548.27	2174.94
548.47	1730.53
548.67	1701.86
548.87	1806.31
549.06	1730.53
549.26	1718.25
549.46	1753.06
549.65	1683.43
549.85	1753.06
550.05	1708.01
550.24	1658.85
550.44	1716.20
550.64	1744.87
550.83	1787.88
551.03	1734.63
551.23	1796.07
551.42	1730.53
551.62	1761.25
551.82	1757.16
552.01	1656.81
552.21	1820.64
552.41	1775.59
552.60	1736.68
552.80	1794.02
553.00	1742.82
553.19	1667.05
553.39	1783.78
553.59	1732.58
553.78	1759.21
553.98	1775.59
554.17	1644.52
554.37	1818.60
554.57	1703.91
554.76	1669.09
554.96	1652.71
555.16	1734.63
555.35	1734.63
555.55	1759.21
555.75	1683.43
555.94	1804.26
556.14	1615.85
556.33	1779.68
556.53	1732.58
556.73	1753.06
556.92	1781.73
557.12	1798.12
557.32	1822.69
557.51	1839.08
557.71	1771.49
557.90	1818.60
558.10	1843.17
558.30	1699.81
558.49	1732.58
558.69	1728.49
558.88	1783.78
559.08	1787.88
559.28	1765.35
559.47	1734.63
559.67	1697.77
559.86	1861.60
560.06	1771.49
560.26	1732.58
560.45	1718.25
560.65	1757.16
560.84	1814.50
561.04	1716.20
561.24	1755.11
561.43	1624.04
561.63	1877.99
561.82	1751.01
562.02	1746.92
562.22	1732.58
562.41	1728.49
562.61	1708.01
562.80	1720.29
563.00	1904.61
563.19	1712.10
563.39	1716.20
563.59	1804.26
563.78	1724.39
563.98	1695.72
564.17	1685.48
564.37	1662.95
564.56	1716.20
564.76	1734.63
564.96	1771.49
565.15	1755.11
565.35	1863.65
565.54	1710.05
565.74	1789.92
565.93	1697.77
566.13	1800.16
566.32	1755.11
566.52	1824.74
566.71	1705.96
566.91	1822.69
567.11	1697.77
567.30	1738.73
567.50	1728.49
567.69	1771.49
567.89	1677.29
568.08	1732.58
568.28	1845.22
568.47	1703.91
568.67	1759.21
568.86	1767.40
569.06	1834.98
569.25	1769.44
569.45	1636.33
569.64	1718.25
569.84	1683.43
570.04	1830.88
570.23	1679.33
570.43	1724.39
570.62	1705.96
570.82	1787.88
571.01	1665.00
571.21	1689.57
571.40	1712.10
571.60	1802.21
571.79	1765.35
571.99	1755.11
572.18	1652.71
572.38	1703.91
572.57	1701.86
572.77	1759.21
572.96	1943.52
573.16	1794.02
573.35	1761.25
573.55	1880.04
573.74	1765.35
573.94	1759.21
574.13	1751.01
574.33	1763.30
574.52	1812.45
574.71	1767.40
574.91	1744.87
575.10	1662.95
575.30	1738.73
575.49	1671.14
575.69	1714.15
575.88	1892.32
576.08	1775.59
576.27	1824.74
576.47	1755.11
576.66	1900.52
576.86	1832.93
577.05	1724.39
577.25	1890.28
577.44	1964.00
577.64	1695.72
577.83	1820.64
578.02	1679.33
578.22	1785.83
578.41	1873.89
578.61	1761.25
578.80	1724.39
579.00	1757.16
579.19	1767.40
579.39	1818.60
579.58	1843.17
579.77	1822.69
579.97	1906.66
580.16	1822.69
580.36	1755.11
580.55	1820.64
580.75	1847.27
580.94	1798.12
581.13	1828.84
581.33	1882.08
581.52	1697.77
581.72	1923.04
581.91	1837.03
582.11	1824.74
582.30	1822.69
582.49	1787.88
582.69	1834.98
582.88	1853.41
583.08	1820.64
583.27	1849.32
583.47	1757.16
583.66	1724.39
583.85	1751.01
584.05	1667.05
584.24	1763.30
584.44	1820.64
584.63	1902.56
584.82	1890.28
585.02	1894.37
585.21	1888.23
585.41	1890.28
585.60	1951.71
585.79	2002.91
585.99	1875.94
586.18	1890.28
586.37	2199.52
586.57	3360.72
586.76	9756.52
586.96	27133.54
587.15	41682.31
587.34	51918.06
587.54	57746.57
587.73	55563.44
587.93	40486.29
588.12	29738.55
588.31	23627.42
588.51	20219.60
588.70	18308.84
588.89	16987.90
589.09	15339.29
589.28	13559.60
589.47	11327.32
589.67	9518.96
589.86	7339.92
590.06	5453.74
590.25	4173.76
590.44	3190.74
590.64	2594.78
590.83	2336.73
591.02	2133.98
591.22	1945.57
591.41	1896.42
591.60	1837.03
591.80	1918.95
591.99	1755.11
592.18	1791.97
592.38	1810.40
592.57	1681.38
592.76	1834.98
592.96	1755.11
593.15	1734.63
593.34	1796.07
593.54	1744.87
593.73	1804.26
593.92	1779.68
594.12	1832.93
594.31	1847.27
594.50	1853.41
594.70	1828.84
594.89	1939.43
595.08	1751.01
595.28	1800.16
595.47	1904.61
595.66	1853.41
595.86	1773.54
596.05	1712.10
596.24	1751.01
596.43	1937.38
596.63	1847.27
596.82	1863.65
597.01	1834.98
597.21	1882.08
597.40	1808.36
597.59	1779.68
597.79	1808.36
597.98	1812.45
598.17	1755.11
598.36	1834.98
598.56	1751.01
598.75	1734.63
598.94	1685.48
599.14	1730.53
599.33	1753.06
599.52	1773.54
599.71	1818.60
599.91	1783.78
600.10	1798.12
600.29	1763.30
600.48	1841.12
600.68	1816.55
600.87	1720.29
601.06	1783.78
601.26	1705.96
601.45	1783.78
601.64	1761.25
601.83	1871.84
602.03	1705.96
602.22	1705.96
602.41	1740.77
602.60	1863.65
602.80	1775.59
602.99	1759.21
603.18	1726.44
603.37	1734.63
603.57	1849.32
603.76	1820.64
603.95	1800.16
604.14	1638.38
604.34	1619.94
604.53	1769.44
604.72	1730.53
604.91	1796.07
605.10	1763.30
605.30	1636.33
605.49	1837.03
605.68	1796.07
605.87	1742.82
606.07	1619.94
606.26	1716.20
606.45	1759.21
606.64	1740.77
606.84	1722.34
607.03	1751.01
607.22	1896.42
607.41	1816.55
607.60	1724.39
607.80	1810.40
607.99	1738.73
608.18	1720.29
608.37	1755.11
608.56	1818.60
608.76	1789.92
608.95	1861.60
609.14	1796.07
609.33	1867.75
609.52	1828.84
609.72	1834.98
609.91	1894.37
610.10	1722.34
610.29	1875.94
610.48	1845.22
610.68	1724.39
610.87	1724.39
611.06	1806.31
611.25	1753.06
611.44	1832.93
611.63	1742.82
611.83	1859.56
612.02	1716.20
612.21	1814.50
612.40	1630.18
612.59	1673.19
612.79	1736.68
612.98	1695.72
613.17	1847.27
613.36	1710.05
613.55	1826.79
613.74	1785.83
613.93	1900.52
614.13	1863.65
614.32	1986.53
614.51	1927.14
614.70	1806.31
614.89	1820.64
615.08	1900.52
615.28	2148.32
615.47	1695.72
615.66	1839.08
615.85	1742.82
616.04	1877.99
616.23	1804.26
616.42	1804.26
616.62	1785.83
616.81	1830.88
617.00	1839.08
617.19	1787.88
617.38	1656.81
617.57	1826.79
617.76	1816.55
617.95	1777.64
618.15	1787.88
618.34	1826.79
618.53	1630.18
618.72	1791.97
618.91	1773.54
619.10	1837.03
619.29	1738.73
619.48	1757.16
619.68	1632.23
619.87	1740.77
620.06	1587.18
620.25	1785.83
620.44	1730.53
620.63	1691.62
620.82	1703.91
621.01	1771.49
621.20	1705.96
621.39	1761.25
621.59	1824.74
621.78	1771.49
621.97	1703.91
622.16	1775.59
622.35	1683.43
622.54	1710.05
622.73	1832.93
622.92	1667.05
623.11	1699.81
623.30	1730.53
623.49	1732.58
623.68	1787.88
623.88	1865.70
624.07	1767.40
624.26	1726.44
624.45	1757.16
624.64	1734.63
624.83	1773.54
625.02	1734.63
625.21	1722.34
625.40	1796.07
625.59	1736.68
625.78	1667.05
625.97	1787.88
626.16	1937.38
626.35	1871.84
626.54	1828.84
626.74	1888.23
626.93	1830.88
627.12	1716.20
627.31	1851.36
627.50	1738.73
627.69	1843.17
627.88	1742.82
628.07	1718.25
628.26	1650.66
628.45	1794.02
628.64	1658.85
628.83	1697.77
629.02	1675.24
629.21	1800.16
629.40	1830.88
629.59	1652.71
629.78	1705.96
629.97	1787.88
630.16	1828.84
630.35	1771.49
630.54	1765.35
630.73	1775.59
630.92	1761.25
631.11	1728.49
631.30	1722.34
631.49	1814.50
631.68	1710.05
631.87	1734.63
632.06	1585.13
632.25	1882.08
632.44	1755.11
632.63	1781.73
632.82	1800.16
633.01	1837.03
633.20	1853.41
633.39	1775.59
633.58	1665.00
633.77	1718.25
633.96	1834.98
634.15	1779.68
634.34	1759.21
634.53	1808.36
634.72	1714.15
634.91	1673.19
635.10	1820.64
635.29	1826.79
635.48	1759.21
635.67	1722.34
635.86	1619.94
636.05	1798.12
636.24	1708.01
636.43	1685.48
636.62	1759.21
636.81	1613.80
637.00	1761.25
637.19	1744.87
637.38	1722.34
637.57	1693.67
637.76	1806.31
637.95	1837.03
638.14	1798.12
638.33	1865.70
638.52	1826.79
638.71	1728.49
638.89	1738.73
639.08	1841.12
639.27	1828.84
639.46	1959.91
639.65	2226.14
639.84	2279.39
640.03	2418.65
640.22	2277.34
640.41	2344.92
640.60	2011.11
640.79	2017.25
640.98	1998.82
641.17	1912.80
641.36	1988.58
641.55	1875.94
641.74	1730.53
641.92	1824.74
642.11	1720.29
642.30	1720.29
642.49	1714.15
642.68	1763.30
642.87	1685.48
643.06	1759.21
643.25	1701.86
643.44	1599.46
643.63	1753.06
643.82	1789.92
644.00	1662.95
644.19	1775.59
644.38	1605.61
644.57	1646.57
644.76	1773.54
644.95	1646.57
645.14	1732.58
645.33	1656.81
645.52	1761.25
645.71	1656.81
645.89	1693.67
646.08	1734.63
646.27	1695.72
646.46	1826.79
646.65	1636.33
646.84	1699.81
647.03	1638.38
647.22	1763.30
647.40	1724.39
647.59	1669.09
647.78	1587.18
647.97	1628.14
648.16	1646.57
648.35	1751.01
648.54	1830.88
648.73	1656.81
648.91	1777.64
649.10	1648.61
649.29	1716.20
649.48	1710.05
649.67	1730.53
649.86	1738.73
650.05	1869.80
650.23	1908.71
650.42	1873.89
650.61	1890.28
650.80	1951.71
650.99	1927.14
651.18	1877.99
651.36	1787.88
651.55	1763.30
651.74	1882.08
651.93	1800.16
652.12	1814.50
652.31	1777.64
652.49	1755.11
652.68	1736.68
652.87	1828.84
653.06	1783.78
653.25	1824.74
653.44	1736.68
653.62	1728.49
653.81	1730.53
654.00	1773.54
654.19	1736.68
654.38	1931.23
654.56	1818.60
654.75	1687.53
654.94	1826.79
655.13	1701.86
655.32	1714.15
655.51	1730.53
655.69	1716.20
655.88	1734.63
656.07	1667.05
656.26	1806.31
656.45	1624.04
656.63	1751.01
656.82	1806.31
657.01	1744.87
657.20	1716.20
657.38	1800.16
657.57	1722.34
657.76	1695.72
657.95	1767.40
658.14	1636.33
658.32	1734.63
658.51	1642.47
658.70	1703.91
658.89	1773.54
659.08	1742.82
659.26	1730.53
659.45	1689.57
659.64	1859.56
659.83	1771.49
660.01	2029.54
660.20	1806.31
660.39	1853.41
660.58	1662.95
660.76	1787.88
660.95	1658.85
661.14	1695.72
661.33	1718.25
661.51	1642.47
661.70	1710.05
661.89	1656.81
662.08	1738.73
662.26	1650.66
662.45	1708.01
662.64	1798.12
662.83	1855.46
663.01	1628.14
663.20	1693.67
663.39	1855.46
663.58	1650.66
663.76	1671.14
663.95	1726.44
664.14	1773.54
664.32	1775.59
664.51	1624.04
664.70	1630.18
664.89	1697.77
665.07	1650.66
665.26	1775.59
665.45	1730.53
665.64	1757.16
665.82	1724.39
666.01	1773.54
666.20	1716.20
666.38	1796.07
666.57	1808.36
666.76	2252.77
666.95	4440.00
667.13	11491.15
667.32	18290.41
667.51	22161.07
667.69	24856.20
667.88	25316.99
668.07	19625.68
668.25	14382.88
668.44	11693.90
668.63	9789.29
668.81	8597.37
669.00	7718.79
669.19	6887.32
669.38	6090.66
669.56	5334.96
669.75	4485.05
669.94	3891.14
670.12	3080.14
670.31	2607.06
670.50	2361.31
670.68	2082.78
670.87	1912.80
671.06	1886.18
671.24	1935.33
671.43	1949.67
671.62	1769.44
671.80	1751.01
671.99	1773.54
672.18	1781.73
672.36	1847.27
672.55	1849.32
672.74	1796.07
672.92	1675.24
673.11	1732.58
673.29	1728.49
673.48	1773.54
673.67	1728.49
673.85	1794.02
674.04	1742.82
674.23	1769.44
674.41	1681.38
674.60	1681.38
674.79	1652.71
674.97	1660.90
675.16	1724.39
675.34	1763.30
675.53	1701.86
675.72	1695.72
675.90	1796.07
676.09	1744.87
676.28	1736.68
676.46	1656.81
676.65	1718.25
676.83	1642.47
677.02	1685.48
677.21	1771.49
677.39	1728.49
677.58	1611.75
677.77	1619.94
677.95	1677.29
678.14	1667.05
678.32	1751.01
678.51	1708.01
678.70	1869.80
678.88	1775.59
679.07	1701.86
679.25	1771.49
679.44	1734.63
679.63	1617.90
679.81	1748.97
680.00	1804.26
680.18	1730.53
680.37	1828.84
680.55	1722.34
680.74	1632.23
680.93	1638.38
681.11	1765.35
681.30	1732.58
681.48	1841.12
681.67	1675.24
681.85	1775.59
682.04	1718.25
682.23	1724.39
682.41	1763.30
682.60	1701.86
682.78	1593.32
682.97	1630.18
683.15	1705.96
683.34	1675.24
683.53	1820.64
683.71	1658.85
683.90	1824.74
684.08	1769.44
684.27	1683.43
684.45	1791.97
684.64	1714.15
684.82	1736.68
685.01	1687.53
685.19	1757.16
685.38	1877.99
685.57	1708.01
685.75	1695.72
685.94	1730.53
686.12	1642.47
686.31	1662.95
686.49	1755.11
686.68	1660.90
686.86	1736.68
687.05	1677.29
687.23	1726.44
687.42	1669.09
687.60	1601.51
687.79	1736.68
687.97	1732.58
688.16	1789.92
688.34	1763.30
688.53	1607.66
688.71	1800.16
688.90	1775.59
689.08	1658.85
689.27	1576.94
689.45	1767.40
689.64	1699.81
689.82	1748.97
690.01	1794.02
690.19	1753.06
690.38	1761.25
690.56	1759.21
690.75	1630.18
690.93	1691.62
691.12	1708.01
691.30	1679.33
691.49	1683.43
691.67	1687.53
691.86	1861.60
692.04	1673.19
692.23	1716.20
692.41	1689.57
692.60	1873.89
692.78	1910.75
692.97	1859.56
693.15	1767.40
693.34	1837.03
693.52	1853.41
693.71	1669.09
693.89	1705.96
694.08	1714.15
694.26	1753.06
694.44	1802.21
694.63	1753.06
694.81	1654.76
695.00	1667.05
695.18	1802.21
695.37	1832.93
695.55	1652.71
695.74	1667.05
695.92	1683.43
696.10	1763.30
696.29	1689.57
696.47	1685.48
696.66	1652.71
696.84	1730.53
697.03	1714.15
697.21	1845.22
697.40	2392.03
697.58	1783.78
697.76	1718.25
697.95	1744.87
698.13	1621.99
698.32	1691.62
698.50	1718.25
698.68	1773.54
698.87	1738.73
699.05	1789.92
699.24	1665.00
699.42	1630.18
699.61	1728.49
699.79	1699.81
699.97	1685.48
700.16	1615.85
700.34	1675.24
700.53	1804.26
700.71	1775.59
700.89	1826.79
701.08	1710.05
701.26	1806.31
701.45	2244.57
701.63	1677.29
701.81	1689.57
702.00	1685.48
702.18	1726.44
702.37	1783.78
702.55	1800.16
702.73	1877.99
702.92	1863.65
703.10	2033.63
703.28	1925.09
703.47	1869.80
703.65	1857.51
703.84	1916.90
704.02	1779.68
704.20	1929.19
704.39	1826.79
704.57	1804.26
704.75	1857.51
704.94	1816.55
705.12	1853.41
705.30	1830.88
705.49	2480.09
705.67	5435.31
705.86	13279.03
706.04	19347.16
706.22	22632.10
706.41	25134.72
706.59	24702.60
706.77	19195.61
706.96	13754.16
707.14	11847.50
707.32	10155.88
707.51	8994.68
707.69	7708.55
707.87	6731.67
708.06	5406.64
708.24	4405.18
708.42	3311.57
708.61	2703.32
708.79	2297.82
708.97	2000.87
709.16	1957.86
709.34	1861.60
709.52	1744.87
709.71	1769.44
709.89	1820.64
710.07	1732.58
710.26	1765.35
710.44	1746.92
710.62	1767.40
710.80	1701.86
710.99	1791.97
711.17	1740.77
711.35	1673.19
711.54	1732.58
711.72	1800.16
711.90	1728.49
712.09	1783.78
712.27	1656.81
712.45	1779.68
712.63	1714.15
712.82	1755.11
713.00	1761.25
713.18	1769.44
713.37	1720.29
713.55	1763.30
713.73	1683.43
713.91	1759.21
714.10	1705.96
714.28	1794.02
714.46	1773.54
714.65	1738.73
714.83	1738.73
715.01	1665.00
715.19	1660.90
715.38	1714.15
715.56	1767.40
715.74	1705.96
715.92	1710.05
716.11	1824.74
716.29	1693.67
716.47	1742.82
716.65	1697.77
716.84	1638.38
717.02	1771.49
717.20	1574.89
717.38	1697.77
717.57	1726.44
717.75	1710.05
717.93	1603.56
718.11	1740.77
718.30	1671.14
718.48	1746.92
718.66	1746.92
718.84	1830.88
719.03	1683.43
719.21	1644.52
719.39	1773.54
719.57	1769.44
719.75	1798.12
719.94	1667.05
720.12	1669.09
720.30	1697.77
720.48	1703.91
720.67	1693.67
720.85	1603.56
721.03	1732.58
721.21	1716.20
721.39	1765.35
721.58	1722.34
721.76	1691.62
721.94	1763.30
722.12	1755.11
722.30	1777.64
722.49	1689.57
722.67	1765.35
722.85	1753.06
723.03	1703.91
723.21	1789.92
723.40	1755.11
723.58	1761.25
723.76	1718.25
723.94	1818.60
724.12	1669.09
724.30	1877.99
724.49	1800.16
724.67	1757.16
724.85	1746.92
725.03	1630.18
725.21	1771.49
725.40	1824.74
725.58	1681.38
725.76	1804.26
725.94	1714.15
726.12	1665.00
726.30	1599.46
726.49	1705.96
726.67	1673.19
726.85	1701.86
727.03	1820.64
727.21	2295.77
727.39	3409.87
727.57	4976.56
727.76	5703.59
727.94	6127.52
728.12	6270.88
728.30	5572.52
728.48	4538.30
728.66	4007.87
728.84	3655.62
729.03	3125.20
729.21	2813.91
729.39	2475.99
729.57	2150.37
729.75	1970.15
729.93	1912.80
730.11	1783.78
730.30	1728.49
730.48	1726.44
730.66	1843.17
730.84	1697.77
731.02	1755.11
731.20	1738.73
731.38	1781.73
731.56	1634.28
731.74	1701.86
731.93	1683.43
732.11	1683.43
732.29	1746.92
732.47	1726.44
732.65	1724.39
732.83	1785.83
733.01	1701.86
733.19	1636.33
733.37	1716.20
733.56	1755.11
733.74	1628.14
733.92	1863.65
734.10	1642.47
734.28	1712.10
734.46	1648.61
734.64	1730.53
734.82	1685.48
735.00	1628.14
735.18	1697.77
735.36	1701.86
735.54	1728.49
735.73	1673.19
735.91	1763.30
736.09	1796.07
736.27	1816.55
736.45	1759.21
736.63	1611.75
736.81	1693.67
736.99	1789.92
737.17	1722.34
737.35	1718.25
737.53	1812.45
737.71	1724.39
737.89	1781.73
738.07	1652.71
738.25	1642.47
738.43	1677.29
738.61	1617.90
738.80	1609.70
738.98	1570.79
739.16	1689.57
739.34	1671.14
739.52	1755.11
739.70	1730.53
739.88	1689.57
740.06	1818.60
740.24	1556.46
740.42	1761.25
740.60	1611.75
740.78	1730.53
740.96	1548.26
741.14	1757.16
741.32	1722.34
741.50	1583.08
741.68	1839.08
741.86	1730.53
742.04	1697.77
742.22	1656.81
742.40	1718.25
742.58	1726.44
742.76	1677.29
742.94	1763.30
743.12	1535.98
743.30	1712.10
743.48	1732.58
743.66	1699.81
743.84	1814.50
744.02	1679.33
744.20	1746.92
744.38	1665.00
744.56	1654.76
744.74	1839.08
744.92	1753.06
745.10	1767.40
745.28	1759.21
745.46	1759.21
745.64	1728.49
745.82	1738.73
746.00	1726.44
746.18	1677.29
746.36	1652.71
746.54	1746.92
746.72	1716.20
746.90	1746.92
747.08	1763.30
747.26	1628.14
747.44	1845.22
747.62	1734.63
747.80	1740.77
747.98	1798.12
748.15	1716.20
748.33	1794.02
748.51	1689.57
748.69	1740.77
748.87	1734.63
749.05	1632.23
749.23	1640.42
749.41	1804.26
749.59	1644.52
749.77	1726.44
749.95	1693.67
750.13	1701.86
750.31	1718.25
750.49	1671.14
750.67	1732.58
750.85	1796.07
751.03	1763.30
751.20	1851.36
751.38	1755.11
751.56	1652.71
751.74	1703.91
751.92	1597.42
752.10	1660.90
752.28	1742.82
752.46	1695.72
752.64	1675.24
752.82	1701.86
753.00	1826.79
753.18	1675.24
753.35	1689.57
753.53	1718.25
753.71	1681.38
753.89	1779.68
754.07	1744.87
754.25	1777.64
754.43	1671.14
754.61	1583.08
754.79	1748.97
754.97	1658.85
755.14	1802.21
755.32	1660.90
755.50	1734.63
755.68	1751.01
755.86	1644.52
756.04	1607.66
756.22	1628.14
756.40	1710.05
756.57	1896.42
756.75	1652.71
756.93	1755.11
757.11	1763.30
757.29	1677.29
757.47	1615.85
757.65	1628.14
757.82	1630.18
758.00	1636.33
758.18	1689.57
758.36	1613.80
758.54	1767.40
758.72	1695.72
758.90	1759.21
759.07	1798.12
759.25	1538.02
759.43	1802.21
759.61	1648.61
759.79	2285.53
759.97	1746.92
760.15	1705.96
760.32	1691.62
760.50	1746.92
760.68	1841.12
760.86	1646.57
761.04	1779.68
761.22	1726.44
761.39	1687.53
761.57	1771.49
761.75	1667.05
761.93	1703.91
762.11	1697.77
762.28	1656.81
762.46	1703.91
762.64	1771.49
762.82	1656.81
763.00	1621.99
763.18	1779.68
763.35	1636.33
763.53	1714.15
763.71	1667.05
763.89	1675.24
764.07	1636.33
764.24	1662.95
764.42	1751.01
764.60	1697.77
764.78	1734.63
764.96	1748.97
765.13	1744.87
765.31	1718.25
765.49	1757.16
765.67	1660.90
765.84	1654.76
766.02	1695.72
766.20	1628.14
766.38	1695.72
766.56	1689.57
766.73	1767.40
766.91	1705.96
767.09	1621.99
767.27	1705.96
767.44	1730.53
767.62	1712.10
767.80	1730.53
767.98	1710.05
768.15	1665.00
768.33	1775.59
768.51	1748.97
768.69	1808.36
768.87	1740.77
769.04	1761.25
769.22	1826.79
769.40	1773.54
769.58	1863.65
769.75	1783.78
769.93	1832.93
770.11	1691.62
770.28	1751.01
770.46	1744.87
770.64	1722.34
770.82	1734.63
770.99	1683.43
771.17	1708.01
771.35	1751.01
771.53	1640.42
771.70	1722.34
771.88	1791.97
772.06	1701.86
772.23	1679.33
772.41	1669.09
772.59	1705.96
772.77	1708.01
772.94	1714.15
773.12	1718.25
773.30	1677.29
773.47	1755.11
773.65	1667.05
773.83	1777.64
774.01	1693.67
774.18	1578.98
774.36	1740.77
774.54	1660.90
774.71	1742.82
774.89	1636.33
775.07	1695.72
775.24	1665.00
775.42	1673.19
775.60	1791.97
775.78	1675.24
775.95	1644.52
776.13	1630.18
776.31	1607.66
776.48	1703.91
776.66	1763.30
776.84	1636.33
777.01	1626.09
777.19	1646.57
777.37	1748.97
777.54	1783.78
777.72	1828.84
777.90	1699.81
778.07	1581.03
778.25	1906.66
778.43	1722.34
778.60	1708.01
778.78	1722.34
778.96	1697.77
779.13	1683.43
779.31	1775.59
779.49	1736.68
779.66	1730.53
779.84	1761.25
780.01	1675.24
780.19	1660.90
780.37	1791.97
780.54	1791.97
780.72	1642.47
780.90	1665.00
781.07	1638.38
781.25	1718.25
781.43	1781.73
781.60	1710.05
781.78	1757.16
781.95	1710.05
782.13	1615.85
782.31	1714.15
782.48	1554.41
782.66	1665.00
782.83	1855.46
783.01	1800.16
783.19	1714.15
783.36	1693.67
783.54	1648.61
783.72	1800.16
783.89	1677.29
784.07	1648.61
784.24	1705.96
784.42	1785.83
784.60	1779.68
784.77	1667.05
784.95	1705.96
785.12	1634.28
785.30	1738.73
785.47	1679.33
785.65	1648.61
785.83	1660.90
786.00	1636.33
786.18	1781.73
786.35	1691.62
786.53	1660.90
786.71	1701.86
786.88	1708.01
787.06	1730.53
787.23	1712.10
787.41	1644.52
787.58	1740.77
787.76	1720.29
787.94	1683.43
788.11	1783.78
788.29	1562.60
788.46	1681.38
788.64	1687.53
788.81	1693.67
788.99	1607.66
789.16	1578.98
789.34	1662.95
789.52	1669.09
789.69	1632.23
789.87	1638.38
790.04	1581.03
790.22	1753.06
790.39	1820.64
790.57	1601.51
790.74	1689.57
790.92	1767.40
791.09	1585.13
791.27	1757.16
791.44	1761.25
791.62	1746.92
791.79	1798.12
791.97	1730.53
792.15	1855.46
792.32	1757.16
792.50	1671.14
792.67	1820.64
792.85	1779.68
793.02	1703.91
793.20	1720.29
793.37	1658.85
793.55	1734.63
793.72	1658.85
793.90	1685.48
794.07	1615.85
794.25	1705.96
794.42	1703.91
794.60	1685.48
794.77	1726.44
794.95	1765.35
795.12	1777.64
795.30	1624.04
795.47	1636.33
795.65	1884.13
795.82	1767.40
796.00	1591.27
796.17	1695.72
796.34	1617.90
796.52	1728.49
796.69	1757.16
796.87	1759.21
797.04	1685.48
797.22	1783.78
797.39	1667.05
797.57	1728.49
797.74	1718.25
797.92	1716.20
798.09	1656.81
798.27	1693.67
798.44	1644.52
798.62	1685.48
798.79	1720.29
798.96	1697.77
799.14	1710.05
799.31	1841.12
799.49	1689.57
799.66	1705.96
799.84	1728.49
800.01	1634.28
800.19	1738.73
800.36	1636.33
800.53	1701.86
800.71	1728.49
800.88	1751.01
801.06	1640.42
801.23	1695.72
801.41	1695.72
801.58	1656.81
801.75	1679.33
801.93	1722.34
802.10	1759.21
802.28	1732.58
802.45	1660.90
802.63	1785.83
802.80	1716.20
802.97	1705.96
803.15	1787.88
803.32	1677.29
803.50	1642.47
803.67	1722.34
803.84	1628.14
804.02	1697.77
804.19	1724.39
804.37	1570.79
804.54	1644.52
804.71	1736.68
804.89	1677.29
805.06	1671.14
805.24	1611.75
805.41	1560.55
805.58	1619.94
805.76	1839.08
805.93	1652.71
806.10	1755.11
806.28	1695.72
806.45	1728.49
806.63	1703.91
806.80	1771.49
806.97	1710.05
807.15	1656.81
807.32	1730.53
807.49	1654.76
807.67	1624.04
807.84	1718.25
808.01	1632.23
808.19	1769.44
808.36	1804.26
808.54	1712.10
808.71	1656.81
808.88	1755.11
809.06	1673.19
809.23	1755.11
809.40	1742.82
809.58	1675.24
809.75	1697.77
809.92	1740.77
810.10	1839.08
810.27	1779.68
810.44	1689.57
810.62	1744.87
810.79	1658.85
810.96	1615.85
811.14	1654.76
811.31	1837.03
811.48	1736.68
811.66	1656.81
811.83	1660.90
812.00	1720.29
812.18	1753.06
812.35	1824.74
812.52	1720.29
812.69	1658.85
812.87	1753.06
813.04	1720.29
813.21	1687.53
813.39	1667.05
813.56	1630.18
813.73	1773.54
813.91	1638.38
814.08	1726.44
814.25	1716.20
814.42	1632.23
814.60	1669.09
814.77	1697.77
814.94	1720.29
815.12	1646.57
815.29	1796.07
815.46	1712.10
815.63	1701.86
815.81	1687.53
815.98	1699.81
816.15	1726.44
816.33	1730.53
816.50	1658.85
816.67	1626.09
816.84	1728.49
817.02	1677.29
817.19	1685.48
817.36	1714.15
817.53	1775.59
817.71	1601.51
817.88	1763.30
818.05	1718.25
818.22	1572.84
818.40	1755.11
818.57	1732.58
818.74	1730.53
818.91	1714.15
819.09	1736.68
819.26	1787.88
819.43	1638.38
819.60	1593.32
819.78	1808.36
819.95	1863.65
820.12	1585.13
820.29	1787.88
820.47	1763.30
820.64	1591.27
820.81	1660.90
820.98	1669.09
821.15	1640.42
821.33	1814.50
821.50	1644.52
821.67	1763.30
821.84	1638.38
822.02	1734.63
822.19	1728.49
822.36	1736.68
822.53	1671.14
822.70	1617.90
822.88	1658.85
823.05	1816.55
823.22	1730.53
823.39	1740.77
823.56	1726.44
823.74	1851.36
823.91	1716.20
824.08	1576.94
824.25	1660.90
824.42	1755.11
824.60	1654.76
824.77	1701.86
824.94	1679.33
825.11	1665.00
825.28	1638.38
825.45	1746.92
825.63	1644.52
825.80	1685.48
825.97	1689.57
826.14	1763.30
826.31	1540.07
826.48	1695.72
826.66	1662.95
826.83	1652.71
827.00	1660.90
827.17	1701.86
827.34	1628.14
827.51	1665.00
827.69	1667.05
827.86	1656.81
828.03	1732.58
828.20	1693.67
828.37	1626.09
828.54	1746.92
828.71	1671.14
828.89	1880.04
829.06	1712.10
829.23	1773.54
829.40	1621.99
829.57	1662.95
829.74	1720.29
829.91	1699.81
830.09	1638.38
830.26	1748.97
830.43	1800.16
830.60	1703.91
830.77	1730.53
830.94	1824.74
831.11	1636.33
831.28	1703.91
831.46	1769.44
831.63	1671.14
831.80	1800.16
831.97	1662.95
832.14	1646.57
832.31	1714.15
832.48	1759.21
832.65	1748.97
832.82	1744.87
832.99	1679.33
833.17	1705.96
833.34	1746.92
833.51	1738.73
833.68	1634.28
833.85	1777.64
834.02	1697.77
834.19	1703.91
834.36	1648.61
834.53	1771.49
834.70	1746.92
834.87	1771.49
835.04	1681.38
835.22	1671.14
835.39	1703.91
835.56	1685.48
835.73	1718.25
835.90	1757.16
836.07	1648.61
836.24	1757.16
836.41	1642.47
836.58	1648.61
836.75	1798.12
836.92	1710.05
837.09	1660.90
837.26	1728.49
837.43	1740.77
837.60	1767.40
837.77	1714.15
837.94	1755.11
838.12	1832.93
838.29	1697.77
838.46	1687.53
838.63	1650.66
838.80	1810.40
838.97	1771.49
839.14	1669.09
839.31	1673.19
839.48	1695.72
839.65	1765.35
839.82	1767.40
839.99	1779.68
840.16	1691.62
840.33	1734.63
840.50	1728.49
840.67	1716.20
840.84	1730.53
841.01	1775.59
841.18	1689.57
841.35	1656.81
841.52	1763.30
841.69	1816.55
841.86	1671.14
842.03	1687.53
842.20	1746.92
842.37	1718.25
842.54	1671.14
842.71	1695.72
842.88	1607.66
843.05	1734.63
843.22	1748.97
843.39	1755.11
843.56	1705.96
843.73	1683.43
843.90	1712.10
844.07	1742.82
844.24	1738.73
844.41	1746.92
844.58	1693.67
844.75	1767.40
844.92	1744.87
845.09	1656.81
845.26	1570.79
845.43	1679.33
845.60	1714.15
845.77	1673.19
845.94	1673.19
846.10	1751.01
846.27	1605.61
846.44	1665.00
846.61	1751.01
846.78	1773.54
846.95	1787.88
847.12	1652.71
847.29	1714.15
847.46	1693.67
847.63	1753.06
847.80	1656.81
847.97	1787.88
848.14	1855.46
848.31	1728.49
848.48	1714.15
848.65	1746.92
848.82	1697.77
848.98	1853.41
849.15	1789.92
849.32	1773.54
849.49	1763.30
849.66	1701.86
849.83	1755.11
850.00	1626.09
850.17	1753.06
850.34	1660.90
850.51	1703.91
850.68	1699.81
850.85	1816.55
851.01	1746.92
851.18	1662.95
851.35	1669.09
851.52	1714.15
851.69	1705.96
851.86	1669.09
852.03	1779.68
852.20	1720.29
852.37	1701.86
852.53	1658.85
852.70	1703.91
852.87	1710.05
853.04	1742.82
853.21	1726.44
853.38	1796.07
853.55	1665.00
853.72	1822.69
853.89	1665.00
854.05	1648.61
854.22	1687.53
854.39	1665.00
854.56	1759.21
854.73	1759.21
854.90	1712.10
855.07	1609.70
855.23	1732.58
855.40	1746.92
855.57	1642.47
855.74	1621.99
855.91	1865.70
856.08	1675.24
856.25	1673.19
856.41	1607.66
856.58	1691.62
856.75	1675.24
856.92	1714.15
857.09	1771.49
857.26	1558.50
857.42	1738.73
857.59	1732.58
857.76	1691.62
857.93	1689.57
858.10	1693.67
858.27	1669.09
858.43	1693.67
858.60	1718.25
858.77	1591.27
858.94	1654.76
859.11	1689.57
859.27	1648.61
859.44	1703.91
859.61	1863.65
859.78	1689.57
859.95	1683.43
860.12	1683.43
860.28	1828.84
860.45	1828.84
860.62	1652.71
860.79	1642.47
860.95	1617.90
861.12	1636.33
861.29	1652.71
861.46	1624.04
861.63	1757.16
861.79	1697.77
861.96	1689.57
862.13	1636.33
862.30	1742.82
862.47	1691.62
862.63	1613.80
862.80	1751.01
862.97	1701.86
863.14	1818.60
863.30	1777.64
863.47	1638.38
863.64	1751.01
863.81	1800.16
863.97	1679.33
864.14	1722.34
864.31	1646.57
864.48	1806.31
864.65	1746.92
864.81	1800.16
864.98	1662.95
865.15	1783.78
865.32	1796.07
865.48	1736.68
865.65	1769.44
865.82	1597.42
865.98	1683.43
866.15	1763.30
866.32	1675.24
866.49	1681.38
866.65	1775.59
866.82	1699.81
866.99	1681.38
867.16	1665.00
867.32	1705.96
867.49	1695.72
867.66	1689.57
867.83	1705.96
867.99	1648.61
868.16	1703.91
868.33	1662.95
868.49	1705.96
868.66	1755.11
868.83	1779.68
868.99	1648.61
869.16	1701.86
869.33	1800.16
869.50	1712.10
869.66	1685.48
869.83	1757.16
870.00	1619.94
870.16	1736.68
870.33	1650.66
870.50	1687.53
870.66	1677.29
870.83	1783.78
871.00	1683.43
871.17	1642.47
871.33	1693.67
871.50	1744.87
871.67	1695.72
871.83	1591.27
872.00	1834.98
872.17	1648.61
872.33	1834.98
872.50	1783.78
872.67	1667.05
872.83	1665.00
873.00	1714.15
873.17	1687.53
873.33	1779.68
873.50	1753.06
873.67	1720.29
873.83	1681.38
874.00	1679.33
874.16	1724.39
874.33	1761.25
874.50	1697.77
874.66	1765.35
874.83	1748.97
875.00	1765.35
875.16	1769.44
875.33	1693.67
875.50	1589.22
875.66	1726.44
875.83	1720.29
875.99	1724.39
876.16	1650.66
876.33	1636.33
876.49	1701.86
876.66	1759.21
876.83	1656.81
876.99	1646.57
877.16	1765.35
877.32	1660.90
877.49	1732.58
877.66	1730.53
877.82	1783.78
877.99	1775.59
878.15	1685.48
878.32	1701.86
878.49	1714.15
878.65	1705.96
878.82	1763.30
878.98	1638.38
879.15	1777.64
879.32	1742.82
879.48	1710.05
879.65	1689.57
879.81	1675.24
879.98	1693.67
880.15	1724.39
880.31	1714.15
880.48	1607.66
880.64	1757.16
880.81	1828.84
880.97	1779.68
881.14	1789.92
881.31	1660.90
881.47	1843.17
881.64	1683.43
881.80	1673.19
881.97	1712.10
882.13	1787.88
882.30	1697.77
882.47	1603.56
882.63	1669.09
882.80	1646.57
882.96	1701.86
883.13	1779.68
883.29	1644.52
883.46	1734.63
883.62	1841.12
883.79	1681.38
883.95	1798.12
884.12	1732.58
884.29	1748.97
884.45	1810.40
884.62	1794.02
884.78	1673.19
884.95	1783.78
885.11	1679.33
885.28	1769.44
885.44	1642.47
885.61	1759.21
885.77	1812.45
885.94	1673.19
886.10	1671.14
886.27	1742.82
886.43	1755.11
886.60	1744.87
886.76	1669.09
886.93	1732.58
887.09	1796.07
887.26	1662.95
887.42	1705.96
887.59	1773.54
887.75	1765.35
887.92	1771.49
888.08	1763.30
888.25	1853.41
888.41	1828.84
888.58	1738.73
888.74	1718.25
888.91	1714.15
>>>>>End Processed Spectral Data<<<<<
