SpectraSuite Data File
++++++++++++++++++++++++++++++++++++
Date: Wed May 04 18:44:28 CEST 2016
User: root
Dark Spectrum Present: No
Reference Spectrum Present: No
Number of Sampled Component Spectra: 1
Spectrometers: USB4C02835
Integration Time (usec): 100000 (USB4C02835)
Spectra Averaged: 1 (USB4C02835)
Boxcar Smoothing: 0 (USB4C02835)
Correct for Electrical Dark: No (USB4C02835)
Strobe/Lamp Enabled: No (USB4C02835)
Correct for Detector Non-linearity: No (USB4C02835)
Correct for Stray Light: No (USB4C02835)
Number of Pixels in Processed Spectrum: 3648
>>>>>Begin Processed Spectral Data<<<<<
177.47	1509.35
177.69	1509.35
177.91	1509.35
178.13	1452.01
178.36	1492.97
178.58	1638.38
178.80	1738.73
179.02	1611.75
179.24	1722.34
179.46	1654.76
179.68	1746.92
179.90	1720.29
180.13	1632.23
180.35	1636.33
180.57	1665.00
180.79	1728.49
181.01	1648.61
181.23	1800.16
181.45	1744.87
181.67	1728.49
181.90	1755.11
182.12	1660.90
182.34	1716.20
182.56	1779.68
182.78	1744.87
183.00	1679.33
183.22	1722.34
183.44	1636.33
183.66	1847.27
183.89	1644.52
184.11	1660.90
184.33	1730.53
184.55	1738.73
184.77	1773.54
184.99	1683.43
185.21	1658.85
185.43	1949.67
185.65	1665.00
185.87	1654.76
186.10	1910.75
186.32	1933.28
186.54	1783.78
186.76	1806.31
186.98	1761.25
187.20	1671.14
187.42	1705.96
187.64	1673.19
187.86	1710.05
188.08	1732.58
188.30	1665.00
188.52	1697.77
188.75	1775.59
188.97	1783.78
189.19	1636.33
189.41	1677.29
189.63	1738.73
189.85	1716.20
190.07	1683.43
190.29	1601.51
190.51	1691.62
190.73	1679.33
190.95	1822.69
191.17	1667.05
191.39	1624.04
191.61	1732.58
191.84	1697.77
192.06	1746.92
192.28	1599.46
192.50	1880.04
192.72	1730.53
192.94	1718.25
193.16	1777.64
193.38	1761.25
193.60	1609.70
193.82	1736.68
194.04	1789.92
194.26	1697.77
194.48	1771.49
194.70	1720.29
194.92	1632.23
195.14	1806.31
195.36	1648.61
195.58	1648.61
195.80	1746.92
196.02	1687.53
196.24	1687.53
196.46	1753.06
196.69	1734.63
196.91	1871.84
197.13	1708.01
197.35	1675.24
197.57	1847.27
197.79	1798.12
198.01	1685.48
198.23	1642.47
198.45	1834.98
198.67	1640.42
198.89	1679.33
199.11	1628.14
199.33	1689.57
199.55	1665.00
199.77	1677.29
199.99	1765.35
200.21	1714.15
200.43	1681.38
200.65	1634.28
200.87	1624.04
201.09	1761.25
201.31	1746.92
201.53	1722.34
201.75	1660.90
201.97	1746.92
202.19	1681.38
202.41	1679.33
202.63	1826.79
202.85	1818.60
203.07	1738.73
203.29	1636.33
203.51	1675.24
203.73	1705.96
203.95	1959.91
204.17	1771.49
204.39	1753.06
204.61	1718.25
204.83	1689.57
205.05	1808.36
205.27	1820.64
205.49	1845.22
205.71	1732.58
205.93	1630.18
206.15	1660.90
206.37	1757.16
206.59	1642.47
206.81	1638.38
207.03	1628.14
207.25	1669.09
207.47	1773.54
207.69	1708.01
207.91	1822.69
208.13	1794.02
208.34	1683.43
208.56	1679.33
208.78	1705.96
209.00	1675.24
209.22	1714.15
209.44	1650.66
209.66	1667.05
209.88	1691.62
210.10	1767.40
210.32	1673.19
210.54	1765.35
210.76	1720.29
210.98	1732.58
211.20	1701.86
211.42	1683.43
211.64	1765.35
211.86	1757.16
212.08	1712.10
212.30	1679.33
212.52	1775.59
212.74	1769.44
212.96	1695.72
213.17	1669.09
213.39	1734.63
213.61	1787.88
213.83	1785.83
214.05	1673.19
214.27	1847.27
214.49	1628.14
214.71	1630.18
214.93	1765.35
215.15	1685.48
215.37	1789.92
215.59	1615.85
215.81	1708.01
216.03	1783.78
216.24	1724.39
216.46	1724.39
216.68	1691.62
216.90	1673.19
217.12	1740.77
217.34	1728.49
217.56	1693.67
217.78	1748.97
218.00	1720.29
218.22	1703.91
218.44	1798.12
218.66	1736.68
218.87	1816.55
219.09	1656.81
219.31	1728.49
219.53	1716.20
219.75	1621.99
219.97	1679.33
220.19	1660.90
220.41	1722.34
220.63	1857.51
220.85	1722.34
221.06	1708.01
221.28	1810.40
221.50	1699.81
221.72	1679.33
221.94	1677.29
222.16	1693.67
222.38	1736.68
222.60	1718.25
222.82	1673.19
223.03	1728.49
223.25	1644.52
223.47	1738.73
223.69	1751.01
223.91	1730.53
224.13	1675.24
224.35	1753.06
224.57	1759.21
224.78	1724.39
225.00	1716.20
225.22	1660.90
225.44	1693.67
225.66	1798.12
225.88	1755.11
226.10	1742.82
226.32	1722.34
226.53	1800.16
226.75	1748.97
226.97	1763.30
227.19	1716.20
227.41	1640.42
227.63	1665.00
227.85	1646.57
228.06	1732.58
228.28	1708.01
228.50	1773.54
228.72	1660.90
228.94	1746.92
229.16	1634.28
229.37	1677.29
229.59	1677.29
229.81	1882.08
230.03	1677.29
230.25	1646.57
230.47	1654.76
230.69	1656.81
230.90	1800.16
231.12	1650.66
231.34	1753.06
231.56	1771.49
231.78	1564.65
232.00	1728.49
232.21	1796.07
232.43	1662.95
232.65	1562.60
232.87	1763.30
233.09	1662.95
233.30	1701.86
233.52	1751.01
233.74	1695.72
233.96	1701.86
234.18	1699.81
234.40	1656.81
234.61	1849.32
234.83	1609.70
235.05	1675.24
235.27	1896.42
235.49	1751.01
235.70	1669.09
235.92	1787.88
236.14	1755.11
236.36	1861.60
236.58	1673.19
236.79	1763.30
237.01	1654.76
237.23	1628.14
237.45	1847.27
237.67	1751.01
237.88	1722.34
238.10	1859.56
238.32	1640.42
238.54	1648.61
238.76	1785.83
238.97	1675.24
239.19	1632.23
239.41	1748.97
239.63	1773.54
239.85	1755.11
240.06	1734.63
240.28	1648.61
240.50	1697.77
240.72	1630.18
240.93	1654.76
241.15	1765.35
241.37	1621.99
241.59	1746.92
241.81	1697.77
242.02	1681.38
242.24	1732.58
242.46	1791.97
242.68	1615.85
242.89	1730.53
243.11	1775.59
243.33	1732.58
243.55	1708.01
243.76	1765.35
243.98	1681.38
244.20	1718.25
244.42	1697.77
244.64	1742.82
244.85	1751.01
245.07	1597.42
245.29	1751.01
245.51	1626.09
245.72	1714.15
245.94	1818.60
246.16	1701.86
246.38	1734.63
246.59	1544.17
246.81	1601.51
247.03	1650.66
247.24	1628.14
247.46	1669.09
247.68	1796.07
247.90	1658.85
248.11	1714.15
248.33	1785.83
248.55	1705.96
248.77	1714.15
248.98	1763.30
249.20	1765.35
249.42	1746.92
249.64	1681.38
249.85	1650.66
250.07	1648.61
250.29	1703.91
250.50	1673.19
250.72	1644.52
250.94	1667.05
251.16	1746.92
251.37	1787.88
251.59	1699.81
251.81	1720.29
252.02	1826.79
252.24	1742.82
252.46	1779.68
252.68	1650.66
252.89	1593.32
253.11	1626.09
253.33	1791.97
253.54	1757.16
253.76	1669.09
253.98	1710.05
254.20	1732.58
254.41	1628.14
254.63	1728.49
254.85	1724.39
255.06	1693.67
255.28	1669.09
255.50	1701.86
255.71	1677.29
255.93	1601.51
256.15	1583.08
256.36	1822.69
256.58	1665.00
256.80	1695.72
257.02	1710.05
257.23	1722.34
257.45	1675.24
257.67	1830.88
257.88	1646.57
258.10	1722.34
258.32	1705.96
258.53	1736.68
258.75	1728.49
258.97	1669.09
259.18	1802.21
259.40	1681.38
259.62	1779.68
259.83	1734.63
260.05	1757.16
260.27	1986.53
260.48	1791.97
260.70	1683.43
260.92	1734.63
261.13	1685.48
261.35	1726.44
261.57	1714.15
261.78	1615.85
262.00	1624.04
262.22	1640.42
262.43	1642.47
262.65	1738.73
262.86	1789.92
263.08	1832.93
263.30	1710.05
263.51	1624.04
263.73	1708.01
263.95	1837.03
264.16	1558.50
264.38	1646.57
264.60	1730.53
264.81	1693.67
265.03	1699.81
265.25	1787.88
265.46	1660.90
265.68	1777.64
265.89	1763.30
266.11	1677.29
266.33	1751.01
266.54	1748.97
266.76	1736.68
266.98	1738.73
267.19	1794.02
267.41	1839.08
267.62	1789.92
267.84	1603.56
268.06	1634.28
268.27	1748.97
268.49	1822.69
268.70	1785.83
268.92	1699.81
269.14	1716.20
269.35	1632.23
269.57	1703.91
269.79	1771.49
270.00	1658.85
270.22	1796.07
270.43	1648.61
270.65	1636.33
270.87	1705.96
271.08	1771.49
271.30	1763.30
271.51	1638.38
271.73	1685.48
271.95	1761.25
272.16	1740.77
272.38	1677.29
272.59	1738.73
272.81	1705.96
273.02	1632.23
273.24	1769.44
273.46	1699.81
273.67	1656.81
273.89	1724.39
274.10	1624.04
274.32	1798.12
274.54	1673.19
274.75	1697.77
274.97	1634.28
275.18	1669.09
275.40	1720.29
275.61	1679.33
275.83	1769.44
276.05	1578.98
276.26	1640.42
276.48	1742.82
276.69	1671.14
276.91	1667.05
277.12	1759.21
277.34	1798.12
277.55	1765.35
277.77	1757.16
277.99	1699.81
278.20	1669.09
278.42	1654.76
278.63	1740.77
278.85	1640.42
279.06	1697.77
279.28	1701.86
279.49	1712.10
279.71	1732.58
279.93	1732.58
280.14	1701.86
280.36	1636.33
280.57	1789.92
280.79	1748.97
281.00	1634.28
281.22	1712.10
281.43	1708.01
281.65	1601.51
281.86	1591.27
282.08	1794.02
282.29	1806.31
282.51	1652.71
282.73	1660.90
282.94	1603.56
283.16	1785.83
283.37	1851.36
283.59	1689.57
283.80	1718.25
284.02	1714.15
284.23	1716.20
284.45	1662.95
284.66	1689.57
284.88	1615.85
285.09	1755.11
285.31	1701.86
285.52	1720.29
285.74	1636.33
285.95	1796.07
286.17	1734.63
286.38	1740.77
286.60	1667.05
286.81	1634.28
287.03	1710.05
287.24	1720.29
287.46	1794.02
287.67	1617.90
287.89	1781.73
288.10	1773.54
288.32	1718.25
288.53	1767.40
288.75	1691.62
288.96	1748.97
289.18	1642.47
289.39	1712.10
289.61	1851.36
289.82	1804.26
290.04	1820.64
290.25	1677.29
290.47	1714.15
290.68	1644.52
290.90	1800.16
291.11	1574.89
291.33	1796.07
291.54	1626.09
291.76	1685.48
291.97	1779.68
292.18	1638.38
292.40	1673.19
292.61	1726.44
292.83	1816.55
293.04	1730.53
293.26	1665.00
293.47	1648.61
293.69	1656.81
293.90	1734.63
294.12	1824.74
294.33	1695.72
294.55	1650.66
294.76	1787.88
294.97	1771.49
295.19	1804.26
295.40	1658.85
295.62	1765.35
295.83	1771.49
296.05	1677.29
296.26	1769.44
296.48	1683.43
296.69	1681.38
296.90	1705.96
297.12	1718.25
297.33	1789.92
297.55	1683.43
297.76	1779.68
297.98	1841.12
298.19	1726.44
298.41	1757.16
298.62	1640.42
298.83	1767.40
299.05	1705.96
299.26	1751.01
299.48	1621.99
299.69	1705.96
299.90	1742.82
300.12	1605.61
300.33	1800.16
300.55	1726.44
300.76	1769.44
300.98	1660.90
301.19	1705.96
301.40	1710.05
301.62	1689.57
301.83	1650.66
302.05	1679.33
302.26	1716.20
302.47	1740.77
302.69	1615.85
302.90	1736.68
303.12	1589.22
303.33	1701.86
303.54	1839.08
303.76	1722.34
303.97	1712.10
304.19	1708.01
304.40	1675.24
304.61	1689.57
304.83	1810.40
305.04	1769.44
305.26	1669.09
305.47	1732.58
305.68	1667.05
305.90	1648.61
306.11	1748.97
306.33	1695.72
306.54	1615.85
306.75	1660.90
306.97	1599.46
307.18	1679.33
307.39	1763.30
307.61	1730.53
307.82	1669.09
308.04	1732.58
308.25	1642.47
308.46	1656.81
308.68	1763.30
308.89	1708.01
309.10	1767.40
309.32	1701.86
309.53	1705.96
309.74	1808.36
309.96	1738.73
310.17	1773.54
310.39	1611.75
310.60	1710.05
310.81	1738.73
311.03	1669.09
311.24	1734.63
311.45	1738.73
311.67	1806.31
311.88	1740.77
312.09	1746.92
312.31	1679.33
312.52	1701.86
312.73	1693.67
312.95	1671.14
313.16	1630.18
313.37	1751.01
313.59	1738.73
313.80	1781.73
314.01	1826.79
314.23	1718.25
314.44	1722.34
314.65	1617.90
314.87	1613.80
315.08	1687.53
315.29	1826.79
315.51	1634.28
315.72	1685.48
315.93	1769.44
316.15	1757.16
316.36	1701.86
316.57	1701.86
316.79	1695.72
317.00	1716.20
317.21	1744.87
317.43	1697.77
317.64	1789.92
317.85	1722.34
318.07	1720.29
318.28	1712.10
318.49	1882.08
318.70	1992.67
318.92	1900.52
319.13	1898.47
319.34	1939.43
319.56	1791.97
319.77	1902.56
319.98	1816.55
320.20	1755.11
320.41	1773.54
320.62	1769.44
320.83	1644.52
321.05	1783.78
321.26	1736.68
321.47	1710.05
321.69	1767.40
321.90	1624.04
322.11	1640.42
322.32	1677.29
322.54	1769.44
322.75	1689.57
322.96	1886.18
323.18	1595.37
323.39	1624.04
323.60	1712.10
323.81	1730.53
324.03	1632.23
324.24	1751.01
324.45	1703.91
324.66	1734.63
324.88	1775.59
325.09	1751.01
325.30	1697.77
325.52	1798.12
325.73	1677.29
325.94	1646.57
326.15	1675.24
326.37	1646.57
326.58	1712.10
326.79	1716.20
327.00	1710.05
327.22	1734.63
327.43	1671.14
327.64	1679.33
327.85	1720.29
328.07	1812.45
328.28	1744.87
328.49	1708.01
328.70	1748.97
328.92	1699.81
329.13	1714.15
329.34	1724.39
329.55	1834.98
329.76	1789.92
329.98	1726.44
330.19	1755.11
330.40	1722.34
330.61	1777.64
330.83	1726.44
331.04	1652.71
331.25	1804.26
331.46	1626.09
331.68	1621.99
331.89	1816.55
332.10	1685.48
332.31	1656.81
332.52	1804.26
332.74	1761.25
332.95	1617.90
333.16	1675.24
333.37	1726.44
333.58	1644.52
333.80	1744.87
334.01	1619.94
334.22	1748.97
334.43	1609.70
334.64	1697.77
334.86	1615.85
335.07	1646.57
335.28	1837.03
335.49	1669.09
335.70	1648.61
335.92	1746.92
336.13	1800.16
336.34	1722.34
336.55	1646.57
336.76	1748.97
336.98	1642.47
337.19	1746.92
337.40	1845.22
337.61	1775.59
337.82	1728.49
338.04	1683.43
338.25	1683.43
338.46	1671.14
338.67	1714.15
338.88	1681.38
339.09	1667.05
339.31	1626.09
339.52	1609.70
339.73	1710.05
339.94	1718.25
340.15	1820.64
340.36	1712.10
340.58	1730.53
340.79	1630.18
341.00	1742.82
341.21	1648.61
341.42	1837.03
341.63	1646.57
341.85	1730.53
342.06	1744.87
342.27	1677.29
342.48	1841.12
342.69	1720.29
342.90	1773.54
343.12	1689.57
343.33	1708.01
343.54	1800.16
343.75	1785.83
343.96	1624.04
344.17	1699.81
344.38	1734.63
344.60	1687.53
344.81	1644.52
345.02	1689.57
345.23	1716.20
345.44	1871.84
345.65	1771.49
345.86	1708.01
346.07	1681.38
346.29	1714.15
346.50	1773.54
346.71	1773.54
346.92	1896.42
347.13	1832.93
347.34	1728.49
347.55	1751.01
347.76	1724.39
347.98	1673.19
348.19	1689.57
348.40	1716.20
348.61	1669.09
348.82	1777.64
349.03	1767.40
349.24	1683.43
349.45	1796.07
349.66	1621.99
349.88	1681.38
350.09	1656.81
350.30	1789.92
350.51	1798.12
350.72	1773.54
350.93	1683.43
351.14	1681.38
351.35	1728.49
351.56	1736.68
351.77	1767.40
351.99	1746.92
352.20	1843.17
352.41	1773.54
352.62	1607.66
352.83	1671.14
353.04	1712.10
353.25	1683.43
353.46	1779.68
353.67	1771.49
353.88	1585.13
354.09	1671.14
354.30	1681.38
354.52	1720.29
354.73	1728.49
354.94	1687.53
355.15	1695.72
355.36	1789.92
355.57	1658.85
355.78	1687.53
355.99	1681.38
356.20	1730.53
356.41	1812.45
356.62	1720.29
356.83	1710.05
357.04	1720.29
357.25	1667.05
357.46	1675.24
357.68	1662.95
357.89	1630.18
358.10	1800.16
358.31	1683.43
358.52	1740.77
358.73	1708.01
358.94	1742.82
359.15	1617.90
359.36	1691.62
359.57	1730.53
359.78	1685.48
359.99	1677.29
360.20	1712.10
360.41	1703.91
360.62	1738.73
360.83	1705.96
361.04	1730.53
361.25	1787.88
361.46	1773.54
361.67	1796.07
361.88	1695.72
362.09	1701.86
362.30	1697.77
362.51	1683.43
362.72	1722.34
362.93	1658.85
363.14	1736.68
363.35	1779.68
363.56	1693.67
363.78	1699.81
363.99	1757.16
364.20	1726.44
364.41	1755.11
364.62	1834.98
364.83	1757.16
365.04	1640.42
365.25	1642.47
365.46	1730.53
365.67	1658.85
365.88	1683.43
366.09	1716.20
366.30	1683.43
366.51	1726.44
366.72	1687.53
366.93	1699.81
367.14	1759.21
367.35	1830.88
367.56	1718.25
367.77	1757.16
367.98	1759.21
368.18	1716.20
368.39	1699.81
368.60	1693.67
368.81	1746.92
369.02	1787.88
369.23	1753.06
369.44	1601.51
369.65	1722.34
369.86	1779.68
370.07	1771.49
370.28	1703.91
370.49	1701.86
370.70	1798.12
370.91	1673.19
371.12	1599.46
371.33	1767.40
371.54	1634.28
371.75	1847.27
371.96	1546.22
372.17	1730.53
372.38	1720.29
372.59	1720.29
372.80	1712.10
373.01	1687.53
373.22	1798.12
373.43	1710.05
373.64	1605.61
373.85	1710.05
374.06	1808.36
374.26	1763.30
374.47	1751.01
374.68	1798.12
374.89	1751.01
375.10	1708.01
375.31	1822.69
375.52	1695.72
375.73	1660.90
375.94	1613.80
376.15	1759.21
376.36	1710.05
376.57	1708.01
376.78	1728.49
376.99	1738.73
377.20	1771.49
377.40	1632.23
377.61	1814.50
377.82	1652.71
378.03	1779.68
378.24	1773.54
378.45	1705.96
378.66	1693.67
378.87	1597.42
379.08	1624.04
379.29	1630.18
379.50	1755.11
379.71	1648.61
379.91	1779.68
380.12	1683.43
380.33	1697.77
380.54	1679.33
380.75	1722.34
380.96	1769.44
381.17	1681.38
381.38	1759.21
381.59	1804.26
381.80	1714.15
382.00	1898.47
382.21	1834.98
382.42	1867.75
382.63	1880.04
382.84	1808.36
383.05	1800.16
383.26	1830.88
383.47	1732.58
383.68	1751.01
383.88	1710.05
384.09	1730.53
384.30	1830.88
384.51	1763.30
384.72	1708.01
384.93	1597.42
385.14	1722.34
385.35	1787.88
385.55	1689.57
385.76	1816.55
385.97	1689.57
386.18	1611.75
386.39	1665.00
386.60	1714.15
386.81	1689.57
387.02	1648.61
387.22	1689.57
387.43	1814.50
387.64	1796.07
387.85	1945.57
388.06	2258.91
388.27	4648.89
388.48	9135.99
388.68	11646.80
388.89	13233.97
389.10	14143.27
389.31	11597.65
389.52	9660.27
389.73	8509.31
389.93	7866.25
390.14	7133.08
390.35	6573.98
390.56	5805.99
390.77	4900.79
390.98	3837.89
391.18	3096.53
391.39	2394.08
391.60	2074.59
391.81	1894.37
392.02	1671.14
392.23	1857.51
392.43	1728.49
392.64	1847.27
392.85	1773.54
393.06	1777.64
393.27	1726.44
393.47	1626.09
393.68	1759.21
393.89	1730.53
394.10	1779.68
394.31	1667.05
394.52	1705.96
394.72	1656.81
394.93	1820.64
395.14	1648.61
395.35	1812.45
395.56	1720.29
395.76	1724.39
395.97	1812.45
396.18	1906.66
396.39	1908.71
396.60	2125.79
396.80	1925.09
397.01	1931.23
397.22	1832.93
397.43	1871.84
397.64	1779.68
397.84	1814.50
398.05	1837.03
398.26	1759.21
398.47	1730.53
398.67	1818.60
398.88	1691.62
399.09	1775.59
399.30	1673.19
399.51	1699.81
399.71	1720.29
399.92	1724.39
400.13	1718.25
400.34	1714.15
400.54	1744.87
400.75	1787.88
400.96	1714.15
401.17	1783.78
401.37	1712.10
401.58	1665.00
401.79	1734.63
402.00	1855.46
402.21	2138.08
402.41	2045.92
402.62	2097.12
402.83	2162.66
403.04	2146.27
403.24	2181.09
403.45	1894.37
403.66	1988.58
403.87	1871.84
404.07	1986.53
404.28	1990.63
404.49	1886.18
404.70	1824.74
404.90	1755.11
405.11	1841.12
405.32	1730.53
405.52	1656.81
405.73	1644.52
405.94	1669.09
406.15	1730.53
406.35	1761.25
406.56	1767.40
406.77	1734.63
406.98	1691.62
407.18	1665.00
407.39	1820.64
407.60	1761.25
407.80	1724.39
408.01	1697.77
408.22	1705.96
408.43	1732.58
408.63	1693.67
408.84	1757.16
409.05	1716.20
409.25	1716.20
409.46	1697.77
409.67	1746.92
409.88	1591.27
410.08	1703.91
410.29	1685.48
410.50	1726.44
410.70	1763.30
410.91	1689.57
411.12	1794.02
411.32	1736.68
411.53	1660.90
411.74	1845.22
411.95	1783.78
412.15	1775.59
412.36	1785.83
412.57	1771.49
412.77	1849.32
412.98	1769.44
413.19	1722.34
413.39	1748.97
413.60	1761.25
413.81	1783.78
414.01	1710.05
414.22	1847.27
414.43	1773.54
414.63	1740.77
414.84	1800.16
415.05	1734.63
415.25	1609.70
415.46	1744.87
415.67	1665.00
415.87	1720.29
416.08	1763.30
416.29	1746.92
416.49	1728.49
416.70	1638.38
416.91	1740.77
417.11	1695.72
417.32	1710.05
417.53	1759.21
417.73	1751.01
417.94	1763.30
418.15	1724.39
418.35	1697.77
418.56	1695.72
418.77	1865.70
418.97	1673.19
419.18	1673.19
419.38	1587.18
419.59	1757.16
419.80	1806.31
420.00	1695.72
420.21	1714.15
420.42	1763.30
420.62	1800.16
420.83	1681.38
421.04	1701.86
421.24	1722.34
421.45	1730.53
421.65	1728.49
421.86	1646.57
422.07	1736.68
422.27	1746.92
422.48	1751.01
422.69	1599.46
422.89	1679.33
423.10	1757.16
423.30	1669.09
423.51	1705.96
423.72	1714.15
423.92	1763.30
424.13	1570.79
424.33	1660.90
424.54	1791.97
424.75	1701.86
424.95	1812.45
425.16	1710.05
425.36	1720.29
425.57	1818.60
425.78	1693.67
425.98	1734.63
426.19	1714.15
426.39	1677.29
426.60	1675.24
426.81	1816.55
427.01	1753.06
427.22	1740.77
427.42	1683.43
427.63	1699.81
427.83	1748.97
428.04	1832.93
428.25	1810.40
428.45	1806.31
428.66	1767.40
428.86	1710.05
429.07	1658.85
429.28	1738.73
429.48	1714.15
429.69	1630.18
429.89	1761.25
430.10	1685.48
430.30	1734.63
430.51	1816.55
430.71	1730.53
430.92	1708.01
431.13	1681.38
431.33	1787.88
431.54	1740.77
431.74	1841.12
431.95	1853.41
432.15	1703.91
432.36	1732.58
432.56	1789.92
432.77	1804.26
432.98	1746.92
433.18	1759.21
433.39	1759.21
433.59	1714.15
433.80	1787.88
434.00	1853.41
434.21	1613.80
434.41	1730.53
434.62	1837.03
434.82	1654.76
435.03	1591.27
435.23	1746.92
435.44	1652.71
435.64	1773.54
435.85	1683.43
436.06	1769.44
436.26	1787.88
436.47	1742.82
436.67	1693.67
436.88	1685.48
437.08	1767.40
437.29	1730.53
437.49	1710.05
437.70	1703.91
437.90	1724.39
438.11	1834.98
438.31	1818.60
438.52	1939.43
438.72	1904.61
438.93	1964.00
439.13	1845.22
439.34	1867.75
439.54	1775.59
439.75	1814.50
439.95	1865.70
440.16	1714.15
440.36	1708.01
440.57	1812.45
440.77	1830.88
440.98	1726.44
441.18	1781.73
441.39	1720.29
441.59	1755.11
441.80	1820.64
442.00	1796.07
442.21	1849.32
442.41	1642.47
442.62	1751.01
442.82	1728.49
443.02	1699.81
443.23	1751.01
443.43	1751.01
443.64	1853.41
443.84	1724.39
444.05	1806.31
444.25	1751.01
444.46	1720.29
444.66	1724.39
444.87	1810.40
445.07	1665.00
445.28	1769.44
445.48	1880.04
445.69	1781.73
445.89	1925.09
446.09	1861.60
446.30	2041.82
446.50	2551.77
446.71	4097.99
446.91	5074.87
447.12	5822.38
447.32	5955.49
447.53	5318.57
447.73	4458.43
447.93	4093.89
448.14	3524.55
448.34	3418.06
448.55	3237.84
448.75	3022.80
448.96	2953.17
449.16	2652.12
449.36	2566.10
449.57	2189.28
449.77	1941.47
449.98	1826.79
450.18	1802.21
450.39	1816.55
450.59	1800.16
450.79	1681.38
451.00	1650.66
451.20	1843.17
451.41	1742.82
451.61	1722.34
451.81	1765.35
452.02	1716.20
452.22	1703.91
452.43	1783.78
452.63	1716.20
452.84	1726.44
453.04	1738.73
453.24	1691.62
453.45	1748.97
453.65	1740.77
453.86	1740.77
454.06	1755.11
454.26	1751.01
454.47	1681.38
454.67	1794.02
454.87	1775.59
455.08	1740.77
455.28	1851.36
455.49	1789.92
455.69	1642.47
455.89	1882.08
456.10	1785.83
456.30	1738.73
456.51	1712.10
456.71	1714.15
456.91	1791.97
457.12	1720.29
457.32	1697.77
457.52	1697.77
457.73	1769.44
457.93	1822.69
458.14	1654.76
458.34	1687.53
458.54	1697.77
458.75	1755.11
458.95	1798.12
459.15	1810.40
459.36	1724.39
459.56	1689.57
459.76	1865.70
459.97	1783.78
460.17	1669.09
460.37	1826.79
460.58	1710.05
460.78	1855.46
460.99	1691.62
461.19	1812.45
461.39	1681.38
461.60	1681.38
461.80	1753.06
462.00	1656.81
462.21	1798.12
462.41	1665.00
462.61	1662.95
462.82	1648.61
463.02	1785.83
463.22	1769.44
463.43	1839.08
463.63	1667.05
463.83	1779.68
464.04	1691.62
464.24	1722.34
464.44	1697.77
464.64	1708.01
464.85	1794.02
465.05	1851.36
465.25	1667.05
465.46	1718.25
465.66	1746.92
465.86	1656.81
466.07	1683.43
466.27	1767.40
466.47	1607.66
466.68	1624.04
466.88	1794.02
467.08	1716.20
467.29	1783.78
467.49	1650.66
467.69	1757.16
467.89	1734.63
468.10	1677.29
468.30	1773.54
468.50	1837.03
468.71	1769.44
468.91	1665.00
469.11	1832.93
469.31	1665.00
469.52	1693.67
469.72	1806.31
469.92	1900.52
470.13	1687.53
470.33	1736.68
470.53	1812.45
470.73	2228.19
470.94	2570.20
471.14	2643.93
471.34	2992.08
471.54	2936.79
471.75	2516.95
471.95	2351.07
472.15	2222.05
472.36	2236.38
472.56	2203.61
472.76	2181.09
472.96	2078.69
473.17	2062.30
473.37	1947.62
473.57	1820.64
473.77	1839.08
473.98	1837.03
474.18	1701.86
474.38	1914.85
474.58	1734.63
474.79	1605.61
474.99	1710.05
475.19	1828.84
475.39	1671.14
475.60	1712.10
475.80	1771.49
476.00	1699.81
476.20	1703.91
476.41	1796.07
476.61	1767.40
476.81	1810.40
477.01	1675.24
477.21	1812.45
477.42	1892.32
477.62	1671.14
477.82	1853.41
478.02	1736.68
478.23	1681.38
478.43	1585.13
478.63	1656.81
478.83	1691.62
479.03	1658.85
479.24	1785.83
479.44	1826.79
479.64	1636.33
479.84	1591.27
480.04	1675.24
480.25	1742.82
480.45	1683.43
480.65	1724.39
480.85	1853.41
481.06	1652.71
481.26	1761.25
481.46	1794.02
481.66	1757.16
481.86	1734.63
482.06	1779.68
482.27	1777.64
482.47	1679.33
482.67	1716.20
482.87	1705.96
483.07	1775.59
483.28	1701.86
483.48	1693.67
483.68	1734.63
483.88	1634.28
484.08	1613.80
484.29	1673.19
484.49	1787.88
484.69	1615.85
484.89	1746.92
485.09	1767.40
485.29	1765.35
485.50	1753.06
485.70	1732.58
485.90	1818.60
486.10	1730.53
486.30	1785.83
486.50	1775.59
486.71	1669.09
486.91	1841.12
487.11	1773.54
487.31	1705.96
487.51	1759.21
487.71	1777.64
487.91	1648.61
488.12	1665.00
488.32	1630.18
488.52	1716.20
488.72	1662.95
488.92	1763.30
489.12	1763.30
489.32	1753.06
489.53	1699.81
489.73	1681.38
489.93	1867.75
490.13	1648.61
490.33	1660.90
490.53	1806.31
490.73	1830.88
490.94	1652.71
491.14	1738.73
491.34	1787.88
491.54	2133.98
491.74	2703.32
491.94	3268.56
492.14	3481.55
492.34	3508.17
492.54	3153.87
492.75	2637.78
492.95	2664.41
493.15	2418.65
493.35	2406.36
493.55	2344.92
493.75	2281.44
493.95	2154.46
494.15	2041.82
494.35	1943.52
494.56	1781.73
494.76	1781.73
494.96	1785.83
495.16	1687.53
495.36	1726.44
495.56	1783.78
495.76	1816.55
495.96	1722.34
496.16	1742.82
496.36	1898.47
496.56	1718.25
496.77	1753.06
496.97	1724.39
497.17	1820.64
497.37	1646.57
497.57	1773.54
497.77	1665.00
497.97	1673.19
498.17	1808.36
498.37	1773.54
498.57	1728.49
498.77	1710.05
498.97	1787.88
499.17	1789.92
499.38	1746.92
499.58	1810.40
499.78	1726.44
499.98	1820.64
500.18	1832.93
500.38	1767.40
500.58	1861.60
500.78	2490.33
500.98	4616.12
501.18	6715.29
501.38	8251.27
501.58	9140.08
501.78	8810.36
501.98	6905.75
502.18	5689.26
502.38	4976.56
502.58	4464.57
502.78	4171.71
502.98	3944.39
503.18	3919.81
503.38	3602.38
503.59	3151.82
503.79	2832.34
503.99	2662.36
504.19	2365.40
504.39	2271.20
504.59	2394.08
504.79	2375.64
504.99	2263.01
505.19	2058.21
505.39	1947.62
505.59	2074.59
505.79	1964.00
505.99	1894.37
506.19	1884.13
506.39	1814.50
506.59	1726.44
506.79	1744.87
506.99	1896.42
507.19	1783.78
507.39	1785.83
507.59	1650.66
507.79	1738.73
507.99	1746.92
508.19	1746.92
508.39	1665.00
508.59	1742.82
508.79	1755.11
508.99	1834.98
509.19	1683.43
509.39	1773.54
509.59	1681.38
509.79	1689.57
509.99	1638.38
510.19	1820.64
510.39	1824.74
510.59	1718.25
510.79	1718.25
510.99	1638.38
511.19	1755.11
511.39	1746.92
511.59	1808.36
511.79	1791.97
511.99	1796.07
512.19	1806.31
512.38	1812.45
512.58	1726.44
512.78	1703.91
512.98	1751.01
513.18	1820.64
513.38	1599.46
513.58	1830.88
513.78	1654.76
513.98	1742.82
514.18	1736.68
514.38	1693.67
514.58	1716.20
514.78	1724.39
514.98	1665.00
515.18	1693.67
515.38	1689.57
515.58	1847.27
515.78	1669.09
515.98	1693.67
516.18	1751.01
516.38	1652.71
516.57	1775.59
516.77	1681.38
516.97	1796.07
517.17	1726.44
517.37	1665.00
517.57	1720.29
517.77	1736.68
517.97	1675.24
518.17	1757.16
518.37	1648.61
518.57	1697.77
518.77	1673.19
518.97	1687.53
519.16	1710.05
519.36	1800.16
519.56	1736.68
519.76	1710.05
519.96	1730.53
520.16	1740.77
520.36	1779.68
520.56	1759.21
520.76	1816.55
520.96	1591.27
521.16	1853.41
521.35	1824.74
521.55	1861.60
521.75	1714.15
521.95	1763.30
522.15	1687.53
522.35	1646.57
522.55	1710.05
522.75	1759.21
522.95	1794.02
523.14	1636.33
523.34	1734.63
523.54	1656.81
523.74	1794.02
523.94	1828.84
524.14	1640.42
524.34	1775.59
524.54	1804.26
524.73	1726.44
524.93	1708.01
525.13	1722.34
525.33	1697.77
525.53	1857.51
525.73	1724.39
525.93	1728.49
526.13	1746.92
526.32	1699.81
526.52	1779.68
526.72	1773.54
526.92	1705.96
527.12	1708.01
527.32	1613.80
527.52	1701.86
527.71	1775.59
527.91	1746.92
528.11	1724.39
528.31	1710.05
528.51	1714.15
528.71	1734.63
528.90	1701.86
529.10	1814.50
529.30	1789.92
529.50	1636.33
529.70	1751.01
529.90	1732.58
530.09	1777.64
530.29	1632.23
530.49	1576.94
530.69	1794.02
530.89	1685.48
531.09	1785.83
531.28	1708.01
531.48	1755.11
531.68	1705.96
531.88	1751.01
532.08	1773.54
532.28	1712.10
532.47	1789.92
532.67	1798.12
532.87	1822.69
533.07	1720.29
533.27	1787.88
533.46	1806.31
533.66	1828.84
533.86	1791.97
534.06	1767.40
534.26	1775.59
534.45	1773.54
534.65	1767.40
534.85	1781.73
535.05	1697.77
535.25	1777.64
535.44	1640.42
535.64	1755.11
535.84	1787.88
536.04	1689.57
536.24	1716.20
536.43	1699.81
536.63	1777.64
536.83	1742.82
537.03	1837.03
537.22	1626.09
537.42	1683.43
537.62	1781.73
537.82	1693.67
538.02	1857.51
538.21	1787.88
538.41	1953.76
538.61	1783.78
538.81	1724.39
539.00	1765.35
539.20	1619.94
539.40	1751.01
539.60	1767.40
539.79	1742.82
539.99	1781.73
540.19	1699.81
540.39	1763.30
540.58	1763.30
540.78	1742.82
540.98	1767.40
541.18	1746.92
541.37	1804.26
541.57	1628.14
541.77	1738.73
541.97	1677.29
542.16	1646.57
542.36	1689.57
542.56	1826.79
542.76	1832.93
542.95	1781.73
543.15	1767.40
543.35	1802.21
543.54	1720.29
543.74	1691.62
543.94	1857.51
544.14	1767.40
544.33	1789.92
544.53	1642.47
544.73	1726.44
544.93	1824.74
545.12	1669.09
545.32	1710.05
545.52	1742.82
545.71	1671.14
545.91	1736.68
546.11	1751.01
546.30	1705.96
546.50	1683.43
546.70	1734.63
546.90	1757.16
547.09	1619.94
547.29	1718.25
547.49	1751.01
547.68	1732.58
547.88	1675.24
548.08	1779.68
548.27	2236.38
548.47	1665.00
548.67	1665.00
548.87	1765.35
549.06	1683.43
549.26	1738.73
549.46	1744.87
549.65	1724.39
549.85	1759.21
550.05	1796.07
550.24	1644.52
550.44	1738.73
550.64	1816.55
550.83	1734.63
551.03	1853.41
551.23	1789.92
551.42	1767.40
551.62	1794.02
551.82	1689.57
552.01	1755.11
552.21	1812.45
552.41	1736.68
552.60	1787.88
552.80	1773.54
553.00	1759.21
553.19	1765.35
553.39	1888.23
553.59	1607.66
553.78	1781.73
553.98	1798.12
554.17	1710.05
554.37	1755.11
554.57	1810.40
554.76	1671.14
554.96	1708.01
555.16	1798.12
555.35	1779.68
555.55	1771.49
555.75	1847.27
555.94	1724.39
556.14	1628.14
556.33	1816.55
556.53	1708.01
556.73	1748.97
556.92	1757.16
557.12	1875.94
557.32	1808.36
557.51	1812.45
557.71	1728.49
557.90	1826.79
558.10	1789.92
558.30	1701.86
558.49	1712.10
558.69	1656.81
558.88	1820.64
559.08	1767.40
559.28	1716.20
559.47	1746.92
559.67	1763.30
559.86	1869.80
560.06	1718.25
560.26	1812.45
560.45	1755.11
560.65	1734.63
560.84	1791.97
561.04	1656.81
561.24	1734.63
561.43	1695.72
561.63	1796.07
561.82	1759.21
562.02	1806.31
562.22	1687.53
562.41	1650.66
562.61	1753.06
562.80	1738.73
563.00	1912.80
563.19	1703.91
563.39	1796.07
563.59	1736.68
563.78	1722.34
563.98	1621.99
564.17	1732.58
564.37	1679.33
564.56	1736.68
564.76	1734.63
564.96	1847.27
565.15	1730.53
565.35	1861.60
565.54	1677.29
565.74	1859.56
565.93	1734.63
566.13	1746.92
566.32	1800.16
566.52	1783.78
566.71	1685.48
566.91	1820.64
567.11	1732.58
567.30	1671.14
567.50	1705.96
567.69	1722.34
567.89	1689.57
568.08	1812.45
568.28	1773.54
568.47	1699.81
568.67	1742.82
568.86	1681.38
569.06	1812.45
569.25	1834.98
569.45	1763.30
569.64	1611.75
569.84	1742.82
570.04	1834.98
570.23	1736.68
570.43	1695.72
570.62	1744.87
570.82	1898.47
571.01	1708.01
571.21	1658.85
571.40	1720.29
571.60	1738.73
571.79	1834.98
571.99	1820.64
572.18	1699.81
572.38	1705.96
572.57	1634.28
572.77	1699.81
572.96	1902.56
573.16	1726.44
573.35	1742.82
573.55	1779.68
573.74	1757.16
573.94	1675.24
574.13	1718.25
574.33	1777.64
574.52	1820.64
574.71	1769.44
574.91	1775.59
575.10	1693.67
575.30	1742.82
575.49	1720.29
575.69	1691.62
575.88	1839.08
576.08	1710.05
576.27	1865.70
576.47	1755.11
576.66	1910.75
576.86	1865.70
577.05	1765.35
577.25	1761.25
577.44	1896.42
577.64	1738.73
577.83	1779.68
578.02	1779.68
578.22	1857.51
578.41	1849.32
578.61	1746.92
578.80	1658.85
579.00	1679.33
579.19	1714.15
579.39	1863.65
579.58	1834.98
579.77	1742.82
579.97	1867.75
580.16	1884.13
580.36	1773.54
580.55	1896.42
580.75	1832.93
580.94	1849.32
581.13	1824.74
581.33	1853.41
581.52	1828.84
581.72	1853.41
581.91	1859.56
582.11	1824.74
582.30	1884.13
582.49	1890.28
582.69	1871.84
582.88	1871.84
583.08	1765.35
583.27	1834.98
583.47	1783.78
583.66	1742.82
583.85	1701.86
584.05	1767.40
584.24	1814.50
584.44	1855.46
584.63	1802.21
584.82	1920.99
585.02	1923.04
585.21	1968.10
585.41	1937.38
585.60	1894.37
585.79	1923.04
585.99	1908.71
586.18	1941.47
586.37	2291.68
586.57	3196.88
586.76	9938.79
586.96	27201.12
587.15	41581.96
587.34	51113.20
587.54	57728.14
587.73	55454.90
587.93	39761.31
588.12	29568.57
588.31	23619.22
588.51	20258.51
588.70	18173.67
588.89	17157.88
589.09	15343.38
589.28	13516.59
589.47	11421.52
589.67	9416.56
589.86	7427.98
590.06	5435.31
590.25	4179.90
590.44	3299.28
590.64	2729.94
590.83	2211.81
591.02	2146.27
591.22	1986.53
591.41	1863.65
591.60	1746.92
591.80	1912.80
591.99	1769.44
592.18	1763.30
592.38	1761.25
592.57	1718.25
592.76	1775.59
592.96	1781.73
593.15	1880.04
593.34	1828.84
593.54	1755.11
593.73	1828.84
593.92	1818.60
594.12	1830.88
594.31	1759.21
594.50	1812.45
594.70	1798.12
594.89	1880.04
595.08	1679.33
595.28	1824.74
595.47	1927.14
595.66	1851.36
595.86	1726.44
596.05	1787.88
596.24	1699.81
596.43	1892.32
596.63	1910.75
596.82	1728.49
597.01	1773.54
597.21	1828.84
597.40	1800.16
597.59	1724.39
597.79	1755.11
597.98	1859.56
598.17	1742.82
598.36	1714.15
598.56	1818.60
598.75	1767.40
598.94	1830.88
599.14	1765.35
599.33	1746.92
599.52	1761.25
599.71	1773.54
599.91	1820.64
600.10	1849.32
600.29	1701.86
600.48	1812.45
600.68	1748.97
600.87	1796.07
601.06	1779.68
601.26	1748.97
601.45	1736.68
601.64	1671.14
601.83	1773.54
602.03	1660.90
602.22	1714.15
602.41	1851.36
602.60	1898.47
602.80	1832.93
602.99	1800.16
603.18	1720.29
603.37	1736.68
603.57	1765.35
603.76	1814.50
603.95	1851.36
604.14	1710.05
604.34	1724.39
604.53	1738.73
604.72	1736.68
604.91	1751.01
605.10	1785.83
605.30	1705.96
605.49	1902.56
605.68	1804.26
605.87	1761.25
606.07	1775.59
606.26	1689.57
606.45	1767.40
606.64	1761.25
606.84	1763.30
607.03	1873.89
607.22	1826.79
607.41	1834.98
607.60	1824.74
607.80	1851.36
607.99	1736.68
608.18	1728.49
608.37	1738.73
608.56	1722.34
608.76	1777.64
608.95	1890.28
609.14	1806.31
609.33	1812.45
609.52	1824.74
609.72	1830.88
609.91	1871.84
610.10	1875.94
610.29	1902.56
610.48	1802.21
610.68	1732.58
610.87	1791.97
611.06	1779.68
611.25	1812.45
611.44	1826.79
611.63	1777.64
611.83	1787.88
612.02	1671.14
612.21	1828.84
612.40	1613.80
612.59	1712.10
612.79	1685.48
612.98	1742.82
613.17	1886.18
613.36	1740.77
613.55	1832.93
613.74	1736.68
613.93	1882.08
614.13	1916.90
614.32	2025.44
614.51	1988.58
614.70	1816.55
614.89	1847.27
615.08	1896.42
615.28	2074.59
615.47	1826.79
615.66	1820.64
615.85	1810.40
616.04	1920.99
616.23	1855.46
616.42	1802.21
616.62	1873.89
616.81	1763.30
617.00	1771.49
617.19	1781.73
617.38	1654.76
617.57	1814.50
617.76	1773.54
617.95	1828.84
618.15	1851.36
618.34	1869.80
618.53	1632.23
618.72	1701.86
618.91	1818.60
619.10	1853.41
619.29	1787.88
619.48	1683.43
619.68	1589.22
619.87	1783.78
620.06	1667.05
620.25	1718.25
620.44	1736.68
620.63	1693.67
620.82	1794.02
621.01	1744.87
621.20	1718.25
621.39	1751.01
621.59	1785.83
621.78	1724.39
621.97	1724.39
622.16	1771.49
622.35	1761.25
622.54	1824.74
622.73	1841.12
622.92	1742.82
623.11	1787.88
623.30	1718.25
623.49	1742.82
623.68	1712.10
623.88	1812.45
624.07	1814.50
624.26	1763.30
624.45	1734.63
624.64	1703.91
624.83	1734.63
625.02	1701.86
625.21	1738.73
625.40	1712.10
625.59	1771.49
625.78	1728.49
625.97	1806.31
626.16	1935.33
626.35	1863.65
626.54	1789.92
626.74	1877.99
626.93	1740.77
627.12	1769.44
627.31	1802.21
627.50	1746.92
627.69	1732.58
627.88	1705.96
628.07	1775.59
628.26	1734.63
628.45	1683.43
628.64	1699.81
628.83	1742.82
629.02	1658.85
629.21	1812.45
629.40	1724.39
629.59	1705.96
629.78	1746.92
629.97	1744.87
630.16	1753.06
630.35	1761.25
630.54	1767.40
630.73	1732.58
630.92	1669.09
631.11	1687.53
631.30	1712.10
631.49	1794.02
631.68	1628.14
631.87	1740.77
632.06	1710.05
632.25	1857.51
632.44	1695.72
632.63	1832.93
632.82	1738.73
633.01	1722.34
633.20	1820.64
633.39	1812.45
633.58	1679.33
633.77	1789.92
633.96	1888.23
634.15	1816.55
634.34	1767.40
634.53	1714.15
634.72	1673.19
634.91	1755.11
635.10	1765.35
635.29	1787.88
635.48	1759.21
635.67	1744.87
635.86	1685.48
636.05	1796.07
636.24	1626.09
636.43	1806.31
636.62	1775.59
636.81	1558.50
637.00	1697.77
637.19	1763.30
637.38	1845.22
637.57	1759.21
637.76	1808.36
637.95	1839.08
638.14	1783.78
638.33	1832.93
638.52	1794.02
638.71	1763.30
638.89	1716.20
639.08	1939.43
639.27	1894.37
639.46	1925.09
639.65	2254.81
639.84	2265.05
640.03	2519.00
640.22	2322.40
640.41	2400.22
640.60	2021.35
640.79	2045.92
640.98	1949.67
641.17	1935.33
641.36	1898.47
641.55	1890.28
641.74	1828.84
641.92	1794.02
642.11	1787.88
642.30	1742.82
642.49	1767.40
642.68	1859.56
642.87	1832.93
643.06	1714.15
643.25	1685.48
643.44	1671.14
643.63	1710.05
643.82	1703.91
644.00	1730.53
644.19	1689.57
644.38	1677.29
644.57	1748.97
644.76	1740.77
644.95	1742.82
645.14	1708.01
645.33	1671.14
645.52	1693.67
645.71	1638.38
645.89	1650.66
646.08	1662.95
646.27	1722.34
646.46	1912.80
646.65	1603.56
646.84	1689.57
647.03	1732.58
647.22	1722.34
647.40	1677.29
647.59	1675.24
647.78	1601.51
647.97	1703.91
648.16	1667.05
648.35	1771.49
648.54	1761.25
648.73	1701.86
648.91	1771.49
649.10	1734.63
649.29	1722.34
649.48	1783.78
649.67	1800.16
649.86	1652.71
650.05	1834.98
650.23	1798.12
650.42	1800.16
650.61	1927.14
650.80	1851.36
650.99	1961.95
651.18	1816.55
651.36	1775.59
651.55	1757.16
651.74	1832.93
651.93	1673.19
652.12	1824.74
652.31	1798.12
652.49	1714.15
652.68	1775.59
652.87	1808.36
653.06	1761.25
653.25	1865.70
653.44	1714.15
653.62	1855.46
653.81	1699.81
654.00	1699.81
654.19	1791.97
654.38	1886.18
654.56	1699.81
654.75	1728.49
654.94	1800.16
655.13	1695.72
655.32	1705.96
655.51	1798.12
655.69	1710.05
655.88	1748.97
656.07	1601.51
656.26	1734.63
656.45	1640.42
656.63	1751.01
656.82	1722.34
657.01	1699.81
657.20	1640.42
657.38	1789.92
657.57	1685.48
657.76	1595.37
657.95	1800.16
658.14	1669.09
658.32	1734.63
658.51	1665.00
658.70	1681.38
658.89	1724.39
659.08	1718.25
659.26	1765.35
659.45	1730.53
659.64	1734.63
659.83	1716.20
660.01	1918.95
660.20	1732.58
660.39	1853.41
660.58	1624.04
660.76	1757.16
660.95	1726.44
661.14	1695.72
661.33	1636.33
661.51	1728.49
661.70	1720.29
661.89	1759.21
662.08	1689.57
662.26	1701.86
662.45	1656.81
662.64	1849.32
662.83	1691.62
663.01	1687.53
663.20	1701.86
663.39	1824.74
663.58	1763.30
663.76	1722.34
663.95	1865.70
664.14	1650.66
664.32	1621.99
664.51	1669.09
664.70	1552.36
664.89	1695.72
665.07	1697.77
665.26	1783.78
665.45	1597.42
665.64	1789.92
665.82	1740.77
666.01	1714.15
666.20	1654.76
666.38	1812.45
666.57	1765.35
666.76	2199.52
666.95	4704.18
667.13	11659.09
667.32	18214.63
667.51	21976.75
667.69	24895.11
667.88	25288.32
668.07	19443.42
668.25	14477.09
668.44	11749.20
668.63	9672.56
668.81	8408.96
669.00	7563.15
669.19	6918.04
669.38	5902.25
669.56	5281.71
669.75	4569.02
669.94	3798.98
670.12	3106.77
670.31	2678.74
670.50	2373.60
670.68	2152.42
670.87	1959.91
671.06	1845.22
671.24	1843.17
671.43	1900.52
671.62	1796.07
671.80	1751.01
671.99	1759.21
672.18	1697.77
672.36	1845.22
672.55	1785.83
672.74	1728.49
672.92	1736.68
673.11	1759.21
673.29	1681.38
673.48	1824.74
673.67	1683.43
673.85	1816.55
674.04	1701.86
674.23	1681.38
674.41	1880.04
674.60	1691.62
674.79	1652.71
674.97	1722.34
675.16	1783.78
675.34	1775.59
675.53	1611.75
675.72	1705.96
675.90	1796.07
676.09	1634.28
676.28	1728.49
676.46	1695.72
676.65	1806.31
676.83	1697.77
677.02	1728.49
677.21	1705.96
677.39	1726.44
677.58	1636.33
677.77	1687.53
677.95	1699.81
678.14	1724.39
678.32	1691.62
678.51	1705.96
678.70	1839.08
678.88	1773.54
679.07	1710.05
679.25	1744.87
679.44	1710.05
679.63	1605.61
679.81	1738.73
680.00	1726.44
680.18	1800.16
680.37	1810.40
680.55	1716.20
680.74	1640.42
680.93	1593.32
681.11	1740.77
681.30	1763.30
681.48	1703.91
681.67	1632.23
681.85	1697.77
682.04	1642.47
682.23	1767.40
682.41	1667.05
682.60	1728.49
682.78	1753.06
682.97	1703.91
683.15	1755.11
683.34	1753.06
683.53	1769.44
683.71	1646.57
683.90	1804.26
684.08	1841.12
684.27	1693.67
684.45	1667.05
684.64	1771.49
684.82	1669.09
685.01	1708.01
685.19	1650.66
685.38	1816.55
685.57	1681.38
685.75	1701.86
685.94	1785.83
686.12	1693.67
686.31	1697.77
686.49	1853.41
686.68	1701.86
686.86	1734.63
687.05	1718.25
687.23	1777.64
687.42	1742.82
687.60	1570.79
687.79	1759.21
687.97	1808.36
688.16	1785.83
688.34	1773.54
688.53	1607.66
688.71	1718.25
688.90	1791.97
689.08	1662.95
689.27	1658.85
689.45	1730.53
689.64	1816.55
689.82	1720.29
690.01	1767.40
690.19	1755.11
690.38	1689.57
690.56	1757.16
690.75	1644.52
690.93	1667.05
691.12	1699.81
691.30	1765.35
691.49	1624.04
691.67	1746.92
691.86	1828.84
692.04	1677.29
692.23	1761.25
692.41	1814.50
692.60	2004.96
692.78	1849.32
692.97	1785.83
693.15	1789.92
693.34	1882.08
693.52	1834.98
693.71	1791.97
693.89	1718.25
694.08	1613.80
694.26	1738.73
694.44	1781.73
694.63	1695.72
694.81	1671.14
695.00	1718.25
695.18	1753.06
695.37	1863.65
695.55	1755.11
695.74	1679.33
695.92	1738.73
696.10	1781.73
696.29	1654.76
696.47	1691.62
696.66	1574.89
696.84	1646.57
697.03	1755.11
697.21	1826.79
697.40	2312.16
697.58	1804.26
697.76	1681.38
697.95	1759.21
698.13	1669.09
698.32	1660.90
698.50	1673.19
698.68	1751.01
698.87	1669.09
699.05	1761.25
699.24	1777.64
699.42	1673.19
699.61	1708.01
699.79	1708.01
699.97	1691.62
700.16	1605.61
700.34	1621.99
700.53	1722.34
700.71	1814.50
700.89	1822.69
701.08	1658.85
701.26	1732.58
701.45	2060.26
701.63	1679.33
701.81	1699.81
702.00	1662.95
702.18	1742.82
702.37	1718.25
702.55	1785.83
702.73	1929.19
702.92	1890.28
703.10	1966.05
703.28	2009.06
703.47	1740.77
703.65	1875.94
703.84	1994.72
704.02	1812.45
704.20	1789.92
704.39	1777.64
704.57	1740.77
704.75	1759.21
704.94	1847.27
705.12	1742.82
705.30	1894.37
705.49	2424.80
705.67	5580.71
705.86	13188.92
706.04	19037.92
706.22	22625.96
706.41	25060.99
706.59	24628.87
706.77	19103.45
706.96	13596.46
707.14	11937.61
707.32	10184.55
707.51	8863.61
707.69	7815.05
707.87	6754.20
708.06	5427.12
708.24	4306.88
708.42	3338.19
708.61	2752.47
708.79	2213.85
708.97	2027.49
709.16	1949.67
709.34	1884.13
709.52	1796.07
709.71	1773.54
709.89	1777.64
710.07	1732.58
710.26	1712.10
710.44	1751.01
710.62	1777.64
710.80	1742.82
710.99	1791.97
711.17	1763.30
711.35	1671.14
711.54	1734.63
711.72	1781.73
711.90	1787.88
712.09	1673.19
712.27	1773.54
712.45	1744.87
712.63	1679.33
712.82	1730.53
713.00	1697.77
713.18	1798.12
713.37	1794.02
713.55	1751.01
713.73	1773.54
713.91	1773.54
714.10	1697.77
714.28	1740.77
714.46	1761.25
714.65	1740.77
714.83	1757.16
715.01	1697.77
715.19	1697.77
715.38	1736.68
715.56	1748.97
715.74	1732.58
715.92	1759.21
716.11	1851.36
716.29	1593.32
716.47	1677.29
716.65	1658.85
716.84	1642.47
717.02	1806.31
717.20	1685.48
717.38	1703.91
717.57	1724.39
717.75	1742.82
717.93	1685.48
718.11	1722.34
718.30	1748.97
718.48	1761.25
718.66	1816.55
718.84	1779.68
719.03	1710.05
719.21	1681.38
719.39	1845.22
719.57	1718.25
719.75	1791.97
719.94	1640.42
720.12	1669.09
720.30	1720.29
720.48	1779.68
720.67	1632.23
720.85	1726.44
721.03	1712.10
721.21	1695.72
721.39	1804.26
721.58	1748.97
721.76	1691.62
721.94	1751.01
722.12	1697.77
722.30	1847.27
722.49	1646.57
722.67	1738.73
722.85	1718.25
723.03	1599.46
723.21	1736.68
723.40	1697.77
723.58	1841.12
723.76	1724.39
723.94	1875.94
724.12	1800.16
724.30	1865.70
724.49	1865.70
724.67	1675.24
724.85	1849.32
725.03	1724.39
725.21	1802.21
725.40	1783.78
725.58	1691.62
725.76	1877.99
725.94	1699.81
726.12	1677.29
726.30	1669.09
726.49	1703.91
726.67	1660.90
726.85	1708.01
727.03	1785.83
727.21	2344.92
727.39	3538.89
727.57	4947.89
727.76	5674.92
727.94	6064.04
728.12	6059.94
728.30	5611.43
728.48	4540.35
728.66	3962.82
728.84	3573.71
729.03	3162.06
729.21	2877.40
729.39	2447.32
729.57	2117.60
729.75	1968.10
729.93	1871.84
730.11	1701.86
730.30	1808.36
730.48	1724.39
730.66	1802.21
730.84	1726.44
731.02	1714.15
731.20	1665.00
731.38	1769.44
731.56	1679.33
731.74	1722.34
731.93	1681.38
732.11	1662.95
732.29	1640.42
732.47	1787.88
732.65	1646.57
732.83	1839.08
733.01	1761.25
733.19	1669.09
733.37	1775.59
733.56	1755.11
733.74	1669.09
733.92	1771.49
734.10	1685.48
734.28	1722.34
734.46	1619.94
734.64	1689.57
734.82	1691.62
735.00	1763.30
735.18	1656.81
735.36	1660.90
735.54	1679.33
735.73	1703.91
735.91	1763.30
736.09	1689.57
736.27	1693.67
736.45	1771.49
736.63	1656.81
736.81	1644.52
736.99	1787.88
737.17	1847.27
737.35	1732.58
737.53	1755.11
737.71	1695.72
737.89	1773.54
738.07	1695.72
738.25	1640.42
738.43	1601.51
738.61	1687.53
738.80	1640.42
738.98	1617.90
739.16	1685.48
739.34	1638.38
739.52	1777.64
739.70	1632.23
739.88	1804.26
740.06	1818.60
740.24	1544.17
740.42	1675.24
740.60	1589.22
740.78	1722.34
740.96	1662.95
741.14	1703.91
741.32	1701.86
741.50	1644.52
741.68	1818.60
741.86	1857.51
742.04	1665.00
742.22	1669.09
742.40	1662.95
742.58	1796.07
742.76	1660.90
742.94	1816.55
743.12	1617.90
743.30	1705.96
743.48	1761.25
743.66	1652.71
743.84	1755.11
744.02	1703.91
744.20	1669.09
744.38	1593.32
744.56	1687.53
744.74	1753.06
744.92	1759.21
745.10	1736.68
745.28	1724.39
745.46	1753.06
745.64	1714.15
745.82	1757.16
746.00	1746.92
746.18	1673.19
746.36	1658.85
746.54	1681.38
746.72	1699.81
746.90	1671.14
747.08	1812.45
747.26	1710.05
747.44	1712.10
747.62	1740.77
747.80	1710.05
747.98	1748.97
748.15	1671.14
748.33	1820.64
748.51	1722.34
748.69	1875.94
748.87	1669.09
749.05	1665.00
749.23	1730.53
749.41	1779.68
749.59	1705.96
749.77	1742.82
749.95	1720.29
750.13	1595.37
750.31	1724.39
750.49	1705.96
750.67	1751.01
750.85	1798.12
751.03	1738.73
751.20	1865.70
751.38	1638.38
751.56	1722.34
751.74	1691.62
751.92	1662.95
752.10	1658.85
752.28	1794.02
752.46	1703.91
752.64	1679.33
752.82	1732.58
753.00	1724.39
753.18	1689.57
753.35	1683.43
753.53	1728.49
753.71	1726.44
753.89	1744.87
754.07	1705.96
754.25	1812.45
754.43	1712.10
754.61	1656.81
754.79	1716.20
754.97	1845.22
755.14	1814.50
755.32	1585.13
755.50	1740.77
755.68	1757.16
755.86	1644.52
756.04	1669.09
756.22	1572.84
756.40	1746.92
756.57	1798.12
756.75	1681.38
756.93	1738.73
757.11	1755.11
757.29	1746.92
757.47	1718.25
757.65	1638.38
757.82	1578.98
758.00	1683.43
758.18	1673.19
758.36	1642.47
758.54	1822.69
758.72	1630.18
758.90	1736.68
759.07	1757.16
759.25	1677.29
759.43	1665.00
759.61	1722.34
759.79	2205.66
759.97	1746.92
760.15	1667.05
760.32	1681.38
760.50	1755.11
760.68	1880.04
760.86	1626.09
761.04	1845.22
761.22	1761.25
761.39	1652.71
761.57	1705.96
761.75	1636.33
761.93	1775.59
762.11	1748.97
762.28	1701.86
762.46	1656.81
762.64	1703.91
762.82	1630.18
763.00	1714.15
763.18	1804.26
763.35	1656.81
763.53	1775.59
763.71	1683.43
763.89	1734.63
764.07	1769.44
764.24	1712.10
764.42	1785.83
764.60	1728.49
764.78	1734.63
764.96	1789.92
765.13	1734.63
765.31	1708.01
765.49	1761.25
765.67	1665.00
765.84	1636.33
766.02	1718.25
766.20	1671.14
766.38	1740.77
766.56	1734.63
766.73	1722.34
766.91	1714.15
767.09	1769.44
767.27	1779.68
767.44	1710.05
767.62	1787.88
767.80	1779.68
767.98	1736.68
768.15	1767.40
768.33	1738.73
768.51	1748.97
768.69	1724.39
768.87	1763.30
769.04	1654.76
769.22	1810.40
769.40	1779.68
769.58	1896.42
769.75	1720.29
769.93	1734.63
770.11	1609.70
770.28	1640.42
770.46	1705.96
770.64	1730.53
770.82	1687.53
770.99	1714.15
771.17	1681.38
771.35	1697.77
771.53	1646.57
771.70	1732.58
771.88	1726.44
772.06	1652.71
772.23	1693.67
772.41	1644.52
772.59	1615.85
772.77	1701.86
772.94	1740.77
773.12	1779.68
773.30	1662.95
773.47	1710.05
773.65	1617.90
773.83	1767.40
774.01	1681.38
774.18	1560.55
774.36	1710.05
774.54	1566.70
774.71	1726.44
774.89	1658.85
775.07	1660.90
775.24	1681.38
775.42	1701.86
775.60	1824.74
775.78	1673.19
775.95	1699.81
776.13	1611.75
776.31	1511.40
776.48	1683.43
776.66	1787.88
776.84	1679.33
777.01	1689.57
777.19	1697.77
777.37	1652.71
777.54	1771.49
777.72	1828.84
777.90	1671.14
778.07	1628.14
778.25	1918.95
778.43	1718.25
778.60	1701.86
778.78	1798.12
778.96	1716.20
779.13	1724.39
779.31	1718.25
779.49	1742.82
779.66	1691.62
779.84	1763.30
780.01	1736.68
780.19	1665.00
780.37	1814.50
780.54	1810.40
780.72	1703.91
780.90	1767.40
781.07	1671.14
781.25	1789.92
781.43	1695.72
781.60	1656.81
781.78	1789.92
781.95	1636.33
782.13	1675.24
782.31	1665.00
782.48	1683.43
782.66	1691.62
782.83	1767.40
783.01	1703.91
783.19	1791.97
783.36	1642.47
783.54	1675.24
783.72	1798.12
783.89	1699.81
784.07	1732.58
784.24	1742.82
784.42	1767.40
784.60	1685.48
784.77	1775.59
784.95	1613.80
785.12	1710.05
785.30	1759.21
785.47	1677.29
785.65	1654.76
785.83	1693.67
786.00	1681.38
786.18	1648.61
786.35	1595.37
786.53	1675.24
786.71	1718.25
786.88	1783.78
787.06	1740.77
787.23	1650.66
787.41	1652.71
787.58	1716.20
787.76	1585.13
787.94	1787.88
788.11	1667.05
788.29	1687.53
788.46	1710.05
788.64	1640.42
788.81	1740.77
788.99	1646.57
789.16	1640.42
789.34	1687.53
789.52	1681.38
789.69	1685.48
789.87	1564.65
790.04	1665.00
790.22	1732.58
790.39	1791.97
790.57	1621.99
790.74	1724.39
790.92	1714.15
791.09	1634.28
791.27	1644.52
791.44	1736.68
791.62	1609.70
791.79	1791.97
791.97	1718.25
792.15	1935.33
792.32	1796.07
792.50	1724.39
792.67	1697.77
792.85	1804.26
793.02	1712.10
793.20	1726.44
793.37	1640.42
793.55	1705.96
793.72	1675.24
793.90	1773.54
794.07	1716.20
794.25	1665.00
794.42	1693.67
794.60	1726.44
794.77	1689.57
794.95	1757.16
795.12	1701.86
795.30	1599.46
795.47	1605.61
795.65	1849.32
795.82	1781.73
796.00	1712.10
796.17	1714.15
796.34	1701.86
796.52	1728.49
796.69	1824.74
796.87	1742.82
797.04	1710.05
797.22	1724.39
797.39	1730.53
797.57	1771.49
797.74	1669.09
797.92	1712.10
798.09	1722.34
798.27	1767.40
798.44	1701.86
798.62	1665.00
798.79	1708.01
798.96	1738.73
799.14	1687.53
799.31	1826.79
799.49	1716.20
799.66	1665.00
799.84	1726.44
800.01	1689.57
800.19	1724.39
800.36	1687.53
800.53	1669.09
800.71	1748.97
800.88	1757.16
801.06	1648.61
801.23	1681.38
801.41	1736.68
801.58	1648.61
801.75	1673.19
801.93	1693.67
802.10	1740.77
802.28	1691.62
802.45	1665.00
802.63	1765.35
802.80	1783.78
802.97	1591.27
803.15	1689.57
803.32	1703.91
803.50	1572.84
803.67	1695.72
803.84	1650.66
804.02	1728.49
804.19	1730.53
804.37	1587.18
804.54	1654.76
804.71	1732.58
804.89	1699.81
805.06	1601.51
805.24	1669.09
805.41	1710.05
805.58	1613.80
805.76	1787.88
805.93	1742.82
806.10	1738.73
806.28	1740.77
806.45	1765.35
806.63	1679.33
806.80	1671.14
806.97	1687.53
807.15	1667.05
807.32	1619.94
807.49	1691.62
807.67	1636.33
807.84	1740.77
808.01	1656.81
808.19	1794.02
808.36	1824.74
808.54	1732.58
808.71	1636.33
808.88	1693.67
809.06	1783.78
809.23	1796.07
809.40	1683.43
809.58	1763.30
809.75	1724.39
809.92	1697.77
810.10	1877.99
810.27	1708.01
810.44	1689.57
810.62	1720.29
810.79	1708.01
810.96	1642.47
811.14	1662.95
811.31	1710.05
811.48	1689.57
811.66	1777.64
811.83	1767.40
812.00	1720.29
812.18	1783.78
812.35	1740.77
812.52	1671.14
812.69	1689.57
812.87	1761.25
813.04	1669.09
813.21	1691.62
813.39	1675.24
813.56	1613.80
813.73	1669.09
813.91	1667.05
814.08	1742.82
814.25	1677.29
814.42	1642.47
814.60	1722.34
814.77	1683.43
814.94	1687.53
815.12	1681.38
815.29	1798.12
815.46	1722.34
815.63	1708.01
815.81	1673.19
815.98	1712.10
816.15	1652.71
816.33	1728.49
816.50	1665.00
816.67	1671.14
816.84	1699.81
817.02	1699.81
817.19	1718.25
817.36	1736.68
817.53	1763.30
817.71	1652.71
817.88	1855.46
818.05	1705.96
818.22	1695.72
818.40	1900.52
818.57	1705.96
818.74	1685.48
818.91	1746.92
819.09	1777.64
819.26	1822.69
819.43	1675.24
819.60	1675.24
819.78	1753.06
819.95	1734.63
820.12	1658.85
820.29	1841.12
820.47	1771.49
820.64	1648.61
820.81	1628.14
820.98	1644.52
821.15	1681.38
821.33	1777.64
821.50	1591.27
821.67	1740.77
821.84	1687.53
822.02	1683.43
822.19	1720.29
822.36	1609.70
822.53	1710.05
822.70	1607.66
822.88	1677.29
823.05	1746.92
823.22	1687.53
823.39	1769.44
823.56	1650.66
823.74	1787.88
823.91	1687.53
824.08	1652.71
824.25	1656.81
824.42	1826.79
824.60	1605.61
824.77	1740.77
824.94	1699.81
825.11	1736.68
825.28	1669.09
825.45	1669.09
825.63	1699.81
825.80	1630.18
825.97	1732.58
826.14	1691.62
826.31	1609.70
826.48	1730.53
826.66	1720.29
826.83	1691.62
827.00	1660.90
827.17	1615.85
827.34	1683.43
827.51	1669.09
827.69	1728.49
827.86	1626.09
828.03	1609.70
828.20	1714.15
828.37	1685.48
828.54	1697.77
828.71	1685.48
828.89	1804.26
829.06	1701.86
829.23	1798.12
829.40	1669.09
829.57	1636.33
829.74	1710.05
829.91	1685.48
830.09	1654.76
830.26	1730.53
830.43	1705.96
830.60	1763.30
830.77	1714.15
830.94	1751.01
831.11	1697.77
831.28	1742.82
831.46	1716.20
831.63	1640.42
831.80	1763.30
831.97	1669.09
832.14	1708.01
832.31	1753.06
832.48	1695.72
832.65	1722.34
832.82	1732.58
832.99	1759.21
833.17	1656.81
833.34	1714.15
833.51	1730.53
833.68	1640.42
833.85	1679.33
834.02	1585.13
834.19	1648.61
834.36	1636.33
834.53	1708.01
834.70	1781.73
834.87	1720.29
835.04	1697.77
835.22	1581.03
835.39	1648.61
835.56	1687.53
835.73	1648.61
835.90	1800.16
836.07	1615.85
836.24	1724.39
836.41	1689.57
836.58	1669.09
836.75	1771.49
836.92	1763.30
837.09	1626.09
837.26	1759.21
837.43	1777.64
837.60	1757.16
837.77	1652.71
837.94	1755.11
838.12	1783.78
838.29	1685.48
838.46	1652.71
838.63	1595.37
838.80	1824.74
838.97	1718.25
839.14	1656.81
839.31	1699.81
839.48	1720.29
839.65	1708.01
839.82	1759.21
839.99	1802.21
840.16	1734.63
840.33	1703.91
840.50	1714.15
840.67	1665.00
840.84	1613.80
841.01	1763.30
841.18	1660.90
841.35	1660.90
841.52	1804.26
841.69	1841.12
841.86	1746.92
842.03	1761.25
842.20	1677.29
842.37	1685.48
842.54	1736.68
842.71	1742.82
842.88	1597.42
843.05	1742.82
843.22	1693.67
843.39	1744.87
843.56	1642.47
843.73	1746.92
843.90	1677.29
844.07	1742.82
844.24	1724.39
844.41	1714.15
844.58	1740.77
844.75	1716.20
844.92	1734.63
845.09	1681.38
845.26	1619.94
845.43	1783.78
845.60	1730.53
845.77	1765.35
845.94	1771.49
846.10	1693.67
846.27	1593.32
846.44	1671.14
846.61	1697.77
846.78	1720.29
846.95	1730.53
847.12	1730.53
847.29	1769.44
847.46	1669.09
847.63	1722.34
847.80	1712.10
847.97	1732.58
848.14	1755.11
848.31	1703.91
848.48	1724.39
848.65	1683.43
848.82	1665.00
848.98	1820.64
849.15	1748.97
849.32	1734.63
849.49	1742.82
849.66	1763.30
849.83	1771.49
850.00	1593.32
850.17	1767.40
850.34	1685.48
850.51	1648.61
850.68	1712.10
850.85	1882.08
851.01	1773.54
851.18	1701.86
851.35	1677.29
851.52	1767.40
851.69	1824.74
851.86	1685.48
852.03	1660.90
852.20	1808.36
852.37	1763.30
852.53	1581.03
852.70	1734.63
852.87	1708.01
853.04	1798.12
853.21	1683.43
853.38	1779.68
853.55	1814.50
853.72	1765.35
853.89	1665.00
854.05	1613.80
854.22	1646.57
854.39	1656.81
854.56	1708.01
854.73	1699.81
854.90	1648.61
855.07	1691.62
855.23	1568.74
855.40	1714.15
855.57	1703.91
855.74	1646.57
855.91	1892.32
856.08	1597.42
856.25	1607.66
856.41	1710.05
856.58	1632.23
856.75	1724.39
856.92	1665.00
857.09	1804.26
857.26	1654.76
857.42	1671.14
857.59	1705.96
857.76	1648.61
857.93	1724.39
858.10	1673.19
858.27	1681.38
858.43	1656.81
858.60	1656.81
858.77	1652.71
858.94	1677.29
859.11	1777.64
859.27	1687.53
859.44	1708.01
859.61	1755.11
859.78	1757.16
859.95	1654.76
860.12	1705.96
860.28	1890.28
860.45	1759.21
860.62	1683.43
860.79	1730.53
860.95	1693.67
861.12	1695.72
861.29	1697.77
861.46	1660.90
861.63	1738.73
861.79	1658.85
861.96	1667.05
862.13	1685.48
862.30	1851.36
862.47	1624.04
862.63	1654.76
862.80	1746.92
862.97	1744.87
863.14	1730.53
863.30	1683.43
863.47	1628.14
863.64	1798.12
863.81	1722.34
863.97	1673.19
864.14	1679.33
864.31	1648.61
864.48	1779.68
864.65	1742.82
864.81	1703.91
864.98	1759.21
865.15	1748.97
865.32	1712.10
865.48	1800.16
865.65	1834.98
865.82	1708.01
865.98	1771.49
866.15	1736.68
866.32	1675.24
866.49	1730.53
866.65	1826.79
866.82	1705.96
866.99	1779.68
867.16	1626.09
867.32	1650.66
867.49	1724.39
867.66	1687.53
867.83	1646.57
867.99	1578.98
868.16	1695.72
868.33	1607.66
868.49	1761.25
868.66	1714.15
868.83	1722.34
868.99	1703.91
869.16	1724.39
869.33	1703.91
869.50	1773.54
869.66	1736.68
869.83	1654.76
870.00	1660.90
870.16	1789.92
870.33	1605.61
870.50	1746.92
870.66	1662.95
870.83	1822.69
871.00	1710.05
871.17	1755.11
871.33	1769.44
871.50	1658.85
871.67	1693.67
871.83	1732.58
872.00	1820.64
872.17	1708.01
872.33	1798.12
872.50	1816.55
872.67	1699.81
872.83	1767.40
873.00	1695.72
873.17	1730.53
873.33	1816.55
873.50	1718.25
873.67	1603.56
873.83	1699.81
874.00	1607.66
874.16	1732.58
874.33	1732.58
874.50	1677.29
874.66	1701.86
874.83	1689.57
875.00	1628.14
875.16	1789.92
875.33	1730.53
875.50	1634.28
875.66	1689.57
875.83	1710.05
875.99	1753.06
876.16	1640.42
876.33	1642.47
876.49	1626.09
876.66	1693.67
876.83	1751.01
876.99	1628.14
877.16	1716.20
877.32	1701.86
877.49	1722.34
877.66	1767.40
877.82	1794.02
877.99	1708.01
878.15	1748.97
878.32	1753.06
878.49	1777.64
878.65	1640.42
878.82	1755.11
878.98	1671.14
879.15	1791.97
879.32	1658.85
879.48	1673.19
879.65	1703.91
879.81	1685.48
879.98	1599.46
880.15	1669.09
880.31	1738.73
880.48	1675.24
880.64	1763.30
880.81	1714.15
880.97	1802.21
881.14	1796.07
881.31	1630.18
881.47	1791.97
881.64	1712.10
881.80	1665.00
881.97	1740.77
882.13	1763.30
882.30	1669.09
882.47	1640.42
882.63	1650.66
882.80	1740.77
882.96	1738.73
883.13	1746.92
883.29	1669.09
883.46	1667.05
883.62	1832.93
883.79	1718.25
883.95	1722.34
884.12	1726.44
884.29	1740.77
884.45	1621.99
884.62	1787.88
884.78	1673.19
884.95	1822.69
885.11	1681.38
885.28	1703.91
885.44	1658.85
885.61	1644.52
885.77	1771.49
885.94	1708.01
886.10	1648.61
886.27	1669.09
886.43	1763.30
886.60	1740.77
886.76	1687.53
886.93	1652.71
887.09	1712.10
887.26	1611.75
887.42	1732.58
887.59	1736.68
887.75	1771.49
887.92	1773.54
888.08	1746.92
888.25	1769.44
888.41	1798.12
888.58	1703.91
888.74	1609.70
888.91	1712.10
>>>>>End Processed Spectral Data<<<<<
