SpectraSuite Data File
++++++++++++++++++++++++++++++++++++
Date: Wed May 04 18:44:38 CEST 2016
User: root
Dark Spectrum Present: No
Reference Spectrum Present: No
Number of Sampled Component Spectra: 1
Spectrometers: USB4C02835
Integration Time (usec): 100000 (USB4C02835)
Spectra Averaged: 1 (USB4C02835)
Boxcar Smoothing: 0 (USB4C02835)
Correct for Electrical Dark: No (USB4C02835)
Strobe/Lamp Enabled: No (USB4C02835)
Correct for Detector Non-linearity: No (USB4C02835)
Correct for Stray Light: No (USB4C02835)
Number of Pixels in Processed Spectrum: 3648
>>>>>Begin Processed Spectral Data<<<<<
177.47	1564.65
177.69	1564.65
177.91	1564.65
178.13	1499.11
178.36	1411.05
178.58	1714.15
178.80	1650.66
179.02	1634.28
179.24	1687.53
179.46	1703.91
179.68	1677.29
179.90	1652.71
180.13	1658.85
180.35	1685.48
180.57	1644.52
180.79	1718.25
181.01	1716.20
181.23	1701.86
181.45	1724.39
181.67	1734.63
181.90	1722.34
182.12	1673.19
182.34	1634.28
182.56	1695.72
182.78	1789.92
183.00	1660.90
183.22	1687.53
183.44	1581.03
183.66	1767.40
183.89	1828.84
184.11	1746.92
184.33	1703.91
184.55	1812.45
184.77	1820.64
184.99	1734.63
185.21	1662.95
185.43	1832.93
185.65	1722.34
185.87	1705.96
186.10	1853.41
186.32	1851.36
186.54	1705.96
186.76	1751.01
186.98	1755.11
187.20	1681.38
187.42	1691.62
187.64	1685.48
187.86	1708.01
188.08	1718.25
188.30	1658.85
188.52	1759.21
188.75	1734.63
188.97	1869.80
189.19	1697.77
189.41	1712.10
189.63	1832.93
189.85	1669.09
190.07	1630.18
190.29	1601.51
190.51	1736.68
190.73	1640.42
190.95	1730.53
191.17	1755.11
191.39	1550.31
191.61	1683.43
191.84	1679.33
192.06	1787.88
192.28	1595.37
192.50	1890.28
192.72	1720.29
192.94	1708.01
193.16	1802.21
193.38	1730.53
193.60	1718.25
193.82	1667.05
194.04	1746.92
194.26	1697.77
194.48	1718.25
194.70	1681.38
194.92	1665.00
195.14	1656.81
195.36	1703.91
195.58	1738.73
195.80	1660.90
196.02	1662.95
196.24	1779.68
196.46	1708.01
196.69	1685.48
196.91	1855.46
197.13	1626.09
197.35	1679.33
197.57	1869.80
197.79	1777.64
198.01	1648.61
198.23	1708.01
198.45	1748.97
198.67	1718.25
198.89	1718.25
199.11	1691.62
199.33	1677.29
199.55	1589.22
199.77	1773.54
199.99	1798.12
200.21	1654.76
200.43	1656.81
200.65	1609.70
200.87	1638.38
201.09	1654.76
201.31	1779.68
201.53	1796.07
201.75	1746.92
201.97	1730.53
202.19	1734.63
202.41	1718.25
202.63	1810.40
202.85	1775.59
203.07	1785.83
203.29	1718.25
203.51	1687.53
203.73	1683.43
203.95	1888.23
204.17	1796.07
204.39	1689.57
204.61	1703.91
204.83	1587.18
205.05	1757.16
205.27	1681.38
205.49	1873.89
205.71	1708.01
205.93	1619.94
206.15	1665.00
206.37	1685.48
206.59	1812.45
206.81	1683.43
207.03	1640.42
207.25	1636.33
207.47	1716.20
207.69	1681.38
207.91	1730.53
208.13	1826.79
208.34	1720.29
208.56	1687.53
208.78	1718.25
209.00	1609.70
209.22	1640.42
209.44	1705.96
209.66	1648.61
209.88	1738.73
210.10	1578.98
210.32	1681.38
210.54	1816.55
210.76	1693.67
210.98	1757.16
211.20	1603.56
211.42	1697.77
211.64	1773.54
211.86	1703.91
212.08	1730.53
212.30	1708.01
212.52	1687.53
212.74	1703.91
212.96	1718.25
213.17	1767.40
213.39	1697.77
213.61	1775.59
213.83	1759.21
214.05	1710.05
214.27	1767.40
214.49	1697.77
214.71	1722.34
214.93	1746.92
215.15	1732.58
215.37	1763.30
215.59	1544.17
215.81	1701.86
216.03	1767.40
216.24	1578.98
216.46	1701.86
216.68	1726.44
216.90	1791.97
217.12	1716.20
217.34	1677.29
217.56	1662.95
217.78	1816.55
218.00	1724.39
218.22	1755.11
218.44	1742.82
218.66	1662.95
218.87	1871.84
219.09	1646.57
219.31	1671.14
219.53	1748.97
219.75	1679.33
219.97	1730.53
220.19	1665.00
220.41	1734.63
220.63	1775.59
220.85	1722.34
221.06	1763.30
221.28	1834.98
221.50	1685.48
221.72	1671.14
221.94	1689.57
222.16	1669.09
222.38	1742.82
222.60	1779.68
222.82	1677.29
223.03	1734.63
223.25	1605.61
223.47	1804.26
223.69	1812.45
223.91	1804.26
224.13	1716.20
224.35	1705.96
224.57	1832.93
224.78	1703.91
225.00	1652.71
225.22	1634.28
225.44	1660.90
225.66	1843.17
225.88	1681.38
226.10	1742.82
226.32	1652.71
226.53	1796.07
226.75	1665.00
226.97	1701.86
227.19	1662.95
227.41	1648.61
227.63	1701.86
227.85	1687.53
228.06	1712.10
228.28	1646.57
228.50	1808.36
228.72	1734.63
228.94	1705.96
229.16	1617.90
229.37	1681.38
229.59	1693.67
229.81	1828.84
230.03	1677.29
230.25	1699.81
230.47	1609.70
230.69	1636.33
230.90	1798.12
231.12	1689.57
231.34	1726.44
231.56	1812.45
231.78	1681.38
232.00	1656.81
232.21	1693.67
232.43	1660.90
232.65	1640.42
232.87	1714.15
233.09	1570.79
233.30	1628.14
233.52	1740.77
233.74	1640.42
233.96	1765.35
234.18	1667.05
234.40	1726.44
234.61	1748.97
234.83	1628.14
235.05	1603.56
235.27	1822.69
235.49	1685.48
235.70	1722.34
235.92	1804.26
236.14	1779.68
236.36	1820.64
236.58	1681.38
236.79	1794.02
237.01	1646.57
237.23	1753.06
237.45	1759.21
237.67	1738.73
237.88	1660.90
238.10	1769.44
238.32	1681.38
238.54	1697.77
238.76	1712.10
238.97	1658.85
239.19	1675.24
239.41	1759.21
239.63	1759.21
239.85	1675.24
240.06	1677.29
240.28	1710.05
240.50	1699.81
240.72	1648.61
240.93	1679.33
241.15	1834.98
241.37	1667.05
241.59	1787.88
241.81	1716.20
242.02	1679.33
242.24	1648.61
242.46	1701.86
242.68	1660.90
242.89	1710.05
243.11	1714.15
243.33	1660.90
243.55	1751.01
243.76	1722.34
243.98	1660.90
244.20	1658.85
244.42	1755.11
244.64	1693.67
244.85	1589.22
245.07	1667.05
245.29	1755.11
245.51	1716.20
245.72	1730.53
245.94	1779.68
246.16	1802.21
246.38	1746.92
246.59	1656.81
246.81	1662.95
247.03	1683.43
247.24	1695.72
247.46	1630.18
247.68	1705.96
247.90	1693.67
248.11	1644.52
248.33	1783.78
248.55	1665.00
248.77	1673.19
248.98	1759.21
249.20	1779.68
249.42	1720.29
249.64	1677.29
249.85	1683.43
250.07	1759.21
250.29	1779.68
250.50	1708.01
250.72	1669.09
250.94	1714.15
251.16	1843.17
251.37	1759.21
251.59	1765.35
251.81	1738.73
252.02	1794.02
252.24	1714.15
252.46	1751.01
252.68	1656.81
252.89	1638.38
253.11	1648.61
253.33	1816.55
253.54	1804.26
253.76	1640.42
253.98	1603.56
254.20	1703.91
254.41	1626.09
254.63	1712.10
254.85	1665.00
255.06	1755.11
255.28	1701.86
255.50	1640.42
255.71	1669.09
255.93	1681.38
256.15	1689.57
256.36	1708.01
256.58	1744.87
256.80	1730.53
257.02	1642.47
257.23	1650.66
257.45	1769.44
257.67	1818.60
257.88	1626.09
258.10	1798.12
258.32	1744.87
258.53	1730.53
258.75	1812.45
258.97	1697.77
259.18	1660.90
259.40	1740.77
259.62	1783.78
259.83	1757.16
260.05	1798.12
260.27	1955.81
260.48	1708.01
260.70	1683.43
260.92	1728.49
261.13	1673.19
261.35	1652.71
261.57	1714.15
261.78	1578.98
262.00	1673.19
262.22	1832.93
262.43	1681.38
262.65	1701.86
262.86	1595.37
263.08	1800.16
263.30	1708.01
263.51	1560.55
263.73	1656.81
263.95	1763.30
264.16	1703.91
264.38	1658.85
264.60	1775.59
264.81	1705.96
265.03	1763.30
265.25	1794.02
265.46	1705.96
265.68	1785.83
265.89	1714.15
266.11	1699.81
266.33	1787.88
266.54	1761.25
266.76	1771.49
266.98	1746.92
267.19	1800.16
267.41	1710.05
267.62	1689.57
267.84	1603.56
268.06	1724.39
268.27	1665.00
268.49	1716.20
268.70	1767.40
268.92	1712.10
269.14	1617.90
269.35	1699.81
269.57	1722.34
269.79	1755.11
270.00	1714.15
270.22	1806.31
270.43	1652.71
270.65	1628.14
270.87	1695.72
271.08	1667.05
271.30	1800.16
271.51	1685.48
271.73	1751.01
271.95	1689.57
272.16	1667.05
272.38	1697.77
272.59	1632.23
272.81	1710.05
273.02	1734.63
273.24	1763.30
273.46	1781.73
273.67	1617.90
273.89	1632.23
274.10	1607.66
274.32	1728.49
274.54	1716.20
274.75	1748.97
274.97	1701.86
275.18	1834.98
275.40	1724.39
275.61	1675.24
275.83	1705.96
276.05	1648.61
276.26	1658.85
276.48	1783.78
276.69	1636.33
276.91	1642.47
277.12	1802.21
277.34	1775.59
277.55	1685.48
277.77	1718.25
277.99	1650.66
278.20	1669.09
278.42	1624.04
278.63	1699.81
278.85	1624.04
279.06	1648.61
279.28	1736.68
279.49	1771.49
279.71	1740.77
279.93	1761.25
280.14	1667.05
280.36	1589.22
280.57	1693.67
280.79	1771.49
281.00	1626.09
281.22	1656.81
281.43	1736.68
281.65	1511.40
281.86	1613.80
282.08	1714.15
282.29	1787.88
282.51	1613.80
282.73	1671.14
282.94	1640.42
283.16	1789.92
283.37	1839.08
283.59	1708.01
283.80	1714.15
284.02	1720.29
284.23	1802.21
284.45	1751.01
284.66	1685.48
284.88	1689.57
285.09	1669.09
285.31	1785.83
285.52	1720.29
285.74	1609.70
285.95	1748.97
286.17	1699.81
286.38	1734.63
286.60	1732.58
286.81	1609.70
287.03	1685.48
287.24	1656.81
287.46	1800.16
287.67	1765.35
287.89	1839.08
288.10	1671.14
288.32	1697.77
288.53	1759.21
288.75	1605.61
288.96	1759.21
289.18	1683.43
289.39	1728.49
289.61	1779.68
289.82	1816.55
290.04	1877.99
290.25	1665.00
290.47	1753.06
290.68	1714.15
290.90	1785.83
291.11	1621.99
291.33	1724.39
291.54	1642.47
291.76	1665.00
291.97	1728.49
292.18	1703.91
292.40	1656.81
292.61	1673.19
292.83	1857.51
293.04	1765.35
293.26	1669.09
293.47	1759.21
293.69	1644.52
293.90	1671.14
294.12	1800.16
294.33	1716.20
294.55	1751.01
294.76	1714.15
294.97	1796.07
295.19	1730.53
295.40	1687.53
295.62	1716.20
295.83	1828.84
296.05	1703.91
296.26	1722.34
296.48	1730.53
296.69	1687.53
296.90	1691.62
297.12	1783.78
297.33	1837.03
297.55	1746.92
297.76	1767.40
297.98	1771.49
298.19	1716.20
298.41	1689.57
298.62	1695.72
298.83	1816.55
299.05	1728.49
299.26	1621.99
299.48	1648.61
299.69	1755.11
299.90	1703.91
300.12	1660.90
300.33	1685.48
300.55	1685.48
300.76	1681.38
300.98	1665.00
301.19	1746.92
301.40	1689.57
301.62	1708.01
301.83	1753.06
302.05	1703.91
302.26	1665.00
302.47	1724.39
302.69	1675.24
302.90	1693.67
303.12	1591.27
303.33	1751.01
303.54	1765.35
303.76	1634.28
303.97	1701.86
304.19	1746.92
304.40	1656.81
304.61	1710.05
304.83	1845.22
305.04	1800.16
305.26	1673.19
305.47	1642.47
305.68	1724.39
305.90	1665.00
306.11	1800.16
306.33	1740.77
306.54	1656.81
306.75	1669.09
306.97	1597.42
307.18	1714.15
307.39	1660.90
307.61	1675.24
307.82	1716.20
308.04	1652.71
308.25	1703.91
308.46	1619.94
308.68	1632.23
308.89	1746.92
309.10	1720.29
309.32	1701.86
309.53	1710.05
309.74	1785.83
309.96	1697.77
310.17	1794.02
310.39	1658.85
310.60	1685.48
310.81	1718.25
311.03	1642.47
311.24	1734.63
311.45	1763.30
311.67	1847.27
311.88	1757.16
312.09	1636.33
312.31	1648.61
312.52	1722.34
312.73	1640.42
312.95	1628.14
313.16	1648.61
313.37	1855.46
313.59	1800.16
313.80	1763.30
314.01	1771.49
314.23	1693.67
314.44	1732.58
314.65	1626.09
314.87	1632.23
315.08	1642.47
315.29	1701.86
315.51	1550.31
315.72	1624.04
315.93	1755.11
316.15	1779.68
316.36	1738.73
316.57	1816.55
316.79	1755.11
317.00	1665.00
317.21	1757.16
317.43	1613.80
317.64	1726.44
317.85	1705.96
318.07	1757.16
318.28	1726.44
318.49	1873.89
318.70	1937.38
318.92	1871.84
319.13	1843.17
319.34	1882.08
319.56	1861.60
319.77	1834.98
319.98	1839.08
320.20	1781.73
320.41	1857.51
320.62	1740.77
320.83	1730.53
321.05	1855.46
321.26	1669.09
321.47	1681.38
321.69	1722.34
321.90	1613.80
322.11	1740.77
322.32	1683.43
322.54	1791.97
322.75	1681.38
322.96	1828.84
323.18	1566.70
323.39	1662.95
323.60	1671.14
323.81	1773.54
324.03	1734.63
324.24	1724.39
324.45	1740.77
324.66	1730.53
324.88	1773.54
325.09	1802.21
325.30	1671.14
325.52	1763.30
325.73	1710.05
325.94	1589.22
326.15	1626.09
326.37	1660.90
326.58	1720.29
326.79	1779.68
327.00	1621.99
327.22	1705.96
327.43	1621.99
327.64	1683.43
327.85	1665.00
328.07	1718.25
328.28	1837.03
328.49	1675.24
328.70	1671.14
328.92	1789.92
329.13	1669.09
329.34	1773.54
329.55	1826.79
329.76	1767.40
329.98	1636.33
330.19	1757.16
330.40	1804.26
330.61	1687.53
330.83	1775.59
331.04	1654.76
331.25	1853.41
331.46	1695.72
331.68	1662.95
331.89	1683.43
332.10	1673.19
332.31	1695.72
332.52	1693.67
332.74	1734.63
332.95	1603.56
333.16	1689.57
333.37	1732.58
333.58	1687.53
333.80	1705.96
334.01	1585.13
334.22	1746.92
334.43	1652.71
334.64	1765.35
334.86	1693.67
335.07	1648.61
335.28	1783.78
335.49	1613.80
335.70	1689.57
335.92	1724.39
336.13	1767.40
336.34	1779.68
336.55	1722.34
336.76	1755.11
336.98	1665.00
337.19	1763.30
337.40	1751.01
337.61	1826.79
337.82	1691.62
338.04	1779.68
338.25	1593.32
338.46	1654.76
338.67	1712.10
338.88	1671.14
339.09	1726.44
339.31	1699.81
339.52	1685.48
339.73	1662.95
339.94	1669.09
340.15	1798.12
340.36	1699.81
340.58	1691.62
340.79	1634.28
341.00	1839.08
341.21	1716.20
341.42	1810.40
341.63	1656.81
341.85	1765.35
342.06	1689.57
342.27	1650.66
342.48	1728.49
342.69	1607.66
342.90	1665.00
343.12	1771.49
343.33	1652.71
343.54	1718.25
343.75	1816.55
343.96	1751.01
344.17	1654.76
344.38	1697.77
344.60	1687.53
344.81	1638.38
345.02	1738.73
345.23	1724.39
345.44	1910.75
345.65	1728.49
345.86	1697.77
346.07	1714.15
346.29	1626.09
346.50	1681.38
346.71	1720.29
346.92	1800.16
347.13	1859.56
347.34	1673.19
347.55	1755.11
347.76	1746.92
347.98	1656.81
348.19	1638.38
348.40	1742.82
348.61	1710.05
348.82	1796.07
349.03	1685.48
349.24	1632.23
349.45	1820.64
349.66	1636.33
349.88	1710.05
350.09	1695.72
350.30	1771.49
350.51	1789.92
350.72	1734.63
350.93	1730.53
351.14	1689.57
351.35	1783.78
351.56	1763.30
351.77	1699.81
351.99	1751.01
352.20	1763.30
352.41	1738.73
352.62	1591.27
352.83	1726.44
353.04	1652.71
353.25	1689.57
353.46	1814.50
353.67	1812.45
353.88	1621.99
354.09	1783.78
354.30	1744.87
354.52	1705.96
354.73	1787.88
354.94	1683.43
355.15	1669.09
355.36	1740.77
355.57	1669.09
355.78	1787.88
355.99	1617.90
356.20	1677.29
356.41	1781.73
356.62	1730.53
356.83	1763.30
357.04	1779.68
357.25	1660.90
357.46	1748.97
357.68	1617.90
357.89	1699.81
358.10	1650.66
358.31	1771.49
358.52	1681.38
358.73	1673.19
358.94	1619.94
359.15	1667.05
359.36	1767.40
359.57	1724.39
359.78	1732.58
359.99	1763.30
360.20	1693.67
360.41	1677.29
360.62	1759.21
360.83	1757.16
361.04	1732.58
361.25	1744.87
361.46	1867.75
361.67	1767.40
361.88	1669.09
362.09	1746.92
362.30	1755.11
362.51	1632.23
362.72	1685.48
362.93	1783.78
363.14	1787.88
363.35	1708.01
363.56	1662.95
363.78	1785.83
363.99	1658.85
364.20	1705.96
364.41	1679.33
364.62	1898.47
364.83	1744.87
365.04	1689.57
365.25	1738.73
365.46	1742.82
365.67	1613.80
365.88	1685.48
366.09	1703.91
366.30	1728.49
366.51	1683.43
366.72	1615.85
366.93	1736.68
367.14	1677.29
367.35	1742.82
367.56	1802.21
367.77	1794.02
367.98	1783.78
368.18	1685.48
368.39	1736.68
368.60	1617.90
368.81	1761.25
369.02	1675.24
369.23	1738.73
369.44	1656.81
369.65	1652.71
369.86	1787.88
370.07	1775.59
370.28	1640.42
370.49	1765.35
370.70	1705.96
370.91	1626.09
371.12	1646.57
371.33	1789.92
371.54	1681.38
371.75	1736.68
371.96	1615.85
372.17	1695.72
372.38	1605.61
372.59	1673.19
372.80	1771.49
373.01	1744.87
373.22	1771.49
373.43	1701.86
373.64	1718.25
373.85	1765.35
374.06	1734.63
374.26	1767.40
374.47	1667.05
374.68	1802.21
374.89	1771.49
375.10	1648.61
375.31	1710.05
375.52	1740.77
375.73	1705.96
375.94	1650.66
376.15	1785.83
376.36	1687.53
376.57	1697.77
376.78	1650.66
376.99	1640.42
377.20	1789.92
377.40	1722.34
377.61	1853.41
377.82	1697.77
378.03	1785.83
378.24	1712.10
378.45	1714.15
378.66	1845.22
378.87	1636.33
379.08	1605.61
379.29	1705.96
379.50	1787.88
379.71	1689.57
379.91	1757.16
380.12	1681.38
380.33	1638.38
380.54	1744.87
380.75	1705.96
380.96	1697.77
381.17	1732.58
381.38	1722.34
381.59	1769.44
381.80	1681.38
382.00	1933.28
382.21	1781.73
382.42	1837.03
382.63	1880.04
382.84	1777.64
383.05	1701.86
383.26	1830.88
383.47	1730.53
383.68	1740.77
383.88	1789.92
384.09	1679.33
384.30	1853.41
384.51	1705.96
384.72	1687.53
384.93	1640.42
385.14	1734.63
385.35	1701.86
385.55	1603.56
385.76	1820.64
385.97	1744.87
386.18	1636.33
386.39	1746.92
386.60	1738.73
386.81	1722.34
387.02	1722.34
387.22	1751.01
387.43	1730.53
387.64	1804.26
387.85	1908.71
388.06	2195.42
388.27	4673.46
388.48	9082.74
388.68	11552.59
388.89	13473.59
389.10	14321.45
389.31	11984.71
389.52	9860.97
389.73	8568.70
389.93	7921.54
390.14	7249.81
390.35	6571.93
390.56	5826.47
390.77	5124.02
390.98	3891.14
391.18	3110.86
391.39	2283.49
391.60	2013.15
391.81	1892.32
392.02	1648.61
392.23	1812.45
392.43	1691.62
392.64	1865.70
392.85	1722.34
393.06	1853.41
393.27	1691.62
393.47	1730.53
393.68	1724.39
393.89	1650.66
394.10	1796.07
394.31	1712.10
394.52	1712.10
394.72	1662.95
394.93	1794.02
395.14	1624.04
395.35	1812.45
395.56	1710.05
395.76	1742.82
395.97	1794.02
396.18	1820.64
396.39	1867.75
396.60	2074.59
396.80	1937.38
397.01	1923.04
397.22	1884.13
397.43	1820.64
397.64	1769.44
397.84	1757.16
398.05	1976.29
398.26	1763.30
398.47	1849.32
398.67	1775.59
398.88	1767.40
399.09	1755.11
399.30	1742.82
399.51	1763.30
399.71	1640.42
399.92	1669.09
400.13	1785.83
400.34	1705.96
400.54	1755.11
400.75	1808.36
400.96	1746.92
401.17	1875.94
401.37	1669.09
401.58	1744.87
401.79	1726.44
402.00	1824.74
402.21	2015.20
402.41	2150.37
402.62	2144.22
402.83	2166.75
403.04	2080.74
403.24	2142.18
403.45	1953.76
403.66	2021.35
403.87	1955.81
404.07	1996.77
404.28	1953.76
404.49	1865.70
404.70	1773.54
404.90	1779.68
405.11	1777.64
405.32	1787.88
405.52	1681.38
405.73	1708.01
405.94	1640.42
406.15	1697.77
406.35	1755.11
406.56	1726.44
406.77	1746.92
406.98	1728.49
407.18	1591.27
407.39	1820.64
407.60	1742.82
407.80	1777.64
408.01	1734.63
408.22	1777.64
408.43	1708.01
408.63	1734.63
408.84	1714.15
409.05	1755.11
409.25	1693.67
409.46	1738.73
409.67	1708.01
409.88	1658.85
410.08	1736.68
410.29	1652.71
410.50	1703.91
410.70	1740.77
410.91	1667.05
411.12	1658.85
411.32	1689.57
411.53	1765.35
411.74	1834.98
411.95	1933.28
412.15	1824.74
412.36	1794.02
412.57	1783.78
412.77	1863.65
412.98	1673.19
413.19	1687.53
413.39	1761.25
413.60	1722.34
413.81	1787.88
414.01	1681.38
414.22	1773.54
414.43	1791.97
414.63	1806.31
414.84	1775.59
415.05	1740.77
415.25	1720.29
415.46	1781.73
415.67	1671.14
415.87	1794.02
416.08	1751.01
416.29	1630.18
416.49	1726.44
416.70	1638.38
416.91	1712.10
417.11	1613.80
417.32	1673.19
417.53	1740.77
417.73	1732.58
417.94	1667.05
418.15	1658.85
418.35	1748.97
418.56	1671.14
418.77	1779.68
418.97	1691.62
419.18	1701.86
419.38	1632.23
419.59	1662.95
419.80	1828.84
420.00	1726.44
420.21	1714.15
420.42	1781.73
420.62	1759.21
420.83	1648.61
421.04	1677.29
421.24	1658.85
421.45	1753.06
421.65	1695.72
421.86	1681.38
422.07	1791.97
422.27	1685.48
422.48	1669.09
422.69	1699.81
422.89	1718.25
423.10	1667.05
423.30	1650.66
423.51	1710.05
423.72	1742.82
423.92	1834.98
424.13	1669.09
424.33	1761.25
424.54	1730.53
424.75	1728.49
424.95	1800.16
425.16	1761.25
425.36	1701.86
425.57	1757.16
425.78	1689.57
425.98	1726.44
426.19	1781.73
426.39	1691.62
426.60	1734.63
426.81	1834.98
427.01	1740.77
427.22	1671.14
427.42	1615.85
427.63	1740.77
427.83	1761.25
428.04	1773.54
428.25	1863.65
428.45	1794.02
428.66	1796.07
428.86	1738.73
429.07	1755.11
429.28	1755.11
429.48	1679.33
429.69	1697.77
429.89	1712.10
430.10	1599.46
430.30	1740.77
430.51	1798.12
430.71	1710.05
430.92	1695.72
431.13	1671.14
431.33	1789.92
431.54	1665.00
431.74	1804.26
431.95	1863.65
432.15	1693.67
432.36	1660.90
432.56	1794.02
432.77	1789.92
432.98	1812.45
433.18	1720.29
433.39	1724.39
433.59	1724.39
433.80	1785.83
434.00	1771.49
434.21	1685.48
434.41	1697.77
434.62	1896.42
434.82	1658.85
435.03	1660.90
435.23	1671.14
435.44	1652.71
435.64	1767.40
435.85	1652.71
436.06	1744.87
436.26	1796.07
436.47	1751.01
436.67	1654.76
436.88	1718.25
437.08	1794.02
437.29	1716.20
437.49	1718.25
437.70	1705.96
437.90	1726.44
438.11	1849.32
438.31	1806.31
438.52	1863.65
438.72	1931.23
438.93	1908.71
439.13	1867.75
439.34	1865.70
439.54	1748.97
439.75	1834.98
439.95	1804.26
440.16	1716.20
440.36	1773.54
440.57	1787.88
440.77	1689.57
440.98	1708.01
441.18	1751.01
441.39	1808.36
441.59	1615.85
441.80	1814.50
442.00	1679.33
442.21	1789.92
442.41	1601.51
442.62	1808.36
442.82	1691.62
443.02	1693.67
443.23	1675.24
443.43	1650.66
443.64	1732.58
443.84	1742.82
444.05	1775.59
444.25	1769.44
444.46	1718.25
444.66	1722.34
444.87	1802.21
445.07	1632.23
445.28	1654.76
445.48	1787.88
445.69	1773.54
445.89	1898.47
446.09	1753.06
446.30	2017.25
446.50	2637.78
446.71	4192.19
446.91	5179.31
447.12	5640.11
447.32	5949.35
447.53	5400.49
447.73	4532.15
447.93	4011.97
448.14	3641.29
448.34	3450.83
448.55	3094.48
448.75	3203.02
448.96	2873.30
449.16	2654.17
449.36	2498.52
449.57	2187.23
449.77	1996.77
449.98	1808.36
450.18	1918.95
450.39	1892.32
450.59	1732.58
450.79	1777.64
451.00	1710.05
451.20	1810.40
451.41	1767.40
451.61	1751.01
451.81	1703.91
452.02	1771.49
452.22	1708.01
452.43	1703.91
452.63	1656.81
452.84	1730.53
453.04	1656.81
453.24	1796.07
453.45	1673.19
453.65	1669.09
453.86	1738.73
454.06	1695.72
454.26	1722.34
454.47	1603.56
454.67	1759.21
454.87	1800.16
455.08	1662.95
455.28	1800.16
455.49	1742.82
455.69	1714.15
455.89	1929.19
456.10	1839.08
456.30	1746.92
456.51	1804.26
456.71	1796.07
456.91	1746.92
457.12	1796.07
457.32	1757.16
457.52	1673.19
457.73	1724.39
457.93	1730.53
458.14	1710.05
458.34	1624.04
458.54	1632.23
458.75	1695.72
458.95	1810.40
459.15	1785.83
459.36	1710.05
459.56	1814.50
459.76	1890.28
459.97	1755.11
460.17	1734.63
460.37	1755.11
460.58	1687.53
460.78	1726.44
460.99	1673.19
461.19	1648.61
461.39	1699.81
461.60	1675.24
461.80	1751.01
462.00	1689.57
462.21	1726.44
462.41	1728.49
462.61	1648.61
462.82	1621.99
463.02	1744.87
463.22	1710.05
463.43	1851.36
463.63	1720.29
463.83	1728.49
464.04	1740.77
464.24	1626.09
464.44	1691.62
464.64	1691.62
464.85	1751.01
465.05	1810.40
465.25	1732.58
465.46	1703.91
465.66	1738.73
465.86	1748.97
466.07	1761.25
466.27	1757.16
466.47	1642.47
466.68	1710.05
466.88	1740.77
467.08	1783.78
467.29	1773.54
467.49	1783.78
467.69	1673.19
467.89	1794.02
468.10	1673.19
468.30	1732.58
468.50	1785.83
468.71	1728.49
468.91	1687.53
469.11	1828.84
469.31	1689.57
469.52	1728.49
469.72	1890.28
469.92	1804.26
470.13	1802.21
470.33	1738.73
470.53	1818.60
470.73	2199.52
470.94	2559.96
471.14	2656.22
471.34	3045.33
471.54	2863.06
471.75	2619.35
471.95	2293.72
472.15	2215.90
472.36	2293.72
472.56	2127.84
472.76	2220.00
472.96	2185.18
473.17	2058.21
473.37	1933.28
473.57	1847.27
473.77	1863.65
473.98	1769.44
474.18	1767.40
474.38	1867.75
474.58	1728.49
474.79	1720.29
474.99	1738.73
475.19	1734.63
475.39	1640.42
475.60	1734.63
475.80	1708.01
476.00	1773.54
476.20	1744.87
476.41	1757.16
476.61	1802.21
476.81	1804.26
477.01	1734.63
477.21	1796.07
477.42	1759.21
477.62	1648.61
477.82	1751.01
478.02	1669.09
478.23	1710.05
478.43	1652.71
478.63	1720.29
478.83	1826.79
479.03	1724.39
479.24	1855.46
479.44	1837.03
479.64	1652.71
479.84	1615.85
480.04	1658.85
480.25	1736.68
480.45	1673.19
480.65	1691.62
480.85	1785.83
481.06	1769.44
481.26	1765.35
481.46	1744.87
481.66	1767.40
481.86	1681.38
482.06	1828.84
482.27	1744.87
482.47	1753.06
482.67	1783.78
482.87	1699.81
483.07	1832.93
483.28	1714.15
483.48	1691.62
483.68	1771.49
483.88	1667.05
484.08	1650.66
484.29	1695.72
484.49	1654.76
484.69	1640.42
484.89	1789.92
485.09	1724.39
485.29	1818.60
485.50	1775.59
485.70	1736.68
485.90	1849.32
486.10	1816.55
486.30	1753.06
486.50	1804.26
486.71	1708.01
486.91	1748.97
487.11	1779.68
487.31	1669.09
487.51	1789.92
487.71	1650.66
487.91	1697.77
488.12	1742.82
488.32	1597.42
488.52	1658.85
488.72	1572.84
488.92	1794.02
489.12	1818.60
489.32	1771.49
489.53	1828.84
489.73	1632.23
489.93	1800.16
490.13	1736.68
490.33	1593.32
490.53	1767.40
490.73	1773.54
490.94	1607.66
491.14	1759.21
491.34	1796.07
491.54	2103.26
491.74	2719.70
491.94	3131.34
492.14	3422.16
492.34	3534.79
492.54	3180.50
492.75	2713.56
492.95	2557.91
493.15	2471.90
493.35	2381.79
493.55	2230.24
493.75	2199.52
493.95	2269.15
494.15	2103.26
494.35	2017.25
494.56	1904.61
494.76	1789.92
494.96	1828.84
495.16	1832.93
495.36	1751.01
495.56	1814.50
495.76	1775.59
495.96	1738.73
496.16	1671.14
496.36	1871.84
496.56	1716.20
496.77	1705.96
496.97	1712.10
497.17	1767.40
497.37	1652.71
497.57	1794.02
497.77	1761.25
497.97	1734.63
498.17	1761.25
498.37	1736.68
498.57	1791.97
498.77	1730.53
498.97	1771.49
499.17	1853.41
499.38	1816.55
499.58	1718.25
499.78	1798.12
499.98	1804.26
500.18	1726.44
500.38	1746.92
500.58	1918.95
500.78	2480.09
500.98	4646.84
501.18	6651.80
501.38	8275.84
501.58	9031.54
501.78	8744.83
501.98	6795.16
502.18	5816.23
502.38	5015.48
502.58	4597.69
502.78	4081.60
502.98	4018.11
503.18	3772.36
503.38	3542.99
503.59	3096.53
503.79	2867.16
503.99	2623.45
504.19	2400.22
504.39	2371.55
504.59	2361.31
504.79	2271.20
504.99	2222.05
505.19	2058.21
505.39	1955.81
505.59	2027.49
505.79	1974.24
505.99	1888.23
506.19	1814.50
506.39	1937.38
506.59	1777.64
506.79	1804.26
506.99	1882.08
507.19	1812.45
507.39	1753.06
507.59	1644.52
507.79	1669.09
507.99	1767.40
508.19	1796.07
508.39	1695.72
508.59	1742.82
508.79	1761.25
508.99	1832.93
509.19	1679.33
509.39	1796.07
509.59	1718.25
509.79	1712.10
509.99	1693.67
510.19	1771.49
510.39	1828.84
510.59	1755.11
510.79	1695.72
510.99	1677.29
511.19	1724.39
511.39	1890.28
511.59	1820.64
511.79	1773.54
511.99	1763.30
512.19	1896.42
512.38	1757.16
512.58	1720.29
512.78	1722.34
512.98	1779.68
513.18	1798.12
513.38	1636.33
513.58	1744.87
513.78	1667.05
513.98	1685.48
514.18	1730.53
514.38	1714.15
514.58	1722.34
514.78	1675.24
514.98	1718.25
515.18	1740.77
515.38	1763.30
515.58	1828.84
515.78	1755.11
515.98	1650.66
516.18	1794.02
516.38	1736.68
516.57	1730.53
516.77	1699.81
516.97	1779.68
517.17	1695.72
517.37	1609.70
517.57	1822.69
517.77	1748.97
517.97	1734.63
518.17	1755.11
518.37	1755.11
518.57	1720.29
518.77	1708.01
518.97	1814.50
519.16	1722.34
519.36	1804.26
519.56	1771.49
519.76	1751.01
519.96	1800.16
520.16	1841.12
520.36	1677.29
520.56	1855.46
520.76	1769.44
520.96	1646.57
521.16	1746.92
521.35	1855.46
521.55	1773.54
521.75	1687.53
521.95	1685.48
522.15	1710.05
522.35	1648.61
522.55	1744.87
522.75	1779.68
522.95	1834.98
523.14	1658.85
523.34	1734.63
523.54	1736.68
523.74	1769.44
523.94	1718.25
524.14	1656.81
524.34	1699.81
524.54	1818.60
524.73	1695.72
524.93	1755.11
525.13	1798.12
525.33	1605.61
525.53	1843.17
525.73	1767.40
525.93	1732.58
526.13	1691.62
526.32	1701.86
526.52	1767.40
526.72	1822.69
526.92	1701.86
527.12	1720.29
527.32	1665.00
527.52	1732.58
527.71	1767.40
527.91	1675.24
528.11	1662.95
528.31	1746.92
528.51	1681.38
528.71	1812.45
528.90	1808.36
529.10	1814.50
529.30	1810.40
529.50	1654.76
529.70	1748.97
529.90	1757.16
530.09	1691.62
530.29	1632.23
530.49	1708.01
530.69	1789.92
530.89	1791.97
531.09	1734.63
531.28	1695.72
531.48	1865.70
531.68	1748.97
531.88	1814.50
532.08	1785.83
532.28	1744.87
532.47	1710.05
532.67	1806.31
532.87	1751.01
533.07	1738.73
533.27	1798.12
533.46	1742.82
533.66	1759.21
533.86	1685.48
534.06	1775.59
534.26	1814.50
534.45	1728.49
534.65	1830.88
534.85	1677.29
535.05	1697.77
535.25	1677.29
535.44	1675.24
535.64	1806.31
535.84	1755.11
536.04	1687.53
536.24	1708.01
536.43	1701.86
536.63	1722.34
536.83	1730.53
537.03	1697.77
537.22	1677.29
537.42	1714.15
537.62	1703.91
537.82	1609.70
538.02	1789.92
538.21	1824.74
538.41	1894.37
538.61	1726.44
538.81	1765.35
539.00	1855.46
539.20	1693.67
539.40	1718.25
539.60	1785.83
539.79	1839.08
539.99	1751.01
540.19	1636.33
540.39	1714.15
540.58	1665.00
540.78	1804.26
540.98	1773.54
541.18	1865.70
541.37	1722.34
541.57	1703.91
541.77	1798.12
541.97	1658.85
542.16	1708.01
542.36	1765.35
542.56	1658.85
542.76	1757.16
542.95	1761.25
543.15	1726.44
543.35	1646.57
543.54	1708.01
543.74	1679.33
543.94	1865.70
544.14	1691.62
544.33	1730.53
544.53	1693.67
544.73	1734.63
544.93	1734.63
545.12	1679.33
545.32	1757.16
545.52	1701.86
545.71	1656.81
545.91	1718.25
546.11	1710.05
546.30	1687.53
546.50	1773.54
546.70	1767.40
546.90	1722.34
547.09	1675.24
547.29	1773.54
547.49	1787.88
547.68	1632.23
547.88	1732.58
548.08	1863.65
548.27	2183.13
548.47	1681.38
548.67	1681.38
548.87	1779.68
549.06	1705.96
549.26	1810.40
549.46	1767.40
549.65	1695.72
549.85	1794.02
550.05	1763.30
550.24	1687.53
550.44	1765.35
550.64	1765.35
550.83	1720.29
551.03	1886.18
551.23	1763.30
551.42	1742.82
551.62	1716.20
551.82	1716.20
552.01	1802.21
552.21	1802.21
552.41	1675.24
552.60	1824.74
552.80	1720.29
553.00	1638.38
553.19	1775.59
553.39	1837.03
553.59	1689.57
553.78	1687.53
553.98	1798.12
554.17	1648.61
554.37	1722.34
554.57	1800.16
554.76	1660.90
554.96	1794.02
555.16	1796.07
555.35	1667.05
555.55	1755.11
555.75	1802.21
555.94	1794.02
556.14	1699.81
556.33	1683.43
556.53	1783.78
556.73	1712.10
556.92	1761.25
557.12	1771.49
557.32	1851.36
557.51	1875.94
557.71	1781.73
557.90	1767.40
558.10	1724.39
558.30	1773.54
558.49	1685.48
558.69	1720.29
558.88	1757.16
559.08	1734.63
559.28	1755.11
559.47	1757.16
559.67	1738.73
559.86	1902.56
560.06	1740.77
560.26	1673.19
560.45	1787.88
560.65	1708.01
560.84	1843.17
561.04	1751.01
561.24	1771.49
561.43	1699.81
561.63	1834.98
561.82	1814.50
562.02	1798.12
562.22	1718.25
562.41	1656.81
562.61	1701.86
562.80	1785.83
563.00	1880.04
563.19	1740.77
563.39	1759.21
563.59	1783.78
563.78	1697.77
563.98	1626.09
564.17	1705.96
564.37	1691.62
564.56	1759.21
564.76	1720.29
564.96	1763.30
565.15	1726.44
565.35	1822.69
565.54	1710.05
565.74	1806.31
565.93	1738.73
566.13	1728.49
566.32	1761.25
566.52	1794.02
566.71	1710.05
566.91	1839.08
567.11	1734.63
567.30	1681.38
567.50	1734.63
567.69	1669.09
567.89	1710.05
568.08	1738.73
568.28	1708.01
568.47	1699.81
568.67	1791.97
568.86	1710.05
569.06	1818.60
569.25	1742.82
569.45	1773.54
569.64	1615.85
569.84	1701.86
570.04	1718.25
570.23	1673.19
570.43	1744.87
570.62	1771.49
570.82	1851.36
571.01	1732.58
571.21	1746.92
571.40	1624.04
571.60	1773.54
571.79	1753.06
571.99	1757.16
572.18	1701.86
572.38	1751.01
572.57	1714.15
572.77	1771.49
572.96	1892.32
573.16	1701.86
573.35	1660.90
573.55	1826.79
573.74	1779.68
573.94	1779.68
574.13	1744.87
574.33	1818.60
574.52	1730.53
574.71	1724.39
574.91	1810.40
575.10	1599.46
575.30	1775.59
575.49	1718.25
575.69	1736.68
575.88	1812.45
576.08	1755.11
576.27	1947.62
576.47	1834.98
576.66	1841.12
576.86	1892.32
577.05	1843.17
577.25	1886.18
577.44	1892.32
577.64	1765.35
577.83	1808.36
578.02	1705.96
578.22	1880.04
578.41	1849.32
578.61	1691.62
578.80	1640.42
579.00	1810.40
579.19	1763.30
579.39	1732.58
579.58	1759.21
579.77	1775.59
579.97	1837.03
580.16	1773.54
580.36	1871.84
580.55	1839.08
580.75	1814.50
580.94	1783.78
581.13	1916.90
581.33	1882.08
581.52	1761.25
581.72	1894.37
581.91	1847.27
582.11	1812.45
582.30	1832.93
582.49	1789.92
582.69	1855.46
582.88	1873.89
583.08	1761.25
583.27	1861.60
583.47	1765.35
583.66	1736.68
583.85	1779.68
584.05	1849.32
584.24	1824.74
584.44	1763.30
584.63	1880.04
584.82	1927.14
585.02	1910.75
585.21	1875.94
585.41	1884.13
585.60	1933.28
585.79	1996.77
585.99	1998.82
586.18	1996.77
586.37	2230.24
586.57	3289.04
586.76	9957.22
586.96	27039.33
587.15	42050.94
587.34	51854.57
587.54	58309.77
587.73	55975.08
587.93	40261.02
588.12	29570.62
588.31	24077.97
588.51	20543.17
588.70	18468.58
588.89	16908.03
589.09	15372.05
589.28	13440.82
589.47	11661.13
589.67	9441.14
589.86	7401.36
590.06	5543.85
590.25	4104.13
590.44	3282.89
590.64	2684.89
590.83	2172.89
591.02	2090.98
591.22	1998.82
591.41	1910.75
591.60	1853.41
591.80	1953.76
591.99	1800.16
592.18	1863.65
592.38	1849.32
592.57	1839.08
592.76	1812.45
592.96	1853.41
593.15	1716.20
593.34	1820.64
593.54	1794.02
593.73	1865.70
593.92	1845.22
594.12	1832.93
594.31	1800.16
594.50	1882.08
594.70	1873.89
594.89	1920.99
595.08	1748.97
595.28	1851.36
595.47	1992.67
595.66	1765.35
595.86	1703.91
596.05	1734.63
596.24	1699.81
596.43	1832.93
596.63	1820.64
596.82	1832.93
597.01	1849.32
597.21	1828.84
597.40	1771.49
597.59	1890.28
597.79	1753.06
597.98	1783.78
598.17	1781.73
598.36	1740.77
598.56	1796.07
598.75	1769.44
598.94	1828.84
599.14	1808.36
599.33	1716.20
599.52	1869.80
599.71	1767.40
599.91	1759.21
600.10	1767.40
600.29	1716.20
600.48	1769.44
600.68	1738.73
600.87	1742.82
601.06	1689.57
601.26	1738.73
601.45	1744.87
601.64	1705.96
601.83	1853.41
602.03	1705.96
602.22	1650.66
602.41	1767.40
602.60	1841.12
602.80	1779.68
602.99	1757.16
603.18	1669.09
603.37	1740.77
603.57	1822.69
603.76	1851.36
603.95	1880.04
604.14	1726.44
604.34	1685.48
604.53	1740.77
604.72	1839.08
604.91	1771.49
605.10	1771.49
605.30	1712.10
605.49	1837.03
605.68	1855.46
605.87	1796.07
606.07	1671.14
606.26	1693.67
606.45	1728.49
606.64	1744.87
606.84	1736.68
607.03	1689.57
607.22	1853.41
607.41	1828.84
607.60	1755.11
607.80	1830.88
607.99	1810.40
608.18	1726.44
608.37	1736.68
608.56	1689.57
608.76	1816.55
608.95	1855.46
609.14	1794.02
609.33	1837.03
609.52	1908.71
609.72	1857.51
609.91	1845.22
610.10	1859.56
610.29	1943.52
610.48	1806.31
610.68	1794.02
610.87	1732.58
611.06	1802.21
611.25	1794.02
611.44	1828.84
611.63	1685.48
611.83	1841.12
612.02	1626.09
612.21	1873.89
612.40	1687.53
612.59	1714.15
612.79	1693.67
612.98	1681.38
613.17	1828.84
613.36	1728.49
613.55	1841.12
613.74	1896.42
613.93	1923.04
614.13	1898.47
614.32	1961.95
614.51	2004.96
614.70	1781.73
614.89	1853.41
615.08	1828.84
615.28	2095.07
615.47	1738.73
615.66	1837.03
615.85	1812.45
616.04	1945.57
616.23	1791.97
616.42	1808.36
616.62	1816.55
616.81	1796.07
617.00	1675.24
617.19	1800.16
617.38	1742.82
617.57	1722.34
617.76	1783.78
617.95	1830.88
618.15	1830.88
618.34	1738.73
618.53	1718.25
618.72	1732.58
618.91	1877.99
619.10	1843.17
619.29	1705.96
619.48	1779.68
619.68	1710.05
619.87	1742.82
620.06	1685.48
620.25	1806.31
620.44	1705.96
620.63	1787.88
620.82	1718.25
621.01	1771.49
621.20	1732.58
621.39	1767.40
621.59	1753.06
621.78	1742.82
621.97	1775.59
622.16	1697.77
622.35	1720.29
622.54	1798.12
622.73	1867.75
622.92	1675.24
623.11	1751.01
623.30	1699.81
623.49	1732.58
623.68	1732.58
623.88	1751.01
624.07	1738.73
624.26	1656.81
624.45	1767.40
624.64	1660.90
624.83	1812.45
625.02	1703.91
625.21	1748.97
625.40	1751.01
625.59	1855.46
625.78	1746.92
625.97	1787.88
626.16	1855.46
626.35	1822.69
626.54	1898.47
626.74	1851.36
626.93	1806.31
627.12	1660.90
627.31	1886.18
627.50	1720.29
627.69	1796.07
627.88	1751.01
628.07	1824.74
628.26	1695.72
628.45	1712.10
628.64	1718.25
628.83	1763.30
629.02	1599.46
629.21	1677.29
629.40	1730.53
629.59	1773.54
629.78	1716.20
629.97	1742.82
630.16	1755.11
630.35	1775.59
630.54	1740.77
630.73	1677.29
630.92	1773.54
631.11	1697.77
631.30	1753.06
631.49	1722.34
631.68	1617.90
631.87	1779.68
632.06	1677.29
632.25	1880.04
632.44	1820.64
632.63	1767.40
632.82	1716.20
633.01	1771.49
633.20	1834.98
633.39	1818.60
633.58	1714.15
633.77	1757.16
633.96	1869.80
634.15	1832.93
634.34	1798.12
634.53	1767.40
634.72	1771.49
634.91	1632.23
635.10	1769.44
635.29	1812.45
635.48	1738.73
635.67	1683.43
635.86	1640.42
636.05	1873.89
636.24	1697.77
636.43	1712.10
636.62	1755.11
636.81	1581.03
637.00	1724.39
637.19	1722.34
637.38	1669.09
637.57	1787.88
637.76	1859.56
637.95	1794.02
638.14	1808.36
638.33	1828.84
638.52	1787.88
638.71	1724.39
638.89	1765.35
639.08	1935.33
639.27	1822.69
639.46	1832.93
639.65	2156.51
639.84	2310.11
640.03	2322.40
640.22	2414.56
640.41	2324.44
640.60	1972.19
640.79	1994.72
640.98	1902.56
641.17	1918.95
641.36	1859.56
641.55	1927.14
641.74	1771.49
641.92	1806.31
642.11	1728.49
642.30	1806.31
642.49	1746.92
642.68	1742.82
642.87	1642.47
643.06	1791.97
643.25	1703.91
643.44	1720.29
643.63	1699.81
643.82	1810.40
644.00	1726.44
644.19	1697.77
644.38	1701.86
644.57	1753.06
644.76	1765.35
644.95	1689.57
645.14	1763.30
645.33	1640.42
645.52	1740.77
645.71	1673.19
645.89	1683.43
646.08	1689.57
646.27	1753.06
646.46	1882.08
646.65	1585.13
646.84	1712.10
647.03	1667.05
647.22	1841.12
647.40	1697.77
647.59	1667.05
647.78	1632.23
647.97	1679.33
648.16	1738.73
648.35	1798.12
648.54	1724.39
648.73	1699.81
648.91	1853.41
649.10	1626.09
649.29	1710.05
649.48	1699.81
649.67	1699.81
649.86	1693.67
650.05	1783.78
650.23	1980.39
650.42	1771.49
650.61	1957.86
650.80	1884.13
650.99	2015.20
651.18	1798.12
651.36	1796.07
651.55	1751.01
651.74	1814.50
651.93	1722.34
652.12	1677.29
652.31	1710.05
652.49	1673.19
652.68	1732.58
652.87	1822.69
653.06	1765.35
653.25	1902.56
653.44	1691.62
653.62	1738.73
653.81	1716.20
654.00	1765.35
654.19	1720.29
654.38	1877.99
654.56	1726.44
654.75	1732.58
654.94	1787.88
655.13	1765.35
655.32	1730.53
655.51	1699.81
655.69	1673.19
655.88	1796.07
656.07	1675.24
656.26	1767.40
656.45	1667.05
656.63	1732.58
656.82	1779.68
657.01	1742.82
657.20	1710.05
657.38	1777.64
657.57	1751.01
657.76	1574.89
657.95	1714.15
658.14	1714.15
658.32	1763.30
658.51	1660.90
658.70	1708.01
658.89	1722.34
659.08	1730.53
659.26	1828.84
659.45	1695.72
659.64	1841.12
659.83	1746.92
660.01	2000.87
660.20	1814.50
660.39	1904.61
660.58	1570.79
660.76	1837.03
660.95	1693.67
661.14	1693.67
661.33	1708.01
661.51	1681.38
661.70	1732.58
661.89	1789.92
662.08	1669.09
662.26	1638.38
662.45	1710.05
662.64	1830.88
662.83	1816.55
663.01	1613.80
663.20	1630.18
663.39	1794.02
663.58	1648.61
663.76	1683.43
663.95	1732.58
664.14	1681.38
664.32	1730.53
664.51	1640.42
664.70	1621.99
664.89	1689.57
665.07	1693.67
665.26	1789.92
665.45	1665.00
665.64	1767.40
665.82	1738.73
666.01	1722.34
666.20	1744.87
666.38	1849.32
666.57	1888.23
666.76	2279.39
666.95	4587.45
667.13	11366.23
667.32	18505.45
667.51	22535.85
667.69	25124.48
667.88	25742.97
668.07	19736.27
668.25	14276.39
668.44	11835.21
668.63	9846.63
668.81	8507.26
669.00	7729.03
669.19	6967.19
669.38	6158.24
669.56	5486.51
669.75	4499.39
669.94	3747.78
670.12	3069.91
670.31	2674.65
670.50	2332.64
670.68	2193.37
670.87	1988.58
671.06	1859.56
671.24	1808.36
671.43	1814.50
671.62	1841.12
671.80	1798.12
671.99	1814.50
672.18	1738.73
672.36	1763.30
672.55	1757.16
672.74	1722.34
672.92	1710.05
673.11	1794.02
673.29	1669.09
673.48	1796.07
673.67	1814.50
673.85	1775.59
674.04	1677.29
674.23	1769.44
674.41	1826.79
674.60	1658.85
674.79	1626.09
674.97	1675.24
675.16	1755.11
675.34	1847.27
675.53	1662.95
675.72	1730.53
675.90	1810.40
676.09	1675.24
676.28	1757.16
676.46	1689.57
676.65	1744.87
676.83	1636.33
677.02	1691.62
677.21	1716.20
677.39	1669.09
677.58	1718.25
677.77	1773.54
677.95	1714.15
678.14	1734.63
678.32	1667.05
678.51	1693.67
678.70	1814.50
678.88	1755.11
679.07	1705.96
679.25	1683.43
679.44	1718.25
679.63	1626.09
679.81	1810.40
680.00	1783.78
680.18	1794.02
680.37	1804.26
680.55	1683.43
680.74	1589.22
680.93	1570.79
681.11	1677.29
681.30	1665.00
681.48	1697.77
681.67	1705.96
681.85	1687.53
682.04	1695.72
682.23	1783.78
682.41	1781.73
682.60	1755.11
682.78	1689.57
682.97	1671.14
683.15	1681.38
683.34	1695.72
683.53	1787.88
683.71	1708.01
683.90	1804.26
684.08	1767.40
684.27	1667.05
684.45	1732.58
684.64	1820.64
684.82	1714.15
685.01	1771.49
685.19	1677.29
685.38	1763.30
685.57	1685.48
685.75	1708.01
685.94	1669.09
686.12	1654.76
686.31	1710.05
686.49	1849.32
686.68	1695.72
686.86	1802.21
687.05	1751.01
687.23	1783.78
687.42	1722.34
687.60	1578.98
687.79	1798.12
687.97	1742.82
688.16	1837.03
688.34	1695.72
688.53	1591.27
688.71	1740.77
688.90	1779.68
689.08	1669.09
689.27	1662.95
689.45	1800.16
689.64	1773.54
689.82	1742.82
690.01	1738.73
690.19	1687.53
690.38	1679.33
690.56	1748.97
690.75	1665.00
690.93	1669.09
691.12	1617.90
691.30	1738.73
691.49	1755.11
691.67	1732.58
691.86	1832.93
692.04	1761.25
692.23	1724.39
692.41	1773.54
692.60	1888.23
692.78	1847.27
692.97	1794.02
693.15	1763.30
693.34	1843.17
693.52	1804.26
693.71	1691.62
693.89	1740.77
694.08	1607.66
694.26	1806.31
694.44	1718.25
694.63	1734.63
694.81	1720.29
695.00	1681.38
695.18	1789.92
695.37	1837.03
695.55	1738.73
695.74	1658.85
695.92	1701.86
696.10	1746.92
696.29	1740.77
696.47	1759.21
696.66	1660.90
696.84	1689.57
697.03	1691.62
697.21	1877.99
697.40	2297.82
697.58	1787.88
697.76	1617.90
697.95	1636.33
698.13	1703.91
698.32	1681.38
698.50	1802.21
698.68	1808.36
698.87	1734.63
699.05	1816.55
699.24	1640.42
699.42	1681.38
699.61	1703.91
699.79	1648.61
699.97	1755.11
700.16	1626.09
700.34	1669.09
700.53	1726.44
700.71	1726.44
700.89	1722.34
701.08	1726.44
701.26	1705.96
701.45	2086.88
701.63	1638.38
701.81	1677.29
702.00	1734.63
702.18	1765.35
702.37	1722.34
702.55	1947.62
702.73	1910.75
702.92	1873.89
703.10	1994.72
703.28	1902.56
703.47	1890.28
703.65	1882.08
703.84	1910.75
704.02	1884.13
704.20	1869.80
704.39	1740.77
704.57	1712.10
704.75	1794.02
704.94	1789.92
705.12	1826.79
705.30	1916.90
705.49	2488.28
705.67	5367.73
705.86	13219.64
706.04	19439.32
706.22	22933.15
706.41	25251.45
706.59	24706.70
706.77	19093.21
706.96	13809.45
707.14	11962.19
707.32	10020.71
707.51	8851.32
707.69	7882.63
707.87	6768.54
708.06	5429.17
708.24	4319.17
708.42	3373.00
708.61	2887.64
708.79	2162.66
708.97	2066.40
709.16	1927.14
709.34	1832.93
709.52	1767.40
709.71	1791.97
709.89	1791.97
710.07	1697.77
710.26	1646.57
710.44	1691.62
710.62	1675.24
710.80	1767.40
710.99	1736.68
711.17	1787.88
711.35	1726.44
711.54	1751.01
711.72	1828.84
711.90	1773.54
712.09	1724.39
712.27	1708.01
712.45	1705.96
712.63	1662.95
712.82	1642.47
713.00	1703.91
713.18	1740.77
713.37	1746.92
713.55	1751.01
713.73	1783.78
713.91	1742.82
714.10	1689.57
714.28	1619.94
714.46	1738.73
714.65	1736.68
714.83	1763.30
715.01	1710.05
715.19	1728.49
715.38	1681.38
715.56	1703.91
715.74	1705.96
715.92	1660.90
716.11	1769.44
716.29	1574.89
716.47	1769.44
716.65	1660.90
716.84	1613.80
717.02	1730.53
717.20	1613.80
717.38	1660.90
717.57	1708.01
717.75	1738.73
717.93	1646.57
718.11	1718.25
718.30	1624.04
718.48	1736.68
718.66	1685.48
718.84	1746.92
719.03	1767.40
719.21	1621.99
719.39	1859.56
719.57	1740.77
719.75	1736.68
719.94	1671.14
720.12	1771.49
720.30	1679.33
720.48	1900.52
720.67	1687.53
720.85	1621.99
721.03	1763.30
721.21	1714.15
721.39	1804.26
721.58	1771.49
721.76	1734.63
721.94	1787.88
722.12	1714.15
722.30	1824.74
722.49	1648.61
722.67	1683.43
722.85	1798.12
723.03	1576.94
723.21	1716.20
723.40	1708.01
723.58	1791.97
723.76	1693.67
723.94	1867.75
724.12	1800.16
724.30	1851.36
724.49	1828.84
724.67	1673.19
724.85	1818.60
725.03	1642.47
725.21	1759.21
725.40	1824.74
725.58	1705.96
725.76	1830.88
725.94	1710.05
726.12	1662.95
726.30	1757.16
726.49	1693.67
726.67	1751.01
726.85	1751.01
727.03	1802.21
727.21	2291.68
727.39	3434.44
727.57	4739.00
727.76	5607.34
727.94	6143.91
728.12	6297.50
728.30	5670.83
728.48	4454.33
728.66	4024.26
728.84	3620.81
729.03	3160.02
729.21	2830.29
729.39	2463.71
729.57	2129.89
729.75	1994.72
729.93	1873.89
730.11	1740.77
730.30	1685.48
730.48	1679.33
730.66	1773.54
730.84	1861.60
731.02	1609.70
731.20	1693.67
731.38	1742.82
731.56	1648.61
731.74	1728.49
731.93	1769.44
732.11	1699.81
732.29	1636.33
732.47	1789.92
732.65	1728.49
732.83	1837.03
733.01	1722.34
733.19	1638.38
733.37	1734.63
733.56	1730.53
733.74	1722.34
733.92	1843.17
734.10	1640.42
734.28	1669.09
734.46	1683.43
734.64	1724.39
734.82	1777.64
735.00	1697.77
735.18	1595.37
735.36	1697.77
735.54	1671.14
735.73	1703.91
735.91	1691.62
736.09	1718.25
736.27	1789.92
736.45	1720.29
736.63	1673.19
736.81	1681.38
736.99	1791.97
737.17	1789.92
737.35	1689.57
737.53	1728.49
737.71	1726.44
737.89	1740.77
738.07	1685.48
738.25	1601.51
738.43	1658.85
738.61	1681.38
738.80	1642.47
738.98	1650.66
739.16	1640.42
739.34	1656.81
739.52	1753.06
739.70	1705.96
739.88	1757.16
740.06	1777.64
740.24	1718.25
740.42	1814.50
740.60	1656.81
740.78	1605.61
740.96	1652.71
741.14	1683.43
741.32	1718.25
741.50	1613.80
741.68	1865.70
741.86	1763.30
742.04	1656.81
742.22	1648.61
742.40	1740.77
742.58	1714.15
742.76	1722.34
742.94	1818.60
743.12	1640.42
743.30	1722.34
743.48	1744.87
743.66	1667.05
743.84	1742.82
744.02	1724.39
744.20	1697.77
744.38	1632.23
744.56	1617.90
744.74	1802.21
744.92	1740.77
745.10	1775.59
745.28	1699.81
745.46	1904.61
745.64	1667.05
745.82	1779.68
746.00	1697.77
746.18	1740.77
746.36	1638.38
746.54	1738.73
746.72	1705.96
746.90	1701.86
747.08	1834.98
747.26	1740.77
747.44	1755.11
747.62	1722.34
747.80	1740.77
747.98	1779.68
748.15	1667.05
748.33	1832.93
748.51	1748.97
748.69	1748.97
748.87	1726.44
749.05	1714.15
749.23	1759.21
749.41	1767.40
749.59	1691.62
749.77	1796.07
749.95	1650.66
750.13	1669.09
750.31	1742.82
750.49	1789.92
750.67	1765.35
750.85	1822.69
751.03	1748.97
751.20	1757.16
751.38	1685.48
751.56	1650.66
751.74	1789.92
751.92	1667.05
752.10	1730.53
752.28	1759.21
752.46	1703.91
752.64	1665.00
752.82	1714.15
753.00	1785.83
753.18	1740.77
753.35	1701.86
753.53	1732.58
753.71	1806.31
753.89	1757.16
754.07	1724.39
754.25	1724.39
754.43	1736.68
754.61	1683.43
754.79	1644.52
754.97	1671.14
755.14	1771.49
755.32	1724.39
755.50	1708.01
755.68	1734.63
755.86	1640.42
756.04	1691.62
756.22	1603.56
756.40	1812.45
756.57	1787.88
756.75	1681.38
756.93	1761.25
757.11	1769.44
757.29	1720.29
757.47	1693.67
757.65	1654.76
757.82	1581.03
758.00	1689.57
758.18	1628.14
758.36	1630.18
758.54	1804.26
758.72	1585.13
758.90	1765.35
759.07	1722.34
759.25	1591.27
759.43	1638.38
759.61	1632.23
759.79	2179.04
759.97	1763.30
760.15	1658.85
760.32	1718.25
760.50	1775.59
760.68	1877.99
760.86	1648.61
761.04	1708.01
761.22	1751.01
761.39	1710.05
761.57	1771.49
761.75	1722.34
761.93	1796.07
762.11	1654.76
762.28	1667.05
762.46	1685.48
762.64	1742.82
762.82	1716.20
763.00	1697.77
763.18	1847.27
763.35	1681.38
763.53	1755.11
763.71	1677.29
763.89	1767.40
764.07	1705.96
764.24	1730.53
764.42	1736.68
764.60	1712.10
764.78	1738.73
764.96	1699.81
765.13	1734.63
765.31	1685.48
765.49	1740.77
765.67	1599.46
765.84	1675.24
766.02	1673.19
766.20	1628.14
766.38	1689.57
766.56	1769.44
766.73	1810.40
766.91	1736.68
767.09	1734.63
767.27	1751.01
767.44	1699.81
767.62	1710.05
767.80	1654.76
767.98	1683.43
768.15	1683.43
768.33	1669.09
768.51	1722.34
768.69	1677.29
768.87	1660.90
769.04	1675.24
769.22	1865.70
769.40	1759.21
769.58	1882.08
769.75	1800.16
769.93	1757.16
770.11	1677.29
770.28	1685.48
770.46	1759.21
770.64	1681.38
770.82	1662.95
770.99	1599.46
771.17	1738.73
771.35	1714.15
771.53	1640.42
771.70	1732.58
771.88	1798.12
772.06	1705.96
772.23	1685.48
772.41	1693.67
772.59	1648.61
772.77	1632.23
772.94	1779.68
773.12	1759.21
773.30	1701.86
773.47	1714.15
773.65	1644.52
773.83	1812.45
774.01	1648.61
774.18	1636.33
774.36	1779.68
774.54	1697.77
774.71	1695.72
774.89	1626.09
775.07	1703.91
775.24	1619.94
775.42	1630.18
775.60	1855.46
775.78	1712.10
775.95	1648.61
776.13	1562.60
776.31	1564.65
776.48	1728.49
776.66	1714.15
776.84	1703.91
777.01	1652.71
777.19	1644.52
777.37	1738.73
777.54	1699.81
777.72	1867.75
777.90	1767.40
778.07	1681.38
778.25	1900.52
778.43	1771.49
778.60	1646.57
778.78	1703.91
778.96	1732.58
779.13	1646.57
779.31	1779.68
779.49	1783.78
779.66	1695.72
779.84	1699.81
780.01	1665.00
780.19	1675.24
780.37	1802.21
780.54	1734.63
780.72	1656.81
780.90	1738.73
781.07	1689.57
781.25	1705.96
781.43	1798.12
781.60	1718.25
781.78	1765.35
781.95	1705.96
782.13	1695.72
782.31	1695.72
782.48	1630.18
782.66	1693.67
782.83	1796.07
783.01	1759.21
783.19	1720.29
783.36	1734.63
783.54	1619.94
783.72	1740.77
783.89	1617.90
784.07	1697.77
784.24	1740.77
784.42	1785.83
784.60	1724.39
784.77	1720.29
784.95	1650.66
785.12	1689.57
785.30	1658.85
785.47	1693.67
785.65	1624.04
785.83	1642.47
786.00	1624.04
786.18	1710.05
786.35	1671.14
786.53	1646.57
786.71	1710.05
786.88	1718.25
787.06	1683.43
787.23	1718.25
787.41	1615.85
787.58	1744.87
787.76	1669.09
787.94	1714.15
788.11	1734.63
788.29	1693.67
788.46	1589.22
788.64	1710.05
788.81	1712.10
788.99	1650.66
789.16	1636.33
789.34	1673.19
789.52	1726.44
789.69	1632.23
789.87	1646.57
790.04	1736.68
790.22	1734.63
790.39	1757.16
790.57	1687.53
790.74	1642.47
790.92	1718.25
791.09	1617.90
791.27	1742.82
791.44	1818.60
791.62	1695.72
791.79	1636.33
791.97	1677.29
792.15	1867.75
792.32	1763.30
792.50	1705.96
792.67	1777.64
792.85	1714.15
793.02	1761.25
793.20	1662.95
793.37	1628.14
793.55	1683.43
793.72	1599.46
793.90	1716.20
794.07	1703.91
794.25	1648.61
794.42	1748.97
794.60	1660.90
794.77	1767.40
794.95	1759.21
795.12	1716.20
795.30	1730.53
795.47	1591.27
795.65	1820.64
795.82	1683.43
796.00	1611.75
796.17	1669.09
796.34	1640.42
796.52	1796.07
796.69	1738.73
796.87	1791.97
797.04	1722.34
797.22	1820.64
797.39	1740.77
797.57	1644.52
797.74	1691.62
797.92	1726.44
798.09	1675.24
798.27	1806.31
798.44	1734.63
798.62	1685.48
798.79	1738.73
798.96	1724.39
799.14	1693.67
799.31	1812.45
799.49	1740.77
799.66	1697.77
799.84	1624.04
800.01	1703.91
800.19	1738.73
800.36	1677.29
800.53	1673.19
800.71	1685.48
800.88	1798.12
801.06	1703.91
801.23	1667.05
801.41	1701.86
801.58	1632.23
801.75	1701.86
801.93	1787.88
802.10	1712.10
802.28	1685.48
802.45	1761.25
802.63	1765.35
802.80	1802.21
802.97	1687.53
803.15	1753.06
803.32	1665.00
803.50	1687.53
803.67	1697.77
803.84	1705.96
804.02	1718.25
804.19	1689.57
804.37	1632.23
804.54	1665.00
804.71	1789.92
804.89	1728.49
805.06	1609.70
805.24	1642.47
805.41	1718.25
805.58	1708.01
805.76	1853.41
805.93	1689.57
806.10	1849.32
806.28	1724.39
806.45	1724.39
806.63	1644.52
806.80	1671.14
806.97	1787.88
807.15	1681.38
807.32	1755.11
807.49	1683.43
807.67	1597.42
807.84	1783.78
808.01	1724.39
808.19	1798.12
808.36	1861.60
808.54	1720.29
808.71	1746.92
808.88	1662.95
809.06	1681.38
809.23	1759.21
809.40	1718.25
809.58	1824.74
809.75	1685.48
809.92	1593.32
810.10	1890.28
810.27	1708.01
810.44	1667.05
810.62	1767.40
810.79	1732.58
810.96	1671.14
811.14	1685.48
811.31	1683.43
811.48	1789.92
811.66	1660.90
811.83	1722.34
812.00	1759.21
812.18	1763.30
812.35	1771.49
812.52	1658.85
812.69	1697.77
812.87	1748.97
813.04	1656.81
813.21	1734.63
813.39	1630.18
813.56	1636.33
813.73	1720.29
813.91	1701.86
814.08	1712.10
814.25	1755.11
814.42	1632.23
814.60	1687.53
814.77	1648.61
814.94	1609.70
815.12	1669.09
815.29	1759.21
815.46	1691.62
815.63	1695.72
815.81	1755.11
815.98	1701.86
816.15	1652.71
816.33	1710.05
816.50	1697.77
816.67	1640.42
816.84	1691.62
817.02	1656.81
817.19	1703.91
817.36	1734.63
817.53	1738.73
817.71	1646.57
817.88	1689.57
818.05	1640.42
818.22	1634.28
818.40	1845.22
818.57	1671.14
818.74	1718.25
818.91	1710.05
819.09	1767.40
819.26	1812.45
819.43	1705.96
819.60	1665.00
819.78	1748.97
819.95	1763.30
820.12	1626.09
820.29	1759.21
820.47	1742.82
820.64	1679.33
820.81	1660.90
820.98	1755.11
821.15	1630.18
821.33	1701.86
821.50	1644.52
821.67	1787.88
821.84	1689.57
822.02	1800.16
822.19	1755.11
822.36	1673.19
822.53	1724.39
822.70	1636.33
822.88	1710.05
823.05	1839.08
823.22	1638.38
823.39	1701.86
823.56	1695.72
823.74	1877.99
823.91	1685.48
824.08	1615.85
824.25	1576.94
824.42	1877.99
824.60	1619.94
824.77	1757.16
824.94	1714.15
825.11	1730.53
825.28	1603.56
825.45	1695.72
825.63	1630.18
825.80	1712.10
825.97	1697.77
826.14	1697.77
826.31	1613.80
826.48	1726.44
826.66	1609.70
826.83	1669.09
827.00	1673.19
827.17	1652.71
827.34	1679.33
827.51	1658.85
827.69	1744.87
827.86	1654.76
828.03	1751.01
828.20	1683.43
828.37	1669.09
828.54	1728.49
828.71	1644.52
828.89	1867.75
829.06	1730.53
829.23	1800.16
829.40	1695.72
829.57	1703.91
829.74	1716.20
829.91	1660.90
830.09	1642.47
830.26	1783.78
830.43	1769.44
830.60	1738.73
830.77	1724.39
830.94	1689.57
831.11	1765.35
831.28	1714.15
831.46	1730.53
831.63	1669.09
831.80	1783.78
831.97	1650.66
832.14	1701.86
832.31	1681.38
832.48	1820.64
832.65	1728.49
832.82	1724.39
832.99	1703.91
833.17	1642.47
833.34	1796.07
833.51	1789.92
833.68	1519.59
833.85	1720.29
834.02	1574.89
834.19	1662.95
834.36	1648.61
834.53	1708.01
834.70	1787.88
834.87	1722.34
835.04	1689.57
835.22	1685.48
835.39	1734.63
835.56	1689.57
835.73	1703.91
835.90	1767.40
836.07	1689.57
836.24	1736.68
836.41	1628.14
836.58	1679.33
836.75	1785.83
836.92	1753.06
837.09	1708.01
837.26	1779.68
837.43	1751.01
837.60	1726.44
837.77	1746.92
837.94	1734.63
838.12	1742.82
838.29	1773.54
838.46	1644.52
838.63	1689.57
838.80	1812.45
838.97	1720.29
839.14	1724.39
839.31	1703.91
839.48	1740.77
839.65	1632.23
839.82	1755.11
839.99	1685.48
840.16	1769.44
840.33	1771.49
840.50	1720.29
840.67	1636.33
840.84	1523.69
841.01	1665.00
841.18	1695.72
841.35	1685.48
841.52	1761.25
841.69	1810.40
841.86	1724.39
842.03	1712.10
842.20	1804.26
842.37	1716.20
842.54	1699.81
842.71	1742.82
842.88	1667.05
843.05	1806.31
843.22	1722.34
843.39	1699.81
843.56	1699.81
843.73	1777.64
843.90	1730.53
844.07	1691.62
844.24	1771.49
844.41	1746.92
844.58	1724.39
844.75	1667.05
844.92	1822.69
845.09	1695.72
845.26	1660.90
845.43	1791.97
845.60	1683.43
845.77	1679.33
845.94	1710.05
846.10	1847.27
846.27	1599.46
846.44	1662.95
846.61	1685.48
846.78	1718.25
846.95	1728.49
847.12	1726.44
847.29	1607.66
847.46	1677.29
847.63	1740.77
847.80	1624.04
847.97	1685.48
848.14	1843.17
848.31	1658.85
848.48	1726.44
848.65	1751.01
848.82	1712.10
848.98	1830.88
849.15	1794.02
849.32	1751.01
849.49	1800.16
849.66	1658.85
849.83	1718.25
850.00	1679.33
850.17	1708.01
850.34	1693.67
850.51	1677.29
850.68	1699.81
850.85	1818.60
851.01	1601.51
851.18	1740.77
851.35	1665.00
851.52	1751.01
851.69	1734.63
851.86	1634.28
852.03	1665.00
852.20	1732.58
852.37	1712.10
852.53	1583.08
852.70	1708.01
852.87	1748.97
853.04	1751.01
853.21	1710.05
853.38	1679.33
853.55	1748.97
853.72	1789.92
853.89	1671.14
854.05	1656.81
854.22	1697.77
854.39	1671.14
854.56	1763.30
854.73	1736.68
854.90	1679.33
855.07	1689.57
855.23	1687.53
855.40	1656.81
855.57	1794.02
855.74	1613.80
855.91	1892.32
856.08	1701.86
856.25	1632.23
856.41	1685.48
856.58	1648.61
856.75	1677.29
856.92	1628.14
857.09	1708.01
857.26	1699.81
857.42	1671.14
857.59	1712.10
857.76	1671.14
857.93	1759.21
858.10	1714.15
858.27	1642.47
858.43	1716.20
858.60	1601.51
858.77	1656.81
858.94	1646.57
859.11	1751.01
859.27	1714.15
859.44	1648.61
859.61	1820.64
859.78	1755.11
859.95	1703.91
860.12	1720.29
860.28	1791.97
860.45	1798.12
860.62	1675.24
860.79	1740.77
860.95	1646.57
861.12	1585.13
861.29	1656.81
861.46	1636.33
861.63	1708.01
861.79	1761.25
861.96	1617.90
862.13	1705.96
862.30	1742.82
862.47	1675.24
862.63	1687.53
862.80	1771.49
862.97	1712.10
863.14	1777.64
863.30	1748.97
863.47	1687.53
863.64	1732.58
863.81	1681.38
863.97	1726.44
864.14	1726.44
864.31	1632.23
864.48	1753.06
864.65	1716.20
864.81	1802.21
864.98	1699.81
865.15	1763.30
865.32	1771.49
865.48	1820.64
865.65	1810.40
865.82	1710.05
865.98	1751.01
866.15	1863.65
866.32	1738.73
866.49	1615.85
866.65	1826.79
866.82	1609.70
866.99	1617.90
867.16	1615.85
867.32	1624.04
867.49	1667.05
867.66	1710.05
867.83	1648.61
867.99	1644.52
868.16	1673.19
868.33	1681.38
868.49	1775.59
868.66	1685.48
868.83	1796.07
868.99	1757.16
869.16	1753.06
869.33	1783.78
869.50	1775.59
869.66	1746.92
869.83	1736.68
870.00	1607.66
870.16	1726.44
870.33	1730.53
870.50	1732.58
870.66	1736.68
870.83	1806.31
871.00	1697.77
871.17	1755.11
871.33	1712.10
871.50	1710.05
871.67	1757.16
871.83	1630.18
872.00	1818.60
872.17	1656.81
872.33	1857.51
872.50	1800.16
872.67	1665.00
872.83	1660.90
873.00	1693.67
873.17	1687.53
873.33	1751.01
873.50	1658.85
873.67	1636.33
873.83	1632.23
874.00	1701.86
874.16	1689.57
874.33	1705.96
874.50	1691.62
874.66	1728.49
874.83	1699.81
875.00	1730.53
875.16	1796.07
875.33	1765.35
875.50	1658.85
875.66	1701.86
875.83	1716.20
875.99	1777.64
876.16	1640.42
876.33	1636.33
876.49	1673.19
876.66	1738.73
876.83	1771.49
876.99	1650.66
877.16	1775.59
877.32	1734.63
877.49	1722.34
877.66	1769.44
877.82	1853.41
877.99	1722.34
878.15	1808.36
878.32	1732.58
878.49	1759.21
878.65	1724.39
878.82	1757.16
878.98	1755.11
879.15	1837.03
879.32	1744.87
879.48	1740.77
879.65	1716.20
879.81	1730.53
879.98	1722.34
880.15	1714.15
880.31	1693.67
880.48	1646.57
880.64	1673.19
880.81	1697.77
880.97	1751.01
881.14	1794.02
881.31	1599.46
881.47	1787.88
881.64	1705.96
881.80	1617.90
881.97	1703.91
882.13	1800.16
882.30	1529.83
882.47	1695.72
882.63	1642.47
882.80	1667.05
882.96	1624.04
883.13	1908.71
883.29	1679.33
883.46	1703.91
883.62	1820.64
883.79	1693.67
883.95	1759.21
884.12	1685.48
884.29	1773.54
884.45	1779.68
884.62	1773.54
884.78	1652.71
884.95	1841.12
885.11	1636.33
885.28	1705.96
885.44	1689.57
885.61	1736.68
885.77	1808.36
885.94	1734.63
886.10	1650.66
886.27	1730.53
886.43	1777.64
886.60	1771.49
886.76	1738.73
886.93	1652.71
887.09	1671.14
887.26	1658.85
887.42	1636.33
887.59	1732.58
887.75	1853.41
887.92	1773.54
888.08	1769.44
888.25	1767.40
888.41	1771.49
888.58	1671.14
888.74	1658.85
888.91	1609.70
>>>>>End Processed Spectral Data<<<<<
