SpectraSuite Data File
++++++++++++++++++++++++++++++++++++
Date: Wed May 04 18:44:22 CEST 2016
User: root
Dark Spectrum Present: No
Reference Spectrum Present: No
Number of Sampled Component Spectra: 1
Spectrometers: USB4C02835
Integration Time (usec): 100000 (USB4C02835)
Spectra Averaged: 1 (USB4C02835)
Boxcar Smoothing: 0 (USB4C02835)
Correct for Electrical Dark: No (USB4C02835)
Strobe/Lamp Enabled: No (USB4C02835)
Correct for Detector Non-linearity: No (USB4C02835)
Correct for Stray Light: No (USB4C02835)
Number of Pixels in Processed Spectrum: 3648
>>>>>Begin Processed Spectral Data<<<<<
177.47	1501.16
177.69	1501.16
177.91	1501.16
178.13	1423.34
178.36	1503.21
178.58	1656.81
178.80	1718.25
179.02	1687.53
179.24	1710.05
179.46	1726.44
179.68	1701.86
179.90	1691.62
180.13	1665.00
180.35	1667.05
180.57	1691.62
180.79	1826.79
181.01	1650.66
181.23	1810.40
181.45	1783.78
181.67	1720.29
181.90	1779.68
182.12	1646.57
182.34	1656.81
182.56	1806.31
182.78	1697.77
183.00	1685.48
183.22	1794.02
183.44	1607.66
183.66	1857.51
183.89	1773.54
184.11	1722.34
184.33	1775.59
184.55	1814.50
184.77	1708.01
184.99	1658.85
185.21	1574.89
185.43	1828.84
185.65	1654.76
185.87	1658.85
186.10	1871.84
186.32	1830.88
186.54	1734.63
186.76	1740.77
186.98	1689.57
187.20	1705.96
187.42	1738.73
187.64	1642.47
187.86	1681.38
188.08	1781.73
188.30	1708.01
188.52	1720.29
188.75	1734.63
188.97	1785.83
189.19	1669.09
189.41	1703.91
189.63	1718.25
189.85	1619.94
190.07	1583.08
190.29	1701.86
190.51	1757.16
190.73	1599.46
190.95	1748.97
191.17	1746.92
191.39	1548.26
191.61	1662.95
191.84	1662.95
192.06	1724.39
192.28	1665.00
192.50	1855.46
192.72	1712.10
192.94	1742.82
193.16	1748.97
193.38	1777.64
193.60	1683.43
193.82	1689.57
194.04	1785.83
194.26	1669.09
194.48	1701.86
194.70	1624.04
194.92	1693.67
195.14	1693.67
195.36	1705.96
195.58	1746.92
195.80	1773.54
196.02	1660.90
196.24	1734.63
196.46	1742.82
196.69	1685.48
196.91	1845.22
197.13	1728.49
197.35	1603.56
197.57	1783.78
197.79	1697.77
198.01	1677.29
198.23	1773.54
198.45	1687.53
198.67	1642.47
198.89	1746.92
199.11	1689.57
199.33	1687.53
199.55	1560.55
199.77	1828.84
199.99	1765.35
200.21	1642.47
200.43	1712.10
200.65	1705.96
200.87	1597.42
201.09	1689.57
201.31	1695.72
201.53	1753.06
201.75	1667.05
201.97	1701.86
202.19	1738.73
202.41	1683.43
202.63	1841.12
202.85	1773.54
203.07	1671.14
203.29	1617.90
203.51	1640.42
203.73	1687.53
203.95	1894.37
204.17	1730.53
204.39	1746.92
204.61	1734.63
204.83	1681.38
205.05	1708.01
205.27	1787.88
205.49	1779.68
205.71	1689.57
205.93	1652.71
206.15	1675.24
206.37	1742.82
206.59	1662.95
206.81	1685.48
207.03	1628.14
207.25	1636.33
207.47	1769.44
207.69	1658.85
207.91	1751.01
208.13	1796.07
208.34	1630.18
208.56	1650.66
208.78	1677.29
209.00	1726.44
209.22	1724.39
209.44	1712.10
209.66	1722.34
209.88	1687.53
210.10	1689.57
210.32	1642.47
210.54	1744.87
210.76	1697.77
210.98	1695.72
211.20	1650.66
211.42	1732.58
211.64	1742.82
211.86	1755.11
212.08	1791.97
212.30	1648.61
212.52	1759.21
212.74	1736.68
212.96	1718.25
213.17	1798.12
213.39	1755.11
213.61	1798.12
213.83	1703.91
214.05	1708.01
214.27	1818.60
214.49	1609.70
214.71	1681.38
214.93	1787.88
215.15	1691.62
215.37	1806.31
215.59	1748.97
215.81	1710.05
216.03	1746.92
216.24	1712.10
216.46	1685.48
216.68	1726.44
216.90	1703.91
217.12	1781.73
217.34	1712.10
217.56	1714.15
217.78	1732.58
218.00	1705.96
218.22	1783.78
218.44	1734.63
218.66	1681.38
218.87	1794.02
219.09	1703.91
219.31	1675.24
219.53	1673.19
219.75	1775.59
219.97	1677.29
220.19	1767.40
220.41	1703.91
220.63	1738.73
220.85	1738.73
221.06	1665.00
221.28	1791.97
221.50	1675.24
221.72	1791.97
221.94	1759.21
222.16	1763.30
222.38	1710.05
222.60	1783.78
222.82	1740.77
223.03	1851.36
223.25	1695.72
223.47	1665.00
223.69	1845.22
223.91	1710.05
224.13	1705.96
224.35	1665.00
224.57	1753.06
224.78	1767.40
225.00	1679.33
225.22	1699.81
225.44	1667.05
225.66	1736.68
225.88	1673.19
226.10	1732.58
226.32	1730.53
226.53	1800.16
226.75	1761.25
226.97	1630.18
227.19	1705.96
227.41	1718.25
227.63	1646.57
227.85	1660.90
228.06	1673.19
228.28	1761.25
228.50	1820.64
228.72	1619.94
228.94	1710.05
229.16	1667.05
229.37	1642.47
229.59	1648.61
229.81	1771.49
230.03	1691.62
230.25	1636.33
230.47	1658.85
230.69	1716.20
230.90	1740.77
231.12	1693.67
231.34	1720.29
231.56	1791.97
231.78	1572.84
232.00	1777.64
232.21	1621.99
232.43	1697.77
232.65	1638.38
232.87	1648.61
233.09	1681.38
233.30	1728.49
233.52	1839.08
233.74	1779.68
233.96	1701.86
234.18	1671.14
234.40	1722.34
234.61	1837.03
234.83	1613.80
235.05	1642.47
235.27	1814.50
235.49	1779.68
235.70	1693.67
235.92	1787.88
236.14	1695.72
236.36	1826.79
236.58	1677.29
236.79	1740.77
237.01	1677.29
237.23	1697.77
237.45	1820.64
237.67	1724.39
237.88	1697.77
238.10	1759.21
238.32	1640.42
238.54	1716.20
238.76	1660.90
238.97	1615.85
239.19	1691.62
239.41	1716.20
239.63	1722.34
239.85	1738.73
240.06	1728.49
240.28	1685.48
240.50	1798.12
240.72	1619.94
240.93	1665.00
241.15	1796.07
241.37	1791.97
241.59	1781.73
241.81	1687.53
242.02	1714.15
242.24	1771.49
242.46	1746.92
242.68	1673.19
242.89	1716.20
243.11	1699.81
243.33	1734.63
243.55	1748.97
243.76	1601.51
243.98	1640.42
244.20	1736.68
244.42	1710.05
244.64	1720.29
244.85	1564.65
245.07	1656.81
245.29	1769.44
245.51	1736.68
245.72	1783.78
245.94	1773.54
246.16	1677.29
246.38	1755.11
246.59	1681.38
246.81	1626.09
247.03	1738.73
247.24	1640.42
247.46	1673.19
247.68	1748.97
247.90	1683.43
248.11	1638.38
248.33	1720.29
248.55	1658.85
248.77	1673.19
248.98	1744.87
249.20	1818.60
249.42	1742.82
249.64	1656.81
249.85	1691.62
250.07	1677.29
250.29	1755.11
250.50	1761.25
250.72	1544.17
250.94	1798.12
251.16	1849.32
251.37	1722.34
251.59	1714.15
251.81	1701.86
252.02	1785.83
252.24	1722.34
252.46	1798.12
252.68	1646.57
252.89	1665.00
253.11	1599.46
253.33	1777.64
253.54	1746.92
253.76	1658.85
253.98	1716.20
254.20	1687.53
254.41	1587.18
254.63	1705.96
254.85	1665.00
255.06	1611.75
255.28	1701.86
255.50	1703.91
255.71	1656.81
255.93	1677.29
256.15	1763.30
256.36	1738.73
256.58	1685.48
256.80	1681.38
257.02	1646.57
257.23	1742.82
257.45	1718.25
257.67	1820.64
257.88	1626.09
258.10	1796.07
258.32	1689.57
258.53	1701.86
258.75	1810.40
258.97	1679.33
259.18	1677.29
259.40	1673.19
259.62	1798.12
259.83	1789.92
260.05	1767.40
260.27	1947.62
260.48	1751.01
260.70	1689.57
260.92	1615.85
261.13	1697.77
261.35	1703.91
261.57	1699.81
261.78	1646.57
262.00	1687.53
262.22	1712.10
262.43	1615.85
262.65	1699.81
262.86	1681.38
263.08	1898.47
263.30	1726.44
263.51	1599.46
263.73	1695.72
263.95	1753.06
264.16	1560.55
264.38	1673.19
264.60	1652.71
264.81	1705.96
265.03	1761.25
265.25	1722.34
265.46	1734.63
265.68	1777.64
265.89	1775.59
266.11	1593.32
266.33	1730.53
266.54	1759.21
266.76	1765.35
266.98	1734.63
267.19	1814.50
267.41	1730.53
267.62	1701.86
267.84	1640.42
268.06	1742.82
268.27	1763.30
268.49	1789.92
268.70	1796.07
268.92	1685.48
269.14	1636.33
269.35	1638.38
269.57	1677.29
269.79	1789.92
270.00	1615.85
270.22	1759.21
270.43	1718.25
270.65	1564.65
270.87	1705.96
271.08	1677.29
271.30	1777.64
271.51	1658.85
271.73	1767.40
271.95	1832.93
272.16	1687.53
272.38	1714.15
272.59	1542.12
272.81	1703.91
273.02	1742.82
273.24	1714.15
273.46	1767.40
273.67	1642.47
273.89	1665.00
274.10	1658.85
274.32	1740.77
274.54	1708.01
274.75	1701.86
274.97	1730.53
275.18	1746.92
275.40	1699.81
275.61	1669.09
275.83	1767.40
276.05	1658.85
276.26	1634.28
276.48	1744.87
276.69	1650.66
276.91	1669.09
277.12	1818.60
277.34	1746.92
277.55	1748.97
277.77	1697.77
277.99	1763.30
278.20	1640.42
278.42	1644.52
278.63	1652.71
278.85	1621.99
279.06	1667.05
279.28	1705.96
279.49	1751.01
279.71	1689.57
279.93	1763.30
280.14	1796.07
280.36	1675.24
280.57	1763.30
280.79	1744.87
281.00	1718.25
281.22	1677.29
281.43	1767.40
281.65	1617.90
281.86	1613.80
282.08	1728.49
282.29	1773.54
282.51	1736.68
282.73	1646.57
282.94	1658.85
283.16	1718.25
283.37	1765.35
283.59	1697.77
283.80	1738.73
284.02	1662.95
284.23	1794.02
284.45	1681.38
284.66	1701.86
284.88	1667.05
285.09	1669.09
285.31	1738.73
285.52	1775.59
285.74	1650.66
285.95	1716.20
286.17	1769.44
286.38	1767.40
286.60	1650.66
286.81	1671.14
287.03	1746.92
287.24	1769.44
287.46	1740.77
287.67	1697.77
287.89	1802.21
288.10	1656.81
288.32	1705.96
288.53	1847.27
288.75	1734.63
288.96	1742.82
289.18	1636.33
289.39	1677.29
289.61	1699.81
289.82	1841.12
290.04	1843.17
290.25	1619.94
290.47	1691.62
290.68	1650.66
290.90	1849.32
291.11	1658.85
291.33	1740.77
291.54	1640.42
291.76	1689.57
291.97	1738.73
292.18	1742.82
292.40	1665.00
292.61	1685.48
292.83	1867.75
293.04	1771.49
293.26	1699.81
293.47	1679.33
293.69	1636.33
293.90	1708.01
294.12	1783.78
294.33	1705.96
294.55	1771.49
294.76	1775.59
294.97	1738.73
295.19	1877.99
295.40	1689.57
295.62	1765.35
295.83	1814.50
296.05	1626.09
296.26	1701.86
296.48	1722.34
296.69	1791.97
296.90	1621.99
297.12	1777.64
297.33	1710.05
297.55	1658.85
297.76	1718.25
297.98	1757.16
298.19	1791.97
298.41	1679.33
298.62	1658.85
298.83	1755.11
299.05	1732.58
299.26	1634.28
299.48	1683.43
299.69	1710.05
299.90	1681.38
300.12	1638.38
300.33	1771.49
300.55	1681.38
300.76	1787.88
300.98	1630.18
301.19	1742.82
301.40	1658.85
301.62	1656.81
301.83	1746.92
302.05	1773.54
302.26	1669.09
302.47	1621.99
302.69	1669.09
302.90	1767.40
303.12	1548.26
303.33	1744.87
303.54	1845.22
303.76	1718.25
303.97	1708.01
304.19	1775.59
304.40	1742.82
304.61	1701.86
304.83	1851.36
305.04	1746.92
305.26	1693.67
305.47	1650.66
305.68	1705.96
305.90	1740.77
306.11	1744.87
306.33	1705.96
306.54	1722.34
306.75	1693.67
306.97	1681.38
307.18	1617.90
307.39	1693.67
307.61	1800.16
307.82	1710.05
308.04	1708.01
308.25	1681.38
308.46	1748.97
308.68	1726.44
308.89	1714.15
309.10	1798.12
309.32	1798.12
309.53	1669.09
309.74	1630.18
309.96	1675.24
310.17	1812.45
310.39	1693.67
310.60	1765.35
310.81	1671.14
311.03	1628.14
311.24	1767.40
311.45	1714.15
311.67	1830.88
311.88	1703.91
312.09	1701.86
312.31	1701.86
312.52	1761.25
312.73	1662.95
312.95	1617.90
313.16	1687.53
313.37	1751.01
313.59	1767.40
313.80	1732.58
314.01	1796.07
314.23	1644.52
314.44	1646.57
314.65	1683.43
314.87	1683.43
315.08	1673.19
315.29	1654.76
315.51	1636.33
315.72	1566.70
315.93	1779.68
316.15	1724.39
316.36	1656.81
316.57	1730.53
316.79	1738.73
317.00	1689.57
317.21	1753.06
317.43	1685.48
317.64	1626.09
317.85	1660.90
318.07	1712.10
318.28	1841.12
318.49	1824.74
318.70	1992.67
318.92	1859.56
319.13	1861.60
319.34	1890.28
319.56	1814.50
319.77	1826.79
319.98	1837.03
320.20	1828.84
320.41	1837.03
320.62	1769.44
320.83	1755.11
321.05	1847.27
321.26	1816.55
321.47	1726.44
321.69	1699.81
321.90	1656.81
322.11	1619.94
322.32	1814.50
322.54	1888.23
322.75	1656.81
322.96	1796.07
323.18	1708.01
323.39	1564.65
323.60	1644.52
323.81	1767.40
324.03	1697.77
324.24	1738.73
324.45	1701.86
324.66	1662.95
324.88	1824.74
325.09	1812.45
325.30	1800.16
325.52	1708.01
325.73	1740.77
325.94	1634.28
326.15	1644.52
326.37	1708.01
326.58	1732.58
326.79	1755.11
327.00	1683.43
327.22	1744.87
327.43	1724.39
327.64	1660.90
327.85	1757.16
328.07	1722.34
328.28	1822.69
328.49	1693.67
328.70	1759.21
328.92	1708.01
329.13	1785.83
329.34	1708.01
329.55	1851.36
329.76	1714.15
329.98	1701.86
330.19	1746.92
330.40	1718.25
330.61	1736.68
330.83	1779.68
331.04	1726.44
331.25	1683.43
331.46	1632.23
331.68	1767.40
331.89	1794.02
332.10	1730.53
332.31	1681.38
332.52	1603.56
332.74	1781.73
332.95	1628.14
333.16	1724.39
333.37	1734.63
333.58	1677.29
333.80	1730.53
334.01	1613.80
334.22	1654.76
334.43	1685.48
334.64	1701.86
334.86	1685.48
335.07	1714.15
335.28	1751.01
335.49	1646.57
335.70	1738.73
335.92	1662.95
336.13	1865.70
336.34	1771.49
336.55	1732.58
336.76	1626.09
336.98	1568.74
337.19	1699.81
337.40	1806.31
337.61	1853.41
337.82	1712.10
338.04	1775.59
338.25	1574.89
338.46	1720.29
338.67	1687.53
338.88	1642.47
339.09	1667.05
339.31	1652.71
339.52	1583.08
339.73	1667.05
339.94	1757.16
340.15	1804.26
340.36	1755.11
340.58	1722.34
340.79	1730.53
341.00	1742.82
341.21	1648.61
341.42	1824.74
341.63	1683.43
341.85	1701.86
342.06	1699.81
342.27	1624.04
342.48	1753.06
342.69	1673.19
342.90	1691.62
343.12	1802.21
343.33	1679.33
343.54	1771.49
343.75	1828.84
343.96	1611.75
344.17	1714.15
344.38	1736.68
344.60	1685.48
344.81	1578.98
345.02	1753.06
345.23	1767.40
345.44	1853.41
345.65	1763.30
345.86	1701.86
346.07	1765.35
346.29	1632.23
346.50	1736.68
346.71	1771.49
346.92	1767.40
347.13	1853.41
347.34	1705.96
347.55	1699.81
347.76	1685.48
347.98	1650.66
348.19	1716.20
348.40	1767.40
348.61	1646.57
348.82	1783.78
349.03	1679.33
349.24	1724.39
349.45	1851.36
349.66	1587.18
349.88	1712.10
350.09	1611.75
350.30	1800.16
350.51	1687.53
350.72	1728.49
350.93	1730.53
351.14	1658.85
351.35	1718.25
351.56	1652.71
351.77	1722.34
351.99	1826.79
352.20	1755.11
352.41	1732.58
352.62	1570.79
352.83	1679.33
353.04	1673.19
353.25	1679.33
353.46	1800.16
353.67	1775.59
353.88	1648.61
354.09	1716.20
354.30	1665.00
354.52	1779.68
354.73	1679.33
354.94	1675.24
355.15	1736.68
355.36	1787.88
355.57	1611.75
355.78	1763.30
355.99	1642.47
356.20	1710.05
356.41	1861.60
356.62	1763.30
356.83	1734.63
357.04	1822.69
357.25	1613.80
357.46	1636.33
357.68	1652.71
357.89	1636.33
358.10	1771.49
358.31	1705.96
358.52	1701.86
358.73	1626.09
358.94	1644.52
359.15	1705.96
359.36	1822.69
359.57	1775.59
359.78	1669.09
359.99	1703.91
360.20	1677.29
360.41	1662.95
360.62	1716.20
360.83	1669.09
361.04	1771.49
361.25	1667.05
361.46	1832.93
361.67	1705.96
361.88	1773.54
362.09	1802.21
362.30	1687.53
362.51	1673.19
362.72	1765.35
362.93	1806.31
363.14	1724.39
363.35	1744.87
363.56	1632.23
363.78	1763.30
363.99	1716.20
364.20	1712.10
364.41	1796.07
364.62	1814.50
364.83	1726.44
365.04	1689.57
365.25	1775.59
365.46	1730.53
365.67	1667.05
365.88	1740.77
366.09	1665.00
366.30	1726.44
366.51	1685.48
366.72	1611.75
366.93	1746.92
367.14	1722.34
367.35	1820.64
367.56	1755.11
367.77	1822.69
367.98	1683.43
368.18	1660.90
368.39	1718.25
368.60	1656.81
368.81	1712.10
369.02	1730.53
369.23	1673.19
369.44	1619.94
369.65	1681.38
369.86	1708.01
370.07	1744.87
370.28	1679.33
370.49	1761.25
370.70	1730.53
370.91	1685.48
371.12	1761.25
371.33	1757.16
371.54	1703.91
371.75	1800.16
371.96	1609.70
372.17	1761.25
372.38	1730.53
372.59	1759.21
372.80	1718.25
373.01	1716.20
373.22	1667.05
373.43	1660.90
373.64	1638.38
373.85	1812.45
374.06	1812.45
374.26	1753.06
374.47	1738.73
374.68	1712.10
374.89	1759.21
375.10	1644.52
375.31	1763.30
375.52	1791.97
375.73	1734.63
375.94	1638.38
376.15	1779.68
376.36	1644.52
376.57	1691.62
376.78	1632.23
376.99	1746.92
377.20	1701.86
377.40	1714.15
377.61	1859.56
377.82	1703.91
378.03	1751.01
378.24	1746.92
378.45	1720.29
378.66	1746.92
378.87	1685.48
379.08	1603.56
379.29	1560.55
379.50	1746.92
379.71	1718.25
379.91	1669.09
380.12	1722.34
380.33	1744.87
380.54	1669.09
380.75	1714.15
380.96	1687.53
381.17	1794.02
381.38	1738.73
381.59	1773.54
381.80	1824.74
382.00	1875.94
382.21	1759.21
382.42	1894.37
382.63	1900.52
382.84	1785.83
383.05	1800.16
383.26	1865.70
383.47	1773.54
383.68	1796.07
383.88	1832.93
384.09	1771.49
384.30	1828.84
384.51	1730.53
384.72	1681.38
384.93	1652.71
385.14	1689.57
385.35	1732.58
385.55	1621.99
385.76	1834.98
385.97	1812.45
386.18	1638.38
386.39	1726.44
386.60	1683.43
386.81	1699.81
387.02	1646.57
387.22	1673.19
387.43	1738.73
387.64	1800.16
387.85	1896.42
388.06	2238.43
388.27	4712.38
388.48	9135.99
388.68	11802.44
388.89	13743.92
389.10	14348.07
389.31	12031.82
389.52	9752.43
389.73	8580.99
389.93	8079.24
390.14	7284.62
390.35	6586.27
390.56	5879.72
390.77	4976.56
390.98	3964.87
391.18	3106.77
391.39	2293.72
391.60	1984.48
391.81	1904.61
392.02	1734.63
392.23	1814.50
392.43	1710.05
392.64	1783.78
392.85	1755.11
393.06	1710.05
393.27	1816.55
393.47	1736.68
393.68	1722.34
393.89	1691.62
394.10	1748.97
394.31	1736.68
394.52	1701.86
394.72	1636.33
394.93	1771.49
395.14	1761.25
395.35	1685.48
395.56	1669.09
395.76	1738.73
395.97	1837.03
396.18	1906.66
396.39	1843.17
396.60	2109.41
396.80	1945.57
397.01	1882.08
397.22	1802.21
397.43	1802.21
397.64	1763.30
397.84	1814.50
398.05	1853.41
398.26	1781.73
398.47	1730.53
398.67	1744.87
398.88	1730.53
399.09	1658.85
399.30	1697.77
399.51	1789.92
399.71	1626.09
399.92	1691.62
400.13	1808.36
400.34	1697.77
400.54	1611.75
400.75	1787.88
400.96	1759.21
401.17	1843.17
401.37	1779.68
401.58	1755.11
401.79	1708.01
402.00	1839.08
402.21	1980.39
402.41	2101.22
402.62	2109.41
402.83	2172.89
403.04	2140.13
403.24	2123.74
403.45	1937.38
403.66	1894.37
403.87	1935.33
404.07	1968.10
404.28	1935.33
404.49	1931.23
404.70	1828.84
404.90	1830.88
405.11	1734.63
405.32	1779.68
405.52	1603.56
405.73	1708.01
405.94	1673.19
406.15	1699.81
406.35	1728.49
406.56	1771.49
406.77	1650.66
406.98	1771.49
407.18	1724.39
407.39	1798.12
407.60	1652.71
407.80	1828.84
408.01	1687.53
408.22	1732.58
408.43	1650.66
408.63	1697.77
408.84	1851.36
409.05	1761.25
409.25	1683.43
409.46	1708.01
409.67	1697.77
409.88	1652.71
410.08	1691.62
410.29	1767.40
410.50	1720.29
410.70	1677.29
410.91	1662.95
411.12	1720.29
411.32	1699.81
411.53	1716.20
411.74	1820.64
411.95	1875.94
412.15	1746.92
412.36	1759.21
412.57	1832.93
412.77	1802.21
412.98	1712.10
413.19	1751.01
413.39	1775.59
413.60	1744.87
413.81	1814.50
414.01	1697.77
414.22	1736.68
414.43	1789.92
414.63	1685.48
414.84	1767.40
415.05	1681.38
415.25	1669.09
415.46	1785.83
415.67	1697.77
415.87	1671.14
416.08	1656.81
416.29	1658.85
416.49	1820.64
416.70	1658.85
416.91	1615.85
417.11	1611.75
417.32	1775.59
417.53	1794.02
417.73	1794.02
417.94	1730.53
418.15	1687.53
418.35	1697.77
418.56	1673.19
418.77	1787.88
418.97	1718.25
419.18	1665.00
419.38	1609.70
419.59	1673.19
419.80	1796.07
420.00	1724.39
420.21	1720.29
420.42	1748.97
420.62	1726.44
420.83	1681.38
421.04	1712.10
421.24	1679.33
421.45	1753.06
421.65	1705.96
421.86	1687.53
422.07	1742.82
422.27	1720.29
422.48	1726.44
422.69	1677.29
422.89	1736.68
423.10	1683.43
423.30	1667.05
423.51	1753.06
423.72	1712.10
423.92	1765.35
424.13	1619.94
424.33	1724.39
424.54	1863.65
424.75	1734.63
424.95	1796.07
425.16	1757.16
425.36	1712.10
425.57	1693.67
425.78	1708.01
425.98	1853.41
426.19	1662.95
426.39	1757.16
426.60	1734.63
426.81	1820.64
427.01	1716.20
427.22	1716.20
427.42	1644.52
427.63	1710.05
427.83	1800.16
428.04	1814.50
428.25	1734.63
428.45	1748.97
428.66	1748.97
428.86	1673.19
429.07	1732.58
429.28	1720.29
429.48	1759.21
429.69	1718.25
429.89	1718.25
430.10	1665.00
430.30	1787.88
430.51	1730.53
430.71	1748.97
430.92	1757.16
431.13	1742.82
431.33	1726.44
431.54	1689.57
431.74	1861.60
431.95	1800.16
432.15	1619.94
432.36	1701.86
432.56	1830.88
432.77	1877.99
432.98	1828.84
433.18	1716.20
433.39	1705.96
433.59	1644.52
433.80	1804.26
434.00	1875.94
434.21	1652.71
434.41	1695.72
434.62	1800.16
434.82	1685.48
435.03	1648.61
435.23	1714.15
435.44	1605.61
435.64	1722.34
435.85	1730.53
436.06	1761.25
436.26	1648.61
436.47	1730.53
436.67	1718.25
436.88	1716.20
437.08	1789.92
437.29	1796.07
437.49	1736.68
437.70	1767.40
437.90	1673.19
438.11	1970.15
438.31	1779.68
438.52	1894.37
438.72	1955.81
438.93	1996.77
439.13	1802.21
439.34	1920.99
439.54	1845.22
439.75	1818.60
439.95	1800.16
440.16	1732.58
440.36	1716.20
440.57	1753.06
440.77	1755.11
440.98	1767.40
441.18	1796.07
441.39	1697.77
441.59	1701.86
441.80	1886.18
442.00	1832.93
442.21	1826.79
442.41	1660.90
442.62	1791.97
442.82	1718.25
443.02	1703.91
443.23	1738.73
443.43	1728.49
443.64	1798.12
443.84	1705.96
444.05	1851.36
444.25	1775.59
444.46	1718.25
444.66	1732.58
444.87	1705.96
445.07	1648.61
445.28	1765.35
445.48	1863.65
445.69	1738.73
445.89	1824.74
446.09	1757.16
446.30	1943.52
446.50	2668.50
446.71	4153.28
446.91	5177.26
447.12	5750.70
447.32	6084.52
447.53	5207.98
447.73	4425.66
447.93	3950.53
448.14	3721.16
448.34	3377.10
448.55	3229.65
448.75	3143.63
448.96	2936.79
449.16	2619.35
449.36	2519.00
449.57	2195.42
449.77	1961.95
449.98	1798.12
450.18	1810.40
450.39	1875.94
450.59	1877.99
450.79	1779.68
451.00	1677.29
451.20	1730.53
451.41	1767.40
451.61	1730.53
451.81	1771.49
452.02	1771.49
452.22	1693.67
452.43	1689.57
452.63	1724.39
452.84	1761.25
453.04	1724.39
453.24	1720.29
453.45	1681.38
453.65	1734.63
453.86	1818.60
454.06	1771.49
454.26	1720.29
454.47	1757.16
454.67	1851.36
454.87	1755.11
455.08	1699.81
455.28	1869.80
455.49	1753.06
455.69	1703.91
455.89	1896.42
456.10	1816.55
456.30	1757.16
456.51	1720.29
456.71	1802.21
456.91	1812.45
457.12	1718.25
457.32	1675.24
457.52	1669.09
457.73	1656.81
457.93	1789.92
458.14	1687.53
458.34	1626.09
458.54	1765.35
458.75	1740.77
458.95	1804.26
459.15	1726.44
459.36	1828.84
459.56	1804.26
459.76	1851.36
459.97	1710.05
460.17	1681.38
460.37	1824.74
460.58	1728.49
460.78	1771.49
460.99	1695.72
461.19	1726.44
461.39	1693.67
461.60	1708.01
461.80	1796.07
462.00	1781.73
462.21	1703.91
462.41	1691.62
462.61	1626.09
462.82	1648.61
463.02	1779.68
463.22	1779.68
463.43	1794.02
463.63	1720.29
463.83	1785.83
464.04	1718.25
464.24	1681.38
464.44	1574.89
464.64	1779.68
464.85	1791.97
465.05	1787.88
465.25	1757.16
465.46	1665.00
465.66	1812.45
465.86	1687.53
466.07	1703.91
466.27	1787.88
466.47	1695.72
466.68	1669.09
466.88	1791.97
467.08	1806.31
467.29	1732.58
467.49	1843.17
467.69	1777.64
467.89	1710.05
468.10	1789.92
468.30	1724.39
468.50	1841.12
468.71	1812.45
468.91	1687.53
469.11	1826.79
469.31	1673.19
469.52	1689.57
469.72	1742.82
469.92	1763.30
470.13	1791.97
470.33	1710.05
470.53	1810.40
470.73	2111.46
470.94	2562.01
471.14	2584.54
471.34	2936.79
471.54	2877.40
471.75	2559.96
471.95	2363.36
472.15	2232.29
472.36	2273.25
472.56	2193.37
472.76	2082.78
472.96	2111.46
473.17	2066.40
473.37	2011.11
473.57	1925.09
473.77	1859.56
473.98	1710.05
474.18	1734.63
474.38	1935.33
474.58	1695.72
474.79	1751.01
474.99	1787.88
475.19	1804.26
475.39	1722.34
475.60	1824.74
475.80	1730.53
476.00	1773.54
476.20	1726.44
476.41	1714.15
476.61	1882.08
476.81	1710.05
477.01	1710.05
477.21	1861.60
477.42	1855.46
477.62	1689.57
477.82	1794.02
478.02	1669.09
478.23	1765.35
478.43	1730.53
478.63	1599.46
478.83	1738.73
479.03	1728.49
479.24	1773.54
479.44	1818.60
479.64	1648.61
479.84	1619.94
480.04	1708.01
480.25	1767.40
480.45	1705.96
480.65	1767.40
480.85	1839.08
481.06	1763.30
481.26	1691.62
481.46	1722.34
481.66	1853.41
481.86	1685.48
482.06	1832.93
482.27	1730.53
482.47	1705.96
482.67	1685.48
482.87	1652.71
483.07	1701.86
483.28	1685.48
483.48	1615.85
483.68	1691.62
483.88	1708.01
484.08	1570.79
484.29	1685.48
484.49	1779.68
484.69	1689.57
484.89	1806.31
485.09	1767.40
485.29	1812.45
485.50	1736.68
485.70	1736.68
485.90	1775.59
486.10	1712.10
486.30	1787.88
486.50	1763.30
486.71	1775.59
486.91	1767.40
487.11	1802.21
487.31	1667.05
487.51	1753.06
487.71	1662.95
487.91	1769.44
488.12	1648.61
488.32	1601.51
488.52	1689.57
488.72	1621.99
488.92	1619.94
489.12	1804.26
489.32	1888.23
489.53	1722.34
489.73	1679.33
489.93	1824.74
490.13	1691.62
490.33	1685.48
490.53	1734.63
490.73	1812.45
490.94	1597.42
491.14	1820.64
491.34	1773.54
491.54	2045.92
491.74	2678.74
491.94	3258.32
492.14	3471.31
492.34	3547.08
492.54	3301.33
492.75	2695.13
492.95	2586.58
493.15	2498.52
493.35	2312.16
493.55	2236.38
493.75	2250.72
493.95	2211.81
494.15	2127.84
494.35	1974.24
494.56	1947.62
494.76	1822.69
494.96	1802.21
495.16	1779.68
495.36	1771.49
495.56	1804.26
495.76	1814.50
495.96	1775.59
496.16	1710.05
496.36	1873.89
496.56	1734.63
496.77	1773.54
496.97	1683.43
497.17	1775.59
497.37	1650.66
497.57	1722.34
497.77	1691.62
497.97	1705.96
498.17	1669.09
498.37	1708.01
498.57	1757.16
498.77	1712.10
498.97	1875.94
499.17	1775.59
499.38	1763.30
499.58	1724.39
499.78	1796.07
499.98	1845.22
500.18	1712.10
500.38	1714.15
500.58	1920.99
500.78	2484.19
500.98	4710.33
501.18	6580.12
501.38	8152.96
501.58	9183.09
501.78	9025.40
501.98	6907.80
502.18	5849.00
502.38	5021.62
502.58	4646.84
502.78	4087.75
502.98	3930.05
503.18	3741.64
503.38	3565.51
503.59	3100.62
503.79	2901.97
503.99	2658.26
504.19	2430.94
504.39	2314.20
504.59	2342.88
504.79	2279.39
504.99	2303.96
505.19	2050.02
505.39	1984.48
505.59	2047.97
505.79	1966.05
505.99	1845.22
506.19	1859.56
506.39	1994.72
506.59	1699.81
506.79	1783.78
506.99	1814.50
507.19	1755.11
507.39	1812.45
507.59	1744.87
507.79	1744.87
507.99	1710.05
508.19	1757.16
508.39	1632.23
508.59	1718.25
508.79	1781.73
508.99	1880.04
509.19	1738.73
509.39	1740.77
509.59	1732.58
509.79	1742.82
509.99	1703.91
510.19	1779.68
510.39	1757.16
510.59	1775.59
510.79	1705.96
510.99	1673.19
511.19	1716.20
511.39	1812.45
511.59	1789.92
511.79	1800.16
511.99	1736.68
512.19	1808.36
512.38	1767.40
512.58	1662.95
512.78	1794.02
512.98	1845.22
513.18	1796.07
513.38	1642.47
513.58	1820.64
513.78	1712.10
513.98	1738.73
514.18	1681.38
514.38	1712.10
514.58	1691.62
514.78	1738.73
514.98	1730.53
515.18	1779.68
515.38	1656.81
515.58	1859.56
515.78	1669.09
515.98	1722.34
516.18	1748.97
516.38	1765.35
516.57	1681.38
516.77	1779.68
516.97	1765.35
517.17	1624.04
517.37	1671.14
517.57	1726.44
517.77	1693.67
517.97	1617.90
518.17	1765.35
518.37	1673.19
518.57	1710.05
518.77	1767.40
518.97	1775.59
519.16	1683.43
519.36	1802.21
519.56	1644.52
519.76	1726.44
519.96	1789.92
520.16	1773.54
520.36	1705.96
520.56	1796.07
520.76	1714.15
520.96	1767.40
521.16	1806.31
521.35	1738.73
521.55	1929.19
521.75	1722.34
521.95	1757.16
522.15	1689.57
522.35	1654.76
522.55	1738.73
522.75	1771.49
522.95	1742.82
523.14	1660.90
523.34	1785.83
523.54	1687.53
523.74	1824.74
523.94	1712.10
524.14	1652.71
524.34	1828.84
524.54	1832.93
524.73	1714.15
524.93	1759.21
525.13	1755.11
525.33	1642.47
525.53	1837.03
525.73	1783.78
525.93	1730.53
526.13	1638.38
526.32	1724.39
526.52	1820.64
526.72	1808.36
526.92	1701.86
527.12	1714.15
527.32	1656.81
527.52	1738.73
527.71	1798.12
527.91	1773.54
528.11	1716.20
528.31	1779.68
528.51	1615.85
528.71	1757.16
528.90	1771.49
529.10	1796.07
529.30	1814.50
529.50	1568.74
529.70	1695.72
529.90	1697.77
530.09	1775.59
530.29	1638.38
530.49	1675.24
530.69	1861.60
530.89	1677.29
531.09	1781.73
531.28	1685.48
531.48	1761.25
531.68	1783.78
531.88	1775.59
532.08	1748.97
532.28	1675.24
532.47	1857.51
532.67	1843.17
532.87	1738.73
533.07	1736.68
533.27	1654.76
533.46	1830.88
533.66	1794.02
533.86	1665.00
534.06	1800.16
534.26	1781.73
534.45	1693.67
534.65	1927.14
534.85	1771.49
535.05	1757.16
535.25	1822.69
535.44	1726.44
535.64	1738.73
535.84	1677.29
536.04	1710.05
536.24	1669.09
536.43	1685.48
536.63	1804.26
536.83	1695.72
537.03	1734.63
537.22	1681.38
537.42	1730.53
537.62	1728.49
537.82	1658.85
538.02	1837.03
538.21	1810.40
538.41	1853.41
538.61	1779.68
538.81	1734.63
539.00	1841.12
539.20	1644.52
539.40	1640.42
539.60	1841.12
539.79	1746.92
539.99	1794.02
540.19	1716.20
540.39	1730.53
540.58	1746.92
540.78	1759.21
540.98	1714.15
541.18	1734.63
541.37	1791.97
541.57	1781.73
541.77	1810.40
541.97	1728.49
542.16	1599.46
542.36	1740.77
542.56	1800.16
542.76	1880.04
542.95	1771.49
543.15	1761.25
543.35	1714.15
543.54	1771.49
543.74	1744.87
543.94	1812.45
544.14	1679.33
544.33	1851.36
544.53	1730.53
544.73	1687.53
544.93	1703.91
545.12	1738.73
545.32	1757.16
545.52	1691.62
545.71	1624.04
545.91	1703.91
546.11	1699.81
546.30	1714.15
546.50	1677.29
546.70	1769.44
546.90	1820.64
547.09	1679.33
547.29	1617.90
547.49	1746.92
547.68	1755.11
547.88	1738.73
548.08	1775.59
548.27	2224.09
548.47	1681.38
548.67	1683.43
548.87	1822.69
549.06	1677.29
549.26	1673.19
549.46	1689.57
549.65	1718.25
549.85	1685.48
550.05	1802.21
550.24	1705.96
550.44	1730.53
550.64	1685.48
550.83	1722.34
551.03	1779.68
551.23	1714.15
551.42	1789.92
551.62	1736.68
551.82	1738.73
552.01	1804.26
552.21	1798.12
552.41	1679.33
552.60	1759.21
552.80	1763.30
553.00	1718.25
553.19	1714.15
553.39	1830.88
553.59	1644.52
553.78	1746.92
553.98	1755.11
554.17	1667.05
554.37	1849.32
554.57	1759.21
554.76	1683.43
554.96	1763.30
555.16	1730.53
555.35	1751.01
555.55	1773.54
555.75	1740.77
555.94	1822.69
556.14	1730.53
556.33	1804.26
556.53	1773.54
556.73	1697.77
556.92	1755.11
557.12	1839.08
557.32	1804.26
557.51	1779.68
557.71	1759.21
557.90	1845.22
558.10	1781.73
558.30	1681.38
558.49	1703.91
558.69	1753.06
558.88	1783.78
559.08	1753.06
559.28	1736.68
559.47	1742.82
559.67	1763.30
559.86	1935.33
560.06	1761.25
560.26	1687.53
560.45	1849.32
560.65	1669.09
560.84	1800.16
561.04	1718.25
561.24	1742.82
561.43	1677.29
561.63	1808.36
561.82	1755.11
562.02	1779.68
562.22	1607.66
562.41	1716.20
562.61	1746.92
562.80	1705.96
563.00	1869.80
563.19	1777.64
563.39	1734.63
563.59	1748.97
563.78	1615.85
563.98	1705.96
564.17	1671.14
564.37	1689.57
564.56	1732.58
564.76	1630.18
564.96	1800.16
565.15	1824.74
565.35	1843.17
565.54	1742.82
565.74	1779.68
565.93	1775.59
566.13	1681.38
566.32	1767.40
566.52	1849.32
566.71	1800.16
566.91	1841.12
567.11	1746.92
567.30	1699.81
567.50	1851.36
567.69	1738.73
567.89	1759.21
568.08	1687.53
568.28	1767.40
568.47	1695.72
568.67	1728.49
568.86	1679.33
569.06	1783.78
569.25	1740.77
569.45	1654.76
569.64	1714.15
569.84	1693.67
570.04	1767.40
570.23	1757.16
570.43	1767.40
570.62	1779.68
570.82	1841.12
571.01	1689.57
571.21	1732.58
571.40	1748.97
571.60	1810.40
571.79	1746.92
571.99	1800.16
572.18	1677.29
572.38	1804.26
572.57	1742.82
572.77	1769.44
572.96	1828.84
573.16	1753.06
573.35	1738.73
573.55	1873.89
573.74	1808.36
573.94	1703.91
574.13	1728.49
574.33	1759.21
574.52	1804.26
574.71	1783.78
574.91	1785.83
575.10	1675.24
575.30	1771.49
575.49	1761.25
575.69	1617.90
575.88	1812.45
576.08	1736.68
576.27	1802.21
576.47	1804.26
576.66	1920.99
576.86	1888.23
577.05	1775.59
577.25	1816.55
577.44	1923.04
577.64	1753.06
577.83	1763.30
578.02	1777.64
578.22	1863.65
578.41	1851.36
578.61	1796.07
578.80	1689.57
579.00	1697.77
579.19	1744.87
579.39	1781.73
579.58	1859.56
579.77	1738.73
579.97	1863.65
580.16	1867.75
580.36	1832.93
580.55	1869.80
580.75	1796.07
580.94	1775.59
581.13	1849.32
581.33	1873.89
581.52	1847.27
581.72	1949.67
581.91	1918.95
582.11	1808.36
582.30	1839.08
582.49	1787.88
582.69	1861.60
582.88	1761.25
583.08	1781.73
583.27	1800.16
583.47	1781.73
583.66	1718.25
583.85	1759.21
584.05	1785.83
584.24	1759.21
584.44	1794.02
584.63	1777.64
584.82	1955.81
585.02	1888.23
585.21	1904.61
585.41	1830.88
585.60	1912.80
585.79	2021.35
585.99	2000.87
586.18	2033.63
586.37	2353.12
586.57	3448.78
586.76	9971.56
586.96	27508.32
587.15	42356.09
587.34	52438.24
587.54	58713.22
587.73	56605.86
587.93	40719.76
588.12	30031.41
588.31	24282.77
588.51	20713.16
588.70	18632.42
588.89	17202.94
589.09	15697.68
589.28	13647.66
589.47	11585.36
589.67	9641.84
589.86	7497.61
590.06	5496.75
590.25	4253.63
590.44	3246.03
590.64	2586.58
590.83	2353.12
591.02	2113.50
591.22	2031.58
591.41	1966.05
591.60	1785.83
591.80	1937.38
591.99	1757.16
592.18	1777.64
592.38	1886.18
592.57	1732.58
592.76	1794.02
592.96	1734.63
593.15	1857.51
593.34	1814.50
593.54	1763.30
593.73	1765.35
593.92	1808.36
594.12	1841.12
594.31	1826.79
594.50	1810.40
594.70	1787.88
594.89	1955.81
595.08	1703.91
595.28	1837.03
595.47	1943.52
595.66	1787.88
595.86	1650.66
596.05	1761.25
596.24	1773.54
596.43	1849.32
596.63	1902.56
596.82	1736.68
597.01	1816.55
597.21	1839.08
597.40	1751.01
597.59	1751.01
597.79	1771.49
597.98	1718.25
598.17	1806.31
598.36	1828.84
598.56	1781.73
598.75	1767.40
598.94	1742.82
599.14	1837.03
599.33	1703.91
599.52	1765.35
599.71	1710.05
599.91	1769.44
600.10	1751.01
600.29	1806.31
600.48	1699.81
600.68	1771.49
600.87	1716.20
601.06	1656.81
601.26	1742.82
601.45	1773.54
601.64	1658.85
601.83	1855.46
602.03	1693.67
602.22	1701.86
602.41	1804.26
602.60	1867.75
602.80	1826.79
602.99	1710.05
603.18	1773.54
603.37	1712.10
603.57	1781.73
603.76	1757.16
603.95	1748.97
604.14	1773.54
604.34	1646.57
604.53	1746.92
604.72	1683.43
604.91	1802.21
605.10	1779.68
605.30	1665.00
605.49	1824.74
605.68	1730.53
605.87	1732.58
606.07	1765.35
606.26	1722.34
606.45	1742.82
606.64	1832.93
606.84	1781.73
607.03	1787.88
607.22	1824.74
607.41	1759.21
607.60	1863.65
607.80	1779.68
607.99	1755.11
608.18	1761.25
608.37	1796.07
608.56	1699.81
608.76	1810.40
608.95	1800.16
609.14	1812.45
609.33	1783.78
609.52	1898.47
609.72	1851.36
609.91	1806.31
610.10	1789.92
610.29	1855.46
610.48	1779.68
610.68	1837.03
610.87	1755.11
611.06	1824.74
611.25	1691.62
611.44	1791.97
611.63	1718.25
611.83	1873.89
612.02	1667.05
612.21	1777.64
612.40	1777.64
612.59	1665.00
612.79	1695.72
612.98	1697.77
613.17	1839.08
613.36	1753.06
613.55	1851.36
613.74	1785.83
613.93	1877.99
614.13	1853.41
614.32	1902.56
614.51	1953.76
614.70	1853.41
614.89	1808.36
615.08	1816.55
615.28	2185.18
615.47	1753.06
615.66	1873.89
615.85	1804.26
616.04	1873.89
616.23	1818.60
616.42	1800.16
616.62	1806.31
616.81	1843.17
617.00	1734.63
617.19	1732.58
617.38	1757.16
617.57	1828.84
617.76	1773.54
617.95	1863.65
618.15	1779.68
618.34	1775.59
618.53	1650.66
618.72	1800.16
618.91	1894.37
619.10	1832.93
619.29	1767.40
619.48	1730.53
619.68	1671.14
619.87	1796.07
620.06	1716.20
620.25	1781.73
620.44	1716.20
620.63	1683.43
620.82	1724.39
621.01	1765.35
621.20	1718.25
621.39	1832.93
621.59	1853.41
621.78	1732.58
621.97	1703.91
622.16	1738.73
622.35	1744.87
622.54	1832.93
622.73	1802.21
622.92	1695.72
623.11	1841.12
623.30	1724.39
623.49	1779.68
623.68	1671.14
623.88	1746.92
624.07	1716.20
624.26	1746.92
624.45	1718.25
624.64	1705.96
624.83	1769.44
625.02	1738.73
625.21	1699.81
625.40	1734.63
625.59	1794.02
625.78	1722.34
625.97	1810.40
626.16	1871.84
626.35	1796.07
626.54	1820.64
626.74	1861.60
626.93	1699.81
627.12	1779.68
627.31	1877.99
627.50	1785.83
627.69	1806.31
627.88	1712.10
628.07	1748.97
628.26	1593.32
628.45	1683.43
628.64	1734.63
628.83	1724.39
629.02	1636.33
629.21	1816.55
629.40	1705.96
629.59	1714.15
629.78	1730.53
629.97	1697.77
630.16	1742.82
630.35	1773.54
630.54	1710.05
630.73	1748.97
630.92	1765.35
631.11	1699.81
631.30	1751.01
631.49	1798.12
631.68	1759.21
631.87	1722.34
632.06	1617.90
632.25	1888.23
632.44	1787.88
632.63	1765.35
632.82	1746.92
633.01	1746.92
633.20	1832.93
633.39	1812.45
633.58	1710.05
633.77	1759.21
633.96	1841.12
634.15	1785.83
634.34	1779.68
634.53	1710.05
634.72	1777.64
634.91	1763.30
635.10	1759.21
635.29	1787.88
635.48	1714.15
635.67	1714.15
635.86	1732.58
636.05	1773.54
636.24	1703.91
636.43	1757.16
636.62	1771.49
636.81	1513.45
637.00	1712.10
637.19	1794.02
637.38	1671.14
637.57	1742.82
637.76	1775.59
637.95	1794.02
638.14	1865.70
638.33	1871.84
638.52	1800.16
638.71	1777.64
638.89	1693.67
639.08	1902.56
639.27	1759.21
639.46	1855.46
639.65	2179.04
639.84	2187.23
640.03	2367.45
640.22	2383.84
640.41	2359.26
640.60	2123.74
640.79	2013.15
640.98	1892.32
641.17	1871.84
641.36	1873.89
641.55	1923.04
641.74	1839.08
641.92	1787.88
642.11	1763.30
642.30	1783.78
642.49	1705.96
642.68	1751.01
642.87	1779.68
643.06	1794.02
643.25	1613.80
643.44	1683.43
643.63	1753.06
643.82	1763.30
644.00	1665.00
644.19	1691.62
644.38	1701.86
644.57	1763.30
644.76	1761.25
644.95	1742.82
645.14	1757.16
645.33	1693.67
645.52	1746.92
645.71	1691.62
645.89	1712.10
646.08	1728.49
646.27	1771.49
646.46	1814.50
646.65	1546.22
646.84	1722.34
647.03	1621.99
647.22	1785.83
647.40	1701.86
647.59	1638.38
647.78	1578.98
647.97	1609.70
648.16	1646.57
648.35	1828.84
648.54	1857.51
648.73	1779.68
648.91	1726.44
649.10	1646.57
649.29	1662.95
649.48	1771.49
649.67	1783.78
649.86	1746.92
650.05	1761.25
650.23	1937.38
650.42	1814.50
650.61	1939.43
650.80	1945.57
650.99	1970.15
651.18	1814.50
651.36	1804.26
651.55	1697.77
651.74	1820.64
651.93	1798.12
652.12	1796.07
652.31	1689.57
652.49	1777.64
652.68	1744.87
652.87	1824.74
653.06	1781.73
653.25	1841.12
653.44	1824.74
653.62	1773.54
653.81	1632.23
654.00	1730.53
654.19	1732.58
654.38	1834.98
654.56	1726.44
654.75	1744.87
654.94	1746.92
655.13	1765.35
655.32	1701.86
655.51	1794.02
655.69	1681.38
655.88	1783.78
656.07	1689.57
656.26	1783.78
656.45	1660.90
656.63	1722.34
656.82	1662.95
657.01	1671.14
657.20	1693.67
657.38	1814.50
657.57	1650.66
657.76	1734.63
657.95	1832.93
658.14	1640.42
658.32	1697.77
658.51	1742.82
658.70	1712.10
658.89	1697.77
659.08	1724.39
659.26	1873.89
659.45	1701.86
659.64	1718.25
659.83	1748.97
660.01	1986.53
660.20	1787.88
660.39	1794.02
660.58	1632.23
660.76	1771.49
660.95	1724.39
661.14	1656.81
661.33	1759.21
661.51	1755.11
661.70	1738.73
661.89	1693.67
662.08	1699.81
662.26	1611.75
662.45	1665.00
662.64	1863.65
662.83	1767.40
663.01	1667.05
663.20	1646.57
663.39	1730.53
663.58	1726.44
663.76	1726.44
663.95	1701.86
664.14	1665.00
664.32	1638.38
664.51	1722.34
664.70	1675.24
664.89	1828.84
665.07	1652.71
665.26	1742.82
665.45	1609.70
665.64	1710.05
665.82	1769.44
666.01	1773.54
666.20	1621.99
666.38	1834.98
666.57	1832.93
666.76	2211.81
666.95	4579.26
667.13	11814.73
667.32	18622.18
667.51	22429.35
667.69	25427.58
667.88	25591.42
668.07	20072.14
668.25	14559.01
668.44	11970.38
668.63	9922.41
668.81	8648.57
669.00	7675.79
669.19	6965.14
669.38	6305.70
669.56	5486.51
669.75	4630.46
669.94	3772.36
670.12	3170.26
670.31	2691.03
670.50	2357.21
670.68	2150.37
670.87	2002.91
671.06	1898.47
671.24	1826.79
671.43	1935.33
671.62	1832.93
671.80	1824.74
671.99	1828.84
672.18	1755.11
672.36	1718.25
672.55	1710.05
672.74	1751.01
672.92	1787.88
673.11	1804.26
673.29	1703.91
673.48	1757.16
673.67	1683.43
673.85	1746.92
674.04	1636.33
674.23	1738.73
674.41	1783.78
674.60	1658.85
674.79	1611.75
674.97	1720.29
675.16	1771.49
675.34	1767.40
675.53	1675.24
675.72	1732.58
675.90	1808.36
676.09	1724.39
676.28	1781.73
676.46	1613.80
676.65	1673.19
676.83	1681.38
677.02	1789.92
677.21	1767.40
677.39	1730.53
677.58	1662.95
677.77	1679.33
677.95	1646.57
678.14	1720.29
678.32	1611.75
678.51	1720.29
678.70	1816.55
678.88	1771.49
679.07	1755.11
679.25	1742.82
679.44	1576.94
679.63	1624.04
679.81	1755.11
680.00	1783.78
680.18	1783.78
680.37	1712.10
680.55	1783.78
680.74	1665.00
680.93	1574.89
681.11	1751.01
681.30	1699.81
681.48	1771.49
681.67	1765.35
681.85	1701.86
682.04	1640.42
682.23	1812.45
682.41	1751.01
682.60	1708.01
682.78	1781.73
682.97	1656.81
683.15	1736.68
683.34	1730.53
683.53	1720.29
683.71	1701.86
683.90	1751.01
684.08	1794.02
684.27	1746.92
684.45	1779.68
684.64	1744.87
684.82	1720.29
685.01	1791.97
685.19	1732.58
685.38	1746.92
685.57	1656.81
685.75	1699.81
685.94	1689.57
686.12	1730.53
686.31	1683.43
686.49	1783.78
686.68	1646.57
686.86	1742.82
687.05	1685.48
687.23	1759.21
687.42	1732.58
687.60	1636.33
687.79	1720.29
687.97	1787.88
688.16	1845.22
688.34	1736.68
688.53	1603.56
688.71	1779.68
688.90	1841.12
689.08	1681.38
689.27	1605.61
689.45	1681.38
689.64	1738.73
689.82	1691.62
690.01	1710.05
690.19	1724.39
690.38	1744.87
690.56	1800.16
690.75	1665.00
690.93	1630.18
691.12	1738.73
691.30	1673.19
691.49	1691.62
691.67	1681.38
691.86	1939.43
692.04	1734.63
692.23	1763.30
692.41	1724.39
692.60	1916.90
692.78	1875.94
692.97	1748.97
693.15	1800.16
693.34	1861.60
693.52	1814.50
693.71	1673.19
693.89	1693.67
694.08	1658.85
694.26	1820.64
694.44	1746.92
694.63	1771.49
694.81	1728.49
695.00	1667.05
695.18	1806.31
695.37	1851.36
695.55	1687.53
695.74	1691.62
695.92	1720.29
696.10	1816.55
696.29	1609.70
696.47	1689.57
696.66	1632.23
696.84	1654.76
697.03	1712.10
697.21	1781.73
697.40	2316.25
697.58	1728.49
697.76	1677.29
697.95	1699.81
698.13	1695.72
698.32	1658.85
698.50	1705.96
698.68	1755.11
698.87	1761.25
699.05	1820.64
699.24	1650.66
699.42	1744.87
699.61	1689.57
699.79	1699.81
699.97	1710.05
700.16	1673.19
700.34	1753.06
700.53	1781.73
700.71	1863.65
700.89	1761.25
701.08	1699.81
701.26	1730.53
701.45	2123.74
701.63	1738.73
701.81	1679.33
702.00	1681.38
702.18	1759.21
702.37	1669.09
702.55	1863.65
702.73	1880.04
702.92	1845.22
703.10	1994.72
703.28	1980.39
703.47	1855.46
703.65	1945.57
703.84	1802.21
704.02	1773.54
704.20	1861.60
704.39	1804.26
704.57	1773.54
704.75	1847.27
704.94	1742.82
705.12	1796.07
705.30	1927.14
705.49	2480.09
705.67	5433.26
705.86	13522.74
706.04	19211.99
706.22	23150.24
706.41	25171.58
706.59	24985.22
706.77	19543.77
706.96	13977.39
707.14	11833.16
707.32	10067.81
707.51	9015.16
707.69	7950.21
707.87	6881.18
708.06	5472.17
708.24	4360.13
708.42	3356.62
708.61	2768.85
708.79	2242.53
708.97	2090.98
709.16	1929.19
709.34	1945.57
709.52	1794.02
709.71	1863.65
709.89	1796.07
710.07	1734.63
710.26	1705.96
710.44	1789.92
710.62	1783.78
710.80	1791.97
710.99	1734.63
711.17	1730.53
711.35	1722.34
711.54	1626.09
711.72	1781.73
711.90	1724.39
712.09	1748.97
712.27	1705.96
712.45	1740.77
712.63	1761.25
712.82	1675.24
713.00	1665.00
713.18	1785.83
713.37	1771.49
713.55	1705.96
713.73	1775.59
713.91	1740.77
714.10	1734.63
714.28	1728.49
714.46	1746.92
714.65	1718.25
714.83	1716.20
715.01	1753.06
715.19	1642.47
715.38	1683.43
715.56	1675.24
715.74	1720.29
715.92	1669.09
716.11	1783.78
716.29	1628.14
716.47	1771.49
716.65	1693.67
716.84	1714.15
717.02	1859.56
717.20	1599.46
717.38	1736.68
717.57	1710.05
717.75	1646.57
717.93	1742.82
718.11	1742.82
718.30	1611.75
718.48	1718.25
718.66	1771.49
718.84	1783.78
719.03	1765.35
719.21	1681.38
719.39	1855.46
719.57	1726.44
719.75	1765.35
719.94	1626.09
720.12	1636.33
720.30	1689.57
720.48	1800.16
720.67	1681.38
720.85	1673.19
721.03	1699.81
721.21	1646.57
721.39	1705.96
721.58	1736.68
721.76	1712.10
721.94	1708.01
722.12	1740.77
722.30	1804.26
722.49	1755.11
722.67	1726.44
722.85	1796.07
723.03	1714.15
723.21	1730.53
723.40	1736.68
723.58	1779.68
723.76	1779.68
723.94	1800.16
724.12	1816.55
724.30	1843.17
724.49	1843.17
724.67	1722.34
724.85	1865.70
725.03	1689.57
725.21	1791.97
725.40	1767.40
725.58	1677.29
725.76	1796.07
725.94	1738.73
726.12	1722.34
726.30	1689.57
726.49	1746.92
726.67	1757.16
726.85	1665.00
727.03	1828.84
727.21	2277.34
727.39	3465.16
727.57	4925.36
727.76	5699.50
727.94	6182.82
728.12	6277.02
728.30	5631.91
728.48	4442.04
728.66	4081.60
728.84	3606.47
729.03	3121.10
729.21	2914.26
729.39	2453.47
729.57	2185.18
729.75	2000.87
729.93	1871.84
730.11	1753.06
730.30	1751.01
730.48	1703.91
730.66	1775.59
730.84	1753.06
731.02	1685.48
731.20	1724.39
731.38	1716.20
731.56	1621.99
731.74	1650.66
731.93	1718.25
732.11	1679.33
732.29	1611.75
732.47	1779.68
732.65	1683.43
732.83	1779.68
733.01	1748.97
733.19	1624.04
733.37	1767.40
733.56	1685.48
733.74	1642.47
733.92	1753.06
734.10	1740.77
734.28	1857.51
734.46	1533.93
734.64	1693.67
734.82	1738.73
735.00	1587.18
735.18	1685.48
735.36	1755.11
735.54	1708.01
735.73	1722.34
735.91	1769.44
736.09	1710.05
736.27	1714.15
736.45	1773.54
736.63	1636.33
736.81	1755.11
736.99	1705.96
737.17	1861.60
737.35	1644.52
737.53	1695.72
737.71	1652.71
737.89	1744.87
738.07	1669.09
738.25	1738.73
738.43	1640.42
738.61	1611.75
738.80	1609.70
738.98	1648.61
739.16	1753.06
739.34	1617.90
739.52	1785.83
739.70	1695.72
739.88	1789.92
740.06	1763.30
740.24	1607.66
740.42	1767.40
740.60	1636.33
740.78	1691.62
740.96	1662.95
741.14	1751.01
741.32	1787.88
741.50	1581.03
741.68	1740.77
741.86	1828.84
742.04	1671.14
742.22	1632.23
742.40	1746.92
742.58	1695.72
742.76	1679.33
742.94	1787.88
743.12	1595.37
743.30	1646.57
743.48	1751.01
743.66	1740.77
743.84	1837.03
744.02	1685.48
744.20	1667.05
744.38	1591.27
744.56	1624.04
744.74	1865.70
744.92	1683.43
745.10	1804.26
745.28	1722.34
745.46	1720.29
745.64	1648.61
745.82	1810.40
746.00	1757.16
746.18	1710.05
746.36	1724.39
746.54	1746.92
746.72	1726.44
746.90	1603.56
747.08	1767.40
747.26	1667.05
747.44	1703.91
747.62	1748.97
747.80	1714.15
747.98	1812.45
748.15	1775.59
748.33	1849.32
748.51	1724.39
748.69	1789.92
748.87	1646.57
749.05	1730.53
749.23	1734.63
749.41	1791.97
749.59	1697.77
749.77	1804.26
749.95	1652.71
750.13	1679.33
750.31	1789.92
750.49	1775.59
750.67	1746.92
750.85	1839.08
751.03	1740.77
751.20	1787.88
751.38	1779.68
751.56	1619.94
751.74	1777.64
751.92	1621.99
752.10	1660.90
752.28	1751.01
752.46	1660.90
752.64	1703.91
752.82	1765.35
753.00	1804.26
753.18	1642.47
753.35	1763.30
753.53	1705.96
753.71	1724.39
753.89	1648.61
754.07	1763.30
754.25	1771.49
754.43	1689.57
754.61	1624.04
754.79	1779.68
754.97	1701.86
755.14	1798.12
755.32	1652.71
755.50	1679.33
755.68	1779.68
755.86	1640.42
756.04	1644.52
756.22	1665.00
756.40	1742.82
756.57	1847.27
756.75	1714.15
756.93	1783.78
757.11	1720.29
757.29	1681.38
757.47	1679.33
757.65	1632.23
757.82	1628.14
758.00	1636.33
758.18	1658.85
758.36	1691.62
758.54	1796.07
758.72	1626.09
758.90	1746.92
759.07	1800.16
759.25	1667.05
759.43	1722.34
759.61	1710.05
759.79	2189.28
759.97	1744.87
760.15	1683.43
760.32	1654.76
760.50	1722.34
760.68	1841.12
760.86	1644.52
761.04	1783.78
761.22	1767.40
761.39	1736.68
761.57	1783.78
761.75	1693.67
761.93	1742.82
762.11	1708.01
762.28	1724.39
762.46	1644.52
762.64	1800.16
762.82	1617.90
763.00	1742.82
763.18	1771.49
763.35	1603.56
763.53	1724.39
763.71	1687.53
763.89	1609.70
764.07	1701.86
764.24	1724.39
764.42	1791.97
764.60	1695.72
764.78	1716.20
764.96	1714.15
765.13	1808.36
765.31	1669.09
765.49	1800.16
765.67	1677.29
765.84	1673.19
766.02	1662.95
766.20	1652.71
766.38	1759.21
766.56	1755.11
766.73	1734.63
766.91	1765.35
767.09	1681.38
767.27	1720.29
767.44	1642.47
767.62	1748.97
767.80	1714.15
767.98	1656.81
768.15	1656.81
768.33	1820.64
768.51	1806.31
768.69	1675.24
768.87	1753.06
769.04	1783.78
769.22	1814.50
769.40	1785.83
769.58	1888.23
769.75	1742.82
769.93	1783.78
770.11	1703.91
770.28	1710.05
770.46	1703.91
770.64	1691.62
770.82	1693.67
770.99	1710.05
771.17	1755.11
771.35	1689.57
771.53	1703.91
771.70	1675.24
771.88	1777.64
772.06	1705.96
772.23	1687.53
772.41	1767.40
772.59	1703.91
772.77	1611.75
772.94	1683.43
773.12	1789.92
773.30	1578.98
773.47	1697.77
773.65	1716.20
773.83	1804.26
774.01	1689.57
774.18	1560.55
774.36	1652.71
774.54	1714.15
774.71	1710.05
774.89	1585.13
775.07	1710.05
775.24	1699.81
775.42	1656.81
775.60	1794.02
775.78	1675.24
775.95	1695.72
776.13	1644.52
776.31	1595.37
776.48	1669.09
776.66	1710.05
776.84	1703.91
777.01	1708.01
777.19	1691.62
777.37	1681.38
777.54	1732.58
777.72	1802.21
777.90	1802.21
778.07	1705.96
778.25	1802.21
778.43	1718.25
778.60	1677.29
778.78	1716.20
778.96	1826.79
779.13	1640.42
779.31	1748.97
779.49	1785.83
779.66	1730.53
779.84	1656.81
780.01	1714.15
780.19	1667.05
780.37	1826.79
780.54	1763.30
780.72	1730.53
780.90	1722.34
781.07	1685.48
781.25	1615.85
781.43	1736.68
781.60	1718.25
781.78	1765.35
781.95	1705.96
782.13	1665.00
782.31	1744.87
782.48	1611.75
782.66	1701.86
782.83	1730.53
783.01	1751.01
783.19	1746.92
783.36	1705.96
783.54	1603.56
783.72	1746.92
783.89	1751.01
784.07	1677.29
784.24	1689.57
784.42	1753.06
784.60	1703.91
784.77	1722.34
784.95	1609.70
785.12	1716.20
785.30	1705.96
785.47	1683.43
785.65	1609.70
785.83	1710.05
786.00	1675.24
786.18	1734.63
786.35	1658.85
786.53	1611.75
786.71	1740.77
786.88	1712.10
787.06	1691.62
787.23	1732.58
787.41	1566.70
787.58	1640.42
787.76	1599.46
787.94	1728.49
788.11	1785.83
788.29	1583.08
788.46	1617.90
788.64	1648.61
788.81	1689.57
788.99	1695.72
789.16	1662.95
789.34	1765.35
789.52	1615.85
789.69	1691.62
789.87	1609.70
790.04	1648.61
790.22	1683.43
790.39	1826.79
790.57	1693.67
790.74	1646.57
790.92	1736.68
791.09	1640.42
791.27	1724.39
791.44	1796.07
791.62	1689.57
791.79	1738.73
791.97	1648.61
792.15	1886.18
792.32	1695.72
792.50	1808.36
792.67	1726.44
792.85	1748.97
793.02	1748.97
793.20	1593.32
793.37	1658.85
793.55	1742.82
793.72	1613.80
793.90	1765.35
794.07	1677.29
794.25	1642.47
794.42	1667.05
794.60	1656.81
794.77	1642.47
794.95	1763.30
795.12	1781.73
795.30	1685.48
795.47	1619.94
795.65	1806.31
795.82	1685.48
796.00	1654.76
796.17	1644.52
796.34	1638.38
796.52	1740.77
796.69	1767.40
796.87	1810.40
797.04	1703.91
797.22	1779.68
797.39	1755.11
797.57	1769.44
797.74	1789.92
797.92	1755.11
798.09	1691.62
798.27	1753.06
798.44	1734.63
798.62	1662.95
798.79	1675.24
798.96	1806.31
799.14	1726.44
799.31	1837.03
799.49	1607.66
799.66	1722.34
799.84	1742.82
800.01	1658.85
800.19	1722.34
800.36	1570.79
800.53	1757.16
800.71	1669.09
800.88	1800.16
801.06	1640.42
801.23	1716.20
801.41	1646.57
801.58	1695.72
801.75	1660.90
801.93	1695.72
802.10	1710.05
802.28	1740.77
802.45	1648.61
802.63	1763.30
802.80	1794.02
802.97	1615.85
803.15	1695.72
803.32	1699.81
803.50	1607.66
803.67	1712.10
803.84	1744.87
804.02	1714.15
804.19	1679.33
804.37	1611.75
804.54	1646.57
804.71	1669.09
804.89	1695.72
805.06	1679.33
805.24	1701.86
805.41	1681.38
805.58	1595.37
805.76	1810.40
805.93	1738.73
806.10	1755.11
806.28	1753.06
806.45	1705.96
806.63	1654.76
806.80	1736.68
806.97	1705.96
807.15	1779.68
807.32	1775.59
807.49	1726.44
807.67	1712.10
807.84	1724.39
808.01	1619.94
808.19	1789.92
808.36	1935.33
808.54	1648.61
808.71	1656.81
808.88	1671.14
809.06	1763.30
809.23	1644.52
809.40	1656.81
809.58	1738.73
809.75	1687.53
809.92	1662.95
810.10	1902.56
810.27	1757.16
810.44	1699.81
810.62	1814.50
810.79	1646.57
810.96	1679.33
811.14	1632.23
811.31	1751.01
811.48	1785.83
811.66	1716.20
811.83	1837.03
812.00	1667.05
812.18	1783.78
812.35	1798.12
812.52	1665.00
812.69	1685.48
812.87	1736.68
813.04	1673.19
813.21	1763.30
813.39	1667.05
813.56	1632.23
813.73	1826.79
813.91	1648.61
814.08	1697.77
814.25	1734.63
814.42	1654.76
814.60	1712.10
814.77	1701.86
814.94	1654.76
815.12	1679.33
815.29	1775.59
815.46	1665.00
815.63	1681.38
815.81	1677.29
815.98	1689.57
816.15	1722.34
816.33	1660.90
816.50	1697.77
816.67	1609.70
816.84	1718.25
817.02	1605.61
817.19	1628.14
817.36	1738.73
817.53	1708.01
817.71	1662.95
817.88	1689.57
818.05	1744.87
818.22	1677.29
818.40	1847.27
818.57	1673.19
818.74	1791.97
818.91	1703.91
819.09	1826.79
819.26	1738.73
819.43	1609.70
819.60	1669.09
819.78	1705.96
819.95	1779.68
820.12	1699.81
820.29	1832.93
820.47	1742.82
820.64	1667.05
820.81	1591.27
820.98	1640.42
821.15	1712.10
821.33	1767.40
821.50	1597.42
821.67	1677.29
821.84	1691.62
822.02	1742.82
822.19	1744.87
822.36	1675.24
822.53	1771.49
822.70	1605.61
822.88	1681.38
823.05	1785.83
823.22	1683.43
823.39	1773.54
823.56	1734.63
823.74	1841.12
823.91	1652.71
824.08	1646.57
824.25	1648.61
824.42	1806.31
824.60	1660.90
824.77	1783.78
824.94	1699.81
825.11	1687.53
825.28	1650.66
825.45	1656.81
825.63	1712.10
825.80	1656.81
825.97	1728.49
826.14	1691.62
826.31	1656.81
826.48	1742.82
826.66	1619.94
826.83	1628.14
827.00	1665.00
827.17	1640.42
827.34	1720.29
827.51	1683.43
827.69	1710.05
827.86	1560.55
828.03	1689.57
828.20	1650.66
828.37	1599.46
828.54	1701.86
828.71	1644.52
828.89	1783.78
829.06	1730.53
829.23	1783.78
829.40	1648.61
829.57	1681.38
829.74	1724.39
829.91	1689.57
830.09	1669.09
830.26	1730.53
830.43	1849.32
830.60	1699.81
830.77	1726.44
830.94	1734.63
831.11	1693.67
831.28	1699.81
831.46	1867.75
831.63	1701.86
831.80	1777.64
831.97	1658.85
832.14	1677.29
832.31	1751.01
832.48	1685.48
832.65	1730.53
832.82	1730.53
832.99	1726.44
833.17	1667.05
833.34	1724.39
833.51	1814.50
833.68	1615.85
833.85	1699.81
834.02	1673.19
834.19	1687.53
834.36	1703.91
834.53	1714.15
834.70	1746.92
834.87	1763.30
835.04	1681.38
835.22	1648.61
835.39	1648.61
835.56	1677.29
835.73	1673.19
835.90	1751.01
836.07	1632.23
836.24	1769.44
836.41	1613.80
836.58	1638.38
836.75	1748.97
836.92	1755.11
837.09	1665.00
837.26	1796.07
837.43	1724.39
837.60	1730.53
837.77	1730.53
837.94	1796.07
838.12	1763.30
838.29	1781.73
838.46	1685.48
838.63	1673.19
838.80	1796.07
838.97	1761.25
839.14	1697.77
839.31	1734.63
839.48	1759.21
839.65	1697.77
839.82	1783.78
839.99	1681.38
840.16	1718.25
840.33	1722.34
840.50	1708.01
840.67	1703.91
840.84	1621.99
841.01	1769.44
841.18	1656.81
841.35	1712.10
841.52	1789.92
841.69	1843.17
841.86	1740.77
842.03	1677.29
842.20	1753.06
842.37	1714.15
842.54	1736.68
842.71	1714.15
842.88	1605.61
843.05	1812.45
843.22	1734.63
843.39	1736.68
843.56	1636.33
843.73	1656.81
843.90	1732.58
844.07	1716.20
844.24	1722.34
844.41	1728.49
844.58	1757.16
844.75	1738.73
844.92	1726.44
845.09	1691.62
845.26	1654.76
845.43	1736.68
845.60	1695.72
845.77	1722.34
845.94	1708.01
846.10	1767.40
846.27	1669.09
846.44	1646.57
846.61	1705.96
846.78	1691.62
846.95	1712.10
847.12	1734.63
847.29	1621.99
847.46	1660.90
847.63	1742.82
847.80	1679.33
847.97	1773.54
848.14	1794.02
848.31	1673.19
848.48	1687.53
848.65	1697.77
848.82	1699.81
848.98	1826.79
849.15	1763.30
849.32	1693.67
849.49	1796.07
849.66	1712.10
849.83	1724.39
850.00	1673.19
850.17	1761.25
850.34	1734.63
850.51	1730.53
850.68	1687.53
850.85	1943.52
851.01	1675.24
851.18	1757.16
851.35	1755.11
851.52	1742.82
851.69	1779.68
851.86	1654.76
852.03	1751.01
852.20	1738.73
852.37	1697.77
852.53	1615.85
852.70	1697.77
852.87	1656.81
853.04	1757.16
853.21	1691.62
853.38	1746.92
853.55	1705.96
853.72	1781.73
853.89	1716.20
854.05	1656.81
854.22	1677.29
854.39	1695.72
854.56	1710.05
854.73	1742.82
854.90	1654.76
855.07	1638.38
855.23	1673.19
855.40	1691.62
855.57	1701.86
855.74	1599.46
855.91	1851.36
856.08	1669.09
856.25	1662.95
856.41	1615.85
856.58	1734.63
856.75	1736.68
856.92	1705.96
857.09	1708.01
857.26	1613.80
857.42	1726.44
857.59	1742.82
857.76	1705.96
857.93	1712.10
858.10	1734.63
858.27	1593.32
858.43	1740.77
858.60	1744.87
858.77	1665.00
858.94	1658.85
859.11	1724.39
859.27	1796.07
859.44	1701.86
859.61	1859.56
859.78	1791.97
859.95	1673.19
860.12	1665.00
860.28	1832.93
860.45	1796.07
860.62	1650.66
860.79	1705.96
860.95	1712.10
861.12	1634.28
861.29	1656.81
861.46	1683.43
861.63	1673.19
861.79	1671.14
861.96	1687.53
862.13	1732.58
862.30	1744.87
862.47	1681.38
862.63	1665.00
862.80	1701.86
862.97	1693.67
863.14	1734.63
863.30	1712.10
863.47	1724.39
863.64	1818.60
863.81	1765.35
863.97	1667.05
864.14	1730.53
864.31	1609.70
864.48	1746.92
864.65	1691.62
864.81	1779.68
864.98	1800.16
865.15	1724.39
865.32	1742.82
865.48	1789.92
865.65	1816.55
865.82	1701.86
865.98	1693.67
866.15	1808.36
866.32	1714.15
866.49	1679.33
866.65	1796.07
866.82	1634.28
866.99	1744.87
867.16	1685.48
867.32	1679.33
867.49	1691.62
867.66	1642.47
867.83	1705.96
867.99	1513.45
868.16	1744.87
868.33	1724.39
868.49	1806.31
868.66	1728.49
868.83	1665.00
868.99	1746.92
869.16	1667.05
869.33	1785.83
869.50	1775.59
869.66	1646.57
869.83	1716.20
870.00	1685.48
870.16	1783.78
870.33	1683.43
870.50	1822.69
870.66	1636.33
870.83	1857.51
871.00	1710.05
871.17	1708.01
871.33	1812.45
871.50	1669.09
871.67	1738.73
871.83	1619.94
872.00	1826.79
872.17	1681.38
872.33	1769.44
872.50	1765.35
872.67	1658.85
872.83	1624.04
873.00	1775.59
873.17	1628.14
873.33	1785.83
873.50	1703.91
873.67	1613.80
873.83	1662.95
874.00	1642.47
874.16	1734.63
874.33	1738.73
874.50	1658.85
874.66	1732.58
874.83	1722.34
875.00	1740.77
875.16	1791.97
875.33	1796.07
875.50	1648.61
875.66	1714.15
875.83	1771.49
875.99	1775.59
876.16	1693.67
876.33	1671.14
876.49	1689.57
876.66	1714.15
876.83	1736.68
876.99	1587.18
877.16	1742.82
877.32	1777.64
877.49	1654.76
877.66	1665.00
877.82	1796.07
877.99	1734.63
878.15	1751.01
878.32	1699.81
878.49	1714.15
878.65	1675.24
878.82	1839.08
878.98	1730.53
879.15	1824.74
879.32	1828.84
879.48	1734.63
879.65	1640.42
879.81	1720.29
879.98	1650.66
880.15	1738.73
880.31	1734.63
880.48	1613.80
880.64	1746.92
880.81	1802.21
880.97	1777.64
881.14	1800.16
881.31	1603.56
881.47	1853.41
881.64	1636.33
881.80	1587.18
881.97	1736.68
882.13	1771.49
882.30	1652.71
882.47	1675.24
882.63	1640.42
882.80	1646.57
882.96	1736.68
883.13	1773.54
883.29	1667.05
883.46	1693.67
883.62	1814.50
883.79	1734.63
883.95	1771.49
884.12	1732.58
884.29	1746.92
884.45	1634.28
884.62	1775.59
884.78	1658.85
884.95	1779.68
885.11	1705.96
885.28	1689.57
885.44	1652.71
885.61	1669.09
885.77	1787.88
885.94	1744.87
886.10	1677.29
886.27	1646.57
886.43	1820.64
886.60	1689.57
886.76	1714.15
886.93	1652.71
887.09	1720.29
887.26	1621.99
887.42	1765.35
887.59	1767.40
887.75	1771.49
887.92	1734.63
888.08	1796.07
888.25	1716.20
888.41	1775.59
888.58	1779.68
888.74	1619.94
888.91	1599.46
>>>>>End Processed Spectral Data<<<<<
