SpectraSuite Data File
++++++++++++++++++++++++++++++++++++
Date: Wed May 04 18:44:13 CEST 2016
User: root
Dark Spectrum Present: No
Reference Spectrum Present: No
Number of Sampled Component Spectra: 1
Spectrometers: USB4C02835
Integration Time (usec): 100000 (USB4C02835)
Spectra Averaged: 1 (USB4C02835)
Boxcar Smoothing: 0 (USB4C02835)
Correct for Electrical Dark: No (USB4C02835)
Strobe/Lamp Enabled: No (USB4C02835)
Correct for Detector Non-linearity: No (USB4C02835)
Correct for Stray Light: No (USB4C02835)
Number of Pixels in Processed Spectrum: 3648
>>>>>Begin Processed Spectral Data<<<<<
177.47	1468.39
177.69	1468.39
177.91	1468.39
178.13	1484.78
178.36	1452.01
178.58	1689.57
178.80	1744.87
179.02	1673.19
179.24	1673.19
179.46	1716.20
179.68	1687.53
179.90	1701.86
180.13	1761.25
180.35	1646.57
180.57	1683.43
180.79	1742.82
181.01	1740.77
181.23	1771.49
181.45	1789.92
181.67	1814.50
181.90	1796.07
182.12	1630.18
182.34	1621.99
182.56	1675.24
182.78	1697.77
183.00	1703.91
183.22	1720.29
183.44	1646.57
183.66	1816.55
183.89	1773.54
184.11	1708.01
184.33	1751.01
184.55	1746.92
184.77	1761.25
184.99	1742.82
185.21	1699.81
185.43	1935.33
185.65	1740.77
185.87	1708.01
186.10	1806.31
186.32	1783.78
186.54	1773.54
186.76	1660.90
186.98	1822.69
187.20	1705.96
187.42	1638.38
187.64	1722.34
187.86	1742.82
188.08	1708.01
188.30	1681.38
188.52	1699.81
188.75	1808.36
188.97	1800.16
189.19	1644.52
189.41	1679.33
189.63	1763.30
189.85	1642.47
190.07	1538.02
190.29	1665.00
190.51	1697.77
190.73	1601.51
190.95	1761.25
191.17	1636.33
191.39	1693.67
191.61	1685.48
191.84	1681.38
192.06	1716.20
192.28	1611.75
192.50	1908.71
192.72	1761.25
192.94	1648.61
193.16	1800.16
193.38	1714.15
193.60	1581.03
193.82	1697.77
194.04	1804.26
194.26	1757.16
194.48	1705.96
194.70	1695.72
194.92	1683.43
195.14	1763.30
195.36	1701.86
195.58	1648.61
195.80	1677.29
196.02	1603.56
196.24	1699.81
196.46	1771.49
196.69	1677.29
196.91	1863.65
197.13	1669.09
197.35	1658.85
197.57	1769.44
197.79	1722.34
198.01	1775.59
198.23	1814.50
198.45	1683.43
198.67	1675.24
198.89	1654.76
199.11	1728.49
199.33	1685.48
199.55	1656.81
199.77	1728.49
199.99	1730.53
200.21	1740.77
200.43	1667.05
200.65	1574.89
200.87	1626.09
201.09	1720.29
201.31	1718.25
201.53	1746.92
201.75	1628.14
201.97	1693.67
202.19	1732.58
202.41	1716.20
202.63	1730.53
202.85	1806.31
203.07	1679.33
203.29	1662.95
203.51	1615.85
203.73	1683.43
203.95	1869.80
204.17	1699.81
204.39	1669.09
204.61	1660.90
204.83	1699.81
205.05	1761.25
205.27	1796.07
205.49	1796.07
205.71	1652.71
205.93	1615.85
206.15	1642.47
206.37	1679.33
206.59	1660.90
206.81	1673.19
207.03	1673.19
207.25	1656.81
207.47	1705.96
207.69	1802.21
207.91	1818.60
208.13	1804.26
208.34	1720.29
208.56	1644.52
208.78	1681.38
209.00	1667.05
209.22	1675.24
209.44	1703.91
209.66	1685.48
209.88	1689.57
210.10	1732.58
210.32	1660.90
210.54	1769.44
210.76	1742.82
210.98	1775.59
211.20	1564.65
211.42	1705.96
211.64	1710.05
211.86	1765.35
212.08	1720.29
212.30	1765.35
212.52	1648.61
212.74	1771.49
212.96	1701.86
213.17	1683.43
213.39	1826.79
213.61	1832.93
213.83	1699.81
214.05	1742.82
214.27	1748.97
214.49	1665.00
214.71	1714.15
214.93	1775.59
215.15	1660.90
215.37	1767.40
215.59	1642.47
215.81	1759.21
216.03	1732.58
216.24	1685.48
216.46	1683.43
216.68	1710.05
216.90	1687.53
217.12	1765.35
217.34	1722.34
217.56	1740.77
217.78	1724.39
218.00	1724.39
218.22	1671.14
218.44	1808.36
218.66	1720.29
218.87	1837.03
219.09	1656.81
219.31	1665.00
219.53	1732.58
219.75	1716.20
219.97	1703.91
220.19	1671.14
220.41	1658.85
220.63	1847.27
220.85	1648.61
221.06	1736.68
221.28	1824.74
221.50	1730.53
221.72	1708.01
221.94	1697.77
222.16	1642.47
222.38	1742.82
222.60	1767.40
222.82	1734.63
223.03	1785.83
223.25	1644.52
223.47	1773.54
223.69	1908.71
223.91	1722.34
224.13	1705.96
224.35	1699.81
224.57	1789.92
224.78	1720.29
225.00	1626.09
225.22	1669.09
225.44	1607.66
225.66	1740.77
225.88	1677.29
226.10	1710.05
226.32	1699.81
226.53	1748.97
226.75	1722.34
226.97	1734.63
227.19	1665.00
227.41	1763.30
227.63	1699.81
227.85	1591.27
228.06	1671.14
228.28	1671.14
228.50	1748.97
228.72	1658.85
228.94	1751.01
229.16	1605.61
229.37	1660.90
229.59	1693.67
229.81	1787.88
230.03	1638.38
230.25	1708.01
230.47	1718.25
230.69	1617.90
230.90	1736.68
231.12	1638.38
231.34	1699.81
231.56	1716.20
231.78	1673.19
232.00	1656.81
232.21	1710.05
232.43	1640.42
232.65	1542.12
232.87	1724.39
233.09	1624.04
233.30	1718.25
233.52	1777.64
233.74	1636.33
233.96	1677.29
234.18	1728.49
234.40	1716.20
234.61	1869.80
234.83	1607.66
235.05	1687.53
235.27	1894.37
235.49	1804.26
235.70	1646.57
235.92	1746.92
236.14	1730.53
236.36	1757.16
236.58	1691.62
236.79	1761.25
237.01	1726.44
237.23	1615.85
237.45	1812.45
237.67	1699.81
237.88	1736.68
238.10	1798.12
238.32	1689.57
238.54	1718.25
238.76	1658.85
238.97	1595.37
239.19	1660.90
239.41	1787.88
239.63	1800.16
239.85	1718.25
240.06	1742.82
240.28	1714.15
240.50	1738.73
240.72	1738.73
240.93	1714.15
241.15	1767.40
241.37	1763.30
241.59	1796.07
241.81	1779.68
242.02	1730.53
242.24	1673.19
242.46	1761.25
242.68	1724.39
242.89	1789.92
243.11	1699.81
243.33	1691.62
243.55	1755.11
243.76	1708.01
243.98	1736.68
244.20	1652.71
244.42	1624.04
244.64	1701.86
244.85	1650.66
245.07	1609.70
245.29	1677.29
245.51	1662.95
245.72	1681.38
245.94	1796.07
246.16	1726.44
246.38	1779.68
246.59	1630.18
246.81	1646.57
247.03	1726.44
247.24	1609.70
247.46	1695.72
247.68	1703.91
247.90	1695.72
248.11	1636.33
248.33	1789.92
248.55	1681.38
248.77	1738.73
248.98	1765.35
249.20	1834.98
249.42	1695.72
249.64	1744.87
249.85	1732.58
250.07	1656.81
250.29	1708.01
250.50	1755.11
250.72	1648.61
250.94	1787.88
251.16	1834.98
251.37	1847.27
251.59	1759.21
251.81	1759.21
252.02	1843.17
252.24	1669.09
252.46	1726.44
252.68	1581.03
252.89	1619.94
253.11	1650.66
253.33	1787.88
253.54	1791.97
253.76	1611.75
253.98	1724.39
254.20	1732.58
254.41	1538.02
254.63	1722.34
254.85	1621.99
255.06	1689.57
255.28	1691.62
255.50	1722.34
255.71	1708.01
255.93	1636.33
256.15	1728.49
256.36	1675.24
256.58	1730.53
256.80	1689.57
257.02	1667.05
257.23	1701.86
257.45	1751.01
257.67	1691.62
257.88	1691.62
258.10	1775.59
258.32	1804.26
258.53	1669.09
258.75	1789.92
258.97	1644.52
259.18	1675.24
259.40	1777.64
259.62	1834.98
259.83	1783.78
260.05	1710.05
260.27	1947.62
260.48	1736.68
260.70	1611.75
260.92	1705.96
261.13	1771.49
261.35	1738.73
261.57	1740.77
261.78	1652.71
262.00	1626.09
262.22	1771.49
262.43	1660.90
262.65	1736.68
262.86	1714.15
263.08	1841.12
263.30	1734.63
263.51	1597.42
263.73	1701.86
263.95	1730.53
264.16	1683.43
264.38	1705.96
264.60	1675.24
264.81	1673.19
265.03	1703.91
265.25	1755.11
265.46	1705.96
265.68	1785.83
265.89	1726.44
266.11	1585.13
266.33	1732.58
266.54	1714.15
266.76	1708.01
266.98	1832.93
267.19	1812.45
267.41	1730.53
267.62	1716.20
267.84	1650.66
268.06	1673.19
268.27	1701.86
268.49	1828.84
268.70	1710.05
268.92	1744.87
269.14	1677.29
269.35	1699.81
269.57	1687.53
269.79	1742.82
270.00	1703.91
270.22	1865.70
270.43	1650.66
270.65	1603.56
270.87	1621.99
271.08	1773.54
271.30	1658.85
271.51	1730.53
271.73	1701.86
271.95	1748.97
272.16	1697.77
272.38	1708.01
272.59	1769.44
272.81	1697.77
273.02	1695.72
273.24	1714.15
273.46	1763.30
273.67	1640.42
273.89	1648.61
274.10	1650.66
274.32	1744.87
274.54	1753.06
274.75	1685.48
274.97	1568.74
275.18	1736.68
275.40	1755.11
275.61	1660.90
275.83	1818.60
276.05	1669.09
276.26	1742.82
276.48	1699.81
276.69	1714.15
276.91	1677.29
277.12	1820.64
277.34	1720.29
277.55	1679.33
277.77	1665.00
277.99	1693.67
278.20	1624.04
278.42	1656.81
278.63	1669.09
278.85	1640.42
279.06	1665.00
279.28	1742.82
279.49	1746.92
279.71	1814.50
279.93	1660.90
280.14	1744.87
280.36	1652.71
280.57	1841.12
280.79	1759.21
281.00	1667.05
281.22	1660.90
281.43	1734.63
281.65	1583.08
281.86	1724.39
282.08	1757.16
282.29	1775.59
282.51	1654.76
282.73	1669.09
282.94	1624.04
283.16	1728.49
283.37	1851.36
283.59	1720.29
283.80	1726.44
284.02	1695.72
284.23	1751.01
284.45	1689.57
284.66	1642.47
284.88	1708.01
285.09	1679.33
285.31	1751.01
285.52	1683.43
285.74	1574.89
285.95	1773.54
286.17	1742.82
286.38	1791.97
286.60	1730.53
286.81	1681.38
287.03	1650.66
287.24	1763.30
287.46	1763.30
287.67	1748.97
287.89	1853.41
288.10	1685.48
288.32	1675.24
288.53	1740.77
288.75	1656.81
288.96	1734.63
289.18	1724.39
289.39	1720.29
289.61	1759.21
289.82	1812.45
290.04	1822.69
290.25	1683.43
290.47	1656.81
290.68	1685.48
290.90	1740.77
291.11	1705.96
291.33	1681.38
291.54	1677.29
291.76	1656.81
291.97	1748.97
292.18	1673.19
292.40	1689.57
292.61	1730.53
292.83	1820.64
293.04	1675.24
293.26	1759.21
293.47	1660.90
293.69	1703.91
293.90	1681.38
294.12	1763.30
294.33	1685.48
294.55	1714.15
294.76	1791.97
294.97	1751.01
295.19	1757.16
295.40	1630.18
295.62	1665.00
295.83	1746.92
296.05	1695.72
296.26	1867.75
296.48	1593.32
296.69	1732.58
296.90	1708.01
297.12	1789.92
297.33	1775.59
297.55	1746.92
297.76	1763.30
297.98	1759.21
298.19	1648.61
298.41	1648.61
298.62	1695.72
298.83	1855.46
299.05	1748.97
299.26	1662.95
299.48	1701.86
299.69	1732.58
299.90	1751.01
300.12	1681.38
300.33	1716.20
300.55	1689.57
300.76	1683.43
300.98	1734.63
301.19	1771.49
301.40	1728.49
301.62	1730.53
301.83	1751.01
302.05	1716.20
302.26	1679.33
302.47	1652.71
302.69	1630.18
302.90	1656.81
303.12	1603.56
303.33	1763.30
303.54	1787.88
303.76	1583.08
303.97	1769.44
304.19	1886.18
304.40	1673.19
304.61	1699.81
304.83	1853.41
305.04	1757.16
305.26	1779.68
305.47	1685.48
305.68	1724.39
305.90	1712.10
306.11	1757.16
306.33	1771.49
306.54	1624.04
306.75	1640.42
306.97	1574.89
307.18	1630.18
307.39	1732.58
307.61	1785.83
307.82	1732.58
308.04	1703.91
308.25	1624.04
308.46	1744.87
308.68	1695.72
308.89	1701.86
309.10	1730.53
309.32	1716.20
309.53	1681.38
309.74	1662.95
309.96	1673.19
310.17	1845.22
310.39	1720.29
310.60	1773.54
310.81	1667.05
311.03	1607.66
311.24	1837.03
311.45	1714.15
311.67	1755.11
311.88	1617.90
312.09	1732.58
312.31	1689.57
312.52	1687.53
312.73	1654.76
312.95	1624.04
313.16	1683.43
313.37	1781.73
313.59	1728.49
313.80	1705.96
314.01	1763.30
314.23	1691.62
314.44	1695.72
314.65	1714.15
314.87	1632.23
315.08	1603.56
315.29	1722.34
315.51	1619.94
315.72	1621.99
315.93	1847.27
316.15	1718.25
316.36	1734.63
316.57	1712.10
316.79	1730.53
317.00	1624.04
317.21	1701.86
317.43	1640.42
317.64	1726.44
317.85	1677.29
318.07	1681.38
318.28	1839.08
318.49	1880.04
318.70	1923.04
318.92	1826.79
319.13	1824.74
319.34	1880.04
319.56	1832.93
319.77	1845.22
319.98	1822.69
320.20	1751.01
320.41	1806.31
320.62	1789.92
320.83	1609.70
321.05	1789.92
321.26	1779.68
321.47	1675.24
321.69	1726.44
321.90	1708.01
322.11	1697.77
322.32	1720.29
322.54	1751.01
322.75	1773.54
322.96	1812.45
323.18	1626.09
323.39	1574.89
323.60	1648.61
323.81	1744.87
324.03	1722.34
324.24	1720.29
324.45	1769.44
324.66	1689.57
324.88	1765.35
325.09	1746.92
325.30	1671.14
325.52	1673.19
325.73	1763.30
325.94	1697.77
326.15	1570.79
326.37	1624.04
326.58	1796.07
326.79	1757.16
327.00	1751.01
327.22	1738.73
327.43	1705.96
327.64	1640.42
327.85	1769.44
328.07	1679.33
328.28	1779.68
328.49	1746.92
328.70	1646.57
328.92	1716.20
329.13	1728.49
329.34	1732.58
329.55	1851.36
329.76	1755.11
329.98	1667.05
330.19	1806.31
330.40	1781.73
330.61	1656.81
330.83	1705.96
331.04	1650.66
331.25	1699.81
331.46	1632.23
331.68	1578.98
331.89	1771.49
332.10	1775.59
332.31	1609.70
332.52	1673.19
332.74	1730.53
332.95	1638.38
333.16	1669.09
333.37	1783.78
333.58	1765.35
333.80	1650.66
334.01	1677.29
334.22	1767.40
334.43	1603.56
334.64	1703.91
334.86	1720.29
335.07	1744.87
335.28	1773.54
335.49	1587.18
335.70	1681.38
335.92	1753.06
336.13	1863.65
336.34	1757.16
336.55	1701.86
336.76	1728.49
336.98	1652.71
337.19	1660.90
337.40	1746.92
337.61	1912.80
337.82	1728.49
338.04	1720.29
338.25	1546.22
338.46	1640.42
338.67	1742.82
338.88	1591.27
339.09	1595.37
339.31	1660.90
339.52	1613.80
339.73	1615.85
339.94	1789.92
340.15	1759.21
340.36	1748.97
340.58	1751.01
340.79	1722.34
341.00	1667.05
341.21	1615.85
341.42	1845.22
341.63	1640.42
341.85	1763.30
342.06	1755.11
342.27	1656.81
342.48	1814.50
342.69	1656.81
342.90	1724.39
343.12	1691.62
343.33	1669.09
343.54	1693.67
343.75	1804.26
343.96	1634.28
344.17	1718.25
344.38	1701.86
344.60	1695.72
344.81	1656.81
345.02	1714.15
345.23	1732.58
345.44	1849.32
345.65	1695.72
345.86	1708.01
346.07	1767.40
346.29	1652.71
346.50	1759.21
346.71	1728.49
346.92	1751.01
347.13	1837.03
347.34	1710.05
347.55	1740.77
347.76	1763.30
347.98	1689.57
348.19	1665.00
348.40	1738.73
348.61	1656.81
348.82	1740.77
349.03	1757.16
349.24	1624.04
349.45	1832.93
349.66	1585.13
349.88	1767.40
350.09	1710.05
350.30	1779.68
350.51	1871.84
350.72	1693.67
350.93	1765.35
351.14	1705.96
351.35	1789.92
351.56	1691.62
351.77	1744.87
351.99	1755.11
352.20	1785.83
352.41	1787.88
352.62	1544.17
352.83	1708.01
353.04	1738.73
353.25	1722.34
353.46	1824.74
353.67	1798.12
353.88	1533.93
354.09	1728.49
354.30	1705.96
354.52	1802.21
354.73	1697.77
354.94	1677.29
355.15	1722.34
355.36	1828.84
355.57	1660.90
355.78	1673.19
355.99	1718.25
356.20	1656.81
356.41	1742.82
356.62	1759.21
356.83	1710.05
357.04	1843.17
357.25	1656.81
357.46	1740.77
357.68	1632.23
357.89	1681.38
358.10	1746.92
358.31	1726.44
358.52	1677.29
358.73	1656.81
358.94	1673.19
359.15	1718.25
359.36	1755.11
359.57	1738.73
359.78	1697.77
359.99	1689.57
360.20	1626.09
360.41	1701.86
360.62	1781.73
360.83	1742.82
361.04	1648.61
361.25	1738.73
361.46	1787.88
361.67	1724.39
361.88	1763.30
362.09	1740.77
362.30	1744.87
362.51	1716.20
362.72	1660.90
362.93	1751.01
363.14	1726.44
363.35	1751.01
363.56	1626.09
363.78	1648.61
363.99	1738.73
364.20	1716.20
364.41	1697.77
364.62	1798.12
364.83	1726.44
365.04	1695.72
365.25	1617.90
365.46	1812.45
365.67	1638.38
365.88	1695.72
366.09	1681.38
366.30	1699.81
366.51	1796.07
366.72	1630.18
366.93	1683.43
367.14	1730.53
367.35	1783.78
367.56	1675.24
367.77	1849.32
367.98	1705.96
368.18	1710.05
368.39	1746.92
368.60	1660.90
368.81	1720.29
369.02	1722.34
369.23	1687.53
369.44	1652.71
369.65	1681.38
369.86	1800.16
370.07	1765.35
370.28	1675.24
370.49	1712.10
370.70	1742.82
370.91	1683.43
371.12	1585.13
371.33	1738.73
371.54	1613.80
371.75	1781.73
371.96	1615.85
372.17	1779.68
372.38	1726.44
372.59	1701.86
372.80	1656.81
373.01	1673.19
373.22	1742.82
373.43	1751.01
373.64	1705.96
373.85	1685.48
374.06	1839.08
374.26	1726.44
374.47	1734.63
374.68	1775.59
374.89	1734.63
375.10	1701.86
375.31	1771.49
375.52	1693.67
375.73	1794.02
375.94	1681.38
376.15	1775.59
376.36	1617.90
376.57	1736.68
376.78	1683.43
376.99	1730.53
377.20	1804.26
377.40	1644.52
377.61	1822.69
377.82	1644.52
378.03	1716.20
378.24	1742.82
378.45	1720.29
378.66	1732.58
378.87	1624.04
379.08	1667.05
379.29	1701.86
379.50	1847.27
379.71	1751.01
379.91	1818.60
380.12	1658.85
380.33	1789.92
380.54	1722.34
380.75	1753.06
380.96	1679.33
381.17	1769.44
381.38	1736.68
381.59	1724.39
381.80	1789.92
382.00	1898.47
382.21	1744.87
382.42	1900.52
382.63	1824.74
382.84	1742.82
383.05	1742.82
383.26	1773.54
383.47	1732.58
383.68	1742.82
383.88	1708.01
384.09	1787.88
384.30	1859.56
384.51	1742.82
384.72	1673.19
384.93	1644.52
385.14	1685.48
385.35	1779.68
385.55	1763.30
385.76	1746.92
385.97	1689.57
386.18	1738.73
386.39	1658.85
386.60	1701.86
386.81	1679.33
387.02	1710.05
387.22	1726.44
387.43	1845.22
387.64	1791.97
387.85	1882.08
388.06	2256.86
388.27	4515.77
388.48	9039.73
388.68	11726.67
388.89	13469.49
389.10	14208.81
389.31	11921.23
389.52	9652.08
389.73	8513.41
389.93	7651.21
390.14	7333.78
390.35	6707.10
390.56	5875.62
390.77	5017.52
390.98	3905.48
391.18	2998.23
391.39	2367.45
391.60	1959.91
391.81	1873.89
392.02	1697.77
392.23	1935.33
392.43	1710.05
392.64	1832.93
392.85	1763.30
393.06	1863.65
393.27	1697.77
393.47	1689.57
393.68	1755.11
393.89	1679.33
394.10	1830.88
394.31	1687.53
394.52	1687.53
394.72	1738.73
394.93	1773.54
395.14	1597.42
395.35	1726.44
395.56	1652.71
395.76	1724.39
395.97	1834.98
396.18	1853.41
396.39	1925.09
396.60	2068.45
396.80	1935.33
397.01	1871.84
397.22	1853.41
397.43	1904.61
397.64	1847.27
397.84	1863.65
398.05	1849.32
398.26	1861.60
398.47	1781.73
398.67	1830.88
398.88	1730.53
399.09	1742.82
399.30	1630.18
399.51	1734.63
399.71	1697.77
399.92	1681.38
400.13	1720.29
400.34	1755.11
400.54	1652.71
400.75	1755.11
400.96	1742.82
401.17	1832.93
401.37	1708.01
401.58	1716.20
401.79	1775.59
402.00	1873.89
402.21	2056.16
402.41	2099.17
402.62	2074.59
402.83	2095.07
403.04	2148.32
403.24	2148.32
403.45	1904.61
403.66	2045.92
403.87	1884.13
404.07	1937.38
404.28	2009.06
404.49	1937.38
404.70	1839.08
404.90	1812.45
405.11	1791.97
405.32	1710.05
405.52	1669.09
405.73	1693.67
405.94	1621.99
406.15	1675.24
406.35	1736.68
406.56	1705.96
406.77	1722.34
406.98	1810.40
407.18	1673.19
407.39	1777.64
407.60	1748.97
407.80	1673.19
408.01	1642.47
408.22	1771.49
408.43	1654.76
408.63	1693.67
408.84	1748.97
409.05	1755.11
409.25	1777.64
409.46	1656.81
409.67	1744.87
409.88	1769.44
410.08	1736.68
410.29	1714.15
410.50	1695.72
410.70	1773.54
410.91	1791.97
411.12	1650.66
411.32	1722.34
411.53	1697.77
411.74	1867.75
411.95	1820.64
412.15	1800.16
412.36	1830.88
412.57	1863.65
412.77	1826.79
412.98	1730.53
413.19	1757.16
413.39	1687.53
413.60	1800.16
413.81	1710.05
414.01	1687.53
414.22	1779.68
414.43	1730.53
414.63	1705.96
414.84	1748.97
415.05	1773.54
415.25	1628.14
415.46	1728.49
415.67	1724.39
415.87	1695.72
416.08	1701.86
416.29	1705.96
416.49	1779.68
416.70	1746.92
416.91	1691.62
417.11	1693.67
417.32	1742.82
417.53	1767.40
417.73	1658.85
417.94	1654.76
418.15	1699.81
418.35	1718.25
418.56	1751.01
418.77	1877.99
418.97	1751.01
419.18	1654.76
419.38	1601.51
419.59	1701.86
419.80	1888.23
420.00	1697.77
420.21	1712.10
420.42	1763.30
420.62	1751.01
420.83	1630.18
421.04	1660.90
421.24	1662.95
421.45	1777.64
421.65	1783.78
421.86	1648.61
422.07	1800.16
422.27	1703.91
422.48	1800.16
422.69	1665.00
422.89	1683.43
423.10	1636.33
423.30	1691.62
423.51	1740.77
423.72	1714.15
423.92	1673.19
424.13	1650.66
424.33	1839.08
424.54	1728.49
424.75	1621.99
424.95	1789.92
425.16	1699.81
425.36	1722.34
425.57	1771.49
425.78	1695.72
425.98	1726.44
426.19	1654.76
426.39	1658.85
426.60	1738.73
426.81	1822.69
427.01	1695.72
427.22	1728.49
427.42	1632.23
427.63	1656.81
427.83	1765.35
428.04	1736.68
428.25	1841.12
428.45	1748.97
428.66	1820.64
428.86	1708.01
429.07	1724.39
429.28	1701.86
429.48	1728.49
429.69	1701.86
429.89	1724.39
430.10	1724.39
430.30	1671.14
430.51	1791.97
430.71	1712.10
430.92	1753.06
431.13	1611.75
431.33	1773.54
431.54	1710.05
431.74	1789.92
431.95	1800.16
432.15	1634.28
432.36	1744.87
432.56	1832.93
432.77	1804.26
432.98	1755.11
433.18	1677.29
433.39	1671.14
433.59	1744.87
433.80	1845.22
434.00	1857.51
434.21	1673.19
434.41	1728.49
434.62	1837.03
434.82	1642.47
435.03	1574.89
435.23	1701.86
435.44	1597.42
435.64	1673.19
435.85	1714.15
436.06	1759.21
436.26	1703.91
436.47	1662.95
436.67	1652.71
436.88	1716.20
437.08	1701.86
437.29	1757.16
437.49	1689.57
437.70	1847.27
437.90	1724.39
438.11	1832.93
438.31	1830.88
438.52	1896.42
438.72	1904.61
438.93	1959.91
439.13	1830.88
439.34	1865.70
439.54	1808.36
439.75	1865.70
439.95	1789.92
440.16	1734.63
440.36	1701.86
440.57	1849.32
440.77	1771.49
440.98	1751.01
441.18	1767.40
441.39	1683.43
441.59	1662.95
441.80	1810.40
442.00	1724.39
442.21	1804.26
442.41	1685.48
442.62	1796.07
442.82	1642.47
443.02	1724.39
443.23	1701.86
443.43	1742.82
443.64	1834.98
443.84	1755.11
444.05	1830.88
444.25	1777.64
444.46	1681.38
444.66	1812.45
444.87	1787.88
445.07	1640.42
445.28	1771.49
445.48	1832.93
445.69	1755.11
445.89	1873.89
446.09	1724.39
446.30	1988.58
446.50	2537.43
446.71	4151.23
446.91	5109.68
447.12	5967.78
447.32	5945.25
447.53	5326.77
447.73	4366.27
447.93	3946.44
448.14	3569.61
448.34	3467.21
448.55	3039.19
448.75	3020.75
448.96	2979.79
449.16	2707.41
449.36	2424.80
449.57	2197.47
449.77	1992.67
449.98	1771.49
450.18	1816.55
450.39	1804.26
450.59	1744.87
450.79	1652.71
451.00	1765.35
451.20	1804.26
451.41	1624.04
451.61	1740.77
451.81	1746.92
452.02	1732.58
452.22	1742.82
452.43	1748.97
452.63	1621.99
452.84	1671.14
453.04	1693.67
453.24	1724.39
453.45	1718.25
453.65	1687.53
453.86	1783.78
454.06	1732.58
454.26	1683.43
454.47	1656.81
454.67	1884.13
454.87	1812.45
455.08	1791.97
455.28	1837.03
455.49	1775.59
455.69	1683.43
455.89	1832.93
456.10	1761.25
456.30	1705.96
456.51	1826.79
456.71	1732.58
456.91	1769.44
457.12	1701.86
457.32	1691.62
457.52	1679.33
457.73	1759.21
457.93	1763.30
458.14	1744.87
458.34	1615.85
458.54	1705.96
458.75	1763.30
458.95	1736.68
459.15	1804.26
459.36	1783.78
459.56	1734.63
459.76	1841.12
459.97	1738.73
460.17	1699.81
460.37	1730.53
460.58	1679.33
460.78	1767.40
460.99	1673.19
461.19	1798.12
461.39	1759.21
461.60	1802.21
461.80	1701.86
462.00	1585.13
462.21	1703.91
462.41	1724.39
462.61	1718.25
462.82	1640.42
463.02	1701.86
463.22	1697.77
463.43	1796.07
463.63	1697.77
463.83	1746.92
464.04	1763.30
464.24	1779.68
464.44	1673.19
464.64	1701.86
464.85	1771.49
465.05	1763.30
465.25	1728.49
465.46	1759.21
465.66	1808.36
465.86	1740.77
466.07	1794.02
466.27	1716.20
466.47	1660.90
466.68	1679.33
466.88	1857.51
467.08	1816.55
467.29	1779.68
467.49	1798.12
467.69	1701.86
467.89	1699.81
468.10	1718.25
468.30	1753.06
468.50	1818.60
468.71	1714.15
468.91	1703.91
469.11	1875.94
469.31	1712.10
469.52	1675.24
469.72	1808.36
469.92	1841.12
470.13	1726.44
470.33	1775.59
470.53	1873.89
470.73	2136.03
470.94	2566.10
471.14	2699.22
471.34	3006.42
471.54	2940.88
471.75	2492.38
471.95	2273.25
472.15	2195.42
472.36	2166.75
472.56	2166.75
472.76	2160.61
472.96	2066.40
473.17	2004.96
473.37	1990.63
473.57	1853.41
473.77	1861.60
473.98	1832.93
474.18	1738.73
474.38	1834.98
474.58	1777.64
474.79	1644.52
474.99	1787.88
475.19	1796.07
475.39	1708.01
475.60	1732.58
475.80	1771.49
476.00	1714.15
476.20	1730.53
476.41	1740.77
476.61	1779.68
476.81	1859.56
477.01	1701.86
477.21	1863.65
477.42	1865.70
477.62	1773.54
477.82	1775.59
478.02	1644.52
478.23	1726.44
478.43	1761.25
478.63	1697.77
478.83	1771.49
479.03	1705.96
479.24	1710.05
479.44	1933.28
479.64	1679.33
479.84	1638.38
480.04	1697.77
480.25	1757.16
480.45	1726.44
480.65	1726.44
480.85	1843.17
481.06	1763.30
481.26	1728.49
481.46	1767.40
481.66	1777.64
481.86	1720.29
482.06	1841.12
482.27	1656.81
482.47	1667.05
482.67	1722.34
482.87	1746.92
483.07	1822.69
483.28	1646.57
483.48	1652.71
483.68	1748.97
483.88	1714.15
484.08	1535.98
484.29	1630.18
484.49	1669.09
484.69	1675.24
484.89	1779.68
485.09	1775.59
485.29	1763.30
485.50	1779.68
485.70	1763.30
485.90	1765.35
486.10	1744.87
486.30	1712.10
486.50	1730.53
486.71	1771.49
486.91	1751.01
487.11	1843.17
487.31	1621.99
487.51	1736.68
487.71	1675.24
487.91	1595.37
488.12	1695.72
488.32	1648.61
488.52	1718.25
488.72	1640.42
488.92	1718.25
489.12	1759.21
489.32	1777.64
489.53	1794.02
489.73	1701.86
489.93	1808.36
490.13	1718.25
490.33	1611.75
490.53	1744.87
490.73	1757.16
490.94	1626.09
491.14	1814.50
491.34	1849.32
491.54	2109.41
491.74	2715.61
491.94	3254.22
492.14	3495.88
492.34	3491.79
492.54	3166.16
492.75	2748.37
492.95	2637.78
493.15	2387.93
493.35	2357.21
493.55	2297.82
493.75	2127.84
493.95	2306.01
494.15	2082.78
494.35	2004.96
494.56	2009.06
494.76	1802.21
494.96	1740.77
495.16	1822.69
495.36	1751.01
495.56	1699.81
495.76	1796.07
495.96	1683.43
496.16	1761.25
496.36	1859.56
496.56	1691.62
496.77	1736.68
496.97	1767.40
497.17	1855.46
497.37	1644.52
497.57	1710.05
497.77	1691.62
497.97	1652.71
498.17	1648.61
498.37	1724.39
498.57	1802.21
498.77	1701.86
498.97	1738.73
499.17	1830.88
499.38	1740.77
499.58	1798.12
499.78	1802.21
499.98	1777.64
500.18	1734.63
500.38	1730.53
500.58	1857.51
500.78	2430.94
500.98	4784.06
501.18	6653.85
501.38	8243.07
501.58	9054.07
501.78	8791.93
501.98	6819.74
502.18	5748.65
502.38	4923.32
502.58	4505.53
502.78	4087.75
502.98	3833.80
503.18	3823.56
503.38	3436.49
503.59	3131.34
503.79	2981.84
503.99	2592.73
504.19	2463.71
504.39	2349.02
504.59	2291.68
504.79	2363.36
504.99	2246.62
505.19	2056.16
505.39	1937.38
505.59	2035.68
505.79	1964.00
505.99	1892.32
506.19	1861.60
506.39	1976.29
506.59	1755.11
506.79	1824.74
506.99	1857.51
507.19	1789.92
507.39	1751.01
507.59	1701.86
507.79	1697.77
507.99	1753.06
508.19	1877.99
508.39	1730.53
508.59	1701.86
508.79	1808.36
508.99	1861.60
509.19	1722.34
509.39	1753.06
509.59	1615.85
509.79	1734.63
509.99	1798.12
510.19	1814.50
510.39	1753.06
510.59	1779.68
510.79	1769.44
510.99	1669.09
511.19	1755.11
511.39	1816.55
511.59	1824.74
511.79	1880.04
511.99	1662.95
512.19	1818.60
512.38	1726.44
512.58	1691.62
512.78	1730.53
512.98	1789.92
513.18	1798.12
513.38	1667.05
513.58	1783.78
513.78	1685.48
513.98	1730.53
514.18	1644.52
514.38	1685.48
514.58	1742.82
514.78	1673.19
514.98	1679.33
515.18	1771.49
515.38	1753.06
515.58	1877.99
515.78	1724.39
515.98	1705.96
516.18	1826.79
516.38	1763.30
516.57	1767.40
516.77	1695.72
516.97	1722.34
517.17	1742.82
517.37	1656.81
517.57	1744.87
517.77	1681.38
517.97	1720.29
518.17	1765.35
518.37	1697.77
518.57	1701.86
518.77	1634.28
518.97	1746.92
519.16	1705.96
519.36	1820.64
519.56	1730.53
519.76	1753.06
519.96	1718.25
520.16	1771.49
520.36	1656.81
520.56	1734.63
520.76	1732.58
520.96	1744.87
521.16	1753.06
521.35	1816.55
521.55	1810.40
521.75	1757.16
521.95	1687.53
522.15	1763.30
522.35	1652.71
522.55	1597.42
522.75	1738.73
522.95	1697.77
523.14	1710.05
523.34	1691.62
523.54	1742.82
523.74	1755.11
523.94	1738.73
524.14	1722.34
524.34	1734.63
524.54	1880.04
524.73	1687.53
524.93	1748.97
525.13	1748.97
525.33	1695.72
525.53	1888.23
525.73	1794.02
525.93	1687.53
526.13	1634.28
526.32	1730.53
526.52	1763.30
526.72	1744.87
526.92	1699.81
527.12	1683.43
527.32	1716.20
527.52	1765.35
527.71	1759.21
527.91	1736.68
528.11	1703.91
528.31	1740.77
528.51	1710.05
528.71	1777.64
528.90	1730.53
529.10	1763.30
529.30	1742.82
529.50	1656.81
529.70	1777.64
529.90	1673.19
530.09	1687.53
530.29	1716.20
530.49	1681.38
530.69	1931.23
530.89	1738.73
531.09	1763.30
531.28	1773.54
531.48	1816.55
531.68	1705.96
531.88	1812.45
532.08	1771.49
532.28	1671.14
532.47	1861.60
532.67	1828.84
532.87	1773.54
533.07	1677.29
533.27	1810.40
533.46	1839.08
533.66	1800.16
533.86	1724.39
534.06	1736.68
534.26	1810.40
534.45	1726.44
534.65	1845.22
534.85	1763.30
535.05	1712.10
535.25	1818.60
535.44	1667.05
535.64	1798.12
535.84	1705.96
536.04	1765.35
536.24	1675.24
536.43	1732.58
536.63	1771.49
536.83	1705.96
537.03	1724.39
537.22	1621.99
537.42	1648.61
537.62	1740.77
537.82	1734.63
538.02	1734.63
538.21	1828.84
538.41	1869.80
538.61	1787.88
538.81	1681.38
539.00	1824.74
539.20	1632.23
539.40	1763.30
539.60	1748.97
539.79	1751.01
539.99	1775.59
540.19	1757.16
540.39	1679.33
540.58	1738.73
540.78	1775.59
540.98	1703.91
541.18	1744.87
541.37	1716.20
541.57	1654.76
541.77	1736.68
541.97	1716.20
542.16	1667.05
542.36	1654.76
542.56	1791.97
542.76	1888.23
542.95	1771.49
543.15	1751.01
543.35	1804.26
543.54	1671.14
543.74	1732.58
543.94	1796.07
544.14	1673.19
544.33	1800.16
544.53	1751.01
544.73	1736.68
544.93	1738.73
545.12	1630.18
545.32	1763.30
545.52	1769.44
545.71	1656.81
545.91	1662.95
546.11	1710.05
546.30	1689.57
546.50	1740.77
546.70	1746.92
546.90	1751.01
547.09	1638.38
547.29	1646.57
547.49	1730.53
547.68	1720.29
547.88	1669.09
548.08	1779.68
548.27	2222.05
548.47	1615.85
548.67	1697.77
548.87	1794.02
549.06	1751.01
549.26	1787.88
549.46	1728.49
549.65	1691.62
549.85	1708.01
550.05	1837.03
550.24	1624.04
550.44	1748.97
550.64	1716.20
550.83	1673.19
551.03	1845.22
551.23	1759.21
551.42	1812.45
551.62	1677.29
551.82	1777.64
552.01	1720.29
552.21	1808.36
552.41	1777.64
552.60	1818.60
552.80	1748.97
553.00	1701.86
553.19	1791.97
553.39	1834.98
553.59	1681.38
553.78	1810.40
553.98	1730.53
554.17	1648.61
554.37	1802.21
554.57	1779.68
554.76	1667.05
554.96	1710.05
555.16	1761.25
555.35	1751.01
555.55	1699.81
555.75	1845.22
555.94	1740.77
556.14	1648.61
556.33	1775.59
556.53	1681.38
556.73	1804.26
556.92	1802.21
557.12	1843.17
557.32	1843.17
557.51	1775.59
557.71	1785.83
557.90	1853.41
558.10	1816.55
558.30	1728.49
558.49	1730.53
558.69	1734.63
558.88	1798.12
559.08	1718.25
559.28	1826.79
559.47	1708.01
559.67	1791.97
559.86	1867.75
560.06	1724.39
560.26	1734.63
560.45	1755.11
560.65	1787.88
560.84	1832.93
561.04	1699.81
561.24	1677.29
561.43	1646.57
561.63	1839.08
561.82	1773.54
562.02	1701.86
562.22	1630.18
562.41	1646.57
562.61	1703.91
562.80	1779.68
563.00	1822.69
563.19	1791.97
563.39	1861.60
563.59	1767.40
563.78	1730.53
563.98	1650.66
564.17	1708.01
564.37	1644.52
564.56	1746.92
564.76	1611.75
564.96	1851.36
565.15	1714.15
565.35	1904.61
565.54	1730.53
565.74	1722.34
565.93	1783.78
566.13	1650.66
566.32	1777.64
566.52	1763.30
566.71	1703.91
566.91	1746.92
567.11	1728.49
567.30	1732.58
567.50	1826.79
567.69	1755.11
567.89	1738.73
568.08	1708.01
568.28	1734.63
568.47	1583.08
568.67	1732.58
568.86	1775.59
569.06	1810.40
569.25	1730.53
569.45	1765.35
569.64	1714.15
569.84	1757.16
570.04	1775.59
570.23	1712.10
570.43	1753.06
570.62	1769.44
570.82	1769.44
571.01	1722.34
571.21	1644.52
571.40	1712.10
571.60	1837.03
571.79	1796.07
571.99	1804.26
572.18	1693.67
572.38	1751.01
572.57	1671.14
572.77	1783.78
572.96	1849.32
573.16	1751.01
573.35	1765.35
573.55	1855.46
573.74	1814.50
573.94	1775.59
574.13	1662.95
574.33	1771.49
574.52	1849.32
574.71	1744.87
574.91	1785.83
575.10	1697.77
575.30	1712.10
575.49	1765.35
575.69	1757.16
575.88	1796.07
576.08	1757.16
576.27	1814.50
576.47	1722.34
576.66	1902.56
576.86	1857.51
577.05	1730.53
577.25	1800.16
577.44	1923.04
577.64	1783.78
577.83	1822.69
578.02	1705.96
578.22	1855.46
578.41	1839.08
578.61	1767.40
578.80	1632.23
579.00	1703.91
579.19	1740.77
579.39	1822.69
579.58	1826.79
579.77	1775.59
579.97	1820.64
580.16	1849.32
580.36	1900.52
580.55	1902.56
580.75	1746.92
580.94	1775.59
581.13	1867.75
581.33	1789.92
581.52	1849.32
581.72	1828.84
581.91	1820.64
582.11	1740.77
582.30	1794.02
582.49	1785.83
582.69	1920.99
582.88	1796.07
583.08	1767.40
583.27	1773.54
583.47	1787.88
583.66	1726.44
583.85	1740.77
584.05	1685.48
584.24	1820.64
584.44	1785.83
584.63	1826.79
584.82	1849.32
585.02	1791.97
585.21	1859.56
585.41	1888.23
585.60	1894.37
585.79	1968.10
585.99	1951.71
586.18	1908.71
586.37	2133.98
586.57	3340.24
586.76	9750.38
586.96	26732.14
587.15	41328.01
587.34	51752.17
587.54	57674.90
587.73	55674.03
587.93	40244.63
588.12	29439.55
588.31	23598.74
588.51	19998.41
588.70	18323.18
588.89	16873.21
589.09	15066.91
589.28	13518.64
589.47	11460.43
589.67	9402.22
589.86	7419.79
590.06	5423.02
590.25	4118.47
590.44	3188.69
590.64	2641.88
590.83	2308.06
591.02	2133.98
591.22	2043.87
591.41	1837.03
591.60	1806.31
591.80	1908.71
591.99	1849.32
592.18	1787.88
592.38	1865.70
592.57	1673.19
592.76	1791.97
592.96	1796.07
593.15	1753.06
593.34	1826.79
593.54	1806.31
593.73	1847.27
593.92	1767.40
594.12	1783.78
594.31	1847.27
594.50	1830.88
594.70	1865.70
594.89	1896.42
595.08	1665.00
595.28	1810.40
595.47	1845.22
595.66	1886.18
595.86	1679.33
596.05	1738.73
596.24	1765.35
596.43	1816.55
596.63	1816.55
596.82	1814.50
597.01	1746.92
597.21	1806.31
597.40	1757.16
597.59	1800.16
597.79	1783.78
597.98	1851.36
598.17	1761.25
598.36	1730.53
598.56	1843.17
598.75	1658.85
598.94	1808.36
599.14	1738.73
599.33	1689.57
599.52	1804.26
599.71	1820.64
599.91	1849.32
600.10	1738.73
600.29	1828.84
600.48	1779.68
600.68	1767.40
600.87	1714.15
601.06	1740.77
601.26	1732.58
601.45	1693.67
601.64	1769.44
601.83	1765.35
602.03	1726.44
602.22	1671.14
602.41	1757.16
602.60	1832.93
602.80	1726.44
602.99	1759.21
603.18	1755.11
603.37	1777.64
603.57	1712.10
603.76	1720.29
603.95	1834.98
604.14	1710.05
604.34	1693.67
604.53	1767.40
604.72	1771.49
604.91	1816.55
605.10	1785.83
605.30	1673.19
605.49	1923.04
605.68	1681.38
605.87	1732.58
606.07	1648.61
606.26	1669.09
606.45	1724.39
606.64	1773.54
606.84	1718.25
607.03	1773.54
607.22	1804.26
607.41	1771.49
607.60	1839.08
607.80	1865.70
607.99	1757.16
608.18	1728.49
608.37	1730.53
608.56	1755.11
608.76	1757.16
608.95	1826.79
609.14	1830.88
609.33	1851.36
609.52	1841.12
609.72	1955.81
609.91	1884.13
610.10	1808.36
610.29	1794.02
610.48	1812.45
610.68	1828.84
610.87	1804.26
611.06	1869.80
611.25	1781.73
611.44	1748.97
611.63	1705.96
611.83	1861.60
612.02	1718.25
612.21	1769.44
612.40	1687.53
612.59	1626.09
612.79	1734.63
612.98	1724.39
613.17	1791.97
613.36	1732.58
613.55	1884.13
613.74	1841.12
613.93	1789.92
614.13	1959.91
614.32	1914.85
614.51	1953.76
614.70	1820.64
614.89	1789.92
615.08	1837.03
615.28	2099.17
615.47	1726.44
615.66	1826.79
615.85	1763.30
616.04	1873.89
616.23	1775.59
616.42	1740.77
616.62	1820.64
616.81	1830.88
617.00	1722.34
617.19	1814.50
617.38	1794.02
617.57	1763.30
617.76	1736.68
617.95	1794.02
618.15	1775.59
618.34	1927.14
618.53	1724.39
618.72	1804.26
618.91	1830.88
619.10	1765.35
619.29	1767.40
619.48	1722.34
619.68	1685.48
619.87	1755.11
620.06	1665.00
620.25	1736.68
620.44	1714.15
620.63	1746.92
620.82	1724.39
621.01	1728.49
621.20	1624.04
621.39	1773.54
621.59	1712.10
621.78	1779.68
621.97	1763.30
622.16	1763.30
622.35	1755.11
622.54	1818.60
622.73	1855.46
622.92	1615.85
623.11	1796.07
623.30	1705.96
623.49	1691.62
623.68	1763.30
623.88	1822.69
624.07	1755.11
624.26	1701.86
624.45	1660.90
624.64	1753.06
624.83	1796.07
625.02	1732.58
625.21	1765.35
625.40	1726.44
625.59	1865.70
625.78	1689.57
625.97	1826.79
626.16	1834.98
626.35	1806.31
626.54	1853.41
626.74	1871.84
626.93	1771.49
627.12	1769.44
627.31	1816.55
627.50	1841.12
627.69	1798.12
627.88	1728.49
628.07	1777.64
628.26	1636.33
628.45	1710.05
628.64	1656.81
628.83	1677.29
629.02	1665.00
629.21	1716.20
629.40	1763.30
629.59	1705.96
629.78	1732.58
629.97	1701.86
630.16	1763.30
630.35	1759.21
630.54	1753.06
630.73	1710.05
630.92	1708.01
631.11	1697.77
631.30	1744.87
631.49	1769.44
631.68	1751.01
631.87	1755.11
632.06	1722.34
632.25	1920.99
632.44	1798.12
632.63	1769.44
632.82	1857.51
633.01	1794.02
633.20	1861.60
633.39	1763.30
633.58	1728.49
633.77	1826.79
633.96	1783.78
634.15	1873.89
634.34	1847.27
634.53	1732.58
634.72	1705.96
634.91	1605.61
635.10	1714.15
635.29	1806.31
635.48	1748.97
635.67	1742.82
635.86	1691.62
636.05	1730.53
636.24	1767.40
636.43	1773.54
636.62	1806.31
636.81	1574.89
637.00	1685.48
637.19	1783.78
637.38	1763.30
637.57	1787.88
637.76	1712.10
637.95	1873.89
638.14	1810.40
638.33	1839.08
638.52	1783.78
638.71	1730.53
638.89	1658.85
639.08	1902.56
639.27	1834.98
639.46	1910.75
639.65	2119.65
639.84	2275.29
640.03	2398.17
640.22	2385.88
640.41	2373.60
640.60	2101.22
640.79	1959.91
640.98	1961.95
641.17	1892.32
641.36	1896.42
641.55	1855.46
641.74	1724.39
641.92	1787.88
642.11	1724.39
642.30	1822.69
642.49	1755.11
642.68	1742.82
642.87	1785.83
643.06	1779.68
643.25	1712.10
643.44	1726.44
643.63	1712.10
643.82	1773.54
644.00	1648.61
644.19	1650.66
644.38	1656.81
644.57	1726.44
644.76	1673.19
644.95	1660.90
645.14	1734.63
645.33	1662.95
645.52	1740.77
645.71	1556.46
645.89	1796.07
646.08	1736.68
646.27	1669.09
646.46	1849.32
646.65	1677.29
646.84	1669.09
647.03	1718.25
647.22	1824.74
647.40	1761.25
647.59	1767.40
647.78	1546.22
647.97	1716.20
648.16	1689.57
648.35	1818.60
648.54	1791.97
648.73	1667.05
648.91	1808.36
649.10	1724.39
649.29	1705.96
649.48	1660.90
649.67	1755.11
649.86	1701.86
650.05	1816.55
650.23	1898.47
650.42	1814.50
650.61	1945.57
650.80	1894.37
650.99	1900.52
651.18	1783.78
651.36	1808.36
651.55	1820.64
651.74	1818.60
651.93	1730.53
652.12	1730.53
652.31	1773.54
652.49	1681.38
652.68	1769.44
652.87	1888.23
653.06	1783.78
653.25	1810.40
653.44	1748.97
653.62	1794.02
653.81	1683.43
654.00	1724.39
654.19	1744.87
654.38	1851.36
654.56	1777.64
654.75	1677.29
654.94	1761.25
655.13	1730.53
655.32	1763.30
655.51	1820.64
655.69	1691.62
655.88	1726.44
656.07	1667.05
656.26	1642.47
656.45	1681.38
656.63	1818.60
656.82	1759.21
657.01	1857.51
657.20	1673.19
657.38	1814.50
657.57	1734.63
657.76	1652.71
657.95	1720.29
658.14	1724.39
658.32	1812.45
658.51	1587.18
658.70	1808.36
658.89	1824.74
659.08	1667.05
659.26	1837.03
659.45	1728.49
659.64	1771.49
659.83	1705.96
660.01	1931.23
660.20	1755.11
660.39	1894.37
660.58	1636.33
660.76	1769.44
660.95	1746.92
661.14	1775.59
661.33	1611.75
661.51	1740.77
661.70	1658.85
661.89	1699.81
662.08	1763.30
662.26	1611.75
662.45	1673.19
662.64	1769.44
662.83	1695.72
663.01	1705.96
663.20	1675.24
663.39	1830.88
663.58	1748.97
663.76	1759.21
663.95	1714.15
664.14	1615.85
664.32	1587.18
664.51	1689.57
664.70	1691.62
664.89	1781.73
665.07	1675.24
665.26	1810.40
665.45	1687.53
665.64	1789.92
665.82	1757.16
666.01	1775.59
666.20	1699.81
666.38	1837.03
666.57	1810.40
666.76	2209.76
666.95	4591.55
667.13	11499.34
667.32	18396.90
667.51	22380.20
667.69	24917.64
667.88	25357.95
668.07	19416.79
668.25	14157.61
668.44	11796.30
668.63	9815.91
668.81	8550.27
669.00	7763.85
669.19	7102.36
669.38	6082.47
669.56	5523.37
669.75	4569.02
669.94	3837.89
670.12	3016.66
670.31	2731.99
670.50	2398.17
670.68	2074.59
670.87	1955.81
671.06	1806.31
671.24	2015.20
671.43	1906.66
671.62	1734.63
671.80	1746.92
671.99	1751.01
672.18	1742.82
672.36	1751.01
672.55	1794.02
672.74	1763.30
672.92	1675.24
673.11	1765.35
673.29	1681.38
673.48	1742.82
673.67	1744.87
673.85	1748.97
674.04	1683.43
674.23	1712.10
674.41	1779.68
674.60	1681.38
674.79	1687.53
674.97	1705.96
675.16	1728.49
675.34	1699.81
675.53	1703.91
675.72	1730.53
675.90	1791.97
676.09	1656.81
676.28	1699.81
676.46	1644.52
676.65	1779.68
676.83	1638.38
677.02	1742.82
677.21	1744.87
677.39	1775.59
677.58	1759.21
677.77	1667.05
677.95	1638.38
678.14	1822.69
678.32	1693.67
678.51	1697.77
678.70	1785.83
678.88	1726.44
679.07	1732.58
679.25	1628.14
679.44	1708.01
679.63	1705.96
679.81	1705.96
680.00	1730.53
680.18	1742.82
680.37	1755.11
680.55	1669.09
680.74	1669.09
680.93	1550.31
681.11	1710.05
681.30	1699.81
681.48	1759.21
681.67	1681.38
681.85	1763.30
682.04	1699.81
682.23	1728.49
682.41	1683.43
682.60	1683.43
682.78	1703.91
682.97	1636.33
683.15	1742.82
683.34	1718.25
683.53	1744.87
683.71	1644.52
683.90	1828.84
684.08	1781.73
684.27	1718.25
684.45	1761.25
684.64	1755.11
684.82	1708.01
685.01	1710.05
685.19	1685.48
685.38	1767.40
685.57	1679.33
685.75	1705.96
685.94	1753.06
686.12	1724.39
686.31	1722.34
686.49	1800.16
686.68	1671.14
686.86	1779.68
687.05	1677.29
687.23	1806.31
687.42	1662.95
687.60	1701.86
687.79	1800.16
687.97	1810.40
688.16	1802.21
688.34	1773.54
688.53	1605.61
688.71	1775.59
688.90	1753.06
689.08	1705.96
689.27	1687.53
689.45	1763.30
689.64	1740.77
689.82	1705.96
690.01	1724.39
690.19	1671.14
690.38	1804.26
690.56	1826.79
690.75	1697.77
690.93	1679.33
691.12	1751.01
691.30	1658.85
691.49	1679.33
691.67	1734.63
691.86	1912.80
692.04	1662.95
692.23	1691.62
692.41	1769.44
692.60	1910.75
692.78	1830.88
692.97	1791.97
693.15	1808.36
693.34	1820.64
693.52	1765.35
693.71	1703.91
693.89	1691.62
694.08	1679.33
694.26	1734.63
694.44	1791.97
694.63	1753.06
694.81	1621.99
695.00	1667.05
695.18	1824.74
695.37	1916.90
695.55	1753.06
695.74	1673.19
695.92	1603.56
696.10	1839.08
696.29	1681.38
696.47	1662.95
696.66	1669.09
696.84	1658.85
697.03	1724.39
697.21	1751.01
697.40	2357.21
697.58	1808.36
697.76	1738.73
697.95	1669.09
698.13	1587.18
698.32	1640.42
698.50	1667.05
698.68	1757.16
698.87	1726.44
699.05	1767.40
699.24	1791.97
699.42	1689.57
699.61	1712.10
699.79	1818.60
699.97	1671.14
700.16	1617.90
700.34	1574.89
700.53	1726.44
700.71	1851.36
700.89	1804.26
701.08	1732.58
701.26	1738.73
701.45	2174.94
701.63	1697.77
701.81	1763.30
702.00	1730.53
702.18	1714.15
702.37	1720.29
702.55	1859.56
702.73	1910.75
702.92	1826.79
703.10	2031.58
703.28	1902.56
703.47	1935.33
703.65	1910.75
703.84	1906.66
704.02	1794.02
704.20	1957.86
704.39	1765.35
704.57	1834.98
704.75	1847.27
704.94	1830.88
705.12	1759.21
705.30	1939.43
705.49	2492.38
705.67	5447.60
705.86	13223.73
706.04	18982.62
706.22	22546.09
706.41	24899.20
706.59	24643.21
706.77	18818.78
706.96	13743.92
707.14	11913.03
707.32	10114.92
707.51	8912.76
707.69	7862.15
707.87	6786.97
708.06	5539.76
708.24	4343.74
708.42	3366.86
708.61	2877.40
708.79	2271.20
708.97	2052.06
709.16	1888.23
709.34	1920.99
709.52	1812.45
709.71	1802.21
709.89	1808.36
710.07	1722.34
710.26	1732.58
710.44	1730.53
710.62	1740.77
710.80	1671.14
710.99	1796.07
711.17	1769.44
711.35	1652.71
711.54	1640.42
711.72	1710.05
711.90	1783.78
712.09	1695.72
712.27	1701.86
712.45	1759.21
712.63	1683.43
712.82	1726.44
713.00	1736.68
713.18	1826.79
713.37	1759.21
713.55	1761.25
713.73	1738.73
713.91	1734.63
714.10	1705.96
714.28	1728.49
714.46	1656.81
714.65	1728.49
714.83	1755.11
715.01	1738.73
715.19	1662.95
715.38	1652.71
715.56	1767.40
715.74	1671.14
715.92	1660.90
716.11	1791.97
716.29	1626.09
716.47	1732.58
716.65	1742.82
716.84	1724.39
717.02	1849.32
717.20	1660.90
717.38	1697.77
717.57	1736.68
717.75	1722.34
717.93	1658.85
718.11	1791.97
718.30	1683.43
718.48	1687.53
718.66	1812.45
718.84	1777.64
719.03	1732.58
719.21	1644.52
719.39	1779.68
719.57	1767.40
719.75	1710.05
719.94	1650.66
720.12	1673.19
720.30	1685.48
720.48	1681.38
720.67	1714.15
720.85	1634.28
721.03	1667.05
721.21	1624.04
721.39	1697.77
721.58	1726.44
721.76	1730.53
721.94	1734.63
722.12	1738.73
722.30	1824.74
722.49	1740.77
722.67	1728.49
722.85	1763.30
723.03	1701.86
723.21	1701.86
723.40	1675.24
723.58	1832.93
723.76	1736.68
723.94	1808.36
724.12	1826.79
724.30	1800.16
724.49	1877.99
724.67	1687.53
724.85	1953.76
725.03	1716.20
725.21	1785.83
725.40	1759.21
725.58	1800.16
725.76	1787.88
725.94	1732.58
726.12	1665.00
726.30	1691.62
726.49	1665.00
726.67	1710.05
726.85	1693.67
727.03	1740.77
727.21	2258.91
727.39	3463.12
727.57	4898.74
727.76	5650.35
727.94	6195.11
728.12	6326.18
728.30	5629.87
728.48	4298.69
728.66	3899.33
728.84	3645.38
729.03	3188.69
729.21	2828.24
729.39	2430.94
729.57	2129.89
729.75	2009.06
729.93	1886.18
730.11	1806.31
730.30	1724.39
730.48	1697.77
730.66	1826.79
730.84	1755.11
731.02	1693.67
731.20	1611.75
731.38	1763.30
731.56	1634.28
731.74	1640.42
731.93	1677.29
732.11	1722.34
732.29	1738.73
732.47	1794.02
732.65	1738.73
732.83	1716.20
733.01	1701.86
733.19	1634.28
733.37	1773.54
733.56	1755.11
733.74	1742.82
733.92	1730.53
734.10	1691.62
734.28	1769.44
734.46	1646.57
734.64	1695.72
734.82	1689.57
735.00	1726.44
735.18	1673.19
735.36	1726.44
735.54	1648.61
735.73	1656.81
735.91	1728.49
736.09	1730.53
736.27	1740.77
736.45	1816.55
736.63	1640.42
736.81	1710.05
736.99	1798.12
737.17	1849.32
737.35	1722.34
737.53	1759.21
737.71	1632.23
737.89	1744.87
738.07	1669.09
738.25	1583.08
738.43	1677.29
738.61	1695.72
738.80	1583.08
738.98	1685.48
739.16	1736.68
739.34	1662.95
739.52	1775.59
739.70	1681.38
739.88	1798.12
740.06	1777.64
740.24	1599.46
740.42	1699.81
740.60	1640.42
740.78	1654.76
740.96	1650.66
741.14	1695.72
741.32	1746.92
741.50	1654.76
741.68	1781.73
741.86	1800.16
742.04	1689.57
742.22	1644.52
742.40	1740.77
742.58	1822.69
742.76	1681.38
742.94	1740.77
743.12	1650.66
743.30	1740.77
743.48	1781.73
743.66	1675.24
743.84	1781.73
744.02	1744.87
744.20	1705.96
744.38	1677.29
744.56	1679.33
744.74	1728.49
744.92	1753.06
745.10	1785.83
745.28	1763.30
745.46	1791.97
745.64	1718.25
745.82	1744.87
746.00	1689.57
746.18	1703.91
746.36	1685.48
746.54	1765.35
746.72	1660.90
746.90	1667.05
747.08	1806.31
747.26	1685.48
747.44	1771.49
747.62	1726.44
747.80	1728.49
747.98	1851.36
748.15	1757.16
748.33	1677.29
748.51	1693.67
748.69	1781.73
748.87	1681.38
749.05	1705.96
749.23	1699.81
749.41	1714.15
749.59	1642.47
749.77	1785.83
749.95	1730.53
750.13	1652.71
750.31	1767.40
750.49	1683.43
750.67	1697.77
750.85	1818.60
751.03	1720.29
751.20	1845.22
751.38	1728.49
751.56	1722.34
751.74	1648.61
751.92	1712.10
752.10	1673.19
752.28	1726.44
752.46	1626.09
752.64	1746.92
752.82	1779.68
753.00	1765.35
753.18	1697.77
753.35	1726.44
753.53	1714.15
753.71	1783.78
753.89	1740.77
754.07	1791.97
754.25	1732.58
754.43	1677.29
754.61	1607.66
754.79	1732.58
754.97	1628.14
755.14	1837.03
755.32	1650.66
755.50	1667.05
755.68	1736.68
755.86	1693.67
756.04	1681.38
756.22	1609.70
756.40	1753.06
756.57	1808.36
756.75	1640.42
756.93	1828.84
757.11	1671.14
757.29	1628.14
757.47	1632.23
757.65	1628.14
757.82	1619.94
758.00	1662.95
758.18	1628.14
758.36	1683.43
758.54	1724.39
758.72	1644.52
758.90	1767.40
759.07	1685.48
759.25	1636.33
759.43	1763.30
759.61	1660.90
759.79	2283.49
759.97	1644.52
760.15	1644.52
760.32	1689.57
760.50	1652.71
760.68	1771.49
760.86	1656.81
761.04	1730.53
761.22	1712.10
761.39	1734.63
761.57	1744.87
761.75	1757.16
761.93	1796.07
762.11	1767.40
762.28	1718.25
762.46	1644.52
762.64	1726.44
762.82	1726.44
763.00	1636.33
763.18	1830.88
763.35	1615.85
763.53	1781.73
763.71	1677.29
763.89	1724.39
764.07	1705.96
764.24	1757.16
764.42	1685.48
764.60	1724.39
764.78	1679.33
764.96	1826.79
765.13	1753.06
765.31	1665.00
765.49	1691.62
765.67	1648.61
765.84	1621.99
766.02	1685.48
766.20	1650.66
766.38	1648.61
766.56	1781.73
766.73	1773.54
766.91	1683.43
767.09	1701.86
767.27	1722.34
767.44	1632.23
767.62	1703.91
767.80	1710.05
767.98	1638.38
768.15	1673.19
768.33	1765.35
768.51	1738.73
768.69	1753.06
768.87	1804.26
769.04	1689.57
769.22	1918.95
769.40	1761.25
769.58	1867.75
769.75	1722.34
769.93	1701.86
770.11	1673.19
770.28	1654.76
770.46	1718.25
770.64	1783.78
770.82	1697.77
770.99	1703.91
771.17	1748.97
771.35	1648.61
771.53	1738.73
771.70	1681.38
771.88	1767.40
772.06	1730.53
772.23	1759.21
772.41	1695.72
772.59	1722.34
772.77	1675.24
772.94	1673.19
773.12	1748.97
773.30	1656.81
773.47	1697.77
773.65	1634.28
773.83	1800.16
774.01	1697.77
774.18	1617.90
774.36	1742.82
774.54	1673.19
774.71	1757.16
774.89	1576.94
775.07	1689.57
775.24	1703.91
775.42	1726.44
775.60	1796.07
775.78	1775.59
775.95	1665.00
776.13	1613.80
776.31	1583.08
776.48	1734.63
776.66	1769.44
776.84	1736.68
777.01	1660.90
777.19	1687.53
777.37	1644.52
777.54	1771.49
777.72	1789.92
777.90	1769.44
778.07	1705.96
778.25	1867.75
778.43	1800.16
778.60	1685.48
778.78	1751.01
778.96	1771.49
779.13	1722.34
779.31	1763.30
779.49	1722.34
779.66	1705.96
779.84	1687.53
780.01	1755.11
780.19	1695.72
780.37	1736.68
780.54	1734.63
780.72	1708.01
780.90	1667.05
781.07	1638.38
781.25	1705.96
781.43	1785.83
781.60	1644.52
781.78	1748.97
781.95	1773.54
782.13	1669.09
782.31	1681.38
782.48	1603.56
782.66	1728.49
782.83	1839.08
783.01	1765.35
783.19	1789.92
783.36	1689.57
783.54	1638.38
783.72	1834.98
783.89	1628.14
784.07	1722.34
784.24	1787.88
784.42	1781.73
784.60	1693.67
784.77	1779.68
784.95	1576.94
785.12	1685.48
785.30	1718.25
785.47	1669.09
785.65	1691.62
785.83	1677.29
786.00	1693.67
786.18	1683.43
786.35	1662.95
786.53	1675.24
786.71	1767.40
786.88	1779.68
787.06	1642.47
787.23	1730.53
787.41	1660.90
787.58	1646.57
787.76	1685.48
787.94	1677.29
788.11	1716.20
788.29	1726.44
788.46	1591.27
788.64	1628.14
788.81	1746.92
788.99	1671.14
789.16	1656.81
789.34	1673.19
789.52	1589.22
789.69	1718.25
789.87	1574.89
790.04	1624.04
790.22	1714.15
790.39	1822.69
790.57	1646.57
790.74	1667.05
790.92	1757.16
791.09	1611.75
791.27	1699.81
791.44	1746.92
791.62	1646.57
791.79	1705.96
791.97	1785.83
792.15	1802.21
792.32	1781.73
792.50	1757.16
792.67	1853.41
792.85	1771.49
793.02	1708.01
793.20	1679.33
793.37	1624.04
793.55	1732.58
793.72	1626.09
793.90	1730.53
794.07	1703.91
794.25	1683.43
794.42	1705.96
794.60	1755.11
794.77	1771.49
794.95	1646.57
795.12	1720.29
795.30	1677.29
795.47	1603.56
795.65	1880.04
795.82	1705.96
796.00	1722.34
796.17	1708.01
796.34	1701.86
796.52	1720.29
796.69	1763.30
796.87	1656.81
797.04	1693.67
797.22	1796.07
797.39	1665.00
797.57	1746.92
797.74	1656.81
797.92	1761.25
798.09	1685.48
798.27	1779.68
798.44	1673.19
798.62	1710.05
798.79	1820.64
798.96	1705.96
799.14	1693.67
799.31	1830.88
799.49	1621.99
799.66	1685.48
799.84	1738.73
800.01	1646.57
800.19	1734.63
800.36	1619.94
800.53	1613.80
800.71	1722.34
800.88	1761.25
801.06	1650.66
801.23	1726.44
801.41	1722.34
801.58	1710.05
801.75	1679.33
801.93	1712.10
802.10	1748.97
802.28	1662.95
802.45	1734.63
802.63	1705.96
802.80	1824.74
802.97	1705.96
803.15	1716.20
803.32	1667.05
803.50	1636.33
803.67	1603.56
803.84	1685.48
804.02	1789.92
804.19	1771.49
804.37	1595.37
804.54	1646.57
804.71	1697.77
804.89	1755.11
805.06	1712.10
805.24	1648.61
805.41	1703.91
805.58	1679.33
805.76	1880.04
805.93	1724.39
806.10	1763.30
806.28	1732.58
806.45	1691.62
806.63	1722.34
806.80	1771.49
806.97	1732.58
807.15	1677.29
807.32	1718.25
807.49	1720.29
807.67	1677.29
807.84	1798.12
808.01	1683.43
808.19	1787.88
808.36	1818.60
808.54	1677.29
808.71	1662.95
808.88	1779.68
809.06	1796.07
809.23	1763.30
809.40	1640.42
809.58	1679.33
809.75	1705.96
809.92	1632.23
810.10	1853.41
810.27	1701.86
810.44	1761.25
810.62	1865.70
810.79	1759.21
810.96	1703.91
811.14	1738.73
811.31	1753.06
811.48	1824.74
811.66	1787.88
811.83	1755.11
812.00	1724.39
812.18	1705.96
812.35	1757.16
812.52	1652.71
812.69	1667.05
812.87	1714.15
813.04	1611.75
813.21	1761.25
813.39	1695.72
813.56	1585.13
813.73	1718.25
813.91	1615.85
814.08	1720.29
814.25	1734.63
814.42	1658.85
814.60	1701.86
814.77	1716.20
814.94	1777.64
815.12	1671.14
815.29	1767.40
815.46	1695.72
815.63	1716.20
815.81	1687.53
815.98	1732.58
816.15	1714.15
816.33	1689.57
816.50	1636.33
816.67	1671.14
816.84	1695.72
817.02	1581.03
817.19	1738.73
817.36	1681.38
817.53	1687.53
817.71	1675.24
817.88	1732.58
818.05	1636.33
818.22	1621.99
818.40	1779.68
818.57	1681.38
818.74	1730.53
818.91	1767.40
819.09	1722.34
819.26	1816.55
819.43	1621.99
819.60	1669.09
819.78	1689.57
819.95	1832.93
820.12	1673.19
820.29	1642.47
820.47	1693.67
820.64	1746.92
820.81	1634.28
820.98	1683.43
821.15	1656.81
821.33	1650.66
821.50	1628.14
821.67	1767.40
821.84	1755.11
822.02	1779.68
822.19	1753.06
822.36	1722.34
822.53	1708.01
822.70	1628.14
822.88	1746.92
823.05	1798.12
823.22	1656.81
823.39	1736.68
823.56	1658.85
823.74	1802.21
823.91	1683.43
824.08	1697.77
824.25	1583.08
824.42	1837.03
824.60	1675.24
824.77	1716.20
824.94	1658.85
825.11	1640.42
825.28	1634.28
825.45	1681.38
825.63	1691.62
825.80	1662.95
825.97	1679.33
826.14	1722.34
826.31	1552.36
826.48	1685.48
826.66	1658.85
826.83	1738.73
827.00	1699.81
827.17	1615.85
827.34	1701.86
827.51	1732.58
827.69	1677.29
827.86	1673.19
828.03	1607.66
828.20	1671.14
828.37	1740.77
828.54	1810.40
828.71	1679.33
828.89	1779.68
829.06	1685.48
829.23	1761.25
829.40	1634.28
829.57	1677.29
829.74	1775.59
829.91	1638.38
830.09	1673.19
830.26	1701.86
830.43	1775.59
830.60	1656.81
830.77	1703.91
830.94	1730.53
831.11	1744.87
831.28	1724.39
831.46	1742.82
831.63	1742.82
831.80	1658.85
831.97	1642.47
832.14	1669.09
832.31	1671.14
832.48	1751.01
832.65	1677.29
832.82	1794.02
832.99	1722.34
833.17	1695.72
833.34	1816.55
833.51	1800.16
833.68	1599.46
833.85	1744.87
834.02	1593.32
834.19	1626.09
834.36	1710.05
834.53	1732.58
834.70	1796.07
834.87	1734.63
835.04	1671.14
835.22	1724.39
835.39	1714.15
835.56	1624.04
835.73	1644.52
835.90	1687.53
836.07	1695.72
836.24	1738.73
836.41	1710.05
836.58	1669.09
836.75	1714.15
836.92	1705.96
837.09	1730.53
837.26	1742.82
837.43	1695.72
837.60	1785.83
837.77	1691.62
837.94	1783.78
838.12	1765.35
838.29	1753.06
838.46	1624.04
838.63	1652.71
838.80	1789.92
838.97	1808.36
839.14	1724.39
839.31	1744.87
839.48	1689.57
839.65	1716.20
839.82	1667.05
839.99	1714.15
840.16	1732.58
840.33	1740.77
840.50	1726.44
840.67	1685.48
840.84	1634.28
841.01	1652.71
841.18	1701.86
841.35	1722.34
841.52	1802.21
841.69	1822.69
841.86	1630.18
842.03	1638.38
842.20	1738.73
842.37	1624.04
842.54	1679.33
842.71	1669.09
842.88	1562.60
843.05	1687.53
843.22	1689.57
843.39	1742.82
843.56	1628.14
843.73	1714.15
843.90	1658.85
844.07	1824.74
844.24	1806.31
844.41	1665.00
844.58	1751.01
844.75	1726.44
844.92	1718.25
845.09	1683.43
845.26	1626.09
845.43	1855.46
845.60	1675.24
845.77	1736.68
845.94	1740.77
846.10	1820.64
846.27	1611.75
846.44	1554.41
846.61	1630.18
846.78	1681.38
846.95	1789.92
847.12	1695.72
847.29	1613.80
847.46	1667.05
847.63	1722.34
847.80	1621.99
847.97	1656.81
848.14	1931.23
848.31	1703.91
848.48	1626.09
848.65	1712.10
848.82	1697.77
848.98	1810.40
849.15	1777.64
849.32	1800.16
849.49	1853.41
849.66	1759.21
849.83	1701.86
850.00	1632.23
850.17	1781.73
850.34	1652.71
850.51	1687.53
850.68	1607.66
850.85	1837.03
851.01	1746.92
851.18	1783.78
851.35	1716.20
851.52	1656.81
851.69	1781.73
851.86	1630.18
852.03	1691.62
852.20	1755.11
852.37	1632.23
852.53	1611.75
852.70	1734.63
852.87	1687.53
853.04	1679.33
853.21	1660.90
853.38	1775.59
853.55	1732.58
853.72	1755.11
853.89	1648.61
854.05	1662.95
854.22	1665.00
854.39	1699.81
854.56	1718.25
854.73	1726.44
854.90	1656.81
855.07	1796.07
855.23	1732.58
855.40	1660.90
855.57	1677.29
855.74	1601.51
855.91	1892.32
856.08	1652.71
856.25	1595.37
856.41	1609.70
856.58	1632.23
856.75	1705.96
856.92	1669.09
857.09	1785.83
857.26	1687.53
857.42	1722.34
857.59	1720.29
857.76	1609.70
857.93	1724.39
858.10	1691.62
858.27	1636.33
858.43	1718.25
858.60	1662.95
858.77	1615.85
858.94	1636.33
859.11	1724.39
859.27	1687.53
859.44	1658.85
859.61	1837.03
859.78	1701.86
859.95	1757.16
860.12	1705.96
860.28	1804.26
860.45	1751.01
860.62	1648.61
860.79	1697.77
860.95	1619.94
861.12	1669.09
861.29	1593.32
861.46	1675.24
861.63	1652.71
861.79	1804.26
861.96	1722.34
862.13	1671.14
862.30	1748.97
862.47	1673.19
862.63	1630.18
862.80	1718.25
862.97	1812.45
863.14	1794.02
863.30	1720.29
863.47	1660.90
863.64	1708.01
863.81	1656.81
863.97	1658.85
864.14	1767.40
864.31	1697.77
864.48	1660.90
864.65	1744.87
864.81	1794.02
864.98	1767.40
865.15	1759.21
865.32	1675.24
865.48	1810.40
865.65	1773.54
865.82	1656.81
865.98	1705.96
866.15	1728.49
866.32	1783.78
866.49	1642.47
866.65	1767.40
866.82	1722.34
866.99	1740.77
867.16	1671.14
867.32	1634.28
867.49	1681.38
867.66	1705.96
867.83	1695.72
867.99	1660.90
868.16	1683.43
868.33	1654.76
868.49	1685.48
868.66	1644.52
868.83	1740.77
868.99	1644.52
869.16	1662.95
869.33	1796.07
869.50	1742.82
869.66	1738.73
869.83	1740.77
870.00	1710.05
870.16	1734.63
870.33	1662.95
870.50	1769.44
870.66	1716.20
870.83	1798.12
871.00	1748.97
871.17	1755.11
871.33	1710.05
871.50	1740.77
871.67	1763.30
871.83	1654.76
872.00	1818.60
872.17	1679.33
872.33	1769.44
872.50	1650.66
872.67	1685.48
872.83	1695.72
873.00	1724.39
873.17	1722.34
873.33	1728.49
873.50	1683.43
873.67	1628.14
873.83	1593.32
874.00	1644.52
874.16	1742.82
874.33	1738.73
874.50	1640.42
874.66	1746.92
874.83	1722.34
875.00	1816.55
875.16	1773.54
875.33	1734.63
875.50	1626.09
875.66	1705.96
875.83	1720.29
875.99	1695.72
876.16	1738.73
876.33	1613.80
876.49	1736.68
876.66	1703.91
876.83	1665.00
876.99	1697.77
877.16	1660.90
877.32	1654.76
877.49	1671.14
877.66	1695.72
877.82	1779.68
877.99	1732.58
878.15	1837.03
878.32	1710.05
878.49	1660.90
878.65	1681.38
878.82	1744.87
878.98	1650.66
879.15	1820.64
879.32	1736.68
879.48	1722.34
879.65	1748.97
879.81	1697.77
879.98	1714.15
880.15	1691.62
880.31	1781.73
880.48	1652.71
880.64	1738.73
880.81	1751.01
880.97	1787.88
881.14	1710.05
881.31	1615.85
881.47	1816.55
881.64	1705.96
881.80	1628.14
881.97	1742.82
882.13	1796.07
882.30	1703.91
882.47	1632.23
882.63	1656.81
882.80	1705.96
882.96	1677.29
883.13	1775.59
883.29	1726.44
883.46	1732.58
883.62	1886.18
883.79	1699.81
883.95	1744.87
884.12	1689.57
884.29	1808.36
884.45	1681.38
884.62	1728.49
884.78	1628.14
884.95	1791.97
885.11	1722.34
885.28	1781.73
885.44	1734.63
885.61	1734.63
885.77	1755.11
885.94	1738.73
886.10	1677.29
886.27	1742.82
886.43	1767.40
886.60	1767.40
886.76	1656.81
886.93	1587.18
887.09	1660.90
887.26	1632.23
887.42	1730.53
887.59	1734.63
887.75	1832.93
887.92	1753.06
888.08	1796.07
888.25	1826.79
888.41	1746.92
888.58	1714.15
888.74	1558.50
888.91	1683.43
>>>>>End Processed Spectral Data<<<<<
