SpectraSuite Data File
++++++++++++++++++++++++++++++++++++
Date: Wed May 04 18:44:42 CEST 2016
User: root
Dark Spectrum Present: No
Reference Spectrum Present: No
Number of Sampled Component Spectra: 1
Spectrometers: USB4C02835
Integration Time (usec): 100000 (USB4C02835)
Spectra Averaged: 1 (USB4C02835)
Boxcar Smoothing: 0 (USB4C02835)
Correct for Electrical Dark: No (USB4C02835)
Strobe/Lamp Enabled: No (USB4C02835)
Correct for Detector Non-linearity: No (USB4C02835)
Correct for Stray Light: No (USB4C02835)
Number of Pixels in Processed Spectrum: 3648
>>>>>Begin Processed Spectral Data<<<<<
177.47	1427.43
177.69	1427.43
177.91	1427.43
178.13	1464.30
178.36	1501.16
178.58	1628.14
178.80	1671.14
179.02	1634.28
179.24	1619.94
179.46	1734.63
179.68	1767.40
179.90	1728.49
180.13	1660.90
180.35	1689.57
180.57	1693.67
180.79	1710.05
181.01	1720.29
181.23	1853.41
181.45	1808.36
181.67	1665.00
181.90	1718.25
182.12	1677.29
182.34	1638.38
182.56	1804.26
182.78	1714.15
183.00	1738.73
183.22	1806.31
183.44	1621.99
183.66	1853.41
183.89	1744.87
184.11	1806.31
184.33	1820.64
184.55	1730.53
184.77	1716.20
184.99	1798.12
185.21	1714.15
185.43	1812.45
185.65	1681.38
185.87	1699.81
186.10	1853.41
186.32	1751.01
186.54	1669.09
186.76	1742.82
186.98	1748.97
187.20	1722.34
187.42	1767.40
187.64	1699.81
187.86	1691.62
188.08	1716.20
188.30	1736.68
188.52	1665.00
188.75	1798.12
188.97	1798.12
189.19	1642.47
189.41	1681.38
189.63	1800.16
189.85	1667.05
190.07	1656.81
190.29	1619.94
190.51	1748.97
190.73	1642.47
190.95	1820.64
191.17	1738.73
191.39	1585.13
191.61	1746.92
191.84	1695.72
192.06	1740.77
192.28	1677.29
192.50	1873.89
192.72	1734.63
192.94	1662.95
193.16	1712.10
193.38	1755.11
193.60	1679.33
193.82	1632.23
194.04	1738.73
194.26	1724.39
194.48	1724.39
194.70	1673.19
194.92	1632.23
195.14	1705.96
195.36	1705.96
195.58	1691.62
195.80	1767.40
196.02	1726.44
196.24	1726.44
196.46	1710.05
196.69	1665.00
196.91	1828.84
197.13	1699.81
197.35	1699.81
197.57	1798.12
197.79	1763.30
198.01	1761.25
198.23	1681.38
198.45	1755.11
198.67	1574.89
198.89	1712.10
199.11	1683.43
199.33	1574.89
199.55	1656.81
199.77	1699.81
199.99	1742.82
200.21	1652.71
200.43	1689.57
200.65	1654.76
200.87	1587.18
201.09	1718.25
201.31	1685.48
201.53	1808.36
201.75	1757.16
201.97	1757.16
202.19	1705.96
202.41	1691.62
202.63	1796.07
202.85	1716.20
203.07	1734.63
203.29	1654.76
203.51	1669.09
203.73	1726.44
203.95	1914.85
204.17	1777.64
204.39	1755.11
204.61	1662.95
204.83	1624.04
205.05	1771.49
205.27	1822.69
205.49	1785.83
205.71	1634.28
205.93	1583.08
206.15	1671.14
206.37	1716.20
206.59	1669.09
206.81	1712.10
207.03	1660.90
207.25	1642.47
207.47	1705.96
207.69	1673.19
207.91	1910.75
208.13	1791.97
208.34	1722.34
208.56	1669.09
208.78	1751.01
209.00	1695.72
209.22	1767.40
209.44	1617.90
209.66	1605.61
209.88	1697.77
210.10	1681.38
210.32	1771.49
210.54	1791.97
210.76	1660.90
210.98	1755.11
211.20	1603.56
211.42	1626.09
211.64	1806.31
211.86	1814.50
212.08	1714.15
212.30	1665.00
212.52	1728.49
212.74	1736.68
212.96	1759.21
213.17	1746.92
213.39	1755.11
213.61	1746.92
213.83	1763.30
214.05	1769.44
214.27	1716.20
214.49	1677.29
214.71	1644.52
214.93	1800.16
215.15	1779.68
215.37	1705.96
215.59	1597.42
215.81	1740.77
216.03	1773.54
216.24	1689.57
216.46	1718.25
216.68	1687.53
216.90	1722.34
217.12	1744.87
217.34	1652.71
217.56	1701.86
217.78	1779.68
218.00	1748.97
218.22	1714.15
218.44	1796.07
218.66	1669.09
218.87	1857.51
219.09	1689.57
219.31	1746.92
219.53	1677.29
219.75	1714.15
219.97	1712.10
220.19	1732.58
220.41	1722.34
220.63	1722.34
220.85	1665.00
221.06	1683.43
221.28	1812.45
221.50	1814.50
221.72	1746.92
221.94	1681.38
222.16	1724.39
222.38	1734.63
222.60	1791.97
222.82	1691.62
223.03	1665.00
223.25	1576.94
223.47	1691.62
223.69	1851.36
223.91	1744.87
224.13	1667.05
224.35	1669.09
224.57	1810.40
224.78	1726.44
225.00	1683.43
225.22	1705.96
225.44	1673.19
225.66	1751.01
225.88	1687.53
226.10	1738.73
226.32	1773.54
226.53	1810.40
226.75	1658.85
226.97	1761.25
227.19	1697.77
227.41	1716.20
227.63	1656.81
227.85	1679.33
228.06	1779.68
228.28	1724.39
228.50	1746.92
228.72	1621.99
228.94	1697.77
229.16	1615.85
229.37	1662.95
229.59	1687.53
229.81	1843.17
230.03	1689.57
230.25	1626.09
230.47	1712.10
230.69	1617.90
230.90	1779.68
231.12	1642.47
231.34	1703.91
231.56	1669.09
231.78	1644.52
232.00	1673.19
232.21	1773.54
232.43	1726.44
232.65	1632.23
232.87	1716.20
233.09	1566.70
233.30	1638.38
233.52	1794.02
233.74	1759.21
233.96	1695.72
234.18	1722.34
234.40	1732.58
234.61	1908.71
234.83	1566.70
235.05	1673.19
235.27	1804.26
235.49	1794.02
235.70	1716.20
235.92	1787.88
236.14	1761.25
236.36	1757.16
236.58	1615.85
236.79	1722.34
237.01	1720.29
237.23	1730.53
237.45	1785.83
237.67	1679.33
237.88	1769.44
238.10	1791.97
238.32	1660.90
238.54	1718.25
238.76	1681.38
238.97	1683.43
239.19	1687.53
239.41	1830.88
239.63	1765.35
239.85	1673.19
240.06	1675.24
240.28	1685.48
240.50	1759.21
240.72	1748.97
240.93	1742.82
241.15	1798.12
241.37	1740.77
241.59	1787.88
241.81	1724.39
242.02	1701.86
242.24	1781.73
242.46	1740.77
242.68	1654.76
242.89	1718.25
243.11	1785.83
243.33	1755.11
243.55	1679.33
243.76	1755.11
243.98	1730.53
244.20	1732.58
244.42	1724.39
244.64	1783.78
244.85	1609.70
245.07	1578.98
245.29	1693.67
245.51	1679.33
245.72	1732.58
245.94	1791.97
246.16	1701.86
246.38	1751.01
246.59	1679.33
246.81	1578.98
247.03	1730.53
247.24	1607.66
247.46	1654.76
247.68	1730.53
247.90	1665.00
248.11	1724.39
248.33	1800.16
248.55	1681.38
248.77	1742.82
248.98	1728.49
249.20	1781.73
249.42	1646.57
249.64	1781.73
249.85	1644.52
250.07	1753.06
250.29	1714.15
250.50	1779.68
250.72	1613.80
250.94	1746.92
251.16	1894.37
251.37	1814.50
251.59	1683.43
251.81	1710.05
252.02	1777.64
252.24	1683.43
252.46	1806.31
252.68	1736.68
252.89	1667.05
253.11	1628.14
253.33	1767.40
253.54	1705.96
253.76	1681.38
253.98	1695.72
254.20	1701.86
254.41	1601.51
254.63	1695.72
254.85	1652.71
255.06	1753.06
255.28	1712.10
255.50	1685.48
255.71	1697.77
255.93	1656.81
256.15	1642.47
256.36	1671.14
256.58	1679.33
256.80	1675.24
257.02	1699.81
257.23	1658.85
257.45	1689.57
257.67	1710.05
257.88	1671.14
258.10	1771.49
258.32	1691.62
258.53	1712.10
258.75	1798.12
258.97	1681.38
259.18	1650.66
259.40	1728.49
259.62	1777.64
259.83	1843.17
260.05	1718.25
260.27	2009.06
260.48	1746.92
260.70	1630.18
260.92	1710.05
261.13	1677.29
261.35	1689.57
261.57	1687.53
261.78	1648.61
262.00	1607.66
262.22	1757.16
262.43	1681.38
262.65	1654.76
262.86	1742.82
263.08	1933.28
263.30	1738.73
263.51	1589.22
263.73	1656.81
263.95	1802.21
264.16	1619.94
264.38	1689.57
264.60	1705.96
264.81	1681.38
265.03	1845.22
265.25	1781.73
265.46	1685.48
265.68	1755.11
265.89	1681.38
266.11	1607.66
266.33	1724.39
266.54	1777.64
266.76	1722.34
266.98	1806.31
267.19	1736.68
267.41	1740.77
267.62	1695.72
267.84	1656.81
268.06	1773.54
268.27	1640.42
268.49	1771.49
268.70	1791.97
268.92	1683.43
269.14	1708.01
269.35	1671.14
269.57	1710.05
269.79	1751.01
270.00	1726.44
270.22	1826.79
270.43	1665.00
270.65	1599.46
270.87	1677.29
271.08	1703.91
271.30	1826.79
271.51	1744.87
271.73	1779.68
271.95	1734.63
272.16	1742.82
272.38	1724.39
272.59	1683.43
272.81	1751.01
273.02	1716.20
273.24	1751.01
273.46	1757.16
273.67	1662.95
273.89	1714.15
274.10	1656.81
274.32	1796.07
274.54	1775.59
274.75	1705.96
274.97	1640.42
275.18	1785.83
275.40	1730.53
275.61	1755.11
275.83	1699.81
276.05	1613.80
276.26	1621.99
276.48	1683.43
276.69	1714.15
276.91	1642.47
277.12	1849.32
277.34	1769.44
277.55	1828.84
277.77	1708.01
277.99	1656.81
278.20	1722.34
278.42	1617.90
278.63	1701.86
278.85	1714.15
279.06	1658.85
279.28	1675.24
279.49	1734.63
279.71	1751.01
279.93	1714.15
280.14	1751.01
280.36	1644.52
280.57	1744.87
280.79	1804.26
281.00	1638.38
281.22	1697.77
281.43	1753.06
281.65	1615.85
281.86	1630.18
282.08	1734.63
282.29	1824.74
282.51	1642.47
282.73	1777.64
282.94	1533.93
283.16	1738.73
283.37	1873.89
283.59	1669.09
283.80	1787.88
284.02	1732.58
284.23	1691.62
284.45	1677.29
284.66	1613.80
284.88	1660.90
285.09	1732.58
285.31	1744.87
285.52	1708.01
285.74	1552.36
285.95	1753.06
286.17	1658.85
286.38	1714.15
286.60	1601.51
286.81	1679.33
287.03	1650.66
287.24	1718.25
287.46	1691.62
287.67	1673.19
287.89	1761.25
288.10	1708.01
288.32	1669.09
288.53	1818.60
288.75	1712.10
288.96	1767.40
289.18	1675.24
289.39	1720.29
289.61	1687.53
289.82	1812.45
290.04	1722.34
290.25	1716.20
290.47	1755.11
290.68	1660.90
290.90	1806.31
291.11	1640.42
291.33	1769.44
291.54	1665.00
291.76	1683.43
291.97	1722.34
292.18	1820.64
292.40	1716.20
292.61	1675.24
292.83	1804.26
293.04	1861.60
293.26	1691.62
293.47	1691.62
293.69	1667.05
293.90	1675.24
294.12	1824.74
294.33	1730.53
294.55	1720.29
294.76	1798.12
294.97	1757.16
295.19	1812.45
295.40	1710.05
295.62	1728.49
295.83	1798.12
296.05	1628.14
296.26	1826.79
296.48	1667.05
296.69	1714.15
296.90	1665.00
297.12	1720.29
297.33	1757.16
297.55	1746.92
297.76	1757.16
297.98	1675.24
298.19	1705.96
298.41	1681.38
298.62	1708.01
298.83	1853.41
299.05	1724.39
299.26	1650.66
299.48	1697.77
299.69	1812.45
299.90	1619.94
300.12	1656.81
300.33	1708.01
300.55	1699.81
300.76	1742.82
300.98	1701.86
301.19	1660.90
301.40	1658.85
301.62	1669.09
301.83	1701.86
302.05	1722.34
302.26	1744.87
302.47	1732.58
302.69	1685.48
302.90	1724.39
303.12	1615.85
303.33	1783.78
303.54	1826.79
303.76	1677.29
303.97	1730.53
304.19	1746.92
304.40	1648.61
304.61	1736.68
304.83	1781.73
305.04	1771.49
305.26	1789.92
305.47	1710.05
305.68	1632.23
305.90	1578.98
306.11	1781.73
306.33	1677.29
306.54	1662.95
306.75	1689.57
306.97	1644.52
307.18	1644.52
307.39	1648.61
307.61	1767.40
307.82	1677.29
308.04	1705.96
308.25	1675.24
308.46	1736.68
308.68	1724.39
308.89	1693.67
309.10	1812.45
309.32	1648.61
309.53	1632.23
309.74	1716.20
309.96	1658.85
310.17	1732.58
310.39	1687.53
310.60	1740.77
310.81	1685.48
311.03	1613.80
311.24	1722.34
311.45	1724.39
311.67	1814.50
311.88	1779.68
312.09	1699.81
312.31	1601.51
312.52	1738.73
312.73	1701.86
312.95	1613.80
313.16	1669.09
313.37	1820.64
313.59	1728.49
313.80	1708.01
314.01	1769.44
314.23	1679.33
314.44	1642.47
314.65	1615.85
314.87	1644.52
315.08	1572.84
315.29	1683.43
315.51	1673.19
315.72	1607.66
315.93	1834.98
316.15	1794.02
316.36	1726.44
316.57	1671.14
316.79	1675.24
317.00	1658.85
317.21	1722.34
317.43	1722.34
317.64	1699.81
317.85	1708.01
318.07	1697.77
318.28	1783.78
318.49	1845.22
318.70	1953.76
318.92	1826.79
319.13	1937.38
319.34	1912.80
319.56	1830.88
319.77	1865.70
319.98	1824.74
320.20	1765.35
320.41	1824.74
320.62	1742.82
320.83	1658.85
321.05	1849.32
321.26	1722.34
321.47	1683.43
321.69	1732.58
321.90	1566.70
322.11	1710.05
322.32	1732.58
322.54	1834.98
322.75	1671.14
322.96	1814.50
323.18	1617.90
323.39	1601.51
323.60	1722.34
323.81	1830.88
324.03	1650.66
324.24	1746.92
324.45	1705.96
324.66	1601.51
324.88	1724.39
325.09	1820.64
325.30	1779.68
325.52	1738.73
325.73	1679.33
325.94	1613.80
326.15	1630.18
326.37	1607.66
326.58	1720.29
326.79	1753.06
327.00	1687.53
327.22	1771.49
327.43	1710.05
327.64	1679.33
327.85	1730.53
328.07	1791.97
328.28	1812.45
328.49	1669.09
328.70	1720.29
328.92	1675.24
329.13	1697.77
329.34	1638.38
329.55	1742.82
329.76	1746.92
329.98	1685.48
330.19	1828.84
330.40	1804.26
330.61	1681.38
330.83	1796.07
331.04	1648.61
331.25	1646.57
331.46	1667.05
331.68	1640.42
331.89	1759.21
332.10	1640.42
332.31	1683.43
332.52	1757.16
332.74	1667.05
332.95	1652.71
333.16	1703.91
333.37	1773.54
333.58	1781.73
333.80	1771.49
334.01	1697.77
334.22	1660.90
334.43	1667.05
334.64	1714.15
334.86	1593.32
335.07	1681.38
335.28	1863.65
335.49	1636.33
335.70	1816.55
335.92	1738.73
336.13	1816.55
336.34	1744.87
336.55	1773.54
336.76	1726.44
336.98	1585.13
337.19	1746.92
337.40	1783.78
337.61	1884.13
337.82	1716.20
338.04	1773.54
338.25	1640.42
338.46	1638.38
338.67	1605.61
338.88	1658.85
339.09	1658.85
339.31	1742.82
339.52	1619.94
339.73	1640.42
339.94	1712.10
340.15	1710.05
340.36	1675.24
340.58	1656.81
340.79	1695.72
341.00	1738.73
341.21	1609.70
341.42	1812.45
341.63	1687.53
341.85	1814.50
342.06	1650.66
342.27	1712.10
342.48	1748.97
342.69	1632.23
342.90	1703.91
343.12	1665.00
343.33	1705.96
343.54	1724.39
343.75	1789.92
343.96	1689.57
344.17	1679.33
344.38	1644.52
344.60	1652.71
344.81	1640.42
345.02	1767.40
345.23	1755.11
345.44	1787.88
345.65	1781.73
345.86	1708.01
346.07	1816.55
346.29	1689.57
346.50	1751.01
346.71	1746.92
346.92	1726.44
347.13	1787.88
347.34	1732.58
347.55	1736.68
347.76	1640.42
347.98	1603.56
348.19	1646.57
348.40	1812.45
348.61	1720.29
348.82	1730.53
349.03	1722.34
349.24	1642.47
349.45	1767.40
349.66	1562.60
349.88	1751.01
350.09	1605.61
350.30	1734.63
350.51	1761.25
350.72	1648.61
350.93	1726.44
351.14	1599.46
351.35	1779.68
351.56	1712.10
351.77	1714.15
351.99	1732.58
352.20	1746.92
352.41	1685.48
352.62	1576.94
352.83	1730.53
353.04	1710.05
353.25	1681.38
353.46	1755.11
353.67	1748.97
353.88	1611.75
354.09	1724.39
354.30	1683.43
354.52	1781.73
354.73	1671.14
354.94	1681.38
355.15	1632.23
355.36	1841.12
355.57	1687.53
355.78	1765.35
355.99	1646.57
356.20	1701.86
356.41	1779.68
356.62	1683.43
356.83	1771.49
357.04	1712.10
357.25	1636.33
357.46	1669.09
357.68	1652.71
357.89	1667.05
358.10	1751.01
358.31	1708.01
358.52	1703.91
358.73	1615.85
358.94	1646.57
359.15	1691.62
359.36	1744.87
359.57	1691.62
359.78	1748.97
359.99	1738.73
360.20	1685.48
360.41	1716.20
360.62	1748.97
360.83	1714.15
361.04	1693.67
361.25	1679.33
361.46	1830.88
361.67	1748.97
361.88	1683.43
362.09	1755.11
362.30	1771.49
362.51	1691.62
362.72	1673.19
362.93	1769.44
363.14	1722.34
363.35	1812.45
363.56	1652.71
363.78	1775.59
363.99	1705.96
364.20	1660.90
364.41	1691.62
364.62	1816.55
364.83	1744.87
365.04	1751.01
365.25	1736.68
365.46	1816.55
365.67	1710.05
365.88	1679.33
366.09	1673.19
366.30	1732.58
366.51	1779.68
366.72	1628.14
366.93	1671.14
367.14	1730.53
367.35	1814.50
367.56	1695.72
367.77	1826.79
367.98	1642.47
368.18	1683.43
368.39	1751.01
368.60	1597.42
368.81	1748.97
369.02	1675.24
369.23	1697.77
369.44	1611.75
369.65	1691.62
369.86	1740.77
370.07	1734.63
370.28	1662.95
370.49	1705.96
370.70	1818.60
370.91	1595.37
371.12	1710.05
371.33	1783.78
371.54	1671.14
371.75	1820.64
371.96	1703.91
372.17	1679.33
372.38	1716.20
372.59	1736.68
372.80	1685.48
373.01	1685.48
373.22	1744.87
373.43	1648.61
373.64	1685.48
373.85	1806.31
374.06	1826.79
374.26	1755.11
374.47	1771.49
374.68	1767.40
374.89	1730.53
375.10	1691.62
375.31	1808.36
375.52	1748.97
375.73	1789.92
375.94	1615.85
376.15	1796.07
376.36	1626.09
376.57	1722.34
376.78	1671.14
376.99	1771.49
377.20	1767.40
377.40	1724.39
377.61	1759.21
377.82	1591.27
378.03	1863.65
378.24	1779.68
378.45	1738.73
378.66	1730.53
378.87	1589.22
379.08	1583.08
379.29	1755.11
379.50	1847.27
379.71	1724.39
379.91	1806.31
380.12	1695.72
380.33	1712.10
380.54	1703.91
380.75	1665.00
380.96	1738.73
381.17	1802.21
381.38	1679.33
381.59	1767.40
381.80	1736.68
382.00	1931.23
382.21	1767.40
382.42	1804.26
382.63	1894.37
382.84	1699.81
383.05	1806.31
383.26	1781.73
383.47	1712.10
383.68	1775.59
383.88	1814.50
384.09	1667.05
384.30	1814.50
384.51	1761.25
384.72	1671.14
384.93	1650.66
385.14	1705.96
385.35	1789.92
385.55	1550.31
385.76	1832.93
385.97	1714.15
386.18	1675.24
386.39	1683.43
386.60	1642.47
386.81	1681.38
387.02	1667.05
387.22	1695.72
387.43	1787.88
387.64	1851.36
387.85	1937.38
388.06	2179.04
388.27	4667.32
388.48	9181.04
388.68	11562.83
388.89	13182.77
389.10	14077.74
389.31	11734.86
389.52	9774.95
389.73	8462.21
389.93	7763.85
390.14	7137.17
390.35	6573.98
390.56	5949.35
390.77	4933.56
390.98	3938.24
391.18	3067.86
391.39	2377.69
391.60	1947.62
391.81	1898.47
392.02	1687.53
392.23	1906.66
392.43	1806.31
392.64	1880.04
392.85	1714.15
393.06	1837.03
393.27	1775.59
393.47	1705.96
393.68	1699.81
393.89	1724.39
394.10	1619.94
394.31	1673.19
394.52	1687.53
394.72	1685.48
394.93	1761.25
395.14	1683.43
395.35	1742.82
395.56	1730.53
395.76	1791.97
395.97	1828.84
396.18	1837.03
396.39	1890.28
396.60	2093.02
396.80	1955.81
397.01	1820.64
397.22	1783.78
397.43	1877.99
397.64	1751.01
397.84	1818.60
398.05	1865.70
398.26	1787.88
398.47	1837.03
398.67	1763.30
398.88	1689.57
399.09	1781.73
399.30	1742.82
399.51	1673.19
399.71	1607.66
399.92	1691.62
400.13	1775.59
400.34	1794.02
400.54	1812.45
400.75	1767.40
400.96	1787.88
401.17	1892.32
401.37	1828.84
401.58	1646.57
401.79	1697.77
402.00	1832.93
402.21	1984.48
402.41	2066.40
402.62	2121.70
402.83	2203.61
403.04	2068.45
403.24	2142.18
403.45	1918.95
403.66	1955.81
403.87	1898.47
404.07	1949.67
404.28	1927.14
404.49	1882.08
404.70	1912.80
404.90	1783.78
405.11	1771.49
405.32	1730.53
405.52	1708.01
405.73	1720.29
405.94	1716.20
406.15	1761.25
406.35	1748.97
406.56	1781.73
406.77	1699.81
406.98	1765.35
407.18	1650.66
407.39	1779.68
407.60	1742.82
407.80	1730.53
408.01	1654.76
408.22	1761.25
408.43	1660.90
408.63	1738.73
408.84	1777.64
409.05	1681.38
409.25	1675.24
409.46	1667.05
409.67	1640.42
409.88	1642.47
410.08	1722.34
410.29	1683.43
410.50	1759.21
410.70	1746.92
410.91	1652.71
411.12	1718.25
411.32	1753.06
411.53	1701.86
411.74	1834.98
411.95	1798.12
412.15	1826.79
412.36	1779.68
412.57	1820.64
412.77	1771.49
412.98	1683.43
413.19	1751.01
413.39	1781.73
413.60	1724.39
413.81	1810.40
414.01	1746.92
414.22	1767.40
414.43	1810.40
414.63	1691.62
414.84	1834.98
415.05	1716.20
415.25	1624.04
415.46	1759.21
415.67	1681.38
415.87	1748.97
416.08	1724.39
416.29	1658.85
416.49	1783.78
416.70	1658.85
416.91	1705.96
417.11	1705.96
417.32	1779.68
417.53	1769.44
417.73	1767.40
417.94	1603.56
418.15	1679.33
418.35	1755.11
418.56	1789.92
418.77	1810.40
418.97	1761.25
419.18	1673.19
419.38	1632.23
419.59	1720.29
419.80	1834.98
420.00	1724.39
420.21	1718.25
420.42	1744.87
420.62	1722.34
420.83	1654.76
421.04	1681.38
421.24	1703.91
421.45	1675.24
421.65	1665.00
421.86	1701.86
422.07	1701.86
422.27	1689.57
422.48	1714.15
422.69	1710.05
422.89	1689.57
423.10	1710.05
423.30	1667.05
423.51	1755.11
423.72	1746.92
423.92	1763.30
424.13	1671.14
424.33	1773.54
424.54	1791.97
424.75	1732.58
424.95	1859.56
425.16	1738.73
425.36	1687.53
425.57	1783.78
425.78	1822.69
425.98	1765.35
426.19	1669.09
426.39	1728.49
426.60	1751.01
426.81	1812.45
427.01	1701.86
427.22	1720.29
427.42	1603.56
427.63	1798.12
427.83	1767.40
428.04	1697.77
428.25	1748.97
428.45	1716.20
428.66	1642.47
428.86	1683.43
429.07	1685.48
429.28	1693.67
429.48	1665.00
429.69	1718.25
429.89	1763.30
430.10	1593.32
430.30	1736.68
430.51	1748.97
430.71	1705.96
430.92	1730.53
431.13	1669.09
431.33	1734.63
431.54	1773.54
431.74	1869.80
431.95	1877.99
432.15	1667.05
432.36	1746.92
432.56	1800.16
432.77	1775.59
432.98	1871.84
433.18	1714.15
433.39	1701.86
433.59	1765.35
433.80	1929.19
434.00	1857.51
434.21	1667.05
434.41	1703.91
434.62	1802.21
434.82	1708.01
435.03	1650.66
435.23	1740.77
435.44	1615.85
435.64	1759.21
435.85	1650.66
436.06	1734.63
436.26	1759.21
436.47	1722.34
436.67	1638.38
436.88	1722.34
437.08	1816.55
437.29	1724.39
437.49	1773.54
437.70	1773.54
437.90	1732.58
438.11	1843.17
438.31	1791.97
438.52	1863.65
438.72	1888.23
438.93	1918.95
439.13	1884.13
439.34	1820.64
439.54	1748.97
439.75	1777.64
439.95	1804.26
440.16	1742.82
440.36	1779.68
440.57	1843.17
440.77	1703.91
440.98	1755.11
441.18	1769.44
441.39	1701.86
441.59	1673.19
441.80	1867.75
442.00	1742.82
442.21	1767.40
442.41	1714.15
442.62	1693.67
442.82	1744.87
443.02	1785.83
443.23	1744.87
443.43	1710.05
443.64	1849.32
443.84	1742.82
444.05	1849.32
444.25	1787.88
444.46	1746.92
444.66	1650.66
444.87	1785.83
445.07	1587.18
445.28	1755.11
445.48	1843.17
445.69	1820.64
445.89	1769.44
446.09	1767.40
446.30	2000.87
446.50	2654.17
446.71	4145.09
446.91	4945.84
447.12	5752.74
447.32	5996.45
447.53	5263.28
447.73	4388.80
447.93	3936.20
448.14	3639.24
448.34	3438.54
448.55	3256.27
448.75	3008.47
448.96	3043.28
449.16	2590.68
449.36	2402.27
449.57	2172.89
449.77	2027.49
449.98	1808.36
450.18	1820.64
450.39	1845.22
450.59	1777.64
450.79	1728.49
451.00	1679.33
451.20	1826.79
451.41	1730.53
451.61	1787.88
451.81	1738.73
452.02	1660.90
452.22	1652.71
452.43	1812.45
452.63	1726.44
452.84	1755.11
453.04	1685.48
453.24	1722.34
453.45	1689.57
453.65	1765.35
453.86	1734.63
454.06	1726.44
454.26	1759.21
454.47	1724.39
454.67	1767.40
454.87	1816.55
455.08	1738.73
455.28	1898.47
455.49	1703.91
455.69	1751.01
455.89	1904.61
456.10	1769.44
456.30	1744.87
456.51	1775.59
456.71	1753.06
456.91	1822.69
457.12	1744.87
457.32	1761.25
457.52	1660.90
457.73	1800.16
457.93	1798.12
458.14	1695.72
458.34	1687.53
458.54	1689.57
458.75	1769.44
458.95	1822.69
459.15	1769.44
459.36	1775.59
459.56	1806.31
459.76	1806.31
459.97	1705.96
460.17	1675.24
460.37	1798.12
460.58	1726.44
460.78	1798.12
460.99	1648.61
461.19	1763.30
461.39	1761.25
461.60	1722.34
461.80	1712.10
462.00	1740.77
462.21	1734.63
462.41	1685.48
462.61	1689.57
462.82	1581.03
463.02	1724.39
463.22	1683.43
463.43	1769.44
463.63	1705.96
463.83	1834.98
464.04	1824.74
464.24	1687.53
464.44	1695.72
464.64	1734.63
464.85	1767.40
465.05	1771.49
465.25	1665.00
465.46	1681.38
465.66	1732.58
465.86	1708.01
466.07	1689.57
466.27	1689.57
466.47	1732.58
466.68	1665.00
466.88	1847.27
467.08	1734.63
467.29	1652.71
467.49	1771.49
467.69	1789.92
467.89	1685.48
468.10	1687.53
468.30	1701.86
468.50	1775.59
468.71	1751.01
468.91	1642.47
469.11	1804.26
469.31	1810.40
469.52	1654.76
469.72	1839.08
469.92	1814.50
470.13	1765.35
470.33	1730.53
470.53	1787.88
470.73	2168.80
470.94	2549.72
471.14	2641.88
471.34	3008.47
471.54	2854.87
471.75	2615.26
471.95	2320.35
472.15	2191.33
472.36	2267.10
472.56	2205.66
472.76	2125.79
472.96	2119.65
473.17	2066.40
473.37	1996.77
473.57	1816.55
473.77	1949.67
473.98	1742.82
474.18	1763.30
474.38	1929.19
474.58	1636.33
474.79	1675.24
474.99	1714.15
475.19	1765.35
475.39	1689.57
475.60	1755.11
475.80	1781.73
476.00	1726.44
476.20	1683.43
476.41	1671.14
476.61	1849.32
476.81	1779.68
477.01	1675.24
477.21	1806.31
477.42	1798.12
477.62	1585.13
477.82	1789.92
478.02	1701.86
478.23	1712.10
478.43	1562.60
478.63	1632.23
478.83	1734.63
479.03	1677.29
479.24	1779.68
479.44	1818.60
479.64	1732.58
479.84	1619.94
480.04	1636.33
480.25	1853.41
480.45	1646.57
480.65	1740.77
480.85	1810.40
481.06	1687.53
481.26	1720.29
481.46	1710.05
481.66	1779.68
481.86	1640.42
482.06	1775.59
482.27	1658.85
482.47	1722.34
482.67	1736.68
482.87	1755.11
483.07	1845.22
483.28	1701.86
483.48	1630.18
483.68	1615.85
483.88	1621.99
484.08	1595.37
484.29	1689.57
484.49	1736.68
484.69	1636.33
484.89	1849.32
485.09	1808.36
485.29	1755.11
485.50	1777.64
485.70	1738.73
485.90	1744.87
486.10	1722.34
486.30	1746.92
486.50	1759.21
486.71	1802.21
486.91	1761.25
487.11	1806.31
487.31	1705.96
487.51	1746.92
487.71	1775.59
487.91	1714.15
488.12	1753.06
488.32	1624.04
488.52	1730.53
488.72	1621.99
488.92	1753.06
489.12	1785.83
489.32	1773.54
489.53	1755.11
489.73	1665.00
489.93	1771.49
490.13	1685.48
490.33	1626.09
490.53	1703.91
490.73	1781.73
490.94	1667.05
491.14	1810.40
491.34	1818.60
491.54	2090.98
491.74	2688.98
491.94	3149.78
492.14	3364.81
492.34	3428.30
492.54	3155.92
492.75	2758.61
492.95	2582.49
493.15	2451.42
493.35	2371.55
493.55	2269.15
493.75	2220.00
493.95	2152.42
494.15	2123.74
494.35	1933.28
494.56	1933.28
494.76	1814.50
494.96	1724.39
495.16	1798.12
495.36	1802.21
495.56	1755.11
495.76	1773.54
495.96	1757.16
496.16	1708.01
496.36	1859.56
496.56	1669.09
496.77	1669.09
496.97	1753.06
497.17	1853.41
497.37	1640.42
497.57	1787.88
497.77	1675.24
497.97	1699.81
498.17	1718.25
498.37	1789.92
498.57	1777.64
498.77	1705.96
498.97	1740.77
499.17	1820.64
499.38	1755.11
499.58	1738.73
499.78	1818.60
499.98	1834.98
500.18	1687.53
500.38	1742.82
500.58	1867.75
500.78	2447.32
500.98	4663.22
501.18	6504.35
501.38	8204.16
501.58	8982.39
501.78	8853.37
501.98	6891.41
502.18	5830.57
502.38	4954.04
502.58	4585.40
502.78	4126.66
502.98	3987.40
503.18	3764.17
503.38	3499.98
503.59	3149.78
503.79	2955.22
503.99	2588.63
504.19	2447.32
504.39	2412.51
504.59	2359.26
504.79	2332.64
504.99	2242.53
505.19	2078.69
505.39	2029.54
505.59	2021.35
505.79	1957.86
505.99	1988.58
506.19	1886.18
506.39	1943.52
506.59	1843.17
506.79	1744.87
506.99	1902.56
507.19	1798.12
507.39	1765.35
507.59	1714.15
507.79	1701.86
507.99	1718.25
508.19	1744.87
508.39	1718.25
508.59	1718.25
508.79	1761.25
508.99	1804.26
509.19	1701.86
509.39	1726.44
509.59	1691.62
509.79	1710.05
509.99	1761.25
510.19	1798.12
510.39	1751.01
510.59	1660.90
510.79	1683.43
510.99	1646.57
511.19	1697.77
511.39	1802.21
511.59	1765.35
511.79	1832.93
511.99	1736.68
512.19	1849.32
512.38	1742.82
512.58	1708.01
512.78	1691.62
512.98	1871.84
513.18	1845.22
513.38	1734.63
513.58	1761.25
513.78	1681.38
513.98	1708.01
514.18	1755.11
514.38	1689.57
514.58	1755.11
514.78	1798.12
514.98	1689.57
515.18	1701.86
515.38	1679.33
515.58	1820.64
515.78	1742.82
515.98	1708.01
516.18	1761.25
516.38	1720.29
516.57	1742.82
516.77	1689.57
516.97	1744.87
517.17	1691.62
517.37	1624.04
517.57	1773.54
517.77	1689.57
517.97	1712.10
518.17	1757.16
518.37	1714.15
518.57	1665.00
518.77	1759.21
518.97	1689.57
519.16	1746.92
519.36	1783.78
519.56	1730.53
519.76	1767.40
519.96	1701.86
520.16	1822.69
520.36	1697.77
520.56	1869.80
520.76	1689.57
520.96	1697.77
521.16	1785.83
521.35	1722.34
521.55	1837.03
521.75	1665.00
521.95	1701.86
522.15	1726.44
522.35	1624.04
522.55	1681.38
522.75	1771.49
522.95	1712.10
523.14	1701.86
523.34	1755.11
523.54	1665.00
523.74	1748.97
523.94	1808.36
524.14	1679.33
524.34	1730.53
524.54	1843.17
524.73	1724.39
524.93	1730.53
525.13	1751.01
525.33	1685.48
525.53	1902.56
525.73	1810.40
525.93	1767.40
526.13	1722.34
526.32	1675.24
526.52	1714.15
526.72	1826.79
526.92	1755.11
527.12	1740.77
527.32	1656.81
527.52	1779.68
527.71	1761.25
527.91	1705.96
528.11	1740.77
528.31	1705.96
528.51	1648.61
528.71	1781.73
528.90	1728.49
529.10	1828.84
529.30	1773.54
529.50	1669.09
529.70	1724.39
529.90	1738.73
530.09	1777.64
530.29	1673.19
530.49	1759.21
530.69	1822.69
530.89	1808.36
531.09	1802.21
531.28	1667.05
531.48	1779.68
531.68	1751.01
531.88	1759.21
532.08	1841.12
532.28	1753.06
532.47	1787.88
532.67	1783.78
532.87	1796.07
533.07	1701.86
533.27	1808.36
533.46	1748.97
533.66	1712.10
533.86	1744.87
534.06	1736.68
534.26	1791.97
534.45	1796.07
534.65	1787.88
534.85	1798.12
535.05	1740.77
535.25	1724.39
535.44	1615.85
535.64	1775.59
535.84	1732.58
536.04	1783.78
536.24	1667.05
536.43	1716.20
536.63	1716.20
536.83	1798.12
537.03	1796.07
537.22	1681.38
537.42	1576.94
537.62	1804.26
537.82	1724.39
538.02	1822.69
538.21	1757.16
538.41	1923.04
538.61	1732.58
538.81	1710.05
539.00	1789.92
539.20	1640.42
539.40	1732.58
539.60	1695.72
539.79	1820.64
539.99	1716.20
540.19	1654.76
540.39	1710.05
540.58	1716.20
540.78	1816.55
540.98	1673.19
541.18	1785.83
541.37	1826.79
541.57	1722.34
541.77	1748.97
541.97	1691.62
542.16	1683.43
542.36	1683.43
542.56	1640.42
542.76	1826.79
542.95	1734.63
543.15	1824.74
543.35	1757.16
543.54	1660.90
543.74	1683.43
543.94	1820.64
544.14	1656.81
544.33	1794.02
544.53	1757.16
544.73	1759.21
544.93	1648.61
545.12	1716.20
545.32	1736.68
545.52	1787.88
545.71	1613.80
545.91	1722.34
546.11	1732.58
546.30	1687.53
546.50	1767.40
546.70	1822.69
546.90	1798.12
547.09	1597.42
547.29	1677.29
547.49	1679.33
547.68	1748.97
547.88	1654.76
548.08	1740.77
548.27	2154.46
548.47	1691.62
548.67	1716.20
548.87	1783.78
549.06	1667.05
549.26	1751.01
549.46	1732.58
549.65	1679.33
549.85	1695.72
550.05	1843.17
550.24	1656.81
550.44	1804.26
550.64	1740.77
550.83	1753.06
551.03	1757.16
551.23	1806.31
551.42	1759.21
551.62	1748.97
551.82	1726.44
552.01	1726.44
552.21	1812.45
552.41	1785.83
552.60	1783.78
552.80	1810.40
553.00	1705.96
553.19	1732.58
553.39	1843.17
553.59	1671.14
553.78	1697.77
553.98	1763.30
554.17	1632.23
554.37	1759.21
554.57	1769.44
554.76	1609.70
554.96	1722.34
555.16	1742.82
555.35	1763.30
555.55	1726.44
555.75	1734.63
555.94	1845.22
556.14	1683.43
556.33	1748.97
556.53	1689.57
556.73	1779.68
556.92	1763.30
557.12	1765.35
557.32	1777.64
557.51	1857.51
557.71	1712.10
557.90	1751.01
558.10	1843.17
558.30	1658.85
558.49	1722.34
558.69	1705.96
558.88	1787.88
559.08	1785.83
559.28	1665.00
559.47	1730.53
559.67	1802.21
559.86	1882.08
560.06	1722.34
560.26	1791.97
560.45	1751.01
560.65	1714.15
560.84	1857.51
561.04	1771.49
561.24	1753.06
561.43	1687.53
561.63	1783.78
561.82	1771.49
562.02	1771.49
562.22	1710.05
562.41	1665.00
562.61	1726.44
562.80	1705.96
563.00	1880.04
563.19	1767.40
563.39	1755.11
563.59	1759.21
563.78	1640.42
563.98	1634.28
564.17	1783.78
564.37	1650.66
564.56	1716.20
564.76	1660.90
564.96	1837.03
565.15	1671.14
565.35	1806.31
565.54	1746.92
565.74	1802.21
565.93	1763.30
566.13	1722.34
566.32	1771.49
566.52	1783.78
566.71	1683.43
566.91	1744.87
567.11	1751.01
567.30	1695.72
567.50	1769.44
567.69	1751.01
567.89	1716.20
568.08	1714.15
568.28	1683.43
568.47	1718.25
568.67	1771.49
568.86	1757.16
569.06	1804.26
569.25	1683.43
569.45	1738.73
569.64	1656.81
569.84	1730.53
570.04	1683.43
570.23	1626.09
570.43	1742.82
570.62	1738.73
570.82	1867.75
571.01	1705.96
571.21	1742.82
571.40	1669.09
571.60	1781.73
571.79	1746.92
571.99	1710.05
572.18	1701.86
572.38	1734.63
572.57	1773.54
572.77	1740.77
572.96	1869.80
573.16	1730.53
573.35	1794.02
573.55	1716.20
573.74	1751.01
573.94	1701.86
574.13	1701.86
574.33	1814.50
574.52	1875.94
574.71	1812.45
574.91	1718.25
575.10	1744.87
575.30	1632.23
575.49	1679.33
575.69	1665.00
575.88	1849.32
576.08	1767.40
576.27	1808.36
576.47	1800.16
576.66	1916.90
576.86	1851.36
577.05	1755.11
577.25	1814.50
577.44	1849.32
577.64	1677.29
577.83	1761.25
578.02	1724.39
578.22	1800.16
578.41	1871.84
578.61	1789.92
578.80	1660.90
579.00	1755.11
579.19	1665.00
579.39	1853.41
579.58	1742.82
579.77	1796.07
579.97	1810.40
580.16	1798.12
580.36	1775.59
580.55	1810.40
580.75	1853.41
580.94	1720.29
581.13	1843.17
581.33	1918.95
581.52	1769.44
581.72	1933.28
581.91	1832.93
582.11	1738.73
582.30	1802.21
582.49	1767.40
582.69	1927.14
582.88	1796.07
583.08	1763.30
583.27	1845.22
583.47	1794.02
583.66	1722.34
583.85	1718.25
584.05	1710.05
584.24	1800.16
584.44	1787.88
584.63	1806.31
584.82	1873.89
585.02	1929.19
585.21	1929.19
585.41	1916.90
585.60	1882.08
585.79	1918.95
585.99	1976.29
586.18	2047.97
586.37	2199.52
586.57	3471.31
586.76	9699.18
586.96	26900.07
587.15	41500.04
587.34	51647.72
587.54	57351.32
587.73	55141.56
587.93	39902.62
588.12	29658.68
588.31	23352.99
588.51	20109.01
588.70	18360.04
588.89	16924.41
589.09	15353.62
589.28	13553.46
589.47	11380.56
589.67	9318.26
589.86	7387.02
590.06	5466.03
590.25	4179.90
590.44	3313.61
590.64	2557.91
590.83	2242.53
591.02	2062.30
591.22	1978.34
591.41	1900.52
591.60	1865.70
591.80	1925.09
591.99	1775.59
592.18	1771.49
592.38	1826.79
592.57	1882.08
592.76	1839.08
592.96	1796.07
593.15	1724.39
593.34	1845.22
593.54	1779.68
593.73	1830.88
593.92	1830.88
594.12	1826.79
594.31	1800.16
594.50	1822.69
594.70	1925.09
594.89	1910.75
595.08	1691.62
595.28	1820.64
595.47	2004.96
595.66	1748.97
595.86	1716.20
596.05	1755.11
596.24	1769.44
596.43	1837.03
596.63	1806.31
596.82	1783.78
597.01	1832.93
597.21	1808.36
597.40	1767.40
597.59	1929.19
597.79	1734.63
597.98	1935.33
598.17	1841.12
598.36	1873.89
598.56	1800.16
598.75	1701.86
598.94	1789.92
599.14	1720.29
599.33	1753.06
599.52	1779.68
599.71	1822.69
599.91	1746.92
600.10	1789.92
600.29	1775.59
600.48	1810.40
600.68	1728.49
600.87	1605.61
601.06	1716.20
601.26	1812.45
601.45	1726.44
601.64	1748.97
601.83	1931.23
602.03	1677.29
602.22	1744.87
602.41	1800.16
602.60	1871.84
602.80	1802.21
602.99	1861.60
603.18	1691.62
603.37	1724.39
603.57	1748.97
603.76	1826.79
603.95	1859.56
604.14	1701.86
604.34	1691.62
604.53	1755.11
604.72	1714.15
604.91	1837.03
605.10	1859.56
605.30	1658.85
605.49	1882.08
605.68	1796.07
605.87	1763.30
606.07	1726.44
606.26	1783.78
606.45	1755.11
606.64	1751.01
606.84	1781.73
607.03	1736.68
607.22	1882.08
607.41	1714.15
607.60	1839.08
607.80	1824.74
607.99	1736.68
608.18	1843.17
608.37	1837.03
608.56	1728.49
608.76	1806.31
608.95	1904.61
609.14	1869.80
609.33	1806.31
609.52	1865.70
609.72	1966.05
609.91	1904.61
610.10	1779.68
610.29	1789.92
610.48	1773.54
610.68	1828.84
610.87	1755.11
611.06	1804.26
611.25	1810.40
611.44	1806.31
611.63	1765.35
611.83	1849.32
612.02	1730.53
612.21	1824.74
612.40	1665.00
612.59	1675.24
612.79	1732.58
612.98	1726.44
613.17	1783.78
613.36	1738.73
613.55	1877.99
613.74	1814.50
613.93	1894.37
614.13	1951.71
614.32	1925.09
614.51	1945.57
614.70	1744.87
614.89	1755.11
615.08	1845.22
615.28	2086.88
615.47	1820.64
615.66	1873.89
615.85	1808.36
616.04	1927.14
616.23	1822.69
616.42	1734.63
616.62	1755.11
616.81	1863.65
617.00	1726.44
617.19	1751.01
617.38	1695.72
617.57	1728.49
617.76	1777.64
617.95	1775.59
618.15	1806.31
618.34	1824.74
618.53	1685.48
618.72	1824.74
618.91	1822.69
619.10	1771.49
619.29	1738.73
619.48	1710.05
619.68	1662.95
619.87	1779.68
620.06	1654.76
620.25	1697.77
620.44	1693.67
620.63	1765.35
620.82	1771.49
621.01	1679.33
621.20	1791.97
621.39	1808.36
621.59	1773.54
621.78	1781.73
621.97	1712.10
622.16	1804.26
622.35	1773.54
622.54	1777.64
622.73	1814.50
622.92	1689.57
623.11	1751.01
623.30	1701.86
623.49	1812.45
623.68	1759.21
623.88	1808.36
624.07	1667.05
624.26	1759.21
624.45	1755.11
624.64	1640.42
624.83	1724.39
625.02	1671.14
625.21	1779.68
625.40	1720.29
625.59	1800.16
625.78	1720.29
625.97	1771.49
626.16	1880.04
626.35	1757.16
626.54	1828.84
626.74	1906.66
626.93	1765.35
627.12	1734.63
627.31	1771.49
627.50	1765.35
627.69	1718.25
627.88	1683.43
628.07	1775.59
628.26	1671.14
628.45	1730.53
628.64	1695.72
628.83	1724.39
629.02	1722.34
629.21	1734.63
629.40	1748.97
629.59	1765.35
629.78	1763.30
629.97	1753.06
630.16	1662.95
630.35	1763.30
630.54	1748.97
630.73	1636.33
630.92	1751.01
631.11	1703.91
631.30	1703.91
631.49	1765.35
631.68	1738.73
631.87	1755.11
632.06	1681.38
632.25	1873.89
632.44	1681.38
632.63	1761.25
632.82	1761.25
633.01	1789.92
633.20	1808.36
633.39	1789.92
633.58	1710.05
633.77	1806.31
633.96	1773.54
634.15	1791.97
634.34	1722.34
634.53	1751.01
634.72	1771.49
634.91	1738.73
635.10	1785.83
635.29	1787.88
635.48	1763.30
635.67	1738.73
635.86	1617.90
636.05	1843.17
636.24	1673.19
636.43	1763.30
636.62	1753.06
636.81	1626.09
637.00	1734.63
637.19	1796.07
637.38	1761.25
637.57	1644.52
637.76	1779.68
637.95	1796.07
638.14	1816.55
638.33	1802.21
638.52	1791.97
638.71	1685.48
638.89	1685.48
639.08	1906.66
639.27	1908.71
639.46	1873.89
639.65	2113.50
639.84	2246.62
640.03	2330.59
640.22	2355.16
640.41	2359.26
640.60	2113.50
640.79	2064.35
640.98	1904.61
641.17	1939.43
641.36	1953.76
641.55	1857.51
641.74	1832.93
641.92	1667.05
642.11	1744.87
642.30	1773.54
642.49	1720.29
642.68	1734.63
642.87	1771.49
643.06	1763.30
643.25	1660.90
643.44	1714.15
643.63	1716.20
643.82	1820.64
644.00	1654.76
644.19	1726.44
644.38	1673.19
644.57	1724.39
644.76	1728.49
644.95	1705.96
645.14	1705.96
645.33	1738.73
645.52	1693.67
645.71	1675.24
645.89	1673.19
646.08	1732.58
646.27	1742.82
646.46	1845.22
646.65	1722.34
646.84	1734.63
647.03	1689.57
647.22	1753.06
647.40	1738.73
647.59	1679.33
647.78	1660.90
647.97	1652.71
648.16	1720.29
648.35	1794.02
648.54	1767.40
648.73	1730.53
648.91	1787.88
649.10	1728.49
649.29	1724.39
649.48	1757.16
649.67	1761.25
649.86	1716.20
650.05	1824.74
650.23	1880.04
650.42	1845.22
650.61	1957.86
650.80	1961.95
650.99	1898.47
651.18	1902.56
651.36	1843.17
651.55	1687.53
651.74	1785.83
651.93	1728.49
652.12	1714.15
652.31	1779.68
652.49	1724.39
652.68	1787.88
652.87	1925.09
653.06	1714.15
653.25	1871.84
653.44	1800.16
653.62	1847.27
653.81	1683.43
654.00	1746.92
654.19	1787.88
654.38	1890.28
654.56	1798.12
654.75	1740.77
654.94	1845.22
655.13	1779.68
655.32	1681.38
655.51	1806.31
655.69	1699.81
655.88	1773.54
656.07	1636.33
656.26	1728.49
656.45	1742.82
656.63	1742.82
656.82	1742.82
657.01	1806.31
657.20	1673.19
657.38	1796.07
657.57	1695.72
657.76	1624.04
657.95	1734.63
658.14	1720.29
658.32	1646.57
658.51	1681.38
658.70	1683.43
658.89	1705.96
659.08	1714.15
659.26	1785.83
659.45	1705.96
659.64	1822.69
659.83	1720.29
660.01	1957.86
660.20	1714.15
660.39	1851.36
660.58	1626.09
660.76	1787.88
660.95	1619.94
661.14	1796.07
661.33	1656.81
661.51	1720.29
661.70	1687.53
661.89	1824.74
662.08	1777.64
662.26	1619.94
662.45	1720.29
662.64	1837.03
662.83	1777.64
663.01	1669.09
663.20	1746.92
663.39	1857.51
663.58	1658.85
663.76	1796.07
663.95	1724.39
664.14	1718.25
664.32	1681.38
664.51	1691.62
664.70	1644.52
664.89	1755.11
665.07	1619.94
665.26	1794.02
665.45	1726.44
665.64	1787.88
665.82	1748.97
666.01	1775.59
666.20	1718.25
666.38	1794.02
666.57	1816.55
666.76	2279.39
666.95	4521.92
667.13	11290.45
667.32	18278.12
667.51	21845.68
667.69	24907.40
667.88	25171.58
668.07	19590.87
668.25	14374.69
668.44	11763.53
668.63	9754.48
668.81	8406.91
669.00	7608.20
669.19	7002.01
669.38	6074.28
669.56	5271.47
669.75	4526.01
669.94	3626.95
670.12	3291.09
670.31	2660.31
670.50	2418.65
670.68	2209.76
670.87	1898.47
671.06	1845.22
671.24	1873.89
671.43	1957.86
671.62	1863.65
671.80	1722.34
671.99	1816.55
672.18	1769.44
672.36	1800.16
672.55	1873.89
672.74	1763.30
672.92	1765.35
673.11	1740.77
673.29	1687.53
673.48	1837.03
673.67	1761.25
673.85	1791.97
674.04	1701.86
674.23	1710.05
674.41	1822.69
674.60	1621.99
674.79	1640.42
674.97	1730.53
675.16	1785.83
675.34	1742.82
675.53	1628.14
675.72	1722.34
675.90	1748.97
676.09	1693.67
676.28	1730.53
676.46	1656.81
676.65	1808.36
676.83	1697.77
677.02	1726.44
677.21	1726.44
677.39	1798.12
677.58	1656.81
677.77	1667.05
677.95	1701.86
678.14	1732.58
678.32	1695.72
678.51	1718.25
678.70	1837.03
678.88	1716.20
679.07	1767.40
679.25	1761.25
679.44	1642.47
679.63	1726.44
679.81	1736.68
680.00	1826.79
680.18	1701.86
680.37	1818.60
680.55	1697.77
680.74	1675.24
680.93	1718.25
681.11	1794.02
681.30	1687.53
681.48	1746.92
681.67	1708.01
681.85	1628.14
682.04	1671.14
682.23	1767.40
682.41	1710.05
682.60	1662.95
682.78	1738.73
682.97	1638.38
683.15	1755.11
683.34	1730.53
683.53	1787.88
683.71	1630.18
683.90	1732.58
684.08	1779.68
684.27	1746.92
684.45	1796.07
684.64	1769.44
684.82	1662.95
685.01	1718.25
685.19	1703.91
685.38	1804.26
685.57	1761.25
685.75	1607.66
685.94	1632.23
686.12	1619.94
686.31	1718.25
686.49	1777.64
686.68	1658.85
686.86	1716.20
687.05	1705.96
687.23	1839.08
687.42	1677.29
687.60	1665.00
687.79	1767.40
687.97	1726.44
688.16	1732.58
688.34	1824.74
688.53	1650.66
688.71	1765.35
688.90	1804.26
689.08	1683.43
689.27	1607.66
689.45	1757.16
689.64	1730.53
689.82	1775.59
690.01	1779.68
690.19	1703.91
690.38	1775.59
690.56	1718.25
690.75	1535.98
690.93	1695.72
691.12	1724.39
691.30	1673.19
691.49	1701.86
691.67	1685.48
691.86	1896.42
692.04	1675.24
692.23	1677.29
692.41	1822.69
692.60	1957.86
692.78	1869.80
692.97	1814.50
693.15	1832.93
693.34	1867.75
693.52	1812.45
693.71	1638.38
693.89	1624.04
694.08	1574.89
694.26	1865.70
694.44	1712.10
694.63	1763.30
694.81	1705.96
695.00	1681.38
695.18	1765.35
695.37	1847.27
695.55	1724.39
695.74	1669.09
695.92	1685.48
696.10	1759.21
696.29	1648.61
696.47	1728.49
696.66	1710.05
696.84	1699.81
697.03	1689.57
697.21	1869.80
697.40	2320.35
697.58	1812.45
697.76	1730.53
697.95	1660.90
698.13	1701.86
698.32	1693.67
698.50	1736.68
698.68	1726.44
698.87	1775.59
699.05	1918.95
699.24	1642.47
699.42	1695.72
699.61	1765.35
699.79	1740.77
699.97	1744.87
700.16	1634.28
700.34	1640.42
700.53	1656.81
700.71	1804.26
700.89	1816.55
701.08	1759.21
701.26	1705.96
701.45	2160.61
701.63	1705.96
701.81	1757.16
702.00	1642.47
702.18	1699.81
702.37	1667.05
702.55	1871.84
702.73	1886.18
702.92	1863.65
703.10	1828.84
703.28	1953.76
703.47	1904.61
703.65	1857.51
703.84	1916.90
704.02	1759.21
704.20	1849.32
704.39	1751.01
704.57	1783.78
704.75	1777.64
704.94	1841.12
705.12	1796.07
705.30	1931.23
705.49	2541.53
705.67	5425.07
705.86	13098.81
706.04	18953.95
706.22	22779.56
706.41	24766.09
706.59	24426.12
706.77	18802.40
706.96	13641.52
707.14	11560.78
707.32	9994.09
707.51	8884.09
707.69	7720.84
707.87	6784.92
708.06	5392.30
708.24	4274.11
708.42	3219.41
708.61	2805.72
708.79	2179.04
708.97	2050.02
709.16	2019.30
709.34	1898.47
709.52	1783.78
709.71	1744.87
709.89	1841.12
710.07	1632.23
710.26	1720.29
710.44	1773.54
710.62	1730.53
710.80	1761.25
710.99	1748.97
711.17	1818.60
711.35	1669.09
711.54	1712.10
711.72	1808.36
711.90	1722.34
712.09	1714.15
712.27	1660.90
712.45	1701.86
712.63	1644.52
712.82	1755.11
713.00	1746.92
713.18	1714.15
713.37	1703.91
713.55	1687.53
713.73	1787.88
713.91	1755.11
714.10	1656.81
714.28	1714.15
714.46	1771.49
714.65	1681.38
714.83	1767.40
715.01	1730.53
715.19	1697.77
715.38	1632.23
715.56	1673.19
715.74	1722.34
715.92	1628.14
716.11	1771.49
716.29	1685.48
716.47	1699.81
716.65	1675.24
716.84	1652.71
717.02	1775.59
717.20	1632.23
717.38	1671.14
717.57	1746.92
717.75	1730.53
717.93	1695.72
718.11	1746.92
718.30	1628.14
718.48	1763.30
718.66	1740.77
718.84	1808.36
719.03	1765.35
719.21	1652.71
719.39	1796.07
719.57	1738.73
719.75	1773.54
719.94	1644.52
720.12	1669.09
720.30	1736.68
720.48	1791.97
720.67	1693.67
720.85	1636.33
721.03	1685.48
721.21	1656.81
721.39	1789.92
721.58	1714.15
721.76	1710.05
721.94	1712.10
722.12	1761.25
722.30	1695.72
722.49	1691.62
722.67	1705.96
722.85	1800.16
723.03	1689.57
723.21	1720.29
723.40	1675.24
723.58	1779.68
723.76	1767.40
723.94	1828.84
724.12	1769.44
724.30	1771.49
724.49	1820.64
724.67	1728.49
724.85	1822.69
725.03	1656.81
725.21	1714.15
725.40	1845.22
725.58	1699.81
725.76	1849.32
725.94	1738.73
726.12	1593.32
726.30	1679.33
726.49	1738.73
726.67	1712.10
726.85	1716.20
727.03	1875.94
727.21	2211.81
727.39	3428.30
727.57	4812.73
727.76	5492.65
727.94	6109.09
728.12	6281.12
728.30	5609.39
728.48	4415.42
728.66	3952.58
728.84	3592.14
729.03	3239.89
729.21	2762.71
729.39	2439.13
729.57	2095.07
729.75	2025.44
729.93	1955.81
730.11	1771.49
730.30	1718.25
730.48	1699.81
730.66	1834.98
730.84	1908.71
731.02	1726.44
731.20	1734.63
731.38	1718.25
731.56	1710.05
731.74	1642.47
731.93	1685.48
732.11	1701.86
732.29	1701.86
732.47	1767.40
732.65	1771.49
732.83	1857.51
733.01	1720.29
733.19	1660.90
733.37	1771.49
733.56	1746.92
733.74	1693.67
733.92	1710.05
734.10	1634.28
734.28	1718.25
734.46	1728.49
734.64	1679.33
734.82	1757.16
735.00	1691.62
735.18	1724.39
735.36	1665.00
735.54	1775.59
735.73	1720.29
735.91	1695.72
736.09	1767.40
736.27	1675.24
736.45	1791.97
736.63	1662.95
736.81	1699.81
736.99	1718.25
737.17	1812.45
737.35	1642.47
737.53	1775.59
737.71	1642.47
737.89	1769.44
738.07	1679.33
738.25	1677.29
738.43	1669.09
738.61	1683.43
738.80	1544.17
738.98	1574.89
739.16	1681.38
739.34	1644.52
739.52	1722.34
739.70	1654.76
739.88	1744.87
740.06	1734.63
740.24	1597.42
740.42	1730.53
740.60	1628.14
740.78	1679.33
740.96	1576.94
741.14	1703.91
741.32	1687.53
741.50	1595.37
741.68	1845.22
741.86	1763.30
742.04	1703.91
742.22	1695.72
742.40	1738.73
742.58	1740.77
742.76	1673.19
742.94	1789.92
743.12	1665.00
743.30	1722.34
743.48	1744.87
743.66	1693.67
743.84	1736.68
744.02	1716.20
744.20	1726.44
744.38	1660.90
744.56	1701.86
744.74	1845.22
744.92	1689.57
745.10	1787.88
745.28	1791.97
745.46	1824.74
745.64	1716.20
745.82	1720.29
746.00	1742.82
746.18	1769.44
746.36	1720.29
746.54	1757.16
746.72	1705.96
746.90	1648.61
747.08	1751.01
747.26	1693.67
747.44	1695.72
747.62	1714.15
747.80	1697.77
747.98	1814.50
748.15	1722.34
748.33	1832.93
748.51	1695.72
748.69	1712.10
748.87	1777.64
749.05	1755.11
749.23	1712.10
749.41	1722.34
749.59	1703.91
749.77	1841.12
749.95	1714.15
750.13	1751.01
750.31	1732.58
750.49	1587.18
750.67	1753.06
750.85	1767.40
751.03	1640.42
751.20	1775.59
751.38	1697.77
751.56	1759.21
751.74	1769.44
751.92	1718.25
752.10	1681.38
752.28	1769.44
752.46	1683.43
752.64	1726.44
752.82	1714.15
753.00	1701.86
753.18	1746.92
753.35	1679.33
753.53	1730.53
753.71	1748.97
753.89	1693.67
754.07	1783.78
754.25	1794.02
754.43	1658.85
754.61	1665.00
754.79	1757.16
754.97	1724.39
755.14	1771.49
755.32	1636.33
755.50	1656.81
755.68	1710.05
755.86	1636.33
756.04	1615.85
756.22	1628.14
756.40	1767.40
756.57	1812.45
756.75	1644.52
756.93	1697.77
757.11	1724.39
757.29	1673.19
757.47	1693.67
757.65	1665.00
757.82	1603.56
758.00	1714.15
758.18	1736.68
758.36	1652.71
758.54	1791.97
758.72	1621.99
758.90	1763.30
759.07	1812.45
759.25	1626.09
759.43	1775.59
759.61	1605.61
759.79	2275.29
759.97	1787.88
760.15	1683.43
760.32	1708.01
760.50	1720.29
760.68	1716.20
760.86	1626.09
761.04	1755.11
761.22	1730.53
761.39	1804.26
761.57	1699.81
761.75	1665.00
761.93	1699.81
762.11	1746.92
762.28	1712.10
762.46	1636.33
762.64	1744.87
762.82	1544.17
763.00	1673.19
763.18	1783.78
763.35	1689.57
763.53	1808.36
763.71	1753.06
763.89	1656.81
764.07	1775.59
764.24	1738.73
764.42	1767.40
764.60	1718.25
764.78	1732.58
764.96	1703.91
765.13	1783.78
765.31	1757.16
765.49	1718.25
765.67	1675.24
765.84	1638.38
766.02	1732.58
766.20	1583.08
766.38	1691.62
766.56	1734.63
766.73	1828.84
766.91	1746.92
767.09	1695.72
767.27	1728.49
767.44	1652.71
767.62	1681.38
767.80	1730.53
767.98	1710.05
768.15	1718.25
768.33	1798.12
768.51	1785.83
768.69	1636.33
768.87	1765.35
769.04	1628.14
769.22	1789.92
769.40	1837.03
769.58	1873.89
769.75	1708.01
769.93	1818.60
770.11	1660.90
770.28	1638.38
770.46	1808.36
770.64	1736.68
770.82	1669.09
770.99	1636.33
771.17	1765.35
771.35	1708.01
771.53	1679.33
771.70	1669.09
771.88	1744.87
772.06	1716.20
772.23	1734.63
772.41	1720.29
772.59	1714.15
772.77	1654.76
772.94	1632.23
773.12	1683.43
773.30	1601.51
773.47	1644.52
773.65	1621.99
773.83	1773.54
774.01	1621.99
774.18	1644.52
774.36	1693.67
774.54	1685.48
774.71	1681.38
774.89	1531.88
775.07	1710.05
775.24	1726.44
775.42	1738.73
775.60	1765.35
775.78	1654.76
775.95	1685.48
776.13	1648.61
776.31	1646.57
776.48	1794.02
776.66	1722.34
776.84	1685.48
777.01	1732.58
777.19	1712.10
777.37	1642.47
777.54	1712.10
777.72	1837.03
777.90	1796.07
778.07	1662.95
778.25	1869.80
778.43	1746.92
778.60	1691.62
778.78	1695.72
778.96	1755.11
779.13	1630.18
779.31	1658.85
779.49	1662.95
779.66	1722.34
779.84	1658.85
780.01	1675.24
780.19	1628.14
780.37	1818.60
780.54	1683.43
780.72	1673.19
780.90	1794.02
781.07	1722.34
781.25	1673.19
781.43	1759.21
781.60	1648.61
781.78	1796.07
781.95	1753.06
782.13	1667.05
782.31	1730.53
782.48	1605.61
782.66	1763.30
782.83	1726.44
783.01	1740.77
783.19	1732.58
783.36	1648.61
783.54	1630.18
783.72	1771.49
783.89	1660.90
784.07	1703.91
784.24	1677.29
784.42	1740.77
784.60	1710.05
784.77	1787.88
784.95	1560.55
785.12	1617.90
785.30	1744.87
785.47	1691.62
785.65	1722.34
785.83	1757.16
786.00	1718.25
786.18	1761.25
786.35	1630.18
786.53	1665.00
786.71	1718.25
786.88	1748.97
787.06	1722.34
787.23	1656.81
787.41	1650.66
787.58	1775.59
787.76	1636.33
787.94	1685.48
788.11	1681.38
788.29	1642.47
788.46	1644.52
788.64	1681.38
788.81	1722.34
788.99	1689.57
789.16	1654.76
789.34	1644.52
789.52	1626.09
789.69	1724.39
789.87	1529.83
790.04	1718.25
790.22	1710.05
790.39	1822.69
790.57	1595.37
790.74	1652.71
790.92	1746.92
791.09	1595.37
791.27	1744.87
791.44	1718.25
791.62	1763.30
791.79	1755.11
791.97	1722.34
792.15	1904.61
792.32	1736.68
792.50	1738.73
792.67	1787.88
792.85	1734.63
793.02	1732.58
793.20	1689.57
793.37	1593.32
793.55	1683.43
793.72	1656.81
793.90	1687.53
794.07	1693.67
794.25	1667.05
794.42	1650.66
794.60	1695.72
794.77	1683.43
794.95	1767.40
795.12	1730.53
795.30	1597.42
795.47	1576.94
795.65	1863.65
795.82	1712.10
796.00	1656.81
796.17	1665.00
796.34	1646.57
796.52	1695.72
796.69	1816.55
796.87	1712.10
797.04	1757.16
797.22	1781.73
797.39	1720.29
797.57	1701.86
797.74	1701.86
797.92	1771.49
798.09	1695.72
798.27	1738.73
798.44	1687.53
798.62	1683.43
798.79	1720.29
798.96	1703.91
799.14	1710.05
799.31	1867.75
799.49	1693.67
799.66	1697.77
799.84	1673.19
800.01	1609.70
800.19	1757.16
800.36	1679.33
800.53	1748.97
800.71	1744.87
800.88	1791.97
801.06	1755.11
801.23	1599.46
801.41	1671.14
801.58	1667.05
801.75	1654.76
801.93	1800.16
802.10	1796.07
802.28	1742.82
802.45	1701.86
802.63	1814.50
802.80	1796.07
802.97	1722.34
803.15	1710.05
803.32	1785.83
803.50	1751.01
803.67	1648.61
803.84	1599.46
804.02	1648.61
804.19	1628.14
804.37	1558.50
804.54	1652.71
804.71	1705.96
804.89	1716.20
805.06	1650.66
805.24	1683.43
805.41	1681.38
805.58	1617.90
805.76	1857.51
805.93	1722.34
806.10	1771.49
806.28	1726.44
806.45	1697.77
806.63	1644.52
806.80	1724.39
806.97	1724.39
807.15	1669.09
807.32	1759.21
807.49	1740.77
807.67	1650.66
807.84	1726.44
808.01	1638.38
808.19	1828.84
808.36	1847.27
808.54	1632.23
808.71	1660.90
808.88	1712.10
809.06	1787.88
809.23	1787.88
809.40	1683.43
809.58	1720.29
809.75	1726.44
809.92	1613.80
810.10	1875.94
810.27	1691.62
810.44	1712.10
810.62	1703.91
810.79	1710.05
810.96	1660.90
811.14	1734.63
811.31	1804.26
811.48	1656.81
811.66	1744.87
811.83	1775.59
812.00	1767.40
812.18	1777.64
812.35	1765.35
812.52	1710.05
812.69	1697.77
812.87	1705.96
813.04	1757.16
813.21	1667.05
813.39	1624.04
813.56	1667.05
813.73	1757.16
813.91	1632.23
814.08	1726.44
814.25	1685.48
814.42	1601.51
814.60	1714.15
814.77	1775.59
814.94	1781.73
815.12	1783.78
815.29	1736.68
815.46	1673.19
815.63	1802.21
815.81	1705.96
815.98	1632.23
816.15	1740.77
816.33	1734.63
816.50	1705.96
816.67	1683.43
816.84	1677.29
817.02	1679.33
817.19	1525.74
817.36	1705.96
817.53	1800.16
817.71	1648.61
817.88	1730.53
818.05	1607.66
818.22	1695.72
818.40	1818.60
818.57	1695.72
818.74	1671.14
818.91	1628.14
819.09	1673.19
819.26	1728.49
819.43	1693.67
819.60	1658.85
819.78	1710.05
819.95	1751.01
820.12	1730.53
820.29	1720.29
820.47	1802.21
820.64	1730.53
820.81	1669.09
820.98	1710.05
821.15	1681.38
821.33	1777.64
821.50	1638.38
821.67	1714.15
821.84	1679.33
822.02	1716.20
822.19	1796.07
822.36	1640.42
822.53	1669.09
822.70	1607.66
822.88	1671.14
823.05	1832.93
823.22	1695.72
823.39	1771.49
823.56	1671.14
823.74	1738.73
823.91	1634.28
824.08	1628.14
824.25	1695.72
824.42	1802.21
824.60	1624.04
824.77	1738.73
824.94	1656.81
825.11	1816.55
825.28	1665.00
825.45	1687.53
825.63	1714.15
825.80	1648.61
825.97	1695.72
826.14	1677.29
826.31	1599.46
826.48	1689.57
826.66	1626.09
826.83	1665.00
827.00	1730.53
827.17	1607.66
827.34	1708.01
827.51	1621.99
827.69	1705.96
827.86	1644.52
828.03	1630.18
828.20	1734.63
828.37	1640.42
828.54	1759.21
828.71	1673.19
828.89	1765.35
829.06	1722.34
829.23	1781.73
829.40	1679.33
829.57	1665.00
829.74	1681.38
829.91	1662.95
830.09	1665.00
830.26	1720.29
830.43	1828.84
830.60	1675.24
830.77	1701.86
830.94	1775.59
831.11	1718.25
831.28	1687.53
831.46	1726.44
831.63	1656.81
831.80	1714.15
831.97	1728.49
832.14	1624.04
832.31	1699.81
832.48	1705.96
832.65	1759.21
832.82	1714.15
832.99	1683.43
833.17	1632.23
833.34	1822.69
833.51	1734.63
833.68	1624.04
833.85	1691.62
834.02	1675.24
834.19	1665.00
834.36	1742.82
834.53	1689.57
834.70	1755.11
834.87	1779.68
835.04	1648.61
835.22	1644.52
835.39	1755.11
835.56	1675.24
835.73	1685.48
835.90	1710.05
836.07	1730.53
836.24	1722.34
836.41	1789.92
836.58	1705.96
836.75	1726.44
836.92	1753.06
837.09	1736.68
837.26	1789.92
837.43	1695.72
837.60	1757.16
837.77	1693.67
837.94	1728.49
838.12	1794.02
838.29	1718.25
838.46	1695.72
838.63	1669.09
838.80	1753.06
838.97	1757.16
839.14	1693.67
839.31	1701.86
839.48	1697.77
839.65	1599.46
839.82	1814.50
839.99	1701.86
840.16	1681.38
840.33	1783.78
840.50	1718.25
840.67	1638.38
840.84	1603.56
841.01	1722.34
841.18	1660.90
841.35	1644.52
841.52	1777.64
841.69	1830.88
841.86	1734.63
842.03	1703.91
842.20	1804.26
842.37	1603.56
842.54	1748.97
842.71	1673.19
842.88	1630.18
843.05	1755.11
843.22	1654.76
843.39	1806.31
843.56	1632.23
843.73	1705.96
843.90	1667.05
844.07	1701.86
844.24	1755.11
844.41	1703.91
844.58	1744.87
844.75	1656.81
844.92	1728.49
845.09	1720.29
845.26	1740.77
845.43	1726.44
845.60	1724.39
845.77	1810.40
845.94	1677.29
846.10	1744.87
846.27	1578.98
846.44	1691.62
846.61	1675.24
846.78	1712.10
846.95	1808.36
847.12	1673.19
847.29	1587.18
847.46	1628.14
847.63	1748.97
847.80	1599.46
847.97	1660.90
848.14	1843.17
848.31	1740.77
848.48	1650.66
848.65	1771.49
848.82	1701.86
848.98	1783.78
849.15	1759.21
849.32	1738.73
849.49	1796.07
849.66	1708.01
849.83	1753.06
850.00	1554.41
850.17	1765.35
850.34	1742.82
850.51	1599.46
850.68	1718.25
850.85	1787.88
851.01	1716.20
851.18	1746.92
851.35	1703.91
851.52	1746.92
851.69	1755.11
851.86	1611.75
852.03	1691.62
852.20	1761.25
852.37	1734.63
852.53	1632.23
852.70	1687.53
852.87	1779.68
853.04	1738.73
853.21	1564.65
853.38	1744.87
853.55	1746.92
853.72	1787.88
853.89	1617.90
854.05	1669.09
854.22	1662.95
854.39	1757.16
854.56	1720.29
854.73	1761.25
854.90	1695.72
855.07	1683.43
855.23	1607.66
855.40	1687.53
855.57	1595.37
855.74	1628.14
855.91	1933.28
856.08	1613.80
856.25	1671.14
856.41	1712.10
856.58	1710.05
856.75	1646.57
856.92	1691.62
857.09	1722.34
857.26	1574.89
857.42	1640.42
857.59	1742.82
857.76	1658.85
857.93	1695.72
858.10	1744.87
858.27	1630.18
858.43	1677.29
858.60	1687.53
858.77	1574.89
858.94	1634.28
859.11	1697.77
859.27	1714.15
859.44	1753.06
859.61	1822.69
859.78	1708.01
859.95	1708.01
860.12	1611.75
860.28	1853.41
860.45	1910.75
860.62	1665.00
860.79	1662.95
860.95	1681.38
861.12	1640.42
861.29	1703.91
861.46	1724.39
861.63	1705.96
861.79	1695.72
861.96	1652.71
862.13	1710.05
862.30	1775.59
862.47	1718.25
862.63	1652.71
862.80	1832.93
862.97	1796.07
863.14	1681.38
863.30	1802.21
863.47	1699.81
863.64	1785.83
863.81	1759.21
863.97	1669.09
864.14	1724.39
864.31	1697.77
864.48	1705.96
864.65	1652.71
864.81	1740.77
864.98	1640.42
865.15	1773.54
865.32	1787.88
865.48	1734.63
865.65	1789.92
865.82	1681.38
865.98	1720.29
866.15	1714.15
866.32	1732.58
866.49	1691.62
866.65	1765.35
866.82	1748.97
866.99	1675.24
867.16	1736.68
867.32	1675.24
867.49	1699.81
867.66	1677.29
867.83	1691.62
867.99	1591.27
868.16	1697.77
868.33	1646.57
868.49	1662.95
868.66	1718.25
868.83	1728.49
868.99	1734.63
869.16	1693.67
869.33	1820.64
869.50	1736.68
869.66	1648.61
869.83	1720.29
870.00	1689.57
870.16	1759.21
870.33	1697.77
870.50	1718.25
870.66	1714.15
870.83	1853.41
871.00	1730.53
871.17	1685.48
871.33	1689.57
871.50	1628.14
871.67	1736.68
871.83	1617.90
872.00	1839.08
872.17	1652.71
872.33	1802.21
872.50	1796.07
872.67	1656.81
872.83	1605.61
873.00	1703.91
873.17	1677.29
873.33	1703.91
873.50	1744.87
873.67	1607.66
873.83	1626.09
874.00	1779.68
874.16	1736.68
874.33	1736.68
874.50	1554.41
874.66	1693.67
874.83	1722.34
875.00	1824.74
875.16	1775.59
875.33	1728.49
875.50	1589.22
875.66	1654.76
875.83	1697.77
875.99	1656.81
876.16	1689.57
876.33	1667.05
876.49	1656.81
876.66	1691.62
876.83	1708.01
876.99	1607.66
877.16	1671.14
877.32	1671.14
877.49	1689.57
877.66	1748.97
877.82	1810.40
877.99	1744.87
878.15	1771.49
878.32	1742.82
878.49	1767.40
878.65	1740.77
878.82	1722.34
878.98	1599.46
879.15	1781.73
879.32	1832.93
879.48	1630.18
879.65	1718.25
879.81	1595.37
879.98	1728.49
880.15	1642.47
880.31	1708.01
880.48	1689.57
880.64	1802.21
880.81	1796.07
880.97	1824.74
881.14	1720.29
881.31	1673.19
881.47	1904.61
881.64	1746.92
881.80	1587.18
881.97	1683.43
882.13	1757.16
882.30	1654.76
882.47	1679.33
882.63	1732.58
882.80	1624.04
882.96	1675.24
883.13	1740.77
883.29	1665.00
883.46	1683.43
883.62	1755.11
883.79	1656.81
883.95	1814.50
884.12	1624.04
884.29	1794.02
884.45	1708.01
884.62	1695.72
884.78	1640.42
884.95	1763.30
885.11	1720.29
885.28	1685.48
885.44	1638.38
885.61	1796.07
885.77	1738.73
885.94	1701.86
886.10	1673.19
886.27	1728.49
886.43	1785.83
886.60	1800.16
886.76	1728.49
886.93	1640.42
887.09	1712.10
887.26	1644.52
887.42	1693.67
887.59	1773.54
887.75	1816.55
887.92	1753.06
888.08	1742.82
888.25	1791.97
888.41	1773.54
888.58	1648.61
888.74	1712.10
888.91	1708.01
>>>>>End Processed Spectral Data<<<<<
