SpectraSuite Data File
++++++++++++++++++++++++++++++++++++
Date: Wed May 04 18:44:11 CEST 2016
User: root
Dark Spectrum Present: No
Reference Spectrum Present: No
Number of Sampled Component Spectra: 1
Spectrometers: USB4C02835
Integration Time (usec): 100000 (USB4C02835)
Spectra Averaged: 1 (USB4C02835)
Boxcar Smoothing: 0 (USB4C02835)
Correct for Electrical Dark: No (USB4C02835)
Strobe/Lamp Enabled: No (USB4C02835)
Correct for Detector Non-linearity: No (USB4C02835)
Correct for Stray Light: No (USB4C02835)
Number of Pixels in Processed Spectrum: 3648
>>>>>Begin Processed Spectral Data<<<<<
177.47	1437.67
177.69	1437.67
177.91	1437.67
178.13	1523.69
178.36	1495.02
178.58	1626.09
178.80	1679.33
179.02	1640.42
179.24	1642.47
179.46	1708.01
179.68	1761.25
179.90	1746.92
180.13	1757.16
180.35	1744.87
180.57	1615.85
180.79	1718.25
181.01	1671.14
181.23	1722.34
181.45	1732.58
181.67	1736.68
181.90	1757.16
182.12	1771.49
182.34	1658.85
182.56	1736.68
182.78	1722.34
183.00	1753.06
183.22	1742.82
183.44	1650.66
183.66	1826.79
183.89	1830.88
184.11	1787.88
184.33	1689.57
184.55	1781.73
184.77	1818.60
184.99	1640.42
185.21	1757.16
185.43	1798.12
185.65	1673.19
185.87	1726.44
186.10	1824.74
186.32	1839.08
186.54	1662.95
186.76	1634.28
186.98	1748.97
187.20	1708.01
187.42	1722.34
187.64	1683.43
187.86	1697.77
188.08	1742.82
188.30	1693.67
188.52	1662.95
188.75	1755.11
188.97	1755.11
189.19	1669.09
189.41	1742.82
189.63	1626.09
189.85	1660.90
190.07	1691.62
190.29	1675.24
190.51	1728.49
190.73	1591.27
190.95	1693.67
191.17	1617.90
191.39	1640.42
191.61	1658.85
191.84	1634.28
192.06	1667.05
192.28	1527.78
192.50	1871.84
192.72	1785.83
192.94	1658.85
193.16	1781.73
193.38	1697.77
193.60	1621.99
193.82	1683.43
194.04	1767.40
194.26	1718.25
194.48	1796.07
194.70	1683.43
194.92	1683.43
195.14	1726.44
195.36	1734.63
195.58	1675.24
195.80	1714.15
196.02	1699.81
196.24	1648.61
196.46	1746.92
196.69	1640.42
196.91	1906.66
197.13	1671.14
197.35	1665.00
197.57	1746.92
197.79	1771.49
198.01	1796.07
198.23	1746.92
198.45	1710.05
198.67	1675.24
198.89	1607.66
199.11	1736.68
199.33	1652.71
199.55	1574.89
199.77	1722.34
199.99	1751.01
200.21	1757.16
200.43	1755.11
200.65	1570.79
200.87	1607.66
201.09	1722.34
201.31	1665.00
201.53	1718.25
201.75	1710.05
201.97	1738.73
202.19	1677.29
202.41	1777.64
202.63	1791.97
202.85	1685.48
203.07	1796.07
203.29	1669.09
203.51	1646.57
203.73	1673.19
203.95	1894.37
204.17	1648.61
204.39	1720.29
204.61	1705.96
204.83	1669.09
205.05	1820.64
205.27	1769.44
205.49	1832.93
205.71	1740.77
205.93	1701.86
206.15	1720.29
206.37	1720.29
206.59	1710.05
206.81	1632.23
207.03	1685.48
207.25	1734.63
207.47	1748.97
207.69	1632.23
207.91	1800.16
208.13	1748.97
208.34	1763.30
208.56	1681.38
208.78	1716.20
209.00	1648.61
209.22	1683.43
209.44	1691.62
209.66	1667.05
209.88	1691.62
210.10	1660.90
210.32	1689.57
210.54	1755.11
210.76	1671.14
210.98	1779.68
211.20	1650.66
211.42	1765.35
211.64	1775.59
211.86	1746.92
212.08	1699.81
212.30	1640.42
212.52	1667.05
212.74	1701.86
212.96	1769.44
213.17	1802.21
213.39	1744.87
213.61	1726.44
213.83	1734.63
214.05	1753.06
214.27	1726.44
214.49	1685.48
214.71	1671.14
214.93	1767.40
215.15	1701.86
215.37	1759.21
215.59	1585.13
215.81	1724.39
216.03	1753.06
216.24	1716.20
216.46	1728.49
216.68	1638.38
216.90	1785.83
217.12	1697.77
217.34	1773.54
217.56	1718.25
217.78	1753.06
218.00	1783.78
218.22	1681.38
218.44	1671.14
218.66	1708.01
218.87	1816.55
219.09	1734.63
219.31	1726.44
219.53	1722.34
219.75	1701.86
219.97	1665.00
220.19	1730.53
220.41	1730.53
220.63	1828.84
220.85	1771.49
221.06	1632.23
221.28	1738.73
221.50	1677.29
221.72	1681.38
221.94	1816.55
222.16	1662.95
222.38	1751.01
222.60	1722.34
222.82	1722.34
223.03	1691.62
223.25	1644.52
223.47	1720.29
223.69	1742.82
223.91	1814.50
224.13	1705.96
224.35	1687.53
224.57	1734.63
224.78	1728.49
225.00	1642.47
225.22	1640.42
225.44	1720.29
225.66	1697.77
225.88	1728.49
226.10	1800.16
226.32	1757.16
226.53	1814.50
226.75	1669.09
226.97	1648.61
227.19	1705.96
227.41	1648.61
227.63	1660.90
227.85	1607.66
228.06	1658.85
228.28	1675.24
228.50	1763.30
228.72	1628.14
228.94	1703.91
229.16	1640.42
229.37	1638.38
229.59	1726.44
229.81	1710.05
230.03	1755.11
230.25	1585.13
230.47	1681.38
230.69	1699.81
230.90	1806.31
231.12	1656.81
231.34	1734.63
231.56	1705.96
231.78	1697.77
232.00	1746.92
232.21	1665.00
232.43	1681.38
232.65	1597.42
232.87	1695.72
233.09	1679.33
233.30	1642.47
233.52	1746.92
233.74	1691.62
233.96	1679.33
234.18	1746.92
234.40	1685.48
234.61	1791.97
234.83	1705.96
235.05	1619.94
235.27	1845.22
235.49	1794.02
235.70	1619.94
235.92	1767.40
236.14	1673.19
236.36	1865.70
236.58	1628.14
236.79	1724.39
237.01	1761.25
237.23	1714.15
237.45	1912.80
237.67	1652.71
237.88	1734.63
238.10	1820.64
238.32	1626.09
238.54	1718.25
238.76	1734.63
238.97	1720.29
239.19	1732.58
239.41	1708.01
239.63	1681.38
239.85	1665.00
240.06	1665.00
240.28	1654.76
240.50	1763.30
240.72	1708.01
240.93	1736.68
241.15	1769.44
241.37	1699.81
241.59	1779.68
241.81	1640.42
242.02	1724.39
242.24	1708.01
242.46	1755.11
242.68	1660.90
242.89	1744.87
243.11	1814.50
243.33	1728.49
243.55	1681.38
243.76	1699.81
243.98	1708.01
244.20	1705.96
244.42	1687.53
244.64	1767.40
244.85	1632.23
245.07	1708.01
245.29	1763.30
245.51	1744.87
245.72	1794.02
245.94	1830.88
246.16	1714.15
246.38	1755.11
246.59	1726.44
246.81	1673.19
247.03	1720.29
247.24	1638.38
247.46	1730.53
247.68	1665.00
247.90	1650.66
248.11	1695.72
248.33	1789.92
248.55	1681.38
248.77	1675.24
248.98	1787.88
249.20	1781.73
249.42	1763.30
249.64	1730.53
249.85	1572.84
250.07	1673.19
250.29	1775.59
250.50	1779.68
250.72	1638.38
250.94	1687.53
251.16	1785.83
251.37	1765.35
251.59	1718.25
251.81	1728.49
252.02	1765.35
252.24	1703.91
252.46	1861.60
252.68	1662.95
252.89	1687.53
253.11	1636.33
253.33	1802.21
253.54	1757.16
253.76	1724.39
253.98	1675.24
254.20	1765.35
254.41	1632.23
254.63	1738.73
254.85	1699.81
255.06	1730.53
255.28	1759.21
255.50	1646.57
255.71	1644.52
255.93	1624.04
256.15	1736.68
256.36	1755.11
256.58	1683.43
256.80	1726.44
257.02	1626.09
257.23	1642.47
257.45	1697.77
257.67	1675.24
257.88	1621.99
258.10	1738.73
258.32	1794.02
258.53	1685.48
258.75	1767.40
258.97	1710.05
259.18	1675.24
259.40	1642.47
259.62	1826.79
259.83	1779.68
260.05	1693.67
260.27	1947.62
260.48	1812.45
260.70	1642.47
260.92	1683.43
261.13	1689.57
261.35	1714.15
261.57	1771.49
261.78	1697.77
262.00	1720.29
262.22	1804.26
262.43	1708.01
262.65	1691.62
262.86	1673.19
263.08	1802.21
263.30	1773.54
263.51	1619.94
263.73	1644.52
263.95	1687.53
264.16	1611.75
264.38	1615.85
264.60	1728.49
264.81	1712.10
265.03	1728.49
265.25	1687.53
265.46	1640.42
265.68	1775.59
265.89	1738.73
266.11	1724.39
266.33	1751.01
266.54	1759.21
266.76	1724.39
266.98	1665.00
267.19	1808.36
267.41	1753.06
267.62	1621.99
267.84	1642.47
268.06	1746.92
268.27	1697.77
268.49	1757.16
268.70	1800.16
268.92	1753.06
269.14	1656.81
269.35	1687.53
269.57	1701.86
269.79	1718.25
270.00	1685.48
270.22	1791.97
270.43	1662.95
270.65	1587.18
270.87	1718.25
271.08	1808.36
271.30	1738.73
271.51	1755.11
271.73	1722.34
271.95	1767.40
272.16	1722.34
272.38	1746.92
272.59	1701.86
272.81	1769.44
273.02	1683.43
273.24	1759.21
273.46	1728.49
273.67	1691.62
273.89	1703.91
274.10	1671.14
274.32	1695.72
274.54	1736.68
274.75	1681.38
274.97	1695.72
275.18	1748.97
275.40	1761.25
275.61	1718.25
275.83	1687.53
276.05	1673.19
276.26	1679.33
276.48	1734.63
276.69	1726.44
276.91	1619.94
277.12	1779.68
277.34	1746.92
277.55	1771.49
277.77	1669.09
277.99	1665.00
278.20	1726.44
278.42	1640.42
278.63	1665.00
278.85	1689.57
279.06	1628.14
279.28	1718.25
279.49	1691.62
279.71	1742.82
279.93	1742.82
280.14	1763.30
280.36	1685.48
280.57	1791.97
280.79	1710.05
281.00	1564.65
281.22	1644.52
281.43	1724.39
281.65	1587.18
281.86	1632.23
282.08	1736.68
282.29	1877.99
282.51	1644.52
282.73	1724.39
282.94	1644.52
283.16	1718.25
283.37	1781.73
283.59	1683.43
283.80	1755.11
284.02	1677.29
284.23	1740.77
284.45	1640.42
284.66	1587.18
284.88	1650.66
285.09	1736.68
285.31	1742.82
285.52	1763.30
285.74	1624.04
285.95	1728.49
286.17	1697.77
286.38	1789.92
286.60	1630.18
286.81	1734.63
287.03	1685.48
287.24	1732.58
287.46	1728.49
287.67	1691.62
287.89	1804.26
288.10	1644.52
288.32	1718.25
288.53	1804.26
288.75	1812.45
288.96	1771.49
289.18	1685.48
289.39	1742.82
289.61	1720.29
289.82	1794.02
290.04	1845.22
290.25	1654.76
290.47	1679.33
290.68	1708.01
290.90	1761.25
291.11	1691.62
291.33	1812.45
291.54	1681.38
291.76	1581.03
291.97	1742.82
292.18	1738.73
292.40	1687.53
292.61	1665.00
292.83	1794.02
293.04	1759.21
293.26	1755.11
293.47	1708.01
293.69	1632.23
293.90	1714.15
294.12	1722.34
294.33	1693.67
294.55	1769.44
294.76	1779.68
294.97	1771.49
295.19	1882.08
295.40	1691.62
295.62	1773.54
295.83	1763.30
296.05	1636.33
296.26	1720.29
296.48	1738.73
296.69	1697.77
296.90	1693.67
297.12	1779.68
297.33	1785.83
297.55	1673.19
297.76	1703.91
297.98	1810.40
298.19	1761.25
298.41	1644.52
298.62	1644.52
298.83	1832.93
299.05	1693.67
299.26	1675.24
299.48	1730.53
299.69	1734.63
299.90	1728.49
300.12	1701.86
300.33	1693.67
300.55	1744.87
300.76	1841.12
300.98	1552.36
301.19	1771.49
301.40	1671.14
301.62	1710.05
301.83	1742.82
302.05	1757.16
302.26	1714.15
302.47	1722.34
302.69	1634.28
302.90	1691.62
303.12	1658.85
303.33	1697.77
303.54	1796.07
303.76	1675.24
303.97	1683.43
304.19	1746.92
304.40	1675.24
304.61	1755.11
304.83	1810.40
305.04	1779.68
305.26	1710.05
305.47	1656.81
305.68	1660.90
305.90	1632.23
306.11	1777.64
306.33	1677.29
306.54	1648.61
306.75	1658.85
306.97	1619.94
307.18	1576.94
307.39	1654.76
307.61	1798.12
307.82	1703.91
308.04	1777.64
308.25	1638.38
308.46	1665.00
308.68	1718.25
308.89	1724.39
309.10	1746.92
309.32	1697.77
309.53	1660.90
309.74	1746.92
309.96	1722.34
310.17	1794.02
310.39	1673.19
310.60	1732.58
310.81	1714.15
311.03	1683.43
311.24	1740.77
311.45	1667.05
311.67	1865.70
311.88	1671.14
312.09	1685.48
312.31	1677.29
312.52	1742.82
312.73	1718.25
312.95	1607.66
313.16	1615.85
313.37	1800.16
313.59	1689.57
313.80	1830.88
314.01	1755.11
314.23	1662.95
314.44	1714.15
314.65	1615.85
314.87	1687.53
315.08	1708.01
315.29	1730.53
315.51	1677.29
315.72	1613.80
315.93	1828.84
316.15	1820.64
316.36	1665.00
316.57	1773.54
316.79	1777.64
317.00	1656.81
317.21	1685.48
317.43	1662.95
317.64	1781.73
317.85	1681.38
318.07	1689.57
318.28	1755.11
318.49	1935.33
318.70	2004.96
318.92	1916.90
319.13	1884.13
319.34	1912.80
319.56	1738.73
319.77	1771.49
319.98	1863.65
320.20	1826.79
320.41	1730.53
320.62	1845.22
320.83	1738.73
321.05	1931.23
321.26	1718.25
321.47	1718.25
321.69	1773.54
321.90	1646.57
322.11	1742.82
322.32	1728.49
322.54	1722.34
322.75	1691.62
322.96	1810.40
323.18	1615.85
323.39	1607.66
323.60	1656.81
323.81	1791.97
324.03	1644.52
324.24	1648.61
324.45	1724.39
324.66	1671.14
324.88	1767.40
325.09	1771.49
325.30	1693.67
325.52	1777.64
325.73	1744.87
325.94	1615.85
326.15	1714.15
326.37	1644.52
326.58	1734.63
326.79	1816.55
327.00	1613.80
327.22	1744.87
327.43	1712.10
327.64	1683.43
327.85	1789.92
328.07	1683.43
328.28	1857.51
328.49	1667.05
328.70	1705.96
328.92	1689.57
329.13	1638.38
329.34	1650.66
329.55	1800.16
329.76	1755.11
329.98	1675.24
330.19	1697.77
330.40	1804.26
330.61	1708.01
330.83	1830.88
331.04	1665.00
331.25	1779.68
331.46	1718.25
331.68	1671.14
331.89	1777.64
332.10	1775.59
332.31	1593.32
332.52	1724.39
332.74	1781.73
332.95	1599.46
333.16	1693.67
333.37	1740.77
333.58	1642.47
333.80	1730.53
334.01	1665.00
334.22	1732.58
334.43	1675.24
334.64	1683.43
334.86	1550.31
335.07	1718.25
335.28	1726.44
335.49	1609.70
335.70	1812.45
335.92	1687.53
336.13	1824.74
336.34	1802.21
336.55	1689.57
336.76	1703.91
336.98	1605.61
337.19	1662.95
337.40	1765.35
337.61	1890.28
337.82	1677.29
338.04	1714.15
338.25	1701.86
338.46	1785.83
338.67	1652.71
338.88	1660.90
339.09	1605.61
339.31	1675.24
339.52	1640.42
339.73	1621.99
339.94	1734.63
340.15	1751.01
340.36	1671.14
340.58	1722.34
340.79	1693.67
341.00	1779.68
341.21	1644.52
341.42	1759.21
341.63	1650.66
341.85	1716.20
342.06	1798.12
342.27	1665.00
342.48	1736.68
342.69	1609.70
342.90	1740.77
343.12	1828.84
343.33	1701.86
343.54	1740.77
343.75	1828.84
343.96	1699.81
344.17	1675.24
344.38	1732.58
344.60	1677.29
344.81	1650.66
345.02	1746.92
345.23	1777.64
345.44	1865.70
345.65	1755.11
345.86	1757.16
346.07	1761.25
346.29	1646.57
346.50	1757.16
346.71	1738.73
346.92	1802.21
347.13	1777.64
347.34	1712.10
347.55	1724.39
347.76	1703.91
347.98	1576.94
348.19	1697.77
348.40	1734.63
348.61	1652.71
348.82	1771.49
349.03	1736.68
349.24	1644.52
349.45	1806.31
349.66	1599.46
349.88	1767.40
350.09	1675.24
350.30	1828.84
350.51	1744.87
350.72	1718.25
350.93	1767.40
351.14	1667.05
351.35	1724.39
351.56	1656.81
351.77	1710.05
351.99	1726.44
352.20	1867.75
352.41	1695.72
352.62	1609.70
352.83	1652.71
353.04	1699.81
353.25	1634.28
353.46	1689.57
353.67	1695.72
353.88	1662.95
354.09	1771.49
354.30	1667.05
354.52	1701.86
354.73	1755.11
354.94	1738.73
355.15	1726.44
355.36	1757.16
355.57	1656.81
355.78	1744.87
355.99	1634.28
356.20	1751.01
356.41	1804.26
356.62	1798.12
356.83	1814.50
357.04	1822.69
357.25	1615.85
357.46	1689.57
357.68	1646.57
357.89	1603.56
358.10	1769.44
358.31	1726.44
358.52	1705.96
358.73	1581.03
358.94	1675.24
359.15	1658.85
359.36	1753.06
359.57	1701.86
359.78	1779.68
359.99	1798.12
360.20	1605.61
360.41	1800.16
360.62	1740.77
360.83	1673.19
361.04	1660.90
361.25	1771.49
361.46	1810.40
361.67	1691.62
361.88	1822.69
362.09	1775.59
362.30	1773.54
362.51	1689.57
362.72	1724.39
362.93	1779.68
363.14	1816.55
363.35	1685.48
363.56	1652.71
363.78	1701.86
363.99	1771.49
364.20	1714.15
364.41	1791.97
364.62	1798.12
364.83	1738.73
365.04	1708.01
365.25	1726.44
365.46	1822.69
365.67	1642.47
365.88	1736.68
366.09	1740.77
366.30	1660.90
366.51	1800.16
366.72	1669.09
366.93	1705.96
367.14	1763.30
367.35	1847.27
367.56	1712.10
367.77	1710.05
367.98	1630.18
368.18	1683.43
368.39	1705.96
368.60	1646.57
368.81	1759.21
369.02	1681.38
369.23	1757.16
369.44	1552.36
369.65	1677.29
369.86	1708.01
370.07	1736.68
370.28	1714.15
370.49	1753.06
370.70	1746.92
370.91	1665.00
371.12	1697.77
371.33	1716.20
371.54	1681.38
371.75	1818.60
371.96	1521.64
372.17	1716.20
372.38	1695.72
372.59	1789.92
372.80	1736.68
373.01	1697.77
373.22	1816.55
373.43	1800.16
373.64	1708.01
373.85	1789.92
374.06	1824.74
374.26	1828.84
374.47	1695.72
374.68	1812.45
374.89	1730.53
375.10	1716.20
375.31	1740.77
375.52	1767.40
375.73	1718.25
375.94	1611.75
376.15	1738.73
376.36	1640.42
376.57	1705.96
376.78	1605.61
376.99	1779.68
377.20	1779.68
377.40	1703.91
377.61	1804.26
377.82	1699.81
378.03	1777.64
378.24	1738.73
378.45	1777.64
378.66	1642.47
378.87	1656.81
379.08	1718.25
379.29	1701.86
379.50	1736.68
379.71	1732.58
379.91	1740.77
380.12	1736.68
380.33	1714.15
380.54	1718.25
380.75	1699.81
380.96	1691.62
381.17	1783.78
381.38	1761.25
381.59	1751.01
381.80	1798.12
382.00	1867.75
382.21	1822.69
382.42	1816.55
382.63	1890.28
382.84	1773.54
383.05	1865.70
383.26	1763.30
383.47	1738.73
383.68	1789.92
383.88	1685.48
384.09	1775.59
384.30	1800.16
384.51	1802.21
384.72	1656.81
384.93	1558.50
385.14	1726.44
385.35	1818.60
385.55	1728.49
385.76	1818.60
385.97	1708.01
386.18	1679.33
386.39	1699.81
386.60	1726.44
386.81	1822.69
387.02	1677.29
387.22	1681.38
387.43	1802.21
387.64	1806.31
387.85	1927.14
388.06	2117.60
388.27	4833.21
388.48	9205.62
388.68	11781.96
388.89	13662.00
389.10	14321.45
389.31	12148.55
389.52	9688.94
389.73	8593.28
389.93	7972.74
390.14	7317.39
390.35	6584.22
390.56	5965.73
390.77	5060.53
390.98	3913.67
391.18	3065.81
391.39	2451.42
391.60	2021.35
391.81	1875.94
392.02	1695.72
392.23	1875.94
392.43	1783.78
392.64	1853.41
392.85	1742.82
393.06	1826.79
393.27	1675.24
393.47	1693.67
393.68	1718.25
393.89	1673.19
394.10	1755.11
394.31	1671.14
394.52	1646.57
394.72	1628.14
394.93	1839.08
395.14	1648.61
395.35	1740.77
395.56	1724.39
395.76	1751.01
395.97	1740.77
396.18	1947.62
396.39	1931.23
396.60	2195.42
396.80	1853.41
397.01	1886.18
397.22	1880.04
397.43	1820.64
397.64	1755.11
397.84	1804.26
398.05	1851.36
398.26	1687.53
398.47	1779.68
398.67	1843.17
398.88	1628.14
399.09	1757.16
399.30	1714.15
399.51	1746.92
399.71	1636.33
399.92	1701.86
400.13	1718.25
400.34	1669.09
400.54	1726.44
400.75	1873.89
400.96	1708.01
401.17	1826.79
401.37	1822.69
401.58	1724.39
401.79	1695.72
402.00	1892.32
402.21	2088.93
402.41	1992.67
402.62	2123.74
402.83	2234.33
403.04	2054.11
403.24	2183.13
403.45	1947.62
403.66	1914.85
403.87	1912.80
404.07	1976.29
404.28	1923.04
404.49	1968.10
404.70	1818.60
404.90	1814.50
405.11	1669.09
405.32	1755.11
405.52	1724.39
405.73	1724.39
405.94	1597.42
406.15	1703.91
406.35	1714.15
406.56	1726.44
406.77	1732.58
406.98	1673.19
407.18	1691.62
407.39	1779.68
407.60	1748.97
407.80	1773.54
408.01	1767.40
408.22	1740.77
408.43	1677.29
408.63	1800.16
408.84	1730.53
409.05	1730.53
409.25	1689.57
409.46	1628.14
409.67	1640.42
409.88	1757.16
410.08	1742.82
410.29	1683.43
410.50	1779.68
410.70	1736.68
410.91	1693.67
411.12	1757.16
411.32	1697.77
411.53	1679.33
411.74	1822.69
411.95	1806.31
412.15	1865.70
412.36	1935.33
412.57	1765.35
412.77	1802.21
412.98	1830.88
413.19	1677.29
413.39	1779.68
413.60	1769.44
413.81	1785.83
414.01	1632.23
414.22	1744.87
414.43	1812.45
414.63	1646.57
414.84	1798.12
415.05	1695.72
415.25	1628.14
415.46	1837.03
415.67	1718.25
415.87	1761.25
416.08	1763.30
416.29	1708.01
416.49	1669.09
416.70	1685.48
416.91	1716.20
417.11	1714.15
417.32	1806.31
417.53	1746.92
417.73	1806.31
417.94	1679.33
418.15	1703.91
418.35	1683.43
418.56	1685.48
418.77	1796.07
418.97	1771.49
419.18	1716.20
419.38	1587.18
419.59	1728.49
419.80	1796.07
420.00	1718.25
420.21	1726.44
420.42	1751.01
420.62	1787.88
420.83	1660.90
421.04	1675.24
421.24	1646.57
421.45	1751.01
421.65	1759.21
421.86	1642.47
422.07	1783.78
422.27	1771.49
422.48	1683.43
422.69	1681.38
422.89	1636.33
423.10	1738.73
423.30	1621.99
423.51	1687.53
423.72	1687.53
423.92	1753.06
424.13	1605.61
424.33	1804.26
424.54	1798.12
424.75	1697.77
424.95	1849.32
425.16	1701.86
425.36	1648.61
425.57	1724.39
425.78	1759.21
425.98	1806.31
426.19	1642.47
426.39	1689.57
426.60	1714.15
426.81	1787.88
427.01	1660.90
427.22	1648.61
427.42	1619.94
427.63	1681.38
427.83	1824.74
428.04	1791.97
428.25	1789.92
428.45	1769.44
428.66	1796.07
428.86	1703.91
429.07	1742.82
429.28	1771.49
429.48	1656.81
429.69	1654.76
429.89	1755.11
430.10	1665.00
430.30	1777.64
430.51	1744.87
430.71	1632.23
430.92	1826.79
431.13	1714.15
431.33	1755.11
431.54	1755.11
431.74	1857.51
431.95	1796.07
432.15	1714.15
432.36	1703.91
432.56	1753.06
432.77	1859.56
432.98	1847.27
433.18	1710.05
433.39	1689.57
433.59	1693.67
433.80	1783.78
434.00	1849.32
434.21	1636.33
434.41	1730.53
434.62	1773.54
434.82	1642.47
435.03	1619.94
435.23	1753.06
435.44	1609.70
435.64	1689.57
435.85	1722.34
436.06	1753.06
436.26	1822.69
436.47	1714.15
436.67	1710.05
436.88	1734.63
437.08	1832.93
437.29	1787.88
437.49	1785.83
437.70	1863.65
437.90	1736.68
438.11	1828.84
438.31	1828.84
438.52	1880.04
438.72	1873.89
438.93	1994.72
439.13	1832.93
439.34	1896.42
439.54	1818.60
439.75	1841.12
439.95	1867.75
440.16	1742.82
440.36	1804.26
440.57	1828.84
440.77	1726.44
440.98	1751.01
441.18	1701.86
441.39	1621.99
441.59	1595.37
441.80	1853.41
442.00	1726.44
442.21	1785.83
442.41	1718.25
442.62	1742.82
442.82	1738.73
443.02	1781.73
443.23	1714.15
443.43	1734.63
443.64	1812.45
443.84	1714.15
444.05	1875.94
444.25	1757.16
444.46	1718.25
444.66	1753.06
444.87	1855.46
445.07	1665.00
445.28	1779.68
445.48	1800.16
445.69	1726.44
445.89	1789.92
446.09	1787.88
446.30	2033.63
446.50	2627.54
446.71	4169.66
446.91	5140.40
447.12	5754.79
447.32	6014.88
447.53	5294.00
447.73	4319.17
447.93	3954.63
448.14	3760.07
448.34	3508.17
448.55	3098.58
448.75	3108.82
448.96	3035.09
449.16	2656.22
449.36	2420.70
449.57	2164.70
449.77	1970.15
449.98	1834.98
450.18	1755.11
450.39	1730.53
450.59	1791.97
450.79	1839.08
451.00	1730.53
451.20	1796.07
451.41	1679.33
451.61	1753.06
451.81	1787.88
452.02	1724.39
452.22	1746.92
452.43	1673.19
452.63	1677.29
452.84	1736.68
453.04	1724.39
453.24	1708.01
453.45	1638.38
453.65	1726.44
453.86	1759.21
454.06	1730.53
454.26	1785.83
454.47	1705.96
454.67	1810.40
454.87	1669.09
455.08	1798.12
455.28	1787.88
455.49	1716.20
455.69	1701.86
455.89	1855.46
456.10	1816.55
456.30	1689.57
456.51	1771.49
456.71	1683.43
456.91	1746.92
457.12	1794.02
457.32	1722.34
457.52	1683.43
457.73	1796.07
457.93	1791.97
458.14	1699.81
458.34	1621.99
458.54	1705.96
458.75	1755.11
458.95	1695.72
459.15	1724.39
459.36	1814.50
459.56	1796.07
459.76	1828.84
459.97	1689.57
460.17	1775.59
460.37	1775.59
460.58	1751.01
460.78	1787.88
460.99	1759.21
461.19	1701.86
461.39	1634.28
461.60	1759.21
461.80	1781.73
462.00	1619.94
462.21	1759.21
462.41	1705.96
462.61	1667.05
462.82	1632.23
463.02	1802.21
463.22	1724.39
463.43	1757.16
463.63	1701.86
463.83	1822.69
464.04	1800.16
464.24	1787.88
464.44	1581.03
464.64	1812.45
464.85	1730.53
465.05	1810.40
465.25	1798.12
465.46	1673.19
465.66	1746.92
465.86	1718.25
466.07	1783.78
466.27	1755.11
466.47	1675.24
466.68	1652.71
466.88	1863.65
467.08	1818.60
467.29	1740.77
467.49	1814.50
467.69	1654.76
467.89	1757.16
468.10	1724.39
468.30	1671.14
468.50	1822.69
468.71	1753.06
468.91	1681.38
469.11	1816.55
469.31	1730.53
469.52	1660.90
469.72	1775.59
469.92	1877.99
470.13	1771.49
470.33	1673.19
470.53	1894.37
470.73	2217.95
470.94	2439.13
471.14	2744.28
471.34	2979.79
471.54	2820.05
471.75	2594.78
471.95	2334.68
472.15	2207.71
472.36	2246.62
472.56	2232.29
472.76	2170.85
472.96	2105.31
473.17	2025.44
473.37	2013.15
473.57	1816.55
473.77	1853.41
473.98	1748.97
474.18	1652.71
474.38	1939.43
474.58	1705.96
474.79	1746.92
474.99	1783.78
475.19	1837.03
475.39	1804.26
475.60	1730.53
475.80	1816.55
476.00	1720.29
476.20	1746.92
476.41	1667.05
476.61	1816.55
476.81	1800.16
477.01	1644.52
477.21	1822.69
477.42	1789.92
477.62	1642.47
477.82	1730.53
478.02	1734.63
478.23	1703.91
478.43	1675.24
478.63	1724.39
478.83	1671.14
479.03	1687.53
479.24	1781.73
479.44	1759.21
479.64	1644.52
479.84	1574.89
480.04	1705.96
480.25	1699.81
480.45	1675.24
480.65	1705.96
480.85	1810.40
481.06	1683.43
481.26	1800.16
481.46	1697.77
481.66	1734.63
481.86	1724.39
482.06	1783.78
482.27	1726.44
482.47	1691.62
482.67	1740.77
482.87	1685.48
483.07	1763.30
483.28	1624.04
483.48	1654.76
483.68	1730.53
483.88	1662.95
484.08	1621.99
484.29	1656.81
484.49	1687.53
484.69	1667.05
484.89	1763.30
485.09	1794.02
485.29	1775.59
485.50	1773.54
485.70	1736.68
485.90	1822.69
486.10	1660.90
486.30	1826.79
486.50	1794.02
486.71	1779.68
486.91	1779.68
487.11	1804.26
487.31	1605.61
487.51	1767.40
487.71	1748.97
487.91	1697.77
488.12	1626.09
488.32	1624.04
488.52	1654.76
488.72	1593.32
488.92	1675.24
489.12	1773.54
489.32	1765.35
489.53	1744.87
489.73	1533.93
489.93	1806.31
490.13	1705.96
490.33	1601.51
490.53	1751.01
490.73	1794.02
490.94	1675.24
491.14	1742.82
491.34	1800.16
491.54	2101.22
491.74	2672.60
491.94	3211.22
492.14	3459.02
492.34	3524.55
492.54	3172.30
492.75	2809.81
492.95	2654.17
493.15	2443.23
493.35	2437.08
493.55	2250.72
493.75	2211.81
493.95	2226.14
494.15	2045.92
494.35	1918.95
494.56	1959.91
494.76	1789.92
494.96	1787.88
495.16	1791.97
495.36	1742.82
495.56	1685.48
495.76	1693.67
495.96	1779.68
496.16	1705.96
496.36	1826.79
496.56	1746.92
496.77	1714.15
496.97	1669.09
497.17	1822.69
497.37	1718.25
497.57	1771.49
497.77	1683.43
497.97	1734.63
498.17	1697.77
498.37	1730.53
498.57	1732.58
498.77	1646.57
498.97	1769.44
499.17	1857.51
499.38	1730.53
499.58	1746.92
499.78	1849.32
499.98	1777.64
500.18	1683.43
500.38	1748.97
500.58	1935.33
500.78	2373.60
500.98	4605.88
501.18	6631.32
501.38	8241.03
501.58	9062.26
501.78	8773.50
501.98	6846.36
502.18	5945.25
502.38	4908.98
502.58	4427.71
502.78	4110.27
502.98	4042.69
503.18	3803.08
503.38	3643.34
503.59	3157.97
503.79	2934.74
503.99	2602.97
504.19	2453.47
504.39	2357.21
504.59	2373.60
504.79	2332.64
504.99	2234.33
505.19	2052.06
505.39	1894.37
505.59	2045.92
505.79	1947.62
505.99	1910.75
506.19	1871.84
506.39	1880.04
506.59	1800.16
506.79	1808.36
506.99	1824.74
507.19	1855.46
507.39	1816.55
507.59	1646.57
507.79	1660.90
507.99	1691.62
508.19	1748.97
508.39	1748.97
508.59	1736.68
508.79	1775.59
508.99	1884.13
509.19	1710.05
509.39	1703.91
509.59	1675.24
509.79	1738.73
509.99	1703.91
510.19	1841.12
510.39	1863.65
510.59	1716.20
510.79	1728.49
510.99	1665.00
511.19	1771.49
511.39	1804.26
511.59	1781.73
511.79	1726.44
511.99	1732.58
512.19	1757.16
512.38	1736.68
512.58	1693.67
512.78	1759.21
512.98	1763.30
513.18	1810.40
513.38	1701.86
513.58	1787.88
513.78	1773.54
513.98	1783.78
514.18	1691.62
514.38	1705.96
514.58	1761.25
514.78	1630.18
514.98	1781.73
515.18	1767.40
515.38	1708.01
515.58	1748.97
515.78	1804.26
515.98	1693.67
516.18	1773.54
516.38	1798.12
516.57	1789.92
516.77	1703.91
516.97	1744.87
517.17	1720.29
517.37	1619.94
517.57	1738.73
517.77	1726.44
517.97	1701.86
518.17	1796.07
518.37	1685.48
518.57	1695.72
518.77	1751.01
518.97	1800.16
519.16	1802.21
519.36	1697.77
519.56	1679.33
519.76	1785.83
519.96	1777.64
520.16	1873.89
520.36	1718.25
520.56	1898.47
520.76	1648.61
520.96	1667.05
521.16	1822.69
521.35	1722.34
521.55	1828.84
521.75	1699.81
521.95	1681.38
522.15	1728.49
522.35	1621.99
522.55	1642.47
522.75	1744.87
522.95	1705.96
523.14	1740.77
523.34	1708.01
523.54	1753.06
523.74	1775.59
523.94	1812.45
524.14	1640.42
524.34	1773.54
524.54	1787.88
524.73	1687.53
524.93	1708.01
525.13	1724.39
525.33	1695.72
525.53	1851.36
525.73	1722.34
525.93	1708.01
526.13	1714.15
526.32	1726.44
526.52	1791.97
526.72	1748.97
526.92	1726.44
527.12	1755.11
527.32	1642.47
527.52	1728.49
527.71	1759.21
527.91	1714.15
528.11	1624.04
528.31	1771.49
528.51	1654.76
528.71	1751.01
528.90	1787.88
529.10	1796.07
529.30	1853.41
529.50	1646.57
529.70	1769.44
529.90	1689.57
530.09	1804.26
530.29	1667.05
530.49	1681.38
530.69	1855.46
530.89	1781.73
531.09	1796.07
531.28	1775.59
531.48	1855.46
531.68	1755.11
531.88	1712.10
532.08	1802.21
532.28	1763.30
532.47	1832.93
532.67	1816.55
532.87	1814.50
533.07	1744.87
533.27	1740.77
533.46	1730.53
533.66	1748.97
533.86	1699.81
534.06	1710.05
534.26	1796.07
534.45	1779.68
534.65	1767.40
534.85	1714.15
535.05	1699.81
535.25	1869.80
535.44	1683.43
535.64	1769.44
535.84	1697.77
536.04	1787.88
536.24	1685.48
536.43	1716.20
536.63	1726.44
536.83	1695.72
537.03	1693.67
537.22	1671.14
537.42	1679.33
537.62	1736.68
537.82	1701.86
538.02	1822.69
538.21	1808.36
538.41	1820.64
538.61	1771.49
538.81	1771.49
539.00	1826.79
539.20	1699.81
539.40	1699.81
539.60	1753.06
539.79	1787.88
539.99	1802.21
540.19	1738.73
540.39	1751.01
540.58	1703.91
540.78	1808.36
540.98	1716.20
541.18	1726.44
541.37	1798.12
541.57	1757.16
541.77	1753.06
541.97	1687.53
542.16	1712.10
542.36	1667.05
542.56	1816.55
542.76	1843.17
542.95	1730.53
543.15	1773.54
543.35	1800.16
543.54	1681.38
543.74	1732.58
543.94	1820.64
544.14	1705.96
544.33	1748.97
544.53	1705.96
544.73	1771.49
544.93	1789.92
545.12	1640.42
545.32	1724.39
545.52	1753.06
545.71	1724.39
545.91	1732.58
546.11	1705.96
546.30	1708.01
546.50	1718.25
546.70	1722.34
546.90	1812.45
547.09	1658.85
547.29	1755.11
547.49	1759.21
547.68	1705.96
547.88	1634.28
548.08	1794.02
548.27	2199.52
548.47	1794.02
548.67	1667.05
548.87	1693.67
549.06	1691.62
549.26	1734.63
549.46	1734.63
549.65	1779.68
549.85	1789.92
550.05	1853.41
550.24	1669.09
550.44	1720.29
550.64	1681.38
550.83	1691.62
551.03	1759.21
551.23	1816.55
551.42	1787.88
551.62	1648.61
551.82	1765.35
552.01	1726.44
552.21	1787.88
552.41	1775.59
552.60	1781.73
552.80	1728.49
553.00	1712.10
553.19	1796.07
553.39	1863.65
553.59	1683.43
553.78	1710.05
553.98	1789.92
554.17	1687.53
554.37	1804.26
554.57	1828.84
554.76	1681.38
554.96	1642.47
555.16	1736.68
555.35	1771.49
555.55	1695.72
555.75	1802.21
555.94	1726.44
556.14	1673.19
556.33	1810.40
556.53	1751.01
556.73	1785.83
556.92	1832.93
557.12	1830.88
557.32	1873.89
557.51	1832.93
557.71	1769.44
557.90	1839.08
558.10	1859.56
558.30	1718.25
558.49	1632.23
558.69	1738.73
558.88	1691.62
559.08	1718.25
559.28	1816.55
559.47	1689.57
559.67	1783.78
559.86	1863.65
560.06	1753.06
560.26	1695.72
560.45	1798.12
560.65	1796.07
560.84	1826.79
561.04	1728.49
561.24	1759.21
561.43	1654.76
561.63	1834.98
561.82	1705.96
562.02	1720.29
562.22	1718.25
562.41	1613.80
562.61	1673.19
562.80	1671.14
563.00	1877.99
563.19	1757.16
563.39	1824.74
563.59	1734.63
563.78	1699.81
563.98	1558.50
564.17	1765.35
564.37	1609.70
564.56	1779.68
564.76	1675.24
564.96	1812.45
565.15	1716.20
565.35	1902.56
565.54	1722.34
565.74	1855.46
565.93	1798.12
566.13	1824.74
566.32	1855.46
566.52	1710.05
566.71	1697.77
566.91	1787.88
567.11	1796.07
567.30	1726.44
567.50	1769.44
567.69	1736.68
567.89	1740.77
568.08	1699.81
568.28	1775.59
568.47	1695.72
568.67	1759.21
568.86	1734.63
569.06	1802.21
569.25	1798.12
569.45	1716.20
569.64	1736.68
569.84	1781.73
570.04	1771.49
570.23	1638.38
570.43	1730.53
570.62	1728.49
570.82	1839.08
571.01	1691.62
571.21	1652.71
571.40	1714.15
571.60	1748.97
571.79	1763.30
571.99	1675.24
572.18	1660.90
572.38	1783.78
572.57	1816.55
572.77	1820.64
572.96	1867.75
573.16	1789.92
573.35	1785.83
573.55	1871.84
573.74	1773.54
573.94	1689.57
574.13	1687.53
574.33	1857.51
574.52	1808.36
574.71	1789.92
574.91	1820.64
575.10	1699.81
575.30	1681.38
575.49	1640.42
575.69	1691.62
575.88	1845.22
576.08	1755.11
576.27	1808.36
576.47	1804.26
576.66	1927.14
576.86	1796.07
577.05	1744.87
577.25	1820.64
577.44	1861.60
577.64	1767.40
577.83	1828.84
578.02	1662.95
578.22	1808.36
578.41	1791.97
578.61	1734.63
578.80	1615.85
579.00	1798.12
579.19	1804.26
579.39	1845.22
579.58	1894.37
579.77	1744.87
579.97	1791.97
580.16	1839.08
580.36	1806.31
580.55	1865.70
580.75	1789.92
580.94	1742.82
581.13	1853.41
581.33	1923.04
581.52	1773.54
581.72	1904.61
581.91	1802.21
582.11	1763.30
582.30	1849.32
582.49	1800.16
582.69	1898.47
582.88	1787.88
583.08	1832.93
583.27	1804.26
583.47	1660.90
583.66	1740.77
583.85	1781.73
584.05	1806.31
584.24	1857.51
584.44	1777.64
584.63	1828.84
584.82	1955.81
585.02	1908.71
585.21	1873.89
585.41	1943.52
585.60	1945.57
585.79	1935.33
585.99	2000.87
586.18	1861.60
586.37	2295.77
586.57	3389.39
586.76	9840.49
586.96	27264.61
587.15	42067.33
587.34	52163.81
587.54	58471.56
587.73	56024.23
587.93	40195.48
588.12	29834.81
588.31	23877.27
588.51	20707.01
588.70	18640.61
588.89	17190.65
589.09	15476.50
589.28	13668.14
589.47	11626.32
589.67	9609.07
589.86	7376.78
590.06	5568.43
590.25	4210.62
590.44	3258.32
590.64	2711.51
590.83	2201.57
591.02	2133.98
591.22	2025.44
591.41	1937.38
591.60	1859.56
591.80	1945.57
591.99	1740.77
592.18	1759.21
592.38	1834.98
592.57	1740.77
592.76	1748.97
592.96	1753.06
593.15	1820.64
593.34	1779.68
593.54	1742.82
593.73	1839.08
593.92	1837.03
594.12	1812.45
594.31	1861.60
594.50	1978.34
594.70	1837.03
594.89	1888.23
595.08	1714.15
595.28	1787.88
595.47	1951.71
595.66	1841.12
595.86	1759.21
596.05	1800.16
596.24	1800.16
596.43	1869.80
596.63	1884.13
596.82	1710.05
597.01	1775.59
597.21	1818.60
597.40	1742.82
597.59	1830.88
597.79	1877.99
597.98	1751.01
598.17	1871.84
598.36	1816.55
598.56	1853.41
598.75	1720.29
598.94	1775.59
599.14	1724.39
599.33	1714.15
599.52	1851.36
599.71	1857.51
599.91	1845.22
600.10	1759.21
600.29	1767.40
600.48	1783.78
600.68	1769.44
600.87	1744.87
601.06	1662.95
601.26	1683.43
601.45	1804.26
601.64	1763.30
601.83	1820.64
602.03	1728.49
602.22	1673.19
602.41	1769.44
602.60	1830.88
602.80	1837.03
602.99	1734.63
603.18	1734.63
603.37	1746.92
603.57	1839.08
603.76	1853.41
603.95	1783.78
604.14	1769.44
604.34	1697.77
604.53	1755.11
604.72	1847.27
604.91	1839.08
605.10	1798.12
605.30	1710.05
605.49	1824.74
605.68	1726.44
605.87	1726.44
606.07	1798.12
606.26	1730.53
606.45	1734.63
606.64	1761.25
606.84	1724.39
607.03	1730.53
607.22	1779.68
607.41	1789.92
607.60	1693.67
607.80	1894.37
607.99	1736.68
608.18	1765.35
608.37	1767.40
608.56	1724.39
608.76	1867.75
608.95	1857.51
609.14	1812.45
609.33	1812.45
609.52	1884.13
609.72	1775.59
609.91	1849.32
610.10	1771.49
610.29	1904.61
610.48	1779.68
610.68	1781.73
610.87	1767.40
611.06	1789.92
611.25	1736.68
611.44	1800.16
611.63	1755.11
611.83	1779.68
612.02	1617.90
612.21	1738.73
612.40	1673.19
612.59	1640.42
612.79	1691.62
612.98	1726.44
613.17	1791.97
613.36	1714.15
613.55	1896.42
613.74	1845.22
613.93	1914.85
614.13	1888.23
614.32	2000.87
614.51	1970.15
614.70	1843.17
614.89	1808.36
615.08	1857.51
615.28	2070.50
615.47	1769.44
615.66	1748.97
615.85	1785.83
616.04	1959.91
616.23	1796.07
616.42	1814.50
616.62	1775.59
616.81	1773.54
617.00	1787.88
617.19	1920.99
617.38	1710.05
617.57	1701.86
617.76	1759.21
617.95	1755.11
618.15	1800.16
618.34	1867.75
618.53	1675.24
618.72	1826.79
618.91	1849.32
619.10	1865.70
619.29	1765.35
619.48	1740.77
619.68	1744.87
619.87	1675.24
620.06	1730.53
620.25	1794.02
620.44	1673.19
620.63	1701.86
620.82	1785.83
621.01	1718.25
621.20	1693.67
621.39	1787.88
621.59	1744.87
621.78	1779.68
621.97	1705.96
622.16	1785.83
622.35	1687.53
622.54	1800.16
622.73	1804.26
622.92	1634.28
623.11	1804.26
623.30	1748.97
623.49	1826.79
623.68	1636.33
623.88	1714.15
624.07	1734.63
624.26	1738.73
624.45	1708.01
624.64	1755.11
624.83	1804.26
625.02	1769.44
625.21	1767.40
625.40	1732.58
625.59	1771.49
625.78	1722.34
625.97	1841.12
626.16	1892.32
626.35	1796.07
626.54	1779.68
626.74	1884.13
626.93	1662.95
627.12	1849.32
627.31	1767.40
627.50	1728.49
627.69	1789.92
627.88	1783.78
628.07	1726.44
628.26	1658.85
628.45	1687.53
628.64	1705.96
628.83	1751.01
629.02	1734.63
629.21	1767.40
629.40	1773.54
629.59	1671.14
629.78	1761.25
629.97	1781.73
630.16	1716.20
630.35	1734.63
630.54	1708.01
630.73	1728.49
630.92	1771.49
631.11	1697.77
631.30	1789.92
631.49	1787.88
631.68	1687.53
631.87	1824.74
632.06	1689.57
632.25	1837.03
632.44	1763.30
632.63	1822.69
632.82	1703.91
633.01	1761.25
633.20	1804.26
633.39	1773.54
633.58	1800.16
633.77	1763.30
633.96	1849.32
634.15	1796.07
634.34	1775.59
634.53	1806.31
634.72	1708.01
634.91	1646.57
635.10	1783.78
635.29	1781.73
635.48	1759.21
635.67	1710.05
635.86	1689.57
636.05	1787.88
636.24	1685.48
636.43	1787.88
636.62	1787.88
636.81	1603.56
637.00	1753.06
637.19	1759.21
637.38	1783.78
637.57	1798.12
637.76	1832.93
637.95	1816.55
638.14	1828.84
638.33	1898.47
638.52	1865.70
638.71	1759.21
638.89	1722.34
639.08	1826.79
639.27	1779.68
639.46	1826.79
639.65	2263.01
639.84	2242.53
640.03	2453.47
640.22	2371.55
640.41	2377.69
640.60	2052.06
640.79	2101.22
640.98	1892.32
641.17	2070.50
641.36	1865.70
641.55	1830.88
641.74	1824.74
641.92	1748.97
642.11	1804.26
642.30	1791.97
642.49	1712.10
642.68	1785.83
642.87	1785.83
643.06	1697.77
643.25	1662.95
643.44	1673.19
643.63	1720.29
643.82	1810.40
644.00	1632.23
644.19	1689.57
644.38	1644.52
644.57	1718.25
644.76	1794.02
644.95	1705.96
645.14	1665.00
645.33	1671.14
645.52	1796.07
645.71	1716.20
645.89	1697.77
646.08	1746.92
646.27	1708.01
646.46	1837.03
646.65	1628.14
646.84	1734.63
647.03	1681.38
647.22	1761.25
647.40	1701.86
647.59	1705.96
647.78	1695.72
647.97	1679.33
648.16	1605.61
648.35	1787.88
648.54	1796.07
648.73	1787.88
648.91	1708.01
649.10	1736.68
649.29	1701.86
649.48	1687.53
649.67	1710.05
649.86	1775.59
650.05	1791.97
650.23	1871.84
650.42	1800.16
650.61	1943.52
650.80	1945.57
650.99	1982.43
651.18	1798.12
651.36	1849.32
651.55	1773.54
651.74	1804.26
651.93	1667.05
652.12	1697.77
652.31	1765.35
652.49	1673.19
652.68	1703.91
652.87	1877.99
653.06	1857.51
653.25	1787.88
653.44	1794.02
653.62	1828.84
653.81	1705.96
654.00	1734.63
654.19	1773.54
654.38	1861.60
654.56	1773.54
654.75	1671.14
654.94	1705.96
655.13	1765.35
655.32	1736.68
655.51	1802.21
655.69	1755.11
655.88	1812.45
656.07	1665.00
656.26	1665.00
656.45	1648.61
656.63	1740.77
656.82	1712.10
657.01	1818.60
657.20	1746.92
657.38	1716.20
657.57	1798.12
657.76	1652.71
657.95	1814.50
658.14	1720.29
658.32	1736.68
658.51	1671.14
658.70	1763.30
658.89	1767.40
659.08	1765.35
659.26	1818.60
659.45	1658.85
659.64	1775.59
659.83	1662.95
660.01	1953.76
660.20	1822.69
660.39	1900.52
660.58	1576.94
660.76	1773.54
660.95	1679.33
661.14	1763.30
661.33	1685.48
661.51	1748.97
661.70	1740.77
661.89	1767.40
662.08	1695.72
662.26	1781.73
662.45	1708.01
662.64	1761.25
662.83	1771.49
663.01	1691.62
663.20	1722.34
663.39	1828.84
663.58	1671.14
663.76	1771.49
663.95	1744.87
664.14	1634.28
664.32	1710.05
664.51	1624.04
664.70	1685.48
664.89	1753.06
665.07	1615.85
665.26	1775.59
665.45	1691.62
665.64	1777.64
665.82	1763.30
666.01	1841.12
666.20	1720.29
666.38	1804.26
666.57	1826.79
666.76	2254.81
666.95	4626.36
667.13	11462.48
667.32	18657.00
667.51	22703.78
667.69	25253.50
667.88	25587.32
668.07	19748.56
668.25	14628.64
668.44	11728.72
668.63	9930.60
668.81	8554.37
669.00	7722.89
669.19	6924.18
669.38	6172.58
669.56	5384.11
669.75	4597.69
669.94	3811.27
670.12	3149.78
670.31	2637.78
670.50	2371.55
670.68	2174.94
670.87	1986.53
671.06	1863.65
671.24	1841.12
671.43	1880.04
671.62	1701.86
671.80	1877.99
671.99	1853.41
672.18	1757.16
672.36	1816.55
672.55	1744.87
672.74	1787.88
672.92	1695.72
673.11	1845.22
673.29	1656.81
673.48	1847.27
673.67	1693.67
673.85	1779.68
674.04	1697.77
674.23	1767.40
674.41	1802.21
674.60	1656.81
674.79	1665.00
674.97	1665.00
675.16	1791.97
675.34	1753.06
675.53	1683.43
675.72	1753.06
675.90	1816.55
676.09	1660.90
676.28	1667.05
676.46	1691.62
676.65	1742.82
676.83	1697.77
677.02	1699.81
677.21	1724.39
677.39	1763.30
677.58	1681.38
677.77	1708.01
677.95	1681.38
678.14	1685.48
678.32	1658.85
678.51	1716.20
678.70	1898.47
678.88	1681.38
679.07	1681.38
679.25	1701.86
679.44	1607.66
679.63	1710.05
679.81	1693.67
680.00	1779.68
680.18	1693.67
680.37	1742.82
680.55	1714.15
680.74	1572.84
680.93	1611.75
681.11	1751.01
681.30	1656.81
681.48	1703.91
681.67	1746.92
681.85	1746.92
682.04	1658.85
682.23	1761.25
682.41	1693.67
682.60	1646.57
682.78	1712.10
682.97	1597.42
683.15	1730.53
683.34	1708.01
683.53	1787.88
683.71	1673.19
683.90	1828.84
684.08	1849.32
684.27	1654.76
684.45	1763.30
684.64	1802.21
684.82	1705.96
685.01	1716.20
685.19	1820.64
685.38	1843.17
685.57	1724.39
685.75	1689.57
685.94	1693.67
686.12	1755.11
686.31	1583.08
686.49	1757.16
686.68	1564.65
686.86	1748.97
687.05	1751.01
687.23	1806.31
687.42	1665.00
687.60	1654.76
687.79	1783.78
687.97	1781.73
688.16	1808.36
688.34	1796.07
688.53	1558.50
688.71	1697.77
688.90	1742.82
689.08	1714.15
689.27	1601.51
689.45	1710.05
689.64	1769.44
689.82	1742.82
690.01	1796.07
690.19	1804.26
690.38	1708.01
690.56	1751.01
690.75	1710.05
690.93	1701.86
691.12	1671.14
691.30	1802.21
691.49	1726.44
691.67	1642.47
691.86	1873.89
692.04	1662.95
692.23	1783.78
692.41	1771.49
692.60	1994.72
692.78	1871.84
692.97	1773.54
693.15	1736.68
693.34	1837.03
693.52	1822.69
693.71	1734.63
693.89	1687.53
694.08	1605.61
694.26	1824.74
694.44	1738.73
694.63	1814.50
694.81	1693.67
695.00	1642.47
695.18	1767.40
695.37	1898.47
695.55	1703.91
695.74	1736.68
695.92	1650.66
696.10	1757.16
696.29	1673.19
696.47	1617.90
696.66	1681.38
696.84	1656.81
697.03	1718.25
697.21	1785.83
697.40	2338.78
697.58	1822.69
697.76	1710.05
697.95	1695.72
698.13	1671.14
698.32	1693.67
698.50	1722.34
698.68	1806.31
698.87	1746.92
699.05	1816.55
699.24	1718.25
699.42	1689.57
699.61	1691.62
699.79	1761.25
699.97	1720.29
700.16	1568.74
700.34	1693.67
700.53	1722.34
700.71	1794.02
700.89	1779.68
701.08	1710.05
701.26	1734.63
701.45	2103.26
701.63	1638.38
701.81	1691.62
702.00	1648.61
702.18	1705.96
702.37	1716.20
702.55	1873.89
702.73	1947.62
702.92	1902.56
703.10	2095.07
703.28	2015.20
703.47	1812.45
703.65	1941.47
703.84	1906.66
704.02	1767.40
704.20	1931.23
704.39	1785.83
704.57	1714.15
704.75	1816.55
704.94	1771.49
705.12	1757.16
705.30	1869.80
705.49	2500.57
705.67	5425.07
705.86	13342.52
706.04	19705.56
706.22	22890.15
706.41	25316.99
706.59	25112.19
706.77	19308.25
706.96	13938.48
707.14	12060.49
707.32	10348.39
707.51	8888.18
707.69	7909.26
707.87	6832.02
708.06	5580.71
708.24	4313.02
708.42	3344.33
708.61	2901.97
708.79	2224.09
708.97	2152.42
709.16	2015.20
709.34	1910.75
709.52	1748.97
709.71	1759.21
709.89	1751.01
710.07	1755.11
710.26	1656.81
710.44	1751.01
710.62	1800.16
710.80	1656.81
710.99	1787.88
711.17	1726.44
711.35	1669.09
711.54	1667.05
711.72	1798.12
711.90	1730.53
712.09	1746.92
712.27	1665.00
712.45	1722.34
712.63	1654.76
712.82	1679.33
713.00	1714.15
713.18	1783.78
713.37	1763.30
713.55	1814.50
713.73	1675.24
713.91	1687.53
714.10	1740.77
714.28	1761.25
714.46	1738.73
714.65	1769.44
714.83	1812.45
715.01	1726.44
715.19	1697.77
715.38	1689.57
715.56	1777.64
715.74	1689.57
715.92	1634.28
716.11	1820.64
716.29	1595.37
716.47	1773.54
716.65	1722.34
716.84	1628.14
717.02	1748.97
717.20	1716.20
717.38	1748.97
717.57	1771.49
717.75	1683.43
717.93	1732.58
718.11	1695.72
718.30	1671.14
718.48	1775.59
718.66	1695.72
718.84	1705.96
719.03	1662.95
719.21	1705.96
719.39	1853.41
719.57	1763.30
719.75	1796.07
719.94	1722.34
720.12	1726.44
720.30	1708.01
720.48	1804.26
720.67	1699.81
720.85	1669.09
721.03	1773.54
721.21	1699.81
721.39	1748.97
721.58	1710.05
721.76	1753.06
721.94	1703.91
722.12	1769.44
722.30	1806.31
722.49	1677.29
722.67	1736.68
722.85	1697.77
723.03	1611.75
723.21	1681.38
723.40	1734.63
723.58	1763.30
723.76	1785.83
723.94	1816.55
724.12	1773.54
724.30	1886.18
724.49	1847.27
724.67	1691.62
724.85	1875.94
725.03	1726.44
725.21	1783.78
725.40	1812.45
725.58	1701.86
725.76	1828.84
725.94	1742.82
726.12	1646.57
726.30	1763.30
726.49	1665.00
726.67	1673.19
726.85	1705.96
727.03	1781.73
727.21	2318.30
727.39	3334.09
727.57	4911.03
727.76	5803.94
727.94	6322.08
728.12	6387.61
728.30	5732.26
728.48	4446.14
728.66	3907.52
728.84	3639.24
729.03	3172.30
729.21	2793.43
729.39	2463.71
729.57	2093.02
729.75	1951.71
729.93	1916.90
730.11	1798.12
730.30	1794.02
730.48	1703.91
730.66	1886.18
730.84	1773.54
731.02	1722.34
731.20	1683.43
731.38	1740.77
731.56	1607.66
731.74	1642.47
731.93	1732.58
732.11	1726.44
732.29	1771.49
732.47	1683.43
732.65	1783.78
732.83	1720.29
733.01	1691.62
733.19	1669.09
733.37	1681.38
733.56	1693.67
733.74	1716.20
733.92	1810.40
734.10	1638.38
734.28	1779.68
734.46	1736.68
734.64	1642.47
734.82	1693.67
735.00	1675.24
735.18	1732.58
735.36	1685.48
735.54	1767.40
735.73	1638.38
735.91	1671.14
736.09	1830.88
736.27	1722.34
736.45	1769.44
736.63	1656.81
736.81	1671.14
736.99	1718.25
737.17	1800.16
737.35	1722.34
737.53	1757.16
737.71	1779.68
737.89	1751.01
738.07	1705.96
738.25	1677.29
738.43	1581.03
738.61	1765.35
738.80	1705.96
738.98	1681.38
739.16	1673.19
739.34	1683.43
739.52	1771.49
739.70	1714.15
739.88	1808.36
740.06	1765.35
740.24	1595.37
740.42	1791.97
740.60	1634.28
740.78	1691.62
740.96	1660.90
741.14	1669.09
741.32	1667.05
741.50	1677.29
741.68	1839.08
741.86	1779.68
742.04	1650.66
742.22	1730.53
742.40	1724.39
742.58	1714.15
742.76	1753.06
742.94	1746.92
743.12	1570.79
743.30	1748.97
743.48	1767.40
743.66	1636.33
743.84	1773.54
744.02	1689.57
744.20	1714.15
744.38	1662.95
744.56	1732.58
744.74	1818.60
744.92	1787.88
745.10	1861.60
745.28	1824.74
745.46	1785.83
745.64	1732.58
745.82	1726.44
746.00	1744.87
746.18	1714.15
746.36	1673.19
746.54	1730.53
746.72	1791.97
746.90	1746.92
747.08	1832.93
747.26	1681.38
747.44	1820.64
747.62	1703.91
747.80	1699.81
747.98	1777.64
748.15	1714.15
748.33	1814.50
748.51	1683.43
748.69	1775.59
748.87	1638.38
749.05	1710.05
749.23	1736.68
749.41	1759.21
749.59	1724.39
749.77	1716.20
749.95	1734.63
750.13	1619.94
750.31	1724.39
750.49	1714.15
750.67	1714.15
750.85	1779.68
751.03	1714.15
751.20	1714.15
751.38	1710.05
751.56	1701.86
751.74	1689.57
751.92	1710.05
752.10	1621.99
752.28	1730.53
752.46	1667.05
752.64	1675.24
752.82	1710.05
753.00	1841.12
753.18	1718.25
753.35	1705.96
753.53	1724.39
753.71	1720.29
753.89	1763.30
754.07	1765.35
754.25	1814.50
754.43	1714.15
754.61	1628.14
754.79	1710.05
754.97	1677.29
755.14	1785.83
755.32	1667.05
755.50	1679.33
755.68	1746.92
755.86	1667.05
756.04	1734.63
756.22	1611.75
756.40	1820.64
756.57	1837.03
756.75	1753.06
756.93	1800.16
757.11	1791.97
757.29	1669.09
757.47	1693.67
757.65	1630.18
757.82	1593.32
758.00	1701.86
758.18	1710.05
758.36	1615.85
758.54	1814.50
758.72	1728.49
758.90	1771.49
759.07	1685.48
759.25	1652.71
759.43	1744.87
759.61	1603.56
759.79	2179.04
759.97	1689.57
760.15	1699.81
760.32	1636.33
760.50	1708.01
760.68	1796.07
760.86	1591.27
761.04	1728.49
761.22	1816.55
761.39	1720.29
761.57	1759.21
761.75	1609.70
761.93	1802.21
762.11	1759.21
762.28	1687.53
762.46	1572.84
762.64	1751.01
762.82	1738.73
763.00	1648.61
763.18	1734.63
763.35	1624.04
763.53	1714.15
763.71	1705.96
763.89	1730.53
764.07	1710.05
764.24	1671.14
764.42	1773.54
764.60	1652.71
764.78	1695.72
764.96	1785.83
765.13	1705.96
765.31	1642.47
765.49	1728.49
765.67	1728.49
765.84	1644.52
766.02	1751.01
766.20	1644.52
766.38	1742.82
766.56	1701.86
766.73	1748.97
766.91	1695.72
767.09	1705.96
767.27	1759.21
767.44	1619.94
767.62	1781.73
767.80	1728.49
767.98	1738.73
768.15	1718.25
768.33	1708.01
768.51	1806.31
768.69	1853.41
768.87	1765.35
769.04	1763.30
769.22	1886.18
769.40	1843.17
769.58	1830.88
769.75	1730.53
769.93	1755.11
770.11	1701.86
770.28	1597.42
770.46	1730.53
770.64	1734.63
770.82	1658.85
770.99	1703.91
771.17	1720.29
771.35	1734.63
771.53	1683.43
771.70	1665.00
771.88	1757.16
772.06	1685.48
772.23	1652.71
772.41	1769.44
772.59	1673.19
772.77	1572.84
772.94	1761.25
773.12	1757.16
773.30	1632.23
773.47	1726.44
773.65	1648.61
773.83	1798.12
774.01	1722.34
774.18	1527.78
774.36	1718.25
774.54	1585.13
774.71	1667.05
774.89	1697.77
775.07	1660.90
775.24	1681.38
775.42	1570.79
775.60	1738.73
775.78	1681.38
775.95	1583.08
776.13	1587.18
776.31	1564.65
776.48	1761.25
776.66	1755.11
776.84	1740.77
777.01	1708.01
777.19	1609.70
777.37	1728.49
777.54	1716.20
777.72	1814.50
777.90	1800.16
778.07	1697.77
778.25	1855.46
778.43	1761.25
778.60	1583.08
778.78	1716.20
778.96	1769.44
779.13	1722.34
779.31	1679.33
779.49	1728.49
779.66	1697.77
779.84	1634.28
780.01	1710.05
780.19	1705.96
780.37	1818.60
780.54	1714.15
780.72	1673.19
780.90	1671.14
781.07	1728.49
781.25	1703.91
781.43	1748.97
781.60	1691.62
781.78	1837.03
781.95	1744.87
782.13	1726.44
782.31	1753.06
782.48	1656.81
782.66	1685.48
782.83	1757.16
783.01	1695.72
783.19	1724.39
783.36	1751.01
783.54	1574.89
783.72	1834.98
783.89	1640.42
784.07	1753.06
784.24	1728.49
784.42	1828.84
784.60	1718.25
784.77	1746.92
784.95	1615.85
785.12	1675.24
785.30	1771.49
785.47	1689.57
785.65	1636.33
785.83	1705.96
786.00	1718.25
786.18	1732.58
786.35	1597.42
786.53	1681.38
786.71	1720.29
786.88	1697.77
787.06	1726.44
787.23	1638.38
787.41	1615.85
787.58	1761.25
787.76	1640.42
787.94	1624.04
788.11	1767.40
788.29	1699.81
788.46	1669.09
788.64	1687.53
788.81	1662.95
788.99	1673.19
789.16	1619.94
789.34	1628.14
789.52	1677.29
789.69	1710.05
789.87	1603.56
790.04	1665.00
790.22	1683.43
790.39	1834.98
790.57	1654.76
790.74	1669.09
790.92	1728.49
791.09	1599.46
791.27	1644.52
791.44	1734.63
791.62	1685.48
791.79	1724.39
791.97	1669.09
792.15	1818.60
792.32	1724.39
792.50	1724.39
792.67	1849.32
792.85	1804.26
793.02	1699.81
793.20	1699.81
793.37	1566.70
793.55	1665.00
793.72	1621.99
793.90	1714.15
794.07	1656.81
794.25	1691.62
794.42	1648.61
794.60	1699.81
794.77	1767.40
794.95	1806.31
795.12	1708.01
795.30	1757.16
795.47	1615.85
795.65	1861.60
795.82	1708.01
796.00	1662.95
796.17	1621.99
796.34	1619.94
796.52	1720.29
796.69	1765.35
796.87	1767.40
797.04	1681.38
797.22	1773.54
797.39	1701.86
797.57	1755.11
797.74	1791.97
797.92	1757.16
798.09	1638.38
798.27	1779.68
798.44	1654.76
798.62	1679.33
798.79	1724.39
798.96	1679.33
799.14	1693.67
799.31	1843.17
799.49	1697.77
799.66	1685.48
799.84	1767.40
800.01	1656.81
800.19	1806.31
800.36	1597.42
800.53	1738.73
800.71	1771.49
800.88	1765.35
801.06	1679.33
801.23	1667.05
801.41	1693.67
801.58	1695.72
801.75	1644.52
801.93	1636.33
802.10	1699.81
802.28	1665.00
802.45	1703.91
802.63	1769.44
802.80	1773.54
802.97	1746.92
803.15	1730.53
803.32	1681.38
803.50	1613.80
803.67	1699.81
803.84	1632.23
804.02	1771.49
804.19	1669.09
804.37	1634.28
804.54	1689.57
804.71	1748.97
804.89	1779.68
805.06	1699.81
805.24	1636.33
805.41	1669.09
805.58	1665.00
805.76	1822.69
805.93	1732.58
806.10	1767.40
806.28	1757.16
806.45	1730.53
806.63	1689.57
806.80	1738.73
806.97	1722.34
807.15	1722.34
807.32	1693.67
807.49	1658.85
807.67	1658.85
807.84	1732.58
808.01	1630.18
808.19	1875.94
808.36	1886.18
808.54	1648.61
808.71	1671.14
808.88	1753.06
809.06	1802.21
809.23	1777.64
809.40	1689.57
809.58	1765.35
809.75	1673.19
809.92	1695.72
810.10	1890.28
810.27	1732.58
810.44	1683.43
810.62	1832.93
810.79	1665.00
810.96	1734.63
811.14	1632.23
811.31	1665.00
811.48	1705.96
811.66	1673.19
811.83	1808.36
812.00	1738.73
812.18	1775.59
812.35	1757.16
812.52	1699.81
812.69	1746.92
812.87	1656.81
813.04	1677.29
813.21	1681.38
813.39	1644.52
813.56	1662.95
813.73	1759.21
813.91	1615.85
814.08	1746.92
814.25	1691.62
814.42	1665.00
814.60	1796.07
814.77	1677.29
814.94	1701.86
815.12	1638.38
815.29	1775.59
815.46	1650.66
815.63	1726.44
815.81	1714.15
815.98	1669.09
816.15	1652.71
816.33	1673.19
816.50	1763.30
816.67	1693.67
816.84	1660.90
817.02	1681.38
817.19	1689.57
817.36	1726.44
817.53	1718.25
817.71	1644.52
817.88	1781.73
818.05	1712.10
818.22	1677.29
818.40	1837.03
818.57	1658.85
818.74	1771.49
818.91	1693.67
819.09	1763.30
819.26	1751.01
819.43	1570.79
819.60	1609.70
819.78	1742.82
819.95	1789.92
820.12	1640.42
820.29	1673.19
820.47	1769.44
820.64	1673.19
820.81	1697.77
820.98	1648.61
821.15	1740.77
821.33	1734.63
821.50	1628.14
821.67	1708.01
821.84	1697.77
822.02	1783.78
822.19	1769.44
822.36	1593.32
822.53	1705.96
822.70	1669.09
822.88	1621.99
823.05	1718.25
823.22	1693.67
823.39	1812.45
823.56	1642.47
823.74	1837.03
823.91	1681.38
824.08	1624.04
824.25	1701.86
824.42	1841.12
824.60	1621.99
824.77	1705.96
824.94	1675.24
825.11	1759.21
825.28	1619.94
825.45	1771.49
825.63	1732.58
825.80	1609.70
825.97	1718.25
826.14	1724.39
826.31	1624.04
826.48	1683.43
826.66	1624.04
826.83	1708.01
827.00	1677.29
827.17	1683.43
827.34	1656.81
827.51	1685.48
827.69	1685.48
827.86	1648.61
828.03	1708.01
828.20	1744.87
828.37	1742.82
828.54	1712.10
828.71	1748.97
828.89	1832.93
829.06	1720.29
829.23	1804.26
829.40	1716.20
829.57	1662.95
829.74	1746.92
829.91	1673.19
830.09	1705.96
830.26	1714.15
830.43	1839.08
830.60	1759.21
830.77	1714.15
830.94	1779.68
831.11	1621.99
831.28	1722.34
831.46	1763.30
831.63	1718.25
831.80	1759.21
831.97	1578.98
832.14	1642.47
832.31	1810.40
832.48	1687.53
832.65	1718.25
832.82	1761.25
832.99	1769.44
833.17	1603.56
833.34	1818.60
833.51	1781.73
833.68	1675.24
833.85	1767.40
834.02	1646.57
834.19	1687.53
834.36	1677.29
834.53	1771.49
834.70	1755.11
834.87	1740.77
835.04	1669.09
835.22	1621.99
835.39	1660.90
835.56	1667.05
835.73	1603.56
835.90	1705.96
836.07	1648.61
836.24	1701.86
836.41	1611.75
836.58	1638.38
836.75	1779.68
836.92	1798.12
837.09	1738.73
837.26	1710.05
837.43	1742.82
837.60	1714.15
837.77	1642.47
837.94	1744.87
838.12	1822.69
838.29	1714.15
838.46	1669.09
838.63	1603.56
838.80	1886.18
838.97	1740.77
839.14	1708.01
839.31	1718.25
839.48	1703.91
839.65	1703.91
839.82	1761.25
839.99	1789.92
840.16	1755.11
840.33	1628.14
840.50	1656.81
840.67	1671.14
840.84	1634.28
841.01	1679.33
841.18	1710.05
841.35	1697.77
841.52	1734.63
841.69	1853.41
841.86	1626.09
842.03	1679.33
842.20	1742.82
842.37	1765.35
842.54	1751.01
842.71	1804.26
842.88	1642.47
843.05	1742.82
843.22	1734.63
843.39	1703.91
843.56	1675.24
843.73	1656.81
843.90	1705.96
844.07	1705.96
844.24	1724.39
844.41	1748.97
844.58	1714.15
844.75	1667.05
844.92	1757.16
845.09	1757.16
845.26	1681.38
845.43	1757.16
845.60	1716.20
845.77	1748.97
845.94	1640.42
846.10	1800.16
846.27	1681.38
846.44	1695.72
846.61	1603.56
846.78	1738.73
846.95	1775.59
847.12	1679.33
847.29	1765.35
847.46	1660.90
847.63	1732.58
847.80	1689.57
847.97	1728.49
848.14	1849.32
848.31	1701.86
848.48	1710.05
848.65	1798.12
848.82	1652.71
848.98	1875.94
849.15	1720.29
849.32	1732.58
849.49	1806.31
849.66	1718.25
849.83	1755.11
850.00	1705.96
850.17	1621.99
850.34	1730.53
850.51	1730.53
850.68	1755.11
850.85	1882.08
851.01	1632.23
851.18	1757.16
851.35	1718.25
851.52	1701.86
851.69	1751.01
851.86	1601.51
852.03	1748.97
852.20	1738.73
852.37	1699.81
852.53	1654.76
852.70	1718.25
852.87	1712.10
853.04	1708.01
853.21	1699.81
853.38	1812.45
853.55	1859.56
853.72	1798.12
853.89	1681.38
854.05	1603.56
854.22	1658.85
854.39	1701.86
854.56	1777.64
854.73	1822.69
854.90	1640.42
855.07	1705.96
855.23	1669.09
855.40	1705.96
855.57	1675.24
855.74	1607.66
855.91	2000.87
856.08	1583.08
856.25	1626.09
856.41	1628.14
856.58	1621.99
856.75	1800.16
856.92	1677.29
857.09	1785.83
857.26	1621.99
857.42	1779.68
857.59	1660.90
857.76	1773.54
857.93	1746.92
858.10	1718.25
858.27	1697.77
858.43	1697.77
858.60	1677.29
858.77	1581.03
858.94	1703.91
859.11	1787.88
859.27	1724.39
859.44	1804.26
859.61	1742.82
859.78	1755.11
859.95	1683.43
860.12	1605.61
860.28	1849.32
860.45	1804.26
860.62	1697.77
860.79	1763.30
860.95	1681.38
861.12	1771.49
861.29	1705.96
861.46	1710.05
861.63	1716.20
861.79	1660.90
861.96	1636.33
862.13	1685.48
862.30	1798.12
862.47	1703.91
862.63	1644.52
862.80	1730.53
862.97	1808.36
863.14	1693.67
863.30	1730.53
863.47	1658.85
863.64	1818.60
863.81	1687.53
863.97	1646.57
864.14	1724.39
864.31	1656.81
864.48	1677.29
864.65	1724.39
864.81	1740.77
864.98	1783.78
865.15	1751.01
865.32	1826.79
865.48	1839.08
865.65	1783.78
865.82	1619.94
865.98	1705.96
866.15	1759.21
866.32	1691.62
866.49	1732.58
866.65	1785.83
866.82	1613.80
866.99	1726.44
867.16	1681.38
867.32	1728.49
867.49	1683.43
867.66	1675.24
867.83	1718.25
867.99	1626.09
868.16	1636.33
868.33	1611.75
868.49	1691.62
868.66	1642.47
868.83	1691.62
868.99	1710.05
869.16	1730.53
869.33	1820.64
869.50	1746.92
869.66	1683.43
869.83	1726.44
870.00	1613.80
870.16	1665.00
870.33	1644.52
870.50	1791.97
870.66	1742.82
870.83	1800.16
871.00	1736.68
871.17	1785.83
871.33	1691.62
871.50	1699.81
871.67	1724.39
871.83	1638.38
872.00	1857.51
872.17	1624.04
872.33	1734.63
872.50	1746.92
872.67	1689.57
872.83	1722.34
873.00	1677.29
873.17	1738.73
873.33	1767.40
873.50	1740.77
873.67	1667.05
873.83	1699.81
874.00	1685.48
874.16	1697.77
874.33	1685.48
874.50	1697.77
874.66	1740.77
874.83	1652.71
875.00	1736.68
875.16	1796.07
875.33	1708.01
875.50	1644.52
875.66	1673.19
875.83	1767.40
875.99	1857.51
876.16	1728.49
876.33	1697.77
876.49	1687.53
876.66	1767.40
876.83	1685.48
876.99	1597.42
877.16	1722.34
877.32	1742.82
877.49	1634.28
877.66	1701.86
877.82	1724.39
877.99	1658.85
878.15	1742.82
878.32	1701.86
878.49	1794.02
878.65	1730.53
878.82	1783.78
878.98	1665.00
879.15	1802.21
879.32	1662.95
879.48	1685.48
879.65	1701.86
879.81	1742.82
879.98	1638.38
880.15	1681.38
880.31	1724.39
880.48	1648.61
880.64	1744.87
880.81	1763.30
880.97	1818.60
881.14	1818.60
881.31	1628.14
881.47	1875.94
881.64	1687.53
881.80	1640.42
881.97	1703.91
882.13	1798.12
882.30	1669.09
882.47	1587.18
882.63	1587.18
882.80	1708.01
882.96	1669.09
883.13	1746.92
883.29	1685.48
883.46	1777.64
883.62	1816.55
883.79	1769.44
883.95	1728.49
884.12	1720.29
884.29	1765.35
884.45	1757.16
884.62	1738.73
884.78	1699.81
884.95	1781.73
885.11	1566.70
885.28	1773.54
885.44	1724.39
885.61	1806.31
885.77	1779.68
885.94	1681.38
886.10	1773.54
886.27	1724.39
886.43	1869.80
886.60	1841.12
886.76	1681.38
886.93	1628.14
887.09	1671.14
887.26	1552.36
887.42	1656.81
887.59	1775.59
887.75	1771.49
887.92	1751.01
888.08	1673.19
888.25	1818.60
888.41	1722.34
888.58	1705.96
888.74	1644.52
888.91	1669.09
>>>>>End Processed Spectral Data<<<<<
