SpectraSuite Data File
++++++++++++++++++++++++++++++++++++
Date: Wed May 04 18:44:05 CEST 2016
User: root
Dark Spectrum Present: No
Reference Spectrum Present: No
Number of Sampled Component Spectra: 1
Spectrometers: USB4C02835
Integration Time (usec): 100000 (USB4C02835)
Spectra Averaged: 1 (USB4C02835)
Boxcar Smoothing: 0 (USB4C02835)
Correct for Electrical Dark: No (USB4C02835)
Strobe/Lamp Enabled: No (USB4C02835)
Correct for Detector Non-linearity: No (USB4C02835)
Correct for Stray Light: No (USB4C02835)
Number of Pixels in Processed Spectrum: 3648
>>>>>Begin Processed Spectral Data<<<<<
177.47	1454.06
177.69	1454.06
177.91	1454.06
178.13	1517.54
178.36	1458.15
178.58	1681.38
178.80	1730.53
179.02	1607.66
179.24	1595.37
179.46	1710.05
179.68	1830.88
179.90	1714.15
180.13	1767.40
180.35	1656.81
180.57	1675.24
180.79	1773.54
181.01	1724.39
181.23	1800.16
181.45	1859.56
181.67	1738.73
181.90	1779.68
182.12	1753.06
182.34	1677.29
182.56	1748.97
182.78	1701.86
183.00	1669.09
183.22	1685.48
183.44	1642.47
183.66	1863.65
183.89	1826.79
184.11	1716.20
184.33	1816.55
184.55	1779.68
184.77	1701.86
184.99	1791.97
185.21	1769.44
185.43	1849.32
185.65	1744.87
185.87	1710.05
186.10	1826.79
186.32	1798.12
186.54	1759.21
186.76	1748.97
186.98	1769.44
187.20	1648.61
187.42	1722.34
187.64	1697.77
187.86	1701.86
188.08	1722.34
188.30	1722.34
188.52	1705.96
188.75	1757.16
188.97	1783.78
189.19	1662.95
189.41	1699.81
189.63	1732.58
189.85	1732.58
190.07	1667.05
190.29	1585.13
190.51	1691.62
190.73	1636.33
190.95	1771.49
191.17	1748.97
191.39	1656.81
191.61	1693.67
191.84	1716.20
192.06	1751.01
192.28	1703.91
192.50	1853.41
192.72	1701.86
192.94	1705.96
193.16	1726.44
193.38	1763.30
193.60	1624.04
193.82	1581.03
194.04	1738.73
194.26	1699.81
194.48	1689.57
194.70	1712.10
194.92	1615.85
195.14	1761.25
195.36	1716.20
195.58	1714.15
195.80	1708.01
196.02	1667.05
196.24	1652.71
196.46	1769.44
196.69	1718.25
196.91	1824.74
197.13	1714.15
197.35	1648.61
197.57	1804.26
197.79	1722.34
198.01	1728.49
198.23	1716.20
198.45	1705.96
198.67	1558.50
198.89	1660.90
199.11	1738.73
199.33	1662.95
199.55	1617.90
199.77	1771.49
199.99	1708.01
200.21	1673.19
200.43	1755.11
200.65	1712.10
200.87	1568.74
201.09	1738.73
201.31	1679.33
201.53	1742.82
201.75	1720.29
201.97	1691.62
202.19	1712.10
202.41	1685.48
202.63	1828.84
202.85	1742.82
203.07	1726.44
203.29	1783.78
203.51	1669.09
203.73	1650.66
203.95	1920.99
204.17	1716.20
204.39	1695.72
204.61	1697.77
204.83	1626.09
205.05	1816.55
205.27	1746.92
205.49	1822.69
205.71	1763.30
205.93	1710.05
206.15	1744.87
206.37	1626.09
206.59	1683.43
206.81	1619.94
207.03	1607.66
207.25	1615.85
207.47	1746.92
207.69	1683.43
207.91	1744.87
208.13	1794.02
208.34	1695.72
208.56	1742.82
208.78	1714.15
209.00	1701.86
209.22	1693.67
209.44	1693.67
209.66	1658.85
209.88	1705.96
210.10	1656.81
210.32	1708.01
210.54	1761.25
210.76	1703.91
210.98	1751.01
211.20	1634.28
211.42	1669.09
211.64	1814.50
211.86	1787.88
212.08	1753.06
212.30	1744.87
212.52	1746.92
212.74	1783.78
212.96	1753.06
213.17	1769.44
213.39	1769.44
213.61	1877.99
213.83	1671.14
214.05	1697.77
214.27	1746.92
214.49	1730.53
214.71	1581.03
214.93	1796.07
215.15	1632.23
215.37	1738.73
215.59	1628.14
215.81	1779.68
216.03	1771.49
216.24	1656.81
216.46	1755.11
216.68	1683.43
216.90	1828.84
217.12	1716.20
217.34	1722.34
217.56	1787.88
217.78	1736.68
218.00	1703.91
218.22	1708.01
218.44	1769.44
218.66	1720.29
218.87	1755.11
219.09	1658.85
219.31	1771.49
219.53	1708.01
219.75	1699.81
219.97	1716.20
220.19	1687.53
220.41	1732.58
220.63	1730.53
220.85	1718.25
221.06	1773.54
221.28	1724.39
221.50	1779.68
221.72	1712.10
221.94	1738.73
222.16	1722.34
222.38	1796.07
222.60	1783.78
222.82	1673.19
223.03	1781.73
223.25	1617.90
223.47	1820.64
223.69	1789.92
223.91	1775.59
224.13	1757.16
224.35	1677.29
224.57	1746.92
224.78	1751.01
225.00	1634.28
225.22	1669.09
225.44	1697.77
225.66	1705.96
225.88	1665.00
226.10	1808.36
226.32	1771.49
226.53	1748.97
226.75	1697.77
226.97	1738.73
227.19	1726.44
227.41	1671.14
227.63	1644.52
227.85	1701.86
228.06	1697.77
228.28	1789.92
228.50	1775.59
228.72	1765.35
228.94	1662.95
229.16	1615.85
229.37	1660.90
229.59	1677.29
229.81	1775.59
230.03	1660.90
230.25	1691.62
230.47	1656.81
230.69	1648.61
230.90	1697.77
231.12	1689.57
231.34	1695.72
231.56	1806.31
231.78	1636.33
232.00	1693.67
232.21	1755.11
232.43	1658.85
232.65	1583.08
232.87	1671.14
233.09	1658.85
233.30	1716.20
233.52	1796.07
233.74	1667.05
233.96	1683.43
234.18	1724.39
234.40	1736.68
234.61	1767.40
234.83	1648.61
235.05	1681.38
235.27	1839.08
235.49	1722.34
235.70	1742.82
235.92	1771.49
236.14	1718.25
236.36	1839.08
236.58	1685.48
236.79	1740.77
237.01	1730.53
237.23	1595.37
237.45	1812.45
237.67	1744.87
237.88	1689.57
238.10	1906.66
238.32	1644.52
238.54	1705.96
238.76	1679.33
238.97	1636.33
239.19	1705.96
239.41	1648.61
239.63	1751.01
239.85	1671.14
240.06	1718.25
240.28	1697.77
240.50	1730.53
240.72	1675.24
240.93	1742.82
241.15	1804.26
241.37	1689.57
241.59	1779.68
241.81	1740.77
242.02	1708.01
242.24	1740.77
242.46	1740.77
242.68	1712.10
242.89	1710.05
243.11	1822.69
243.33	1724.39
243.55	1757.16
243.76	1732.58
243.98	1675.24
244.20	1636.33
244.42	1708.01
244.64	1685.48
244.85	1646.57
245.07	1656.81
245.29	1681.38
245.51	1681.38
245.72	1736.68
245.94	1765.35
246.16	1695.72
246.38	1742.82
246.59	1628.14
246.81	1689.57
247.03	1757.16
247.24	1619.94
247.46	1640.42
247.68	1673.19
247.90	1726.44
248.11	1660.90
248.33	1714.15
248.55	1644.52
248.77	1738.73
248.98	1751.01
249.20	1791.97
249.42	1677.29
249.64	1767.40
249.85	1716.20
250.07	1677.29
250.29	1759.21
250.50	1775.59
250.72	1648.61
250.94	1699.81
251.16	1787.88
251.37	1808.36
251.59	1738.73
251.81	1765.35
252.02	1806.31
252.24	1681.38
252.46	1775.59
252.68	1693.67
252.89	1585.13
253.11	1628.14
253.33	1732.58
253.54	1787.88
253.76	1662.95
253.98	1689.57
254.20	1726.44
254.41	1654.76
254.63	1603.56
254.85	1660.90
255.06	1701.86
255.28	1757.16
255.50	1724.39
255.71	1683.43
255.93	1636.33
256.15	1671.14
256.36	1691.62
256.58	1685.48
256.80	1755.11
257.02	1710.05
257.23	1679.33
257.45	1654.76
257.67	1720.29
257.88	1644.52
258.10	1748.97
258.32	1775.59
258.53	1595.37
258.75	1851.36
258.97	1667.05
259.18	1691.62
259.40	1691.62
259.62	1845.22
259.83	1789.92
260.05	1812.45
260.27	1992.67
260.48	1773.54
260.70	1642.47
260.92	1662.95
261.13	1689.57
261.35	1691.62
261.57	1685.48
261.78	1654.76
262.00	1726.44
262.22	1769.44
262.43	1658.85
262.65	1736.68
262.86	1708.01
263.08	1859.56
263.30	1802.21
263.51	1591.27
263.73	1712.10
263.95	1794.02
264.16	1615.85
264.38	1726.44
264.60	1730.53
264.81	1763.30
265.03	1732.58
265.25	1759.21
265.46	1732.58
265.68	1822.69
265.89	1693.67
266.11	1656.81
266.33	1746.92
266.54	1767.40
266.76	1669.09
266.98	1742.82
267.19	1771.49
267.41	1785.83
267.62	1732.58
267.84	1617.90
268.06	1736.68
268.27	1714.15
268.49	1720.29
268.70	1808.36
268.92	1689.57
269.14	1667.05
269.35	1589.22
269.57	1687.53
269.79	1708.01
270.00	1681.38
270.22	1839.08
270.43	1687.53
270.65	1599.46
270.87	1714.15
271.08	1697.77
271.30	1751.01
271.51	1730.53
271.73	1834.98
271.95	1712.10
272.16	1732.58
272.38	1701.86
272.59	1689.57
272.81	1701.86
273.02	1710.05
273.24	1769.44
273.46	1775.59
273.67	1751.01
273.89	1679.33
274.10	1691.62
274.32	1761.25
274.54	1701.86
274.75	1710.05
274.97	1644.52
275.18	1767.40
275.40	1720.29
275.61	1693.67
275.83	1722.34
276.05	1701.86
276.26	1748.97
276.48	1777.64
276.69	1722.34
276.91	1681.38
277.12	1802.21
277.34	1742.82
277.55	1685.48
277.77	1654.76
277.99	1703.91
278.20	1689.57
278.42	1740.77
278.63	1669.09
278.85	1689.57
279.06	1679.33
279.28	1734.63
279.49	1757.16
279.71	1726.44
279.93	1671.14
280.14	1730.53
280.36	1671.14
280.57	1742.82
280.79	1746.92
281.00	1615.85
281.22	1689.57
281.43	1730.53
281.65	1619.94
281.86	1703.91
282.08	1695.72
282.29	1845.22
282.51	1681.38
282.73	1648.61
282.94	1644.52
283.16	1724.39
283.37	1769.44
283.59	1769.44
283.80	1740.77
284.02	1748.97
284.23	1708.01
284.45	1638.38
284.66	1654.76
284.88	1681.38
285.09	1722.34
285.31	1669.09
285.52	1730.53
285.74	1689.57
285.95	1765.35
286.17	1697.77
286.38	1708.01
286.60	1630.18
286.81	1624.04
287.03	1699.81
287.24	1744.87
287.46	1708.01
287.67	1734.63
287.89	1869.80
288.10	1697.77
288.32	1708.01
288.53	1775.59
288.75	1724.39
288.96	1691.62
289.18	1619.94
289.39	1644.52
289.61	1714.15
289.82	1830.88
290.04	1804.26
290.25	1681.38
290.47	1708.01
290.68	1714.15
290.90	1787.88
291.11	1617.90
291.33	1726.44
291.54	1708.01
291.76	1738.73
291.97	1746.92
292.18	1687.53
292.40	1742.82
292.61	1693.67
292.83	1904.61
293.04	1748.97
293.26	1648.61
293.47	1628.14
293.69	1667.05
293.90	1746.92
294.12	1800.16
294.33	1697.77
294.55	1695.72
294.76	1789.92
294.97	1728.49
295.19	1834.98
295.40	1660.90
295.62	1744.87
295.83	1736.68
296.05	1712.10
296.26	1650.66
296.48	1738.73
296.69	1763.30
296.90	1697.77
297.12	1740.77
297.33	1699.81
297.55	1677.29
297.76	1781.73
297.98	1767.40
298.19	1710.05
298.41	1679.33
298.62	1726.44
298.83	1785.83
299.05	1652.71
299.26	1636.33
299.48	1736.68
299.69	1753.06
299.90	1732.58
300.12	1650.66
300.33	1755.11
300.55	1697.77
300.76	1683.43
300.98	1621.99
301.19	1699.81
301.40	1642.47
301.62	1695.72
301.83	1726.44
302.05	1730.53
302.26	1714.15
302.47	1708.01
302.69	1662.95
302.90	1712.10
303.12	1564.65
303.33	1777.64
303.54	1841.12
303.76	1685.48
303.97	1755.11
304.19	1759.21
304.40	1654.76
304.61	1779.68
304.83	1832.93
305.04	1687.53
305.26	1736.68
305.47	1716.20
305.68	1730.53
305.90	1626.09
306.11	1765.35
306.33	1626.09
306.54	1712.10
306.75	1685.48
306.97	1652.71
307.18	1753.06
307.39	1710.05
307.61	1701.86
307.82	1734.63
308.04	1648.61
308.25	1673.19
308.46	1720.29
308.68	1777.64
308.89	1710.05
309.10	1701.86
309.32	1816.55
309.53	1662.95
309.74	1804.26
309.96	1771.49
310.17	1839.08
310.39	1673.19
310.60	1789.92
310.81	1728.49
311.03	1601.51
311.24	1785.83
311.45	1705.96
311.67	1855.46
311.88	1644.52
312.09	1689.57
312.31	1626.09
312.52	1701.86
312.73	1738.73
312.95	1679.33
313.16	1628.14
313.37	1671.14
313.59	1794.02
313.80	1783.78
314.01	1755.11
314.23	1591.27
314.44	1689.57
314.65	1662.95
314.87	1638.38
315.08	1675.24
315.29	1642.47
315.51	1714.15
315.72	1566.70
315.93	1796.07
316.15	1802.21
316.36	1679.33
316.57	1660.90
316.79	1759.21
317.00	1685.48
317.21	1767.40
317.43	1673.19
317.64	1705.96
317.85	1656.81
318.07	1767.40
318.28	1763.30
318.49	1822.69
318.70	1968.10
318.92	1939.43
319.13	1984.48
319.34	1933.28
319.56	1767.40
319.77	1832.93
319.98	1812.45
320.20	1933.28
320.41	1757.16
320.62	1781.73
320.83	1742.82
321.05	1824.74
321.26	1710.05
321.47	1777.64
321.69	1808.36
321.90	1708.01
322.11	1746.92
322.32	1734.63
322.54	1748.97
322.75	1673.19
322.96	1871.84
323.18	1570.79
323.39	1630.18
323.60	1710.05
323.81	1826.79
324.03	1728.49
324.24	1730.53
324.45	1685.48
324.66	1689.57
324.88	1769.44
325.09	1726.44
325.30	1820.64
325.52	1800.16
325.73	1695.72
325.94	1712.10
326.15	1605.61
326.37	1636.33
326.58	1755.11
326.79	1742.82
327.00	1658.85
327.22	1708.01
327.43	1671.14
327.64	1695.72
327.85	1722.34
328.07	1744.87
328.28	1834.98
328.49	1630.18
328.70	1724.39
328.92	1656.81
329.13	1685.48
329.34	1730.53
329.55	1855.46
329.76	1785.83
329.98	1724.39
330.19	1765.35
330.40	1783.78
330.61	1689.57
330.83	1640.42
331.04	1658.85
331.25	1728.49
331.46	1714.15
331.68	1652.71
331.89	1816.55
332.10	1646.57
332.31	1662.95
332.52	1742.82
332.74	1738.73
332.95	1607.66
333.16	1630.18
333.37	1740.77
333.58	1662.95
333.80	1744.87
334.01	1656.81
334.22	1685.48
334.43	1689.57
334.64	1597.42
334.86	1658.85
335.07	1689.57
335.28	1781.73
335.49	1601.51
335.70	1681.38
335.92	1787.88
336.13	1837.03
336.34	1845.22
336.55	1658.85
336.76	1746.92
336.98	1708.01
337.19	1742.82
337.40	1777.64
337.61	1816.55
337.82	1767.40
338.04	1775.59
338.25	1648.61
338.46	1568.74
338.67	1693.67
338.88	1658.85
339.09	1673.19
339.31	1669.09
339.52	1640.42
339.73	1665.00
339.94	1746.92
340.15	1730.53
340.36	1630.18
340.58	1695.72
340.79	1658.85
341.00	1787.88
341.21	1638.38
341.42	1787.88
341.63	1595.37
341.85	1730.53
342.06	1738.73
342.27	1656.81
342.48	1755.11
342.69	1685.48
342.90	1757.16
343.12	1732.58
343.33	1710.05
343.54	1734.63
343.75	1798.12
343.96	1708.01
344.17	1802.21
344.38	1738.73
344.60	1697.77
344.81	1677.29
345.02	1679.33
345.23	1726.44
345.44	1918.95
345.65	1769.44
345.86	1738.73
346.07	1722.34
346.29	1634.28
346.50	1705.96
346.71	1771.49
346.92	1755.11
347.13	1847.27
347.34	1662.95
347.55	1699.81
347.76	1748.97
347.98	1619.94
348.19	1685.48
348.40	1726.44
348.61	1644.52
348.82	1718.25
349.03	1865.70
349.24	1650.66
349.45	1798.12
349.66	1662.95
349.88	1710.05
350.09	1693.67
350.30	1808.36
350.51	1777.64
350.72	1687.53
350.93	1728.49
351.14	1695.72
351.35	1765.35
351.56	1722.34
351.77	1714.15
351.99	1763.30
352.20	1865.70
352.41	1773.54
352.62	1656.81
352.83	1656.81
353.04	1718.25
353.25	1685.48
353.46	1775.59
353.67	1751.01
353.88	1662.95
354.09	1763.30
354.30	1724.39
354.52	1767.40
354.73	1718.25
354.94	1642.47
355.15	1708.01
355.36	1779.68
355.57	1634.28
355.78	1742.82
355.99	1687.53
356.20	1677.29
356.41	1755.11
356.62	1722.34
356.83	1769.44
357.04	1753.06
357.25	1615.85
357.46	1699.81
357.68	1687.53
357.89	1593.32
358.10	1646.57
358.31	1736.68
358.52	1652.71
358.73	1611.75
358.94	1646.57
359.15	1656.81
359.36	1669.09
359.57	1818.60
359.78	1740.77
359.99	1712.10
360.20	1705.96
360.41	1685.48
360.62	1759.21
360.83	1734.63
361.04	1802.21
361.25	1662.95
361.46	1808.36
361.67	1861.60
361.88	1730.53
362.09	1712.10
362.30	1736.68
362.51	1685.48
362.72	1748.97
362.93	1812.45
363.14	1722.34
363.35	1736.68
363.56	1712.10
363.78	1824.74
363.99	1675.24
364.20	1679.33
364.41	1769.44
364.62	1769.44
364.83	1744.87
365.04	1726.44
365.25	1662.95
365.46	1826.79
365.67	1572.84
365.88	1681.38
366.09	1732.58
366.30	1697.77
366.51	1722.34
366.72	1679.33
366.93	1705.96
367.14	1703.91
367.35	1753.06
367.56	1718.25
367.77	1783.78
367.98	1732.58
368.18	1681.38
368.39	1738.73
368.60	1677.29
368.81	1769.44
369.02	1800.16
369.23	1712.10
369.44	1689.57
369.65	1697.77
369.86	1675.24
370.07	1720.29
370.28	1710.05
370.49	1759.21
370.70	1734.63
370.91	1726.44
371.12	1654.76
371.33	1808.36
371.54	1687.53
371.75	1759.21
371.96	1546.22
372.17	1667.05
372.38	1667.05
372.59	1714.15
372.80	1720.29
373.01	1722.34
373.22	1728.49
373.43	1665.00
373.64	1632.23
373.85	1759.21
374.06	1791.97
374.26	1751.01
374.47	1677.29
374.68	1759.21
374.89	1697.77
375.10	1728.49
375.31	1716.20
375.52	1728.49
375.73	1691.62
375.94	1673.19
376.15	1810.40
376.36	1683.43
376.57	1656.81
376.78	1736.68
376.99	1691.62
377.20	1849.32
377.40	1718.25
377.61	1834.98
377.82	1691.62
378.03	1755.11
378.24	1699.81
378.45	1779.68
378.66	1724.39
378.87	1656.81
379.08	1605.61
379.29	1673.19
379.50	1724.39
379.71	1771.49
379.91	1781.73
380.12	1673.19
380.33	1689.57
380.54	1720.29
380.75	1705.96
380.96	1685.48
381.17	1681.38
381.38	1742.82
381.59	1775.59
381.80	1802.21
382.00	1869.80
382.21	1808.36
382.42	1769.44
382.63	1898.47
382.84	1814.50
383.05	1781.73
383.26	1863.65
383.47	1759.21
383.68	1734.63
383.88	1718.25
384.09	1724.39
384.30	1787.88
384.51	1767.40
384.72	1736.68
384.93	1712.10
385.14	1720.29
385.35	1777.64
385.55	1636.33
385.76	1726.44
385.97	1699.81
386.18	1642.47
386.39	1710.05
386.60	1742.82
386.81	1746.92
387.02	1656.81
387.22	1736.68
387.43	1800.16
387.64	1839.08
387.85	1892.32
388.06	2279.39
388.27	4779.96
388.48	9017.21
388.68	11571.02
388.89	13344.56
389.10	13840.17
389.31	12099.40
389.52	9789.29
389.73	8707.96
389.93	7806.86
390.14	7151.51
390.35	6760.34
390.56	6057.89
390.77	5003.19
390.98	3979.20
391.18	3004.37
391.39	2430.94
391.60	1896.42
391.81	1863.65
392.02	1806.31
392.23	1900.52
392.43	1820.64
392.64	1824.74
392.85	1751.01
393.06	1863.65
393.27	1738.73
393.47	1689.57
393.68	1718.25
393.89	1685.48
394.10	1775.59
394.31	1691.62
394.52	1781.73
394.72	1630.18
394.93	1771.49
395.14	1642.47
395.35	1693.67
395.56	1675.24
395.76	1705.96
395.97	1769.44
396.18	1914.85
396.39	1900.52
396.60	2111.46
396.80	1957.86
397.01	1869.80
397.22	1882.08
397.43	1937.38
397.64	1789.92
397.84	1902.56
398.05	1837.03
398.26	1785.83
398.47	1804.26
398.67	1726.44
398.88	1705.96
399.09	1734.63
399.30	1773.54
399.51	1761.25
399.71	1720.29
399.92	1722.34
400.13	1712.10
400.34	1726.44
400.54	1767.40
400.75	1730.53
400.96	1691.62
401.17	1800.16
401.37	1744.87
401.58	1722.34
401.79	1744.87
402.00	1855.46
402.21	2164.70
402.41	2082.78
402.62	2093.02
402.83	2156.51
403.04	2136.03
403.24	2054.11
403.45	1925.09
403.66	2013.15
403.87	1968.10
404.07	1910.75
404.28	1976.29
404.49	1902.56
404.70	1865.70
404.90	1818.60
405.11	1767.40
405.32	1767.40
405.52	1683.43
405.73	1730.53
405.94	1724.39
406.15	1812.45
406.35	1822.69
406.56	1658.85
406.77	1697.77
406.98	1763.30
407.18	1632.23
407.39	1806.31
407.60	1763.30
407.80	1685.48
408.01	1673.19
408.22	1789.92
408.43	1669.09
408.63	1759.21
408.84	1714.15
409.05	1787.88
409.25	1638.38
409.46	1691.62
409.67	1712.10
409.88	1722.34
410.08	1671.14
410.29	1720.29
410.50	1689.57
410.70	1759.21
410.91	1611.75
411.12	1732.58
411.32	1705.96
411.53	1693.67
411.74	1820.64
411.95	1824.74
412.15	1763.30
412.36	1802.21
412.57	1832.93
412.77	1744.87
412.98	1736.68
413.19	1687.53
413.39	1794.02
413.60	1808.36
413.81	1798.12
414.01	1636.33
414.22	1767.40
414.43	1812.45
414.63	1730.53
414.84	1734.63
415.05	1730.53
415.25	1624.04
415.46	1783.78
415.67	1716.20
415.87	1738.73
416.08	1705.96
416.29	1718.25
416.49	1828.84
416.70	1701.86
416.91	1703.91
417.11	1636.33
417.32	1785.83
417.53	1722.34
417.73	1736.68
417.94	1710.05
418.15	1673.19
418.35	1761.25
418.56	1753.06
418.77	1796.07
418.97	1648.61
419.18	1748.97
419.38	1603.56
419.59	1753.06
419.80	1787.88
420.00	1619.94
420.21	1714.15
420.42	1767.40
420.62	1728.49
420.83	1703.91
421.04	1730.53
421.24	1675.24
421.45	1787.88
421.65	1787.88
421.86	1738.73
422.07	1738.73
422.27	1759.21
422.48	1771.49
422.69	1724.39
422.89	1705.96
423.10	1669.09
423.30	1638.38
423.51	1720.29
423.72	1744.87
423.92	1810.40
424.13	1710.05
424.33	1789.92
424.54	1740.77
424.75	1755.11
424.95	1720.29
425.16	1683.43
425.36	1648.61
425.57	1814.50
425.78	1722.34
425.98	1773.54
426.19	1642.47
426.39	1660.90
426.60	1699.81
426.81	1808.36
427.01	1771.49
427.22	1607.66
427.42	1697.77
427.63	1626.09
427.83	1806.31
428.04	1820.64
428.25	1765.35
428.45	1742.82
428.66	1695.72
428.86	1718.25
429.07	1726.44
429.28	1689.57
429.48	1681.38
429.69	1683.43
429.89	1746.92
430.10	1689.57
430.30	1732.58
430.51	1791.97
430.71	1673.19
430.92	1744.87
431.13	1669.09
431.33	1787.88
431.54	1730.53
431.74	1796.07
431.95	1779.68
432.15	1601.51
432.36	1667.05
432.56	1779.68
432.77	1816.55
432.98	1861.60
433.18	1722.34
433.39	1673.19
433.59	1638.38
433.80	1802.21
434.00	1847.27
434.21	1748.97
434.41	1638.38
434.62	1863.65
434.82	1695.72
435.03	1710.05
435.23	1703.91
435.44	1705.96
435.64	1691.62
435.85	1765.35
436.06	1765.35
436.26	1783.78
436.47	1679.33
436.67	1675.24
436.88	1691.62
437.08	1779.68
437.29	1716.20
437.49	1738.73
437.70	1728.49
437.90	1705.96
438.11	1853.41
438.31	1855.46
438.52	1900.52
438.72	1935.33
438.93	2045.92
439.13	1814.50
439.34	1839.08
439.54	1759.21
439.75	1796.07
439.95	1789.92
440.16	1744.87
440.36	1742.82
440.57	1808.36
440.77	1818.60
440.98	1716.20
441.18	1730.53
441.39	1660.90
441.59	1722.34
441.80	1828.84
442.00	1726.44
442.21	1818.60
442.41	1626.09
442.62	1748.97
442.82	1685.48
443.02	1767.40
443.23	1748.97
443.43	1675.24
443.64	1779.68
443.84	1640.42
444.05	1742.82
444.25	1791.97
444.46	1820.64
444.66	1746.92
444.87	1818.60
445.07	1656.81
445.28	1689.57
445.48	1822.69
445.69	1775.59
445.89	1916.90
446.09	1769.44
446.30	1992.67
446.50	2619.35
446.71	4091.84
446.91	4982.71
447.12	5816.23
447.32	6018.98
447.53	5300.14
447.73	4358.08
447.93	4014.02
448.14	3715.02
448.34	3354.57
448.55	3063.76
448.75	3170.26
448.96	2912.21
449.16	2594.78
449.36	2418.65
449.57	2193.37
449.77	1867.75
449.98	1787.88
450.18	1798.12
450.39	1828.84
450.59	1806.31
450.79	1771.49
451.00	1724.39
451.20	1759.21
451.41	1685.48
451.61	1775.59
451.81	1755.11
452.02	1701.86
452.22	1722.34
452.43	1724.39
452.63	1775.59
452.84	1734.63
453.04	1658.85
453.24	1708.01
453.45	1705.96
453.65	1697.77
453.86	1716.20
454.06	1763.30
454.26	1716.20
454.47	1675.24
454.67	1816.55
454.87	1775.59
455.08	1716.20
455.28	1841.12
455.49	1736.68
455.69	1712.10
455.89	1857.51
456.10	1789.92
456.30	1673.19
456.51	1777.64
456.71	1808.36
456.91	1777.64
457.12	1718.25
457.32	1730.53
457.52	1685.48
457.73	1804.26
457.93	1787.88
458.14	1642.47
458.34	1689.57
458.54	1671.14
458.75	1693.67
458.95	1824.74
459.15	1755.11
459.36	1742.82
459.56	1808.36
459.76	1894.37
459.97	1796.07
460.17	1746.92
460.37	1845.22
460.58	1712.10
460.78	1759.21
460.99	1650.66
461.19	1730.53
461.39	1687.53
461.60	1722.34
461.80	1779.68
462.00	1718.25
462.21	1648.61
462.41	1699.81
462.61	1652.71
462.82	1644.52
463.02	1710.05
463.22	1726.44
463.43	1789.92
463.63	1755.11
463.83	1900.52
464.04	1722.34
464.24	1767.40
464.44	1769.44
464.64	1763.30
464.85	1806.31
465.05	1798.12
465.25	1759.21
465.46	1718.25
465.66	1781.73
465.86	1718.25
466.07	1679.33
466.27	1681.38
466.47	1699.81
466.68	1697.77
466.88	1837.03
467.08	1742.82
467.29	1794.02
467.49	1781.73
467.69	1652.71
467.89	1738.73
468.10	1689.57
468.30	1808.36
468.50	1800.16
468.71	1734.63
468.91	1679.33
469.11	1853.41
469.31	1744.87
469.52	1720.29
469.72	1826.79
469.92	1785.83
470.13	1703.91
470.33	1734.63
470.53	1820.64
470.73	2158.56
470.94	2617.30
471.14	2656.22
471.34	2967.51
471.54	2828.24
471.75	2607.06
471.95	2349.02
472.15	2226.14
472.36	2230.24
472.56	2176.99
472.76	2170.85
472.96	2099.17
473.17	2013.15
473.37	1961.95
473.57	1796.07
473.77	1904.61
473.98	1751.01
474.18	1759.21
474.38	1894.37
474.58	1660.90
474.79	1716.20
474.99	1806.31
475.19	1865.70
475.39	1691.62
475.60	1720.29
475.80	1685.48
476.00	1757.16
476.20	1685.48
476.41	1742.82
476.61	1818.60
476.81	1773.54
477.01	1683.43
477.21	1845.22
477.42	1742.82
477.62	1705.96
477.82	1791.97
478.02	1705.96
478.23	1785.83
478.43	1685.48
478.63	1615.85
478.83	1740.77
479.03	1726.44
479.24	1779.68
479.44	1828.84
479.64	1703.91
479.84	1640.42
480.04	1658.85
480.25	1740.77
480.45	1632.23
480.65	1681.38
480.85	1746.92
481.06	1683.43
481.26	1736.68
481.46	1759.21
481.66	1767.40
481.86	1718.25
482.06	1763.30
482.27	1681.38
482.47	1730.53
482.67	1744.87
482.87	1746.92
483.07	1763.30
483.28	1695.72
483.48	1648.61
483.68	1654.76
483.88	1705.96
484.08	1662.95
484.29	1603.56
484.49	1644.52
484.69	1687.53
484.89	1785.83
485.09	1802.21
485.29	1734.63
485.50	1740.77
485.70	1740.77
485.90	1839.08
486.10	1738.73
486.30	1794.02
486.50	1724.39
486.71	1693.67
486.91	1802.21
487.11	1759.21
487.31	1679.33
487.51	1761.25
487.71	1759.21
487.91	1621.99
488.12	1705.96
488.32	1621.99
488.52	1654.76
488.72	1648.61
488.92	1755.11
489.12	1828.84
489.32	1771.49
489.53	1695.72
489.73	1630.18
489.93	1796.07
490.13	1722.34
490.33	1691.62
490.53	1757.16
490.73	1748.97
490.94	1697.77
491.14	1677.29
491.34	1845.22
491.54	2129.89
491.74	2662.36
491.94	3139.54
492.14	3514.31
492.34	3600.33
492.54	3151.82
492.75	2641.88
492.95	2568.15
493.15	2490.33
493.35	2365.40
493.55	2349.02
493.75	2176.99
493.95	2230.24
494.15	2066.40
494.35	1966.05
494.56	1927.14
494.76	1783.78
494.96	1787.88
495.16	1800.16
495.36	1814.50
495.56	1773.54
495.76	1665.00
495.96	1689.57
496.16	1701.86
496.36	1798.12
496.56	1742.82
496.77	1769.44
496.97	1660.90
497.17	1806.31
497.37	1644.52
497.57	1738.73
497.77	1718.25
497.97	1718.25
498.17	1748.97
498.37	1710.05
498.57	1710.05
498.77	1744.87
498.97	1808.36
499.17	1859.56
499.38	1705.96
499.58	1744.87
499.78	1744.87
499.98	1828.84
500.18	1728.49
500.38	1746.92
500.58	1920.99
500.78	2346.97
500.98	4503.48
501.18	6541.21
501.38	8128.39
501.58	8984.44
501.78	8877.94
501.98	7100.31
502.18	5762.98
502.38	4947.89
502.58	4693.94
502.78	4212.67
502.98	3983.30
503.18	3782.60
503.38	3551.18
503.59	3114.96
503.79	2889.68
503.99	2643.93
504.19	2346.97
504.39	2377.69
504.59	2418.65
504.79	2373.60
504.99	2238.43
505.19	2105.31
505.39	2013.15
505.59	1966.05
505.79	1961.95
505.99	1953.76
506.19	1896.42
506.39	2019.30
506.59	1757.16
506.79	1816.55
506.99	1845.22
507.19	1753.06
507.39	1781.73
507.59	1660.90
507.79	1638.38
507.99	1736.68
508.19	1722.34
508.39	1658.85
508.59	1759.21
508.79	1789.92
508.99	1810.40
509.19	1644.52
509.39	1839.08
509.59	1734.63
509.79	1671.14
509.99	1804.26
510.19	1773.54
510.39	1757.16
510.59	1705.96
510.79	1710.05
510.99	1701.86
511.19	1734.63
511.39	1834.98
511.59	1779.68
511.79	1855.46
511.99	1746.92
512.19	1918.95
512.38	1675.24
512.58	1726.44
512.78	1746.92
512.98	1845.22
513.18	1820.64
513.38	1636.33
513.58	1732.58
513.78	1720.29
513.98	1789.92
514.18	1708.01
514.38	1751.01
514.58	1722.34
514.78	1722.34
514.98	1714.15
515.18	1789.92
515.38	1705.96
515.58	1853.41
515.78	1751.01
515.98	1650.66
516.18	1783.78
516.38	1697.77
516.57	1695.72
516.77	1689.57
516.97	1740.77
517.17	1648.61
517.37	1597.42
517.57	1816.55
517.77	1740.77
517.97	1714.15
518.17	1816.55
518.37	1693.67
518.57	1660.90
518.77	1720.29
518.97	1724.39
519.16	1808.36
519.36	1857.51
519.56	1742.82
519.76	1783.78
519.96	1683.43
520.16	1877.99
520.36	1665.00
520.56	1806.31
520.76	1781.73
520.96	1765.35
521.16	1843.17
521.35	1818.60
521.55	1837.03
521.75	1703.91
521.95	1722.34
522.15	1669.09
522.35	1755.11
522.55	1695.72
522.75	1748.97
522.95	1679.33
523.14	1671.14
523.34	1751.01
523.54	1677.29
523.74	1826.79
523.94	1804.26
524.14	1630.18
524.34	1730.53
524.54	1712.10
524.73	1728.49
524.93	1783.78
525.13	1746.92
525.33	1658.85
525.53	1886.18
525.73	1716.20
525.93	1785.83
526.13	1771.49
526.32	1746.92
526.52	1783.78
526.72	1779.68
526.92	1699.81
527.12	1708.01
527.32	1665.00
527.52	1683.43
527.71	1697.77
527.91	1796.07
528.11	1695.72
528.31	1744.87
528.51	1710.05
528.71	1859.56
528.90	1695.72
529.10	1787.88
529.30	1798.12
529.50	1650.66
529.70	1767.40
529.90	1648.61
530.09	1748.97
530.29	1693.67
530.49	1718.25
530.69	1918.95
530.89	1763.30
531.09	1734.63
531.28	1757.16
531.48	1773.54
531.68	1775.59
531.88	1732.58
532.08	1804.26
532.28	1716.20
532.47	1781.73
532.67	1847.27
532.87	1765.35
533.07	1628.14
533.27	1751.01
533.46	1767.40
533.66	1716.20
533.86	1742.82
534.06	1834.98
534.26	1787.88
534.45	1751.01
534.65	1875.94
534.85	1748.97
535.05	1699.81
535.25	1783.78
535.44	1667.05
535.64	1814.50
535.84	1724.39
536.04	1703.91
536.24	1699.81
536.43	1675.24
536.63	1742.82
536.83	1712.10
537.03	1710.05
537.22	1656.81
537.42	1660.90
537.62	1726.44
537.82	1689.57
538.02	1863.65
538.21	1763.30
538.41	1865.70
538.61	1810.40
538.81	1714.15
539.00	1820.64
539.20	1728.49
539.40	1720.29
539.60	1794.02
539.79	1800.16
539.99	1732.58
540.19	1740.77
540.39	1673.19
540.58	1800.16
540.78	1800.16
540.98	1714.15
541.18	1849.32
541.37	1800.16
541.57	1634.28
541.77	1757.16
541.97	1660.90
542.16	1675.24
542.36	1716.20
542.56	1769.44
542.76	1861.60
542.95	1742.82
543.15	1789.92
543.35	1740.77
543.54	1691.62
543.74	1708.01
543.94	1753.06
544.14	1683.43
544.33	1785.83
544.53	1673.19
544.73	1689.57
544.93	1728.49
545.12	1654.76
545.32	1781.73
545.52	1648.61
545.71	1619.94
545.91	1697.77
546.11	1740.77
546.30	1660.90
546.50	1767.40
546.70	1744.87
546.90	1720.29
547.09	1587.18
547.29	1781.73
547.49	1781.73
547.68	1753.06
547.88	1718.25
548.08	1755.11
548.27	2158.56
548.47	1697.77
548.67	1669.09
548.87	1685.48
549.06	1691.62
549.26	1798.12
549.46	1699.81
549.65	1789.92
549.85	1775.59
550.05	1875.94
550.24	1697.77
550.44	1783.78
550.64	1753.06
550.83	1777.64
551.03	1779.68
551.23	1855.46
551.42	1796.07
551.62	1642.47
551.82	1751.01
552.01	1654.76
552.21	1761.25
552.41	1669.09
552.60	1853.41
552.80	1777.64
553.00	1691.62
553.19	1781.73
553.39	1794.02
553.59	1697.77
553.78	1746.92
553.98	1789.92
554.17	1701.86
554.37	1654.76
554.57	1677.29
554.76	1677.29
554.96	1755.11
555.16	1775.59
555.35	1763.30
555.55	1789.92
555.75	1722.34
555.94	1730.53
556.14	1648.61
556.33	1771.49
556.53	1714.15
556.73	1689.57
556.92	1832.93
557.12	1746.92
557.32	1914.85
557.51	1763.30
557.71	1726.44
557.90	1785.83
558.10	1802.21
558.30	1708.01
558.49	1722.34
558.69	1755.11
558.88	1812.45
559.08	1736.68
559.28	1726.44
559.47	1730.53
559.67	1630.18
559.86	1781.73
560.06	1710.05
560.26	1685.48
560.45	1755.11
560.65	1722.34
560.84	1812.45
561.04	1728.49
561.24	1736.68
561.43	1662.95
561.63	1783.78
561.82	1720.29
562.02	1830.88
562.22	1689.57
562.41	1699.81
562.61	1751.01
562.80	1691.62
563.00	1988.58
563.19	1742.82
563.39	1755.11
563.59	1736.68
563.78	1703.91
563.98	1650.66
564.17	1730.53
564.37	1705.96
564.56	1748.97
564.76	1681.38
564.96	1701.86
565.15	1785.83
565.35	1861.60
565.54	1765.35
565.74	1818.60
565.93	1771.49
566.13	1763.30
566.32	1824.74
566.52	1714.15
566.71	1720.29
566.91	1767.40
567.11	1703.91
567.30	1710.05
567.50	1855.46
567.69	1798.12
567.89	1726.44
568.08	1683.43
568.28	1734.63
568.47	1705.96
568.67	1722.34
568.86	1667.05
569.06	1834.98
569.25	1697.77
569.45	1716.20
569.64	1710.05
569.84	1669.09
570.04	1718.25
570.23	1808.36
570.43	1734.63
570.62	1751.01
570.82	1789.92
571.01	1703.91
571.21	1681.38
571.40	1677.29
571.60	1763.30
571.79	1689.57
571.99	1771.49
572.18	1697.77
572.38	1738.73
572.57	1751.01
572.77	1820.64
572.96	1845.22
573.16	1779.68
573.35	1705.96
573.55	1818.60
573.74	1796.07
573.94	1767.40
574.13	1728.49
574.33	1877.99
574.52	1796.07
574.71	1800.16
574.91	1742.82
575.10	1681.38
575.30	1701.86
575.49	1730.53
575.69	1736.68
575.88	1794.02
576.08	1814.50
576.27	1865.70
576.47	1837.03
576.66	1890.28
576.86	1910.75
577.05	1828.84
577.25	1730.53
577.44	1886.18
577.64	1591.27
577.83	1779.68
578.02	1720.29
578.22	1839.08
578.41	1808.36
578.61	1789.92
578.80	1681.38
579.00	1744.87
579.19	1787.88
579.39	1767.40
579.58	1796.07
579.77	1759.21
579.97	1890.28
580.16	1826.79
580.36	1886.18
580.55	1853.41
580.75	1763.30
580.94	1777.64
581.13	1896.42
581.33	1892.32
581.52	1832.93
581.72	1853.41
581.91	1916.90
582.11	1791.97
582.30	1820.64
582.49	1751.01
582.69	1869.80
582.88	1830.88
583.08	1818.60
583.27	1834.98
583.47	1732.58
583.66	1748.97
583.85	1787.88
584.05	1777.64
584.24	1759.21
584.44	1877.99
584.63	1890.28
584.82	1828.84
585.02	1843.17
585.21	1931.23
585.41	1837.03
585.60	1955.81
585.79	1972.19
585.99	1990.63
586.18	1937.38
586.37	2263.01
586.57	3268.56
586.76	9793.39
586.96	26955.36
587.15	41457.03
587.34	51195.12
587.54	57654.42
587.73	55463.09
587.93	39835.04
588.12	29412.93
588.31	23604.89
588.51	20248.27
588.70	18482.92
588.89	17155.83
589.09	15517.46
589.28	13596.46
589.47	11536.21
589.67	9439.09
589.86	7217.04
590.06	5429.17
590.25	4175.81
590.44	3233.74
590.64	2570.20
590.83	2213.85
591.02	2140.13
591.22	1968.10
591.41	1904.61
591.60	1859.56
591.80	1871.84
591.99	1818.60
592.18	1669.09
592.38	1824.74
592.57	1771.49
592.76	1781.73
592.96	1734.63
593.15	1857.51
593.34	1892.32
593.54	1742.82
593.73	1808.36
593.92	1744.87
594.12	1785.83
594.31	1767.40
594.50	1918.95
594.70	1828.84
594.89	1906.66
595.08	1621.99
595.28	1880.04
595.47	1990.63
595.66	1794.02
595.86	1681.38
596.05	1777.64
596.24	1689.57
596.43	1894.37
596.63	1822.69
596.82	1738.73
597.01	1771.49
597.21	1841.12
597.40	1783.78
597.59	1765.35
597.79	1759.21
597.98	1798.12
598.17	1798.12
598.36	1779.68
598.56	1812.45
598.75	1810.40
598.94	1785.83
599.14	1748.97
599.33	1796.07
599.52	1804.26
599.71	1761.25
599.91	1820.64
600.10	1781.73
600.29	1771.49
600.48	1816.55
600.68	1830.88
600.87	1787.88
601.06	1669.09
601.26	1742.82
601.45	1724.39
601.64	1724.39
601.83	1812.45
602.03	1732.58
602.22	1708.01
602.41	1746.92
602.60	1841.12
602.80	1765.35
602.99	1740.77
603.18	1783.78
603.37	1714.15
603.57	1853.41
603.76	1849.32
603.95	1802.21
604.14	1705.96
604.34	1693.67
604.53	1771.49
604.72	1755.11
604.91	1791.97
605.10	1759.21
605.30	1683.43
605.49	1910.75
605.68	1802.21
605.87	1771.49
606.07	1681.38
606.26	1640.42
606.45	1761.25
606.64	1705.96
606.84	1751.01
607.03	1773.54
607.22	1853.41
607.41	1730.53
607.60	1771.49
607.80	1841.12
607.99	1771.49
608.18	1791.97
608.37	1722.34
608.56	1710.05
608.76	1814.50
608.95	1920.99
609.14	1837.03
609.33	1931.23
609.52	1959.91
609.72	1771.49
609.91	1783.78
610.10	1769.44
610.29	1830.88
610.48	1751.01
610.68	1804.26
610.87	1738.73
611.06	1841.12
611.25	1748.97
611.44	1785.83
611.63	1693.67
611.83	1834.98
612.02	1640.42
612.21	1769.44
612.40	1630.18
612.59	1646.57
612.79	1693.67
612.98	1701.86
613.17	1828.84
613.36	1757.16
613.55	1841.12
613.74	1851.36
613.93	1853.41
614.13	2013.15
614.32	1935.33
614.51	1980.39
614.70	1873.89
614.89	1871.84
615.08	1769.44
615.28	2197.47
615.47	1667.05
615.66	1892.32
615.85	1830.88
616.04	1855.46
616.23	1800.16
616.42	1755.11
616.62	1824.74
616.81	1724.39
617.00	1691.62
617.19	1748.97
617.38	1683.43
617.57	1777.64
617.76	1783.78
617.95	1804.26
618.15	1794.02
618.34	1818.60
618.53	1626.09
618.72	1798.12
618.91	1855.46
619.10	1853.41
619.29	1722.34
619.48	1726.44
619.68	1675.24
619.87	1787.88
620.06	1644.52
620.25	1812.45
620.44	1660.90
620.63	1765.35
620.82	1785.83
621.01	1683.43
621.20	1699.81
621.39	1804.26
621.59	1806.31
621.78	1783.78
621.97	1714.15
622.16	1800.16
622.35	1691.62
622.54	1783.78
622.73	1834.98
622.92	1693.67
623.11	1767.40
623.30	1748.97
623.49	1785.83
623.68	1685.48
623.88	1826.79
624.07	1714.15
624.26	1710.05
624.45	1769.44
624.64	1677.29
624.83	1734.63
625.02	1787.88
625.21	1710.05
625.40	1755.11
625.59	1808.36
625.78	1705.96
625.97	1802.21
626.16	1845.22
626.35	1806.31
626.54	1861.60
626.74	1888.23
626.93	1765.35
627.12	1775.59
627.31	1843.17
627.50	1738.73
627.69	1822.69
627.88	1667.05
628.07	1701.86
628.26	1689.57
628.45	1701.86
628.64	1671.14
628.83	1705.96
629.02	1662.95
629.21	1814.50
629.40	1722.34
629.59	1677.29
629.78	1689.57
629.97	1761.25
630.16	1712.10
630.35	1732.58
630.54	1751.01
630.73	1679.33
630.92	1755.11
631.11	1757.16
631.30	1769.44
631.49	1830.88
631.68	1734.63
631.87	1746.92
632.06	1740.77
632.25	1861.60
632.44	1705.96
632.63	1773.54
632.82	1720.29
633.01	1761.25
633.20	1882.08
633.39	1841.12
633.58	1685.48
633.77	1808.36
633.96	1783.78
634.15	1847.27
634.34	1877.99
634.53	1759.21
634.72	1726.44
634.91	1669.09
635.10	1732.58
635.29	1804.26
635.48	1738.73
635.67	1671.14
635.86	1615.85
636.05	1826.79
636.24	1724.39
636.43	1767.40
636.62	1820.64
636.81	1601.51
637.00	1748.97
637.19	1671.14
637.38	1812.45
637.57	1679.33
637.76	1757.16
637.95	1929.19
638.14	1796.07
638.33	1830.88
638.52	1847.27
638.71	1669.09
638.89	1687.53
639.08	1863.65
639.27	1884.13
639.46	1837.03
639.65	2201.57
639.84	2205.66
640.03	2410.46
640.22	2367.45
640.41	2510.81
640.60	2000.87
640.79	2076.64
640.98	1927.14
641.17	2031.58
641.36	1865.70
641.55	1869.80
641.74	1730.53
641.92	1828.84
642.11	1654.76
642.30	1738.73
642.49	1779.68
642.68	1812.45
642.87	1796.07
643.06	1816.55
643.25	1761.25
643.44	1642.47
643.63	1685.48
643.82	1761.25
644.00	1769.44
644.19	1665.00
644.38	1691.62
644.57	1736.68
644.76	1685.48
644.95	1712.10
645.14	1781.73
645.33	1665.00
645.52	1644.52
645.71	1699.81
645.89	1636.33
646.08	1759.21
646.27	1781.73
646.46	1873.89
646.65	1656.81
646.84	1644.52
647.03	1685.48
647.22	1804.26
647.40	1734.63
647.59	1726.44
647.78	1671.14
647.97	1642.47
648.16	1648.61
648.35	1865.70
648.54	1783.78
648.73	1675.24
648.91	1779.68
649.10	1748.97
649.29	1638.38
649.48	1728.49
649.67	1777.64
649.86	1751.01
650.05	1824.74
650.23	1880.04
650.42	1877.99
650.61	1900.52
650.80	1966.05
650.99	1961.95
651.18	1755.11
651.36	1857.51
651.55	1740.77
651.74	1800.16
651.93	1806.31
652.12	1767.40
652.31	1720.29
652.49	1763.30
652.68	1742.82
652.87	1832.93
653.06	1734.63
653.25	1867.75
653.44	1773.54
653.62	1755.11
653.81	1746.92
654.00	1794.02
654.19	1738.73
654.38	1859.56
654.56	1765.35
654.75	1742.82
654.94	1767.40
655.13	1777.64
655.32	1732.58
655.51	1742.82
655.69	1693.67
655.88	1697.77
656.07	1603.56
656.26	1738.73
656.45	1587.18
656.63	1730.53
656.82	1814.50
657.01	1781.73
657.20	1689.57
657.38	1812.45
657.57	1720.29
657.76	1597.42
657.95	1777.64
658.14	1691.62
658.32	1705.96
658.51	1578.98
658.70	1705.96
658.89	1726.44
659.08	1714.15
659.26	1798.12
659.45	1708.01
659.64	1834.98
659.83	1742.82
660.01	1970.15
660.20	1814.50
660.39	1806.31
660.58	1724.39
660.76	1783.78
660.95	1662.95
661.14	1740.77
661.33	1699.81
661.51	1675.24
661.70	1660.90
661.89	1732.58
662.08	1718.25
662.26	1628.14
662.45	1652.71
662.64	1830.88
662.83	1730.53
663.01	1626.09
663.20	1765.35
663.39	1736.68
663.58	1656.81
663.76	1744.87
663.95	1742.82
664.14	1699.81
664.32	1699.81
664.51	1697.77
664.70	1660.90
664.89	1794.02
665.07	1646.57
665.26	1804.26
665.45	1640.42
665.64	1724.39
665.82	1748.97
666.01	1804.26
666.20	1759.21
666.38	1763.30
666.57	1791.97
666.76	2179.04
666.95	4630.46
667.13	11677.52
667.32	18454.25
667.51	22253.23
667.69	25050.75
667.88	25441.92
668.07	19588.82
668.25	14563.11
668.44	11777.87
668.63	9713.52
668.81	8517.50
669.00	7698.31
669.19	6997.91
669.38	6215.59
669.56	5445.55
669.75	4536.25
669.94	3749.83
670.12	2996.18
670.31	2662.36
670.50	2389.98
670.68	2136.03
670.87	2025.44
671.06	1841.12
671.24	1804.26
671.43	1877.99
671.62	1820.64
671.80	1791.97
671.99	1794.02
672.18	1802.21
672.36	1920.99
672.55	1746.92
672.74	1751.01
672.92	1761.25
673.11	1796.07
673.29	1669.09
673.48	1751.01
673.67	1693.67
673.85	1810.40
674.04	1701.86
674.23	1777.64
674.41	1820.64
674.60	1714.15
674.79	1615.85
674.97	1695.72
675.16	1769.44
675.34	1777.64
675.53	1761.25
675.72	1724.39
675.90	1894.37
676.09	1757.16
676.28	1714.15
676.46	1712.10
676.65	1765.35
676.83	1697.77
677.02	1648.61
677.21	1714.15
677.39	1769.44
677.58	1621.99
677.77	1591.27
677.95	1787.88
678.14	1773.54
678.32	1757.16
678.51	1652.71
678.70	1800.16
678.88	1665.00
679.07	1722.34
679.25	1742.82
679.44	1751.01
679.63	1675.24
679.81	1748.97
680.00	1791.97
680.18	1677.29
680.37	1851.36
680.55	1679.33
680.74	1667.05
680.93	1593.32
681.11	1761.25
681.30	1785.83
681.48	1763.30
681.67	1640.42
681.85	1759.21
682.04	1683.43
682.23	1767.40
682.41	1775.59
682.60	1710.05
682.78	1738.73
682.97	1607.66
683.15	1798.12
683.34	1724.39
683.53	1746.92
683.71	1714.15
683.90	1824.74
684.08	1843.17
684.27	1693.67
684.45	1769.44
684.64	1767.40
684.82	1742.82
685.01	1728.49
685.19	1724.39
685.38	1757.16
685.57	1703.91
685.75	1607.66
685.94	1656.81
686.12	1705.96
686.31	1726.44
686.49	1769.44
686.68	1712.10
686.86	1671.14
687.05	1669.09
687.23	1849.32
687.42	1681.38
687.60	1603.56
687.79	1787.88
687.97	1794.02
688.16	1779.68
688.34	1781.73
688.53	1683.43
688.71	1746.92
688.90	1787.88
689.08	1726.44
689.27	1671.14
689.45	1736.68
689.64	1814.50
689.82	1779.68
690.01	1787.88
690.19	1748.97
690.38	1656.81
690.56	1746.92
690.75	1742.82
690.93	1654.76
691.12	1720.29
691.30	1783.78
691.49	1714.15
691.67	1732.58
691.86	1855.46
692.04	1798.12
692.23	1712.10
692.41	1753.06
692.60	1908.71
692.78	1894.37
692.97	1789.92
693.15	1845.22
693.34	1894.37
693.52	1800.16
693.71	1669.09
693.89	1718.25
694.08	1628.14
694.26	1744.87
694.44	1853.41
694.63	1775.59
694.81	1607.66
695.00	1710.05
695.18	1732.58
695.37	1927.14
695.55	1714.15
695.74	1781.73
695.92	1726.44
696.10	1791.97
696.29	1607.66
696.47	1673.19
696.66	1656.81
696.84	1701.86
697.03	1738.73
697.21	1800.16
697.40	2295.77
697.58	1697.77
697.76	1708.01
697.95	1689.57
698.13	1683.43
698.32	1726.44
698.50	1654.76
698.68	1714.15
698.87	1738.73
699.05	1849.32
699.24	1681.38
699.42	1611.75
699.61	1701.86
699.79	1724.39
699.97	1697.77
700.16	1722.34
700.34	1673.19
700.53	1644.52
700.71	1703.91
700.89	1812.45
701.08	1712.10
701.26	1710.05
701.45	2142.18
701.63	1660.90
701.81	1728.49
702.00	1736.68
702.18	1699.81
702.37	1720.29
702.55	1880.04
702.73	1847.27
702.92	1871.84
703.10	1951.71
703.28	2039.78
703.47	1865.70
703.65	1896.42
703.84	1845.22
704.02	1781.73
704.20	1865.70
704.39	1748.97
704.57	1728.49
704.75	1873.89
704.94	1757.16
705.12	1765.35
705.30	1918.95
705.49	2545.63
705.67	5420.97
705.86	13367.09
706.04	19310.30
706.22	22716.07
706.41	25020.03
706.59	24817.29
706.77	19080.92
706.96	13770.54
707.14	11913.03
707.32	10176.36
707.51	8939.38
707.69	7829.38
707.87	6633.37
708.06	5517.23
708.24	4442.04
708.42	3301.33
708.61	2785.24
708.79	2230.24
708.97	2002.91
709.16	1949.67
709.34	1822.69
709.52	1789.92
709.71	1740.77
709.89	1791.97
710.07	1755.11
710.26	1763.30
710.44	1730.53
710.62	1708.01
710.80	1787.88
710.99	1789.92
711.17	1693.67
711.35	1662.95
711.54	1656.81
711.72	1779.68
711.90	1808.36
712.09	1773.54
712.27	1652.71
712.45	1802.21
712.63	1722.34
712.82	1722.34
713.00	1748.97
713.18	1748.97
713.37	1839.08
713.55	1744.87
713.73	1720.29
713.91	1783.78
714.10	1806.31
714.28	1675.24
714.46	1769.44
714.65	1802.21
714.83	1759.21
715.01	1687.53
715.19	1681.38
715.38	1718.25
715.56	1775.59
715.74	1701.86
715.92	1648.61
716.11	1812.45
716.29	1613.80
716.47	1685.48
716.65	1648.61
716.84	1701.86
717.02	1832.93
717.20	1599.46
717.38	1585.13
717.57	1767.40
717.75	1716.20
717.93	1648.61
718.11	1675.24
718.30	1703.91
718.48	1703.91
718.66	1789.92
718.84	1755.11
719.03	1714.15
719.21	1525.74
719.39	1808.36
719.57	1755.11
719.75	1763.30
719.94	1671.14
720.12	1621.99
720.30	1748.97
720.48	1769.44
720.67	1687.53
720.85	1679.33
721.03	1648.61
721.21	1683.43
721.39	1773.54
721.58	1693.67
721.76	1708.01
721.94	1779.68
722.12	1677.29
722.30	1896.42
722.49	1634.28
722.67	1757.16
722.85	1736.68
723.03	1650.66
723.21	1644.52
723.40	1781.73
723.58	1796.07
723.76	1693.67
723.94	1826.79
724.12	1759.21
724.30	1855.46
724.49	1847.27
724.67	1687.53
724.85	1818.60
725.03	1685.48
725.21	1794.02
725.40	1789.92
725.58	1724.39
725.76	1800.16
725.94	1742.82
726.12	1673.19
726.30	1767.40
726.49	1742.82
726.67	1689.57
726.85	1683.43
727.03	1753.06
727.21	2308.06
727.39	3459.02
727.57	4951.99
727.76	5642.15
727.94	6195.11
728.12	6320.03
728.30	5683.11
728.48	4483.00
728.66	3901.38
728.84	3585.99
729.03	3217.36
729.21	2922.45
729.39	2320.35
729.57	2111.46
729.75	2033.63
729.93	1912.80
730.11	1822.69
730.30	1767.40
730.48	1789.92
730.66	1830.88
730.84	1830.88
731.02	1744.87
731.20	1640.42
731.38	1718.25
731.56	1658.85
731.74	1605.61
731.93	1701.86
732.11	1710.05
732.29	1736.68
732.47	1740.77
732.65	1689.57
732.83	1791.97
733.01	1798.12
733.19	1648.61
733.37	1789.92
733.56	1687.53
733.74	1683.43
733.92	1812.45
734.10	1718.25
734.28	1730.53
734.46	1593.32
734.64	1695.72
734.82	1683.43
735.00	1699.81
735.18	1609.70
735.36	1642.47
735.54	1708.01
735.73	1667.05
735.91	1798.12
736.09	1744.87
736.27	1701.86
736.45	1779.68
736.63	1640.42
736.81	1710.05
736.99	1779.68
737.17	1859.56
737.35	1712.10
737.53	1720.29
737.71	1695.72
737.89	1761.25
738.07	1691.62
738.25	1656.81
738.43	1699.81
738.61	1677.29
738.80	1595.37
738.98	1609.70
739.16	1621.99
739.34	1648.61
739.52	1834.98
739.70	1705.96
739.88	1810.40
740.06	1873.89
740.24	1558.50
740.42	1837.03
740.60	1607.66
740.78	1595.37
740.96	1589.22
741.14	1751.01
741.32	1681.38
741.50	1665.00
741.68	1863.65
741.86	1810.40
742.04	1665.00
742.22	1605.61
742.40	1773.54
742.58	1767.40
742.76	1656.81
742.94	1814.50
743.12	1685.48
743.30	1730.53
743.48	1804.26
743.66	1587.18
743.84	1691.62
744.02	1689.57
744.20	1701.86
744.38	1687.53
744.56	1652.71
744.74	1800.16
744.92	1742.82
745.10	1824.74
745.28	1738.73
745.46	1853.41
745.64	1669.09
745.82	1710.05
746.00	1714.15
746.18	1755.11
746.36	1654.76
746.54	1669.09
746.72	1757.16
746.90	1624.04
747.08	1763.30
747.26	1705.96
747.44	1834.98
747.62	1710.05
747.80	1720.29
747.98	1791.97
748.15	1685.48
748.33	1849.32
748.51	1695.72
748.69	1771.49
748.87	1638.38
749.05	1736.68
749.23	1656.81
749.41	1742.82
749.59	1757.16
749.77	1785.83
749.95	1607.66
750.13	1695.72
750.31	1787.88
750.49	1716.20
750.67	1777.64
750.85	1832.93
751.03	1740.77
751.20	1882.08
751.38	1677.29
751.56	1654.76
751.74	1691.62
751.92	1652.71
752.10	1693.67
752.28	1828.84
752.46	1687.53
752.64	1673.19
752.82	1710.05
753.00	1816.55
753.18	1662.95
753.35	1757.16
753.53	1720.29
753.71	1714.15
753.89	1740.77
754.07	1740.77
754.25	1757.16
754.43	1775.59
754.61	1689.57
754.79	1761.25
754.97	1759.21
755.14	1820.64
755.32	1642.47
755.50	1701.86
755.68	1734.63
755.86	1644.52
756.04	1697.77
756.22	1652.71
756.40	1710.05
756.57	1804.26
756.75	1654.76
756.93	1791.97
757.11	1763.30
757.29	1667.05
757.47	1665.00
757.65	1652.71
757.82	1593.32
758.00	1673.19
758.18	1681.38
758.36	1746.92
758.54	1810.40
758.72	1607.66
758.90	1724.39
759.07	1705.96
759.25	1693.67
759.43	1708.01
759.61	1634.28
759.79	2172.89
759.97	1761.25
760.15	1693.67
760.32	1701.86
760.50	1804.26
760.68	1781.73
760.86	1636.33
761.04	1718.25
761.22	1740.77
761.39	1783.78
761.57	1787.88
761.75	1718.25
761.93	1771.49
762.11	1632.23
762.28	1742.82
762.46	1603.56
762.64	1787.88
762.82	1642.47
763.00	1697.77
763.18	1839.08
763.35	1648.61
763.53	1714.15
763.71	1742.82
763.89	1640.42
764.07	1738.73
764.24	1695.72
764.42	1769.44
764.60	1736.68
764.78	1757.16
764.96	1773.54
765.13	1718.25
765.31	1730.53
765.49	1736.68
765.67	1710.05
765.84	1689.57
766.02	1718.25
766.20	1683.43
766.38	1673.19
766.56	1726.44
766.73	1763.30
766.91	1640.42
767.09	1830.88
767.27	1746.92
767.44	1726.44
767.62	1736.68
767.80	1748.97
767.98	1640.42
768.15	1697.77
768.33	1740.77
768.51	1755.11
768.69	1738.73
768.87	1837.03
769.04	1777.64
769.22	1832.93
769.40	1839.08
769.58	1855.46
769.75	1779.68
769.93	1734.63
770.11	1662.95
770.28	1626.09
770.46	1763.30
770.64	1736.68
770.82	1708.01
770.99	1693.67
771.17	1751.01
771.35	1705.96
771.53	1753.06
771.70	1687.53
771.88	1718.25
772.06	1699.81
772.23	1699.81
772.41	1693.67
772.59	1685.48
772.77	1636.33
772.94	1693.67
773.12	1699.81
773.30	1619.94
773.47	1669.09
773.65	1656.81
773.83	1843.17
774.01	1683.43
774.18	1585.13
774.36	1724.39
774.54	1679.33
774.71	1701.86
774.89	1658.85
775.07	1619.94
775.24	1718.25
775.42	1693.67
775.60	1839.08
775.78	1697.77
775.95	1687.53
776.13	1624.04
776.31	1636.33
776.48	1681.38
776.66	1705.96
776.84	1730.53
777.01	1677.29
777.19	1642.47
777.37	1705.96
777.54	1722.34
777.72	1828.84
777.90	1810.40
778.07	1658.85
778.25	1902.56
778.43	1769.44
778.60	1660.90
778.78	1796.07
778.96	1740.77
779.13	1665.00
779.31	1744.87
779.49	1742.82
779.66	1714.15
779.84	1695.72
780.01	1738.73
780.19	1646.57
780.37	1716.20
780.54	1796.07
780.72	1540.07
780.90	1683.43
781.07	1583.08
781.25	1626.09
781.43	1755.11
781.60	1718.25
781.78	1667.05
781.95	1761.25
782.13	1718.25
782.31	1673.19
782.48	1540.07
782.66	1673.19
782.83	1814.50
783.01	1773.54
783.19	1798.12
783.36	1755.11
783.54	1615.85
783.72	1726.44
783.89	1691.62
784.07	1697.77
784.24	1718.25
784.42	1757.16
784.60	1728.49
784.77	1714.15
784.95	1570.79
785.12	1621.99
785.30	1695.72
785.47	1683.43
785.65	1660.90
785.83	1718.25
786.00	1701.86
786.18	1714.15
786.35	1669.09
786.53	1599.46
786.71	1773.54
786.88	1779.68
787.06	1730.53
787.23	1656.81
787.41	1619.94
787.58	1714.15
787.76	1718.25
787.94	1691.62
788.11	1679.33
788.29	1658.85
788.46	1687.53
788.64	1593.32
788.81	1675.24
788.99	1644.52
789.16	1673.19
789.34	1667.05
789.52	1656.81
789.69	1667.05
789.87	1660.90
790.04	1699.81
790.22	1687.53
790.39	1779.68
790.57	1634.28
790.74	1687.53
790.92	1724.39
791.09	1695.72
791.27	1800.16
791.44	1806.31
791.62	1724.39
791.79	1718.25
791.97	1683.43
792.15	1851.36
792.32	1718.25
792.50	1777.64
792.67	1771.49
792.85	1798.12
793.02	1722.34
793.20	1834.98
793.37	1628.14
793.55	1681.38
793.72	1570.79
793.90	1705.96
794.07	1695.72
794.25	1665.00
794.42	1773.54
794.60	1662.95
794.77	1705.96
794.95	1740.77
795.12	1808.36
795.30	1693.67
795.47	1650.66
795.65	1863.65
795.82	1675.24
796.00	1656.81
796.17	1679.33
796.34	1662.95
796.52	1699.81
796.69	1751.01
796.87	1781.73
797.04	1767.40
797.22	1748.97
797.39	1714.15
797.57	1759.21
797.74	1669.09
797.92	1712.10
798.09	1652.71
798.27	1738.73
798.44	1701.86
798.62	1667.05
798.79	1722.34
798.96	1738.73
799.14	1691.62
799.31	1796.07
799.49	1658.85
799.66	1624.04
799.84	1751.01
800.01	1689.57
800.19	1736.68
800.36	1595.37
800.53	1738.73
800.71	1548.26
800.88	1730.53
801.06	1714.15
801.23	1695.72
801.41	1665.00
801.58	1720.29
801.75	1697.77
801.93	1777.64
802.10	1771.49
802.28	1705.96
802.45	1630.18
802.63	1658.85
802.80	1798.12
802.97	1621.99
803.15	1781.73
803.32	1656.81
803.50	1662.95
803.67	1652.71
803.84	1714.15
804.02	1734.63
804.19	1708.01
804.37	1619.94
804.54	1662.95
804.71	1621.99
804.89	1675.24
805.06	1650.66
805.24	1683.43
805.41	1689.57
805.58	1626.09
805.76	1761.25
805.93	1757.16
806.10	1845.22
806.28	1783.78
806.45	1675.24
806.63	1751.01
806.80	1726.44
806.97	1695.72
807.15	1642.47
807.32	1665.00
807.49	1681.38
807.67	1691.62
807.84	1804.26
808.01	1578.98
808.19	1830.88
808.36	1847.27
808.54	1628.14
808.71	1673.19
808.88	1802.21
809.06	1783.78
809.23	1867.75
809.40	1693.67
809.58	1736.68
809.75	1740.77
809.92	1646.57
810.10	1845.22
810.27	1726.44
810.44	1753.06
810.62	1689.57
810.79	1724.39
810.96	1701.86
811.14	1685.48
811.31	1748.97
811.48	1714.15
811.66	1708.01
811.83	1746.92
812.00	1708.01
812.18	1742.82
812.35	1777.64
812.52	1689.57
812.69	1691.62
812.87	1669.09
813.04	1716.20
813.21	1705.96
813.39	1730.53
813.56	1714.15
813.73	1740.77
813.91	1599.46
814.08	1691.62
814.25	1677.29
814.42	1693.67
814.60	1617.90
814.77	1779.68
814.94	1662.95
815.12	1728.49
815.29	1755.11
815.46	1656.81
815.63	1730.53
815.81	1710.05
815.98	1722.34
816.15	1685.48
816.33	1691.62
816.50	1648.61
816.67	1636.33
816.84	1701.86
817.02	1660.90
817.19	1681.38
817.36	1689.57
817.53	1771.49
817.71	1730.53
817.88	1728.49
818.05	1615.85
818.22	1593.32
818.40	1751.01
818.57	1636.33
818.74	1730.53
818.91	1703.91
819.09	1779.68
819.26	1734.63
819.43	1665.00
819.60	1605.61
819.78	1736.68
819.95	1757.16
820.12	1621.99
820.29	1738.73
820.47	1765.35
820.64	1673.19
820.81	1665.00
820.98	1638.38
821.15	1677.29
821.33	1730.53
821.50	1626.09
821.67	1783.78
821.84	1671.14
822.02	1728.49
822.19	1748.97
822.36	1609.70
822.53	1685.48
822.70	1685.48
822.88	1732.58
823.05	1814.50
823.22	1748.97
823.39	1730.53
823.56	1693.67
823.74	1783.78
823.91	1630.18
824.08	1638.38
824.25	1665.00
824.42	1765.35
824.60	1621.99
824.77	1738.73
824.94	1705.96
825.11	1693.67
825.28	1601.51
825.45	1640.42
825.63	1751.01
825.80	1722.34
825.97	1708.01
826.14	1673.19
826.31	1550.31
826.48	1744.87
826.66	1695.72
826.83	1714.15
827.00	1662.95
827.17	1718.25
827.34	1703.91
827.51	1667.05
827.69	1654.76
827.86	1648.61
828.03	1714.15
828.20	1695.72
828.37	1701.86
828.54	1697.77
828.71	1685.48
828.89	1816.55
829.06	1693.67
829.23	1746.92
829.40	1675.24
829.57	1740.77
829.74	1779.68
829.91	1667.05
830.09	1669.09
830.26	1759.21
830.43	1863.65
830.60	1665.00
830.77	1728.49
830.94	1834.98
831.11	1759.21
831.28	1681.38
831.46	1705.96
831.63	1642.47
831.80	1740.77
831.97	1576.94
832.14	1626.09
832.31	1697.77
832.48	1660.90
832.65	1751.01
832.82	1755.11
832.99	1732.58
833.17	1660.90
833.34	1755.11
833.51	1740.77
833.68	1665.00
833.85	1720.29
834.02	1705.96
834.19	1552.36
834.36	1681.38
834.53	1744.87
834.70	1730.53
834.87	1746.92
835.04	1603.56
835.22	1654.76
835.39	1644.52
835.56	1642.47
835.73	1722.34
835.90	1773.54
836.07	1691.62
836.24	1738.73
836.41	1650.66
836.58	1691.62
836.75	1787.88
836.92	1726.44
837.09	1693.67
837.26	1708.01
837.43	1687.53
837.60	1759.21
837.77	1740.77
837.94	1800.16
838.12	1763.30
838.29	1742.82
838.46	1609.70
838.63	1621.99
838.80	1820.64
838.97	1697.77
839.14	1671.14
839.31	1693.67
839.48	1669.09
839.65	1814.50
839.82	1771.49
839.99	1746.92
840.16	1658.85
840.33	1638.38
840.50	1755.11
840.67	1673.19
840.84	1533.93
841.01	1742.82
841.18	1693.67
841.35	1695.72
841.52	1718.25
841.69	1853.41
841.86	1718.25
842.03	1720.29
842.20	1751.01
842.37	1675.24
842.54	1683.43
842.71	1732.58
842.88	1589.22
843.05	1773.54
843.22	1708.01
843.39	1759.21
843.56	1628.14
843.73	1748.97
843.90	1759.21
844.07	1777.64
844.24	1712.10
844.41	1701.86
844.58	1675.24
844.75	1685.48
844.92	1720.29
845.09	1710.05
845.26	1603.56
845.43	1732.58
845.60	1701.86
845.77	1779.68
845.94	1730.53
846.10	1820.64
846.27	1583.08
846.44	1683.43
846.61	1708.01
846.78	1751.01
846.95	1732.58
847.12	1675.24
847.29	1683.43
847.46	1613.80
847.63	1804.26
847.80	1636.33
847.97	1791.97
848.14	1777.64
848.31	1628.14
848.48	1650.66
848.65	1609.70
848.82	1611.75
848.98	1783.78
849.15	1755.11
849.32	1841.12
849.49	1744.87
849.66	1771.49
849.83	1742.82
850.00	1671.14
850.17	1796.07
850.34	1718.25
850.51	1681.38
850.68	1714.15
850.85	1841.12
851.01	1744.87
851.18	1693.67
851.35	1724.39
851.52	1650.66
851.69	1701.86
851.86	1679.33
852.03	1660.90
852.20	1826.79
852.37	1775.59
852.53	1632.23
852.70	1718.25
852.87	1744.87
853.04	1785.83
853.21	1726.44
853.38	1734.63
853.55	1724.39
853.72	1800.16
853.89	1644.52
854.05	1675.24
854.22	1693.67
854.39	1656.81
854.56	1718.25
854.73	1826.79
854.90	1652.71
855.07	1685.48
855.23	1714.15
855.40	1716.20
855.57	1722.34
855.74	1607.66
855.91	1900.52
856.08	1705.96
856.25	1640.42
856.41	1685.48
856.58	1732.58
856.75	1679.33
856.92	1705.96
857.09	1818.60
857.26	1638.38
857.42	1675.24
857.59	1699.81
857.76	1640.42
857.93	1710.05
858.10	1736.68
858.27	1609.70
858.43	1679.33
858.60	1619.94
858.77	1615.85
858.94	1667.05
859.11	1677.29
859.27	1712.10
859.44	1693.67
859.61	1882.08
859.78	1767.40
859.95	1654.76
860.12	1638.38
860.28	1742.82
860.45	1865.70
860.62	1665.00
860.79	1730.53
860.95	1697.77
861.12	1740.77
861.29	1662.95
861.46	1656.81
861.63	1632.23
861.79	1779.68
861.96	1624.04
862.13	1677.29
862.30	1818.60
862.47	1687.53
862.63	1667.05
862.80	1775.59
862.97	1697.77
863.14	1681.38
863.30	1697.77
863.47	1669.09
863.64	1822.69
863.81	1742.82
863.97	1652.71
864.14	1773.54
864.31	1648.61
864.48	1744.87
864.65	1697.77
864.81	1808.36
864.98	1783.78
865.15	1800.16
865.32	1755.11
865.48	1834.98
865.65	1775.59
865.82	1673.19
865.98	1724.39
866.15	1775.59
866.32	1697.77
866.49	1724.39
866.65	1763.30
866.82	1722.34
866.99	1658.85
867.16	1654.76
867.32	1677.29
867.49	1734.63
867.66	1681.38
867.83	1624.04
867.99	1576.94
868.16	1685.48
868.33	1701.86
868.49	1746.92
868.66	1740.77
868.83	1742.82
868.99	1708.01
869.16	1714.15
869.33	1751.01
869.50	1785.83
869.66	1658.85
869.83	1656.81
870.00	1576.94
870.16	1814.50
870.33	1691.62
870.50	1761.25
870.66	1728.49
870.83	1824.74
871.00	1748.97
871.17	1658.85
871.33	1800.16
871.50	1716.20
871.67	1744.87
871.83	1619.94
872.00	1787.88
872.17	1628.14
872.33	1755.11
872.50	1681.38
872.67	1710.05
872.83	1648.61
873.00	1679.33
873.17	1738.73
873.33	1669.09
873.50	1714.15
873.67	1581.03
873.83	1658.85
874.00	1679.33
874.16	1736.68
874.33	1673.19
874.50	1601.51
874.66	1685.48
874.83	1677.29
875.00	1783.78
875.16	1748.97
875.33	1808.36
875.50	1589.22
875.66	1660.90
875.83	1660.90
875.99	1718.25
876.16	1683.43
876.33	1619.94
876.49	1671.14
876.66	1703.91
876.83	1716.20
876.99	1597.42
877.16	1755.11
877.32	1708.01
877.49	1701.86
877.66	1765.35
877.82	1738.73
877.99	1728.49
878.15	1671.14
878.32	1738.73
878.49	1708.01
878.65	1669.09
878.82	1763.30
878.98	1658.85
879.15	1767.40
879.32	1761.25
879.48	1796.07
879.65	1726.44
879.81	1636.33
879.98	1726.44
880.15	1683.43
880.31	1751.01
880.48	1624.04
880.64	1736.68
880.81	1789.92
880.97	1783.78
881.14	1775.59
881.31	1650.66
881.47	1861.60
881.64	1718.25
881.80	1603.56
881.97	1681.38
882.13	1824.74
882.30	1673.19
882.47	1732.58
882.63	1677.29
882.80	1634.28
882.96	1673.19
883.13	1763.30
883.29	1662.95
883.46	1732.58
883.62	1798.12
883.79	1695.72
883.95	1757.16
884.12	1710.05
884.29	1730.53
884.45	1703.91
884.62	1712.10
884.78	1662.95
884.95	1796.07
885.11	1662.95
885.28	1736.68
885.44	1691.62
885.61	1701.86
885.77	1791.97
885.94	1767.40
886.10	1708.01
886.27	1708.01
886.43	1849.32
886.60	1753.06
886.76	1708.01
886.93	1605.61
887.09	1777.64
887.26	1621.99
887.42	1705.96
887.59	1736.68
887.75	1877.99
887.92	1730.53
888.08	1751.01
888.25	1800.16
888.41	1783.78
888.58	1753.06
888.74	1533.93
888.91	1660.90
>>>>>End Processed Spectral Data<<<<<
