SpectraSuite Data File
++++++++++++++++++++++++++++++++++++
Date: Wed May 04 18:44:32 CEST 2016
User: root
Dark Spectrum Present: No
Reference Spectrum Present: No
Number of Sampled Component Spectra: 1
Spectrometers: USB4C02835
Integration Time (usec): 100000 (USB4C02835)
Spectra Averaged: 1 (USB4C02835)
Boxcar Smoothing: 0 (USB4C02835)
Correct for Electrical Dark: No (USB4C02835)
Strobe/Lamp Enabled: No (USB4C02835)
Correct for Detector Non-linearity: No (USB4C02835)
Correct for Stray Light: No (USB4C02835)
Number of Pixels in Processed Spectrum: 3648
>>>>>Begin Processed Spectral Data<<<<<
177.47	1478.63
177.69	1478.63
177.91	1478.63
178.13	1490.92
178.36	1535.98
178.58	1624.04
178.80	1751.01
179.02	1673.19
179.24	1576.94
179.46	1718.25
179.68	1742.82
179.90	1703.91
180.13	1765.35
180.35	1552.36
180.57	1689.57
180.79	1753.06
181.01	1708.01
181.23	1734.63
181.45	1804.26
181.67	1701.86
181.90	1798.12
182.12	1738.73
182.34	1669.09
182.56	1767.40
182.78	1744.87
183.00	1619.94
183.22	1730.53
183.44	1689.57
183.66	1902.56
183.89	1820.64
184.11	1703.91
184.33	1759.21
184.55	1710.05
184.77	1701.86
184.99	1679.33
185.21	1677.29
185.43	1826.79
185.65	1648.61
185.87	1722.34
186.10	1824.74
186.32	1738.73
186.54	1716.20
186.76	1624.04
186.98	1746.92
187.20	1687.53
187.42	1656.81
187.64	1718.25
187.86	1716.20
188.08	1798.12
188.30	1730.53
188.52	1716.20
188.75	1804.26
188.97	1740.77
189.19	1669.09
189.41	1718.25
189.63	1753.06
189.85	1720.29
190.07	1730.53
190.29	1626.09
190.51	1613.80
190.73	1595.37
190.95	1771.49
191.17	1814.50
191.39	1669.09
191.61	1660.90
191.84	1671.14
192.06	1708.01
192.28	1650.66
192.50	1896.42
192.72	1705.96
192.94	1734.63
193.16	1779.68
193.38	1759.21
193.60	1660.90
193.82	1691.62
194.04	1693.67
194.26	1703.91
194.48	1718.25
194.70	1763.30
194.92	1701.86
195.14	1673.19
195.36	1654.76
195.58	1716.20
195.80	1638.38
196.02	1734.63
196.24	1738.73
196.46	1771.49
196.69	1617.90
196.91	1826.79
197.13	1644.52
197.35	1703.91
197.57	1853.41
197.79	1660.90
198.01	1705.96
198.23	1705.96
198.45	1683.43
198.67	1646.57
198.89	1701.86
199.11	1771.49
199.33	1669.09
199.55	1615.85
199.77	1660.90
199.99	1818.60
200.21	1759.21
200.43	1800.16
200.65	1628.14
200.87	1611.75
201.09	1716.20
201.31	1708.01
201.53	1763.30
201.75	1689.57
201.97	1662.95
202.19	1746.92
202.41	1693.67
202.63	1845.22
202.85	1720.29
203.07	1697.77
203.29	1708.01
203.51	1769.44
203.73	1642.47
203.95	1847.27
204.17	1740.77
204.39	1742.82
204.61	1699.81
204.83	1681.38
205.05	1722.34
205.27	1796.07
205.49	1757.16
205.71	1677.29
205.93	1695.72
206.15	1718.25
206.37	1757.16
206.59	1734.63
206.81	1570.79
207.03	1665.00
207.25	1660.90
207.47	1744.87
207.69	1714.15
207.91	1824.74
208.13	1771.49
208.34	1640.42
208.56	1611.75
208.78	1732.58
209.00	1669.09
209.22	1673.19
209.44	1730.53
209.66	1624.04
209.88	1675.24
210.10	1736.68
210.32	1712.10
210.54	1763.30
210.76	1689.57
210.98	1720.29
211.20	1634.28
211.42	1671.14
211.64	1826.79
211.86	1804.26
212.08	1787.88
212.30	1746.92
212.52	1667.05
212.74	1742.82
212.96	1712.10
213.17	1757.16
213.39	1744.87
213.61	1800.16
213.83	1769.44
214.05	1769.44
214.27	1746.92
214.49	1617.90
214.71	1679.33
214.93	1798.12
215.15	1724.39
215.37	1753.06
215.59	1675.24
215.81	1714.15
216.03	1761.25
216.24	1693.67
216.46	1685.48
216.68	1765.35
216.90	1804.26
217.12	1751.01
217.34	1773.54
217.56	1796.07
217.78	1734.63
218.00	1708.01
218.22	1800.16
218.44	1665.00
218.66	1738.73
218.87	1818.60
219.09	1630.18
219.31	1759.21
219.53	1656.81
219.75	1642.47
219.97	1726.44
220.19	1705.96
220.41	1656.81
220.63	1804.26
220.85	1718.25
221.06	1673.19
221.28	1812.45
221.50	1773.54
221.72	1742.82
221.94	1740.77
222.16	1710.05
222.38	1812.45
222.60	1724.39
222.82	1669.09
223.03	1791.97
223.25	1632.23
223.47	1683.43
223.69	1779.68
223.91	1687.53
224.13	1779.68
224.35	1673.19
224.57	1796.07
224.78	1732.58
225.00	1626.09
225.22	1697.77
225.44	1748.97
225.66	1697.77
225.88	1673.19
226.10	1689.57
226.32	1755.11
226.53	1863.65
226.75	1712.10
226.97	1654.76
227.19	1615.85
227.41	1714.15
227.63	1701.86
227.85	1630.18
228.06	1687.53
228.28	1732.58
228.50	1773.54
228.72	1744.87
228.94	1708.01
229.16	1642.47
229.37	1677.29
229.59	1634.28
229.81	1759.21
230.03	1693.67
230.25	1585.13
230.47	1603.56
230.69	1597.42
230.90	1787.88
231.12	1624.04
231.34	1718.25
231.56	1708.01
231.78	1615.85
232.00	1763.30
232.21	1695.72
232.43	1679.33
232.65	1652.71
232.87	1740.77
233.09	1615.85
233.30	1656.81
233.52	1802.21
233.74	1728.49
233.96	1642.47
234.18	1603.56
234.40	1640.42
234.61	1869.80
234.83	1619.94
235.05	1617.90
235.27	1877.99
235.49	1699.81
235.70	1734.63
235.92	1738.73
236.14	1734.63
236.36	1822.69
236.58	1640.42
236.79	1771.49
237.01	1681.38
237.23	1736.68
237.45	1787.88
237.67	1675.24
237.88	1699.81
238.10	1841.12
238.32	1603.56
238.54	1712.10
238.76	1755.11
238.97	1681.38
239.19	1615.85
239.41	1783.78
239.63	1753.06
239.85	1646.57
240.06	1767.40
240.28	1675.24
240.50	1769.44
240.72	1703.91
240.93	1691.62
241.15	1785.83
241.37	1695.72
241.59	1751.01
241.81	1732.58
242.02	1744.87
242.24	1673.19
242.46	1767.40
242.68	1669.09
242.89	1724.39
243.11	1773.54
243.33	1675.24
243.55	1716.20
243.76	1716.20
243.98	1644.52
244.20	1697.77
244.42	1718.25
244.64	1699.81
244.85	1615.85
245.07	1652.71
245.29	1665.00
245.51	1757.16
245.72	1751.01
245.94	1810.40
246.16	1611.75
246.38	1691.62
246.59	1693.67
246.81	1644.52
247.03	1665.00
247.24	1554.41
247.46	1642.47
247.68	1705.96
247.90	1660.90
248.11	1771.49
248.33	1736.68
248.55	1791.97
248.77	1683.43
248.98	1703.91
249.20	1791.97
249.42	1705.96
249.64	1705.96
249.85	1722.34
250.07	1740.77
250.29	1726.44
250.50	1802.21
250.72	1662.95
250.94	1650.66
251.16	1740.77
251.37	1683.43
251.59	1783.78
251.81	1763.30
252.02	1740.77
252.24	1646.57
252.46	1826.79
252.68	1660.90
252.89	1675.24
253.11	1605.61
253.33	1826.79
253.54	1820.64
253.76	1634.28
253.98	1693.67
254.20	1658.85
254.41	1669.09
254.63	1667.05
254.85	1642.47
255.06	1730.53
255.28	1812.45
255.50	1656.81
255.71	1628.14
255.93	1685.48
256.15	1695.72
256.36	1800.16
256.58	1705.96
256.80	1732.58
257.02	1708.01
257.23	1615.85
257.45	1720.29
257.67	1773.54
257.88	1763.30
258.10	1730.53
258.32	1687.53
258.53	1714.15
258.75	1816.55
258.97	1650.66
259.18	1665.00
259.40	1697.77
259.62	1751.01
259.83	1773.54
260.05	1730.53
260.27	1937.38
260.48	1753.06
260.70	1615.85
260.92	1665.00
261.13	1724.39
261.35	1656.81
261.57	1636.33
261.78	1609.70
262.00	1716.20
262.22	1644.52
262.43	1669.09
262.65	1656.81
262.86	1660.90
263.08	1820.64
263.30	1685.48
263.51	1642.47
263.73	1703.91
263.95	1777.64
264.16	1636.33
264.38	1673.19
264.60	1675.24
264.81	1599.46
265.03	1812.45
265.25	1779.68
265.46	1748.97
265.68	1810.40
265.89	1736.68
266.11	1695.72
266.33	1691.62
266.54	1761.25
266.76	1796.07
266.98	1720.29
267.19	1783.78
267.41	1746.92
267.62	1714.15
267.84	1615.85
268.06	1720.29
268.27	1759.21
268.49	1771.49
268.70	1755.11
268.92	1691.62
269.14	1695.72
269.35	1599.46
269.57	1699.81
269.79	1837.03
270.00	1677.29
270.22	1808.36
270.43	1572.84
270.65	1568.74
270.87	1734.63
271.08	1708.01
271.30	1802.21
271.51	1703.91
271.73	1761.25
271.95	1769.44
272.16	1652.71
272.38	1734.63
272.59	1658.85
272.81	1765.35
273.02	1742.82
273.24	1763.30
273.46	1785.83
273.67	1621.99
273.89	1746.92
274.10	1673.19
274.32	1714.15
274.54	1757.16
274.75	1701.86
274.97	1638.38
275.18	1783.78
275.40	1734.63
275.61	1714.15
275.83	1669.09
276.05	1589.22
276.26	1673.19
276.48	1705.96
276.69	1646.57
276.91	1599.46
277.12	1693.67
277.34	1773.54
277.55	1718.25
277.77	1763.30
277.99	1785.83
278.20	1583.08
278.42	1634.28
278.63	1607.66
278.85	1695.72
279.06	1671.14
279.28	1748.97
279.49	1753.06
279.71	1701.86
279.93	1673.19
280.14	1697.77
280.36	1638.38
280.57	1751.01
280.79	1728.49
281.00	1619.94
281.22	1660.90
281.43	1718.25
281.65	1624.04
281.86	1677.29
282.08	1724.39
282.29	1828.84
282.51	1652.71
282.73	1673.19
282.94	1652.71
283.16	1746.92
283.37	1785.83
283.59	1740.77
283.80	1675.24
284.02	1718.25
284.23	1716.20
284.45	1724.39
284.66	1611.75
284.88	1624.04
285.09	1720.29
285.31	1769.44
285.52	1705.96
285.74	1775.59
285.95	1724.39
286.17	1722.34
286.38	1820.64
286.60	1714.15
286.81	1726.44
287.03	1681.38
287.24	1673.19
287.46	1722.34
287.67	1738.73
287.89	1812.45
288.10	1742.82
288.32	1689.57
288.53	1693.67
288.75	1677.29
288.96	1751.01
289.18	1660.90
289.39	1687.53
289.61	1708.01
289.82	1843.17
290.04	1783.78
290.25	1644.52
290.47	1779.68
290.68	1660.90
290.90	1849.32
291.11	1640.42
291.33	1816.55
291.54	1611.75
291.76	1732.58
291.97	1710.05
292.18	1687.53
292.40	1722.34
292.61	1705.96
292.83	1804.26
293.04	1777.64
293.26	1695.72
293.47	1691.62
293.69	1654.76
293.90	1736.68
294.12	1718.25
294.33	1771.49
294.55	1703.91
294.76	1810.40
294.97	1753.06
295.19	1828.84
295.40	1738.73
295.62	1722.34
295.83	1832.93
296.05	1611.75
296.26	1785.83
296.48	1665.00
296.69	1685.48
296.90	1697.77
297.12	1837.03
297.33	1740.77
297.55	1783.78
297.76	1746.92
297.98	1691.62
298.19	1660.90
298.41	1714.15
298.62	1658.85
298.83	1759.21
299.05	1765.35
299.26	1638.38
299.48	1660.90
299.69	1787.88
299.90	1691.62
300.12	1578.98
300.33	1718.25
300.55	1728.49
300.76	1708.01
300.98	1677.29
301.19	1787.88
301.40	1701.86
301.62	1705.96
301.83	1740.77
302.05	1720.29
302.26	1642.47
302.47	1726.44
302.69	1687.53
302.90	1675.24
303.12	1628.14
303.33	1808.36
303.54	1781.73
303.76	1638.38
303.97	1697.77
304.19	1777.64
304.40	1683.43
304.61	1785.83
304.83	1751.01
305.04	1701.86
305.26	1734.63
305.47	1669.09
305.68	1626.09
305.90	1681.38
306.11	1787.88
306.33	1695.72
306.54	1722.34
306.75	1658.85
306.97	1591.27
307.18	1634.28
307.39	1699.81
307.61	1785.83
307.82	1734.63
308.04	1722.34
308.25	1564.65
308.46	1730.53
308.68	1632.23
308.89	1771.49
309.10	1798.12
309.32	1701.86
309.53	1818.60
309.74	1736.68
309.96	1826.79
310.17	1834.98
310.39	1689.57
310.60	1718.25
310.81	1699.81
311.03	1658.85
311.24	1738.73
311.45	1710.05
311.67	1814.50
311.88	1755.11
312.09	1755.11
312.31	1703.91
312.52	1642.47
312.73	1679.33
312.95	1660.90
313.16	1699.81
313.37	1738.73
313.59	1728.49
313.80	1708.01
314.01	1783.78
314.23	1697.77
314.44	1665.00
314.65	1589.22
314.87	1677.29
315.08	1740.77
315.29	1599.46
315.51	1665.00
315.72	1628.14
315.93	1798.12
316.15	1812.45
316.36	1722.34
316.57	1728.49
316.79	1740.77
317.00	1660.90
317.21	1753.06
317.43	1644.52
317.64	1722.34
317.85	1712.10
318.07	1636.33
318.28	1761.25
318.49	1814.50
318.70	2072.54
318.92	1837.03
319.13	1953.76
319.34	1873.89
319.56	1875.94
319.77	1841.12
319.98	1861.60
320.20	1753.06
320.41	1798.12
320.62	1779.68
320.83	1705.96
321.05	1832.93
321.26	1728.49
321.47	1763.30
321.69	1834.98
321.90	1648.61
322.11	1724.39
322.32	1689.57
322.54	1771.49
322.75	1636.33
322.96	1875.94
323.18	1681.38
323.39	1681.38
323.60	1710.05
323.81	1759.21
324.03	1681.38
324.24	1759.21
324.45	1730.53
324.66	1746.92
324.88	1689.57
325.09	1849.32
325.30	1683.43
325.52	1773.54
325.73	1751.01
325.94	1654.76
326.15	1718.25
326.37	1599.46
326.58	1804.26
326.79	1804.26
327.00	1642.47
327.22	1705.96
327.43	1699.81
327.64	1640.42
327.85	1740.77
328.07	1687.53
328.28	1886.18
328.49	1644.52
328.70	1648.61
328.92	1759.21
329.13	1677.29
329.34	1722.34
329.55	1843.17
329.76	1771.49
329.98	1748.97
330.19	1748.97
330.40	1744.87
330.61	1697.77
330.83	1746.92
331.04	1658.85
331.25	1703.91
331.46	1732.58
331.68	1703.91
331.89	1837.03
332.10	1726.44
332.31	1587.18
332.52	1748.97
332.74	1843.17
332.95	1685.48
333.16	1613.80
333.37	1791.97
333.58	1708.01
333.80	1751.01
334.01	1652.71
334.22	1640.42
334.43	1652.71
334.64	1726.44
334.86	1675.24
335.07	1701.86
335.28	1757.16
335.49	1671.14
335.70	1665.00
335.92	1751.01
336.13	1783.78
336.34	1783.78
336.55	1691.62
336.76	1699.81
336.98	1585.13
337.19	1667.05
337.40	1789.92
337.61	1937.38
337.82	1703.91
338.04	1683.43
338.25	1615.85
338.46	1642.47
338.67	1656.81
338.88	1699.81
339.09	1591.27
339.31	1685.48
339.52	1576.94
339.73	1611.75
339.94	1695.72
340.15	1699.81
340.36	1650.66
340.58	1658.85
340.79	1712.10
341.00	1746.92
341.21	1691.62
341.42	1863.65
341.63	1619.94
341.85	1785.83
342.06	1779.68
342.27	1667.05
342.48	1738.73
342.69	1695.72
342.90	1732.58
343.12	1753.06
343.33	1708.01
343.54	1855.46
343.75	1665.00
343.96	1726.44
344.17	1693.67
344.38	1765.35
344.60	1671.14
344.81	1617.90
345.02	1718.25
345.23	1763.30
345.44	1894.37
345.65	1800.16
345.86	1685.48
346.07	1740.77
346.29	1746.92
346.50	1755.11
346.71	1705.96
346.92	1791.97
347.13	1816.55
347.34	1720.29
347.55	1669.09
347.76	1683.43
347.98	1656.81
348.19	1724.39
348.40	1685.48
348.61	1675.24
348.82	1775.59
349.03	1771.49
349.24	1705.96
349.45	1789.92
349.66	1634.28
349.88	1718.25
350.09	1683.43
350.30	1767.40
350.51	1746.92
350.72	1755.11
350.93	1714.15
351.14	1693.67
351.35	1746.92
351.56	1603.56
351.77	1718.25
351.99	1738.73
352.20	1812.45
352.41	1820.64
352.62	1662.95
352.83	1681.38
353.04	1695.72
353.25	1693.67
353.46	1722.34
353.67	1710.05
353.88	1587.18
354.09	1755.11
354.30	1685.48
354.52	1693.67
354.73	1648.61
354.94	1769.44
355.15	1716.20
355.36	1740.77
355.57	1626.09
355.78	1665.00
355.99	1699.81
356.20	1701.86
356.41	1796.07
356.62	1726.44
356.83	1718.25
357.04	1824.74
357.25	1630.18
357.46	1726.44
357.68	1648.61
357.89	1669.09
358.10	1695.72
358.31	1738.73
358.52	1652.71
358.73	1621.99
358.94	1632.23
359.15	1699.81
359.36	1755.11
359.57	1681.38
359.78	1732.58
359.99	1712.10
360.20	1722.34
360.41	1708.01
360.62	1783.78
360.83	1718.25
361.04	1755.11
361.25	1761.25
361.46	1775.59
361.67	1791.97
361.88	1763.30
362.09	1847.27
362.30	1689.57
362.51	1660.90
362.72	1695.72
362.93	1720.29
363.14	1722.34
363.35	1667.05
363.56	1714.15
363.78	1732.58
363.99	1796.07
364.20	1673.19
364.41	1718.25
364.62	1773.54
364.83	1593.32
365.04	1701.86
365.25	1683.43
365.46	1820.64
365.67	1626.09
365.88	1683.43
366.09	1744.87
366.30	1673.19
366.51	1677.29
366.72	1650.66
366.93	1714.15
367.14	1669.09
367.35	1806.31
367.56	1701.86
367.77	1775.59
367.98	1693.67
368.18	1767.40
368.39	1673.19
368.60	1652.71
368.81	1740.77
369.02	1738.73
369.23	1601.51
369.44	1667.05
369.65	1673.19
369.86	1714.15
370.07	1718.25
370.28	1638.38
370.49	1746.92
370.70	1759.21
370.91	1638.38
371.12	1730.53
371.33	1832.93
371.54	1689.57
371.75	1808.36
371.96	1593.32
372.17	1710.05
372.38	1648.61
372.59	1773.54
372.80	1642.47
373.01	1570.79
373.22	1779.68
373.43	1705.96
373.64	1665.00
373.85	1761.25
374.06	1779.68
374.26	1689.57
374.47	1775.59
374.68	1808.36
374.89	1646.57
375.10	1759.21
375.31	1753.06
375.52	1779.68
375.73	1703.91
375.94	1691.62
376.15	1769.44
376.36	1689.57
376.57	1669.09
376.78	1699.81
376.99	1732.58
377.20	1841.12
377.40	1705.96
377.61	1718.25
377.82	1687.53
378.03	1759.21
378.24	1791.97
378.45	1736.68
378.66	1732.58
378.87	1607.66
379.08	1624.04
379.29	1624.04
379.50	1767.40
379.71	1607.66
379.91	1796.07
380.12	1718.25
380.33	1771.49
380.54	1738.73
380.75	1746.92
380.96	1650.66
381.17	1822.69
381.38	1708.01
381.59	1767.40
381.80	1787.88
382.00	1843.17
382.21	1834.98
382.42	1923.04
382.63	1902.56
382.84	1800.16
383.05	1800.16
383.26	1798.12
383.47	1771.49
383.68	1791.97
383.88	1759.21
384.09	1732.58
384.30	1832.93
384.51	1720.29
384.72	1720.29
384.93	1605.61
385.14	1730.53
385.35	1757.16
385.55	1636.33
385.76	1814.50
385.97	1693.67
386.18	1603.56
386.39	1753.06
386.60	1714.15
386.81	1812.45
387.02	1734.63
387.22	1683.43
387.43	1806.31
387.64	1826.79
387.85	1877.99
388.06	2197.47
388.27	4687.80
388.48	9156.47
388.68	11642.70
388.89	13436.72
389.10	13961.00
389.31	11902.79
389.52	9721.71
389.73	8488.83
389.93	7952.26
390.14	7284.62
390.35	6496.16
390.56	6023.08
390.77	5070.77
390.98	3956.68
391.18	3008.47
391.39	2404.32
391.60	1953.76
391.81	1859.56
392.02	1705.96
392.23	1841.12
392.43	1740.77
392.64	1812.45
392.85	1689.57
393.06	1843.17
393.27	1712.10
393.47	1675.24
393.68	1720.29
393.89	1701.86
394.10	1796.07
394.31	1687.53
394.52	1673.19
394.72	1720.29
394.93	1787.88
395.14	1683.43
395.35	1796.07
395.56	1675.24
395.76	1763.30
395.97	1890.28
396.18	1888.23
396.39	1812.45
396.60	2097.12
396.80	1966.05
397.01	1837.03
397.22	1892.32
397.43	1888.23
397.64	1783.78
397.84	1806.31
398.05	1894.37
398.26	1746.92
398.47	1796.07
398.67	1853.41
398.88	1734.63
399.09	1798.12
399.30	1730.53
399.51	1767.40
399.71	1693.67
399.92	1734.63
400.13	1769.44
400.34	1683.43
400.54	1632.23
400.75	1861.60
400.96	1679.33
401.17	1884.13
401.37	1751.01
401.58	1722.34
401.79	1714.15
402.00	1943.52
402.21	2107.36
402.41	2111.46
402.62	2138.08
402.83	2197.47
403.04	2078.69
403.24	2095.07
403.45	1933.28
403.66	1978.34
403.87	1990.63
404.07	1959.91
404.28	1992.67
404.49	1968.10
404.70	1832.93
404.90	1873.89
405.11	1796.07
405.32	1828.84
405.52	1611.75
405.73	1687.53
405.94	1699.81
406.15	1732.58
406.35	1712.10
406.56	1732.58
406.77	1716.20
406.98	1724.39
407.18	1665.00
407.39	1693.67
407.60	1593.32
407.80	1652.71
408.01	1703.91
408.22	1742.82
408.43	1730.53
408.63	1746.92
408.84	1693.67
409.05	1783.78
409.25	1632.23
409.46	1652.71
409.67	1687.53
409.88	1677.29
410.08	1683.43
410.29	1662.95
410.50	1736.68
410.70	1689.57
410.91	1662.95
411.12	1708.01
411.32	1681.38
411.53	1685.48
411.74	1841.12
411.95	1873.89
412.15	1877.99
412.36	1800.16
412.57	1855.46
412.77	1783.78
412.98	1734.63
413.19	1732.58
413.39	1767.40
413.60	1751.01
413.81	1771.49
414.01	1671.14
414.22	1837.03
414.43	1794.02
414.63	1718.25
414.84	1810.40
415.05	1685.48
415.25	1693.67
415.46	1771.49
415.67	1718.25
415.87	1703.91
416.08	1761.25
416.29	1687.53
416.49	1732.58
416.70	1695.72
416.91	1644.52
417.11	1701.86
417.32	1765.35
417.53	1730.53
417.73	1671.14
417.94	1732.58
418.15	1697.77
418.35	1748.97
418.56	1701.86
418.77	1826.79
418.97	1726.44
419.18	1732.58
419.38	1642.47
419.59	1640.42
419.80	1832.93
420.00	1828.84
420.21	1722.34
420.42	1781.73
420.62	1734.63
420.83	1654.76
421.04	1714.15
421.24	1763.30
421.45	1761.25
421.65	1687.53
421.86	1763.30
422.07	1714.15
422.27	1763.30
422.48	1757.16
422.69	1681.38
422.89	1669.09
423.10	1675.24
423.30	1648.61
423.51	1724.39
423.72	1708.01
423.92	1691.62
424.13	1667.05
424.33	1710.05
424.54	1783.78
424.75	1681.38
424.95	1865.70
425.16	1777.64
425.36	1738.73
425.57	1757.16
425.78	1712.10
425.98	1751.01
426.19	1652.71
426.39	1646.57
426.60	1779.68
426.81	1753.06
427.01	1722.34
427.22	1662.95
427.42	1687.53
427.63	1699.81
427.83	1798.12
428.04	1791.97
428.25	1775.59
428.45	1769.44
428.66	1773.54
428.86	1662.95
429.07	1781.73
429.28	1742.82
429.48	1710.05
429.69	1607.66
429.89	1751.01
430.10	1673.19
430.30	1791.97
430.51	1783.78
430.71	1742.82
430.92	1650.66
431.13	1699.81
431.33	1810.40
431.54	1759.21
431.74	1767.40
431.95	1755.11
432.15	1648.61
432.36	1734.63
432.56	1791.97
432.77	1800.16
432.98	1783.78
433.18	1746.92
433.39	1724.39
433.59	1701.86
433.80	1869.80
434.00	1851.36
434.21	1671.14
434.41	1693.67
434.62	1877.99
434.82	1603.56
435.03	1603.56
435.23	1718.25
435.44	1595.37
435.64	1697.77
435.85	1732.58
436.06	1712.10
436.26	1789.92
436.47	1806.31
436.67	1636.33
436.88	1771.49
437.08	1804.26
437.29	1757.16
437.49	1744.87
437.70	1800.16
437.90	1751.01
438.11	1873.89
438.31	1826.79
438.52	1916.90
438.72	1904.61
438.93	1951.71
439.13	1773.54
439.34	1791.97
439.54	1767.40
439.75	1738.73
439.95	1798.12
440.16	1734.63
440.36	1748.97
440.57	1718.25
440.77	1781.73
440.98	1798.12
441.18	1748.97
441.39	1685.48
441.59	1599.46
441.80	1820.64
442.00	1746.92
442.21	1777.64
442.41	1642.47
442.62	1736.68
442.82	1691.62
443.02	1773.54
443.23	1742.82
443.43	1691.62
443.64	1818.60
443.84	1697.77
444.05	1779.68
444.25	1748.97
444.46	1701.86
444.66	1761.25
444.87	1873.89
445.07	1693.67
445.28	1710.05
445.48	1859.56
445.69	1771.49
445.89	1849.32
446.09	1751.01
446.30	1976.29
446.50	2619.35
446.71	4239.30
446.91	5154.74
447.12	5799.85
447.32	6057.89
447.53	5363.63
447.73	4458.43
447.93	3971.01
448.14	3706.82
448.34	3387.34
448.55	3094.48
448.75	3096.53
448.96	2936.79
449.16	2705.37
449.36	2459.61
449.57	2121.70
449.77	2002.91
449.98	1818.60
450.18	1820.64
450.39	1863.65
450.59	1759.21
450.79	1734.63
451.00	1783.78
451.20	1783.78
451.41	1742.82
451.61	1687.53
451.81	1701.86
452.02	1689.57
452.22	1718.25
452.43	1638.38
452.63	1779.68
452.84	1693.67
453.04	1742.82
453.24	1773.54
453.45	1640.42
453.65	1777.64
453.86	1751.01
454.06	1740.77
454.26	1773.54
454.47	1656.81
454.67	1820.64
454.87	1775.59
455.08	1679.33
455.28	1851.36
455.49	1705.96
455.69	1679.33
455.89	1896.42
456.10	1847.27
456.30	1734.63
456.51	1734.63
456.71	1748.97
456.91	1791.97
457.12	1736.68
457.32	1755.11
457.52	1724.39
457.73	1806.31
457.93	1828.84
458.14	1714.15
458.34	1689.57
458.54	1685.48
458.75	1771.49
458.95	1765.35
459.15	1779.68
459.36	1800.16
459.56	1781.73
459.76	1869.80
459.97	1798.12
460.17	1742.82
460.37	1771.49
460.58	1726.44
460.78	1787.88
460.99	1697.77
461.19	1679.33
461.39	1699.81
461.60	1705.96
461.80	1718.25
462.00	1662.95
462.21	1687.53
462.41	1705.96
462.61	1679.33
462.82	1572.84
463.02	1767.40
463.22	1650.66
463.43	1839.08
463.63	1665.00
463.83	1857.51
464.04	1724.39
464.24	1744.87
464.44	1685.48
464.64	1689.57
464.85	1822.69
465.05	1796.07
465.25	1722.34
465.46	1619.94
465.66	1714.15
465.86	1777.64
466.07	1789.92
466.27	1753.06
466.47	1609.70
466.68	1703.91
466.88	1828.84
467.08	1775.59
467.29	1871.84
467.49	1779.68
467.69	1718.25
467.89	1742.82
468.10	1656.81
468.30	1789.92
468.50	1718.25
468.71	1755.11
468.91	1699.81
469.11	1802.21
469.31	1685.48
469.52	1685.48
469.72	1839.08
469.92	1986.53
470.13	1796.07
470.33	1781.73
470.53	1884.13
470.73	2070.50
470.94	2500.57
471.14	2645.98
471.34	2955.22
471.54	2879.44
471.75	2521.05
471.95	2365.40
472.15	2244.57
472.36	2285.53
472.56	2191.33
472.76	2176.99
472.96	2123.74
473.17	2017.25
473.37	1984.48
473.57	1875.94
473.77	1818.60
473.98	1798.12
474.18	1744.87
474.38	1908.71
474.58	1787.88
474.79	1710.05
474.99	1738.73
475.19	1787.88
475.39	1679.33
475.60	1705.96
475.80	1781.73
476.00	1775.59
476.20	1683.43
476.41	1818.60
476.61	1796.07
476.81	1753.06
477.01	1705.96
477.21	1861.60
477.42	1796.07
477.62	1624.04
477.82	1771.49
478.02	1650.66
478.23	1714.15
478.43	1636.33
478.63	1681.38
478.83	1757.16
479.03	1720.29
479.24	1742.82
479.44	1798.12
479.64	1683.43
479.84	1632.23
480.04	1667.05
480.25	1751.01
480.45	1714.15
480.65	1751.01
480.85	1824.74
481.06	1714.15
481.26	1804.26
481.46	1761.25
481.66	1800.16
481.86	1660.90
482.06	1814.50
482.27	1763.30
482.47	1613.80
482.67	1798.12
482.87	1736.68
483.07	1814.50
483.28	1660.90
483.48	1728.49
483.68	1712.10
483.88	1617.90
484.08	1699.81
484.29	1628.14
484.49	1785.83
484.69	1628.14
484.89	1853.41
485.09	1822.69
485.29	1759.21
485.50	1724.39
485.70	1757.16
485.90	1785.83
486.10	1744.87
486.30	1796.07
486.50	1771.49
486.71	1699.81
486.91	1845.22
487.11	1738.73
487.31	1589.22
487.51	1775.59
487.71	1732.58
487.91	1705.96
488.12	1648.61
488.32	1611.75
488.52	1708.01
488.72	1605.61
488.92	1775.59
489.12	1828.84
489.32	1863.65
489.53	1701.86
489.73	1613.80
489.93	1755.11
490.13	1685.48
490.33	1675.24
490.53	1775.59
490.73	1802.21
490.94	1609.70
491.14	1701.86
491.34	1865.70
491.54	1988.58
491.74	2715.61
491.94	3200.98
492.14	3389.39
492.34	3485.64
492.54	3082.19
492.75	2672.60
492.95	2672.60
493.15	2490.33
493.35	2389.98
493.55	2275.29
493.75	2287.58
493.95	2142.18
494.15	2105.31
494.35	1959.91
494.56	1931.23
494.76	1732.58
494.96	1775.59
495.16	1796.07
495.36	1636.33
495.56	1802.21
495.76	1708.01
495.96	1746.92
496.16	1708.01
496.36	1863.65
496.56	1724.39
496.77	1720.29
496.97	1714.15
497.17	1804.26
497.37	1673.19
497.57	1732.58
497.77	1732.58
497.97	1665.00
498.17	1791.97
498.37	1693.67
498.57	1761.25
498.77	1675.24
498.97	1736.68
499.17	1882.08
499.38	1753.06
499.58	1783.78
499.78	1767.40
499.98	1767.40
500.18	1746.92
500.38	1783.78
500.58	1875.94
500.78	2500.57
500.98	4609.98
501.18	6674.33
501.38	8009.61
501.58	9039.73
501.78	8882.04
501.98	6942.61
502.18	5863.33
502.38	5003.19
502.58	4564.92
502.78	4059.07
502.98	4061.12
503.18	3901.38
503.38	3624.90
503.59	3147.73
503.79	2934.74
503.99	2572.25
504.19	2398.17
504.39	2400.22
504.59	2389.98
504.79	2344.92
504.99	2373.60
505.19	2066.40
505.39	2037.73
505.59	2023.39
505.79	1951.71
505.99	1914.85
506.19	1849.32
506.39	1912.80
506.59	1839.08
506.79	1814.50
506.99	1830.88
507.19	1757.16
507.39	1781.73
507.59	1742.82
507.79	1695.72
507.99	1746.92
508.19	1726.44
508.39	1740.77
508.59	1730.53
508.79	1828.84
508.99	1759.21
509.19	1796.07
509.39	1789.92
509.59	1771.49
509.79	1617.90
509.99	1689.57
510.19	1845.22
510.39	1767.40
510.59	1732.58
510.79	1710.05
510.99	1662.95
511.19	1708.01
511.39	1810.40
511.59	1734.63
511.79	1857.51
511.99	1746.92
512.19	1865.70
512.38	1730.53
512.58	1722.34
512.78	1734.63
512.98	1824.74
513.18	1718.25
513.38	1691.62
513.58	1759.21
513.78	1751.01
513.98	1736.68
514.18	1712.10
514.38	1726.44
514.58	1806.31
514.78	1693.67
514.98	1701.86
515.18	1781.73
515.38	1632.23
515.58	1816.55
515.78	1703.91
515.98	1710.05
516.18	1726.44
516.38	1738.73
516.57	1753.06
516.77	1683.43
516.97	1789.92
517.17	1708.01
517.37	1626.09
517.57	1796.07
517.77	1708.01
517.97	1652.71
518.17	1746.92
518.37	1685.48
518.57	1609.70
518.77	1710.05
518.97	1771.49
519.16	1748.97
519.36	1705.96
519.56	1667.05
519.76	1841.12
519.96	1720.29
520.16	1834.98
520.36	1689.57
520.56	1882.08
520.76	1806.31
520.96	1658.85
521.16	1818.60
521.35	1771.49
521.55	1832.93
521.75	1695.72
521.95	1693.67
522.15	1742.82
522.35	1701.86
522.55	1662.95
522.75	1785.83
522.95	1777.64
523.14	1691.62
523.34	1681.38
523.54	1708.01
523.74	1777.64
523.94	1798.12
524.14	1615.85
524.34	1697.77
524.54	1841.12
524.73	1636.33
524.93	1804.26
525.13	1722.34
525.33	1628.14
525.53	1900.52
525.73	1849.32
525.93	1773.54
526.13	1769.44
526.32	1716.20
526.52	1773.54
526.72	1767.40
526.92	1728.49
527.12	1705.96
527.32	1613.80
527.52	1722.34
527.71	1724.39
527.91	1777.64
528.11	1755.11
528.31	1718.25
528.51	1626.09
528.71	1800.16
528.90	1802.21
529.10	1759.21
529.30	1839.08
529.50	1630.18
529.70	1748.97
529.90	1689.57
530.09	1798.12
530.29	1705.96
530.49	1669.09
530.69	1849.32
530.89	1705.96
531.09	1802.21
531.28	1675.24
531.48	1734.63
531.68	1753.06
531.88	1710.05
532.08	1785.83
532.28	1740.77
532.47	1794.02
532.67	1783.78
532.87	1775.59
533.07	1699.81
533.27	1787.88
533.46	1773.54
533.66	1794.02
533.86	1767.40
534.06	1785.83
534.26	1755.11
534.45	1720.29
534.65	1886.18
534.85	1734.63
535.05	1804.26
535.25	1820.64
535.44	1697.77
535.64	1740.77
535.84	1732.58
536.04	1650.66
536.24	1720.29
536.43	1710.05
536.63	1759.21
536.83	1761.25
537.03	1730.53
537.22	1642.47
537.42	1669.09
537.62	1705.96
537.82	1660.90
538.02	1806.31
538.21	1730.53
538.41	1931.23
538.61	1720.29
538.81	1720.29
539.00	1865.70
539.20	1685.48
539.40	1712.10
539.60	1820.64
539.79	1775.59
539.99	1679.33
540.19	1691.62
540.39	1673.19
540.58	1755.11
540.78	1744.87
540.98	1712.10
541.18	1763.30
541.37	1812.45
541.57	1703.91
541.77	1763.30
541.97	1693.67
542.16	1695.72
542.36	1697.77
542.56	1808.36
542.76	1892.32
542.95	1789.92
543.15	1818.60
543.35	1777.64
543.54	1648.61
543.74	1730.53
543.94	1783.78
544.14	1691.62
544.33	1789.92
544.53	1703.91
544.73	1769.44
544.93	1656.81
545.12	1753.06
545.32	1736.68
545.52	1701.86
545.71	1654.76
545.91	1730.53
546.11	1693.67
546.30	1718.25
546.50	1720.29
546.70	1843.17
546.90	1753.06
547.09	1603.56
547.29	1726.44
547.49	1806.31
547.68	1701.86
547.88	1728.49
548.08	1775.59
548.27	2158.56
548.47	1695.72
548.67	1732.58
548.87	1689.57
549.06	1662.95
549.26	1746.92
549.46	1812.45
549.65	1703.91
549.85	1714.15
550.05	1806.31
550.24	1644.52
550.44	1769.44
550.64	1746.92
550.83	1755.11
551.03	1775.59
551.23	1804.26
551.42	1787.88
551.62	1697.77
551.82	1712.10
552.01	1775.59
552.21	1695.72
552.41	1775.59
552.60	1794.02
552.80	1718.25
553.00	1791.97
553.19	1796.07
553.39	1757.16
553.59	1640.42
553.78	1779.68
553.98	1845.22
554.17	1654.76
554.37	1818.60
554.57	1742.82
554.76	1708.01
554.96	1656.81
555.16	1808.36
555.35	1726.44
555.55	1738.73
555.75	1730.53
555.94	1812.45
556.14	1695.72
556.33	1804.26
556.53	1751.01
556.73	1814.50
556.92	1699.81
557.12	1822.69
557.32	1861.60
557.51	1804.26
557.71	1814.50
557.90	1861.60
558.10	1808.36
558.30	1708.01
558.49	1703.91
558.69	1736.68
558.88	1746.92
559.08	1775.59
559.28	1761.25
559.47	1695.72
559.67	1832.93
559.86	1824.74
560.06	1734.63
560.26	1701.86
560.45	1769.44
560.65	1748.97
560.84	1802.21
561.04	1736.68
561.24	1757.16
561.43	1701.86
561.63	1832.93
561.82	1769.44
562.02	1767.40
562.22	1662.95
562.41	1660.90
562.61	1734.63
562.80	1693.67
563.00	1873.89
563.19	1824.74
563.39	1791.97
563.59	1753.06
563.78	1667.05
563.98	1613.80
564.17	1724.39
564.37	1636.33
564.56	1757.16
564.76	1734.63
564.96	1808.36
565.15	1685.48
565.35	1861.60
565.54	1759.21
565.74	1746.92
565.93	1755.11
566.13	1794.02
566.32	1822.69
566.52	1769.44
566.71	1732.58
566.91	1771.49
567.11	1757.16
567.30	1740.77
567.50	1759.21
567.69	1789.92
567.89	1740.77
568.08	1718.25
568.28	1763.30
568.47	1722.34
568.67	1828.84
568.86	1681.38
569.06	1746.92
569.25	1656.81
569.45	1601.51
569.64	1742.82
569.84	1708.01
570.04	1808.36
570.23	1699.81
570.43	1722.34
570.62	1814.50
570.82	1800.16
571.01	1621.99
571.21	1712.10
571.40	1724.39
571.60	1787.88
571.79	1765.35
571.99	1818.60
572.18	1681.38
572.38	1755.11
572.57	1720.29
572.77	1812.45
572.96	1869.80
573.16	1828.84
573.35	1800.16
573.55	1847.27
573.74	1787.88
573.94	1761.25
574.13	1751.01
574.33	1828.84
574.52	1806.31
574.71	1722.34
574.91	1796.07
575.10	1679.33
575.30	1740.77
575.49	1804.26
575.69	1667.05
575.88	1816.55
576.08	1765.35
576.27	1855.46
576.47	1853.41
576.66	1966.05
576.86	1900.52
577.05	1824.74
577.25	1837.03
577.44	1894.37
577.64	1681.38
577.83	1837.03
578.02	1847.27
578.22	1818.60
578.41	1802.21
578.61	1724.39
578.80	1705.96
579.00	1767.40
579.19	1738.73
579.39	1787.88
579.58	1783.78
579.77	1779.68
579.97	1849.32
580.16	1847.27
580.36	1794.02
580.55	1808.36
580.75	1808.36
580.94	1746.92
581.13	1877.99
581.33	1886.18
581.52	1814.50
581.72	1882.08
581.91	1880.04
582.11	1796.07
582.30	1875.94
582.49	1828.84
582.69	1882.08
582.88	1814.50
583.08	1880.04
583.27	1818.60
583.47	1791.97
583.66	1757.16
583.85	1689.57
584.05	1804.26
584.24	1849.32
584.44	1781.73
584.63	1865.70
584.82	1906.66
585.02	1886.18
585.21	1998.82
585.41	1845.22
585.60	1855.46
585.79	1955.81
585.99	1986.53
586.18	1968.10
586.37	2224.09
586.57	3336.14
586.76	9946.98
586.96	26809.96
587.15	41880.96
587.34	51999.97
587.54	57595.03
587.73	55647.41
587.93	40297.88
588.12	29496.89
588.31	23850.64
588.51	20344.52
588.70	18556.64
588.89	17096.44
589.09	15435.54
589.28	13582.13
589.47	11714.38
589.67	9469.81
589.86	7434.13
590.06	5369.77
590.25	4192.19
590.44	3178.45
590.64	2631.64
590.83	2273.25
591.02	2181.09
591.22	1961.95
591.41	1923.04
591.60	1861.60
591.80	1957.86
591.99	1783.78
592.18	1785.83
592.38	1802.21
592.57	1779.68
592.76	1818.60
592.96	1828.84
593.15	1777.64
593.34	1820.64
593.54	1802.21
593.73	1789.92
593.92	1791.97
594.12	1765.35
594.31	1863.65
594.50	1808.36
594.70	1804.26
594.89	1923.04
595.08	1757.16
595.28	1763.30
595.47	1884.13
595.66	1791.97
595.86	1724.39
596.05	1773.54
596.24	1732.58
596.43	1857.51
596.63	1789.92
596.82	1775.59
597.01	1830.88
597.21	1812.45
597.40	1767.40
597.59	1798.12
597.79	1728.49
597.98	1828.84
598.17	1785.83
598.36	1728.49
598.56	1818.60
598.75	1816.55
598.94	1759.21
599.14	1742.82
599.33	1794.02
599.52	1816.55
599.71	1765.35
599.91	1861.60
600.10	1818.60
600.29	1740.77
600.48	1847.27
600.68	1775.59
600.87	1755.11
601.06	1691.62
601.26	1744.87
601.45	1718.25
601.64	1697.77
601.83	1855.46
602.03	1775.59
602.22	1724.39
602.41	1775.59
602.60	1886.18
602.80	1810.40
602.99	1877.99
603.18	1714.15
603.37	1763.30
603.57	1753.06
603.76	1847.27
603.95	1806.31
604.14	1798.12
604.34	1654.76
604.53	1767.40
604.72	1662.95
604.91	1808.36
605.10	1753.06
605.30	1730.53
605.49	1906.66
605.68	1718.25
605.87	1742.82
606.07	1665.00
606.26	1785.83
606.45	1822.69
606.64	1861.60
606.84	1820.64
607.03	1806.31
607.22	1773.54
607.41	1748.97
607.60	1736.68
607.80	1773.54
607.99	1734.63
608.18	1748.97
608.37	1751.01
608.56	1681.38
608.76	1794.02
608.95	1800.16
609.14	1830.88
609.33	1837.03
609.52	1787.88
609.72	1824.74
609.91	1841.12
610.10	1837.03
610.29	1837.03
610.48	1755.11
610.68	1779.68
610.87	1699.81
611.06	1798.12
611.25	1765.35
611.44	1861.60
611.63	1716.20
611.83	1824.74
612.02	1681.38
612.21	1871.84
612.40	1652.71
612.59	1634.28
612.79	1736.68
612.98	1771.49
613.17	1841.12
613.36	1763.30
613.55	1787.88
613.74	1863.65
613.93	1851.36
614.13	1947.62
614.32	2047.97
614.51	1957.86
614.70	1843.17
614.89	1728.49
615.08	1843.17
615.28	2154.46
615.47	1755.11
615.66	1906.66
615.85	1832.93
616.04	1896.42
616.23	1791.97
616.42	1877.99
616.62	1816.55
616.81	1806.31
617.00	1728.49
617.19	1832.93
617.38	1734.63
617.57	1771.49
617.76	1787.88
617.95	1773.54
618.15	1798.12
618.34	1828.84
618.53	1681.38
618.72	1828.84
618.91	1755.11
619.10	1880.04
619.29	1777.64
619.48	1789.92
619.68	1660.90
619.87	1730.53
620.06	1712.10
620.25	1677.29
620.44	1687.53
620.63	1746.92
620.82	1769.44
621.01	1810.40
621.20	1767.40
621.39	1771.49
621.59	1798.12
621.78	1773.54
621.97	1755.11
622.16	1796.07
622.35	1767.40
622.54	1742.82
622.73	1775.59
622.92	1607.66
623.11	1843.17
623.30	1748.97
623.49	1824.74
623.68	1646.57
623.88	1765.35
624.07	1628.14
624.26	1683.43
624.45	1828.84
624.64	1730.53
624.83	1783.78
625.02	1671.14
625.21	1710.05
625.40	1720.29
625.59	1708.01
625.78	1718.25
625.97	1751.01
626.16	1818.60
626.35	1920.99
626.54	1779.68
626.74	1857.51
626.93	1830.88
627.12	1767.40
627.31	1812.45
627.50	1757.16
627.69	1765.35
627.88	1681.38
628.07	1761.25
628.26	1677.29
628.45	1703.91
628.64	1718.25
628.83	1751.01
629.02	1683.43
629.21	1753.06
629.40	1808.36
629.59	1779.68
629.78	1728.49
629.97	1716.20
630.16	1730.53
630.35	1722.34
630.54	1718.25
630.73	1748.97
630.92	1796.07
631.11	1679.33
631.30	1714.15
631.49	1759.21
631.68	1697.77
631.87	1787.88
632.06	1640.42
632.25	1890.28
632.44	1816.55
632.63	1814.50
632.82	1744.87
633.01	1759.21
633.20	1808.36
633.39	1761.25
633.58	1689.57
633.77	1806.31
633.96	1802.21
634.15	1810.40
634.34	1820.64
634.53	1769.44
634.72	1662.95
634.91	1665.00
635.10	1763.30
635.29	1738.73
635.48	1705.96
635.67	1626.09
635.86	1632.23
636.05	1773.54
636.24	1767.40
636.43	1708.01
636.62	1714.15
636.81	1695.72
637.00	1734.63
637.19	1722.34
637.38	1726.44
637.57	1683.43
637.76	1773.54
637.95	1920.99
638.14	1789.92
638.33	1775.59
638.52	1865.70
638.71	1689.57
638.89	1748.97
639.08	1843.17
639.27	1826.79
639.46	1808.36
639.65	2193.37
639.84	2248.67
640.03	2373.60
640.22	2346.97
640.41	2430.94
640.60	1982.43
640.79	2054.11
640.98	1927.14
641.17	1914.85
641.36	1914.85
641.55	1951.71
641.74	1710.05
641.92	1753.06
642.11	1783.78
642.30	1714.15
642.49	1800.16
642.68	1683.43
642.87	1730.53
643.06	1781.73
643.25	1730.53
643.44	1607.66
643.63	1673.19
643.82	1691.62
644.00	1677.29
644.19	1757.16
644.38	1628.14
644.57	1703.91
644.76	1677.29
644.95	1644.52
645.14	1705.96
645.33	1710.05
645.52	1714.15
645.71	1665.00
645.89	1689.57
646.08	1769.44
646.27	1777.64
646.46	1804.26
646.65	1683.43
646.84	1791.97
647.03	1658.85
647.22	1759.21
647.40	1822.69
647.59	1677.29
647.78	1662.95
647.97	1755.11
648.16	1638.38
648.35	1789.92
648.54	1812.45
648.73	1683.43
648.91	1812.45
649.10	1773.54
649.29	1728.49
649.48	1732.58
649.67	1748.97
649.86	1759.21
650.05	1767.40
650.23	1828.84
650.42	1837.03
650.61	1957.86
650.80	1927.14
650.99	1990.63
651.18	1859.56
651.36	1841.12
651.55	1761.25
651.74	1810.40
651.93	1787.88
652.12	1763.30
652.31	1705.96
652.49	1783.78
652.68	1728.49
652.87	1705.96
653.06	1783.78
653.25	1791.97
653.44	1716.20
653.62	1824.74
653.81	1689.57
654.00	1781.73
654.19	1822.69
654.38	1798.12
654.56	1736.68
654.75	1683.43
654.94	1748.97
655.13	1669.09
655.32	1765.35
655.51	1748.97
655.69	1669.09
655.88	1775.59
656.07	1630.18
656.26	1761.25
656.45	1650.66
656.63	1689.57
656.82	1777.64
657.01	1732.58
657.20	1742.82
657.38	1808.36
657.57	1685.48
657.76	1601.51
657.95	1800.16
658.14	1656.81
658.32	1705.96
658.51	1681.38
658.70	1771.49
658.89	1724.39
659.08	1714.15
659.26	1804.26
659.45	1669.09
659.64	1665.00
659.83	1726.44
660.01	1966.05
660.20	1826.79
660.39	1769.44
660.58	1581.03
660.76	1837.03
660.95	1734.63
661.14	1800.16
661.33	1689.57
661.51	1716.20
661.70	1777.64
661.89	1789.92
662.08	1693.67
662.26	1681.38
662.45	1667.05
662.64	1820.64
662.83	1830.88
663.01	1617.90
663.20	1771.49
663.39	1740.77
663.58	1751.01
663.76	1732.58
663.95	1751.01
664.14	1712.10
664.32	1734.63
664.51	1685.48
664.70	1636.33
664.89	1773.54
665.07	1632.23
665.26	1773.54
665.45	1632.23
665.64	1746.92
665.82	1732.58
666.01	1681.38
666.20	1607.66
666.38	1759.21
666.57	1849.32
666.76	2164.70
666.95	4624.31
667.13	11585.36
667.32	18415.34
667.51	22367.91
667.69	25157.25
667.88	25185.92
668.07	19758.80
668.25	14382.88
668.44	11640.65
668.63	9772.91
668.81	8570.75
669.00	7866.25
669.19	6946.71
669.38	6166.43
669.56	5353.39
669.75	4501.44
669.94	3864.52
670.12	3086.29
670.31	2621.40
670.50	2400.22
670.68	2140.13
670.87	1943.52
671.06	1824.74
671.24	1867.75
671.43	1875.94
671.62	1839.08
671.80	1816.55
671.99	1746.92
672.18	1789.92
672.36	1830.88
672.55	1839.08
672.74	1812.45
672.92	1746.92
673.11	1779.68
673.29	1640.42
673.48	1755.11
673.67	1746.92
673.85	1787.88
674.04	1671.14
674.23	1714.15
674.41	1888.23
674.60	1732.58
674.79	1662.95
674.97	1667.05
675.16	1738.73
675.34	1753.06
675.53	1683.43
675.72	1732.58
675.90	1775.59
676.09	1753.06
676.28	1845.22
676.46	1593.32
676.65	1689.57
676.83	1665.00
677.02	1705.96
677.21	1773.54
677.39	1843.17
677.58	1691.62
677.77	1705.96
677.95	1718.25
678.14	1691.62
678.32	1585.13
678.51	1710.05
678.70	1800.16
678.88	1773.54
679.07	1708.01
679.25	1769.44
679.44	1730.53
679.63	1624.04
679.81	1685.48
680.00	1789.92
680.18	1783.78
680.37	1771.49
680.55	1722.34
680.74	1681.38
680.93	1634.28
681.11	1716.20
681.30	1775.59
681.48	1748.97
681.67	1763.30
681.85	1695.72
682.04	1677.29
682.23	1714.15
682.41	1703.91
682.60	1695.72
682.78	1689.57
682.97	1626.09
683.15	1667.05
683.34	1794.02
683.53	1869.80
683.71	1652.71
683.90	1773.54
684.08	1818.60
684.27	1701.86
684.45	1689.57
684.64	1839.08
684.82	1730.53
685.01	1744.87
685.19	1796.07
685.38	1783.78
685.57	1687.53
685.75	1697.77
685.94	1720.29
686.12	1673.19
686.31	1640.42
686.49	1814.50
686.68	1619.94
686.86	1708.01
687.05	1712.10
687.23	1785.83
687.42	1615.85
687.60	1691.62
687.79	1789.92
687.97	1740.77
688.16	1779.68
688.34	1812.45
688.53	1685.48
688.71	1767.40
688.90	1703.91
689.08	1650.66
689.27	1599.46
689.45	1699.81
689.64	1689.57
689.82	1624.04
690.01	1853.41
690.19	1724.39
690.38	1662.95
690.56	1839.08
690.75	1669.09
690.93	1677.29
691.12	1597.42
691.30	1787.88
691.49	1683.43
691.67	1648.61
691.86	1814.50
692.04	1685.48
692.23	1751.01
692.41	1791.97
692.60	1953.76
692.78	1931.23
692.97	1830.88
693.15	1748.97
693.34	1834.98
693.52	1769.44
693.71	1714.15
693.89	1703.91
694.08	1636.33
694.26	1757.16
694.44	1783.78
694.63	1751.01
694.81	1738.73
695.00	1697.77
695.18	1798.12
695.37	1843.17
695.55	1775.59
695.74	1740.77
695.92	1669.09
696.10	1806.31
696.29	1665.00
696.47	1648.61
696.66	1644.52
696.84	1691.62
697.03	1699.81
697.21	1886.18
697.40	2346.97
697.58	1726.44
697.76	1728.49
697.95	1632.23
698.13	1730.53
698.32	1691.62
698.50	1763.30
698.68	1734.63
698.87	1716.20
699.05	1857.51
699.24	1683.43
699.42	1654.76
699.61	1679.33
699.79	1738.73
699.97	1744.87
700.16	1658.85
700.34	1656.81
700.53	1738.73
700.71	1861.60
700.89	1757.16
701.08	1689.57
701.26	1767.40
701.45	2107.36
701.63	1705.96
701.81	1652.71
702.00	1689.57
702.18	1761.25
702.37	1736.68
702.55	1855.46
702.73	1877.99
702.92	1904.61
703.10	1996.77
703.28	1957.86
703.47	1804.26
703.65	1951.71
703.84	1904.61
704.02	1804.26
704.20	1828.84
704.39	1730.53
704.57	1832.93
704.75	1783.78
704.94	1806.31
705.12	1732.58
705.30	1892.32
705.49	2486.23
705.67	5406.64
705.86	13256.50
706.04	19537.62
706.22	22818.47
706.41	24950.40
706.59	25060.99
706.77	19068.64
706.96	13616.94
707.14	11943.75
707.32	10207.08
707.51	8963.96
707.69	7905.16
707.87	6834.07
708.06	5404.59
708.24	4306.88
708.42	3362.76
708.61	2723.80
708.79	2258.91
708.97	2045.92
709.16	1902.56
709.34	1869.80
709.52	1800.16
709.71	1732.58
709.89	1806.31
710.07	1705.96
710.26	1677.29
710.44	1791.97
710.62	1892.32
710.80	1683.43
710.99	1859.56
711.17	1822.69
711.35	1726.44
711.54	1679.33
711.72	1814.50
711.90	1677.29
712.09	1751.01
712.27	1685.48
712.45	1814.50
712.63	1722.34
712.82	1712.10
713.00	1765.35
713.18	1775.59
713.37	1783.78
713.55	1763.30
713.73	1712.10
713.91	1722.34
714.10	1736.68
714.28	1736.68
714.46	1757.16
714.65	1683.43
714.83	1701.86
715.01	1712.10
715.19	1683.43
715.38	1685.48
715.56	1689.57
715.74	1677.29
715.92	1720.29
716.11	1855.46
716.29	1691.62
716.47	1757.16
716.65	1705.96
716.84	1621.99
717.02	1775.59
717.20	1701.86
717.38	1691.62
717.57	1800.16
717.75	1714.15
717.93	1603.56
718.11	1689.57
718.30	1718.25
718.48	1681.38
718.66	1755.11
718.84	1746.92
719.03	1630.18
719.21	1619.94
719.39	1800.16
719.57	1716.20
719.75	1773.54
719.94	1673.19
720.12	1738.73
720.30	1705.96
720.48	1798.12
720.67	1673.19
720.85	1712.10
721.03	1705.96
721.21	1609.70
721.39	1718.25
721.58	1796.07
721.76	1740.77
721.94	1722.34
722.12	1738.73
722.30	1777.64
722.49	1726.44
722.67	1697.77
722.85	1712.10
723.03	1650.66
723.21	1613.80
723.40	1771.49
723.58	1789.92
723.76	1824.74
723.94	1814.50
724.12	1824.74
724.30	1828.84
724.49	1892.32
724.67	1697.77
724.85	1812.45
725.03	1683.43
725.21	1755.11
725.40	1865.70
725.58	1703.91
725.76	1777.64
725.94	1794.02
726.12	1642.47
726.30	1642.47
726.49	1673.19
726.67	1722.34
726.85	1724.39
727.03	1877.99
727.21	2308.06
727.39	3471.31
727.57	4804.53
727.76	5801.90
727.94	6141.86
728.12	6236.06
728.30	5660.59
728.48	4368.32
728.66	3887.04
728.84	3700.68
729.03	3160.02
729.21	2830.29
729.39	2455.51
729.57	2172.89
729.75	2066.40
729.93	1857.51
730.11	1765.35
730.30	1751.01
730.48	1708.01
730.66	1787.88
730.84	1757.16
731.02	1728.49
731.20	1755.11
731.38	1722.34
731.56	1658.85
731.74	1636.33
731.93	1746.92
732.11	1732.58
732.29	1611.75
732.47	1779.68
732.65	1771.49
732.83	1783.78
733.01	1722.34
733.19	1613.80
733.37	1767.40
733.56	1681.38
733.74	1724.39
733.92	1787.88
734.10	1648.61
734.28	1802.21
734.46	1595.37
734.64	1679.33
734.82	1693.67
735.00	1755.11
735.18	1673.19
735.36	1748.97
735.54	1705.96
735.73	1798.12
735.91	1751.01
736.09	1767.40
736.27	1730.53
736.45	1796.07
736.63	1570.79
736.81	1748.97
736.99	1722.34
737.17	1820.64
737.35	1640.42
737.53	1695.72
737.71	1689.57
737.89	1748.97
738.07	1583.08
738.25	1662.95
738.43	1705.96
738.61	1685.48
738.80	1626.09
738.98	1703.91
739.16	1619.94
739.34	1712.10
739.52	1787.88
739.70	1689.57
739.88	1777.64
740.06	1808.36
740.24	1546.22
740.42	1826.79
740.60	1601.51
740.78	1656.81
740.96	1574.89
741.14	1660.90
741.32	1681.38
741.50	1621.99
741.68	1841.12
741.86	1837.03
742.04	1660.90
742.22	1687.53
742.40	1744.87
742.58	1722.34
742.76	1650.66
742.94	1746.92
743.12	1656.81
743.30	1697.77
743.48	1699.81
743.66	1632.23
743.84	1732.58
744.02	1767.40
744.20	1648.61
744.38	1646.57
744.56	1689.57
744.74	1816.55
744.92	1691.62
745.10	1834.98
745.28	1796.07
745.46	1787.88
745.64	1699.81
745.82	1781.73
746.00	1730.53
746.18	1701.86
746.36	1740.77
746.54	1697.77
746.72	1716.20
746.90	1615.85
747.08	1787.88
747.26	1712.10
747.44	1779.68
747.62	1677.29
747.80	1806.31
747.98	1800.16
748.15	1638.38
748.33	1828.84
748.51	1736.68
748.69	1728.49
748.87	1632.23
749.05	1765.35
749.23	1644.52
749.41	1773.54
749.59	1697.77
749.77	1767.40
749.95	1681.38
750.13	1683.43
750.31	1693.67
750.49	1753.06
750.67	1763.30
750.85	1748.97
751.03	1734.63
751.20	1798.12
751.38	1804.26
751.56	1701.86
751.74	1744.87
751.92	1693.67
752.10	1744.87
752.28	1765.35
752.46	1669.09
752.64	1730.53
752.82	1820.64
753.00	1814.50
753.18	1630.18
753.35	1722.34
753.53	1648.61
753.71	1726.44
753.89	1873.89
754.07	1740.77
754.25	1751.01
754.43	1787.88
754.61	1636.33
754.79	1777.64
754.97	1742.82
755.14	1812.45
755.32	1576.94
755.50	1753.06
755.68	1736.68
755.86	1609.70
756.04	1697.77
756.22	1667.05
756.40	1738.73
756.57	1820.64
756.75	1689.57
756.93	1796.07
757.11	1728.49
757.29	1632.23
757.47	1636.33
757.65	1675.24
757.82	1548.26
758.00	1671.14
758.18	1691.62
758.36	1665.00
758.54	1802.21
758.72	1587.18
758.90	1738.73
759.07	1683.43
759.25	1681.38
759.43	1775.59
759.61	1681.38
759.79	2170.85
759.97	1763.30
760.15	1746.92
760.32	1746.92
760.50	1591.27
760.68	1716.20
760.86	1695.72
761.04	1830.88
761.22	1746.92
761.39	1732.58
761.57	1726.44
761.75	1660.90
761.93	1708.01
762.11	1677.29
762.28	1722.34
762.46	1683.43
762.64	1710.05
762.82	1634.28
763.00	1673.19
763.18	1822.69
763.35	1658.85
763.53	1724.39
763.71	1689.57
763.89	1714.15
764.07	1665.00
764.24	1673.19
764.42	1783.78
764.60	1671.14
764.78	1740.77
764.96	1748.97
765.13	1695.72
765.31	1640.42
765.49	1736.68
765.67	1650.66
765.84	1669.09
766.02	1630.18
766.20	1621.99
766.38	1763.30
766.56	1710.05
766.73	1832.93
766.91	1732.58
767.09	1642.47
767.27	1701.86
767.44	1656.81
767.62	1734.63
767.80	1736.68
767.98	1654.76
768.15	1720.29
768.33	1822.69
768.51	1712.10
768.69	1808.36
768.87	1689.57
769.04	1714.15
769.22	1855.46
769.40	1828.84
769.58	1890.28
769.75	1771.49
769.93	1748.97
770.11	1787.88
770.28	1708.01
770.46	1751.01
770.64	1720.29
770.82	1632.23
770.99	1671.14
771.17	1689.57
771.35	1642.47
771.53	1689.57
771.70	1671.14
771.88	1677.29
772.06	1660.90
772.23	1699.81
772.41	1699.81
772.59	1718.25
772.77	1693.67
772.94	1785.83
773.12	1738.73
773.30	1708.01
773.47	1763.30
773.65	1650.66
773.83	1753.06
774.01	1685.48
774.18	1673.19
774.36	1728.49
774.54	1673.19
774.71	1767.40
774.89	1671.14
775.07	1644.52
775.24	1722.34
775.42	1644.52
775.60	1777.64
775.78	1716.20
775.95	1681.38
776.13	1599.46
776.31	1570.79
776.48	1669.09
776.66	1781.73
776.84	1679.33
777.01	1566.70
777.19	1605.61
777.37	1697.77
777.54	1722.34
777.72	1751.01
777.90	1652.71
778.07	1669.09
778.25	1843.17
778.43	1732.58
778.60	1703.91
778.78	1687.53
778.96	1796.07
779.13	1585.13
779.31	1746.92
779.49	1697.77
779.66	1841.12
779.84	1783.78
780.01	1701.86
780.19	1658.85
780.37	1785.83
780.54	1738.73
780.72	1691.62
780.90	1681.38
781.07	1716.20
781.25	1660.90
781.43	1794.02
781.60	1691.62
781.78	1828.84
781.95	1693.67
782.13	1665.00
782.31	1671.14
782.48	1564.65
782.66	1748.97
782.83	1742.82
783.01	1716.20
783.19	1703.91
783.36	1630.18
783.54	1652.71
783.72	1804.26
783.89	1689.57
784.07	1673.19
784.24	1744.87
784.42	1816.55
784.60	1675.24
784.77	1710.05
784.95	1681.38
785.12	1730.53
785.30	1751.01
785.47	1675.24
785.65	1607.66
785.83	1714.15
786.00	1671.14
786.18	1695.72
786.35	1662.95
786.53	1656.81
786.71	1771.49
786.88	1685.48
787.06	1742.82
787.23	1673.19
787.41	1658.85
787.58	1757.16
787.76	1683.43
787.94	1617.90
788.11	1732.58
788.29	1626.09
788.46	1658.85
788.64	1550.31
788.81	1705.96
788.99	1701.86
789.16	1660.90
789.34	1708.01
789.52	1673.19
789.69	1708.01
789.87	1632.23
790.04	1767.40
790.22	1746.92
790.39	1875.94
790.57	1660.90
790.74	1683.43
790.92	1814.50
791.09	1601.51
791.27	1722.34
791.44	1804.26
791.62	1722.34
791.79	1796.07
791.97	1695.72
792.15	1859.56
792.32	1718.25
792.50	1724.39
792.67	1845.22
792.85	1802.21
793.02	1812.45
793.20	1699.81
793.37	1683.43
793.55	1687.53
793.72	1593.32
793.90	1693.67
794.07	1677.29
794.25	1689.57
794.42	1763.30
794.60	1689.57
794.77	1759.21
794.95	1751.01
795.12	1720.29
795.30	1724.39
795.47	1652.71
795.65	1851.36
795.82	1697.77
796.00	1673.19
796.17	1658.85
796.34	1730.53
796.52	1791.97
796.69	1802.21
796.87	1720.29
797.04	1718.25
797.22	1714.15
797.39	1705.96
797.57	1787.88
797.74	1781.73
797.92	1689.57
798.09	1673.19
798.27	1806.31
798.44	1718.25
798.62	1654.76
798.79	1728.49
798.96	1726.44
799.14	1648.61
799.31	1865.70
799.49	1636.33
799.66	1697.77
799.84	1783.78
800.01	1611.75
800.19	1697.77
800.36	1652.71
800.53	1697.77
800.71	1736.68
800.88	1837.03
801.06	1626.09
801.23	1632.23
801.41	1738.73
801.58	1593.32
801.75	1720.29
801.93	1656.81
802.10	1736.68
802.28	1777.64
802.45	1669.09
802.63	1808.36
802.80	1722.34
802.97	1701.86
803.15	1708.01
803.32	1630.18
803.50	1644.52
803.67	1675.24
803.84	1603.56
804.02	1746.92
804.19	1718.25
804.37	1730.53
804.54	1673.19
804.71	1724.39
804.89	1660.90
805.06	1632.23
805.24	1558.50
805.41	1701.86
805.58	1697.77
805.76	1841.12
805.93	1771.49
806.10	1751.01
806.28	1691.62
806.45	1773.54
806.63	1691.62
806.80	1761.25
806.97	1794.02
807.15	1662.95
807.32	1710.05
807.49	1691.62
807.67	1669.09
807.84	1818.60
808.01	1689.57
808.19	1845.22
808.36	1869.80
808.54	1742.82
808.71	1630.18
808.88	1689.57
809.06	1763.30
809.23	1763.30
809.40	1599.46
809.58	1787.88
809.75	1703.91
809.92	1691.62
810.10	1806.31
810.27	1693.67
810.44	1732.58
810.62	1769.44
810.79	1783.78
810.96	1621.99
811.14	1671.14
811.31	1824.74
811.48	1650.66
811.66	1763.30
811.83	1759.21
812.00	1699.81
812.18	1705.96
812.35	1845.22
812.52	1732.58
812.69	1675.24
812.87	1695.72
813.04	1669.09
813.21	1687.53
813.39	1730.53
813.56	1695.72
813.73	1777.64
813.91	1619.94
814.08	1746.92
814.25	1738.73
814.42	1593.32
814.60	1722.34
814.77	1720.29
814.94	1644.52
815.12	1732.58
815.29	1767.40
815.46	1611.75
815.63	1748.97
815.81	1683.43
815.98	1736.68
816.15	1751.01
816.33	1703.91
816.50	1730.53
816.67	1689.57
816.84	1740.77
817.02	1630.18
817.19	1650.66
817.36	1720.29
817.53	1718.25
817.71	1628.14
817.88	1757.16
818.05	1638.38
818.22	1656.81
818.40	1728.49
818.57	1658.85
818.74	1751.01
818.91	1705.96
819.09	1751.01
819.26	1726.44
819.43	1642.47
819.60	1624.04
819.78	1759.21
819.95	1746.92
820.12	1611.75
820.29	1753.06
820.47	1787.88
820.64	1705.96
820.81	1617.90
820.98	1691.62
821.15	1689.57
821.33	1746.92
821.50	1624.04
821.67	1738.73
821.84	1705.96
822.02	1820.64
822.19	1746.92
822.36	1673.19
822.53	1744.87
822.70	1593.32
822.88	1705.96
823.05	1796.07
823.22	1673.19
823.39	1746.92
823.56	1710.05
823.74	1841.12
823.91	1628.14
824.08	1644.52
824.25	1697.77
824.42	1865.70
824.60	1615.85
824.77	1683.43
824.94	1703.91
825.11	1761.25
825.28	1675.24
825.45	1708.01
825.63	1660.90
825.80	1654.76
825.97	1738.73
826.14	1726.44
826.31	1603.56
826.48	1675.24
826.66	1609.70
826.83	1728.49
827.00	1738.73
827.17	1681.38
827.34	1646.57
827.51	1689.57
827.69	1685.48
827.86	1648.61
828.03	1730.53
828.20	1685.48
828.37	1708.01
828.54	1679.33
828.71	1642.47
828.89	1820.64
829.06	1748.97
829.23	1771.49
829.40	1636.33
829.57	1705.96
829.74	1753.06
829.91	1685.48
830.09	1718.25
830.26	1685.48
830.43	1775.59
830.60	1652.71
830.77	1718.25
830.94	1783.78
831.11	1757.16
831.28	1742.82
831.46	1787.88
831.63	1634.28
831.80	1728.49
831.97	1691.62
832.14	1710.05
832.31	1691.62
832.48	1660.90
832.65	1763.30
832.82	1591.27
832.99	1699.81
833.17	1730.53
833.34	1828.84
833.51	1691.62
833.68	1599.46
833.85	1761.25
834.02	1619.94
834.19	1665.00
834.36	1626.09
834.53	1697.77
834.70	1724.39
834.87	1771.49
835.04	1687.53
835.22	1634.28
835.39	1722.34
835.56	1611.75
835.73	1718.25
835.90	1742.82
836.07	1609.70
836.24	1677.29
836.41	1683.43
836.58	1658.85
836.75	1730.53
836.92	1703.91
837.09	1681.38
837.26	1667.05
837.43	1654.76
837.60	1755.11
837.77	1755.11
837.94	1783.78
838.12	1767.40
838.29	1779.68
838.46	1632.23
838.63	1595.37
838.80	1785.83
838.97	1779.68
839.14	1724.39
839.31	1638.38
839.48	1718.25
839.65	1693.67
839.82	1738.73
839.99	1718.25
840.16	1708.01
840.33	1628.14
840.50	1771.49
840.67	1673.19
840.84	1550.31
841.01	1765.35
841.18	1574.89
841.35	1683.43
841.52	1736.68
841.69	1726.44
841.86	1814.50
842.03	1718.25
842.20	1726.44
842.37	1693.67
842.54	1687.53
842.71	1732.58
842.88	1613.80
843.05	1826.79
843.22	1669.09
843.39	1738.73
843.56	1660.90
843.73	1679.33
843.90	1769.44
844.07	1693.67
844.24	1763.30
844.41	1708.01
844.58	1689.57
844.75	1734.63
844.92	1765.35
845.09	1640.42
845.26	1701.86
845.43	1734.63
845.60	1677.29
845.77	1759.21
845.94	1742.82
846.10	1775.59
846.27	1658.85
846.44	1669.09
846.61	1687.53
846.78	1746.92
846.95	1759.21
847.12	1644.52
847.29	1650.66
847.46	1669.09
847.63	1738.73
847.80	1644.52
847.97	1701.86
848.14	1822.69
848.31	1763.30
848.48	1636.33
848.65	1812.45
848.82	1624.04
848.98	1865.70
849.15	1689.57
849.32	1802.21
849.49	1779.68
849.66	1761.25
849.83	1671.14
850.00	1560.55
850.17	1685.48
850.34	1689.57
850.51	1597.42
850.68	1738.73
850.85	1832.93
851.01	1738.73
851.18	1701.86
851.35	1691.62
851.52	1765.35
851.69	1705.96
851.86	1619.94
852.03	1683.43
852.20	1724.39
852.37	1724.39
852.53	1589.22
852.70	1748.97
852.87	1677.29
853.04	1609.70
853.21	1740.77
853.38	1724.39
853.55	1781.73
853.72	1759.21
853.89	1681.38
854.05	1691.62
854.22	1705.96
854.39	1699.81
854.56	1738.73
854.73	1798.12
854.90	1634.28
855.07	1740.77
855.23	1683.43
855.40	1671.14
855.57	1730.53
855.74	1574.89
855.91	1869.80
856.08	1691.62
856.25	1603.56
856.41	1716.20
856.58	1701.86
856.75	1720.29
856.92	1619.94
857.09	1757.16
857.26	1689.57
857.42	1640.42
857.59	1718.25
857.76	1599.46
857.93	1693.67
858.10	1687.53
858.27	1621.99
858.43	1734.63
858.60	1673.19
858.77	1656.81
858.94	1683.43
859.11	1689.57
859.27	1763.30
859.44	1738.73
859.61	1785.83
859.78	1757.16
859.95	1705.96
860.12	1744.87
860.28	1822.69
860.45	1845.22
860.62	1746.92
860.79	1708.01
860.95	1730.53
861.12	1714.15
861.29	1660.90
861.46	1699.81
861.63	1671.14
861.79	1851.36
861.96	1638.38
862.13	1642.47
862.30	1769.44
862.47	1681.38
862.63	1642.47
862.80	1800.16
862.97	1691.62
863.14	1628.14
863.30	1658.85
863.47	1667.05
863.64	1755.11
863.81	1675.24
863.97	1656.81
864.14	1665.00
864.31	1683.43
864.48	1687.53
864.65	1677.29
864.81	1714.15
864.98	1783.78
865.15	1796.07
865.32	1703.91
865.48	1730.53
865.65	1806.31
865.82	1755.11
865.98	1734.63
866.15	1710.05
866.32	1767.40
866.49	1658.85
866.65	1705.96
866.82	1615.85
866.99	1652.71
867.16	1714.15
867.32	1705.96
867.49	1667.05
867.66	1761.25
867.83	1658.85
867.99	1581.03
868.16	1714.15
868.33	1648.61
868.49	1660.90
868.66	1701.86
868.83	1701.86
868.99	1693.67
869.16	1675.24
869.33	1744.87
869.50	1753.06
869.66	1685.48
869.83	1699.81
870.00	1677.29
870.16	1689.57
870.33	1712.10
870.50	1722.34
870.66	1654.76
870.83	1787.88
871.00	1673.19
871.17	1787.88
871.33	1763.30
871.50	1730.53
871.67	1716.20
871.83	1691.62
872.00	1755.11
872.17	1685.48
872.33	1824.74
872.50	1755.11
872.67	1695.72
872.83	1703.91
873.00	1714.15
873.17	1722.34
873.33	1740.77
873.50	1665.00
873.67	1710.05
873.83	1607.66
874.00	1679.33
874.16	1818.60
874.33	1669.09
874.50	1630.18
874.66	1787.88
874.83	1628.14
875.00	1755.11
875.16	1771.49
875.33	1802.21
875.50	1681.38
875.66	1673.19
875.83	1667.05
875.99	1724.39
876.16	1660.90
876.33	1652.71
876.49	1701.86
876.66	1703.91
876.83	1763.30
876.99	1650.66
877.16	1671.14
877.32	1681.38
877.49	1693.67
877.66	1753.06
877.82	1810.40
877.99	1671.14
878.15	1689.57
878.32	1751.01
878.49	1695.72
878.65	1703.91
878.82	1718.25
878.98	1683.43
879.15	1746.92
879.32	1810.40
879.48	1697.77
879.65	1699.81
879.81	1630.18
879.98	1738.73
880.15	1693.67
880.31	1820.64
880.48	1673.19
880.64	1783.78
880.81	1746.92
880.97	1834.98
881.14	1767.40
881.31	1677.29
881.47	1861.60
881.64	1611.75
881.80	1644.52
881.97	1673.19
882.13	1693.67
882.30	1705.96
882.47	1714.15
882.63	1685.48
882.80	1710.05
882.96	1669.09
883.13	1783.78
883.29	1624.04
883.46	1697.77
883.62	1775.59
883.79	1634.28
883.95	1755.11
884.12	1728.49
884.29	1769.44
884.45	1654.76
884.62	1765.35
884.78	1669.09
884.95	1853.41
885.11	1701.86
885.28	1765.35
885.44	1632.23
885.61	1742.82
885.77	1800.16
885.94	1779.68
886.10	1714.15
886.27	1755.11
886.43	1740.77
886.60	1748.97
886.76	1738.73
886.93	1605.61
887.09	1722.34
887.26	1693.67
887.42	1726.44
887.59	1671.14
887.75	1894.37
887.92	1701.86
888.08	1832.93
888.25	1798.12
888.41	1767.40
888.58	1628.14
888.74	1683.43
888.91	1763.30
>>>>>End Processed Spectral Data<<<<<
