SpectraSuite Data File
++++++++++++++++++++++++++++++++++++
Date: Wed May 04 18:44:39 CEST 2016
User: root
Dark Spectrum Present: No
Reference Spectrum Present: No
Number of Sampled Component Spectra: 1
Spectrometers: USB4C02835
Integration Time (usec): 100000 (USB4C02835)
Spectra Averaged: 1 (USB4C02835)
Boxcar Smoothing: 0 (USB4C02835)
Correct for Electrical Dark: No (USB4C02835)
Strobe/Lamp Enabled: No (USB4C02835)
Correct for Detector Non-linearity: No (USB4C02835)
Correct for Stray Light: No (USB4C02835)
Number of Pixels in Processed Spectrum: 3648
>>>>>Begin Processed Spectral Data<<<<<
177.47	1402.86
177.69	1402.86
177.91	1402.86
178.13	1404.91
178.36	1486.83
178.58	1615.85
178.80	1783.78
179.02	1593.32
179.24	1615.85
179.46	1714.15
179.68	1724.39
179.90	1675.24
180.13	1759.21
180.35	1574.89
180.57	1646.57
180.79	1656.81
181.01	1691.62
181.23	1714.15
181.45	1744.87
181.67	1697.77
181.90	1773.54
182.12	1646.57
182.34	1697.77
182.56	1777.64
182.78	1734.63
183.00	1681.38
183.22	1730.53
183.44	1632.23
183.66	1859.56
183.89	1808.36
184.11	1785.83
184.33	1728.49
184.55	1722.34
184.77	1740.77
184.99	1703.91
185.21	1701.86
185.43	1955.81
185.65	1701.86
185.87	1697.77
186.10	1837.03
186.32	1869.80
186.54	1736.68
186.76	1648.61
186.98	1710.05
187.20	1730.53
187.42	1689.57
187.64	1665.00
187.86	1726.44
188.08	1791.97
188.30	1636.33
188.52	1689.57
188.75	1740.77
188.97	1724.39
189.19	1669.09
189.41	1673.19
189.63	1767.40
189.85	1634.28
190.07	1617.90
190.29	1724.39
190.51	1783.78
190.73	1636.33
190.95	1683.43
191.17	1693.67
191.39	1640.42
191.61	1673.19
191.84	1673.19
192.06	1689.57
192.28	1648.61
192.50	1857.51
192.72	1689.57
192.94	1722.34
193.16	1726.44
193.38	1732.58
193.60	1646.57
193.82	1665.00
194.04	1755.11
194.26	1669.09
194.48	1697.77
194.70	1697.77
194.92	1687.53
195.14	1681.38
195.36	1759.21
195.58	1722.34
195.80	1787.88
196.02	1615.85
196.24	1748.97
196.46	1746.92
196.69	1679.33
196.91	1812.45
197.13	1714.15
197.35	1652.71
197.57	1796.07
197.79	1716.20
198.01	1714.15
198.23	1763.30
198.45	1708.01
198.67	1658.85
198.89	1669.09
199.11	1763.30
199.33	1621.99
199.55	1595.37
199.77	1673.19
199.99	1755.11
200.21	1689.57
200.43	1660.90
200.65	1658.85
200.87	1546.22
201.09	1738.73
201.31	1636.33
201.53	1712.10
201.75	1652.71
201.97	1652.71
202.19	1740.77
202.41	1755.11
202.63	1802.21
202.85	1679.33
203.07	1675.24
203.29	1585.13
203.51	1665.00
203.73	1769.44
203.95	1851.36
204.17	1654.76
204.39	1728.49
204.61	1759.21
204.83	1728.49
205.05	1683.43
205.27	1671.14
205.49	1794.02
205.71	1667.05
205.93	1683.43
206.15	1636.33
206.37	1802.21
206.59	1642.47
206.81	1714.15
207.03	1699.81
207.25	1665.00
207.47	1751.01
207.69	1695.72
207.91	1830.88
208.13	1800.16
208.34	1615.85
208.56	1572.84
208.78	1705.96
209.00	1703.91
209.22	1652.71
209.44	1732.58
209.66	1701.86
209.88	1740.77
210.10	1589.22
210.32	1660.90
210.54	1798.12
210.76	1683.43
210.98	1798.12
211.20	1630.18
211.42	1734.63
211.64	1736.68
211.86	1708.01
212.08	1806.31
212.30	1693.67
212.52	1722.34
212.74	1716.20
212.96	1716.20
213.17	1736.68
213.39	1710.05
213.61	1730.53
213.83	1781.73
214.05	1671.14
214.27	1751.01
214.49	1677.29
214.71	1640.42
214.93	1794.02
215.15	1693.67
215.37	1806.31
215.59	1595.37
215.81	1753.06
216.03	1751.01
216.24	1720.29
216.46	1681.38
216.68	1656.81
216.90	1734.63
217.12	1808.36
217.34	1734.63
217.56	1726.44
217.78	1761.25
218.00	1710.05
218.22	1714.15
218.44	1773.54
218.66	1687.53
218.87	1796.07
219.09	1679.33
219.31	1775.59
219.53	1724.39
219.75	1675.24
219.97	1701.86
220.19	1734.63
220.41	1701.86
220.63	1814.50
220.85	1683.43
221.06	1667.05
221.28	1789.92
221.50	1742.82
221.72	1693.67
221.94	1779.68
222.16	1683.43
222.38	1837.03
222.60	1814.50
222.82	1736.68
223.03	1746.92
223.25	1697.77
223.47	1726.44
223.69	1775.59
223.91	1710.05
224.13	1689.57
224.35	1693.67
224.57	1724.39
224.78	1667.05
225.00	1654.76
225.22	1687.53
225.44	1693.67
225.66	1748.97
225.88	1632.23
226.10	1800.16
226.32	1740.77
226.53	1783.78
226.75	1730.53
226.97	1730.53
227.19	1705.96
227.41	1624.04
227.63	1708.01
227.85	1628.14
228.06	1763.30
228.28	1599.46
228.50	1755.11
228.72	1566.70
228.94	1628.14
229.16	1593.32
229.37	1673.19
229.59	1720.29
229.81	1802.21
230.03	1660.90
230.25	1695.72
230.47	1628.14
230.69	1687.53
230.90	1765.35
231.12	1667.05
231.34	1718.25
231.56	1757.16
231.78	1660.90
232.00	1724.39
232.21	1652.71
232.43	1681.38
232.65	1615.85
232.87	1748.97
233.09	1669.09
233.30	1624.04
233.52	1814.50
233.74	1658.85
233.96	1681.38
234.18	1814.50
234.40	1677.29
234.61	1759.21
234.83	1636.33
235.05	1675.24
235.27	1839.08
235.49	1820.64
235.70	1626.09
235.92	1779.68
236.14	1773.54
236.36	1863.65
236.58	1689.57
236.79	1703.91
237.01	1736.68
237.23	1699.81
237.45	1804.26
237.67	1630.18
237.88	1765.35
238.10	1894.37
238.32	1679.33
238.54	1738.73
238.76	1689.57
238.97	1658.85
239.19	1669.09
239.41	1798.12
239.63	1761.25
239.85	1617.90
240.06	1669.09
240.28	1671.14
240.50	1814.50
240.72	1675.24
240.93	1634.28
241.15	1849.32
241.37	1701.86
241.59	1828.84
241.81	1675.24
242.02	1681.38
242.24	1683.43
242.46	1722.34
242.68	1689.57
242.89	1742.82
243.11	1783.78
243.33	1798.12
243.55	1746.92
243.76	1812.45
243.98	1703.91
244.20	1779.68
244.42	1755.11
244.64	1673.19
244.85	1681.38
245.07	1697.77
245.29	1658.85
245.51	1656.81
245.72	1701.86
245.94	1716.20
246.16	1722.34
246.38	1767.40
246.59	1705.96
246.81	1681.38
247.03	1681.38
247.24	1603.56
247.46	1675.24
247.68	1736.68
247.90	1652.71
248.11	1708.01
248.33	1779.68
248.55	1636.33
248.77	1699.81
248.98	1812.45
249.20	1853.41
249.42	1669.09
249.64	1734.63
249.85	1675.24
250.07	1703.91
250.29	1701.86
250.50	1783.78
250.72	1656.81
250.94	1712.10
251.16	1859.56
251.37	1662.95
251.59	1722.34
251.81	1736.68
252.02	1720.29
252.24	1669.09
252.46	1828.84
252.68	1675.24
252.89	1697.77
253.11	1658.85
253.33	1851.36
253.54	1802.21
253.76	1681.38
253.98	1712.10
254.20	1701.86
254.41	1660.90
254.63	1679.33
254.85	1617.90
255.06	1714.15
255.28	1736.68
255.50	1689.57
255.71	1746.92
255.93	1662.95
256.15	1669.09
256.36	1757.16
256.58	1791.97
256.80	1712.10
257.02	1650.66
257.23	1677.29
257.45	1691.62
257.67	1732.58
257.88	1656.81
258.10	1777.64
258.32	1691.62
258.53	1685.48
258.75	1794.02
258.97	1683.43
259.18	1628.14
259.40	1705.96
259.62	1828.84
259.83	1781.73
260.05	1767.40
260.27	1982.43
260.48	1787.88
260.70	1669.09
260.92	1738.73
261.13	1615.85
261.35	1705.96
261.57	1732.58
261.78	1599.46
262.00	1710.05
262.22	1708.01
262.43	1667.05
262.65	1662.95
262.86	1720.29
263.08	1808.36
263.30	1714.15
263.51	1513.45
263.73	1685.48
263.95	1787.88
264.16	1753.06
264.38	1697.77
264.60	1730.53
264.81	1693.67
265.03	1779.68
265.25	1785.83
265.46	1794.02
265.68	1800.16
265.89	1783.78
266.11	1636.33
266.33	1675.24
266.54	1722.34
266.76	1746.92
266.98	1753.06
267.19	1771.49
267.41	1791.97
267.62	1695.72
267.84	1630.18
268.06	1783.78
268.27	1710.05
268.49	1785.83
268.70	1757.16
268.92	1712.10
269.14	1722.34
269.35	1632.23
269.57	1697.77
269.79	1728.49
270.00	1757.16
270.22	1812.45
270.43	1689.57
270.65	1669.09
270.87	1777.64
271.08	1771.49
271.30	1757.16
271.51	1701.86
271.73	1773.54
271.95	1822.69
272.16	1787.88
272.38	1689.57
272.59	1714.15
272.81	1732.58
273.02	1708.01
273.24	1777.64
273.46	1693.67
273.67	1640.42
273.89	1638.38
274.10	1757.16
274.32	1753.06
274.54	1753.06
274.75	1652.71
274.97	1689.57
275.18	1712.10
275.40	1789.92
275.61	1681.38
275.83	1755.11
276.05	1636.33
276.26	1626.09
276.48	1771.49
276.69	1650.66
276.91	1687.53
277.12	1720.29
277.34	1800.16
277.55	1759.21
277.77	1703.91
277.99	1691.62
278.20	1609.70
278.42	1578.98
278.63	1609.70
278.85	1683.43
279.06	1665.00
279.28	1693.67
279.49	1802.21
279.71	1781.73
279.93	1673.19
280.14	1636.33
280.36	1650.66
280.57	1755.11
280.79	1751.01
281.00	1646.57
281.22	1689.57
281.43	1785.83
281.65	1621.99
281.86	1552.36
282.08	1761.25
282.29	1828.84
282.51	1656.81
282.73	1581.03
282.94	1697.77
283.16	1673.19
283.37	1779.68
283.59	1619.94
283.80	1728.49
284.02	1697.77
284.23	1775.59
284.45	1679.33
284.66	1632.23
284.88	1714.15
285.09	1773.54
285.31	1740.77
285.52	1728.49
285.74	1648.61
285.95	1755.11
286.17	1787.88
286.38	1738.73
286.60	1632.23
286.81	1728.49
287.03	1734.63
287.24	1746.92
287.46	1671.14
287.67	1759.21
287.89	1773.54
288.10	1718.25
288.32	1773.54
288.53	1814.50
288.75	1716.20
288.96	1759.21
289.18	1658.85
289.39	1662.95
289.61	1767.40
289.82	1789.92
290.04	1755.11
290.25	1691.62
290.47	1679.33
290.68	1689.57
290.90	1796.07
291.11	1669.09
291.33	1746.92
291.54	1599.46
291.76	1710.05
291.97	1689.57
292.18	1697.77
292.40	1787.88
292.61	1660.90
292.83	1794.02
293.04	1701.86
293.26	1753.06
293.47	1701.86
293.69	1642.47
293.90	1677.29
294.12	1697.77
294.33	1705.96
294.55	1632.23
294.76	1755.11
294.97	1830.88
295.19	1820.64
295.40	1714.15
295.62	1722.34
295.83	1744.87
296.05	1677.29
296.26	1763.30
296.48	1660.90
296.69	1767.40
296.90	1665.00
297.12	1759.21
297.33	1802.21
297.55	1656.81
297.76	1689.57
297.98	1791.97
298.19	1759.21
298.41	1730.53
298.62	1665.00
298.83	1753.06
299.05	1726.44
299.26	1656.81
299.48	1601.51
299.69	1671.14
299.90	1695.72
300.12	1632.23
300.33	1734.63
300.55	1718.25
300.76	1705.96
300.98	1650.66
301.19	1779.68
301.40	1632.23
301.62	1677.29
301.83	1724.39
302.05	1681.38
302.26	1693.67
302.47	1697.77
302.69	1589.22
302.90	1771.49
303.12	1597.42
303.33	1771.49
303.54	1808.36
303.76	1759.21
303.97	1701.86
304.19	1730.53
304.40	1581.03
304.61	1751.01
304.83	1832.93
305.04	1722.34
305.26	1767.40
305.47	1703.91
305.68	1669.09
305.90	1701.86
306.11	1802.21
306.33	1691.62
306.54	1662.95
306.75	1632.23
306.97	1644.52
307.18	1701.86
307.39	1675.24
307.61	1746.92
307.82	1685.48
308.04	1783.78
308.25	1689.57
308.46	1771.49
308.68	1675.24
308.89	1617.90
309.10	1787.88
309.32	1685.48
309.53	1800.16
309.74	1714.15
309.96	1765.35
310.17	1691.62
310.39	1722.34
310.60	1753.06
310.81	1705.96
311.03	1691.62
311.24	1753.06
311.45	1679.33
311.67	1816.55
311.88	1755.11
312.09	1687.53
312.31	1642.47
312.52	1703.91
312.73	1759.21
312.95	1624.04
313.16	1736.68
313.37	1857.51
313.59	1716.20
313.80	1763.30
314.01	1763.30
314.23	1640.42
314.44	1660.90
314.65	1570.79
314.87	1724.39
315.08	1642.47
315.29	1736.68
315.51	1716.20
315.72	1710.05
315.93	1748.97
316.15	1726.44
316.36	1650.66
316.57	1724.39
316.79	1740.77
317.00	1763.30
317.21	1796.07
317.43	1699.81
317.64	1791.97
317.85	1656.81
318.07	1665.00
318.28	1783.78
318.49	1898.47
318.70	1890.28
318.92	1869.80
319.13	1845.22
319.34	1943.52
319.56	1785.83
319.77	1830.88
319.98	1796.07
320.20	1748.97
320.41	1855.46
320.62	1775.59
320.83	1695.72
321.05	1837.03
321.26	1751.01
321.47	1681.38
321.69	1847.27
321.90	1619.94
322.11	1656.81
322.32	1697.77
322.54	1757.16
322.75	1693.67
322.96	1814.50
323.18	1681.38
323.39	1648.61
323.60	1642.47
323.81	1742.82
324.03	1691.62
324.24	1708.01
324.45	1636.33
324.66	1734.63
324.88	1796.07
325.09	1787.88
325.30	1701.86
325.52	1781.73
325.73	1736.68
325.94	1705.96
326.15	1632.23
326.37	1685.48
326.58	1763.30
326.79	1826.79
327.00	1726.44
327.22	1726.44
327.43	1644.52
327.64	1763.30
327.85	1751.01
328.07	1642.47
328.28	1763.30
328.49	1705.96
328.70	1648.61
328.92	1751.01
329.13	1677.29
329.34	1755.11
329.55	1775.59
329.76	1714.15
329.98	1681.38
330.19	1732.58
330.40	1751.01
330.61	1765.35
330.83	1701.86
331.04	1671.14
331.25	1671.14
331.46	1714.15
331.68	1578.98
331.89	1757.16
332.10	1720.29
332.31	1710.05
332.52	1740.77
332.74	1732.58
332.95	1589.22
333.16	1699.81
333.37	1777.64
333.58	1675.24
333.80	1804.26
334.01	1675.24
334.22	1703.91
334.43	1691.62
334.64	1693.67
334.86	1695.72
335.07	1613.80
335.28	1732.58
335.49	1681.38
335.70	1667.05
335.92	1724.39
336.13	1839.08
336.34	1720.29
336.55	1693.67
336.76	1708.01
336.98	1570.79
337.19	1701.86
337.40	1789.92
337.61	1916.90
337.82	1697.77
338.04	1783.78
338.25	1624.04
338.46	1685.48
338.67	1644.52
338.88	1589.22
339.09	1654.76
339.31	1669.09
339.52	1601.51
339.73	1605.61
339.94	1746.92
340.15	1681.38
340.36	1746.92
340.58	1761.25
340.79	1675.24
341.00	1761.25
341.21	1583.08
341.42	1816.55
341.63	1656.81
341.85	1710.05
342.06	1681.38
342.27	1662.95
342.48	1746.92
342.69	1650.66
342.90	1744.87
343.12	1730.53
343.33	1673.19
343.54	1652.71
343.75	1787.88
343.96	1652.71
344.17	1699.81
344.38	1669.09
344.60	1691.62
344.81	1660.90
345.02	1748.97
345.23	1796.07
345.44	1820.64
345.65	1746.92
345.86	1621.99
346.07	1689.57
346.29	1732.58
346.50	1697.77
346.71	1722.34
346.92	1789.92
347.13	1798.12
347.34	1671.14
347.55	1683.43
347.76	1724.39
347.98	1595.37
348.19	1763.30
348.40	1779.68
348.61	1697.77
348.82	1787.88
349.03	1736.68
349.24	1656.81
349.45	1746.92
349.66	1691.62
349.88	1675.24
350.09	1658.85
350.30	1757.16
350.51	1796.07
350.72	1642.47
350.93	1722.34
351.14	1640.42
351.35	1757.16
351.56	1718.25
351.77	1660.90
351.99	1763.30
352.20	1783.78
352.41	1767.40
352.62	1597.42
352.83	1722.34
353.04	1667.05
353.25	1781.73
353.46	1728.49
353.67	1728.49
353.88	1603.56
354.09	1710.05
354.30	1742.82
354.52	1728.49
354.73	1732.58
354.94	1673.19
355.15	1765.35
355.36	1769.44
355.57	1742.82
355.78	1775.59
355.99	1675.24
356.20	1636.33
356.41	1810.40
356.62	1783.78
356.83	1716.20
357.04	1757.16
357.25	1566.70
357.46	1687.53
357.68	1669.09
357.89	1665.00
358.10	1724.39
358.31	1615.85
358.52	1718.25
358.73	1656.81
358.94	1640.42
359.15	1751.01
359.36	1757.16
359.57	1718.25
359.78	1712.10
359.99	1822.69
360.20	1642.47
360.41	1679.33
360.62	1712.10
360.83	1773.54
361.04	1722.34
361.25	1736.68
361.46	1796.07
361.67	1728.49
361.88	1740.77
362.09	1800.16
362.30	1734.63
362.51	1697.77
362.72	1753.06
362.93	1751.01
363.14	1695.72
363.35	1755.11
363.56	1624.04
363.78	1837.03
363.99	1767.40
364.20	1658.85
364.41	1755.11
364.62	1810.40
364.83	1691.62
365.04	1662.95
365.25	1673.19
365.46	1824.74
365.67	1720.29
365.88	1734.63
366.09	1658.85
366.30	1699.81
366.51	1724.39
366.72	1703.91
366.93	1724.39
367.14	1669.09
367.35	1759.21
367.56	1665.00
367.77	1765.35
367.98	1699.81
368.18	1738.73
368.39	1767.40
368.60	1619.94
368.81	1789.92
369.02	1697.77
369.23	1673.19
369.44	1699.81
369.65	1701.86
369.86	1683.43
370.07	1757.16
370.28	1619.94
370.49	1751.01
370.70	1810.40
370.91	1728.49
371.12	1560.55
371.33	1818.60
371.54	1634.28
371.75	1728.49
371.96	1679.33
372.17	1679.33
372.38	1714.15
372.59	1662.95
372.80	1677.29
373.01	1697.77
373.22	1705.96
373.43	1763.30
373.64	1626.09
373.85	1824.74
374.06	1812.45
374.26	1751.01
374.47	1679.33
374.68	1826.79
374.89	1789.92
375.10	1691.62
375.31	1822.69
375.52	1716.20
375.73	1714.15
375.94	1654.76
376.15	1771.49
376.36	1708.01
376.57	1732.58
376.78	1720.29
376.99	1816.55
377.20	1761.25
377.40	1644.52
377.61	1779.68
377.82	1648.61
378.03	1779.68
378.24	1675.24
378.45	1753.06
378.66	1689.57
378.87	1632.23
379.08	1718.25
379.29	1705.96
379.50	1787.88
379.71	1769.44
379.91	1734.63
380.12	1681.38
380.33	1740.77
380.54	1687.53
380.75	1722.34
380.96	1689.57
381.17	1705.96
381.38	1724.39
381.59	1796.07
381.80	1769.44
382.00	1837.03
382.21	1767.40
382.42	1837.03
382.63	1882.08
382.84	1789.92
383.05	1783.78
383.26	1794.02
383.47	1777.64
383.68	1777.64
383.88	1773.54
384.09	1689.57
384.30	1730.53
384.51	1771.49
384.72	1652.71
384.93	1648.61
385.14	1761.25
385.35	1712.10
385.55	1724.39
385.76	1779.68
385.97	1767.40
386.18	1660.90
386.39	1701.86
386.60	1738.73
386.81	1726.44
387.02	1638.38
387.22	1656.81
387.43	1765.35
387.64	1908.71
387.85	1947.62
388.06	2250.72
388.27	4704.18
388.48	9205.62
388.68	11677.52
388.89	13446.96
389.10	14059.31
389.31	11925.32
389.52	9707.37
389.73	8615.80
389.93	7806.86
390.14	7366.54
390.35	6639.51
390.56	6027.17
390.77	5050.29
390.98	3954.63
391.18	3037.14
391.39	2412.51
391.60	1945.57
391.81	1859.56
392.02	1726.44
392.23	1867.75
392.43	1714.15
392.64	1791.97
392.85	1867.75
393.06	1734.63
393.27	1710.05
393.47	1726.44
393.68	1757.16
393.89	1650.66
394.10	1775.59
394.31	1757.16
394.52	1679.33
394.72	1667.05
394.93	1765.35
395.14	1685.48
395.35	1779.68
395.56	1669.09
395.76	1650.66
395.97	1816.55
396.18	1871.84
396.39	1824.74
396.60	2115.55
396.80	2015.20
397.01	1794.02
397.22	1918.95
397.43	1787.88
397.64	1804.26
397.84	1800.16
398.05	1875.94
398.26	1751.01
398.47	1812.45
398.67	1806.31
398.88	1671.14
399.09	1796.07
399.30	1687.53
399.51	1736.68
399.71	1630.18
399.92	1691.62
400.13	1691.62
400.34	1738.73
400.54	1681.38
400.75	1855.46
400.96	1730.53
401.17	1910.75
401.37	1783.78
401.58	1705.96
401.79	1687.53
402.00	1943.52
402.21	2090.98
402.41	2011.11
402.62	2070.50
402.83	2191.33
403.04	2025.44
403.24	2156.51
403.45	1875.94
403.66	2041.82
403.87	1841.12
404.07	1900.52
404.28	1961.95
404.49	1955.81
404.70	1791.97
404.90	1789.92
405.11	1755.11
405.32	1773.54
405.52	1691.62
405.73	1656.81
405.94	1730.53
406.15	1777.64
406.35	1726.44
406.56	1810.40
406.77	1718.25
406.98	1753.06
407.18	1634.28
407.39	1751.01
407.60	1732.58
407.80	1695.72
408.01	1679.33
408.22	1677.29
408.43	1632.23
408.63	1767.40
408.84	1757.16
409.05	1894.37
409.25	1607.66
409.46	1697.77
409.67	1681.38
409.88	1673.19
410.08	1763.30
410.29	1748.97
410.50	1726.44
410.70	1705.96
410.91	1693.67
411.12	1726.44
411.32	1718.25
411.53	1691.62
411.74	1779.68
411.95	1724.39
412.15	1806.31
412.36	1935.33
412.57	1783.78
412.77	1705.96
412.98	1775.59
413.19	1677.29
413.39	1753.06
413.60	1699.81
413.81	1859.56
414.01	1720.29
414.22	1744.87
414.43	1791.97
414.63	1644.52
414.84	1798.12
415.05	1701.86
415.25	1691.62
415.46	1771.49
415.67	1701.86
415.87	1730.53
416.08	1656.81
416.29	1726.44
416.49	1685.48
416.70	1701.86
416.91	1796.07
417.11	1685.48
417.32	1781.73
417.53	1736.68
417.73	1800.16
417.94	1744.87
418.15	1759.21
418.35	1716.20
418.56	1693.67
418.77	1884.13
418.97	1742.82
419.18	1673.19
419.38	1578.98
419.59	1710.05
419.80	1804.26
420.00	1697.77
420.21	1677.29
420.42	1783.78
420.62	1767.40
420.83	1710.05
421.04	1753.06
421.24	1675.24
421.45	1724.39
421.65	1832.93
421.86	1646.57
422.07	1779.68
422.27	1722.34
422.48	1669.09
422.69	1738.73
422.89	1675.24
423.10	1718.25
423.30	1644.52
423.51	1712.10
423.72	1718.25
423.92	1791.97
424.13	1566.70
424.33	1714.15
424.54	1783.78
424.75	1779.68
424.95	1828.84
425.16	1714.15
425.36	1757.16
425.57	1806.31
425.78	1681.38
425.98	1871.84
426.19	1662.95
426.39	1595.37
426.60	1761.25
426.81	1775.59
427.01	1753.06
427.22	1701.86
427.42	1624.04
427.63	1687.53
427.83	1695.72
428.04	1839.08
428.25	1775.59
428.45	1732.58
428.66	1751.01
428.86	1689.57
429.07	1712.10
429.28	1726.44
429.48	1669.09
429.69	1624.04
429.89	1689.57
430.10	1638.38
430.30	1740.77
430.51	1714.15
430.71	1652.71
430.92	1679.33
431.13	1675.24
431.33	1789.92
431.54	1761.25
431.74	1869.80
431.95	1837.03
432.15	1642.47
432.36	1669.09
432.56	1677.29
432.77	1871.84
432.98	1730.53
433.18	1755.11
433.39	1675.24
433.59	1691.62
433.80	1794.02
434.00	1880.04
434.21	1669.09
434.41	1740.77
434.62	1867.75
434.82	1689.57
435.03	1667.05
435.23	1722.34
435.44	1576.94
435.64	1738.73
435.85	1771.49
436.06	1718.25
436.26	1789.92
436.47	1691.62
436.67	1665.00
436.88	1751.01
437.08	1730.53
437.29	1820.64
437.49	1722.34
437.70	1808.36
437.90	1736.68
438.11	1824.74
438.31	1808.36
438.52	1845.22
438.72	1886.18
438.93	2002.91
439.13	1849.32
439.34	1931.23
439.54	1771.49
439.75	1771.49
439.95	1837.03
440.16	1767.40
440.36	1744.87
440.57	1791.97
440.77	1751.01
440.98	1669.09
441.18	1736.68
441.39	1669.09
441.59	1699.81
441.80	1763.30
442.00	1771.49
442.21	1746.92
442.41	1617.90
442.62	1798.12
442.82	1693.67
443.02	1744.87
443.23	1671.14
443.43	1751.01
443.64	1806.31
443.84	1722.34
444.05	1855.46
444.25	1783.78
444.46	1738.73
444.66	1744.87
444.87	1869.80
445.07	1689.57
445.28	1724.39
445.48	1837.03
445.69	1710.05
445.89	1902.56
446.09	1763.30
446.30	1929.19
446.50	2607.06
446.71	4124.61
446.91	5283.76
447.12	5814.18
447.32	6043.56
447.53	5437.36
447.73	4517.82
447.93	3946.44
448.14	3704.78
448.34	3450.83
448.55	3272.65
448.75	3223.50
448.96	2969.55
449.16	2672.60
449.36	2549.72
449.57	2105.31
449.77	1945.57
449.98	1859.56
450.18	1808.36
450.39	1804.26
450.59	1757.16
450.79	1644.52
451.00	1726.44
451.20	1834.98
451.41	1722.34
451.61	1738.73
451.81	1742.82
452.02	1763.30
452.22	1695.72
452.43	1791.97
452.63	1667.05
452.84	1728.49
453.04	1757.16
453.24	1753.06
453.45	1705.96
453.65	1742.82
453.86	1804.26
454.06	1822.69
454.26	1748.97
454.47	1675.24
454.67	1822.69
454.87	1759.21
455.08	1730.53
455.28	1843.17
455.49	1738.73
455.69	1691.62
455.89	1773.54
456.10	1755.11
456.30	1648.61
456.51	1734.63
456.71	1765.35
456.91	1695.72
457.12	1755.11
457.32	1732.58
457.52	1697.77
457.73	1796.07
457.93	1751.01
458.14	1718.25
458.34	1640.42
458.54	1794.02
458.75	1685.48
458.95	1765.35
459.15	1837.03
459.36	1705.96
459.56	1720.29
459.76	1771.49
459.97	1742.82
460.17	1669.09
460.37	1794.02
460.58	1767.40
460.78	1755.11
460.99	1732.58
461.19	1742.82
461.39	1720.29
461.60	1751.01
461.80	1740.77
462.00	1667.05
462.21	1722.34
462.41	1673.19
462.61	1597.42
462.82	1652.71
463.02	1755.11
463.22	1755.11
463.43	1730.53
463.63	1779.68
463.83	1812.45
464.04	1740.77
464.24	1808.36
464.44	1648.61
464.64	1734.63
464.85	1767.40
465.05	1703.91
465.25	1753.06
465.46	1634.28
465.66	1738.73
465.86	1814.50
466.07	1734.63
466.27	1703.91
466.47	1650.66
466.68	1669.09
466.88	1800.16
467.08	1714.15
467.29	1744.87
467.49	1757.16
467.69	1703.91
467.89	1796.07
468.10	1734.63
468.30	1701.86
468.50	1812.45
468.71	1753.06
468.91	1636.33
469.11	1841.12
469.31	1740.77
469.52	1646.57
469.72	1898.47
469.92	1832.93
470.13	1746.92
470.33	1787.88
470.53	1888.23
470.73	2203.61
470.94	2533.34
471.14	2738.13
471.34	2963.41
471.54	2912.21
471.75	2590.68
471.95	2379.74
472.15	2332.64
472.36	2230.24
472.56	2183.13
472.76	2117.60
472.96	2045.92
473.17	1959.91
473.37	2058.21
473.57	1826.79
473.77	1783.78
473.98	1808.36
474.18	1703.91
474.38	1961.95
474.58	1730.53
474.79	1660.90
474.99	1769.44
475.19	1695.72
475.39	1746.92
475.60	1755.11
475.80	1767.40
476.00	1742.82
476.20	1744.87
476.41	1716.20
476.61	1800.16
476.81	1794.02
477.01	1652.71
477.21	1767.40
477.42	1785.83
477.62	1701.86
477.82	1755.11
478.02	1808.36
478.23	1701.86
478.43	1587.18
478.63	1718.25
478.83	1767.40
479.03	1714.15
479.24	1773.54
479.44	1826.79
479.64	1695.72
479.84	1619.94
480.04	1759.21
480.25	1820.64
480.45	1652.71
480.65	1701.86
480.85	1783.78
481.06	1738.73
481.26	1714.15
481.46	1787.88
481.66	1736.68
481.86	1705.96
482.06	1783.78
482.27	1691.62
482.47	1742.82
482.67	1771.49
482.87	1767.40
483.07	1816.55
483.28	1769.44
483.48	1648.61
483.68	1730.53
483.88	1642.47
484.08	1628.14
484.29	1654.76
484.49	1710.05
484.69	1656.81
484.89	1808.36
485.09	1853.41
485.29	1779.68
485.50	1708.01
485.70	1757.16
485.90	1806.31
486.10	1748.97
486.30	1800.16
486.50	1767.40
486.71	1759.21
486.91	1783.78
487.11	1882.08
487.31	1724.39
487.51	1779.68
487.71	1687.53
487.91	1652.71
488.12	1662.95
488.32	1591.27
488.52	1708.01
488.72	1652.71
488.92	1681.38
489.12	1765.35
489.32	1896.42
489.53	1779.68
489.73	1691.62
489.93	1849.32
490.13	1744.87
490.33	1665.00
490.53	1763.30
490.73	1865.70
490.94	1667.05
491.14	1849.32
491.34	1794.02
491.54	2160.61
491.74	2750.42
491.94	3166.16
492.14	3411.92
492.34	3553.23
492.54	3139.54
492.75	2691.03
492.95	2551.77
493.15	2467.80
493.35	2273.25
493.55	2320.35
493.75	2150.37
493.95	2199.52
494.15	2109.41
494.35	1886.18
494.56	1849.32
494.76	1800.16
494.96	1791.97
495.16	1859.56
495.36	1757.16
495.56	1757.16
495.76	1730.53
495.96	1714.15
496.16	1687.53
496.36	1808.36
496.56	1837.03
496.77	1791.97
496.97	1732.58
497.17	1796.07
497.37	1695.72
497.57	1746.92
497.77	1761.25
497.97	1644.52
498.17	1785.83
498.37	1640.42
498.57	1818.60
498.77	1740.77
498.97	1759.21
499.17	1781.73
499.38	1816.55
499.58	1783.78
499.78	1847.27
499.98	1765.35
500.18	1689.57
500.38	1783.78
500.58	1855.46
500.78	2430.94
500.98	4591.55
501.18	6522.78
501.38	8234.88
501.58	9092.98
501.78	8861.56
501.98	6852.50
502.18	5918.63
502.38	5060.53
502.58	4577.21
502.78	4224.96
502.98	3991.49
503.18	3962.82
503.38	3446.73
503.59	3086.29
503.79	2951.12
503.99	2623.45
504.19	2473.95
504.39	2312.16
504.59	2342.88
504.79	2273.25
504.99	2269.15
505.19	1990.63
505.39	1937.38
505.59	2023.39
505.79	1964.00
505.99	1886.18
506.19	1906.66
506.39	1925.09
506.59	1728.49
506.79	1849.32
506.99	1800.16
507.19	1710.05
507.39	1781.73
507.59	1654.76
507.79	1646.57
507.99	1638.38
508.19	1675.24
508.39	1732.58
508.59	1611.75
508.79	1914.85
508.99	1845.22
509.19	1662.95
509.39	1791.97
509.59	1673.19
509.79	1675.24
509.99	1806.31
510.19	1746.92
510.39	1740.77
510.59	1671.14
510.79	1697.77
510.99	1712.10
511.19	1775.59
511.39	1865.70
511.59	1869.80
511.79	1861.60
511.99	1730.53
512.19	1861.60
512.38	1677.29
512.58	1728.49
512.78	1708.01
512.98	1767.40
513.18	1828.84
513.38	1673.19
513.58	1753.06
513.78	1734.63
513.98	1722.34
514.18	1720.29
514.38	1695.72
514.58	1796.07
514.78	1722.34
514.98	1644.52
515.18	1757.16
515.38	1683.43
515.58	1812.45
515.78	1746.92
515.98	1722.34
516.18	1763.30
516.38	1736.68
516.57	1675.24
516.77	1716.20
516.97	1658.85
517.17	1730.53
517.37	1693.67
517.57	1798.12
517.77	1751.01
517.97	1705.96
518.17	1826.79
518.37	1751.01
518.57	1775.59
518.77	1652.71
518.97	1675.24
519.16	1744.87
519.36	1787.88
519.56	1699.81
519.76	1701.86
519.96	1820.64
520.16	1810.40
520.36	1667.05
520.56	1832.93
520.76	1751.01
520.96	1726.44
521.16	1789.92
521.35	1920.99
521.55	1896.42
521.75	1791.97
521.95	1757.16
522.15	1685.48
522.35	1705.96
522.55	1714.15
522.75	1720.29
522.95	1738.73
523.14	1652.71
523.34	1804.26
523.54	1742.82
523.74	1791.97
523.94	1693.67
524.14	1654.76
524.34	1818.60
524.54	1863.65
524.73	1734.63
524.93	1732.58
525.13	1716.20
525.33	1705.96
525.53	1839.08
525.73	1779.68
525.93	1761.25
526.13	1746.92
526.32	1634.28
526.52	1796.07
526.72	1775.59
526.92	1736.68
527.12	1761.25
527.32	1728.49
527.52	1765.35
527.71	1751.01
527.91	1732.58
528.11	1683.43
528.31	1662.95
528.51	1705.96
528.71	1736.68
528.90	1751.01
529.10	1789.92
529.30	1828.84
529.50	1587.18
529.70	1689.57
529.90	1697.77
530.09	1638.38
530.29	1687.53
530.49	1728.49
530.69	1855.46
530.89	1722.34
531.09	1824.74
531.28	1710.05
531.48	1763.30
531.68	1810.40
531.88	1769.44
532.08	1777.64
532.28	1771.49
532.47	1796.07
532.67	1808.36
532.87	1746.92
533.07	1746.92
533.27	1759.21
533.46	1783.78
533.66	1714.15
533.86	1759.21
534.06	1691.62
534.26	1732.58
534.45	1726.44
534.65	1759.21
534.85	1755.11
535.05	1679.33
535.25	1789.92
535.44	1652.71
535.64	1687.53
535.84	1738.73
536.04	1736.68
536.24	1665.00
536.43	1644.52
536.63	1748.97
536.83	1701.86
537.03	1714.15
537.22	1644.52
537.42	1607.66
537.62	1720.29
537.82	1757.16
538.02	1847.27
538.21	1822.69
538.41	1884.13
538.61	1730.53
538.81	1732.58
539.00	1826.79
539.20	1730.53
539.40	1691.62
539.60	1714.15
539.79	1783.78
539.99	1720.29
540.19	1677.29
540.39	1720.29
540.58	1845.22
540.78	1812.45
540.98	1722.34
541.18	1720.29
541.37	1771.49
541.57	1693.67
541.77	1812.45
541.97	1714.15
542.16	1617.90
542.36	1679.33
542.56	1720.29
542.76	1814.50
542.95	1857.51
543.15	1761.25
543.35	1730.53
543.54	1710.05
543.74	1708.01
543.94	1808.36
544.14	1753.06
544.33	1777.64
544.53	1759.21
544.73	1757.16
544.93	1716.20
545.12	1726.44
545.32	1789.92
545.52	1728.49
545.71	1716.20
545.91	1726.44
546.11	1753.06
546.30	1714.15
546.50	1753.06
546.70	1787.88
546.90	1732.58
547.09	1605.61
547.29	1785.83
547.49	1777.64
547.68	1761.25
547.88	1681.38
548.08	1744.87
548.27	2250.72
548.47	1701.86
548.67	1705.96
548.87	1710.05
549.06	1701.86
549.26	1732.58
549.46	1708.01
549.65	1716.20
549.85	1720.29
550.05	1738.73
550.24	1628.14
550.44	1748.97
550.64	1738.73
550.83	1730.53
551.03	1839.08
551.23	1748.97
551.42	1820.64
551.62	1714.15
551.82	1757.16
552.01	1710.05
552.21	1777.64
552.41	1751.01
552.60	1796.07
552.80	1669.09
553.00	1740.77
553.19	1718.25
553.39	1855.46
553.59	1705.96
553.78	1810.40
553.98	1742.82
554.17	1652.71
554.37	1718.25
554.57	1787.88
554.76	1683.43
554.96	1742.82
555.16	1769.44
555.35	1787.88
555.55	1789.92
555.75	1730.53
555.94	1769.44
556.14	1673.19
556.33	1804.26
556.53	1673.19
556.73	1783.78
556.92	1853.41
557.12	1804.26
557.32	1826.79
557.51	1861.60
557.71	1853.41
557.90	1798.12
558.10	1861.60
558.30	1755.11
558.49	1703.91
558.69	1744.87
558.88	1781.73
559.08	1732.58
559.28	1732.58
559.47	1724.39
559.67	1796.07
559.86	1886.18
560.06	1763.30
560.26	1669.09
560.45	1722.34
560.65	1763.30
560.84	1767.40
561.04	1677.29
561.24	1771.49
561.43	1689.57
561.63	1767.40
561.82	1742.82
562.02	1726.44
562.22	1689.57
562.41	1763.30
562.61	1697.77
562.80	1675.24
563.00	1888.23
563.19	1732.58
563.39	1769.44
563.59	1755.11
563.78	1669.09
563.98	1646.57
564.17	1697.77
564.37	1636.33
564.56	1697.77
564.76	1652.71
564.96	1816.55
565.15	1710.05
565.35	1914.85
565.54	1744.87
565.74	1812.45
565.93	1712.10
566.13	1755.11
566.32	1724.39
566.52	1908.71
566.71	1779.68
566.91	1806.31
567.11	1673.19
567.30	1714.15
567.50	1857.51
567.69	1804.26
567.89	1783.78
568.08	1716.20
568.28	1734.63
568.47	1630.18
568.67	1794.02
568.86	1665.00
569.06	1873.89
569.25	1712.10
569.45	1685.48
569.64	1726.44
569.84	1753.06
570.04	1767.40
570.23	1677.29
570.43	1779.68
570.62	1781.73
570.82	1859.56
571.01	1683.43
571.21	1689.57
571.40	1710.05
571.60	1859.56
571.79	1800.16
571.99	1736.68
572.18	1697.77
572.38	1800.16
572.57	1755.11
572.77	1697.77
572.96	1867.75
573.16	1748.97
573.35	1714.15
573.55	1884.13
573.74	1720.29
573.94	1722.34
574.13	1816.55
574.33	1759.21
574.52	1777.64
574.71	1822.69
574.91	1769.44
575.10	1619.94
575.30	1685.48
575.49	1724.39
575.69	1669.09
575.88	1830.88
576.08	1769.44
576.27	1964.00
576.47	1806.31
576.66	1855.46
576.86	1877.99
577.05	1804.26
577.25	1837.03
577.44	1834.98
577.64	1734.63
577.83	1794.02
578.02	1755.11
578.22	1918.95
578.41	1863.65
578.61	1812.45
578.80	1705.96
579.00	1755.11
579.19	1761.25
579.39	1816.55
579.58	1751.01
579.77	1773.54
579.97	1746.92
580.16	1822.69
580.36	1775.59
580.55	1871.84
580.75	1759.21
580.94	1759.21
581.13	1884.13
581.33	1820.64
581.52	1681.38
581.72	1771.49
581.91	1888.23
582.11	1734.63
582.30	1882.08
582.49	1888.23
582.69	1851.36
582.88	1822.69
583.08	1787.88
583.27	1810.40
583.47	1847.27
583.66	1763.30
583.85	1757.16
584.05	1859.56
584.24	1767.40
584.44	1738.73
584.63	1902.56
584.82	1828.84
585.02	1894.37
585.21	1955.81
585.41	1912.80
585.60	1884.13
585.79	2021.35
585.99	1978.34
586.18	1939.43
586.37	2156.51
586.57	3379.15
586.76	10022.76
586.96	27113.06
587.15	42229.12
587.34	51748.07
587.54	58432.64
587.73	56136.87
587.93	40396.18
588.12	29732.41
588.31	23781.01
588.51	20623.05
588.70	18673.38
588.89	17137.40
589.09	15689.49
589.28	13668.14
589.47	11394.90
589.67	9570.16
589.86	7552.91
590.06	5275.57
590.25	4122.56
590.44	3190.74
590.64	2668.50
590.83	2279.39
591.02	2119.65
591.22	1951.71
591.41	1875.94
591.60	1877.99
591.80	1918.95
591.99	1783.78
592.18	1765.35
592.38	1892.32
592.57	1841.12
592.76	1740.77
592.96	1853.41
593.15	1734.63
593.34	1845.22
593.54	1724.39
593.73	1867.75
593.92	1808.36
594.12	1900.52
594.31	1880.04
594.50	1929.19
594.70	1812.45
594.89	1925.09
595.08	1769.44
595.28	1798.12
595.47	2000.87
595.66	1814.50
595.86	1705.96
596.05	1755.11
596.24	1777.64
596.43	1802.21
596.63	1880.04
596.82	1818.60
597.01	1832.93
597.21	1849.32
597.40	1810.40
597.59	1744.87
597.79	1808.36
597.98	1841.12
598.17	1802.21
598.36	1757.16
598.56	1763.30
598.75	1699.81
598.94	1812.45
599.14	1794.02
599.33	1708.01
599.52	1853.41
599.71	1794.02
599.91	1740.77
600.10	1759.21
600.29	1759.21
600.48	1781.73
600.68	1787.88
600.87	1765.35
601.06	1705.96
601.26	1746.92
601.45	1767.40
601.64	1781.73
601.83	1812.45
602.03	1748.97
602.22	1685.48
602.41	1855.46
602.60	1853.41
602.80	1828.84
602.99	1746.92
603.18	1755.11
603.37	1724.39
603.57	1806.31
603.76	1765.35
603.95	1814.50
604.14	1720.29
604.34	1701.86
604.53	1708.01
604.72	1757.16
604.91	1765.35
605.10	1759.21
605.30	1665.00
605.49	1865.70
605.68	1740.77
605.87	1828.84
606.07	1677.29
606.26	1718.25
606.45	1677.29
606.64	1742.82
606.84	1716.20
607.03	1722.34
607.22	1781.73
607.41	1728.49
607.60	1781.73
607.80	1853.41
607.99	1744.87
608.18	1787.88
608.37	1726.44
608.56	1701.86
608.76	1769.44
608.95	1820.64
609.14	1853.41
609.33	1869.80
609.52	1951.71
609.72	1892.32
609.91	1814.50
610.10	1751.01
610.29	1824.74
610.48	1748.97
610.68	1779.68
610.87	1761.25
611.06	1826.79
611.25	1712.10
611.44	1884.13
611.63	1726.44
611.83	1767.40
612.02	1685.48
612.21	1855.46
612.40	1626.09
612.59	1656.81
612.79	1716.20
612.98	1775.59
613.17	1802.21
613.36	1783.78
613.55	1814.50
613.74	1847.27
613.93	1939.43
614.13	1961.95
614.32	1920.99
614.51	1947.62
614.70	1972.19
614.89	1798.12
615.08	1818.60
615.28	2045.92
615.47	1767.40
615.66	1726.44
615.85	1800.16
616.04	2000.87
616.23	1783.78
616.42	1794.02
616.62	1771.49
616.81	1822.69
617.00	1785.83
617.19	1802.21
617.38	1765.35
617.57	1714.15
617.76	1837.03
617.95	1734.63
618.15	1787.88
618.34	1898.47
618.53	1695.72
618.72	1761.25
618.91	1773.54
619.10	1853.41
619.29	1806.31
619.48	1783.78
619.68	1574.89
619.87	1798.12
620.06	1650.66
620.25	1757.16
620.44	1748.97
620.63	1681.38
620.82	1710.05
621.01	1804.26
621.20	1804.26
621.39	1830.88
621.59	1660.90
621.78	1697.77
621.97	1697.77
622.16	1773.54
622.35	1822.69
622.54	1783.78
622.73	1765.35
622.92	1619.94
623.11	1849.32
623.30	1691.62
623.49	1767.40
623.68	1630.18
623.88	1783.78
624.07	1728.49
624.26	1656.81
624.45	1671.14
624.64	1712.10
624.83	1724.39
625.02	1757.16
625.21	1765.35
625.40	1734.63
625.59	1767.40
625.78	1738.73
625.97	1753.06
626.16	1865.70
626.35	1843.17
626.54	1773.54
626.74	1902.56
626.93	1738.73
627.12	1738.73
627.31	1859.56
627.50	1806.31
627.69	1886.18
627.88	1671.14
628.07	1681.38
628.26	1685.48
628.45	1646.57
628.64	1810.40
628.83	1695.72
629.02	1667.05
629.21	1775.59
629.40	1665.00
629.59	1708.01
629.78	1712.10
629.97	1765.35
630.16	1796.07
630.35	1701.86
630.54	1796.07
630.73	1794.02
630.92	1724.39
631.11	1736.68
631.30	1732.58
631.49	1779.68
631.68	1665.00
631.87	1728.49
632.06	1716.20
632.25	1914.85
632.44	1746.92
632.63	1796.07
632.82	1773.54
633.01	1818.60
633.20	1849.32
633.39	1808.36
633.58	1839.08
633.77	1767.40
633.96	1783.78
634.15	1804.26
634.34	1826.79
634.53	1820.64
634.72	1781.73
634.91	1646.57
635.10	1767.40
635.29	1810.40
635.48	1777.64
635.67	1662.95
635.86	1667.05
636.05	1839.08
636.24	1751.01
636.43	1757.16
636.62	1755.11
636.81	1570.79
637.00	1689.57
637.19	1720.29
637.38	1771.49
637.57	1654.76
637.76	1822.69
637.95	1855.46
638.14	1785.83
638.33	1785.83
638.52	1810.40
638.71	1701.86
638.89	1718.25
639.08	1886.18
639.27	1837.03
639.46	1902.56
639.65	2211.81
639.84	2281.44
640.03	2389.98
640.22	2318.30
640.41	2451.42
640.60	2019.30
640.79	2045.92
640.98	1898.47
641.17	1935.33
641.36	1933.28
641.55	1935.33
641.74	1816.55
641.92	1814.50
642.11	1767.40
642.30	1755.11
642.49	1736.68
642.68	1738.73
642.87	1736.68
643.06	1798.12
643.25	1732.58
643.44	1699.81
643.63	1697.77
643.82	1863.65
644.00	1691.62
644.19	1693.67
644.38	1617.90
644.57	1763.30
644.76	1642.47
644.95	1699.81
645.14	1708.01
645.33	1632.23
645.52	1681.38
645.71	1642.47
645.89	1687.53
646.08	1771.49
646.27	1671.14
646.46	1843.17
646.65	1665.00
646.84	1718.25
647.03	1691.62
647.22	1775.59
647.40	1748.97
647.59	1648.61
647.78	1650.66
647.97	1667.05
648.16	1689.57
648.35	1757.16
648.54	1765.35
648.73	1693.67
648.91	1689.57
649.10	1746.92
649.29	1699.81
649.48	1685.48
649.67	1742.82
649.86	1734.63
650.05	1810.40
650.23	1964.00
650.42	1812.45
650.61	1968.10
650.80	1947.62
650.99	1957.86
651.18	1845.22
651.36	1832.93
651.55	1740.77
651.74	1806.31
651.93	1718.25
652.12	1755.11
652.31	1808.36
652.49	1693.67
652.68	1746.92
652.87	1857.51
653.06	1759.21
653.25	1896.42
653.44	1767.40
653.62	1789.92
653.81	1685.48
654.00	1748.97
654.19	1697.77
654.38	1892.32
654.56	1753.06
654.75	1712.10
654.94	1845.22
655.13	1722.34
655.32	1716.20
655.51	1804.26
655.69	1714.15
655.88	1685.48
656.07	1609.70
656.26	1714.15
656.45	1632.23
656.63	1732.58
656.82	1757.16
657.01	1771.49
657.20	1652.71
657.38	1765.35
657.57	1710.05
657.76	1724.39
657.95	1726.44
658.14	1697.77
658.32	1708.01
658.51	1697.77
658.70	1660.90
658.89	1728.49
659.08	1746.92
659.26	1773.54
659.45	1677.29
659.64	1738.73
659.83	1732.58
660.01	2004.96
660.20	1824.74
660.39	1841.12
660.58	1583.08
660.76	1787.88
660.95	1671.14
661.14	1775.59
661.33	1677.29
661.51	1703.91
661.70	1695.72
661.89	1732.58
662.08	1753.06
662.26	1611.75
662.45	1705.96
662.64	1820.64
662.83	1751.01
663.01	1691.62
663.20	1624.04
663.39	1804.26
663.58	1662.95
663.76	1740.77
663.95	1763.30
664.14	1744.87
664.32	1681.38
664.51	1648.61
664.70	1654.76
664.89	1730.53
665.07	1679.33
665.26	1800.16
665.45	1665.00
665.64	1816.55
665.82	1734.63
666.01	1802.21
666.20	1718.25
666.38	1779.68
666.57	1794.02
666.76	2176.99
666.95	4571.07
667.13	11579.22
667.32	18179.82
667.51	22183.60
667.69	25177.73
667.88	25396.86
668.07	19885.78
668.25	14202.66
668.44	11784.01
668.63	9809.77
668.81	8671.10
669.00	7763.85
669.19	6991.77
669.38	6191.01
669.56	5504.94
669.75	4579.26
669.94	3758.02
670.12	3131.34
670.31	2705.37
670.50	2369.50
670.68	2103.26
670.87	1984.48
671.06	1961.95
671.24	1900.52
671.43	1904.61
671.62	1796.07
671.80	1800.16
671.99	1837.03
672.18	1818.60
672.36	1798.12
672.55	1701.86
672.74	1732.58
672.92	1791.97
673.11	1779.68
673.29	1685.48
673.48	1761.25
673.67	1734.63
673.85	1820.64
674.04	1755.11
674.23	1806.31
674.41	1771.49
674.60	1689.57
674.79	1619.94
674.97	1673.19
675.16	1855.46
675.34	1810.40
675.53	1683.43
675.72	1789.92
675.90	1847.27
676.09	1689.57
676.28	1753.06
676.46	1681.38
676.65	1769.44
676.83	1646.57
677.02	1658.85
677.21	1722.34
677.39	1748.97
677.58	1628.14
677.77	1671.14
677.95	1720.29
678.14	1667.05
678.32	1640.42
678.51	1640.42
678.70	1757.16
678.88	1662.95
679.07	1779.68
679.25	1703.91
679.44	1730.53
679.63	1636.33
679.81	1714.15
680.00	1751.01
680.18	1730.53
680.37	1853.41
680.55	1767.40
680.74	1644.52
680.93	1630.18
681.11	1720.29
681.30	1734.63
681.48	1787.88
681.67	1734.63
681.85	1744.87
682.04	1693.67
682.23	1794.02
682.41	1757.16
682.60	1652.71
682.78	1685.48
682.97	1685.48
683.15	1689.57
683.34	1802.21
683.53	1820.64
683.71	1703.91
683.90	1789.92
684.08	1857.51
684.27	1763.30
684.45	1734.63
684.64	1775.59
684.82	1587.18
685.01	1798.12
685.19	1665.00
685.38	1798.12
685.57	1734.63
685.75	1673.19
685.94	1761.25
686.12	1624.04
686.31	1746.92
686.49	1828.84
686.68	1609.70
686.86	1703.91
687.05	1714.15
687.23	1873.89
687.42	1732.58
687.60	1638.38
687.79	1759.21
687.97	1779.68
688.16	1783.78
688.34	1763.30
688.53	1591.27
688.71	1755.11
688.90	1783.78
689.08	1662.95
689.27	1656.81
689.45	1697.77
689.64	1761.25
689.82	1724.39
690.01	1746.92
690.19	1791.97
690.38	1761.25
690.56	1771.49
690.75	1693.67
690.93	1626.09
691.12	1650.66
691.30	1759.21
691.49	1687.53
691.67	1755.11
691.86	1898.47
692.04	1675.24
692.23	1732.58
692.41	1730.53
692.60	1914.85
692.78	1908.71
692.97	1779.68
693.15	1818.60
693.34	1875.94
693.52	1787.88
693.71	1660.90
693.89	1722.34
694.08	1605.61
694.26	1798.12
694.44	1845.22
694.63	1732.58
694.81	1730.53
695.00	1732.58
695.18	1697.77
695.37	1900.52
695.55	1722.34
695.74	1697.77
695.92	1681.38
696.10	1748.97
696.29	1605.61
696.47	1724.39
696.66	1665.00
696.84	1685.48
697.03	1724.39
697.21	1824.74
697.40	2283.49
697.58	1726.44
697.76	1675.24
697.95	1624.04
698.13	1665.00
698.32	1677.29
698.50	1738.73
698.68	1814.50
698.87	1748.97
699.05	1765.35
699.24	1718.25
699.42	1630.18
699.61	1726.44
699.79	1703.91
699.97	1755.11
700.16	1654.76
700.34	1738.73
700.53	1773.54
700.71	1804.26
700.89	1751.01
701.08	1624.04
701.26	1730.53
701.45	2119.65
701.63	1662.95
701.81	1675.24
702.00	1652.71
702.18	1673.19
702.37	1755.11
702.55	1882.08
702.73	1892.32
702.92	1849.32
703.10	2047.97
703.28	1974.24
703.47	1804.26
703.65	1912.80
703.84	1933.28
704.02	1716.20
704.20	1871.84
704.39	1802.21
704.57	1849.32
704.75	1812.45
704.94	1777.64
705.12	1761.25
705.30	1855.46
705.49	2473.95
705.67	5447.60
705.86	13266.74
706.04	19392.22
706.22	22734.50
706.41	24966.79
706.59	24587.91
706.77	18935.52
706.96	13739.82
707.14	11841.36
707.32	10151.78
707.51	8966.01
707.69	7907.21
707.87	6801.30
708.06	5531.56
708.24	4505.53
708.42	3315.66
708.61	2815.96
708.79	2156.51
708.97	2023.39
709.16	1925.09
709.34	1869.80
709.52	1814.50
709.71	1810.40
709.89	1769.44
710.07	1740.77
710.26	1613.80
710.44	1724.39
710.62	1841.12
710.80	1796.07
710.99	1796.07
711.17	1826.79
711.35	1669.09
711.54	1724.39
711.72	1767.40
711.90	1771.49
712.09	1681.38
712.27	1681.38
712.45	1767.40
712.63	1681.38
712.82	1732.58
713.00	1656.81
713.18	1820.64
713.37	1724.39
713.55	1773.54
713.73	1789.92
713.91	1779.68
714.10	1775.59
714.28	1769.44
714.46	1693.67
714.65	1681.38
714.83	1738.73
715.01	1708.01
715.19	1648.61
715.38	1605.61
715.56	1791.97
715.74	1683.43
715.92	1695.72
716.11	1816.55
716.29	1599.46
716.47	1708.01
716.65	1751.01
716.84	1669.09
717.02	1841.12
717.20	1607.66
717.38	1675.24
717.57	1724.39
717.75	1669.09
717.93	1675.24
718.11	1705.96
718.30	1607.66
718.48	1740.77
718.66	1683.43
718.84	1775.59
719.03	1701.86
719.21	1646.57
719.39	1902.56
719.57	1763.30
719.75	1734.63
719.94	1732.58
720.12	1681.38
720.30	1667.05
720.48	1751.01
720.67	1779.68
720.85	1652.71
721.03	1697.77
721.21	1673.19
721.39	1783.78
721.58	1720.29
721.76	1626.09
721.94	1783.78
722.12	1779.68
722.30	1759.21
722.49	1701.86
722.67	1765.35
722.85	1703.91
723.03	1585.13
723.21	1654.76
723.40	1710.05
723.58	1804.26
723.76	1728.49
723.94	1855.46
724.12	1808.36
724.30	1820.64
724.49	1841.12
724.67	1771.49
724.85	1804.26
725.03	1714.15
725.21	1744.87
725.40	1859.56
725.58	1689.57
725.76	1789.92
725.94	1724.39
726.12	1714.15
726.30	1693.67
726.49	1683.43
726.67	1777.64
726.85	1718.25
727.03	1796.07
727.21	2228.19
727.39	3438.54
727.57	4861.88
727.76	5666.73
727.94	6084.52
728.12	6432.67
728.30	5699.50
728.48	4499.39
728.66	3964.87
728.84	3532.75
729.03	3176.40
729.21	2807.77
729.39	2435.03
729.57	2154.46
729.75	2082.78
729.93	1910.75
730.11	1818.60
730.30	1615.85
730.48	1728.49
730.66	1783.78
730.84	1787.88
731.02	1761.25
731.20	1595.37
731.38	1718.25
731.56	1714.15
731.74	1671.14
731.93	1738.73
732.11	1636.33
732.29	1665.00
732.47	1814.50
732.65	1734.63
732.83	1775.59
733.01	1708.01
733.19	1634.28
733.37	1738.73
733.56	1775.59
733.74	1681.38
733.92	1812.45
734.10	1667.05
734.28	1779.68
734.46	1648.61
734.64	1744.87
734.82	1720.29
735.00	1677.29
735.18	1683.43
735.36	1806.31
735.54	1736.68
735.73	1759.21
735.91	1714.15
736.09	1781.73
736.27	1648.61
736.45	1736.68
736.63	1650.66
736.81	1740.77
736.99	1746.92
737.17	1822.69
737.35	1708.01
737.53	1767.40
737.71	1722.34
737.89	1724.39
738.07	1728.49
738.25	1665.00
738.43	1626.09
738.61	1669.09
738.80	1624.04
738.98	1675.24
739.16	1724.39
739.34	1617.90
739.52	1863.65
739.70	1755.11
739.88	1767.40
740.06	1775.59
740.24	1538.02
740.42	1767.40
740.60	1673.19
740.78	1665.00
740.96	1646.57
741.14	1671.14
741.32	1757.16
741.50	1644.52
741.68	1787.88
741.86	1802.21
742.04	1601.51
742.22	1687.53
742.40	1746.92
742.58	1802.21
742.76	1656.81
742.94	1742.82
743.12	1652.71
743.30	1757.16
743.48	1742.82
743.66	1656.81
743.84	1652.71
744.02	1685.48
744.20	1722.34
744.38	1648.61
744.56	1757.16
744.74	1812.45
744.92	1718.25
745.10	1806.31
745.28	1712.10
745.46	1773.54
745.64	1775.59
745.82	1816.55
746.00	1720.29
746.18	1724.39
746.36	1689.57
746.54	1720.29
746.72	1757.16
746.90	1671.14
747.08	1779.68
747.26	1644.52
747.44	1763.30
747.62	1791.97
747.80	1703.91
747.98	1800.16
748.15	1689.57
748.33	1824.74
748.51	1722.34
748.69	1871.84
748.87	1601.51
749.05	1665.00
749.23	1646.57
749.41	1775.59
749.59	1669.09
749.77	1763.30
749.95	1726.44
750.13	1689.57
750.31	1751.01
750.49	1695.72
750.67	1761.25
750.85	1787.88
751.03	1751.01
751.20	1841.12
751.38	1724.39
751.56	1646.57
751.74	1708.01
751.92	1708.01
752.10	1640.42
752.28	1796.07
752.46	1699.81
752.64	1687.53
752.82	1677.29
753.00	1720.29
753.18	1730.53
753.35	1636.33
753.53	1665.00
753.71	1685.48
753.89	1720.29
754.07	1773.54
754.25	1751.01
754.43	1732.58
754.61	1683.43
754.79	1806.31
754.97	1710.05
755.14	1812.45
755.32	1634.28
755.50	1716.20
755.68	1787.88
755.86	1691.62
756.04	1656.81
756.22	1578.98
756.40	1759.21
756.57	1779.68
756.75	1638.38
756.93	1826.79
757.11	1742.82
757.29	1685.48
757.47	1714.15
757.65	1658.85
757.82	1634.28
758.00	1722.34
758.18	1710.05
758.36	1746.92
758.54	1816.55
758.72	1583.08
758.90	1744.87
759.07	1742.82
759.25	1708.01
759.43	1677.29
759.61	1628.14
759.79	2154.46
759.97	1783.78
760.15	1687.53
760.32	1705.96
760.50	1757.16
760.68	1755.11
760.86	1683.43
761.04	1767.40
761.22	1791.97
761.39	1679.33
761.57	1771.49
761.75	1660.90
761.93	1697.77
762.11	1665.00
762.28	1734.63
762.46	1644.52
762.64	1738.73
762.82	1671.14
763.00	1644.52
763.18	1759.21
763.35	1613.80
763.53	1746.92
763.71	1744.87
763.89	1763.30
764.07	1775.59
764.24	1701.86
764.42	1830.88
764.60	1636.33
764.78	1748.97
764.96	1789.92
765.13	1675.24
765.31	1722.34
765.49	1796.07
765.67	1578.98
765.84	1679.33
766.02	1605.61
766.20	1642.47
766.38	1683.43
766.56	1732.58
766.73	1669.09
766.91	1648.61
767.09	1710.05
767.27	1763.30
767.44	1652.71
767.62	1687.53
767.80	1648.61
767.98	1677.29
768.15	1673.19
768.33	1824.74
768.51	1708.01
768.69	1757.16
768.87	1794.02
769.04	1785.83
769.22	1820.64
769.40	1861.60
769.58	1941.47
769.75	1775.59
769.93	1708.01
770.11	1642.47
770.28	1689.57
770.46	1742.82
770.64	1714.15
770.82	1695.72
770.99	1671.14
771.17	1796.07
771.35	1746.92
771.53	1669.09
771.70	1730.53
771.88	1730.53
772.06	1712.10
772.23	1636.33
772.41	1738.73
772.59	1681.38
772.77	1673.19
772.94	1701.86
773.12	1699.81
773.30	1667.05
773.47	1615.85
773.65	1701.86
773.83	1789.92
774.01	1722.34
774.18	1605.61
774.36	1705.96
774.54	1679.33
774.71	1695.72
774.89	1626.09
775.07	1626.09
775.24	1591.27
775.42	1652.71
775.60	1812.45
775.78	1720.29
775.95	1617.90
776.13	1683.43
776.31	1587.18
776.48	1714.15
776.66	1742.82
776.84	1656.81
777.01	1640.42
777.19	1677.29
777.37	1644.52
777.54	1759.21
777.72	1726.44
777.90	1701.86
778.07	1730.53
778.25	1947.62
778.43	1804.26
778.60	1712.10
778.78	1685.48
778.96	1744.87
779.13	1705.96
779.31	1804.26
779.49	1710.05
779.66	1656.81
779.84	1718.25
780.01	1691.62
780.19	1601.51
780.37	1812.45
780.54	1742.82
780.72	1681.38
780.90	1689.57
781.07	1697.77
781.25	1697.77
781.43	1755.11
781.60	1695.72
781.78	1767.40
781.95	1800.16
782.13	1714.15
782.31	1650.66
782.48	1574.89
782.66	1734.63
782.83	1847.27
783.01	1726.44
783.19	1748.97
783.36	1650.66
783.54	1675.24
783.72	1755.11
783.89	1693.67
784.07	1701.86
784.24	1759.21
784.42	1677.29
784.60	1640.42
784.77	1738.73
784.95	1642.47
785.12	1703.91
785.30	1712.10
785.47	1652.71
785.65	1642.47
785.83	1732.58
786.00	1681.38
786.18	1718.25
786.35	1714.15
786.53	1665.00
786.71	1800.16
786.88	1746.92
787.06	1705.96
787.23	1751.01
787.41	1677.29
787.58	1755.11
787.76	1652.71
787.94	1757.16
788.11	1658.85
788.29	1617.90
788.46	1705.96
788.64	1712.10
788.81	1669.09
788.99	1763.30
789.16	1611.75
789.34	1730.53
789.52	1685.48
789.69	1728.49
789.87	1544.17
790.04	1646.57
790.22	1722.34
790.39	1873.89
790.57	1673.19
790.74	1785.83
790.92	1804.26
791.09	1671.14
791.27	1624.04
791.44	1699.81
791.62	1636.33
791.79	1695.72
791.97	1701.86
792.15	1951.71
792.32	1683.43
792.50	1751.01
792.67	1837.03
792.85	1781.73
793.02	1748.97
793.20	1714.15
793.37	1648.61
793.55	1716.20
793.72	1609.70
793.90	1746.92
794.07	1630.18
794.25	1591.27
794.42	1667.05
794.60	1689.57
794.77	1697.77
794.95	1794.02
795.12	1800.16
795.30	1710.05
795.47	1581.03
795.65	1910.75
795.82	1703.91
796.00	1619.94
796.17	1720.29
796.34	1689.57
796.52	1734.63
796.69	1746.92
796.87	1720.29
797.04	1753.06
797.22	1697.77
797.39	1736.68
797.57	1736.68
797.74	1730.53
797.92	1703.91
798.09	1613.80
798.27	1789.92
798.44	1685.48
798.62	1634.28
798.79	1755.11
798.96	1683.43
799.14	1640.42
799.31	1871.84
799.49	1759.21
799.66	1685.48
799.84	1714.15
800.01	1611.75
800.19	1722.34
800.36	1597.42
800.53	1736.68
800.71	1738.73
800.88	1785.83
801.06	1628.14
801.23	1644.52
801.41	1683.43
801.58	1742.82
801.75	1634.28
801.93	1681.38
802.10	1738.73
802.28	1691.62
802.45	1742.82
802.63	1765.35
802.80	1759.21
802.97	1740.77
803.15	1703.91
803.32	1714.15
803.50	1710.05
803.67	1660.90
803.84	1615.85
804.02	1693.67
804.19	1675.24
804.37	1626.09
804.54	1640.42
804.71	1722.34
804.89	1644.52
805.06	1613.80
805.24	1638.38
805.41	1691.62
805.58	1763.30
805.76	1867.75
805.93	1677.29
806.10	1802.21
806.28	1789.92
806.45	1779.68
806.63	1732.58
806.80	1712.10
806.97	1724.39
807.15	1751.01
807.32	1726.44
807.49	1724.39
807.67	1650.66
807.84	1738.73
808.01	1626.09
808.19	1834.98
808.36	1837.03
808.54	1638.38
808.71	1679.33
808.88	1740.77
809.06	1804.26
809.23	1744.87
809.40	1599.46
809.58	1726.44
809.75	1712.10
809.92	1665.00
810.10	1898.47
810.27	1669.09
810.44	1710.05
810.62	1722.34
810.79	1689.57
810.96	1673.19
811.14	1714.15
811.31	1742.82
811.48	1689.57
811.66	1701.86
811.83	1765.35
812.00	1746.92
812.18	1757.16
812.35	1863.65
812.52	1716.20
812.69	1681.38
812.87	1658.85
813.04	1687.53
813.21	1683.43
813.39	1671.14
813.56	1619.94
813.73	1798.12
813.91	1654.76
814.08	1665.00
814.25	1679.33
814.42	1667.05
814.60	1646.57
814.77	1667.05
814.94	1705.96
815.12	1705.96
815.29	1757.16
815.46	1759.21
815.63	1738.73
815.81	1665.00
815.98	1722.34
816.15	1683.43
816.33	1685.48
816.50	1722.34
816.67	1757.16
816.84	1662.95
817.02	1712.10
817.19	1746.92
817.36	1759.21
817.53	1658.85
817.71	1617.90
817.88	1718.25
818.05	1724.39
818.22	1691.62
818.40	1849.32
818.57	1705.96
818.74	1767.40
818.91	1716.20
819.09	1738.73
819.26	1742.82
819.43	1601.51
819.60	1726.44
819.78	1685.48
819.95	1773.54
820.12	1677.29
820.29	1718.25
820.47	1732.58
820.64	1736.68
820.81	1654.76
820.98	1667.05
821.15	1673.19
821.33	1736.68
821.50	1636.33
821.67	1722.34
821.84	1755.11
822.02	1726.44
822.19	1755.11
822.36	1687.53
822.53	1693.67
822.70	1726.44
822.88	1730.53
823.05	1796.07
823.22	1624.04
823.39	1740.77
823.56	1775.59
823.74	1732.58
823.91	1669.09
824.08	1705.96
824.25	1671.14
824.42	1845.22
824.60	1722.34
824.77	1726.44
824.94	1640.42
825.11	1673.19
825.28	1621.99
825.45	1640.42
825.63	1771.49
825.80	1626.09
825.97	1712.10
826.14	1695.72
826.31	1589.22
826.48	1736.68
826.66	1679.33
826.83	1650.66
827.00	1751.01
827.17	1593.32
827.34	1738.73
827.51	1648.61
827.69	1677.29
827.86	1587.18
828.03	1675.24
828.20	1675.24
828.37	1732.58
828.54	1736.68
828.71	1691.62
828.89	1804.26
829.06	1667.05
829.23	1734.63
829.40	1679.33
829.57	1724.39
829.74	1722.34
829.91	1636.33
830.09	1671.14
830.26	1759.21
830.43	1789.92
830.60	1687.53
830.77	1769.44
830.94	1796.07
831.11	1748.97
831.28	1652.71
831.46	1734.63
831.63	1652.71
831.80	1691.62
831.97	1671.14
832.14	1681.38
832.31	1697.77
832.48	1720.29
832.65	1714.15
832.82	1675.24
832.99	1742.82
833.17	1693.67
833.34	1748.97
833.51	1701.86
833.68	1615.85
833.85	1763.30
834.02	1624.04
834.19	1656.81
834.36	1581.03
834.53	1673.19
834.70	1781.73
834.87	1796.07
835.04	1691.62
835.22	1710.05
835.39	1701.86
835.56	1703.91
835.73	1697.77
835.90	1744.87
836.07	1652.71
836.24	1755.11
836.41	1697.77
836.58	1714.15
836.75	1732.58
836.92	1732.58
837.09	1693.67
837.26	1708.01
837.43	1714.15
837.60	1701.86
837.77	1679.33
837.94	1773.54
838.12	1789.92
838.29	1716.20
838.46	1574.89
838.63	1654.76
838.80	1781.73
838.97	1781.73
839.14	1726.44
839.31	1658.85
839.48	1724.39
839.65	1638.38
839.82	1753.06
839.99	1710.05
840.16	1769.44
840.33	1646.57
840.50	1689.57
840.67	1665.00
840.84	1605.61
841.01	1683.43
841.18	1652.71
841.35	1687.53
841.52	1765.35
841.69	1861.60
841.86	1744.87
842.03	1722.34
842.20	1806.31
842.37	1746.92
842.54	1621.99
842.71	1736.68
842.88	1603.56
843.05	1703.91
843.22	1714.15
843.39	1738.73
843.56	1617.90
843.73	1681.38
843.90	1720.29
844.07	1656.81
844.24	1671.14
844.41	1771.49
844.58	1730.53
844.75	1794.02
844.92	1769.44
845.09	1701.86
845.26	1654.76
845.43	1718.25
845.60	1781.73
845.77	1728.49
845.94	1734.63
846.10	1763.30
846.27	1656.81
846.44	1667.05
846.61	1609.70
846.78	1673.19
846.95	1822.69
847.12	1722.34
847.29	1738.73
847.46	1693.67
847.63	1800.16
847.80	1683.43
847.97	1667.05
848.14	1822.69
848.31	1701.86
848.48	1656.81
848.65	1697.77
848.82	1652.71
848.98	1765.35
849.15	1763.30
849.32	1779.68
849.49	1738.73
849.66	1609.70
849.83	1732.58
850.00	1636.33
850.17	1763.30
850.34	1740.77
850.51	1753.06
850.68	1665.00
850.85	1857.51
851.01	1607.66
851.18	1701.86
851.35	1699.81
851.52	1761.25
851.69	1789.92
851.86	1599.46
852.03	1732.58
852.20	1753.06
852.37	1673.19
852.53	1652.71
852.70	1697.77
852.87	1652.71
853.04	1699.81
853.21	1654.76
853.38	1777.64
853.55	1773.54
853.72	1830.88
853.89	1673.19
854.05	1619.94
854.22	1673.19
854.39	1712.10
854.56	1738.73
854.73	1810.40
854.90	1703.91
855.07	1712.10
855.23	1685.48
855.40	1763.30
855.57	1689.57
855.74	1615.85
855.91	1920.99
856.08	1642.47
856.25	1667.05
856.41	1683.43
856.58	1683.43
856.75	1775.59
856.92	1673.19
857.09	1787.88
857.26	1656.81
857.42	1636.33
857.59	1710.05
857.76	1667.05
857.93	1738.73
858.10	1728.49
858.27	1630.18
858.43	1773.54
858.60	1597.42
858.77	1630.18
858.94	1718.25
859.11	1744.87
859.27	1708.01
859.44	1720.29
859.61	1861.60
859.78	1712.10
859.95	1646.57
860.12	1615.85
860.28	1890.28
860.45	1720.29
860.62	1662.95
860.79	1730.53
860.95	1732.58
861.12	1619.94
861.29	1681.38
861.46	1619.94
861.63	1710.05
861.79	1708.01
861.96	1624.04
862.13	1613.80
862.30	1775.59
862.47	1667.05
862.63	1626.09
862.80	1820.64
862.97	1775.59
863.14	1781.73
863.30	1683.43
863.47	1667.05
863.64	1714.15
863.81	1705.96
863.97	1701.86
864.14	1712.10
864.31	1665.00
864.48	1724.39
864.65	1679.33
864.81	1744.87
864.98	1701.86
865.15	1785.83
865.32	1839.08
865.48	1769.44
865.65	1736.68
865.82	1755.11
865.98	1765.35
866.15	1775.59
866.32	1744.87
866.49	1697.77
866.65	1767.40
866.82	1652.71
866.99	1699.81
867.16	1671.14
867.32	1619.94
867.49	1703.91
867.66	1681.38
867.83	1591.27
867.99	1673.19
868.16	1705.96
868.33	1640.42
868.49	1642.47
868.66	1701.86
868.83	1736.68
868.99	1720.29
869.16	1681.38
869.33	1794.02
869.50	1789.92
869.66	1677.29
869.83	1646.57
870.00	1662.95
870.16	1763.30
870.33	1609.70
870.50	1746.92
870.66	1746.92
870.83	1855.46
871.00	1716.20
871.17	1732.58
871.33	1675.24
871.50	1671.14
871.67	1730.53
871.83	1671.14
872.00	1777.64
872.17	1691.62
872.33	1818.60
872.50	1742.82
872.67	1693.67
872.83	1705.96
873.00	1753.06
873.17	1570.79
873.33	1748.97
873.50	1771.49
873.67	1652.71
873.83	1693.67
874.00	1695.72
874.16	1724.39
874.33	1746.92
874.50	1656.81
874.66	1703.91
874.83	1701.86
875.00	1812.45
875.16	1732.58
875.33	1732.58
875.50	1695.72
875.66	1642.47
875.83	1648.61
875.99	1802.21
876.16	1759.21
876.33	1634.28
876.49	1679.33
876.66	1765.35
876.83	1574.89
876.99	1679.33
877.16	1699.81
877.32	1640.42
877.49	1609.70
877.66	1705.96
877.82	1765.35
877.99	1724.39
878.15	1755.11
878.32	1597.42
878.49	1722.34
878.65	1621.99
878.82	1777.64
878.98	1689.57
879.15	1810.40
879.32	1787.88
879.48	1789.92
879.65	1728.49
879.81	1669.09
879.98	1617.90
880.15	1705.96
880.31	1800.16
880.48	1640.42
880.64	1742.82
880.81	1744.87
880.97	1820.64
881.14	1718.25
881.31	1673.19
881.47	1802.21
881.64	1671.14
881.80	1667.05
881.97	1720.29
882.13	1751.01
882.30	1558.50
882.47	1652.71
882.63	1759.21
882.80	1689.57
882.96	1705.96
883.13	1724.39
883.29	1656.81
883.46	1730.53
883.62	1857.51
883.79	1681.38
883.95	1722.34
884.12	1693.67
884.29	1761.25
884.45	1677.29
884.62	1744.87
884.78	1671.14
884.95	1726.44
885.11	1701.86
885.28	1724.39
885.44	1650.66
885.61	1710.05
885.77	1734.63
885.94	1724.39
886.10	1718.25
886.27	1716.20
886.43	1806.31
886.60	1736.68
886.76	1685.48
886.93	1679.33
887.09	1755.11
887.26	1615.85
887.42	1695.72
887.59	1656.81
887.75	1886.18
887.92	1697.77
888.08	1777.64
888.25	1779.68
888.41	1751.01
888.58	1781.73
888.74	1640.42
888.91	1744.87
>>>>>End Processed Spectral Data<<<<<
