SpectraSuite Data File
++++++++++++++++++++++++++++++++++++
Date: Wed May 04 18:44:20 CEST 2016
User: root
Dark Spectrum Present: No
Reference Spectrum Present: No
Number of Sampled Component Spectra: 1
Spectrometers: USB4C02835
Integration Time (usec): 100000 (USB4C02835)
Spectra Averaged: 1 (USB4C02835)
Boxcar Smoothing: 0 (USB4C02835)
Correct for Electrical Dark: No (USB4C02835)
Strobe/Lamp Enabled: No (USB4C02835)
Correct for Detector Non-linearity: No (USB4C02835)
Correct for Stray Light: No (USB4C02835)
Number of Pixels in Processed Spectrum: 3648
>>>>>Begin Processed Spectral Data<<<<<
177.47	1449.96
177.69	1449.96
177.91	1449.96
178.13	1538.02
178.36	1527.78
178.58	1593.32
178.80	1656.81
179.02	1619.94
179.24	1593.32
179.46	1742.82
179.68	1671.14
179.90	1662.95
180.13	1740.77
180.35	1638.38
180.57	1673.19
180.79	1691.62
181.01	1732.58
181.23	1755.11
181.45	1667.05
181.67	1720.29
181.90	1687.53
182.12	1691.62
182.34	1652.71
182.56	1714.15
182.78	1683.43
183.00	1730.53
183.22	1697.77
183.44	1607.66
183.66	1841.12
183.89	1759.21
184.11	1734.63
184.33	1751.01
184.55	1855.46
184.77	1732.58
184.99	1738.73
185.21	1691.62
185.43	1869.80
185.65	1701.86
185.87	1746.92
186.10	1789.92
186.32	1927.14
186.54	1718.25
186.76	1744.87
186.98	1839.08
187.20	1708.01
187.42	1650.66
187.64	1718.25
187.86	1728.49
188.08	1724.39
188.30	1693.67
188.52	1644.52
188.75	1810.40
188.97	1810.40
189.19	1660.90
189.41	1691.62
189.63	1753.06
189.85	1695.72
190.07	1621.99
190.29	1624.04
190.51	1705.96
190.73	1644.52
190.95	1857.51
191.17	1738.73
191.39	1638.38
191.61	1677.29
191.84	1654.76
192.06	1701.86
192.28	1658.85
192.50	1851.36
192.72	1757.16
192.94	1763.30
193.16	1726.44
193.38	1685.48
193.60	1675.24
193.82	1656.81
194.04	1775.59
194.26	1742.82
194.48	1712.10
194.70	1714.15
194.92	1656.81
195.14	1705.96
195.36	1697.77
195.58	1730.53
195.80	1738.73
196.02	1677.29
196.24	1658.85
196.46	1648.61
196.69	1710.05
196.91	1857.51
197.13	1705.96
197.35	1712.10
197.57	1853.41
197.79	1730.53
198.01	1677.29
198.23	1751.01
198.45	1716.20
198.67	1601.51
198.89	1722.34
199.11	1746.92
199.33	1650.66
199.55	1609.70
199.77	1697.77
199.99	1771.49
200.21	1763.30
200.43	1748.97
200.65	1687.53
200.87	1558.50
201.09	1791.97
201.31	1732.58
201.53	1769.44
201.75	1759.21
201.97	1767.40
202.19	1738.73
202.41	1775.59
202.63	1714.15
202.85	1746.92
203.07	1701.86
203.29	1703.91
203.51	1611.75
203.73	1699.81
203.95	1845.22
204.17	1732.58
204.39	1746.92
204.61	1660.90
204.83	1744.87
205.05	1724.39
205.27	1818.60
205.49	1800.16
205.71	1748.97
205.93	1662.95
206.15	1644.52
206.37	1662.95
206.59	1734.63
206.81	1677.29
207.03	1691.62
207.25	1705.96
207.47	1744.87
207.69	1726.44
207.91	1882.08
208.13	1771.49
208.34	1609.70
208.56	1677.29
208.78	1746.92
209.00	1667.05
209.22	1714.15
209.44	1714.15
209.66	1683.43
209.88	1728.49
210.10	1703.91
210.32	1644.52
210.54	1806.31
210.76	1738.73
210.98	1748.97
211.20	1591.27
211.42	1757.16
211.64	1773.54
211.86	1726.44
212.08	1751.01
212.30	1740.77
212.52	1689.57
212.74	1658.85
212.96	1724.39
213.17	1742.82
213.39	1757.16
213.61	1849.32
213.83	1742.82
214.05	1705.96
214.27	1767.40
214.49	1683.43
214.71	1609.70
214.93	1787.88
215.15	1708.01
215.37	1675.24
215.59	1685.48
215.81	1787.88
216.03	1736.68
216.24	1705.96
216.46	1689.57
216.68	1734.63
216.90	1751.01
217.12	1761.25
217.34	1777.64
217.56	1710.05
217.78	1738.73
218.00	1691.62
218.22	1763.30
218.44	1808.36
218.66	1683.43
218.87	1855.46
219.09	1638.38
219.31	1746.92
219.53	1675.24
219.75	1691.62
219.97	1574.89
220.19	1765.35
220.41	1697.77
220.63	1718.25
220.85	1791.97
221.06	1712.10
221.28	1738.73
221.50	1732.58
221.72	1691.62
221.94	1665.00
222.16	1683.43
222.38	1718.25
222.60	1777.64
222.82	1605.61
223.03	1826.79
223.25	1701.86
223.47	1697.77
223.69	1896.42
223.91	1665.00
224.13	1673.19
224.35	1697.77
224.57	1812.45
224.78	1759.21
225.00	1583.08
225.22	1751.01
225.44	1681.38
225.66	1785.83
225.88	1652.71
226.10	1685.48
226.32	1671.14
226.53	1814.50
226.75	1650.66
226.97	1671.14
227.19	1748.97
227.41	1662.95
227.63	1656.81
227.85	1599.46
228.06	1611.75
228.28	1722.34
228.50	1769.44
228.72	1683.43
228.94	1619.94
229.16	1624.04
229.37	1701.86
229.59	1630.18
229.81	1832.93
230.03	1673.19
230.25	1677.29
230.47	1714.15
230.69	1609.70
230.90	1759.21
231.12	1658.85
231.34	1710.05
231.56	1767.40
231.78	1675.24
232.00	1759.21
232.21	1710.05
232.43	1683.43
232.65	1591.27
232.87	1761.25
233.09	1757.16
233.30	1595.37
233.52	1773.54
233.74	1734.63
233.96	1716.20
234.18	1798.12
234.40	1697.77
234.61	1826.79
234.83	1677.29
235.05	1675.24
235.27	1871.84
235.49	1763.30
235.70	1703.91
235.92	1816.55
236.14	1755.11
236.36	1910.75
236.58	1648.61
236.79	1730.53
237.01	1775.59
237.23	1714.15
237.45	1845.22
237.67	1669.09
237.88	1701.86
238.10	1742.82
238.32	1656.81
238.54	1638.38
238.76	1640.42
238.97	1681.38
239.19	1679.33
239.41	1742.82
239.63	1779.68
239.85	1699.81
240.06	1703.91
240.28	1685.48
240.50	1718.25
240.72	1658.85
240.93	1665.00
241.15	1763.30
241.37	1683.43
241.59	1751.01
241.81	1716.20
242.02	1771.49
242.24	1802.21
242.46	1751.01
242.68	1699.81
242.89	1746.92
243.11	1791.97
243.33	1677.29
243.55	1759.21
243.76	1734.63
243.98	1677.29
244.20	1722.34
244.42	1730.53
244.64	1734.63
244.85	1640.42
245.07	1652.71
245.29	1572.84
245.51	1632.23
245.72	1714.15
245.94	1744.87
246.16	1767.40
246.38	1720.29
246.59	1671.14
246.81	1734.63
247.03	1583.08
247.24	1585.13
247.46	1791.97
247.68	1681.38
247.90	1679.33
248.11	1730.53
248.33	1732.58
248.55	1730.53
248.77	1720.29
248.98	1693.67
249.20	1728.49
249.42	1705.96
249.64	1738.73
249.85	1691.62
250.07	1673.19
250.29	1783.78
250.50	1812.45
250.72	1632.23
250.94	1718.25
251.16	1818.60
251.37	1771.49
251.59	1716.20
251.81	1732.58
252.02	1880.04
252.24	1669.09
252.46	1775.59
252.68	1701.86
252.89	1628.14
253.11	1533.93
253.33	1718.25
253.54	1822.69
253.76	1699.81
253.98	1716.20
254.20	1689.57
254.41	1619.94
254.63	1665.00
254.85	1679.33
255.06	1660.90
255.28	1689.57
255.50	1607.66
255.71	1708.01
255.93	1658.85
256.15	1712.10
256.36	1789.92
256.58	1636.33
256.80	1863.65
257.02	1730.53
257.23	1716.20
257.45	1705.96
257.67	1693.67
257.88	1710.05
258.10	1701.86
258.32	1712.10
258.53	1738.73
258.75	1740.77
258.97	1656.81
259.18	1748.97
259.40	1710.05
259.62	1880.04
259.83	1755.11
260.05	1781.73
260.27	1984.48
260.48	1808.36
260.70	1693.67
260.92	1720.29
261.13	1669.09
261.35	1818.60
261.57	1687.53
261.78	1644.52
262.00	1673.19
262.22	1730.53
262.43	1675.24
262.65	1615.85
262.86	1660.90
263.08	1871.84
263.30	1769.44
263.51	1644.52
263.73	1644.52
263.95	1759.21
264.16	1638.38
264.38	1665.00
264.60	1656.81
264.81	1646.57
265.03	1732.58
265.25	1791.97
265.46	1691.62
265.68	1757.16
265.89	1695.72
266.11	1630.18
266.33	1734.63
266.54	1775.59
266.76	1656.81
266.98	1746.92
267.19	1755.11
267.41	1708.01
267.62	1652.71
267.84	1665.00
268.06	1757.16
268.27	1736.68
268.49	1771.49
268.70	1701.86
268.92	1722.34
269.14	1630.18
269.35	1581.03
269.57	1667.05
269.79	1738.73
270.00	1751.01
270.22	1789.92
270.43	1697.77
270.65	1609.70
270.87	1775.59
271.08	1791.97
271.30	1748.97
271.51	1802.21
271.73	1673.19
271.95	1769.44
272.16	1716.20
272.38	1767.40
272.59	1644.52
272.81	1775.59
273.02	1742.82
273.24	1732.58
273.46	1642.47
273.67	1701.86
273.89	1683.43
274.10	1673.19
274.32	1791.97
274.54	1714.15
274.75	1744.87
274.97	1646.57
275.18	1732.58
275.40	1722.34
275.61	1646.57
275.83	1646.57
276.05	1617.90
276.26	1699.81
276.48	1652.71
276.69	1667.05
276.91	1757.16
277.12	1779.68
277.34	1718.25
277.55	1705.96
277.77	1669.09
277.99	1746.92
278.20	1509.35
278.42	1710.05
278.63	1617.90
278.85	1665.00
279.06	1648.61
279.28	1705.96
279.49	1783.78
279.71	1726.44
279.93	1705.96
280.14	1705.96
280.36	1624.04
280.57	1667.05
280.79	1824.74
281.00	1650.66
281.22	1693.67
281.43	1757.16
281.65	1591.27
281.86	1683.43
282.08	1738.73
282.29	1820.64
282.51	1624.04
282.73	1695.72
282.94	1624.04
283.16	1673.19
283.37	1757.16
283.59	1718.25
283.80	1785.83
284.02	1751.01
284.23	1712.10
284.45	1613.80
284.66	1646.57
284.88	1669.09
285.09	1734.63
285.31	1732.58
285.52	1712.10
285.74	1652.71
285.95	1781.73
286.17	1697.77
286.38	1775.59
286.60	1699.81
286.81	1720.29
287.03	1732.58
287.24	1705.96
287.46	1732.58
287.67	1728.49
287.89	1779.68
288.10	1677.29
288.32	1665.00
288.53	1798.12
288.75	1685.48
288.96	1802.21
289.18	1671.14
289.39	1673.19
289.61	1759.21
289.82	1816.55
290.04	1837.03
290.25	1677.29
290.47	1732.58
290.68	1701.86
290.90	1761.25
291.11	1634.28
291.33	1753.06
291.54	1679.33
291.76	1656.81
291.97	1701.86
292.18	1724.39
292.40	1673.19
292.61	1607.66
292.83	1869.80
293.04	1708.01
293.26	1714.15
293.47	1656.81
293.69	1665.00
293.90	1673.19
294.12	1714.15
294.33	1648.61
294.55	1632.23
294.76	1765.35
294.97	1826.79
295.19	1796.07
295.40	1652.71
295.62	1714.15
295.83	1787.88
296.05	1675.24
296.26	1714.15
296.48	1658.85
296.69	1742.82
296.90	1722.34
297.12	1773.54
297.33	1697.77
297.55	1701.86
297.76	1757.16
297.98	1718.25
298.19	1720.29
298.41	1705.96
298.62	1675.24
298.83	1783.78
299.05	1777.64
299.26	1689.57
299.48	1748.97
299.69	1718.25
299.90	1689.57
300.12	1705.96
300.33	1796.07
300.55	1712.10
300.76	1787.88
300.98	1550.31
301.19	1755.11
301.40	1617.90
301.62	1640.42
301.83	1732.58
302.05	1753.06
302.26	1775.59
302.47	1763.30
302.69	1626.09
302.90	1681.38
303.12	1652.71
303.33	1777.64
303.54	1839.08
303.76	1609.70
303.97	1703.91
304.19	1824.74
304.40	1599.46
304.61	1652.71
304.83	1816.55
305.04	1755.11
305.26	1755.11
305.47	1675.24
305.68	1708.01
305.90	1714.15
306.11	1726.44
306.33	1724.39
306.54	1636.33
306.75	1630.18
306.97	1640.42
307.18	1705.96
307.39	1621.99
307.61	1769.44
307.82	1705.96
308.04	1691.62
308.25	1726.44
308.46	1765.35
308.68	1697.77
308.89	1753.06
309.10	1775.59
309.32	1746.92
309.53	1748.97
309.74	1699.81
309.96	1687.53
310.17	1740.77
310.39	1626.09
310.60	1806.31
310.81	1695.72
311.03	1705.96
311.24	1710.05
311.45	1724.39
311.67	1816.55
311.88	1660.90
312.09	1677.29
312.31	1642.47
312.52	1738.73
312.73	1787.88
312.95	1687.53
313.16	1681.38
313.37	1783.78
313.59	1697.77
313.80	1734.63
314.01	1789.92
314.23	1710.05
314.44	1691.62
314.65	1673.19
314.87	1646.57
315.08	1705.96
315.29	1677.29
315.51	1775.59
315.72	1605.61
315.93	1781.73
316.15	1738.73
316.36	1697.77
316.57	1718.25
316.79	1742.82
317.00	1683.43
317.21	1791.97
317.43	1699.81
317.64	1742.82
317.85	1599.46
318.07	1705.96
318.28	1796.07
318.49	1890.28
318.70	1923.04
318.92	1900.52
319.13	1935.33
319.34	1955.81
319.56	1859.56
319.77	1867.75
319.98	1869.80
320.20	1814.50
320.41	1828.84
320.62	1738.73
320.83	1648.61
321.05	1853.41
321.26	1736.68
321.47	1748.97
321.69	1662.95
321.90	1691.62
322.11	1746.92
322.32	1773.54
322.54	1783.78
322.75	1691.62
322.96	1845.22
323.18	1716.20
323.39	1578.98
323.60	1673.19
323.81	1744.87
324.03	1699.81
324.24	1660.90
324.45	1660.90
324.66	1683.43
324.88	1841.12
325.09	1804.26
325.30	1685.48
325.52	1724.39
325.73	1710.05
325.94	1712.10
326.15	1599.46
326.37	1656.81
326.58	1826.79
326.79	1785.83
327.00	1648.61
327.22	1785.83
327.43	1734.63
327.64	1650.66
327.85	1763.30
328.07	1656.81
328.28	1730.53
328.49	1671.14
328.70	1685.48
328.92	1689.57
329.13	1660.90
329.34	1777.64
329.55	1865.70
329.76	1775.59
329.98	1730.53
330.19	1779.68
330.40	1718.25
330.61	1699.81
330.83	1681.38
331.04	1662.95
331.25	1734.63
331.46	1712.10
331.68	1665.00
331.89	1736.68
332.10	1724.39
332.31	1605.61
332.52	1767.40
332.74	1771.49
332.95	1669.09
333.16	1673.19
333.37	1791.97
333.58	1640.42
333.80	1771.49
334.01	1632.23
334.22	1744.87
334.43	1652.71
334.64	1712.10
334.86	1660.90
335.07	1640.42
335.28	1824.74
335.49	1654.76
335.70	1738.73
335.92	1759.21
336.13	1726.44
336.34	1748.97
336.55	1751.01
336.76	1701.86
336.98	1574.89
337.19	1687.53
337.40	1806.31
337.61	1814.50
337.82	1689.57
338.04	1753.06
338.25	1640.42
338.46	1699.81
338.67	1748.97
338.88	1734.63
339.09	1718.25
339.31	1640.42
339.52	1722.34
339.73	1667.05
339.94	1722.34
340.15	1777.64
340.36	1675.24
340.58	1755.11
340.79	1644.52
341.00	1755.11
341.21	1648.61
341.42	1806.31
341.63	1771.49
341.85	1755.11
342.06	1755.11
342.27	1636.33
342.48	1693.67
342.69	1601.51
342.90	1703.91
343.12	1738.73
343.33	1656.81
343.54	1816.55
343.75	1765.35
343.96	1759.21
344.17	1738.73
344.38	1630.18
344.60	1701.86
344.81	1677.29
345.02	1675.24
345.23	1802.21
345.44	1865.70
345.65	1816.55
345.86	1712.10
346.07	1708.01
346.29	1705.96
346.50	1732.58
346.71	1832.93
346.92	1834.98
347.13	1849.32
347.34	1751.01
347.55	1710.05
347.76	1687.53
347.98	1701.86
348.19	1644.52
348.40	1789.92
348.61	1632.23
348.82	1761.25
349.03	1669.09
349.24	1722.34
349.45	1791.97
349.66	1593.32
349.88	1673.19
350.09	1691.62
350.30	1755.11
350.51	1839.08
350.72	1703.91
350.93	1714.15
351.14	1677.29
351.35	1812.45
351.56	1714.15
351.77	1679.33
351.99	1734.63
352.20	1796.07
352.41	1738.73
352.62	1597.42
352.83	1689.57
353.04	1714.15
353.25	1630.18
353.46	1800.16
353.67	1722.34
353.88	1560.55
354.09	1708.01
354.30	1734.63
354.52	1710.05
354.73	1699.81
354.94	1730.53
355.15	1665.00
355.36	1849.32
355.57	1701.86
355.78	1708.01
355.99	1636.33
356.20	1660.90
356.41	1824.74
356.62	1808.36
356.83	1650.66
357.04	1710.05
357.25	1626.09
357.46	1736.68
357.68	1665.00
357.89	1660.90
358.10	1726.44
358.31	1742.82
358.52	1665.00
358.73	1546.22
358.94	1621.99
359.15	1701.86
359.36	1757.16
359.57	1695.72
359.78	1695.72
359.99	1751.01
360.20	1660.90
360.41	1710.05
360.62	1714.15
360.83	1730.53
361.04	1691.62
361.25	1632.23
361.46	1777.64
361.67	1755.11
361.88	1816.55
362.09	1763.30
362.30	1826.79
362.51	1726.44
362.72	1726.44
362.93	1708.01
363.14	1746.92
363.35	1753.06
363.56	1615.85
363.78	1734.63
363.99	1718.25
364.20	1732.58
364.41	1710.05
364.62	1834.98
364.83	1677.29
365.04	1759.21
365.25	1722.34
365.46	1863.65
365.67	1646.57
365.88	1677.29
366.09	1705.96
366.30	1755.11
366.51	1738.73
366.72	1599.46
366.93	1748.97
367.14	1726.44
367.35	1798.12
367.56	1734.63
367.77	1828.84
367.98	1710.05
368.18	1773.54
368.39	1783.78
368.60	1730.53
368.81	1765.35
369.02	1759.21
369.23	1708.01
369.44	1615.85
369.65	1705.96
369.86	1691.62
370.07	1710.05
370.28	1681.38
370.49	1734.63
370.70	1763.30
370.91	1605.61
371.12	1640.42
371.33	1726.44
371.54	1722.34
371.75	1861.60
371.96	1621.99
372.17	1665.00
372.38	1703.91
372.59	1789.92
372.80	1652.71
373.01	1730.53
373.22	1783.78
373.43	1656.81
373.64	1677.29
373.85	1822.69
374.06	1785.83
374.26	1746.92
374.47	1724.39
374.68	1794.02
374.89	1777.64
375.10	1767.40
375.31	1783.78
375.52	1757.16
375.73	1703.91
375.94	1685.48
376.15	1769.44
376.36	1642.47
376.57	1648.61
376.78	1679.33
376.99	1742.82
377.20	1810.40
377.40	1644.52
377.61	1779.68
377.82	1693.67
378.03	1755.11
378.24	1783.78
378.45	1685.48
378.66	1712.10
378.87	1589.22
379.08	1611.75
379.29	1712.10
379.50	1822.69
379.71	1691.62
379.91	1787.88
380.12	1695.72
380.33	1765.35
380.54	1673.19
380.75	1722.34
380.96	1722.34
381.17	1765.35
381.38	1802.21
381.59	1697.77
381.80	1757.16
382.00	1802.21
382.21	1832.93
382.42	1873.89
382.63	1970.15
382.84	1753.06
383.05	1716.20
383.26	1841.12
383.47	1718.25
383.68	1769.44
383.88	1832.93
384.09	1744.87
384.30	1859.56
384.51	1810.40
384.72	1724.39
384.93	1638.38
385.14	1746.92
385.35	1800.16
385.55	1650.66
385.76	1751.01
385.97	1734.63
386.18	1626.09
386.39	1705.96
386.60	1619.94
386.81	1708.01
387.02	1710.05
387.22	1660.90
387.43	1873.89
387.64	1818.60
387.85	1857.51
388.06	2230.24
388.27	4739.00
388.48	9205.62
388.68	11775.82
388.89	13668.14
389.10	14085.93
389.31	12040.01
389.52	9768.81
389.73	8466.30
389.93	8107.91
390.14	7157.65
390.35	6659.99
390.56	6096.80
390.77	4902.84
390.98	4032.45
391.18	3065.81
391.39	2428.89
391.60	1943.52
391.81	1845.22
392.02	1705.96
392.23	1929.19
392.43	1722.34
392.64	1744.87
392.85	1689.57
393.06	1771.49
393.27	1695.72
393.47	1681.38
393.68	1675.24
393.89	1624.04
394.10	1789.92
394.31	1687.53
394.52	1691.62
394.72	1677.29
394.93	1888.23
395.14	1621.99
395.35	1820.64
395.56	1656.81
395.76	1724.39
395.97	1828.84
396.18	1886.18
396.39	1877.99
396.60	2072.54
396.80	1978.34
397.01	1828.84
397.22	1941.47
397.43	1818.60
397.64	1746.92
397.84	1787.88
398.05	1837.03
398.26	1763.30
398.47	1753.06
398.67	1816.55
398.88	1789.92
399.09	1691.62
399.30	1714.15
399.51	1755.11
399.71	1681.38
399.92	1724.39
400.13	1632.23
400.34	1742.82
400.54	1798.12
400.75	1837.03
400.96	1720.29
401.17	1800.16
401.37	1800.16
401.58	1691.62
401.79	1781.73
402.00	1867.75
402.21	2039.78
402.41	2107.36
402.62	2164.70
402.83	2127.84
403.04	2078.69
403.24	2172.89
403.45	1841.12
403.66	2023.39
403.87	1863.65
404.07	1892.32
404.28	2013.15
404.49	1955.81
404.70	1808.36
404.90	1742.82
405.11	1720.29
405.32	1773.54
405.52	1679.33
405.73	1708.01
405.94	1681.38
406.15	1708.01
406.35	1798.12
406.56	1751.01
406.77	1697.77
406.98	1779.68
407.18	1701.86
407.39	1837.03
407.60	1757.16
407.80	1742.82
408.01	1673.19
408.22	1728.49
408.43	1720.29
408.63	1751.01
408.84	1740.77
409.05	1742.82
409.25	1736.68
409.46	1626.09
409.67	1685.48
409.88	1691.62
410.08	1671.14
410.29	1671.14
410.50	1783.78
410.70	1718.25
410.91	1654.76
411.12	1691.62
411.32	1703.91
411.53	1732.58
411.74	1880.04
411.95	1837.03
412.15	1812.45
412.36	1873.89
412.57	1800.16
412.77	1824.74
412.98	1755.11
413.19	1714.15
413.39	1765.35
413.60	1742.82
413.81	1720.29
414.01	1662.95
414.22	1734.63
414.43	1816.55
414.63	1677.29
414.84	1755.11
415.05	1652.71
415.25	1667.05
415.46	1859.56
415.67	1695.72
415.87	1761.25
416.08	1718.25
416.29	1667.05
416.49	1724.39
416.70	1726.44
416.91	1685.48
417.11	1802.21
417.32	1759.21
417.53	1816.55
417.73	1779.68
417.94	1718.25
418.15	1730.53
418.35	1730.53
418.56	1730.53
418.77	1837.03
418.97	1671.14
419.18	1710.05
419.38	1605.61
419.59	1722.34
419.80	1845.22
420.00	1716.20
420.21	1683.43
420.42	1744.87
420.62	1769.44
420.83	1595.37
421.04	1683.43
421.24	1667.05
421.45	1710.05
421.65	1740.77
421.86	1730.53
422.07	1730.53
422.27	1783.78
422.48	1783.78
422.69	1697.77
422.89	1757.16
423.10	1699.81
423.30	1693.67
423.51	1714.15
423.72	1697.77
423.92	1820.64
424.13	1632.23
424.33	1716.20
424.54	1738.73
424.75	1748.97
424.95	1785.83
425.16	1767.40
425.36	1669.09
425.57	1681.38
425.78	1814.50
425.98	1822.69
426.19	1609.70
426.39	1632.23
426.60	1796.07
426.81	1806.31
427.01	1744.87
427.22	1644.52
427.42	1656.81
427.63	1691.62
427.83	1746.92
428.04	1734.63
428.25	1703.91
428.45	1837.03
428.66	1785.83
428.86	1656.81
429.07	1669.09
429.28	1734.63
429.48	1705.96
429.69	1675.24
429.89	1736.68
430.10	1665.00
430.30	1757.16
430.51	1812.45
430.71	1687.53
430.92	1687.53
431.13	1701.86
431.33	1806.31
431.54	1738.73
431.74	1820.64
431.95	1851.36
432.15	1683.43
432.36	1767.40
432.56	1812.45
432.77	1796.07
432.98	1843.17
433.18	1724.39
433.39	1712.10
433.59	1687.53
433.80	1832.93
434.00	1841.12
434.21	1634.28
434.41	1648.61
434.62	1832.93
434.82	1722.34
435.03	1693.67
435.23	1722.34
435.44	1587.18
435.64	1806.31
435.85	1847.27
436.06	1796.07
436.26	1689.57
436.47	1748.97
436.67	1654.76
436.88	1720.29
437.08	1775.59
437.29	1826.79
437.49	1757.16
437.70	1789.92
437.90	1699.81
438.11	1867.75
438.31	1796.07
438.52	1843.17
438.72	1841.12
438.93	2000.87
439.13	1834.98
439.34	1853.41
439.54	1787.88
439.75	1771.49
439.95	1822.69
440.16	1722.34
440.36	1779.68
440.57	1779.68
440.77	1814.50
440.98	1775.59
441.18	1755.11
441.39	1716.20
441.59	1726.44
441.80	1873.89
442.00	1716.20
442.21	1873.89
442.41	1626.09
442.62	1730.53
442.82	1705.96
443.02	1718.25
443.23	1779.68
443.43	1779.68
443.64	1869.80
443.84	1748.97
444.05	1816.55
444.25	1718.25
444.46	1730.53
444.66	1710.05
444.87	1804.26
445.07	1697.77
445.28	1740.77
445.48	1789.92
445.69	1779.68
445.89	1910.75
446.09	1771.49
446.30	1980.39
446.50	2629.59
446.71	4237.25
446.91	5246.90
447.12	5789.61
447.32	6098.85
447.53	5380.01
447.73	4499.39
447.93	3905.48
448.14	3686.34
448.34	3471.31
448.55	3102.67
448.75	3211.22
448.96	3024.85
449.16	2570.20
449.36	2451.42
449.57	2136.03
449.77	1931.23
449.98	1898.47
450.18	1783.78
450.39	1810.40
450.59	1732.58
450.79	1742.82
451.00	1681.38
451.20	1755.11
451.41	1748.97
451.61	1740.77
451.81	1757.16
452.02	1665.00
452.22	1621.99
452.43	1783.78
452.63	1689.57
452.84	1712.10
453.04	1722.34
453.24	1751.01
453.45	1738.73
453.65	1769.44
453.86	1783.78
454.06	1734.63
454.26	1742.82
454.47	1718.25
454.67	1859.56
454.87	1742.82
455.08	1775.59
455.28	1808.36
455.49	1765.35
455.69	1730.53
455.89	1890.28
456.10	1738.73
456.30	1726.44
456.51	1777.64
456.71	1746.92
456.91	1781.73
457.12	1794.02
457.32	1718.25
457.52	1669.09
457.73	1812.45
457.93	1726.44
458.14	1720.29
458.34	1615.85
458.54	1753.06
458.75	1708.01
458.95	1730.53
459.15	1751.01
459.36	1773.54
459.56	1808.36
459.76	1841.12
459.97	1736.68
460.17	1763.30
460.37	1822.69
460.58	1740.77
460.78	1777.64
460.99	1679.33
461.19	1714.15
461.39	1703.91
461.60	1699.81
461.80	1783.78
462.00	1673.19
462.21	1740.77
462.41	1708.01
462.61	1671.14
462.82	1660.90
463.02	1753.06
463.22	1703.91
463.43	1800.16
463.63	1765.35
463.83	1775.59
464.04	1755.11
464.24	1748.97
464.44	1681.38
464.64	1720.29
464.85	1742.82
465.05	1796.07
465.25	1796.07
465.46	1705.96
465.66	1738.73
465.86	1718.25
466.07	1748.97
466.27	1671.14
466.47	1669.09
466.68	1654.76
466.88	1800.16
467.08	1824.74
467.29	1763.30
467.49	1714.15
467.69	1759.21
467.89	1744.87
468.10	1642.47
468.30	1703.91
468.50	1794.02
468.71	1744.87
468.91	1685.48
469.11	1871.84
469.31	1865.70
469.52	1693.67
469.72	1845.22
469.92	1912.80
470.13	1751.01
470.33	1761.25
470.53	1837.03
470.73	2176.99
470.94	2541.53
471.14	2637.78
471.34	3012.56
471.54	2959.31
471.75	2525.15
471.95	2441.18
472.15	2342.88
472.36	2248.67
472.56	2201.57
472.76	2164.70
472.96	2068.45
473.17	2101.22
473.37	2052.06
473.57	1892.32
473.77	1925.09
473.98	1728.49
474.18	1693.67
474.38	1832.93
474.58	1751.01
474.79	1765.35
474.99	1781.73
475.19	1814.50
475.39	1691.62
475.60	1695.72
475.80	1716.20
476.00	1687.53
476.20	1757.16
476.41	1753.06
476.61	1877.99
476.81	1808.36
477.01	1683.43
477.21	1837.03
477.42	1810.40
477.62	1671.14
477.82	1742.82
478.02	1691.62
478.23	1681.38
478.43	1705.96
478.63	1708.01
478.83	1712.10
479.03	1681.38
479.24	1853.41
479.44	1847.27
479.64	1712.10
479.84	1660.90
480.04	1726.44
480.25	1783.78
480.45	1701.86
480.65	1656.81
480.85	1845.22
481.06	1718.25
481.26	1757.16
481.46	1730.53
481.66	1712.10
481.86	1732.58
482.06	1767.40
482.27	1748.97
482.47	1626.09
482.67	1726.44
482.87	1705.96
483.07	1751.01
483.28	1748.97
483.48	1638.38
483.68	1736.68
483.88	1652.71
484.08	1572.84
484.29	1636.33
484.49	1763.30
484.69	1656.81
484.89	1785.83
485.09	1681.38
485.29	1808.36
485.50	1689.57
485.70	1691.62
485.90	1816.55
486.10	1724.39
486.30	1820.64
486.50	1759.21
486.71	1814.50
486.91	1763.30
487.11	1814.50
487.31	1642.47
487.51	1800.16
487.71	1677.29
487.91	1724.39
488.12	1701.86
488.32	1595.37
488.52	1710.05
488.72	1685.48
488.92	1701.86
489.12	1765.35
489.32	1787.88
489.53	1769.44
489.73	1636.33
489.93	1814.50
490.13	1714.15
490.33	1669.09
490.53	1685.48
490.73	1886.18
490.94	1624.04
491.14	1787.88
491.34	1832.93
491.54	2107.36
491.74	2740.18
491.94	3313.61
492.14	3504.07
492.34	3530.70
492.54	3053.52
492.75	2719.70
492.95	2584.54
493.15	2402.27
493.35	2406.36
493.55	2256.86
493.75	2349.02
493.95	2258.91
494.15	2050.02
494.35	2045.92
494.56	1931.23
494.76	1722.34
494.96	1869.80
495.16	1802.21
495.36	1734.63
495.56	1777.64
495.76	1691.62
495.96	1800.16
496.16	1765.35
496.36	1857.51
496.56	1683.43
496.77	1744.87
496.97	1751.01
497.17	1791.97
497.37	1667.05
497.57	1742.82
497.77	1708.01
497.97	1656.81
498.17	1671.14
498.37	1744.87
498.57	1759.21
498.77	1681.38
498.97	1753.06
499.17	1791.97
499.38	1738.73
499.58	1753.06
499.78	1832.93
499.98	1849.32
500.18	1708.01
500.38	1705.96
500.58	1820.64
500.78	2361.31
500.98	4618.17
501.18	6606.75
501.38	8179.59
501.58	9209.72
501.78	8781.69
501.98	6913.94
502.18	5959.59
502.38	5023.67
502.58	4458.43
502.78	4145.09
502.98	3979.20
503.18	3856.33
503.38	3491.79
503.59	3127.25
503.79	2885.59
503.99	2576.34
504.19	2418.65
504.39	2361.31
504.59	2318.30
504.79	2306.01
504.99	2205.66
505.19	2060.26
505.39	2043.87
505.59	2052.06
505.79	1964.00
505.99	1896.42
506.19	1851.36
506.39	1900.52
506.59	1781.73
506.79	1742.82
506.99	1890.28
507.19	1722.34
507.39	1705.96
507.59	1691.62
507.79	1693.67
507.99	1691.62
508.19	1800.16
508.39	1783.78
508.59	1759.21
508.79	1789.92
508.99	1849.32
509.19	1742.82
509.39	1765.35
509.59	1642.47
509.79	1677.29
509.99	1697.77
510.19	1775.59
510.39	1785.83
510.59	1699.81
510.79	1701.86
510.99	1671.14
511.19	1728.49
511.39	1882.08
511.59	1791.97
511.79	1773.54
511.99	1765.35
512.19	1746.92
512.38	1720.29
512.58	1773.54
512.78	1681.38
512.98	1822.69
513.18	1814.50
513.38	1638.38
513.58	1798.12
513.78	1765.35
513.98	1705.96
514.18	1738.73
514.38	1691.62
514.58	1798.12
514.78	1708.01
514.98	1677.29
515.18	1679.33
515.38	1689.57
515.58	1759.21
515.78	1705.96
515.98	1705.96
516.18	1804.26
516.38	1783.78
516.57	1722.34
516.77	1671.14
516.97	1718.25
517.17	1624.04
517.37	1609.70
517.57	1851.36
517.77	1746.92
517.97	1738.73
518.17	1800.16
518.37	1697.77
518.57	1691.62
518.77	1757.16
518.97	1740.77
519.16	1773.54
519.36	1767.40
519.56	1656.81
519.76	1736.68
519.96	1746.92
520.16	1785.83
520.36	1701.86
520.56	1824.74
520.76	1810.40
520.96	1669.09
521.16	1796.07
521.35	1791.97
521.55	1849.32
521.75	1701.86
521.95	1699.81
522.15	1681.38
522.35	1761.25
522.55	1697.77
522.75	1826.79
522.95	1701.86
523.14	1697.77
523.34	1800.16
523.54	1726.44
523.74	1798.12
523.94	1789.92
524.14	1685.48
524.34	1726.44
524.54	1832.93
524.73	1714.15
524.93	1701.86
525.13	1742.82
525.33	1695.72
525.53	1892.32
525.73	1763.30
525.93	1718.25
526.13	1759.21
526.32	1742.82
526.52	1851.36
526.72	1755.11
526.92	1703.91
527.12	1691.62
527.32	1589.22
527.52	1810.40
527.71	1832.93
527.91	1765.35
528.11	1757.16
528.31	1732.58
528.51	1685.48
528.71	1728.49
528.90	1703.91
529.10	1806.31
529.30	1931.23
529.50	1628.14
529.70	1763.30
529.90	1714.15
530.09	1738.73
530.29	1722.34
530.49	1640.42
530.69	1837.03
530.89	1775.59
531.09	1703.91
531.28	1736.68
531.48	1820.64
531.68	1656.81
531.88	1697.77
532.08	1697.77
532.28	1787.88
532.47	1759.21
532.67	1828.84
532.87	1783.78
533.07	1687.53
533.27	1800.16
533.46	1785.83
533.66	1791.97
533.86	1775.59
534.06	1736.68
534.26	1781.73
534.45	1738.73
534.65	1787.88
534.85	1693.67
535.05	1769.44
535.25	1787.88
535.44	1705.96
535.64	1826.79
535.84	1705.96
536.04	1730.53
536.24	1755.11
536.43	1724.39
536.63	1820.64
536.83	1761.25
537.03	1718.25
537.22	1691.62
537.42	1572.84
537.62	1691.62
537.82	1656.81
538.02	1882.08
538.21	1787.88
538.41	1906.66
538.61	1781.73
538.81	1785.83
539.00	1861.60
539.20	1665.00
539.40	1673.19
539.60	1812.45
539.79	1853.41
539.99	1675.24
540.19	1646.57
540.39	1748.97
540.58	1798.12
540.78	1759.21
540.98	1720.29
541.18	1746.92
541.37	1714.15
541.57	1736.68
541.77	1677.29
541.97	1683.43
542.16	1671.14
542.36	1705.96
542.56	1755.11
542.76	1886.18
542.95	1855.46
543.15	1775.59
543.35	1769.44
543.54	1746.92
543.74	1722.34
543.94	1804.26
544.14	1718.25
544.33	1800.16
544.53	1736.68
544.73	1755.11
544.93	1742.82
545.12	1806.31
545.32	1748.97
545.52	1783.78
545.71	1626.09
545.91	1716.20
546.11	1687.53
546.30	1671.14
546.50	1746.92
546.70	1744.87
546.90	1779.68
547.09	1617.90
547.29	1820.64
547.49	1695.72
547.68	1789.92
547.88	1722.34
548.08	1832.93
548.27	2176.99
548.47	1677.29
548.67	1812.45
548.87	1701.86
549.06	1660.90
549.26	1675.24
549.46	1716.20
549.65	1677.29
549.85	1761.25
550.05	1775.59
550.24	1624.04
550.44	1757.16
550.64	1769.44
550.83	1705.96
551.03	1767.40
551.23	1818.60
551.42	1746.92
551.62	1675.24
551.82	1789.92
552.01	1751.01
552.21	1800.16
552.41	1730.53
552.60	1763.30
552.80	1777.64
553.00	1652.71
553.19	1730.53
553.39	1738.73
553.59	1714.15
553.78	1716.20
553.98	1789.92
554.17	1685.48
554.37	1789.92
554.57	1746.92
554.76	1699.81
554.96	1697.77
555.16	1730.53
555.35	1759.21
555.55	1794.02
555.75	1751.01
555.94	1742.82
556.14	1736.68
556.33	1791.97
556.53	1779.68
556.73	1679.33
556.92	1738.73
557.12	1841.12
557.32	1818.60
557.51	1859.56
557.71	1812.45
557.90	1839.08
558.10	1871.84
558.30	1667.05
558.49	1662.95
558.69	1757.16
558.88	1806.31
559.08	1755.11
559.28	1742.82
559.47	1695.72
559.67	1804.26
559.86	1822.69
560.06	1781.73
560.26	1724.39
560.45	1742.82
560.65	1738.73
560.84	1839.08
561.04	1712.10
561.24	1746.92
561.43	1701.86
561.63	1839.08
561.82	1744.87
562.02	1804.26
562.22	1683.43
562.41	1613.80
562.61	1732.58
562.80	1740.77
563.00	1949.67
563.19	1714.15
563.39	1785.83
563.59	1755.11
563.78	1718.25
563.98	1671.14
564.17	1689.57
564.37	1660.90
564.56	1757.16
564.76	1648.61
564.96	1812.45
565.15	1708.01
565.35	1839.08
565.54	1746.92
565.74	1765.35
565.93	1767.40
566.13	1718.25
566.32	1785.83
566.52	1761.25
566.71	1798.12
566.91	1814.50
567.11	1744.87
567.30	1748.97
567.50	1781.73
567.69	1783.78
567.89	1759.21
568.08	1744.87
568.28	1724.39
568.47	1699.81
568.67	1839.08
568.86	1763.30
569.06	1857.51
569.25	1765.35
569.45	1712.10
569.64	1722.34
569.84	1800.16
570.04	1732.58
570.23	1687.53
570.43	1697.77
570.62	1744.87
570.82	1834.98
571.01	1669.09
571.21	1730.53
571.40	1732.58
571.60	1748.97
571.79	1791.97
571.99	1808.36
572.18	1667.05
572.38	1771.49
572.57	1787.88
572.77	1751.01
572.96	1918.95
573.16	1798.12
573.35	1683.43
573.55	1783.78
573.74	1806.31
573.94	1701.86
574.13	1783.78
574.33	1783.78
574.52	1832.93
574.71	1787.88
574.91	1759.21
575.10	1710.05
575.30	1718.25
575.49	1730.53
575.69	1718.25
575.88	1755.11
576.08	1771.49
576.27	1755.11
576.47	1800.16
576.66	1959.91
576.86	1861.60
577.05	1796.07
577.25	1816.55
577.44	1863.65
577.64	1701.86
577.83	1800.16
578.02	1798.12
578.22	1925.09
578.41	1869.80
578.61	1806.31
578.80	1665.00
579.00	1740.77
579.19	1748.97
579.39	1781.73
579.58	1822.69
579.77	1775.59
579.97	1851.36
580.16	1871.84
580.36	1894.37
580.55	1804.26
580.75	1716.20
580.94	1755.11
581.13	1798.12
581.33	1832.93
581.52	1773.54
581.72	1853.41
581.91	1886.18
582.11	1802.21
582.30	1779.68
582.49	1828.84
582.69	1798.12
582.88	1681.38
583.08	1794.02
583.27	1806.31
583.47	1691.62
583.66	1828.84
583.85	1689.57
584.05	1714.15
584.24	1849.32
584.44	1779.68
584.63	1863.65
584.82	1896.42
585.02	1869.80
585.21	1890.28
585.41	2009.06
585.60	1914.85
585.79	1959.91
585.99	1992.67
586.18	1920.99
586.37	2258.91
586.57	3438.54
586.76	9666.41
586.96	27244.13
587.15	41459.08
587.34	51672.30
587.54	58430.60
587.73	56020.14
587.93	39943.58
588.12	29716.03
588.31	23797.40
588.51	20461.26
588.70	18503.40
588.89	17268.47
589.09	15615.76
589.28	13719.34
589.47	11552.59
589.67	9394.03
589.86	7511.95
590.06	5310.38
590.25	4116.42
590.44	3321.81
590.64	2631.64
590.83	2258.91
591.02	2097.12
591.22	1992.67
591.41	1841.12
591.60	1820.64
591.80	1931.23
591.99	1742.82
592.18	1763.30
592.38	1800.16
592.57	1677.29
592.76	1763.30
592.96	1890.28
593.15	1755.11
593.34	1783.78
593.54	1763.30
593.73	1830.88
593.92	1775.59
594.12	1861.60
594.31	1851.36
594.50	1892.32
594.70	1814.50
594.89	2011.11
595.08	1710.05
595.28	1857.51
595.47	1984.48
595.66	1738.73
595.86	1691.62
596.05	1724.39
596.24	1789.92
596.43	1843.17
596.63	1890.28
596.82	1806.31
597.01	1806.31
597.21	1873.89
597.40	1837.03
597.59	1757.16
597.79	1839.08
597.98	1644.52
598.17	1787.88
598.36	1746.92
598.56	1800.16
598.75	1826.79
598.94	1773.54
599.14	1781.73
599.33	1751.01
599.52	1820.64
599.71	1775.59
599.91	1849.32
600.10	1832.93
600.29	1771.49
600.48	1742.82
600.68	1759.21
600.87	1744.87
601.06	1738.73
601.26	1787.88
601.45	1779.68
601.64	1763.30
601.83	1839.08
602.03	1656.81
602.22	1705.96
602.41	1886.18
602.60	1888.23
602.80	1855.46
602.99	1751.01
603.18	1714.15
603.37	1798.12
603.57	1753.06
603.76	1830.88
603.95	1718.25
604.14	1726.44
604.34	1708.01
604.53	1781.73
604.72	1759.21
604.91	1818.60
605.10	1761.25
605.30	1634.28
605.49	1863.65
605.68	1767.40
605.87	1708.01
606.07	1718.25
606.26	1865.70
606.45	1771.49
606.64	1779.68
606.84	1732.58
607.03	1732.58
607.22	1806.31
607.41	1794.02
607.60	1783.78
607.80	1779.68
607.99	1834.98
608.18	1710.05
608.37	1787.88
608.56	1718.25
608.76	1855.46
608.95	1900.52
609.14	1841.12
609.33	1898.47
609.52	1914.85
609.72	1789.92
609.91	1861.60
610.10	1781.73
610.29	1886.18
610.48	1820.64
610.68	1767.40
610.87	1783.78
611.06	1832.93
611.25	1726.44
611.44	1816.55
611.63	1734.63
611.83	1865.70
612.02	1669.09
612.21	1847.27
612.40	1587.18
612.59	1665.00
612.79	1675.24
612.98	1781.73
613.17	1787.88
613.36	1683.43
613.55	1837.03
613.74	1800.16
613.93	1863.65
614.13	1933.28
614.32	1939.43
614.51	1959.91
614.70	1880.04
614.89	1779.68
615.08	1857.51
615.28	2123.74
615.47	1757.16
615.66	1773.54
615.85	1851.36
616.04	1863.65
616.23	1880.04
616.42	1837.03
616.62	1798.12
616.81	1849.32
617.00	1810.40
617.19	1744.87
617.38	1675.24
617.57	1800.16
617.76	1773.54
617.95	1675.24
618.15	1763.30
618.34	1742.82
618.53	1611.75
618.72	1837.03
618.91	1863.65
619.10	1781.73
619.29	1683.43
619.48	1771.49
619.68	1689.57
619.87	1671.14
620.06	1656.81
620.25	1738.73
620.44	1759.21
620.63	1683.43
620.82	1732.58
621.01	1800.16
621.20	1740.77
621.39	1746.92
621.59	1783.78
621.78	1773.54
621.97	1636.33
622.16	1777.64
622.35	1785.83
622.54	1757.16
622.73	1843.17
622.92	1621.99
623.11	1863.65
623.30	1705.96
623.49	1777.64
623.68	1734.63
623.88	1767.40
624.07	1779.68
624.26	1751.01
624.45	1744.87
624.64	1660.90
624.83	1726.44
625.02	1740.77
625.21	1734.63
625.40	1728.49
625.59	1789.92
625.78	1734.63
625.97	1834.98
626.16	1855.46
626.35	1828.84
626.54	1818.60
626.74	1853.41
626.93	1738.73
627.12	1763.30
627.31	1808.36
627.50	1783.78
627.69	1765.35
627.88	1699.81
628.07	1824.74
628.26	1665.00
628.45	1710.05
628.64	1681.38
628.83	1701.86
629.02	1656.81
629.21	1763.30
629.40	1785.83
629.59	1683.43
629.78	1701.86
629.97	1767.40
630.16	1781.73
630.35	1779.68
630.54	1814.50
630.73	1671.14
630.92	1695.72
631.11	1650.66
631.30	1724.39
631.49	1744.87
631.68	1699.81
631.87	1787.88
632.06	1716.20
632.25	1804.26
632.44	1787.88
632.63	1818.60
632.82	1804.26
633.01	1716.20
633.20	1740.77
633.39	1781.73
633.58	1665.00
633.77	1818.60
633.96	1851.36
634.15	1894.37
634.34	1837.03
634.53	1738.73
634.72	1689.57
634.91	1652.71
635.10	1828.84
635.29	1783.78
635.48	1740.77
635.67	1716.20
635.86	1656.81
636.05	1789.92
636.24	1738.73
636.43	1806.31
636.62	1771.49
636.81	1589.22
637.00	1705.96
637.19	1759.21
637.38	1746.92
637.57	1726.44
637.76	1744.87
637.95	1828.84
638.14	1720.29
638.33	1853.41
638.52	1834.98
638.71	1800.16
638.89	1724.39
639.08	1918.95
639.27	1767.40
639.46	1894.37
639.65	2146.27
639.84	2238.43
640.03	2375.64
640.22	2435.03
640.41	2377.69
640.60	2068.45
640.79	2070.50
640.98	1982.43
641.17	1904.61
641.36	1951.71
641.55	1908.71
641.74	1765.35
641.92	1738.73
642.11	1804.26
642.30	1759.21
642.49	1689.57
642.68	1765.35
642.87	1722.34
643.06	1832.93
643.25	1671.14
643.44	1738.73
643.63	1710.05
643.82	1853.41
644.00	1693.67
644.19	1736.68
644.38	1720.29
644.57	1775.59
644.76	1757.16
644.95	1681.38
645.14	1748.97
645.33	1781.73
645.52	1665.00
645.71	1671.14
645.89	1650.66
646.08	1681.38
646.27	1718.25
646.46	1884.13
646.65	1687.53
646.84	1785.83
647.03	1654.76
647.22	1748.97
647.40	1679.33
647.59	1665.00
647.78	1599.46
647.97	1646.57
648.16	1654.76
648.35	1839.08
648.54	1789.92
648.73	1722.34
648.91	1744.87
649.10	1787.88
649.29	1703.91
649.48	1720.29
649.67	1662.95
649.86	1722.34
650.05	1798.12
650.23	1867.75
650.42	1777.64
650.61	1970.15
650.80	1923.04
650.99	1943.52
651.18	1931.23
651.36	1863.65
651.55	1775.59
651.74	1894.37
651.93	1753.06
652.12	1738.73
652.31	1681.38
652.49	1787.88
652.68	1673.19
652.87	1783.78
653.06	1746.92
653.25	1902.56
653.44	1810.40
653.62	1865.70
653.81	1728.49
654.00	1730.53
654.19	1810.40
654.38	1839.08
654.56	1796.07
654.75	1701.86
654.94	1716.20
655.13	1697.77
655.32	1769.44
655.51	1720.29
655.69	1667.05
655.88	1787.88
656.07	1648.61
656.26	1722.34
656.45	1691.62
656.63	1753.06
656.82	1732.58
657.01	1701.86
657.20	1691.62
657.38	1802.21
657.57	1738.73
657.76	1699.81
657.95	1818.60
658.14	1730.53
658.32	1746.92
658.51	1656.81
658.70	1701.86
658.89	1740.77
659.08	1763.30
659.26	1871.84
659.45	1771.49
659.64	1857.51
659.83	1744.87
660.01	2086.88
660.20	1718.25
660.39	1867.75
660.58	1701.86
660.76	1783.78
660.95	1683.43
661.14	1769.44
661.33	1650.66
661.51	1669.09
661.70	1691.62
661.89	1687.53
662.08	1755.11
662.26	1740.77
662.45	1658.85
662.64	1759.21
662.83	1779.68
663.01	1617.90
663.20	1619.94
663.39	1755.11
663.58	1730.53
663.76	1746.92
663.95	1820.64
664.14	1660.90
664.32	1673.19
664.51	1708.01
664.70	1675.24
664.89	1746.92
665.07	1714.15
665.26	1822.69
665.45	1613.80
665.64	1755.11
665.82	1728.49
666.01	1796.07
666.20	1716.20
666.38	1785.83
666.57	1777.64
666.76	2142.18
666.95	4523.96
667.13	11427.67
667.32	18613.99
667.51	22671.01
667.69	24839.81
667.88	25353.85
668.07	19848.91
668.25	14561.06
668.44	11894.60
668.63	10071.91
668.81	8552.32
669.00	7835.53
669.19	7059.35
669.38	6092.71
669.56	5433.26
669.75	4614.07
669.94	3864.52
670.12	3164.11
670.31	2715.61
670.50	2430.94
670.68	2093.02
670.87	2002.91
671.06	1855.46
671.24	1806.31
671.43	1861.60
671.62	1804.26
671.80	1800.16
671.99	1832.93
672.18	1775.59
672.36	1814.50
672.55	1708.01
672.74	1753.06
672.92	1753.06
673.11	1736.68
673.29	1648.61
673.48	1771.49
673.67	1669.09
673.85	1812.45
674.04	1642.47
674.23	1689.57
674.41	1853.41
674.60	1650.66
674.79	1583.08
674.97	1636.33
675.16	1767.40
675.34	1849.32
675.53	1705.96
675.72	1796.07
675.90	1794.02
676.09	1679.33
676.28	1791.97
676.46	1550.31
676.65	1779.68
676.83	1632.23
677.02	1734.63
677.21	1689.57
677.39	1787.88
677.58	1705.96
677.77	1708.01
677.95	1722.34
678.14	1718.25
678.32	1724.39
678.51	1646.57
678.70	1802.21
678.88	1667.05
679.07	1787.88
679.25	1712.10
679.44	1732.58
679.63	1632.23
679.81	1665.00
680.00	1863.65
680.18	1724.39
680.37	1849.32
680.55	1767.40
680.74	1605.61
680.93	1695.72
681.11	1726.44
681.30	1785.83
681.48	1824.74
681.67	1697.77
681.85	1712.10
682.04	1662.95
682.23	1714.15
682.41	1679.33
682.60	1677.29
682.78	1751.01
682.97	1624.04
683.15	1781.73
683.34	1648.61
683.53	1761.25
683.71	1720.29
683.90	1779.68
684.08	1804.26
684.27	1738.73
684.45	1705.96
684.64	1777.64
684.82	1683.43
685.01	1732.58
685.19	1677.29
685.38	1849.32
685.57	1728.49
685.75	1648.61
685.94	1634.28
686.12	1732.58
686.31	1746.92
686.49	1886.18
686.68	1681.38
686.86	1722.34
687.05	1716.20
687.23	1718.25
687.42	1658.85
687.60	1599.46
687.79	1734.63
687.97	1798.12
688.16	1783.78
688.34	1736.68
688.53	1617.90
688.71	1751.01
688.90	1812.45
689.08	1736.68
689.27	1685.48
689.45	1736.68
689.64	1789.92
689.82	1773.54
690.01	1810.40
690.19	1802.21
690.38	1701.86
690.56	1853.41
690.75	1726.44
690.93	1628.14
691.12	1796.07
691.30	1701.86
691.49	1689.57
691.67	1683.43
691.86	1753.06
692.04	1699.81
692.23	1603.56
692.41	1796.07
692.60	1914.85
692.78	1863.65
692.97	1755.11
693.15	1767.40
693.34	1787.88
693.52	1886.18
693.71	1662.95
693.89	1699.81
694.08	1589.22
694.26	1744.87
694.44	1757.16
694.63	1751.01
694.81	1683.43
695.00	1718.25
695.18	1767.40
695.37	1855.46
695.55	1705.96
695.74	1687.53
695.92	1624.04
696.10	1746.92
696.29	1656.81
696.47	1699.81
696.66	1638.38
696.84	1652.71
697.03	1716.20
697.21	1808.36
697.40	2287.58
697.58	1845.22
697.76	1722.34
697.95	1701.86
698.13	1636.33
698.32	1681.38
698.50	1693.67
698.68	1783.78
698.87	1787.88
699.05	1812.45
699.24	1759.21
699.42	1681.38
699.61	1730.53
699.79	1746.92
699.97	1753.06
700.16	1650.66
700.34	1617.90
700.53	1732.58
700.71	1800.16
700.89	1734.63
701.08	1658.85
701.26	1746.92
701.45	2148.32
701.63	1660.90
701.81	1660.90
702.00	1732.58
702.18	1695.72
702.37	1658.85
702.55	1882.08
702.73	1902.56
702.92	1812.45
703.10	1931.23
703.28	1910.75
703.47	1890.28
703.65	1943.52
703.84	1894.37
704.02	1771.49
704.20	1900.52
704.39	1806.31
704.57	1824.74
704.75	1843.17
704.94	1843.17
705.12	1828.84
705.30	1853.41
705.49	2435.03
705.67	5408.69
705.86	13270.84
706.04	19240.67
706.22	22810.28
706.41	25572.99
706.59	24735.37
706.77	18845.41
706.96	13748.01
707.14	11820.88
707.32	10258.28
707.51	9211.76
707.69	7870.34
707.87	6612.89
708.06	5504.94
708.24	4329.41
708.42	3438.54
708.61	2750.42
708.79	2209.76
708.97	2033.63
709.16	1918.95
709.34	1871.84
709.52	1771.49
709.71	1828.84
709.89	1806.31
710.07	1673.19
710.26	1665.00
710.44	1615.85
710.62	1755.11
710.80	1683.43
710.99	1687.53
711.17	1734.63
711.35	1724.39
711.54	1714.15
711.72	1814.50
711.90	1755.11
712.09	1757.16
712.27	1685.48
712.45	1759.21
712.63	1615.85
712.82	1736.68
713.00	1738.73
713.18	1726.44
713.37	1781.73
713.55	1712.10
713.73	1726.44
713.91	1703.91
714.10	1724.39
714.28	1669.09
714.46	1759.21
714.65	1722.34
714.83	1703.91
715.01	1689.57
715.19	1681.38
715.38	1705.96
715.56	1777.64
715.74	1640.42
715.92	1652.71
716.11	1837.03
716.29	1615.85
716.47	1665.00
716.65	1728.49
716.84	1710.05
717.02	1785.83
717.20	1636.33
717.38	1722.34
717.57	1675.24
717.75	1722.34
717.93	1691.62
718.11	1781.73
718.30	1615.85
718.48	1728.49
718.66	1746.92
718.84	1763.30
719.03	1576.94
719.21	1648.61
719.39	1761.25
719.57	1726.44
719.75	1789.92
719.94	1648.61
720.12	1693.67
720.30	1740.77
720.48	1755.11
720.67	1683.43
720.85	1718.25
721.03	1748.97
721.21	1593.32
721.39	1753.06
721.58	1804.26
721.76	1718.25
721.94	1710.05
722.12	1718.25
722.30	1843.17
722.49	1665.00
722.67	1703.91
722.85	1708.01
723.03	1705.96
723.21	1705.96
723.40	1738.73
723.58	1806.31
723.76	1726.44
723.94	1804.26
724.12	1804.26
724.30	1828.84
724.49	1863.65
724.67	1796.07
724.85	1796.07
725.03	1730.53
725.21	1841.12
725.40	1810.40
725.58	1732.58
725.76	1769.44
725.94	1699.81
726.12	1677.29
726.30	1708.01
726.49	1675.24
726.67	1650.66
726.85	1746.92
727.03	1806.31
727.21	2281.44
727.39	3282.89
727.57	4966.32
727.76	5676.97
727.94	6201.25
728.12	6322.08
728.30	5695.40
728.48	4554.68
728.66	3960.77
728.84	3608.52
729.03	3231.69
729.21	2820.05
729.39	2502.62
729.57	2125.79
729.75	2031.58
729.93	1937.38
730.11	1783.78
730.30	1734.63
730.48	1781.73
730.66	1818.60
730.84	1787.88
731.02	1720.29
731.20	1701.86
731.38	1718.25
731.56	1673.19
731.74	1728.49
731.93	1673.19
732.11	1697.77
732.29	1781.73
732.47	1796.07
732.65	1732.58
732.83	1794.02
733.01	1748.97
733.19	1630.18
733.37	1720.29
733.56	1746.92
733.74	1724.39
733.92	1830.88
734.10	1671.14
734.28	1787.88
734.46	1593.32
734.64	1669.09
734.82	1701.86
735.00	1699.81
735.18	1693.67
735.36	1705.96
735.54	1724.39
735.73	1708.01
735.91	1730.53
736.09	1800.16
736.27	1787.88
736.45	1796.07
736.63	1652.71
736.81	1675.24
736.99	1744.87
737.17	1712.10
737.35	1665.00
737.53	1687.53
737.71	1626.09
737.89	1800.16
738.07	1744.87
738.25	1738.73
738.43	1583.08
738.61	1675.24
738.80	1746.92
738.98	1720.29
739.16	1656.81
739.34	1722.34
739.52	1771.49
739.70	1736.68
739.88	1810.40
740.06	1765.35
740.24	1665.00
740.42	1763.30
740.60	1632.23
740.78	1718.25
740.96	1626.09
741.14	1656.81
741.32	1800.16
741.50	1646.57
741.68	1847.27
741.86	1810.40
742.04	1691.62
742.22	1619.94
742.40	1759.21
742.58	1751.01
742.76	1718.25
742.94	1757.16
743.12	1677.29
743.30	1665.00
743.48	1748.97
743.66	1726.44
743.84	1730.53
744.02	1679.33
744.20	1751.01
744.38	1626.09
744.56	1644.52
744.74	1830.88
744.92	1765.35
745.10	1767.40
745.28	1746.92
745.46	1820.64
745.64	1667.05
745.82	1755.11
746.00	1726.44
746.18	1724.39
746.36	1591.27
746.54	1816.55
746.72	1746.92
746.90	1691.62
747.08	1808.36
747.26	1738.73
747.44	1755.11
747.62	1834.98
747.80	1718.25
747.98	1853.41
748.15	1771.49
748.33	1759.21
748.51	1738.73
748.69	1771.49
748.87	1714.15
749.05	1677.29
749.23	1697.77
749.41	1726.44
749.59	1673.19
749.77	1724.39
749.95	1640.42
750.13	1675.24
750.31	1814.50
750.49	1714.15
750.67	1804.26
750.85	1746.92
751.03	1785.83
751.20	1810.40
751.38	1720.29
751.56	1681.38
751.74	1683.43
751.92	1722.34
752.10	1531.88
752.28	1734.63
752.46	1658.85
752.64	1742.82
752.82	1759.21
753.00	1816.55
753.18	1763.30
753.35	1640.42
753.53	1695.72
753.71	1687.53
753.89	1691.62
754.07	1718.25
754.25	1796.07
754.43	1736.68
754.61	1621.99
754.79	1732.58
754.97	1648.61
755.14	1769.44
755.32	1615.85
755.50	1820.64
755.68	1689.57
755.86	1656.81
756.04	1632.23
756.22	1525.74
756.40	1757.16
756.57	1826.79
756.75	1714.15
756.93	1757.16
757.11	1742.82
757.29	1621.99
757.47	1626.09
757.65	1675.24
757.82	1644.52
758.00	1650.66
758.18	1753.06
758.36	1673.19
758.54	1828.84
758.72	1556.46
758.90	1726.44
759.07	1757.16
759.25	1607.66
759.43	1748.97
759.61	1654.76
759.79	2244.57
759.97	1720.29
760.15	1701.86
760.32	1697.77
760.50	1740.77
760.68	1843.17
760.86	1660.90
761.04	1734.63
761.22	1699.81
761.39	1726.44
761.57	1746.92
761.75	1800.16
761.93	1724.39
762.11	1765.35
762.28	1755.11
762.46	1589.22
762.64	1841.12
762.82	1644.52
763.00	1730.53
763.18	1789.92
763.35	1665.00
763.53	1722.34
763.71	1751.01
763.89	1697.77
764.07	1804.26
764.24	1730.53
764.42	1740.77
764.60	1687.53
764.78	1763.30
764.96	1705.96
765.13	1714.15
765.31	1669.09
765.49	1763.30
765.67	1574.89
765.84	1673.19
766.02	1679.33
766.20	1726.44
766.38	1738.73
766.56	1693.67
766.73	1714.15
766.91	1669.09
767.09	1636.33
767.27	1708.01
767.44	1751.01
767.62	1773.54
767.80	1685.48
767.98	1679.33
768.15	1730.53
768.33	1863.65
768.51	1798.12
768.69	1740.77
768.87	1718.25
769.04	1736.68
769.22	1906.66
769.40	1748.97
769.58	1857.51
769.75	1771.49
769.93	1837.03
770.11	1705.96
770.28	1673.19
770.46	1757.16
770.64	1773.54
770.82	1689.57
770.99	1789.92
771.17	1744.87
771.35	1679.33
771.53	1660.90
771.70	1714.15
771.88	1656.81
772.06	1755.11
772.23	1691.62
772.41	1705.96
772.59	1634.28
772.77	1632.23
772.94	1683.43
773.12	1742.82
773.30	1703.91
773.47	1701.86
773.65	1716.20
773.83	1845.22
774.01	1734.63
774.18	1626.09
774.36	1687.53
774.54	1615.85
774.71	1808.36
774.89	1632.23
775.07	1624.04
775.24	1605.61
775.42	1646.57
775.60	1777.64
775.78	1699.81
775.95	1708.01
776.13	1603.56
776.31	1587.18
776.48	1685.48
776.66	1832.93
776.84	1699.81
777.01	1689.57
777.19	1658.85
777.37	1656.81
777.54	1755.11
777.72	1789.92
777.90	1757.16
778.07	1710.05
778.25	1816.55
778.43	1773.54
778.60	1658.85
778.78	1736.68
778.96	1759.21
779.13	1669.09
779.31	1726.44
779.49	1718.25
779.66	1726.44
779.84	1742.82
780.01	1734.63
780.19	1699.81
780.37	1826.79
780.54	1759.21
780.72	1718.25
780.90	1691.62
781.07	1759.21
781.25	1665.00
781.43	1753.06
781.60	1816.55
781.78	1798.12
781.95	1665.00
782.13	1662.95
782.31	1757.16
782.48	1599.46
782.66	1730.53
782.83	1804.26
783.01	1804.26
783.19	1722.34
783.36	1646.57
783.54	1632.23
783.72	1716.20
783.89	1687.53
784.07	1732.58
784.24	1775.59
784.42	1814.50
784.60	1685.48
784.77	1710.05
784.95	1632.23
785.12	1703.91
785.30	1736.68
785.47	1675.24
785.65	1562.60
785.83	1785.83
786.00	1630.18
786.18	1693.67
786.35	1660.90
786.53	1626.09
786.71	1785.83
786.88	1767.40
787.06	1644.52
787.23	1701.86
787.41	1648.61
787.58	1703.91
787.76	1689.57
787.94	1685.48
788.11	1753.06
788.29	1673.19
788.46	1640.42
788.64	1669.09
788.81	1691.62
788.99	1726.44
789.16	1628.14
789.34	1628.14
789.52	1665.00
789.69	1665.00
789.87	1646.57
790.04	1656.81
790.22	1665.00
790.39	1753.06
790.57	1628.14
790.74	1654.76
790.92	1771.49
791.09	1578.98
791.27	1714.15
791.44	1753.06
791.62	1708.01
791.79	1769.44
791.97	1716.20
792.15	1912.80
792.32	1710.05
792.50	1705.96
792.67	1738.73
792.85	1767.40
793.02	1753.06
793.20	1644.52
793.37	1529.83
793.55	1640.42
793.72	1632.23
793.90	1832.93
794.07	1683.43
794.25	1742.82
794.42	1732.58
794.60	1708.01
794.77	1650.66
794.95	1777.64
795.12	1744.87
795.30	1658.85
795.47	1572.84
795.65	1902.56
795.82	1701.86
796.00	1689.57
796.17	1683.43
796.34	1669.09
796.52	1714.15
796.69	1796.07
796.87	1773.54
797.04	1665.00
797.22	1779.68
797.39	1781.73
797.57	1716.20
797.74	1615.85
797.92	1757.16
798.09	1712.10
798.27	1812.45
798.44	1621.99
798.62	1738.73
798.79	1787.88
798.96	1697.77
799.14	1718.25
799.31	1845.22
799.49	1673.19
799.66	1673.19
799.84	1751.01
800.01	1677.29
800.19	1771.49
800.36	1572.84
800.53	1673.19
800.71	1746.92
800.88	1755.11
801.06	1710.05
801.23	1613.80
801.41	1705.96
801.58	1628.14
801.75	1669.09
801.93	1722.34
802.10	1728.49
802.28	1589.22
802.45	1679.33
802.63	1701.86
802.80	1730.53
802.97	1689.57
803.15	1714.15
803.32	1703.91
803.50	1665.00
803.67	1687.53
803.84	1638.38
804.02	1642.47
804.19	1724.39
804.37	1636.33
804.54	1687.53
804.71	1734.63
804.89	1765.35
805.06	1697.77
805.24	1644.52
805.41	1683.43
805.58	1583.08
805.76	1845.22
805.93	1689.57
806.10	1728.49
806.28	1722.34
806.45	1742.82
806.63	1773.54
806.80	1730.53
806.97	1734.63
807.15	1656.81
807.32	1751.01
807.49	1718.25
807.67	1656.81
807.84	1742.82
808.01	1617.90
808.19	1800.16
808.36	1826.79
808.54	1720.29
808.71	1656.81
808.88	1656.81
809.06	1824.74
809.23	1804.26
809.40	1617.90
809.58	1800.16
809.75	1638.38
809.92	1662.95
810.10	1863.65
810.27	1732.58
810.44	1681.38
810.62	1753.06
810.79	1763.30
810.96	1662.95
811.14	1636.33
811.31	1710.05
811.48	1636.33
811.66	1683.43
811.83	1742.82
812.00	1724.39
812.18	1744.87
812.35	1855.46
812.52	1628.14
812.69	1761.25
812.87	1656.81
813.04	1642.47
813.21	1658.85
813.39	1679.33
813.56	1677.29
813.73	1787.88
813.91	1611.75
814.08	1748.97
814.25	1703.91
814.42	1701.86
814.60	1675.24
814.77	1669.09
814.94	1777.64
815.12	1671.14
815.29	1769.44
815.46	1615.85
815.63	1703.91
815.81	1714.15
815.98	1726.44
816.15	1619.94
816.33	1691.62
816.50	1673.19
816.67	1701.86
816.84	1777.64
817.02	1609.70
817.19	1626.09
817.36	1785.83
817.53	1660.90
817.71	1615.85
817.88	1791.97
818.05	1624.04
818.22	1701.86
818.40	1791.97
818.57	1718.25
818.74	1824.74
818.91	1695.72
819.09	1669.09
819.26	1744.87
819.43	1636.33
819.60	1681.38
819.78	1714.15
819.95	1812.45
820.12	1748.97
820.29	1767.40
820.47	1757.16
820.64	1632.23
820.81	1638.38
820.98	1644.52
821.15	1636.33
821.33	1740.77
821.50	1697.77
821.67	1785.83
821.84	1726.44
822.02	1789.92
822.19	1726.44
822.36	1665.00
822.53	1648.61
822.70	1615.85
822.88	1632.23
823.05	1828.84
823.22	1748.97
823.39	1724.39
823.56	1728.49
823.74	1896.42
823.91	1701.86
824.08	1624.04
824.25	1556.46
824.42	1708.01
824.60	1665.00
824.77	1726.44
824.94	1714.15
825.11	1738.73
825.28	1626.09
825.45	1726.44
825.63	1656.81
825.80	1742.82
825.97	1787.88
826.14	1644.52
826.31	1617.90
826.48	1703.91
826.66	1640.42
826.83	1652.71
827.00	1763.30
827.17	1603.56
827.34	1673.19
827.51	1648.61
827.69	1710.05
827.86	1646.57
828.03	1722.34
828.20	1689.57
828.37	1710.05
828.54	1734.63
828.71	1669.09
828.89	1789.92
829.06	1722.34
829.23	1769.44
829.40	1669.09
829.57	1660.90
829.74	1681.38
829.91	1675.24
830.09	1693.67
830.26	1740.77
830.43	1777.64
830.60	1683.43
830.77	1687.53
830.94	1728.49
831.11	1714.15
831.28	1617.90
831.46	1746.92
831.63	1677.29
831.80	1771.49
831.97	1656.81
832.14	1746.92
832.31	1687.53
832.48	1736.68
832.65	1687.53
832.82	1705.96
832.99	1759.21
833.17	1656.81
833.34	1705.96
833.51	1712.10
833.68	1634.28
833.85	1779.68
834.02	1648.61
834.19	1693.67
834.36	1621.99
834.53	1683.43
834.70	1722.34
834.87	1753.06
835.04	1650.66
835.22	1693.67
835.39	1626.09
835.56	1595.37
835.73	1734.63
835.90	1738.73
836.07	1765.35
836.24	1726.44
836.41	1714.15
836.58	1636.33
836.75	1738.73
836.92	1781.73
837.09	1626.09
837.26	1800.16
837.43	1787.88
837.60	1753.06
837.77	1679.33
837.94	1806.31
838.12	1740.77
838.29	1759.21
838.46	1646.57
838.63	1665.00
838.80	1748.97
838.97	1744.87
839.14	1705.96
839.31	1742.82
839.48	1722.34
839.65	1769.44
839.82	1765.35
839.99	1744.87
840.16	1675.24
840.33	1644.52
840.50	1755.11
840.67	1636.33
840.84	1581.03
841.01	1722.34
841.18	1708.01
841.35	1712.10
841.52	1767.40
841.69	1755.11
841.86	1693.67
842.03	1728.49
842.20	1755.11
842.37	1634.28
842.54	1724.39
842.71	1718.25
842.88	1642.47
843.05	1728.49
843.22	1656.81
843.39	1718.25
843.56	1699.81
843.73	1746.92
843.90	1804.26
844.07	1695.72
844.24	1744.87
844.41	1667.05
844.58	1738.73
844.75	1665.00
844.92	1767.40
845.09	1783.78
845.26	1673.19
845.43	1681.38
845.60	1630.18
845.77	1677.29
845.94	1746.92
846.10	1761.25
846.27	1587.18
846.44	1652.71
846.61	1624.04
846.78	1794.02
846.95	1808.36
847.12	1728.49
847.29	1765.35
847.46	1705.96
847.63	1763.30
847.80	1621.99
847.97	1681.38
848.14	1841.12
848.31	1640.42
848.48	1603.56
848.65	1724.39
848.82	1652.71
848.98	1855.46
849.15	1673.19
849.32	1697.77
849.49	1742.82
849.66	1697.77
849.83	1787.88
850.00	1609.70
850.17	1705.96
850.34	1740.77
850.51	1691.62
850.68	1681.38
850.85	1888.23
851.01	1689.57
851.18	1728.49
851.35	1621.99
851.52	1646.57
851.69	1816.55
851.86	1619.94
852.03	1701.86
852.20	1712.10
852.37	1746.92
852.53	1595.37
852.70	1734.63
852.87	1718.25
853.04	1699.81
853.21	1654.76
853.38	1718.25
853.55	1789.92
853.72	1798.12
853.89	1599.46
854.05	1695.72
854.22	1722.34
854.39	1650.66
854.56	1812.45
854.73	1732.58
854.90	1591.27
855.07	1722.34
855.23	1630.18
855.40	1681.38
855.57	1714.15
855.74	1607.66
855.91	1845.22
856.08	1701.86
856.25	1634.28
856.41	1634.28
856.58	1763.30
856.75	1708.01
856.92	1628.14
857.09	1751.01
857.26	1603.56
857.42	1677.29
857.59	1712.10
857.76	1697.77
857.93	1716.20
858.10	1816.55
858.27	1587.18
858.43	1656.81
858.60	1673.19
858.77	1652.71
858.94	1673.19
859.11	1832.93
859.27	1624.04
859.44	1642.47
859.61	1810.40
859.78	1775.59
859.95	1730.53
860.12	1681.38
860.28	1796.07
860.45	1820.64
860.62	1617.90
860.79	1726.44
860.95	1779.68
861.12	1644.52
861.29	1642.47
861.46	1667.05
861.63	1677.29
861.79	1732.58
861.96	1585.13
862.13	1632.23
862.30	1746.92
862.47	1703.91
862.63	1679.33
862.80	1736.68
862.97	1781.73
863.14	1710.05
863.30	1687.53
863.47	1689.57
863.64	1755.11
863.81	1652.71
863.97	1685.48
864.14	1699.81
864.31	1658.85
864.48	1748.97
864.65	1697.77
864.81	1794.02
864.98	1738.73
865.15	1677.29
865.32	1765.35
865.48	1830.88
865.65	1761.25
865.82	1681.38
865.98	1699.81
866.15	1716.20
866.32	1681.38
866.49	1701.86
866.65	1769.44
866.82	1671.14
866.99	1714.15
867.16	1660.90
867.32	1679.33
867.49	1667.05
867.66	1726.44
867.83	1697.77
867.99	1632.23
868.16	1724.39
868.33	1619.94
868.49	1718.25
868.66	1642.47
868.83	1763.30
868.99	1757.16
869.16	1738.73
869.33	1751.01
869.50	1773.54
869.66	1716.20
869.83	1789.92
870.00	1689.57
870.16	1675.24
870.33	1769.44
870.50	1714.15
870.66	1695.72
870.83	1806.31
871.00	1691.62
871.17	1730.53
871.33	1785.83
871.50	1673.19
871.67	1726.44
871.83	1619.94
872.00	1757.16
872.17	1765.35
872.33	1744.87
872.50	1738.73
872.67	1761.25
872.83	1665.00
873.00	1701.86
873.17	1734.63
873.33	1759.21
873.50	1748.97
873.67	1585.13
873.83	1703.91
874.00	1656.81
874.16	1730.53
874.33	1781.73
874.50	1638.38
874.66	1779.68
874.83	1722.34
875.00	1800.16
875.16	1775.59
875.33	1779.68
875.50	1662.95
875.66	1654.76
875.83	1660.90
875.99	1794.02
876.16	1765.35
876.33	1720.29
876.49	1693.67
876.66	1730.53
876.83	1675.24
876.99	1703.91
877.16	1757.16
877.32	1730.53
877.49	1710.05
877.66	1714.15
877.82	1736.68
877.99	1699.81
878.15	1722.34
878.32	1767.40
878.49	1722.34
878.65	1632.23
878.82	1748.97
878.98	1662.95
879.15	1734.63
879.32	1726.44
879.48	1640.42
879.65	1730.53
879.81	1677.29
879.98	1701.86
880.15	1660.90
880.31	1763.30
880.48	1669.09
880.64	1763.30
880.81	1648.61
880.97	1781.73
881.14	1789.92
881.31	1638.38
881.47	1855.46
881.64	1728.49
881.80	1660.90
881.97	1677.29
882.13	1746.92
882.30	1730.53
882.47	1748.97
882.63	1652.71
882.80	1591.27
882.96	1650.66
883.13	1802.21
883.29	1679.33
883.46	1806.31
883.62	1865.70
883.79	1722.34
883.95	1691.62
884.12	1732.58
884.29	1701.86
884.45	1714.15
884.62	1718.25
884.78	1687.53
884.95	1728.49
885.11	1687.53
885.28	1665.00
885.44	1681.38
885.61	1751.01
885.77	1773.54
885.94	1710.05
886.10	1685.48
886.27	1744.87
886.43	1796.07
886.60	1775.59
886.76	1718.25
886.93	1642.47
887.09	1697.77
887.26	1675.24
887.42	1656.81
887.59	1736.68
887.75	1863.65
887.92	1751.01
888.08	1722.34
888.25	1861.60
888.41	1796.07
888.58	1775.59
888.74	1669.09
888.91	1667.05
>>>>>End Processed Spectral Data<<<<<
