SpectraSuite Data File
++++++++++++++++++++++++++++++++++++
Date: Wed May 04 18:43:58 CEST 2016
User: root
Dark Spectrum Present: No
Reference Spectrum Present: No
Number of Sampled Component Spectra: 1
Spectrometers: USB4C02835
Integration Time (usec): 100000 (USB4C02835)
Spectra Averaged: 1 (USB4C02835)
Boxcar Smoothing: 0 (USB4C02835)
Correct for Electrical Dark: No (USB4C02835)
Strobe/Lamp Enabled: No (USB4C02835)
Correct for Detector Non-linearity: No (USB4C02835)
Correct for Stray Light: No (USB4C02835)
Number of Pixels in Processed Spectrum: 3648
>>>>>Begin Processed Spectral Data<<<<<
177.47	1417.19
177.69	1417.19
177.91	1417.19
178.13	1486.83
178.36	1542.12
178.58	1632.23
178.80	1695.72
179.02	1568.74
179.24	1689.57
179.46	1734.63
179.68	1796.07
179.90	1615.85
180.13	1767.40
180.35	1712.10
180.57	1656.81
180.79	1808.36
181.01	1669.09
181.23	1740.77
181.45	1822.69
181.67	1804.26
181.90	1732.58
182.12	1673.19
182.34	1603.56
182.56	1767.40
182.78	1722.34
183.00	1705.96
183.22	1777.64
183.44	1554.41
183.66	1894.37
183.89	1767.40
184.11	1755.11
184.33	1669.09
184.55	1773.54
184.77	1761.25
184.99	1691.62
185.21	1681.38
185.43	1830.88
185.65	1587.18
185.87	1732.58
186.10	1837.03
186.32	1834.98
186.54	1751.01
186.76	1791.97
186.98	1738.73
187.20	1644.52
187.42	1695.72
187.64	1708.01
187.86	1718.25
188.08	1720.29
188.30	1675.24
188.52	1689.57
188.75	1748.97
188.97	1841.12
189.19	1681.38
189.41	1681.38
189.63	1775.59
189.85	1726.44
190.07	1591.27
190.29	1648.61
190.51	1685.48
190.73	1675.24
190.95	1755.11
191.17	1671.14
191.39	1658.85
191.61	1736.68
191.84	1716.20
192.06	1681.38
192.28	1644.52
192.50	1832.93
192.72	1744.87
192.94	1695.72
193.16	1781.73
193.38	1779.68
193.60	1705.96
193.82	1742.82
194.04	1753.06
194.26	1693.67
194.48	1751.01
194.70	1636.33
194.92	1660.90
195.14	1746.92
195.36	1671.14
195.58	1669.09
195.80	1681.38
196.02	1667.05
196.24	1701.86
196.46	1691.62
196.69	1693.67
196.91	1794.02
197.13	1744.87
197.35	1626.09
197.57	1796.07
197.79	1681.38
198.01	1724.39
198.23	1839.08
198.45	1710.05
198.67	1710.05
198.89	1703.91
199.11	1791.97
199.33	1662.95
199.55	1701.86
199.77	1699.81
199.99	1787.88
200.21	1683.43
200.43	1708.01
200.65	1701.86
200.87	1568.74
201.09	1656.81
201.31	1658.85
201.53	1681.38
201.75	1722.34
201.97	1621.99
202.19	1677.29
202.41	1712.10
202.63	1816.55
202.85	1738.73
203.07	1744.87
203.29	1712.10
203.51	1667.05
203.73	1658.85
203.95	1855.46
204.17	1744.87
204.39	1730.53
204.61	1748.97
204.83	1732.58
205.05	1751.01
205.27	1765.35
205.49	1802.21
205.71	1662.95
205.93	1564.65
206.15	1757.16
206.37	1724.39
206.59	1691.62
206.81	1679.33
207.03	1658.85
207.25	1619.94
207.47	1718.25
207.69	1703.91
207.91	1867.75
208.13	1779.68
208.34	1710.05
208.56	1636.33
208.78	1742.82
209.00	1615.85
209.22	1724.39
209.44	1695.72
209.66	1697.77
209.88	1716.20
210.10	1722.34
210.32	1656.81
210.54	1728.49
210.76	1681.38
210.98	1800.16
211.20	1531.88
211.42	1787.88
211.64	1734.63
211.86	1708.01
212.08	1734.63
212.30	1669.09
212.52	1683.43
212.74	1712.10
212.96	1683.43
213.17	1759.21
213.39	1689.57
213.61	1787.88
213.83	1755.11
214.05	1675.24
214.27	1687.53
214.49	1570.79
214.71	1673.19
214.93	1765.35
215.15	1650.66
215.37	1712.10
215.59	1656.81
215.81	1763.30
216.03	1744.87
216.24	1685.48
216.46	1701.86
216.68	1693.67
216.90	1785.83
217.12	1773.54
217.34	1751.01
217.56	1710.05
217.78	1822.69
218.00	1714.15
218.22	1708.01
218.44	1740.77
218.66	1798.12
218.87	1802.21
219.09	1708.01
219.31	1701.86
219.53	1753.06
219.75	1644.52
219.97	1669.09
220.19	1740.77
220.41	1685.48
220.63	1810.40
220.85	1712.10
221.06	1685.48
221.28	1751.01
221.50	1771.49
221.72	1667.05
221.94	1699.81
222.16	1681.38
222.38	1796.07
222.60	1736.68
222.82	1658.85
223.03	1810.40
223.25	1669.09
223.47	1804.26
223.69	1834.98
223.91	1761.25
224.13	1708.01
224.35	1720.29
224.57	1722.34
224.78	1810.40
225.00	1609.70
225.22	1679.33
225.44	1665.00
225.66	1779.68
225.88	1671.14
226.10	1748.97
226.32	1722.34
226.53	1826.79
226.75	1689.57
226.97	1656.81
227.19	1724.39
227.41	1658.85
227.63	1624.04
227.85	1609.70
228.06	1679.33
228.28	1697.77
228.50	1736.68
228.72	1566.70
228.94	1617.90
229.16	1619.94
229.37	1724.39
229.59	1693.67
229.81	1834.98
230.03	1648.61
230.25	1654.76
230.47	1685.48
230.69	1589.22
230.90	1730.53
231.12	1671.14
231.34	1738.73
231.56	1834.98
231.78	1685.48
232.00	1722.34
232.21	1738.73
232.43	1720.29
232.65	1546.22
232.87	1708.01
233.09	1681.38
233.30	1699.81
233.52	1763.30
233.74	1681.38
233.96	1685.48
234.18	1755.11
234.40	1687.53
234.61	1845.22
234.83	1654.76
235.05	1628.14
235.27	1859.56
235.49	1753.06
235.70	1753.06
235.92	1820.64
236.14	1744.87
236.36	1894.37
236.58	1640.42
236.79	1712.10
237.01	1695.72
237.23	1730.53
237.45	1847.27
237.67	1656.81
237.88	1728.49
238.10	1759.21
238.32	1656.81
238.54	1718.25
238.76	1722.34
238.97	1673.19
239.19	1689.57
239.41	1796.07
239.63	1767.40
239.85	1695.72
240.06	1740.77
240.28	1630.18
240.50	1820.64
240.72	1656.81
240.93	1708.01
241.15	1753.06
241.37	1646.57
241.59	1712.10
241.81	1662.95
242.02	1734.63
242.24	1734.63
242.46	1654.76
242.68	1742.82
242.89	1740.77
243.11	1773.54
243.33	1724.39
243.55	1773.54
243.76	1667.05
243.98	1701.86
244.20	1691.62
244.42	1755.11
244.64	1708.01
244.85	1667.05
245.07	1665.00
245.29	1689.57
245.51	1669.09
245.72	1697.77
245.94	1691.62
246.16	1638.38
246.38	1740.77
246.59	1660.90
246.81	1665.00
247.03	1669.09
247.24	1650.66
247.46	1619.94
247.68	1669.09
247.90	1699.81
248.11	1730.53
248.33	1738.73
248.55	1730.53
248.77	1712.10
248.98	1824.74
249.20	1832.93
249.42	1669.09
249.64	1685.48
249.85	1714.15
250.07	1685.48
250.29	1771.49
250.50	1667.05
250.72	1681.38
250.94	1761.25
251.16	1791.97
251.37	1808.36
251.59	1771.49
251.81	1730.53
252.02	1830.88
252.24	1695.72
252.46	1734.63
252.68	1697.77
252.89	1730.53
253.11	1624.04
253.33	1804.26
253.54	1824.74
253.76	1675.24
253.98	1732.58
254.20	1751.01
254.41	1624.04
254.63	1677.29
254.85	1673.19
255.06	1714.15
255.28	1695.72
255.50	1660.90
255.71	1693.67
255.93	1667.05
256.15	1732.58
256.36	1656.81
256.58	1660.90
256.80	1691.62
257.02	1791.97
257.23	1699.81
257.45	1677.29
257.67	1726.44
257.88	1662.95
258.10	1779.68
258.32	1701.86
258.53	1728.49
258.75	1765.35
258.97	1710.05
259.18	1740.77
259.40	1791.97
259.62	1822.69
259.83	1843.17
260.05	1759.21
260.27	1929.19
260.48	1726.44
260.70	1640.42
260.92	1722.34
261.13	1718.25
261.35	1710.05
261.57	1718.25
261.78	1578.98
262.00	1755.11
262.22	1779.68
262.43	1624.04
262.65	1640.42
262.86	1691.62
263.08	1820.64
263.30	1722.34
263.51	1624.04
263.73	1648.61
263.95	1761.25
264.16	1615.85
264.38	1654.76
264.60	1712.10
264.81	1665.00
265.03	1746.92
265.25	1695.72
265.46	1673.19
265.68	1736.68
265.89	1640.42
266.11	1613.80
266.33	1777.64
266.54	1759.21
266.76	1804.26
266.98	1736.68
267.19	1839.08
267.41	1732.58
267.62	1675.24
267.84	1634.28
268.06	1724.39
268.27	1716.20
268.49	1755.11
268.70	1708.01
268.92	1701.86
269.14	1703.91
269.35	1593.32
269.57	1767.40
269.79	1726.44
270.00	1648.61
270.22	1769.44
270.43	1687.53
270.65	1560.55
270.87	1730.53
271.08	1744.87
271.30	1791.97
271.51	1703.91
271.73	1773.54
271.95	1789.92
272.16	1753.06
272.38	1689.57
272.59	1679.33
272.81	1681.38
273.02	1738.73
273.24	1779.68
273.46	1789.92
273.67	1607.66
273.89	1669.09
274.10	1658.85
274.32	1744.87
274.54	1714.15
274.75	1716.20
274.97	1726.44
275.18	1740.77
275.40	1705.96
275.61	1708.01
275.83	1697.77
276.05	1646.57
276.26	1761.25
276.48	1740.77
276.69	1703.91
276.91	1718.25
277.12	1839.08
277.34	1763.30
277.55	1751.01
277.77	1703.91
277.99	1703.91
278.20	1677.29
278.42	1667.05
278.63	1628.14
278.85	1697.77
279.06	1593.32
279.28	1705.96
279.49	1712.10
279.71	1765.35
279.93	1779.68
280.14	1740.77
280.36	1687.53
280.57	1773.54
280.79	1705.96
281.00	1685.48
281.22	1710.05
281.43	1775.59
281.65	1585.13
281.86	1626.09
282.08	1783.78
282.29	1787.88
282.51	1677.29
282.73	1681.38
282.94	1544.17
283.16	1755.11
283.37	1781.73
283.59	1716.20
283.80	1822.69
284.02	1660.90
284.23	1771.49
284.45	1644.52
284.66	1630.18
284.88	1671.14
285.09	1742.82
285.31	1822.69
285.52	1775.59
285.74	1650.66
285.95	1796.07
286.17	1703.91
286.38	1689.57
286.60	1681.38
286.81	1630.18
287.03	1648.61
287.24	1662.95
287.46	1712.10
287.67	1746.92
287.89	1751.01
288.10	1730.53
288.32	1740.77
288.53	1820.64
288.75	1810.40
288.96	1751.01
289.18	1812.45
289.39	1710.05
289.61	1728.49
289.82	1851.36
290.04	1841.12
290.25	1673.19
290.47	1746.92
290.68	1679.33
290.90	1775.59
291.11	1595.37
291.33	1800.16
291.54	1669.09
291.76	1673.19
291.97	1701.86
292.18	1789.92
292.40	1697.77
292.61	1599.46
292.83	1814.50
293.04	1816.55
293.26	1712.10
293.47	1681.38
293.69	1667.05
293.90	1636.33
294.12	1796.07
294.33	1724.39
294.55	1742.82
294.76	1775.59
294.97	1791.97
295.19	1808.36
295.40	1685.48
295.62	1785.83
295.83	1857.51
296.05	1652.71
296.26	1761.25
296.48	1634.28
296.69	1673.19
296.90	1746.92
297.12	1808.36
297.33	1787.88
297.55	1665.00
297.76	1703.91
297.98	1804.26
298.19	1708.01
298.41	1716.20
298.62	1603.56
298.83	1863.65
299.05	1779.68
299.26	1671.14
299.48	1619.94
299.69	1765.35
299.90	1685.48
300.12	1730.53
300.33	1736.68
300.55	1763.30
300.76	1732.58
300.98	1591.27
301.19	1806.31
301.40	1716.20
301.62	1767.40
301.83	1665.00
302.05	1716.20
302.26	1697.77
302.47	1710.05
302.69	1656.81
302.90	1669.09
303.12	1632.23
303.33	1816.55
303.54	1787.88
303.76	1658.85
303.97	1736.68
304.19	1841.12
304.40	1736.68
304.61	1734.63
304.83	1722.34
305.04	1742.82
305.26	1773.54
305.47	1693.67
305.68	1662.95
305.90	1615.85
306.11	1791.97
306.33	1673.19
306.54	1628.14
306.75	1703.91
306.97	1570.79
307.18	1673.19
307.39	1652.71
307.61	1746.92
307.82	1617.90
308.04	1740.77
308.25	1677.29
308.46	1660.90
308.68	1738.73
308.89	1728.49
309.10	1781.73
309.32	1714.15
309.53	1689.57
309.74	1718.25
309.96	1701.86
310.17	1802.21
310.39	1624.04
310.60	1748.97
310.81	1701.86
311.03	1650.66
311.24	1751.01
311.45	1683.43
311.67	1837.03
311.88	1781.73
312.09	1710.05
312.31	1591.27
312.52	1789.92
312.73	1759.21
312.95	1607.66
313.16	1687.53
313.37	1691.62
313.59	1703.91
313.80	1767.40
314.01	1814.50
314.23	1697.77
314.44	1658.85
314.65	1693.67
314.87	1581.03
315.08	1708.01
315.29	1738.73
315.51	1746.92
315.72	1669.09
315.93	1791.97
316.15	1816.55
316.36	1728.49
316.57	1708.01
316.79	1720.29
317.00	1660.90
317.21	1695.72
317.43	1638.38
317.64	1730.53
317.85	1724.39
318.07	1697.77
318.28	1693.67
318.49	1845.22
318.70	1961.95
318.92	1882.08
319.13	1882.08
319.34	1898.47
319.56	1830.88
319.77	1759.21
319.98	1798.12
320.20	1765.35
320.41	1806.31
320.62	1734.63
320.83	1675.24
321.05	1855.46
321.26	1685.48
321.47	1697.77
321.69	1832.93
321.90	1636.33
322.11	1656.81
322.32	1759.21
322.54	1808.36
322.75	1697.77
322.96	1855.46
323.18	1617.90
323.39	1634.28
323.60	1607.66
323.81	1773.54
324.03	1689.57
324.24	1716.20
324.45	1746.92
324.66	1710.05
324.88	1753.06
325.09	1767.40
325.30	1738.73
325.52	1736.68
325.73	1689.57
325.94	1648.61
326.15	1646.57
326.37	1660.90
326.58	1755.11
326.79	1822.69
327.00	1656.81
327.22	1751.01
327.43	1728.49
327.64	1648.61
327.85	1806.31
328.07	1681.38
328.28	1871.84
328.49	1710.05
328.70	1652.71
328.92	1708.01
329.13	1695.72
329.34	1769.44
329.55	1837.03
329.76	1773.54
329.98	1691.62
330.19	1814.50
330.40	1720.29
330.61	1712.10
330.83	1775.59
331.04	1681.38
331.25	1720.29
331.46	1675.24
331.68	1705.96
331.89	1839.08
332.10	1787.88
332.31	1599.46
332.52	1720.29
332.74	1757.16
332.95	1683.43
333.16	1714.15
333.37	1771.49
333.58	1669.09
333.80	1775.59
334.01	1611.75
334.22	1708.01
334.43	1685.48
334.64	1748.97
334.86	1748.97
335.07	1615.85
335.28	1757.16
335.49	1667.05
335.70	1687.53
335.92	1763.30
336.13	1800.16
336.34	1730.53
336.55	1753.06
336.76	1699.81
336.98	1507.30
337.19	1738.73
337.40	1753.06
337.61	1769.44
337.82	1689.57
338.04	1740.77
338.25	1619.94
338.46	1695.72
338.67	1697.77
338.88	1621.99
339.09	1679.33
339.31	1640.42
339.52	1660.90
339.73	1591.27
339.94	1720.29
340.15	1773.54
340.36	1691.62
340.58	1705.96
340.79	1667.05
341.00	1796.07
341.21	1675.24
341.42	1818.60
341.63	1640.42
341.85	1691.62
342.06	1701.86
342.27	1701.86
342.48	1765.35
342.69	1689.57
342.90	1720.29
343.12	1796.07
343.33	1652.71
343.54	1716.20
343.75	1810.40
343.96	1744.87
344.17	1648.61
344.38	1777.64
344.60	1642.47
344.81	1654.76
345.02	1695.72
345.23	1736.68
345.44	1839.08
345.65	1748.97
345.86	1697.77
346.07	1699.81
346.29	1738.73
346.50	1728.49
346.71	1796.07
346.92	1820.64
347.13	1824.74
347.34	1748.97
347.55	1714.15
347.76	1726.44
347.98	1583.08
348.19	1669.09
348.40	1742.82
348.61	1722.34
348.82	1804.26
349.03	1759.21
349.24	1619.94
349.45	1789.92
349.66	1566.70
349.88	1673.19
350.09	1705.96
350.30	1767.40
350.51	1718.25
350.72	1761.25
350.93	1773.54
351.14	1632.23
351.35	1740.77
351.56	1726.44
351.77	1724.39
351.99	1757.16
352.20	1703.91
352.41	1787.88
352.62	1624.04
352.83	1722.34
353.04	1673.19
353.25	1644.52
353.46	1759.21
353.67	1744.87
353.88	1710.05
354.09	1775.59
354.30	1677.29
354.52	1775.59
354.73	1771.49
354.94	1628.14
355.15	1701.86
355.36	1763.30
355.57	1675.24
355.78	1718.25
355.99	1679.33
356.20	1703.91
356.41	1828.84
356.62	1660.90
356.83	1705.96
357.04	1767.40
357.25	1632.23
357.46	1732.58
357.68	1675.24
357.89	1685.48
358.10	1675.24
358.31	1679.33
358.52	1705.96
358.73	1617.90
358.94	1656.81
359.15	1656.81
359.36	1730.53
359.57	1632.23
359.78	1697.77
359.99	1738.73
360.20	1681.38
360.41	1691.62
360.62	1710.05
360.83	1697.77
361.04	1744.87
361.25	1763.30
361.46	1773.54
361.67	1763.30
361.88	1732.58
362.09	1742.82
362.30	1794.02
362.51	1728.49
362.72	1705.96
362.93	1763.30
363.14	1691.62
363.35	1677.29
363.56	1669.09
363.78	1783.78
363.99	1712.10
364.20	1705.96
364.41	1669.09
364.62	1775.59
364.83	1697.77
365.04	1677.29
365.25	1712.10
365.46	1751.01
365.67	1673.19
365.88	1714.15
366.09	1757.16
366.30	1681.38
366.51	1703.91
366.72	1640.42
366.93	1687.53
367.14	1740.77
367.35	1771.49
367.56	1650.66
367.77	1832.93
367.98	1671.14
368.18	1781.73
368.39	1708.01
368.60	1611.75
368.81	1779.68
369.02	1724.39
369.23	1683.43
369.44	1628.14
369.65	1763.30
369.86	1724.39
370.07	1830.88
370.28	1656.81
370.49	1796.07
370.70	1734.63
370.91	1642.47
371.12	1712.10
371.33	1718.25
371.54	1632.23
371.75	1906.66
371.96	1642.47
372.17	1791.97
372.38	1728.49
372.59	1701.86
372.80	1689.57
373.01	1718.25
373.22	1783.78
373.43	1736.68
373.64	1675.24
373.85	1816.55
374.06	1800.16
374.26	1669.09
374.47	1716.20
374.68	1824.74
374.89	1781.73
375.10	1730.53
375.31	1665.00
375.52	1722.34
375.73	1718.25
375.94	1685.48
376.15	1746.92
376.36	1652.71
376.57	1712.10
376.78	1712.10
376.99	1695.72
377.20	1814.50
377.40	1683.43
377.61	1810.40
377.82	1681.38
378.03	1769.44
378.24	1746.92
378.45	1607.66
378.66	1703.91
378.87	1665.00
379.08	1609.70
379.29	1683.43
379.50	1718.25
379.71	1703.91
379.91	1773.54
380.12	1693.67
380.33	1665.00
380.54	1652.71
380.75	1705.96
380.96	1685.48
381.17	1724.39
381.38	1734.63
381.59	1800.16
381.80	1708.01
382.00	1837.03
382.21	1824.74
382.42	1902.56
382.63	1865.70
382.84	1763.30
383.05	1718.25
383.26	1812.45
383.47	1787.88
383.68	1798.12
383.88	1697.77
384.09	1716.20
384.30	1839.08
384.51	1691.62
384.72	1804.26
384.93	1679.33
385.14	1755.11
385.35	1800.16
385.55	1646.57
385.76	1798.12
385.97	1718.25
386.18	1687.53
386.39	1644.52
386.60	1685.48
386.81	1685.48
387.02	1701.86
387.22	1642.47
387.43	1767.40
387.64	1816.55
387.85	1904.61
388.06	2330.59
388.27	4644.79
388.48	9135.99
388.68	11603.79
388.89	13371.19
389.10	14014.25
389.31	11781.96
389.52	9647.98
389.73	8560.51
389.93	7819.14
390.14	7208.85
390.35	6727.58
390.56	5949.35
390.77	4958.13
390.98	3885.00
391.18	2994.13
391.39	2392.03
391.60	1970.15
391.81	1796.07
392.02	1748.97
392.23	1849.32
392.43	1728.49
392.64	1783.78
392.85	1718.25
393.06	1841.12
393.27	1685.48
393.47	1667.05
393.68	1699.81
393.89	1742.82
394.10	1794.02
394.31	1665.00
394.52	1597.42
394.72	1740.77
394.93	1857.51
395.14	1648.61
395.35	1783.78
395.56	1642.47
395.76	1705.96
395.97	1751.01
396.18	1892.32
396.39	1933.28
396.60	2144.22
396.80	1974.24
397.01	1880.04
397.22	1853.41
397.43	1920.99
397.64	1726.44
397.84	1853.41
398.05	1906.66
398.26	1728.49
398.47	1724.39
398.67	1796.07
398.88	1751.01
399.09	1726.44
399.30	1744.87
399.51	1773.54
399.71	1691.62
399.92	1724.39
400.13	1847.27
400.34	1681.38
400.54	1652.71
400.75	1828.84
400.96	1714.15
401.17	1830.88
401.37	1806.31
401.58	1742.82
401.79	1710.05
402.00	1925.09
402.21	2101.22
402.41	2013.15
402.62	2060.26
402.83	2131.94
403.04	2162.66
403.24	2187.23
403.45	1931.23
403.66	2043.87
403.87	1904.61
404.07	1910.75
404.28	2021.35
404.49	1877.99
404.70	1892.32
404.90	1814.50
405.11	1798.12
405.32	1800.16
405.52	1656.81
405.73	1628.14
405.94	1695.72
406.15	1789.92
406.35	1763.30
406.56	1726.44
406.77	1652.71
406.98	1728.49
407.18	1726.44
407.39	1859.56
407.60	1683.43
407.80	1736.68
408.01	1726.44
408.22	1812.45
408.43	1728.49
408.63	1753.06
408.84	1773.54
409.05	1765.35
409.25	1658.85
409.46	1660.90
409.67	1726.44
409.88	1667.05
410.08	1699.81
410.29	1728.49
410.50	1755.11
410.70	1779.68
410.91	1648.61
411.12	1708.01
411.32	1738.73
411.53	1611.75
411.74	1818.60
411.95	1808.36
412.15	1834.98
412.36	1847.27
412.57	1818.60
412.77	1798.12
412.98	1810.40
413.19	1755.11
413.39	1777.64
413.60	1779.68
413.81	1857.51
414.01	1740.77
414.22	1746.92
414.43	1804.26
414.63	1697.77
414.84	1816.55
415.05	1757.16
415.25	1632.23
415.46	1728.49
415.67	1722.34
415.87	1761.25
416.08	1767.40
416.29	1675.24
416.49	1824.74
416.70	1716.20
416.91	1681.38
417.11	1677.29
417.32	1705.96
417.53	1738.73
417.73	1730.53
417.94	1761.25
418.15	1716.20
418.35	1640.42
418.56	1640.42
418.77	1855.46
418.97	1665.00
419.18	1757.16
419.38	1566.70
419.59	1775.59
419.80	1861.60
420.00	1632.23
420.21	1783.78
420.42	1857.51
420.62	1732.58
420.83	1726.44
421.04	1689.57
421.24	1665.00
421.45	1751.01
421.65	1730.53
421.86	1644.52
422.07	1800.16
422.27	1728.49
422.48	1789.92
422.69	1705.96
422.89	1679.33
423.10	1689.57
423.30	1779.68
423.51	1681.38
423.72	1636.33
423.92	1665.00
424.13	1726.44
424.33	1748.97
424.54	1703.91
424.75	1751.01
424.95	1861.60
425.16	1746.92
425.36	1714.15
425.57	1783.78
425.78	1726.44
425.98	1710.05
426.19	1759.21
426.39	1599.46
426.60	1701.86
426.81	1769.44
427.01	1662.95
427.22	1718.25
427.42	1738.73
427.63	1624.04
427.83	1837.03
428.04	1777.64
428.25	1732.58
428.45	1724.39
428.66	1757.16
428.86	1691.62
429.07	1761.25
429.28	1681.38
429.48	1710.05
429.69	1728.49
429.89	1675.24
430.10	1738.73
430.30	1773.54
430.51	1734.63
430.71	1646.57
430.92	1705.96
431.13	1615.85
431.33	1746.92
431.54	1708.01
431.74	1875.94
431.95	1865.70
432.15	1652.71
432.36	1654.76
432.56	1662.95
432.77	1832.93
432.98	1822.69
433.18	1800.16
433.39	1751.01
433.59	1714.15
433.80	1824.74
434.00	1871.84
434.21	1683.43
434.41	1697.77
434.62	1837.03
434.82	1675.24
435.03	1732.58
435.23	1767.40
435.44	1632.23
435.64	1722.34
435.85	1705.96
436.06	1779.68
436.26	1798.12
436.47	1779.68
436.67	1718.25
436.88	1701.86
437.08	1802.21
437.29	1759.21
437.49	1787.88
437.70	1828.84
437.90	1724.39
438.11	1796.07
438.31	1779.68
438.52	1859.56
438.72	1900.52
438.93	1996.77
439.13	1759.21
439.34	1908.71
439.54	1785.83
439.75	1794.02
439.95	1822.69
440.16	1708.01
440.36	1769.44
440.57	1791.97
440.77	1789.92
440.98	1732.58
441.18	1755.11
441.39	1708.01
441.59	1630.18
441.80	1824.74
442.00	1716.20
442.21	1843.17
442.41	1710.05
442.62	1769.44
442.82	1660.90
443.02	1701.86
443.23	1757.16
443.43	1763.30
443.64	1779.68
443.84	1695.72
444.05	1853.41
444.25	1742.82
444.46	1751.01
444.66	1742.82
444.87	1824.74
445.07	1660.90
445.28	1746.92
445.48	1781.73
445.69	1845.22
445.89	1839.08
446.09	1773.54
446.30	1982.43
446.50	2527.19
446.71	4204.48
446.91	5148.59
447.12	5818.28
447.32	6057.89
447.53	5267.38
447.73	4431.80
447.93	3940.29
448.14	3545.03
448.34	3510.22
448.55	3102.67
448.75	3086.29
448.96	2938.84
449.16	2658.26
449.36	2426.84
449.57	2084.83
449.77	1976.29
449.98	1816.55
450.18	1914.85
450.39	1802.21
450.59	1808.36
450.79	1691.62
451.00	1665.00
451.20	1861.60
451.41	1675.24
451.61	1724.39
451.81	1724.39
452.02	1679.33
452.22	1718.25
452.43	1679.33
452.63	1769.44
452.84	1736.68
453.04	1763.30
453.24	1693.67
453.45	1675.24
453.65	1726.44
453.86	1724.39
454.06	1753.06
454.26	1777.64
454.47	1718.25
454.67	1828.84
454.87	1765.35
455.08	1771.49
455.28	1832.93
455.49	1763.30
455.69	1708.01
455.89	1869.80
456.10	1742.82
456.30	1751.01
456.51	1806.31
456.71	1773.54
456.91	1820.64
457.12	1884.13
457.32	1785.83
457.52	1669.09
457.73	1794.02
457.93	1734.63
458.14	1779.68
458.34	1724.39
458.54	1726.44
458.75	1656.81
458.95	1841.12
459.15	1765.35
459.36	1734.63
459.56	1820.64
459.76	1912.80
459.97	1740.77
460.17	1726.44
460.37	1828.84
460.58	1714.15
460.78	1806.31
460.99	1714.15
461.19	1738.73
461.39	1693.67
461.60	1822.69
461.80	1812.45
462.00	1728.49
462.21	1708.01
462.41	1683.43
462.61	1648.61
462.82	1734.63
463.02	1765.35
463.22	1691.62
463.43	1839.08
463.63	1665.00
463.83	1845.22
464.04	1683.43
464.24	1689.57
464.44	1681.38
464.64	1787.88
464.85	1791.97
465.05	1822.69
465.25	1712.10
465.46	1673.19
465.66	1673.19
465.86	1775.59
466.07	1744.87
466.27	1732.58
466.47	1619.94
466.68	1695.72
466.88	1869.80
467.08	1773.54
467.29	1755.11
467.49	1767.40
467.69	1681.38
467.89	1755.11
468.10	1689.57
468.30	1712.10
468.50	1804.26
468.71	1769.44
468.91	1644.52
469.11	1830.88
469.31	1740.77
469.52	1640.42
469.72	1839.08
469.92	1861.60
470.13	1767.40
470.33	1710.05
470.53	1832.93
470.73	2162.66
470.94	2527.19
471.14	2697.17
471.34	2951.12
471.54	2815.96
471.75	2535.39
471.95	2369.50
472.15	2299.87
472.36	2283.49
472.56	2281.44
472.76	2025.44
472.96	2123.74
473.17	2103.26
473.37	2068.45
473.57	1853.41
473.77	1888.23
473.98	1800.16
474.18	1728.49
474.38	1826.79
474.58	1732.58
474.79	1734.63
474.99	1824.74
475.19	1794.02
475.39	1654.76
475.60	1796.07
475.80	1789.92
476.00	1740.77
476.20	1652.71
476.41	1789.92
476.61	1832.93
476.81	1812.45
477.01	1703.91
477.21	1869.80
477.42	1849.32
477.62	1695.72
477.82	1757.16
478.02	1783.78
478.23	1777.64
478.43	1636.33
478.63	1675.24
478.83	1746.92
479.03	1632.23
479.24	1834.98
479.44	1859.56
479.64	1654.76
479.84	1644.52
480.04	1683.43
480.25	1751.01
480.45	1765.35
480.65	1742.82
480.85	1759.21
481.06	1665.00
481.26	1804.26
481.46	1828.84
481.66	1701.86
481.86	1701.86
482.06	1783.78
482.27	1724.39
482.47	1724.39
482.67	1742.82
482.87	1722.34
483.07	1837.03
483.28	1712.10
483.48	1669.09
483.68	1640.42
483.88	1662.95
484.08	1613.80
484.29	1650.66
484.49	1763.30
484.69	1703.91
484.89	1816.55
485.09	1773.54
485.29	1771.49
485.50	1751.01
485.70	1710.05
485.90	1771.49
486.10	1667.05
486.30	1720.29
486.50	1816.55
486.71	1656.81
486.91	1726.44
487.11	1791.97
487.31	1660.90
487.51	1798.12
487.71	1718.25
487.91	1632.23
488.12	1652.71
488.32	1595.37
488.52	1738.73
488.72	1560.55
488.92	1726.44
489.12	1755.11
489.32	1777.64
489.53	1781.73
489.73	1669.09
489.93	1822.69
490.13	1759.21
490.33	1634.28
490.53	1771.49
490.73	1794.02
490.94	1574.89
491.14	1751.01
491.34	1779.68
491.54	2123.74
491.74	2713.56
491.94	3170.26
492.14	3495.88
492.34	3608.52
492.54	3268.56
492.75	2707.41
492.95	2594.78
493.15	2451.42
493.35	2408.41
493.55	2297.82
493.75	2256.86
493.95	2215.90
494.15	2125.79
494.35	1908.71
494.56	1939.43
494.76	1861.60
494.96	1777.64
495.16	1824.74
495.36	1734.63
495.56	1777.64
495.76	1617.90
495.96	1705.96
496.16	1716.20
496.36	1910.75
496.56	1746.92
496.77	1826.79
496.97	1761.25
497.17	1763.30
497.37	1687.53
497.57	1794.02
497.77	1757.16
497.97	1642.47
498.17	1720.29
498.37	1751.01
498.57	1732.58
498.77	1662.95
498.97	1775.59
499.17	1771.49
499.38	1714.15
499.58	1816.55
499.78	1742.82
499.98	1818.60
500.18	1730.53
500.38	1730.53
500.58	1916.90
500.78	2420.70
500.98	4671.42
501.18	6647.71
501.38	8161.16
501.58	9117.56
501.78	8740.73
501.98	6793.11
502.18	5775.27
502.38	5031.86
502.58	4472.76
502.78	4040.64
502.98	3973.06
503.18	3790.79
503.38	3516.36
503.59	3211.22
503.79	2914.26
503.99	2594.78
504.19	2408.41
504.39	2263.01
504.59	2326.49
504.79	2367.45
504.99	2166.75
505.19	2000.87
505.39	2009.06
505.59	2045.92
505.79	1970.15
505.99	1898.47
506.19	1798.12
506.39	1984.48
506.59	1751.01
506.79	1812.45
506.99	1923.04
507.19	1748.97
507.39	1771.49
507.59	1642.47
507.79	1767.40
507.99	1763.30
508.19	1773.54
508.39	1724.39
508.59	1720.29
508.79	1787.88
508.99	1898.47
509.19	1710.05
509.39	1767.40
509.59	1691.62
509.79	1738.73
509.99	1679.33
510.19	1714.15
510.39	1857.51
510.59	1738.73
510.79	1669.09
510.99	1683.43
511.19	1738.73
511.39	1767.40
511.59	1716.20
511.79	1777.64
511.99	1777.64
512.19	1738.73
512.38	1714.15
512.58	1769.44
512.78	1660.90
512.98	1775.59
513.18	1839.08
513.38	1597.42
513.58	1800.16
513.78	1769.44
513.98	1634.28
514.18	1773.54
514.38	1810.40
514.58	1814.50
514.78	1679.33
514.98	1665.00
515.18	1765.35
515.38	1701.86
515.58	1771.49
515.78	1779.68
515.98	1691.62
516.18	1753.06
516.38	1730.53
516.57	1726.44
516.77	1763.30
516.97	1755.11
517.17	1757.16
517.37	1621.99
517.57	1808.36
517.77	1689.57
517.97	1671.14
518.17	1796.07
518.37	1738.73
518.57	1687.53
518.77	1671.14
518.97	1726.44
519.16	1779.68
519.36	1779.68
519.56	1703.91
519.76	1769.44
519.96	1775.59
520.16	1818.60
520.36	1751.01
520.56	1824.74
520.76	1714.15
520.96	1734.63
521.16	1814.50
521.35	1796.07
521.55	1783.78
521.75	1759.21
521.95	1697.77
522.15	1675.24
522.35	1751.01
522.55	1730.53
522.75	1730.53
522.95	1716.20
523.14	1740.77
523.34	1734.63
523.54	1673.19
523.74	1773.54
523.94	1691.62
524.14	1691.62
524.34	1722.34
524.54	1773.54
524.73	1718.25
524.93	1734.63
525.13	1746.92
525.33	1718.25
525.53	1855.46
525.73	1785.83
525.93	1730.53
526.13	1652.71
526.32	1714.15
526.52	1796.07
526.72	1820.64
526.92	1675.24
527.12	1763.30
527.32	1687.53
527.52	1757.16
527.71	1769.44
527.91	1740.77
528.11	1624.04
528.31	1753.06
528.51	1736.68
528.71	1751.01
528.90	1734.63
529.10	1759.21
529.30	1775.59
529.50	1634.28
529.70	1832.93
529.90	1796.07
530.09	1724.39
530.29	1722.34
530.49	1753.06
530.69	1851.36
530.89	1744.87
531.09	1712.10
531.28	1738.73
531.48	1724.39
531.68	1705.96
531.88	1746.92
532.08	1796.07
532.28	1742.82
532.47	1759.21
532.67	1773.54
532.87	1765.35
533.07	1675.24
533.27	1748.97
533.46	1787.88
533.66	1769.44
533.86	1755.11
534.06	1804.26
534.26	1773.54
534.45	1804.26
534.65	1816.55
534.85	1769.44
535.05	1718.25
535.25	1783.78
535.44	1607.66
535.64	1763.30
535.84	1734.63
536.04	1757.16
536.24	1740.77
536.43	1619.94
536.63	1697.77
536.83	1742.82
537.03	1740.77
537.22	1677.29
537.42	1640.42
537.62	1785.83
537.82	1679.33
538.02	1779.68
538.21	1789.92
538.41	1968.10
538.61	1826.79
538.81	1708.01
539.00	1841.12
539.20	1574.89
539.40	1759.21
539.60	1755.11
539.79	1767.40
539.99	1742.82
540.19	1646.57
540.39	1734.63
540.58	1761.25
540.78	1755.11
540.98	1820.64
541.18	1873.89
541.37	1816.55
541.57	1720.29
541.77	1773.54
541.97	1665.00
542.16	1755.11
542.36	1675.24
542.56	1759.21
542.76	1796.07
542.95	1757.16
543.15	1708.01
543.35	1742.82
543.54	1611.75
543.74	1708.01
543.94	1841.12
544.14	1744.87
544.33	1740.77
544.53	1699.81
544.73	1693.67
544.93	1769.44
545.12	1687.53
545.32	1755.11
545.52	1679.33
545.71	1683.43
545.91	1652.71
546.11	1697.77
546.30	1742.82
546.50	1767.40
546.70	1777.64
546.90	1808.36
547.09	1605.61
547.29	1785.83
547.49	1771.49
547.68	1609.70
547.88	1738.73
548.08	1730.53
548.27	2207.71
548.47	1701.86
548.67	1718.25
548.87	1779.68
549.06	1669.09
549.26	1708.01
549.46	1781.73
549.65	1605.61
549.85	1753.06
550.05	1816.55
550.24	1650.66
550.44	1828.84
550.64	1794.02
550.83	1724.39
551.03	1804.26
551.23	1861.60
551.42	1720.29
551.62	1726.44
551.82	1759.21
552.01	1730.53
552.21	1794.02
552.41	1738.73
552.60	1894.37
552.80	1742.82
553.00	1716.20
553.19	1738.73
553.39	1830.88
553.59	1685.48
553.78	1832.93
553.98	1822.69
554.17	1710.05
554.37	1759.21
554.57	1804.26
554.76	1677.29
554.96	1660.90
555.16	1841.12
555.35	1777.64
555.55	1757.16
555.75	1763.30
555.94	1783.78
556.14	1691.62
556.33	1759.21
556.53	1748.97
556.73	1703.91
556.92	1767.40
557.12	1882.08
557.32	1834.98
557.51	1884.13
557.71	1728.49
557.90	1789.92
558.10	1742.82
558.30	1718.25
558.49	1691.62
558.69	1691.62
558.88	1796.07
559.08	1757.16
559.28	1691.62
559.47	1773.54
559.67	1828.84
559.86	1902.56
560.06	1771.49
560.26	1744.87
560.45	1808.36
560.65	1648.61
560.84	1732.58
561.04	1708.01
561.24	1804.26
561.43	1673.19
561.63	1806.31
561.82	1810.40
562.02	1794.02
562.22	1744.87
562.41	1689.57
562.61	1642.47
562.80	1705.96
563.00	1863.65
563.19	1720.29
563.39	1804.26
563.59	1734.63
563.78	1679.33
563.98	1642.47
564.17	1761.25
564.37	1734.63
564.56	1742.82
564.76	1701.86
564.96	1791.97
565.15	1710.05
565.35	1812.45
565.54	1775.59
565.74	1847.27
565.93	1757.16
566.13	1783.78
566.32	1732.58
566.52	1736.68
566.71	1814.50
566.91	1769.44
567.11	1728.49
567.30	1738.73
567.50	1841.12
567.69	1779.68
567.89	1660.90
568.08	1597.42
568.28	1748.97
568.47	1701.86
568.67	1812.45
568.86	1755.11
569.06	1826.79
569.25	1761.25
569.45	1759.21
569.64	1660.90
569.84	1726.44
570.04	1759.21
570.23	1667.05
570.43	1783.78
570.62	1800.16
570.82	1746.92
571.01	1730.53
571.21	1701.86
571.40	1734.63
571.60	1822.69
571.79	1732.58
571.99	1800.16
572.18	1714.15
572.38	1722.34
572.57	1740.77
572.77	1779.68
572.96	1869.80
573.16	1783.78
573.35	1789.92
573.55	1908.71
573.74	1734.63
573.94	1742.82
574.13	1730.53
574.33	1863.65
574.52	1863.65
574.71	1751.01
574.91	1691.62
575.10	1701.86
575.30	1771.49
575.49	1722.34
575.69	1755.11
575.88	1796.07
576.08	1718.25
576.27	1843.17
576.47	1761.25
576.66	1861.60
576.86	1845.22
577.05	1845.22
577.25	1812.45
577.44	1929.19
577.64	1667.05
577.83	1839.08
578.02	1769.44
578.22	1902.56
578.41	1847.27
578.61	1806.31
578.80	1677.29
579.00	1740.77
579.19	1753.06
579.39	1818.60
579.58	1767.40
579.77	1763.30
579.97	1906.66
580.16	1822.69
580.36	1814.50
580.55	1828.84
580.75	1816.55
580.94	1701.86
581.13	1890.28
581.33	1875.94
581.52	1798.12
581.72	1877.99
581.91	1847.27
582.11	1755.11
582.30	1855.46
582.49	1839.08
582.69	1861.60
582.88	1806.31
583.08	1834.98
583.27	1828.84
583.47	1851.36
583.66	1769.44
583.85	1703.91
584.05	1712.10
584.24	1808.36
584.44	1814.50
584.63	1888.23
584.82	1902.56
585.02	1912.80
585.21	1861.60
585.41	1814.50
585.60	1861.60
585.79	2031.58
585.99	1984.48
586.18	1980.39
586.37	2236.38
586.57	3241.93
586.76	9930.60
586.96	27240.03
587.15	41768.32
587.34	51475.69
587.54	57431.19
587.73	55121.08
587.93	39767.46
588.12	29599.29
588.31	23651.99
588.51	20195.02
588.70	18339.56
588.89	17014.52
589.09	15212.31
589.28	13334.32
589.47	11292.50
589.67	9383.79
589.86	7382.93
590.06	5371.82
590.25	4237.25
590.44	3286.99
590.64	2586.58
590.83	2291.68
591.02	2125.79
591.22	1961.95
591.41	1877.99
591.60	1814.50
591.80	2007.01
591.99	1748.97
592.18	1757.16
592.38	1824.74
592.57	1689.57
592.76	1804.26
592.96	1796.07
593.15	1824.74
593.34	1783.78
593.54	1751.01
593.73	1832.93
593.92	1742.82
594.12	1816.55
594.31	1832.93
594.50	1839.08
594.70	1894.37
594.89	1945.57
595.08	1746.92
595.28	1820.64
595.47	2041.82
595.66	1789.92
595.86	1720.29
596.05	1679.33
596.24	1748.97
596.43	1871.84
596.63	1853.41
596.82	1869.80
597.01	1863.65
597.21	1888.23
597.40	1761.25
597.59	1787.88
597.79	1808.36
597.98	1783.78
598.17	1722.34
598.36	1705.96
598.56	1814.50
598.75	1789.92
598.94	1730.53
599.14	1828.84
599.33	1753.06
599.52	1820.64
599.71	1726.44
599.91	1771.49
600.10	1775.59
600.29	1681.38
600.48	1806.31
600.68	1736.68
600.87	1763.30
601.06	1677.29
601.26	1767.40
601.45	1722.34
601.64	1710.05
601.83	1820.64
602.03	1775.59
602.22	1677.29
602.41	1787.88
602.60	1875.94
602.80	1773.54
602.99	1845.22
603.18	1708.01
603.37	1742.82
603.57	1769.44
603.76	1812.45
603.95	1818.60
604.14	1681.38
604.34	1736.68
604.53	1675.24
604.72	1779.68
604.91	1796.07
605.10	1787.88
605.30	1710.05
605.49	1818.60
605.68	1804.26
605.87	1785.83
606.07	1665.00
606.26	1685.48
606.45	1843.17
606.64	1736.68
606.84	1773.54
607.03	1763.30
607.22	1820.64
607.41	1771.49
607.60	1753.06
607.80	1816.55
607.99	1685.48
608.18	1714.15
608.37	1701.86
608.56	1669.09
608.76	1781.73
608.95	1775.59
609.14	1796.07
609.33	1794.02
609.52	1894.37
609.72	1865.70
609.91	1832.93
610.10	1759.21
610.29	1787.88
610.48	1789.92
610.68	1769.44
610.87	1742.82
611.06	1767.40
611.25	1759.21
611.44	1849.32
611.63	1697.77
611.83	1794.02
612.02	1652.71
612.21	1822.69
612.40	1697.77
612.59	1662.95
612.79	1671.14
612.98	1785.83
613.17	1810.40
613.36	1744.87
613.55	1861.60
613.74	1861.60
613.93	1867.75
614.13	1947.62
614.32	1890.28
614.51	2058.21
614.70	1832.93
614.89	1779.68
615.08	1830.88
615.28	2166.75
615.47	1691.62
615.66	1820.64
615.85	1796.07
616.04	1880.04
616.23	1791.97
616.42	1796.07
616.62	1826.79
616.81	1816.55
617.00	1769.44
617.19	1773.54
617.38	1730.53
617.57	1761.25
617.76	1806.31
617.95	1837.03
618.15	1775.59
618.34	1853.41
618.53	1675.24
618.72	1763.30
618.91	1818.60
619.10	1828.84
619.29	1777.64
619.48	1718.25
619.68	1705.96
619.87	1751.01
620.06	1732.58
620.25	1720.29
620.44	1718.25
620.63	1718.25
620.82	1742.82
621.01	1724.39
621.20	1732.58
621.39	1765.35
621.59	1769.44
621.78	1787.88
621.97	1740.77
622.16	1742.82
622.35	1779.68
622.54	1736.68
622.73	1828.84
622.92	1716.20
623.11	1789.92
623.30	1693.67
623.49	1769.44
623.68	1718.25
623.88	1796.07
624.07	1714.15
624.26	1693.67
624.45	1781.73
624.64	1708.01
624.83	1736.68
625.02	1703.91
625.21	1734.63
625.40	1751.01
625.59	1714.15
625.78	1759.21
625.97	1775.59
626.16	1869.80
626.35	1789.92
626.54	1791.97
626.74	1920.99
626.93	1773.54
627.12	1705.96
627.31	1724.39
627.50	1810.40
627.69	1857.51
627.88	1755.11
628.07	1755.11
628.26	1695.72
628.45	1734.63
628.64	1740.77
628.83	1804.26
629.02	1701.86
629.21	1744.87
629.40	1718.25
629.59	1691.62
629.78	1736.68
629.97	1763.30
630.16	1804.26
630.35	1734.63
630.54	1771.49
630.73	1718.25
630.92	1804.26
631.11	1648.61
631.30	1740.77
631.49	1753.06
631.68	1783.78
631.87	1806.31
632.06	1587.18
632.25	1841.12
632.44	1718.25
632.63	1751.01
632.82	1845.22
633.01	1800.16
633.20	1898.47
633.39	1904.61
633.58	1669.09
633.77	1892.32
633.96	1857.51
634.15	1794.02
634.34	1755.11
634.53	1726.44
634.72	1689.57
634.91	1679.33
635.10	1826.79
635.29	1789.92
635.48	1746.92
635.67	1667.05
635.86	1671.14
636.05	1787.88
636.24	1720.29
636.43	1759.21
636.62	1671.14
636.81	1574.89
637.00	1769.44
637.19	1738.73
637.38	1738.73
637.57	1697.77
637.76	1775.59
637.95	1853.41
638.14	1796.07
638.33	1865.70
638.52	1832.93
638.71	1714.15
638.89	1720.29
639.08	1945.57
639.27	1800.16
639.46	1894.37
639.65	2129.89
639.84	2273.25
640.03	2328.54
640.22	2291.68
640.41	2496.47
640.60	2052.06
640.79	1990.63
640.98	1976.29
641.17	1966.05
641.36	1914.85
641.55	1947.62
641.74	1759.21
641.92	1763.30
642.11	1773.54
642.30	1689.57
642.49	1685.48
642.68	1728.49
642.87	1693.67
643.06	1726.44
643.25	1695.72
643.44	1763.30
643.63	1748.97
643.82	1742.82
644.00	1693.67
644.19	1722.34
644.38	1658.85
644.57	1730.53
644.76	1665.00
644.95	1714.15
645.14	1785.83
645.33	1703.91
645.52	1732.58
645.71	1628.14
645.89	1669.09
646.08	1683.43
646.27	1742.82
646.46	1779.68
646.65	1587.18
646.84	1722.34
647.03	1636.33
647.22	1744.87
647.40	1697.77
647.59	1806.31
647.78	1630.18
647.97	1705.96
648.16	1699.81
648.35	1755.11
648.54	1720.29
648.73	1714.15
648.91	1742.82
649.10	1800.16
649.29	1671.14
649.48	1785.83
649.67	1748.97
649.86	1699.81
650.05	1882.08
650.23	1890.28
650.42	1824.74
650.61	1933.28
650.80	1992.67
650.99	1970.15
651.18	1880.04
651.36	1869.80
651.55	1787.88
651.74	1841.12
651.93	1779.68
652.12	1738.73
652.31	1701.86
652.49	1828.84
652.68	1697.77
652.87	1804.26
653.06	1767.40
653.25	1849.32
653.44	1769.44
653.62	1820.64
653.81	1681.38
654.00	1730.53
654.19	1728.49
654.38	1837.03
654.56	1808.36
654.75	1714.15
654.94	1716.20
655.13	1734.63
655.32	1677.29
655.51	1781.73
655.69	1665.00
655.88	1638.38
656.07	1714.15
656.26	1742.82
656.45	1753.06
656.63	1796.07
656.82	1746.92
657.01	1748.97
657.20	1644.52
657.38	1789.92
657.57	1660.90
657.76	1644.52
657.95	1751.01
658.14	1658.85
658.32	1689.57
658.51	1732.58
658.70	1724.39
658.89	1714.15
659.08	1753.06
659.26	1824.74
659.45	1728.49
659.64	1796.07
659.83	1634.28
660.01	1902.56
660.20	1761.25
660.39	1779.68
660.58	1695.72
660.76	1771.49
660.95	1687.53
661.14	1779.68
661.33	1687.53
661.51	1689.57
661.70	1712.10
661.89	1673.19
662.08	1746.92
662.26	1710.05
662.45	1665.00
662.64	1816.55
662.83	1769.44
663.01	1638.38
663.20	1724.39
663.39	1806.31
663.58	1675.24
663.76	1724.39
663.95	1751.01
664.14	1771.49
664.32	1660.90
664.51	1712.10
664.70	1630.18
664.89	1738.73
665.07	1652.71
665.26	1802.21
665.45	1665.00
665.64	1820.64
665.82	1734.63
666.01	1859.56
666.20	1781.73
666.38	1798.12
666.57	1865.70
666.76	2269.15
666.95	4536.25
667.13	11487.06
667.32	18083.56
667.51	22075.06
667.69	24977.03
667.88	25357.95
668.07	19719.89
668.25	14204.71
668.44	11542.35
668.63	9762.67
668.81	8570.75
669.00	7700.36
669.19	6928.28
669.38	6174.63
669.56	5380.01
669.75	4659.13
669.94	3776.45
670.12	3141.58
670.31	2701.27
670.50	2299.87
670.68	2160.61
670.87	1951.71
671.06	1898.47
671.24	1849.32
671.43	1841.12
671.62	1863.65
671.80	1736.68
671.99	1802.21
672.18	1730.53
672.36	1775.59
672.55	1791.97
672.74	1757.16
672.92	1746.92
673.11	1783.78
673.29	1683.43
673.48	1837.03
673.67	1746.92
673.85	1796.07
674.04	1648.61
674.23	1679.33
674.41	1849.32
674.60	1667.05
674.79	1658.85
674.97	1644.52
675.16	1691.62
675.34	1734.63
675.53	1724.39
675.72	1767.40
675.90	1808.36
676.09	1699.81
676.28	1658.85
676.46	1619.94
676.65	1767.40
676.83	1673.19
677.02	1802.21
677.21	1742.82
677.39	1746.92
677.58	1617.90
677.77	1683.43
677.95	1669.09
678.14	1660.90
678.32	1742.82
678.51	1675.24
678.70	1894.37
678.88	1708.01
679.07	1781.73
679.25	1712.10
679.44	1710.05
679.63	1671.14
679.81	1738.73
680.00	1785.83
680.18	1718.25
680.37	1732.58
680.55	1695.72
680.74	1628.14
680.93	1650.66
681.11	1789.92
681.30	1724.39
681.48	1732.58
681.67	1607.66
681.85	1765.35
682.04	1671.14
682.23	1724.39
682.41	1681.38
682.60	1755.11
682.78	1775.59
682.97	1677.29
683.15	1722.34
683.34	1695.72
683.53	1769.44
683.71	1634.28
683.90	1740.77
684.08	1802.21
684.27	1671.14
684.45	1777.64
684.64	1822.69
684.82	1695.72
685.01	1656.81
685.19	1767.40
685.38	1748.97
685.57	1679.33
685.75	1634.28
685.94	1662.95
686.12	1587.18
686.31	1669.09
686.49	1722.34
686.68	1589.22
686.86	1730.53
687.05	1730.53
687.23	1787.88
687.42	1765.35
687.60	1712.10
687.79	1724.39
687.97	1796.07
688.16	1742.82
688.34	1820.64
688.53	1615.85
688.71	1771.49
688.90	1744.87
689.08	1658.85
689.27	1673.19
689.45	1740.77
689.64	1744.87
689.82	1710.05
690.01	1732.58
690.19	1716.20
690.38	1730.53
690.56	1791.97
690.75	1638.38
690.93	1681.38
691.12	1697.77
691.30	1679.33
691.49	1665.00
691.67	1703.91
691.86	1820.64
692.04	1724.39
692.23	1708.01
692.41	1800.16
692.60	1880.04
692.78	1904.61
692.97	1736.68
693.15	1796.07
693.34	1869.80
693.52	1775.59
693.71	1675.24
693.89	1822.69
694.08	1644.52
694.26	1812.45
694.44	1812.45
694.63	1791.97
694.81	1652.71
695.00	1677.29
695.18	1779.68
695.37	1822.69
695.55	1763.30
695.74	1742.82
695.92	1665.00
696.10	1804.26
696.29	1693.67
696.47	1683.43
696.66	1572.84
696.84	1652.71
697.03	1681.38
697.21	1830.88
697.40	2357.21
697.58	1820.64
697.76	1681.38
697.95	1644.52
698.13	1658.85
698.32	1699.81
698.50	1697.77
698.68	1794.02
698.87	1677.29
699.05	1796.07
699.24	1646.57
699.42	1660.90
699.61	1767.40
699.79	1759.21
699.97	1716.20
700.16	1652.71
700.34	1677.29
700.53	1632.23
700.71	1796.07
700.89	1820.64
701.08	1669.09
701.26	1775.59
701.45	2070.50
701.63	1675.24
701.81	1755.11
702.00	1695.72
702.18	1716.20
702.37	1708.01
702.55	1853.41
702.73	1923.04
702.92	1980.39
703.10	1968.10
703.28	1996.77
703.47	1800.16
703.65	1857.51
703.84	1853.41
704.02	1798.12
704.20	1884.13
704.39	1794.02
704.57	1783.78
704.75	1828.84
704.94	1869.80
705.12	1777.64
705.30	1810.40
705.49	2455.51
705.67	5384.11
705.86	13412.15
706.04	19277.53
706.22	22886.05
706.41	25321.09
706.59	24628.87
706.77	19144.41
706.96	13795.12
707.14	11695.95
707.32	10170.21
707.51	8984.44
707.69	7870.34
707.87	6748.06
708.06	5623.72
708.24	4405.18
708.42	3338.19
708.61	2719.70
708.79	2238.43
708.97	2119.65
709.16	1943.52
709.34	1804.26
709.52	1693.67
709.71	1818.60
709.89	1814.50
710.07	1640.42
710.26	1654.76
710.44	1718.25
710.62	1814.50
710.80	1742.82
710.99	1775.59
711.17	1791.97
711.35	1658.85
711.54	1722.34
711.72	1884.13
711.90	1791.97
712.09	1722.34
712.27	1685.48
712.45	1697.77
712.63	1732.58
712.82	1730.53
713.00	1689.57
713.18	1714.15
713.37	1779.68
713.55	1814.50
713.73	1830.88
713.91	1714.15
714.10	1744.87
714.28	1673.19
714.46	1658.85
714.65	1738.73
714.83	1777.64
715.01	1712.10
715.19	1755.11
715.38	1669.09
715.56	1732.58
715.74	1691.62
715.92	1691.62
716.11	1863.65
716.29	1597.42
716.47	1703.91
716.65	1710.05
716.84	1624.04
717.02	1662.95
717.20	1607.66
717.38	1714.15
717.57	1791.97
717.75	1734.63
717.93	1703.91
718.11	1681.38
718.30	1720.29
718.48	1724.39
718.66	1744.87
718.84	1751.01
719.03	1732.58
719.21	1679.33
719.39	1873.89
719.57	1730.53
719.75	1673.19
719.94	1716.20
720.12	1675.24
720.30	1722.34
720.48	1744.87
720.67	1751.01
720.85	1730.53
721.03	1656.81
721.21	1554.41
721.39	1853.41
721.58	1761.25
721.76	1767.40
721.94	1771.49
722.12	1746.92
722.30	1812.45
722.49	1650.66
722.67	1757.16
722.85	1691.62
723.03	1658.85
723.21	1693.67
723.40	1621.99
723.58	1763.30
723.76	1716.20
723.94	1820.64
724.12	1773.54
724.30	1869.80
724.49	1832.93
724.67	1689.57
724.85	1865.70
725.03	1712.10
725.21	1767.40
725.40	1789.92
725.58	1742.82
725.76	1783.78
725.94	1724.39
726.12	1679.33
726.30	1687.53
726.49	1695.72
726.67	1673.19
726.85	1808.36
727.03	1787.88
727.21	2224.09
727.39	3413.96
727.57	4943.80
727.76	5672.87
727.94	6148.00
728.12	6229.92
728.30	5822.38
728.48	4501.44
728.66	4038.59
728.84	3514.31
729.03	3067.86
729.21	2748.37
729.39	2480.09
729.57	2113.50
729.75	1906.66
729.93	1951.71
730.11	1802.21
730.30	1761.25
730.48	1769.44
730.66	1871.84
730.84	1722.34
731.02	1757.16
731.20	1669.09
731.38	1753.06
731.56	1683.43
731.74	1626.09
731.93	1724.39
732.11	1697.77
732.29	1710.05
732.47	1791.97
732.65	1740.77
732.83	1701.86
733.01	1681.38
733.19	1677.29
733.37	1779.68
733.56	1740.77
733.74	1691.62
733.92	1730.53
734.10	1718.25
734.28	1730.53
734.46	1542.12
734.64	1693.67
734.82	1650.66
735.00	1691.62
735.18	1687.53
735.36	1677.29
735.54	1701.86
735.73	1751.01
735.91	1738.73
736.09	1693.67
736.27	1650.66
736.45	1794.02
736.63	1621.99
736.81	1677.29
736.99	1714.15
737.17	1804.26
737.35	1691.62
737.53	1685.48
737.71	1734.63
737.89	1738.73
738.07	1644.52
738.25	1634.28
738.43	1677.29
738.61	1718.25
738.80	1611.75
738.98	1662.95
739.16	1644.52
739.34	1613.80
739.52	1804.26
739.70	1667.05
739.88	1738.73
740.06	1771.49
740.24	1656.81
740.42	1755.11
740.60	1669.09
740.78	1650.66
740.96	1601.51
741.14	1732.58
741.32	1777.64
741.50	1607.66
741.68	1814.50
741.86	1759.21
742.04	1673.19
742.22	1660.90
742.40	1669.09
742.58	1781.73
742.76	1665.00
742.94	1710.05
743.12	1607.66
743.30	1630.18
743.48	1724.39
743.66	1638.38
743.84	1716.20
744.02	1726.44
744.20	1675.24
744.38	1642.47
744.56	1685.48
744.74	1814.50
744.92	1697.77
745.10	1804.26
745.28	1773.54
745.46	1789.92
745.64	1566.70
745.82	1683.43
746.00	1763.30
746.18	1695.72
746.36	1726.44
746.54	1753.06
746.72	1724.39
746.90	1697.77
747.08	1841.12
747.26	1695.72
747.44	1761.25
747.62	1773.54
747.80	1703.91
747.98	1789.92
748.15	1671.14
748.33	1806.31
748.51	1695.72
748.69	1777.64
748.87	1746.92
749.05	1652.71
749.23	1695.72
749.41	1759.21
749.59	1689.57
749.77	1765.35
749.95	1681.38
750.13	1724.39
750.31	1646.57
750.49	1722.34
750.67	1710.05
750.85	1787.88
751.03	1736.68
751.20	1753.06
751.38	1611.75
751.56	1705.96
751.74	1712.10
751.92	1687.53
752.10	1613.80
752.28	1779.68
752.46	1679.33
752.64	1714.15
752.82	1699.81
753.00	1759.21
753.18	1656.81
753.35	1728.49
753.53	1640.42
753.71	1705.96
753.89	1703.91
754.07	1687.53
754.25	1673.19
754.43	1753.06
754.61	1640.42
754.79	1744.87
754.97	1710.05
755.14	1794.02
755.32	1621.99
755.50	1708.01
755.68	1685.48
755.86	1624.04
756.04	1769.44
756.22	1558.50
756.40	1853.41
756.57	1826.79
756.75	1667.05
756.93	1824.74
757.11	1847.27
757.29	1683.43
757.47	1724.39
757.65	1632.23
757.82	1558.50
758.00	1697.77
758.18	1712.10
758.36	1665.00
758.54	1789.92
758.72	1638.38
758.90	1765.35
759.07	1687.53
759.25	1658.85
759.43	1767.40
759.61	1617.90
759.79	2222.05
759.97	1767.40
760.15	1646.57
760.32	1687.53
760.50	1685.48
760.68	1763.30
760.86	1642.47
761.04	1712.10
761.22	1703.91
761.39	1714.15
761.57	1746.92
761.75	1732.58
761.93	1701.86
762.11	1705.96
762.28	1705.96
762.46	1669.09
762.64	1765.35
762.82	1654.76
763.00	1734.63
763.18	1783.78
763.35	1722.34
763.53	1804.26
763.71	1695.72
763.89	1617.90
764.07	1781.73
764.24	1708.01
764.42	1691.62
764.60	1689.57
764.78	1748.97
764.96	1771.49
765.13	1748.97
765.31	1662.95
765.49	1781.73
765.67	1642.47
765.84	1677.29
766.02	1665.00
766.20	1640.42
766.38	1677.29
766.56	1724.39
766.73	1785.83
766.91	1710.05
767.09	1699.81
767.27	1736.68
767.44	1689.57
767.62	1681.38
767.80	1773.54
767.98	1730.53
768.15	1679.33
768.33	1755.11
768.51	1724.39
768.69	1785.83
768.87	1656.81
769.04	1662.95
769.22	1908.71
769.40	1828.84
769.58	1857.51
769.75	1699.81
769.93	1765.35
770.11	1675.24
770.28	1691.62
770.46	1755.11
770.64	1671.14
770.82	1673.19
770.99	1697.77
771.17	1687.53
771.35	1742.82
771.53	1710.05
771.70	1736.68
771.88	1720.29
772.06	1722.34
772.23	1730.53
772.41	1705.96
772.59	1687.53
772.77	1656.81
772.94	1710.05
773.12	1667.05
773.30	1705.96
773.47	1728.49
773.65	1656.81
773.83	1783.78
774.01	1654.76
774.18	1581.03
774.36	1724.39
774.54	1714.15
774.71	1761.25
774.89	1640.42
775.07	1714.15
775.24	1662.95
775.42	1650.66
775.60	1794.02
775.78	1683.43
775.95	1644.52
776.13	1599.46
776.31	1560.55
776.48	1757.16
776.66	1791.97
776.84	1675.24
777.01	1665.00
777.19	1689.57
777.37	1691.62
777.54	1673.19
777.72	1791.97
777.90	1789.92
778.07	1746.92
778.25	1855.46
778.43	1753.06
778.60	1662.95
778.78	1716.20
778.96	1783.78
779.13	1626.09
779.31	1783.78
779.49	1648.61
779.66	1708.01
779.84	1681.38
780.01	1697.77
780.19	1636.33
780.37	1789.92
780.54	1685.48
780.72	1720.29
780.90	1767.40
781.07	1656.81
781.25	1699.81
781.43	1730.53
781.60	1671.14
781.78	1751.01
781.95	1703.91
782.13	1691.62
782.31	1757.16
782.48	1597.42
782.66	1708.01
782.83	1871.84
783.01	1658.85
783.19	1722.34
783.36	1767.40
783.54	1632.23
783.72	1830.88
783.89	1777.64
784.07	1613.80
784.24	1685.48
784.42	1816.55
784.60	1728.49
784.77	1724.39
784.95	1605.61
785.12	1675.24
785.30	1720.29
785.47	1646.57
785.65	1632.23
785.83	1669.09
786.00	1699.81
786.18	1667.05
786.35	1712.10
786.53	1658.85
786.71	1759.21
786.88	1722.34
787.06	1740.77
787.23	1738.73
787.41	1628.14
787.58	1701.86
787.76	1708.01
787.94	1714.15
788.11	1671.14
788.29	1673.19
788.46	1615.85
788.64	1585.13
788.81	1689.57
788.99	1615.85
789.16	1675.24
789.34	1611.75
789.52	1695.72
789.69	1636.33
789.87	1591.27
790.04	1744.87
790.22	1708.01
790.39	1789.92
790.57	1634.28
790.74	1695.72
790.92	1775.59
791.09	1634.28
791.27	1744.87
791.44	1773.54
791.62	1712.10
791.79	1701.86
791.97	1740.77
792.15	1832.93
792.32	1781.73
792.50	1763.30
792.67	1802.21
792.85	1816.55
793.02	1740.77
793.20	1718.25
793.37	1636.33
793.55	1636.33
793.72	1617.90
793.90	1689.57
794.07	1656.81
794.25	1720.29
794.42	1656.81
794.60	1728.49
794.77	1718.25
794.95	1665.00
795.12	1728.49
795.30	1669.09
795.47	1574.89
795.65	1890.28
795.82	1771.49
796.00	1636.33
796.17	1699.81
796.34	1675.24
796.52	1681.38
796.69	1765.35
796.87	1755.11
797.04	1746.92
797.22	1767.40
797.39	1662.95
797.57	1791.97
797.74	1789.92
797.92	1785.83
798.09	1630.18
798.27	1748.97
798.44	1734.63
798.62	1689.57
798.79	1787.88
798.96	1742.82
799.14	1691.62
799.31	1871.84
799.49	1732.58
799.66	1812.45
799.84	1714.15
800.01	1599.46
800.19	1732.58
800.36	1626.09
800.53	1660.90
800.71	1746.92
800.88	1828.84
801.06	1626.09
801.23	1619.94
801.41	1724.39
801.58	1644.52
801.75	1652.71
801.93	1744.87
802.10	1742.82
802.28	1683.43
802.45	1705.96
802.63	1656.81
802.80	1699.81
802.97	1720.29
803.15	1710.05
803.32	1648.61
803.50	1726.44
803.67	1669.09
803.84	1638.38
804.02	1732.58
804.19	1607.66
804.37	1613.80
804.54	1699.81
804.71	1693.67
804.89	1755.11
805.06	1679.33
805.24	1626.09
805.41	1613.80
805.58	1650.66
805.76	1847.27
805.93	1787.88
806.10	1812.45
806.28	1773.54
806.45	1728.49
806.63	1687.53
806.80	1736.68
806.97	1748.97
807.15	1712.10
807.32	1687.53
807.49	1693.67
807.67	1632.23
807.84	1708.01
808.01	1640.42
808.19	1761.25
808.36	1839.08
808.54	1787.88
808.71	1703.91
808.88	1732.58
809.06	1796.07
809.23	1783.78
809.40	1695.72
809.58	1697.77
809.75	1708.01
809.92	1658.85
810.10	1779.68
810.27	1632.23
810.44	1742.82
810.62	1744.87
810.79	1783.78
810.96	1675.24
811.14	1662.95
811.31	1714.15
811.48	1728.49
811.66	1746.92
811.83	1740.77
812.00	1751.01
812.18	1826.79
812.35	1853.41
812.52	1685.48
812.69	1640.42
812.87	1716.20
813.04	1779.68
813.21	1748.97
813.39	1636.33
813.56	1665.00
813.73	1781.73
813.91	1617.90
814.08	1712.10
814.25	1742.82
814.42	1621.99
814.60	1693.67
814.77	1681.38
814.94	1685.48
815.12	1667.05
815.29	1791.97
815.46	1630.18
815.63	1718.25
815.81	1691.62
815.98	1691.62
816.15	1671.14
816.33	1658.85
816.50	1617.90
816.67	1679.33
816.84	1699.81
817.02	1667.05
817.19	1679.33
817.36	1722.34
817.53	1759.21
817.71	1648.61
817.88	1796.07
818.05	1675.24
818.22	1683.43
818.40	1798.12
818.57	1699.81
818.74	1751.01
818.91	1746.92
819.09	1804.26
819.26	1830.88
819.43	1705.96
819.60	1687.53
819.78	1656.81
819.95	1804.26
820.12	1615.85
820.29	1798.12
820.47	1775.59
820.64	1628.14
820.81	1679.33
820.98	1687.53
821.15	1638.38
821.33	1843.17
821.50	1607.66
821.67	1808.36
821.84	1708.01
822.02	1810.40
822.19	1777.64
822.36	1662.95
822.53	1724.39
822.70	1699.81
822.88	1652.71
823.05	1877.99
823.22	1644.52
823.39	1800.16
823.56	1665.00
823.74	1853.41
823.91	1644.52
824.08	1665.00
824.25	1576.94
824.42	1765.35
824.60	1656.81
824.77	1765.35
824.94	1714.15
825.11	1802.21
825.28	1636.33
825.45	1687.53
825.63	1689.57
825.80	1634.28
825.97	1699.81
826.14	1636.33
826.31	1642.47
826.48	1728.49
826.66	1609.70
826.83	1689.57
827.00	1669.09
827.17	1632.23
827.34	1791.97
827.51	1667.05
827.69	1568.74
827.86	1615.85
828.03	1726.44
828.20	1703.91
828.37	1636.33
828.54	1726.44
828.71	1626.09
828.89	1769.44
829.06	1722.34
829.23	1765.35
829.40	1759.21
829.57	1660.90
829.74	1814.50
829.91	1669.09
830.09	1685.48
830.26	1726.44
830.43	1824.74
830.60	1767.40
830.77	1718.25
830.94	1746.92
831.11	1777.64
831.28	1703.91
831.46	1808.36
831.63	1652.71
831.80	1767.40
831.97	1718.25
832.14	1724.39
832.31	1794.02
832.48	1714.15
832.65	1724.39
832.82	1671.14
832.99	1744.87
833.17	1646.57
833.34	1816.55
833.51	1769.44
833.68	1576.94
833.85	1687.53
834.02	1673.19
834.19	1689.57
834.36	1681.38
834.53	1757.16
834.70	1828.84
834.87	1775.59
835.04	1613.80
835.22	1642.47
835.39	1607.66
835.56	1658.85
835.73	1697.77
835.90	1816.55
836.07	1585.13
836.24	1757.16
836.41	1613.80
836.58	1677.29
836.75	1802.21
836.92	1724.39
837.09	1634.28
837.26	1755.11
837.43	1689.57
837.60	1783.78
837.77	1681.38
837.94	1751.01
838.12	1843.17
838.29	1746.92
838.46	1640.42
838.63	1740.77
838.80	1730.53
838.97	1724.39
839.14	1669.09
839.31	1730.53
839.48	1703.91
839.65	1658.85
839.82	1837.03
839.99	1755.11
840.16	1777.64
840.33	1619.94
840.50	1662.95
840.67	1726.44
840.84	1611.75
841.01	1822.69
841.18	1695.72
841.35	1640.42
841.52	1734.63
841.69	1787.88
841.86	1673.19
842.03	1742.82
842.20	1734.63
842.37	1619.94
842.54	1720.29
842.71	1751.01
842.88	1648.61
843.05	1781.73
843.22	1628.14
843.39	1740.77
843.56	1628.14
843.73	1736.68
843.90	1720.29
844.07	1716.20
844.24	1798.12
844.41	1714.15
844.58	1675.24
844.75	1660.90
844.92	1751.01
845.09	1705.96
845.26	1624.04
845.43	1783.78
845.60	1708.01
845.77	1798.12
845.94	1802.21
846.10	1697.77
846.27	1640.42
846.44	1673.19
846.61	1624.04
846.78	1675.24
846.95	1796.07
847.12	1705.96
847.29	1755.11
847.46	1656.81
847.63	1820.64
847.80	1683.43
847.97	1726.44
848.14	1857.51
848.31	1677.29
848.48	1603.56
848.65	1701.86
848.82	1667.05
848.98	1865.70
849.15	1769.44
849.32	1812.45
849.49	1857.51
849.66	1734.63
849.83	1732.58
850.00	1665.00
850.17	1748.97
850.34	1759.21
850.51	1683.43
850.68	1626.09
850.85	1834.98
851.01	1740.77
851.18	1734.63
851.35	1724.39
851.52	1755.11
851.69	1791.97
851.86	1619.94
852.03	1714.15
852.20	1730.53
852.37	1665.00
852.53	1638.38
852.70	1660.90
852.87	1732.58
853.04	1751.01
853.21	1671.14
853.38	1751.01
853.55	1771.49
853.72	1808.36
853.89	1605.61
854.05	1681.38
854.22	1732.58
854.39	1626.09
854.56	1728.49
854.73	1761.25
854.90	1718.25
855.07	1720.29
855.23	1660.90
855.40	1673.19
855.57	1636.33
855.74	1552.36
855.91	1880.04
856.08	1646.57
856.25	1656.81
856.41	1658.85
856.58	1671.14
856.75	1728.49
856.92	1638.38
857.09	1769.44
857.26	1689.57
857.42	1685.48
857.59	1791.97
857.76	1714.15
857.93	1687.53
858.10	1746.92
858.27	1701.86
858.43	1724.39
858.60	1656.81
858.77	1656.81
858.94	1615.85
859.11	1738.73
859.27	1697.77
859.44	1665.00
859.61	1812.45
859.78	1787.88
859.95	1689.57
860.12	1695.72
860.28	1773.54
860.45	1830.88
860.62	1699.81
860.79	1701.86
860.95	1650.66
861.12	1648.61
861.29	1617.90
861.46	1740.77
861.63	1677.29
861.79	1761.25
861.96	1644.52
862.13	1671.14
862.30	1761.25
862.47	1642.47
862.63	1595.37
862.80	1732.58
862.97	1757.16
863.14	1759.21
863.30	1708.01
863.47	1619.94
863.64	1765.35
863.81	1685.48
863.97	1632.23
864.14	1769.44
864.31	1705.96
864.48	1789.92
864.65	1630.18
864.81	1761.25
864.98	1697.77
865.15	1734.63
865.32	1738.73
865.48	1699.81
865.65	1791.97
865.82	1691.62
865.98	1822.69
866.15	1732.58
866.32	1644.52
866.49	1642.47
866.65	1757.16
866.82	1634.28
866.99	1765.35
867.16	1718.25
867.32	1591.27
867.49	1714.15
867.66	1730.53
867.83	1609.70
867.99	1626.09
868.16	1710.05
868.33	1638.38
868.49	1740.77
868.66	1677.29
868.83	1665.00
868.99	1718.25
869.16	1769.44
869.33	1789.92
869.50	1785.83
869.66	1636.33
869.83	1718.25
870.00	1708.01
870.16	1724.39
870.33	1652.71
870.50	1734.63
870.66	1734.63
870.83	1714.15
871.00	1677.29
871.17	1761.25
871.33	1791.97
871.50	1636.33
871.67	1712.10
871.83	1695.72
872.00	1849.32
872.17	1705.96
872.33	1808.36
872.50	1746.92
872.67	1726.44
872.83	1751.01
873.00	1783.78
873.17	1699.81
873.33	1695.72
873.50	1742.82
873.67	1669.09
873.83	1689.57
874.00	1697.77
874.16	1808.36
874.33	1716.20
874.50	1699.81
874.66	1826.79
874.83	1605.61
875.00	1748.97
875.16	1857.51
875.33	1759.21
875.50	1550.31
875.66	1681.38
875.83	1628.14
875.99	1742.82
876.16	1648.61
876.33	1687.53
876.49	1742.82
876.66	1775.59
876.83	1726.44
876.99	1605.61
877.16	1658.85
877.32	1654.76
877.49	1626.09
877.66	1763.30
877.82	1765.35
877.99	1775.59
878.15	1800.16
878.32	1703.91
878.49	1714.15
878.65	1789.92
878.82	1787.88
878.98	1689.57
879.15	1746.92
879.32	1755.11
879.48	1697.77
879.65	1744.87
879.81	1736.68
879.98	1710.05
880.15	1720.29
880.31	1640.42
880.48	1648.61
880.64	1742.82
880.81	1730.53
880.97	1814.50
881.14	1804.26
881.31	1677.29
881.47	1800.16
881.64	1701.86
881.80	1630.18
881.97	1720.29
882.13	1697.77
882.30	1679.33
882.47	1634.28
882.63	1665.00
882.80	1603.56
882.96	1685.48
883.13	1787.88
883.29	1701.86
883.46	1687.53
883.62	1791.97
883.79	1791.97
883.95	1767.40
884.12	1724.39
884.29	1755.11
884.45	1701.86
884.62	1652.71
884.78	1697.77
884.95	1822.69
885.11	1685.48
885.28	1734.63
885.44	1667.05
885.61	1748.97
885.77	1832.93
885.94	1728.49
886.10	1679.33
886.27	1703.91
886.43	1820.64
886.60	1767.40
886.76	1638.38
886.93	1587.18
887.09	1726.44
887.26	1660.90
887.42	1656.81
887.59	1751.01
887.75	1804.26
887.92	1771.49
888.08	1751.01
888.25	1832.93
888.41	1755.11
888.58	1708.01
888.74	1673.19
888.91	1673.19
>>>>>End Processed Spectral Data<<<<<
