SpectraSuite Data File
++++++++++++++++++++++++++++++++++++
Date: Wed May 04 18:44:50 CEST 2016
User: root
Dark Spectrum Present: No
Reference Spectrum Present: No
Number of Sampled Component Spectra: 1
Spectrometers: USB4C02835
Integration Time (usec): 100000 (USB4C02835)
Spectra Averaged: 1 (USB4C02835)
Boxcar Smoothing: 0 (USB4C02835)
Correct for Electrical Dark: No (USB4C02835)
Strobe/Lamp Enabled: No (USB4C02835)
Correct for Detector Non-linearity: No (USB4C02835)
Correct for Stray Light: No (USB4C02835)
Number of Pixels in Processed Spectrum: 3648
>>>>>Begin Processed Spectral Data<<<<<
177.47	1447.91
177.69	1447.91
177.91	1447.91
178.13	1445.87
178.36	1525.74
178.58	1619.94
178.80	1693.67
179.02	1570.79
179.24	1628.14
179.46	1708.01
179.68	1724.39
179.90	1669.09
180.13	1765.35
180.35	1630.18
180.57	1724.39
180.79	1732.58
181.01	1675.24
181.23	1787.88
181.45	1845.22
181.67	1740.77
181.90	1742.82
182.12	1662.95
182.34	1603.56
182.56	1714.15
182.78	1742.82
183.00	1689.57
183.22	1736.68
183.44	1595.37
183.66	1869.80
183.89	1767.40
184.11	1687.53
184.33	1800.16
184.55	1779.68
184.77	1767.40
184.99	1751.01
185.21	1632.23
185.43	1857.51
185.65	1658.85
185.87	1669.09
186.10	1830.88
186.32	1839.08
186.54	1697.77
186.76	1703.91
186.98	1771.49
187.20	1652.71
187.42	1683.43
187.64	1738.73
187.86	1742.82
188.08	1761.25
188.30	1703.91
188.52	1691.62
188.75	1804.26
188.97	1742.82
189.19	1693.67
189.41	1710.05
189.63	1757.16
189.85	1673.19
190.07	1601.51
190.29	1665.00
190.51	1775.59
190.73	1632.23
190.95	1689.57
191.17	1791.97
191.39	1671.14
191.61	1640.42
191.84	1716.20
192.06	1736.68
192.28	1619.94
192.50	1882.08
192.72	1712.10
192.94	1640.42
193.16	1771.49
193.38	1646.57
193.60	1597.42
193.82	1615.85
194.04	1806.31
194.26	1724.39
194.48	1669.09
194.70	1687.53
194.92	1636.33
195.14	1789.92
195.36	1679.33
195.58	1736.68
195.80	1728.49
196.02	1683.43
196.24	1746.92
196.46	1720.29
196.69	1720.29
196.91	1865.70
197.13	1722.34
197.35	1697.77
197.57	1822.69
197.79	1732.58
198.01	1718.25
198.23	1755.11
198.45	1691.62
198.67	1640.42
198.89	1742.82
199.11	1705.96
199.33	1691.62
199.55	1624.04
199.77	1714.15
199.99	1779.68
200.21	1669.09
200.43	1683.43
200.65	1624.04
200.87	1574.89
201.09	1734.63
201.31	1761.25
201.53	1703.91
201.75	1757.16
201.97	1710.05
202.19	1736.68
202.41	1820.64
202.63	1804.26
202.85	1736.68
203.07	1705.96
203.29	1636.33
203.51	1593.32
203.73	1679.33
203.95	1869.80
204.17	1636.33
204.39	1794.02
204.61	1701.86
204.83	1681.38
205.05	1738.73
205.27	1701.86
205.49	1865.70
205.71	1679.33
205.93	1656.81
206.15	1636.33
206.37	1695.72
206.59	1701.86
206.81	1679.33
207.03	1628.14
207.25	1685.48
207.47	1730.53
207.69	1705.96
207.91	1746.92
208.13	1800.16
208.34	1675.24
208.56	1699.81
208.78	1746.92
209.00	1611.75
209.22	1691.62
209.44	1742.82
209.66	1650.66
209.88	1722.34
210.10	1634.28
210.32	1728.49
210.54	1761.25
210.76	1767.40
210.98	1708.01
211.20	1572.84
211.42	1699.81
211.64	1798.12
211.86	1697.77
212.08	1740.77
212.30	1728.49
212.52	1603.56
212.74	1767.40
212.96	1740.77
213.17	1687.53
213.39	1765.35
213.61	1794.02
213.83	1765.35
214.05	1730.53
214.27	1783.78
214.49	1630.18
214.71	1648.61
214.93	1800.16
215.15	1695.72
215.37	1808.36
215.59	1605.61
215.81	1738.73
216.03	1728.49
216.24	1701.86
216.46	1728.49
216.68	1812.45
216.90	1834.98
217.12	1751.01
217.34	1761.25
217.56	1751.01
217.78	1839.08
218.00	1701.86
218.22	1701.86
218.44	1732.58
218.66	1693.67
218.87	1771.49
219.09	1667.05
219.31	1667.05
219.53	1708.01
219.75	1724.39
219.97	1632.23
220.19	1722.34
220.41	1726.44
220.63	1814.50
220.85	1681.38
221.06	1638.38
221.28	1769.44
221.50	1769.44
221.72	1724.39
221.94	1697.77
222.16	1722.34
222.38	1718.25
222.60	1701.86
222.82	1710.05
223.03	1763.30
223.25	1632.23
223.47	1699.81
223.69	1812.45
223.91	1693.67
224.13	1699.81
224.35	1746.92
224.57	1802.21
224.78	1804.26
225.00	1624.04
225.22	1734.63
225.44	1720.29
225.66	1726.44
225.88	1679.33
226.10	1767.40
226.32	1712.10
226.53	1859.56
226.75	1624.04
226.97	1679.33
227.19	1728.49
227.41	1734.63
227.63	1691.62
227.85	1560.55
228.06	1718.25
228.28	1734.63
228.50	1746.92
228.72	1658.85
228.94	1755.11
229.16	1734.63
229.37	1673.19
229.59	1679.33
229.81	1771.49
230.03	1656.81
230.25	1576.94
230.47	1695.72
230.69	1621.99
230.90	1783.78
231.12	1695.72
231.34	1681.38
231.56	1681.38
231.78	1615.85
232.00	1681.38
232.21	1751.01
232.43	1701.86
232.65	1587.18
232.87	1763.30
233.09	1644.52
233.30	1660.90
233.52	1703.91
233.74	1726.44
233.96	1632.23
234.18	1720.29
234.40	1730.53
234.61	1789.92
234.83	1658.85
235.05	1665.00
235.27	1882.08
235.49	1787.88
235.70	1697.77
235.92	1791.97
236.14	1728.49
236.36	1810.40
236.58	1583.08
236.79	1701.86
237.01	1665.00
237.23	1673.19
237.45	1824.74
237.67	1685.48
237.88	1701.86
238.10	1855.46
238.32	1576.94
238.54	1642.47
238.76	1689.57
238.97	1652.71
239.19	1699.81
239.41	1783.78
239.63	1777.64
239.85	1710.05
240.06	1730.53
240.28	1660.90
240.50	1748.97
240.72	1742.82
240.93	1744.87
241.15	1724.39
241.37	1763.30
241.59	1714.15
241.81	1644.52
242.02	1673.19
242.24	1722.34
242.46	1765.35
242.68	1669.09
242.89	1693.67
243.11	1791.97
243.33	1683.43
243.55	1777.64
243.76	1765.35
243.98	1638.38
244.20	1734.63
244.42	1785.83
244.64	1708.01
244.85	1656.81
245.07	1671.14
245.29	1712.10
245.51	1796.07
245.72	1771.49
245.94	1789.92
246.16	1701.86
246.38	1740.77
246.59	1605.61
246.81	1665.00
247.03	1714.15
247.24	1587.18
247.46	1701.86
247.68	1765.35
247.90	1681.38
248.11	1671.14
248.33	1804.26
248.55	1724.39
248.77	1650.66
248.98	1726.44
249.20	1818.60
249.42	1611.75
249.64	1767.40
249.85	1724.39
250.07	1705.96
250.29	1779.68
250.50	1726.44
250.72	1687.53
250.94	1681.38
251.16	1806.31
251.37	1724.39
251.59	1771.49
251.81	1671.14
252.02	1787.88
252.24	1662.95
252.46	1773.54
252.68	1636.33
252.89	1656.81
253.11	1613.80
253.33	1806.31
253.54	1757.16
253.76	1607.66
253.98	1705.96
254.20	1691.62
254.41	1611.75
254.63	1689.57
254.85	1677.29
255.06	1632.23
255.28	1716.20
255.50	1650.66
255.71	1673.19
255.93	1574.89
256.15	1660.90
256.36	1751.01
256.58	1671.14
256.80	1753.06
257.02	1732.58
257.23	1746.92
257.45	1687.53
257.67	1742.82
257.88	1679.33
258.10	1669.09
258.32	1656.81
258.53	1775.59
258.75	1822.69
258.97	1732.58
259.18	1662.95
259.40	1675.24
259.62	1810.40
259.83	1779.68
260.05	1703.91
260.27	1992.67
260.48	1726.44
260.70	1556.46
260.92	1656.81
261.13	1705.96
261.35	1761.25
261.57	1785.83
261.78	1583.08
262.00	1656.81
262.22	1701.86
262.43	1691.62
262.65	1716.20
262.86	1738.73
263.08	1791.97
263.30	1724.39
263.51	1642.47
263.73	1650.66
263.95	1794.02
264.16	1656.81
264.38	1621.99
264.60	1693.67
264.81	1787.88
265.03	1796.07
265.25	1767.40
265.46	1632.23
265.68	1798.12
265.89	1791.97
266.11	1640.42
266.33	1757.16
266.54	1751.01
266.76	1755.11
266.98	1746.92
267.19	1773.54
267.41	1748.97
267.62	1705.96
267.84	1654.76
268.06	1730.53
268.27	1708.01
268.49	1820.64
268.70	1740.77
268.92	1736.68
269.14	1621.99
269.35	1646.57
269.57	1738.73
269.79	1738.73
270.00	1718.25
270.22	1812.45
270.43	1759.21
270.65	1615.85
270.87	1669.09
271.08	1755.11
271.30	1759.21
271.51	1742.82
271.73	1681.38
271.95	1751.01
272.16	1693.67
272.38	1726.44
272.59	1703.91
272.81	1722.34
273.02	1755.11
273.24	1755.11
273.46	1755.11
273.67	1609.70
273.89	1665.00
274.10	1642.47
274.32	1832.93
274.54	1736.68
274.75	1736.68
274.97	1716.20
275.18	1830.88
275.40	1687.53
275.61	1722.34
275.83	1718.25
276.05	1624.04
276.26	1689.57
276.48	1730.53
276.69	1718.25
276.91	1644.52
277.12	1720.29
277.34	1775.59
277.55	1751.01
277.77	1636.33
277.99	1632.23
278.20	1656.81
278.42	1673.19
278.63	1658.85
278.85	1689.57
279.06	1646.57
279.28	1828.84
279.49	1726.44
279.71	1742.82
279.93	1660.90
280.14	1681.38
280.36	1681.38
280.57	1724.39
280.79	1730.53
281.00	1640.42
281.22	1660.90
281.43	1767.40
281.65	1650.66
281.86	1574.89
282.08	1699.81
282.29	1779.68
282.51	1601.51
282.73	1697.77
282.94	1587.18
283.16	1857.51
283.37	1845.22
283.59	1699.81
283.80	1734.63
284.02	1658.85
284.23	1734.63
284.45	1763.30
284.66	1619.94
284.88	1654.76
285.09	1658.85
285.31	1687.53
285.52	1708.01
285.74	1578.98
285.95	1791.97
286.17	1710.05
286.38	1748.97
286.60	1642.47
286.81	1669.09
287.03	1738.73
287.24	1701.86
287.46	1732.58
287.67	1734.63
287.89	1892.32
288.10	1722.34
288.32	1656.81
288.53	1744.87
288.75	1638.38
288.96	1744.87
289.18	1603.56
289.39	1726.44
289.61	1830.88
289.82	1748.97
290.04	1808.36
290.25	1619.94
290.47	1695.72
290.68	1738.73
290.90	1755.11
291.11	1689.57
291.33	1757.16
291.54	1654.76
291.76	1726.44
291.97	1697.77
292.18	1775.59
292.40	1665.00
292.61	1626.09
292.83	1851.36
293.04	1759.21
293.26	1730.53
293.47	1701.86
293.69	1701.86
293.90	1712.10
294.12	1800.16
294.33	1759.21
294.55	1718.25
294.76	1728.49
294.97	1757.16
295.19	1798.12
295.40	1671.14
295.62	1808.36
295.83	1736.68
296.05	1669.09
296.26	1828.84
296.48	1673.19
296.69	1693.67
296.90	1716.20
297.12	1841.12
297.33	1777.64
297.55	1693.67
297.76	1746.92
297.98	1689.57
298.19	1732.58
298.41	1699.81
298.62	1636.33
298.83	1738.73
299.05	1724.39
299.26	1705.96
299.48	1705.96
299.69	1751.01
299.90	1697.77
300.12	1591.27
300.33	1699.81
300.55	1742.82
300.76	1683.43
300.98	1701.86
301.19	1722.34
301.40	1691.62
301.62	1681.38
301.83	1714.15
302.05	1695.72
302.26	1710.05
302.47	1718.25
302.69	1615.85
302.90	1732.58
303.12	1695.72
303.33	1759.21
303.54	1828.84
303.76	1726.44
303.97	1740.77
304.19	1802.21
304.40	1689.57
304.61	1705.96
304.83	1832.93
305.04	1771.49
305.26	1675.24
305.47	1730.53
305.68	1769.44
305.90	1593.32
306.11	1724.39
306.33	1671.14
306.54	1617.90
306.75	1595.37
306.97	1720.29
307.18	1671.14
307.39	1667.05
307.61	1794.02
307.82	1697.77
308.04	1681.38
308.25	1626.09
308.46	1791.97
308.68	1787.88
308.89	1708.01
309.10	1779.68
309.32	1783.78
309.53	1638.38
309.74	1769.44
309.96	1712.10
310.17	1712.10
310.39	1660.90
310.60	1730.53
310.81	1724.39
311.03	1640.42
311.24	1736.68
311.45	1630.18
311.67	1847.27
311.88	1646.57
312.09	1636.33
312.31	1673.19
312.52	1658.85
312.73	1708.01
312.95	1646.57
313.16	1685.48
313.37	1781.73
313.59	1765.35
313.80	1748.97
314.01	1736.68
314.23	1703.91
314.44	1708.01
314.65	1677.29
314.87	1732.58
315.08	1689.57
315.29	1669.09
315.51	1681.38
315.72	1691.62
315.93	1877.99
316.15	1740.77
316.36	1695.72
316.57	1753.06
316.79	1718.25
317.00	1644.52
317.21	1732.58
317.43	1605.61
317.64	1794.02
317.85	1691.62
318.07	1683.43
318.28	1834.98
318.49	1845.22
318.70	1966.05
318.92	1947.62
319.13	1945.57
319.34	1877.99
319.56	1830.88
319.77	1849.32
319.98	1800.16
320.20	1826.79
320.41	1798.12
320.62	1763.30
320.83	1720.29
321.05	1882.08
321.26	1748.97
321.47	1662.95
321.69	1759.21
321.90	1705.96
322.11	1658.85
322.32	1736.68
322.54	1785.83
322.75	1736.68
322.96	1888.23
323.18	1632.23
323.39	1648.61
323.60	1679.33
323.81	1779.68
324.03	1665.00
324.24	1642.47
324.45	1665.00
324.66	1673.19
324.88	1628.14
325.09	1724.39
325.30	1701.86
325.52	1767.40
325.73	1751.01
325.94	1634.28
326.15	1669.09
326.37	1691.62
326.58	1685.48
326.79	1765.35
327.00	1656.81
327.22	1712.10
327.43	1701.86
327.64	1705.96
327.85	1716.20
328.07	1755.11
328.28	1812.45
328.49	1705.96
328.70	1658.85
328.92	1675.24
329.13	1673.19
329.34	1763.30
329.55	1834.98
329.76	1718.25
329.98	1728.49
330.19	1837.03
330.40	1740.77
330.61	1724.39
330.83	1761.25
331.04	1708.01
331.25	1677.29
331.46	1605.61
331.68	1650.66
331.89	1751.01
332.10	1656.81
332.31	1619.94
332.52	1673.19
332.74	1771.49
332.95	1693.67
333.16	1673.19
333.37	1693.67
333.58	1675.24
333.80	1671.14
334.01	1583.08
334.22	1685.48
334.43	1660.90
334.64	1665.00
334.86	1656.81
335.07	1679.33
335.28	1787.88
335.49	1621.99
335.70	1716.20
335.92	1794.02
336.13	1869.80
336.34	1665.00
336.55	1755.11
336.76	1748.97
336.98	1644.52
337.19	1751.01
337.40	1894.37
337.61	1818.60
337.82	1718.25
338.04	1769.44
338.25	1669.09
338.46	1775.59
338.67	1716.20
338.88	1599.46
339.09	1679.33
339.31	1667.05
339.52	1675.24
339.73	1617.90
339.94	1683.43
340.15	1701.86
340.36	1826.79
340.58	1675.24
340.79	1738.73
341.00	1748.97
341.21	1669.09
341.42	1834.98
341.63	1738.73
341.85	1763.30
342.06	1722.34
342.27	1652.71
342.48	1695.72
342.69	1683.43
342.90	1722.34
343.12	1808.36
343.33	1746.92
343.54	1755.11
343.75	1755.11
343.96	1708.01
344.17	1648.61
344.38	1716.20
344.60	1570.79
344.81	1638.38
345.02	1626.09
345.23	1753.06
345.44	1865.70
345.65	1730.53
345.86	1812.45
346.07	1789.92
346.29	1710.05
346.50	1646.57
346.71	1714.15
346.92	1861.60
347.13	1880.04
347.34	1671.14
347.55	1726.44
347.76	1736.68
347.98	1675.24
348.19	1697.77
348.40	1775.59
348.61	1675.24
348.82	1820.64
349.03	1695.72
349.24	1705.96
349.45	1804.26
349.66	1646.57
349.88	1744.87
350.09	1658.85
350.30	1808.36
350.51	1751.01
350.72	1669.09
350.93	1705.96
351.14	1660.90
351.35	1705.96
351.56	1722.34
351.77	1693.67
351.99	1779.68
352.20	1734.63
352.41	1820.64
352.62	1624.04
352.83	1656.81
353.04	1710.05
353.25	1615.85
353.46	1761.25
353.67	1761.25
353.88	1634.28
354.09	1761.25
354.30	1675.24
354.52	1738.73
354.73	1783.78
354.94	1638.38
355.15	1732.58
355.36	1890.28
355.57	1671.14
355.78	1697.77
355.99	1642.47
356.20	1683.43
356.41	1783.78
356.62	1734.63
356.83	1703.91
357.04	1767.40
357.25	1650.66
357.46	1708.01
357.68	1642.47
357.89	1656.81
358.10	1675.24
358.31	1740.77
358.52	1718.25
358.73	1617.90
358.94	1615.85
359.15	1650.66
359.36	1759.21
359.57	1640.42
359.78	1667.05
359.99	1689.57
360.20	1656.81
360.41	1654.76
360.62	1740.77
360.83	1712.10
361.04	1746.92
361.25	1810.40
361.46	1718.25
361.67	1791.97
361.88	1755.11
362.09	1802.21
362.30	1761.25
362.51	1734.63
362.72	1636.33
362.93	1732.58
363.14	1742.82
363.35	1732.58
363.56	1667.05
363.78	1757.16
363.99	1769.44
364.20	1683.43
364.41	1689.57
364.62	1808.36
364.83	1681.38
365.04	1636.33
365.25	1800.16
365.46	1773.54
365.67	1691.62
365.88	1701.86
366.09	1728.49
366.30	1755.11
366.51	1708.01
366.72	1638.38
366.93	1708.01
367.14	1753.06
367.35	1861.60
367.56	1689.57
367.77	1818.60
367.98	1677.29
368.18	1665.00
368.39	1691.62
368.60	1617.90
368.81	1744.87
369.02	1683.43
369.23	1687.53
369.44	1611.75
369.65	1652.71
369.86	1736.68
370.07	1746.92
370.28	1665.00
370.49	1771.49
370.70	1816.55
370.91	1632.23
371.12	1673.19
371.33	1744.87
371.54	1640.42
371.75	1845.22
371.96	1660.90
372.17	1701.86
372.38	1689.57
372.59	1736.68
372.80	1619.94
373.01	1652.71
373.22	1660.90
373.43	1683.43
373.64	1535.98
373.85	1746.92
374.06	1732.58
374.26	1800.16
374.47	1718.25
374.68	1738.73
374.89	1812.45
375.10	1683.43
375.31	1810.40
375.52	1697.77
375.73	1644.52
375.94	1613.80
376.15	1781.73
376.36	1662.95
376.57	1658.85
376.78	1699.81
376.99	1775.59
377.20	1769.44
377.40	1710.05
377.61	1791.97
377.82	1689.57
378.03	1722.34
378.24	1816.55
378.45	1798.12
378.66	1783.78
378.87	1626.09
379.08	1681.38
379.29	1730.53
379.50	1755.11
379.71	1650.66
379.91	1738.73
380.12	1712.10
380.33	1742.82
380.54	1683.43
380.75	1757.16
380.96	1738.73
381.17	1796.07
381.38	1685.48
381.59	1798.12
381.80	1691.62
382.00	1918.95
382.21	1839.08
382.42	1834.98
382.63	1875.94
382.84	1675.24
383.05	1748.97
383.26	1808.36
383.47	1767.40
383.68	1812.45
383.88	1839.08
384.09	1775.59
384.30	1832.93
384.51	1716.20
384.72	1708.01
384.93	1662.95
385.14	1777.64
385.35	1877.99
385.55	1648.61
385.76	1734.63
385.97	1701.86
386.18	1654.76
386.39	1681.38
386.60	1753.06
386.81	1722.34
387.02	1763.30
387.22	1693.67
387.43	1775.59
387.64	1759.21
387.85	1894.37
388.06	2267.10
388.27	4720.57
388.48	9135.99
388.68	11614.03
388.89	13494.07
389.10	14104.36
389.31	12009.29
389.52	9770.86
389.73	8652.67
389.93	7718.79
390.14	7305.10
390.35	6590.36
390.56	5949.35
390.77	5027.76
390.98	3964.87
391.18	3030.99
391.39	2373.60
391.60	1902.56
391.81	1941.47
392.02	1710.05
392.23	1918.95
392.43	1751.01
392.64	1822.69
392.85	1726.44
393.06	1822.69
393.27	1767.40
393.47	1683.43
393.68	1714.15
393.89	1683.43
394.10	1808.36
394.31	1652.71
394.52	1705.96
394.72	1679.33
394.93	1777.64
395.14	1734.63
395.35	1755.11
395.56	1716.20
395.76	1708.01
395.97	1783.78
396.18	1873.89
396.39	1894.37
396.60	2070.50
396.80	2029.54
397.01	1908.71
397.22	1935.33
397.43	1851.36
397.64	1832.93
397.84	1720.29
398.05	1888.23
398.26	1814.50
398.47	1851.36
398.67	1755.11
398.88	1716.20
399.09	1796.07
399.30	1742.82
399.51	1738.73
399.71	1662.95
399.92	1703.91
400.13	1736.68
400.34	1644.52
400.54	1712.10
400.75	1814.50
400.96	1724.39
401.17	1841.12
401.37	1724.39
401.58	1763.30
401.79	1722.34
402.00	1816.55
402.21	2095.07
402.41	2007.01
402.62	2148.32
402.83	2183.13
403.04	2156.51
403.24	2131.94
403.45	1841.12
403.66	2035.68
403.87	1847.27
404.07	1959.91
404.28	2019.30
404.49	1931.23
404.70	1802.21
404.90	1812.45
405.11	1769.44
405.32	1847.27
405.52	1722.34
405.73	1671.14
405.94	1705.96
406.15	1746.92
406.35	1767.40
406.56	1787.88
406.77	1673.19
406.98	1675.24
407.18	1669.09
407.39	1818.60
407.60	1689.57
407.80	1710.05
408.01	1730.53
408.22	1779.68
408.43	1730.53
408.63	1701.86
408.84	1728.49
409.05	1949.67
409.25	1650.66
409.46	1705.96
409.67	1683.43
409.88	1683.43
410.08	1783.78
410.29	1722.34
410.50	1685.48
410.70	1738.73
410.91	1671.14
411.12	1748.97
411.32	1746.92
411.53	1773.54
411.74	1806.31
411.95	1826.79
412.15	1791.97
412.36	1785.83
412.57	1751.01
412.77	1798.12
412.98	1656.81
413.19	1712.10
413.39	1830.88
413.60	1828.84
413.81	1787.88
414.01	1669.09
414.22	1710.05
414.43	1789.92
414.63	1650.66
414.84	1783.78
415.05	1794.02
415.25	1703.91
415.46	1802.21
415.67	1642.47
415.87	1773.54
416.08	1689.57
416.29	1714.15
416.49	1746.92
416.70	1740.77
416.91	1730.53
417.11	1693.67
417.32	1798.12
417.53	1736.68
417.73	1724.39
417.94	1685.48
418.15	1804.26
418.35	1697.77
418.56	1767.40
418.77	1861.60
418.97	1755.11
419.18	1708.01
419.38	1605.61
419.59	1695.72
419.80	1796.07
420.00	1669.09
420.21	1658.85
420.42	1771.49
420.62	1693.67
420.83	1689.57
421.04	1724.39
421.24	1671.14
421.45	1783.78
421.65	1828.84
421.86	1673.19
422.07	1773.54
422.27	1728.49
422.48	1710.05
422.69	1603.56
422.89	1673.19
423.10	1701.86
423.30	1617.90
423.51	1714.15
423.72	1718.25
423.92	1769.44
424.13	1703.91
424.33	1712.10
424.54	1767.40
424.75	1699.81
424.95	1863.65
425.16	1765.35
425.36	1763.30
425.57	1705.96
425.78	1779.68
425.98	1718.25
426.19	1679.33
426.39	1691.62
426.60	1673.19
426.81	1765.35
427.01	1746.92
427.22	1734.63
427.42	1658.85
427.63	1673.19
427.83	1796.07
428.04	1798.12
428.25	1769.44
428.45	1853.41
428.66	1769.44
428.86	1769.44
429.07	1744.87
429.28	1736.68
429.48	1720.29
429.69	1734.63
429.89	1718.25
430.10	1595.37
430.30	1712.10
430.51	1765.35
430.71	1660.90
430.92	1638.38
431.13	1724.39
431.33	1712.10
431.54	1759.21
431.74	1871.84
431.95	1871.84
432.15	1607.66
432.36	1783.78
432.56	1798.12
432.77	1892.32
432.98	1880.04
433.18	1722.34
433.39	1646.57
433.59	1671.14
433.80	1837.03
434.00	1849.32
434.21	1685.48
434.41	1658.85
434.62	1873.89
434.82	1720.29
435.03	1697.77
435.23	1712.10
435.44	1679.33
435.64	1705.96
435.85	1726.44
436.06	1802.21
436.26	1748.97
436.47	1730.53
436.67	1685.48
436.88	1638.38
437.08	1722.34
437.29	1861.60
437.49	1773.54
437.70	1787.88
437.90	1665.00
438.11	1916.90
438.31	1769.44
438.52	1912.80
438.72	1871.84
438.93	1976.29
439.13	1779.68
439.34	1826.79
439.54	1800.16
439.75	1828.84
439.95	1689.57
440.16	1761.25
440.36	1789.92
440.57	1769.44
440.77	1765.35
440.98	1765.35
441.18	1765.35
441.39	1734.63
441.59	1660.90
441.80	1841.12
442.00	1693.67
442.21	1783.78
442.41	1693.67
442.62	1830.88
442.82	1671.14
443.02	1703.91
443.23	1714.15
443.43	1697.77
443.64	1787.88
443.84	1708.01
444.05	1861.60
444.25	1742.82
444.46	1650.66
444.66	1667.05
444.87	1880.04
445.07	1662.95
445.28	1730.53
445.48	1841.12
445.69	1773.54
445.89	1841.12
446.09	1828.84
446.30	2023.39
446.50	2643.93
446.71	4020.16
446.91	4984.76
447.12	5789.61
447.32	6055.84
447.53	5343.15
447.73	4378.56
447.93	3897.28
448.14	3579.85
448.34	3479.50
448.55	3043.28
448.75	3131.34
448.96	3028.95
449.16	2678.74
449.36	2396.12
449.57	2203.61
449.77	1906.66
449.98	1898.47
450.18	1787.88
450.39	1859.56
450.59	1820.64
450.79	1779.68
451.00	1634.28
451.20	1767.40
451.41	1724.39
451.61	1746.92
451.81	1798.12
452.02	1757.16
452.22	1683.43
452.43	1724.39
452.63	1636.33
452.84	1783.78
453.04	1685.48
453.24	1771.49
453.45	1781.73
453.65	1734.63
453.86	1773.54
454.06	1732.58
454.26	1796.07
454.47	1720.29
454.67	1763.30
454.87	1761.25
455.08	1738.73
455.28	1820.64
455.49	1769.44
455.69	1705.96
455.89	1894.37
456.10	1847.27
456.30	1779.68
456.51	1785.83
456.71	1765.35
456.91	1746.92
457.12	1753.06
457.32	1742.82
457.52	1662.95
457.73	1669.09
457.93	1699.81
458.14	1755.11
458.34	1626.09
458.54	1728.49
458.75	1697.77
458.95	1771.49
459.15	1755.11
459.36	1763.30
459.56	1775.59
459.76	1828.84
459.97	1763.30
460.17	1703.91
460.37	1787.88
460.58	1736.68
460.78	1751.01
460.99	1677.29
461.19	1708.01
461.39	1691.62
461.60	1757.16
461.80	1746.92
462.00	1644.52
462.21	1669.09
462.41	1742.82
462.61	1650.66
462.82	1640.42
463.02	1708.01
463.22	1697.77
463.43	1812.45
463.63	1705.96
463.83	1734.63
464.04	1705.96
464.24	1732.58
464.44	1687.53
464.64	1767.40
464.85	1806.31
465.05	1779.68
465.25	1796.07
465.46	1708.01
465.66	1679.33
465.86	1777.64
466.07	1710.05
466.27	1642.47
466.47	1705.96
466.68	1572.84
466.88	1757.16
467.08	1791.97
467.29	1818.60
467.49	1718.25
467.69	1687.53
467.89	1847.27
468.10	1685.48
468.30	1736.68
468.50	1828.84
468.71	1814.50
468.91	1626.09
469.11	1853.41
469.31	1757.16
469.52	1722.34
469.72	1865.70
469.92	1859.56
470.13	1753.06
470.33	1781.73
470.53	1804.26
470.73	2224.09
470.94	2623.45
471.14	2713.56
471.34	3012.56
471.54	2865.11
471.75	2457.56
471.95	2361.31
472.15	2197.47
472.36	2258.91
472.56	2176.99
472.76	2197.47
472.96	2101.22
473.17	2070.50
473.37	1943.52
473.57	1886.18
473.77	1804.26
473.98	1789.92
474.18	1708.01
474.38	1959.91
474.58	1699.81
474.79	1644.52
474.99	1781.73
475.19	1769.44
475.39	1630.18
475.60	1732.58
475.80	1740.77
476.00	1708.01
476.20	1669.09
476.41	1654.76
476.61	1861.60
476.81	1748.97
477.01	1665.00
477.21	1779.68
477.42	1759.21
477.62	1679.33
477.82	1802.21
478.02	1628.14
478.23	1769.44
478.43	1669.09
478.63	1671.14
478.83	1724.39
479.03	1667.05
479.24	1783.78
479.44	1861.60
479.64	1636.33
479.84	1673.19
480.04	1689.57
480.25	1771.49
480.45	1685.48
480.65	1759.21
480.85	1724.39
481.06	1599.46
481.26	1742.82
481.46	1781.73
481.66	1738.73
481.86	1701.86
482.06	1802.21
482.27	1703.91
482.47	1738.73
482.67	1777.64
482.87	1699.81
483.07	1826.79
483.28	1667.05
483.48	1644.52
483.68	1767.40
483.88	1611.75
484.08	1603.56
484.29	1658.85
484.49	1781.73
484.69	1636.33
484.89	1744.87
485.09	1779.68
485.29	1755.11
485.50	1746.92
485.70	1740.77
485.90	1828.84
486.10	1783.78
486.30	1703.91
486.50	1806.31
486.71	1812.45
486.91	1781.73
487.11	1816.55
487.31	1626.09
487.51	1730.53
487.71	1673.19
487.91	1609.70
488.12	1689.57
488.32	1546.22
488.52	1662.95
488.72	1613.80
488.92	1738.73
489.12	1781.73
489.32	1834.98
489.53	1705.96
489.73	1650.66
489.93	1810.40
490.13	1701.86
490.33	1581.03
490.53	1714.15
490.73	1828.84
490.94	1617.90
491.14	1796.07
491.34	1726.44
491.54	2115.55
491.74	2801.62
491.94	3164.11
492.14	3446.73
492.34	3559.37
492.54	3188.69
492.75	2760.66
492.95	2639.83
493.15	2492.38
493.35	2426.84
493.55	2252.77
493.75	2197.47
493.95	2248.67
494.15	2142.18
494.35	1982.43
494.56	1955.81
494.76	1800.16
494.96	1808.36
495.16	1824.74
495.36	1761.25
495.56	1740.77
495.76	1720.29
495.96	1779.68
496.16	1705.96
496.36	1849.32
496.56	1753.06
496.77	1763.30
496.97	1669.09
497.17	1771.49
497.37	1710.05
497.57	1714.15
497.77	1695.72
497.97	1650.66
498.17	1730.53
498.37	1763.30
498.57	1812.45
498.77	1636.33
498.97	1734.63
499.17	1791.97
499.38	1777.64
499.58	1804.26
499.78	1722.34
499.98	1828.84
500.18	1742.82
500.38	1695.72
500.58	1927.14
500.78	2392.03
500.98	4587.45
501.18	6621.08
501.38	8069.00
501.58	8865.66
501.78	8847.22
501.98	6784.92
502.18	5613.48
502.38	4853.69
502.58	4519.87
502.78	4167.62
502.98	3971.01
503.18	3852.23
503.38	3536.84
503.59	3096.53
503.79	2889.68
503.99	2615.26
504.19	2394.08
504.39	2355.16
504.59	2361.31
504.79	2353.12
504.99	2203.61
505.19	1906.66
505.39	1906.66
505.59	2000.87
505.79	1955.81
505.99	1867.75
506.19	1880.04
506.39	1939.43
506.59	1748.97
506.79	1783.78
506.99	1834.98
507.19	1724.39
507.39	1791.97
507.59	1712.10
507.79	1691.62
507.99	1734.63
508.19	1667.05
508.39	1742.82
508.59	1755.11
508.79	1826.79
508.99	1845.22
509.19	1679.33
509.39	1810.40
509.59	1710.05
509.79	1665.00
509.99	1746.92
510.19	1798.12
510.39	1789.92
510.59	1734.63
510.79	1699.81
510.99	1667.05
511.19	1724.39
511.39	1822.69
511.59	1800.16
511.79	1806.31
511.99	1763.30
512.19	1875.94
512.38	1785.83
512.58	1658.85
512.78	1697.77
512.98	1734.63
513.18	1865.70
513.38	1714.15
513.58	1796.07
513.78	1683.43
513.98	1726.44
514.18	1761.25
514.38	1705.96
514.58	1748.97
514.78	1646.57
514.98	1726.44
515.18	1744.87
515.38	1665.00
515.58	1845.22
515.78	1683.43
515.98	1757.16
516.18	1734.63
516.38	1818.60
516.57	1761.25
516.77	1775.59
516.97	1820.64
517.17	1685.48
517.37	1646.57
517.57	1763.30
517.77	1742.82
517.97	1701.86
518.17	1761.25
518.37	1732.58
518.57	1679.33
518.77	1695.72
518.97	1714.15
519.16	1808.36
519.36	1716.20
519.56	1691.62
519.76	1689.57
519.96	1669.09
520.16	1767.40
520.36	1665.00
520.56	1820.64
520.76	1730.53
520.96	1648.61
521.16	1781.73
521.35	1812.45
521.55	1843.17
521.75	1763.30
521.95	1730.53
522.15	1693.67
522.35	1718.25
522.55	1703.91
522.75	1826.79
522.95	1724.39
523.14	1634.28
523.34	1798.12
523.54	1693.67
523.74	1873.89
523.94	1691.62
524.14	1665.00
524.34	1828.84
524.54	1771.49
524.73	1697.77
524.93	1787.88
525.13	1724.39
525.33	1699.81
525.53	1925.09
525.73	1771.49
525.93	1722.34
526.13	1638.38
526.32	1753.06
526.52	1734.63
526.72	1816.55
526.92	1765.35
527.12	1736.68
527.32	1685.48
527.52	1726.44
527.71	1746.92
527.91	1683.43
528.11	1761.25
528.31	1767.40
528.51	1673.19
528.71	1767.40
528.90	1802.21
529.10	1738.73
529.30	1884.13
529.50	1544.17
529.70	1777.64
529.90	1734.63
530.09	1742.82
530.29	1662.95
530.49	1673.19
530.69	1865.70
530.89	1748.97
531.09	1808.36
531.28	1732.58
531.48	1771.49
531.68	1830.88
531.88	1755.11
532.08	1798.12
532.28	1665.00
532.47	1843.17
532.67	1798.12
532.87	1744.87
533.07	1701.86
533.27	1744.87
533.46	1785.83
533.66	1812.45
533.86	1722.34
534.06	1759.21
534.26	1804.26
534.45	1761.25
534.65	1787.88
534.85	1802.21
535.05	1728.49
535.25	1808.36
535.44	1624.04
535.64	1769.44
535.84	1779.68
536.04	1710.05
536.24	1679.33
536.43	1765.35
536.63	1740.77
536.83	1742.82
537.03	1697.77
537.22	1679.33
537.42	1683.43
537.62	1699.81
537.82	1710.05
538.02	1837.03
538.21	1734.63
538.41	1943.52
538.61	1814.50
538.81	1732.58
539.00	1771.49
539.20	1648.61
539.40	1779.68
539.60	1765.35
539.79	1787.88
539.99	1677.29
540.19	1736.68
540.39	1718.25
540.58	1703.91
540.78	1763.30
540.98	1720.29
541.18	1804.26
541.37	1761.25
541.57	1789.92
541.77	1708.01
541.97	1624.04
542.16	1611.75
542.36	1726.44
542.56	1710.05
542.76	1875.94
542.95	1763.30
543.15	1755.11
543.35	1771.49
543.54	1679.33
543.74	1720.29
543.94	1808.36
544.14	1679.33
544.33	1802.21
544.53	1783.78
544.73	1677.29
544.93	1714.15
545.12	1726.44
545.32	1697.77
545.52	1771.49
545.71	1667.05
545.91	1701.86
546.11	1705.96
546.30	1648.61
546.50	1732.58
546.70	1800.16
546.90	1796.07
547.09	1650.66
547.29	1753.06
547.49	1789.92
547.68	1732.58
547.88	1712.10
548.08	1738.73
548.27	2193.37
548.47	1773.54
548.67	1708.01
548.87	1769.44
549.06	1679.33
549.26	1789.92
549.46	1744.87
549.65	1746.92
549.85	1798.12
550.05	1761.25
550.24	1662.95
550.44	1726.44
550.64	1671.14
550.83	1712.10
551.03	1904.61
551.23	1759.21
551.42	1718.25
551.62	1722.34
551.82	1753.06
552.01	1744.87
552.21	1798.12
552.41	1708.01
552.60	1853.41
552.80	1738.73
553.00	1720.29
553.19	1740.77
553.39	1744.87
553.59	1656.81
553.78	1738.73
553.98	1722.34
554.17	1699.81
554.37	1763.30
554.57	1718.25
554.76	1669.09
554.96	1675.24
555.16	1755.11
555.35	1708.01
555.55	1726.44
555.75	1648.61
555.94	1724.39
556.14	1644.52
556.33	1712.10
556.53	1787.88
556.73	1722.34
556.92	1712.10
557.12	1837.03
557.32	1890.28
557.51	1779.68
557.71	1824.74
557.90	1877.99
558.10	1859.56
558.30	1740.77
558.49	1738.73
558.69	1695.72
558.88	1773.54
559.08	1765.35
559.28	1675.24
559.47	1759.21
559.67	1755.11
559.86	1912.80
560.06	1736.68
560.26	1636.33
560.45	1722.34
560.65	1759.21
560.84	1804.26
561.04	1640.42
561.24	1744.87
561.43	1640.42
561.63	1882.08
561.82	1701.86
562.02	1812.45
562.22	1730.53
562.41	1710.05
562.61	1687.53
562.80	1705.96
563.00	1892.32
563.19	1783.78
563.39	1742.82
563.59	1736.68
563.78	1673.19
563.98	1644.52
564.17	1660.90
564.37	1609.70
564.56	1683.43
564.76	1542.12
564.96	1845.22
565.15	1757.16
565.35	1859.56
565.54	1689.57
565.74	1794.02
565.93	1777.64
566.13	1771.49
566.32	1689.57
566.52	1761.25
566.71	1705.96
566.91	1804.26
567.11	1738.73
567.30	1681.38
567.50	1843.17
567.69	1757.16
567.89	1751.01
568.08	1615.85
568.28	1730.53
568.47	1716.20
568.67	1746.92
568.86	1722.34
569.06	1877.99
569.25	1724.39
569.45	1720.29
569.64	1761.25
569.84	1720.29
570.04	1742.82
570.23	1640.42
570.43	1695.72
570.62	1755.11
570.82	1800.16
571.01	1720.29
571.21	1730.53
571.40	1658.85
571.60	1796.07
571.79	1877.99
571.99	1769.44
572.18	1720.29
572.38	1742.82
572.57	1720.29
572.77	1812.45
572.96	1857.51
573.16	1853.41
573.35	1689.57
573.55	1810.40
573.74	1718.25
573.94	1722.34
574.13	1746.92
574.33	1787.88
574.52	1826.79
574.71	1697.77
574.91	1779.68
575.10	1714.15
575.30	1736.68
575.49	1697.77
575.69	1753.06
575.88	1816.55
576.08	1802.21
576.27	1830.88
576.47	1800.16
576.66	1857.51
576.86	1826.79
577.05	1837.03
577.25	1814.50
577.44	1857.51
577.64	1714.15
577.83	1849.32
578.02	1748.97
578.22	1880.04
578.41	1810.40
578.61	1699.81
578.80	1708.01
579.00	1753.06
579.19	1800.16
579.39	1683.43
579.58	1800.16
579.77	1787.88
579.97	1822.69
580.16	1890.28
580.36	1880.04
580.55	1908.71
580.75	1822.69
580.94	1720.29
581.13	1861.60
581.33	1814.50
581.52	1755.11
581.72	1951.71
581.91	1945.57
582.11	1763.30
582.30	1828.84
582.49	1789.92
582.69	1882.08
582.88	1789.92
583.08	1837.03
583.27	1859.56
583.47	1787.88
583.66	1796.07
583.85	1701.86
584.05	1820.64
584.24	1865.70
584.44	1834.98
584.63	1828.84
584.82	1857.51
585.02	1869.80
585.21	1953.76
585.41	2017.25
585.60	1890.28
585.79	2058.21
585.99	1947.62
586.18	1968.10
586.37	2269.15
586.57	3301.33
586.76	9867.11
586.96	27219.55
587.15	41883.01
587.34	51547.37
587.54	57887.88
587.73	55862.44
587.93	40179.10
588.12	29933.11
588.31	23924.37
588.51	20532.93
588.70	18740.96
588.89	17110.78
589.09	15421.20
589.28	13641.52
589.47	11587.41
589.67	9709.42
589.86	7374.74
590.06	5509.04
590.25	4202.43
590.44	3344.33
590.64	2568.15
590.83	2258.91
591.02	2133.98
591.22	1982.43
591.41	1867.75
591.60	1796.07
591.80	2021.35
591.99	1718.25
592.18	1763.30
592.38	1781.73
592.57	1791.97
592.76	1773.54
592.96	1802.21
593.15	1712.10
593.34	1822.69
593.54	1728.49
593.73	1787.88
593.92	1859.56
594.12	1781.73
594.31	1771.49
594.50	1855.46
594.70	1865.70
594.89	1896.42
595.08	1734.63
595.28	1802.21
595.47	1906.66
595.66	1791.97
595.86	1718.25
596.05	1716.20
596.24	1654.76
596.43	1894.37
596.63	1816.55
596.82	1822.69
597.01	1755.11
597.21	1902.56
597.40	1892.32
597.59	1804.26
597.79	1773.54
597.98	1832.93
598.17	1812.45
598.36	1714.15
598.56	1787.88
598.75	1783.78
598.94	1812.45
599.14	1783.78
599.33	1765.35
599.52	1757.16
599.71	1771.49
599.91	1796.07
600.10	1757.16
600.29	1775.59
600.48	1789.92
600.68	1769.44
600.87	1767.40
601.06	1671.14
601.26	1736.68
601.45	1751.01
601.64	1757.16
601.83	1822.69
602.03	1718.25
602.22	1615.85
602.41	1746.92
602.60	1863.65
602.80	1818.60
602.99	1765.35
603.18	1757.16
603.37	1789.92
603.57	1738.73
603.76	1804.26
603.95	1783.78
604.14	1775.59
604.34	1705.96
604.53	1701.86
604.72	1775.59
604.91	1775.59
605.10	1736.68
605.30	1724.39
605.49	1865.70
605.68	1759.21
605.87	1781.73
606.07	1730.53
606.26	1826.79
606.45	1765.35
606.64	1800.16
606.84	1748.97
607.03	1767.40
607.22	1822.69
607.41	1763.30
607.60	1783.78
607.80	1853.41
607.99	1720.29
608.18	1812.45
608.37	1812.45
608.56	1697.77
608.76	1855.46
608.95	1826.79
609.14	1834.98
609.33	1808.36
609.52	1910.75
609.72	1863.65
609.91	1886.18
610.10	1798.12
610.29	1834.98
610.48	1781.73
610.68	1800.16
610.87	1781.73
611.06	1798.12
611.25	1767.40
611.44	1839.08
611.63	1708.01
611.83	1890.28
612.02	1734.63
612.21	1730.53
612.40	1611.75
612.59	1613.80
612.79	1699.81
612.98	1755.11
613.17	1851.36
613.36	1765.35
613.55	1791.97
613.74	1787.88
613.93	1841.12
614.13	1937.38
614.32	2015.20
614.51	1951.71
614.70	1800.16
614.89	1867.75
615.08	1828.84
615.28	2176.99
615.47	1757.16
615.66	1847.27
615.85	1736.68
616.04	1927.14
616.23	1687.53
616.42	1808.36
616.62	1849.32
616.81	1859.56
617.00	1775.59
617.19	1697.77
617.38	1759.21
617.57	1753.06
617.76	1812.45
617.95	1789.92
618.15	1730.53
618.34	1910.75
618.53	1734.63
618.72	1787.88
618.91	1800.16
619.10	1783.78
619.29	1695.72
619.48	1716.20
619.68	1609.70
619.87	1798.12
620.06	1603.56
620.25	1748.97
620.44	1705.96
620.63	1708.01
620.82	1773.54
621.01	1773.54
621.20	1734.63
621.39	1726.44
621.59	1839.08
621.78	1763.30
621.97	1689.57
622.16	1740.77
622.35	1718.25
622.54	1794.02
622.73	1847.27
622.92	1667.05
623.11	1765.35
623.30	1761.25
623.49	1738.73
623.68	1716.20
623.88	1761.25
624.07	1812.45
624.26	1710.05
624.45	1740.77
624.64	1738.73
624.83	1769.44
625.02	1710.05
625.21	1734.63
625.40	1740.77
625.59	1773.54
625.78	1718.25
625.97	1834.98
626.16	1816.55
626.35	1832.93
626.54	1773.54
626.74	1931.23
626.93	1779.68
627.12	1710.05
627.31	1804.26
627.50	1783.78
627.69	1769.44
627.88	1753.06
628.07	1705.96
628.26	1648.61
628.45	1726.44
628.64	1703.91
628.83	1810.40
629.02	1689.57
629.21	1812.45
629.40	1755.11
629.59	1685.48
629.78	1658.85
629.97	1632.23
630.16	1705.96
630.35	1753.06
630.54	1751.01
630.73	1740.77
630.92	1767.40
631.11	1603.56
631.30	1777.64
631.49	1820.64
631.68	1710.05
631.87	1787.88
632.06	1697.77
632.25	1824.74
632.44	1736.68
632.63	1763.30
632.82	1837.03
633.01	1775.59
633.20	1822.69
633.39	1794.02
633.58	1689.57
633.77	1845.22
633.96	1808.36
634.15	1843.17
634.34	1834.98
634.53	1828.84
634.72	1673.19
634.91	1705.96
635.10	1738.73
635.29	1779.68
635.48	1789.92
635.67	1693.67
635.86	1624.04
636.05	1769.44
636.24	1791.97
636.43	1710.05
636.62	1800.16
636.81	1585.13
637.00	1828.84
637.19	1841.12
637.38	1775.59
637.57	1763.30
637.76	1771.49
637.95	1914.85
638.14	1773.54
638.33	1857.51
638.52	1804.26
638.71	1732.58
638.89	1636.33
639.08	1865.70
639.27	1855.46
639.46	1896.42
639.65	2228.19
639.84	2279.39
640.03	2414.56
640.22	2383.84
640.41	2439.13
640.60	2064.35
640.79	1966.05
640.98	1939.43
641.17	2009.06
641.36	1871.84
641.55	1923.04
641.74	1771.49
641.92	1810.40
642.11	1814.50
642.30	1751.01
642.49	1671.14
642.68	1687.53
642.87	1820.64
643.06	1720.29
643.25	1726.44
643.44	1683.43
643.63	1714.15
643.82	1794.02
644.00	1673.19
644.19	1701.86
644.38	1656.81
644.57	1779.68
644.76	1761.25
644.95	1763.30
645.14	1744.87
645.33	1695.72
645.52	1710.05
645.71	1740.77
645.89	1710.05
646.08	1814.50
646.27	1693.67
646.46	1900.52
646.65	1583.08
646.84	1734.63
647.03	1646.57
647.22	1763.30
647.40	1740.77
647.59	1665.00
647.78	1607.66
647.97	1656.81
648.16	1572.84
648.35	1841.12
648.54	1757.16
648.73	1726.44
648.91	1785.83
649.10	1712.10
649.29	1732.58
649.48	1718.25
649.67	1755.11
649.86	1851.36
650.05	1777.64
650.23	1906.66
650.42	1804.26
650.61	1929.19
650.80	1896.42
650.99	1959.91
651.18	1841.12
651.36	1785.83
651.55	1724.39
651.74	1806.31
651.93	1691.62
652.12	1753.06
652.31	1724.39
652.49	1759.21
652.68	1767.40
652.87	1791.97
653.06	1810.40
653.25	1808.36
653.44	1796.07
653.62	1896.42
653.81	1798.12
654.00	1738.73
654.19	1849.32
654.38	1855.46
654.56	1683.43
654.75	1697.77
654.94	1769.44
655.13	1755.11
655.32	1730.53
655.51	1816.55
655.69	1693.67
655.88	1771.49
656.07	1734.63
656.26	1726.44
656.45	1626.09
656.63	1777.64
656.82	1771.49
657.01	1789.92
657.20	1673.19
657.38	1828.84
657.57	1783.78
657.76	1648.61
657.95	1804.26
658.14	1710.05
658.32	1734.63
658.51	1695.72
658.70	1779.68
658.89	1753.06
659.08	1718.25
659.26	1937.38
659.45	1734.63
659.64	1804.26
659.83	1761.25
660.01	2015.20
660.20	1773.54
660.39	1843.17
660.58	1636.33
660.76	1732.58
660.95	1613.80
661.14	1787.88
661.33	1683.43
661.51	1691.62
661.70	1689.57
661.89	1751.01
662.08	1761.25
662.26	1574.89
662.45	1701.86
662.64	1849.32
662.83	1773.54
663.01	1656.81
663.20	1726.44
663.39	1781.73
663.58	1609.70
663.76	1724.39
663.95	1736.68
664.14	1746.92
664.32	1712.10
664.51	1683.43
664.70	1640.42
664.89	1775.59
665.07	1671.14
665.26	1751.01
665.45	1660.90
665.64	1761.25
665.82	1867.75
666.01	1779.68
666.20	1681.38
666.38	1873.89
666.57	1894.37
666.76	2220.00
666.95	4542.39
667.13	11597.65
667.32	18630.37
667.51	22417.07
667.69	25048.71
667.88	25439.87
668.07	19676.88
668.25	14384.93
668.44	11704.14
668.63	9770.86
668.81	8707.96
669.00	7843.72
669.19	7153.55
669.38	6244.26
669.56	5425.07
669.75	4554.68
669.94	3731.40
670.12	3100.62
670.31	2623.45
670.50	2256.86
670.68	2113.50
670.87	1914.85
671.06	1935.33
671.24	1912.80
671.43	1886.18
671.62	1869.80
671.80	1824.74
671.99	1841.12
672.18	1787.88
672.36	1820.64
672.55	1757.16
672.74	1816.55
672.92	1738.73
673.11	1738.73
673.29	1656.81
673.48	1775.59
673.67	1734.63
673.85	1837.03
674.04	1673.19
674.23	1781.73
674.41	1800.16
674.60	1685.48
674.79	1574.89
674.97	1601.51
675.16	1753.06
675.34	1773.54
675.53	1626.09
675.72	1734.63
675.90	1808.36
676.09	1710.05
676.28	1712.10
676.46	1665.00
676.65	1775.59
676.83	1615.85
677.02	1748.97
677.21	1751.01
677.39	1710.05
677.58	1699.81
677.77	1634.28
677.95	1720.29
678.14	1705.96
678.32	1705.96
678.51	1765.35
678.70	1875.94
678.88	1712.10
679.07	1710.05
679.25	1693.67
679.44	1658.85
679.63	1644.52
679.81	1773.54
680.00	1716.20
680.18	1765.35
680.37	1740.77
680.55	1783.78
680.74	1591.27
680.93	1613.80
681.11	1689.57
681.30	1681.38
681.48	1685.48
681.67	1648.61
681.85	1650.66
682.04	1744.87
682.23	1787.88
682.41	1716.20
682.60	1714.15
682.78	1748.97
682.97	1677.29
683.15	1673.19
683.34	1742.82
683.53	1808.36
683.71	1673.19
683.90	1796.07
684.08	1765.35
684.27	1660.90
684.45	1746.92
684.64	1791.97
684.82	1699.81
685.01	1779.68
685.19	1763.30
685.38	1789.92
685.57	1794.02
685.75	1685.48
685.94	1730.53
686.12	1617.90
686.31	1716.20
686.49	1837.03
686.68	1613.80
686.86	1734.63
687.05	1697.77
687.23	1814.50
687.42	1714.15
687.60	1632.23
687.79	1822.69
687.97	1771.49
688.16	1822.69
688.34	1736.68
688.53	1587.18
688.71	1720.29
688.90	1767.40
689.08	1644.52
689.27	1632.23
689.45	1724.39
689.64	1742.82
689.82	1740.77
690.01	1810.40
690.19	1759.21
690.38	1720.29
690.56	1787.88
690.75	1730.53
690.93	1744.87
691.12	1691.62
691.30	1738.73
691.49	1769.44
691.67	1724.39
691.86	1830.88
692.04	1648.61
692.23	1751.01
692.41	1816.55
692.60	1861.60
692.78	1865.70
692.97	1804.26
693.15	1824.74
693.34	1884.13
693.52	1748.97
693.71	1732.58
693.89	1701.86
694.08	1636.33
694.26	1791.97
694.44	1720.29
694.63	1800.16
694.81	1695.72
695.00	1619.94
695.18	1794.02
695.37	1869.80
695.55	1736.68
695.74	1718.25
695.92	1648.61
696.10	1820.64
696.29	1675.24
696.47	1660.90
696.66	1638.38
696.84	1636.33
697.03	1761.25
697.21	1904.61
697.40	2381.79
697.58	1767.40
697.76	1660.90
697.95	1740.77
698.13	1644.52
698.32	1710.05
698.50	1753.06
698.68	1742.82
698.87	1722.34
699.05	1765.35
699.24	1730.53
699.42	1671.14
699.61	1720.29
699.79	1718.25
699.97	1701.86
700.16	1652.71
700.34	1710.05
700.53	1697.77
700.71	1814.50
700.89	1781.73
701.08	1798.12
701.26	1722.34
701.45	2138.08
701.63	1671.14
701.81	1705.96
702.00	1683.43
702.18	1673.19
702.37	1789.92
702.55	1863.65
702.73	1984.48
702.92	1898.47
703.10	2041.82
703.28	1931.23
703.47	1916.90
703.65	1894.37
703.84	1804.26
704.02	1777.64
704.20	1853.41
704.39	1746.92
704.57	1781.73
704.75	1802.21
704.94	1824.74
705.12	1853.41
705.30	1890.28
705.49	2490.33
705.67	5504.94
705.86	12969.79
706.04	19252.95
706.22	22587.05
706.41	24811.14
706.59	24458.89
706.77	18759.39
706.96	13776.69
707.14	12013.38
707.32	9717.61
707.51	8988.53
707.69	7974.79
707.87	6645.66
708.06	5466.03
708.24	4388.80
708.42	3352.52
708.61	2861.01
708.79	2273.25
708.97	2095.07
709.16	1892.32
709.34	1927.14
709.52	1689.57
709.71	1781.73
709.89	1787.88
710.07	1728.49
710.26	1794.02
710.44	1880.04
710.62	1789.92
710.80	1728.49
710.99	1781.73
711.17	1824.74
711.35	1656.81
711.54	1714.15
711.72	1787.88
711.90	1755.11
712.09	1617.90
712.27	1718.25
712.45	1751.01
712.63	1724.39
712.82	1687.53
713.00	1742.82
713.18	1740.77
713.37	1777.64
713.55	1742.82
713.73	1798.12
713.91	1816.55
714.10	1693.67
714.28	1705.96
714.46	1705.96
714.65	1748.97
714.83	1701.86
715.01	1722.34
715.19	1689.57
715.38	1665.00
715.56	1767.40
715.74	1644.52
715.92	1673.19
716.11	1828.84
716.29	1683.43
716.47	1728.49
716.65	1691.62
716.84	1626.09
717.02	1771.49
717.20	1724.39
717.38	1744.87
717.57	1777.64
717.75	1740.77
717.93	1667.05
718.11	1724.39
718.30	1634.28
718.48	1771.49
718.66	1744.87
718.84	1814.50
719.03	1708.01
719.21	1581.03
719.39	1755.11
719.57	1746.92
719.75	1802.21
719.94	1697.77
720.12	1675.24
720.30	1701.86
720.48	1710.05
720.67	1720.29
720.85	1617.90
721.03	1679.33
721.21	1693.67
721.39	1722.34
721.58	1796.07
721.76	1765.35
721.94	1671.14
722.12	1718.25
722.30	1816.55
722.49	1644.52
722.67	1832.93
722.85	1722.34
723.03	1671.14
723.21	1667.05
723.40	1736.68
723.58	1785.83
723.76	1779.68
723.94	1753.06
724.12	1779.68
724.30	1867.75
724.49	1853.41
724.67	1677.29
724.85	1806.31
725.03	1636.33
725.21	1755.11
725.40	1869.80
725.58	1714.15
725.76	1798.12
725.94	1734.63
726.12	1648.61
726.30	1755.11
726.49	1751.01
726.67	1736.68
726.85	1720.29
727.03	1880.04
727.21	2277.34
727.39	3377.10
727.57	4814.77
727.76	5580.71
727.94	6137.76
728.12	6285.22
728.30	5658.54
728.48	4585.40
728.66	3940.29
728.84	3641.29
729.03	3231.69
729.21	2795.48
729.39	2576.34
729.57	2131.94
729.75	1961.95
729.93	1961.95
730.11	1781.73
730.30	1767.40
730.48	1785.83
730.66	1738.73
730.84	1826.79
731.02	1689.57
731.20	1681.38
731.38	1761.25
731.56	1640.42
731.74	1564.65
731.93	1669.09
732.11	1681.38
732.29	1732.58
732.47	1718.25
732.65	1734.63
732.83	1810.40
733.01	1734.63
733.19	1607.66
733.37	1738.73
733.56	1791.97
733.74	1703.91
733.92	1818.60
734.10	1701.86
734.28	1710.05
734.46	1591.27
734.64	1724.39
734.82	1705.96
735.00	1732.58
735.18	1693.67
735.36	1681.38
735.54	1671.14
735.73	1652.71
735.91	1753.06
736.09	1781.73
736.27	1683.43
736.45	1705.96
736.63	1660.90
736.81	1683.43
736.99	1783.78
737.17	1755.11
737.35	1656.81
737.53	1613.80
737.71	1667.05
737.89	1794.02
738.07	1630.18
738.25	1691.62
738.43	1677.29
738.61	1695.72
738.80	1636.33
738.98	1671.14
739.16	1615.85
739.34	1703.91
739.52	1822.69
739.70	1693.67
739.88	1742.82
740.06	1773.54
740.24	1595.37
740.42	1767.40
740.60	1695.72
740.78	1691.62
740.96	1683.43
741.14	1679.33
741.32	1679.33
741.50	1681.38
741.68	1961.95
741.86	1767.40
742.04	1667.05
742.22	1701.86
742.40	1775.59
742.58	1669.09
742.76	1683.43
742.94	1718.25
743.12	1617.90
743.30	1662.95
743.48	1738.73
743.66	1677.29
743.84	1708.01
744.02	1714.15
744.20	1730.53
744.38	1718.25
744.56	1712.10
744.74	1794.02
744.92	1685.48
745.10	1771.49
745.28	1759.21
745.46	1824.74
745.64	1748.97
745.82	1761.25
746.00	1761.25
746.18	1669.09
746.36	1658.85
746.54	1673.19
746.72	1763.30
746.90	1669.09
747.08	1759.21
747.26	1691.62
747.44	1820.64
747.62	1720.29
747.80	1720.29
747.98	1773.54
748.15	1771.49
748.33	1785.83
748.51	1697.77
748.69	1773.54
748.87	1601.51
749.05	1703.91
749.23	1712.10
749.41	1742.82
749.59	1757.16
749.77	1765.35
749.95	1718.25
750.13	1683.43
750.31	1656.81
750.49	1650.66
750.67	1832.93
750.85	1830.88
751.03	1734.63
751.20	1794.02
751.38	1716.20
751.56	1660.90
751.74	1699.81
751.92	1771.49
752.10	1646.57
752.28	1783.78
752.46	1673.19
752.64	1705.96
752.82	1665.00
753.00	1787.88
753.18	1740.77
753.35	1660.90
753.53	1650.66
753.71	1740.77
753.89	1722.34
754.07	1714.15
754.25	1800.16
754.43	1710.05
754.61	1660.90
754.79	1687.53
754.97	1683.43
755.14	1816.55
755.32	1693.67
755.50	1669.09
755.68	1689.57
755.86	1665.00
756.04	1710.05
756.22	1621.99
756.40	1783.78
756.57	1851.36
756.75	1662.95
756.93	1753.06
757.11	1791.97
757.29	1597.42
757.47	1773.54
757.65	1583.08
757.82	1576.94
758.00	1667.05
758.18	1648.61
758.36	1732.58
758.54	1761.25
758.72	1632.23
758.90	1738.73
759.07	1697.77
759.25	1665.00
759.43	1705.96
759.61	1691.62
759.79	2232.29
759.97	1755.11
760.15	1685.48
760.32	1744.87
760.50	1710.05
760.68	1794.02
760.86	1656.81
761.04	1798.12
761.22	1753.06
761.39	1660.90
761.57	1722.34
761.75	1671.14
761.93	1841.12
762.11	1724.39
762.28	1710.05
762.46	1599.46
762.64	1744.87
762.82	1585.13
763.00	1746.92
763.18	1755.11
763.35	1609.70
763.53	1665.00
763.71	1732.58
763.89	1712.10
764.07	1656.81
764.24	1732.58
764.42	1761.25
764.60	1667.05
764.78	1753.06
764.96	1720.29
765.13	1722.34
765.31	1652.71
765.49	1701.86
765.67	1632.23
765.84	1665.00
766.02	1658.85
766.20	1660.90
766.38	1714.15
766.56	1644.52
766.73	1783.78
766.91	1689.57
767.09	1701.86
767.27	1816.55
767.44	1685.48
767.62	1685.48
767.80	1730.53
767.98	1726.44
768.15	1683.43
768.33	1757.16
768.51	1669.09
768.69	1726.44
768.87	1716.20
769.04	1683.43
769.22	1794.02
769.40	1828.84
769.58	1853.41
769.75	1714.15
769.93	1742.82
770.11	1665.00
770.28	1632.23
770.46	1765.35
770.64	1769.44
770.82	1660.90
770.99	1718.25
771.17	1679.33
771.35	1708.01
771.53	1769.44
771.70	1644.52
771.88	1748.97
772.06	1724.39
772.23	1751.01
772.41	1738.73
772.59	1732.58
772.77	1656.81
772.94	1683.43
773.12	1718.25
773.30	1558.50
773.47	1722.34
773.65	1576.94
773.83	1783.78
774.01	1785.83
774.18	1605.61
774.36	1634.28
774.54	1742.82
774.71	1755.11
774.89	1621.99
775.07	1632.23
775.24	1624.04
775.42	1703.91
775.60	1800.16
775.78	1746.92
775.95	1689.57
776.13	1638.38
776.31	1660.90
776.48	1744.87
776.66	1783.78
776.84	1654.76
777.01	1755.11
777.19	1685.48
777.37	1687.53
777.54	1712.10
777.72	1847.27
777.90	1695.72
778.07	1650.66
778.25	1880.04
778.43	1720.29
778.60	1705.96
778.78	1699.81
778.96	1814.50
779.13	1701.86
779.31	1773.54
779.49	1751.01
779.66	1679.33
779.84	1677.29
780.01	1736.68
780.19	1734.63
780.37	1753.06
780.54	1722.34
780.72	1621.99
780.90	1699.81
781.07	1705.96
781.25	1761.25
781.43	1705.96
781.60	1652.71
781.78	1751.01
781.95	1675.24
782.13	1699.81
782.31	1681.38
782.48	1648.61
782.66	1708.01
782.83	1853.41
783.01	1736.68
783.19	1673.19
783.36	1724.39
783.54	1636.33
783.72	1796.07
783.89	1746.92
784.07	1689.57
784.24	1695.72
784.42	1722.34
784.60	1669.09
784.77	1679.33
784.95	1630.18
785.12	1708.01
785.30	1730.53
785.47	1662.95
785.65	1638.38
785.83	1673.19
786.00	1652.71
786.18	1660.90
786.35	1683.43
786.53	1585.13
786.71	1763.30
786.88	1714.15
787.06	1710.05
787.23	1681.38
787.41	1722.34
787.58	1652.71
787.76	1662.95
787.94	1744.87
788.11	1716.20
788.29	1681.38
788.46	1654.76
788.64	1591.27
788.81	1671.14
788.99	1660.90
789.16	1646.57
789.34	1671.14
789.52	1660.90
789.69	1728.49
789.87	1624.04
790.04	1662.95
790.22	1763.30
790.39	1839.08
790.57	1591.27
790.74	1642.47
790.92	1714.15
791.09	1669.09
791.27	1708.01
791.44	1738.73
791.62	1712.10
791.79	1763.30
791.97	1744.87
792.15	1859.56
792.32	1740.77
792.50	1753.06
792.67	1804.26
792.85	1757.16
793.02	1671.14
793.20	1708.01
793.37	1632.23
793.55	1714.15
793.72	1552.36
793.90	1718.25
794.07	1679.33
794.25	1648.61
794.42	1728.49
794.60	1761.25
794.77	1716.20
794.95	1755.11
795.12	1765.35
795.30	1675.24
795.47	1578.98
795.65	1910.75
795.82	1808.36
796.00	1650.66
796.17	1644.52
796.34	1656.81
796.52	1662.95
796.69	1763.30
796.87	1767.40
797.04	1753.06
797.22	1796.07
797.39	1685.48
797.57	1785.83
797.74	1738.73
797.92	1693.67
798.09	1687.53
798.27	1714.15
798.44	1755.11
798.62	1699.81
798.79	1714.15
798.96	1705.96
799.14	1673.19
799.31	1902.56
799.49	1648.61
799.66	1746.92
799.84	1736.68
800.01	1574.89
800.19	1767.40
800.36	1683.43
800.53	1695.72
800.71	1681.38
800.88	1726.44
801.06	1619.94
801.23	1642.47
801.41	1742.82
801.58	1665.00
801.75	1677.29
801.93	1691.62
802.10	1679.33
802.28	1673.19
802.45	1660.90
802.63	1734.63
802.80	1787.88
802.97	1714.15
803.15	1712.10
803.32	1660.90
803.50	1689.57
803.67	1644.52
803.84	1669.09
804.02	1787.88
804.19	1728.49
804.37	1646.57
804.54	1601.51
804.71	1640.42
804.89	1701.86
805.06	1665.00
805.24	1646.57
805.41	1568.74
805.58	1679.33
805.76	1802.21
805.93	1728.49
806.10	1771.49
806.28	1734.63
806.45	1728.49
806.63	1693.67
806.80	1718.25
806.97	1763.30
807.15	1722.34
807.32	1607.66
807.49	1691.62
807.67	1626.09
807.84	1757.16
808.01	1701.86
808.19	1861.60
808.36	1800.16
808.54	1755.11
808.71	1656.81
808.88	1691.62
809.06	1724.39
809.23	1755.11
809.40	1662.95
809.58	1751.01
809.75	1650.66
809.92	1710.05
810.10	1794.02
810.27	1695.72
810.44	1669.09
810.62	1716.20
810.79	1720.29
810.96	1689.57
811.14	1757.16
811.31	1701.86
811.48	1712.10
811.66	1712.10
811.83	1712.10
812.00	1705.96
812.18	1687.53
812.35	1834.98
812.52	1642.47
812.69	1681.38
812.87	1648.61
813.04	1697.77
813.21	1757.16
813.39	1720.29
813.56	1667.05
813.73	1730.53
813.91	1703.91
814.08	1665.00
814.25	1804.26
814.42	1710.05
814.60	1740.77
814.77	1685.48
814.94	1765.35
815.12	1751.01
815.29	1767.40
815.46	1671.14
815.63	1722.34
815.81	1673.19
815.98	1767.40
816.15	1724.39
816.33	1734.63
816.50	1716.20
816.67	1701.86
816.84	1722.34
817.02	1632.23
817.19	1687.53
817.36	1716.20
817.53	1718.25
817.71	1607.66
817.88	1708.01
818.05	1689.57
818.22	1652.71
818.40	1810.40
818.57	1710.05
818.74	1687.53
818.91	1703.91
819.09	1748.97
819.26	1816.55
819.43	1593.32
819.60	1628.14
819.78	1691.62
819.95	1781.73
820.12	1619.94
820.29	1791.97
820.47	1703.91
820.64	1669.09
820.81	1642.47
820.98	1716.20
821.15	1669.09
821.33	1767.40
821.50	1660.90
821.67	1699.81
821.84	1787.88
822.02	1765.35
822.19	1765.35
822.36	1658.85
822.53	1736.68
822.70	1640.42
822.88	1634.28
823.05	1748.97
823.22	1665.00
823.39	1679.33
823.56	1708.01
823.74	1812.45
823.91	1636.33
824.08	1675.24
824.25	1626.09
824.42	1822.69
824.60	1671.14
824.77	1742.82
824.94	1671.14
825.11	1716.20
825.28	1597.42
825.45	1691.62
825.63	1691.62
825.80	1740.77
825.97	1728.49
826.14	1742.82
826.31	1671.14
826.48	1746.92
826.66	1714.15
826.83	1761.25
827.00	1730.53
827.17	1599.46
827.34	1681.38
827.51	1732.58
827.69	1607.66
827.86	1632.23
828.03	1757.16
828.20	1708.01
828.37	1589.22
828.54	1769.44
828.71	1603.56
828.89	1789.92
829.06	1693.67
829.23	1812.45
829.40	1630.18
829.57	1681.38
829.74	1734.63
829.91	1738.73
830.09	1720.29
830.26	1740.77
830.43	1765.35
830.60	1683.43
830.77	1814.50
830.94	1689.57
831.11	1701.86
831.28	1697.77
831.46	1841.12
831.63	1613.80
831.80	1783.78
831.97	1705.96
832.14	1716.20
832.31	1738.73
832.48	1693.67
832.65	1796.07
832.82	1665.00
832.99	1728.49
833.17	1656.81
833.34	1808.36
833.51	1798.12
833.68	1654.76
833.85	1748.97
834.02	1714.15
834.19	1632.23
834.36	1644.52
834.53	1757.16
834.70	1656.81
834.87	1734.63
835.04	1695.72
835.22	1673.19
835.39	1693.67
835.56	1671.14
835.73	1681.38
835.90	1785.83
836.07	1691.62
836.24	1695.72
836.41	1626.09
836.58	1630.18
836.75	1740.77
836.92	1748.97
837.09	1689.57
837.26	1796.07
837.43	1703.91
837.60	1804.26
837.77	1734.63
837.94	1751.01
838.12	1800.16
838.29	1746.92
838.46	1607.66
838.63	1646.57
838.80	1849.32
838.97	1759.21
839.14	1728.49
839.31	1665.00
839.48	1771.49
839.65	1714.15
839.82	1748.97
839.99	1703.91
840.16	1742.82
840.33	1693.67
840.50	1675.24
840.67	1638.38
840.84	1636.33
841.01	1640.42
841.18	1687.53
841.35	1683.43
841.52	1771.49
841.69	1861.60
841.86	1734.63
842.03	1746.92
842.20	1759.21
842.37	1742.82
842.54	1742.82
842.71	1781.73
842.88	1673.19
843.05	1755.11
843.22	1714.15
843.39	1722.34
843.56	1710.05
843.73	1724.39
843.90	1785.83
844.07	1710.05
844.24	1781.73
844.41	1775.59
844.58	1718.25
844.75	1693.67
844.92	1767.40
845.09	1746.92
845.26	1722.34
845.43	1724.39
845.60	1681.38
845.77	1683.43
845.94	1685.48
846.10	1710.05
846.27	1607.66
846.44	1644.52
846.61	1673.19
846.78	1689.57
846.95	1705.96
847.12	1761.25
847.29	1701.86
847.46	1677.29
847.63	1742.82
847.80	1638.38
847.97	1667.05
848.14	1857.51
848.31	1722.34
848.48	1611.75
848.65	1652.71
848.82	1746.92
848.98	1765.35
849.15	1712.10
849.32	1828.84
849.49	1777.64
849.66	1710.05
849.83	1755.11
850.00	1673.19
850.17	1718.25
850.34	1683.43
850.51	1716.20
850.68	1714.15
850.85	1814.50
851.01	1705.96
851.18	1859.56
851.35	1724.39
851.52	1753.06
851.69	1714.15
851.86	1638.38
852.03	1730.53
852.20	1738.73
852.37	1769.44
852.53	1701.86
852.70	1662.95
852.87	1617.90
853.04	1767.40
853.21	1705.96
853.38	1734.63
853.55	1726.44
853.72	1740.77
853.89	1701.86
854.05	1660.90
854.22	1679.33
854.39	1667.05
854.56	1703.91
854.73	1814.50
854.90	1656.81
855.07	1699.81
855.23	1662.95
855.40	1705.96
855.57	1691.62
855.74	1626.09
855.91	1894.37
856.08	1624.04
856.25	1689.57
856.41	1660.90
856.58	1687.53
856.75	1687.53
856.92	1660.90
857.09	1808.36
857.26	1595.37
857.42	1650.66
857.59	1804.26
857.76	1724.39
857.93	1755.11
858.10	1736.68
858.27	1640.42
858.43	1644.52
858.60	1724.39
858.77	1628.14
858.94	1636.33
859.11	1748.97
859.27	1710.05
859.44	1640.42
859.61	1820.64
859.78	1724.39
859.95	1683.43
860.12	1634.28
860.28	1877.99
860.45	1798.12
860.62	1640.42
860.79	1755.11
860.95	1634.28
861.12	1650.66
861.29	1699.81
861.46	1642.47
861.63	1642.47
861.79	1757.16
861.96	1665.00
862.13	1724.39
862.30	1742.82
862.47	1724.39
862.63	1570.79
862.80	1763.30
862.97	1746.92
863.14	1748.97
863.30	1804.26
863.47	1654.76
863.64	1800.16
863.81	1636.33
863.97	1761.25
864.14	1662.95
864.31	1732.58
864.48	1638.38
864.65	1667.05
864.81	1755.11
864.98	1626.09
865.15	1789.92
865.32	1703.91
865.48	1744.87
865.65	1822.69
865.82	1671.14
865.98	1689.57
866.15	1763.30
866.32	1701.86
866.49	1705.96
866.65	1746.92
866.82	1634.28
866.99	1724.39
867.16	1724.39
867.32	1611.75
867.49	1660.90
867.66	1687.53
867.83	1617.90
867.99	1685.48
868.16	1591.27
868.33	1665.00
868.49	1746.92
868.66	1687.53
868.83	1861.60
868.99	1751.01
869.16	1732.58
869.33	1728.49
869.50	1734.63
869.66	1632.23
869.83	1632.23
870.00	1624.04
870.16	1738.73
870.33	1703.91
870.50	1740.77
870.66	1691.62
870.83	1771.49
871.00	1744.87
871.17	1656.81
871.33	1748.97
871.50	1646.57
871.67	1677.29
871.83	1601.51
872.00	1763.30
872.17	1699.81
872.33	1742.82
872.50	1771.49
872.67	1660.90
872.83	1665.00
873.00	1751.01
873.17	1720.29
873.33	1785.83
873.50	1796.07
873.67	1687.53
873.83	1624.04
874.00	1675.24
874.16	1742.82
874.33	1718.25
874.50	1699.81
874.66	1667.05
874.83	1765.35
875.00	1744.87
875.16	1804.26
875.33	1755.11
875.50	1548.26
875.66	1648.61
875.83	1701.86
875.99	1753.06
876.16	1667.05
876.33	1636.33
876.49	1658.85
876.66	1748.97
876.83	1742.82
876.99	1595.37
877.16	1732.58
877.32	1685.48
877.49	1642.47
877.66	1701.86
877.82	1685.48
877.99	1726.44
878.15	1730.53
878.32	1669.09
878.49	1742.82
878.65	1783.78
878.82	1796.07
878.98	1708.01
879.15	1759.21
879.32	1798.12
879.48	1693.67
879.65	1734.63
879.81	1615.85
879.98	1705.96
880.15	1656.81
880.31	1759.21
880.48	1720.29
880.64	1665.00
880.81	1683.43
880.97	1771.49
881.14	1726.44
881.31	1628.14
881.47	1839.08
881.64	1671.14
881.80	1619.94
881.97	1679.33
882.13	1765.35
882.30	1605.61
882.47	1710.05
882.63	1626.09
882.80	1658.85
882.96	1673.19
883.13	1773.54
883.29	1693.67
883.46	1800.16
883.62	1834.98
883.79	1777.64
883.95	1763.30
884.12	1687.53
884.29	1734.63
884.45	1708.01
884.62	1703.91
884.78	1634.28
884.95	1699.81
885.11	1652.71
885.28	1656.81
885.44	1732.58
885.61	1673.19
885.77	1796.07
885.94	1705.96
886.10	1732.58
886.27	1710.05
886.43	1748.97
886.60	1734.63
886.76	1683.43
886.93	1689.57
887.09	1755.11
887.26	1724.39
887.42	1753.06
887.59	1744.87
887.75	1796.07
887.92	1830.88
888.08	1779.68
888.25	1800.16
888.41	1742.82
888.58	1638.38
888.74	1665.00
888.91	1662.95
>>>>>End Processed Spectral Data<<<<<
