SpectraSuite Data File
++++++++++++++++++++++++++++++++++++
Date: Wed May 04 18:44:51 CEST 2016
User: root
Dark Spectrum Present: No
Reference Spectrum Present: No
Number of Sampled Component Spectra: 1
Spectrometers: USB4C02835
Integration Time (usec): 100000 (USB4C02835)
Spectra Averaged: 1 (USB4C02835)
Boxcar Smoothing: 0 (USB4C02835)
Correct for Electrical Dark: No (USB4C02835)
Strobe/Lamp Enabled: No (USB4C02835)
Correct for Detector Non-linearity: No (USB4C02835)
Correct for Stray Light: No (USB4C02835)
Number of Pixels in Processed Spectrum: 3648
>>>>>Begin Processed Spectral Data<<<<<
177.47	1437.67
177.69	1437.67
177.91	1437.67
178.13	1437.67
178.36	1462.25
178.58	1724.39
178.80	1753.06
179.02	1679.33
179.24	1689.57
179.46	1656.81
179.68	1742.82
179.90	1695.72
180.13	1732.58
180.35	1683.43
180.57	1675.24
180.79	1791.97
181.01	1693.67
181.23	1777.64
181.45	1744.87
181.67	1761.25
181.90	1681.38
182.12	1671.14
182.34	1613.80
182.56	1656.81
182.78	1681.38
183.00	1695.72
183.22	1695.72
183.44	1617.90
183.66	1789.92
183.89	1820.64
184.11	1710.05
184.33	1687.53
184.55	1734.63
184.77	1683.43
184.99	1697.77
185.21	1642.47
185.43	1880.04
185.65	1607.66
185.87	1722.34
186.10	1849.32
186.32	1845.22
186.54	1685.48
186.76	1767.40
186.98	1779.68
187.20	1697.77
187.42	1687.53
187.64	1720.29
187.86	1665.00
188.08	1804.26
188.30	1765.35
188.52	1757.16
188.75	1794.02
188.97	1716.20
189.19	1636.33
189.41	1759.21
189.63	1755.11
189.85	1656.81
190.07	1581.03
190.29	1748.97
190.51	1757.16
190.73	1650.66
190.95	1808.36
191.17	1716.20
191.39	1640.42
191.61	1738.73
191.84	1671.14
192.06	1693.67
192.28	1556.46
192.50	1869.80
192.72	1677.29
192.94	1685.48
193.16	1787.88
193.38	1712.10
193.60	1683.43
193.82	1660.90
194.04	1796.07
194.26	1712.10
194.48	1730.53
194.70	1671.14
194.92	1765.35
195.14	1757.16
195.36	1697.77
195.58	1685.48
195.80	1644.52
196.02	1640.42
196.24	1728.49
196.46	1796.07
196.69	1726.44
196.91	1916.90
197.13	1662.95
197.35	1691.62
197.57	1771.49
197.79	1693.67
198.01	1701.86
198.23	1753.06
198.45	1744.87
198.67	1630.18
198.89	1687.53
199.11	1673.19
199.33	1705.96
199.55	1583.08
199.77	1677.29
199.99	1796.07
200.21	1738.73
200.43	1771.49
200.65	1656.81
200.87	1648.61
201.09	1718.25
201.31	1724.39
201.53	1677.29
201.75	1751.01
201.97	1763.30
202.19	1705.96
202.41	1673.19
202.63	1789.92
202.85	1718.25
203.07	1746.92
203.29	1720.29
203.51	1669.09
203.73	1617.90
203.95	1966.05
204.17	1689.57
204.39	1738.73
204.61	1683.43
204.83	1708.01
205.05	1656.81
205.27	1712.10
205.49	1845.22
205.71	1638.38
205.93	1585.13
206.15	1669.09
206.37	1693.67
206.59	1718.25
206.81	1638.38
207.03	1603.56
207.25	1640.42
207.47	1796.07
207.69	1654.76
207.91	1779.68
208.13	1796.07
208.34	1703.91
208.56	1677.29
208.78	1669.09
209.00	1748.97
209.22	1699.81
209.44	1679.33
209.66	1654.76
209.88	1728.49
210.10	1691.62
210.32	1665.00
210.54	1732.58
210.76	1691.62
210.98	1765.35
211.20	1591.27
211.42	1742.82
211.64	1806.31
211.86	1755.11
212.08	1761.25
212.30	1691.62
212.52	1732.58
212.74	1775.59
212.96	1710.05
213.17	1732.58
213.39	1753.06
213.61	1738.73
213.83	1748.97
214.05	1632.23
214.27	1832.93
214.49	1677.29
214.71	1654.76
214.93	1800.16
215.15	1738.73
215.37	1701.86
215.59	1656.81
215.81	1693.67
216.03	1755.11
216.24	1691.62
216.46	1681.38
216.68	1681.38
216.90	1730.53
217.12	1718.25
217.34	1710.05
217.56	1701.86
217.78	1816.55
218.00	1710.05
218.22	1755.11
218.44	1724.39
218.66	1638.38
218.87	1812.45
219.09	1628.14
219.31	1744.87
219.53	1724.39
219.75	1689.57
219.97	1714.15
220.19	1660.90
220.41	1650.66
220.63	1779.68
220.85	1746.92
221.06	1624.04
221.28	1830.88
221.50	1740.77
221.72	1718.25
221.94	1734.63
222.16	1777.64
222.38	1771.49
222.60	1787.88
222.82	1746.92
223.03	1781.73
223.25	1611.75
223.47	1738.73
223.69	1826.79
223.91	1724.39
224.13	1712.10
224.35	1716.20
224.57	1708.01
224.78	1753.06
225.00	1677.29
225.22	1667.05
225.44	1703.91
225.66	1744.87
225.88	1642.47
226.10	1740.77
226.32	1728.49
226.53	1779.68
226.75	1654.76
226.97	1703.91
227.19	1710.05
227.41	1718.25
227.63	1742.82
227.85	1609.70
228.06	1728.49
228.28	1665.00
228.50	1814.50
228.72	1673.19
228.94	1699.81
229.16	1599.46
229.37	1615.85
229.59	1689.57
229.81	1796.07
230.03	1742.82
230.25	1679.33
230.47	1630.18
230.69	1630.18
230.90	1814.50
231.12	1644.52
231.34	1689.57
231.56	1763.30
231.78	1697.77
232.00	1683.43
232.21	1753.06
232.43	1689.57
232.65	1650.66
232.87	1699.81
233.09	1628.14
233.30	1574.89
233.52	1892.32
233.74	1687.53
233.96	1660.90
234.18	1753.06
234.40	1701.86
234.61	1828.84
234.83	1720.29
235.05	1638.38
235.27	1853.41
235.49	1703.91
235.70	1716.20
235.92	1765.35
236.14	1734.63
236.36	1828.84
236.58	1632.23
236.79	1716.20
237.01	1615.85
237.23	1671.14
237.45	1875.94
237.67	1648.61
237.88	1681.38
238.10	1755.11
238.32	1642.47
238.54	1665.00
238.76	1689.57
238.97	1673.19
239.19	1728.49
239.41	1705.96
239.63	1746.92
239.85	1656.81
240.06	1722.34
240.28	1642.47
240.50	1740.77
240.72	1757.16
240.93	1714.15
241.15	1796.07
241.37	1689.57
241.59	1812.45
241.81	1722.34
242.02	1665.00
242.24	1746.92
242.46	1783.78
242.68	1779.68
242.89	1726.44
243.11	1777.64
243.33	1718.25
243.55	1703.91
243.76	1724.39
243.98	1632.23
244.20	1671.14
244.42	1738.73
244.64	1761.25
244.85	1636.33
245.07	1636.33
245.29	1724.39
245.51	1691.62
245.72	1687.53
245.94	1787.88
246.16	1689.57
246.38	1740.77
246.59	1671.14
246.81	1607.66
247.03	1697.77
247.24	1601.51
247.46	1658.85
247.68	1740.77
247.90	1671.14
248.11	1685.48
248.33	1757.16
248.55	1644.52
248.77	1669.09
248.98	1718.25
249.20	1847.27
249.42	1714.15
249.64	1712.10
249.85	1746.92
250.07	1718.25
250.29	1734.63
250.50	1734.63
250.72	1671.14
250.94	1785.83
251.16	1863.65
251.37	1761.25
251.59	1771.49
251.81	1722.34
252.02	1746.92
252.24	1613.80
252.46	1763.30
252.68	1681.38
252.89	1642.47
253.11	1599.46
253.33	1753.06
253.54	1796.07
253.76	1617.90
253.98	1646.57
254.20	1740.77
254.41	1562.60
254.63	1738.73
254.85	1730.53
255.06	1785.83
255.28	1685.48
255.50	1722.34
255.71	1595.37
255.93	1689.57
256.15	1726.44
256.36	1777.64
256.58	1722.34
256.80	1789.92
257.02	1701.86
257.23	1675.24
257.45	1718.25
257.67	1708.01
257.88	1638.38
258.10	1742.82
258.32	1652.71
258.53	1689.57
258.75	1759.21
258.97	1665.00
259.18	1662.95
259.40	1722.34
259.62	1783.78
259.83	1703.91
260.05	1751.01
260.27	2033.63
260.48	1759.21
260.70	1656.81
260.92	1677.29
261.13	1689.57
261.35	1720.29
261.57	1753.06
261.78	1568.74
262.00	1630.18
262.22	1732.58
262.43	1703.91
262.65	1705.96
262.86	1693.67
263.08	1740.77
263.30	1746.92
263.51	1642.47
263.73	1691.62
263.95	1740.77
264.16	1705.96
264.38	1708.01
264.60	1712.10
264.81	1632.23
265.03	1763.30
265.25	1738.73
265.46	1722.34
265.68	1726.44
265.89	1763.30
266.11	1630.18
266.33	1710.05
266.54	1781.73
266.76	1726.44
266.98	1773.54
267.19	1832.93
267.41	1710.05
267.62	1763.30
267.84	1597.42
268.06	1775.59
268.27	1751.01
268.49	1714.15
268.70	1787.88
268.92	1720.29
269.14	1632.23
269.35	1724.39
269.57	1662.95
269.79	1691.62
270.00	1699.81
270.22	1783.78
270.43	1685.48
270.65	1615.85
270.87	1724.39
271.08	1658.85
271.30	1826.79
271.51	1746.92
271.73	1697.77
271.95	1834.98
272.16	1726.44
272.38	1675.24
272.59	1730.53
272.81	1761.25
273.02	1757.16
273.24	1722.34
273.46	1806.31
273.67	1632.23
273.89	1669.09
274.10	1662.95
274.32	1718.25
274.54	1714.15
274.75	1681.38
274.97	1734.63
275.18	1777.64
275.40	1708.01
275.61	1771.49
275.83	1787.88
276.05	1613.80
276.26	1712.10
276.48	1720.29
276.69	1683.43
276.91	1714.15
277.12	1789.92
277.34	1751.01
277.55	1767.40
277.77	1708.01
277.99	1632.23
278.20	1681.38
278.42	1624.04
278.63	1671.14
278.85	1607.66
279.06	1644.52
279.28	1789.92
279.49	1710.05
279.71	1722.34
279.93	1777.64
280.14	1683.43
280.36	1687.53
280.57	1759.21
280.79	1656.81
281.00	1671.14
281.22	1724.39
281.43	1757.16
281.65	1578.98
281.86	1630.18
282.08	1712.10
282.29	1853.41
282.51	1656.81
282.73	1615.85
282.94	1609.70
283.16	1757.16
283.37	1890.28
283.59	1751.01
283.80	1738.73
284.02	1689.57
284.23	1732.58
284.45	1730.53
284.66	1654.76
284.88	1624.04
285.09	1820.64
285.31	1791.97
285.52	1730.53
285.74	1574.89
285.95	1830.88
286.17	1701.86
286.38	1730.53
286.60	1566.70
286.81	1710.05
287.03	1685.48
287.24	1667.05
287.46	1720.29
287.67	1671.14
287.89	1859.56
288.10	1734.63
288.32	1689.57
288.53	1826.79
288.75	1716.20
288.96	1681.38
289.18	1689.57
289.39	1695.72
289.61	1669.09
289.82	1804.26
290.04	1796.07
290.25	1665.00
290.47	1679.33
290.68	1642.47
290.90	1814.50
291.11	1681.38
291.33	1730.53
291.54	1652.71
291.76	1636.33
291.97	1605.61
292.18	1775.59
292.40	1642.47
292.61	1705.96
292.83	1841.12
293.04	1703.91
293.26	1720.29
293.47	1665.00
293.69	1632.23
293.90	1705.96
294.12	1771.49
294.33	1730.53
294.55	1673.19
294.76	1771.49
294.97	1710.05
295.19	1871.84
295.40	1687.53
295.62	1705.96
295.83	1757.16
296.05	1619.94
296.26	1769.44
296.48	1677.29
296.69	1662.95
296.90	1648.61
297.12	1712.10
297.33	1687.53
297.55	1660.90
297.76	1675.24
297.98	1734.63
298.19	1693.67
298.41	1724.39
298.62	1638.38
298.83	1810.40
299.05	1699.81
299.26	1720.29
299.48	1675.24
299.69	1740.77
299.90	1714.15
300.12	1714.15
300.33	1783.78
300.55	1691.62
300.76	1665.00
300.98	1609.70
301.19	1734.63
301.40	1775.59
301.62	1714.15
301.83	1740.77
302.05	1673.19
302.26	1683.43
302.47	1681.38
302.69	1677.29
302.90	1785.83
303.12	1638.38
303.33	1853.41
303.54	1742.82
303.76	1689.57
303.97	1763.30
304.19	1841.12
304.40	1634.28
304.61	1705.96
304.83	1875.94
305.04	1746.92
305.26	1810.40
305.47	1660.90
305.68	1757.16
305.90	1648.61
306.11	1826.79
306.33	1724.39
306.54	1585.13
306.75	1705.96
306.97	1601.51
307.18	1642.47
307.39	1630.18
307.61	1705.96
307.82	1763.30
308.04	1689.57
308.25	1673.19
308.46	1673.19
308.68	1773.54
308.89	1716.20
309.10	1777.64
309.32	1771.49
309.53	1662.95
309.74	1759.21
309.96	1703.91
310.17	1832.93
310.39	1722.34
310.60	1746.92
310.81	1738.73
311.03	1703.91
311.24	1802.21
311.45	1708.01
311.67	1757.16
311.88	1732.58
312.09	1648.61
312.31	1767.40
312.52	1685.48
312.73	1751.01
312.95	1677.29
313.16	1671.14
313.37	1781.73
313.59	1798.12
313.80	1685.48
314.01	1841.12
314.23	1673.19
314.44	1708.01
314.65	1566.70
314.87	1718.25
315.08	1689.57
315.29	1648.61
315.51	1654.76
315.72	1652.71
315.93	1837.03
316.15	1863.65
316.36	1677.29
316.57	1699.81
316.79	1681.38
317.00	1689.57
317.21	1701.86
317.43	1691.62
317.64	1744.87
317.85	1683.43
318.07	1648.61
318.28	1814.50
318.49	1865.70
318.70	1988.58
318.92	1892.32
319.13	1812.45
319.34	1902.56
319.56	1871.84
319.77	1877.99
319.98	1810.40
320.20	1882.08
320.41	1783.78
320.62	1722.34
320.83	1728.49
321.05	1761.25
321.26	1757.16
321.47	1718.25
321.69	1814.50
321.90	1642.47
322.11	1695.72
322.32	1736.68
322.54	1740.77
322.75	1624.04
322.96	1873.89
323.18	1564.65
323.39	1691.62
323.60	1675.24
323.81	1759.21
324.03	1640.42
324.24	1718.25
324.45	1685.48
324.66	1732.58
324.88	1746.92
325.09	1865.70
325.30	1675.24
325.52	1724.39
325.73	1730.53
325.94	1662.95
326.15	1605.61
326.37	1675.24
326.58	1722.34
326.79	1751.01
327.00	1642.47
327.22	1757.16
327.43	1697.77
327.64	1644.52
327.85	1744.87
328.07	1570.79
328.28	1765.35
328.49	1646.57
328.70	1716.20
328.92	1630.18
329.13	1687.53
329.34	1740.77
329.55	1771.49
329.76	1849.32
329.98	1732.58
330.19	1820.64
330.40	1775.59
330.61	1705.96
330.83	1830.88
331.04	1644.52
331.25	1783.78
331.46	1693.67
331.68	1595.37
331.89	1783.78
332.10	1701.86
332.31	1658.85
332.52	1730.53
332.74	1763.30
332.95	1669.09
333.16	1646.57
333.37	1710.05
333.58	1665.00
333.80	1732.58
334.01	1642.47
334.22	1695.72
334.43	1619.94
334.64	1744.87
334.86	1693.67
335.07	1699.81
335.28	1845.22
335.49	1630.18
335.70	1759.21
335.92	1755.11
336.13	1761.25
336.34	1697.77
336.55	1720.29
336.76	1699.81
336.98	1673.19
337.19	1685.48
337.40	1779.68
337.61	1751.01
337.82	1693.67
338.04	1753.06
338.25	1585.13
338.46	1691.62
338.67	1716.20
338.88	1652.71
339.09	1617.90
339.31	1767.40
339.52	1714.15
339.73	1703.91
339.94	1701.86
340.15	1697.77
340.36	1722.34
340.58	1761.25
340.79	1742.82
341.00	1720.29
341.21	1626.09
341.42	1853.41
341.63	1703.91
341.85	1736.68
342.06	1724.39
342.27	1628.14
342.48	1755.11
342.69	1595.37
342.90	1669.09
343.12	1775.59
343.33	1703.91
343.54	1710.05
343.75	1720.29
343.96	1691.62
344.17	1662.95
344.38	1708.01
344.60	1693.67
344.81	1683.43
345.02	1693.67
345.23	1757.16
345.44	1794.02
345.65	1779.68
345.86	1732.58
346.07	1759.21
346.29	1689.57
346.50	1714.15
346.71	1730.53
346.92	1763.30
347.13	1877.99
347.34	1642.47
347.55	1665.00
347.76	1777.64
347.98	1644.52
348.19	1767.40
348.40	1834.98
348.61	1701.86
348.82	1794.02
349.03	1742.82
349.24	1636.33
349.45	1853.41
349.66	1599.46
349.88	1730.53
350.09	1689.57
350.30	1755.11
350.51	1761.25
350.72	1712.10
350.93	1660.90
351.14	1675.24
351.35	1775.59
351.56	1720.29
351.77	1716.20
351.99	1746.92
352.20	1777.64
352.41	1732.58
352.62	1660.90
352.83	1767.40
353.04	1679.33
353.25	1644.52
353.46	1789.92
353.67	1740.77
353.88	1601.51
354.09	1695.72
354.30	1732.58
354.52	1720.29
354.73	1693.67
354.94	1652.71
355.15	1718.25
355.36	1755.11
355.57	1763.30
355.78	1642.47
355.99	1722.34
356.20	1738.73
356.41	1808.36
356.62	1671.14
356.83	1740.77
357.04	1818.60
357.25	1591.27
357.46	1691.62
357.68	1650.66
357.89	1687.53
358.10	1630.18
358.31	1724.39
358.52	1689.57
358.73	1634.28
358.94	1673.19
359.15	1658.85
359.36	1697.77
359.57	1734.63
359.78	1675.24
359.99	1746.92
360.20	1730.53
360.41	1636.33
360.62	1798.12
360.83	1781.73
361.04	1722.34
361.25	1681.38
361.46	1865.70
361.67	1722.34
361.88	1845.22
362.09	1798.12
362.30	1771.49
362.51	1654.76
362.72	1755.11
362.93	1742.82
363.14	1748.97
363.35	1740.77
363.56	1667.05
363.78	1693.67
363.99	1796.07
364.20	1634.28
364.41	1656.81
364.62	1804.26
364.83	1775.59
365.04	1697.77
365.25	1703.91
365.46	1859.56
365.67	1665.00
365.88	1710.05
366.09	1667.05
366.30	1718.25
366.51	1726.44
366.72	1632.23
366.93	1740.77
367.14	1695.72
367.35	1869.80
367.56	1759.21
367.77	1781.73
367.98	1669.09
368.18	1787.88
368.39	1736.68
368.60	1712.10
368.81	1755.11
369.02	1718.25
369.23	1665.00
369.44	1585.13
369.65	1695.72
369.86	1763.30
370.07	1781.73
370.28	1716.20
370.49	1718.25
370.70	1804.26
370.91	1619.94
371.12	1626.09
371.33	1802.21
371.54	1656.81
371.75	1781.73
371.96	1656.81
372.17	1757.16
372.38	1734.63
372.59	1734.63
372.80	1728.49
373.01	1691.62
373.22	1748.97
373.43	1744.87
373.64	1628.14
373.85	1806.31
374.06	1884.13
374.26	1697.77
374.47	1746.92
374.68	1789.92
374.89	1705.96
375.10	1626.09
375.31	1806.31
375.52	1722.34
375.73	1648.61
375.94	1654.76
376.15	1898.47
376.36	1650.66
376.57	1689.57
376.78	1691.62
376.99	1728.49
377.20	1787.88
377.40	1746.92
377.61	1808.36
377.82	1681.38
378.03	1753.06
378.24	1677.29
378.45	1609.70
378.66	1726.44
378.87	1640.42
379.08	1652.71
379.29	1652.71
379.50	1783.78
379.71	1728.49
379.91	1624.04
380.12	1734.63
380.33	1701.86
380.54	1779.68
380.75	1740.77
380.96	1763.30
381.17	1826.79
381.38	1751.01
381.59	1748.97
381.80	1857.51
382.00	1875.94
382.21	1804.26
382.42	1837.03
382.63	1877.99
382.84	1736.68
383.05	1763.30
383.26	1826.79
383.47	1755.11
383.68	1814.50
383.88	1783.78
384.09	1714.15
384.30	1814.50
384.51	1753.06
384.72	1710.05
384.93	1675.24
385.14	1673.19
385.35	1787.88
385.55	1626.09
385.76	1849.32
385.97	1708.01
386.18	1665.00
386.39	1708.01
386.60	1679.33
386.81	1712.10
387.02	1748.97
387.22	1677.29
387.43	1810.40
387.64	1802.21
387.85	1945.57
388.06	2283.49
388.27	4626.36
388.48	9168.76
388.68	11628.37
388.89	13428.53
389.10	14153.51
389.31	11890.51
389.52	9647.98
389.73	8466.30
389.93	7739.27
390.14	7210.90
390.35	6549.40
390.56	5963.68
390.77	4868.02
390.98	3846.09
391.18	3033.04
391.39	2385.88
391.60	1994.72
391.81	1826.79
392.02	1705.96
392.23	1886.18
392.43	1787.88
392.64	1800.16
392.85	1738.73
393.06	1853.41
393.27	1763.30
393.47	1755.11
393.68	1722.34
393.89	1658.85
394.10	1832.93
394.31	1630.18
394.52	1607.66
394.72	1638.38
394.93	1806.31
395.14	1626.09
395.35	1763.30
395.56	1716.20
395.76	1736.68
395.97	1748.97
396.18	1849.32
396.39	1900.52
396.60	2103.26
396.80	1996.77
397.01	1902.56
397.22	1871.84
397.43	1804.26
397.64	1683.43
397.84	1759.21
398.05	1906.66
398.26	1757.16
398.47	1802.21
398.67	1830.88
398.88	1726.44
399.09	1689.57
399.30	1656.81
399.51	1728.49
399.71	1720.29
399.92	1738.73
400.13	1722.34
400.34	1726.44
400.54	1720.29
400.75	1783.78
400.96	1796.07
401.17	1779.68
401.37	1820.64
401.58	1742.82
401.79	1697.77
402.00	1810.40
402.21	2084.83
402.41	2111.46
402.62	2115.55
402.83	2185.18
403.04	2054.11
403.24	2183.13
403.45	1875.94
403.66	1966.05
403.87	1912.80
404.07	1980.39
404.28	1949.67
404.49	1964.00
404.70	1841.12
404.90	1771.49
405.11	1832.93
405.32	1738.73
405.52	1677.29
405.73	1656.81
405.94	1703.91
406.15	1751.01
406.35	1791.97
406.56	1732.58
406.77	1779.68
406.98	1708.01
407.18	1665.00
407.39	1798.12
407.60	1597.42
407.80	1773.54
408.01	1673.19
408.22	1699.81
408.43	1644.52
408.63	1726.44
408.84	1763.30
409.05	1771.49
409.25	1689.57
409.46	1646.57
409.67	1683.43
409.88	1701.86
410.08	1615.85
410.29	1718.25
410.50	1761.25
410.70	1757.16
410.91	1656.81
411.12	1796.07
411.32	1718.25
411.53	1710.05
411.74	1779.68
411.95	1771.49
412.15	1841.12
412.36	1753.06
412.57	1880.04
412.77	1849.32
412.98	1802.21
413.19	1734.63
413.39	1755.11
413.60	1771.49
413.81	1832.93
414.01	1738.73
414.22	1826.79
414.43	1734.63
414.63	1744.87
414.84	1810.40
415.05	1759.21
415.25	1665.00
415.46	1716.20
415.67	1740.77
415.87	1716.20
416.08	1769.44
416.29	1701.86
416.49	1826.79
416.70	1732.58
416.91	1665.00
417.11	1646.57
417.32	1787.88
417.53	1763.30
417.73	1705.96
417.94	1673.19
418.15	1634.28
418.35	1701.86
418.56	1742.82
418.77	1849.32
418.97	1708.01
419.18	1710.05
419.38	1609.70
419.59	1673.19
419.80	1816.55
420.00	1714.15
420.21	1781.73
420.42	1716.20
420.62	1695.72
420.83	1650.66
421.04	1708.01
421.24	1669.09
421.45	1710.05
421.65	1724.39
421.86	1708.01
422.07	1722.34
422.27	1755.11
422.48	1771.49
422.69	1691.62
422.89	1763.30
423.10	1658.85
423.30	1597.42
423.51	1796.07
423.72	1802.21
423.92	1804.26
424.13	1708.01
424.33	1634.28
424.54	1765.35
424.75	1740.77
424.95	1812.45
425.16	1712.10
425.36	1738.73
425.57	1761.25
425.78	1765.35
425.98	1701.86
426.19	1693.67
426.39	1560.55
426.60	1777.64
426.81	1771.49
427.01	1718.25
427.22	1624.04
427.42	1662.95
427.63	1648.61
427.83	1728.49
428.04	1814.50
428.25	1861.60
428.45	1839.08
428.66	1695.72
428.86	1673.19
429.07	1734.63
429.28	1726.44
429.48	1683.43
429.69	1626.09
429.89	1722.34
430.10	1656.81
430.30	1832.93
430.51	1773.54
430.71	1722.34
430.92	1755.11
431.13	1681.38
431.33	1818.60
431.54	1738.73
431.74	1781.73
431.95	1847.27
432.15	1671.14
432.36	1695.72
432.56	1834.98
432.77	1847.27
432.98	1830.88
433.18	1615.85
433.39	1705.96
433.59	1658.85
433.80	1894.37
434.00	1839.08
434.21	1667.05
434.41	1665.00
434.62	1873.89
434.82	1640.42
435.03	1732.58
435.23	1728.49
435.44	1572.84
435.64	1718.25
435.85	1677.29
436.06	1710.05
436.26	1761.25
436.47	1660.90
436.67	1701.86
436.88	1732.58
437.08	1736.68
437.29	1822.69
437.49	1730.53
437.70	1796.07
437.90	1722.34
438.11	1826.79
438.31	1794.02
438.52	1859.56
438.72	1857.51
438.93	1933.28
439.13	1867.75
439.34	1832.93
439.54	1753.06
439.75	1861.60
439.95	1810.40
440.16	1781.73
440.36	1738.73
440.57	1785.83
440.77	1781.73
440.98	1695.72
441.18	1712.10
441.39	1667.05
441.59	1648.61
441.80	1857.51
442.00	1736.68
442.21	1837.03
442.41	1665.00
442.62	1742.82
442.82	1728.49
443.02	1742.82
443.23	1718.25
443.43	1671.14
443.64	1791.97
443.84	1748.97
444.05	1744.87
444.25	1656.81
444.46	1701.86
444.66	1710.05
444.87	1783.78
445.07	1640.42
445.28	1712.10
445.48	1826.79
445.69	1800.16
445.89	1837.03
446.09	1787.88
446.30	1996.77
446.50	2617.30
446.71	4044.74
446.91	5089.20
447.12	5859.24
447.32	5930.92
447.53	5363.63
447.73	4462.52
447.93	4044.74
448.14	3698.63
448.34	3463.12
448.55	3094.48
448.75	3092.43
448.96	2963.41
449.16	2641.88
449.36	2402.27
449.57	2062.30
449.77	2009.06
449.98	1742.82
450.18	1875.94
450.39	1794.02
450.59	1779.68
450.79	1767.40
451.00	1640.42
451.20	1753.06
451.41	1724.39
451.61	1751.01
451.81	1730.53
452.02	1716.20
452.22	1744.87
452.43	1724.39
452.63	1665.00
452.84	1683.43
453.04	1753.06
453.24	1773.54
453.45	1685.48
453.65	1693.67
453.86	1783.78
454.06	1730.53
454.26	1767.40
454.47	1736.68
454.67	1806.31
454.87	1751.01
455.08	1687.53
455.28	1847.27
455.49	1740.77
455.69	1693.67
455.89	1906.66
456.10	1660.90
456.30	1638.38
456.51	1728.49
456.71	1806.31
456.91	1753.06
457.12	1742.82
457.32	1775.59
457.52	1621.99
457.73	1773.54
457.93	1779.68
458.14	1673.19
458.34	1697.77
458.54	1726.44
458.75	1722.34
458.95	1765.35
459.15	1724.39
459.36	1761.25
459.56	1763.30
459.76	1882.08
459.97	1714.15
460.17	1681.38
460.37	1800.16
460.58	1759.21
460.78	1726.44
460.99	1759.21
461.19	1734.63
461.39	1656.81
461.60	1681.38
461.80	1791.97
462.00	1626.09
462.21	1712.10
462.41	1718.25
462.61	1748.97
462.82	1615.85
463.02	1783.78
463.22	1787.88
463.43	1800.16
463.63	1695.72
463.83	1798.12
464.04	1712.10
464.24	1720.29
464.44	1722.34
464.64	1751.01
464.85	1830.88
465.05	1787.88
465.25	1796.07
465.46	1667.05
465.66	1740.77
465.86	1759.21
466.07	1705.96
466.27	1798.12
466.47	1648.61
466.68	1718.25
466.88	1845.22
467.08	1728.49
467.29	1738.73
467.49	1789.92
467.69	1714.15
467.89	1744.87
468.10	1718.25
468.30	1759.21
468.50	1789.92
468.71	1808.36
468.91	1660.90
469.11	1853.41
469.31	1748.97
469.52	1703.91
469.72	1877.99
469.92	1880.04
470.13	1765.35
470.33	1783.78
470.53	1798.12
470.73	2181.09
470.94	2543.58
471.14	2688.98
471.34	2914.26
471.54	2822.10
471.75	2512.86
471.95	2377.69
472.15	2220.00
472.36	2295.77
472.56	2060.26
472.76	2119.65
472.96	2179.04
473.17	1927.14
473.37	1951.71
473.57	1812.45
473.77	1892.32
473.98	1740.77
474.18	1695.72
474.38	1851.36
474.58	1716.20
474.79	1642.47
474.99	1742.82
475.19	1798.12
475.39	1716.20
475.60	1818.60
475.80	1718.25
476.00	1791.97
476.20	1675.24
476.41	1656.81
476.61	1861.60
476.81	1859.56
477.01	1658.85
477.21	1806.31
477.42	1855.46
477.62	1669.09
477.82	1771.49
478.02	1746.92
478.23	1669.09
478.43	1654.76
478.63	1679.33
478.83	1779.68
479.03	1789.92
479.24	1695.72
479.44	1818.60
479.64	1728.49
479.84	1648.61
480.04	1652.71
480.25	1779.68
480.45	1734.63
480.65	1714.15
480.85	1832.93
481.06	1636.33
481.26	1732.58
481.46	1744.87
481.66	1765.35
481.86	1648.61
482.06	1730.53
482.27	1660.90
482.47	1693.67
482.67	1746.92
482.87	1691.62
483.07	1775.59
483.28	1673.19
483.48	1714.15
483.68	1726.44
483.88	1689.57
484.08	1656.81
484.29	1763.30
484.49	1728.49
484.69	1667.05
484.89	1808.36
485.09	1724.39
485.29	1771.49
485.50	1800.16
485.70	1734.63
485.90	1845.22
486.10	1736.68
486.30	1744.87
486.50	1820.64
486.71	1751.01
486.91	1753.06
487.11	1767.40
487.31	1689.57
487.51	1796.07
487.71	1685.48
487.91	1697.77
488.12	1677.29
488.32	1632.23
488.52	1693.67
488.72	1656.81
488.92	1712.10
489.12	1843.17
489.32	1791.97
489.53	1783.78
489.73	1656.81
489.93	1814.50
490.13	1689.57
490.33	1699.81
490.53	1755.11
490.73	1800.16
490.94	1673.19
491.14	1773.54
491.34	1783.78
491.54	2127.84
491.74	2643.93
491.94	3192.78
492.14	3436.49
492.34	3542.99
492.54	3188.69
492.75	2713.56
492.95	2656.22
493.15	2400.22
493.35	2387.93
493.55	2252.77
493.75	2230.24
493.95	2312.16
494.15	2150.37
494.35	1978.34
494.56	1900.52
494.76	1755.11
494.96	1806.31
495.16	1837.03
495.36	1736.68
495.56	1724.39
495.76	1724.39
495.96	1669.09
496.16	1712.10
496.36	1859.56
496.56	1732.58
496.77	1765.35
496.97	1732.58
497.17	1800.16
497.37	1683.43
497.57	1746.92
497.77	1742.82
497.97	1708.01
498.17	1751.01
498.37	1689.57
498.57	1802.21
498.77	1779.68
498.97	1759.21
499.17	1849.32
499.38	1787.88
499.58	1787.88
499.78	1753.06
499.98	1832.93
500.18	1791.97
500.38	1693.67
500.58	1877.99
500.78	2471.90
500.98	4618.17
501.18	6659.99
501.38	8193.92
501.58	9039.73
501.78	8820.60
501.98	6883.22
502.18	5785.51
502.38	4995.00
502.58	4446.14
502.78	4073.41
502.98	3930.05
503.18	3878.85
503.38	3471.31
503.59	3182.54
503.79	2914.26
503.99	2607.06
504.19	2408.41
504.39	2435.03
504.59	2283.49
504.79	2295.77
504.99	2265.05
505.19	2084.83
505.39	2000.87
505.59	1970.15
505.79	1964.00
505.99	1898.47
506.19	1886.18
506.39	1857.51
506.59	1810.40
506.79	1794.02
506.99	1863.65
507.19	1818.60
507.39	1773.54
507.59	1703.91
507.79	1763.30
507.99	1746.92
508.19	1732.58
508.39	1724.39
508.59	1763.30
508.79	1857.51
508.99	1873.89
509.19	1708.01
509.39	1769.44
509.59	1748.97
509.79	1650.66
509.99	1726.44
510.19	1818.60
510.39	1816.55
510.59	1683.43
510.79	1728.49
510.99	1665.00
511.19	1757.16
511.39	1783.78
511.59	1767.40
511.79	1853.41
511.99	1681.38
512.19	1841.12
512.38	1808.36
512.58	1708.01
512.78	1742.82
512.98	1781.73
513.18	1814.50
513.38	1646.57
513.58	1720.29
513.78	1677.29
513.98	1712.10
514.18	1712.10
514.38	1687.53
514.58	1798.12
514.78	1732.58
514.98	1601.51
515.18	1648.61
515.38	1648.61
515.58	1869.80
515.78	1679.33
515.98	1755.11
516.18	1832.93
516.38	1720.29
516.57	1763.30
516.77	1744.87
516.97	1708.01
517.17	1718.25
517.37	1566.70
517.57	1771.49
517.77	1640.42
517.97	1732.58
518.17	1812.45
518.37	1699.81
518.57	1755.11
518.77	1714.15
518.97	1654.76
519.16	1828.84
519.36	1742.82
519.56	1767.40
519.76	1802.21
519.96	1689.57
520.16	1847.27
520.36	1755.11
520.56	1886.18
520.76	1746.92
520.96	1783.78
521.16	1791.97
521.35	1763.30
521.55	1847.27
521.75	1740.77
521.95	1732.58
522.15	1742.82
522.35	1728.49
522.55	1705.96
522.75	1742.82
522.95	1722.34
523.14	1720.29
523.34	1716.20
523.54	1683.43
523.74	1826.79
523.94	1771.49
524.14	1751.01
524.34	1753.06
524.54	1814.50
524.73	1642.47
524.93	1783.78
525.13	1726.44
525.33	1753.06
525.53	1837.03
525.73	1642.47
525.93	1730.53
526.13	1738.73
526.32	1746.92
526.52	1783.78
526.72	1755.11
526.92	1755.11
527.12	1710.05
527.32	1677.29
527.52	1685.48
527.71	1800.16
527.91	1796.07
528.11	1677.29
528.31	1806.31
528.51	1667.05
528.71	1787.88
528.90	1775.59
529.10	1800.16
529.30	1781.73
529.50	1593.32
529.70	1724.39
529.90	1708.01
530.09	1802.21
530.29	1701.86
530.49	1671.14
530.69	1814.50
530.89	1724.39
531.09	1765.35
531.28	1738.73
531.48	1781.73
531.68	1687.53
531.88	1787.88
532.08	1804.26
532.28	1671.14
532.47	1806.31
532.67	1789.92
532.87	1832.93
533.07	1751.01
533.27	1820.64
533.46	1724.39
533.66	1820.64
533.86	1759.21
534.06	1691.62
534.26	1828.84
534.45	1677.29
534.65	1822.69
534.85	1826.79
535.05	1697.77
535.25	1759.21
535.44	1730.53
535.64	1740.77
535.84	1695.72
536.04	1708.01
536.24	1740.77
536.43	1642.47
536.63	1824.74
536.83	1740.77
537.03	1708.01
537.22	1701.86
537.42	1640.42
537.62	1701.86
537.82	1665.00
538.02	1781.73
538.21	1806.31
538.41	1875.94
538.61	1736.68
538.81	1738.73
539.00	1816.55
539.20	1607.66
539.40	1732.58
539.60	1732.58
539.79	1765.35
539.99	1722.34
540.19	1701.86
540.39	1681.38
540.58	1779.68
540.78	1796.07
540.98	1779.68
541.18	1724.39
541.37	1777.64
541.57	1732.58
541.77	1726.44
541.97	1695.72
542.16	1624.04
542.36	1689.57
542.56	1775.59
542.76	1918.95
542.95	1759.21
543.15	1808.36
543.35	1751.01
543.54	1712.10
543.74	1703.91
543.94	1877.99
544.14	1697.77
544.33	1767.40
544.53	1691.62
544.73	1728.49
544.93	1716.20
545.12	1777.64
545.32	1777.64
545.52	1691.62
545.71	1693.67
545.91	1738.73
546.11	1722.34
546.30	1681.38
546.50	1755.11
546.70	1839.08
546.90	1691.62
547.09	1669.09
547.29	1771.49
547.49	1824.74
547.68	1818.60
547.88	1673.19
548.08	1800.16
548.27	2183.13
548.47	1712.10
548.67	1722.34
548.87	1730.53
549.06	1691.62
549.26	1759.21
549.46	1804.26
549.65	1701.86
549.85	1789.92
550.05	1820.64
550.24	1763.30
550.44	1734.63
550.64	1728.49
550.83	1746.92
551.03	1771.49
551.23	1824.74
551.42	1710.05
551.62	1708.01
551.82	1712.10
552.01	1773.54
552.21	1798.12
552.41	1753.06
552.60	1841.12
552.80	1722.34
553.00	1824.74
553.19	1738.73
553.39	1820.64
553.59	1685.48
553.78	1726.44
553.98	1789.92
554.17	1683.43
554.37	1726.44
554.57	1794.02
554.76	1695.72
554.96	1652.71
555.16	1716.20
555.35	1767.40
555.55	1767.40
555.75	1777.64
555.94	1779.68
556.14	1679.33
556.33	1810.40
556.53	1734.63
556.73	1765.35
556.92	1748.97
557.12	1806.31
557.32	1800.16
557.51	1802.21
557.71	1791.97
557.90	1812.45
558.10	1800.16
558.30	1693.67
558.49	1734.63
558.69	1718.25
558.88	1726.44
559.08	1726.44
559.28	1658.85
559.47	1710.05
559.67	1708.01
559.86	1894.37
560.06	1759.21
560.26	1767.40
560.45	1796.07
560.65	1742.82
560.84	1841.12
561.04	1683.43
561.24	1701.86
561.43	1689.57
561.63	1830.88
561.82	1640.42
562.02	1820.64
562.22	1714.15
562.41	1763.30
562.61	1734.63
562.80	1720.29
563.00	1888.23
563.19	1796.07
563.39	1730.53
563.59	1834.98
563.78	1642.47
563.98	1581.03
564.17	1650.66
564.37	1701.86
564.56	1669.09
564.76	1630.18
564.96	1855.46
565.15	1722.34
565.35	1853.41
565.54	1787.88
565.74	1765.35
565.93	1777.64
566.13	1669.09
566.32	1781.73
566.52	1771.49
566.71	1746.92
566.91	1771.49
567.11	1705.96
567.30	1705.96
567.50	1822.69
567.69	1730.53
567.89	1748.97
568.08	1683.43
568.28	1769.44
568.47	1722.34
568.67	1783.78
568.86	1714.15
569.06	1783.78
569.25	1714.15
569.45	1708.01
569.64	1609.70
569.84	1777.64
570.04	1757.16
570.23	1765.35
570.43	1812.45
570.62	1779.68
570.82	1822.69
571.01	1675.24
571.21	1667.05
571.40	1683.43
571.60	1771.49
571.79	1800.16
571.99	1757.16
572.18	1710.05
572.38	1779.68
572.57	1730.53
572.77	1751.01
572.96	1935.33
573.16	1742.82
573.35	1712.10
573.55	1789.92
573.74	1781.73
573.94	1732.58
574.13	1705.96
574.33	1841.12
574.52	1771.49
574.71	1740.77
574.91	1751.01
575.10	1648.61
575.30	1748.97
575.49	1759.21
575.69	1730.53
575.88	1832.93
576.08	1818.60
576.27	1812.45
576.47	1824.74
576.66	1834.98
576.86	1865.70
577.05	1796.07
577.25	1814.50
577.44	1865.70
577.64	1656.81
577.83	1724.39
578.02	1812.45
578.22	1775.59
578.41	1859.56
578.61	1722.34
578.80	1646.57
579.00	1771.49
579.19	1693.67
579.39	1806.31
579.58	1865.70
579.77	1791.97
579.97	1877.99
580.16	1796.07
580.36	1859.56
580.55	1839.08
580.75	1779.68
580.94	1777.64
581.13	1865.70
581.33	1812.45
581.52	1771.49
581.72	1949.67
581.91	1863.65
582.11	1769.44
582.30	1851.36
582.49	1738.73
582.69	1812.45
582.88	1832.93
583.08	1841.12
583.27	1775.59
583.47	1779.68
583.66	1753.06
583.85	1716.20
584.05	1736.68
584.24	1873.89
584.44	1806.31
584.63	1865.70
584.82	1857.51
585.02	1916.90
585.21	1865.70
585.41	1886.18
585.60	1953.76
585.79	1978.34
585.99	1908.71
586.18	1927.14
586.37	2232.29
586.57	3332.05
586.76	9844.59
586.96	27215.46
587.15	41526.66
587.34	51440.88
587.54	57797.77
587.73	55270.58
587.93	40027.55
588.12	29834.81
588.31	23512.73
588.51	20412.10
588.70	18417.38
588.89	16901.89
589.09	15283.99
589.28	13631.28
589.47	11427.67
589.67	9455.47
589.86	7358.35
590.06	5492.65
590.25	4222.91
590.44	3264.46
590.64	2660.31
590.83	2240.48
591.02	2115.55
591.22	1974.24
591.41	1904.61
591.60	1880.04
591.80	1998.82
591.99	1767.40
592.18	1753.06
592.38	1820.64
592.57	1763.30
592.76	1742.82
592.96	1751.01
593.15	1789.92
593.34	1812.45
593.54	1744.87
593.73	1785.83
593.92	1853.41
594.12	1877.99
594.31	1746.92
594.50	1933.28
594.70	1859.56
594.89	1929.19
595.08	1689.57
595.28	1808.36
595.47	2011.11
595.66	1853.41
595.86	1695.72
596.05	1798.12
596.24	1755.11
596.43	1837.03
596.63	1855.46
596.82	1826.79
597.01	1771.49
597.21	1781.73
597.40	1773.54
597.59	1798.12
597.79	1802.21
597.98	1767.40
598.17	1771.49
598.36	1804.26
598.56	1722.34
598.75	1738.73
598.94	1775.59
599.14	1822.69
599.33	1757.16
599.52	1732.58
599.71	1771.49
599.91	1781.73
600.10	1800.16
600.29	1873.89
600.48	1734.63
600.68	1785.83
600.87	1781.73
601.06	1787.88
601.26	1720.29
601.45	1691.62
601.64	1701.86
601.83	1798.12
602.03	1730.53
602.22	1689.57
602.41	1759.21
602.60	1834.98
602.80	1845.22
602.99	1751.01
603.18	1693.67
603.37	1763.30
603.57	1726.44
603.76	1804.26
603.95	1685.48
604.14	1722.34
604.34	1691.62
604.53	1705.96
604.72	1755.11
604.91	1845.22
605.10	1794.02
605.30	1734.63
605.49	1832.93
605.68	1798.12
605.87	1738.73
606.07	1685.48
606.26	1755.11
606.45	1773.54
606.64	1738.73
606.84	1761.25
607.03	1777.64
607.22	1849.32
607.41	1742.82
607.60	1787.88
607.80	1812.45
607.99	1771.49
608.18	1785.83
608.37	1734.63
608.56	1722.34
608.76	1781.73
608.95	1961.95
609.14	1802.21
609.33	1853.41
609.52	1943.52
609.72	1806.31
609.91	1810.40
610.10	1800.16
610.29	1818.60
610.48	1755.11
610.68	1802.21
610.87	1779.68
611.06	1789.92
611.25	1703.91
611.44	1867.75
611.63	1734.63
611.83	1861.60
612.02	1720.29
612.21	1800.16
612.40	1648.61
612.59	1728.49
612.79	1675.24
612.98	1689.57
613.17	1804.26
613.36	1699.81
613.55	1855.46
613.74	1798.12
613.93	1824.74
614.13	1900.52
614.32	1861.60
614.51	1894.37
614.70	1839.08
614.89	1837.03
615.08	1742.82
615.28	2086.88
615.47	1671.14
615.66	1796.07
615.85	1822.69
616.04	1937.38
616.23	1814.50
616.42	1820.64
616.62	1796.07
616.81	1781.73
617.00	1701.86
617.19	1777.64
617.38	1779.68
617.57	1718.25
617.76	1841.12
617.95	1828.84
618.15	1759.21
618.34	1892.32
618.53	1699.81
618.72	1769.44
618.91	1855.46
619.10	1787.88
619.29	1705.96
619.48	1794.02
619.68	1667.05
619.87	1687.53
620.06	1656.81
620.25	1820.64
620.44	1771.49
620.63	1712.10
620.82	1804.26
621.01	1800.16
621.20	1669.09
621.39	1781.73
621.59	1742.82
621.78	1738.73
621.97	1665.00
622.16	1783.78
622.35	1787.88
622.54	1820.64
622.73	1744.87
622.92	1609.70
623.11	1798.12
623.30	1685.48
623.49	1789.92
623.68	1691.62
623.88	1810.40
624.07	1634.28
624.26	1751.01
624.45	1718.25
624.64	1687.53
624.83	1732.58
625.02	1701.86
625.21	1665.00
625.40	1744.87
625.59	1806.31
625.78	1687.53
625.97	1865.70
626.16	1834.98
626.35	1796.07
626.54	1810.40
626.74	1951.71
626.93	1871.84
627.12	1765.35
627.31	1869.80
627.50	1744.87
627.69	1767.40
627.88	1673.19
628.07	1742.82
628.26	1701.86
628.45	1697.77
628.64	1675.24
628.83	1773.54
629.02	1714.15
629.21	1722.34
629.40	1720.29
629.59	1738.73
629.78	1779.68
629.97	1742.82
630.16	1775.59
630.35	1800.16
630.54	1783.78
630.73	1714.15
630.92	1759.21
631.11	1703.91
631.30	1816.55
631.49	1734.63
631.68	1746.92
631.87	1791.97
632.06	1695.72
632.25	1871.84
632.44	1828.84
632.63	1779.68
632.82	1826.79
633.01	1783.78
633.20	1802.21
633.39	1812.45
633.58	1769.44
633.77	1816.55
633.96	1751.01
634.15	1781.73
634.34	1804.26
634.53	1859.56
634.72	1740.77
634.91	1626.09
635.10	1755.11
635.29	1740.77
635.48	1759.21
635.67	1734.63
635.86	1693.67
636.05	1886.18
636.24	1697.77
636.43	1757.16
636.62	1771.49
636.81	1654.76
637.00	1718.25
637.19	1755.11
637.38	1738.73
637.57	1654.76
637.76	1816.55
637.95	1834.98
638.14	1820.64
638.33	1812.45
638.52	1834.98
638.71	1718.25
638.89	1746.92
639.08	1939.43
639.27	1894.37
639.46	1861.60
639.65	2160.61
639.84	2156.51
640.03	2324.44
640.22	2330.59
640.41	2443.23
640.60	2131.94
640.79	2058.21
640.98	1892.32
641.17	1951.71
641.36	1902.56
641.55	1892.32
641.74	1802.21
641.92	1822.69
642.11	1728.49
642.30	1763.30
642.49	1744.87
642.68	1789.92
642.87	1783.78
643.06	1826.79
643.25	1708.01
643.44	1748.97
643.63	1759.21
643.82	1714.15
644.00	1689.57
644.19	1783.78
644.38	1679.33
644.57	1794.02
644.76	1685.48
644.95	1697.77
645.14	1748.97
645.33	1701.86
645.52	1742.82
645.71	1679.33
645.89	1742.82
646.08	1757.16
646.27	1753.06
646.46	1832.93
646.65	1693.67
646.84	1736.68
647.03	1642.47
647.22	1822.69
647.40	1759.21
647.59	1759.21
647.78	1648.61
647.97	1701.86
648.16	1691.62
648.35	1791.97
648.54	1775.59
648.73	1685.48
648.91	1751.01
649.10	1779.68
649.29	1710.05
649.48	1765.35
649.67	1767.40
649.86	1730.53
650.05	1808.36
650.23	1845.22
650.42	1832.93
650.61	1875.94
650.80	1937.38
650.99	1976.29
651.18	1843.17
651.36	1761.25
651.55	1736.68
651.74	1816.55
651.93	1716.20
652.12	1665.00
652.31	1779.68
652.49	1730.53
652.68	1710.05
652.87	1869.80
653.06	1712.10
653.25	1824.74
653.44	1802.21
653.62	1832.93
653.81	1746.92
654.00	1773.54
654.19	1753.06
654.38	1859.56
654.56	1744.87
654.75	1753.06
654.94	1763.30
655.13	1753.06
655.32	1740.77
655.51	1771.49
655.69	1626.09
655.88	1751.01
656.07	1714.15
656.26	1724.39
656.45	1644.52
656.63	1675.24
656.82	1726.44
657.01	1816.55
657.20	1617.90
657.38	1814.50
657.57	1660.90
657.76	1599.46
657.95	1767.40
658.14	1667.05
658.32	1738.73
658.51	1685.48
658.70	1734.63
658.89	1656.81
659.08	1771.49
659.26	1855.46
659.45	1632.23
659.64	1789.92
659.83	1736.68
660.01	1968.10
660.20	1871.84
660.39	1806.31
660.58	1621.99
660.76	1816.55
660.95	1660.90
661.14	1744.87
661.33	1681.38
661.51	1701.86
661.70	1718.25
661.89	1818.60
662.08	1671.14
662.26	1667.05
662.45	1734.63
662.64	1812.45
662.83	1796.07
663.01	1685.48
663.20	1697.77
663.39	1898.47
663.58	1712.10
663.76	1685.48
663.95	1759.21
664.14	1658.85
664.32	1669.09
664.51	1710.05
664.70	1722.34
664.89	1648.61
665.07	1669.09
665.26	1652.71
665.45	1656.81
665.64	1818.60
665.82	1669.09
666.01	1806.31
666.20	1656.81
666.38	1816.55
666.57	1845.22
666.76	2291.68
666.95	4589.50
667.13	11442.00
667.32	18491.11
667.51	22159.02
667.69	24856.20
667.88	25192.06
668.07	19607.25
668.25	14167.85
668.44	11829.07
668.63	9865.07
668.81	8572.80
669.00	7649.16
669.19	6977.43
669.38	6092.71
669.56	5377.97
669.75	4550.59
669.94	3776.45
670.12	3186.64
670.31	2633.69
670.50	2379.74
670.68	2121.70
670.87	1972.19
671.06	1869.80
671.24	1830.88
671.43	1902.56
671.62	1828.84
671.80	1818.60
671.99	1781.73
672.18	1769.44
672.36	1767.40
672.55	1810.40
672.74	1751.01
672.92	1722.34
673.11	1796.07
673.29	1640.42
673.48	1845.22
673.67	1771.49
673.85	1777.64
674.04	1708.01
674.23	1804.26
674.41	1875.94
674.60	1593.32
674.79	1658.85
674.97	1746.92
675.16	1734.63
675.34	1720.29
675.53	1689.57
675.72	1806.31
675.90	1783.78
676.09	1714.15
676.28	1755.11
676.46	1681.38
676.65	1732.58
676.83	1697.77
677.02	1746.92
677.21	1779.68
677.39	1667.05
677.58	1705.96
677.77	1708.01
677.95	1640.42
678.14	1730.53
678.32	1652.71
678.51	1742.82
678.70	1791.97
678.88	1759.21
679.07	1720.29
679.25	1716.20
679.44	1714.15
679.63	1642.47
679.81	1660.90
680.00	1808.36
680.18	1847.27
680.37	1765.35
680.55	1755.11
680.74	1646.57
680.93	1581.03
681.11	1832.93
681.30	1812.45
681.48	1685.48
681.67	1708.01
681.85	1632.23
682.04	1757.16
682.23	1785.83
682.41	1738.73
682.60	1667.05
682.78	1652.71
682.97	1710.05
683.15	1751.01
683.34	1726.44
683.53	1791.97
683.71	1693.67
683.90	1796.07
684.08	1839.08
684.27	1767.40
684.45	1732.58
684.64	1816.55
684.82	1714.15
685.01	1810.40
685.19	1650.66
685.38	1863.65
685.57	1656.81
685.75	1658.85
685.94	1648.61
686.12	1697.77
686.31	1671.14
686.49	1796.07
686.68	1654.76
686.86	1783.78
687.05	1675.24
687.23	1832.93
687.42	1660.90
687.60	1548.26
687.79	1748.97
687.97	1847.27
688.16	1753.06
688.34	1855.46
688.53	1673.19
688.71	1708.01
688.90	1787.88
689.08	1722.34
689.27	1572.84
689.45	1800.16
689.64	1759.21
689.82	1855.46
690.01	1753.06
690.19	1728.49
690.38	1685.48
690.56	1855.46
690.75	1701.86
690.93	1687.53
691.12	1691.62
691.30	1685.48
691.49	1712.10
691.67	1722.34
691.86	1861.60
692.04	1755.11
692.23	1705.96
692.41	1730.53
692.60	1877.99
692.78	1771.49
692.97	1806.31
693.15	1820.64
693.34	1765.35
693.52	1734.63
693.71	1744.87
693.89	1701.86
694.08	1572.84
694.26	1794.02
694.44	1800.16
694.63	1814.50
694.81	1644.52
695.00	1648.61
695.18	1751.01
695.37	1859.56
695.55	1767.40
695.74	1785.83
695.92	1693.67
696.10	1798.12
696.29	1648.61
696.47	1757.16
696.66	1662.95
696.84	1695.72
697.03	1691.62
697.21	1787.88
697.40	2277.34
697.58	1830.88
697.76	1656.81
697.95	1726.44
698.13	1665.00
698.32	1734.63
698.50	1730.53
698.68	1701.86
698.87	1718.25
699.05	1859.56
699.24	1734.63
699.42	1615.85
699.61	1720.29
699.79	1687.53
699.97	1722.34
700.16	1607.66
700.34	1644.52
700.53	1734.63
700.71	1771.49
700.89	1746.92
701.08	1730.53
701.26	1744.87
701.45	2084.83
701.63	1714.15
701.81	1626.09
702.00	1710.05
702.18	1722.34
702.37	1783.78
702.55	1916.90
702.73	1902.56
702.92	1845.22
703.10	2021.35
703.28	2011.11
703.47	1877.99
703.65	1966.05
703.84	1839.08
704.02	1791.97
704.20	1857.51
704.39	1730.53
704.57	1806.31
704.75	1877.99
704.94	1812.45
705.12	1832.93
705.30	1884.13
705.49	2443.23
705.67	5339.05
705.86	12926.78
706.04	19019.49
706.22	22423.21
706.41	24549.00
706.59	24456.84
706.77	18878.18
706.96	13713.20
707.14	11708.24
707.32	10108.77
707.51	8826.75
707.69	7753.61
707.87	6645.66
708.06	5449.64
708.24	4392.89
708.42	3403.72
708.61	2828.24
708.79	2185.18
708.97	2070.50
709.16	1847.27
709.34	1810.40
709.52	1775.59
709.71	1783.78
709.89	1882.08
710.07	1714.15
710.26	1705.96
710.44	1779.68
710.62	1701.86
710.80	1697.77
710.99	1734.63
711.17	1781.73
711.35	1730.53
711.54	1804.26
711.72	1826.79
711.90	1742.82
712.09	1777.64
712.27	1675.24
712.45	1718.25
712.63	1673.19
712.82	1714.15
713.00	1759.21
713.18	1699.81
713.37	1740.77
713.55	1738.73
713.73	1826.79
713.91	1757.16
714.10	1675.24
714.28	1742.82
714.46	1699.81
714.65	1726.44
714.83	1740.77
715.01	1753.06
715.19	1759.21
715.38	1683.43
715.56	1703.91
715.74	1597.42
715.92	1746.92
716.11	1804.26
716.29	1644.52
716.47	1769.44
716.65	1718.25
716.84	1626.09
717.02	1728.49
717.20	1755.11
717.38	1656.81
717.57	1759.21
717.75	1724.39
717.93	1677.29
718.11	1689.57
718.30	1685.48
718.48	1697.77
718.66	1740.77
718.84	1779.68
719.03	1701.86
719.21	1685.48
719.39	1757.16
719.57	1808.36
719.75	1837.03
719.94	1652.71
720.12	1566.70
720.30	1714.15
720.48	1794.02
720.67	1712.10
720.85	1710.05
721.03	1722.34
721.21	1681.38
721.39	1755.11
721.58	1679.33
721.76	1732.58
721.94	1669.09
722.12	1687.53
722.30	1701.86
722.49	1693.67
722.67	1839.08
722.85	1787.88
723.03	1697.77
723.21	1712.10
723.40	1689.57
723.58	1755.11
723.76	1658.85
723.94	1843.17
724.12	1853.41
724.30	1894.37
724.49	1810.40
724.67	1789.92
724.85	1822.69
725.03	1773.54
725.21	1742.82
725.40	1746.92
725.58	1699.81
725.76	1828.84
725.94	1724.39
726.12	1705.96
726.30	1712.10
726.49	1693.67
726.67	1699.81
726.85	1722.34
727.03	1742.82
727.21	2283.49
727.39	3340.24
727.57	4913.08
727.76	5681.07
727.94	6133.67
728.12	6164.39
728.30	5519.28
728.48	4478.91
728.66	3938.24
728.84	3499.98
729.03	3221.45
729.21	2830.29
729.39	2422.75
729.57	2127.84
729.75	1933.28
729.93	1923.04
730.11	1814.50
730.30	1689.57
730.48	1779.68
730.66	1800.16
730.84	1779.68
731.02	1732.58
731.20	1714.15
731.38	1738.73
731.56	1730.53
731.74	1638.38
731.93	1695.72
732.11	1736.68
732.29	1632.23
732.47	1740.77
732.65	1849.32
732.83	1732.58
733.01	1742.82
733.19	1724.39
733.37	1724.39
733.56	1708.01
733.74	1673.19
733.92	1796.07
734.10	1669.09
734.28	1710.05
734.46	1626.09
734.64	1689.57
734.82	1697.77
735.00	1626.09
735.18	1771.49
735.36	1712.10
735.54	1665.00
735.73	1701.86
735.91	1710.05
736.09	1738.73
736.27	1738.73
736.45	1773.54
736.63	1593.32
736.81	1671.14
736.99	1703.91
737.17	1814.50
737.35	1665.00
737.53	1697.77
737.71	1751.01
737.89	1787.88
738.07	1689.57
738.25	1689.57
738.43	1656.81
738.61	1665.00
738.80	1644.52
738.98	1605.61
739.16	1667.05
739.34	1691.62
739.52	1843.17
739.70	1796.07
739.88	1755.11
740.06	1730.53
740.24	1566.70
740.42	1734.63
740.60	1669.09
740.78	1724.39
740.96	1679.33
741.14	1660.90
741.32	1798.12
741.50	1699.81
741.68	1824.74
741.86	1787.88
742.04	1634.28
742.22	1578.98
742.40	1710.05
742.58	1685.48
742.76	1646.57
742.94	1705.96
743.12	1687.53
743.30	1728.49
743.48	1712.10
743.66	1681.38
743.84	1701.86
744.02	1804.26
744.20	1718.25
744.38	1716.20
744.56	1685.48
744.74	1822.69
744.92	1677.29
745.10	1796.07
745.28	1730.53
745.46	1818.60
745.64	1728.49
745.82	1779.68
746.00	1736.68
746.18	1738.73
746.36	1646.57
746.54	1746.92
746.72	1714.15
746.90	1630.18
747.08	1828.84
747.26	1724.39
747.44	1812.45
747.62	1791.97
747.80	1677.29
747.98	1751.01
748.15	1656.81
748.33	1798.12
748.51	1667.05
748.69	1767.40
748.87	1636.33
749.05	1705.96
749.23	1726.44
749.41	1703.91
749.59	1683.43
749.77	1759.21
749.95	1751.01
750.13	1734.63
750.31	1720.29
750.49	1691.62
750.67	1755.11
750.85	1765.35
751.03	1724.39
751.20	1822.69
751.38	1634.28
751.56	1671.14
751.74	1673.19
751.92	1679.33
752.10	1712.10
752.28	1755.11
752.46	1652.71
752.64	1658.85
752.82	1730.53
753.00	1794.02
753.18	1675.24
753.35	1654.76
753.53	1736.68
753.71	1599.46
753.89	1734.63
754.07	1767.40
754.25	1755.11
754.43	1726.44
754.61	1619.94
754.79	1751.01
754.97	1695.72
755.14	1767.40
755.32	1660.90
755.50	1683.43
755.68	1781.73
755.86	1654.76
756.04	1658.85
756.22	1583.08
756.40	1660.90
756.57	1794.02
756.75	1753.06
756.93	1746.92
757.11	1675.24
757.29	1734.63
757.47	1615.85
757.65	1644.52
757.82	1552.36
758.00	1644.52
758.18	1712.10
758.36	1693.67
758.54	1806.31
758.72	1679.33
758.90	1761.25
759.07	1744.87
759.25	1685.48
759.43	1751.01
759.61	1716.20
759.79	2181.09
759.97	1791.97
760.15	1703.91
760.32	1685.48
760.50	1734.63
760.68	1845.22
760.86	1630.18
761.04	1779.68
761.22	1771.49
761.39	1705.96
761.57	1791.97
761.75	1763.30
761.93	1779.68
762.11	1640.42
762.28	1685.48
762.46	1673.19
762.64	1742.82
762.82	1685.48
763.00	1685.48
763.18	1779.68
763.35	1658.85
763.53	1732.58
763.71	1777.64
763.89	1691.62
764.07	1714.15
764.24	1718.25
764.42	1746.92
764.60	1699.81
764.78	1761.25
764.96	1812.45
765.13	1714.15
765.31	1701.86
765.49	1763.30
765.67	1619.94
765.84	1628.14
766.02	1693.67
766.20	1695.72
766.38	1716.20
766.56	1773.54
766.73	1701.86
766.91	1708.01
767.09	1746.92
767.27	1669.09
767.44	1632.23
767.62	1689.57
767.80	1728.49
767.98	1673.19
768.15	1757.16
768.33	1765.35
768.51	1787.88
768.69	1665.00
768.87	1755.11
769.04	1642.47
769.22	1845.22
769.40	1781.73
769.58	1853.41
769.75	1689.57
769.93	1742.82
770.11	1751.01
770.28	1611.75
770.46	1777.64
770.64	1718.25
770.82	1693.67
770.99	1681.38
771.17	1730.53
771.35	1630.18
771.53	1652.71
771.70	1648.61
771.88	1740.77
772.06	1748.97
772.23	1685.48
772.41	1777.64
772.59	1646.57
772.77	1665.00
772.94	1751.01
773.12	1660.90
773.30	1716.20
773.47	1718.25
773.65	1660.90
773.83	1810.40
774.01	1744.87
774.18	1699.81
774.36	1736.68
774.54	1624.04
774.71	1773.54
774.89	1621.99
775.07	1652.71
775.24	1603.56
775.42	1638.38
775.60	1763.30
775.78	1722.34
775.95	1734.63
776.13	1644.52
776.31	1658.85
776.48	1712.10
776.66	1763.30
776.84	1611.75
777.01	1638.38
777.19	1662.95
777.37	1710.05
777.54	1710.05
777.72	1931.23
777.90	1722.34
778.07	1681.38
778.25	1892.32
778.43	1781.73
778.60	1628.14
778.78	1771.49
778.96	1787.88
779.13	1740.77
779.31	1777.64
779.49	1724.39
779.66	1701.86
779.84	1652.71
780.01	1718.25
780.19	1646.57
780.37	1794.02
780.54	1699.81
780.72	1716.20
780.90	1628.14
781.07	1718.25
781.25	1693.67
781.43	1748.97
781.60	1611.75
781.78	1757.16
781.95	1701.86
782.13	1693.67
782.31	1675.24
782.48	1650.66
782.66	1701.86
782.83	1798.12
783.01	1765.35
783.19	1712.10
783.36	1669.09
783.54	1574.89
783.72	1867.75
783.89	1701.86
784.07	1617.90
784.24	1785.83
784.42	1724.39
784.60	1751.01
784.77	1738.73
784.95	1607.66
785.12	1593.32
785.30	1771.49
785.47	1613.80
785.65	1695.72
785.83	1695.72
786.00	1662.95
786.18	1763.30
786.35	1611.75
786.53	1648.61
786.71	1683.43
786.88	1660.90
787.06	1701.86
787.23	1748.97
787.41	1656.81
787.58	1675.24
787.76	1648.61
787.94	1740.77
788.11	1626.09
788.29	1642.47
788.46	1656.81
788.64	1648.61
788.81	1626.09
788.99	1667.05
789.16	1722.34
789.34	1693.67
789.52	1665.00
789.69	1597.42
789.87	1613.80
790.04	1687.53
790.22	1718.25
790.39	1791.97
790.57	1681.38
790.74	1613.80
790.92	1681.38
791.09	1611.75
791.27	1761.25
791.44	1746.92
791.62	1693.67
791.79	1714.15
791.97	1699.81
792.15	1882.08
792.32	1738.73
792.50	1712.10
792.67	1808.36
792.85	1820.64
793.02	1648.61
793.20	1679.33
793.37	1652.71
793.55	1724.39
793.72	1603.56
793.90	1699.81
794.07	1609.70
794.25	1683.43
794.42	1687.53
794.60	1710.05
794.77	1716.20
794.95	1738.73
795.12	1810.40
795.30	1675.24
795.47	1624.04
795.65	1951.71
795.82	1701.86
796.00	1689.57
796.17	1724.39
796.34	1658.85
796.52	1781.73
796.69	1789.92
796.87	1796.07
797.04	1685.48
797.22	1757.16
797.39	1691.62
797.57	1683.43
797.74	1753.06
797.92	1697.77
798.09	1789.92
798.27	1716.20
798.44	1634.28
798.62	1728.49
798.79	1648.61
798.96	1705.96
799.14	1667.05
799.31	1800.16
799.49	1732.58
799.66	1677.29
799.84	1751.01
800.01	1665.00
800.19	1783.78
800.36	1685.48
800.53	1759.21
800.71	1726.44
800.88	1697.77
801.06	1605.61
801.23	1687.53
801.41	1738.73
801.58	1656.81
801.75	1638.38
801.93	1783.78
802.10	1759.21
802.28	1681.38
802.45	1726.44
802.63	1806.31
802.80	1783.78
802.97	1687.53
803.15	1718.25
803.32	1691.62
803.50	1703.91
803.67	1554.41
803.84	1642.47
804.02	1751.01
804.19	1671.14
804.37	1599.46
804.54	1658.85
804.71	1665.00
804.89	1708.01
805.06	1652.71
805.24	1646.57
805.41	1574.89
805.58	1636.33
805.76	1810.40
805.93	1744.87
806.10	1730.53
806.28	1708.01
806.45	1730.53
806.63	1685.48
806.80	1742.82
806.97	1791.97
807.15	1656.81
807.32	1740.77
807.49	1708.01
807.67	1638.38
807.84	1740.77
808.01	1673.19
808.19	1828.84
808.36	1804.26
808.54	1720.29
808.71	1554.41
808.88	1656.81
809.06	1714.15
809.23	1712.10
809.40	1683.43
809.58	1740.77
809.75	1789.92
809.92	1720.29
810.10	1785.83
810.27	1685.48
810.44	1744.87
810.62	1675.24
810.79	1722.34
810.96	1656.81
811.14	1646.57
811.31	1738.73
811.48	1716.20
811.66	1806.31
811.83	1775.59
812.00	1732.58
812.18	1734.63
812.35	1816.55
812.52	1681.38
812.69	1714.15
812.87	1728.49
813.04	1724.39
813.21	1751.01
813.39	1654.76
813.56	1755.11
813.73	1730.53
813.91	1656.81
814.08	1683.43
814.25	1761.25
814.42	1632.23
814.60	1722.34
814.77	1697.77
814.94	1683.43
815.12	1730.53
815.29	1734.63
815.46	1650.66
815.63	1683.43
815.81	1693.67
815.98	1742.82
816.15	1726.44
816.33	1667.05
816.50	1695.72
816.67	1603.56
816.84	1757.16
817.02	1662.95
817.19	1681.38
817.36	1771.49
817.53	1638.38
817.71	1607.66
817.88	1748.97
818.05	1755.11
818.22	1697.77
818.40	1769.44
818.57	1638.38
818.74	1679.33
818.91	1675.24
819.09	1665.00
819.26	1753.06
819.43	1712.10
819.60	1712.10
819.78	1763.30
819.95	1779.68
820.12	1671.14
820.29	1796.07
820.47	1777.64
820.64	1628.14
820.81	1683.43
820.98	1628.14
821.15	1701.86
821.33	1681.38
821.50	1650.66
821.67	1757.16
821.84	1716.20
822.02	1746.92
822.19	1761.25
822.36	1771.49
822.53	1683.43
822.70	1656.81
822.88	1744.87
823.05	1730.53
823.22	1757.16
823.39	1767.40
823.56	1728.49
823.74	1894.37
823.91	1665.00
824.08	1595.37
824.25	1572.84
824.42	1775.59
824.60	1624.04
824.77	1722.34
824.94	1724.39
825.11	1712.10
825.28	1658.85
825.45	1751.01
825.63	1777.64
825.80	1718.25
825.97	1697.77
826.14	1685.48
826.31	1630.18
826.48	1636.33
826.66	1538.02
826.83	1718.25
827.00	1683.43
827.17	1757.16
827.34	1644.52
827.51	1626.09
827.69	1718.25
827.86	1601.51
828.03	1695.72
828.20	1738.73
828.37	1695.72
828.54	1718.25
828.71	1605.61
828.89	1759.21
829.06	1701.86
829.23	1779.68
829.40	1644.52
829.57	1617.90
829.74	1732.58
829.91	1744.87
830.09	1646.57
830.26	1759.21
830.43	1736.68
830.60	1734.63
830.77	1759.21
830.94	1851.36
831.11	1718.25
831.28	1619.94
831.46	1791.97
831.63	1718.25
831.80	1755.11
831.97	1685.48
832.14	1669.09
832.31	1685.48
832.48	1638.38
832.65	1716.20
832.82	1779.68
832.99	1738.73
833.17	1746.92
833.34	1785.83
833.51	1738.73
833.68	1642.47
833.85	1771.49
834.02	1652.71
834.19	1576.94
834.36	1699.81
834.53	1742.82
834.70	1755.11
834.87	1767.40
835.04	1640.42
835.22	1669.09
835.39	1683.43
835.56	1644.52
835.73	1654.76
835.90	1712.10
836.07	1671.14
836.24	1697.77
836.41	1605.61
836.58	1640.42
836.75	1748.97
836.92	1720.29
837.09	1718.25
837.26	1753.06
837.43	1740.77
837.60	1763.30
837.77	1697.77
837.94	1798.12
838.12	1738.73
838.29	1753.06
838.46	1585.13
838.63	1607.66
838.80	1783.78
838.97	1708.01
839.14	1673.19
839.31	1689.57
839.48	1718.25
839.65	1705.96
839.82	1771.49
839.99	1746.92
840.16	1587.18
840.33	1699.81
840.50	1724.39
840.67	1691.62
840.84	1624.04
841.01	1724.39
841.18	1650.66
841.35	1644.52
841.52	1671.14
841.69	1779.68
841.86	1765.35
842.03	1687.53
842.20	1773.54
842.37	1787.88
842.54	1753.06
842.71	1712.10
842.88	1634.28
843.05	1771.49
843.22	1636.33
843.39	1703.91
843.56	1701.86
843.73	1691.62
843.90	1753.06
844.07	1753.06
844.24	1742.82
844.41	1742.82
844.58	1642.47
844.75	1636.33
844.92	1736.68
845.09	1708.01
845.26	1673.19
845.43	1740.77
845.60	1681.38
845.77	1773.54
845.94	1638.38
846.10	1730.53
846.27	1681.38
846.44	1654.76
846.61	1644.52
846.78	1763.30
846.95	1763.30
847.12	1765.35
847.29	1681.38
847.46	1658.85
847.63	1773.54
847.80	1597.42
847.97	1648.61
848.14	1832.93
848.31	1648.61
848.48	1662.95
848.65	1677.29
848.82	1640.42
848.98	1873.89
849.15	1681.38
849.32	1708.01
849.49	1826.79
849.66	1681.38
849.83	1714.15
850.00	1650.66
850.17	1691.62
850.34	1656.81
850.51	1687.53
850.68	1621.99
850.85	1832.93
851.01	1742.82
851.18	1712.10
851.35	1710.05
851.52	1726.44
851.69	1720.29
851.86	1558.50
852.03	1648.61
852.20	1748.97
852.37	1658.85
852.53	1574.89
852.70	1656.81
852.87	1685.48
853.04	1744.87
853.21	1781.73
853.38	1742.82
853.55	1724.39
853.72	1777.64
853.89	1703.91
854.05	1658.85
854.22	1746.92
854.39	1708.01
854.56	1736.68
854.73	1808.36
854.90	1652.71
855.07	1730.53
855.23	1697.77
855.40	1650.66
855.57	1710.05
855.74	1636.33
855.91	1884.13
856.08	1611.75
856.25	1658.85
856.41	1714.15
856.58	1679.33
856.75	1824.74
856.92	1658.85
857.09	1701.86
857.26	1716.20
857.42	1652.71
857.59	1724.39
857.76	1685.48
857.93	1753.06
858.10	1779.68
858.27	1697.77
858.43	1699.81
858.60	1685.48
858.77	1619.94
858.94	1636.33
859.11	1748.97
859.27	1675.24
859.44	1728.49
859.61	1861.60
859.78	1779.68
859.95	1693.67
860.12	1667.05
860.28	1732.58
860.45	1849.32
860.62	1681.38
860.79	1679.33
860.95	1605.61
861.12	1724.39
861.29	1740.77
861.46	1703.91
861.63	1701.86
861.79	1665.00
861.96	1644.52
862.13	1619.94
862.30	1708.01
862.47	1603.56
862.63	1736.68
862.80	1742.82
862.97	1824.74
863.14	1710.05
863.30	1734.63
863.47	1667.05
863.64	1773.54
863.81	1767.40
863.97	1732.58
864.14	1665.00
864.31	1630.18
864.48	1699.81
864.65	1710.05
864.81	1800.16
864.98	1746.92
865.15	1730.53
865.32	1791.97
865.48	1800.16
865.65	1781.73
865.82	1679.33
865.98	1746.92
866.15	1759.21
866.32	1675.24
866.49	1628.14
866.65	1794.02
866.82	1667.05
866.99	1636.33
867.16	1681.38
867.32	1736.68
867.49	1718.25
867.66	1689.57
867.83	1708.01
867.99	1576.94
868.16	1732.58
868.33	1599.46
868.49	1767.40
868.66	1675.24
868.83	1751.01
868.99	1736.68
869.16	1708.01
869.33	1705.96
869.50	1804.26
869.66	1669.09
869.83	1683.43
870.00	1611.75
870.16	1726.44
870.33	1607.66
870.50	1705.96
870.66	1681.38
870.83	1785.83
871.00	1746.92
871.17	1619.94
871.33	1712.10
871.50	1665.00
871.67	1624.04
871.83	1619.94
872.00	1834.98
872.17	1648.61
872.33	1808.36
872.50	1843.17
872.67	1697.77
872.83	1703.91
873.00	1718.25
873.17	1738.73
873.33	1734.63
873.50	1722.34
873.67	1626.09
873.83	1642.47
874.00	1785.83
874.16	1736.68
874.33	1771.49
874.50	1609.70
874.66	1667.05
874.83	1689.57
875.00	1697.77
875.16	1773.54
875.33	1834.98
875.50	1597.42
875.66	1697.77
875.83	1718.25
875.99	1777.64
876.16	1687.53
876.33	1644.52
876.49	1681.38
876.66	1783.78
876.83	1763.30
876.99	1681.38
877.16	1656.81
877.32	1693.67
877.49	1724.39
877.66	1665.00
877.82	1771.49
877.99	1742.82
878.15	1740.77
878.32	1638.38
878.49	1679.33
878.65	1628.14
878.82	1742.82
878.98	1699.81
879.15	1699.81
879.32	1697.77
879.48	1665.00
879.65	1724.39
879.81	1611.75
879.98	1716.20
880.15	1777.64
880.31	1685.48
880.48	1714.15
880.64	1748.97
880.81	1716.20
880.97	1814.50
881.14	1769.44
881.31	1611.75
881.47	1798.12
881.64	1716.20
881.80	1667.05
881.97	1701.86
882.13	1800.16
882.30	1665.00
882.47	1642.47
882.63	1732.58
882.80	1619.94
882.96	1648.61
883.13	1744.87
883.29	1714.15
883.46	1697.77
883.62	1834.98
883.79	1748.97
883.95	1720.29
884.12	1685.48
884.29	1767.40
884.45	1730.53
884.62	1753.06
884.78	1675.24
884.95	1822.69
885.11	1708.01
885.28	1695.72
885.44	1689.57
885.61	1828.84
885.77	1781.73
885.94	1742.82
886.10	1671.14
886.27	1714.15
886.43	1843.17
886.60	1710.05
886.76	1617.90
886.93	1677.29
887.09	1705.96
887.26	1642.47
887.42	1671.14
887.59	1826.79
887.75	1857.51
887.92	1798.12
888.08	1738.73
888.25	1787.88
888.41	1699.81
888.58	1734.63
888.74	1660.90
888.91	1642.47
>>>>>End Processed Spectral Data<<<<<
