SpectraSuite Data File
++++++++++++++++++++++++++++++++++++
Date: Wed May 04 18:44:40 CEST 2016
User: root
Dark Spectrum Present: No
Reference Spectrum Present: No
Number of Sampled Component Spectra: 1
Spectrometers: USB4C02835
Integration Time (usec): 100000 (USB4C02835)
Spectra Averaged: 1 (USB4C02835)
Boxcar Smoothing: 0 (USB4C02835)
Correct for Electrical Dark: No (USB4C02835)
Strobe/Lamp Enabled: No (USB4C02835)
Correct for Detector Non-linearity: No (USB4C02835)
Correct for Stray Light: No (USB4C02835)
Number of Pixels in Processed Spectrum: 3648
>>>>>Begin Processed Spectral Data<<<<<
177.47	1429.48
177.69	1429.48
177.91	1429.48
178.13	1478.63
178.36	1513.45
178.58	1806.31
178.80	1761.25
179.02	1652.71
179.24	1640.42
179.46	1683.43
179.68	1800.16
179.90	1685.48
180.13	1734.63
180.35	1599.46
180.57	1722.34
180.79	1755.11
181.01	1697.77
181.23	1718.25
181.45	1730.53
181.67	1787.88
181.90	1714.15
182.12	1660.90
182.34	1636.33
182.56	1703.91
182.78	1705.96
183.00	1767.40
183.22	1705.96
183.44	1662.95
183.66	1853.41
183.89	1787.88
184.11	1681.38
184.33	1777.64
184.55	1806.31
184.77	1701.86
184.99	1767.40
185.21	1667.05
185.43	1832.93
185.65	1619.94
185.87	1665.00
186.10	1734.63
186.32	1804.26
186.54	1781.73
186.76	1755.11
186.98	1720.29
187.20	1710.05
187.42	1671.14
187.64	1701.86
187.86	1751.01
188.08	1763.30
188.30	1677.29
188.52	1705.96
188.75	1853.41
188.97	1806.31
189.19	1673.19
189.41	1697.77
189.63	1685.48
189.85	1753.06
190.07	1609.70
190.29	1591.27
190.51	1716.20
190.73	1609.70
190.95	1751.01
191.17	1697.77
191.39	1611.75
191.61	1642.47
191.84	1693.67
192.06	1757.16
192.28	1679.33
192.50	1845.22
192.72	1703.91
192.94	1726.44
193.16	1798.12
193.38	1699.81
193.60	1570.79
193.82	1673.19
194.04	1781.73
194.26	1736.68
194.48	1695.72
194.70	1705.96
194.92	1685.48
195.14	1742.82
195.36	1681.38
195.58	1677.29
195.80	1722.34
196.02	1726.44
196.24	1779.68
196.46	1791.97
196.69	1652.71
196.91	1832.93
197.13	1628.14
197.35	1605.61
197.57	1773.54
197.79	1683.43
198.01	1708.01
198.23	1691.62
198.45	1771.49
198.67	1638.38
198.89	1652.71
199.11	1689.57
199.33	1632.23
199.55	1585.13
199.77	1751.01
199.99	1826.79
200.21	1624.04
200.43	1755.11
200.65	1693.67
200.87	1644.52
201.09	1675.24
201.31	1720.29
201.53	1724.39
201.75	1736.68
201.97	1650.66
202.19	1744.87
202.41	1689.57
202.63	1834.98
202.85	1769.44
203.07	1671.14
203.29	1710.05
203.51	1650.66
203.73	1669.09
203.95	1861.60
204.17	1746.92
204.39	1714.15
204.61	1662.95
204.83	1746.92
205.05	1757.16
205.27	1705.96
205.49	1814.50
205.71	1621.99
205.93	1662.95
206.15	1667.05
206.37	1697.77
206.59	1671.14
206.81	1615.85
207.03	1648.61
207.25	1609.70
207.47	1751.01
207.69	1708.01
207.91	1824.74
208.13	1728.49
208.34	1708.01
208.56	1636.33
208.78	1763.30
209.00	1652.71
209.22	1716.20
209.44	1640.42
209.66	1722.34
209.88	1652.71
210.10	1652.71
210.32	1703.91
210.54	1787.88
210.76	1660.90
210.98	1767.40
211.20	1587.18
211.42	1693.67
211.64	1845.22
211.86	1812.45
212.08	1794.02
212.30	1730.53
212.52	1714.15
212.74	1785.83
212.96	1642.47
213.17	1738.73
213.39	1695.72
213.61	1834.98
213.83	1777.64
214.05	1730.53
214.27	1775.59
214.49	1673.19
214.71	1701.86
214.93	1783.78
215.15	1691.62
215.37	1767.40
215.59	1660.90
215.81	1828.84
216.03	1804.26
216.24	1744.87
216.46	1722.34
216.68	1746.92
216.90	1777.64
217.12	1804.26
217.34	1671.14
217.56	1693.67
217.78	1810.40
218.00	1724.39
218.22	1746.92
218.44	1683.43
218.66	1640.42
218.87	1734.63
219.09	1816.55
219.31	1720.29
219.53	1689.57
219.75	1677.29
219.97	1677.29
220.19	1734.63
220.41	1746.92
220.63	1738.73
220.85	1773.54
221.06	1679.33
221.28	1777.64
221.50	1773.54
221.72	1781.73
221.94	1730.53
222.16	1660.90
222.38	1769.44
222.60	1767.40
222.82	1677.29
223.03	1785.83
223.25	1609.70
223.47	1757.16
223.69	1865.70
223.91	1718.25
224.13	1699.81
224.35	1644.52
224.57	1834.98
224.78	1734.63
225.00	1619.94
225.22	1650.66
225.44	1675.24
225.66	1685.48
225.88	1679.33
226.10	1751.01
226.32	1755.11
226.53	1785.83
226.75	1685.48
226.97	1699.81
227.19	1679.33
227.41	1662.95
227.63	1677.29
227.85	1638.38
228.06	1798.12
228.28	1775.59
228.50	1775.59
228.72	1669.09
228.94	1632.23
229.16	1593.32
229.37	1656.81
229.59	1662.95
229.81	1773.54
230.03	1701.86
230.25	1591.27
230.47	1667.05
230.69	1611.75
230.90	1738.73
231.12	1619.94
231.34	1697.77
231.56	1728.49
231.78	1677.29
232.00	1695.72
232.21	1712.10
232.43	1695.72
232.65	1556.46
232.87	1732.58
233.09	1675.24
233.30	1718.25
233.52	1775.59
233.74	1611.75
233.96	1624.04
234.18	1681.38
234.40	1712.10
234.61	1804.26
234.83	1640.42
235.05	1669.09
235.27	1873.89
235.49	1738.73
235.70	1705.96
235.92	1789.92
236.14	1697.77
236.36	1826.79
236.58	1650.66
236.79	1755.11
237.01	1695.72
237.23	1744.87
237.45	1814.50
237.67	1753.06
237.88	1712.10
238.10	1730.53
238.32	1714.15
238.54	1718.25
238.76	1708.01
238.97	1728.49
239.19	1603.56
239.41	1714.15
239.63	1785.83
239.85	1689.57
240.06	1738.73
240.28	1667.05
240.50	1818.60
240.72	1718.25
240.93	1630.18
241.15	1804.26
241.37	1722.34
241.59	1808.36
241.81	1681.38
242.02	1695.72
242.24	1789.92
242.46	1753.06
242.68	1701.86
242.89	1697.77
243.11	1783.78
243.33	1703.91
243.55	1728.49
243.76	1710.05
243.98	1781.73
244.20	1759.21
244.42	1738.73
244.64	1648.61
244.85	1654.76
245.07	1662.95
245.29	1710.05
245.51	1710.05
245.72	1699.81
245.94	1738.73
246.16	1783.78
246.38	1757.16
246.59	1583.08
246.81	1724.39
247.03	1662.95
247.24	1714.15
247.46	1671.14
247.68	1722.34
247.90	1722.34
248.11	1732.58
248.33	1834.98
248.55	1720.29
248.77	1714.15
248.98	1800.16
249.20	1808.36
249.42	1701.86
249.64	1722.34
249.85	1638.38
250.07	1601.51
250.29	1751.01
250.50	1763.30
250.72	1679.33
250.94	1761.25
251.16	1822.69
251.37	1718.25
251.59	1826.79
251.81	1724.39
252.02	1855.46
252.24	1714.15
252.46	1791.97
252.68	1726.44
252.89	1730.53
253.11	1677.29
253.33	1820.64
253.54	1814.50
253.76	1679.33
253.98	1732.58
254.20	1634.28
254.41	1619.94
254.63	1726.44
254.85	1652.71
255.06	1681.38
255.28	1746.92
255.50	1640.42
255.71	1683.43
255.93	1658.85
256.15	1671.14
256.36	1703.91
256.58	1687.53
256.80	1691.62
257.02	1751.01
257.23	1708.01
257.45	1724.39
257.67	1728.49
257.88	1722.34
258.10	1697.77
258.32	1697.77
258.53	1671.14
258.75	1736.68
258.97	1626.09
259.18	1755.11
259.40	1757.16
259.62	1802.21
259.83	1722.34
260.05	1765.35
260.27	2033.63
260.48	1742.82
260.70	1626.09
260.92	1683.43
261.13	1718.25
261.35	1665.00
261.57	1689.57
261.78	1558.50
262.00	1634.28
262.22	1693.67
262.43	1710.05
262.65	1726.44
262.86	1724.39
263.08	1820.64
263.30	1683.43
263.51	1617.90
263.73	1732.58
263.95	1751.01
264.16	1667.05
264.38	1638.38
264.60	1759.21
264.81	1697.77
265.03	1761.25
265.25	1734.63
265.46	1697.77
265.68	1818.60
265.89	1771.49
266.11	1576.94
266.33	1734.63
266.54	1763.30
266.76	1765.35
266.98	1726.44
267.19	1763.30
267.41	1787.88
267.62	1734.63
267.84	1626.09
268.06	1791.97
268.27	1724.39
268.49	1777.64
268.70	1734.63
268.92	1787.88
269.14	1705.96
269.35	1714.15
269.57	1705.96
269.79	1771.49
270.00	1660.90
270.22	1820.64
270.43	1585.13
270.65	1626.09
270.87	1636.33
271.08	1785.83
271.30	1718.25
271.51	1662.95
271.73	1751.01
271.95	1767.40
272.16	1689.57
272.38	1722.34
272.59	1691.62
272.81	1724.39
273.02	1679.33
273.24	1740.77
273.46	1710.05
273.67	1703.91
273.89	1683.43
274.10	1705.96
274.32	1775.59
274.54	1703.91
274.75	1751.01
274.97	1669.09
275.18	1775.59
275.40	1791.97
275.61	1742.82
275.83	1636.33
276.05	1671.14
276.26	1656.81
276.48	1683.43
276.69	1687.53
276.91	1609.70
277.12	1734.63
277.34	1689.57
277.55	1871.84
277.77	1751.01
277.99	1691.62
278.20	1638.38
278.42	1638.38
278.63	1669.09
278.85	1705.96
279.06	1665.00
279.28	1734.63
279.49	1802.21
279.71	1720.29
279.93	1665.00
280.14	1650.66
280.36	1638.38
280.57	1701.86
280.79	1730.53
281.00	1636.33
281.22	1665.00
281.43	1767.40
281.65	1542.12
281.86	1628.14
282.08	1751.01
282.29	1820.64
282.51	1724.39
282.73	1632.23
282.94	1665.00
283.16	1685.48
283.37	1822.69
283.59	1726.44
283.80	1722.34
284.02	1681.38
284.23	1685.48
284.45	1712.10
284.66	1581.03
284.88	1705.96
285.09	1710.05
285.31	1687.53
285.52	1785.83
285.74	1632.23
285.95	1738.73
286.17	1632.23
286.38	1734.63
286.60	1681.38
286.81	1619.94
287.03	1720.29
287.24	1689.57
287.46	1742.82
287.67	1669.09
287.89	1877.99
288.10	1650.66
288.32	1677.29
288.53	1771.49
288.75	1660.90
288.96	1769.44
289.18	1665.00
289.39	1695.72
289.61	1687.53
289.82	1918.95
290.04	1873.89
290.25	1660.90
290.47	1748.97
290.68	1648.61
290.90	1822.69
291.11	1640.42
291.33	1705.96
291.54	1640.42
291.76	1679.33
291.97	1787.88
292.18	1673.19
292.40	1669.09
292.61	1722.34
292.83	1841.12
293.04	1683.43
293.26	1734.63
293.47	1685.48
293.69	1650.66
293.90	1669.09
294.12	1744.87
294.33	1708.01
294.55	1695.72
294.76	1755.11
294.97	1757.16
295.19	1877.99
295.40	1693.67
295.62	1691.62
295.83	1744.87
296.05	1636.33
296.26	1791.97
296.48	1665.00
296.69	1724.39
296.90	1646.57
297.12	1738.73
297.33	1738.73
297.55	1669.09
297.76	1761.25
297.98	1794.02
298.19	1757.16
298.41	1675.24
298.62	1617.90
298.83	1800.16
299.05	1652.71
299.26	1712.10
299.48	1615.85
299.69	1777.64
299.90	1720.29
300.12	1724.39
300.33	1665.00
300.55	1722.34
300.76	1771.49
300.98	1652.71
301.19	1798.12
301.40	1648.61
301.62	1656.81
301.83	1669.09
302.05	1699.81
302.26	1683.43
302.47	1716.20
302.69	1611.75
302.90	1656.81
303.12	1662.95
303.33	1834.98
303.54	1763.30
303.76	1665.00
303.97	1665.00
304.19	1763.30
304.40	1581.03
304.61	1736.68
304.83	1751.01
305.04	1724.39
305.26	1734.63
305.47	1699.81
305.68	1712.10
305.90	1656.81
306.11	1732.58
306.33	1652.71
306.54	1693.67
306.75	1642.47
306.97	1574.89
307.18	1628.14
307.39	1601.51
307.61	1763.30
307.82	1718.25
308.04	1787.88
308.25	1669.09
308.46	1755.11
308.68	1742.82
308.89	1716.20
309.10	1753.06
309.32	1669.09
309.53	1675.24
309.74	1718.25
309.96	1691.62
310.17	1791.97
310.39	1712.10
310.60	1667.05
310.81	1699.81
311.03	1685.48
311.24	1783.78
311.45	1738.73
311.67	1832.93
311.88	1689.57
312.09	1730.53
312.31	1613.80
312.52	1640.42
312.73	1681.38
312.95	1669.09
313.16	1708.01
313.37	1695.72
313.59	1775.59
313.80	1771.49
314.01	1802.21
314.23	1644.52
314.44	1710.05
314.65	1636.33
314.87	1591.27
315.08	1644.52
315.29	1665.00
315.51	1636.33
315.72	1652.71
315.93	1820.64
316.15	1771.49
316.36	1662.95
316.57	1755.11
316.79	1685.48
317.00	1652.71
317.21	1751.01
317.43	1617.90
317.64	1667.05
317.85	1689.57
318.07	1667.05
318.28	1787.88
318.49	1877.99
318.70	2025.44
318.92	1816.55
319.13	1863.65
319.34	1912.80
319.56	1791.97
319.77	1753.06
319.98	1812.45
320.20	1873.89
320.41	1744.87
320.62	1798.12
320.83	1767.40
321.05	1912.80
321.26	1695.72
321.47	1671.14
321.69	1753.06
321.90	1605.61
322.11	1714.15
322.32	1736.68
322.54	1820.64
322.75	1726.44
322.96	1880.04
323.18	1665.00
323.39	1609.70
323.60	1624.04
323.81	1742.82
324.03	1648.61
324.24	1656.81
324.45	1683.43
324.66	1662.95
324.88	1761.25
325.09	1738.73
325.30	1720.29
325.52	1740.77
325.73	1742.82
325.94	1746.92
326.15	1603.56
326.37	1658.85
326.58	1738.73
326.79	1742.82
327.00	1558.50
327.22	1726.44
327.43	1654.76
327.64	1658.85
327.85	1742.82
328.07	1736.68
328.28	1798.12
328.49	1667.05
328.70	1761.25
328.92	1734.63
329.13	1697.77
329.34	1693.67
329.55	1816.55
329.76	1720.29
329.98	1681.38
330.19	1771.49
330.40	1746.92
330.61	1660.90
330.83	1730.53
331.04	1681.38
331.25	1701.86
331.46	1679.33
331.68	1613.80
331.89	1800.16
332.10	1732.58
332.31	1691.62
332.52	1697.77
332.74	1763.30
332.95	1714.15
333.16	1697.77
333.37	1732.58
333.58	1624.04
333.80	1724.39
334.01	1648.61
334.22	1708.01
334.43	1740.77
334.64	1695.72
334.86	1683.43
335.07	1601.51
335.28	1779.68
335.49	1636.33
335.70	1751.01
335.92	1808.36
336.13	1822.69
336.34	1832.93
336.55	1720.29
336.76	1728.49
336.98	1589.22
337.19	1611.75
337.40	1781.73
337.61	1847.27
337.82	1689.57
338.04	1783.78
338.25	1654.76
338.46	1699.81
338.67	1636.33
338.88	1677.29
339.09	1685.48
339.31	1607.66
339.52	1656.81
339.73	1667.05
339.94	1751.01
340.15	1812.45
340.36	1687.53
340.58	1634.28
340.79	1689.57
341.00	1779.68
341.21	1638.38
341.42	1759.21
341.63	1658.85
341.85	1738.73
342.06	1681.38
342.27	1658.85
342.48	1724.39
342.69	1685.48
342.90	1726.44
343.12	1791.97
343.33	1665.00
343.54	1677.29
343.75	1734.63
343.96	1621.99
344.17	1691.62
344.38	1683.43
344.60	1677.29
344.81	1708.01
345.02	1681.38
345.23	1703.91
345.44	1781.73
345.65	1777.64
345.86	1744.87
346.07	1685.48
346.29	1656.81
346.50	1769.44
346.71	1720.29
346.92	1775.59
347.13	1830.88
347.34	1744.87
347.55	1740.77
347.76	1697.77
347.98	1689.57
348.19	1710.05
348.40	1755.11
348.61	1669.09
348.82	1740.77
349.03	1681.38
349.24	1648.61
349.45	1783.78
349.66	1554.41
349.88	1730.53
350.09	1685.48
350.30	1775.59
350.51	1765.35
350.72	1656.81
350.93	1716.20
351.14	1675.24
351.35	1755.11
351.56	1722.34
351.77	1705.96
351.99	1705.96
352.20	1681.38
352.41	1763.30
352.62	1570.79
352.83	1677.29
353.04	1636.33
353.25	1738.73
353.46	1812.45
353.67	1769.44
353.88	1636.33
354.09	1671.14
354.30	1746.92
354.52	1767.40
354.73	1708.01
354.94	1738.73
355.15	1771.49
355.36	1843.17
355.57	1675.24
355.78	1816.55
355.99	1673.19
356.20	1732.58
356.41	1812.45
356.62	1724.39
356.83	1726.44
357.04	1777.64
357.25	1654.76
357.46	1685.48
357.68	1683.43
357.89	1746.92
358.10	1689.57
358.31	1714.15
358.52	1667.05
358.73	1689.57
358.94	1611.75
359.15	1759.21
359.36	1779.68
359.57	1726.44
359.78	1665.00
359.99	1781.73
360.20	1644.52
360.41	1695.72
360.62	1730.53
360.83	1708.01
361.04	1742.82
361.25	1693.67
361.46	1781.73
361.67	1705.96
361.88	1787.88
362.09	1712.10
362.30	1753.06
362.51	1703.91
362.72	1746.92
362.93	1714.15
363.14	1732.58
363.35	1773.54
363.56	1628.14
363.78	1800.16
363.99	1742.82
364.20	1570.79
364.41	1751.01
364.62	1818.60
364.83	1755.11
365.04	1675.24
365.25	1683.43
365.46	1806.31
365.67	1720.29
365.88	1779.68
366.09	1650.66
366.30	1695.72
366.51	1728.49
366.72	1669.09
366.93	1689.57
367.14	1701.86
367.35	1828.84
367.56	1730.53
367.77	1816.55
367.98	1621.99
368.18	1736.68
368.39	1677.29
368.60	1675.24
368.81	1769.44
369.02	1716.20
369.23	1746.92
369.44	1648.61
369.65	1685.48
369.86	1734.63
370.07	1804.26
370.28	1665.00
370.49	1789.92
370.70	1679.33
370.91	1636.33
371.12	1648.61
371.33	1818.60
371.54	1783.78
371.75	1765.35
371.96	1650.66
372.17	1724.39
372.38	1738.73
372.59	1736.68
372.80	1769.44
373.01	1761.25
373.22	1724.39
373.43	1712.10
373.64	1617.90
373.85	1724.39
374.06	1755.11
374.26	1757.16
374.47	1744.87
374.68	1816.55
374.89	1757.16
375.10	1691.62
375.31	1765.35
375.52	1716.20
375.73	1732.58
375.94	1644.52
376.15	1767.40
376.36	1636.33
376.57	1599.46
376.78	1767.40
376.99	1640.42
377.20	1781.73
377.40	1710.05
377.61	1794.02
377.82	1628.14
378.03	1732.58
378.24	1759.21
378.45	1648.61
378.66	1730.53
378.87	1640.42
379.08	1589.22
379.29	1693.67
379.50	1767.40
379.71	1720.29
379.91	1771.49
380.12	1714.15
380.33	1716.20
380.54	1734.63
380.75	1732.58
380.96	1687.53
381.17	1826.79
381.38	1667.05
381.59	1738.73
381.80	1697.77
382.00	1918.95
382.21	1834.98
382.42	1755.11
382.63	1939.43
382.84	1777.64
383.05	1757.16
383.26	1873.89
383.47	1804.26
383.68	1806.31
383.88	1771.49
384.09	1710.05
384.30	1824.74
384.51	1691.62
384.72	1636.33
384.93	1636.33
385.14	1716.20
385.35	1855.46
385.55	1669.09
385.76	1869.80
385.97	1759.21
386.18	1660.90
386.39	1667.05
386.60	1730.53
386.81	1656.81
387.02	1667.05
387.22	1695.72
387.43	1763.30
387.64	1789.92
387.85	1916.90
388.06	2211.81
388.27	4634.55
388.48	9211.76
388.68	11544.40
388.89	13758.25
389.10	14202.66
389.31	11982.67
389.52	9746.28
389.73	8808.31
389.93	7839.62
390.14	7196.56
390.35	6678.43
390.56	5939.11
390.77	5109.68
390.98	4003.78
391.18	3043.28
391.39	2379.74
391.60	1935.33
391.81	1873.89
392.02	1734.63
392.23	1910.75
392.43	1759.21
392.64	1800.16
392.85	1681.38
393.06	1814.50
393.27	1738.73
393.47	1705.96
393.68	1771.49
393.89	1669.09
394.10	1880.04
394.31	1701.86
394.52	1654.76
394.72	1658.85
394.93	1779.68
395.14	1667.05
395.35	1751.01
395.56	1730.53
395.76	1691.62
395.97	1843.17
396.18	1847.27
396.39	1894.37
396.60	2084.83
396.80	1957.86
397.01	1896.42
397.22	1898.47
397.43	1796.07
397.64	1804.26
397.84	1828.84
398.05	1894.37
398.26	1810.40
398.47	1849.32
398.67	1800.16
398.88	1751.01
399.09	1712.10
399.30	1726.44
399.51	1816.55
399.71	1701.86
399.92	1720.29
400.13	1763.30
400.34	1730.53
400.54	1701.86
400.75	1802.21
400.96	1771.49
401.17	1796.07
401.37	1816.55
401.58	1716.20
401.79	1714.15
402.00	1886.18
402.21	2179.04
402.41	2107.36
402.62	2097.12
402.83	2111.46
403.04	2103.26
403.24	2121.70
403.45	1845.22
403.66	1994.72
403.87	1935.33
404.07	2015.20
404.28	1953.76
404.49	1968.10
404.70	1865.70
404.90	1796.07
405.11	1812.45
405.32	1748.97
405.52	1640.42
405.73	1734.63
405.94	1644.52
406.15	1753.06
406.35	1765.35
406.56	1687.53
406.77	1665.00
406.98	1722.34
407.18	1695.72
407.39	1791.97
407.60	1650.66
407.80	1742.82
408.01	1628.14
408.22	1689.57
408.43	1710.05
408.63	1763.30
408.84	1742.82
409.05	1738.73
409.25	1671.14
409.46	1644.52
409.67	1662.95
409.88	1714.15
410.08	1771.49
410.29	1662.95
410.50	1777.64
410.70	1810.40
410.91	1636.33
411.12	1714.15
411.32	1712.10
411.53	1650.66
411.74	1880.04
411.95	1787.88
412.15	1744.87
412.36	1839.08
412.57	1841.12
412.77	1820.64
412.98	1816.55
413.19	1658.85
413.39	1775.59
413.60	1787.88
413.81	1794.02
414.01	1648.61
414.22	1708.01
414.43	1748.97
414.63	1685.48
414.84	1783.78
415.05	1703.91
415.25	1632.23
415.46	1843.17
415.67	1720.29
415.87	1812.45
416.08	1701.86
416.29	1716.20
416.49	1742.82
416.70	1714.15
416.91	1746.92
417.11	1714.15
417.32	1812.45
417.53	1785.83
417.73	1767.40
417.94	1685.48
418.15	1677.29
418.35	1789.92
418.56	1755.11
418.77	1875.94
418.97	1699.81
419.18	1775.59
419.38	1607.66
419.59	1730.53
419.80	1808.36
420.00	1658.85
420.21	1724.39
420.42	1794.02
420.62	1718.25
420.83	1710.05
421.04	1660.90
421.24	1677.29
421.45	1734.63
421.65	1812.45
421.86	1611.75
422.07	1757.16
422.27	1669.09
422.48	1718.25
422.69	1708.01
422.89	1722.34
423.10	1753.06
423.30	1695.72
423.51	1697.77
423.72	1691.62
423.92	1837.03
424.13	1654.76
424.33	1708.01
424.54	1789.92
424.75	1720.29
424.95	1796.07
425.16	1763.30
425.36	1685.48
425.57	1783.78
425.78	1751.01
425.98	1763.30
426.19	1746.92
426.39	1644.52
426.60	1679.33
426.81	1810.40
427.01	1761.25
427.22	1667.05
427.42	1576.94
427.63	1656.81
427.83	1691.62
428.04	1826.79
428.25	1761.25
428.45	1765.35
428.66	1800.16
428.86	1714.15
429.07	1677.29
429.28	1732.58
429.48	1644.52
429.69	1652.71
429.89	1775.59
430.10	1648.61
430.30	1779.68
430.51	1769.44
430.71	1697.77
430.92	1642.47
431.13	1687.53
431.33	1816.55
431.54	1744.87
431.74	1783.78
431.95	1785.83
432.15	1638.38
432.36	1701.86
432.56	1748.97
432.77	1855.46
432.98	1832.93
433.18	1732.58
433.39	1720.29
433.59	1748.97
433.80	1851.36
434.00	1830.88
434.21	1718.25
434.41	1669.09
434.62	1873.89
434.82	1642.47
435.03	1665.00
435.23	1732.58
435.44	1593.32
435.64	1636.33
435.85	1759.21
436.06	1787.88
436.26	1812.45
436.47	1630.18
436.67	1683.43
436.88	1755.11
437.08	1675.24
437.29	1824.74
437.49	1751.01
437.70	1765.35
437.90	1708.01
438.11	1865.70
438.31	1791.97
438.52	2000.87
438.72	1961.95
438.93	1968.10
439.13	1779.68
439.34	1908.71
439.54	1824.74
439.75	1867.75
439.95	1820.64
440.16	1691.62
440.36	1726.44
440.57	1834.98
440.77	1757.16
440.98	1665.00
441.18	1748.97
441.39	1726.44
441.59	1665.00
441.80	1871.84
442.00	1665.00
442.21	1812.45
442.41	1738.73
442.62	1794.02
442.82	1705.96
443.02	1710.05
443.23	1722.34
443.43	1753.06
443.64	1839.08
443.84	1689.57
444.05	1806.31
444.25	1728.49
444.46	1787.88
444.66	1789.92
444.87	1810.40
445.07	1710.05
445.28	1701.86
445.48	1849.32
445.69	1734.63
445.89	1902.56
446.09	1808.36
446.30	1957.86
446.50	2521.05
446.71	4159.42
446.91	5298.10
447.12	5801.90
447.32	6023.08
447.53	5437.36
447.73	4427.71
447.93	3909.57
448.14	3672.01
448.34	3418.06
448.55	3198.93
448.75	3096.53
448.96	3020.75
449.16	2686.94
449.36	2408.41
449.57	2191.33
449.77	1953.76
449.98	1890.28
450.18	1857.51
450.39	1810.40
450.59	1755.11
450.79	1773.54
451.00	1738.73
451.20	1826.79
451.41	1712.10
451.61	1753.06
451.81	1693.67
452.02	1703.91
452.22	1755.11
452.43	1613.80
452.63	1689.57
452.84	1732.58
453.04	1767.40
453.24	1757.16
453.45	1691.62
453.65	1751.01
453.86	1787.88
454.06	1730.53
454.26	1714.15
454.47	1695.72
454.67	1806.31
454.87	1720.29
455.08	1796.07
455.28	1841.12
455.49	1757.16
455.69	1748.97
455.89	1880.04
456.10	1808.36
456.30	1695.72
456.51	1732.58
456.71	1771.49
456.91	1763.30
457.12	1708.01
457.32	1703.91
457.52	1732.58
457.73	1794.02
457.93	1742.82
458.14	1701.86
458.34	1669.09
458.54	1697.77
458.75	1679.33
458.95	1777.64
459.15	1751.01
459.36	1736.68
459.56	1787.88
459.76	1865.70
459.97	1736.68
460.17	1763.30
460.37	1753.06
460.58	1673.19
460.78	1845.22
460.99	1687.53
461.19	1738.73
461.39	1650.66
461.60	1771.49
461.80	1814.50
462.00	1681.38
462.21	1742.82
462.41	1734.63
462.61	1660.90
462.82	1644.52
463.02	1824.74
463.22	1722.34
463.43	1880.04
463.63	1742.82
463.83	1884.13
464.04	1806.31
464.24	1761.25
464.44	1648.61
464.64	1761.25
464.85	1791.97
465.05	1718.25
465.25	1669.09
465.46	1728.49
465.66	1804.26
465.86	1714.15
466.07	1732.58
466.27	1693.67
466.47	1724.39
466.68	1642.47
466.88	1875.94
467.08	1714.15
467.29	1779.68
467.49	1746.92
467.69	1703.91
467.89	1769.44
468.10	1708.01
468.30	1789.92
468.50	1732.58
468.71	1738.73
468.91	1638.38
469.11	1804.26
469.31	1712.10
469.52	1685.48
469.72	1839.08
469.92	1906.66
470.13	1714.15
470.33	1742.82
470.53	1869.80
470.73	2172.89
470.94	2498.52
471.14	2742.23
471.34	2955.22
471.54	2953.17
471.75	2465.75
471.95	2238.43
472.15	2256.86
472.36	2273.25
472.56	2281.44
472.76	2213.85
472.96	2076.64
473.17	2058.21
473.37	1943.52
473.57	1890.28
473.77	1912.80
473.98	1761.25
474.18	1632.23
474.38	1892.32
474.58	1710.05
474.79	1648.61
474.99	1734.63
475.19	1794.02
475.39	1628.14
475.60	1757.16
475.80	1783.78
476.00	1675.24
476.20	1679.33
476.41	1712.10
476.61	1726.44
476.81	1796.07
477.01	1703.91
477.21	1812.45
477.42	1783.78
477.62	1644.52
477.82	1701.86
478.02	1675.24
478.23	1771.49
478.43	1689.57
478.63	1665.00
478.83	1806.31
479.03	1746.92
479.24	1748.97
479.44	1841.12
479.64	1671.14
479.84	1714.15
480.04	1710.05
480.25	1849.32
480.45	1710.05
480.65	1718.25
480.85	1777.64
481.06	1751.01
481.26	1812.45
481.46	1722.34
481.66	1748.97
481.86	1632.23
482.06	1810.40
482.27	1751.01
482.47	1685.48
482.67	1771.49
482.87	1683.43
483.07	1800.16
483.28	1693.67
483.48	1656.81
483.68	1728.49
483.88	1673.19
484.08	1589.22
484.29	1632.23
484.49	1687.53
484.69	1589.22
484.89	1837.03
485.09	1806.31
485.29	1814.50
485.50	1687.53
485.70	1699.81
485.90	1765.35
486.10	1712.10
486.30	1701.86
486.50	1794.02
486.71	1802.21
486.91	1765.35
487.11	1779.68
487.31	1671.14
487.51	1773.54
487.71	1714.15
487.91	1597.42
488.12	1726.44
488.32	1675.24
488.52	1652.71
488.72	1589.22
488.92	1757.16
489.12	1767.40
489.32	1757.16
489.53	1763.30
489.73	1693.67
489.93	1763.30
490.13	1648.61
490.33	1615.85
490.53	1691.62
490.73	1753.06
490.94	1667.05
491.14	1771.49
491.34	1798.12
491.54	2115.55
491.74	2684.89
491.94	3301.33
492.14	3502.03
492.34	3461.07
492.54	3227.60
492.75	2740.18
492.95	2596.82
493.15	2439.13
493.35	2402.27
493.55	2271.20
493.75	2150.37
493.95	2263.01
494.15	2031.58
494.35	1961.95
494.56	1890.28
494.76	1841.12
494.96	1761.25
495.16	1869.80
495.36	1755.11
495.56	1765.35
495.76	1738.73
495.96	1718.25
496.16	1761.25
496.36	1781.73
496.56	1734.63
496.77	1660.90
496.97	1763.30
497.17	1767.40
497.37	1642.47
497.57	1822.69
497.77	1656.81
497.97	1632.23
498.17	1759.21
498.37	1705.96
498.57	1751.01
498.77	1685.48
498.97	1779.68
499.17	1882.08
499.38	1730.53
499.58	1732.58
499.78	1818.60
499.98	1773.54
500.18	1628.14
500.38	1814.50
500.58	1877.99
500.78	2336.73
500.98	4603.83
501.18	6543.26
501.38	8220.55
501.58	9066.36
501.78	8742.78
501.98	6811.54
502.18	5846.95
502.38	4972.47
502.58	4536.25
502.78	4036.55
502.98	3944.39
503.18	3833.80
503.38	3594.19
503.59	3160.02
503.79	2889.68
503.99	2631.64
504.19	2373.60
504.39	2353.12
504.59	2412.51
504.79	2256.86
504.99	2252.77
505.19	2052.06
505.39	1974.24
505.59	2039.78
505.79	1955.81
505.99	1945.57
506.19	1818.60
506.39	1910.75
506.59	1759.21
506.79	1841.12
506.99	1816.55
507.19	1804.26
507.39	1736.68
507.59	1744.87
507.79	1757.16
507.99	1722.34
508.19	1718.25
508.39	1703.91
508.59	1673.19
508.79	1744.87
508.99	1853.41
509.19	1617.90
509.39	1845.22
509.59	1759.21
509.79	1687.53
509.99	1767.40
510.19	1828.84
510.39	1705.96
510.59	1708.01
510.79	1787.88
510.99	1648.61
511.19	1751.01
511.39	1783.78
511.59	1779.68
511.79	1822.69
511.99	1710.05
512.19	1783.78
512.38	1759.21
512.58	1740.77
512.78	1724.39
512.98	1767.40
513.18	1812.45
513.38	1665.00
513.58	1773.54
513.78	1744.87
513.98	1722.34
514.18	1732.58
514.38	1708.01
514.58	1724.39
514.78	1755.11
514.98	1691.62
515.18	1734.63
515.38	1703.91
515.58	1869.80
515.78	1718.25
515.98	1740.77
516.18	1736.68
516.38	1724.39
516.57	1718.25
516.77	1781.73
516.97	1767.40
517.17	1652.71
517.37	1607.66
517.57	1765.35
517.77	1726.44
517.97	1734.63
518.17	1740.77
518.37	1656.81
518.57	1742.82
518.77	1687.53
518.97	1736.68
519.16	1759.21
519.36	1830.88
519.56	1699.81
519.76	1748.97
519.96	1716.20
520.16	1720.29
520.36	1660.90
520.56	1843.17
520.76	1785.83
520.96	1693.67
521.16	1753.06
521.35	1757.16
521.55	1910.75
521.75	1714.15
521.95	1701.86
522.15	1673.19
522.35	1673.19
522.55	1720.29
522.75	1714.15
522.95	1800.16
523.14	1640.42
523.34	1789.92
523.54	1779.68
523.74	1783.78
523.94	1753.06
524.14	1660.90
524.34	1816.55
524.54	1845.22
524.73	1763.30
524.93	1753.06
525.13	1757.16
525.33	1701.86
525.53	1837.03
525.73	1806.31
525.93	1746.92
526.13	1673.19
526.32	1761.25
526.52	1816.55
526.72	1773.54
526.92	1703.91
527.12	1677.29
527.32	1607.66
527.52	1783.78
527.71	1753.06
527.91	1748.97
528.11	1767.40
528.31	1734.63
528.51	1640.42
528.71	1746.92
528.90	1740.77
529.10	1867.75
529.30	1869.80
529.50	1566.70
529.70	1691.62
529.90	1753.06
530.09	1675.24
530.29	1656.81
530.49	1644.52
530.69	1820.64
530.89	1738.73
531.09	1767.40
531.28	1705.96
531.48	1769.44
531.68	1734.63
531.88	1800.16
532.08	1761.25
532.28	1779.68
532.47	1837.03
532.67	1794.02
532.87	1742.82
533.07	1771.49
533.27	1834.98
533.46	1851.36
533.66	1773.54
533.86	1712.10
534.06	1775.59
534.26	1767.40
534.45	1785.83
534.65	1884.13
534.85	1806.31
535.05	1642.47
535.25	1771.49
535.44	1648.61
535.64	1785.83
535.84	1726.44
536.04	1759.21
536.24	1660.90
536.43	1701.86
536.63	1794.02
536.83	1656.81
537.03	1712.10
537.22	1599.46
537.42	1687.53
537.62	1710.05
537.82	1759.21
538.02	1800.16
538.21	1769.44
538.41	1953.76
538.61	1708.01
538.81	1693.67
539.00	1820.64
539.20	1718.25
539.40	1699.81
539.60	1843.17
539.79	1708.01
539.99	1791.97
540.19	1757.16
540.39	1755.11
540.58	1724.39
540.78	1734.63
540.98	1814.50
541.18	1728.49
541.37	1783.78
541.57	1671.14
541.77	1667.05
541.97	1703.91
542.16	1583.08
542.36	1691.62
542.56	1673.19
542.76	1816.55
542.95	1771.49
543.15	1794.02
543.35	1779.68
543.54	1638.38
543.74	1785.83
543.94	1757.16
544.14	1722.34
544.33	1736.68
544.53	1724.39
544.73	1658.85
544.93	1732.58
545.12	1812.45
545.32	1740.77
545.52	1732.58
545.71	1681.38
545.91	1708.01
546.11	1779.68
546.30	1632.23
546.50	1683.43
546.70	1775.59
546.90	1812.45
547.09	1599.46
547.29	1660.90
547.49	1771.49
547.68	1740.77
547.88	1695.72
548.08	1755.11
548.27	2189.28
548.47	1751.01
548.67	1705.96
548.87	1771.49
549.06	1699.81
549.26	1697.77
549.46	1732.58
549.65	1701.86
549.85	1746.92
550.05	1841.12
550.24	1626.09
550.44	1705.96
550.64	1759.21
550.83	1662.95
551.03	1763.30
551.23	1781.73
551.42	1828.84
551.62	1726.44
551.82	1712.10
552.01	1720.29
552.21	1771.49
552.41	1716.20
552.60	1812.45
552.80	1695.72
553.00	1701.86
553.19	1636.33
553.39	1849.32
553.59	1718.25
553.78	1777.64
553.98	1857.51
554.17	1681.38
554.37	1712.10
554.57	1767.40
554.76	1636.33
554.96	1677.29
555.16	1751.01
555.35	1679.33
555.55	1708.01
555.75	1818.60
555.94	1699.81
556.14	1679.33
556.33	1783.78
556.53	1800.16
556.73	1697.77
556.92	1742.82
557.12	1808.36
557.32	1861.60
557.51	1843.17
557.71	1810.40
557.90	1816.55
558.10	1744.87
558.30	1722.34
558.49	1669.09
558.69	1650.66
558.88	1761.25
559.08	1728.49
559.28	1718.25
559.47	1699.81
559.67	1748.97
559.86	1783.78
560.06	1746.92
560.26	1648.61
560.45	1710.05
560.65	1726.44
560.84	1734.63
561.04	1722.34
561.24	1753.06
561.43	1638.38
561.63	1839.08
561.82	1804.26
562.02	1761.25
562.22	1640.42
562.41	1679.33
562.61	1705.96
562.80	1660.90
563.00	1855.46
563.19	1769.44
563.39	1796.07
563.59	1779.68
563.78	1693.67
563.98	1658.85
564.17	1716.20
564.37	1607.66
564.56	1761.25
564.76	1689.57
564.96	1820.64
565.15	1675.24
565.35	1855.46
565.54	1720.29
565.74	1794.02
565.93	1896.42
566.13	1763.30
566.32	1769.44
566.52	1785.83
566.71	1781.73
566.91	1877.99
567.11	1748.97
567.30	1740.77
567.50	1785.83
567.69	1767.40
567.89	1763.30
568.08	1740.77
568.28	1785.83
568.47	1673.19
568.67	1832.93
568.86	1808.36
569.06	1779.68
569.25	1783.78
569.45	1705.96
569.64	1701.86
569.84	1712.10
570.04	1744.87
570.23	1697.77
570.43	1722.34
570.62	1734.63
570.82	1869.80
571.01	1636.33
571.21	1689.57
571.40	1675.24
571.60	1783.78
571.79	1767.40
571.99	1781.73
572.18	1691.62
572.38	1798.12
572.57	1734.63
572.77	1779.68
572.96	1939.43
573.16	1662.95
573.35	1759.21
573.55	1888.23
573.74	1798.12
573.94	1791.97
574.13	1679.33
574.33	1800.16
574.52	1857.51
574.71	1748.97
574.91	1716.20
575.10	1697.77
575.30	1708.01
575.49	1697.77
575.69	1697.77
575.88	1849.32
576.08	1781.73
576.27	1808.36
576.47	1767.40
576.66	1845.22
576.86	1880.04
577.05	1765.35
577.25	1824.74
577.44	1886.18
577.64	1660.90
577.83	1773.54
578.02	1761.25
578.22	1789.92
578.41	1800.16
578.61	1703.91
578.80	1697.77
579.00	1810.40
579.19	1718.25
579.39	1769.44
579.58	1767.40
579.77	1619.94
579.97	1837.03
580.16	1834.98
580.36	1892.32
580.55	1808.36
580.75	1740.77
580.94	1806.31
581.13	1861.60
581.33	1869.80
581.52	1791.97
581.72	1894.37
581.91	1853.41
582.11	1742.82
582.30	1742.82
582.49	1832.93
582.69	1820.64
582.88	1800.16
583.08	1841.12
583.27	1806.31
583.47	1775.59
583.66	1757.16
583.85	1736.68
584.05	1806.31
584.24	1916.90
584.44	1894.37
584.63	1812.45
584.82	1916.90
585.02	1906.66
585.21	1953.76
585.41	1908.71
585.60	1910.75
585.79	1982.43
585.99	1959.91
586.18	1951.71
586.37	2316.25
586.57	3452.88
586.76	9731.95
586.96	27426.40
587.15	42286.46
587.34	52397.28
587.54	58696.83
587.73	56468.64
587.93	40291.74
588.12	29799.99
588.31	24096.40
588.51	20715.20
588.70	18562.79
588.89	17280.76
589.09	15619.86
589.28	13772.59
589.47	11593.55
589.67	9723.76
589.86	7540.62
590.06	5537.71
590.25	4288.45
590.44	3250.13
590.64	2596.82
590.83	2281.44
591.02	2037.73
591.22	2041.82
591.41	1896.42
591.60	1867.75
591.80	1904.61
591.99	1724.39
592.18	1775.59
592.38	1779.68
592.57	1658.85
592.76	1763.30
592.96	1830.88
593.15	1767.40
593.34	1849.32
593.54	1681.38
593.73	1849.32
593.92	1771.49
594.12	1812.45
594.31	1781.73
594.50	1841.12
594.70	1857.51
594.89	1882.08
595.08	1640.42
595.28	1830.88
595.47	1888.23
595.66	1857.51
595.86	1669.09
596.05	1751.01
596.24	1740.77
596.43	1804.26
596.63	1880.04
596.82	1726.44
597.01	1804.26
597.21	1814.50
597.40	1748.97
597.59	1826.79
597.79	1789.92
597.98	1763.30
598.17	1785.83
598.36	1759.21
598.56	1789.92
598.75	1718.25
598.94	1691.62
599.14	1714.15
599.33	1720.29
599.52	1837.03
599.71	1761.25
599.91	1851.36
600.10	1742.82
600.29	1759.21
600.48	1794.02
600.68	1808.36
600.87	1691.62
601.06	1683.43
601.26	1708.01
601.45	1810.40
601.64	1665.00
601.83	1798.12
602.03	1767.40
602.22	1679.33
602.41	1818.60
602.60	1847.27
602.80	1777.64
602.99	1798.12
603.18	1804.26
603.37	1806.31
603.57	1751.01
603.76	1884.13
603.95	1818.60
604.14	1701.86
604.34	1789.92
604.53	1699.81
604.72	1775.59
604.91	1767.40
605.10	1777.64
605.30	1619.94
605.49	1877.99
605.68	1742.82
605.87	1851.36
606.07	1773.54
606.26	1746.92
606.45	1794.02
606.64	1791.97
606.84	1736.68
607.03	1712.10
607.22	1935.33
607.41	1787.88
607.60	1769.44
607.80	1789.92
607.99	1751.01
608.18	1796.07
608.37	1800.16
608.56	1683.43
608.76	1837.03
608.95	1875.94
609.14	1779.68
609.33	1914.85
609.52	1900.52
609.72	1818.60
609.91	1847.27
610.10	1824.74
610.29	1869.80
610.48	1742.82
610.68	1832.93
610.87	1736.68
611.06	1789.92
611.25	1671.14
611.44	1867.75
611.63	1718.25
611.83	1853.41
612.02	1736.68
612.21	1843.17
612.40	1671.14
612.59	1660.90
612.79	1640.42
612.98	1697.77
613.17	1794.02
613.36	1800.16
613.55	1853.41
613.74	1837.03
613.93	1855.46
614.13	1869.80
614.32	1912.80
614.51	1984.48
614.70	1865.70
614.89	1812.45
615.08	1877.99
615.28	2039.78
615.47	1740.77
615.66	1861.60
615.85	1816.55
616.04	1902.56
616.23	1816.55
616.42	1804.26
616.62	1820.64
616.81	1861.60
617.00	1830.88
617.19	1779.68
617.38	1654.76
617.57	1755.11
617.76	1775.59
617.95	1834.98
618.15	1726.44
618.34	1849.32
618.53	1755.11
618.72	1816.55
618.91	1810.40
619.10	1826.79
619.29	1658.85
619.48	1681.38
619.68	1748.97
619.87	1703.91
620.06	1660.90
620.25	1834.98
620.44	1701.86
620.63	1632.23
620.82	1638.38
621.01	1740.77
621.20	1714.15
621.39	1789.92
621.59	1732.58
621.78	1783.78
621.97	1843.17
622.16	1736.68
622.35	1691.62
622.54	1726.44
622.73	1751.01
622.92	1673.19
623.11	1810.40
623.30	1765.35
623.49	1802.21
623.68	1724.39
623.88	1814.50
624.07	1701.86
624.26	1744.87
624.45	1777.64
624.64	1656.81
624.83	1791.97
625.02	1712.10
625.21	1779.68
625.40	1701.86
625.59	1820.64
625.78	1724.39
625.97	1771.49
626.16	1841.12
626.35	1834.98
626.54	1810.40
626.74	1918.95
626.93	1699.81
627.12	1816.55
627.31	1812.45
627.50	1787.88
627.69	1734.63
627.88	1693.67
628.07	1755.11
628.26	1626.09
628.45	1689.57
628.64	1695.72
628.83	1728.49
629.02	1689.57
629.21	1708.01
629.40	1798.12
629.59	1654.76
629.78	1755.11
629.97	1679.33
630.16	1783.78
630.35	1746.92
630.54	1744.87
630.73	1677.29
630.92	1701.86
631.11	1691.62
631.30	1730.53
631.49	1708.01
631.68	1728.49
631.87	1765.35
632.06	1677.29
632.25	1800.16
632.44	1755.11
632.63	1802.21
632.82	1804.26
633.01	1779.68
633.20	1892.32
633.39	1820.64
633.58	1777.64
633.77	1814.50
633.96	1767.40
634.15	1744.87
634.34	1802.21
634.53	1757.16
634.72	1722.34
634.91	1710.05
635.10	1738.73
635.29	1787.88
635.48	1755.11
635.67	1742.82
635.86	1660.90
636.05	1785.83
636.24	1671.14
636.43	1738.73
636.62	1789.92
636.81	1591.27
637.00	1712.10
637.19	1757.16
637.38	1732.58
637.57	1742.82
637.76	1761.25
637.95	1810.40
638.14	1730.53
638.33	1826.79
638.52	1787.88
638.71	1773.54
638.89	1730.53
639.08	1822.69
639.27	1822.69
639.46	1859.56
639.65	2146.27
639.84	2203.61
640.03	2334.68
640.22	2379.74
640.41	2371.55
640.60	2066.40
640.79	2025.44
640.98	1920.99
641.17	1992.67
641.36	1945.57
641.55	1953.76
641.74	1730.53
641.92	1787.88
642.11	1722.34
642.30	1771.49
642.49	1671.14
642.68	1697.77
642.87	1761.25
643.06	1742.82
643.25	1718.25
643.44	1656.81
643.63	1734.63
643.82	1755.11
644.00	1710.05
644.19	1710.05
644.38	1701.86
644.57	1738.73
644.76	1740.77
644.95	1687.53
645.14	1714.15
645.33	1728.49
645.52	1740.77
645.71	1615.85
645.89	1646.57
646.08	1732.58
646.27	1679.33
646.46	1859.56
646.65	1630.18
646.84	1681.38
647.03	1615.85
647.22	1789.92
647.40	1724.39
647.59	1675.24
647.78	1701.86
647.97	1734.63
648.16	1685.48
648.35	1845.22
648.54	1746.92
648.73	1724.39
648.91	1779.68
649.10	1748.97
649.29	1724.39
649.48	1673.19
649.67	1757.16
649.86	1732.58
650.05	1751.01
650.23	1785.83
650.42	1877.99
650.61	1914.85
650.80	1892.32
650.99	1935.33
651.18	1863.65
651.36	1812.45
651.55	1804.26
651.74	1771.49
651.93	1705.96
652.12	1687.53
652.31	1796.07
652.49	1757.16
652.68	1726.44
652.87	1832.93
653.06	1718.25
653.25	1945.57
653.44	1744.87
653.62	1906.66
653.81	1677.29
654.00	1726.44
654.19	1767.40
654.38	1832.93
654.56	1724.39
654.75	1757.16
654.94	1738.73
655.13	1693.67
655.32	1699.81
655.51	1757.16
655.69	1718.25
655.88	1763.30
656.07	1765.35
656.26	1843.17
656.45	1636.33
656.63	1765.35
656.82	1705.96
657.01	1787.88
657.20	1730.53
657.38	1681.38
657.57	1679.33
657.76	1630.18
657.95	1742.82
658.14	1705.96
658.32	1724.39
658.51	1660.90
658.70	1742.82
658.89	1703.91
659.08	1697.77
659.26	1812.45
659.45	1742.82
659.64	1769.44
659.83	1769.44
660.01	1941.47
660.20	1697.77
660.39	1806.31
660.58	1699.81
660.76	1736.68
660.95	1689.57
661.14	1763.30
661.33	1736.68
661.51	1687.53
661.70	1708.01
661.89	1748.97
662.08	1757.16
662.26	1656.81
662.45	1791.97
662.64	1941.47
662.83	1841.12
663.01	1644.52
663.20	1691.62
663.39	1783.78
663.58	1675.24
663.76	1714.15
663.95	1757.16
664.14	1695.72
664.32	1763.30
664.51	1644.52
664.70	1662.95
664.89	1746.92
665.07	1619.94
665.26	1757.16
665.45	1679.33
665.64	1685.48
665.82	1714.15
666.01	1789.92
666.20	1677.29
666.38	1791.97
666.57	1755.11
666.76	2258.91
666.95	4597.69
667.13	11466.58
667.32	18370.28
667.51	22566.57
667.69	25364.09
667.88	25540.22
668.07	19717.84
668.25	14667.55
668.44	11736.91
668.63	10022.76
668.81	8736.63
669.00	7597.96
669.19	7042.96
669.38	6234.02
669.56	5420.97
669.75	4460.48
669.94	3825.61
670.12	3100.62
670.31	2676.70
670.50	2308.06
670.68	2101.22
670.87	2058.21
671.06	1859.56
671.24	1892.32
671.43	1931.23
671.62	1796.07
671.80	1806.31
671.99	1726.44
672.18	1808.36
672.36	1814.50
672.55	1787.88
672.74	1781.73
672.92	1724.39
673.11	1812.45
673.29	1689.57
673.48	1755.11
673.67	1732.58
673.85	1806.31
674.04	1738.73
674.23	1714.15
674.41	1804.26
674.60	1703.91
674.79	1636.33
674.97	1656.81
675.16	1855.46
675.34	1724.39
675.53	1775.59
675.72	1722.34
675.90	1808.36
676.09	1742.82
676.28	1701.86
676.46	1609.70
676.65	1802.21
676.83	1619.94
677.02	1781.73
677.21	1697.77
677.39	1667.05
677.58	1654.76
677.77	1755.11
677.95	1685.48
678.14	1744.87
678.32	1646.57
678.51	1611.75
678.70	1882.08
678.88	1656.81
679.07	1738.73
679.25	1703.91
679.44	1730.53
679.63	1673.19
679.81	1775.59
680.00	1826.79
680.18	1789.92
680.37	1820.64
680.55	1665.00
680.74	1638.38
680.93	1609.70
681.11	1732.58
681.30	1714.15
681.48	1726.44
681.67	1791.97
681.85	1771.49
682.04	1714.15
682.23	1769.44
682.41	1677.29
682.60	1679.33
682.78	1693.67
682.97	1701.86
683.15	1720.29
683.34	1703.91
683.53	1810.40
683.71	1681.38
683.90	1775.59
684.08	1798.12
684.27	1708.01
684.45	1744.87
684.64	1814.50
684.82	1708.01
685.01	1710.05
685.19	1751.01
685.38	1804.26
685.57	1746.92
685.75	1660.90
685.94	1734.63
686.12	1708.01
686.31	1701.86
686.49	1789.92
686.68	1638.38
686.86	1740.77
687.05	1720.29
687.23	1822.69
687.42	1724.39
687.60	1656.81
687.79	1818.60
687.97	1759.21
688.16	1834.98
688.34	1746.92
688.53	1570.79
688.71	1685.48
688.90	1732.58
689.08	1734.63
689.27	1578.98
689.45	1787.88
689.64	1728.49
689.82	1703.91
690.01	1789.92
690.19	1746.92
690.38	1781.73
690.56	1722.34
690.75	1665.00
690.93	1714.15
691.12	1660.90
691.30	1712.10
691.49	1701.86
691.67	1730.53
691.86	1789.92
692.04	1609.70
692.23	1636.33
692.41	1720.29
692.60	1853.41
692.78	1787.88
692.97	1794.02
693.15	1746.92
693.34	1820.64
693.52	1814.50
693.71	1753.06
693.89	1671.14
694.08	1585.13
694.26	1828.84
694.44	1728.49
694.63	1781.73
694.81	1675.24
695.00	1687.53
695.18	1847.27
695.37	1882.08
695.55	1718.25
695.74	1703.91
695.92	1601.51
696.10	1773.54
696.29	1624.04
696.47	1642.47
696.66	1660.90
696.84	1691.62
697.03	1716.20
697.21	1837.03
697.40	2310.11
697.58	1785.83
697.76	1734.63
697.95	1699.81
698.13	1718.25
698.32	1753.06
698.50	1708.01
698.68	1714.15
698.87	1771.49
699.05	1847.27
699.24	1701.86
699.42	1755.11
699.61	1691.62
699.79	1716.20
699.97	1783.78
700.16	1624.04
700.34	1716.20
700.53	1705.96
700.71	1847.27
700.89	1834.98
701.08	1689.57
701.26	1732.58
701.45	2195.42
701.63	1738.73
701.81	1693.67
702.00	1691.62
702.18	1781.73
702.37	1677.29
702.55	1787.88
702.73	1857.51
702.92	1910.75
703.10	2058.21
703.28	1900.52
703.47	1859.56
703.65	1943.52
703.84	1947.62
704.02	1877.99
704.20	1873.89
704.39	1701.86
704.57	1787.88
704.75	1826.79
704.94	1902.56
705.12	1779.68
705.30	1888.23
705.49	2451.42
705.67	5459.88
705.86	13352.76
706.04	19154.65
706.22	22982.31
706.41	25093.76
706.59	24913.54
706.77	18941.66
706.96	13799.21
707.14	11886.41
707.32	10266.47
707.51	8982.39
707.69	7942.02
707.87	6678.43
708.06	5435.31
708.24	4468.67
708.42	3319.76
708.61	2764.76
708.79	2213.85
708.97	2086.88
709.16	1939.43
709.34	1849.32
709.52	1779.68
709.71	1802.21
709.89	1742.82
710.07	1689.57
710.26	1677.29
710.44	1859.56
710.62	1783.78
710.80	1771.49
710.99	1810.40
711.17	1810.40
711.35	1697.77
711.54	1636.33
711.72	1888.23
711.90	1785.83
712.09	1677.29
712.27	1656.81
712.45	1787.88
712.63	1705.96
712.82	1697.77
713.00	1679.33
713.18	1771.49
713.37	1798.12
713.55	1761.25
713.73	1744.87
713.91	1714.15
714.10	1708.01
714.28	1781.73
714.46	1724.39
714.65	1800.16
714.83	1746.92
715.01	1644.52
715.19	1742.82
715.38	1683.43
715.56	1697.77
715.74	1697.77
715.92	1648.61
716.11	1789.92
716.29	1638.38
716.47	1791.97
716.65	1763.30
716.84	1660.90
717.02	1771.49
717.20	1642.47
717.38	1681.38
717.57	1761.25
717.75	1652.71
717.93	1699.81
718.11	1726.44
718.30	1665.00
718.48	1699.81
718.66	1761.25
718.84	1744.87
719.03	1697.77
719.21	1703.91
719.39	1794.02
719.57	1726.44
719.75	1732.58
719.94	1677.29
720.12	1695.72
720.30	1693.67
720.48	1767.40
720.67	1626.09
720.85	1652.71
721.03	1685.48
721.21	1689.57
721.39	1820.64
721.58	1681.38
721.76	1693.67
721.94	1751.01
722.12	1667.05
722.30	1826.79
722.49	1693.67
722.67	1746.92
722.85	1665.00
723.03	1611.75
723.21	1722.34
723.40	1724.39
723.58	1832.93
723.76	1730.53
723.94	1781.73
724.12	1824.74
724.30	1832.93
724.49	1933.28
724.67	1710.05
724.85	1865.70
725.03	1640.42
725.21	1798.12
725.40	1802.21
725.58	1714.15
725.76	1767.40
725.94	1748.97
726.12	1611.75
726.30	1697.77
726.49	1736.68
726.67	1744.87
726.85	1748.97
727.03	1789.92
727.21	2263.01
727.39	3319.76
727.57	4990.90
727.76	5615.53
727.94	6186.91
728.12	6127.52
728.30	5697.45
728.48	4360.13
728.66	3942.34
728.84	3600.33
729.03	3252.17
729.21	2797.53
729.39	2426.84
729.57	2045.92
729.75	2004.96
729.93	1890.28
730.11	1730.53
730.30	1681.38
730.48	1765.35
730.66	1869.80
730.84	1740.77
731.02	1748.97
731.20	1751.01
731.38	1773.54
731.56	1693.67
731.74	1652.71
731.93	1722.34
732.11	1656.81
732.29	1671.14
732.47	1722.34
732.65	1794.02
732.83	1812.45
733.01	1726.44
733.19	1624.04
733.37	1736.68
733.56	1695.72
733.74	1667.05
733.92	1742.82
734.10	1695.72
734.28	1742.82
734.46	1650.66
734.64	1689.57
734.82	1636.33
735.00	1677.29
735.18	1693.67
735.36	1722.34
735.54	1738.73
735.73	1738.73
735.91	1810.40
736.09	1765.35
736.27	1652.71
736.45	1779.68
736.63	1607.66
736.81	1730.53
736.99	1748.97
737.17	1800.16
737.35	1656.81
737.53	1685.48
737.71	1775.59
737.89	1816.55
738.07	1585.13
738.25	1671.14
738.43	1644.52
738.61	1636.33
738.80	1695.72
738.98	1589.22
739.16	1734.63
739.34	1681.38
739.52	1779.68
739.70	1699.81
739.88	1734.63
740.06	1763.30
740.24	1609.70
740.42	1765.35
740.60	1648.61
740.78	1699.81
740.96	1662.95
741.14	1685.48
741.32	1751.01
741.50	1652.71
741.68	1853.41
741.86	1800.16
742.04	1634.28
742.22	1658.85
742.40	1722.34
742.58	1738.73
742.76	1701.86
742.94	1777.64
743.12	1660.90
743.30	1671.14
743.48	1695.72
743.66	1652.71
743.84	1763.30
744.02	1628.14
744.20	1687.53
744.38	1712.10
744.56	1679.33
744.74	1748.97
744.92	1677.29
745.10	1802.21
745.28	1841.12
745.46	1798.12
745.64	1656.81
745.82	1779.68
746.00	1673.19
746.18	1767.40
746.36	1685.48
746.54	1775.59
746.72	1765.35
746.90	1693.67
747.08	1755.11
747.26	1638.38
747.44	1753.06
747.62	1701.86
747.80	1665.00
747.98	1720.29
748.15	1697.77
748.33	1824.74
748.51	1681.38
748.69	1712.10
748.87	1640.42
749.05	1751.01
749.23	1787.88
749.41	1734.63
749.59	1705.96
749.77	1759.21
749.95	1697.77
750.13	1683.43
750.31	1738.73
750.49	1693.67
750.67	1820.64
750.85	1861.60
751.03	1675.24
751.20	1841.12
751.38	1714.15
751.56	1677.29
751.74	1701.86
751.92	1703.91
752.10	1652.71
752.28	1738.73
752.46	1644.52
752.64	1671.14
752.82	1681.38
753.00	1767.40
753.18	1744.87
753.35	1708.01
753.53	1734.63
753.71	1687.53
753.89	1691.62
754.07	1644.52
754.25	1810.40
754.43	1736.68
754.61	1617.90
754.79	1693.67
754.97	1726.44
755.14	1755.11
755.32	1640.42
755.50	1781.73
755.68	1722.34
755.86	1685.48
756.04	1730.53
756.22	1681.38
756.40	1769.44
756.57	1794.02
756.75	1732.58
756.93	1701.86
757.11	1724.39
757.29	1667.05
757.47	1705.96
757.65	1669.09
757.82	1621.99
758.00	1656.81
758.18	1656.81
758.36	1595.37
758.54	1839.08
758.72	1642.47
758.90	1783.78
759.07	1732.58
759.25	1632.23
759.43	1789.92
759.61	1630.18
759.79	2193.37
759.97	1814.50
760.15	1708.01
760.32	1722.34
760.50	1679.33
760.68	1849.32
760.86	1679.33
761.04	1765.35
761.22	1681.38
761.39	1734.63
761.57	1748.97
761.75	1673.19
761.93	1734.63
762.11	1714.15
762.28	1722.34
762.46	1667.05
762.64	1681.38
762.82	1646.57
763.00	1755.11
763.18	1849.32
763.35	1665.00
763.53	1771.49
763.71	1767.40
763.89	1705.96
764.07	1740.77
764.24	1763.30
764.42	1720.29
764.60	1689.57
764.78	1720.29
764.96	1738.73
765.13	1771.49
765.31	1716.20
765.49	1837.03
765.67	1617.90
765.84	1617.90
766.02	1710.05
766.20	1658.85
766.38	1685.48
766.56	1679.33
766.73	1728.49
766.91	1728.49
767.09	1679.33
767.27	1789.92
767.44	1681.38
767.62	1732.58
767.80	1763.30
767.98	1679.33
768.15	1744.87
768.33	1746.92
768.51	1708.01
768.69	1722.34
768.87	1708.01
769.04	1718.25
769.22	1902.56
769.40	1785.83
769.58	1822.69
769.75	1628.14
769.93	1779.68
770.11	1705.96
770.28	1660.90
770.46	1746.92
770.64	1765.35
770.82	1710.05
770.99	1705.96
771.17	1734.63
771.35	1660.90
771.53	1699.81
771.70	1654.76
771.88	1744.87
772.06	1761.25
772.23	1716.20
772.41	1759.21
772.59	1697.77
772.77	1697.77
772.94	1658.85
773.12	1724.39
773.30	1660.90
773.47	1652.71
773.65	1722.34
773.83	1783.78
774.01	1701.86
774.18	1601.51
774.36	1689.57
774.54	1677.29
774.71	1701.86
774.89	1621.99
775.07	1703.91
775.24	1669.09
775.42	1628.14
775.60	1740.77
775.78	1677.29
775.95	1609.70
776.13	1644.52
776.31	1533.93
776.48	1708.01
776.66	1742.82
776.84	1716.20
777.01	1675.24
777.19	1628.14
777.37	1685.48
777.54	1783.78
777.72	1837.03
777.90	1685.48
778.07	1648.61
778.25	1918.95
778.43	1759.21
778.60	1634.28
778.78	1714.15
778.96	1832.93
779.13	1591.27
779.31	1800.16
779.49	1699.81
779.66	1656.81
779.84	1697.77
780.01	1763.30
780.19	1632.23
780.37	1773.54
780.54	1701.86
780.72	1691.62
780.90	1701.86
781.07	1710.05
781.25	1626.09
781.43	1701.86
781.60	1722.34
781.78	1740.77
781.95	1705.96
782.13	1724.39
782.31	1683.43
782.48	1650.66
782.66	1755.11
782.83	1824.74
783.01	1814.50
783.19	1726.44
783.36	1708.01
783.54	1619.94
783.72	1896.42
783.89	1683.43
784.07	1699.81
784.24	1777.64
784.42	1822.69
784.60	1746.92
784.77	1724.39
784.95	1634.28
785.12	1736.68
785.30	1783.78
785.47	1656.81
785.65	1656.81
785.83	1638.38
786.00	1644.52
786.18	1714.15
786.35	1681.38
786.53	1574.89
786.71	1716.20
786.88	1777.64
787.06	1703.91
787.23	1708.01
787.41	1615.85
787.58	1755.11
787.76	1669.09
787.94	1701.86
788.11	1695.72
788.29	1679.33
788.46	1718.25
788.64	1587.18
788.81	1624.04
788.99	1742.82
789.16	1677.29
789.34	1712.10
789.52	1708.01
789.69	1734.63
789.87	1665.00
790.04	1718.25
790.22	1615.85
790.39	1816.55
790.57	1632.23
790.74	1652.71
790.92	1660.90
791.09	1648.61
791.27	1710.05
791.44	1724.39
791.62	1753.06
791.79	1757.16
791.97	1789.92
792.15	1884.13
792.32	1744.87
792.50	1808.36
792.67	1800.16
792.85	1763.30
793.02	1779.68
793.20	1703.91
793.37	1628.14
793.55	1691.62
793.72	1615.85
793.90	1746.92
794.07	1759.21
794.25	1697.77
794.42	1710.05
794.60	1738.73
794.77	1675.24
794.95	1740.77
795.12	1736.68
795.30	1812.45
795.47	1570.79
795.65	1853.41
795.82	1781.73
796.00	1640.42
796.17	1751.01
796.34	1640.42
796.52	1716.20
796.69	1771.49
796.87	1763.30
797.04	1728.49
797.22	1763.30
797.39	1691.62
797.57	1695.72
797.74	1722.34
797.92	1847.27
798.09	1759.21
798.27	1791.97
798.44	1742.82
798.62	1677.29
798.79	1677.29
798.96	1652.71
799.14	1783.78
799.31	1824.74
799.49	1703.91
799.66	1675.24
799.84	1724.39
800.01	1583.08
800.19	1720.29
800.36	1609.70
800.53	1732.58
800.71	1728.49
800.88	1845.22
801.06	1632.23
801.23	1679.33
801.41	1636.33
801.58	1724.39
801.75	1621.99
801.93	1732.58
802.10	1722.34
802.28	1673.19
802.45	1724.39
802.63	1763.30
802.80	1824.74
802.97	1708.01
803.15	1656.81
803.32	1722.34
803.50	1673.19
803.67	1648.61
803.84	1671.14
804.02	1681.38
804.19	1673.19
804.37	1568.74
804.54	1675.24
804.71	1658.85
804.89	1742.82
805.06	1695.72
805.24	1671.14
805.41	1656.81
805.58	1748.97
805.76	1837.03
805.93	1734.63
806.10	1734.63
806.28	1683.43
806.45	1837.03
806.63	1767.40
806.80	1773.54
806.97	1775.59
807.15	1611.75
807.32	1746.92
807.49	1738.73
807.67	1675.24
807.84	1734.63
808.01	1619.94
808.19	1880.04
808.36	1863.65
808.54	1640.42
808.71	1642.47
808.88	1708.01
809.06	1787.88
809.23	1820.64
809.40	1710.05
809.58	1796.07
809.75	1763.30
809.92	1644.52
810.10	1851.36
810.27	1691.62
810.44	1673.19
810.62	1722.34
810.79	1703.91
810.96	1619.94
811.14	1705.96
811.31	1767.40
811.48	1742.82
811.66	1691.62
811.83	1777.64
812.00	1726.44
812.18	1722.34
812.35	1771.49
812.52	1730.53
812.69	1669.09
812.87	1769.44
813.04	1613.80
813.21	1683.43
813.39	1697.77
813.56	1656.81
813.73	1757.16
813.91	1656.81
814.08	1714.15
814.25	1726.44
814.42	1619.94
814.60	1734.63
814.77	1652.71
814.94	1738.73
815.12	1714.15
815.29	1765.35
815.46	1724.39
815.63	1705.96
815.81	1605.61
815.98	1701.86
816.15	1755.11
816.33	1640.42
816.50	1705.96
816.67	1742.82
816.84	1673.19
817.02	1689.57
817.19	1699.81
817.36	1689.57
817.53	1720.29
817.71	1611.75
817.88	1755.11
818.05	1755.11
818.22	1665.00
818.40	1802.21
818.57	1685.48
818.74	1740.77
818.91	1640.42
819.09	1759.21
819.26	1718.25
819.43	1601.51
819.60	1677.29
819.78	1759.21
819.95	1673.19
820.12	1673.19
820.29	1763.30
820.47	1728.49
820.64	1751.01
820.81	1552.36
820.98	1650.66
821.15	1665.00
821.33	1669.09
821.50	1591.27
821.67	1736.68
821.84	1619.94
822.02	1810.40
822.19	1777.64
822.36	1761.25
822.53	1628.14
822.70	1714.15
822.88	1705.96
823.05	1789.92
823.22	1779.68
823.39	1722.34
823.56	1677.29
823.74	1775.59
823.91	1603.56
824.08	1560.55
824.25	1636.33
824.42	1763.30
824.60	1636.33
824.77	1728.49
824.94	1619.94
825.11	1648.61
825.28	1634.28
825.45	1728.49
825.63	1716.20
825.80	1669.09
825.97	1730.53
826.14	1681.38
826.31	1562.60
826.48	1673.19
826.66	1687.53
826.83	1742.82
827.00	1658.85
827.17	1599.46
827.34	1714.15
827.51	1644.52
827.69	1767.40
827.86	1615.85
828.03	1697.77
828.20	1765.35
828.37	1605.61
828.54	1624.04
828.71	1703.91
828.89	1761.25
829.06	1722.34
829.23	1812.45
829.40	1570.79
829.57	1613.80
829.74	1748.97
829.91	1724.39
830.09	1681.38
830.26	1755.11
830.43	1794.02
830.60	1728.49
830.77	1714.15
830.94	1763.30
831.11	1753.06
831.28	1730.53
831.46	1722.34
831.63	1740.77
831.80	1712.10
831.97	1652.71
832.14	1650.66
832.31	1718.25
832.48	1687.53
832.65	1710.05
832.82	1712.10
832.99	1720.29
833.17	1615.85
833.34	1865.70
833.51	1710.05
833.68	1626.09
833.85	1744.87
834.02	1714.15
834.19	1720.29
834.36	1628.14
834.53	1726.44
834.70	1779.68
834.87	1775.59
835.04	1714.15
835.22	1658.85
835.39	1658.85
835.56	1617.90
835.73	1634.28
835.90	1763.30
836.07	1748.97
836.24	1787.88
836.41	1687.53
836.58	1675.24
836.75	1812.45
836.92	1705.96
837.09	1681.38
837.26	1736.68
837.43	1740.77
837.60	1746.92
837.77	1714.15
837.94	1806.31
838.12	1789.92
838.29	1779.68
838.46	1615.85
838.63	1730.53
838.80	1822.69
838.97	1751.01
839.14	1701.86
839.31	1705.96
839.48	1818.60
839.65	1658.85
839.82	1722.34
839.99	1724.39
840.16	1685.48
840.33	1652.71
840.50	1681.38
840.67	1570.79
840.84	1593.32
841.01	1722.34
841.18	1640.42
841.35	1720.29
841.52	1718.25
841.69	1839.08
841.86	1656.81
842.03	1687.53
842.20	1734.63
842.37	1656.81
842.54	1689.57
842.71	1710.05
842.88	1607.66
843.05	1800.16
843.22	1691.62
843.39	1757.16
843.56	1746.92
843.73	1660.90
843.90	1720.29
844.07	1728.49
844.24	1746.92
844.41	1775.59
844.58	1662.95
844.75	1667.05
844.92	1726.44
845.09	1701.86
845.26	1669.09
845.43	1787.88
845.60	1705.96
845.77	1791.97
845.94	1767.40
846.10	1685.48
846.27	1658.85
846.44	1656.81
846.61	1691.62
846.78	1718.25
846.95	1816.55
847.12	1683.43
847.29	1675.24
847.46	1568.74
847.63	1730.53
847.80	1665.00
847.97	1783.78
848.14	1906.66
848.31	1683.43
848.48	1675.24
848.65	1708.01
848.82	1658.85
848.98	1839.08
849.15	1695.72
849.32	1730.53
849.49	1710.05
849.66	1757.16
849.83	1701.86
850.00	1554.41
850.17	1775.59
850.34	1648.61
850.51	1658.85
850.68	1658.85
850.85	1769.44
851.01	1703.91
851.18	1753.06
851.35	1705.96
851.52	1722.34
851.69	1767.40
851.86	1609.70
852.03	1675.24
852.20	1695.72
852.37	1697.77
852.53	1677.29
852.70	1705.96
852.87	1632.23
853.04	1773.54
853.21	1699.81
853.38	1724.39
853.55	1791.97
853.72	1730.53
853.89	1650.66
854.05	1665.00
854.22	1685.48
854.39	1681.38
854.56	1679.33
854.73	1781.73
854.90	1716.20
855.07	1816.55
855.23	1708.01
855.40	1714.15
855.57	1683.43
855.74	1558.50
855.91	1877.99
856.08	1630.18
856.25	1603.56
856.41	1687.53
856.58	1722.34
856.75	1687.53
856.92	1646.57
857.09	1775.59
857.26	1669.09
857.42	1652.71
857.59	1683.43
857.76	1716.20
857.93	1746.92
858.10	1716.20
858.27	1665.00
858.43	1708.01
858.60	1712.10
858.77	1656.81
858.94	1624.04
859.11	1777.64
859.27	1716.20
859.44	1744.87
859.61	1834.98
859.78	1763.30
859.95	1718.25
860.12	1667.05
860.28	1830.88
860.45	1859.56
860.62	1701.86
860.79	1703.91
860.95	1673.19
861.12	1697.77
861.29	1658.85
861.46	1748.97
861.63	1710.05
861.79	1724.39
861.96	1648.61
862.13	1697.77
862.30	1757.16
862.47	1660.90
862.63	1665.00
862.80	1783.78
862.97	1751.01
863.14	1757.16
863.30	1724.39
863.47	1695.72
863.64	1812.45
863.81	1648.61
863.97	1703.91
864.14	1789.92
864.31	1640.42
864.48	1767.40
864.65	1677.29
864.81	1765.35
864.98	1748.97
865.15	1763.30
865.32	1644.52
865.48	1693.67
865.65	1826.79
865.82	1628.14
865.98	1726.44
866.15	1724.39
866.32	1632.23
866.49	1695.72
866.65	1746.92
866.82	1599.46
866.99	1665.00
867.16	1642.47
867.32	1673.19
867.49	1738.73
867.66	1648.61
867.83	1699.81
867.99	1605.61
868.16	1687.53
868.33	1603.56
868.49	1695.72
868.66	1771.49
868.83	1714.15
868.99	1724.39
869.16	1677.29
869.33	1738.73
869.50	1804.26
869.66	1765.35
869.83	1730.53
870.00	1642.47
870.16	1683.43
870.33	1656.81
870.50	1814.50
870.66	1744.87
870.83	1853.41
871.00	1685.48
871.17	1718.25
871.33	1751.01
871.50	1621.99
871.67	1712.10
871.83	1626.09
872.00	1757.16
872.17	1658.85
872.33	1832.93
872.50	1783.78
872.67	1716.20
872.83	1665.00
873.00	1701.86
873.17	1753.06
873.33	1724.39
873.50	1689.57
873.67	1714.15
873.83	1660.90
874.00	1728.49
874.16	1767.40
874.33	1755.11
874.50	1613.80
874.66	1687.53
874.83	1632.23
875.00	1697.77
875.16	1763.30
875.33	1751.01
875.50	1607.66
875.66	1662.95
875.83	1755.11
875.99	1761.25
876.16	1726.44
876.33	1665.00
876.49	1675.24
876.66	1728.49
876.83	1767.40
876.99	1587.18
877.16	1685.48
877.32	1665.00
877.49	1652.71
877.66	1755.11
877.82	1734.63
877.99	1775.59
878.15	1673.19
878.32	1753.06
878.49	1746.92
878.65	1667.05
878.82	1796.07
878.98	1679.33
879.15	1779.68
879.32	1755.11
879.48	1716.20
879.65	1658.85
879.81	1654.76
879.98	1667.05
880.15	1650.66
880.31	1708.01
880.48	1644.52
880.64	1687.53
880.81	1742.82
880.97	1849.32
881.14	1732.58
881.31	1669.09
881.47	1863.65
881.64	1738.73
881.80	1615.85
881.97	1644.52
882.13	1816.55
882.30	1744.87
882.47	1699.81
882.63	1609.70
882.80	1683.43
882.96	1630.18
883.13	1789.92
883.29	1685.48
883.46	1738.73
883.62	1789.92
883.79	1755.11
883.95	1738.73
884.12	1677.29
884.29	1695.72
884.45	1720.29
884.62	1710.05
884.78	1669.09
884.95	1804.26
885.11	1607.66
885.28	1716.20
885.44	1683.43
885.61	1695.72
885.77	1755.11
885.94	1791.97
886.10	1726.44
886.27	1693.67
886.43	1857.51
886.60	1808.36
886.76	1669.09
886.93	1673.19
887.09	1642.47
887.26	1654.76
887.42	1720.29
887.59	1724.39
887.75	1759.21
887.92	1818.60
888.08	1742.82
888.25	1779.68
888.41	1732.58
888.58	1662.95
888.74	1685.48
888.91	1714.15
>>>>>End Processed Spectral Data<<<<<
