SpectraSuite Data File
++++++++++++++++++++++++++++++++++++
Date: Wed May 04 18:44:15 CEST 2016
User: root
Dark Spectrum Present: No
Reference Spectrum Present: No
Number of Sampled Component Spectra: 1
Spectrometers: USB4C02835
Integration Time (usec): 100000 (USB4C02835)
Spectra Averaged: 1 (USB4C02835)
Boxcar Smoothing: 0 (USB4C02835)
Correct for Electrical Dark: No (USB4C02835)
Strobe/Lamp Enabled: No (USB4C02835)
Correct for Detector Non-linearity: No (USB4C02835)
Correct for Stray Light: No (USB4C02835)
Number of Pixels in Processed Spectrum: 3648
>>>>>Begin Processed Spectral Data<<<<<
177.47	1501.16
177.69	1501.16
177.91	1501.16
178.13	1478.63
178.36	1538.02
178.58	1689.57
178.80	1763.30
179.02	1644.52
179.24	1634.28
179.46	1724.39
179.68	1705.96
179.90	1724.39
180.13	1742.82
180.35	1665.00
180.57	1583.08
180.79	1783.78
181.01	1703.91
181.23	1785.83
181.45	1800.16
181.67	1732.58
181.90	1806.31
182.12	1667.05
182.34	1665.00
182.56	1746.92
182.78	1646.57
183.00	1652.71
183.22	1691.62
183.44	1644.52
183.66	1910.75
183.89	1761.25
184.11	1710.05
184.33	1773.54
184.55	1806.31
184.77	1736.68
184.99	1751.01
185.21	1697.77
185.43	1855.46
185.65	1726.44
185.87	1738.73
186.10	1822.69
186.32	1894.37
186.54	1779.68
186.76	1718.25
186.98	1742.82
187.20	1734.63
187.42	1683.43
187.64	1742.82
187.86	1736.68
188.08	1767.40
188.30	1665.00
188.52	1665.00
188.75	1746.92
188.97	1843.17
189.19	1679.33
189.41	1705.96
189.63	1796.07
189.85	1728.49
190.07	1712.10
190.29	1722.34
190.51	1705.96
190.73	1615.85
190.95	1810.40
191.17	1736.68
191.39	1601.51
191.61	1722.34
191.84	1640.42
192.06	1689.57
192.28	1603.56
192.50	1943.52
192.72	1755.11
192.94	1677.29
193.16	1693.67
193.38	1716.20
193.60	1591.27
193.82	1677.29
194.04	1724.39
194.26	1734.63
194.48	1687.53
194.70	1740.77
194.92	1665.00
195.14	1714.15
195.36	1755.11
195.58	1773.54
195.80	1638.38
196.02	1681.38
196.24	1683.43
196.46	1720.29
196.69	1603.56
196.91	1818.60
197.13	1726.44
197.35	1583.08
197.57	1746.92
197.79	1716.20
198.01	1658.85
198.23	1681.38
198.45	1802.21
198.67	1609.70
198.89	1677.29
199.11	1783.78
199.33	1624.04
199.55	1681.38
199.77	1761.25
199.99	1775.59
200.21	1667.05
200.43	1761.25
200.65	1667.05
200.87	1636.33
201.09	1646.57
201.31	1716.20
201.53	1753.06
201.75	1730.53
201.97	1683.43
202.19	1697.77
202.41	1728.49
202.63	1822.69
202.85	1779.68
203.07	1708.01
203.29	1636.33
203.51	1632.23
203.73	1695.72
203.95	1810.40
204.17	1730.53
204.39	1681.38
204.61	1681.38
204.83	1697.77
205.05	1804.26
205.27	1753.06
205.49	1828.84
205.71	1732.58
205.93	1611.75
206.15	1662.95
206.37	1775.59
206.59	1687.53
206.81	1669.09
207.03	1726.44
207.25	1621.99
207.47	1716.20
207.69	1697.77
207.91	1726.44
208.13	1736.68
208.34	1656.81
208.56	1703.91
208.78	1748.97
209.00	1683.43
209.22	1730.53
209.44	1626.09
209.66	1652.71
209.88	1669.09
210.10	1734.63
210.32	1751.01
210.54	1785.83
210.76	1697.77
210.98	1716.20
211.20	1632.23
211.42	1677.29
211.64	1828.84
211.86	1718.25
212.08	1783.78
212.30	1662.95
212.52	1767.40
212.74	1671.14
212.96	1759.21
213.17	1763.30
213.39	1740.77
213.61	1753.06
213.83	1753.06
214.05	1742.82
214.27	1746.92
214.49	1658.85
214.71	1644.52
214.93	1728.49
215.15	1767.40
215.37	1736.68
215.59	1554.41
215.81	1761.25
216.03	1697.77
216.24	1755.11
216.46	1701.86
216.68	1665.00
216.90	1744.87
217.12	1787.88
217.34	1755.11
217.56	1771.49
217.78	1789.92
218.00	1724.39
218.22	1667.05
218.44	1736.68
218.66	1718.25
218.87	1877.99
219.09	1628.14
219.31	1740.77
219.53	1773.54
219.75	1662.95
219.97	1765.35
220.19	1740.77
220.41	1642.47
220.63	1775.59
220.85	1763.30
221.06	1718.25
221.28	1753.06
221.50	1755.11
221.72	1718.25
221.94	1773.54
222.16	1779.68
222.38	1740.77
222.60	1796.07
222.82	1763.30
223.03	1757.16
223.25	1613.80
223.47	1755.11
223.69	1789.92
223.91	1718.25
224.13	1634.28
224.35	1673.19
224.57	1746.92
224.78	1687.53
225.00	1595.37
225.22	1708.01
225.44	1726.44
225.66	1734.63
225.88	1701.86
226.10	1693.67
226.32	1740.77
226.53	1753.06
226.75	1626.09
226.97	1759.21
227.19	1691.62
227.41	1621.99
227.63	1634.28
227.85	1605.61
228.06	1691.62
228.28	1724.39
228.50	1757.16
228.72	1685.48
228.94	1662.95
229.16	1660.90
229.37	1656.81
229.59	1724.39
229.81	1748.97
230.03	1611.75
230.25	1665.00
230.47	1624.04
230.69	1601.51
230.90	1710.05
231.12	1687.53
231.34	1744.87
231.56	1730.53
231.78	1617.90
232.00	1683.43
232.21	1669.09
232.43	1730.53
232.65	1660.90
232.87	1689.57
233.09	1681.38
233.30	1621.99
233.52	1716.20
233.74	1740.77
233.96	1728.49
234.18	1705.96
234.40	1718.25
234.61	1789.92
234.83	1644.52
235.05	1654.76
235.27	1796.07
235.49	1712.10
235.70	1703.91
235.92	1730.53
236.14	1726.44
236.36	1744.87
236.58	1613.80
236.79	1734.63
237.01	1738.73
237.23	1722.34
237.45	1763.30
237.67	1673.19
237.88	1665.00
238.10	1787.88
238.32	1671.14
238.54	1693.67
238.76	1679.33
238.97	1619.94
239.19	1609.70
239.41	1718.25
239.63	1769.44
239.85	1660.90
240.06	1624.04
240.28	1667.05
240.50	1820.64
240.72	1814.50
240.93	1722.34
241.15	1705.96
241.37	1681.38
241.59	1765.35
241.81	1734.63
242.02	1652.71
242.24	1646.57
242.46	1804.26
242.68	1624.04
242.89	1730.53
243.11	1744.87
243.33	1697.77
243.55	1740.77
243.76	1785.83
243.98	1654.76
244.20	1718.25
244.42	1730.53
244.64	1695.72
244.85	1578.98
245.07	1632.23
245.29	1753.06
245.51	1697.77
245.72	1771.49
245.94	1812.45
246.16	1718.25
246.38	1777.64
246.59	1630.18
246.81	1673.19
247.03	1640.42
247.24	1589.22
247.46	1667.05
247.68	1732.58
247.90	1689.57
248.11	1671.14
248.33	1791.97
248.55	1691.62
248.77	1730.53
248.98	1742.82
249.20	1816.55
249.42	1710.05
249.64	1681.38
249.85	1681.38
250.07	1693.67
250.29	1775.59
250.50	1687.53
250.72	1638.38
250.94	1724.39
251.16	1841.12
251.37	1769.44
251.59	1746.92
251.81	1695.72
252.02	1824.74
252.24	1732.58
252.46	1832.93
252.68	1701.86
252.89	1722.34
253.11	1599.46
253.33	1820.64
253.54	1765.35
253.76	1619.94
253.98	1665.00
254.20	1650.66
254.41	1624.04
254.63	1646.57
254.85	1652.71
255.06	1744.87
255.28	1769.44
255.50	1701.86
255.71	1646.57
255.93	1705.96
256.15	1609.70
256.36	1718.25
256.58	1705.96
256.80	1787.88
257.02	1730.53
257.23	1728.49
257.45	1701.86
257.67	1665.00
257.88	1660.90
258.10	1691.62
258.32	1787.88
258.53	1689.57
258.75	1810.40
258.97	1679.33
259.18	1685.48
259.40	1671.14
259.62	1804.26
259.83	1812.45
260.05	1703.91
260.27	1955.81
260.48	1767.40
260.70	1660.90
260.92	1660.90
261.13	1638.38
261.35	1685.48
261.57	1783.78
261.78	1658.85
262.00	1671.14
262.22	1722.34
262.43	1652.71
262.65	1658.85
262.86	1697.77
263.08	1751.01
263.30	1712.10
263.51	1662.95
263.73	1634.28
263.95	1767.40
264.16	1685.48
264.38	1646.57
264.60	1630.18
264.81	1652.71
265.03	1744.87
265.25	1708.01
265.46	1613.80
265.68	1753.06
265.89	1767.40
266.11	1677.29
266.33	1755.11
266.54	1830.88
266.76	1714.15
266.98	1777.64
267.19	1837.03
267.41	1789.92
267.62	1701.86
267.84	1595.37
268.06	1736.68
268.27	1736.68
268.49	1722.34
268.70	1802.21
268.92	1667.05
269.14	1767.40
269.35	1599.46
269.57	1759.21
269.79	1746.92
270.00	1628.14
270.22	1763.30
270.43	1683.43
270.65	1662.95
270.87	1740.77
271.08	1705.96
271.30	1787.88
271.51	1701.86
271.73	1708.01
271.95	1794.02
272.16	1708.01
272.38	1677.29
272.59	1642.47
272.81	1724.39
273.02	1736.68
273.24	1726.44
273.46	1746.92
273.67	1568.74
273.89	1683.43
274.10	1677.29
274.32	1738.73
274.54	1683.43
274.75	1755.11
274.97	1697.77
275.18	1775.59
275.40	1779.68
275.61	1667.05
275.83	1755.11
276.05	1656.81
276.26	1658.85
276.48	1726.44
276.69	1675.24
276.91	1665.00
277.12	1783.78
277.34	1775.59
277.55	1742.82
277.77	1736.68
277.99	1697.77
278.20	1638.38
278.42	1658.85
278.63	1689.57
278.85	1693.67
279.06	1636.33
279.28	1705.96
279.49	1800.16
279.71	1740.77
279.93	1687.53
280.14	1673.19
280.36	1677.29
280.57	1828.84
280.79	1732.58
281.00	1734.63
281.22	1626.09
281.43	1712.10
281.65	1566.70
281.86	1640.42
282.08	1697.77
282.29	1841.12
282.51	1642.47
282.73	1599.46
282.94	1679.33
283.16	1773.54
283.37	1771.49
283.59	1632.23
283.80	1785.83
284.02	1757.16
284.23	1734.63
284.45	1665.00
284.66	1611.75
284.88	1681.38
285.09	1796.07
285.31	1728.49
285.52	1677.29
285.74	1658.85
285.95	1679.33
286.17	1759.21
286.38	1730.53
286.60	1751.01
286.81	1681.38
287.03	1644.52
287.24	1687.53
287.46	1748.97
287.67	1642.47
287.89	1826.79
288.10	1687.53
288.32	1783.78
288.53	1781.73
288.75	1603.56
288.96	1677.29
289.18	1689.57
289.39	1673.19
289.61	1755.11
289.82	1744.87
290.04	1826.79
290.25	1624.04
290.47	1667.05
290.68	1669.09
290.90	1748.97
291.11	1638.38
291.33	1732.58
291.54	1685.48
291.76	1642.47
291.97	1667.05
292.18	1640.42
292.40	1619.94
292.61	1660.90
292.83	1859.56
293.04	1691.62
293.26	1775.59
293.47	1759.21
293.69	1681.38
293.90	1636.33
294.12	1740.77
294.33	1677.29
294.55	1673.19
294.76	1740.77
294.97	1759.21
295.19	1824.74
295.40	1599.46
295.62	1693.67
295.83	1685.48
296.05	1710.05
296.26	1810.40
296.48	1624.04
296.69	1638.38
296.90	1646.57
297.12	1751.01
297.33	1779.68
297.55	1665.00
297.76	1718.25
297.98	1757.16
298.19	1675.24
298.41	1683.43
298.62	1714.15
298.83	1751.01
299.05	1722.34
299.26	1587.18
299.48	1724.39
299.69	1660.90
299.90	1712.10
300.12	1660.90
300.33	1726.44
300.55	1736.68
300.76	1689.57
300.98	1587.18
301.19	1683.43
301.40	1646.57
301.62	1691.62
301.83	1771.49
302.05	1716.20
302.26	1665.00
302.47	1685.48
302.69	1703.91
302.90	1777.64
303.12	1591.27
303.33	1746.92
303.54	1820.64
303.76	1742.82
303.97	1753.06
304.19	1763.30
304.40	1701.86
304.61	1773.54
304.83	1857.51
305.04	1718.25
305.26	1765.35
305.47	1607.66
305.68	1710.05
305.90	1609.70
306.11	1722.34
306.33	1656.81
306.54	1648.61
306.75	1624.04
306.97	1646.57
307.18	1638.38
307.39	1712.10
307.61	1806.31
307.82	1632.23
308.04	1726.44
308.25	1654.76
308.46	1716.20
308.68	1738.73
308.89	1705.96
309.10	1789.92
309.32	1789.92
309.53	1714.15
309.74	1714.15
309.96	1673.19
310.17	1763.30
310.39	1648.61
310.60	1710.05
310.81	1814.50
311.03	1638.38
311.24	1787.88
311.45	1703.91
311.67	1820.64
311.88	1748.97
312.09	1691.62
312.31	1728.49
312.52	1689.57
312.73	1695.72
312.95	1677.29
313.16	1695.72
313.37	1810.40
313.59	1720.29
313.80	1789.92
314.01	1779.68
314.23	1691.62
314.44	1652.71
314.65	1642.47
314.87	1601.51
315.08	1708.01
315.29	1708.01
315.51	1705.96
315.72	1621.99
315.93	1834.98
316.15	1726.44
316.36	1681.38
316.57	1724.39
316.79	1703.91
317.00	1718.25
317.21	1724.39
317.43	1671.14
317.64	1720.29
317.85	1722.34
318.07	1667.05
318.28	1824.74
318.49	1816.55
318.70	2023.39
318.92	1849.32
319.13	1861.60
319.34	1890.28
319.56	1816.55
319.77	1843.17
319.98	1824.74
320.20	1837.03
320.41	1742.82
320.62	1783.78
320.83	1710.05
321.05	1888.23
321.26	1751.01
321.47	1665.00
321.69	1763.30
321.90	1624.04
322.11	1615.85
322.32	1685.48
322.54	1759.21
322.75	1695.72
322.96	1837.03
323.18	1587.18
323.39	1628.14
323.60	1632.23
323.81	1804.26
324.03	1681.38
324.24	1705.96
324.45	1708.01
324.66	1613.80
324.88	1724.39
325.09	1800.16
325.30	1662.95
325.52	1687.53
325.73	1771.49
325.94	1691.62
326.15	1660.90
326.37	1703.91
326.58	1730.53
326.79	1794.02
327.00	1681.38
327.22	1783.78
327.43	1671.14
327.64	1603.56
327.85	1806.31
328.07	1691.62
328.28	1798.12
328.49	1652.71
328.70	1730.53
328.92	1726.44
329.13	1667.05
329.34	1798.12
329.55	1808.36
329.76	1773.54
329.98	1701.86
330.19	1800.16
330.40	1751.01
330.61	1736.68
330.83	1734.63
331.04	1783.78
331.25	1677.29
331.46	1718.25
331.68	1671.14
331.89	1769.44
332.10	1677.29
332.31	1634.28
332.52	1689.57
332.74	1761.25
332.95	1632.23
333.16	1677.29
333.37	1759.21
333.58	1679.33
333.80	1724.39
334.01	1681.38
334.22	1783.78
334.43	1654.76
334.64	1687.53
334.86	1636.33
335.07	1662.95
335.28	1828.84
335.49	1650.66
335.70	1751.01
335.92	1777.64
336.13	1810.40
336.34	1736.68
336.55	1699.81
336.76	1726.44
336.98	1621.99
337.19	1787.88
337.40	1755.11
337.61	1863.65
337.82	1720.29
338.04	1851.36
338.25	1634.28
338.46	1714.15
338.67	1705.96
338.88	1642.47
339.09	1716.20
339.31	1660.90
339.52	1703.91
339.73	1693.67
339.94	1789.92
340.15	1751.01
340.36	1640.42
340.58	1710.05
340.79	1673.19
341.00	1781.73
341.21	1613.80
341.42	1816.55
341.63	1687.53
341.85	1746.92
342.06	1755.11
342.27	1689.57
342.48	1744.87
342.69	1720.29
342.90	1736.68
343.12	1724.39
343.33	1683.43
343.54	1832.93
343.75	1828.84
343.96	1697.77
344.17	1728.49
344.38	1726.44
344.60	1667.05
344.81	1576.94
345.02	1724.39
345.23	1687.53
345.44	1759.21
345.65	1740.77
345.86	1738.73
346.07	1814.50
346.29	1683.43
346.50	1814.50
346.71	1718.25
346.92	1771.49
347.13	1810.40
347.34	1716.20
347.55	1695.72
347.76	1746.92
347.98	1636.33
348.19	1722.34
348.40	1867.75
348.61	1662.95
348.82	1765.35
349.03	1761.25
349.24	1746.92
349.45	1820.64
349.66	1679.33
349.88	1744.87
350.09	1693.67
350.30	1851.36
350.51	1820.64
350.72	1705.96
350.93	1730.53
351.14	1677.29
351.35	1816.55
351.56	1683.43
351.77	1738.73
351.99	1697.77
352.20	1826.79
352.41	1759.21
352.62	1601.51
352.83	1673.19
353.04	1785.83
353.25	1687.53
353.46	1753.06
353.67	1689.57
353.88	1556.46
354.09	1734.63
354.30	1667.05
354.52	1705.96
354.73	1734.63
354.94	1677.29
355.15	1656.81
355.36	1730.53
355.57	1699.81
355.78	1791.97
355.99	1718.25
356.20	1761.25
356.41	1816.55
356.62	1681.38
356.83	1683.43
357.04	1783.78
357.25	1681.38
357.46	1695.72
357.68	1570.79
357.89	1687.53
358.10	1708.01
358.31	1683.43
358.52	1705.96
358.73	1648.61
358.94	1699.81
359.15	1734.63
359.36	1748.97
359.57	1716.20
359.78	1658.85
359.99	1665.00
360.20	1671.14
360.41	1693.67
360.62	1697.77
360.83	1705.96
361.04	1703.91
361.25	1781.73
361.46	1820.64
361.67	1746.92
361.88	1804.26
362.09	1767.40
362.30	1699.81
362.51	1765.35
362.72	1630.18
362.93	1734.63
363.14	1746.92
363.35	1751.01
363.56	1624.04
363.78	1730.53
363.99	1710.05
364.20	1642.47
364.41	1746.92
364.62	1785.83
364.83	1804.26
365.04	1728.49
365.25	1697.77
365.46	1818.60
365.67	1691.62
365.88	1716.20
366.09	1787.88
366.30	1687.53
366.51	1667.05
366.72	1705.96
366.93	1656.81
367.14	1730.53
367.35	1761.25
367.56	1687.53
367.77	1832.93
367.98	1669.09
368.18	1726.44
368.39	1681.38
368.60	1730.53
368.81	1779.68
369.02	1773.54
369.23	1730.53
369.44	1640.42
369.65	1652.71
369.86	1736.68
370.07	1785.83
370.28	1646.57
370.49	1734.63
370.70	1824.74
370.91	1660.90
371.12	1607.66
371.33	1740.77
371.54	1736.68
371.75	1771.49
371.96	1640.42
372.17	1759.21
372.38	1695.72
372.59	1791.97
372.80	1679.33
373.01	1705.96
373.22	1708.01
373.43	1787.88
373.64	1601.51
373.85	1744.87
374.06	1757.16
374.26	1771.49
374.47	1769.44
374.68	1746.92
374.89	1791.97
375.10	1751.01
375.31	1708.01
375.52	1697.77
375.73	1693.67
375.94	1697.77
376.15	1832.93
376.36	1648.61
376.57	1597.42
376.78	1652.71
376.99	1710.05
377.20	1710.05
377.40	1691.62
377.61	1732.58
377.82	1636.33
378.03	1791.97
378.24	1773.54
378.45	1730.53
378.66	1726.44
378.87	1628.14
379.08	1650.66
379.29	1726.44
379.50	1779.68
379.71	1599.46
379.91	1757.16
380.12	1720.29
380.33	1716.20
380.54	1736.68
380.75	1697.77
380.96	1689.57
381.17	1654.76
381.38	1650.66
381.59	1734.63
381.80	1771.49
382.00	1839.08
382.21	1816.55
382.42	1898.47
382.63	1900.52
382.84	1751.01
383.05	1751.01
383.26	1880.04
383.47	1669.09
383.68	1669.09
383.88	1794.02
384.09	1775.59
384.30	1884.13
384.51	1654.76
384.72	1671.14
384.93	1650.66
385.14	1665.00
385.35	1828.84
385.55	1566.70
385.76	1789.92
385.97	1716.20
386.18	1634.28
386.39	1658.85
386.60	1667.05
386.81	1740.77
387.02	1669.09
387.22	1632.23
387.43	1796.07
387.64	1810.40
387.85	1888.23
388.06	2254.81
388.27	4818.87
388.48	9179.00
388.68	11773.77
388.89	13438.77
389.10	14194.47
389.31	11919.18
389.52	9529.20
389.73	8619.90
389.93	7831.43
390.14	7309.20
390.35	6662.04
390.56	5963.68
390.77	5023.67
390.98	3905.48
391.18	3069.91
391.39	2279.39
391.60	1914.85
391.81	1824.74
392.02	1689.57
392.23	1859.56
392.43	1751.01
392.64	1886.18
392.85	1742.82
393.06	1806.31
393.27	1642.47
393.47	1740.77
393.68	1767.40
393.89	1714.15
394.10	1712.10
394.31	1628.14
394.52	1671.14
394.72	1699.81
394.93	1837.03
395.14	1591.27
395.35	1669.09
395.56	1685.48
395.76	1769.44
395.97	1796.07
396.18	1826.79
396.39	1910.75
396.60	2066.40
396.80	2009.06
397.01	1908.71
397.22	1853.41
397.43	1841.12
397.64	1705.96
397.84	1837.03
398.05	1900.52
398.26	1779.68
398.47	1877.99
398.67	1834.98
398.88	1679.33
399.09	1773.54
399.30	1710.05
399.51	1734.63
399.71	1685.48
399.92	1689.57
400.13	1804.26
400.34	1716.20
400.54	1751.01
400.75	1890.28
400.96	1716.20
401.17	1787.88
401.37	1671.14
401.58	1613.80
401.79	1763.30
402.00	1804.26
402.21	2023.39
402.41	2111.46
402.62	2029.54
402.83	2078.69
403.04	2215.90
403.24	1996.77
403.45	1904.61
403.66	1976.29
403.87	1898.47
404.07	1949.67
404.28	1980.39
404.49	1943.52
404.70	1832.93
404.90	1808.36
405.11	1730.53
405.32	1826.79
405.52	1703.91
405.73	1654.76
405.94	1718.25
406.15	1773.54
406.35	1769.44
406.56	1824.74
406.77	1714.15
406.98	1675.24
407.18	1654.76
407.39	1742.82
407.60	1693.67
407.80	1681.38
408.01	1660.90
408.22	1689.57
408.43	1695.72
408.63	1746.92
408.84	1738.73
409.05	1791.97
409.25	1617.90
409.46	1673.19
409.67	1746.92
409.88	1671.14
410.08	1748.97
410.29	1624.04
410.50	1714.15
410.70	1773.54
410.91	1652.71
411.12	1728.49
411.32	1734.63
411.53	1648.61
411.74	1785.83
411.95	1865.70
412.15	1800.16
412.36	1851.36
412.57	1812.45
412.77	1802.21
412.98	1787.88
413.19	1718.25
413.39	1765.35
413.60	1732.58
413.81	1802.21
414.01	1724.39
414.22	1761.25
414.43	1755.11
414.63	1722.34
414.84	1812.45
415.05	1816.55
415.25	1634.28
415.46	1820.64
415.67	1662.95
415.87	1701.86
416.08	1693.67
416.29	1701.86
416.49	1726.44
416.70	1687.53
416.91	1703.91
417.11	1781.73
417.32	1744.87
417.53	1687.53
417.73	1763.30
417.94	1642.47
418.15	1660.90
418.35	1665.00
418.56	1712.10
418.77	1837.03
418.97	1738.73
419.18	1724.39
419.38	1535.98
419.59	1669.09
419.80	1730.53
420.00	1646.57
420.21	1771.49
420.42	1734.63
420.62	1679.33
420.83	1701.86
421.04	1744.87
421.24	1675.24
421.45	1736.68
421.65	1765.35
421.86	1722.34
422.07	1685.48
422.27	1697.77
422.48	1820.64
422.69	1656.81
422.89	1703.91
423.10	1691.62
423.30	1632.23
423.51	1732.58
423.72	1662.95
423.92	1724.39
424.13	1638.38
424.33	1691.62
424.54	1738.73
424.75	1640.42
424.95	1859.56
425.16	1787.88
425.36	1642.47
425.57	1751.01
425.78	1705.96
425.98	1673.19
426.19	1736.68
426.39	1669.09
426.60	1689.57
426.81	1763.30
427.01	1810.40
427.22	1583.08
427.42	1650.66
427.63	1687.53
427.83	1683.43
428.04	1826.79
428.25	1820.64
428.45	1843.17
428.66	1787.88
428.86	1662.95
429.07	1732.58
429.28	1583.08
429.48	1718.25
429.69	1697.77
429.89	1687.53
430.10	1742.82
430.30	1757.16
430.51	1761.25
430.71	1697.77
430.92	1681.38
431.13	1710.05
431.33	1697.77
431.54	1781.73
431.74	1791.97
431.95	1837.03
432.15	1701.86
432.36	1732.58
432.56	1734.63
432.77	1755.11
432.98	1777.64
433.18	1730.53
433.39	1726.44
433.59	1759.21
433.80	1859.56
434.00	1789.92
434.21	1703.91
434.41	1658.85
434.62	1839.08
434.82	1689.57
435.03	1636.33
435.23	1787.88
435.44	1550.31
435.64	1736.68
435.85	1779.68
436.06	1738.73
436.26	1789.92
436.47	1687.53
436.67	1685.48
436.88	1685.48
437.08	1781.73
437.29	1832.93
437.49	1744.87
437.70	1751.01
437.90	1652.71
438.11	1875.94
438.31	1861.60
438.52	1910.75
438.72	1945.57
438.93	1964.00
439.13	1828.84
439.34	1818.60
439.54	1738.73
439.75	1826.79
439.95	1812.45
440.16	1746.92
440.36	1804.26
440.57	1787.88
440.77	1871.84
440.98	1783.78
441.18	1705.96
441.39	1748.97
441.59	1658.85
441.80	1824.74
442.00	1775.59
442.21	1816.55
442.41	1585.13
442.62	1724.39
442.82	1699.81
443.02	1736.68
443.23	1765.35
443.43	1710.05
443.64	1734.63
443.84	1771.49
444.05	1820.64
444.25	1775.59
444.46	1816.55
444.66	1765.35
444.87	1861.60
445.07	1597.42
445.28	1697.77
445.48	1804.26
445.69	1726.44
445.89	1902.56
446.09	1757.16
446.30	1986.53
446.50	2566.10
446.71	4212.67
446.91	5207.98
447.12	5734.31
447.32	6043.56
447.53	5302.19
447.73	4448.19
447.93	4067.27
448.14	3717.06
448.34	3459.02
448.55	3061.71
448.75	3047.38
448.96	2985.94
449.16	2619.35
449.36	2498.52
449.57	2158.56
449.77	1923.04
449.98	1740.77
450.18	1865.70
450.39	1738.73
450.59	1845.22
450.79	1703.91
451.00	1714.15
451.20	1775.59
451.41	1722.34
451.61	1820.64
451.81	1699.81
452.02	1742.82
452.22	1728.49
452.43	1683.43
452.63	1730.53
452.84	1765.35
453.04	1667.05
453.24	1687.53
453.45	1728.49
453.65	1697.77
453.86	1683.43
454.06	1816.55
454.26	1771.49
454.47	1611.75
454.67	1816.55
454.87	1730.53
455.08	1789.92
455.28	1834.98
455.49	1732.58
455.69	1673.19
455.89	1857.51
456.10	1732.58
456.30	1755.11
456.51	1736.68
456.71	1779.68
456.91	1781.73
457.12	1714.15
457.32	1697.77
457.52	1677.29
457.73	1849.32
457.93	1738.73
458.14	1742.82
458.34	1673.19
458.54	1693.67
458.75	1642.47
458.95	1746.92
459.15	1718.25
459.36	1798.12
459.56	1761.25
459.76	1871.84
459.97	1638.38
460.17	1773.54
460.37	1740.77
460.58	1718.25
460.78	1781.73
460.99	1654.76
461.19	1783.78
461.39	1730.53
461.60	1652.71
461.80	1783.78
462.00	1667.05
462.21	1763.30
462.41	1642.47
462.61	1626.09
462.82	1652.71
463.02	1769.44
463.22	1722.34
463.43	1861.60
463.63	1730.53
463.83	1865.70
464.04	1730.53
464.24	1685.48
464.44	1724.39
464.64	1734.63
464.85	1822.69
465.05	1855.46
465.25	1738.73
465.46	1617.90
465.66	1771.49
465.86	1740.77
466.07	1648.61
466.27	1716.20
466.47	1628.14
466.68	1681.38
466.88	1877.99
467.08	1798.12
467.29	1744.87
467.49	1736.68
467.69	1806.31
467.89	1748.97
468.10	1728.49
468.30	1734.63
468.50	1839.08
468.71	1738.73
468.91	1658.85
469.11	1898.47
469.31	1683.43
469.52	1697.77
469.72	1796.07
469.92	1818.60
470.13	1726.44
470.33	1724.39
470.53	1855.46
470.73	2162.66
470.94	2523.10
471.14	2637.78
471.34	2910.16
471.54	2815.96
471.75	2539.48
471.95	2326.49
472.15	2205.66
472.36	2260.96
472.56	2158.56
472.76	2144.22
472.96	2058.21
473.17	1994.72
473.37	2099.17
473.57	1832.93
473.77	1867.75
473.98	1841.12
474.18	1716.20
474.38	1843.17
474.58	1716.20
474.79	1665.00
474.99	1718.25
475.19	1783.78
475.39	1628.14
475.60	1757.16
475.80	1738.73
476.00	1736.68
476.20	1671.14
476.41	1757.16
476.61	1849.32
476.81	1808.36
477.01	1665.00
477.21	1871.84
477.42	1808.36
477.62	1648.61
477.82	1791.97
478.02	1675.24
478.23	1677.29
478.43	1708.01
478.63	1695.72
478.83	1742.82
479.03	1595.37
479.24	1779.68
479.44	1843.17
479.64	1693.67
479.84	1611.75
480.04	1691.62
480.25	1796.07
480.45	1687.53
480.65	1744.87
480.85	1781.73
481.06	1667.05
481.26	1783.78
481.46	1699.81
481.66	1779.68
481.86	1662.95
482.06	1794.02
482.27	1642.47
482.47	1607.66
482.67	1683.43
482.87	1687.53
483.07	1794.02
483.28	1734.63
483.48	1632.23
483.68	1808.36
483.88	1689.57
484.08	1636.33
484.29	1591.27
484.49	1687.53
484.69	1648.61
484.89	1753.06
485.09	1814.50
485.29	1665.00
485.50	1765.35
485.70	1673.19
485.90	1787.88
486.10	1679.33
486.30	1759.21
486.50	1785.83
486.71	1720.29
486.91	1744.87
487.11	1789.92
487.31	1673.19
487.51	1726.44
487.71	1591.27
487.91	1660.90
488.12	1607.66
488.32	1566.70
488.52	1701.86
488.72	1632.23
488.92	1759.21
489.12	1824.74
489.32	1744.87
489.53	1783.78
489.73	1685.48
489.93	1832.93
490.13	1628.14
490.33	1683.43
490.53	1677.29
490.73	1757.16
490.94	1636.33
491.14	1748.97
491.34	1796.07
491.54	2109.41
491.74	2701.27
491.94	3125.20
492.14	3575.75
492.34	3590.09
492.54	3205.07
492.75	2721.75
492.95	2590.68
493.15	2437.08
493.35	2340.83
493.55	2318.30
493.75	2238.43
493.95	2226.14
494.15	2060.26
494.35	2052.06
494.56	1902.56
494.76	1779.68
494.96	1810.40
495.16	1796.07
495.36	1830.88
495.56	1740.77
495.76	1722.34
495.96	1708.01
496.16	1730.53
496.36	1759.21
496.56	1724.39
496.77	1724.39
496.97	1671.14
497.17	1734.63
497.37	1726.44
497.57	1675.24
497.77	1697.77
497.97	1720.29
498.17	1683.43
498.37	1763.30
498.57	1767.40
498.77	1791.97
498.97	1812.45
499.17	1826.79
499.38	1787.88
499.58	1800.16
499.78	1804.26
499.98	1853.41
500.18	1673.19
500.38	1679.33
500.58	1871.84
500.78	2365.40
500.98	4624.31
501.18	6737.82
501.38	8216.45
501.58	9113.46
501.78	8759.16
501.98	6918.04
502.18	5844.90
502.38	4898.74
502.58	4569.02
502.78	3991.49
502.98	3911.62
503.18	3821.51
503.38	3557.32
503.59	3141.58
503.79	2926.55
503.99	2627.54
504.19	2443.23
504.39	2326.49
504.59	2336.73
504.79	2303.96
504.99	2359.26
505.19	2037.73
505.39	2004.96
505.59	1988.58
505.79	1894.37
505.99	1853.41
506.19	1798.12
506.39	1927.14
506.59	1765.35
506.79	1783.78
506.99	1773.54
507.19	1800.16
507.39	1728.49
507.59	1703.91
507.79	1781.73
507.99	1771.49
508.19	1720.29
508.39	1720.29
508.59	1732.58
508.79	1802.21
508.99	1740.77
509.19	1759.21
509.39	1734.63
509.59	1660.90
509.79	1746.92
509.99	1759.21
510.19	1808.36
510.39	1787.88
510.59	1757.16
510.79	1687.53
510.99	1767.40
511.19	1728.49
511.39	1730.53
511.59	1847.27
511.79	1812.45
511.99	1775.59
512.19	1775.59
512.38	1691.62
512.58	1728.49
512.78	1671.14
512.98	1787.88
513.18	1832.93
513.38	1718.25
513.58	1808.36
513.78	1814.50
513.98	1677.29
514.18	1751.01
514.38	1693.67
514.58	1761.25
514.78	1669.09
514.98	1638.38
515.18	1734.63
515.38	1681.38
515.58	1849.32
515.78	1712.10
515.98	1755.11
516.18	1753.06
516.38	1697.77
516.57	1648.61
516.77	1732.58
516.97	1810.40
517.17	1712.10
517.37	1587.18
517.57	1841.12
517.77	1705.96
517.97	1644.52
518.17	1785.83
518.37	1697.77
518.57	1720.29
518.77	1742.82
518.97	1779.68
519.16	1794.02
519.36	1796.07
519.56	1642.47
519.76	1746.92
519.96	1726.44
520.16	1804.26
520.36	1607.66
520.56	1828.84
520.76	1689.57
520.96	1699.81
521.16	1746.92
521.35	1804.26
521.55	1767.40
521.75	1734.63
521.95	1669.09
522.15	1751.01
522.35	1656.81
522.55	1634.28
522.75	1787.88
522.95	1669.09
523.14	1665.00
523.34	1716.20
523.54	1675.24
523.74	1787.88
523.94	1777.64
524.14	1634.28
524.34	1802.21
524.54	1824.74
524.73	1738.73
524.93	1746.92
525.13	1734.63
525.33	1710.05
525.53	1912.80
525.73	1746.92
525.93	1806.31
526.13	1738.73
526.32	1763.30
526.52	1806.31
526.72	1851.36
526.92	1712.10
527.12	1673.19
527.32	1673.19
527.52	1734.63
527.71	1759.21
527.91	1718.25
528.11	1697.77
528.31	1632.23
528.51	1736.68
528.71	1765.35
528.90	1796.07
529.10	1806.31
529.30	1820.64
529.50	1630.18
529.70	1736.68
529.90	1689.57
530.09	1771.49
530.29	1738.73
530.49	1699.81
530.69	1947.62
530.89	1716.20
531.09	1773.54
531.28	1687.53
531.48	1804.26
531.68	1769.44
531.88	1771.49
532.08	1775.59
532.28	1734.63
532.47	1701.86
532.67	1732.58
532.87	1712.10
533.07	1673.19
533.27	1861.60
533.46	1761.25
533.66	1779.68
533.86	1689.57
534.06	1796.07
534.26	1730.53
534.45	1822.69
534.65	1847.27
534.85	1738.73
535.05	1730.53
535.25	1794.02
535.44	1697.77
535.64	1759.21
535.84	1701.86
536.04	1673.19
536.24	1689.57
536.43	1677.29
536.63	1734.63
536.83	1697.77
537.03	1746.92
537.22	1589.22
537.42	1591.27
537.62	1730.53
537.82	1681.38
538.02	1769.44
538.21	1755.11
538.41	1902.56
538.61	1773.54
538.81	1791.97
539.00	1767.40
539.20	1740.77
539.40	1650.66
539.60	1798.12
539.79	1847.27
539.99	1716.20
540.19	1689.57
540.39	1722.34
540.58	1736.68
540.78	1775.59
540.98	1728.49
541.18	1812.45
541.37	1806.31
541.57	1683.43
541.77	1845.22
541.97	1636.33
542.16	1609.70
542.36	1662.95
542.56	1794.02
542.76	1884.13
542.95	1746.92
543.15	1804.26
543.35	1730.53
543.54	1728.49
543.74	1740.77
543.94	1806.31
544.14	1779.68
544.33	1839.08
544.53	1673.19
544.73	1730.53
544.93	1720.29
545.12	1730.53
545.32	1732.58
545.52	1708.01
545.71	1601.51
545.91	1718.25
546.11	1751.01
546.30	1691.62
546.50	1755.11
546.70	1744.87
546.90	1714.15
547.09	1703.91
547.29	1744.87
547.49	1753.06
547.68	1748.97
547.88	1728.49
548.08	1771.49
548.27	2226.14
548.47	1742.82
548.67	1777.64
548.87	1759.21
549.06	1720.29
549.26	1806.31
549.46	1755.11
549.65	1718.25
549.85	1703.91
550.05	1800.16
550.24	1677.29
550.44	1736.68
550.64	1757.16
550.83	1714.15
551.03	1806.31
551.23	1834.98
551.42	1816.55
551.62	1705.96
551.82	1728.49
552.01	1732.58
552.21	1834.98
552.41	1775.59
552.60	1798.12
552.80	1816.55
553.00	1699.81
553.19	1742.82
553.39	1910.75
553.59	1638.38
553.78	1814.50
553.98	1722.34
554.17	1679.33
554.37	1800.16
554.57	1755.11
554.76	1714.15
554.96	1722.34
555.16	1810.40
555.35	1728.49
555.55	1771.49
555.75	1757.16
555.94	1794.02
556.14	1673.19
556.33	1748.97
556.53	1699.81
556.73	1703.91
556.92	1767.40
557.12	1806.31
557.32	1947.62
557.51	1849.32
557.71	1753.06
557.90	1855.46
558.10	1880.04
558.30	1732.58
558.49	1767.40
558.69	1738.73
558.88	1796.07
559.08	1834.98
559.28	1718.25
559.47	1738.73
559.67	1771.49
559.86	1855.46
560.06	1669.09
560.26	1701.86
560.45	1779.68
560.65	1699.81
560.84	1773.54
561.04	1671.14
561.24	1693.67
561.43	1648.61
561.63	1794.02
561.82	1767.40
562.02	1746.92
562.22	1796.07
562.41	1724.39
562.61	1718.25
562.80	1656.81
563.00	1865.70
563.19	1796.07
563.39	1712.10
563.59	1765.35
563.78	1671.14
563.98	1603.56
564.17	1640.42
564.37	1646.57
564.56	1748.97
564.76	1576.94
564.96	1810.40
565.15	1710.05
565.35	1882.08
565.54	1710.05
565.74	1746.92
565.93	1781.73
566.13	1718.25
566.32	1775.59
566.52	1820.64
566.71	1695.72
566.91	1824.74
567.11	1757.16
567.30	1765.35
567.50	1771.49
567.69	1800.16
567.89	1781.73
568.08	1669.09
568.28	1691.62
568.47	1634.28
568.67	1722.34
568.86	1681.38
569.06	1710.05
569.25	1718.25
569.45	1765.35
569.64	1710.05
569.84	1693.67
570.04	1816.55
570.23	1736.68
570.43	1744.87
570.62	1673.19
570.82	1818.60
571.01	1681.38
571.21	1712.10
571.40	1615.85
571.60	1751.01
571.79	1787.88
571.99	1773.54
572.18	1681.38
572.38	1746.92
572.57	1646.57
572.77	1757.16
572.96	1894.37
573.16	1740.77
573.35	1773.54
573.55	1820.64
573.74	1859.56
573.94	1769.44
574.13	1742.82
574.33	1824.74
574.52	1894.37
574.71	1736.68
574.91	1787.88
575.10	1734.63
575.30	1701.86
575.49	1673.19
575.69	1703.91
575.88	1847.27
576.08	1779.68
576.27	1894.37
576.47	1783.78
576.66	1923.04
576.86	1847.27
577.05	1812.45
577.25	1742.82
577.44	1904.61
577.64	1710.05
577.83	1869.80
578.02	1765.35
578.22	1816.55
578.41	1818.60
578.61	1771.49
578.80	1734.63
579.00	1794.02
579.19	1769.44
579.39	1722.34
579.58	1892.32
579.77	1767.40
579.97	1824.74
580.16	1781.73
580.36	1898.47
580.55	1796.07
580.75	1777.64
580.94	1783.78
581.13	1761.25
581.33	1877.99
581.52	1763.30
581.72	1859.56
581.91	1877.99
582.11	1820.64
582.30	1757.16
582.49	1828.84
582.69	1912.80
582.88	1771.49
583.08	1785.83
583.27	1859.56
583.47	1740.77
583.66	1732.58
583.85	1728.49
584.05	1759.21
584.24	1851.36
584.44	1742.82
584.63	1853.41
584.82	1939.43
585.02	1892.32
585.21	1824.74
585.41	1871.84
585.60	1910.75
585.79	1961.95
585.99	1957.86
586.18	1902.56
586.37	2152.42
586.57	3405.77
586.76	9719.66
586.96	26998.37
587.15	41989.50
587.34	51846.38
587.54	58182.79
587.73	55858.35
587.93	40140.19
588.12	29926.97
588.31	23928.47
588.51	20178.64
588.70	18458.34
588.89	17147.64
589.09	15410.96
589.28	13823.79
589.47	11548.50
589.67	9697.13
589.86	7468.94
590.06	5361.58
590.25	4067.27
590.44	3223.50
590.64	2668.50
590.83	2314.20
591.02	2086.88
591.22	1982.43
591.41	1902.56
591.60	1845.22
591.80	1961.95
591.99	1808.36
592.18	1742.82
592.38	1867.75
592.57	1783.78
592.76	1810.40
592.96	1767.40
593.15	1742.82
593.34	1773.54
593.54	1779.68
593.73	1804.26
593.92	1873.89
594.12	1847.27
594.31	1810.40
594.50	1914.85
594.70	1806.31
594.89	1923.04
595.08	1683.43
595.28	1830.88
595.47	1964.00
595.66	1849.32
595.86	1677.29
596.05	1804.26
596.24	1742.82
596.43	1898.47
596.63	1773.54
596.82	1775.59
597.01	1755.11
597.21	1796.07
597.40	1736.68
597.59	1777.64
597.79	1751.01
597.98	1853.41
598.17	1789.92
598.36	1798.12
598.56	1791.97
598.75	1673.19
598.94	1808.36
599.14	1837.03
599.33	1748.97
599.52	1791.97
599.71	1738.73
599.91	1794.02
600.10	1818.60
600.29	1826.79
600.48	1757.16
600.68	1708.01
600.87	1710.05
601.06	1652.71
601.26	1644.52
601.45	1798.12
601.64	1693.67
601.83	1794.02
602.03	1720.29
602.22	1724.39
602.41	1708.01
602.60	1910.75
602.80	1832.93
602.99	1859.56
603.18	1753.06
603.37	1791.97
603.57	1763.30
603.76	1861.60
603.95	1808.36
604.14	1685.48
604.34	1724.39
604.53	1755.11
604.72	1665.00
604.91	1753.06
605.10	1761.25
605.30	1675.24
605.49	1847.27
605.68	1753.06
605.87	1757.16
606.07	1736.68
606.26	1763.30
606.45	1718.25
606.64	1751.01
606.84	1794.02
607.03	1710.05
607.22	1900.52
607.41	1765.35
607.60	1818.60
607.80	1765.35
607.99	1820.64
608.18	1798.12
608.37	1708.01
608.56	1695.72
608.76	1771.49
608.95	1890.28
609.14	1841.12
609.33	1849.32
609.52	1906.66
609.72	1927.14
609.91	1785.83
610.10	1865.70
610.29	1859.56
610.48	1755.11
610.68	1740.77
610.87	1771.49
611.06	1800.16
611.25	1755.11
611.44	1880.04
611.63	1779.68
611.83	1865.70
612.02	1675.24
612.21	1824.74
612.40	1576.94
612.59	1652.71
612.79	1689.57
612.98	1769.44
613.17	1837.03
613.36	1658.85
613.55	1837.03
613.74	1812.45
613.93	1857.51
614.13	1849.32
614.32	1945.57
614.51	2017.25
614.70	1849.32
614.89	1806.31
615.08	1851.36
615.28	2131.94
615.47	1675.24
615.66	1806.31
615.85	1781.73
616.04	1828.84
616.23	1796.07
616.42	1855.46
616.62	1859.56
616.81	1804.26
617.00	1787.88
617.19	1755.11
617.38	1710.05
617.57	1708.01
617.76	1789.92
617.95	1802.21
618.15	1757.16
618.34	1822.69
618.53	1699.81
618.72	1779.68
618.91	1828.84
619.10	1845.22
619.29	1748.97
619.48	1744.87
619.68	1650.66
619.87	1714.15
620.06	1675.24
620.25	1742.82
620.44	1777.64
620.63	1769.44
620.82	1753.06
621.01	1824.74
621.20	1857.51
621.39	1744.87
621.59	1767.40
621.78	1746.92
621.97	1726.44
622.16	1851.36
622.35	1730.53
622.54	1771.49
622.73	1800.16
622.92	1646.57
623.11	1744.87
623.30	1683.43
623.49	1759.21
623.68	1675.24
623.88	1791.97
624.07	1736.68
624.26	1656.81
624.45	1691.62
624.64	1697.77
624.83	1724.39
625.02	1757.16
625.21	1763.30
625.40	1746.92
625.59	1771.49
625.78	1742.82
625.97	1873.89
626.16	1884.13
626.35	1763.30
626.54	1902.56
626.74	1865.70
626.93	1816.55
627.12	1716.20
627.31	1834.98
627.50	1773.54
627.69	1710.05
627.88	1728.49
628.07	1759.21
628.26	1638.38
628.45	1751.01
628.64	1699.81
628.83	1763.30
629.02	1703.91
629.21	1785.83
629.40	1781.73
629.59	1683.43
629.78	1755.11
629.97	1757.16
630.16	1708.01
630.35	1794.02
630.54	1785.83
630.73	1656.81
630.92	1763.30
631.11	1683.43
631.30	1748.97
631.49	1773.54
631.68	1722.34
631.87	1673.19
632.06	1675.24
632.25	1826.79
632.44	1742.82
632.63	1775.59
632.82	1789.92
633.01	1763.30
633.20	1787.88
633.39	1785.83
633.58	1796.07
633.77	1834.98
633.96	1787.88
634.15	1769.44
634.34	1804.26
634.53	1810.40
634.72	1681.38
634.91	1669.09
635.10	1808.36
635.29	1845.22
635.48	1759.21
635.67	1736.68
635.86	1609.70
636.05	1820.64
636.24	1689.57
636.43	1785.83
636.62	1751.01
636.81	1665.00
637.00	1679.33
637.19	1777.64
637.38	1751.01
637.57	1626.09
637.76	1800.16
637.95	1869.80
638.14	1765.35
638.33	1738.73
638.52	1837.03
638.71	1675.24
638.89	1734.63
639.08	1923.04
639.27	1798.12
639.46	1955.81
639.65	2230.24
639.84	2238.43
640.03	2381.79
640.22	2224.09
640.41	2475.99
640.60	2033.63
640.79	2080.74
640.98	1888.23
641.17	1892.32
641.36	1908.71
641.55	1884.13
641.74	1845.22
641.92	1724.39
642.11	1757.16
642.30	1755.11
642.49	1751.01
642.68	1736.68
642.87	1744.87
643.06	1767.40
643.25	1644.52
643.44	1673.19
643.63	1753.06
643.82	1724.39
644.00	1726.44
644.19	1712.10
644.38	1681.38
644.57	1775.59
644.76	1734.63
644.95	1726.44
645.14	1767.40
645.33	1718.25
645.52	1748.97
645.71	1617.90
645.89	1683.43
646.08	1669.09
646.27	1693.67
646.46	1808.36
646.65	1656.81
646.84	1742.82
647.03	1671.14
647.22	1701.86
647.40	1746.92
647.59	1687.53
647.78	1615.85
647.97	1748.97
648.16	1697.77
648.35	1812.45
648.54	1779.68
648.73	1701.86
648.91	1800.16
649.10	1667.05
649.29	1691.62
649.48	1535.98
649.67	1697.77
649.86	1730.53
650.05	1830.88
650.23	1869.80
650.42	1847.27
650.61	1923.04
650.80	1966.05
650.99	1912.80
651.18	1800.16
651.36	1830.88
651.55	1783.78
651.74	1789.92
651.93	1843.17
652.12	1828.84
652.31	1699.81
652.49	1714.15
652.68	1771.49
652.87	1929.19
653.06	1855.46
653.25	1783.78
653.44	1769.44
653.62	1820.64
653.81	1771.49
654.00	1718.25
654.19	1800.16
654.38	1916.90
654.56	1718.25
654.75	1720.29
654.94	1804.26
655.13	1763.30
655.32	1708.01
655.51	1689.57
655.69	1689.57
655.88	1787.88
656.07	1667.05
656.26	1740.77
656.45	1644.52
656.63	1660.90
656.82	1716.20
657.01	1822.69
657.20	1736.68
657.38	1773.54
657.57	1738.73
657.76	1683.43
657.95	1763.30
658.14	1699.81
658.32	1761.25
658.51	1648.61
658.70	1728.49
658.89	1796.07
659.08	1665.00
659.26	1849.32
659.45	1724.39
659.64	1832.93
659.83	1800.16
660.01	1978.34
660.20	1767.40
660.39	1877.99
660.58	1636.33
660.76	1763.30
660.95	1687.53
661.14	1710.05
661.33	1611.75
661.51	1705.96
661.70	1644.52
661.89	1787.88
662.08	1710.05
662.26	1685.48
662.45	1689.57
662.64	1906.66
662.83	1767.40
663.01	1640.42
663.20	1693.67
663.39	1808.36
663.58	1705.96
663.76	1716.20
663.95	1796.07
664.14	1650.66
664.32	1658.85
664.51	1658.85
664.70	1669.09
664.89	1830.88
665.07	1720.29
665.26	1771.49
665.45	1656.81
665.64	1738.73
665.82	1789.92
666.01	1787.88
666.20	1671.14
666.38	1820.64
666.57	1882.08
666.76	2275.29
666.95	4532.15
667.13	11480.91
667.32	18820.83
667.51	22410.92
667.69	25239.17
667.88	25446.01
668.07	19947.22
668.25	14229.29
668.44	11859.79
668.63	9957.22
668.81	8662.91
669.00	7690.12
669.19	7120.79
669.38	6219.68
669.56	5435.31
669.75	4526.01
669.94	3825.61
670.12	3104.72
670.31	2754.52
670.50	2369.50
670.68	2070.50
670.87	1982.43
671.06	1798.12
671.24	1849.32
671.43	1964.00
671.62	1871.84
671.80	1818.60
671.99	1841.12
672.18	1787.88
672.36	1763.30
672.55	1755.11
672.74	1738.73
672.92	1775.59
673.11	1796.07
673.29	1720.29
673.48	1816.55
673.67	1753.06
673.85	1753.06
674.04	1675.24
674.23	1738.73
674.41	1751.01
674.60	1681.38
674.79	1656.81
674.97	1669.09
675.16	1775.59
675.34	1755.11
675.53	1621.99
675.72	1714.15
675.90	1804.26
676.09	1689.57
676.28	1730.53
676.46	1617.90
676.65	1744.87
676.83	1669.09
677.02	1738.73
677.21	1654.76
677.39	1722.34
677.58	1675.24
677.77	1697.77
677.95	1763.30
678.14	1665.00
678.32	1751.01
678.51	1742.82
678.70	1800.16
678.88	1742.82
679.07	1716.20
679.25	1693.67
679.44	1679.33
679.63	1693.67
679.81	1785.83
680.00	1753.06
680.18	1710.05
680.37	1761.25
680.55	1720.29
680.74	1656.81
680.93	1578.98
681.11	1673.19
681.30	1718.25
681.48	1753.06
681.67	1669.09
681.85	1691.62
682.04	1673.19
682.23	1748.97
682.41	1742.82
682.60	1701.86
682.78	1665.00
682.97	1679.33
683.15	1746.92
683.34	1712.10
683.53	1759.21
683.71	1683.43
683.90	1791.97
684.08	1757.16
684.27	1738.73
684.45	1740.77
684.64	1818.60
684.82	1740.77
685.01	1765.35
685.19	1669.09
685.38	1857.51
685.57	1658.85
685.75	1644.52
685.94	1669.09
686.12	1724.39
686.31	1722.34
686.49	1832.93
686.68	1562.60
686.86	1734.63
687.05	1681.38
687.23	1730.53
687.42	1640.42
687.60	1658.85
687.79	1732.58
687.97	1804.26
688.16	1818.60
688.34	1789.92
688.53	1632.23
688.71	1755.11
688.90	1691.62
689.08	1667.05
689.27	1601.51
689.45	1746.92
689.64	1751.01
689.82	1765.35
690.01	1720.29
690.19	1732.58
690.38	1751.01
690.56	1755.11
690.75	1734.63
690.93	1673.19
691.12	1658.85
691.30	1742.82
691.49	1708.01
691.67	1681.38
691.86	1822.69
692.04	1677.29
692.23	1763.30
692.41	1710.05
692.60	1927.14
692.78	1880.04
692.97	1775.59
693.15	1818.60
693.34	1865.70
693.52	1804.26
693.71	1746.92
693.89	1687.53
694.08	1644.52
694.26	1830.88
694.44	1802.21
694.63	1824.74
694.81	1662.95
695.00	1736.68
695.18	1720.29
695.37	1798.12
695.55	1644.52
695.74	1746.92
695.92	1628.14
696.10	1822.69
696.29	1607.66
696.47	1763.30
696.66	1662.95
696.84	1665.00
697.03	1703.91
697.21	1812.45
697.40	2332.64
697.58	1697.77
697.76	1665.00
697.95	1761.25
698.13	1695.72
698.32	1740.77
698.50	1748.97
698.68	1742.82
698.87	1761.25
699.05	1845.22
699.24	1699.81
699.42	1665.00
699.61	1724.39
699.79	1732.58
699.97	1730.53
700.16	1609.70
700.34	1640.42
700.53	1755.11
700.71	1812.45
700.89	1779.68
701.08	1736.68
701.26	1751.01
701.45	2123.74
701.63	1626.09
701.81	1640.42
702.00	1720.29
702.18	1763.30
702.37	1832.93
702.55	1898.47
702.73	1906.66
702.92	1859.56
703.10	1939.43
703.28	1976.29
703.47	1816.55
703.65	1824.74
703.84	1877.99
704.02	1783.78
704.20	1898.47
704.39	1728.49
704.57	1710.05
704.75	1820.64
704.94	1796.07
705.12	1845.22
705.30	1859.56
705.49	2553.82
705.67	5513.13
705.86	13113.14
706.04	19005.15
706.22	22580.90
706.41	25417.34
706.59	24620.68
706.77	19085.02
706.96	13897.52
707.14	11841.36
707.32	10174.31
707.51	8814.46
707.69	7882.63
707.87	6842.26
708.06	5433.26
708.24	4390.84
708.42	3428.30
708.61	2811.86
708.79	2226.14
708.97	2131.94
709.16	1910.75
709.34	1875.94
709.52	1804.26
709.71	1791.97
709.89	1775.59
710.07	1734.63
710.26	1791.97
710.44	1771.49
710.62	1822.69
710.80	1740.77
710.99	1816.55
711.17	1798.12
711.35	1667.05
711.54	1718.25
711.72	1808.36
711.90	1728.49
712.09	1757.16
712.27	1619.94
712.45	1720.29
712.63	1753.06
712.82	1802.21
713.00	1681.38
713.18	1708.01
713.37	1783.78
713.55	1748.97
713.73	1710.05
713.91	1726.44
714.10	1687.53
714.28	1703.91
714.46	1677.29
714.65	1724.39
714.83	1730.53
715.01	1734.63
715.19	1648.61
715.38	1677.29
715.56	1708.01
715.74	1656.81
715.92	1701.86
716.11	1763.30
716.29	1640.42
716.47	1701.86
716.65	1742.82
716.84	1654.76
717.02	1789.92
717.20	1652.71
717.38	1716.20
717.57	1791.97
717.75	1720.29
717.93	1701.86
718.11	1777.64
718.30	1683.43
718.48	1720.29
718.66	1791.97
718.84	1841.12
719.03	1683.43
719.21	1673.19
719.39	1839.08
719.57	1808.36
719.75	1683.43
719.94	1742.82
720.12	1667.05
720.30	1763.30
720.48	1767.40
720.67	1738.73
720.85	1693.67
721.03	1685.48
721.21	1617.90
721.39	1822.69
721.58	1728.49
721.76	1806.31
721.94	1775.59
722.12	1683.43
722.30	1810.40
722.49	1673.19
722.67	1794.02
722.85	1708.01
723.03	1630.18
723.21	1746.92
723.40	1705.96
723.58	1851.36
723.76	1675.24
723.94	1832.93
724.12	1845.22
724.30	1847.27
724.49	1961.95
724.67	1710.05
724.85	1853.41
725.03	1705.96
725.21	1771.49
725.40	1765.35
725.58	1673.19
725.76	1812.45
725.94	1787.88
726.12	1695.72
726.30	1748.97
726.49	1656.81
726.67	1687.53
726.85	1724.39
727.03	1783.78
727.21	2328.54
727.39	3452.88
727.57	4978.61
727.76	5769.13
727.94	6225.82
728.12	6369.18
728.30	5719.98
728.48	4437.95
728.66	3962.82
728.84	3590.09
729.03	3237.84
729.21	2877.40
729.39	2611.16
729.57	2205.66
729.75	1959.91
729.93	1902.56
730.11	1810.40
730.30	1812.45
730.48	1740.77
730.66	1769.44
730.84	1808.36
731.02	1753.06
731.20	1695.72
731.38	1701.86
731.56	1708.01
731.74	1677.29
731.93	1691.62
732.11	1710.05
732.29	1695.72
732.47	1785.83
732.65	1759.21
732.83	1857.51
733.01	1738.73
733.19	1624.04
733.37	1677.29
733.56	1716.20
733.74	1691.62
733.92	1867.75
734.10	1679.33
734.28	1656.81
734.46	1638.38
734.64	1748.97
734.82	1673.19
735.00	1724.39
735.18	1638.38
735.36	1656.81
735.54	1734.63
735.73	1734.63
735.91	1755.11
736.09	1814.50
736.27	1685.48
736.45	1697.77
736.63	1650.66
736.81	1693.67
736.99	1771.49
737.17	1855.46
737.35	1734.63
737.53	1746.92
737.71	1693.67
737.89	1785.83
738.07	1681.38
738.25	1728.49
738.43	1624.04
738.61	1751.01
738.80	1648.61
738.98	1607.66
739.16	1679.33
739.34	1748.97
739.52	1806.31
739.70	1605.61
739.88	1701.86
740.06	1777.64
740.24	1638.38
740.42	1769.44
740.60	1611.75
740.78	1683.43
740.96	1652.71
741.14	1699.81
741.32	1748.97
741.50	1669.09
741.68	1882.08
741.86	1751.01
742.04	1724.39
742.22	1638.38
742.40	1773.54
742.58	1662.95
742.76	1691.62
742.94	1822.69
743.12	1617.90
743.30	1652.71
743.48	1738.73
743.66	1771.49
743.84	1726.44
744.02	1673.19
744.20	1724.39
744.38	1699.81
744.56	1730.53
744.74	1824.74
744.92	1800.16
745.10	1800.16
745.28	1781.73
745.46	1828.84
745.64	1712.10
745.82	1791.97
746.00	1767.40
746.18	1726.44
746.36	1673.19
746.54	1734.63
746.72	1675.24
746.90	1710.05
747.08	1779.68
747.26	1708.01
747.44	1812.45
747.62	1681.38
747.80	1708.01
747.98	1748.97
748.15	1718.25
748.33	1804.26
748.51	1734.63
748.69	1705.96
748.87	1609.70
749.05	1738.73
749.23	1765.35
749.41	1744.87
749.59	1675.24
749.77	1820.64
749.95	1751.01
750.13	1595.37
750.31	1722.34
750.49	1785.83
750.67	1748.97
750.85	1769.44
751.03	1712.10
751.20	1871.84
751.38	1742.82
751.56	1636.33
751.74	1732.58
751.92	1679.33
752.10	1628.14
752.28	1785.83
752.46	1642.47
752.64	1789.92
752.82	1742.82
753.00	1769.44
753.18	1689.57
753.35	1796.07
753.53	1650.66
753.71	1683.43
753.89	1744.87
754.07	1738.73
754.25	1763.30
754.43	1720.29
754.61	1660.90
754.79	1681.38
754.97	1689.57
755.14	1794.02
755.32	1669.09
755.50	1617.90
755.68	1736.68
755.86	1656.81
756.04	1673.19
756.22	1601.51
756.40	1769.44
756.57	1804.26
756.75	1769.44
756.93	1763.30
757.11	1773.54
757.29	1595.37
757.47	1646.57
757.65	1658.85
757.82	1562.60
758.00	1679.33
758.18	1701.86
758.36	1587.18
758.54	1832.93
758.72	1662.95
758.90	1712.10
759.07	1822.69
759.25	1656.81
759.43	1712.10
759.61	1671.14
759.79	2181.09
759.97	1703.91
760.15	1675.24
760.32	1697.77
760.50	1689.57
760.68	1738.73
760.86	1679.33
761.04	1722.34
761.22	1775.59
761.39	1705.96
761.57	1726.44
761.75	1699.81
761.93	1845.22
762.11	1648.61
762.28	1736.68
762.46	1599.46
762.64	1767.40
762.82	1675.24
763.00	1648.61
763.18	1771.49
763.35	1621.99
763.53	1716.20
763.71	1736.68
763.89	1738.73
764.07	1759.21
764.24	1638.38
764.42	1798.12
764.60	1652.71
764.78	1722.34
764.96	1783.78
765.13	1787.88
765.31	1687.53
765.49	1751.01
765.67	1671.14
765.84	1667.05
766.02	1779.68
766.20	1654.76
766.38	1669.09
766.56	1728.49
766.73	1722.34
766.91	1669.09
767.09	1748.97
767.27	1685.48
767.44	1683.43
767.62	1746.92
767.80	1685.48
767.98	1685.48
768.15	1732.58
768.33	1734.63
768.51	1761.25
768.69	1675.24
768.87	1685.48
769.04	1714.15
769.22	1841.12
769.40	1791.97
769.58	1910.75
769.75	1714.15
769.93	1794.02
770.11	1624.04
770.28	1624.04
770.46	1730.53
770.64	1785.83
770.82	1693.67
770.99	1726.44
771.17	1794.02
771.35	1632.23
771.53	1699.81
771.70	1652.71
771.88	1714.15
772.06	1689.57
772.23	1671.14
772.41	1748.97
772.59	1656.81
772.77	1611.75
772.94	1701.86
773.12	1665.00
773.30	1693.67
773.47	1742.82
773.65	1665.00
773.83	1816.55
774.01	1755.11
774.18	1605.61
774.36	1675.24
774.54	1601.51
774.71	1695.72
774.89	1556.46
775.07	1714.15
775.24	1652.71
775.42	1644.52
775.60	1798.12
775.78	1691.62
775.95	1609.70
776.13	1683.43
776.31	1603.56
776.48	1787.88
776.66	1671.14
776.84	1693.67
777.01	1654.76
777.19	1617.90
777.37	1658.85
777.54	1732.58
777.72	1722.34
777.90	1769.44
778.07	1621.99
778.25	1826.79
778.43	1800.16
778.60	1660.90
778.78	1748.97
778.96	1796.07
779.13	1652.71
779.31	1767.40
779.49	1720.29
779.66	1705.96
779.84	1599.46
780.01	1783.78
780.19	1640.42
780.37	1767.40
780.54	1736.68
780.72	1716.20
780.90	1697.77
781.07	1599.46
781.25	1703.91
781.43	1839.08
781.60	1634.28
781.78	1783.78
781.95	1716.20
782.13	1730.53
782.31	1658.85
782.48	1630.18
782.66	1734.63
782.83	1785.83
783.01	1751.01
783.19	1753.06
783.36	1652.71
783.54	1630.18
783.72	1724.39
783.89	1660.90
784.07	1675.24
784.24	1755.11
784.42	1744.87
784.60	1699.81
784.77	1673.19
784.95	1638.38
785.12	1636.33
785.30	1728.49
785.47	1781.73
785.65	1658.85
785.83	1599.46
786.00	1710.05
786.18	1757.16
786.35	1636.33
786.53	1683.43
786.71	1771.49
786.88	1773.54
787.06	1767.40
787.23	1705.96
787.41	1667.05
787.58	1777.64
787.76	1722.34
787.94	1751.01
788.11	1648.61
788.29	1591.27
788.46	1650.66
788.64	1599.46
788.81	1736.68
788.99	1683.43
789.16	1581.03
789.34	1732.58
789.52	1738.73
789.69	1644.52
789.87	1619.94
790.04	1658.85
790.22	1644.52
790.39	1824.74
790.57	1634.28
790.74	1669.09
790.92	1716.20
791.09	1638.38
791.27	1757.16
791.44	1859.56
791.62	1705.96
791.79	1757.16
791.97	1728.49
792.15	1920.99
792.32	1685.48
792.50	1728.49
792.67	1787.88
792.85	1738.73
793.02	1765.35
793.20	1646.57
793.37	1607.66
793.55	1673.19
793.72	1732.58
793.90	1746.92
794.07	1669.09
794.25	1669.09
794.42	1781.73
794.60	1691.62
794.77	1763.30
794.95	1740.77
795.12	1742.82
795.30	1679.33
795.47	1669.09
795.65	1888.23
795.82	1701.86
796.00	1722.34
796.17	1693.67
796.34	1736.68
796.52	1669.09
796.69	1744.87
796.87	1785.83
797.04	1693.67
797.22	1785.83
797.39	1757.16
797.57	1740.77
797.74	1751.01
797.92	1648.61
798.09	1744.87
798.27	1775.59
798.44	1701.86
798.62	1675.24
798.79	1714.15
798.96	1751.01
799.14	1718.25
799.31	1748.97
799.49	1667.05
799.66	1636.33
799.84	1777.64
800.01	1646.57
800.19	1673.19
800.36	1636.33
800.53	1744.87
800.71	1697.77
800.88	1800.16
801.06	1597.42
801.23	1683.43
801.41	1697.77
801.58	1619.94
801.75	1683.43
801.93	1751.01
802.10	1722.34
802.28	1738.73
802.45	1730.53
802.63	1714.15
802.80	1740.77
802.97	1677.29
803.15	1779.68
803.32	1728.49
803.50	1689.57
803.67	1675.24
803.84	1701.86
804.02	1705.96
804.19	1718.25
804.37	1550.31
804.54	1648.61
804.71	1771.49
804.89	1695.72
805.06	1734.63
805.24	1714.15
805.41	1644.52
805.58	1712.10
805.76	1828.84
805.93	1734.63
806.10	1789.92
806.28	1726.44
806.45	1726.44
806.63	1769.44
806.80	1734.63
806.97	1708.01
807.15	1736.68
807.32	1726.44
807.49	1755.11
807.67	1632.23
807.84	1791.97
808.01	1603.56
808.19	1882.08
808.36	1857.51
808.54	1708.01
808.71	1605.61
808.88	1677.29
809.06	1751.01
809.23	1826.79
809.40	1699.81
809.58	1804.26
809.75	1667.05
809.92	1636.33
810.10	1869.80
810.27	1695.72
810.44	1705.96
810.62	1708.01
810.79	1701.86
810.96	1675.24
811.14	1587.18
811.31	1746.92
811.48	1751.01
811.66	1677.29
811.83	1742.82
812.00	1732.58
812.18	1800.16
812.35	1738.73
812.52	1755.11
812.69	1701.86
812.87	1654.76
813.04	1601.51
813.21	1710.05
813.39	1658.85
813.56	1615.85
813.73	1781.73
813.91	1607.66
814.08	1660.90
814.25	1656.81
814.42	1650.66
814.60	1667.05
814.77	1626.09
814.94	1832.93
815.12	1683.43
815.29	1785.83
815.46	1681.38
815.63	1759.21
815.81	1665.00
815.98	1701.86
816.15	1693.67
816.33	1787.88
816.50	1703.91
816.67	1705.96
816.84	1710.05
817.02	1644.52
817.19	1720.29
817.36	1716.20
817.53	1742.82
817.71	1665.00
817.88	1810.40
818.05	1697.77
818.22	1624.04
818.40	1771.49
818.57	1738.73
818.74	1683.43
818.91	1685.48
819.09	1736.68
819.26	1812.45
819.43	1703.91
819.60	1689.57
819.78	1769.44
819.95	1841.12
820.12	1652.71
820.29	1751.01
820.47	1771.49
820.64	1701.86
820.81	1621.99
820.98	1693.67
821.15	1656.81
821.33	1675.24
821.50	1673.19
821.67	1765.35
821.84	1775.59
822.02	1765.35
822.19	1716.20
822.36	1755.11
822.53	1638.38
822.70	1611.75
822.88	1693.67
823.05	1820.64
823.22	1673.19
823.39	1769.44
823.56	1685.48
823.74	1787.88
823.91	1601.51
824.08	1640.42
824.25	1693.67
824.42	1808.36
824.60	1630.18
824.77	1689.57
824.94	1634.28
825.11	1742.82
825.28	1601.51
825.45	1716.20
825.63	1697.77
825.80	1609.70
825.97	1722.34
826.14	1726.44
826.31	1607.66
826.48	1693.67
826.66	1652.71
826.83	1716.20
827.00	1656.81
827.17	1677.29
827.34	1705.96
827.51	1669.09
827.69	1697.77
827.86	1619.94
828.03	1697.77
828.20	1669.09
828.37	1665.00
828.54	1728.49
828.71	1587.18
828.89	1808.36
829.06	1744.87
829.23	1865.70
829.40	1677.29
829.57	1646.57
829.74	1712.10
829.91	1736.68
830.09	1753.06
830.26	1695.72
830.43	1843.17
830.60	1722.34
830.77	1781.73
830.94	1818.60
831.11	1699.81
831.28	1650.66
831.46	1785.83
831.63	1705.96
831.80	1648.61
831.97	1613.80
832.14	1685.48
832.31	1732.58
832.48	1710.05
832.65	1732.58
832.82	1693.67
832.99	1816.55
833.17	1650.66
833.34	1763.30
833.51	1654.76
833.68	1615.85
833.85	1742.82
834.02	1669.09
834.19	1595.37
834.36	1660.90
834.53	1722.34
834.70	1759.21
834.87	1755.11
835.04	1667.05
835.22	1642.47
835.39	1636.33
835.56	1611.75
835.73	1691.62
835.90	1785.83
836.07	1570.79
836.24	1783.78
836.41	1736.68
836.58	1662.95
836.75	1785.83
836.92	1685.48
837.09	1624.04
837.26	1767.40
837.43	1654.76
837.60	1802.21
837.77	1738.73
837.94	1689.57
838.12	1730.53
838.29	1724.39
838.46	1626.09
838.63	1695.72
838.80	1808.36
838.97	1751.01
839.14	1736.68
839.31	1685.48
839.48	1732.58
839.65	1683.43
839.82	1748.97
839.99	1746.92
840.16	1740.77
840.33	1667.05
840.50	1753.06
840.67	1589.22
840.84	1630.18
841.01	1728.49
841.18	1636.33
841.35	1640.42
841.52	1789.92
841.69	1787.88
841.86	1726.44
842.03	1714.15
842.20	1808.36
842.37	1712.10
842.54	1722.34
842.71	1751.01
842.88	1619.94
843.05	1716.20
843.22	1677.29
843.39	1716.20
843.56	1605.61
843.73	1718.25
843.90	1710.05
844.07	1753.06
844.24	1718.25
844.41	1718.25
844.58	1667.05
844.75	1677.29
844.92	1804.26
845.09	1712.10
845.26	1648.61
845.43	1755.11
845.60	1742.82
845.77	1757.16
845.94	1740.77
846.10	1644.52
846.27	1603.56
846.44	1613.80
846.61	1611.75
846.78	1734.63
846.95	1753.06
847.12	1654.76
847.29	1714.15
847.46	1679.33
847.63	1804.26
847.80	1667.05
847.97	1701.86
848.14	1804.26
848.31	1652.71
848.48	1660.90
848.65	1652.71
848.82	1691.62
848.98	1806.31
849.15	1789.92
849.32	1806.31
849.49	1755.11
849.66	1765.35
849.83	1681.38
850.00	1660.90
850.17	1685.48
850.34	1703.91
850.51	1742.82
850.68	1695.72
850.85	1789.92
851.01	1724.39
851.18	1738.73
851.35	1667.05
851.52	1751.01
851.69	1781.73
851.86	1675.24
852.03	1624.04
852.20	1736.68
852.37	1703.91
852.53	1609.70
852.70	1683.43
852.87	1683.43
853.04	1728.49
853.21	1714.15
853.38	1748.97
853.55	1773.54
853.72	1730.53
853.89	1640.42
854.05	1667.05
854.22	1662.95
854.39	1722.34
854.56	1734.63
854.73	1755.11
854.90	1630.18
855.07	1767.40
855.23	1732.58
855.40	1687.53
855.57	1689.57
855.74	1681.38
855.91	1869.80
856.08	1624.04
856.25	1628.14
856.41	1685.48
856.58	1691.62
856.75	1757.16
856.92	1611.75
857.09	1812.45
857.26	1669.09
857.42	1708.01
857.59	1724.39
857.76	1705.96
857.93	1671.14
858.10	1662.95
858.27	1636.33
858.43	1671.14
858.60	1624.04
858.77	1636.33
858.94	1708.01
859.11	1685.48
859.27	1691.62
859.44	1697.77
859.61	1853.41
859.78	1681.38
859.95	1665.00
860.12	1626.09
860.28	1910.75
860.45	1796.07
860.62	1660.90
860.79	1732.58
860.95	1675.24
861.12	1665.00
861.29	1681.38
861.46	1624.04
861.63	1648.61
861.79	1665.00
861.96	1632.23
862.13	1687.53
862.30	1832.93
862.47	1679.33
862.63	1677.29
862.80	1769.44
862.97	1759.21
863.14	1763.30
863.30	1708.01
863.47	1724.39
863.64	1857.51
863.81	1714.15
863.97	1669.09
864.14	1675.24
864.31	1689.57
864.48	1705.96
864.65	1726.44
864.81	1808.36
864.98	1755.11
865.15	1726.44
865.32	1748.97
865.48	1771.49
865.65	1800.16
865.82	1710.05
865.98	1714.15
866.15	1710.05
866.32	1712.10
866.49	1732.58
866.65	1794.02
866.82	1701.86
866.99	1765.35
867.16	1669.09
867.32	1599.46
867.49	1746.92
867.66	1644.52
867.83	1654.76
867.99	1699.81
868.16	1722.34
868.33	1671.14
868.49	1656.81
868.66	1708.01
868.83	1746.92
868.99	1681.38
869.16	1669.09
869.33	1791.97
869.50	1726.44
869.66	1673.19
869.83	1724.39
870.00	1640.42
870.16	1812.45
870.33	1742.82
870.50	1716.20
870.66	1712.10
870.83	1875.94
871.00	1724.39
871.17	1755.11
871.33	1748.97
871.50	1677.29
871.67	1732.58
871.83	1550.31
872.00	1773.54
872.17	1628.14
872.33	1705.96
872.50	1769.44
872.67	1693.67
872.83	1685.48
873.00	1656.81
873.17	1738.73
873.33	1662.95
873.50	1759.21
873.67	1677.29
873.83	1630.18
874.00	1673.19
874.16	1726.44
874.33	1765.35
874.50	1599.46
874.66	1806.31
874.83	1763.30
875.00	1777.64
875.16	1714.15
875.33	1796.07
875.50	1589.22
875.66	1722.34
875.83	1650.66
875.99	1751.01
876.16	1765.35
876.33	1599.46
876.49	1712.10
876.66	1669.09
876.83	1687.53
876.99	1566.70
877.16	1650.66
877.32	1718.25
877.49	1632.23
877.66	1699.81
877.82	1775.59
877.99	1726.44
878.15	1826.79
878.32	1742.82
878.49	1669.09
878.65	1681.38
878.82	1769.44
878.98	1648.61
879.15	1753.06
879.32	1771.49
879.48	1632.23
879.65	1679.33
879.81	1712.10
879.98	1630.18
880.15	1695.72
880.31	1710.05
880.48	1665.00
880.64	1703.91
880.81	1710.05
880.97	1787.88
881.14	1777.64
881.31	1722.34
881.47	1826.79
881.64	1681.38
881.80	1595.37
881.97	1767.40
882.13	1710.05
882.30	1675.24
882.47	1689.57
882.63	1634.28
882.80	1736.68
882.96	1681.38
883.13	1845.22
883.29	1662.95
883.46	1730.53
883.62	1818.60
883.79	1726.44
883.95	1783.78
884.12	1693.67
884.29	1816.55
884.45	1767.40
884.62	1785.83
884.78	1619.94
884.95	1841.12
885.11	1691.62
885.28	1665.00
885.44	1656.81
885.61	1763.30
885.77	1796.07
885.94	1783.78
886.10	1740.77
886.27	1798.12
886.43	1832.93
886.60	1777.64
886.76	1695.72
886.93	1662.95
887.09	1734.63
887.26	1591.27
887.42	1603.56
887.59	1781.73
887.75	1785.83
887.92	1785.83
888.08	1705.96
888.25	1800.16
888.41	1759.21
888.58	1753.06
888.74	1624.04
888.91	1720.29
>>>>>End Processed Spectral Data<<<<<
