SpectraSuite Data File
++++++++++++++++++++++++++++++++++++
Date: Wed May 04 18:44:48 CEST 2016
User: root
Dark Spectrum Present: No
Reference Spectrum Present: No
Number of Sampled Component Spectra: 1
Spectrometers: USB4C02835
Integration Time (usec): 100000 (USB4C02835)
Spectra Averaged: 1 (USB4C02835)
Boxcar Smoothing: 0 (USB4C02835)
Correct for Electrical Dark: No (USB4C02835)
Strobe/Lamp Enabled: No (USB4C02835)
Correct for Detector Non-linearity: No (USB4C02835)
Correct for Stray Light: No (USB4C02835)
Number of Pixels in Processed Spectrum: 3648
>>>>>Begin Processed Spectral Data<<<<<
177.47	1478.63
177.69	1478.63
177.91	1478.63
178.13	1490.92
178.36	1507.30
178.58	1677.29
178.80	1769.44
179.02	1593.32
179.24	1673.19
179.46	1609.70
179.68	1794.02
179.90	1705.96
180.13	1789.92
180.35	1642.47
180.57	1679.33
180.79	1757.16
181.01	1679.33
181.23	1806.31
181.45	1773.54
181.67	1755.11
181.90	1761.25
182.12	1662.95
182.34	1613.80
182.56	1738.73
182.78	1714.15
183.00	1648.61
183.22	1722.34
183.44	1638.38
183.66	1818.60
183.89	1753.06
184.11	1699.81
184.33	1783.78
184.55	1742.82
184.77	1652.71
184.99	1703.91
185.21	1644.52
185.43	1814.50
185.65	1632.23
185.87	1789.92
186.10	1800.16
186.32	1849.32
186.54	1681.38
186.76	1656.81
186.98	1744.87
187.20	1712.10
187.42	1722.34
187.64	1681.38
187.86	1751.01
188.08	1789.92
188.30	1687.53
188.52	1742.82
188.75	1828.84
188.97	1814.50
189.19	1646.57
189.41	1718.25
189.63	1742.82
189.85	1648.61
190.07	1619.94
190.29	1683.43
190.51	1665.00
190.73	1636.33
190.95	1800.16
191.17	1603.56
191.39	1621.99
191.61	1720.29
191.84	1722.34
192.06	1722.34
192.28	1603.56
192.50	1894.37
192.72	1798.12
192.94	1769.44
193.16	1720.29
193.38	1732.58
193.60	1685.48
193.82	1720.29
194.04	1781.73
194.26	1726.44
194.48	1685.48
194.70	1669.09
194.92	1677.29
195.14	1779.68
195.36	1724.39
195.58	1701.86
195.80	1689.57
196.02	1681.38
196.24	1744.87
196.46	1697.77
196.69	1748.97
196.91	1843.17
197.13	1728.49
197.35	1695.72
197.57	1744.87
197.79	1701.86
198.01	1689.57
198.23	1771.49
198.45	1726.44
198.67	1644.52
198.89	1687.53
199.11	1742.82
199.33	1673.19
199.55	1650.66
199.77	1765.35
199.99	1781.73
200.21	1705.96
200.43	1746.92
200.65	1642.47
200.87	1533.93
201.09	1701.86
201.31	1669.09
201.53	1777.64
201.75	1714.15
201.97	1730.53
202.19	1675.24
202.41	1732.58
202.63	1902.56
202.85	1658.85
203.07	1671.14
203.29	1763.30
203.51	1677.29
203.73	1705.96
203.95	1800.16
204.17	1730.53
204.39	1722.34
204.61	1697.77
204.83	1673.19
205.05	1742.82
205.27	1740.77
205.49	1798.12
205.71	1652.71
205.93	1757.16
206.15	1773.54
206.37	1681.38
206.59	1718.25
206.81	1660.90
207.03	1667.05
207.25	1679.33
207.47	1791.97
207.69	1669.09
207.91	1824.74
208.13	1771.49
208.34	1695.72
208.56	1732.58
208.78	1648.61
209.00	1679.33
209.22	1675.24
209.44	1675.24
209.66	1742.82
209.88	1695.72
210.10	1689.57
210.32	1673.19
210.54	1712.10
210.76	1699.81
210.98	1767.40
211.20	1548.26
211.42	1646.57
211.64	1779.68
211.86	1728.49
212.08	1718.25
212.30	1730.53
212.52	1726.44
212.74	1728.49
212.96	1787.88
213.17	1730.53
213.39	1812.45
213.61	1816.55
213.83	1798.12
214.05	1789.92
214.27	1748.97
214.49	1687.53
214.71	1628.14
214.93	1755.11
215.15	1701.86
215.37	1796.07
215.59	1558.50
215.81	1773.54
216.03	1810.40
216.24	1722.34
216.46	1720.29
216.68	1724.39
216.90	1759.21
217.12	1753.06
217.34	1695.72
217.56	1791.97
217.78	1794.02
218.00	1742.82
218.22	1654.76
218.44	1679.33
218.66	1824.74
218.87	1814.50
219.09	1669.09
219.31	1705.96
219.53	1708.01
219.75	1722.34
219.97	1703.91
220.19	1689.57
220.41	1732.58
220.63	1675.24
220.85	1708.01
221.06	1724.39
221.28	1802.21
221.50	1675.24
221.72	1748.97
221.94	1724.39
222.16	1746.92
222.38	1806.31
222.60	1755.11
222.82	1597.42
223.03	1767.40
223.25	1667.05
223.47	1775.59
223.69	1845.22
223.91	1732.58
224.13	1695.72
224.35	1695.72
224.57	1796.07
224.78	1617.90
225.00	1595.37
225.22	1705.96
225.44	1695.72
225.66	1744.87
225.88	1687.53
226.10	1767.40
226.32	1697.77
226.53	1777.64
226.75	1642.47
226.97	1603.56
227.19	1710.05
227.41	1624.04
227.63	1669.09
227.85	1636.33
228.06	1718.25
228.28	1701.86
228.50	1785.83
228.72	1585.13
228.94	1624.04
229.16	1638.38
229.37	1638.38
229.59	1644.52
229.81	1755.11
230.03	1607.66
230.25	1689.57
230.47	1636.33
230.69	1595.37
230.90	1714.15
231.12	1656.81
231.34	1656.81
231.56	1734.63
231.78	1646.57
232.00	1693.67
232.21	1738.73
232.43	1699.81
232.65	1677.29
232.87	1660.90
233.09	1630.18
233.30	1714.15
233.52	1695.72
233.74	1734.63
233.96	1736.68
234.18	1667.05
234.40	1687.53
234.61	1773.54
234.83	1673.19
235.05	1632.23
235.27	1787.88
235.49	1785.83
235.70	1730.53
235.92	1802.21
236.14	1773.54
236.36	1837.03
236.58	1597.42
236.79	1628.14
237.01	1703.91
237.23	1751.01
237.45	1822.69
237.67	1650.66
237.88	1744.87
238.10	1818.60
238.32	1681.38
238.54	1708.01
238.76	1765.35
238.97	1632.23
239.19	1646.57
239.41	1755.11
239.63	1849.32
239.85	1689.57
240.06	1738.73
240.28	1708.01
240.50	1814.50
240.72	1740.77
240.93	1726.44
241.15	1757.16
241.37	1732.58
241.59	1779.68
241.81	1677.29
242.02	1757.16
242.24	1677.29
242.46	1751.01
242.68	1626.09
242.89	1681.38
243.11	1748.97
243.33	1722.34
243.55	1742.82
243.76	1794.02
243.98	1658.85
244.20	1601.51
244.42	1636.33
244.64	1740.77
244.85	1607.66
245.07	1701.86
245.29	1794.02
245.51	1691.62
245.72	1716.20
245.94	1667.05
246.16	1679.33
246.38	1730.53
246.59	1652.71
246.81	1689.57
247.03	1687.53
247.24	1624.04
247.46	1599.46
247.68	1722.34
247.90	1669.09
248.11	1669.09
248.33	1761.25
248.55	1693.67
248.77	1755.11
248.98	1800.16
249.20	1822.69
249.42	1689.57
249.64	1746.92
249.85	1804.26
250.07	1701.86
250.29	1773.54
250.50	1701.86
250.72	1660.90
250.94	1751.01
251.16	1820.64
251.37	1720.29
251.59	1751.01
251.81	1740.77
252.02	1740.77
252.24	1613.80
252.46	1742.82
252.68	1671.14
252.89	1648.61
253.11	1708.01
253.33	1769.44
253.54	1800.16
253.76	1617.90
253.98	1665.00
254.20	1726.44
254.41	1603.56
254.63	1685.48
254.85	1552.36
255.06	1683.43
255.28	1718.25
255.50	1691.62
255.71	1697.77
255.93	1656.81
256.15	1679.33
256.36	1736.68
256.58	1734.63
256.80	1705.96
257.02	1638.38
257.23	1710.05
257.45	1611.75
257.67	1740.77
257.88	1648.61
258.10	1791.97
258.32	1648.61
258.53	1744.87
258.75	1865.70
258.97	1669.09
259.18	1742.82
259.40	1708.01
259.62	1732.58
259.83	1800.16
260.05	1734.63
260.27	1978.34
260.48	1779.68
260.70	1581.03
260.92	1675.24
261.13	1703.91
261.35	1722.34
261.57	1746.92
261.78	1644.52
262.00	1691.62
262.22	1765.35
262.43	1697.77
262.65	1699.81
262.86	1716.20
263.08	1820.64
263.30	1648.61
263.51	1587.18
263.73	1710.05
263.95	1763.30
264.16	1601.51
264.38	1634.28
264.60	1689.57
264.81	1669.09
265.03	1767.40
265.25	1796.07
265.46	1685.48
265.68	1779.68
265.89	1789.92
266.11	1587.18
266.33	1726.44
266.54	1861.60
266.76	1775.59
266.98	1755.11
267.19	1789.92
267.41	1724.39
267.62	1683.43
267.84	1568.74
268.06	1634.28
268.27	1773.54
268.49	1705.96
268.70	1751.01
268.92	1708.01
269.14	1615.85
269.35	1638.38
269.57	1677.29
269.79	1763.30
270.00	1673.19
270.22	1734.63
270.43	1630.18
270.65	1562.60
270.87	1708.01
271.08	1714.15
271.30	1783.78
271.51	1748.97
271.73	1777.64
271.95	1722.34
272.16	1667.05
272.38	1718.25
272.59	1685.48
272.81	1710.05
273.02	1728.49
273.24	1730.53
273.46	1732.58
273.67	1689.57
273.89	1640.42
274.10	1611.75
274.32	1736.68
274.54	1726.44
274.75	1773.54
274.97	1609.70
275.18	1742.82
275.40	1757.16
275.61	1691.62
275.83	1734.63
276.05	1621.99
276.26	1710.05
276.48	1744.87
276.69	1636.33
276.91	1660.90
277.12	1783.78
277.34	1734.63
277.55	1732.58
277.77	1765.35
277.99	1681.38
278.20	1644.52
278.42	1654.76
278.63	1681.38
278.85	1624.04
279.06	1691.62
279.28	1710.05
279.49	1722.34
279.71	1708.01
279.93	1724.39
280.14	1714.15
280.36	1656.81
280.57	1787.88
280.79	1822.69
281.00	1667.05
281.22	1634.28
281.43	1800.16
281.65	1566.70
281.86	1646.57
282.08	1753.06
282.29	1791.97
282.51	1693.67
282.73	1667.05
282.94	1632.23
283.16	1771.49
283.37	1841.12
283.59	1689.57
283.80	1732.58
284.02	1705.96
284.23	1806.31
284.45	1689.57
284.66	1691.62
284.88	1703.91
285.09	1718.25
285.31	1759.21
285.52	1712.10
285.74	1628.14
285.95	1755.11
286.17	1687.53
286.38	1783.78
286.60	1714.15
286.81	1685.48
287.03	1751.01
287.24	1775.59
287.46	1783.78
287.67	1716.20
287.89	1775.59
288.10	1724.39
288.32	1658.85
288.53	1808.36
288.75	1740.77
288.96	1767.40
289.18	1656.81
289.39	1726.44
289.61	1767.40
289.82	1898.47
290.04	1800.16
290.25	1628.14
290.47	1669.09
290.68	1718.25
290.90	1791.97
291.11	1642.47
291.33	1685.48
291.54	1671.14
291.76	1636.33
291.97	1742.82
292.18	1681.38
292.40	1673.19
292.61	1611.75
292.83	1808.36
293.04	1748.97
293.26	1681.38
293.47	1656.81
293.69	1669.09
293.90	1705.96
294.12	1773.54
294.33	1722.34
294.55	1648.61
294.76	1812.45
294.97	1769.44
295.19	1839.08
295.40	1652.71
295.62	1699.81
295.83	1773.54
296.05	1583.08
296.26	1779.68
296.48	1658.85
296.69	1748.97
296.90	1665.00
297.12	1740.77
297.33	1779.68
297.55	1730.53
297.76	1755.11
297.98	1763.30
298.19	1675.24
298.41	1705.96
298.62	1609.70
298.83	1806.31
299.05	1660.90
299.26	1732.58
299.48	1642.47
299.69	1783.78
299.90	1759.21
300.12	1671.14
300.33	1744.87
300.55	1736.68
300.76	1705.96
300.98	1650.66
301.19	1800.16
301.40	1740.77
301.62	1624.04
301.83	1703.91
302.05	1720.29
302.26	1712.10
302.47	1656.81
302.69	1732.58
302.90	1665.00
303.12	1607.66
303.33	1755.11
303.54	1800.16
303.76	1728.49
303.97	1773.54
304.19	1826.79
304.40	1656.81
304.61	1757.16
304.83	1886.18
305.04	1767.40
305.26	1740.77
305.47	1656.81
305.68	1693.67
305.90	1677.29
306.11	1738.73
306.33	1744.87
306.54	1667.05
306.75	1650.66
306.97	1669.09
307.18	1679.33
307.39	1734.63
307.61	1769.44
307.82	1716.20
308.04	1765.35
308.25	1648.61
308.46	1714.15
308.68	1757.16
308.89	1712.10
309.10	1773.54
309.32	1751.01
309.53	1642.47
309.74	1677.29
309.96	1728.49
310.17	1804.26
310.39	1648.61
310.60	1798.12
310.81	1720.29
311.03	1667.05
311.24	1765.35
311.45	1697.77
311.67	1816.55
311.88	1726.44
312.09	1712.10
312.31	1636.33
312.52	1667.05
312.73	1691.62
312.95	1691.62
313.16	1619.94
313.37	1812.45
313.59	1734.63
313.80	1761.25
314.01	1818.60
314.23	1771.49
314.44	1689.57
314.65	1669.09
314.87	1632.23
315.08	1644.52
315.29	1689.57
315.51	1679.33
315.72	1615.85
315.93	1824.74
316.15	1777.64
316.36	1673.19
316.57	1726.44
316.79	1761.25
317.00	1671.14
317.21	1734.63
317.43	1671.14
317.64	1671.14
317.85	1763.30
318.07	1662.95
318.28	1779.68
318.49	1839.08
318.70	1996.77
318.92	1923.04
319.13	1871.84
319.34	1847.27
319.56	1882.08
319.77	1867.75
319.98	1855.46
320.20	1800.16
320.41	1875.94
320.62	1787.88
320.83	1695.72
321.05	1869.80
321.26	1748.97
321.47	1685.48
321.69	1746.92
321.90	1705.96
322.11	1742.82
322.32	1648.61
322.54	1812.45
322.75	1638.38
322.96	1777.64
323.18	1619.94
323.39	1662.95
323.60	1736.68
323.81	1796.07
324.03	1662.95
324.24	1708.01
324.45	1724.39
324.66	1685.48
324.88	1726.44
325.09	1781.73
325.30	1718.25
325.52	1679.33
325.73	1742.82
325.94	1640.42
326.15	1615.85
326.37	1607.66
326.58	1783.78
326.79	1724.39
327.00	1650.66
327.22	1761.25
327.43	1685.48
327.64	1701.86
327.85	1779.68
328.07	1691.62
328.28	1763.30
328.49	1675.24
328.70	1742.82
328.92	1730.53
329.13	1648.61
329.34	1720.29
329.55	1894.37
329.76	1714.15
329.98	1617.90
330.19	1740.77
330.40	1755.11
330.61	1755.11
330.83	1804.26
331.04	1601.51
331.25	1730.53
331.46	1697.77
331.68	1705.96
331.89	1693.67
332.10	1740.77
332.31	1648.61
332.52	1695.72
332.74	1771.49
332.95	1652.71
333.16	1632.23
333.37	1681.38
333.58	1716.20
333.80	1755.11
334.01	1644.52
334.22	1632.23
334.43	1679.33
334.64	1669.09
334.86	1675.24
335.07	1677.29
335.28	1730.53
335.49	1687.53
335.70	1783.78
335.92	1826.79
336.13	1830.88
336.34	1759.21
336.55	1724.39
336.76	1763.30
336.98	1667.05
337.19	1716.20
337.40	1755.11
337.61	1863.65
337.82	1679.33
338.04	1679.33
338.25	1675.24
338.46	1710.05
338.67	1730.53
338.88	1660.90
339.09	1621.99
339.31	1730.53
339.52	1634.28
339.73	1673.19
339.94	1656.81
340.15	1699.81
340.36	1630.18
340.58	1712.10
340.79	1681.38
341.00	1687.53
341.21	1619.94
341.42	1777.64
341.63	1636.33
341.85	1794.02
342.06	1730.53
342.27	1669.09
342.48	1712.10
342.69	1597.42
342.90	1695.72
343.12	1742.82
343.33	1646.57
343.54	1761.25
343.75	1765.35
343.96	1708.01
344.17	1685.48
344.38	1767.40
344.60	1654.76
344.81	1634.28
345.02	1624.04
345.23	1777.64
345.44	1783.78
345.65	1769.44
345.86	1734.63
346.07	1691.62
346.29	1642.47
346.50	1665.00
346.71	1767.40
346.92	1837.03
347.13	1828.84
347.34	1746.92
347.55	1701.86
347.76	1701.86
347.98	1540.07
348.19	1701.86
348.40	1814.50
348.61	1693.67
348.82	1798.12
349.03	1734.63
349.24	1669.09
349.45	1841.12
349.66	1662.95
349.88	1710.05
350.09	1693.67
350.30	1769.44
350.51	1734.63
350.72	1677.29
350.93	1765.35
351.14	1675.24
351.35	1757.16
351.56	1710.05
351.77	1759.21
351.99	1708.01
352.20	1763.30
352.41	1699.81
352.62	1544.17
352.83	1681.38
353.04	1705.96
353.25	1718.25
353.46	1732.58
353.67	1841.12
353.88	1619.94
354.09	1677.29
354.30	1751.01
354.52	1716.20
354.73	1611.75
354.94	1638.38
355.15	1677.29
355.36	1812.45
355.57	1693.67
355.78	1769.44
355.99	1677.29
356.20	1681.38
356.41	1722.34
356.62	1724.39
356.83	1759.21
357.04	1753.06
357.25	1611.75
357.46	1677.29
357.68	1652.71
357.89	1587.18
358.10	1685.48
358.31	1722.34
358.52	1652.71
358.73	1613.80
358.94	1695.72
359.15	1609.70
359.36	1685.48
359.57	1677.29
359.78	1656.81
359.99	1781.73
360.20	1671.14
360.41	1738.73
360.62	1759.21
360.83	1757.16
361.04	1687.53
361.25	1734.63
361.46	1820.64
361.67	1789.92
361.88	1769.44
362.09	1746.92
362.30	1839.08
362.51	1640.42
362.72	1785.83
362.93	1779.68
363.14	1794.02
363.35	1708.01
363.56	1609.70
363.78	1765.35
363.99	1714.15
364.20	1683.43
364.41	1652.71
364.62	1855.46
364.83	1773.54
365.04	1677.29
365.25	1685.48
365.46	1816.55
365.67	1705.96
365.88	1734.63
366.09	1755.11
366.30	1675.24
366.51	1691.62
366.72	1669.09
366.93	1751.01
367.14	1714.15
367.35	1744.87
367.56	1656.81
367.77	1818.60
367.98	1755.11
368.18	1742.82
368.39	1736.68
368.60	1681.38
368.81	1728.49
369.02	1716.20
369.23	1742.82
369.44	1619.94
369.65	1689.57
369.86	1753.06
370.07	1796.07
370.28	1681.38
370.49	1748.97
370.70	1742.82
370.91	1691.62
371.12	1644.52
371.33	1734.63
371.54	1677.29
371.75	1806.31
371.96	1578.98
372.17	1740.77
372.38	1720.29
372.59	1748.97
372.80	1693.67
373.01	1714.15
373.22	1665.00
373.43	1767.40
373.64	1691.62
373.85	1765.35
374.06	1812.45
374.26	1769.44
374.47	1732.58
374.68	1773.54
374.89	1712.10
375.10	1675.24
375.31	1714.15
375.52	1691.62
375.73	1718.25
375.94	1638.38
376.15	1742.82
376.36	1714.15
376.57	1638.38
376.78	1669.09
376.99	1703.91
377.20	1742.82
377.40	1593.32
377.61	1830.88
377.82	1673.19
378.03	1744.87
378.24	1777.64
378.45	1693.67
378.66	1693.67
378.87	1640.42
379.08	1609.70
379.29	1728.49
379.50	1884.13
379.71	1740.77
379.91	1724.39
380.12	1699.81
380.33	1701.86
380.54	1714.15
380.75	1685.48
380.96	1767.40
381.17	1841.12
381.38	1757.16
381.59	1818.60
381.80	1763.30
382.00	1875.94
382.21	1746.92
382.42	1857.51
382.63	1847.27
382.84	1771.49
383.05	1818.60
383.26	1816.55
383.47	1763.30
383.68	1763.30
383.88	1697.77
384.09	1708.01
384.30	1769.44
384.51	1759.21
384.72	1730.53
384.93	1660.90
385.14	1773.54
385.35	1685.48
385.55	1646.57
385.76	1802.21
385.97	1742.82
386.18	1609.70
386.39	1720.29
386.60	1726.44
386.81	1679.33
387.02	1755.11
387.22	1730.53
387.43	1851.36
387.64	1816.55
387.85	1918.95
388.06	2246.62
388.27	4573.11
388.48	9076.60
388.68	11421.52
388.89	13274.93
389.10	14014.25
389.31	11827.02
389.52	9521.01
389.73	8515.45
389.93	7686.03
390.14	7217.04
390.35	6563.74
390.56	5949.35
390.77	4906.93
390.98	3921.86
391.18	2985.94
391.39	2389.98
391.60	1970.15
391.81	1894.37
392.02	1789.92
392.23	1871.84
392.43	1748.97
392.64	1761.25
392.85	1755.11
393.06	1820.64
393.27	1763.30
393.47	1658.85
393.68	1796.07
393.89	1671.14
394.10	1767.40
394.31	1667.05
394.52	1640.42
394.72	1638.38
394.93	1798.12
395.14	1665.00
395.35	1777.64
395.56	1650.66
395.76	1669.09
395.97	1775.59
396.18	1888.23
396.39	1898.47
396.60	2033.63
396.80	1931.23
397.01	1902.56
397.22	1900.52
397.43	1863.65
397.64	1781.73
397.84	1775.59
398.05	1904.61
398.26	1845.22
398.47	1861.60
398.67	1753.06
398.88	1718.25
399.09	1746.92
399.30	1689.57
399.51	1730.53
399.71	1638.38
399.92	1763.30
400.13	1781.73
400.34	1693.67
400.54	1681.38
400.75	1916.90
400.96	1824.74
401.17	1873.89
401.37	1693.67
401.58	1708.01
401.79	1757.16
402.00	1857.51
402.21	2052.06
402.41	2072.54
402.62	2056.16
402.83	2168.80
403.04	2023.39
403.24	2217.95
403.45	1892.32
403.66	1988.58
403.87	2009.06
404.07	2017.25
404.28	1949.67
404.49	1920.99
404.70	1855.46
404.90	1820.64
405.11	1781.73
405.32	1740.77
405.52	1675.24
405.73	1658.85
405.94	1632.23
406.15	1714.15
406.35	1746.92
406.56	1761.25
406.77	1630.18
406.98	1738.73
407.18	1683.43
407.39	1720.29
407.60	1716.20
407.80	1683.43
408.01	1720.29
408.22	1742.82
408.43	1753.06
408.63	1701.86
408.84	1677.29
409.05	1705.96
409.25	1699.81
409.46	1677.29
409.67	1658.85
409.88	1705.96
410.08	1755.11
410.29	1689.57
410.50	1740.77
410.70	1744.87
410.91	1697.77
411.12	1742.82
411.32	1839.08
411.53	1748.97
411.74	1808.36
411.95	1796.07
412.15	1753.06
412.36	1796.07
412.57	1724.39
412.77	1894.37
412.98	1708.01
413.19	1671.14
413.39	1828.84
413.60	1748.97
413.81	1841.12
414.01	1712.10
414.22	1751.01
414.43	1738.73
414.63	1636.33
414.84	1837.03
415.05	1759.21
415.25	1665.00
415.46	1646.57
415.67	1673.19
415.87	1695.72
416.08	1818.60
416.29	1570.79
416.49	1761.25
416.70	1703.91
416.91	1685.48
417.11	1705.96
417.32	1748.97
417.53	1714.15
417.73	1775.59
417.94	1687.53
418.15	1771.49
418.35	1695.72
418.56	1740.77
418.77	1800.16
418.97	1714.15
419.18	1689.57
419.38	1650.66
419.59	1759.21
419.80	1789.92
420.00	1701.86
420.21	1636.33
420.42	1781.73
420.62	1681.38
420.83	1642.47
421.04	1724.39
421.24	1705.96
421.45	1759.21
421.65	1738.73
421.86	1730.53
422.07	1728.49
422.27	1746.92
422.48	1648.61
422.69	1636.33
422.89	1697.77
423.10	1695.72
423.30	1621.99
423.51	1691.62
423.72	1777.64
423.92	1734.63
424.13	1648.61
424.33	1697.77
424.54	1726.44
424.75	1691.62
424.95	1755.11
425.16	1740.77
425.36	1708.01
425.57	1748.97
425.78	1785.83
425.98	1843.17
426.19	1714.15
426.39	1599.46
426.60	1712.10
426.81	1701.86
427.01	1724.39
427.22	1728.49
427.42	1556.46
427.63	1679.33
427.83	1777.64
428.04	1796.07
428.25	1695.72
428.45	1796.07
428.66	1708.01
428.86	1734.63
429.07	1714.15
429.28	1746.92
429.48	1695.72
429.69	1732.58
429.89	1724.39
430.10	1607.66
430.30	1732.58
430.51	1826.79
430.71	1654.76
430.92	1654.76
431.13	1695.72
431.33	1708.01
431.54	1779.68
431.74	1779.68
431.95	1767.40
432.15	1677.29
432.36	1722.34
432.56	1796.07
432.77	1869.80
432.98	1822.69
433.18	1767.40
433.39	1724.39
433.59	1726.44
433.80	1837.03
434.00	1783.78
434.21	1665.00
434.41	1632.23
434.62	1880.04
434.82	1675.24
435.03	1699.81
435.23	1763.30
435.44	1648.61
435.64	1794.02
435.85	1656.81
436.06	1802.21
436.26	1787.88
436.47	1724.39
436.67	1693.67
436.88	1777.64
437.08	1794.02
437.29	1802.21
437.49	1742.82
437.70	1814.50
437.90	1701.86
438.11	1832.93
438.31	1757.16
438.52	1867.75
438.72	1886.18
438.93	1947.62
439.13	1849.32
439.34	1814.50
439.54	1826.79
439.75	1794.02
439.95	1822.69
440.16	1826.79
440.36	1771.49
440.57	1839.08
440.77	1802.21
440.98	1708.01
441.18	1769.44
441.39	1718.25
441.59	1677.29
441.80	1802.21
442.00	1673.19
442.21	1832.93
442.41	1708.01
442.62	1816.55
442.82	1705.96
443.02	1789.92
443.23	1765.35
443.43	1705.96
443.64	1843.17
443.84	1675.24
444.05	1775.59
444.25	1798.12
444.46	1779.68
444.66	1712.10
444.87	1806.31
445.07	1683.43
445.28	1759.21
445.48	1773.54
445.69	1798.12
445.89	1845.22
446.09	1734.63
446.30	2011.11
446.50	2660.31
446.71	4097.99
446.91	5105.59
447.12	5980.07
447.32	5951.40
447.53	5279.66
447.73	4411.32
447.93	4003.78
448.14	3598.28
448.34	3524.55
448.55	3155.92
448.75	3170.26
448.96	3065.81
449.16	2648.02
449.36	2500.57
449.57	2115.55
449.77	1920.99
449.98	1765.35
450.18	1757.16
450.39	1816.55
450.59	1759.21
450.79	1736.68
451.00	1691.62
451.20	1740.77
451.41	1734.63
451.61	1734.63
451.81	1740.77
452.02	1746.92
452.22	1656.81
452.43	1691.62
452.63	1662.95
452.84	1720.29
453.04	1683.43
453.24	1798.12
453.45	1789.92
453.65	1726.44
453.86	1679.33
454.06	1763.30
454.26	1744.87
454.47	1697.77
454.67	1816.55
454.87	1775.59
455.08	1734.63
455.28	1794.02
455.49	1820.64
455.69	1636.33
455.89	1841.12
456.10	1775.59
456.30	1662.95
456.51	1826.79
456.71	1798.12
456.91	1761.25
457.12	1693.67
457.32	1812.45
457.52	1701.86
457.73	1796.07
457.93	1804.26
458.14	1800.16
458.34	1603.56
458.54	1728.49
458.75	1763.30
458.95	1820.64
459.15	1740.77
459.36	1763.30
459.56	1734.63
459.76	1884.13
459.97	1736.68
460.17	1705.96
460.37	1787.88
460.58	1701.86
460.78	1759.21
460.99	1697.77
461.19	1757.16
461.39	1740.77
461.60	1710.05
461.80	1714.15
462.00	1683.43
462.21	1730.53
462.41	1753.06
462.61	1628.14
462.82	1681.38
463.02	1724.39
463.22	1681.38
463.43	1826.79
463.63	1718.25
463.83	1787.88
464.04	1753.06
464.24	1703.91
464.44	1613.80
464.64	1748.97
464.85	1736.68
465.05	1742.82
465.25	1681.38
465.46	1681.38
465.66	1726.44
465.86	1738.73
466.07	1771.49
466.27	1613.80
466.47	1630.18
466.68	1644.52
466.88	1818.60
467.08	1761.25
467.29	1765.35
467.49	1810.40
467.69	1732.58
467.89	1812.45
468.10	1687.53
468.30	1771.49
468.50	1853.41
468.71	1777.64
468.91	1632.23
469.11	1847.27
469.31	1744.87
469.52	1650.66
469.72	1794.02
469.92	1837.03
470.13	1781.73
470.33	1720.29
470.53	1851.36
470.73	2164.70
470.94	2516.95
471.14	2766.81
471.34	2957.27
471.54	2861.01
471.75	2588.63
471.95	2324.44
472.15	2232.29
472.36	2179.04
472.56	2154.46
472.76	2187.23
472.96	2148.32
473.17	2039.78
473.37	2070.50
473.57	1871.84
473.77	1775.59
473.98	1828.84
474.18	1667.05
474.38	1939.43
474.58	1615.85
474.79	1693.67
474.99	1681.38
475.19	1800.16
475.39	1699.81
475.60	1697.77
475.80	1712.10
476.00	1681.38
476.20	1722.34
476.41	1701.86
476.61	1871.84
476.81	1746.92
477.01	1662.95
477.21	1845.22
477.42	1800.16
477.62	1740.77
477.82	1775.59
478.02	1705.96
478.23	1761.25
478.43	1638.38
478.63	1769.44
478.83	1767.40
479.03	1748.97
479.24	1736.68
479.44	1849.32
479.64	1665.00
479.84	1640.42
480.04	1605.61
480.25	1779.68
480.45	1683.43
480.65	1746.92
480.85	1839.08
481.06	1677.29
481.26	1699.81
481.46	1771.49
481.66	1601.51
481.86	1710.05
482.06	1873.89
482.27	1683.43
482.47	1687.53
482.67	1728.49
482.87	1642.47
483.07	1771.49
483.28	1646.57
483.48	1626.09
483.68	1744.87
483.88	1687.53
484.08	1642.47
484.29	1617.90
484.49	1685.48
484.69	1626.09
484.89	1800.16
485.09	1710.05
485.29	1781.73
485.50	1775.59
485.70	1720.29
485.90	1839.08
486.10	1703.91
486.30	1834.98
486.50	1791.97
486.71	1714.15
486.91	1738.73
487.11	1755.11
487.31	1609.70
487.51	1759.21
487.71	1656.81
487.91	1665.00
488.12	1697.77
488.32	1597.42
488.52	1660.90
488.72	1673.19
488.92	1796.07
489.12	1855.46
489.32	1714.15
489.53	1779.68
489.73	1683.43
489.93	1820.64
490.13	1685.48
490.33	1593.32
490.53	1800.16
490.73	1789.92
490.94	1662.95
491.14	1783.78
491.34	1789.92
491.54	2115.55
491.74	2693.08
491.94	3155.92
492.14	3493.83
492.34	3489.74
492.54	3172.30
492.75	2725.85
492.95	2613.21
493.15	2414.56
493.35	2398.17
493.55	2340.83
493.75	2181.09
493.95	2244.57
494.15	2082.78
494.35	1949.67
494.56	1857.51
494.76	1834.98
494.96	1812.45
495.16	1783.78
495.36	1738.73
495.56	1710.05
495.76	1720.29
495.96	1718.25
496.16	1632.23
496.36	1859.56
496.56	1691.62
496.77	1718.25
496.97	1669.09
497.17	1828.84
497.37	1640.42
497.57	1753.06
497.77	1724.39
497.97	1740.77
498.17	1695.72
498.37	1740.77
498.57	1728.49
498.77	1689.57
498.97	1773.54
499.17	1861.60
499.38	1710.05
499.58	1705.96
499.78	1753.06
499.98	1791.97
500.18	1783.78
500.38	1716.20
500.58	1923.04
500.78	2396.12
500.98	4618.17
501.18	6606.75
501.38	8167.30
501.58	9135.99
501.78	8742.78
501.98	6920.09
502.18	5769.13
502.38	5064.63
502.58	4515.77
502.78	4106.18
502.98	3952.58
503.18	3801.03
503.38	3557.32
503.59	3133.39
503.79	2885.59
503.99	2625.50
504.19	2473.95
504.39	2336.73
504.59	2381.79
504.79	2328.54
504.99	2213.85
505.19	2050.02
505.39	1992.67
505.59	2039.78
505.79	1968.10
505.99	1886.18
506.19	1904.61
506.39	1865.70
506.59	1783.78
506.79	1763.30
506.99	1837.03
507.19	1822.69
507.39	1781.73
507.59	1597.42
507.79	1720.29
507.99	1705.96
508.19	1742.82
508.39	1685.48
508.59	1714.15
508.79	1802.21
508.99	1880.04
509.19	1781.73
509.39	1746.92
509.59	1712.10
509.79	1708.01
509.99	1791.97
510.19	1853.41
510.39	1822.69
510.59	1791.97
510.79	1695.72
510.99	1748.97
511.19	1714.15
511.39	1841.12
511.59	1789.92
511.79	1820.64
511.99	1787.88
512.19	1781.73
512.38	1757.16
512.58	1728.49
512.78	1726.44
512.98	1775.59
513.18	1806.31
513.38	1642.47
513.58	1806.31
513.78	1753.06
513.98	1755.11
514.18	1683.43
514.38	1808.36
514.58	1796.07
514.78	1673.19
514.98	1695.72
515.18	1658.85
515.38	1626.09
515.58	1873.89
515.78	1697.77
515.98	1742.82
516.18	1796.07
516.38	1794.02
516.57	1738.73
516.77	1785.83
516.97	1763.30
517.17	1685.48
517.37	1626.09
517.57	1734.63
517.77	1705.96
517.97	1736.68
518.17	1732.58
518.37	1675.24
518.57	1755.11
518.77	1744.87
518.97	1744.87
519.16	1820.64
519.36	1810.40
519.56	1736.68
519.76	1753.06
519.96	1726.44
520.16	1816.55
520.36	1658.85
520.56	1775.59
520.76	1732.58
520.96	1771.49
521.16	1740.77
521.35	1751.01
521.55	1837.03
521.75	1808.36
521.95	1759.21
522.15	1691.62
522.35	1665.00
522.55	1681.38
522.75	1761.25
522.95	1751.01
523.14	1710.05
523.34	1681.38
523.54	1675.24
523.74	1787.88
523.94	1734.63
524.14	1685.48
524.34	1705.96
524.54	1789.92
524.73	1763.30
524.93	1789.92
525.13	1738.73
525.33	1654.76
525.53	1935.33
525.73	1837.03
525.93	1740.77
526.13	1669.09
526.32	1701.86
526.52	1789.92
526.72	1794.02
526.92	1734.63
527.12	1705.96
527.32	1677.29
527.52	1783.78
527.71	1738.73
527.91	1753.06
528.11	1703.91
528.31	1722.34
528.51	1714.15
528.71	1675.24
528.90	1726.44
529.10	1779.68
529.30	1755.11
529.50	1658.85
529.70	1728.49
529.90	1716.20
530.09	1697.77
530.29	1697.77
530.49	1621.99
530.69	1834.98
530.89	1753.06
531.09	1794.02
531.28	1658.85
531.48	1855.46
531.68	1763.30
531.88	1740.77
532.08	1746.92
532.28	1769.44
532.47	1742.82
532.67	1828.84
532.87	1804.26
533.07	1660.90
533.27	1767.40
533.46	1763.30
533.66	1716.20
533.86	1814.50
534.06	1671.14
534.26	1765.35
534.45	1789.92
534.65	1771.49
534.85	1660.90
535.05	1757.16
535.25	1779.68
535.44	1677.29
535.64	1837.03
535.84	1716.20
536.04	1669.09
536.24	1697.77
536.43	1605.61
536.63	1765.35
536.83	1720.29
537.03	1757.16
537.22	1697.77
537.42	1654.76
537.62	1800.16
537.82	1710.05
538.02	1773.54
538.21	1828.84
538.41	1976.29
538.61	1826.79
538.81	1691.62
539.00	1861.60
539.20	1734.63
539.40	1722.34
539.60	1748.97
539.79	1724.39
539.99	1761.25
540.19	1665.00
540.39	1730.53
540.58	1816.55
540.78	1773.54
540.98	1744.87
541.18	1822.69
541.37	1724.39
541.57	1755.11
541.77	1720.29
541.97	1656.81
542.16	1712.10
542.36	1714.15
542.56	1697.77
542.76	1877.99
542.95	1779.68
543.15	1787.88
543.35	1755.11
543.54	1714.15
543.74	1714.15
543.94	1818.60
544.14	1691.62
544.33	1730.53
544.53	1726.44
544.73	1746.92
544.93	1708.01
545.12	1626.09
545.32	1714.15
545.52	1693.67
545.71	1624.04
545.91	1751.01
546.11	1660.90
546.30	1638.38
546.50	1783.78
546.70	1765.35
546.90	1726.44
547.09	1652.71
547.29	1742.82
547.49	1757.16
547.68	1759.21
547.88	1703.91
548.08	1746.92
548.27	2136.03
548.47	1669.09
548.67	1720.29
548.87	1681.38
549.06	1714.15
549.26	1763.30
549.46	1734.63
549.65	1658.85
549.85	1773.54
550.05	1826.79
550.24	1617.90
550.44	1751.01
550.64	1746.92
550.83	1677.29
551.03	1837.03
551.23	1810.40
551.42	1794.02
551.62	1705.96
551.82	1783.78
552.01	1662.95
552.21	1814.50
552.41	1771.49
552.60	1755.11
552.80	1789.92
553.00	1765.35
553.19	1757.16
553.39	1822.69
553.59	1716.20
553.78	1642.47
553.98	1726.44
554.17	1679.33
554.37	1708.01
554.57	1767.40
554.76	1626.09
554.96	1722.34
555.16	1736.68
555.35	1818.60
555.55	1738.73
555.75	1753.06
555.94	1804.26
556.14	1705.96
556.33	1773.54
556.53	1738.73
556.73	1742.82
556.92	1777.64
557.12	1785.83
557.32	1869.80
557.51	1822.69
557.71	1787.88
557.90	1853.41
558.10	1816.55
558.30	1640.42
558.49	1777.64
558.69	1703.91
558.88	1769.44
559.08	1689.57
559.28	1669.09
559.47	1710.05
559.67	1769.44
559.86	1787.88
560.06	1734.63
560.26	1662.95
560.45	1808.36
560.65	1699.81
560.84	1783.78
561.04	1644.52
561.24	1789.92
561.43	1667.05
561.63	1841.12
561.82	1736.68
562.02	1775.59
562.22	1642.47
562.41	1718.25
562.61	1763.30
562.80	1708.01
563.00	1861.60
563.19	1804.26
563.39	1755.11
563.59	1759.21
563.78	1607.66
563.98	1636.33
564.17	1640.42
564.37	1615.85
564.56	1705.96
564.76	1675.24
564.96	1820.64
565.15	1769.44
565.35	1880.04
565.54	1658.85
565.74	1812.45
565.93	1681.38
566.13	1773.54
566.32	1734.63
566.52	1814.50
566.71	1740.77
566.91	1812.45
567.11	1689.57
567.30	1722.34
567.50	1777.64
567.69	1722.34
567.89	1740.77
568.08	1789.92
568.28	1734.63
568.47	1720.29
568.67	1744.87
568.86	1789.92
569.06	1812.45
569.25	1771.49
569.45	1671.14
569.64	1685.48
569.84	1751.01
570.04	1755.11
570.23	1740.77
570.43	1753.06
570.62	1787.88
570.82	1832.93
571.01	1597.42
571.21	1724.39
571.40	1708.01
571.60	1845.22
571.79	1722.34
571.99	1703.91
572.18	1697.77
572.38	1718.25
572.57	1718.25
572.77	1763.30
572.96	1849.32
573.16	1685.48
573.35	1755.11
573.55	1798.12
573.74	1736.68
573.94	1751.01
574.13	1742.82
574.33	1775.59
574.52	1882.08
574.71	1738.73
574.91	1796.07
575.10	1785.83
575.30	1828.84
575.49	1734.63
575.69	1667.05
575.88	1853.41
576.08	1755.11
576.27	1861.60
576.47	1701.86
576.66	1869.80
576.86	1867.75
577.05	1681.38
577.25	1783.78
577.44	1943.52
577.64	1736.68
577.83	1769.44
578.02	1751.01
578.22	1859.56
578.41	1882.08
578.61	1742.82
578.80	1701.86
579.00	1751.01
579.19	1693.67
579.39	1773.54
579.58	1759.21
579.77	1746.92
579.97	1898.47
580.16	1853.41
580.36	1814.50
580.55	1804.26
580.75	1802.21
580.94	1849.32
581.13	1804.26
581.33	1937.38
581.52	1722.34
581.72	1894.37
581.91	1873.89
582.11	1806.31
582.30	1841.12
582.49	1830.88
582.69	1871.84
582.88	1853.41
583.08	1820.64
583.27	1828.84
583.47	1783.78
583.66	1683.43
583.85	1775.59
584.05	1765.35
584.24	1845.22
584.44	1804.26
584.63	1812.45
584.82	1859.56
585.02	1896.42
585.21	1923.04
585.41	1890.28
585.60	1908.71
585.79	1959.91
585.99	1988.58
586.18	1927.14
586.37	2230.24
586.57	3297.23
586.76	9684.84
586.96	26988.13
587.15	42018.17
587.34	51633.39
587.54	57787.53
587.73	55766.19
587.93	40072.60
588.12	29689.40
588.31	23678.61
588.51	20326.09
588.70	18599.65
588.89	17207.03
589.09	15169.30
589.28	13502.26
589.47	11431.76
589.67	9449.33
589.86	7419.79
590.06	5554.09
590.25	4104.13
590.44	3274.70
590.64	2658.26
590.83	2322.40
591.02	2119.65
591.22	1980.39
591.41	1951.71
591.60	1902.56
591.80	1980.39
591.99	1806.31
592.18	1845.22
592.38	1832.93
592.57	1794.02
592.76	1812.45
592.96	1761.25
593.15	1724.39
593.34	1828.84
593.54	1712.10
593.73	1794.02
593.92	1837.03
594.12	1839.08
594.31	1855.46
594.50	1894.37
594.70	1877.99
594.89	1947.62
595.08	1710.05
595.28	1787.88
595.47	2007.01
595.66	1869.80
595.86	1730.53
596.05	1755.11
596.24	1742.82
596.43	1875.94
596.63	1810.40
596.82	1789.92
597.01	1810.40
597.21	1871.84
597.40	1796.07
597.59	1728.49
597.79	1699.81
597.98	1882.08
598.17	1744.87
598.36	1814.50
598.56	1859.56
598.75	1765.35
598.94	1703.91
599.14	1726.44
599.33	1765.35
599.52	1843.17
599.71	1816.55
599.91	1791.97
600.10	1736.68
600.29	1761.25
600.48	1808.36
600.68	1783.78
600.87	1796.07
601.06	1767.40
601.26	1728.49
601.45	1736.68
601.64	1669.09
601.83	1796.07
602.03	1656.81
602.22	1687.53
602.41	1755.11
602.60	1894.37
602.80	1812.45
602.99	1673.19
603.18	1742.82
603.37	1787.88
603.57	1785.83
603.76	1755.11
603.95	1845.22
604.14	1763.30
604.34	1669.09
604.53	1837.03
604.72	1775.59
604.91	1773.54
605.10	1775.59
605.30	1679.33
605.49	1814.50
605.68	1781.73
605.87	1781.73
606.07	1568.74
606.26	1753.06
606.45	1783.78
606.64	1777.64
606.84	1767.40
607.03	1828.84
607.22	1849.32
607.41	1763.30
607.60	1722.34
607.80	1787.88
607.99	1757.16
608.18	1693.67
608.37	1773.54
608.56	1722.34
608.76	1826.79
608.95	1865.70
609.14	1798.12
609.33	1843.17
609.52	1910.75
609.72	1822.69
609.91	1855.46
610.10	1726.44
610.29	1849.32
610.48	1877.99
610.68	1814.50
610.87	1693.67
611.06	1789.92
611.25	1701.86
611.44	1884.13
611.63	1722.34
611.83	1820.64
612.02	1738.73
612.21	1779.68
612.40	1632.23
612.59	1644.52
612.79	1714.15
612.98	1726.44
613.17	1798.12
613.36	1800.16
613.55	1916.90
613.74	1826.79
613.93	1888.23
614.13	1923.04
614.32	1982.43
614.51	1871.84
614.70	1785.83
614.89	1761.25
615.08	1839.08
615.28	2090.98
615.47	1710.05
615.66	1822.69
615.85	1806.31
616.04	1914.85
616.23	1787.88
616.42	1742.82
616.62	1753.06
616.81	1871.84
617.00	1775.59
617.19	1812.45
617.38	1718.25
617.57	1755.11
617.76	1804.26
617.95	1861.60
618.15	1716.20
618.34	1837.03
618.53	1734.63
618.72	1798.12
618.91	1779.68
619.10	1796.07
619.29	1789.92
619.48	1777.64
619.68	1685.48
619.87	1701.86
620.06	1716.20
620.25	1757.16
620.44	1763.30
620.63	1642.47
620.82	1748.97
621.01	1732.58
621.20	1738.73
621.39	1820.64
621.59	1798.12
621.78	1736.68
621.97	1753.06
622.16	1806.31
622.35	1736.68
622.54	1845.22
622.73	1791.97
622.92	1630.18
623.11	1755.11
623.30	1722.34
623.49	1740.77
623.68	1722.34
623.88	1759.21
624.07	1730.53
624.26	1742.82
624.45	1703.91
624.64	1701.86
624.83	1769.44
625.02	1693.67
625.21	1722.34
625.40	1746.92
625.59	1726.44
625.78	1695.72
625.97	1804.26
626.16	1742.82
626.35	1869.80
626.54	1871.84
626.74	1804.26
626.93	1699.81
627.12	1824.74
627.31	1826.79
627.50	1796.07
627.69	1804.26
627.88	1738.73
628.07	1736.68
628.26	1644.52
628.45	1722.34
628.64	1785.83
628.83	1738.73
629.02	1689.57
629.21	1800.16
629.40	1734.63
629.59	1699.81
629.78	1708.01
629.97	1728.49
630.16	1689.57
630.35	1656.81
630.54	1748.97
630.73	1683.43
630.92	1767.40
631.11	1689.57
631.30	1816.55
631.49	1806.31
631.68	1718.25
631.87	1787.88
632.06	1695.72
632.25	1933.28
632.44	1744.87
632.63	1775.59
632.82	1843.17
633.01	1851.36
633.20	1753.06
633.39	1785.83
633.58	1738.73
633.77	1853.41
633.96	1783.78
634.15	1744.87
634.34	1730.53
634.53	1718.25
634.72	1726.44
634.91	1628.14
635.10	1738.73
635.29	1726.44
635.48	1757.16
635.67	1675.24
635.86	1705.96
636.05	1820.64
636.24	1761.25
636.43	1794.02
636.62	1789.92
636.81	1630.18
637.00	1714.15
637.19	1753.06
637.38	1687.53
637.57	1742.82
637.76	1808.36
637.95	1761.25
638.14	1820.64
638.33	1775.59
638.52	1863.65
638.71	1851.36
638.89	1722.34
639.08	1894.37
639.27	1845.22
639.46	1859.56
639.65	2197.47
639.84	2303.96
640.03	2441.18
640.22	2365.40
640.41	2447.32
640.60	2078.69
640.79	2007.01
640.98	1929.19
641.17	1947.62
641.36	1859.56
641.55	1920.99
641.74	1800.16
641.92	1787.88
642.11	1781.73
642.30	1775.59
642.49	1714.15
642.68	1742.82
642.87	1765.35
643.06	1843.17
643.25	1740.77
643.44	1687.53
643.63	1761.25
643.82	1828.84
644.00	1640.42
644.19	1701.86
644.38	1685.48
644.57	1701.86
644.76	1773.54
644.95	1753.06
645.14	1714.15
645.33	1708.01
645.52	1753.06
645.71	1636.33
645.89	1742.82
646.08	1773.54
646.27	1673.19
646.46	1853.41
646.65	1665.00
646.84	1687.53
647.03	1685.48
647.22	1769.44
647.40	1763.30
647.59	1691.62
647.78	1689.57
647.97	1701.86
648.16	1638.38
648.35	1695.72
648.54	1818.60
648.73	1736.68
648.91	1761.25
649.10	1667.05
649.29	1683.43
649.48	1734.63
649.67	1789.92
649.86	1734.63
650.05	1757.16
650.23	1804.26
650.42	1820.64
650.61	1947.62
650.80	1918.95
650.99	1939.43
651.18	1857.51
651.36	1753.06
651.55	1689.57
651.74	1738.73
651.93	1728.49
652.12	1779.68
652.31	1839.08
652.49	1787.88
652.68	1738.73
652.87	1800.16
653.06	1890.28
653.25	1888.23
653.44	1746.92
653.62	1791.97
653.81	1724.39
654.00	1736.68
654.19	1798.12
654.38	1894.37
654.56	1767.40
654.75	1773.54
654.94	1787.88
655.13	1742.82
655.32	1744.87
655.51	1777.64
655.69	1695.72
655.88	1757.16
656.07	1730.53
656.26	1740.77
656.45	1638.38
656.63	1718.25
656.82	1759.21
657.01	1824.74
657.20	1673.19
657.38	1802.21
657.57	1660.90
657.76	1605.61
657.95	1734.63
658.14	1652.71
658.32	1693.67
658.51	1722.34
658.70	1748.97
658.89	1619.94
659.08	1769.44
659.26	1771.49
659.45	1726.44
659.64	1699.81
659.83	1734.63
660.01	1945.57
660.20	1755.11
660.39	1845.22
660.58	1669.09
660.76	1818.60
660.95	1632.23
661.14	1708.01
661.33	1648.61
661.51	1728.49
661.70	1730.53
661.89	1751.01
662.08	1699.81
662.26	1642.47
662.45	1648.61
662.64	1757.16
662.83	1718.25
663.01	1601.51
663.20	1654.76
663.39	1828.84
663.58	1683.43
663.76	1724.39
663.95	1720.29
664.14	1683.43
664.32	1669.09
664.51	1665.00
664.70	1648.61
664.89	1791.97
665.07	1652.71
665.26	1783.78
665.45	1646.57
665.64	1828.84
665.82	1726.44
666.01	1728.49
666.20	1703.91
666.38	1845.22
666.57	1824.74
666.76	2207.71
666.95	4595.64
667.13	11429.71
667.32	18312.94
667.51	22142.64
667.69	24841.86
667.88	25331.33
668.07	19582.68
668.25	14356.26
668.44	11786.06
668.63	9850.73
668.81	8490.88
669.00	7577.48
669.19	6852.50
669.38	6068.13
669.56	5371.82
669.75	4437.95
669.94	3829.70
670.12	3237.84
670.31	2713.56
670.50	2361.31
670.68	2070.50
670.87	1920.99
671.06	1869.80
671.24	1847.27
671.43	1814.50
671.62	1800.16
671.80	1796.07
671.99	1814.50
672.18	1765.35
672.36	1781.73
672.55	1814.50
672.74	1816.55
672.92	1722.34
673.11	1841.12
673.29	1673.19
673.48	1775.59
673.67	1650.66
673.85	1800.16
674.04	1667.05
674.23	1677.29
674.41	1869.80
674.60	1701.86
674.79	1609.70
674.97	1699.81
675.16	1726.44
675.34	1800.16
675.53	1716.20
675.72	1882.08
675.90	1767.40
676.09	1742.82
676.28	1726.44
676.46	1679.33
676.65	1740.77
676.83	1665.00
677.02	1699.81
677.21	1746.92
677.39	1806.31
677.58	1687.53
677.77	1708.01
677.95	1746.92
678.14	1693.67
678.32	1701.86
678.51	1744.87
678.70	1880.04
678.88	1744.87
679.07	1708.01
679.25	1757.16
679.44	1724.39
679.63	1615.85
679.81	1667.05
680.00	1834.98
680.18	1765.35
680.37	1798.12
680.55	1644.52
680.74	1662.95
680.93	1660.90
681.11	1728.49
681.30	1785.83
681.48	1683.43
681.67	1605.61
681.85	1671.14
682.04	1689.57
682.23	1738.73
682.41	1708.01
682.60	1691.62
682.78	1738.73
682.97	1626.09
683.15	1738.73
683.34	1720.29
683.53	1861.60
683.71	1691.62
683.90	1847.27
684.08	1767.40
684.27	1757.16
684.45	1718.25
684.64	1771.49
684.82	1648.61
685.01	1738.73
685.19	1755.11
685.38	1767.40
685.57	1705.96
685.75	1703.91
685.94	1609.70
686.12	1644.52
686.31	1615.85
686.49	1763.30
686.68	1564.65
686.86	1769.44
687.05	1742.82
687.23	1800.16
687.42	1646.57
687.60	1675.24
687.79	1783.78
687.97	1767.40
688.16	1783.78
688.34	1820.64
688.53	1533.93
688.71	1800.16
688.90	1738.73
689.08	1708.01
689.27	1574.89
689.45	1697.77
689.64	1693.67
689.82	1740.77
690.01	1820.64
690.19	1693.67
690.38	1724.39
690.56	1757.16
690.75	1642.47
690.93	1689.57
691.12	1718.25
691.30	1697.77
691.49	1724.39
691.67	1714.15
691.86	1781.73
692.04	1757.16
692.23	1716.20
692.41	1802.21
692.60	1923.04
692.78	1873.89
692.97	1691.62
693.15	1810.40
693.34	1861.60
693.52	1773.54
693.71	1687.53
693.89	1742.82
694.08	1648.61
694.26	1824.74
694.44	1718.25
694.63	1773.54
694.81	1646.57
695.00	1601.51
695.18	1763.30
695.37	1773.54
695.55	1785.83
695.74	1712.10
695.92	1712.10
696.10	1828.84
696.29	1617.90
696.47	1697.77
696.66	1695.72
696.84	1769.44
697.03	1691.62
697.21	1783.78
697.40	2295.77
697.58	1804.26
697.76	1665.00
697.95	1765.35
698.13	1599.46
698.32	1648.61
698.50	1746.92
698.68	1765.35
698.87	1699.81
699.05	1810.40
699.24	1734.63
699.42	1619.94
699.61	1728.49
699.79	1714.15
699.97	1718.25
700.16	1654.76
700.34	1656.81
700.53	1669.09
700.71	1804.26
700.89	1751.01
701.08	1675.24
701.26	1751.01
701.45	2170.85
701.63	1671.14
701.81	1673.19
702.00	1701.86
702.18	1746.92
702.37	1738.73
702.55	1939.43
702.73	1812.45
702.92	1834.98
703.10	2015.20
703.28	2066.40
703.47	1857.51
703.65	1955.81
703.84	1902.56
704.02	1802.21
704.20	1898.47
704.39	1832.93
704.57	1826.79
704.75	1847.27
704.94	1847.27
705.12	1773.54
705.30	1880.04
705.49	2514.91
705.67	5437.36
705.86	12904.25
706.04	19111.64
706.22	22537.90
706.41	24874.63
706.59	24520.33
706.77	18896.61
706.96	13569.84
707.14	11800.40
707.32	10039.14
707.51	8882.04
707.69	7774.09
707.87	6905.75
708.06	5642.15
708.24	4435.90
708.42	3286.99
708.61	2781.14
708.79	2256.86
708.97	2009.06
709.16	1939.43
709.34	1888.23
709.52	1791.97
709.71	1763.30
709.89	1773.54
710.07	1681.38
710.26	1755.11
710.44	1683.43
710.62	1767.40
710.80	1751.01
710.99	1812.45
711.17	1732.58
711.35	1736.68
711.54	1683.43
711.72	1798.12
711.90	1800.16
712.09	1716.20
712.27	1705.96
712.45	1763.30
712.63	1751.01
712.82	1703.91
713.00	1726.44
713.18	1693.67
713.37	1775.59
713.55	1705.96
713.73	1763.30
713.91	1771.49
714.10	1648.61
714.28	1607.66
714.46	1728.49
714.65	1734.63
714.83	1787.88
715.01	1751.01
715.19	1710.05
715.38	1634.28
715.56	1697.77
715.74	1687.53
715.92	1650.66
716.11	1748.97
716.29	1730.53
716.47	1669.09
716.65	1718.25
716.84	1658.85
717.02	1775.59
717.20	1677.29
717.38	1685.48
717.57	1748.97
717.75	1779.68
717.93	1718.25
718.11	1730.53
718.30	1550.31
718.48	1738.73
718.66	1767.40
718.84	1755.11
719.03	1796.07
719.21	1722.34
719.39	1730.53
719.57	1755.11
719.75	1884.13
719.94	1658.85
720.12	1697.77
720.30	1726.44
720.48	1710.05
720.67	1693.67
720.85	1652.71
721.03	1728.49
721.21	1648.61
721.39	1726.44
721.58	1767.40
721.76	1785.83
721.94	1740.77
722.12	1736.68
722.30	1738.73
722.49	1710.05
722.67	1722.34
722.85	1718.25
723.03	1576.94
723.21	1689.57
723.40	1767.40
723.58	1828.84
723.76	1732.58
723.94	1832.93
724.12	1697.77
724.30	1826.79
724.49	1787.88
724.67	1816.55
724.85	1810.40
725.03	1640.42
725.21	1841.12
725.40	1867.75
725.58	1708.01
725.76	1794.02
725.94	1773.54
726.12	1697.77
726.30	1763.30
726.49	1683.43
726.67	1736.68
726.85	1751.01
727.03	1830.88
727.21	2254.81
727.39	3444.68
727.57	4855.73
727.76	5527.47
727.94	6244.26
728.12	6336.42
728.30	5558.19
728.48	4405.18
728.66	3936.20
728.84	3620.81
729.03	3268.56
729.21	2815.96
729.39	2439.13
729.57	2150.37
729.75	1935.33
729.93	1898.47
730.11	1787.88
730.30	1761.25
730.48	1720.29
730.66	1814.50
730.84	1720.29
731.02	1718.25
731.20	1695.72
731.38	1689.57
731.56	1662.95
731.74	1650.66
731.93	1716.20
732.11	1746.92
732.29	1656.81
732.47	1726.44
732.65	1781.73
732.83	1734.63
733.01	1691.62
733.19	1677.29
733.37	1714.15
733.56	1738.73
733.74	1783.78
733.92	1714.15
734.10	1648.61
734.28	1718.25
734.46	1730.53
734.64	1675.24
734.82	1705.96
735.00	1783.78
735.18	1673.19
735.36	1710.05
735.54	1693.67
735.73	1724.39
735.91	1789.92
736.09	1804.26
736.27	1673.19
736.45	1773.54
736.63	1628.14
736.81	1753.06
736.99	1777.64
737.17	1742.82
737.35	1691.62
737.53	1748.97
737.71	1656.81
737.89	1826.79
738.07	1591.27
738.25	1685.48
738.43	1619.94
738.61	1671.14
738.80	1626.09
738.98	1667.05
739.16	1626.09
739.34	1634.28
739.52	1726.44
739.70	1679.33
739.88	1796.07
740.06	1810.40
740.24	1578.98
740.42	1726.44
740.60	1634.28
740.78	1708.01
740.96	1617.90
741.14	1689.57
741.32	1660.90
741.50	1671.14
741.68	1855.46
741.86	1734.63
742.04	1722.34
742.22	1634.28
742.40	1763.30
742.58	1757.16
742.76	1705.96
742.94	1785.83
743.12	1576.94
743.30	1775.59
743.48	1710.05
743.66	1740.77
743.84	1738.73
744.02	1714.15
744.20	1658.85
744.38	1677.29
744.56	1642.47
744.74	1783.78
744.92	1810.40
745.10	1834.98
745.28	1781.73
745.46	1730.53
745.64	1753.06
745.82	1763.30
746.00	1765.35
746.18	1720.29
746.36	1722.34
746.54	1722.34
746.72	1722.34
746.90	1671.14
747.08	1722.34
747.26	1685.48
747.44	1722.34
747.62	1781.73
747.80	1648.61
747.98	1755.11
748.15	1642.47
748.33	1812.45
748.51	1769.44
748.69	1732.58
748.87	1652.71
749.05	1705.96
749.23	1746.92
749.41	1699.81
749.59	1648.61
749.77	1748.97
749.95	1691.62
750.13	1648.61
750.31	1753.06
750.49	1736.68
750.67	1765.35
750.85	1783.78
751.03	1714.15
751.20	1839.08
751.38	1798.12
751.56	1609.70
751.74	1697.77
751.92	1716.20
752.10	1714.15
752.28	1789.92
752.46	1689.57
752.64	1654.76
752.82	1730.53
753.00	1703.91
753.18	1722.34
753.35	1703.91
753.53	1785.83
753.71	1695.72
753.89	1759.21
754.07	1705.96
754.25	1746.92
754.43	1751.01
754.61	1665.00
754.79	1791.97
754.97	1755.11
755.14	1857.51
755.32	1656.81
755.50	1759.21
755.68	1699.81
755.86	1665.00
756.04	1716.20
756.22	1578.98
756.40	1693.67
756.57	1845.22
756.75	1705.96
756.93	1777.64
757.11	1757.16
757.29	1660.90
757.47	1646.57
757.65	1632.23
757.82	1640.42
758.00	1646.57
758.18	1697.77
758.36	1662.95
758.54	1808.36
758.72	1669.09
758.90	1798.12
759.07	1705.96
759.25	1744.87
759.43	1748.97
759.61	1669.09
759.79	2185.18
759.97	1730.53
760.15	1701.86
760.32	1691.62
760.50	1722.34
760.68	1759.21
760.86	1626.09
761.04	1796.07
761.22	1781.73
761.39	1732.58
761.57	1746.92
761.75	1730.53
761.93	1724.39
762.11	1681.38
762.28	1669.09
762.46	1679.33
762.64	1808.36
762.82	1642.47
763.00	1632.23
763.18	1722.34
763.35	1685.48
763.53	1705.96
763.71	1734.63
763.89	1738.73
764.07	1685.48
764.24	1742.82
764.42	1820.64
764.60	1732.58
764.78	1656.81
764.96	1820.64
765.13	1783.78
765.31	1722.34
765.49	1775.59
765.67	1626.09
765.84	1722.34
766.02	1630.18
766.20	1611.75
766.38	1703.91
766.56	1738.73
766.73	1775.59
766.91	1656.81
767.09	1734.63
767.27	1787.88
767.44	1720.29
767.62	1791.97
767.80	1816.55
767.98	1654.76
768.15	1687.53
768.33	1742.82
768.51	1779.68
768.69	1759.21
768.87	1769.44
769.04	1683.43
769.22	1851.36
769.40	1761.25
769.58	1886.18
769.75	1677.29
769.93	1701.86
770.11	1640.42
770.28	1708.01
770.46	1732.58
770.64	1791.97
770.82	1681.38
770.99	1662.95
771.17	1746.92
771.35	1730.53
771.53	1693.67
771.70	1734.63
771.88	1787.88
772.06	1675.24
772.23	1644.52
772.41	1732.58
772.59	1681.38
772.77	1640.42
772.94	1705.96
773.12	1738.73
773.30	1716.20
773.47	1773.54
773.65	1769.44
773.83	1775.59
774.01	1648.61
774.18	1642.47
774.36	1675.24
774.54	1621.99
774.71	1738.73
774.89	1638.38
775.07	1656.81
775.24	1648.61
775.42	1679.33
775.60	1779.68
775.78	1742.82
775.95	1628.14
776.13	1634.28
776.31	1603.56
776.48	1742.82
776.66	1802.21
776.84	1714.15
777.01	1671.14
777.19	1650.66
777.37	1667.05
777.54	1763.30
777.72	1775.59
777.90	1742.82
778.07	1626.09
778.25	1949.67
778.43	1763.30
778.60	1681.38
778.78	1812.45
778.96	1791.97
779.13	1693.67
779.31	1816.55
779.49	1726.44
779.66	1683.43
779.84	1708.01
780.01	1734.63
780.19	1628.14
780.37	1714.15
780.54	1734.63
780.72	1697.77
780.90	1687.53
781.07	1757.16
781.25	1632.23
781.43	1720.29
781.60	1689.57
781.78	1718.25
781.95	1689.57
782.13	1656.81
782.31	1648.61
782.48	1593.32
782.66	1726.44
782.83	1755.11
783.01	1794.02
783.19	1722.34
783.36	1738.73
783.54	1652.71
783.72	1710.05
783.89	1652.71
784.07	1714.15
784.24	1728.49
784.42	1826.79
784.60	1738.73
784.77	1740.77
784.95	1624.04
785.12	1716.20
785.30	1769.44
785.47	1603.56
785.65	1667.05
785.83	1757.16
786.00	1613.80
786.18	1691.62
786.35	1640.42
786.53	1695.72
786.71	1755.11
786.88	1654.76
787.06	1730.53
787.23	1693.67
787.41	1648.61
787.58	1650.66
787.76	1708.01
787.94	1724.39
788.11	1726.44
788.29	1736.68
788.46	1665.00
788.64	1609.70
788.81	1652.71
788.99	1638.38
789.16	1726.44
789.34	1730.53
789.52	1744.87
789.69	1691.62
789.87	1632.23
790.04	1753.06
790.22	1677.29
790.39	1787.88
790.57	1638.38
790.74	1613.80
790.92	1812.45
791.09	1648.61
791.27	1705.96
791.44	1814.50
791.62	1716.20
791.79	1738.73
791.97	1681.38
792.15	1871.84
792.32	1767.40
792.50	1771.49
792.67	1828.84
792.85	1830.88
793.02	1677.29
793.20	1685.48
793.37	1640.42
793.55	1703.91
793.72	1597.42
793.90	1742.82
794.07	1660.90
794.25	1683.43
794.42	1712.10
794.60	1693.67
794.77	1667.05
794.95	1740.77
795.12	1757.16
795.30	1675.24
795.47	1607.66
795.65	1869.80
795.82	1689.57
796.00	1656.81
796.17	1705.96
796.34	1652.71
796.52	1708.01
796.69	1675.24
796.87	1740.77
797.04	1695.72
797.22	1714.15
797.39	1667.05
797.57	1742.82
797.74	1701.86
797.92	1714.15
798.09	1736.68
798.27	1734.63
798.44	1685.48
798.62	1636.33
798.79	1658.85
798.96	1767.40
799.14	1685.48
799.31	1863.65
799.49	1722.34
799.66	1716.20
799.84	1740.77
800.01	1652.71
800.19	1710.05
800.36	1546.22
800.53	1691.62
800.71	1681.38
800.88	1837.03
801.06	1679.33
801.23	1701.86
801.41	1681.38
801.58	1726.44
801.75	1691.62
801.93	1701.86
802.10	1757.16
802.28	1703.91
802.45	1693.67
802.63	1693.67
802.80	1791.97
802.97	1691.62
803.15	1689.57
803.32	1755.11
803.50	1632.23
803.67	1665.00
803.84	1667.05
804.02	1703.91
804.19	1710.05
804.37	1699.81
804.54	1689.57
804.71	1708.01
804.89	1710.05
805.06	1605.61
805.24	1665.00
805.41	1703.91
805.58	1685.48
805.76	1935.33
805.93	1693.67
806.10	1736.68
806.28	1656.81
806.45	1802.21
806.63	1693.67
806.80	1681.38
806.97	1679.33
807.15	1736.68
807.32	1640.42
807.49	1734.63
807.67	1593.32
807.84	1685.48
808.01	1595.37
808.19	1775.59
808.36	1884.13
808.54	1673.19
808.71	1642.47
808.88	1673.19
809.06	1751.01
809.23	1824.74
809.40	1632.23
809.58	1738.73
809.75	1636.33
809.92	1613.80
810.10	1787.88
810.27	1687.53
810.44	1726.44
810.62	1693.67
810.79	1724.39
810.96	1644.52
811.14	1746.92
811.31	1708.01
811.48	1716.20
811.66	1748.97
811.83	1798.12
812.00	1740.77
812.18	1716.20
812.35	1847.27
812.52	1701.86
812.69	1710.05
812.87	1746.92
813.04	1724.39
813.21	1708.01
813.39	1662.95
813.56	1658.85
813.73	1759.21
813.91	1679.33
814.08	1714.15
814.25	1628.14
814.42	1607.66
814.60	1665.00
814.77	1712.10
814.94	1773.54
815.12	1681.38
815.29	1781.73
815.46	1687.53
815.63	1708.01
815.81	1697.77
815.98	1767.40
816.15	1716.20
816.33	1648.61
816.50	1693.67
816.67	1679.33
816.84	1679.33
817.02	1640.42
817.19	1642.47
817.36	1689.57
817.53	1708.01
817.71	1656.81
817.88	1771.49
818.05	1626.09
818.22	1642.47
818.40	1796.07
818.57	1673.19
818.74	1753.06
818.91	1710.05
819.09	1714.15
819.26	1775.59
819.43	1665.00
819.60	1667.05
819.78	1742.82
819.95	1753.06
820.12	1708.01
820.29	1804.26
820.47	1787.88
820.64	1740.77
820.81	1550.31
820.98	1671.14
821.15	1746.92
821.33	1767.40
821.50	1603.56
821.67	1759.21
821.84	1806.31
822.02	1662.95
822.19	1761.25
822.36	1685.48
822.53	1675.24
822.70	1644.52
822.88	1699.81
823.05	1791.97
823.22	1716.20
823.39	1755.11
823.56	1624.04
823.74	1791.97
823.91	1671.14
824.08	1634.28
824.25	1572.84
824.42	1814.50
824.60	1632.23
824.77	1730.53
824.94	1742.82
825.11	1738.73
825.28	1591.27
825.45	1718.25
825.63	1755.11
825.80	1642.47
825.97	1705.96
826.14	1730.53
826.31	1679.33
826.48	1714.15
826.66	1640.42
826.83	1621.99
827.00	1732.58
827.17	1626.09
827.34	1673.19
827.51	1585.13
827.69	1697.77
827.86	1656.81
828.03	1720.29
828.20	1660.90
828.37	1687.53
828.54	1640.42
828.71	1652.71
828.89	1798.12
829.06	1646.57
829.23	1824.74
829.40	1644.52
829.57	1619.94
829.74	1703.91
829.91	1757.16
830.09	1693.67
830.26	1705.96
830.43	1773.54
830.60	1628.14
830.77	1705.96
830.94	1761.25
831.11	1769.44
831.28	1693.67
831.46	1773.54
831.63	1673.19
831.80	1824.74
831.97	1693.67
832.14	1609.70
832.31	1808.36
832.48	1734.63
832.65	1738.73
832.82	1646.57
832.99	1716.20
833.17	1658.85
833.34	1783.78
833.51	1683.43
833.68	1599.46
833.85	1767.40
834.02	1665.00
834.19	1609.70
834.36	1701.86
834.53	1779.68
834.70	1740.77
834.87	1763.30
835.04	1695.72
835.22	1681.38
835.39	1669.09
835.56	1640.42
835.73	1730.53
835.90	1726.44
836.07	1667.05
836.24	1726.44
836.41	1640.42
836.58	1607.66
836.75	1794.02
836.92	1697.77
837.09	1712.10
837.26	1716.20
837.43	1736.68
837.60	1798.12
837.77	1687.53
837.94	1740.77
838.12	1812.45
838.29	1734.63
838.46	1630.18
838.63	1599.46
838.80	1714.15
838.97	1783.78
839.14	1773.54
839.31	1595.37
839.48	1810.40
839.65	1765.35
839.82	1751.01
839.99	1757.16
840.16	1699.81
840.33	1613.80
840.50	1759.21
840.67	1656.81
840.84	1624.04
841.01	1718.25
841.18	1701.86
841.35	1726.44
841.52	1708.01
841.69	1882.08
841.86	1718.25
842.03	1654.76
842.20	1765.35
842.37	1685.48
842.54	1716.20
842.71	1738.73
842.88	1578.98
843.05	1771.49
843.22	1738.73
843.39	1748.97
843.56	1644.52
843.73	1671.14
843.90	1703.91
844.07	1697.77
844.24	1732.58
844.41	1744.87
844.58	1658.85
844.75	1681.38
844.92	1667.05
845.09	1744.87
845.26	1648.61
845.43	1699.81
845.60	1689.57
845.77	1740.77
845.94	1701.86
846.10	1687.53
846.27	1648.61
846.44	1636.33
846.61	1724.39
846.78	1751.01
846.95	1744.87
847.12	1634.28
847.29	1689.57
847.46	1671.14
847.63	1718.25
847.80	1654.76
847.97	1716.20
848.14	1732.58
848.31	1683.43
848.48	1667.05
848.65	1732.58
848.82	1619.94
848.98	1939.43
849.15	1742.82
849.32	1771.49
849.49	1779.68
849.66	1701.86
849.83	1726.44
850.00	1636.33
850.17	1746.92
850.34	1705.96
850.51	1695.72
850.68	1619.94
850.85	1820.64
851.01	1722.34
851.18	1665.00
851.35	1671.14
851.52	1742.82
851.69	1767.40
851.86	1615.85
852.03	1626.09
852.20	1732.58
852.37	1730.53
852.53	1714.15
852.70	1660.90
852.87	1617.90
853.04	1769.44
853.21	1697.77
853.38	1761.25
853.55	1771.49
853.72	1767.40
853.89	1630.18
854.05	1640.42
854.22	1712.10
854.39	1595.37
854.56	1714.15
854.73	1777.64
854.90	1648.61
855.07	1730.53
855.23	1708.01
855.40	1652.71
855.57	1632.23
855.74	1656.81
855.91	1863.65
856.08	1693.67
856.25	1656.81
856.41	1673.19
856.58	1669.09
856.75	1724.39
856.92	1669.09
857.09	1787.88
857.26	1701.86
857.42	1662.95
857.59	1775.59
857.76	1642.47
857.93	1714.15
858.10	1755.11
858.27	1634.28
858.43	1718.25
858.60	1564.65
858.77	1624.04
858.94	1687.53
859.11	1722.34
859.27	1632.23
859.44	1705.96
859.61	1789.92
859.78	1728.49
859.95	1669.09
860.12	1619.94
860.28	1789.92
860.45	1851.36
860.62	1628.14
860.79	1742.82
860.95	1705.96
861.12	1652.71
861.29	1615.85
861.46	1730.53
861.63	1648.61
861.79	1705.96
861.96	1679.33
862.13	1675.24
862.30	1787.88
862.47	1763.30
862.63	1628.14
862.80	1837.03
862.97	1806.31
863.14	1658.85
863.30	1710.05
863.47	1640.42
863.64	1742.82
863.81	1755.11
863.97	1734.63
864.14	1624.04
864.31	1595.37
864.48	1718.25
864.65	1624.04
864.81	1689.57
864.98	1726.44
865.15	1755.11
865.32	1814.50
865.48	1695.72
865.65	1796.07
865.82	1648.61
865.98	1738.73
866.15	1701.86
866.32	1755.11
866.49	1708.01
866.65	1804.26
866.82	1662.95
866.99	1673.19
867.16	1695.72
867.32	1708.01
867.49	1652.71
867.66	1763.30
867.83	1665.00
867.99	1697.77
868.16	1677.29
868.33	1626.09
868.49	1632.23
868.66	1712.10
868.83	1767.40
868.99	1738.73
869.16	1708.01
869.33	1751.01
869.50	1783.78
869.66	1607.66
869.83	1656.81
870.00	1669.09
870.16	1755.11
870.33	1656.81
870.50	1771.49
870.66	1636.33
870.83	1869.80
871.00	1695.72
871.17	1816.55
871.33	1726.44
871.50	1628.14
871.67	1683.43
871.83	1564.65
872.00	1812.45
872.17	1708.01
872.33	1746.92
872.50	1724.39
872.67	1738.73
872.83	1677.29
873.00	1703.91
873.17	1673.19
873.33	1703.91
873.50	1712.10
873.67	1712.10
873.83	1734.63
874.00	1718.25
874.16	1820.64
874.33	1757.16
874.50	1654.76
874.66	1791.97
874.83	1689.57
875.00	1832.93
875.16	1724.39
875.33	1791.97
875.50	1669.09
875.66	1716.20
875.83	1697.77
875.99	1775.59
876.16	1652.71
876.33	1675.24
876.49	1714.15
876.66	1652.71
876.83	1681.38
876.99	1691.62
877.16	1703.91
877.32	1677.29
877.49	1646.57
877.66	1683.43
877.82	1759.21
877.99	1722.34
878.15	1738.73
878.32	1816.55
878.49	1714.15
878.65	1626.09
878.82	1783.78
878.98	1716.20
879.15	1757.16
879.32	1787.88
879.48	1722.34
879.65	1722.34
879.81	1669.09
879.98	1660.90
880.15	1638.38
880.31	1783.78
880.48	1626.09
880.64	1730.53
880.81	1779.68
880.97	1822.69
881.14	1789.92
881.31	1708.01
881.47	1810.40
881.64	1732.58
881.80	1611.75
881.97	1732.58
882.13	1761.25
882.30	1607.66
882.47	1605.61
882.63	1734.63
882.80	1683.43
882.96	1714.15
883.13	1683.43
883.29	1748.97
883.46	1808.36
883.62	1847.27
883.79	1697.77
883.95	1773.54
884.12	1726.44
884.29	1806.31
884.45	1718.25
884.62	1736.68
884.78	1644.52
884.95	1767.40
885.11	1695.72
885.28	1724.39
885.44	1681.38
885.61	1781.73
885.77	1783.78
885.94	1660.90
886.10	1691.62
886.27	1699.81
886.43	1730.53
886.60	1716.20
886.76	1675.24
886.93	1740.77
887.09	1738.73
887.26	1521.64
887.42	1730.53
887.59	1804.26
887.75	1804.26
887.92	1730.53
888.08	1730.53
888.25	1798.12
888.41	1802.21
888.58	1693.67
888.74	1693.67
888.91	1652.71
>>>>>End Processed Spectral Data<<<<<
