SpectraSuite Data File
++++++++++++++++++++++++++++++++++++
Date: Wed May 04 18:44:24 CEST 2016
User: root
Dark Spectrum Present: No
Reference Spectrum Present: No
Number of Sampled Component Spectra: 1
Spectrometers: USB4C02835
Integration Time (usec): 100000 (USB4C02835)
Spectra Averaged: 1 (USB4C02835)
Boxcar Smoothing: 0 (USB4C02835)
Correct for Electrical Dark: No (USB4C02835)
Strobe/Lamp Enabled: No (USB4C02835)
Correct for Detector Non-linearity: No (USB4C02835)
Correct for Stray Light: No (USB4C02835)
Number of Pixels in Processed Spectrum: 3648
>>>>>Begin Processed Spectral Data<<<<<
177.47	1445.87
177.69	1445.87
177.91	1445.87
178.13	1445.87
178.36	1396.71
178.58	1656.81
178.80	1771.49
179.02	1644.52
179.24	1648.61
179.46	1716.20
179.68	1697.77
179.90	1669.09
180.13	1738.73
180.35	1685.48
180.57	1712.10
180.79	1798.12
181.01	1708.01
181.23	1779.68
181.45	1773.54
181.67	1683.43
181.90	1734.63
182.12	1691.62
182.34	1660.90
182.56	1812.45
182.78	1742.82
183.00	1644.52
183.22	1628.14
183.44	1640.42
183.66	1820.64
183.89	1796.07
184.11	1722.34
184.33	1755.11
184.55	1732.58
184.77	1765.35
184.99	1755.11
185.21	1665.00
185.43	1884.13
185.65	1673.19
185.87	1677.29
186.10	1804.26
186.32	1789.92
186.54	1710.05
186.76	1789.92
186.98	1787.88
187.20	1691.62
187.42	1669.09
187.64	1744.87
187.86	1701.86
188.08	1685.48
188.30	1687.53
188.52	1714.15
188.75	1765.35
188.97	1785.83
189.19	1685.48
189.41	1757.16
189.63	1779.68
189.85	1624.04
190.07	1656.81
190.29	1597.42
190.51	1728.49
190.73	1589.22
190.95	1701.86
191.17	1669.09
191.39	1630.18
191.61	1669.09
191.84	1624.04
192.06	1769.44
192.28	1642.47
192.50	1871.84
192.72	1701.86
192.94	1685.48
193.16	1777.64
193.38	1716.20
193.60	1644.52
193.82	1703.91
194.04	1832.93
194.26	1708.01
194.48	1695.72
194.70	1736.68
194.92	1697.77
195.14	1783.78
195.36	1654.76
195.58	1787.88
195.80	1687.53
196.02	1617.90
196.24	1753.06
196.46	1716.20
196.69	1695.72
196.91	1898.47
197.13	1718.25
197.35	1634.28
197.57	1859.56
197.79	1765.35
198.01	1734.63
198.23	1705.96
198.45	1712.10
198.67	1624.04
198.89	1693.67
199.11	1738.73
199.33	1644.52
199.55	1617.90
199.77	1685.48
199.99	1769.44
200.21	1695.72
200.43	1718.25
200.65	1683.43
200.87	1591.27
201.09	1648.61
201.31	1689.57
201.53	1791.97
201.75	1697.77
201.97	1669.09
202.19	1703.91
202.41	1677.29
202.63	1726.44
202.85	1761.25
203.07	1687.53
203.29	1777.64
203.51	1628.14
203.73	1640.42
203.95	1935.33
204.17	1798.12
204.39	1734.63
204.61	1726.44
204.83	1632.23
205.05	1701.86
205.27	1738.73
205.49	1802.21
205.71	1837.03
205.93	1597.42
206.15	1667.05
206.37	1724.39
206.59	1613.80
206.81	1650.66
207.03	1630.18
207.25	1710.05
207.47	1736.68
207.69	1665.00
207.91	1802.21
208.13	1828.84
208.34	1665.00
208.56	1634.28
208.78	1763.30
209.00	1669.09
209.22	1628.14
209.44	1722.34
209.66	1685.48
209.88	1705.96
210.10	1640.42
210.32	1595.37
210.54	1728.49
210.76	1675.24
210.98	1757.16
211.20	1615.85
211.42	1699.81
211.64	1791.97
211.86	1689.57
212.08	1800.16
212.30	1765.35
212.52	1724.39
212.74	1738.73
212.96	1648.61
213.17	1705.96
213.39	1812.45
213.61	1769.44
213.83	1787.88
214.05	1703.91
214.27	1710.05
214.49	1640.42
214.71	1644.52
214.93	1726.44
215.15	1738.73
215.37	1654.76
215.59	1642.47
215.81	1759.21
216.03	1734.63
216.24	1724.39
216.46	1660.90
216.68	1716.20
216.90	1808.36
217.12	1740.77
217.34	1681.38
217.56	1738.73
217.78	1761.25
218.00	1722.34
218.22	1728.49
218.44	1689.57
218.66	1787.88
218.87	1740.77
219.09	1650.66
219.31	1753.06
219.53	1695.72
219.75	1718.25
219.97	1640.42
220.19	1716.20
220.41	1640.42
220.63	1767.40
220.85	1734.63
221.06	1705.96
221.28	1673.19
221.50	1736.68
221.72	1679.33
221.94	1681.38
222.16	1687.53
222.38	1785.83
222.60	1710.05
222.82	1701.86
223.03	1667.05
223.25	1662.95
223.47	1777.64
223.69	1808.36
223.91	1728.49
224.13	1763.30
224.35	1662.95
224.57	1730.53
224.78	1681.38
225.00	1681.38
225.22	1677.29
225.44	1763.30
225.66	1734.63
225.88	1660.90
226.10	1802.21
226.32	1732.58
226.53	1775.59
226.75	1697.77
226.97	1765.35
227.19	1742.82
227.41	1675.24
227.63	1683.43
227.85	1662.95
228.06	1648.61
228.28	1744.87
228.50	1732.58
228.72	1660.90
228.94	1763.30
229.16	1634.28
229.37	1640.42
229.59	1701.86
229.81	1759.21
230.03	1681.38
230.25	1603.56
230.47	1650.66
230.69	1583.08
230.90	1687.53
231.12	1798.12
231.34	1708.01
231.56	1699.81
231.78	1681.38
232.00	1781.73
232.21	1685.48
232.43	1626.09
232.65	1617.90
232.87	1671.14
233.09	1628.14
233.30	1683.43
233.52	1732.58
233.74	1667.05
233.96	1617.90
234.18	1755.11
234.40	1693.67
234.61	1746.92
234.83	1607.66
235.05	1601.51
235.27	1812.45
235.49	1738.73
235.70	1712.10
235.92	1773.54
236.14	1656.81
236.36	1798.12
236.58	1576.94
236.79	1703.91
237.01	1617.90
237.23	1738.73
237.45	1761.25
237.67	1652.71
237.88	1689.57
238.10	1798.12
238.32	1634.28
238.54	1681.38
238.76	1685.48
238.97	1656.81
239.19	1662.95
239.41	1734.63
239.63	1773.54
239.85	1658.85
240.06	1677.29
240.28	1644.52
240.50	1759.21
240.72	1771.49
240.93	1701.86
241.15	1736.68
241.37	1742.82
241.59	1800.16
241.81	1681.38
242.02	1769.44
242.24	1738.73
242.46	1732.58
242.68	1652.71
242.89	1779.68
243.11	1734.63
243.33	1734.63
243.55	1783.78
243.76	1832.93
243.98	1701.86
244.20	1708.01
244.42	1681.38
244.64	1781.73
244.85	1601.51
245.07	1685.48
245.29	1708.01
245.51	1720.29
245.72	1740.77
245.94	1728.49
246.16	1701.86
246.38	1755.11
246.59	1660.90
246.81	1685.48
247.03	1710.05
247.24	1576.94
247.46	1736.68
247.68	1763.30
247.90	1589.22
248.11	1701.86
248.33	1759.21
248.55	1705.96
248.77	1755.11
248.98	1746.92
249.20	1824.74
249.42	1669.09
249.64	1662.95
249.85	1720.29
250.07	1669.09
250.29	1751.01
250.50	1763.30
250.72	1644.52
250.94	1783.78
251.16	1746.92
251.37	1759.21
251.59	1767.40
251.81	1740.77
252.02	1744.87
252.24	1624.04
252.46	1773.54
252.68	1669.09
252.89	1662.95
253.11	1550.31
253.33	1794.02
253.54	1679.33
253.76	1603.56
253.98	1681.38
254.20	1726.44
254.41	1570.79
254.63	1693.67
254.85	1585.13
255.06	1693.67
255.28	1814.50
255.50	1628.14
255.71	1687.53
255.93	1617.90
256.15	1660.90
256.36	1767.40
256.58	1751.01
256.80	1728.49
257.02	1677.29
257.23	1658.85
257.45	1785.83
257.67	1722.34
257.88	1660.90
258.10	1716.20
258.32	1742.82
258.53	1621.99
258.75	1796.07
258.97	1671.14
259.18	1714.15
259.40	1652.71
259.62	1800.16
259.83	1738.73
260.05	1751.01
260.27	1861.60
260.48	1806.31
260.70	1597.42
260.92	1773.54
261.13	1683.43
261.35	1730.53
261.57	1757.16
261.78	1662.95
262.00	1691.62
262.22	1644.52
262.43	1673.19
262.65	1703.91
262.86	1683.43
263.08	1755.11
263.30	1736.68
263.51	1587.18
263.73	1662.95
263.95	1658.85
264.16	1619.94
264.38	1640.42
264.60	1669.09
264.81	1685.48
265.03	1748.97
265.25	1789.92
265.46	1644.52
265.68	1791.97
265.89	1753.06
266.11	1585.13
266.33	1640.42
266.54	1806.31
266.76	1710.05
266.98	1683.43
267.19	1746.92
267.41	1783.78
267.62	1693.67
267.84	1619.94
268.06	1722.34
268.27	1718.25
268.49	1677.29
268.70	1761.25
268.92	1732.58
269.14	1693.67
269.35	1654.76
269.57	1744.87
269.79	1740.77
270.00	1675.24
270.22	1828.84
270.43	1677.29
270.65	1591.27
270.87	1697.77
271.08	1775.59
271.30	1730.53
271.51	1730.53
271.73	1736.68
271.95	1789.92
272.16	1605.61
272.38	1720.29
272.59	1673.19
272.81	1718.25
273.02	1738.73
273.24	1720.29
273.46	1740.77
273.67	1677.29
273.89	1609.70
274.10	1761.25
274.32	1751.01
274.54	1738.73
274.75	1718.25
274.97	1710.05
275.18	1791.97
275.40	1730.53
275.61	1646.57
275.83	1759.21
276.05	1644.52
276.26	1703.91
276.48	1703.91
276.69	1716.20
276.91	1669.09
277.12	1771.49
277.34	1738.73
277.55	1804.26
277.77	1751.01
277.99	1669.09
278.20	1619.94
278.42	1599.46
278.63	1683.43
278.85	1732.58
279.06	1636.33
279.28	1738.73
279.49	1675.24
279.71	1771.49
279.93	1722.34
280.14	1656.81
280.36	1652.71
280.57	1767.40
280.79	1714.15
281.00	1652.71
281.22	1705.96
281.43	1685.48
281.65	1566.70
281.86	1630.18
282.08	1701.86
282.29	1828.84
282.51	1683.43
282.73	1722.34
282.94	1593.32
283.16	1787.88
283.37	1773.54
283.59	1742.82
283.80	1767.40
284.02	1738.73
284.23	1724.39
284.45	1699.81
284.66	1646.57
284.88	1636.33
285.09	1718.25
285.31	1732.58
285.52	1761.25
285.74	1599.46
285.95	1734.63
286.17	1738.73
286.38	1730.53
286.60	1607.66
286.81	1705.96
287.03	1722.34
287.24	1697.77
287.46	1701.86
287.67	1746.92
287.89	1845.22
288.10	1683.43
288.32	1693.67
288.53	1753.06
288.75	1785.83
288.96	1746.92
289.18	1669.09
289.39	1673.19
289.61	1785.83
289.82	1863.65
290.04	1837.03
290.25	1648.61
290.47	1697.77
290.68	1650.66
290.90	1783.78
291.11	1665.00
291.33	1705.96
291.54	1613.80
291.76	1605.61
291.97	1736.68
292.18	1751.01
292.40	1736.68
292.61	1621.99
292.83	1802.21
293.04	1730.53
293.26	1744.87
293.47	1708.01
293.69	1654.76
293.90	1724.39
294.12	1808.36
294.33	1699.81
294.55	1665.00
294.76	1746.92
294.97	1814.50
295.19	1843.17
295.40	1703.91
295.62	1685.48
295.83	1701.86
296.05	1611.75
296.26	1753.06
296.48	1648.61
296.69	1697.77
296.90	1652.71
297.12	1755.11
297.33	1802.21
297.55	1695.72
297.76	1744.87
297.98	1695.72
298.19	1677.29
298.41	1671.14
298.62	1644.52
298.83	1783.78
299.05	1683.43
299.26	1693.67
299.48	1607.66
299.69	1751.01
299.90	1705.96
300.12	1650.66
300.33	1650.66
300.55	1730.53
300.76	1746.92
300.98	1703.91
301.19	1742.82
301.40	1685.48
301.62	1693.67
301.83	1697.77
302.05	1658.85
302.26	1738.73
302.47	1722.34
302.69	1601.51
302.90	1730.53
303.12	1564.65
303.33	1712.10
303.54	1726.44
303.76	1705.96
303.97	1712.10
304.19	1771.49
304.40	1650.66
304.61	1695.72
304.83	1767.40
305.04	1738.73
305.26	1787.88
305.47	1660.90
305.68	1675.24
305.90	1687.53
306.11	1783.78
306.33	1595.37
306.54	1665.00
306.75	1628.14
306.97	1665.00
307.18	1634.28
307.39	1693.67
307.61	1785.83
307.82	1638.38
308.04	1628.14
308.25	1617.90
308.46	1728.49
308.68	1759.21
308.89	1642.47
309.10	1791.97
309.32	1724.39
309.53	1712.10
309.74	1665.00
309.96	1710.05
310.17	1722.34
310.39	1740.77
310.60	1730.53
310.81	1748.97
311.03	1632.23
311.24	1665.00
311.45	1638.38
311.67	1763.30
311.88	1687.53
312.09	1656.81
312.31	1665.00
312.52	1695.72
312.73	1683.43
312.95	1595.37
313.16	1695.72
313.37	1781.73
313.59	1658.85
313.80	1755.11
314.01	1728.49
314.23	1771.49
314.44	1675.24
314.65	1662.95
314.87	1699.81
315.08	1755.11
315.29	1632.23
315.51	1630.18
315.72	1630.18
315.93	1753.06
316.15	1726.44
316.36	1677.29
316.57	1759.21
316.79	1767.40
317.00	1689.57
317.21	1720.29
317.43	1701.86
317.64	1714.15
317.85	1648.61
318.07	1669.09
318.28	1746.92
318.49	1918.95
318.70	1953.76
318.92	1861.60
319.13	1798.12
319.34	1814.50
319.56	1806.31
319.77	1877.99
319.98	1820.64
320.20	1843.17
320.41	1802.21
320.62	1751.01
320.83	1689.57
321.05	1888.23
321.26	1708.01
321.47	1683.43
321.69	1705.96
321.90	1644.52
322.11	1742.82
322.32	1726.44
322.54	1738.73
322.75	1665.00
322.96	1882.08
323.18	1599.46
323.39	1667.05
323.60	1705.96
323.81	1771.49
324.03	1714.15
324.24	1755.11
324.45	1718.25
324.66	1675.24
324.88	1769.44
325.09	1765.35
325.30	1673.19
325.52	1734.63
325.73	1730.53
325.94	1632.23
326.15	1574.89
326.37	1630.18
326.58	1769.44
326.79	1798.12
327.00	1736.68
327.22	1730.53
327.43	1662.95
327.64	1601.51
327.85	1783.78
328.07	1767.40
328.28	1820.64
328.49	1671.14
328.70	1738.73
328.92	1628.14
329.13	1708.01
329.34	1781.73
329.55	1794.02
329.76	1736.68
329.98	1689.57
330.19	1812.45
330.40	1685.48
330.61	1763.30
330.83	1746.92
331.04	1611.75
331.25	1708.01
331.46	1681.38
331.68	1650.66
331.89	1796.07
332.10	1679.33
332.31	1701.86
332.52	1734.63
332.74	1783.78
332.95	1695.72
333.16	1669.09
333.37	1681.38
333.58	1701.86
333.80	1675.24
334.01	1703.91
334.22	1648.61
334.43	1648.61
334.64	1689.57
334.86	1529.83
335.07	1638.38
335.28	1800.16
335.49	1644.52
335.70	1763.30
335.92	1759.21
336.13	1853.41
336.34	1730.53
336.55	1669.09
336.76	1621.99
336.98	1626.09
337.19	1746.92
337.40	1804.26
337.61	1828.84
337.82	1675.24
338.04	1826.79
338.25	1632.23
338.46	1665.00
338.67	1722.34
338.88	1671.14
339.09	1667.05
339.31	1724.39
339.52	1691.62
339.73	1714.15
339.94	1730.53
340.15	1832.93
340.36	1681.38
340.58	1699.81
340.79	1662.95
341.00	1763.30
341.21	1648.61
341.42	1859.56
341.63	1708.01
341.85	1800.16
342.06	1751.01
342.27	1708.01
342.48	1812.45
342.69	1634.28
342.90	1734.63
343.12	1855.46
343.33	1660.90
343.54	1769.44
343.75	1730.53
343.96	1681.38
344.17	1654.76
344.38	1697.77
344.60	1638.38
344.81	1679.33
345.02	1652.71
345.23	1785.83
345.44	1789.92
345.65	1712.10
345.86	1820.64
346.07	1740.77
346.29	1722.34
346.50	1746.92
346.71	1740.77
346.92	1787.88
347.13	1830.88
347.34	1697.77
347.55	1681.38
347.76	1765.35
347.98	1689.57
348.19	1761.25
348.40	1757.16
348.61	1671.14
348.82	1822.69
349.03	1783.78
349.24	1697.77
349.45	1763.30
349.66	1501.16
349.88	1728.49
350.09	1667.05
350.30	1746.92
350.51	1794.02
350.72	1695.72
350.93	1751.01
351.14	1683.43
351.35	1708.01
351.56	1761.25
351.77	1652.71
351.99	1804.26
352.20	1773.54
352.41	1744.87
352.62	1603.56
352.83	1755.11
353.04	1671.14
353.25	1703.91
353.46	1742.82
353.67	1738.73
353.88	1591.27
354.09	1726.44
354.30	1730.53
354.52	1736.68
354.73	1759.21
354.94	1748.97
355.15	1646.57
355.36	1763.30
355.57	1738.73
355.78	1689.57
355.99	1640.42
356.20	1736.68
356.41	1806.31
356.62	1722.34
356.83	1794.02
357.04	1753.06
357.25	1566.70
357.46	1689.57
357.68	1632.23
357.89	1640.42
358.10	1761.25
358.31	1746.92
358.52	1710.05
358.73	1697.77
358.94	1642.47
359.15	1617.90
359.36	1765.35
359.57	1691.62
359.78	1687.53
359.99	1720.29
360.20	1671.14
360.41	1728.49
360.62	1759.21
360.83	1712.10
361.04	1712.10
361.25	1683.43
361.46	1824.74
361.67	1734.63
361.88	1732.58
362.09	1732.58
362.30	1746.92
362.51	1726.44
362.72	1687.53
362.93	1708.01
363.14	1783.78
363.35	1744.87
363.56	1660.90
363.78	1761.25
363.99	1691.62
364.20	1609.70
364.41	1771.49
364.62	1820.64
364.83	1734.63
365.04	1685.48
365.25	1728.49
365.46	1779.68
365.67	1699.81
365.88	1697.77
366.09	1703.91
366.30	1677.29
366.51	1675.24
366.72	1660.90
366.93	1738.73
367.14	1710.05
367.35	1761.25
367.56	1808.36
367.77	1834.98
367.98	1728.49
368.18	1677.29
368.39	1773.54
368.60	1724.39
368.81	1763.30
369.02	1722.34
369.23	1703.91
369.44	1632.23
369.65	1660.90
369.86	1759.21
370.07	1781.73
370.28	1736.68
370.49	1699.81
370.70	1726.44
370.91	1652.71
371.12	1658.85
371.33	1820.64
371.54	1603.56
371.75	1820.64
371.96	1675.24
372.17	1738.73
372.38	1708.01
372.59	1732.58
372.80	1636.33
373.01	1722.34
373.22	1796.07
373.43	1695.72
373.64	1699.81
373.85	1810.40
374.06	1902.56
374.26	1822.69
374.47	1685.48
374.68	1810.40
374.89	1775.59
375.10	1771.49
375.31	1746.92
375.52	1732.58
375.73	1714.15
375.94	1677.29
376.15	1757.16
376.36	1718.25
376.57	1710.05
376.78	1632.23
376.99	1644.52
377.20	1718.25
377.40	1724.39
377.61	1818.60
377.82	1669.09
378.03	1861.60
378.24	1742.82
378.45	1695.72
378.66	1773.54
378.87	1544.17
379.08	1673.19
379.29	1724.39
379.50	1767.40
379.71	1755.11
379.91	1746.92
380.12	1628.14
380.33	1748.97
380.54	1638.38
380.75	1636.33
380.96	1787.88
381.17	1726.44
381.38	1779.68
381.59	1816.55
381.80	1736.68
382.00	1798.12
382.21	1765.35
382.42	1849.32
382.63	1884.13
382.84	1845.22
383.05	1779.68
383.26	1761.25
383.47	1738.73
383.68	1779.68
383.88	1662.95
384.09	1787.88
384.30	1884.13
384.51	1718.25
384.72	1607.66
384.93	1693.67
385.14	1839.08
385.35	1751.01
385.55	1683.43
385.76	1757.16
385.97	1658.85
386.18	1689.57
386.39	1642.47
386.60	1632.23
386.81	1755.11
387.02	1681.38
387.22	1636.33
387.43	1794.02
387.64	1798.12
387.85	1941.47
388.06	2281.44
388.27	4732.86
388.48	9158.52
388.68	11478.86
388.89	13565.74
389.10	13823.79
389.31	11986.76
389.52	9670.51
389.73	8488.83
389.93	7845.77
390.14	7301.01
390.35	6645.66
390.56	5986.21
390.77	4982.71
390.98	3901.38
391.18	2990.03
391.39	2392.03
391.60	1908.71
391.81	1820.64
392.02	1703.91
392.23	1775.59
392.43	1759.21
392.64	1806.31
392.85	1656.81
393.06	1773.54
393.27	1722.34
393.47	1683.43
393.68	1718.25
393.89	1703.91
394.10	1777.64
394.31	1712.10
394.52	1708.01
394.72	1673.19
394.93	1783.78
395.14	1693.67
395.35	1712.10
395.56	1720.29
395.76	1761.25
395.97	1828.84
396.18	1837.03
396.39	1951.71
396.60	2138.08
396.80	1986.53
397.01	1873.89
397.22	1900.52
397.43	1892.32
397.64	1787.88
397.84	1820.64
398.05	1990.63
398.26	1816.55
398.47	1763.30
398.67	1783.78
398.88	1697.77
399.09	1777.64
399.30	1742.82
399.51	1755.11
399.71	1660.90
399.92	1697.77
400.13	1761.25
400.34	1742.82
400.54	1648.61
400.75	1732.58
400.96	1701.86
401.17	1812.45
401.37	1724.39
401.58	1722.34
401.79	1761.25
402.00	1865.70
402.21	2064.35
402.41	2062.30
402.62	2101.22
402.83	2246.62
403.04	2152.42
403.24	2138.08
403.45	1894.37
403.66	1964.00
403.87	1882.08
404.07	1968.10
404.28	1906.66
404.49	1925.09
404.70	1800.16
404.90	1753.06
405.11	1742.82
405.32	1738.73
405.52	1660.90
405.73	1660.90
405.94	1665.00
406.15	1652.71
406.35	1710.05
406.56	1763.30
406.77	1724.39
406.98	1781.73
407.18	1609.70
407.39	1746.92
407.60	1697.77
407.80	1779.68
408.01	1703.91
408.22	1730.53
408.43	1607.66
408.63	1675.24
408.84	1769.44
409.05	1767.40
409.25	1691.62
409.46	1679.33
409.67	1708.01
409.88	1746.92
410.08	1683.43
410.29	1728.49
410.50	1720.29
410.70	1755.11
410.91	1681.38
411.12	1722.34
411.32	1757.16
411.53	1677.29
411.74	1720.29
411.95	1869.80
412.15	1763.30
412.36	1834.98
412.57	1832.93
412.77	1834.98
412.98	1730.53
413.19	1730.53
413.39	1839.08
413.60	1757.16
413.81	1847.27
414.01	1759.21
414.22	1751.01
414.43	1697.77
414.63	1632.23
414.84	1779.68
415.05	1740.77
415.25	1669.09
415.46	1742.82
415.67	1675.24
415.87	1773.54
416.08	1705.96
416.29	1656.81
416.49	1683.43
416.70	1669.09
416.91	1712.10
417.11	1755.11
417.32	1705.96
417.53	1728.49
417.73	1763.30
417.94	1644.52
418.15	1697.77
418.35	1705.96
418.56	1640.42
418.77	1802.21
418.97	1667.05
419.18	1714.15
419.38	1626.09
419.59	1642.47
419.80	1855.46
420.00	1615.85
420.21	1708.01
420.42	1761.25
420.62	1724.39
420.83	1703.91
421.04	1753.06
421.24	1703.91
421.45	1755.11
421.65	1779.68
421.86	1693.67
422.07	1724.39
422.27	1652.71
422.48	1714.15
422.69	1621.99
422.89	1726.44
423.10	1693.67
423.30	1665.00
423.51	1681.38
423.72	1753.06
423.92	1787.88
424.13	1732.58
424.33	1740.77
424.54	1726.44
424.75	1677.29
424.95	1746.92
425.16	1701.86
425.36	1710.05
425.57	1785.83
425.78	1712.10
425.98	1828.84
426.19	1615.85
426.39	1652.71
426.60	1800.16
426.81	1791.97
427.01	1753.06
427.22	1722.34
427.42	1615.85
427.63	1621.99
427.83	1693.67
428.04	1859.56
428.25	1834.98
428.45	1783.78
428.66	1775.59
428.86	1683.43
429.07	1771.49
429.28	1742.82
429.48	1699.81
429.69	1705.96
429.89	1697.77
430.10	1679.33
430.30	1753.06
430.51	1722.34
430.71	1699.81
430.92	1730.53
431.13	1587.18
431.33	1777.64
431.54	1703.91
431.74	1886.18
431.95	1775.59
432.15	1628.14
432.36	1705.96
432.56	1691.62
432.77	1808.36
432.98	1830.88
433.18	1726.44
433.39	1728.49
433.59	1701.86
433.80	1771.49
434.00	1824.74
434.21	1642.47
434.41	1718.25
434.62	1877.99
434.82	1695.72
435.03	1613.80
435.23	1708.01
435.44	1597.42
435.64	1726.44
435.85	1691.62
436.06	1738.73
436.26	1751.01
436.47	1658.85
436.67	1660.90
436.88	1769.44
437.08	1714.15
437.29	1837.03
437.49	1744.87
437.70	1763.30
437.90	1693.67
438.11	1828.84
438.31	1800.16
438.52	1935.33
438.72	1892.32
438.93	1906.66
439.13	1839.08
439.34	1859.56
439.54	1759.21
439.75	1791.97
439.95	1763.30
440.16	1644.52
440.36	1730.53
440.57	1746.92
440.77	1759.21
440.98	1798.12
441.18	1738.73
441.39	1748.97
441.59	1654.76
441.80	1810.40
442.00	1734.63
442.21	1789.92
442.41	1681.38
442.62	1728.49
442.82	1658.85
443.02	1740.77
443.23	1734.63
443.43	1724.39
443.64	1734.63
443.84	1705.96
444.05	1794.02
444.25	1791.97
444.46	1746.92
444.66	1777.64
444.87	1855.46
445.07	1605.61
445.28	1697.77
445.48	1789.92
445.69	1751.01
445.89	1869.80
446.09	1740.77
446.30	2023.39
446.50	2611.16
446.71	4032.45
446.91	5171.12
447.12	5613.48
447.32	6000.55
447.53	5230.51
447.73	4384.70
447.93	3991.49
448.14	3565.51
448.34	3442.64
448.55	3151.82
448.75	3098.58
448.96	2990.03
449.16	2717.65
449.36	2367.45
449.57	2088.93
449.77	2002.91
449.98	1781.73
450.18	1796.07
450.39	1763.30
450.59	1773.54
450.79	1724.39
451.00	1708.01
451.20	1804.26
451.41	1751.01
451.61	1716.20
451.81	1755.11
452.02	1714.15
452.22	1722.34
452.43	1730.53
452.63	1708.01
452.84	1820.64
453.04	1726.44
453.24	1781.73
453.45	1673.19
453.65	1761.25
453.86	1693.67
454.06	1828.84
454.26	1714.15
454.47	1755.11
454.67	1814.50
454.87	1681.38
455.08	1693.67
455.28	1898.47
455.49	1746.92
455.69	1669.09
455.89	1837.03
456.10	1882.08
456.30	1685.48
456.51	1845.22
456.71	1710.05
456.91	1759.21
457.12	1732.58
457.32	1783.78
457.52	1693.67
457.73	1734.63
457.93	1673.19
458.14	1746.92
458.34	1656.81
458.54	1621.99
458.75	1697.77
458.95	1794.02
459.15	1791.97
459.36	1724.39
459.56	1730.53
459.76	1830.88
459.97	1763.30
460.17	1732.58
460.37	1697.77
460.58	1734.63
460.78	1769.44
460.99	1689.57
461.19	1732.58
461.39	1740.77
461.60	1724.39
461.80	1724.39
462.00	1667.05
462.21	1697.77
462.41	1761.25
462.61	1650.66
462.82	1675.24
463.02	1802.21
463.22	1744.87
463.43	1834.98
463.63	1662.95
463.83	1847.27
464.04	1716.20
464.24	1701.86
464.44	1748.97
464.64	1769.44
464.85	1791.97
465.05	1822.69
465.25	1714.15
465.46	1736.68
465.66	1734.63
465.86	1777.64
466.07	1753.06
466.27	1699.81
466.47	1683.43
466.68	1605.61
466.88	1839.08
467.08	1785.83
467.29	1812.45
467.49	1726.44
467.69	1783.78
467.89	1802.21
468.10	1742.82
468.30	1779.68
468.50	1787.88
468.71	1828.84
468.91	1695.72
469.11	1869.80
469.31	1695.72
469.52	1677.29
469.72	1822.69
469.92	1832.93
470.13	1785.83
470.33	1697.77
470.53	1851.36
470.73	2115.55
470.94	2475.99
471.14	2738.13
471.34	2994.13
471.54	2869.20
471.75	2494.43
471.95	2320.35
472.15	2232.29
472.36	2326.49
472.56	2211.81
472.76	2191.33
472.96	2066.40
473.17	1972.19
473.37	1923.04
473.57	1892.32
473.77	1853.41
473.98	1755.11
474.18	1710.05
474.38	1855.46
474.58	1708.01
474.79	1701.86
474.99	1765.35
475.19	1734.63
475.39	1671.14
475.60	1691.62
475.80	1753.06
476.00	1771.49
476.20	1722.34
476.41	1718.25
476.61	1804.26
476.81	1765.35
477.01	1701.86
477.21	1789.92
477.42	1796.07
477.62	1624.04
477.82	1761.25
478.02	1753.06
478.23	1703.91
478.43	1683.43
478.63	1669.09
478.83	1677.29
479.03	1718.25
479.24	1816.55
479.44	1816.55
479.64	1703.91
479.84	1611.75
480.04	1740.77
480.25	1794.02
480.45	1734.63
480.65	1759.21
480.85	1822.69
481.06	1650.66
481.26	1732.58
481.46	1769.44
481.66	1765.35
481.86	1687.53
482.06	1832.93
482.27	1693.67
482.47	1716.20
482.67	1763.30
482.87	1626.09
483.07	1923.04
483.28	1701.86
483.48	1648.61
483.68	1662.95
483.88	1685.48
484.08	1665.00
484.29	1652.71
484.49	1722.34
484.69	1607.66
484.89	1779.68
485.09	1806.31
485.29	1761.25
485.50	1804.26
485.70	1636.33
485.90	1849.32
486.10	1761.25
486.30	1759.21
486.50	1777.64
486.71	1746.92
486.91	1816.55
487.11	1769.44
487.31	1660.90
487.51	1746.92
487.71	1640.42
487.91	1714.15
488.12	1638.38
488.32	1634.28
488.52	1648.61
488.72	1652.71
488.92	1738.73
489.12	1761.25
489.32	1779.68
489.53	1726.44
489.73	1650.66
489.93	1767.40
490.13	1665.00
490.33	1695.72
490.53	1710.05
490.73	1851.36
490.94	1597.42
491.14	1755.11
491.34	1775.59
491.54	2093.02
491.74	2691.03
491.94	3278.80
492.14	3463.12
492.34	3504.07
492.54	3289.04
492.75	2723.80
492.95	2568.15
493.15	2496.47
493.35	2379.74
493.55	2324.44
493.75	2299.87
493.95	2183.13
494.15	2086.88
494.35	2054.11
494.56	1927.14
494.76	1804.26
494.96	1761.25
495.16	1796.07
495.36	1800.16
495.56	1789.92
495.76	1656.81
495.96	1722.34
496.16	1662.95
496.36	1830.88
496.56	1728.49
496.77	1673.19
496.97	1695.72
497.17	1740.77
497.37	1648.61
497.57	1751.01
497.77	1722.34
497.97	1673.19
498.17	1722.34
498.37	1691.62
498.57	1742.82
498.77	1667.05
498.97	1828.84
499.17	1746.92
499.38	1710.05
499.58	1791.97
499.78	1810.40
499.98	1808.36
500.18	1644.52
500.38	1697.77
500.58	1841.12
500.78	2471.90
500.98	4587.45
501.18	6557.60
501.38	8025.99
501.58	9035.64
501.78	8707.96
501.98	6948.76
502.18	5887.91
502.38	4958.13
502.58	4464.57
502.78	4190.14
502.98	3991.49
503.18	3805.13
503.38	3551.18
503.59	3117.01
503.79	2813.91
503.99	2570.20
504.19	2414.56
504.39	2353.12
504.59	2383.84
504.79	2324.44
504.99	2226.14
505.19	2088.93
505.39	2002.91
505.59	2074.59
505.79	2004.96
505.99	1918.95
506.19	1859.56
506.39	1931.23
506.59	1740.77
506.79	1796.07
506.99	1861.60
507.19	1812.45
507.39	1734.63
507.59	1658.85
507.79	1718.25
507.99	1712.10
508.19	1689.57
508.39	1794.02
508.59	1660.90
508.79	1781.73
508.99	1873.89
509.19	1652.71
509.39	1765.35
509.59	1738.73
509.79	1675.24
509.99	1800.16
510.19	1753.06
510.39	1851.36
510.59	1703.91
510.79	1722.34
510.99	1634.28
511.19	1716.20
511.39	1808.36
511.59	1771.49
511.79	1791.97
511.99	1771.49
512.19	1810.40
512.38	1738.73
512.58	1732.58
512.78	1755.11
512.98	1779.68
513.18	1773.54
513.38	1658.85
513.58	1773.54
513.78	1738.73
513.98	1708.01
514.18	1777.64
514.38	1708.01
514.58	1712.10
514.78	1703.91
514.98	1662.95
515.18	1691.62
515.38	1658.85
515.58	1814.50
515.78	1736.68
515.98	1769.44
516.18	1726.44
516.38	1646.57
516.57	1726.44
516.77	1703.91
516.97	1775.59
517.17	1705.96
517.37	1669.09
517.57	1830.88
517.77	1757.16
517.97	1689.57
518.17	1853.41
518.37	1624.04
518.57	1636.33
518.77	1753.06
518.97	1710.05
519.16	1794.02
519.36	1837.03
519.56	1714.15
519.76	1771.49
519.96	1683.43
520.16	1845.22
520.36	1724.39
520.56	1828.84
520.76	1689.57
520.96	1662.95
521.16	1757.16
521.35	1812.45
521.55	1806.31
521.75	1734.63
521.95	1765.35
522.15	1771.49
522.35	1710.05
522.55	1734.63
522.75	1798.12
522.95	1714.15
523.14	1669.09
523.34	1716.20
523.54	1687.53
523.74	1781.73
523.94	1812.45
524.14	1712.10
524.34	1753.06
524.54	1755.11
524.73	1677.29
524.93	1808.36
525.13	1679.33
525.33	1650.66
525.53	1857.51
525.73	1851.36
525.93	1710.05
526.13	1624.04
526.32	1697.77
526.52	1796.07
526.72	1791.97
526.92	1783.78
527.12	1646.57
527.32	1605.61
527.52	1767.40
527.71	1734.63
527.91	1724.39
528.11	1722.34
528.31	1724.39
528.51	1695.72
528.71	1701.86
528.90	1693.67
529.10	1847.27
529.30	1800.16
529.50	1605.61
529.70	1691.62
529.90	1675.24
530.09	1650.66
530.29	1683.43
530.49	1658.85
530.69	1818.60
530.89	1767.40
531.09	1787.88
531.28	1730.53
531.48	1720.29
531.68	1746.92
531.88	1769.44
532.08	1697.77
532.28	1738.73
532.47	1753.06
532.67	1785.83
532.87	1777.64
533.07	1751.01
533.27	1771.49
533.46	1775.59
533.66	1748.97
533.86	1695.72
534.06	1800.16
534.26	1751.01
534.45	1718.25
534.65	1828.84
534.85	1753.06
535.05	1718.25
535.25	1783.78
535.44	1660.90
535.64	1757.16
535.84	1781.73
536.04	1751.01
536.24	1632.23
536.43	1648.61
536.63	1693.67
536.83	1767.40
537.03	1732.58
537.22	1703.91
537.42	1726.44
537.62	1748.97
537.82	1744.87
538.02	1820.64
538.21	1880.04
538.41	1869.80
538.61	1763.30
538.81	1734.63
539.00	1877.99
539.20	1665.00
539.40	1695.72
539.60	1734.63
539.79	1738.73
539.99	1740.77
540.19	1658.85
540.39	1779.68
540.58	1800.16
540.78	1716.20
540.98	1802.21
541.18	1775.59
541.37	1779.68
541.57	1796.07
541.77	1781.73
541.97	1808.36
542.16	1673.19
542.36	1771.49
542.56	1753.06
542.76	1806.31
542.95	1695.72
543.15	1720.29
543.35	1802.21
543.54	1605.61
543.74	1722.34
543.94	1902.56
544.14	1716.20
544.33	1761.25
544.53	1730.53
544.73	1753.06
544.93	1740.77
545.12	1646.57
545.32	1726.44
545.52	1734.63
545.71	1673.19
545.91	1695.72
546.11	1699.81
546.30	1716.20
546.50	1763.30
546.70	1814.50
546.90	1732.58
547.09	1615.85
547.29	1712.10
547.49	1769.44
547.68	1724.39
547.88	1710.05
548.08	1714.15
548.27	2111.46
548.47	1673.19
548.67	1634.28
548.87	1734.63
549.06	1712.10
549.26	1748.97
549.46	1710.05
549.65	1708.01
549.85	1724.39
550.05	1751.01
550.24	1714.15
550.44	1665.00
550.64	1798.12
550.83	1755.11
551.03	1765.35
551.23	1820.64
551.42	1757.16
551.62	1708.01
551.82	1705.96
552.01	1751.01
552.21	1849.32
552.41	1748.97
552.60	1855.46
552.80	1791.97
553.00	1718.25
553.19	1697.77
553.39	1853.41
553.59	1656.81
553.78	1736.68
553.98	1689.57
554.17	1730.53
554.37	1718.25
554.57	1736.68
554.76	1673.19
554.96	1730.53
555.16	1830.88
555.35	1699.81
555.55	1800.16
555.75	1783.78
555.94	1886.18
556.14	1603.56
556.33	1773.54
556.53	1665.00
556.73	1804.26
556.92	1824.74
557.12	1880.04
557.32	1847.27
557.51	1701.86
557.71	1783.78
557.90	1798.12
558.10	1808.36
558.30	1716.20
558.49	1720.29
558.69	1716.20
558.88	1763.30
559.08	1787.88
559.28	1722.34
559.47	1705.96
559.67	1746.92
559.86	1886.18
560.06	1761.25
560.26	1757.16
560.45	1791.97
560.65	1712.10
560.84	1873.89
561.04	1775.59
561.24	1744.87
561.43	1718.25
561.63	1890.28
561.82	1800.16
562.02	1728.49
562.22	1679.33
562.41	1677.29
562.61	1701.86
562.80	1669.09
563.00	1912.80
563.19	1855.46
563.39	1757.16
563.59	1734.63
563.78	1714.15
563.98	1628.14
564.17	1665.00
564.37	1626.09
564.56	1732.58
564.76	1638.38
564.96	1853.41
565.15	1787.88
565.35	1894.37
565.54	1742.82
565.74	1746.92
565.93	1818.60
566.13	1814.50
566.32	1740.77
566.52	1794.02
566.71	1748.97
566.91	1748.97
567.11	1759.21
567.30	1675.24
567.50	1781.73
567.69	1732.58
567.89	1722.34
568.08	1734.63
568.28	1767.40
568.47	1671.14
568.67	1798.12
568.86	1734.63
569.06	1771.49
569.25	1753.06
569.45	1703.91
569.64	1675.24
569.84	1738.73
570.04	1779.68
570.23	1714.15
570.43	1697.77
570.62	1767.40
570.82	1869.80
571.01	1648.61
571.21	1681.38
571.40	1656.81
571.60	1810.40
571.79	1726.44
571.99	1714.15
572.18	1681.38
572.38	1771.49
572.57	1699.81
572.77	1812.45
572.96	1892.32
573.16	1753.06
573.35	1808.36
573.55	1826.79
573.74	1796.07
573.94	1710.05
574.13	1712.10
574.33	1812.45
574.52	1781.73
574.71	1746.92
574.91	1705.96
575.10	1683.43
575.30	1734.63
575.49	1652.71
575.69	1814.50
575.88	1841.12
576.08	1728.49
576.27	1863.65
576.47	1722.34
576.66	1898.47
576.86	1904.61
577.05	1791.97
577.25	1783.78
577.44	1814.50
577.64	1798.12
577.83	1771.49
578.02	1701.86
578.22	1875.94
578.41	1802.21
578.61	1701.86
578.80	1714.15
579.00	1714.15
579.19	1732.58
579.39	1751.01
579.58	1800.16
579.77	1759.21
579.97	1798.12
580.16	1798.12
580.36	1920.99
580.55	1853.41
580.75	1814.50
580.94	1789.92
581.13	1902.56
581.33	1851.36
581.52	1781.73
581.72	1877.99
581.91	1918.95
582.11	1773.54
582.30	1834.98
582.49	1742.82
582.69	1867.75
582.88	1837.03
583.08	1859.56
583.27	1791.97
583.47	1810.40
583.66	1681.38
583.85	1761.25
584.05	1794.02
584.24	1859.56
584.44	1884.13
584.63	1873.89
584.82	1847.27
585.02	1900.52
585.21	1890.28
585.41	1787.88
585.60	1849.32
585.79	2000.87
585.99	1968.10
586.18	1898.47
586.37	2205.66
586.57	3364.81
586.76	10026.86
586.96	27072.10
587.15	41883.01
587.34	51420.40
587.54	57846.93
587.73	55397.55
587.93	40023.45
588.12	29699.64
588.31	23758.49
588.51	20199.12
588.70	18357.99
588.89	17053.44
589.09	15353.62
589.28	13506.35
589.47	11304.79
589.67	9396.08
589.86	7325.58
590.06	5427.12
590.25	4179.90
590.44	3299.28
590.64	2748.37
590.83	2336.73
591.02	2111.46
591.22	1947.62
591.41	1961.95
591.60	1843.17
591.80	1959.91
591.99	1771.49
592.18	1853.41
592.38	1871.84
592.57	1794.02
592.76	1767.40
592.96	1685.48
593.15	1736.68
593.34	1871.84
593.54	1742.82
593.73	1798.12
593.92	1884.13
594.12	1783.78
594.31	1849.32
594.50	1957.86
594.70	1804.26
594.89	1841.12
595.08	1689.57
595.28	1853.41
595.47	1871.84
595.66	1837.03
595.86	1681.38
596.05	1818.60
596.24	1785.83
596.43	1902.56
596.63	1859.56
596.82	1763.30
597.01	1826.79
597.21	1902.56
597.40	1804.26
597.59	1775.59
597.79	1769.44
597.98	1738.73
598.17	1753.06
598.36	1730.53
598.56	1773.54
598.75	1710.05
598.94	1757.16
599.14	1843.17
599.33	1712.10
599.52	1804.26
599.71	1804.26
599.91	1779.68
600.10	1720.29
600.29	1697.77
600.48	1787.88
600.68	1775.59
600.87	1742.82
601.06	1701.86
601.26	1714.15
601.45	1796.07
601.64	1673.19
601.83	1869.80
602.03	1722.34
602.22	1646.57
602.41	1730.53
602.60	1857.51
602.80	1779.68
602.99	1802.21
603.18	1675.24
603.37	1777.64
603.57	1843.17
603.76	1789.92
603.95	1785.83
604.14	1777.64
604.34	1714.15
604.53	1685.48
604.72	1761.25
604.91	1783.78
605.10	1734.63
605.30	1609.70
605.49	1832.93
605.68	1767.40
605.87	1748.97
606.07	1761.25
606.26	1681.38
606.45	1730.53
606.64	1794.02
606.84	1841.12
607.03	1787.88
607.22	1816.55
607.41	1783.78
607.60	1748.97
607.80	1802.21
607.99	1761.25
608.18	1779.68
608.37	1816.55
608.56	1705.96
608.76	1816.55
608.95	1863.65
609.14	1769.44
609.33	1851.36
609.52	1900.52
609.72	1822.69
609.91	1830.88
610.10	1693.67
610.29	1824.74
610.48	1757.16
610.68	1695.72
610.87	1740.77
611.06	1818.60
611.25	1705.96
611.44	1798.12
611.63	1705.96
611.83	1834.98
612.02	1699.81
612.21	1871.84
612.40	1636.33
612.59	1624.04
612.79	1648.61
612.98	1730.53
613.17	1798.12
613.36	1781.73
613.55	1884.13
613.74	1791.97
613.93	1855.46
614.13	1931.23
614.32	1935.33
614.51	1923.04
614.70	1843.17
614.89	1767.40
615.08	1820.64
615.28	2131.94
615.47	1679.33
615.66	1757.16
615.85	1798.12
616.04	1863.65
616.23	1847.27
616.42	1796.07
616.62	1808.36
616.81	1853.41
617.00	1753.06
617.19	1716.20
617.38	1681.38
617.57	1732.58
617.76	1830.88
617.95	1732.58
618.15	1773.54
618.34	1828.84
618.53	1703.91
618.72	1869.80
618.91	1834.98
619.10	1867.75
619.29	1681.38
619.48	1804.26
619.68	1773.54
619.87	1667.05
620.06	1681.38
620.25	1755.11
620.44	1681.38
620.63	1730.53
620.82	1730.53
621.01	1783.78
621.20	1673.19
621.39	1699.81
621.59	1777.64
621.78	1718.25
621.97	1763.30
622.16	1767.40
622.35	1748.97
622.54	1789.92
622.73	1789.92
622.92	1681.38
623.11	1773.54
623.30	1779.68
623.49	1669.09
623.68	1755.11
623.88	1804.26
624.07	1697.77
624.26	1720.29
624.45	1724.39
624.64	1679.33
624.83	1734.63
625.02	1710.05
625.21	1681.38
625.40	1767.40
625.59	1769.44
625.78	1728.49
625.97	1898.47
626.16	1816.55
626.35	1800.16
626.54	1832.93
626.74	1884.13
626.93	1765.35
627.12	1845.22
627.31	1742.82
627.50	1839.08
627.69	1730.53
627.88	1705.96
628.07	1867.75
628.26	1746.92
628.45	1611.75
628.64	1671.14
628.83	1738.73
629.02	1658.85
629.21	1837.03
629.40	1722.34
629.59	1714.15
629.78	1755.11
629.97	1730.53
630.16	1779.68
630.35	1742.82
630.54	1699.81
630.73	1695.72
630.92	1746.92
631.11	1691.62
631.30	1769.44
631.49	1744.87
631.68	1736.68
631.87	1724.39
632.06	1685.48
632.25	1929.19
632.44	1816.55
632.63	1761.25
632.82	1746.92
633.01	1857.51
633.20	1810.40
633.39	1730.53
633.58	1736.68
633.77	1751.01
633.96	1828.84
634.15	1718.25
634.34	1818.60
634.53	1804.26
634.72	1728.49
634.91	1689.57
635.10	1783.78
635.29	1746.92
635.48	1769.44
635.67	1693.67
635.86	1642.47
636.05	1708.01
636.24	1714.15
636.43	1785.83
636.62	1720.29
636.81	1591.27
637.00	1742.82
637.19	1755.11
637.38	1687.53
637.57	1769.44
637.76	1810.40
637.95	1873.89
638.14	1785.83
638.33	1822.69
638.52	1822.69
638.71	1808.36
638.89	1685.48
639.08	1953.76
639.27	1847.27
639.46	1953.76
639.65	2152.42
639.84	2303.96
640.03	2367.45
640.22	2322.40
640.41	2406.36
640.60	2064.35
640.79	1980.39
640.98	1939.43
641.17	1818.60
641.36	1869.80
641.55	1925.09
641.74	1810.40
641.92	1722.34
642.11	1751.01
642.30	1775.59
642.49	1730.53
642.68	1740.77
642.87	1779.68
643.06	1837.03
643.25	1675.24
643.44	1617.90
643.63	1798.12
643.82	1779.68
644.00	1624.04
644.19	1757.16
644.38	1746.92
644.57	1751.01
644.76	1685.48
644.95	1675.24
645.14	1763.30
645.33	1722.34
645.52	1773.54
645.71	1697.77
645.89	1681.38
646.08	1708.01
646.27	1720.29
646.46	1851.36
646.65	1636.33
646.84	1712.10
647.03	1642.47
647.22	1783.78
647.40	1753.06
647.59	1693.67
647.78	1648.61
647.97	1665.00
648.16	1642.47
648.35	1787.88
648.54	1718.25
648.73	1779.68
648.91	1734.63
649.10	1695.72
649.29	1636.33
649.48	1708.01
649.67	1689.57
649.86	1658.85
650.05	1769.44
650.23	1953.76
650.42	1785.83
650.61	1982.43
650.80	1957.86
650.99	1984.48
651.18	1861.60
651.36	1806.31
651.55	1697.77
651.74	1806.31
651.93	1806.31
652.12	1759.21
652.31	1783.78
652.49	1691.62
652.68	1724.39
652.87	1824.74
653.06	1726.44
653.25	1853.41
653.44	1683.43
653.62	1755.11
653.81	1691.62
654.00	1662.95
654.19	1763.30
654.38	1855.46
654.56	1800.16
654.75	1718.25
654.94	1767.40
655.13	1687.53
655.32	1722.34
655.51	1781.73
655.69	1703.91
655.88	1759.21
656.07	1660.90
656.26	1730.53
656.45	1609.70
656.63	1730.53
656.82	1783.78
657.01	1791.97
657.20	1751.01
657.38	1849.32
657.57	1691.62
657.76	1654.76
657.95	1730.53
658.14	1716.20
658.32	1673.19
658.51	1722.34
658.70	1732.58
658.89	1763.30
659.08	1693.67
659.26	1861.60
659.45	1703.91
659.64	1759.21
659.83	1755.11
660.01	1996.77
660.20	1757.16
660.39	1886.18
660.58	1724.39
660.76	1742.82
660.95	1763.30
661.14	1691.62
661.33	1705.96
661.51	1726.44
661.70	1607.66
661.89	1787.88
662.08	1736.68
662.26	1708.01
662.45	1607.66
662.64	1837.03
662.83	1763.30
663.01	1662.95
663.20	1687.53
663.39	1824.74
663.58	1685.48
663.76	1740.77
663.95	1744.87
664.14	1636.33
664.32	1710.05
664.51	1722.34
664.70	1601.51
664.89	1796.07
665.07	1605.61
665.26	1791.97
665.45	1640.42
665.64	1761.25
665.82	1665.00
666.01	1843.17
666.20	1744.87
666.38	1789.92
666.57	1767.40
666.76	2207.71
666.95	4739.00
667.13	11679.57
667.32	18601.70
667.51	22208.17
667.69	25011.84
667.88	25290.37
668.07	19844.82
668.25	14395.17
668.44	11734.86
668.63	9701.23
668.81	8593.28
669.00	7505.81
669.19	6924.18
669.38	6193.06
669.56	5451.69
669.75	4530.11
669.94	3708.87
670.12	3170.26
670.31	2752.47
670.50	2322.40
670.68	2121.70
670.87	1998.82
671.06	1869.80
671.24	1873.89
671.43	1830.88
671.62	1796.07
671.80	1761.25
671.99	1751.01
672.18	1796.07
672.36	1755.11
672.55	1738.73
672.74	1771.49
672.92	1753.06
673.11	1771.49
673.29	1650.66
673.48	1787.88
673.67	1718.25
673.85	1791.97
674.04	1718.25
674.23	1708.01
674.41	1822.69
674.60	1687.53
674.79	1681.38
674.97	1728.49
675.16	1748.97
675.34	1724.39
675.53	1568.74
675.72	1734.63
675.90	1820.64
676.09	1722.34
676.28	1732.58
676.46	1701.86
676.65	1763.30
676.83	1650.66
677.02	1779.68
677.21	1708.01
677.39	1677.29
677.58	1703.91
677.77	1607.66
677.95	1615.85
678.14	1716.20
678.32	1683.43
678.51	1722.34
678.70	1861.60
678.88	1636.33
679.07	1753.06
679.25	1695.72
679.44	1677.29
679.63	1650.66
679.81	1679.33
680.00	1783.78
680.18	1730.53
680.37	1796.07
680.55	1742.82
680.74	1640.42
680.93	1599.46
681.11	1652.71
681.30	1697.77
681.48	1734.63
681.67	1695.72
681.85	1751.01
682.04	1673.19
682.23	1734.63
682.41	1820.64
682.60	1748.97
682.78	1716.20
682.97	1689.57
683.15	1722.34
683.34	1730.53
683.53	1712.10
683.71	1624.04
683.90	1791.97
684.08	1783.78
684.27	1673.19
684.45	1654.76
684.64	1673.19
684.82	1751.01
685.01	1755.11
685.19	1679.33
685.38	1824.74
685.57	1679.33
685.75	1742.82
685.94	1710.05
686.12	1624.04
686.31	1665.00
686.49	1839.08
686.68	1568.74
686.86	1673.19
687.05	1693.67
687.23	1757.16
687.42	1689.57
687.60	1599.46
687.79	1767.40
687.97	1834.98
688.16	1814.50
688.34	1757.16
688.53	1621.99
688.71	1687.53
688.90	1769.44
689.08	1691.62
689.27	1681.38
689.45	1771.49
689.64	1728.49
689.82	1718.25
690.01	1708.01
690.19	1699.81
690.38	1771.49
690.56	1773.54
690.75	1667.05
690.93	1699.81
691.12	1708.01
691.30	1656.81
691.49	1699.81
691.67	1738.73
691.86	1761.25
692.04	1724.39
692.23	1652.71
692.41	1757.16
692.60	1898.47
692.78	1845.22
692.97	1726.44
693.15	1789.92
693.34	1859.56
693.52	1857.51
693.71	1771.49
693.89	1697.77
694.08	1712.10
694.26	1826.79
694.44	1773.54
694.63	1740.77
694.81	1718.25
695.00	1724.39
695.18	1771.49
695.37	1781.73
695.55	1701.86
695.74	1705.96
695.92	1646.57
696.10	1755.11
696.29	1609.70
696.47	1712.10
696.66	1726.44
696.84	1679.33
697.03	1705.96
697.21	1818.60
697.40	2299.87
697.58	1843.17
697.76	1677.29
697.95	1652.71
698.13	1677.29
698.32	1636.33
698.50	1681.38
698.68	1767.40
698.87	1679.33
699.05	1724.39
699.24	1718.25
699.42	1703.91
699.61	1716.20
699.79	1716.20
699.97	1757.16
700.16	1644.52
700.34	1648.61
700.53	1665.00
700.71	1882.08
700.89	1755.11
701.08	1662.95
701.26	1724.39
701.45	2119.65
701.63	1665.00
701.81	1697.77
702.00	1738.73
702.18	1681.38
702.37	1722.34
702.55	1812.45
702.73	1886.18
702.92	1906.66
703.10	1976.29
703.28	1994.72
703.47	1877.99
703.65	1912.80
703.84	1808.36
704.02	1783.78
704.20	1869.80
704.39	1730.53
704.57	1744.87
704.75	1804.26
704.94	1916.90
705.12	1779.68
705.30	1890.28
705.49	2512.86
705.67	5496.75
705.86	13115.19
706.04	19283.67
706.22	22826.66
706.41	24880.77
706.59	24452.75
706.77	18956.00
706.96	13629.23
707.14	11894.60
707.32	10119.01
707.51	8816.51
707.69	7681.93
707.87	6756.25
708.06	5513.13
708.24	4382.65
708.42	3360.72
708.61	2748.37
708.79	2197.47
708.97	1996.77
709.16	1920.99
709.34	1914.85
709.52	1865.70
709.71	1753.06
709.89	1767.40
710.07	1679.33
710.26	1662.95
710.44	1761.25
710.62	1828.84
710.80	1708.01
710.99	1771.49
711.17	1802.21
711.35	1660.90
711.54	1742.82
711.72	1789.92
711.90	1738.73
712.09	1705.96
712.27	1728.49
712.45	1775.59
712.63	1705.96
712.82	1765.35
713.00	1736.68
713.18	1800.16
713.37	1798.12
713.55	1730.53
713.73	1779.68
713.91	1699.81
714.10	1681.38
714.28	1660.90
714.46	1863.65
714.65	1746.92
714.83	1714.15
715.01	1703.91
715.19	1751.01
715.38	1650.66
715.56	1785.83
715.74	1773.54
715.92	1648.61
716.11	1794.02
716.29	1677.29
716.47	1634.28
716.65	1708.01
716.84	1662.95
717.02	1740.77
717.20	1617.90
717.38	1652.71
717.57	1742.82
717.75	1791.97
717.93	1796.07
718.11	1755.11
718.30	1665.00
718.48	1703.91
718.66	1751.01
718.84	1701.86
719.03	1705.96
719.21	1658.85
719.39	1853.41
719.57	1716.20
719.75	1812.45
719.94	1617.90
720.12	1685.48
720.30	1753.06
720.48	1765.35
720.67	1691.62
720.85	1695.72
721.03	1746.92
721.21	1617.90
721.39	1818.60
721.58	1673.19
721.76	1693.67
721.94	1697.77
722.12	1699.81
722.30	1857.51
722.49	1689.57
722.67	1755.11
722.85	1710.05
723.03	1591.27
723.21	1808.36
723.40	1673.19
723.58	1779.68
723.76	1761.25
723.94	1851.36
724.12	1757.16
724.30	1843.17
724.49	1841.12
724.67	1736.68
724.85	1910.75
725.03	1681.38
725.21	1712.10
725.40	1834.98
725.58	1703.91
725.76	1824.74
725.94	1783.78
726.12	1615.85
726.30	1716.20
726.49	1746.92
726.67	1675.24
726.85	1753.06
727.03	1845.22
727.21	2172.89
727.39	3319.76
727.57	4984.76
727.76	5732.26
727.94	6236.06
728.12	6410.14
728.30	5674.92
728.48	4566.97
728.66	3864.52
728.84	3518.41
729.03	3190.74
729.21	2877.40
729.39	2437.08
729.57	2160.61
729.75	2015.20
729.93	1906.66
730.11	1751.01
730.30	1736.68
730.48	1765.35
730.66	1832.93
730.84	1734.63
731.02	1710.05
731.20	1689.57
731.38	1728.49
731.56	1640.42
731.74	1613.80
731.93	1820.64
732.11	1695.72
732.29	1705.96
732.47	1722.34
732.65	1722.34
732.83	1841.12
733.01	1763.30
733.19	1656.81
733.37	1718.25
733.56	1798.12
733.74	1753.06
733.92	1761.25
734.10	1712.10
734.28	1734.63
734.46	1630.18
734.64	1630.18
734.82	1730.53
735.00	1683.43
735.18	1677.29
735.36	1730.53
735.54	1650.66
735.73	1695.72
735.91	1751.01
736.09	1830.88
736.27	1708.01
736.45	1734.63
736.63	1562.60
736.81	1636.33
736.99	1806.31
737.17	1748.97
737.35	1658.85
737.53	1736.68
737.71	1708.01
737.89	1839.08
738.07	1708.01
738.25	1626.09
738.43	1665.00
738.61	1728.49
738.80	1636.33
738.98	1660.90
739.16	1669.09
739.34	1689.57
739.52	1769.44
739.70	1677.29
739.88	1757.16
740.06	1808.36
740.24	1632.23
740.42	1849.32
740.60	1558.50
740.78	1679.33
740.96	1660.90
741.14	1705.96
741.32	1759.21
741.50	1632.23
741.68	1810.40
741.86	1798.12
742.04	1621.99
742.22	1652.71
742.40	1689.57
742.58	1665.00
742.76	1648.61
742.94	1759.21
743.12	1677.29
743.30	1673.19
743.48	1787.88
743.66	1667.05
743.84	1728.49
744.02	1732.58
744.20	1667.05
744.38	1671.14
744.56	1634.28
744.74	1775.59
744.92	1748.97
745.10	1853.41
745.28	1820.64
745.46	1806.31
745.64	1699.81
745.82	1746.92
746.00	1748.97
746.18	1681.38
746.36	1708.01
746.54	1714.15
746.72	1703.91
746.90	1685.48
747.08	1685.48
747.26	1652.71
747.44	1705.96
747.62	1761.25
747.80	1720.29
747.98	1734.63
748.15	1691.62
748.33	1787.88
748.51	1710.05
748.69	1763.30
748.87	1687.53
749.05	1771.49
749.23	1763.30
749.41	1722.34
749.59	1656.81
749.77	1751.01
749.95	1769.44
750.13	1697.77
750.31	1765.35
750.49	1658.85
750.67	1789.92
750.85	1767.40
751.03	1730.53
751.20	1865.70
751.38	1675.24
751.56	1685.48
751.74	1679.33
751.92	1728.49
752.10	1621.99
752.28	1773.54
752.46	1662.95
752.64	1759.21
752.82	1755.11
753.00	1824.74
753.18	1693.67
753.35	1685.48
753.53	1693.67
753.71	1685.48
753.89	1773.54
754.07	1662.95
754.25	1781.73
754.43	1677.29
754.61	1611.75
754.79	1701.86
754.97	1695.72
755.14	1746.92
755.32	1609.70
755.50	1693.67
755.68	1755.11
755.86	1644.52
756.04	1804.26
756.22	1576.94
756.40	1841.12
756.57	1849.32
756.75	1693.67
756.93	1753.06
757.11	1705.96
757.29	1644.52
757.47	1671.14
757.65	1619.94
757.82	1538.02
758.00	1665.00
758.18	1673.19
758.36	1714.15
758.54	1697.77
758.72	1609.70
758.90	1761.25
759.07	1691.62
759.25	1701.86
759.43	1757.16
759.61	1648.61
759.79	2283.49
759.97	1734.63
760.15	1697.77
760.32	1640.42
760.50	1699.81
760.68	1779.68
760.86	1605.61
761.04	1779.68
761.22	1726.44
761.39	1730.53
761.57	1724.39
761.75	1767.40
761.93	1697.77
762.11	1751.01
762.28	1665.00
762.46	1685.48
762.64	1732.58
762.82	1591.27
763.00	1660.90
763.18	1794.02
763.35	1730.53
763.53	1755.11
763.71	1705.96
763.89	1628.14
764.07	1695.72
764.24	1648.61
764.42	1728.49
764.60	1714.15
764.78	1775.59
764.96	1726.44
765.13	1699.81
765.31	1658.85
765.49	1759.21
765.67	1703.91
765.84	1746.92
766.02	1667.05
766.20	1609.70
766.38	1648.61
766.56	1718.25
766.73	1769.44
766.91	1734.63
767.09	1724.39
767.27	1689.57
767.44	1677.29
767.62	1691.62
767.80	1787.88
767.98	1726.44
768.15	1712.10
768.33	1744.87
768.51	1767.40
768.69	1767.40
768.87	1685.48
769.04	1677.29
769.22	1869.80
769.40	1724.39
769.58	1894.37
769.75	1724.39
769.93	1732.58
770.11	1710.05
770.28	1628.14
770.46	1791.97
770.64	1728.49
770.82	1751.01
770.99	1654.76
771.17	1781.73
771.35	1703.91
771.53	1726.44
771.70	1687.53
771.88	1730.53
772.06	1687.53
772.23	1665.00
772.41	1798.12
772.59	1673.19
772.77	1628.14
772.94	1705.96
773.12	1773.54
773.30	1740.77
773.47	1677.29
773.65	1642.47
773.83	1798.12
774.01	1734.63
774.18	1564.65
774.36	1722.34
774.54	1667.05
774.71	1665.00
774.89	1648.61
775.07	1650.66
775.24	1787.88
775.42	1681.38
775.60	1785.83
775.78	1621.99
775.95	1669.09
776.13	1630.18
776.31	1546.22
776.48	1710.05
776.66	1791.97
776.84	1677.29
777.01	1642.47
777.19	1658.85
777.37	1624.04
777.54	1779.68
777.72	1818.60
777.90	1812.45
778.07	1679.33
778.25	1830.88
778.43	1732.58
778.60	1634.28
778.78	1748.97
778.96	1722.34
779.13	1712.10
779.31	1767.40
779.49	1755.11
779.66	1720.29
779.84	1726.44
780.01	1751.01
780.19	1714.15
780.37	1822.69
780.54	1769.44
780.72	1724.39
780.90	1736.68
781.07	1671.14
781.25	1681.38
781.43	1800.16
781.60	1675.24
781.78	1808.36
781.95	1714.15
782.13	1665.00
782.31	1716.20
782.48	1630.18
782.66	1660.90
782.83	1775.59
783.01	1681.38
783.19	1771.49
783.36	1730.53
783.54	1660.90
783.72	1703.91
783.89	1716.20
784.07	1751.01
784.24	1736.68
784.42	1822.69
784.60	1695.72
784.77	1738.73
784.95	1656.81
785.12	1726.44
785.30	1693.67
785.47	1714.15
785.65	1583.08
785.83	1671.14
786.00	1656.81
786.18	1656.81
786.35	1689.57
786.53	1681.38
786.71	1728.49
786.88	1755.11
787.06	1646.57
787.23	1658.85
787.41	1654.76
787.58	1644.52
787.76	1587.18
787.94	1705.96
788.11	1677.29
788.29	1681.38
788.46	1646.57
788.64	1652.71
788.81	1796.07
788.99	1662.95
789.16	1648.61
789.34	1681.38
789.52	1667.05
789.69	1697.77
789.87	1626.09
790.04	1675.24
790.22	1789.92
790.39	1822.69
790.57	1679.33
790.74	1671.14
790.92	1798.12
791.09	1705.96
791.27	1771.49
791.44	1759.21
791.62	1665.00
791.79	1732.58
791.97	1685.48
792.15	1912.80
792.32	1808.36
792.50	1763.30
792.67	1734.63
792.85	1724.39
793.02	1744.87
793.20	1646.57
793.37	1638.38
793.55	1773.54
793.72	1640.42
793.90	1708.01
794.07	1691.62
794.25	1568.74
794.42	1736.68
794.60	1710.05
794.77	1746.92
794.95	1822.69
795.12	1689.57
795.30	1736.68
795.47	1638.38
795.65	1837.03
795.82	1748.97
796.00	1701.86
796.17	1703.91
796.34	1708.01
796.52	1759.21
796.69	1687.53
796.87	1734.63
797.04	1626.09
797.22	1787.88
797.39	1703.91
797.57	1742.82
797.74	1697.77
797.92	1665.00
798.09	1734.63
798.27	1726.44
798.44	1714.15
798.62	1718.25
798.79	1767.40
798.96	1751.01
799.14	1669.09
799.31	1828.84
799.49	1650.66
799.66	1689.57
799.84	1748.97
800.01	1644.52
800.19	1742.82
800.36	1619.94
800.53	1683.43
800.71	1712.10
800.88	1820.64
801.06	1726.44
801.23	1718.25
801.41	1650.66
801.58	1710.05
801.75	1716.20
801.93	1816.55
802.10	1693.67
802.28	1689.57
802.45	1703.91
802.63	1757.16
802.80	1781.73
802.97	1662.95
803.15	1656.81
803.32	1656.81
803.50	1748.97
803.67	1699.81
803.84	1703.91
804.02	1703.91
804.19	1699.81
804.37	1636.33
804.54	1691.62
804.71	1710.05
804.89	1654.76
805.06	1677.29
805.24	1693.67
805.41	1675.24
805.58	1603.56
805.76	1869.80
805.93	1660.90
806.10	1746.92
806.28	1814.50
806.45	1773.54
806.63	1718.25
806.80	1742.82
806.97	1736.68
807.15	1683.43
807.32	1669.09
807.49	1654.76
807.67	1656.81
807.84	1710.05
808.01	1642.47
808.19	1847.27
808.36	1738.73
808.54	1665.00
808.71	1681.38
808.88	1660.90
809.06	1781.73
809.23	1759.21
809.40	1705.96
809.58	1794.02
809.75	1671.14
809.92	1652.71
810.10	1837.03
810.27	1656.81
810.44	1697.77
810.62	1697.77
810.79	1736.68
810.96	1638.38
811.14	1624.04
811.31	1734.63
811.48	1748.97
811.66	1697.77
811.83	1742.82
812.00	1703.91
812.18	1740.77
812.35	1789.92
812.52	1644.52
812.69	1611.75
812.87	1673.19
813.04	1675.24
813.21	1685.48
813.39	1683.43
813.56	1599.46
813.73	1738.73
813.91	1644.52
814.08	1736.68
814.25	1660.90
814.42	1591.27
814.60	1679.33
814.77	1687.53
814.94	1708.01
815.12	1761.25
815.29	1769.44
815.46	1638.38
815.63	1759.21
815.81	1593.32
815.98	1652.71
816.15	1660.90
816.33	1642.47
816.50	1714.15
816.67	1730.53
816.84	1714.15
817.02	1660.90
817.19	1728.49
817.36	1617.90
817.53	1787.88
817.71	1703.91
817.88	1730.53
818.05	1660.90
818.22	1636.33
818.40	1800.16
818.57	1660.90
818.74	1654.76
818.91	1726.44
819.09	1804.26
819.26	1679.33
819.43	1599.46
819.60	1615.85
819.78	1732.58
819.95	1724.39
820.12	1695.72
820.29	1830.88
820.47	1748.97
820.64	1699.81
820.81	1628.14
820.98	1665.00
821.15	1667.05
821.33	1716.20
821.50	1603.56
821.67	1724.39
821.84	1648.61
822.02	1705.96
822.19	1753.06
822.36	1660.90
822.53	1652.71
822.70	1660.90
822.88	1681.38
823.05	1755.11
823.22	1703.91
823.39	1767.40
823.56	1691.62
823.74	1785.83
823.91	1767.40
824.08	1701.86
824.25	1665.00
824.42	1830.88
824.60	1556.46
824.77	1748.97
824.94	1675.24
825.11	1744.87
825.28	1591.27
825.45	1708.01
825.63	1718.25
825.80	1644.52
825.97	1687.53
826.14	1742.82
826.31	1640.42
826.48	1769.44
826.66	1624.04
826.83	1705.96
827.00	1665.00
827.17	1656.81
827.34	1660.90
827.51	1650.66
827.69	1644.52
827.86	1689.57
828.03	1705.96
828.20	1697.77
828.37	1642.47
828.54	1722.34
828.71	1671.14
828.89	1738.73
829.06	1714.15
829.23	1767.40
829.40	1650.66
829.57	1765.35
829.74	1730.53
829.91	1742.82
830.09	1628.14
830.26	1765.35
830.43	1732.58
830.60	1738.73
830.77	1744.87
830.94	1781.73
831.11	1705.96
831.28	1697.77
831.46	1744.87
831.63	1697.77
831.80	1773.54
831.97	1646.57
832.14	1693.67
832.31	1736.68
832.48	1656.81
832.65	1798.12
832.82	1734.63
832.99	1763.30
833.17	1562.60
833.34	1763.30
833.51	1830.88
833.68	1593.32
833.85	1849.32
834.02	1626.09
834.19	1660.90
834.36	1685.48
834.53	1765.35
834.70	1814.50
834.87	1714.15
835.04	1689.57
835.22	1691.62
835.39	1673.19
835.56	1671.14
835.73	1640.42
835.90	1740.77
836.07	1646.57
836.24	1789.92
836.41	1673.19
836.58	1652.71
836.75	1769.44
836.92	1710.05
837.09	1679.33
837.26	1796.07
837.43	1658.85
837.60	1746.92
837.77	1687.53
837.94	1755.11
838.12	1751.01
838.29	1804.26
838.46	1587.18
838.63	1617.90
838.80	1830.88
838.97	1734.63
839.14	1689.57
839.31	1738.73
839.48	1744.87
839.65	1667.05
839.82	1775.59
839.99	1638.38
840.16	1669.09
840.33	1642.47
840.50	1710.05
840.67	1669.09
840.84	1632.23
841.01	1699.81
841.18	1691.62
841.35	1681.38
841.52	1757.16
841.69	1839.08
841.86	1662.95
842.03	1697.77
842.20	1740.77
842.37	1726.44
842.54	1794.02
842.71	1767.40
842.88	1591.27
843.05	1798.12
843.22	1779.68
843.39	1767.40
843.56	1658.85
843.73	1685.48
843.90	1732.58
844.07	1726.44
844.24	1726.44
844.41	1808.36
844.58	1726.44
844.75	1718.25
844.92	1830.88
845.09	1652.71
845.26	1599.46
845.43	1699.81
845.60	1734.63
845.77	1705.96
845.94	1730.53
846.10	1736.68
846.27	1619.94
846.44	1634.28
846.61	1679.33
846.78	1767.40
846.95	1773.54
847.12	1626.09
847.29	1740.77
847.46	1687.53
847.63	1710.05
847.80	1632.23
847.97	1726.44
848.14	1812.45
848.31	1701.86
848.48	1617.90
848.65	1628.14
848.82	1611.75
848.98	1812.45
849.15	1728.49
849.32	1828.84
849.49	1763.30
849.66	1689.57
849.83	1660.90
850.00	1570.79
850.17	1779.68
850.34	1757.16
850.51	1630.18
850.68	1681.38
850.85	1867.75
851.01	1675.24
851.18	1726.44
851.35	1734.63
851.52	1771.49
851.69	1796.07
851.86	1587.18
852.03	1705.96
852.20	1720.29
852.37	1650.66
852.53	1648.61
852.70	1636.33
852.87	1673.19
853.04	1677.29
853.21	1675.24
853.38	1722.34
853.55	1791.97
853.72	1779.68
853.89	1652.71
854.05	1658.85
854.22	1767.40
854.39	1705.96
854.56	1708.01
854.73	1771.49
854.90	1619.94
855.07	1677.29
855.23	1751.01
855.40	1634.28
855.57	1665.00
855.74	1642.47
855.91	1851.36
856.08	1550.31
856.25	1607.66
856.41	1603.56
856.58	1593.32
856.75	1701.86
856.92	1667.05
857.09	1730.53
857.26	1671.14
857.42	1712.10
857.59	1662.95
857.76	1609.70
857.93	1683.43
858.10	1751.01
858.27	1642.47
858.43	1722.34
858.60	1652.71
858.77	1601.51
858.94	1734.63
859.11	1765.35
859.27	1689.57
859.44	1662.95
859.61	1830.88
859.78	1734.63
859.95	1658.85
860.12	1683.43
860.28	1888.23
860.45	1820.64
860.62	1636.33
860.79	1687.53
860.95	1701.86
861.12	1732.58
861.29	1607.66
861.46	1689.57
861.63	1669.09
861.79	1753.06
861.96	1650.66
862.13	1699.81
862.30	1820.64
862.47	1681.38
862.63	1667.05
862.80	1734.63
862.97	1734.63
863.14	1726.44
863.30	1646.57
863.47	1630.18
863.64	1759.21
863.81	1644.52
863.97	1699.81
864.14	1746.92
864.31	1665.00
864.48	1779.68
864.65	1751.01
864.81	1810.40
864.98	1759.21
865.15	1681.38
865.32	1759.21
865.48	1681.38
865.65	1771.49
865.82	1642.47
865.98	1685.48
866.15	1724.39
866.32	1656.81
866.49	1722.34
866.65	1820.64
866.82	1624.04
866.99	1695.72
867.16	1675.24
867.32	1746.92
867.49	1710.05
867.66	1660.90
867.83	1695.72
867.99	1636.33
868.16	1691.62
868.33	1654.76
868.49	1689.57
868.66	1679.33
868.83	1724.39
868.99	1677.29
869.16	1646.57
869.33	1687.53
869.50	1724.39
869.66	1679.33
869.83	1755.11
870.00	1705.96
870.16	1783.78
870.33	1714.15
870.50	1738.73
870.66	1705.96
870.83	1804.26
871.00	1699.81
871.17	1796.07
871.33	1708.01
871.50	1560.55
871.67	1658.85
871.83	1591.27
872.00	1810.40
872.17	1662.95
872.33	1710.05
872.50	1785.83
872.67	1673.19
872.83	1636.33
873.00	1796.07
873.17	1648.61
873.33	1652.71
873.50	1789.92
873.67	1691.62
873.83	1638.38
874.00	1742.82
874.16	1755.11
874.33	1671.14
874.50	1679.33
874.66	1726.44
874.83	1742.82
875.00	1794.02
875.16	1798.12
875.33	1832.93
875.50	1599.46
875.66	1695.72
875.83	1681.38
875.99	1791.97
876.16	1771.49
876.33	1609.70
876.49	1673.19
876.66	1757.16
876.83	1634.28
876.99	1599.46
877.16	1736.68
877.32	1730.53
877.49	1632.23
877.66	1775.59
877.82	1890.28
877.99	1675.24
878.15	1744.87
878.32	1697.77
878.49	1667.05
878.65	1705.96
878.82	1802.21
878.98	1718.25
879.15	1701.86
879.32	1759.21
879.48	1732.58
879.65	1613.80
879.81	1724.39
879.98	1671.14
880.15	1660.90
880.31	1705.96
880.48	1646.57
880.64	1728.49
880.81	1763.30
880.97	1857.51
881.14	1705.96
881.31	1658.85
881.47	1845.22
881.64	1687.53
881.80	1617.90
881.97	1634.28
882.13	1738.73
882.30	1724.39
882.47	1650.66
882.63	1617.90
882.80	1683.43
882.96	1738.73
883.13	1730.53
883.29	1718.25
883.46	1751.01
883.62	1798.12
883.79	1681.38
883.95	1677.29
884.12	1689.57
884.29	1656.81
884.45	1673.19
884.62	1732.58
884.78	1662.95
884.95	1832.93
885.11	1728.49
885.28	1742.82
885.44	1624.04
885.61	1687.53
885.77	1779.68
885.94	1738.73
886.10	1685.48
886.27	1732.58
886.43	1796.07
886.60	1771.49
886.76	1654.76
886.93	1617.90
887.09	1742.82
887.26	1665.00
887.42	1720.29
887.59	1814.50
887.75	1791.97
887.92	1738.73
888.08	1746.92
888.25	1806.31
888.41	1779.68
888.58	1632.23
888.74	1675.24
888.91	1714.15
>>>>>End Processed Spectral Data<<<<<
