SpectraSuite Data File
++++++++++++++++++++++++++++++++++++
Date: Wed May 04 18:44:06 CEST 2016
User: root
Dark Spectrum Present: No
Reference Spectrum Present: No
Number of Sampled Component Spectra: 1
Spectrometers: USB4C02835
Integration Time (usec): 100000 (USB4C02835)
Spectra Averaged: 1 (USB4C02835)
Boxcar Smoothing: 0 (USB4C02835)
Correct for Electrical Dark: No (USB4C02835)
Strobe/Lamp Enabled: No (USB4C02835)
Correct for Detector Non-linearity: No (USB4C02835)
Correct for Stray Light: No (USB4C02835)
Number of Pixels in Processed Spectrum: 3648
>>>>>Begin Processed Spectral Data<<<<<
177.47	1495.02
177.69	1495.02
177.91	1495.02
178.13	1482.73
178.36	1427.43
178.58	1761.25
178.80	1662.95
179.02	1662.95
179.24	1603.56
179.46	1697.77
179.68	1800.16
179.90	1687.53
180.13	1689.57
180.35	1640.42
180.57	1675.24
180.79	1775.59
181.01	1759.21
181.23	1710.05
181.45	1779.68
181.67	1724.39
181.90	1781.73
182.12	1640.42
182.34	1583.08
182.56	1658.85
182.78	1775.59
183.00	1701.86
183.22	1746.92
183.44	1636.33
183.66	1849.32
183.89	1783.78
184.11	1650.66
184.33	1767.40
184.55	1779.68
184.77	1669.09
184.99	1773.54
185.21	1642.47
185.43	1863.65
185.65	1683.43
185.87	1765.35
186.10	1865.70
186.32	1828.84
186.54	1716.20
186.76	1742.82
186.98	1759.21
187.20	1642.47
187.42	1746.92
187.64	1722.34
187.86	1740.77
188.08	1804.26
188.30	1658.85
188.52	1687.53
188.75	1703.91
188.97	1810.40
189.19	1699.81
189.41	1611.75
189.63	1740.77
189.85	1701.86
190.07	1652.71
190.29	1601.51
190.51	1656.81
190.73	1667.05
190.95	1802.21
191.17	1685.48
191.39	1613.80
191.61	1683.43
191.84	1685.48
192.06	1732.58
192.28	1630.18
192.50	1816.55
192.72	1720.29
192.94	1748.97
193.16	1800.16
193.38	1708.01
193.60	1665.00
193.82	1755.11
194.04	1726.44
194.26	1611.75
194.48	1705.96
194.70	1703.91
194.92	1681.38
195.14	1769.44
195.36	1665.00
195.58	1710.05
195.80	1605.61
196.02	1673.19
196.24	1695.72
196.46	1712.10
196.69	1755.11
196.91	1789.92
197.13	1646.57
197.35	1673.19
197.57	1734.63
197.79	1771.49
198.01	1718.25
198.23	1689.57
198.45	1708.01
198.67	1675.24
198.89	1660.90
199.11	1728.49
199.33	1611.75
199.55	1673.19
199.77	1728.49
199.99	1730.53
200.21	1695.72
200.43	1712.10
200.65	1660.90
200.87	1624.04
201.09	1728.49
201.31	1683.43
201.53	1769.44
201.75	1693.67
201.97	1699.81
202.19	1660.90
202.41	1673.19
202.63	1873.89
202.85	1757.16
203.07	1746.92
203.29	1685.48
203.51	1691.62
203.73	1587.18
203.95	1857.51
204.17	1748.97
204.39	1689.57
204.61	1677.29
204.83	1730.53
205.05	1728.49
205.27	1759.21
205.49	1814.50
205.71	1728.49
205.93	1662.95
206.15	1689.57
206.37	1814.50
206.59	1687.53
206.81	1673.19
207.03	1687.53
207.25	1583.08
207.47	1710.05
207.69	1626.09
207.91	1771.49
208.13	1744.87
208.34	1646.57
208.56	1710.05
208.78	1679.33
209.00	1656.81
209.22	1656.81
209.44	1603.56
209.66	1726.44
209.88	1716.20
210.10	1697.77
210.32	1662.95
210.54	1775.59
210.76	1644.52
210.98	1751.01
211.20	1646.57
211.42	1716.20
211.64	1708.01
211.86	1744.87
212.08	1763.30
212.30	1775.59
212.52	1648.61
212.74	1734.63
212.96	1687.53
213.17	1789.92
213.39	1730.53
213.61	1763.30
213.83	1802.21
214.05	1718.25
214.27	1781.73
214.49	1710.05
214.71	1710.05
214.93	1746.92
215.15	1755.11
215.37	1816.55
215.59	1628.14
215.81	1759.21
216.03	1730.53
216.24	1722.34
216.46	1695.72
216.68	1679.33
216.90	1787.88
217.12	1816.55
217.34	1685.48
217.56	1724.39
217.78	1806.31
218.00	1759.21
218.22	1699.81
218.44	1759.21
218.66	1671.14
218.87	1751.01
219.09	1699.81
219.31	1763.30
219.53	1732.58
219.75	1660.90
219.97	1734.63
220.19	1734.63
220.41	1581.03
220.63	1820.64
220.85	1679.33
221.06	1689.57
221.28	1728.49
221.50	1773.54
221.72	1685.48
221.94	1648.61
222.16	1632.23
222.38	1675.24
222.60	1730.53
222.82	1648.61
223.03	1773.54
223.25	1650.66
223.47	1828.84
223.69	1791.97
223.91	1755.11
224.13	1787.88
224.35	1744.87
224.57	1789.92
224.78	1705.96
225.00	1699.81
225.22	1646.57
225.44	1740.77
225.66	1785.83
225.88	1787.88
226.10	1757.16
226.32	1681.38
226.53	1785.83
226.75	1677.29
226.97	1697.77
227.19	1634.28
227.41	1613.80
227.63	1632.23
227.85	1607.66
228.06	1634.28
228.28	1716.20
228.50	1800.16
228.72	1683.43
228.94	1689.57
229.16	1660.90
229.37	1748.97
229.59	1673.19
229.81	1771.49
230.03	1689.57
230.25	1589.22
230.47	1685.48
230.69	1665.00
230.90	1800.16
231.12	1718.25
231.34	1763.30
231.56	1759.21
231.78	1601.51
232.00	1652.71
232.21	1714.15
232.43	1638.38
232.65	1568.74
232.87	1794.02
233.09	1701.86
233.30	1693.67
233.52	1781.73
233.74	1767.40
233.96	1703.91
234.18	1787.88
234.40	1732.58
234.61	1830.88
234.83	1621.99
235.05	1716.20
235.27	1839.08
235.49	1804.26
235.70	1783.78
235.92	1824.74
236.14	1718.25
236.36	1851.36
236.58	1609.70
236.79	1783.78
237.01	1789.92
237.23	1679.33
237.45	1884.13
237.67	1656.81
237.88	1683.43
238.10	1847.27
238.32	1687.53
238.54	1669.09
238.76	1685.48
238.97	1724.39
239.19	1710.05
239.41	1769.44
239.63	1843.17
239.85	1703.91
240.06	1695.72
240.28	1652.71
240.50	1755.11
240.72	1771.49
240.93	1646.57
241.15	1691.62
241.37	1701.86
241.59	1796.07
241.81	1716.20
242.02	1755.11
242.24	1759.21
242.46	1697.77
242.68	1710.05
242.89	1800.16
243.11	1742.82
243.33	1630.18
243.55	1771.49
243.76	1736.68
243.98	1705.96
244.20	1738.73
244.42	1681.38
244.64	1667.05
244.85	1615.85
245.07	1648.61
245.29	1748.97
245.51	1734.63
245.72	1714.15
245.94	1693.67
246.16	1740.77
246.38	1730.53
246.59	1660.90
246.81	1632.23
247.03	1662.95
247.24	1691.62
247.46	1636.33
247.68	1705.96
247.90	1716.20
248.11	1677.29
248.33	1839.08
248.55	1695.72
248.77	1691.62
248.98	1769.44
249.20	1767.40
249.42	1771.49
249.64	1757.16
249.85	1787.88
250.07	1701.86
250.29	1820.64
250.50	1783.78
250.72	1705.96
250.94	1691.62
251.16	1824.74
251.37	1755.11
251.59	1705.96
251.81	1751.01
252.02	1738.73
252.24	1724.39
252.46	1738.73
252.68	1601.51
252.89	1718.25
253.11	1558.50
253.33	1820.64
253.54	1800.16
253.76	1665.00
253.98	1730.53
254.20	1726.44
254.41	1656.81
254.63	1722.34
254.85	1611.75
255.06	1699.81
255.28	1751.01
255.50	1738.73
255.71	1701.86
255.93	1665.00
256.15	1578.98
256.36	1652.71
256.58	1632.23
256.80	1724.39
257.02	1609.70
257.23	1697.77
257.45	1607.66
257.67	1802.21
257.88	1691.62
258.10	1714.15
258.32	1705.96
258.53	1693.67
258.75	1816.55
258.97	1665.00
259.18	1718.25
259.40	1650.66
259.62	1824.74
259.83	1810.40
260.05	1726.44
260.27	1959.91
260.48	1695.72
260.70	1665.00
260.92	1732.58
261.13	1636.33
261.35	1759.21
261.57	1683.43
261.78	1636.33
262.00	1611.75
262.22	1732.58
262.43	1624.04
262.65	1683.43
262.86	1699.81
263.08	1902.56
263.30	1691.62
263.51	1599.46
263.73	1677.29
263.95	1757.16
264.16	1689.57
264.38	1685.48
264.60	1718.25
264.81	1701.86
265.03	1732.58
265.25	1775.59
265.46	1638.38
265.68	1734.63
265.89	1658.85
266.11	1583.08
266.33	1781.73
266.54	1814.50
266.76	1640.42
266.98	1789.92
267.19	1755.11
267.41	1771.49
267.62	1691.62
267.84	1638.38
268.06	1724.39
268.27	1673.19
268.49	1824.74
268.70	1761.25
268.92	1626.09
269.14	1712.10
269.35	1593.32
269.57	1742.82
269.79	1718.25
270.00	1652.71
270.22	1908.71
270.43	1656.81
270.65	1607.66
270.87	1654.76
271.08	1648.61
271.30	1734.63
271.51	1710.05
271.73	1714.15
271.95	1761.25
272.16	1757.16
272.38	1755.11
272.59	1673.19
272.81	1640.42
273.02	1718.25
273.24	1748.97
273.46	1744.87
273.67	1703.91
273.89	1552.36
274.10	1691.62
274.32	1796.07
274.54	1701.86
274.75	1722.34
274.97	1681.38
275.18	1720.29
275.40	1722.34
275.61	1732.58
275.83	1699.81
276.05	1595.37
276.26	1722.34
276.48	1738.73
276.69	1683.43
276.91	1662.95
277.12	1789.92
277.34	1769.44
277.55	1708.01
277.77	1771.49
277.99	1748.97
278.20	1652.71
278.42	1689.57
278.63	1701.86
278.85	1630.18
279.06	1644.52
279.28	1771.49
279.49	1705.96
279.71	1761.25
279.93	1675.24
280.14	1775.59
280.36	1621.99
280.57	1767.40
280.79	1767.40
281.00	1673.19
281.22	1583.08
281.43	1759.21
281.65	1574.89
281.86	1681.38
282.08	1751.01
282.29	1837.03
282.51	1656.81
282.73	1630.18
282.94	1689.57
283.16	1837.03
283.37	1814.50
283.59	1726.44
283.80	1697.77
284.02	1738.73
284.23	1763.30
284.45	1660.90
284.66	1671.14
284.88	1665.00
285.09	1763.30
285.31	1751.01
285.52	1763.30
285.74	1642.47
285.95	1685.48
286.17	1665.00
286.38	1742.82
286.60	1685.48
286.81	1628.14
287.03	1740.77
287.24	1732.58
287.46	1708.01
287.67	1683.43
287.89	1814.50
288.10	1753.06
288.32	1621.99
288.53	1656.81
288.75	1726.44
288.96	1816.55
289.18	1679.33
289.39	1720.29
289.61	1800.16
289.82	1869.80
290.04	1789.92
290.25	1665.00
290.47	1761.25
290.68	1599.46
290.90	1759.21
291.11	1628.14
291.33	1806.31
291.54	1605.61
291.76	1710.05
291.97	1732.58
292.18	1689.57
292.40	1685.48
292.61	1669.09
292.83	1806.31
293.04	1724.39
293.26	1681.38
293.47	1708.01
293.69	1798.12
293.90	1730.53
294.12	1828.84
294.33	1671.14
294.55	1699.81
294.76	1771.49
294.97	1818.60
295.19	1828.84
295.40	1722.34
295.62	1751.01
295.83	1824.74
296.05	1640.42
296.26	1773.54
296.48	1658.85
296.69	1671.14
296.90	1714.15
297.12	1746.92
297.33	1798.12
297.55	1695.72
297.76	1767.40
297.98	1796.07
298.19	1755.11
298.41	1673.19
298.62	1714.15
298.83	1757.16
299.05	1697.77
299.26	1652.71
299.48	1705.96
299.69	1736.68
299.90	1746.92
300.12	1601.51
300.33	1787.88
300.55	1759.21
300.76	1708.01
300.98	1589.22
301.19	1697.77
301.40	1701.86
301.62	1648.61
301.83	1699.81
302.05	1726.44
302.26	1697.77
302.47	1705.96
302.69	1607.66
302.90	1695.72
303.12	1603.56
303.33	1714.15
303.54	1796.07
303.76	1697.77
303.97	1736.68
304.19	1769.44
304.40	1615.85
304.61	1726.44
304.83	1808.36
305.04	1734.63
305.26	1689.57
305.47	1705.96
305.68	1689.57
305.90	1683.43
306.11	1689.57
306.33	1595.37
306.54	1673.19
306.75	1654.76
306.97	1615.85
307.18	1665.00
307.39	1695.72
307.61	1779.68
307.82	1705.96
308.04	1738.73
308.25	1605.61
308.46	1814.50
308.68	1652.71
308.89	1665.00
309.10	1759.21
309.32	1744.87
309.53	1736.68
309.74	1656.81
309.96	1751.01
310.17	1767.40
310.39	1724.39
310.60	1730.53
310.81	1665.00
311.03	1675.24
311.24	1804.26
311.45	1673.19
311.67	1769.44
311.88	1748.97
312.09	1683.43
312.31	1669.09
312.52	1751.01
312.73	1687.53
312.95	1617.90
313.16	1687.53
313.37	1724.39
313.59	1722.34
313.80	1783.78
314.01	1808.36
314.23	1710.05
314.44	1591.27
314.65	1658.85
314.87	1667.05
315.08	1656.81
315.29	1673.19
315.51	1697.77
315.72	1648.61
315.93	1837.03
316.15	1781.73
316.36	1773.54
316.57	1662.95
316.79	1669.09
317.00	1718.25
317.21	1736.68
317.43	1697.77
317.64	1652.71
317.85	1681.38
318.07	1701.86
318.28	1699.81
318.49	1853.41
318.70	1923.04
318.92	1867.75
319.13	1927.14
319.34	1867.75
319.56	1830.88
319.77	1837.03
319.98	1746.92
320.20	1746.92
320.41	1730.53
320.62	1767.40
320.83	1632.23
321.05	1804.26
321.26	1720.29
321.47	1689.57
321.69	1716.20
321.90	1603.56
322.11	1630.18
322.32	1710.05
322.54	1812.45
322.75	1748.97
322.96	1871.84
323.18	1617.90
323.39	1554.41
323.60	1679.33
323.81	1798.12
324.03	1671.14
324.24	1722.34
324.45	1810.40
324.66	1630.18
324.88	1781.73
325.09	1751.01
325.30	1740.77
325.52	1710.05
325.73	1732.58
325.94	1624.04
326.15	1640.42
326.37	1632.23
326.58	1748.97
326.79	1816.55
327.00	1636.33
327.22	1740.77
327.43	1708.01
327.64	1626.09
327.85	1685.48
328.07	1714.15
328.28	1826.79
328.49	1638.38
328.70	1683.43
328.92	1648.61
329.13	1748.97
329.34	1703.91
329.55	1763.30
329.76	1789.92
329.98	1689.57
330.19	1773.54
330.40	1751.01
330.61	1742.82
330.83	1771.49
331.04	1626.09
331.25	1806.31
331.46	1656.81
331.68	1652.71
331.89	1714.15
332.10	1679.33
332.31	1665.00
332.52	1687.53
332.74	1845.22
332.95	1613.80
333.16	1699.81
333.37	1761.25
333.58	1695.72
333.80	1716.20
334.01	1597.42
334.22	1734.63
334.43	1697.77
334.64	1761.25
334.86	1691.62
335.07	1705.96
335.28	1812.45
335.49	1619.94
335.70	1761.25
335.92	1705.96
336.13	1855.46
336.34	1732.58
336.55	1683.43
336.76	1687.53
336.98	1662.95
337.19	1667.05
337.40	1826.79
337.61	1875.94
337.82	1742.82
338.04	1767.40
338.25	1605.61
338.46	1751.01
338.67	1607.66
338.88	1675.24
339.09	1615.85
339.31	1662.95
339.52	1658.85
339.73	1595.37
339.94	1679.33
340.15	1734.63
340.36	1662.95
340.58	1687.53
340.79	1638.38
341.00	1714.15
341.21	1697.77
341.42	1771.49
341.63	1617.90
341.85	1814.50
342.06	1802.21
342.27	1638.38
342.48	1773.54
342.69	1628.14
342.90	1808.36
343.12	1757.16
343.33	1675.24
343.54	1751.01
343.75	1755.11
343.96	1681.38
344.17	1693.67
344.38	1605.61
344.60	1632.23
344.81	1677.29
345.02	1691.62
345.23	1767.40
345.44	1841.12
345.65	1730.53
345.86	1673.19
346.07	1650.66
346.29	1644.52
346.50	1800.16
346.71	1744.87
346.92	1843.17
347.13	1880.04
347.34	1751.01
347.55	1726.44
347.76	1800.16
347.98	1677.29
348.19	1730.53
348.40	1777.64
348.61	1652.71
348.82	1746.92
349.03	1685.48
349.24	1675.24
349.45	1869.80
349.66	1587.18
349.88	1740.77
350.09	1683.43
350.30	1798.12
350.51	1837.03
350.72	1693.67
350.93	1726.44
351.14	1740.77
351.35	1771.49
351.56	1814.50
351.77	1726.44
351.99	1785.83
352.20	1804.26
352.41	1740.77
352.62	1585.13
352.83	1724.39
353.04	1689.57
353.25	1630.18
353.46	1839.08
353.67	1759.21
353.88	1560.55
354.09	1734.63
354.30	1738.73
354.52	1736.68
354.73	1701.86
354.94	1695.72
355.15	1685.48
355.36	1800.16
355.57	1677.29
355.78	1656.81
355.99	1744.87
356.20	1648.61
356.41	1720.29
356.62	1728.49
356.83	1722.34
357.04	1675.24
357.25	1638.38
357.46	1607.66
357.68	1619.94
357.89	1654.76
358.10	1652.71
358.31	1740.77
358.52	1683.43
358.73	1619.94
358.94	1693.67
359.15	1722.34
359.36	1687.53
359.57	1656.81
359.78	1738.73
359.99	1677.29
360.20	1681.38
360.41	1634.28
360.62	1734.63
360.83	1742.82
361.04	1726.44
361.25	1757.16
361.46	1875.94
361.67	1759.21
361.88	1763.30
362.09	1755.11
362.30	1693.67
362.51	1669.09
362.72	1650.66
362.93	1759.21
363.14	1771.49
363.35	1726.44
363.56	1683.43
363.78	1771.49
363.99	1775.59
364.20	1689.57
364.41	1632.23
364.62	1769.44
364.83	1761.25
365.04	1708.01
365.25	1695.72
365.46	1837.03
365.67	1665.00
365.88	1748.97
366.09	1695.72
366.30	1593.32
366.51	1677.29
366.72	1650.66
366.93	1775.59
367.14	1656.81
367.35	1810.40
367.56	1804.26
367.77	1808.36
367.98	1652.71
368.18	1714.15
368.39	1761.25
368.60	1705.96
368.81	1751.01
369.02	1675.24
369.23	1628.14
369.44	1646.57
369.65	1607.66
369.86	1701.86
370.07	1794.02
370.28	1615.85
370.49	1716.20
370.70	1716.20
370.91	1656.81
371.12	1685.48
371.33	1710.05
371.54	1628.14
371.75	1794.02
371.96	1624.04
372.17	1665.00
372.38	1728.49
372.59	1746.92
372.80	1689.57
373.01	1650.66
373.22	1777.64
373.43	1773.54
373.64	1660.90
373.85	1820.64
374.06	1806.31
374.26	1777.64
374.47	1728.49
374.68	1796.07
374.89	1785.83
375.10	1683.43
375.31	1755.11
375.52	1703.91
375.73	1732.58
375.94	1667.05
376.15	1837.03
376.36	1767.40
376.57	1734.63
376.78	1732.58
376.99	1732.58
377.20	1865.70
377.40	1685.48
377.61	1828.84
377.82	1699.81
378.03	1783.78
378.24	1720.29
378.45	1705.96
378.66	1683.43
378.87	1646.57
379.08	1673.19
379.29	1738.73
379.50	1773.54
379.71	1675.24
379.91	1703.91
380.12	1710.05
380.33	1730.53
380.54	1660.90
380.75	1646.57
380.96	1693.67
381.17	1751.01
381.38	1665.00
381.59	1804.26
381.80	1685.48
382.00	1894.37
382.21	1763.30
382.42	1888.23
382.63	1914.85
382.84	1796.07
383.05	1746.92
383.26	1789.92
383.47	1646.57
383.68	1783.78
383.88	1714.15
384.09	1665.00
384.30	1918.95
384.51	1732.58
384.72	1673.19
384.93	1591.27
385.14	1775.59
385.35	1730.53
385.55	1632.23
385.76	1798.12
385.97	1740.77
386.18	1572.84
386.39	1671.14
386.60	1757.16
386.81	1636.33
387.02	1755.11
387.22	1693.67
387.43	1748.97
387.64	1845.22
387.85	1877.99
388.06	2160.61
388.27	4751.29
388.48	9242.48
388.68	11585.36
388.89	13575.98
389.10	14198.57
389.31	12056.39
389.52	9785.19
389.73	8667.00
389.93	8075.14
390.14	7354.26
390.35	6594.46
390.56	6047.65
390.77	4917.17
390.98	3966.92
391.18	3074.00
391.39	2338.78
391.60	1992.67
391.81	1964.00
392.02	1753.06
392.23	1837.03
392.43	1783.78
392.64	1841.12
392.85	1705.96
393.06	1738.73
393.27	1714.15
393.47	1689.57
393.68	1689.57
393.89	1746.92
394.10	1796.07
394.31	1687.53
394.52	1705.96
394.72	1669.09
394.93	1781.73
395.14	1673.19
395.35	1734.63
395.56	1683.43
395.76	1699.81
395.97	1865.70
396.18	1957.86
396.39	1943.52
396.60	2090.98
396.80	1863.65
397.01	1884.13
397.22	1839.08
397.43	1959.91
397.64	1767.40
397.84	1918.95
398.05	1892.32
398.26	1763.30
398.47	1761.25
398.67	1787.88
398.88	1673.19
399.09	1753.06
399.30	1710.05
399.51	1687.53
399.71	1675.24
399.92	1671.14
400.13	1679.33
400.34	1718.25
400.54	1753.06
400.75	1865.70
400.96	1695.72
401.17	1806.31
401.37	1677.29
401.58	1689.57
401.79	1771.49
402.00	1931.23
402.21	2035.68
402.41	2086.88
402.62	2158.56
402.83	2131.94
403.04	2129.89
403.24	2123.74
403.45	1902.56
403.66	1998.82
403.87	1927.14
404.07	1939.43
404.28	1910.75
404.49	1955.81
404.70	1814.50
404.90	1832.93
405.11	1716.20
405.32	1777.64
405.52	1630.18
405.73	1708.01
405.94	1617.90
406.15	1757.16
406.35	1828.84
406.56	1757.16
406.77	1683.43
406.98	1722.34
407.18	1667.05
407.39	1785.83
407.60	1671.14
407.80	1773.54
408.01	1689.57
408.22	1730.53
408.43	1724.39
408.63	1732.58
408.84	1705.96
409.05	1775.59
409.25	1644.52
409.46	1638.38
409.67	1642.47
409.88	1757.16
410.08	1732.58
410.29	1705.96
410.50	1728.49
410.70	1800.16
410.91	1716.20
411.12	1712.10
411.32	1783.78
411.53	1732.58
411.74	1796.07
411.95	1849.32
412.15	1753.06
412.36	1787.88
412.57	1824.74
412.77	1857.51
412.98	1673.19
413.19	1769.44
413.39	1783.78
413.60	1839.08
413.81	1798.12
414.01	1689.57
414.22	1708.01
414.43	1863.65
414.63	1710.05
414.84	1816.55
415.05	1675.24
415.25	1619.94
415.46	1785.83
415.67	1726.44
415.87	1746.92
416.08	1689.57
416.29	1701.86
416.49	1746.92
416.70	1640.42
416.91	1730.53
417.11	1691.62
417.32	1712.10
417.53	1714.15
417.73	1751.01
417.94	1791.97
418.15	1701.86
418.35	1687.53
418.56	1738.73
418.77	1851.36
418.97	1732.58
419.18	1742.82
419.38	1621.99
419.59	1671.14
419.80	1794.02
420.00	1638.38
420.21	1662.95
420.42	1708.01
420.62	1722.34
420.83	1708.01
421.04	1634.28
421.24	1705.96
421.45	1736.68
421.65	1791.97
421.86	1628.14
422.07	1714.15
422.27	1781.73
422.48	1724.39
422.69	1648.61
422.89	1656.81
423.10	1716.20
423.30	1660.90
423.51	1794.02
423.72	1757.16
423.92	1744.87
424.13	1644.52
424.33	1730.53
424.54	1753.06
424.75	1818.60
424.95	1765.35
425.16	1753.06
425.36	1736.68
425.57	1818.60
425.78	1656.81
425.98	1771.49
426.19	1665.00
426.39	1687.53
426.60	1814.50
426.81	1896.42
427.01	1718.25
427.22	1662.95
427.42	1609.70
427.63	1748.97
427.83	1767.40
428.04	1816.55
428.25	1865.70
428.45	1740.77
428.66	1785.83
428.86	1822.69
429.07	1687.53
429.28	1697.77
429.48	1701.86
429.69	1693.67
429.89	1728.49
430.10	1617.90
430.30	1642.47
430.51	1753.06
430.71	1671.14
430.92	1689.57
431.13	1712.10
431.33	1804.26
431.54	1673.19
431.74	1800.16
431.95	1753.06
432.15	1570.79
432.36	1648.61
432.56	1767.40
432.77	1816.55
432.98	1765.35
433.18	1716.20
433.39	1689.57
433.59	1724.39
433.80	1763.30
434.00	1880.04
434.21	1605.61
434.41	1650.66
434.62	1845.22
434.82	1689.57
435.03	1687.53
435.23	1751.01
435.44	1624.04
435.64	1724.39
435.85	1701.86
436.06	1753.06
436.26	1751.01
436.47	1722.34
436.67	1724.39
436.88	1783.78
437.08	1828.84
437.29	1785.83
437.49	1755.11
437.70	1859.56
437.90	1679.33
438.11	1853.41
438.31	1828.84
438.52	1857.51
438.72	1972.19
438.93	1945.57
439.13	1875.94
439.34	1865.70
439.54	1718.25
439.75	1777.64
439.95	1839.08
440.16	1808.36
440.36	1781.73
440.57	1849.32
440.77	1751.01
440.98	1757.16
441.18	1744.87
441.39	1738.73
441.59	1683.43
441.80	1871.84
442.00	1757.16
442.21	1859.56
442.41	1652.71
442.62	1800.16
442.82	1742.82
443.02	1736.68
443.23	1791.97
443.43	1744.87
443.64	1812.45
443.84	1726.44
444.05	1861.60
444.25	1742.82
444.46	1748.97
444.66	1755.11
444.87	1769.44
445.07	1648.61
445.28	1777.64
445.48	1832.93
445.69	1791.97
445.89	1834.98
446.09	1794.02
446.30	1923.04
446.50	2635.74
446.71	4138.94
446.91	5119.92
447.12	5898.15
447.32	6004.64
447.53	5380.01
447.73	4493.24
447.93	4018.11
448.14	3655.62
448.34	3471.31
448.55	3063.76
448.75	3100.62
448.96	2932.69
449.16	2676.70
449.36	2443.23
449.57	2127.84
449.77	1996.77
449.98	1933.28
450.18	1845.22
450.39	1830.88
450.59	1765.35
450.79	1734.63
451.00	1673.19
451.20	1765.35
451.41	1757.16
451.61	1755.11
451.81	1759.21
452.02	1710.05
452.22	1746.92
452.43	1732.58
452.63	1701.86
452.84	1834.98
453.04	1736.68
453.24	1744.87
453.45	1740.77
453.65	1703.91
453.86	1753.06
454.06	1804.26
454.26	1734.63
454.47	1683.43
454.67	1791.97
454.87	1783.78
455.08	1671.14
455.28	1798.12
455.49	1771.49
455.69	1701.86
455.89	1832.93
456.10	1830.88
456.30	1761.25
456.51	1820.64
456.71	1746.92
456.91	1708.01
457.12	1722.34
457.32	1761.25
457.52	1665.00
457.73	1796.07
457.93	1783.78
458.14	1705.96
458.34	1734.63
458.54	1701.86
458.75	1724.39
458.95	1814.50
459.15	1757.16
459.36	1810.40
459.56	1761.25
459.76	1892.32
459.97	1771.49
460.17	1689.57
460.37	1783.78
460.58	1720.29
460.78	1816.55
460.99	1734.63
461.19	1751.01
461.39	1703.91
461.60	1615.85
461.80	1726.44
462.00	1677.29
462.21	1759.21
462.41	1673.19
462.61	1714.15
462.82	1705.96
463.02	1787.88
463.22	1703.91
463.43	1830.88
463.63	1759.21
463.83	1877.99
464.04	1773.54
464.24	1652.71
464.44	1673.19
464.64	1708.01
464.85	1710.05
465.05	1814.50
465.25	1681.38
465.46	1671.14
465.66	1757.16
465.86	1705.96
466.07	1691.62
466.27	1710.05
466.47	1699.81
466.68	1691.62
466.88	1787.88
467.08	1794.02
467.29	1789.92
467.49	1804.26
467.69	1740.77
467.89	1759.21
468.10	1751.01
468.30	1748.97
468.50	1830.88
468.71	1765.35
468.91	1603.56
469.11	1816.55
469.31	1767.40
469.52	1656.81
469.72	1853.41
469.92	1841.12
470.13	1734.63
470.33	1726.44
470.53	1832.93
470.73	2238.43
470.94	2519.00
471.14	2684.89
471.34	2906.07
471.54	2797.53
471.75	2582.49
471.95	2428.89
472.15	2285.53
472.36	2209.76
472.56	2226.14
472.76	2160.61
472.96	2027.49
473.17	2093.02
473.37	1935.33
473.57	1882.08
473.77	1869.80
473.98	1755.11
474.18	1675.24
474.38	1910.75
474.58	1671.14
474.79	1714.15
474.99	1746.92
475.19	1796.07
475.39	1615.85
475.60	1761.25
475.80	1759.21
476.00	1624.04
476.20	1626.09
476.41	1638.38
476.61	1826.79
476.81	1757.16
477.01	1679.33
477.21	1794.02
477.42	1820.64
477.62	1687.53
477.82	1783.78
478.02	1656.81
478.23	1691.62
478.43	1636.33
478.63	1673.19
478.83	1720.29
479.03	1656.81
479.24	1812.45
479.44	1804.26
479.64	1615.85
479.84	1628.14
480.04	1617.90
480.25	1802.21
480.45	1742.82
480.65	1722.34
480.85	1746.92
481.06	1703.91
481.26	1699.81
481.46	1824.74
481.66	1751.01
481.86	1703.91
482.06	1824.74
482.27	1677.29
482.47	1699.81
482.67	1720.29
482.87	1761.25
483.07	1730.53
483.28	1652.71
483.48	1693.67
483.68	1691.62
483.88	1742.82
484.08	1556.46
484.29	1605.61
484.49	1720.29
484.69	1730.53
484.89	1744.87
485.09	1798.12
485.29	1777.64
485.50	1777.64
485.70	1802.21
485.90	1652.71
486.10	1763.30
486.30	1705.96
486.50	1765.35
486.71	1722.34
486.91	1738.73
487.11	1765.35
487.31	1720.29
487.51	1808.36
487.71	1705.96
487.91	1710.05
488.12	1744.87
488.32	1710.05
488.52	1685.48
488.72	1597.42
488.92	1751.01
489.12	1755.11
489.32	1861.60
489.53	1783.78
489.73	1617.90
489.93	1822.69
490.13	1642.47
490.33	1689.57
490.53	1697.77
490.73	1808.36
490.94	1665.00
491.14	1791.97
491.34	1830.88
491.54	2123.74
491.74	2752.47
491.94	3225.55
492.14	3577.80
492.34	3549.13
492.54	3188.69
492.75	2760.66
492.95	2648.02
493.15	2475.99
493.35	2437.08
493.55	2312.16
493.75	2273.25
493.95	2197.47
494.15	2045.92
494.35	2000.87
494.56	1935.33
494.76	1728.49
494.96	1925.09
495.16	1765.35
495.36	1765.35
495.56	1779.68
495.76	1687.53
495.96	1767.40
496.16	1708.01
496.36	1843.17
496.56	1767.40
496.77	1751.01
496.97	1710.05
497.17	1845.22
497.37	1658.85
497.57	1757.16
497.77	1740.77
497.97	1681.38
498.17	1736.68
498.37	1779.68
498.57	1769.44
498.77	1734.63
498.97	1728.49
499.17	1716.20
499.38	1781.73
499.58	1785.83
499.78	1800.16
499.98	1902.56
500.18	1712.10
500.38	1708.01
500.58	1855.46
500.78	2424.80
500.98	4706.23
501.18	6590.36
501.38	8251.27
501.58	9049.97
501.78	8769.40
501.98	6852.50
502.18	5808.04
502.38	5066.67
502.58	4521.92
502.78	4157.38
502.98	4018.11
503.18	3893.19
503.38	3635.14
503.59	3182.54
503.79	2883.54
503.99	2619.35
504.19	2392.03
504.39	2416.60
504.59	2363.36
504.79	2371.55
504.99	2287.58
505.19	2007.01
505.39	1890.28
505.59	2021.35
505.79	1943.52
505.99	1875.94
506.19	1832.93
506.39	1933.28
506.59	1785.83
506.79	1771.49
506.99	1832.93
507.19	1740.77
507.39	1773.54
507.59	1677.29
507.79	1642.47
507.99	1673.19
508.19	1738.73
508.39	1613.80
508.59	1771.49
508.79	1837.03
508.99	1822.69
509.19	1710.05
509.39	1742.82
509.59	1642.47
509.79	1742.82
509.99	1722.34
510.19	1818.60
510.39	1755.11
510.59	1777.64
510.79	1781.73
510.99	1619.94
511.19	1755.11
511.39	1824.74
511.59	1763.30
511.79	1777.64
511.99	1769.44
512.19	1824.74
512.38	1632.23
512.58	1695.72
512.78	1787.88
512.98	1767.40
513.18	1818.60
513.38	1730.53
513.58	1685.48
513.78	1744.87
513.98	1798.12
514.18	1736.68
514.38	1687.53
514.58	1746.92
514.78	1708.01
514.98	1736.68
515.18	1691.62
515.38	1724.39
515.58	1849.32
515.78	1701.86
515.98	1746.92
516.18	1839.08
516.38	1714.15
516.57	1728.49
516.77	1712.10
516.97	1714.15
517.17	1753.06
517.37	1619.94
517.57	1738.73
517.77	1751.01
517.97	1740.77
518.17	1769.44
518.37	1591.27
518.57	1691.62
518.77	1761.25
518.97	1765.35
519.16	1763.30
519.36	1837.03
519.56	1722.34
519.76	1738.73
519.96	1763.30
520.16	1834.98
520.36	1683.43
520.56	1867.75
520.76	1703.91
520.96	1728.49
521.16	1724.39
521.35	1808.36
521.55	1845.22
521.75	1763.30
521.95	1669.09
522.15	1746.92
522.35	1640.42
522.55	1691.62
522.75	1798.12
522.95	1714.15
523.14	1705.96
523.34	1785.83
523.54	1718.25
523.74	1738.73
523.94	1748.97
524.14	1636.33
524.34	1794.02
524.54	1837.03
524.73	1650.66
524.93	1787.88
525.13	1685.48
525.33	1665.00
525.53	1912.80
525.73	1843.17
525.93	1820.64
526.13	1705.96
526.32	1767.40
526.52	1800.16
526.72	1802.21
526.92	1730.53
527.12	1806.31
527.32	1699.81
527.52	1781.73
527.71	1759.21
527.91	1734.63
528.11	1648.61
528.31	1677.29
528.51	1634.28
528.71	1699.81
528.90	1755.11
529.10	1800.16
529.30	1796.07
529.50	1581.03
529.70	1673.19
529.90	1728.49
530.09	1746.92
530.29	1646.57
530.49	1638.38
530.69	1888.23
530.89	1759.21
531.09	1746.92
531.28	1744.87
531.48	1798.12
531.68	1738.73
531.88	1804.26
532.08	1794.02
532.28	1705.96
532.47	1886.18
532.67	1777.64
532.87	1777.64
533.07	1757.16
533.27	1794.02
533.46	1812.45
533.66	1730.53
533.86	1746.92
534.06	1714.15
534.26	1763.30
534.45	1708.01
534.65	1771.49
534.85	1757.16
535.05	1791.97
535.25	1736.68
535.44	1617.90
535.64	1722.34
535.84	1751.01
536.04	1689.57
536.24	1710.05
536.43	1646.57
536.63	1746.92
536.83	1714.15
537.03	1736.68
537.22	1705.96
537.42	1644.52
537.62	1691.62
537.82	1730.53
538.02	1855.46
538.21	1839.08
538.41	1822.69
538.61	1759.21
538.81	1744.87
539.00	1812.45
539.20	1648.61
539.40	1763.30
539.60	1759.21
539.79	1781.73
539.99	1710.05
540.19	1644.52
540.39	1779.68
540.58	1783.78
540.78	1757.16
540.98	1710.05
541.18	1822.69
541.37	1759.21
541.57	1746.92
541.77	1703.91
541.97	1644.52
542.16	1691.62
542.36	1695.72
542.56	1802.21
542.76	1826.79
542.95	1755.11
543.15	1695.72
543.35	1720.29
543.54	1697.77
543.74	1773.54
543.94	1832.93
544.14	1687.53
544.33	1710.05
544.53	1708.01
544.73	1667.05
544.93	1699.81
545.12	1798.12
545.32	1712.10
545.52	1660.90
545.71	1640.42
545.91	1683.43
546.11	1765.35
546.30	1740.77
546.50	1699.81
546.70	1785.83
546.90	1726.44
547.09	1628.14
547.29	1773.54
547.49	1757.16
547.68	1724.39
547.88	1705.96
548.08	1808.36
548.27	2174.94
548.47	1689.57
548.67	1621.99
548.87	1775.59
549.06	1734.63
549.26	1734.63
549.46	1791.97
549.65	1656.81
549.85	1798.12
550.05	1763.30
550.24	1671.14
550.44	1789.92
550.64	1736.68
550.83	1718.25
551.03	1806.31
551.23	1800.16
551.42	1789.92
551.62	1740.77
551.82	1818.60
552.01	1744.87
552.21	1824.74
552.41	1740.77
552.60	1716.20
552.80	1751.01
553.00	1677.29
553.19	1757.16
553.39	1796.07
553.59	1753.06
553.78	1884.13
553.98	1769.44
554.17	1656.81
554.37	1767.40
554.57	1783.78
554.76	1728.49
554.96	1703.91
555.16	1724.39
555.35	1791.97
555.55	1757.16
555.75	1701.86
555.94	1734.63
556.14	1693.67
556.33	1759.21
556.53	1701.86
556.73	1720.29
556.92	1779.68
557.12	1785.83
557.32	1785.83
557.51	1775.59
557.71	1712.10
557.90	1804.26
558.10	1812.45
558.30	1742.82
558.49	1744.87
558.69	1697.77
558.88	1789.92
559.08	1642.47
559.28	1669.09
559.47	1746.92
559.67	1818.60
559.86	1896.42
560.06	1671.14
560.26	1632.23
560.45	1785.83
560.65	1753.06
560.84	1824.74
561.04	1714.15
561.24	1839.08
561.43	1695.72
561.63	1828.84
561.82	1761.25
562.02	1728.49
562.22	1714.15
562.41	1789.92
562.61	1671.14
562.80	1665.00
563.00	1851.36
563.19	1728.49
563.39	1755.11
563.59	1759.21
563.78	1665.00
563.98	1644.52
564.17	1724.39
564.37	1689.57
564.56	1681.38
564.76	1644.52
564.96	1753.06
565.15	1794.02
565.35	1937.38
565.54	1667.05
565.74	1779.68
565.93	1785.83
566.13	1730.53
566.32	1785.83
566.52	1806.31
566.71	1765.35
566.91	1783.78
567.11	1712.10
567.30	1677.29
567.50	1796.07
567.69	1753.06
567.89	1710.05
568.08	1728.49
568.28	1796.07
568.47	1685.48
568.67	1761.25
568.86	1800.16
569.06	1816.55
569.25	1716.20
569.45	1640.42
569.64	1697.77
569.84	1738.73
570.04	1759.21
570.23	1675.24
570.43	1726.44
570.62	1763.30
570.82	1824.74
571.01	1648.61
571.21	1757.16
571.40	1642.47
571.60	1753.06
571.79	1679.33
571.99	1738.73
572.18	1765.35
572.38	1732.58
572.57	1691.62
572.77	1726.44
572.96	1947.62
573.16	1818.60
573.35	1708.01
573.55	1814.50
573.74	1771.49
573.94	1710.05
574.13	1755.11
574.33	1767.40
574.52	1791.97
574.71	1681.38
574.91	1765.35
575.10	1699.81
575.30	1779.68
575.49	1687.53
575.69	1769.44
575.88	1759.21
576.08	1742.82
576.27	1849.32
576.47	1787.88
576.66	1959.91
576.86	1724.39
577.05	1818.60
577.25	1837.03
577.44	1980.39
577.64	1794.02
577.83	1867.75
578.02	1708.01
578.22	1783.78
578.41	1869.80
578.61	1769.44
578.80	1677.29
579.00	1734.63
579.19	1705.96
579.39	1757.16
579.58	1906.66
579.77	1767.40
579.97	1781.73
580.16	1845.22
580.36	1720.29
580.55	1882.08
580.75	1794.02
580.94	1855.46
581.13	1853.41
581.33	1882.08
581.52	1800.16
581.72	1918.95
581.91	1880.04
582.11	1783.78
582.30	1751.01
582.49	1761.25
582.69	1853.41
582.88	1822.69
583.08	1777.64
583.27	1810.40
583.47	1816.55
583.66	1755.11
583.85	1724.39
584.05	1781.73
584.24	1869.80
584.44	1810.40
584.63	1841.12
584.82	1959.91
585.02	1931.23
585.21	1957.86
585.41	1974.24
585.60	1837.03
585.79	1935.33
585.99	1943.52
586.18	1998.82
586.37	2226.14
586.57	3471.31
586.76	9963.37
586.96	27545.18
587.15	42528.12
587.34	51922.15
587.54	58406.02
587.73	55868.59
587.93	40228.25
588.12	29771.32
588.31	23738.01
588.51	20487.88
588.70	18560.74
588.89	17200.89
589.09	15427.35
589.28	13788.97
589.47	11560.78
589.67	9488.24
589.86	7432.08
590.06	5466.03
590.25	4239.30
590.44	3276.75
590.64	2738.13
590.83	2330.59
591.02	2168.80
591.22	1920.99
591.41	1845.22
591.60	1812.45
591.80	1925.09
591.99	1679.33
592.18	1763.30
592.38	1857.51
592.57	1714.15
592.76	1794.02
592.96	1755.11
593.15	1791.97
593.34	1789.92
593.54	1736.68
593.73	1800.16
593.92	1800.16
594.12	1767.40
594.31	1761.25
594.50	1869.80
594.70	1855.46
594.89	1953.76
595.08	1712.10
595.28	1851.36
595.47	1910.75
595.66	1814.50
595.86	1771.49
596.05	1779.68
596.24	1675.24
596.43	1824.74
596.63	1806.31
596.82	1691.62
597.01	1816.55
597.21	1941.47
597.40	1869.80
597.59	1767.40
597.79	1806.31
597.98	1886.18
598.17	1759.21
598.36	1767.40
598.56	1787.88
598.75	1691.62
598.94	1800.16
599.14	1781.73
599.33	1697.77
599.52	1808.36
599.71	1787.88
599.91	1802.21
600.10	1796.07
600.29	1751.01
600.48	1820.64
600.68	1771.49
600.87	1787.88
601.06	1667.05
601.26	1718.25
601.45	1796.07
601.64	1785.83
601.83	1722.34
602.03	1669.09
602.22	1626.09
602.41	1759.21
602.60	1920.99
602.80	1781.73
602.99	1832.93
603.18	1703.91
603.37	1710.05
603.57	1763.30
603.76	1820.64
603.95	1824.74
604.14	1722.34
604.34	1734.63
604.53	1740.77
604.72	1728.49
604.91	1689.57
605.10	1781.73
605.30	1710.05
605.49	1875.94
605.68	1798.12
605.87	1751.01
606.07	1738.73
606.26	1714.15
606.45	1808.36
606.64	1722.34
606.84	1726.44
607.03	1783.78
607.22	1763.30
607.41	1767.40
607.60	1744.87
607.80	1804.26
607.99	1804.26
608.18	1771.49
608.37	1757.16
608.56	1716.20
608.76	1828.84
608.95	1898.47
609.14	1783.78
609.33	1775.59
609.52	1824.74
609.72	1884.13
609.91	1818.60
610.10	1771.49
610.29	1830.88
610.48	1769.44
610.68	1746.92
610.87	1763.30
611.06	1810.40
611.25	1691.62
611.44	1867.75
611.63	1697.77
611.83	1757.16
612.02	1675.24
612.21	1738.73
612.40	1689.57
612.59	1665.00
612.79	1660.90
612.98	1699.81
613.17	1896.42
613.36	1710.05
613.55	1896.42
613.74	1781.73
613.93	1865.70
614.13	1906.66
614.32	1968.10
614.51	2025.44
614.70	1863.65
614.89	1810.40
615.08	1841.12
615.28	2158.56
615.47	1765.35
615.66	1865.70
615.85	1820.64
616.04	1947.62
616.23	1830.88
616.42	1830.88
616.62	1787.88
616.81	1681.38
617.00	1677.29
617.19	1849.32
617.38	1755.11
617.57	1755.11
617.76	1720.29
617.95	1763.30
618.15	1798.12
618.34	1783.78
618.53	1720.29
618.72	1828.84
618.91	1898.47
619.10	1853.41
619.29	1730.53
619.48	1740.77
619.68	1638.38
619.87	1771.49
620.06	1613.80
620.25	1705.96
620.44	1679.33
620.63	1724.39
620.82	1771.49
621.01	1804.26
621.20	1738.73
621.39	1742.82
621.59	1767.40
621.78	1722.34
621.97	1746.92
622.16	1796.07
622.35	1785.83
622.54	1783.78
622.73	1783.78
622.92	1632.23
623.11	1757.16
623.30	1708.01
623.49	1808.36
623.68	1740.77
623.88	1773.54
624.07	1746.92
624.26	1689.57
624.45	1734.63
624.64	1703.91
624.83	1779.68
625.02	1736.68
625.21	1777.64
625.40	1697.77
625.59	1834.98
625.78	1695.72
625.97	1761.25
626.16	1767.40
626.35	1767.40
626.54	1865.70
626.74	1943.52
626.93	1697.77
627.12	1816.55
627.31	1773.54
627.50	1732.58
627.69	1771.49
627.88	1738.73
628.07	1753.06
628.26	1697.77
628.45	1685.48
628.64	1787.88
628.83	1769.44
629.02	1712.10
629.21	1818.60
629.40	1675.24
629.59	1665.00
629.78	1791.97
629.97	1796.07
630.16	1736.68
630.35	1667.05
630.54	1740.77
630.73	1708.01
630.92	1810.40
631.11	1677.29
631.30	1720.29
631.49	1853.41
631.68	1718.25
631.87	1787.88
632.06	1673.19
632.25	1925.09
632.44	1757.16
632.63	1767.40
632.82	1783.78
633.01	1769.44
633.20	1886.18
633.39	1761.25
633.58	1716.20
633.77	1914.85
633.96	1859.56
634.15	1789.92
634.34	1853.41
634.53	1775.59
634.72	1728.49
634.91	1724.39
635.10	1726.44
635.29	1843.17
635.48	1751.01
635.67	1675.24
635.86	1695.72
636.05	1785.83
636.24	1693.67
636.43	1783.78
636.62	1742.82
636.81	1591.27
637.00	1787.88
637.19	1751.01
637.38	1765.35
637.57	1714.15
637.76	1785.83
637.95	1775.59
638.14	1734.63
638.33	1828.84
638.52	1816.55
638.71	1714.15
638.89	1710.05
639.08	1877.99
639.27	1746.92
639.46	1837.03
639.65	2209.76
639.84	2234.33
640.03	2392.03
640.22	2303.96
640.41	2424.80
640.60	2062.30
640.79	2041.82
640.98	1929.19
641.17	1943.52
641.36	1886.18
641.55	1869.80
641.74	1841.12
641.92	1703.91
642.11	1753.06
642.30	1751.01
642.49	1708.01
642.68	1755.11
642.87	1806.31
643.06	1791.97
643.25	1673.19
643.44	1742.82
643.63	1728.49
643.82	1757.16
644.00	1697.77
644.19	1675.24
644.38	1712.10
644.57	1804.26
644.76	1796.07
644.95	1689.57
645.14	1705.96
645.33	1726.44
645.52	1808.36
645.71	1755.11
645.89	1679.33
646.08	1716.20
646.27	1689.57
646.46	1769.44
646.65	1660.90
646.84	1701.86
647.03	1716.20
647.22	1771.49
647.40	1720.29
647.59	1722.34
647.78	1599.46
647.97	1687.53
648.16	1621.99
648.35	1746.92
648.54	1849.32
648.73	1667.05
648.91	1779.68
649.10	1753.06
649.29	1648.61
649.48	1757.16
649.67	1689.57
649.86	1812.45
650.05	1787.88
650.23	1914.85
650.42	1740.77
650.61	1920.99
650.80	1923.04
650.99	2045.92
651.18	1802.21
651.36	1849.32
651.55	1683.43
651.74	1796.07
651.93	1744.87
652.12	1740.77
652.31	1710.05
652.49	1767.40
652.68	1689.57
652.87	1853.41
653.06	1767.40
653.25	1816.55
653.44	1714.15
653.62	1863.65
653.81	1734.63
654.00	1798.12
654.19	1771.49
654.38	1923.04
654.56	1757.16
654.75	1742.82
654.94	1753.06
655.13	1783.78
655.32	1759.21
655.51	1888.23
655.69	1730.53
655.88	1773.54
656.07	1675.24
656.26	1648.61
656.45	1619.94
656.63	1701.86
656.82	1677.29
657.01	1751.01
657.20	1708.01
657.38	1726.44
657.57	1748.97
657.76	1605.61
657.95	1832.93
658.14	1720.29
658.32	1716.20
658.51	1712.10
658.70	1767.40
658.89	1763.30
659.08	1712.10
659.26	1849.32
659.45	1728.49
659.64	1759.21
659.83	1705.96
660.01	1857.51
660.20	1828.84
660.39	1855.46
660.58	1665.00
660.76	1832.93
660.95	1685.48
661.14	1689.57
661.33	1699.81
661.51	1722.34
661.70	1693.67
661.89	1718.25
662.08	1695.72
662.26	1650.66
662.45	1634.28
662.64	1779.68
662.83	1728.49
663.01	1703.91
663.20	1751.01
663.39	1773.54
663.58	1654.76
663.76	1724.39
663.95	1853.41
664.14	1656.81
664.32	1705.96
664.51	1722.34
664.70	1730.53
664.89	1791.97
665.07	1687.53
665.26	1765.35
665.45	1703.91
665.64	1812.45
665.82	1861.60
666.01	1808.36
666.20	1650.66
666.38	1798.12
666.57	1892.32
666.76	2191.33
666.95	4634.55
667.13	11573.07
667.32	18609.89
667.51	22222.51
667.69	25183.87
667.88	25476.73
668.07	20074.19
668.25	14280.49
668.44	11853.64
668.63	9760.62
668.81	8601.47
669.00	7583.63
669.19	6975.38
669.38	6178.72
669.56	5367.73
669.75	4564.92
669.94	3887.04
670.12	3147.73
670.31	2641.88
670.50	2406.36
670.68	2105.31
670.87	1933.28
671.06	1918.95
671.24	1892.32
671.43	1863.65
671.62	1839.08
671.80	1783.78
671.99	1832.93
672.18	1751.01
672.36	1726.44
672.55	1710.05
672.74	1808.36
672.92	1736.68
673.11	1789.92
673.29	1687.53
673.48	1783.78
673.67	1705.96
673.85	1787.88
674.04	1695.72
674.23	1722.34
674.41	1845.22
674.60	1617.90
674.79	1656.81
674.97	1660.90
675.16	1820.64
675.34	1681.38
675.53	1665.00
675.72	1779.68
675.90	1877.99
676.09	1609.70
676.28	1806.31
676.46	1587.18
676.65	1767.40
676.83	1660.90
677.02	1755.11
677.21	1732.58
677.39	1703.91
677.58	1677.29
677.77	1779.68
677.95	1742.82
678.14	1751.01
678.32	1669.09
678.51	1699.81
678.70	1824.74
678.88	1689.57
679.07	1730.53
679.25	1761.25
679.44	1671.14
679.63	1644.52
679.81	1650.66
680.00	1796.07
680.18	1716.20
680.37	1828.84
680.55	1656.81
680.74	1603.56
680.93	1644.52
681.11	1734.63
681.30	1734.63
681.48	1734.63
681.67	1722.34
681.85	1730.53
682.04	1703.91
682.23	1759.21
682.41	1644.52
682.60	1667.05
682.78	1671.14
682.97	1701.86
683.15	1732.58
683.34	1708.01
683.53	1847.27
683.71	1724.39
683.90	1800.16
684.08	1769.44
684.27	1767.40
684.45	1718.25
684.64	1742.82
684.82	1722.34
685.01	1769.44
685.19	1705.96
685.38	1814.50
685.57	1673.19
685.75	1650.66
685.94	1722.34
686.12	1660.90
686.31	1667.05
686.49	1732.58
686.68	1572.84
686.86	1771.49
687.05	1636.33
687.23	1775.59
687.42	1646.57
687.60	1648.61
687.79	1769.44
687.97	1781.73
688.16	1767.40
688.34	1802.21
688.53	1681.38
688.71	1746.92
688.90	1787.88
689.08	1742.82
689.27	1718.25
689.45	1710.05
689.64	1708.01
689.82	1767.40
690.01	1759.21
690.19	1769.44
690.38	1654.76
690.56	1812.45
690.75	1597.42
690.93	1644.52
691.12	1636.33
691.30	1722.34
691.49	1703.91
691.67	1632.23
691.86	1806.31
692.04	1703.91
692.23	1677.29
692.41	1759.21
692.60	1890.28
692.78	1843.17
692.97	1789.92
693.15	1830.88
693.34	1966.05
693.52	1824.74
693.71	1732.58
693.89	1722.34
694.08	1615.85
694.26	1718.25
694.44	1783.78
694.63	1769.44
694.81	1718.25
695.00	1632.23
695.18	1697.77
695.37	1849.32
695.55	1722.34
695.74	1777.64
695.92	1667.05
696.10	1812.45
696.29	1718.25
696.47	1699.81
696.66	1712.10
696.84	1703.91
697.03	1660.90
697.21	1859.56
697.40	2404.32
697.58	1755.11
697.76	1673.19
697.95	1697.77
698.13	1632.23
698.32	1691.62
698.50	1796.07
698.68	1796.07
698.87	1755.11
699.05	1800.16
699.24	1787.88
699.42	1746.92
699.61	1697.77
699.79	1679.33
699.97	1753.06
700.16	1613.80
700.34	1593.32
700.53	1820.64
700.71	1794.02
700.89	1822.69
701.08	1652.71
701.26	1751.01
701.45	2103.26
701.63	1665.00
701.81	1746.92
702.00	1714.15
702.18	1738.73
702.37	1714.15
702.55	1906.66
702.73	1898.47
702.92	1826.79
703.10	1994.72
703.28	1984.48
703.47	1884.13
703.65	1855.46
703.84	1920.99
704.02	1810.40
704.20	1884.13
704.39	1708.01
704.57	1724.39
704.75	1920.99
704.94	1810.40
705.12	1771.49
705.30	1861.60
705.49	2463.71
705.67	5556.14
705.86	13270.84
706.04	19422.94
706.22	23084.70
706.41	25405.05
706.59	24895.11
706.77	19322.59
706.96	13737.77
707.14	11992.90
707.32	10358.63
707.51	9103.22
707.69	7866.25
707.87	6713.24
708.06	5486.51
708.24	4356.03
708.42	3350.48
708.61	2727.89
708.79	2303.96
708.97	2029.54
709.16	1931.23
709.34	1939.43
709.52	1730.53
709.71	1728.49
709.89	1773.54
710.07	1757.16
710.26	1685.48
710.44	1759.21
710.62	1746.92
710.80	1734.63
710.99	1783.78
711.17	1763.30
711.35	1648.61
711.54	1681.38
711.72	1822.69
711.90	1708.01
712.09	1693.67
712.27	1718.25
712.45	1716.20
712.63	1638.38
712.82	1767.40
713.00	1794.02
713.18	1832.93
713.37	1787.88
713.55	1849.32
713.73	1751.01
713.91	1804.26
714.10	1728.49
714.28	1724.39
714.46	1748.97
714.65	1746.92
714.83	1669.09
715.01	1751.01
715.19	1724.39
715.38	1656.81
715.56	1734.63
715.74	1769.44
715.92	1650.66
716.11	1841.12
716.29	1591.27
716.47	1802.21
716.65	1695.72
716.84	1525.74
717.02	1693.67
717.20	1732.58
717.38	1710.05
717.57	1814.50
717.75	1755.11
717.93	1677.29
718.11	1681.38
718.30	1681.38
718.48	1689.57
718.66	1755.11
718.84	1724.39
719.03	1771.49
719.21	1640.42
719.39	1740.77
719.57	1753.06
719.75	1736.68
719.94	1693.67
720.12	1705.96
720.30	1816.55
720.48	1773.54
720.67	1615.85
720.85	1685.48
721.03	1656.81
721.21	1693.67
721.39	1796.07
721.58	1751.01
721.76	1720.29
721.94	1730.53
722.12	1734.63
722.30	1785.83
722.49	1660.90
722.67	1728.49
722.85	1800.16
723.03	1634.28
723.21	1632.23
723.40	1832.93
723.58	1781.73
723.76	1734.63
723.94	1771.49
724.12	1855.46
724.30	1873.89
724.49	1822.69
724.67	1667.05
724.85	1843.17
725.03	1675.24
725.21	1773.54
725.40	1806.31
725.58	1708.01
725.76	1849.32
725.94	1757.16
726.12	1689.57
726.30	1796.07
726.49	1708.01
726.67	1710.05
726.85	1746.92
727.03	1771.49
727.21	2271.20
727.39	3442.64
727.57	4970.42
727.76	5797.80
727.94	6207.39
728.12	6434.72
728.30	5724.07
728.48	4519.87
728.66	3999.68
728.84	3622.86
729.03	3209.17
729.21	2899.92
729.39	2447.32
729.57	2162.66
729.75	2025.44
729.93	1939.43
730.11	1789.92
730.30	1816.55
730.48	1775.59
730.66	1826.79
730.84	1810.40
731.02	1769.44
731.20	1695.72
731.38	1654.76
731.56	1660.90
731.74	1632.23
731.93	1722.34
732.11	1675.24
732.29	1705.96
732.47	1791.97
732.65	1748.97
732.83	1746.92
733.01	1740.77
733.19	1669.09
733.37	1783.78
733.56	1738.73
733.74	1689.57
733.92	1744.87
734.10	1693.67
734.28	1734.63
734.46	1665.00
734.64	1681.38
734.82	1669.09
735.00	1738.73
735.18	1732.58
735.36	1738.73
735.54	1742.82
735.73	1738.73
735.91	1808.36
736.09	1820.64
736.27	1724.39
736.45	1734.63
736.63	1615.85
736.81	1660.90
736.99	1761.25
737.17	1751.01
737.35	1720.29
737.53	1638.38
737.71	1732.58
737.89	1781.73
738.07	1673.19
738.25	1720.29
738.43	1644.52
738.61	1660.90
738.80	1638.38
738.98	1650.66
739.16	1650.66
739.34	1640.42
739.52	1843.17
739.70	1708.01
739.88	1839.08
740.06	1796.07
740.24	1619.94
740.42	1751.01
740.60	1710.05
740.78	1718.25
740.96	1607.66
741.14	1691.62
741.32	1662.95
741.50	1673.19
741.68	1800.16
741.86	1865.70
742.04	1648.61
742.22	1646.57
742.40	1619.94
742.58	1665.00
742.76	1671.14
742.94	1791.97
743.12	1611.75
743.30	1710.05
743.48	1853.41
743.66	1595.37
743.84	1710.05
744.02	1746.92
744.20	1693.67
744.38	1697.77
744.56	1660.90
744.74	1857.51
744.92	1820.64
745.10	1808.36
745.28	1763.30
745.46	1777.64
745.64	1757.16
745.82	1804.26
746.00	1716.20
746.18	1742.82
746.36	1681.38
746.54	1722.34
746.72	1751.01
746.90	1722.34
747.08	1761.25
747.26	1697.77
747.44	1820.64
747.62	1722.34
747.80	1699.81
747.98	1834.98
748.15	1705.96
748.33	1791.97
748.51	1736.68
748.69	1720.29
748.87	1722.34
749.05	1794.02
749.23	1624.04
749.41	1814.50
749.59	1699.81
749.77	1755.11
749.95	1689.57
750.13	1656.81
750.31	1759.21
750.49	1667.05
750.67	1818.60
750.85	1714.15
751.03	1753.06
751.20	1847.27
751.38	1699.81
751.56	1675.24
751.74	1701.86
751.92	1740.77
752.10	1665.00
752.28	1771.49
752.46	1722.34
752.64	1648.61
752.82	1744.87
753.00	1716.20
753.18	1648.61
753.35	1705.96
753.53	1703.91
753.71	1714.15
753.89	1763.30
754.07	1726.44
754.25	1794.02
754.43	1699.81
754.61	1595.37
754.79	1787.88
754.97	1687.53
755.14	1806.31
755.32	1550.31
755.50	1732.58
755.68	1763.30
755.86	1642.47
756.04	1624.04
756.22	1609.70
756.40	1740.77
756.57	1877.99
756.75	1677.29
756.93	1687.53
757.11	1783.78
757.29	1611.75
757.47	1697.77
757.65	1630.18
757.82	1585.13
758.00	1703.91
758.18	1691.62
758.36	1705.96
758.54	1810.40
758.72	1660.90
758.90	1738.73
759.07	1757.16
759.25	1570.79
759.43	1697.77
759.61	1607.66
759.79	2168.80
759.97	1763.30
760.15	1687.53
760.32	1640.42
760.50	1714.15
760.68	1820.64
760.86	1691.62
761.04	1724.39
761.22	1763.30
761.39	1720.29
761.57	1742.82
761.75	1798.12
761.93	1732.58
762.11	1634.28
762.28	1736.68
762.46	1724.39
762.64	1736.68
762.82	1658.85
763.00	1746.92
763.18	1734.63
763.35	1621.99
763.53	1806.31
763.71	1734.63
763.89	1757.16
764.07	1697.77
764.24	1708.01
764.42	1759.21
764.60	1669.09
764.78	1728.49
764.96	1779.68
765.13	1705.96
765.31	1744.87
765.49	1691.62
765.67	1650.66
765.84	1714.15
766.02	1656.81
766.20	1689.57
766.38	1689.57
766.56	1736.68
766.73	1712.10
766.91	1714.15
767.09	1767.40
767.27	1689.57
767.44	1693.67
767.62	1710.05
767.80	1662.95
767.98	1656.81
768.15	1681.38
768.33	1775.59
768.51	1722.34
768.69	1636.33
768.87	1742.82
769.04	1716.20
769.22	1869.80
769.40	1806.31
769.58	1877.99
769.75	1804.26
769.93	1767.40
770.11	1718.25
770.28	1632.23
770.46	1781.73
770.64	1720.29
770.82	1636.33
770.99	1755.11
771.17	1781.73
771.35	1701.86
771.53	1730.53
771.70	1691.62
771.88	1669.09
772.06	1683.43
772.23	1744.87
772.41	1740.77
772.59	1697.77
772.77	1669.09
772.94	1748.97
773.12	1730.53
773.30	1701.86
773.47	1679.33
773.65	1681.38
773.83	1796.07
774.01	1701.86
774.18	1624.04
774.36	1742.82
774.54	1656.81
774.71	1724.39
774.89	1585.13
775.07	1732.58
775.24	1667.05
775.42	1677.29
775.60	1779.68
775.78	1632.23
775.95	1654.76
776.13	1621.99
776.31	1583.08
776.48	1673.19
776.66	1789.92
776.84	1628.14
777.01	1695.72
777.19	1617.90
777.37	1732.58
777.54	1748.97
777.72	1832.93
777.90	1712.10
778.07	1640.42
778.25	1847.27
778.43	1744.87
778.60	1646.57
778.78	1736.68
778.96	1740.77
779.13	1703.91
779.31	1726.44
779.49	1705.96
779.66	1742.82
779.84	1667.05
780.01	1736.68
780.19	1632.23
780.37	1746.92
780.54	1798.12
780.72	1726.44
780.90	1705.96
781.07	1685.48
781.25	1605.61
781.43	1740.77
781.60	1681.38
781.78	1697.77
781.95	1673.19
782.13	1611.75
782.31	1683.43
782.48	1624.04
782.66	1683.43
782.83	1775.59
783.01	1763.30
783.19	1779.68
783.36	1732.58
783.54	1691.62
783.72	1722.34
783.89	1748.97
784.07	1755.11
784.24	1746.92
784.42	1744.87
784.60	1742.82
784.77	1691.62
784.95	1583.08
785.12	1699.81
785.30	1742.82
785.47	1687.53
785.65	1628.14
785.83	1714.15
786.00	1656.81
786.18	1714.15
786.35	1636.33
786.53	1712.10
786.71	1746.92
786.88	1742.82
787.06	1697.77
787.23	1675.24
787.41	1671.14
787.58	1769.44
787.76	1642.47
787.94	1734.63
788.11	1626.09
788.29	1685.48
788.46	1640.42
788.64	1650.66
788.81	1660.90
788.99	1675.24
789.16	1662.95
789.34	1726.44
789.52	1732.58
789.69	1714.15
789.87	1570.79
790.04	1683.43
790.22	1703.91
790.39	1810.40
790.57	1636.33
790.74	1710.05
790.92	1730.53
791.09	1611.75
791.27	1720.29
791.44	1705.96
791.62	1710.05
791.79	1722.34
791.97	1720.29
792.15	1935.33
792.32	1718.25
792.50	1705.96
792.67	1832.93
792.85	1708.01
793.02	1798.12
793.20	1708.01
793.37	1703.91
793.55	1697.77
793.72	1624.04
793.90	1689.57
794.07	1615.85
794.25	1665.00
794.42	1742.82
794.60	1681.38
794.77	1773.54
794.95	1794.02
795.12	1746.92
795.30	1677.29
795.47	1617.90
795.65	1927.14
795.82	1699.81
796.00	1726.44
796.17	1746.92
796.34	1736.68
796.52	1751.01
796.69	1734.63
796.87	1769.44
797.04	1753.06
797.22	1800.16
797.39	1787.88
797.57	1679.33
797.74	1652.71
797.92	1660.90
798.09	1687.53
798.27	1742.82
798.44	1693.67
798.62	1701.86
798.79	1693.67
798.96	1771.49
799.14	1710.05
799.31	1898.47
799.49	1685.48
799.66	1669.09
799.84	1775.59
800.01	1646.57
800.19	1703.91
800.36	1550.31
800.53	1697.77
800.71	1751.01
800.88	1763.30
801.06	1632.23
801.23	1638.38
801.41	1716.20
801.58	1685.48
801.75	1681.38
801.93	1765.35
802.10	1791.97
802.28	1683.43
802.45	1726.44
802.63	1746.92
802.80	1812.45
802.97	1708.01
803.15	1701.86
803.32	1652.71
803.50	1714.15
803.67	1587.18
803.84	1603.56
804.02	1765.35
804.19	1703.91
804.37	1648.61
804.54	1652.71
804.71	1701.86
804.89	1701.86
805.06	1679.33
805.24	1615.85
805.41	1708.01
805.58	1714.15
805.76	1757.16
805.93	1767.40
806.10	1755.11
806.28	1738.73
806.45	1785.83
806.63	1738.73
806.80	1755.11
806.97	1718.25
807.15	1695.72
807.32	1726.44
807.49	1734.63
807.67	1658.85
807.84	1669.09
808.01	1650.66
808.19	1804.26
808.36	1826.79
808.54	1636.33
808.71	1603.56
808.88	1685.48
809.06	1800.16
809.23	1755.11
809.40	1665.00
809.58	1763.30
809.75	1685.48
809.92	1632.23
810.10	1820.64
810.27	1714.15
810.44	1703.91
810.62	1794.02
810.79	1738.73
810.96	1552.36
811.14	1705.96
811.31	1724.39
811.48	1679.33
811.66	1648.61
811.83	1765.35
812.00	1710.05
812.18	1718.25
812.35	1738.73
812.52	1662.95
812.69	1716.20
812.87	1662.95
813.04	1675.24
813.21	1697.77
813.39	1697.77
813.56	1695.72
813.73	1828.84
813.91	1613.80
814.08	1699.81
814.25	1687.53
814.42	1665.00
814.60	1619.94
814.77	1665.00
814.94	1636.33
815.12	1689.57
815.29	1759.21
815.46	1673.19
815.63	1722.34
815.81	1722.34
815.98	1640.42
816.15	1726.44
816.33	1697.77
816.50	1701.86
816.67	1705.96
816.84	1634.28
817.02	1681.38
817.19	1712.10
817.36	1695.72
817.53	1773.54
817.71	1609.70
817.88	1865.70
818.05	1675.24
818.22	1638.38
818.40	1771.49
818.57	1730.53
818.74	1687.53
818.91	1675.24
819.09	1791.97
819.26	1775.59
819.43	1667.05
819.60	1658.85
819.78	1697.77
819.95	1759.21
820.12	1611.75
820.29	1767.40
820.47	1777.64
820.64	1630.18
820.81	1656.81
820.98	1665.00
821.15	1708.01
821.33	1685.48
821.50	1597.42
821.67	1730.53
821.84	1628.14
822.02	1779.68
822.19	1677.29
822.36	1751.01
822.53	1798.12
822.70	1615.85
822.88	1726.44
823.05	1765.35
823.22	1654.76
823.39	1703.91
823.56	1722.34
823.74	1800.16
823.91	1576.94
824.08	1679.33
824.25	1673.19
824.42	1847.27
824.60	1630.18
824.77	1708.01
824.94	1669.09
825.11	1765.35
825.28	1667.05
825.45	1759.21
825.63	1724.39
825.80	1665.00
825.97	1767.40
826.14	1726.44
826.31	1572.84
826.48	1800.16
826.66	1632.23
826.83	1677.29
827.00	1736.68
827.17	1642.47
827.34	1718.25
827.51	1671.14
827.69	1724.39
827.86	1650.66
828.03	1767.40
828.20	1656.81
828.37	1695.72
828.54	1687.53
828.71	1695.72
828.89	1757.16
829.06	1734.63
829.23	1742.82
829.40	1671.14
829.57	1697.77
829.74	1724.39
829.91	1697.77
830.09	1679.33
830.26	1701.86
830.43	1832.93
830.60	1701.86
830.77	1806.31
830.94	1761.25
831.11	1789.92
831.28	1703.91
831.46	1755.11
831.63	1613.80
831.80	1718.25
831.97	1697.77
832.14	1589.22
832.31	1775.59
832.48	1671.14
832.65	1761.25
832.82	1681.38
832.99	1753.06
833.17	1656.81
833.34	1789.92
833.51	1685.48
833.68	1566.70
833.85	1814.50
834.02	1593.32
834.19	1644.52
834.36	1652.71
834.53	1722.34
834.70	1755.11
834.87	1736.68
835.04	1714.15
835.22	1718.25
835.39	1730.53
835.56	1624.04
835.73	1669.09
835.90	1740.77
836.07	1654.76
836.24	1791.97
836.41	1691.62
836.58	1669.09
836.75	1802.21
836.92	1681.38
837.09	1654.76
837.26	1767.40
837.43	1695.72
837.60	1773.54
837.77	1683.43
837.94	1796.07
838.12	1683.43
838.29	1777.64
838.46	1595.37
838.63	1626.09
838.80	1761.25
838.97	1755.11
839.14	1654.76
839.31	1734.63
839.48	1755.11
839.65	1767.40
839.82	1783.78
839.99	1712.10
840.16	1679.33
840.33	1650.66
840.50	1691.62
840.67	1673.19
840.84	1527.78
841.01	1691.62
841.18	1619.94
841.35	1736.68
841.52	1769.44
841.69	1791.97
841.86	1722.34
842.03	1673.19
842.20	1769.44
842.37	1671.14
842.54	1732.58
842.71	1734.63
842.88	1665.00
843.05	1759.21
843.22	1681.38
843.39	1714.15
843.56	1652.71
843.73	1746.92
843.90	1761.25
844.07	1714.15
844.24	1720.29
844.41	1746.92
844.58	1687.53
844.75	1753.06
844.92	1660.90
845.09	1640.42
845.26	1662.95
845.43	1658.85
845.60	1671.14
845.77	1796.07
845.94	1681.38
846.10	1765.35
846.27	1597.42
846.44	1665.00
846.61	1624.04
846.78	1718.25
846.95	1761.25
847.12	1757.16
847.29	1734.63
847.46	1593.32
847.63	1724.39
847.80	1634.28
847.97	1646.57
848.14	1820.64
848.31	1687.53
848.48	1642.47
848.65	1757.16
848.82	1705.96
848.98	1861.60
849.15	1677.29
849.32	1746.92
849.49	1738.73
849.66	1759.21
849.83	1769.44
850.00	1619.94
850.17	1816.55
850.34	1654.76
850.51	1621.99
850.68	1720.29
850.85	1783.78
851.01	1736.68
851.18	1722.34
851.35	1712.10
851.52	1703.91
851.69	1779.68
851.86	1673.19
852.03	1701.86
852.20	1742.82
852.37	1652.71
852.53	1656.81
852.70	1689.57
852.87	1697.77
853.04	1736.68
853.21	1710.05
853.38	1710.05
853.55	1791.97
853.72	1812.45
853.89	1601.51
854.05	1714.15
854.22	1701.86
854.39	1689.57
854.56	1722.34
854.73	1808.36
854.90	1681.38
855.07	1712.10
855.23	1636.33
855.40	1591.27
855.57	1638.38
855.74	1554.41
855.91	1839.08
856.08	1660.90
856.25	1683.43
856.41	1712.10
856.58	1578.98
856.75	1736.68
856.92	1628.14
857.09	1724.39
857.26	1550.31
857.42	1652.71
857.59	1742.82
857.76	1773.54
857.93	1730.53
858.10	1722.34
858.27	1683.43
858.43	1716.20
858.60	1720.29
858.77	1626.09
858.94	1630.18
859.11	1769.44
859.27	1701.86
859.44	1683.43
859.61	1773.54
859.78	1757.16
859.95	1665.00
860.12	1669.09
860.28	1775.59
860.45	1787.88
860.62	1638.38
860.79	1691.62
860.95	1683.43
861.12	1667.05
861.29	1646.57
861.46	1665.00
861.63	1665.00
861.79	1757.16
861.96	1699.81
862.13	1693.67
862.30	1828.84
862.47	1708.01
862.63	1624.04
862.80	1728.49
862.97	1814.50
863.14	1714.15
863.30	1734.63
863.47	1619.94
863.64	1804.26
863.81	1720.29
863.97	1716.20
864.14	1689.57
864.31	1693.67
864.48	1701.86
864.65	1665.00
864.81	1736.68
864.98	1693.67
865.15	1802.21
865.32	1773.54
865.48	1746.92
865.65	1791.97
865.82	1644.52
865.98	1759.21
866.15	1796.07
866.32	1685.48
866.49	1679.33
866.65	1767.40
866.82	1642.47
866.99	1746.92
867.16	1687.53
867.32	1679.33
867.49	1718.25
867.66	1773.54
867.83	1669.09
867.99	1734.63
868.16	1683.43
868.33	1656.81
868.49	1693.67
868.66	1730.53
868.83	1703.91
868.99	1708.01
869.16	1726.44
869.33	1705.96
869.50	1796.07
869.66	1746.92
869.83	1693.67
870.00	1667.05
870.16	1761.25
870.33	1714.15
870.50	1726.44
870.66	1705.96
870.83	1810.40
871.00	1791.97
871.17	1662.95
871.33	1722.34
871.50	1703.91
871.67	1691.62
871.83	1587.18
872.00	1734.63
872.17	1720.29
872.33	1880.04
872.50	1722.34
872.67	1705.96
872.83	1691.62
873.00	1775.59
873.17	1632.23
873.33	1683.43
873.50	1701.86
873.67	1658.85
873.83	1738.73
874.00	1705.96
874.16	1742.82
874.33	1722.34
874.50	1615.85
874.66	1728.49
874.83	1599.46
875.00	1734.63
875.16	1794.02
875.33	1746.92
875.50	1679.33
875.66	1665.00
875.83	1724.39
875.99	1773.54
876.16	1689.57
876.33	1710.05
876.49	1673.19
876.66	1785.83
876.83	1783.78
876.99	1632.23
877.16	1675.24
877.32	1697.77
877.49	1724.39
877.66	1654.76
877.82	1751.01
877.99	1681.38
878.15	1753.06
878.32	1783.78
878.49	1697.77
878.65	1648.61
878.82	1816.55
878.98	1634.28
879.15	1675.24
879.32	1767.40
879.48	1726.44
879.65	1689.57
879.81	1683.43
879.98	1656.81
880.15	1695.72
880.31	1720.29
880.48	1683.43
880.64	1769.44
880.81	1730.53
880.97	1867.75
881.14	1716.20
881.31	1677.29
881.47	1861.60
881.64	1722.34
881.80	1562.60
881.97	1802.21
882.13	1759.21
882.30	1738.73
882.47	1656.81
882.63	1673.19
882.80	1589.22
882.96	1617.90
883.13	1732.58
883.29	1708.01
883.46	1746.92
883.62	1783.78
883.79	1769.44
883.95	1751.01
884.12	1675.24
884.29	1759.21
884.45	1722.34
884.62	1832.93
884.78	1658.85
884.95	1800.16
885.11	1662.95
885.28	1683.43
885.44	1615.85
885.61	1718.25
885.77	1781.73
885.94	1693.67
886.10	1701.86
886.27	1662.95
886.43	1839.08
886.60	1716.20
886.76	1662.95
886.93	1701.86
887.09	1812.45
887.26	1619.94
887.42	1730.53
887.59	1822.69
887.75	1808.36
887.92	1791.97
888.08	1767.40
888.25	1820.64
888.41	1808.36
888.58	1740.77
888.74	1667.05
888.91	1695.72
>>>>>End Processed Spectral Data<<<<<
