SpectraSuite Data File
++++++++++++++++++++++++++++++++++++
Date: Wed May 04 18:44:14 CEST 2016
User: root
Dark Spectrum Present: No
Reference Spectrum Present: No
Number of Sampled Component Spectra: 1
Spectrometers: USB4C02835
Integration Time (usec): 100000 (USB4C02835)
Spectra Averaged: 1 (USB4C02835)
Boxcar Smoothing: 0 (USB4C02835)
Correct for Electrical Dark: No (USB4C02835)
Strobe/Lamp Enabled: No (USB4C02835)
Correct for Detector Non-linearity: No (USB4C02835)
Correct for Stray Light: No (USB4C02835)
Number of Pixels in Processed Spectrum: 3648
>>>>>Begin Processed Spectral Data<<<<<
177.47	1497.07
177.69	1497.07
177.91	1497.07
178.13	1470.44
178.36	1495.02
178.58	1626.09
178.80	1660.90
179.02	1607.66
179.24	1589.22
179.46	1722.34
179.68	1802.21
179.90	1730.53
180.13	1691.62
180.35	1789.92
180.57	1705.96
180.79	1697.77
181.01	1726.44
181.23	1794.02
181.45	1855.46
181.67	1771.49
181.90	1859.56
182.12	1652.71
182.34	1697.77
182.56	1730.53
182.78	1658.85
183.00	1695.72
183.22	1748.97
183.44	1648.61
183.66	1902.56
183.89	1781.73
184.11	1738.73
184.33	1753.06
184.55	1828.84
184.77	1701.86
184.99	1736.68
185.21	1714.15
185.43	1824.74
185.65	1677.29
185.87	1714.15
186.10	1841.12
186.32	1861.60
186.54	1714.15
186.76	1730.53
186.98	1730.53
187.20	1769.44
187.42	1650.66
187.64	1689.57
187.86	1734.63
188.08	1755.11
188.30	1726.44
188.52	1681.38
188.75	1773.54
188.97	1806.31
189.19	1648.61
189.41	1701.86
189.63	1841.12
189.85	1607.66
190.07	1671.14
190.29	1605.61
190.51	1665.00
190.73	1589.22
190.95	1728.49
191.17	1763.30
191.39	1634.28
191.61	1640.42
191.84	1701.86
192.06	1736.68
192.28	1613.80
192.50	1845.22
192.72	1654.76
192.94	1720.29
193.16	1761.25
193.38	1683.43
193.60	1646.57
193.82	1703.91
194.04	1802.21
194.26	1722.34
194.48	1705.96
194.70	1632.23
194.92	1658.85
195.14	1730.53
195.36	1617.90
195.58	1724.39
195.80	1726.44
196.02	1685.48
196.24	1687.53
196.46	1697.77
196.69	1734.63
196.91	1812.45
197.13	1675.24
197.35	1697.77
197.57	1828.84
197.79	1697.77
198.01	1685.48
198.23	1728.49
198.45	1796.07
198.67	1681.38
198.89	1699.81
199.11	1669.09
199.33	1634.28
199.55	1648.61
199.77	1722.34
199.99	1794.02
200.21	1660.90
200.43	1654.76
200.65	1640.42
200.87	1632.23
201.09	1679.33
201.31	1675.24
201.53	1656.81
201.75	1716.20
201.97	1787.88
202.19	1673.19
202.41	1800.16
202.63	1837.03
202.85	1763.30
203.07	1691.62
203.29	1685.48
203.51	1683.43
203.73	1701.86
203.95	1904.61
204.17	1677.29
204.39	1740.77
204.61	1716.20
204.83	1732.58
205.05	1775.59
205.27	1857.51
205.49	1771.49
205.71	1728.49
205.93	1662.95
206.15	1681.38
206.37	1744.87
206.59	1728.49
206.81	1632.23
207.03	1624.04
207.25	1648.61
207.47	1798.12
207.69	1667.05
207.91	1767.40
208.13	1804.26
208.34	1673.19
208.56	1734.63
208.78	1656.81
209.00	1638.38
209.22	1656.81
209.44	1742.82
209.66	1660.90
209.88	1669.09
210.10	1677.29
210.32	1705.96
210.54	1787.88
210.76	1734.63
210.98	1757.16
211.20	1642.47
211.42	1656.81
211.64	1742.82
211.86	1722.34
212.08	1738.73
212.30	1722.34
212.52	1724.39
212.74	1675.24
212.96	1742.82
213.17	1714.15
213.39	1705.96
213.61	1806.31
213.83	1720.29
214.05	1718.25
214.27	1652.71
214.49	1681.38
214.71	1679.33
214.93	1775.59
215.15	1656.81
215.37	1738.73
215.59	1634.28
215.81	1742.82
216.03	1748.97
216.24	1681.38
216.46	1650.66
216.68	1683.43
216.90	1718.25
217.12	1697.77
217.34	1763.30
217.56	1652.71
217.78	1722.34
218.00	1820.64
218.22	1677.29
218.44	1689.57
218.66	1703.91
218.87	1845.22
219.09	1644.52
219.31	1757.16
219.53	1701.86
219.75	1791.97
219.97	1730.53
220.19	1800.16
220.41	1697.77
220.63	1744.87
220.85	1753.06
221.06	1689.57
221.28	1804.26
221.50	1757.16
221.72	1710.05
221.94	1734.63
222.16	1742.82
222.38	1812.45
222.60	1734.63
222.82	1689.57
223.03	1646.57
223.25	1701.86
223.47	1839.08
223.69	1820.64
223.91	1757.16
224.13	1689.57
224.35	1652.71
224.57	1789.92
224.78	1730.53
225.00	1658.85
225.22	1689.57
225.44	1763.30
225.66	1712.10
225.88	1767.40
226.10	1660.90
226.32	1722.34
226.53	1765.35
226.75	1753.06
226.97	1746.92
227.19	1708.01
227.41	1753.06
227.63	1652.71
227.85	1671.14
228.06	1757.16
228.28	1742.82
228.50	1730.53
228.72	1730.53
228.94	1759.21
229.16	1640.42
229.37	1652.71
229.59	1644.52
229.81	1697.77
230.03	1718.25
230.25	1570.79
230.47	1681.38
230.69	1626.09
230.90	1720.29
231.12	1697.77
231.34	1724.39
231.56	1722.34
231.78	1656.81
232.00	1716.20
232.21	1722.34
232.43	1679.33
232.65	1603.56
232.87	1740.77
233.09	1642.47
233.30	1681.38
233.52	1773.54
233.74	1689.57
233.96	1669.09
234.18	1722.34
234.40	1681.38
234.61	1767.40
234.83	1630.18
235.05	1654.76
235.27	1904.61
235.49	1810.40
235.70	1695.72
235.92	1845.22
236.14	1609.70
236.36	1826.79
236.58	1654.76
236.79	1710.05
237.01	1650.66
237.23	1732.58
237.45	1822.69
237.67	1658.85
237.88	1712.10
238.10	1777.64
238.32	1726.44
238.54	1642.47
238.76	1665.00
238.97	1617.90
239.19	1660.90
239.41	1738.73
239.63	1716.20
239.85	1681.38
240.06	1746.92
240.28	1634.28
240.50	1777.64
240.72	1669.09
240.93	1665.00
241.15	1775.59
241.37	1685.48
241.59	1767.40
241.81	1751.01
242.02	1640.42
242.24	1785.83
242.46	1726.44
242.68	1718.25
242.89	1708.01
243.11	1847.27
243.33	1705.96
243.55	1740.77
243.76	1746.92
243.98	1714.15
244.20	1673.19
244.42	1658.85
244.64	1812.45
244.85	1615.85
245.07	1648.61
245.29	1744.87
245.51	1757.16
245.72	1685.48
245.94	1808.36
246.16	1722.34
246.38	1697.77
246.59	1648.61
246.81	1695.72
247.03	1748.97
247.24	1650.66
247.46	1675.24
247.68	1689.57
247.90	1730.53
248.11	1656.81
248.33	1755.11
248.55	1701.86
248.77	1718.25
248.98	1748.97
249.20	1789.92
249.42	1773.54
249.64	1734.63
249.85	1691.62
250.07	1640.42
250.29	1689.57
250.50	1738.73
250.72	1683.43
250.94	1724.39
251.16	1779.68
251.37	1847.27
251.59	1738.73
251.81	1714.15
252.02	1730.53
252.24	1714.15
252.46	1806.31
252.68	1654.76
252.89	1636.33
253.11	1609.70
253.33	1849.32
253.54	1802.21
253.76	1650.66
253.98	1697.77
254.20	1687.53
254.41	1689.57
254.63	1689.57
254.85	1660.90
255.06	1726.44
255.28	1734.63
255.50	1703.91
255.71	1746.92
255.93	1566.70
256.15	1665.00
256.36	1667.05
256.58	1701.86
256.80	1763.30
257.02	1662.95
257.23	1652.71
257.45	1660.90
257.67	1779.68
257.88	1658.85
258.10	1699.81
258.32	1718.25
258.53	1775.59
258.75	1841.12
258.97	1677.29
259.18	1648.61
259.40	1691.62
259.62	1837.03
259.83	1755.11
260.05	1742.82
260.27	1953.76
260.48	1746.92
260.70	1744.87
260.92	1656.81
261.13	1742.82
261.35	1697.77
261.57	1771.49
261.78	1665.00
262.00	1658.85
262.22	1775.59
262.43	1675.24
262.65	1703.91
262.86	1675.24
263.08	1765.35
263.30	1736.68
263.51	1574.89
263.73	1595.37
263.95	1730.53
264.16	1728.49
264.38	1665.00
264.60	1648.61
264.81	1591.27
265.03	1714.15
265.25	1746.92
265.46	1714.15
265.68	1824.74
265.89	1683.43
266.11	1642.47
266.33	1732.58
266.54	1777.64
266.76	1755.11
266.98	1712.10
267.19	1783.78
267.41	1802.21
267.62	1628.14
267.84	1572.84
268.06	1716.20
268.27	1746.92
268.49	1759.21
268.70	1814.50
268.92	1677.29
269.14	1656.81
269.35	1619.94
269.57	1722.34
269.79	1705.96
270.00	1734.63
270.22	1834.98
270.43	1665.00
270.65	1636.33
270.87	1777.64
271.08	1638.38
271.30	1818.60
271.51	1724.39
271.73	1718.25
271.95	1687.53
272.16	1693.67
272.38	1658.85
272.59	1697.77
272.81	1693.67
273.02	1675.24
273.24	1638.38
273.46	1773.54
273.67	1642.47
273.89	1646.57
274.10	1660.90
274.32	1751.01
274.54	1669.09
274.75	1697.77
274.97	1667.05
275.18	1771.49
275.40	1779.68
275.61	1687.53
275.83	1677.29
276.05	1693.67
276.26	1703.91
276.48	1802.21
276.69	1767.40
276.91	1675.24
277.12	1751.01
277.34	1796.07
277.55	1757.16
277.77	1746.92
277.99	1660.90
278.20	1673.19
278.42	1642.47
278.63	1630.18
278.85	1613.80
279.06	1638.38
279.28	1767.40
279.49	1818.60
279.71	1679.33
279.93	1712.10
280.14	1677.29
280.36	1601.51
280.57	1773.54
280.79	1697.77
281.00	1589.22
281.22	1724.39
281.43	1740.77
281.65	1566.70
281.86	1665.00
282.08	1693.67
282.29	1769.44
282.51	1646.57
282.73	1634.28
282.94	1669.09
283.16	1728.49
283.37	1746.92
283.59	1708.01
283.80	1720.29
284.02	1697.77
284.23	1748.97
284.45	1656.81
284.66	1656.81
284.88	1650.66
285.09	1751.01
285.31	1812.45
285.52	1716.20
285.74	1552.36
285.95	1767.40
286.17	1665.00
286.38	1761.25
286.60	1712.10
286.81	1767.40
287.03	1708.01
287.24	1781.73
287.46	1720.29
287.67	1781.73
287.89	1808.36
288.10	1679.33
288.32	1746.92
288.53	1705.96
288.75	1714.15
288.96	1683.43
289.18	1640.42
289.39	1726.44
289.61	1732.58
289.82	1865.70
290.04	1804.26
290.25	1619.94
290.47	1763.30
290.68	1683.43
290.90	1787.88
291.11	1667.05
291.33	1730.53
291.54	1644.52
291.76	1724.39
291.97	1732.58
292.18	1671.14
292.40	1695.72
292.61	1677.29
292.83	1800.16
293.04	1773.54
293.26	1744.87
293.47	1675.24
293.69	1566.70
293.90	1658.85
294.12	1730.53
294.33	1665.00
294.55	1712.10
294.76	1787.88
294.97	1789.92
295.19	1755.11
295.40	1665.00
295.62	1806.31
295.83	1701.86
296.05	1638.38
296.26	1716.20
296.48	1648.61
296.69	1693.67
296.90	1667.05
297.12	1800.16
297.33	1732.58
297.55	1703.91
297.76	1734.63
297.98	1722.34
298.19	1669.09
298.41	1720.29
298.62	1624.04
298.83	1798.12
299.05	1691.62
299.26	1677.29
299.48	1660.90
299.69	1726.44
299.90	1683.43
300.12	1671.14
300.33	1787.88
300.55	1742.82
300.76	1781.73
300.98	1601.51
301.19	1753.06
301.40	1675.24
301.62	1660.90
301.83	1783.78
302.05	1751.01
302.26	1683.43
302.47	1726.44
302.69	1665.00
302.90	1642.47
303.12	1570.79
303.33	1744.87
303.54	1812.45
303.76	1665.00
303.97	1771.49
304.19	1822.69
304.40	1714.15
304.61	1765.35
304.83	1798.12
305.04	1753.06
305.26	1685.48
305.47	1746.92
305.68	1730.53
305.90	1626.09
306.11	1728.49
306.33	1744.87
306.54	1644.52
306.75	1650.66
306.97	1619.94
307.18	1677.29
307.39	1583.08
307.61	1775.59
307.82	1748.97
308.04	1767.40
308.25	1652.71
308.46	1773.54
308.68	1748.97
308.89	1681.38
309.10	1771.49
309.32	1783.78
309.53	1705.96
309.74	1746.92
309.96	1732.58
310.17	1771.49
310.39	1703.91
310.60	1755.11
310.81	1691.62
311.03	1697.77
311.24	1722.34
311.45	1675.24
311.67	1812.45
311.88	1796.07
312.09	1624.04
312.31	1642.47
312.52	1767.40
312.73	1685.48
312.95	1640.42
313.16	1599.46
313.37	1763.30
313.59	1738.73
313.80	1755.11
314.01	1837.03
314.23	1685.48
314.44	1785.83
314.65	1615.85
314.87	1726.44
315.08	1628.14
315.29	1689.57
315.51	1720.29
315.72	1744.87
315.93	1806.31
316.15	1791.97
316.36	1613.80
316.57	1732.58
316.79	1691.62
317.00	1675.24
317.21	1771.49
317.43	1691.62
317.64	1718.25
317.85	1648.61
318.07	1734.63
318.28	1736.68
318.49	1945.57
318.70	2002.91
318.92	1920.99
319.13	1834.98
319.34	1873.89
319.56	1882.08
319.77	1820.64
319.98	1812.45
320.20	1822.69
320.41	1783.78
320.62	1779.68
320.83	1669.09
321.05	1859.56
321.26	1722.34
321.47	1703.91
321.69	1800.16
321.90	1630.18
322.11	1699.81
322.32	1785.83
322.54	1806.31
322.75	1693.67
322.96	1800.16
323.18	1722.34
323.39	1615.85
323.60	1648.61
323.81	1722.34
324.03	1683.43
324.24	1683.43
324.45	1716.20
324.66	1767.40
324.88	1781.73
325.09	1757.16
325.30	1732.58
325.52	1718.25
325.73	1687.53
325.94	1650.66
326.15	1585.13
326.37	1718.25
326.58	1759.21
326.79	1800.16
327.00	1650.66
327.22	1605.61
327.43	1734.63
327.64	1662.95
327.85	1699.81
328.07	1695.72
328.28	1865.70
328.49	1693.67
328.70	1736.68
328.92	1724.39
329.13	1658.85
329.34	1665.00
329.55	1820.64
329.76	1798.12
329.98	1716.20
330.19	1742.82
330.40	1783.78
330.61	1763.30
330.83	1720.29
331.04	1681.38
331.25	1703.91
331.46	1667.05
331.68	1617.90
331.89	1810.40
332.10	1716.20
332.31	1650.66
332.52	1712.10
332.74	1812.45
332.95	1617.90
333.16	1695.72
333.37	1662.95
333.58	1667.05
333.80	1761.25
334.01	1607.66
334.22	1703.91
334.43	1697.77
334.64	1638.38
334.86	1644.52
335.07	1607.66
335.28	1820.64
335.49	1681.38
335.70	1763.30
335.92	1742.82
336.13	1824.74
336.34	1744.87
336.55	1695.72
336.76	1710.05
336.98	1677.29
337.19	1734.63
337.40	1746.92
337.61	1804.26
337.82	1689.57
338.04	1761.25
338.25	1665.00
338.46	1701.86
338.67	1695.72
338.88	1710.05
339.09	1619.94
339.31	1716.20
339.52	1685.48
339.73	1677.29
339.94	1693.67
340.15	1779.68
340.36	1740.77
340.58	1714.15
340.79	1648.61
341.00	1712.10
341.21	1619.94
341.42	1859.56
341.63	1734.63
341.85	1728.49
342.06	1679.33
342.27	1599.46
342.48	1748.97
342.69	1701.86
342.90	1722.34
343.12	1775.59
343.33	1751.01
343.54	1730.53
343.75	1681.38
343.96	1689.57
344.17	1701.86
344.38	1726.44
344.60	1679.33
344.81	1669.09
345.02	1681.38
345.23	1804.26
345.44	1828.84
345.65	1794.02
345.86	1755.11
346.07	1726.44
346.29	1701.86
346.50	1703.91
346.71	1744.87
346.92	1789.92
347.13	1796.07
347.34	1660.90
347.55	1755.11
347.76	1759.21
347.98	1624.04
348.19	1691.62
348.40	1716.20
348.61	1689.57
348.82	1701.86
349.03	1636.33
349.24	1650.66
349.45	1814.50
349.66	1572.84
349.88	1812.45
350.09	1671.14
350.30	1757.16
350.51	1794.02
350.72	1777.64
350.93	1669.09
351.14	1708.01
351.35	1689.57
351.56	1687.53
351.77	1714.15
351.99	1742.82
352.20	1841.12
352.41	1734.63
352.62	1593.32
352.83	1689.57
353.04	1681.38
353.25	1650.66
353.46	1736.68
353.67	1712.10
353.88	1591.27
354.09	1738.73
354.30	1753.06
354.52	1751.01
354.73	1732.58
354.94	1716.20
355.15	1720.29
355.36	1826.79
355.57	1624.04
355.78	1681.38
355.99	1755.11
356.20	1720.29
356.41	1742.82
356.62	1730.53
356.83	1722.34
357.04	1853.41
357.25	1665.00
357.46	1648.61
357.68	1703.91
357.89	1685.48
358.10	1658.85
358.31	1597.42
358.52	1632.23
358.73	1632.23
358.94	1619.94
359.15	1656.81
359.36	1806.31
359.57	1720.29
359.78	1669.09
359.99	1683.43
360.20	1652.71
360.41	1708.01
360.62	1765.35
360.83	1787.88
361.04	1691.62
361.25	1705.96
361.46	1777.64
361.67	1753.06
361.88	1804.26
362.09	1771.49
362.30	1740.77
362.51	1673.19
362.72	1624.04
362.93	1800.16
363.14	1742.82
363.35	1638.38
363.56	1640.42
363.78	1791.97
363.99	1783.78
364.20	1640.42
364.41	1683.43
364.62	1869.80
364.83	1703.91
365.04	1708.01
365.25	1685.48
365.46	1865.70
365.67	1701.86
365.88	1667.05
366.09	1591.27
366.30	1748.97
366.51	1697.77
366.72	1628.14
366.93	1697.77
367.14	1742.82
367.35	1783.78
367.56	1726.44
367.77	1789.92
367.98	1732.58
368.18	1703.91
368.39	1724.39
368.60	1685.48
368.81	1734.63
369.02	1812.45
369.23	1751.01
369.44	1746.92
369.65	1695.72
369.86	1751.01
370.07	1746.92
370.28	1607.66
370.49	1810.40
370.70	1791.97
370.91	1613.80
371.12	1626.09
371.33	1828.84
371.54	1679.33
371.75	1785.83
371.96	1626.09
372.17	1777.64
372.38	1751.01
372.59	1679.33
372.80	1662.95
373.01	1650.66
373.22	1673.19
373.43	1746.92
373.64	1617.90
373.85	1759.21
374.06	1826.79
374.26	1804.26
374.47	1757.16
374.68	1834.98
374.89	1755.11
375.10	1665.00
375.31	1748.97
375.52	1656.81
375.73	1697.77
375.94	1667.05
376.15	1814.50
376.36	1744.87
376.57	1748.97
376.78	1652.71
376.99	1732.58
377.20	1816.55
377.40	1699.81
377.61	1781.73
377.82	1667.05
378.03	1787.88
378.24	1775.59
378.45	1775.59
378.66	1746.92
378.87	1626.09
379.08	1693.67
379.29	1646.57
379.50	1761.25
379.71	1681.38
379.91	1755.11
380.12	1689.57
380.33	1716.20
380.54	1691.62
380.75	1710.05
380.96	1730.53
381.17	1738.73
381.38	1759.21
381.59	1687.53
381.80	1667.05
382.00	1882.08
382.21	1744.87
382.42	1902.56
382.63	1933.28
382.84	1781.73
383.05	1806.31
383.26	1837.03
383.47	1736.68
383.68	1728.49
383.88	1816.55
384.09	1705.96
384.30	1824.74
384.51	1648.61
384.72	1699.81
384.93	1681.38
385.14	1728.49
385.35	1783.78
385.55	1687.53
385.76	1800.16
385.97	1712.10
386.18	1689.57
386.39	1697.77
386.60	1677.29
386.81	1703.91
387.02	1566.70
387.22	1726.44
387.43	1783.78
387.64	1777.64
387.85	1902.56
388.06	2215.90
388.27	4759.48
388.48	9127.80
388.68	11632.46
388.89	13473.59
389.10	13942.57
389.31	11921.23
389.52	9693.04
389.73	8533.89
389.93	7833.48
390.14	7206.80
390.35	6616.99
390.56	6018.98
390.77	5056.43
390.98	3821.51
391.18	3092.43
391.39	2394.08
391.60	1945.57
391.81	1763.30
392.02	1746.92
392.23	1898.47
392.43	1730.53
392.64	1804.26
392.85	1742.82
393.06	1812.45
393.27	1765.35
393.47	1720.29
393.68	1708.01
393.89	1681.38
394.10	1779.68
394.31	1738.73
394.52	1726.44
394.72	1605.61
394.93	1800.16
395.14	1685.48
395.35	1728.49
395.56	1724.39
395.76	1769.44
395.97	1699.81
396.18	1912.80
396.39	1906.66
396.60	2058.21
396.80	1912.80
397.01	1951.71
397.22	1824.74
397.43	1863.65
397.64	1742.82
397.84	1787.88
398.05	1935.33
398.26	1716.20
398.47	1837.03
398.67	1853.41
398.88	1687.53
399.09	1746.92
399.30	1722.34
399.51	1716.20
399.71	1644.52
399.92	1710.05
400.13	1728.49
400.34	1642.47
400.54	1736.68
400.75	1837.03
400.96	1734.63
401.17	1802.21
401.37	1748.97
401.58	1697.77
401.79	1722.34
402.00	1896.42
402.21	2068.45
402.41	2025.44
402.62	2080.74
402.83	2203.61
403.04	2131.94
403.24	2117.60
403.45	1966.05
403.66	1931.23
403.87	1935.33
404.07	1900.52
404.28	1982.43
404.49	1894.37
404.70	1763.30
404.90	1806.31
405.11	1787.88
405.32	1820.64
405.52	1673.19
405.73	1714.15
405.94	1624.04
406.15	1787.88
406.35	1742.82
406.56	1732.58
406.77	1779.68
406.98	1726.44
407.18	1650.66
407.39	1769.44
407.60	1746.92
407.80	1761.25
408.01	1671.14
408.22	1759.21
408.43	1718.25
408.63	1726.44
408.84	1738.73
409.05	1761.25
409.25	1656.81
409.46	1636.33
409.67	1677.29
409.88	1677.29
410.08	1675.24
410.29	1656.81
410.50	1689.57
410.70	1781.73
410.91	1722.34
411.12	1771.49
411.32	1689.57
411.53	1744.87
411.74	1787.88
411.95	1800.16
412.15	1787.88
412.36	1755.11
412.57	1773.54
412.77	1808.36
412.98	1791.97
413.19	1755.11
413.39	1779.68
413.60	1755.11
413.81	1787.88
414.01	1685.48
414.22	1765.35
414.43	1730.53
414.63	1734.63
414.84	1871.84
415.05	1761.25
415.25	1662.95
415.46	1730.53
415.67	1708.01
415.87	1738.73
416.08	1714.15
416.29	1730.53
416.49	1705.96
416.70	1699.81
416.91	1699.81
417.11	1691.62
417.32	1746.92
417.53	1810.40
417.73	1773.54
417.94	1714.15
418.15	1767.40
418.35	1767.40
418.56	1730.53
418.77	1826.79
418.97	1640.42
419.18	1615.85
419.38	1607.66
419.59	1710.05
419.80	1804.26
420.00	1716.20
420.21	1673.19
420.42	1791.97
420.62	1753.06
420.83	1662.95
421.04	1726.44
421.24	1644.52
421.45	1732.58
421.65	1683.43
421.86	1726.44
422.07	1826.79
422.27	1738.73
422.48	1759.21
422.69	1609.70
422.89	1697.77
423.10	1720.29
423.30	1630.18
423.51	1722.34
423.72	1710.05
423.92	1775.59
424.13	1693.67
424.33	1691.62
424.54	1734.63
424.75	1662.95
424.95	1865.70
425.16	1787.88
425.36	1665.00
425.57	1773.54
425.78	1689.57
425.98	1785.83
426.19	1665.00
426.39	1685.48
426.60	1730.53
426.81	1826.79
427.01	1732.58
427.22	1683.43
427.42	1566.70
427.63	1683.43
427.83	1787.88
428.04	1826.79
428.25	1796.07
428.45	1796.07
428.66	1751.01
428.86	1697.77
429.07	1615.85
429.28	1777.64
429.48	1595.37
429.69	1675.24
429.89	1748.97
430.10	1619.94
430.30	1748.97
430.51	1789.92
430.71	1665.00
430.92	1662.95
431.13	1669.09
431.33	1757.16
431.54	1748.97
431.74	1826.79
431.95	1777.64
432.15	1695.72
432.36	1755.11
432.56	1738.73
432.77	1783.78
432.98	1794.02
433.18	1701.86
433.39	1656.81
433.59	1763.30
433.80	1830.88
434.00	1898.47
434.21	1685.48
434.41	1644.52
434.62	1906.66
434.82	1660.90
435.03	1652.71
435.23	1744.87
435.44	1656.81
435.64	1734.63
435.85	1699.81
436.06	1748.97
436.26	1818.60
436.47	1662.95
436.67	1646.57
436.88	1628.14
437.08	1714.15
437.29	1920.99
437.49	1740.77
437.70	1689.57
437.90	1775.59
438.11	1816.55
438.31	1791.97
438.52	1908.71
438.72	1906.66
438.93	1968.10
439.13	1779.68
439.34	1890.28
439.54	1828.84
439.75	1900.52
439.95	1816.55
440.16	1744.87
440.36	1859.56
440.57	1746.92
440.77	1800.16
440.98	1677.29
441.18	1761.25
441.39	1662.95
441.59	1791.97
441.80	1880.04
442.00	1775.59
442.21	1814.50
442.41	1611.75
442.62	1724.39
442.82	1605.61
443.02	1753.06
443.23	1728.49
443.43	1779.68
443.64	1853.41
443.84	1730.53
444.05	1847.27
444.25	1736.68
444.46	1761.25
444.66	1695.72
444.87	1828.84
445.07	1615.85
445.28	1656.81
445.48	1841.12
445.69	1736.68
445.89	1818.60
446.09	1722.34
446.30	1980.39
446.50	2574.30
446.71	4143.04
446.91	5054.39
447.12	5787.56
447.32	6021.03
447.53	5414.83
447.73	4485.05
447.93	4016.07
448.14	3577.80
448.34	3405.77
448.55	3164.11
448.75	3094.48
448.96	2987.99
449.16	2693.08
449.36	2478.04
449.57	2209.76
449.77	1986.53
449.98	1832.93
450.18	1875.94
450.39	1783.78
450.59	1804.26
450.79	1742.82
451.00	1658.85
451.20	1810.40
451.41	1724.39
451.61	1814.50
451.81	1726.44
452.02	1656.81
452.22	1683.43
452.43	1687.53
452.63	1699.81
452.84	1769.44
453.04	1748.97
453.24	1742.82
453.45	1697.77
453.65	1689.57
453.86	1783.78
454.06	1808.36
454.26	1714.15
454.47	1656.81
454.67	1783.78
454.87	1726.44
455.08	1769.44
455.28	1855.46
455.49	1759.21
455.69	1591.27
455.89	1935.33
456.10	1888.23
456.30	1738.73
456.51	1865.70
456.71	1730.53
456.91	1746.92
457.12	1730.53
457.32	1769.44
457.52	1642.47
457.73	1724.39
457.93	1830.88
458.14	1644.52
458.34	1632.23
458.54	1777.64
458.75	1730.53
458.95	1718.25
459.15	1753.06
459.36	1697.77
459.56	1783.78
459.76	1748.97
459.97	1716.20
460.17	1703.91
460.37	1765.35
460.58	1781.73
460.78	1822.69
460.99	1708.01
461.19	1787.88
461.39	1726.44
461.60	1656.81
461.80	1714.15
462.00	1665.00
462.21	1728.49
462.41	1685.48
462.61	1722.34
462.82	1654.76
463.02	1728.49
463.22	1751.01
463.43	1791.97
463.63	1720.29
463.83	1757.16
464.04	1673.19
464.24	1724.39
464.44	1738.73
464.64	1667.05
464.85	1751.01
465.05	1791.97
465.25	1648.61
465.46	1736.68
465.66	1699.81
465.86	1730.53
466.07	1746.92
466.27	1681.38
466.47	1669.09
466.68	1742.82
466.88	1757.16
467.08	1738.73
467.29	1767.40
467.49	1730.53
467.69	1677.29
467.89	1789.92
468.10	1658.85
468.30	1746.92
468.50	1779.68
468.71	1802.21
468.91	1736.68
469.11	1753.06
469.31	1722.34
469.52	1669.09
469.72	1828.84
469.92	1841.12
470.13	1660.90
470.33	1722.34
470.53	1910.75
470.73	2187.23
470.94	2607.06
471.14	2664.41
471.34	2877.40
471.54	2850.77
471.75	2465.75
471.95	2332.64
472.15	2267.10
472.36	2275.29
472.56	2211.81
472.76	2133.98
472.96	2068.45
473.17	2021.35
473.37	1972.19
473.57	1810.40
473.77	1808.36
473.98	1775.59
474.18	1712.10
474.38	1841.12
474.58	1658.85
474.79	1677.29
474.99	1767.40
475.19	1714.15
475.39	1679.33
475.60	1740.77
475.80	1744.87
476.00	1771.49
476.20	1673.19
476.41	1779.68
476.61	1775.59
476.81	1796.07
477.01	1648.61
477.21	1847.27
477.42	1806.31
477.62	1712.10
477.82	1820.64
478.02	1714.15
478.23	1699.81
478.43	1755.11
478.63	1671.14
478.83	1812.45
479.03	1710.05
479.24	1818.60
479.44	1851.36
479.64	1632.23
479.84	1568.74
480.04	1746.92
480.25	1708.01
480.45	1695.72
480.65	1714.15
480.85	1748.97
481.06	1638.38
481.26	1779.68
481.46	1789.92
481.66	1761.25
481.86	1624.04
482.06	1875.94
482.27	1722.34
482.47	1757.16
482.67	1691.62
482.87	1736.68
483.07	1771.49
483.28	1634.28
483.48	1658.85
483.68	1806.31
483.88	1613.80
484.08	1626.09
484.29	1701.86
484.49	1755.11
484.69	1675.24
484.89	1742.82
485.09	1781.73
485.29	1781.73
485.50	1800.16
485.70	1736.68
485.90	1769.44
486.10	1724.39
486.30	1828.84
486.50	1837.03
486.71	1814.50
486.91	1787.88
487.11	1787.88
487.31	1640.42
487.51	1695.72
487.71	1652.71
487.91	1626.09
488.12	1699.81
488.32	1574.89
488.52	1736.68
488.72	1626.09
488.92	1748.97
489.12	1763.30
489.32	1787.88
489.53	1796.07
489.73	1665.00
489.93	1810.40
490.13	1724.39
490.33	1640.42
490.53	1728.49
490.73	1816.55
490.94	1669.09
491.14	1718.25
491.34	1820.64
491.54	2168.80
491.74	2684.89
491.94	3272.65
492.14	3461.07
492.34	3454.92
492.54	3194.83
492.75	2820.05
492.95	2586.58
493.15	2510.81
493.35	2402.27
493.55	2260.96
493.75	2150.37
493.95	2248.67
494.15	2160.61
494.35	1910.75
494.56	1976.29
494.76	1802.21
494.96	1796.07
495.16	1751.01
495.36	1759.21
495.56	1742.82
495.76	1687.53
495.96	1787.88
496.16	1730.53
496.36	1832.93
496.56	1724.39
496.77	1710.05
496.97	1730.53
497.17	1705.96
497.37	1658.85
497.57	1755.11
497.77	1703.91
497.97	1669.09
498.17	1679.33
498.37	1732.58
498.57	1718.25
498.77	1679.33
498.97	1757.16
499.17	1796.07
499.38	1736.68
499.58	1828.84
499.78	1724.39
499.98	1781.73
500.18	1669.09
500.38	1658.85
500.58	1873.89
500.78	2416.60
500.98	4579.26
501.18	6655.90
501.38	8124.29
501.58	8968.06
501.78	8640.38
501.98	6887.32
502.18	5787.56
502.38	5027.76
502.58	4476.86
502.78	4163.52
502.98	4069.31
503.18	3846.09
503.38	3538.89
503.59	3211.22
503.79	2910.16
503.99	2592.73
504.19	2398.17
504.39	2379.74
504.59	2398.17
504.79	2283.49
504.99	2230.24
505.19	2062.30
505.39	1931.23
505.59	2076.64
505.79	1976.29
505.99	1920.99
506.19	1906.66
506.39	1912.80
506.59	1855.46
506.79	1748.97
506.99	1857.51
507.19	1814.50
507.39	1722.34
507.59	1646.57
507.79	1742.82
507.99	1632.23
508.19	1826.79
508.39	1757.16
508.59	1693.67
508.79	1808.36
508.99	1771.49
509.19	1742.82
509.39	1753.06
509.59	1656.81
509.79	1759.21
509.99	1791.97
510.19	1794.02
510.39	1781.73
510.59	1726.44
510.79	1714.15
510.99	1779.68
511.19	1798.12
511.39	1861.60
511.59	1814.50
511.79	1759.21
511.99	1724.39
512.19	1820.64
512.38	1724.39
512.58	1738.73
512.78	1660.90
512.98	1714.15
513.18	1822.69
513.38	1691.62
513.58	1785.83
513.78	1722.34
513.98	1734.63
514.18	1595.37
514.38	1675.24
514.58	1726.44
514.78	1667.05
514.98	1693.67
515.18	1673.19
515.38	1615.85
515.58	1867.75
515.78	1695.72
515.98	1740.77
516.18	1705.96
516.38	1769.44
516.57	1748.97
516.77	1710.05
516.97	1665.00
517.17	1695.72
517.37	1607.66
517.57	1761.25
517.77	1726.44
517.97	1683.43
518.17	1789.92
518.37	1613.80
518.57	1757.16
518.77	1734.63
518.97	1714.15
519.16	1796.07
519.36	1761.25
519.56	1755.11
519.76	1800.16
519.96	1730.53
520.16	1857.51
520.36	1714.15
520.56	1785.83
520.76	1669.09
520.96	1720.29
521.16	1804.26
521.35	1837.03
521.55	1814.50
521.75	1710.05
521.95	1710.05
522.15	1751.01
522.35	1771.49
522.55	1767.40
522.75	1755.11
522.95	1791.97
523.14	1683.43
523.34	1763.30
523.54	1644.52
523.74	1783.78
523.94	1773.54
524.14	1695.72
524.34	1773.54
524.54	1785.83
524.73	1796.07
524.93	1720.29
525.13	1722.34
525.33	1632.23
525.53	1845.22
525.73	1767.40
525.93	1818.60
526.13	1753.06
526.32	1697.77
526.52	1839.08
526.72	1781.73
526.92	1722.34
527.12	1732.58
527.32	1683.43
527.52	1720.29
527.71	1773.54
527.91	1681.38
528.11	1730.53
528.31	1732.58
528.51	1648.61
528.71	1732.58
528.90	1712.10
529.10	1732.58
529.30	1837.03
529.50	1648.61
529.70	1728.49
529.90	1642.47
530.09	1722.34
530.29	1726.44
530.49	1671.14
530.69	1796.07
530.89	1671.14
531.09	1810.40
531.28	1697.77
531.48	1773.54
531.68	1742.82
531.88	1705.96
532.08	1802.21
532.28	1658.85
532.47	1798.12
532.67	1771.49
532.87	1742.82
533.07	1646.57
533.27	1814.50
533.46	1789.92
533.66	1763.30
533.86	1744.87
534.06	1806.31
534.26	1818.60
534.45	1759.21
534.65	1847.27
534.85	1761.25
535.05	1761.25
535.25	1783.78
535.44	1683.43
535.64	1759.21
535.84	1773.54
536.04	1683.43
536.24	1718.25
536.43	1771.49
536.63	1744.87
536.83	1658.85
537.03	1667.05
537.22	1652.71
537.42	1712.10
537.62	1722.34
537.82	1738.73
538.02	1802.21
538.21	1839.08
538.41	1877.99
538.61	1789.92
538.81	1720.29
539.00	1824.74
539.20	1675.24
539.40	1726.44
539.60	1753.06
539.79	1802.21
539.99	1740.77
540.19	1677.29
540.39	1697.77
540.58	1785.83
540.78	1781.73
540.98	1669.09
541.18	1808.36
541.37	1775.59
541.57	1687.53
541.77	1699.81
541.97	1628.14
542.16	1699.81
542.36	1753.06
542.56	1796.07
542.76	1761.25
542.95	1761.25
543.15	1753.06
543.35	1753.06
543.54	1748.97
543.74	1722.34
543.94	1759.21
544.14	1722.34
544.33	1820.64
544.53	1757.16
544.73	1716.20
544.93	1720.29
545.12	1697.77
545.32	1740.77
545.52	1746.92
545.71	1775.59
545.91	1740.77
546.11	1740.77
546.30	1675.24
546.50	1787.88
546.70	1763.30
546.90	1744.87
547.09	1673.19
547.29	1746.92
547.49	1779.68
547.68	1685.48
547.88	1685.48
548.08	1751.01
548.27	2144.22
548.47	1679.33
548.67	1748.97
548.87	1748.97
549.06	1728.49
549.26	1806.31
549.46	1746.92
549.65	1667.05
549.85	1820.64
550.05	1812.45
550.24	1712.10
550.44	1761.25
550.64	1759.21
550.83	1812.45
551.03	1738.73
551.23	1783.78
551.42	1820.64
551.62	1705.96
551.82	1816.55
552.01	1728.49
552.21	1847.27
552.41	1714.15
552.60	1705.96
552.80	1673.19
553.00	1632.23
553.19	1767.40
553.39	1802.21
553.59	1691.62
553.78	1759.21
553.98	1763.30
554.17	1701.86
554.37	1738.73
554.57	1746.92
554.76	1705.96
554.96	1703.91
555.16	1755.11
555.35	1742.82
555.55	1712.10
555.75	1660.90
555.94	1759.21
556.14	1671.14
556.33	1724.39
556.53	1681.38
556.73	1710.05
556.92	1767.40
557.12	1865.70
557.32	1861.60
557.51	1787.88
557.71	1722.34
557.90	1755.11
558.10	1814.50
558.30	1746.92
558.49	1683.43
558.69	1708.01
558.88	1810.40
559.08	1812.45
559.28	1759.21
559.47	1738.73
559.67	1773.54
559.86	1851.36
560.06	1722.34
560.26	1773.54
560.45	1802.21
560.65	1691.62
560.84	1857.51
561.04	1751.01
561.24	1742.82
561.43	1679.33
561.63	1927.14
561.82	1802.21
562.02	1769.44
562.22	1742.82
562.41	1675.24
562.61	1755.11
562.80	1675.24
563.00	1873.89
563.19	1822.69
563.39	1763.30
563.59	1779.68
563.78	1724.39
563.98	1603.56
564.17	1714.15
564.37	1660.90
564.56	1785.83
564.76	1621.99
564.96	1843.17
565.15	1757.16
565.35	1916.90
565.54	1751.01
565.74	1804.26
565.93	1857.51
566.13	1722.34
566.32	1744.87
566.52	1728.49
566.71	1691.62
566.91	1765.35
567.11	1755.11
567.30	1677.29
567.50	1773.54
567.69	1757.16
567.89	1728.49
568.08	1652.71
568.28	1775.59
568.47	1710.05
568.67	1708.01
568.86	1742.82
569.06	1830.88
569.25	1767.40
569.45	1626.09
569.64	1675.24
569.84	1759.21
570.04	1748.97
570.23	1650.66
570.43	1705.96
570.62	1705.96
570.82	1822.69
571.01	1714.15
571.21	1705.96
571.40	1724.39
571.60	1787.88
571.79	1839.08
571.99	1779.68
572.18	1701.86
572.38	1740.77
572.57	1751.01
572.77	1810.40
572.96	1865.70
573.16	1779.68
573.35	1712.10
573.55	1890.28
573.74	1755.11
573.94	1785.83
574.13	1689.57
574.33	1832.93
574.52	1904.61
574.71	1710.05
574.91	1777.64
575.10	1763.30
575.30	1761.25
575.49	1667.05
575.69	1652.71
575.88	1767.40
576.08	1824.74
576.27	1902.56
576.47	1882.08
576.66	1847.27
576.86	1849.32
577.05	1759.21
577.25	1771.49
577.44	1898.47
577.64	1708.01
577.83	1837.03
578.02	1759.21
578.22	1832.93
578.41	1826.79
578.61	1691.62
578.80	1701.86
579.00	1787.88
579.19	1718.25
579.39	1769.44
579.58	1804.26
579.77	1757.16
579.97	1787.88
580.16	1923.04
580.36	1798.12
580.55	1863.65
580.75	1783.78
580.94	1832.93
581.13	1880.04
581.33	1824.74
581.52	1724.39
581.72	1861.60
581.91	1908.71
582.11	1789.92
582.30	1822.69
582.49	1796.07
582.69	1918.95
582.88	1830.88
583.08	1800.16
583.27	1832.93
583.47	1781.73
583.66	1714.15
583.85	1722.34
584.05	1777.64
584.24	1755.11
584.44	1877.99
584.63	1871.84
584.82	1920.99
585.02	1851.36
585.21	1941.47
585.41	1953.76
585.60	1931.23
585.79	1984.48
585.99	1982.43
586.18	1978.34
586.37	2271.20
586.57	3483.59
586.76	9768.81
586.96	27031.14
587.15	41610.63
587.34	51719.40
587.54	57922.70
587.73	55698.61
587.93	40000.93
588.12	29834.81
588.31	23543.45
588.51	20635.33
588.70	18460.39
588.89	16883.45
589.09	15202.07
589.28	13680.43
589.47	11501.39
589.67	9434.99
589.86	7317.39
590.06	5568.43
590.25	4310.97
590.44	3074.00
590.64	2639.83
590.83	2310.11
591.02	2097.12
591.22	1914.85
591.41	1984.48
591.60	1902.56
591.80	1994.72
591.99	1759.21
592.18	1839.08
592.38	1869.80
592.57	1755.11
592.76	1759.21
592.96	1822.69
593.15	1791.97
593.34	1845.22
593.54	1765.35
593.73	1755.11
593.92	1890.28
594.12	1845.22
594.31	1787.88
594.50	1851.36
594.70	1857.51
594.89	1910.75
595.08	1769.44
595.28	1861.60
595.47	1947.62
595.66	1880.04
595.86	1808.36
596.05	1746.92
596.24	1734.63
596.43	1808.36
596.63	1933.28
596.82	1748.97
597.01	1880.04
597.21	1877.99
597.40	1781.73
597.59	1753.06
597.79	1734.63
597.98	1787.88
598.17	1763.30
598.36	1779.68
598.56	1714.15
598.75	1712.10
598.94	1710.05
599.14	1837.03
599.33	1787.88
599.52	1837.03
599.71	1759.21
599.91	1847.27
600.10	1804.26
600.29	1753.06
600.48	1773.54
600.68	1888.23
600.87	1785.83
601.06	1787.88
601.26	1755.11
601.45	1771.49
601.64	1689.57
601.83	1802.21
602.03	1687.53
602.22	1626.09
602.41	1777.64
602.60	1804.26
602.80	1896.42
602.99	1806.31
603.18	1615.85
603.37	1779.68
603.57	1744.87
603.76	1798.12
603.95	1843.17
604.14	1773.54
604.34	1677.29
604.53	1728.49
604.72	1742.82
604.91	1773.54
605.10	1765.35
605.30	1736.68
605.49	1849.32
605.68	1755.11
605.87	1751.01
606.07	1710.05
606.26	1759.21
606.45	1781.73
606.64	1746.92
606.84	1669.09
607.03	1746.92
607.22	1798.12
607.41	1748.97
607.60	1824.74
607.80	1841.12
607.99	1761.25
608.18	1783.78
608.37	1789.92
608.56	1763.30
608.76	1763.30
608.95	1886.18
609.14	1796.07
609.33	1884.13
609.52	1832.93
609.72	1912.80
609.91	1886.18
610.10	1837.03
610.29	1949.67
610.48	1791.97
610.68	1820.64
610.87	1751.01
611.06	1847.27
611.25	1640.42
611.44	1847.27
611.63	1673.19
611.83	1791.97
612.02	1705.96
612.21	1804.26
612.40	1593.32
612.59	1605.61
612.79	1685.48
612.98	1777.64
613.17	1771.49
613.36	1775.59
613.55	1865.70
613.74	1814.50
613.93	1904.61
614.13	1990.63
614.32	1847.27
614.51	1947.62
614.70	1832.93
614.89	1843.17
615.08	1855.46
615.28	2181.09
615.47	1777.64
615.66	1798.12
615.85	1800.16
616.04	1882.08
616.23	1757.16
616.42	1830.88
616.62	1822.69
616.81	1828.84
617.00	1808.36
617.19	1804.26
617.38	1710.05
617.57	1812.45
617.76	1777.64
617.95	1791.97
618.15	1820.64
618.34	1877.99
618.53	1628.14
618.72	1763.30
618.91	1808.36
619.10	1791.97
619.29	1751.01
619.48	1662.95
619.68	1703.91
619.87	1720.29
620.06	1691.62
620.25	1796.07
620.44	1673.19
620.63	1757.16
620.82	1730.53
621.01	1771.49
621.20	1724.39
621.39	1849.32
621.59	1736.68
621.78	1785.83
621.97	1796.07
622.16	1777.64
622.35	1724.39
622.54	1732.58
622.73	1802.21
622.92	1581.03
623.11	1767.40
623.30	1763.30
623.49	1791.97
623.68	1640.42
623.88	1808.36
624.07	1769.44
624.26	1675.24
624.45	1802.21
624.64	1689.57
624.83	1751.01
625.02	1703.91
625.21	1755.11
625.40	1781.73
625.59	1783.78
625.78	1736.68
625.97	1828.84
626.16	1816.55
626.35	1845.22
626.54	1832.93
626.74	1931.23
626.93	1769.44
627.12	1679.33
627.31	1828.84
627.50	1720.29
627.69	1806.31
627.88	1681.38
628.07	1748.97
628.26	1736.68
628.45	1683.43
628.64	1703.91
628.83	1746.92
629.02	1730.53
629.21	1789.92
629.40	1736.68
629.59	1718.25
629.78	1773.54
629.97	1761.25
630.16	1716.20
630.35	1753.06
630.54	1804.26
630.73	1644.52
630.92	1714.15
631.11	1701.86
631.30	1736.68
631.49	1769.44
631.68	1683.43
631.87	1677.29
632.06	1638.38
632.25	1867.75
632.44	1751.01
632.63	1753.06
632.82	1765.35
633.01	1826.79
633.20	1751.01
633.39	1779.68
633.58	1775.59
633.77	1896.42
633.96	1751.01
634.15	1748.97
634.34	1816.55
634.53	1806.31
634.72	1722.34
634.91	1644.52
635.10	1769.44
635.29	1755.11
635.48	1763.30
635.67	1705.96
635.86	1628.14
636.05	1785.83
636.24	1730.53
636.43	1738.73
636.62	1734.63
636.81	1472.49
637.00	1732.58
637.19	1748.97
637.38	1703.91
637.57	1693.67
637.76	1757.16
637.95	1855.46
638.14	1806.31
638.33	1853.41
638.52	1791.97
638.71	1720.29
638.89	1626.09
639.08	1863.65
639.27	1851.36
639.46	1869.80
639.65	2205.66
639.84	2285.53
640.03	2430.94
640.22	2267.10
640.41	2439.13
640.60	2125.79
640.79	2060.26
640.98	1869.80
641.17	2000.87
641.36	1912.80
641.55	1834.98
641.74	1798.12
641.92	1814.50
642.11	1800.16
642.30	1847.27
642.49	1716.20
642.68	1667.05
642.87	1701.86
643.06	1744.87
643.25	1724.39
643.44	1740.77
643.63	1701.86
643.82	1679.33
644.00	1656.81
644.19	1734.63
644.38	1636.33
644.57	1773.54
644.76	1753.06
644.95	1767.40
645.14	1767.40
645.33	1759.21
645.52	1656.81
645.71	1685.48
645.89	1697.77
646.08	1687.53
646.27	1734.63
646.46	1847.27
646.65	1648.61
646.84	1705.96
647.03	1640.42
647.22	1785.83
647.40	1742.82
647.59	1683.43
647.78	1591.27
647.97	1693.67
648.16	1642.47
648.35	1789.92
648.54	1771.49
648.73	1771.49
648.91	1714.15
649.10	1769.44
649.29	1699.81
649.48	1759.21
649.67	1787.88
649.86	1767.40
650.05	1654.76
650.23	1871.84
650.42	1869.80
650.61	1929.19
650.80	1912.80
650.99	1939.43
651.18	1912.80
651.36	1837.03
651.55	1804.26
651.74	1839.08
651.93	1685.48
652.12	1712.10
652.31	1753.06
652.49	1730.53
652.68	1710.05
652.87	1847.27
653.06	1789.92
653.25	1873.89
653.44	1738.73
653.62	1837.03
653.81	1763.30
654.00	1691.62
654.19	1759.21
654.38	1847.27
654.56	1710.05
654.75	1714.15
654.94	1832.93
655.13	1755.11
655.32	1744.87
655.51	1722.34
655.69	1634.28
655.88	1796.07
656.07	1640.42
656.26	1705.96
656.45	1683.43
656.63	1726.44
656.82	1681.38
657.01	1822.69
657.20	1730.53
657.38	1806.31
657.57	1705.96
657.76	1638.38
657.95	1763.30
658.14	1736.68
658.32	1665.00
658.51	1662.95
658.70	1781.73
658.89	1716.20
659.08	1755.11
659.26	1783.78
659.45	1699.81
659.64	1869.80
659.83	1738.73
660.01	1957.86
660.20	1722.34
660.39	1806.31
660.58	1615.85
660.76	1767.40
660.95	1660.90
661.14	1744.87
661.33	1605.61
661.51	1705.96
661.70	1669.09
661.89	1755.11
662.08	1738.73
662.26	1632.23
662.45	1728.49
662.64	1892.32
662.83	1773.54
663.01	1708.01
663.20	1757.16
663.39	1837.03
663.58	1634.28
663.76	1755.11
663.95	1775.59
664.14	1640.42
664.32	1693.67
664.51	1671.14
664.70	1634.28
664.89	1759.21
665.07	1665.00
665.26	1869.80
665.45	1693.67
665.64	1787.88
665.82	1687.53
666.01	1763.30
666.20	1675.24
666.38	1830.88
666.57	1779.68
666.76	2222.05
666.95	4581.31
667.13	11362.13
667.32	18480.87
667.51	22126.25
667.69	24841.86
667.88	25368.19
668.07	19723.99
668.25	14313.25
668.44	11855.69
668.63	9734.00
668.81	8728.44
669.00	7755.66
669.19	6797.21
669.38	6164.39
669.56	5361.58
669.75	4655.03
669.94	3827.65
670.12	3139.54
670.31	2723.80
670.50	2369.50
670.68	2060.26
670.87	1941.47
671.06	1884.13
671.24	1818.60
671.43	1931.23
671.62	1779.68
671.80	1789.92
671.99	1787.88
672.18	1826.79
672.36	1804.26
672.55	1845.22
672.74	1791.97
672.92	1699.81
673.11	1771.49
673.29	1644.52
673.48	1839.08
673.67	1689.57
673.85	1787.88
674.04	1570.79
674.23	1734.63
674.41	1888.23
674.60	1703.91
674.79	1669.09
674.97	1611.75
675.16	1681.38
675.34	1791.97
675.53	1685.48
675.72	1675.24
675.90	1816.55
676.09	1697.77
676.28	1734.63
676.46	1636.33
676.65	1734.63
676.83	1648.61
677.02	1763.30
677.21	1726.44
677.39	1755.11
677.58	1740.77
677.77	1703.91
677.95	1681.38
678.14	1781.73
678.32	1699.81
678.51	1679.33
678.70	1791.97
678.88	1669.09
679.07	1703.91
679.25	1738.73
679.44	1693.67
679.63	1714.15
679.81	1712.10
680.00	1781.73
680.18	1710.05
680.37	1708.01
680.55	1705.96
680.74	1701.86
680.93	1642.47
681.11	1789.92
681.30	1759.21
681.48	1730.53
681.67	1726.44
681.85	1722.34
682.04	1648.61
682.23	1667.05
682.41	1718.25
682.60	1701.86
682.78	1683.43
682.97	1605.61
683.15	1718.25
683.34	1679.33
683.53	1814.50
683.71	1611.75
683.90	1746.92
684.08	1738.73
684.27	1693.67
684.45	1779.68
684.64	1763.30
684.82	1656.81
685.01	1722.34
685.19	1687.53
685.38	1773.54
685.57	1697.77
685.75	1640.42
685.94	1716.20
686.12	1691.62
686.31	1591.27
686.49	1796.07
686.68	1564.65
686.86	1697.77
687.05	1671.14
687.23	1732.58
687.42	1691.62
687.60	1679.33
687.79	1820.64
687.97	1832.93
688.16	1769.44
688.34	1775.59
688.53	1662.95
688.71	1746.92
688.90	1814.50
689.08	1736.68
689.27	1667.05
689.45	1759.21
689.64	1777.64
689.82	1738.73
690.01	1656.81
690.19	1746.92
690.38	1669.09
690.56	1873.89
690.75	1695.72
690.93	1744.87
691.12	1681.38
691.30	1777.64
691.49	1798.12
691.67	1724.39
691.86	1865.70
692.04	1708.01
692.23	1740.77
692.41	1771.49
692.60	1908.71
692.78	1812.45
692.97	1761.25
693.15	1798.12
693.34	1859.56
693.52	1918.95
693.71	1769.44
693.89	1751.01
694.08	1738.73
694.26	1742.82
694.44	1724.39
694.63	1755.11
694.81	1708.01
695.00	1720.29
695.18	1798.12
695.37	1771.49
695.55	1753.06
695.74	1718.25
695.92	1648.61
696.10	1763.30
696.29	1636.33
696.47	1685.48
696.66	1681.38
696.84	1689.57
697.03	1673.19
697.21	1785.83
697.40	2365.40
697.58	1753.06
697.76	1675.24
697.95	1677.29
698.13	1675.24
698.32	1689.57
698.50	1724.39
698.68	1710.05
698.87	1748.97
699.05	1849.32
699.24	1785.83
699.42	1642.47
699.61	1748.97
699.79	1763.30
699.97	1710.05
700.16	1730.53
700.34	1734.63
700.53	1693.67
700.71	1771.49
700.89	1783.78
701.08	1673.19
701.26	1761.25
701.45	2199.52
701.63	1738.73
701.81	1716.20
702.00	1638.38
702.18	1748.97
702.37	1765.35
702.55	1918.95
702.73	1886.18
702.92	1810.40
703.10	1951.71
703.28	2004.96
703.47	1822.69
703.65	1914.85
703.84	1814.50
704.02	1800.16
704.20	1896.42
704.39	1767.40
704.57	1738.73
704.75	1853.41
704.94	1779.68
705.12	1755.11
705.30	1894.37
705.49	2412.51
705.67	5554.09
705.86	13160.25
706.04	19216.09
706.22	22740.64
706.41	25079.43
706.59	24163.98
706.77	19162.84
706.96	13788.97
707.14	11843.40
707.32	10010.47
707.51	8925.05
707.69	7882.63
707.87	6637.47
708.06	5474.22
708.24	4425.66
708.42	3258.32
708.61	2826.20
708.79	2217.95
708.97	2066.40
709.16	1943.52
709.34	1884.13
709.52	1724.39
709.71	1779.68
709.89	1720.29
710.07	1665.00
710.26	1765.35
710.44	1771.49
710.62	1777.64
710.80	1746.92
710.99	1783.78
711.17	1775.59
711.35	1654.76
711.54	1648.61
711.72	1794.02
711.90	1734.63
712.09	1755.11
712.27	1619.94
712.45	1748.97
712.63	1708.01
712.82	1714.15
713.00	1757.16
713.18	1791.97
713.37	1787.88
713.55	1763.30
713.73	1759.21
713.91	1722.34
714.10	1703.91
714.28	1693.67
714.46	1744.87
714.65	1765.35
714.83	1722.34
715.01	1757.16
715.19	1708.01
715.38	1669.09
715.56	1755.11
715.74	1697.77
715.92	1601.51
716.11	1726.44
716.29	1619.94
716.47	1728.49
716.65	1796.07
716.84	1683.43
717.02	1839.08
717.20	1591.27
717.38	1683.43
717.57	1748.97
717.75	1720.29
717.93	1628.14
718.11	1738.73
718.30	1708.01
718.48	1775.59
718.66	1640.42
718.84	1814.50
719.03	1677.29
719.21	1654.76
719.39	1781.73
719.57	1736.68
719.75	1785.83
719.94	1669.09
720.12	1669.09
720.30	1708.01
720.48	1771.49
720.67	1732.58
720.85	1685.48
721.03	1689.57
721.21	1652.71
721.39	1757.16
721.58	1759.21
721.76	1695.72
721.94	1689.57
722.12	1746.92
722.30	1820.64
722.49	1699.81
722.67	1738.73
722.85	1742.82
723.03	1581.03
723.21	1693.67
723.40	1763.30
723.58	1785.83
723.76	1769.44
723.94	1796.07
724.12	1775.59
724.30	1822.69
724.49	1826.79
724.67	1701.86
724.85	1916.90
725.03	1656.81
725.21	1773.54
725.40	1820.64
725.58	1662.95
725.76	1861.60
725.94	1763.30
726.12	1644.52
726.30	1759.21
726.49	1740.77
726.67	1669.09
726.85	1703.91
727.03	1808.36
727.21	2248.67
727.39	3446.73
727.57	4827.06
727.76	5656.49
727.94	6059.94
728.12	6227.87
728.30	5636.01
728.48	4532.15
728.66	3952.58
728.84	3610.57
729.03	3319.76
729.21	2854.87
729.39	2449.37
729.57	2066.40
729.75	2004.96
729.93	1884.13
730.11	1804.26
730.30	1761.25
730.48	1724.39
730.66	1853.41
730.84	1748.97
731.02	1730.53
731.20	1722.34
731.38	1691.62
731.56	1656.81
731.74	1656.81
731.93	1755.11
732.11	1724.39
732.29	1705.96
732.47	1765.35
732.65	1654.76
732.83	1841.12
733.01	1703.91
733.19	1714.15
733.37	1679.33
733.56	1728.49
733.74	1732.58
733.92	1781.73
734.10	1718.25
734.28	1781.73
734.46	1685.48
734.64	1697.77
734.82	1724.39
735.00	1673.19
735.18	1732.58
735.36	1716.20
735.54	1763.30
735.73	1708.01
735.91	1765.35
736.09	1757.16
736.27	1722.34
736.45	1742.82
736.63	1568.74
736.81	1710.05
736.99	1652.71
737.17	1763.30
737.35	1697.77
737.53	1716.20
737.71	1654.76
737.89	1767.40
738.07	1660.90
738.25	1673.19
738.43	1492.97
738.61	1652.71
738.80	1675.24
738.98	1699.81
739.16	1695.72
739.34	1685.48
739.52	1822.69
739.70	1771.49
739.88	1742.82
740.06	1849.32
740.24	1615.85
740.42	1798.12
740.60	1628.14
740.78	1675.24
740.96	1613.80
741.14	1615.85
741.32	1779.68
741.50	1636.33
741.68	1830.88
741.86	1771.49
742.04	1628.14
742.22	1642.47
742.40	1730.53
742.58	1712.10
742.76	1726.44
742.94	1746.92
743.12	1564.65
743.30	1753.06
743.48	1763.30
743.66	1669.09
743.84	1740.77
744.02	1591.27
744.20	1687.53
744.38	1611.75
744.56	1728.49
744.74	1841.12
744.92	1718.25
745.10	1769.44
745.28	1769.44
745.46	1798.12
745.64	1712.10
745.82	1773.54
746.00	1748.97
746.18	1767.40
746.36	1630.18
746.54	1824.74
746.72	1693.67
746.90	1669.09
747.08	1710.05
747.26	1671.14
747.44	1765.35
747.62	1779.68
747.80	1755.11
747.98	1773.54
748.15	1810.40
748.33	1759.21
748.51	1730.53
748.69	1728.49
748.87	1708.01
749.05	1724.39
749.23	1640.42
749.41	1720.29
749.59	1656.81
749.77	1734.63
749.95	1679.33
750.13	1615.85
750.31	1730.53
750.49	1773.54
750.67	1761.25
750.85	1828.84
751.03	1662.95
751.20	1851.36
751.38	1695.72
751.56	1701.86
751.74	1658.85
751.92	1703.91
752.10	1648.61
752.28	1785.83
752.46	1732.58
752.64	1699.81
752.82	1724.39
753.00	1832.93
753.18	1660.90
753.35	1775.59
753.53	1742.82
753.71	1748.97
753.89	1714.15
754.07	1695.72
754.25	1808.36
754.43	1742.82
754.61	1669.09
754.79	1712.10
754.97	1673.19
755.14	1791.97
755.32	1626.09
755.50	1726.44
755.68	1751.01
755.86	1583.08
756.04	1660.90
756.22	1581.03
756.40	1738.73
756.57	1834.98
756.75	1699.81
756.93	1757.16
757.11	1769.44
757.29	1697.77
757.47	1683.43
757.65	1517.54
757.82	1599.46
758.00	1673.19
758.18	1609.70
758.36	1728.49
758.54	1783.78
758.72	1693.67
758.90	1806.31
759.07	1687.53
759.25	1605.61
759.43	1712.10
759.61	1705.96
759.79	2121.70
759.97	1771.49
760.15	1710.05
760.32	1656.81
760.50	1710.05
760.68	1830.88
760.86	1660.90
761.04	1755.11
761.22	1703.91
761.39	1724.39
761.57	1746.92
761.75	1736.68
761.93	1763.30
762.11	1730.53
762.28	1689.57
762.46	1724.39
762.64	1816.55
762.82	1552.36
763.00	1720.29
763.18	1746.92
763.35	1617.90
763.53	1703.91
763.71	1703.91
763.89	1759.21
764.07	1656.81
764.24	1689.57
764.42	1828.84
764.60	1609.70
764.78	1767.40
764.96	1820.64
765.13	1710.05
765.31	1732.58
765.49	1796.07
765.67	1662.95
765.84	1687.53
766.02	1671.14
766.20	1624.04
766.38	1763.30
766.56	1759.21
766.73	1767.40
766.91	1705.96
767.09	1730.53
767.27	1728.49
767.44	1718.25
767.62	1646.57
767.80	1677.29
767.98	1697.77
768.15	1716.20
768.33	1685.48
768.51	1789.92
768.69	1699.81
768.87	1746.92
769.04	1701.86
769.22	1814.50
769.40	1806.31
769.58	1816.55
769.75	1677.29
769.93	1755.11
770.11	1642.47
770.28	1697.77
770.46	1697.77
770.64	1775.59
770.82	1701.86
770.99	1679.33
771.17	1675.24
771.35	1753.06
771.53	1652.71
771.70	1722.34
771.88	1728.49
772.06	1724.39
772.23	1742.82
772.41	1757.16
772.59	1646.57
772.77	1642.47
772.94	1665.00
773.12	1703.91
773.30	1572.84
773.47	1746.92
773.65	1669.09
773.83	1785.83
774.01	1648.61
774.18	1660.90
774.36	1726.44
774.54	1646.57
774.71	1746.92
774.89	1626.09
775.07	1642.47
775.24	1701.86
775.42	1677.29
775.60	1796.07
775.78	1699.81
775.95	1648.61
776.13	1630.18
776.31	1601.51
776.48	1724.39
776.66	1773.54
776.84	1640.42
777.01	1705.96
777.19	1740.77
777.37	1687.53
777.54	1726.44
777.72	1779.68
777.90	1701.86
778.07	1755.11
778.25	1859.56
778.43	1779.68
778.60	1646.57
778.78	1751.01
778.96	1781.73
779.13	1695.72
779.31	1787.88
779.49	1726.44
779.66	1740.77
779.84	1705.96
780.01	1644.52
780.19	1632.23
780.37	1726.44
780.54	1773.54
780.72	1734.63
780.90	1724.39
781.07	1689.57
781.25	1734.63
781.43	1732.58
781.60	1722.34
781.78	1691.62
781.95	1675.24
782.13	1671.14
782.31	1746.92
782.48	1624.04
782.66	1685.48
782.83	1771.49
783.01	1771.49
783.19	1705.96
783.36	1656.81
783.54	1673.19
783.72	1783.78
783.89	1724.39
784.07	1751.01
784.24	1679.33
784.42	1771.49
784.60	1701.86
784.77	1777.64
784.95	1669.09
785.12	1701.86
785.30	1636.33
785.47	1652.71
785.65	1724.39
785.83	1701.86
786.00	1683.43
786.18	1632.23
786.35	1695.72
786.53	1681.38
786.71	1732.58
786.88	1691.62
787.06	1751.01
787.23	1695.72
787.41	1626.09
787.58	1689.57
787.76	1710.05
787.94	1789.92
788.11	1736.68
788.29	1613.80
788.46	1669.09
788.64	1634.28
788.81	1685.48
788.99	1658.85
789.16	1619.94
789.34	1679.33
789.52	1667.05
789.69	1757.16
789.87	1646.57
790.04	1771.49
790.22	1736.68
790.39	1828.84
790.57	1732.58
790.74	1589.22
790.92	1748.97
791.09	1658.85
791.27	1673.19
791.44	1730.53
791.62	1683.43
791.79	1660.90
791.97	1716.20
792.15	1914.85
792.32	1701.86
792.50	1699.81
792.67	1789.92
792.85	1753.06
793.02	1732.58
793.20	1667.05
793.37	1656.81
793.55	1773.54
793.72	1554.41
793.90	1751.01
794.07	1671.14
794.25	1671.14
794.42	1665.00
794.60	1683.43
794.77	1746.92
794.95	1738.73
795.12	1701.86
795.30	1685.48
795.47	1648.61
795.65	1818.60
795.82	1703.91
796.00	1646.57
796.17	1658.85
796.34	1640.42
796.52	1705.96
796.69	1746.92
796.87	1761.25
797.04	1730.53
797.22	1753.06
797.39	1818.60
797.57	1734.63
797.74	1701.86
797.92	1730.53
798.09	1683.43
798.27	1722.34
798.44	1734.63
798.62	1605.61
798.79	1736.68
798.96	1742.82
799.14	1714.15
799.31	1773.54
799.49	1730.53
799.66	1695.72
799.84	1744.87
800.01	1669.09
800.19	1714.15
800.36	1593.32
800.53	1736.68
800.71	1755.11
800.88	1708.01
801.06	1615.85
801.23	1566.70
801.41	1654.76
801.58	1603.56
801.75	1658.85
801.93	1746.92
802.10	1771.49
802.28	1724.39
802.45	1685.48
802.63	1755.11
802.80	1841.12
802.97	1624.04
803.15	1757.16
803.32	1689.57
803.50	1652.71
803.67	1609.70
803.84	1654.76
804.02	1640.42
804.19	1665.00
804.37	1648.61
804.54	1576.94
804.71	1648.61
804.89	1685.48
805.06	1648.61
805.24	1705.96
805.41	1640.42
805.58	1679.33
805.76	1789.92
805.93	1742.82
806.10	1710.05
806.28	1718.25
806.45	1751.01
806.63	1761.25
806.80	1789.92
806.97	1681.38
807.15	1716.20
807.32	1667.05
807.49	1718.25
807.67	1654.76
807.84	1718.25
808.01	1609.70
808.19	1820.64
808.36	1806.31
808.54	1732.58
808.71	1638.38
808.88	1677.29
809.06	1769.44
809.23	1800.16
809.40	1644.52
809.58	1812.45
809.75	1740.77
809.92	1695.72
810.10	1826.79
810.27	1656.81
810.44	1767.40
810.62	1785.83
810.79	1728.49
810.96	1679.33
811.14	1671.14
811.31	1703.91
811.48	1806.31
811.66	1650.66
811.83	1812.45
812.00	1697.77
812.18	1685.48
812.35	1884.13
812.52	1687.53
812.69	1697.77
812.87	1714.15
813.04	1648.61
813.21	1705.96
813.39	1677.29
813.56	1587.18
813.73	1783.78
813.91	1607.66
814.08	1652.71
814.25	1683.43
814.42	1667.05
814.60	1710.05
814.77	1681.38
814.94	1722.34
815.12	1685.48
815.29	1796.07
815.46	1671.14
815.63	1634.28
815.81	1677.29
815.98	1660.90
816.15	1759.21
816.33	1681.38
816.50	1671.14
816.67	1701.86
816.84	1636.33
817.02	1648.61
817.19	1728.49
817.36	1751.01
817.53	1736.68
817.71	1732.58
817.88	1718.25
818.05	1632.23
818.22	1724.39
818.40	1839.08
818.57	1689.57
818.74	1751.01
818.91	1609.70
819.09	1652.71
819.26	1789.92
819.43	1677.29
819.60	1652.71
819.78	1730.53
819.95	1775.59
820.12	1595.37
820.29	1755.11
820.47	1767.40
820.64	1636.33
820.81	1648.61
820.98	1671.14
821.15	1644.52
821.33	1753.06
821.50	1607.66
821.67	1701.86
821.84	1703.91
822.02	1820.64
822.19	1808.36
822.36	1675.24
822.53	1683.43
822.70	1591.27
822.88	1703.91
823.05	1722.34
823.22	1742.82
823.39	1701.86
823.56	1685.48
823.74	1802.21
823.91	1642.47
824.08	1646.57
824.25	1689.57
824.42	1808.36
824.60	1642.47
824.77	1708.01
824.94	1716.20
825.11	1714.15
825.28	1619.94
825.45	1732.58
825.63	1675.24
825.80	1658.85
825.97	1734.63
826.14	1693.67
826.31	1609.70
826.48	1798.12
826.66	1687.53
826.83	1728.49
827.00	1685.48
827.17	1734.63
827.34	1701.86
827.51	1744.87
827.69	1693.67
827.86	1634.28
828.03	1685.48
828.20	1748.97
828.37	1675.24
828.54	1742.82
828.71	1673.19
828.89	1779.68
829.06	1732.58
829.23	1812.45
829.40	1697.77
829.57	1714.15
829.74	1644.52
829.91	1689.57
830.09	1665.00
830.26	1701.86
830.43	1861.60
830.60	1683.43
830.77	1722.34
830.94	1830.88
831.11	1755.11
831.28	1691.62
831.46	1757.16
831.63	1710.05
831.80	1769.44
831.97	1611.75
832.14	1632.23
832.31	1779.68
832.48	1771.49
832.65	1734.63
832.82	1708.01
832.99	1746.92
833.17	1619.94
833.34	1832.93
833.51	1658.85
833.68	1601.51
833.85	1783.78
834.02	1675.24
834.19	1689.57
834.36	1691.62
834.53	1679.33
834.70	1794.02
834.87	1775.59
835.04	1726.44
835.22	1630.18
835.39	1650.66
835.56	1693.67
835.73	1703.91
835.90	1761.25
836.07	1751.01
836.24	1718.25
836.41	1699.81
836.58	1613.80
836.75	1746.92
836.92	1652.71
837.09	1642.47
837.26	1779.68
837.43	1732.58
837.60	1714.15
837.77	1710.05
837.94	1748.97
838.12	1765.35
838.29	1697.77
838.46	1644.52
838.63	1689.57
838.80	1771.49
838.97	1777.64
839.14	1708.01
839.31	1710.05
839.48	1822.69
839.65	1665.00
839.82	1738.73
839.99	1740.77
840.16	1753.06
840.33	1660.90
840.50	1724.39
840.67	1589.22
840.84	1554.41
841.01	1687.53
841.18	1693.67
841.35	1654.76
841.52	1796.07
841.69	1847.27
841.86	1736.68
842.03	1658.85
842.20	1718.25
842.37	1697.77
842.54	1687.53
842.71	1656.81
842.88	1642.47
843.05	1746.92
843.22	1687.53
843.39	1746.92
843.56	1691.62
843.73	1705.96
843.90	1773.54
844.07	1779.68
844.24	1800.16
844.41	1751.01
844.58	1746.92
844.75	1726.44
844.92	1742.82
845.09	1701.86
845.26	1673.19
845.43	1724.39
845.60	1626.09
845.77	1773.54
845.94	1665.00
846.10	1722.34
846.27	1560.55
846.44	1589.22
846.61	1642.47
846.78	1763.30
846.95	1783.78
847.12	1628.14
847.29	1671.14
847.46	1652.71
847.63	1767.40
847.80	1560.55
847.97	1708.01
848.14	1841.12
848.31	1646.57
848.48	1609.70
848.65	1644.52
848.82	1656.81
848.98	1849.32
849.15	1796.07
849.32	1794.02
849.49	1761.25
849.66	1675.24
849.83	1648.61
850.00	1656.81
850.17	1800.16
850.34	1687.53
850.51	1693.67
850.68	1644.52
850.85	1755.11
851.01	1734.63
851.18	1791.97
851.35	1714.15
851.52	1767.40
851.69	1820.64
851.86	1583.08
852.03	1658.85
852.20	1697.77
852.37	1669.09
852.53	1607.66
852.70	1691.62
852.87	1730.53
853.04	1738.73
853.21	1740.77
853.38	1732.58
853.55	1798.12
853.72	1812.45
853.89	1650.66
854.05	1632.23
854.22	1691.62
854.39	1675.24
854.56	1757.16
854.73	1820.64
854.90	1652.71
855.07	1724.39
855.23	1662.95
855.40	1683.43
855.57	1626.09
855.74	1595.37
855.91	1765.35
856.08	1593.32
856.25	1658.85
856.41	1658.85
856.58	1607.66
856.75	1779.68
856.92	1581.03
857.09	1746.92
857.26	1591.27
857.42	1699.81
857.59	1771.49
857.76	1675.24
857.93	1718.25
858.10	1787.88
858.27	1755.11
858.43	1726.44
858.60	1703.91
858.77	1550.31
858.94	1640.42
859.11	1734.63
859.27	1685.48
859.44	1742.82
859.61	1859.56
859.78	1714.15
859.95	1665.00
860.12	1689.57
860.28	1837.03
860.45	1839.08
860.62	1693.67
860.79	1742.82
860.95	1783.78
861.12	1716.20
861.29	1734.63
861.46	1613.80
861.63	1652.71
861.79	1771.49
861.96	1683.43
862.13	1691.62
862.30	1761.25
862.47	1685.48
862.63	1744.87
862.80	1712.10
862.97	1710.05
863.14	1779.68
863.30	1687.53
863.47	1673.19
863.64	1816.55
863.81	1691.62
863.97	1703.91
864.14	1726.44
864.31	1646.57
864.48	1748.97
864.65	1732.58
864.81	1753.06
864.98	1728.49
865.15	1755.11
865.32	1697.77
865.48	1796.07
865.65	1763.30
865.82	1705.96
865.98	1693.67
866.15	1757.16
866.32	1669.09
866.49	1689.57
866.65	1755.11
866.82	1710.05
866.99	1738.73
867.16	1677.29
867.32	1705.96
867.49	1732.58
867.66	1701.86
867.83	1753.06
867.99	1640.42
868.16	1648.61
868.33	1658.85
868.49	1720.29
868.66	1615.85
868.83	1742.82
868.99	1710.05
869.16	1710.05
869.33	1726.44
869.50	1744.87
869.66	1753.06
869.83	1757.16
870.00	1615.85
870.16	1796.07
870.33	1605.61
870.50	1769.44
870.66	1691.62
870.83	1814.50
871.00	1773.54
871.17	1722.34
871.33	1697.77
871.50	1732.58
871.67	1720.29
871.83	1667.05
872.00	1802.21
872.17	1644.52
872.33	1814.50
872.50	1734.63
872.67	1662.95
872.83	1722.34
873.00	1734.63
873.17	1648.61
873.33	1730.53
873.50	1796.07
873.67	1718.25
873.83	1665.00
874.00	1726.44
874.16	1701.86
874.33	1689.57
874.50	1699.81
874.66	1730.53
874.83	1689.57
875.00	1746.92
875.16	1802.21
875.33	1785.83
875.50	1558.50
875.66	1683.43
875.83	1738.73
875.99	1800.16
876.16	1705.96
876.33	1677.29
876.49	1632.23
876.66	1683.43
876.83	1753.06
876.99	1605.61
877.16	1667.05
877.32	1669.09
877.49	1691.62
877.66	1710.05
877.82	1777.64
877.99	1736.68
878.15	1734.63
878.32	1714.15
878.49	1742.82
878.65	1677.29
878.82	1755.11
878.98	1585.13
879.15	1834.98
879.32	1740.77
879.48	1648.61
879.65	1673.19
879.81	1708.01
879.98	1730.53
880.15	1681.38
880.31	1763.30
880.48	1665.00
880.64	1755.11
880.81	1732.58
880.97	1824.74
881.14	1781.73
881.31	1636.33
881.47	1843.17
881.64	1740.77
881.80	1662.95
881.97	1705.96
882.13	1761.25
882.30	1597.42
882.47	1638.38
882.63	1691.62
882.80	1650.66
882.96	1714.15
883.13	1789.92
883.29	1679.33
883.46	1763.30
883.62	1841.12
883.79	1662.95
883.95	1740.77
884.12	1722.34
884.29	1812.45
884.45	1681.38
884.62	1710.05
884.78	1646.57
884.95	1763.30
885.11	1632.23
885.28	1652.71
885.44	1656.81
885.61	1736.68
885.77	1802.21
885.94	1726.44
886.10	1712.10
886.27	1705.96
886.43	1720.29
886.60	1755.11
886.76	1648.61
886.93	1648.61
887.09	1646.57
887.26	1673.19
887.42	1705.96
887.59	1769.44
887.75	1841.12
887.92	1763.30
888.08	1738.73
888.25	1800.16
888.41	1716.20
888.58	1718.25
888.74	1658.85
888.91	1646.57
>>>>>End Processed Spectral Data<<<<<
