SpectraSuite Data File
++++++++++++++++++++++++++++++++++++
Date: Wed May 04 18:44:29 CEST 2016
User: root
Dark Spectrum Present: No
Reference Spectrum Present: No
Number of Sampled Component Spectra: 1
Spectrometers: USB4C02835
Integration Time (usec): 100000 (USB4C02835)
Spectra Averaged: 1 (USB4C02835)
Boxcar Smoothing: 0 (USB4C02835)
Correct for Electrical Dark: No (USB4C02835)
Strobe/Lamp Enabled: No (USB4C02835)
Correct for Detector Non-linearity: No (USB4C02835)
Correct for Stray Light: No (USB4C02835)
Number of Pixels in Processed Spectrum: 3648
>>>>>Begin Processed Spectral Data<<<<<
177.47	1527.78
177.69	1527.78
177.91	1527.78
178.13	1484.78
178.36	1480.68
178.58	1708.01
178.80	1681.38
179.02	1607.66
179.24	1634.28
179.46	1687.53
179.68	1773.54
179.90	1712.10
180.13	1675.24
180.35	1650.66
180.57	1732.58
180.79	1769.44
181.01	1730.53
181.23	1654.76
181.45	1781.73
181.67	1671.14
181.90	1740.77
182.12	1638.38
182.34	1619.94
182.56	1775.59
182.78	1708.01
183.00	1665.00
183.22	1738.73
183.44	1695.72
183.66	1837.03
183.89	1771.49
184.11	1648.61
184.33	1791.97
184.55	1765.35
184.77	1773.54
184.99	1732.58
185.21	1554.41
185.43	1849.32
185.65	1628.14
185.87	1613.80
186.10	1824.74
186.32	1789.92
186.54	1720.29
186.76	1746.92
186.98	1779.68
187.20	1746.92
187.42	1658.85
187.64	1724.39
187.86	1714.15
188.08	1751.01
188.30	1697.77
188.52	1621.99
188.75	1777.64
188.97	1773.54
189.19	1634.28
189.41	1658.85
189.63	1701.86
189.85	1681.38
190.07	1656.81
190.29	1572.84
190.51	1742.82
190.73	1665.00
190.95	1763.30
191.17	1681.38
191.39	1691.62
191.61	1714.15
191.84	1683.43
192.06	1683.43
192.28	1642.47
192.50	1867.75
192.72	1812.45
192.94	1695.72
193.16	1695.72
193.38	1675.24
193.60	1697.77
193.82	1689.57
194.04	1753.06
194.26	1683.43
194.48	1738.73
194.70	1714.15
194.92	1691.62
195.14	1691.62
195.36	1654.76
195.58	1701.86
195.80	1619.94
196.02	1624.04
196.24	1654.76
196.46	1697.77
196.69	1669.09
196.91	1841.12
197.13	1603.56
197.35	1540.07
197.57	1759.21
197.79	1746.92
198.01	1693.67
198.23	1818.60
198.45	1755.11
198.67	1654.76
198.89	1665.00
199.11	1794.02
199.33	1665.00
199.55	1560.55
199.77	1738.73
199.99	1763.30
200.21	1679.33
200.43	1669.09
200.65	1673.19
200.87	1488.87
201.09	1701.86
201.31	1656.81
201.53	1710.05
201.75	1722.34
201.97	1710.05
202.19	1697.77
202.41	1654.76
202.63	1757.16
202.85	1697.77
203.07	1699.81
203.29	1685.48
203.51	1691.62
203.73	1628.14
203.95	1894.37
204.17	1763.30
204.39	1730.53
204.61	1742.82
204.83	1650.66
205.05	1740.77
205.27	1689.57
205.49	1853.41
205.71	1691.62
205.93	1671.14
206.15	1697.77
206.37	1699.81
206.59	1654.76
206.81	1628.14
207.03	1710.05
207.25	1650.66
207.47	1755.11
207.69	1691.62
207.91	1771.49
208.13	1767.40
208.34	1691.62
208.56	1644.52
208.78	1789.92
209.00	1687.53
209.22	1652.71
209.44	1697.77
209.66	1724.39
209.88	1648.61
210.10	1763.30
210.32	1705.96
210.54	1867.75
210.76	1654.76
210.98	1699.81
211.20	1562.60
211.42	1697.77
211.64	1710.05
211.86	1857.51
212.08	1703.91
212.30	1712.10
212.52	1714.15
212.74	1660.90
212.96	1703.91
213.17	1730.53
213.39	1728.49
213.61	1789.92
213.83	1806.31
214.05	1730.53
214.27	1736.68
214.49	1607.66
214.71	1667.05
214.93	1789.92
215.15	1683.43
215.37	1761.25
215.59	1695.72
215.81	1738.73
216.03	1796.07
216.24	1783.78
216.46	1554.41
216.68	1685.48
216.90	1785.83
217.12	1742.82
217.34	1665.00
217.56	1757.16
217.78	1765.35
218.00	1708.01
218.22	1681.38
218.44	1716.20
218.66	1667.05
218.87	1744.87
219.09	1689.57
219.31	1693.67
219.53	1773.54
219.75	1740.77
219.97	1669.09
220.19	1740.77
220.41	1740.77
220.63	1714.15
220.85	1660.90
221.06	1718.25
221.28	1769.44
221.50	1716.20
221.72	1695.72
221.94	1740.77
222.16	1718.25
222.38	1808.36
222.60	1730.53
222.82	1638.38
223.03	1791.97
223.25	1638.38
223.47	1798.12
223.69	1841.12
223.91	1755.11
224.13	1738.73
224.35	1646.57
224.57	1808.36
224.78	1689.57
225.00	1703.91
225.22	1736.68
225.44	1718.25
225.66	1814.50
225.88	1650.66
226.10	1765.35
226.32	1699.81
226.53	1863.65
226.75	1642.47
226.97	1671.14
227.19	1708.01
227.41	1632.23
227.63	1691.62
227.85	1644.52
228.06	1708.01
228.28	1742.82
228.50	1740.77
228.72	1714.15
228.94	1591.27
229.16	1636.33
229.37	1615.85
229.59	1673.19
229.81	1820.64
230.03	1701.86
230.25	1695.72
230.47	1734.63
230.69	1621.99
230.90	1740.77
231.12	1656.81
231.34	1726.44
231.56	1738.73
231.78	1615.85
232.00	1716.20
232.21	1777.64
232.43	1720.29
232.65	1566.70
232.87	1638.38
233.09	1656.81
233.30	1695.72
233.52	1748.97
233.74	1771.49
233.96	1708.01
234.18	1736.68
234.40	1669.09
234.61	1939.43
234.83	1679.33
235.05	1644.52
235.27	1882.08
235.49	1814.50
235.70	1724.39
235.92	1791.97
236.14	1746.92
236.36	1826.79
236.58	1675.24
236.79	1783.78
237.01	1683.43
237.23	1712.10
237.45	1667.05
237.67	1656.81
237.88	1740.77
238.10	1830.88
238.32	1685.48
238.54	1740.77
238.76	1718.25
238.97	1667.05
239.19	1703.91
239.41	1736.68
239.63	1808.36
239.85	1660.90
240.06	1634.28
240.28	1744.87
240.50	1771.49
240.72	1619.94
240.93	1712.10
241.15	1771.49
241.37	1685.48
241.59	1814.50
241.81	1697.77
242.02	1722.34
242.24	1712.10
242.46	1767.40
242.68	1636.33
242.89	1732.58
243.11	1822.69
243.33	1693.67
243.55	1640.42
243.76	1720.29
243.98	1673.19
244.20	1669.09
244.42	1703.91
244.64	1742.82
244.85	1669.09
245.07	1656.81
245.29	1697.77
245.51	1730.53
245.72	1732.58
245.94	1812.45
246.16	1740.77
246.38	1726.44
246.59	1681.38
246.81	1701.86
247.03	1705.96
247.24	1613.80
247.46	1621.99
247.68	1630.18
247.90	1691.62
248.11	1624.04
248.33	1734.63
248.55	1708.01
248.77	1722.34
248.98	1697.77
249.20	1775.59
249.42	1718.25
249.64	1753.06
249.85	1679.33
250.07	1671.14
250.29	1718.25
250.50	1738.73
250.72	1636.33
250.94	1677.29
251.16	1886.18
251.37	1738.73
251.59	1710.05
251.81	1791.97
252.02	1759.21
252.24	1687.53
252.46	1806.31
252.68	1738.73
252.89	1626.09
253.11	1660.90
253.33	1816.55
253.54	1726.44
253.76	1617.90
253.98	1675.24
254.20	1771.49
254.41	1615.85
254.63	1689.57
254.85	1640.42
255.06	1689.57
255.28	1763.30
255.50	1720.29
255.71	1646.57
255.93	1585.13
256.15	1599.46
256.36	1791.97
256.58	1621.99
256.80	1681.38
257.02	1646.57
257.23	1714.15
257.45	1703.91
257.67	1775.59
257.88	1683.43
258.10	1757.16
258.32	1640.42
258.53	1736.68
258.75	1771.49
258.97	1683.43
259.18	1705.96
259.40	1685.48
259.62	1865.70
259.83	1705.96
260.05	1773.54
260.27	2031.58
260.48	1779.68
260.70	1716.20
260.92	1660.90
261.13	1710.05
261.35	1728.49
261.57	1734.63
261.78	1685.48
262.00	1634.28
262.22	1705.96
262.43	1679.33
262.65	1746.92
262.86	1708.01
263.08	1837.03
263.30	1722.34
263.51	1607.66
263.73	1636.33
263.95	1783.78
264.16	1624.04
264.38	1658.85
264.60	1746.92
264.81	1667.05
265.03	1791.97
265.25	1714.15
265.46	1712.10
265.68	1748.97
265.89	1767.40
266.11	1550.31
266.33	1781.73
266.54	1794.02
266.76	1662.95
266.98	1730.53
267.19	1746.92
267.41	1775.59
267.62	1712.10
267.84	1648.61
268.06	1751.01
268.27	1710.05
268.49	1734.63
268.70	1759.21
268.92	1681.38
269.14	1683.43
269.35	1624.04
269.57	1658.85
269.79	1705.96
270.00	1599.46
270.22	1755.11
270.43	1630.18
270.65	1587.18
270.87	1755.11
271.08	1687.53
271.30	1755.11
271.51	1757.16
271.73	1662.95
271.95	1771.49
272.16	1665.00
272.38	1740.77
272.59	1734.63
272.81	1722.34
273.02	1781.73
273.24	1740.77
273.46	1755.11
273.67	1720.29
273.89	1617.90
274.10	1677.29
274.32	1800.16
274.54	1746.92
274.75	1757.16
274.97	1701.86
275.18	1730.53
275.40	1828.84
275.61	1716.20
275.83	1777.64
276.05	1599.46
276.26	1665.00
276.48	1726.44
276.69	1763.30
276.91	1738.73
277.12	1755.11
277.34	1665.00
277.55	1738.73
277.77	1652.71
277.99	1732.58
278.20	1677.29
278.42	1648.61
278.63	1660.90
278.85	1695.72
279.06	1662.95
279.28	1763.30
279.49	1740.77
279.71	1742.82
279.93	1662.95
280.14	1726.44
280.36	1648.61
280.57	1705.96
280.79	1662.95
281.00	1679.33
281.22	1667.05
281.43	1757.16
281.65	1636.33
281.86	1701.86
282.08	1755.11
282.29	1845.22
282.51	1638.38
282.73	1718.25
282.94	1673.19
283.16	1771.49
283.37	1804.26
283.59	1691.62
283.80	1775.59
284.02	1710.05
284.23	1744.87
284.45	1763.30
284.66	1726.44
284.88	1675.24
285.09	1671.14
285.31	1677.29
285.52	1728.49
285.74	1697.77
285.95	1748.97
286.17	1763.30
286.38	1804.26
286.60	1697.77
286.81	1683.43
287.03	1652.71
287.24	1751.01
287.46	1830.88
287.67	1699.81
287.89	1818.60
288.10	1734.63
288.32	1710.05
288.53	1705.96
288.75	1648.61
288.96	1773.54
289.18	1744.87
289.39	1656.81
289.61	1712.10
289.82	1861.60
290.04	1820.64
290.25	1640.42
290.47	1677.29
290.68	1617.90
290.90	1714.15
291.11	1638.38
291.33	1708.01
291.54	1636.33
291.76	1683.43
291.97	1705.96
292.18	1753.06
292.40	1703.91
292.61	1679.33
292.83	1843.17
293.04	1738.73
293.26	1689.57
293.47	1724.39
293.69	1615.85
293.90	1669.09
294.12	1775.59
294.33	1716.20
294.55	1699.81
294.76	1779.68
294.97	1738.73
295.19	1804.26
295.40	1667.05
295.62	1703.91
295.83	1751.01
296.05	1628.14
296.26	1802.21
296.48	1599.46
296.69	1656.81
296.90	1744.87
297.12	1742.82
297.33	1808.36
297.55	1722.34
297.76	1714.15
297.98	1781.73
298.19	1720.29
298.41	1646.57
298.62	1656.81
298.83	1730.53
299.05	1769.44
299.26	1701.86
299.48	1665.00
299.69	1769.44
299.90	1724.39
300.12	1665.00
300.33	1775.59
300.55	1757.16
300.76	1751.01
300.98	1615.85
301.19	1742.82
301.40	1660.90
301.62	1714.15
301.83	1724.39
302.05	1665.00
302.26	1755.11
302.47	1734.63
302.69	1646.57
302.90	1697.77
303.12	1689.57
303.33	1730.53
303.54	1738.73
303.76	1714.15
303.97	1718.25
304.19	1751.01
304.40	1626.09
304.61	1712.10
304.83	1746.92
305.04	1730.53
305.26	1746.92
305.47	1728.49
305.68	1716.20
305.90	1615.85
306.11	1794.02
306.33	1642.47
306.54	1689.57
306.75	1636.33
306.97	1589.22
307.18	1669.09
307.39	1665.00
307.61	1720.29
307.82	1642.47
308.04	1730.53
308.25	1728.49
308.46	1753.06
308.68	1748.97
308.89	1697.77
309.10	1808.36
309.32	1755.11
309.53	1708.01
309.74	1718.25
309.96	1726.44
310.17	1802.21
310.39	1673.19
310.60	1728.49
310.81	1683.43
311.03	1677.29
311.24	1796.07
311.45	1681.38
311.67	1798.12
311.88	1640.42
312.09	1611.75
312.31	1650.66
312.52	1685.48
312.73	1722.34
312.95	1691.62
313.16	1673.19
313.37	1746.92
313.59	1673.19
313.80	1783.78
314.01	1761.25
314.23	1689.57
314.44	1785.83
314.65	1605.61
314.87	1648.61
315.08	1732.58
315.29	1636.33
315.51	1675.24
315.72	1656.81
315.93	1744.87
316.15	1746.92
316.36	1681.38
316.57	1701.86
316.79	1691.62
317.00	1624.04
317.21	1767.40
317.43	1685.48
317.64	1759.21
317.85	1681.38
318.07	1697.77
318.28	1712.10
318.49	1828.84
318.70	1994.72
318.92	1918.95
319.13	1894.37
319.34	1988.58
319.56	1826.79
319.77	1861.60
319.98	1861.60
320.20	1847.27
320.41	1765.35
320.62	1773.54
320.83	1714.15
321.05	1863.65
321.26	1783.78
321.47	1730.53
321.69	1794.02
321.90	1640.42
322.11	1732.58
322.32	1708.01
322.54	1812.45
322.75	1650.66
322.96	1806.31
323.18	1648.61
323.39	1681.38
323.60	1650.66
323.81	1730.53
324.03	1660.90
324.24	1724.39
324.45	1773.54
324.66	1708.01
324.88	1697.77
325.09	1841.12
325.30	1769.44
325.52	1763.30
325.73	1744.87
325.94	1665.00
326.15	1673.19
326.37	1699.81
326.58	1787.88
326.79	1718.25
327.00	1730.53
327.22	1714.15
327.43	1646.57
327.64	1611.75
327.85	1759.21
328.07	1681.38
328.28	1765.35
328.49	1679.33
328.70	1748.97
328.92	1697.77
329.13	1701.86
329.34	1730.53
329.55	1824.74
329.76	1753.06
329.98	1675.24
330.19	1773.54
330.40	1697.77
330.61	1712.10
330.83	1865.70
331.04	1636.33
331.25	1665.00
331.46	1771.49
331.68	1658.85
331.89	1728.49
332.10	1708.01
332.31	1607.66
332.52	1654.76
332.74	1773.54
332.95	1591.27
333.16	1656.81
333.37	1712.10
333.58	1746.92
333.80	1665.00
334.01	1669.09
334.22	1710.05
334.43	1609.70
334.64	1673.19
334.86	1648.61
335.07	1650.66
335.28	1806.31
335.49	1703.91
335.70	1691.62
335.92	1822.69
336.13	1841.12
336.34	1734.63
336.55	1695.72
336.76	1701.86
336.98	1617.90
337.19	1703.91
337.40	1800.16
337.61	1767.40
337.82	1644.52
338.04	1775.59
338.25	1576.94
338.46	1699.81
338.67	1701.86
338.88	1667.05
339.09	1642.47
339.31	1662.95
339.52	1607.66
339.73	1660.90
339.94	1683.43
340.15	1767.40
340.36	1662.95
340.58	1763.30
340.79	1732.58
341.00	1708.01
341.21	1697.77
341.42	1826.79
341.63	1656.81
341.85	1765.35
342.06	1728.49
342.27	1703.91
342.48	1724.39
342.69	1644.52
342.90	1738.73
343.12	1718.25
343.33	1693.67
343.54	1830.88
343.75	1773.54
343.96	1736.68
344.17	1624.04
344.38	1736.68
344.60	1669.09
344.81	1726.44
345.02	1665.00
345.23	1767.40
345.44	1769.44
345.65	1798.12
345.86	1753.06
346.07	1632.23
346.29	1671.14
346.50	1710.05
346.71	1716.20
346.92	1818.60
347.13	1931.23
347.34	1652.71
347.55	1728.49
347.76	1767.40
347.98	1583.08
348.19	1693.67
348.40	1773.54
348.61	1644.52
348.82	1763.30
349.03	1679.33
349.24	1656.81
349.45	1812.45
349.66	1615.85
349.88	1763.30
350.09	1689.57
350.30	1783.78
350.51	1738.73
350.72	1660.90
350.93	1710.05
351.14	1722.34
351.35	1716.20
351.56	1681.38
351.77	1640.42
351.99	1626.09
352.20	1861.60
352.41	1773.54
352.62	1609.70
352.83	1671.14
353.04	1714.15
353.25	1689.57
353.46	1816.55
353.67	1740.77
353.88	1560.55
354.09	1716.20
354.30	1654.76
354.52	1773.54
354.73	1658.85
354.94	1695.72
355.15	1748.97
355.36	1834.98
355.57	1599.46
355.78	1796.07
355.99	1675.24
356.20	1722.34
356.41	1720.29
356.62	1669.09
356.83	1720.29
357.04	1787.88
357.25	1675.24
357.46	1681.38
357.68	1626.09
357.89	1722.34
358.10	1724.39
358.31	1755.11
358.52	1753.06
358.73	1566.70
358.94	1681.38
359.15	1755.11
359.36	1681.38
359.57	1703.91
359.78	1691.62
359.99	1691.62
360.20	1634.28
360.41	1691.62
360.62	1773.54
360.83	1726.44
361.04	1744.87
361.25	1699.81
361.46	1779.68
361.67	1726.44
361.88	1804.26
362.09	1734.63
362.30	1705.96
362.51	1662.95
362.72	1636.33
362.93	1808.36
363.14	1687.53
363.35	1695.72
363.56	1656.81
363.78	1726.44
363.99	1746.92
364.20	1673.19
364.41	1691.62
364.62	1787.88
364.83	1775.59
365.04	1619.94
365.25	1642.47
365.46	1853.41
365.67	1630.18
365.88	1701.86
366.09	1648.61
366.30	1738.73
366.51	1742.82
366.72	1667.05
366.93	1640.42
367.14	1675.24
367.35	1818.60
367.56	1673.19
367.77	1791.97
367.98	1701.86
368.18	1705.96
368.39	1640.42
368.60	1599.46
368.81	1781.73
369.02	1716.20
369.23	1660.90
369.44	1613.80
369.65	1660.90
369.86	1710.05
370.07	1824.74
370.28	1595.37
370.49	1751.01
370.70	1808.36
370.91	1591.27
371.12	1552.36
371.33	1791.97
371.54	1746.92
371.75	1755.11
371.96	1599.46
372.17	1722.34
372.38	1697.77
372.59	1789.92
372.80	1716.20
373.01	1675.24
373.22	1681.38
373.43	1734.63
373.64	1691.62
373.85	1812.45
374.06	1851.36
374.26	1734.63
374.47	1779.68
374.68	1746.92
374.89	1665.00
375.10	1712.10
375.31	1779.68
375.52	1796.07
375.73	1740.77
375.94	1593.32
376.15	1703.91
376.36	1708.01
376.57	1595.37
376.78	1681.38
376.99	1763.30
377.20	1724.39
377.40	1742.82
377.61	1822.69
377.82	1609.70
378.03	1818.60
378.24	1691.62
378.45	1705.96
378.66	1765.35
378.87	1652.71
379.08	1611.75
379.29	1730.53
379.50	1722.34
379.71	1691.62
379.91	1679.33
380.12	1667.05
380.33	1705.96
380.54	1699.81
380.75	1665.00
380.96	1703.91
381.17	1806.31
381.38	1705.96
381.59	1857.51
381.80	1728.49
382.00	1847.27
382.21	1787.88
382.42	1820.64
382.63	1867.75
382.84	1783.78
383.05	1777.64
383.26	1802.21
383.47	1834.98
383.68	1773.54
383.88	1775.59
384.09	1814.50
384.30	1863.65
384.51	1734.63
384.72	1691.62
384.93	1701.86
385.14	1744.87
385.35	1757.16
385.55	1677.29
385.76	1814.50
385.97	1767.40
386.18	1673.19
386.39	1665.00
386.60	1736.68
386.81	1718.25
387.02	1683.43
387.22	1615.85
387.43	1779.68
387.64	1859.56
387.85	1949.67
388.06	2205.66
388.27	4777.91
388.48	9168.76
388.68	11669.33
388.89	13319.99
389.10	14044.97
389.31	11820.88
389.52	9709.42
389.73	8603.52
389.93	7810.95
390.14	7292.82
390.35	6674.33
390.56	5969.83
390.77	4917.17
390.98	3878.85
391.18	3024.85
391.39	2324.44
391.60	1935.33
391.81	1892.32
392.02	1732.58
392.23	1953.76
392.43	1693.67
392.64	1722.34
392.85	1703.91
393.06	1755.11
393.27	1740.77
393.47	1671.14
393.68	1730.53
393.89	1738.73
394.10	1841.12
394.31	1701.86
394.52	1683.43
394.72	1642.47
394.93	1877.99
395.14	1669.09
395.35	1763.30
395.56	1701.86
395.76	1773.54
395.97	1783.78
396.18	1884.13
396.39	1875.94
396.60	2113.50
396.80	1949.67
397.01	1955.81
397.22	1873.89
397.43	1877.99
397.64	1777.64
397.84	1794.02
398.05	1873.89
398.26	1759.21
398.47	1738.73
398.67	1765.35
398.88	1685.48
399.09	1740.77
399.30	1697.77
399.51	1775.59
399.71	1636.33
399.92	1576.94
400.13	1705.96
400.34	1681.38
400.54	1748.97
400.75	1904.61
400.96	1736.68
401.17	1791.97
401.37	1740.77
401.58	1744.87
401.79	1712.10
402.00	1830.88
402.21	2035.68
402.41	2025.44
402.62	2058.21
402.83	2187.23
403.04	2095.07
403.24	2136.03
403.45	1935.33
403.66	1978.34
403.87	1900.52
404.07	1910.75
404.28	2035.68
404.49	1914.85
404.70	1820.64
404.90	1775.59
405.11	1757.16
405.32	1837.03
405.52	1675.24
405.73	1720.29
405.94	1669.09
406.15	1753.06
406.35	1753.06
406.56	1699.81
406.77	1613.80
406.98	1740.77
407.18	1669.09
407.39	1779.68
407.60	1679.33
407.80	1845.22
408.01	1597.42
408.22	1718.25
408.43	1619.94
408.63	1783.78
408.84	1783.78
409.05	1757.16
409.25	1671.14
409.46	1675.24
409.67	1636.33
409.88	1605.61
410.08	1708.01
410.29	1677.29
410.50	1775.59
410.70	1763.30
410.91	1689.57
411.12	1755.11
411.32	1701.86
411.53	1669.09
411.74	1826.79
411.95	1800.16
412.15	1765.35
412.36	1802.21
412.57	1849.32
412.77	1882.08
412.98	1796.07
413.19	1751.01
413.39	1804.26
413.60	1791.97
413.81	1802.21
414.01	1691.62
414.22	1781.73
414.43	1810.40
414.63	1724.39
414.84	1773.54
415.05	1656.81
415.25	1781.73
415.46	1742.82
415.67	1775.59
415.87	1773.54
416.08	1701.86
416.29	1701.86
416.49	1718.25
416.70	1740.77
416.91	1724.39
417.11	1708.01
417.32	1787.88
417.53	1722.34
417.73	1769.44
417.94	1728.49
418.15	1710.05
418.35	1759.21
418.56	1773.54
418.77	1812.45
418.97	1763.30
419.18	1736.68
419.38	1609.70
419.59	1751.01
419.80	1734.63
420.00	1740.77
420.21	1761.25
420.42	1773.54
420.62	1771.49
420.83	1660.90
421.04	1697.77
421.24	1673.19
421.45	1759.21
421.65	1650.66
421.86	1660.90
422.07	1738.73
422.27	1767.40
422.48	1671.14
422.69	1701.86
422.89	1675.24
423.10	1697.77
423.30	1744.87
423.51	1691.62
423.72	1697.77
423.92	1746.92
424.13	1591.27
424.33	1726.44
424.54	1761.25
424.75	1765.35
424.95	1820.64
425.16	1691.62
425.36	1685.48
425.57	1806.31
425.78	1771.49
425.98	1675.24
426.19	1781.73
426.39	1673.19
426.60	1757.16
426.81	1841.12
427.01	1714.15
427.22	1736.68
427.42	1646.57
427.63	1681.38
427.83	1796.07
428.04	1861.60
428.25	1794.02
428.45	1796.07
428.66	1689.57
428.86	1708.01
429.07	1675.24
429.28	1775.59
429.48	1791.97
429.69	1703.91
429.89	1697.77
430.10	1681.38
430.30	1693.67
430.51	1728.49
430.71	1626.09
430.92	1765.35
431.13	1636.33
431.33	1794.02
431.54	1748.97
431.74	1859.56
431.95	1853.41
432.15	1732.58
432.36	1665.00
432.56	1712.10
432.77	1873.89
432.98	1847.27
433.18	1728.49
433.39	1742.82
433.59	1617.90
433.80	1785.83
434.00	1914.85
434.21	1703.91
434.41	1687.53
434.62	1779.68
434.82	1714.15
435.03	1701.86
435.23	1800.16
435.44	1638.38
435.64	1660.90
435.85	1810.40
436.06	1744.87
436.26	1806.31
436.47	1673.19
436.67	1705.96
436.88	1763.30
437.08	1753.06
437.29	1757.16
437.49	1697.77
437.70	1769.44
437.90	1724.39
438.11	1859.56
438.31	1791.97
438.52	1980.39
438.72	1937.38
438.93	1968.10
439.13	1855.46
439.34	1800.16
439.54	1763.30
439.75	1818.60
439.95	1804.26
440.16	1718.25
440.36	1769.44
440.57	1804.26
440.77	1710.05
440.98	1738.73
441.18	1740.77
441.39	1673.19
441.59	1675.24
441.80	1867.75
442.00	1701.86
442.21	1738.73
442.41	1681.38
442.62	1761.25
442.82	1761.25
443.02	1710.05
443.23	1757.16
443.43	1755.11
443.64	1884.13
443.84	1677.29
444.05	1849.32
444.25	1699.81
444.46	1677.29
444.66	1671.14
444.87	1787.88
445.07	1648.61
445.28	1656.81
445.48	1884.13
445.69	1763.30
445.89	1890.28
446.09	1777.64
446.30	2011.11
446.50	2586.58
446.71	4151.23
446.91	5085.11
447.12	5797.80
447.32	5996.45
447.53	5248.94
447.73	4329.41
447.93	3991.49
448.14	3567.56
448.34	3512.27
448.55	3178.45
448.75	3155.92
448.96	2906.07
449.16	2566.10
449.36	2459.61
449.57	2109.41
449.77	1931.23
449.98	1791.97
450.18	1800.16
450.39	1837.03
450.59	1718.25
450.79	1712.10
451.00	1699.81
451.20	1744.87
451.41	1746.92
451.61	1665.00
451.81	1771.49
452.02	1673.19
452.22	1738.73
452.43	1701.86
452.63	1697.77
452.84	1703.91
453.04	1777.64
453.24	1718.25
453.45	1683.43
453.65	1738.73
453.86	1777.64
454.06	1744.87
454.26	1701.86
454.47	1650.66
454.67	1759.21
454.87	1791.97
455.08	1751.01
455.28	1798.12
455.49	1759.21
455.69	1695.72
455.89	1841.12
456.10	1832.93
456.30	1763.30
456.51	1744.87
456.71	1734.63
456.91	1728.49
457.12	1722.34
457.32	1742.82
457.52	1714.15
457.73	1777.64
457.93	1730.53
458.14	1665.00
458.34	1615.85
458.54	1693.67
458.75	1718.25
458.95	1800.16
459.15	1822.69
459.36	1714.15
459.56	1720.29
459.76	1834.98
459.97	1794.02
460.17	1746.92
460.37	1794.02
460.58	1759.21
460.78	1734.63
460.99	1736.68
461.19	1669.09
461.39	1718.25
461.60	1683.43
461.80	1757.16
462.00	1652.71
462.21	1789.92
462.41	1626.09
462.61	1646.57
462.82	1718.25
463.02	1808.36
463.22	1714.15
463.43	1781.73
463.63	1669.09
463.83	1779.68
464.04	1708.01
464.24	1755.11
464.44	1611.75
464.64	1769.44
464.85	1763.30
465.05	1761.25
465.25	1740.77
465.46	1683.43
465.66	1746.92
465.86	1730.53
466.07	1693.67
466.27	1683.43
466.47	1624.04
466.68	1632.23
466.88	1722.34
467.08	1773.54
467.29	1802.21
467.49	1796.07
467.69	1773.54
467.89	1798.12
468.10	1714.15
468.30	1746.92
468.50	1755.11
468.71	1796.07
468.91	1568.74
469.11	1787.88
469.31	1722.34
469.52	1640.42
469.72	1798.12
469.92	1904.61
470.13	1718.25
470.33	1724.39
470.53	1775.59
470.73	2232.29
470.94	2568.15
471.14	2615.26
471.34	2975.70
471.54	2828.24
471.75	2568.15
471.95	2299.87
472.15	2252.77
472.36	2146.27
472.56	2168.80
472.76	2172.89
472.96	2195.42
473.17	1941.47
473.37	1976.29
473.57	1849.32
473.77	1859.56
473.98	1785.83
474.18	1712.10
474.38	1918.95
474.58	1697.77
474.79	1615.85
474.99	1791.97
475.19	1759.21
475.39	1648.61
475.60	1824.74
475.80	1789.92
476.00	1724.39
476.20	1671.14
476.41	1753.06
476.61	1808.36
476.81	1859.56
477.01	1689.57
477.21	1818.60
477.42	1757.16
477.62	1624.04
477.82	1796.07
478.02	1677.29
478.23	1714.15
478.43	1632.23
478.63	1730.53
478.83	1697.77
479.03	1605.61
479.24	1726.44
479.44	1824.74
479.64	1701.86
479.84	1632.23
480.04	1679.33
480.25	1828.84
480.45	1662.95
480.65	1691.62
480.85	1769.44
481.06	1665.00
481.26	1681.38
481.46	1724.39
481.66	1757.16
481.86	1712.10
482.06	1820.64
482.27	1761.25
482.47	1722.34
482.67	1800.16
482.87	1732.58
483.07	1718.25
483.28	1652.71
483.48	1712.10
483.68	1654.76
483.88	1660.90
484.08	1646.57
484.29	1609.70
484.49	1738.73
484.69	1710.05
484.89	1783.78
485.09	1701.86
485.29	1734.63
485.50	1697.77
485.70	1714.15
485.90	1765.35
486.10	1796.07
486.30	1730.53
486.50	1783.78
486.71	1665.00
486.91	1800.16
487.11	1812.45
487.31	1566.70
487.51	1771.49
487.71	1759.21
487.91	1763.30
488.12	1665.00
488.32	1578.98
488.52	1681.38
488.72	1626.09
488.92	1701.86
489.12	1830.88
489.32	1787.88
489.53	1822.69
489.73	1617.90
489.93	1806.31
490.13	1628.14
490.33	1619.94
490.53	1675.24
490.73	1888.23
490.94	1632.23
491.14	1789.92
491.34	1791.97
491.54	2064.35
491.74	2686.94
491.94	3219.41
492.14	3477.45
492.34	3600.33
492.54	3233.74
492.75	2672.60
492.95	2680.79
493.15	2465.75
493.35	2394.08
493.55	2301.92
493.75	2226.14
493.95	2201.57
494.15	2131.94
494.35	1978.34
494.56	1902.56
494.76	1806.31
494.96	1814.50
495.16	1822.69
495.36	1787.88
495.56	1742.82
495.76	1685.48
495.96	1753.06
496.16	1742.82
496.36	1787.88
496.56	1818.60
496.77	1816.55
496.97	1751.01
497.17	1830.88
497.37	1665.00
497.57	1810.40
497.77	1679.33
497.97	1658.85
498.17	1662.95
498.37	1662.95
498.57	1722.34
498.77	1695.72
498.97	1796.07
499.17	1839.08
499.38	1681.38
499.58	1830.88
499.78	1775.59
499.98	1787.88
500.18	1730.53
500.38	1736.68
500.58	1943.52
500.78	2439.13
500.98	4675.51
501.18	6604.70
501.38	8095.62
501.58	9039.73
501.78	8648.57
501.98	6817.69
502.18	5713.83
502.38	5099.44
502.58	4589.50
502.78	4102.08
502.98	3973.06
503.18	3899.33
503.38	3583.95
503.59	3254.22
503.79	2838.48
503.99	2555.86
504.19	2379.74
504.39	2238.43
504.59	2394.08
504.79	2242.53
504.99	2211.81
505.19	2074.59
505.39	2037.73
505.59	2019.30
505.79	1947.62
505.99	1947.62
506.19	1828.84
506.39	1943.52
506.59	1796.07
506.79	1818.60
506.99	1769.44
507.19	1761.25
507.39	1757.16
507.59	1742.82
507.79	1675.24
507.99	1677.29
508.19	1812.45
508.39	1683.43
508.59	1746.92
508.79	1767.40
508.99	1863.65
509.19	1720.29
509.39	1775.59
509.59	1718.25
509.79	1746.92
509.99	1720.29
510.19	1869.80
510.39	1789.92
510.59	1734.63
510.79	1660.90
510.99	1677.29
511.19	1783.78
511.39	1804.26
511.59	1761.25
511.79	1853.41
511.99	1732.58
512.19	1771.49
512.38	1720.29
512.58	1738.73
512.78	1763.30
512.98	1847.27
513.18	1812.45
513.38	1660.90
513.58	1812.45
513.78	1705.96
513.98	1742.82
514.18	1660.90
514.38	1642.47
514.58	1765.35
514.78	1685.48
514.98	1765.35
515.18	1685.48
515.38	1691.62
515.58	1800.16
515.78	1695.72
515.98	1642.47
516.18	1714.15
516.38	1775.59
516.57	1669.09
516.77	1732.58
516.97	1779.68
517.17	1800.16
517.37	1607.66
517.57	1759.21
517.77	1775.59
517.97	1724.39
518.17	1787.88
518.37	1726.44
518.57	1685.48
518.77	1781.73
518.97	1722.34
519.16	1796.07
519.36	1773.54
519.56	1763.30
519.76	1665.00
519.96	1710.05
520.16	1771.49
520.36	1695.72
520.56	1791.97
520.76	1705.96
520.96	1718.25
521.16	1859.56
521.35	1857.51
521.55	1824.74
521.75	1738.73
521.95	1699.81
522.15	1714.15
522.35	1640.42
522.55	1697.77
522.75	1798.12
522.95	1726.44
523.14	1716.20
523.34	1687.53
523.54	1763.30
523.74	1839.08
523.94	1722.34
524.14	1624.04
524.34	1769.44
524.54	1820.64
524.73	1716.20
524.93	1822.69
525.13	1712.10
525.33	1607.66
525.53	1877.99
525.73	1798.12
525.93	1812.45
526.13	1720.29
526.32	1634.28
526.52	1761.25
526.72	1773.54
526.92	1791.97
527.12	1748.97
527.32	1697.77
527.52	1679.33
527.71	1779.68
527.91	1703.91
528.11	1705.96
528.31	1767.40
528.51	1632.23
528.71	1765.35
528.90	1746.92
529.10	1773.54
529.30	1796.07
529.50	1638.38
529.70	1763.30
529.90	1746.92
530.09	1771.49
530.29	1669.09
530.49	1689.57
530.69	1904.61
530.89	1722.34
531.09	1753.06
531.28	1730.53
531.48	1783.78
531.68	1748.97
531.88	1742.82
532.08	1763.30
532.28	1716.20
532.47	1722.34
532.67	1748.97
532.87	1832.93
533.07	1675.24
533.27	1761.25
533.46	1855.46
533.66	1699.81
533.86	1771.49
534.06	1736.68
534.26	1775.59
534.45	1781.73
534.65	1794.02
534.85	1775.59
535.05	1667.05
535.25	1751.01
535.44	1734.63
535.64	1777.64
535.84	1695.72
536.04	1742.82
536.24	1732.58
536.43	1665.00
536.63	1796.07
536.83	1693.67
537.03	1703.91
537.22	1599.46
537.42	1677.29
537.62	1775.59
537.82	1638.38
538.02	1769.44
538.21	1796.07
538.41	1857.51
538.61	1740.77
538.81	1775.59
539.00	1753.06
539.20	1642.47
539.40	1708.01
539.60	1738.73
539.79	1794.02
539.99	1705.96
540.19	1693.67
540.39	1675.24
540.58	1761.25
540.78	1787.88
540.98	1716.20
541.18	1767.40
541.37	1753.06
541.57	1708.01
541.77	1804.26
541.97	1648.61
542.16	1689.57
542.36	1710.05
542.56	1748.97
542.76	1814.50
542.95	1794.02
543.15	1828.84
543.35	1796.07
543.54	1660.90
543.74	1656.81
543.94	1802.21
544.14	1712.10
544.33	1832.93
544.53	1751.01
544.73	1728.49
544.93	1714.15
545.12	1734.63
545.32	1748.97
545.52	1742.82
545.71	1667.05
545.91	1705.96
546.11	1669.09
546.30	1656.81
546.50	1769.44
546.70	1761.25
546.90	1722.34
547.09	1665.00
547.29	1773.54
547.49	1746.92
547.68	1755.11
547.88	1669.09
548.08	1673.19
548.27	2224.09
548.47	1767.40
548.67	1665.00
548.87	1761.25
549.06	1736.68
549.26	1761.25
549.46	1781.73
549.65	1689.57
549.85	1710.05
550.05	1808.36
550.24	1589.22
550.44	1794.02
550.64	1800.16
550.83	1701.86
551.03	1867.75
551.23	1775.59
551.42	1798.12
551.62	1753.06
551.82	1705.96
552.01	1773.54
552.21	1791.97
552.41	1695.72
552.60	1708.01
552.80	1738.73
553.00	1761.25
553.19	1761.25
553.39	1871.84
553.59	1691.62
553.78	1736.68
553.98	1781.73
554.17	1669.09
554.37	1751.01
554.57	1742.82
554.76	1626.09
554.96	1724.39
555.16	1751.01
555.35	1732.58
555.55	1718.25
555.75	1765.35
555.94	1783.78
556.14	1636.33
556.33	1757.16
556.53	1736.68
556.73	1765.35
556.92	1824.74
557.12	1845.22
557.32	1771.49
557.51	1800.16
557.71	1753.06
557.90	1814.50
558.10	1861.60
558.30	1708.01
558.49	1662.95
558.69	1705.96
558.88	1765.35
559.08	1742.82
559.28	1822.69
559.47	1718.25
559.67	1800.16
559.86	1894.37
560.06	1761.25
560.26	1753.06
560.45	1826.79
560.65	1769.44
560.84	1880.04
561.04	1716.20
561.24	1695.72
561.43	1621.99
561.63	1873.89
561.82	1742.82
562.02	1761.25
562.22	1718.25
562.41	1701.86
562.61	1673.19
562.80	1677.29
563.00	1873.89
563.19	1839.08
563.39	1767.40
563.59	1748.97
563.78	1691.62
563.98	1613.80
564.17	1677.29
564.37	1677.29
564.56	1724.39
564.76	1667.05
564.96	1820.64
565.15	1767.40
565.35	1865.70
565.54	1716.20
565.74	1730.53
565.93	1787.88
566.13	1697.77
566.32	1753.06
566.52	1671.14
566.71	1732.58
566.91	1660.90
567.11	1693.67
567.30	1699.81
567.50	1767.40
567.69	1732.58
567.89	1724.39
568.08	1742.82
568.28	1732.58
568.47	1767.40
568.67	1826.79
568.86	1703.91
569.06	1794.02
569.25	1699.81
569.45	1730.53
569.64	1755.11
569.84	1816.55
570.04	1781.73
570.23	1636.33
570.43	1667.05
570.62	1822.69
570.82	1877.99
571.01	1701.86
571.21	1755.11
571.40	1703.91
571.60	1767.40
571.79	1796.07
571.99	1808.36
572.18	1695.72
572.38	1814.50
572.57	1691.62
572.77	1722.34
572.96	1808.36
573.16	1683.43
573.35	1771.49
573.55	1812.45
573.74	1775.59
573.94	1773.54
574.13	1734.63
574.33	1800.16
574.52	1853.41
574.71	1675.24
574.91	1720.29
575.10	1710.05
575.30	1734.63
575.49	1636.33
575.69	1787.88
575.88	1767.40
576.08	1812.45
576.27	1886.18
576.47	1808.36
576.66	1943.52
576.86	1865.70
577.05	1763.30
577.25	1806.31
577.44	1918.95
577.64	1658.85
577.83	1822.69
578.02	1767.40
578.22	1851.36
578.41	1839.08
578.61	1697.77
578.80	1683.43
579.00	1763.30
579.19	1697.77
579.39	1773.54
579.58	1769.44
579.77	1798.12
579.97	1814.50
580.16	1841.12
580.36	1787.88
580.55	1796.07
580.75	1830.88
580.94	1779.68
581.13	1855.46
581.33	1902.56
581.52	1798.12
581.72	1908.71
581.91	1896.42
582.11	1759.21
582.30	1773.54
582.49	1783.78
582.69	1820.64
582.88	1837.03
583.08	1761.25
583.27	1857.51
583.47	1824.74
583.66	1806.31
583.85	1763.30
584.05	1769.44
584.24	1824.74
584.44	1787.88
584.63	1855.46
584.82	1976.29
585.02	1841.12
585.21	2000.87
585.41	1896.42
585.60	1849.32
585.79	2027.49
585.99	2009.06
586.18	2007.01
586.37	2222.05
586.57	3389.39
586.76	9828.20
586.96	27143.78
587.15	41602.44
587.34	51571.95
587.54	57504.91
587.73	55538.86
587.93	40138.14
588.12	29849.14
588.31	23672.47
588.51	20213.45
588.70	18419.43
588.89	16830.21
589.09	15359.77
589.28	13522.74
589.47	11482.96
589.67	9480.05
589.86	7423.89
590.06	5519.28
590.25	4106.18
590.44	3241.93
590.64	2676.70
590.83	2187.23
591.02	2082.78
591.22	1978.34
591.41	1949.67
591.60	1816.55
591.80	1968.10
591.99	1712.10
592.18	1812.45
592.38	1791.97
592.57	1712.10
592.76	1828.84
592.96	1701.86
593.15	1769.44
593.34	1832.93
593.54	1767.40
593.73	1822.69
593.92	1855.46
594.12	1882.08
594.31	1791.97
594.50	1869.80
594.70	1824.74
594.89	1914.85
595.08	1773.54
595.28	1873.89
595.47	1972.19
595.66	1800.16
595.86	1669.09
596.05	1746.92
596.24	1734.63
596.43	1869.80
596.63	1818.60
596.82	1812.45
597.01	1818.60
597.21	1826.79
597.40	1841.12
597.59	1775.59
597.79	1771.49
597.98	1785.83
598.17	1804.26
598.36	1830.88
598.56	1761.25
598.75	1775.59
598.94	1773.54
599.14	1726.44
599.33	1693.67
599.52	1828.84
599.71	1779.68
599.91	1761.25
600.10	1720.29
600.29	1849.32
600.48	1791.97
600.68	1699.81
600.87	1802.21
601.06	1691.62
601.26	1828.84
601.45	1798.12
601.64	1744.87
601.83	1763.30
602.03	1802.21
602.22	1656.81
602.41	1753.06
602.60	2017.25
602.80	1742.82
602.99	1753.06
603.18	1708.01
603.37	1791.97
603.57	1816.55
603.76	1789.92
603.95	1775.59
604.14	1662.95
604.34	1714.15
604.53	1726.44
604.72	1734.63
604.91	1832.93
605.10	1800.16
605.30	1683.43
605.49	1791.97
605.68	1751.01
605.87	1826.79
606.07	1693.67
606.26	1736.68
606.45	1720.29
606.64	1775.59
606.84	1773.54
607.03	1785.83
607.22	1802.21
607.41	1783.78
607.60	1767.40
607.80	1863.65
607.99	1699.81
608.18	1742.82
608.37	1773.54
608.56	1691.62
608.76	1867.75
608.95	1820.64
609.14	1837.03
609.33	1837.03
609.52	1920.99
609.72	1867.75
609.91	1849.32
610.10	1808.36
610.29	1939.43
610.48	1828.84
610.68	1808.36
610.87	1732.58
611.06	1845.22
611.25	1755.11
611.44	1851.36
611.63	1697.77
611.83	1654.76
612.02	1640.42
612.21	1779.68
612.40	1611.75
612.59	1695.72
612.79	1726.44
612.98	1736.68
613.17	1802.21
613.36	1736.68
613.55	1910.75
613.74	1787.88
613.93	1808.36
614.13	1925.09
614.32	1927.14
614.51	1890.28
614.70	1841.12
614.89	1845.22
615.08	1832.93
615.28	2109.41
615.47	1732.58
615.66	1837.03
615.85	1839.08
616.04	1863.65
616.23	1800.16
616.42	1726.44
616.62	1839.08
616.81	1812.45
617.00	1800.16
617.19	1806.31
617.38	1738.73
617.57	1703.91
617.76	1818.60
617.95	1755.11
618.15	1683.43
618.34	1806.31
618.53	1613.80
618.72	1863.65
618.91	1832.93
619.10	1800.16
619.29	1736.68
619.48	1732.58
619.68	1656.81
619.87	1796.07
620.06	1617.90
620.25	1839.08
620.44	1781.73
620.63	1736.68
620.82	1781.73
621.01	1732.58
621.20	1740.77
621.39	1751.01
621.59	1794.02
621.78	1746.92
621.97	1826.79
622.16	1806.31
622.35	1681.38
622.54	1800.16
622.73	1814.50
622.92	1632.23
623.11	1753.06
623.30	1757.16
623.49	1746.92
623.68	1751.01
623.88	1699.81
624.07	1798.12
624.26	1683.43
624.45	1681.38
624.64	1716.20
624.83	1714.15
625.02	1724.39
625.21	1812.45
625.40	1808.36
625.59	1796.07
625.78	1730.53
625.97	1816.55
626.16	1851.36
626.35	1888.23
626.54	1849.32
626.74	1877.99
626.93	1748.97
627.12	1810.40
627.31	1777.64
627.50	1705.96
627.69	1820.64
627.88	1646.57
628.07	1730.53
628.26	1673.19
628.45	1710.05
628.64	1667.05
628.83	1695.72
629.02	1710.05
629.21	1781.73
629.40	1765.35
629.59	1757.16
629.78	1751.01
629.97	1761.25
630.16	1744.87
630.35	1722.34
630.54	1699.81
630.73	1720.29
630.92	1746.92
631.11	1689.57
631.30	1730.53
631.49	1681.38
631.68	1775.59
631.87	1724.39
632.06	1673.19
632.25	1918.95
632.44	1787.88
632.63	1791.97
632.82	1775.59
633.01	1734.63
633.20	1839.08
633.39	1806.31
633.58	1775.59
633.77	1785.83
633.96	1771.49
634.15	1853.41
634.34	1818.60
634.53	1822.69
634.72	1689.57
634.91	1701.86
635.10	1832.93
635.29	1773.54
635.48	1796.07
635.67	1669.09
635.86	1626.09
636.05	1837.03
636.24	1671.14
636.43	1748.97
636.62	1783.78
636.81	1626.09
637.00	1767.40
637.19	1783.78
637.38	1718.25
637.57	1748.97
637.76	1771.49
637.95	1845.22
638.14	1822.69
638.33	1806.31
638.52	1726.44
638.71	1710.05
638.89	1675.24
639.08	1935.33
639.27	1859.56
639.46	1853.41
639.65	2185.18
639.84	2322.40
640.03	2406.36
640.22	2291.68
640.41	2428.89
640.60	2058.21
640.79	2025.44
640.98	1865.70
641.17	1884.13
641.36	1920.99
641.55	1849.32
641.74	1798.12
641.92	1804.26
642.11	1689.57
642.30	1789.92
642.49	1769.44
642.68	1740.77
642.87	1814.50
643.06	1751.01
643.25	1691.62
643.44	1636.33
643.63	1730.53
643.82	1777.64
644.00	1689.57
644.19	1728.49
644.38	1648.61
644.57	1759.21
644.76	1744.87
644.95	1710.05
645.14	1701.86
645.33	1617.90
645.52	1673.19
645.71	1632.23
645.89	1710.05
646.08	1744.87
646.27	1691.62
646.46	1871.84
646.65	1658.85
646.84	1787.88
647.03	1677.29
647.22	1773.54
647.40	1785.83
647.59	1759.21
647.78	1656.81
647.97	1667.05
648.16	1724.39
648.35	1763.30
648.54	1757.16
648.73	1738.73
648.91	1775.59
649.10	1753.06
649.29	1619.94
649.48	1730.53
649.67	1769.44
649.86	1751.01
650.05	1744.87
650.23	1865.70
650.42	1843.17
650.61	1953.76
650.80	1957.86
650.99	2017.25
651.18	1814.50
651.36	1843.17
651.55	1757.16
651.74	1828.84
651.93	1699.81
652.12	1759.21
652.31	1726.44
652.49	1742.82
652.68	1722.34
652.87	1763.30
653.06	1775.59
653.25	1861.60
653.44	1794.02
653.62	1828.84
653.81	1703.91
654.00	1816.55
654.19	1785.83
654.38	1947.62
654.56	1763.30
654.75	1720.29
654.94	1734.63
655.13	1791.97
655.32	1720.29
655.51	1718.25
655.69	1689.57
655.88	1705.96
656.07	1624.04
656.26	1740.77
656.45	1673.19
656.63	1767.40
656.82	1785.83
657.01	1775.59
657.20	1683.43
657.38	1738.73
657.57	1736.68
657.76	1617.90
657.95	1730.53
658.14	1718.25
658.32	1720.29
658.51	1644.52
658.70	1744.87
658.89	1718.25
659.08	1767.40
659.26	1851.36
659.45	1671.14
659.64	1871.84
659.83	1816.55
660.01	1943.52
660.20	1726.44
660.39	1826.79
660.58	1595.37
660.76	1806.31
660.95	1748.97
661.14	1732.58
661.33	1660.90
661.51	1759.21
661.70	1746.92
661.89	1843.17
662.08	1699.81
662.26	1679.33
662.45	1728.49
662.64	1837.03
662.83	1705.96
663.01	1558.50
663.20	1689.57
663.39	1765.35
663.58	1757.16
663.76	1736.68
663.95	1783.78
664.14	1630.18
664.32	1689.57
664.51	1667.05
664.70	1662.95
664.89	1667.05
665.07	1671.14
665.26	1746.92
665.45	1648.61
665.64	1814.50
665.82	1789.92
666.01	1783.78
666.20	1697.77
666.38	1728.49
666.57	1843.17
666.76	2203.61
666.95	4579.26
667.13	11403.09
667.32	18509.54
667.51	21997.23
667.69	25032.32
667.88	25353.85
668.07	19547.86
668.25	14370.60
668.44	11679.57
668.63	9754.48
668.81	8511.36
669.00	7542.67
669.19	6866.84
669.38	5992.36
669.56	5332.91
669.75	4435.90
669.94	3833.80
670.12	3086.29
670.31	2623.45
670.50	2371.55
670.68	2174.94
670.87	1906.66
671.06	1849.32
671.24	1787.88
671.43	1888.23
671.62	1845.22
671.80	1751.01
671.99	1810.40
672.18	1767.40
672.36	1783.78
672.55	1767.40
672.74	1785.83
672.92	1744.87
673.11	1775.59
673.29	1628.14
673.48	1818.60
673.67	1781.73
673.85	1757.16
674.04	1771.49
674.23	1738.73
674.41	1863.65
674.60	1644.52
674.79	1621.99
674.97	1652.71
675.16	1746.92
675.34	1845.22
675.53	1669.09
675.72	1761.25
675.90	1763.30
676.09	1712.10
676.28	1677.29
676.46	1642.47
676.65	1619.94
676.83	1757.16
677.02	1681.38
677.21	1738.73
677.39	1816.55
677.58	1658.85
677.77	1728.49
677.95	1679.33
678.14	1693.67
678.32	1738.73
678.51	1665.00
678.70	1773.54
678.88	1644.52
679.07	1732.58
679.25	1730.53
679.44	1656.81
679.63	1611.75
679.81	1734.63
680.00	1779.68
680.18	1740.77
680.37	1738.73
680.55	1718.25
680.74	1693.67
680.93	1603.56
681.11	1783.78
681.30	1783.78
681.48	1765.35
681.67	1697.77
681.85	1767.40
682.04	1652.71
682.23	1761.25
682.41	1748.97
682.60	1708.01
682.78	1689.57
682.97	1660.90
683.15	1738.73
683.34	1746.92
683.53	1808.36
683.71	1636.33
683.90	1765.35
684.08	1814.50
684.27	1773.54
684.45	1708.01
684.64	1777.64
684.82	1681.38
685.01	1767.40
685.19	1701.86
685.38	1798.12
685.57	1603.56
685.75	1683.43
685.94	1701.86
686.12	1710.05
686.31	1699.81
686.49	1832.93
686.68	1572.84
686.86	1742.82
687.05	1693.67
687.23	1886.18
687.42	1703.91
687.60	1621.99
687.79	1775.59
687.97	1769.44
688.16	1785.83
688.34	1757.16
688.53	1615.85
688.71	1759.21
688.90	1746.92
689.08	1781.73
689.27	1630.18
689.45	1710.05
689.64	1714.15
689.82	1644.52
690.01	1697.77
690.19	1662.95
690.38	1728.49
690.56	1824.74
690.75	1638.38
690.93	1642.47
691.12	1671.14
691.30	1728.49
691.49	1658.85
691.67	1689.57
691.86	1884.13
692.04	1693.67
692.23	1740.77
692.41	1810.40
692.60	1869.80
692.78	1802.21
692.97	1826.79
693.15	1867.75
693.34	1873.89
693.52	1767.40
693.71	1705.96
693.89	1681.38
694.08	1726.44
694.26	1787.88
694.44	1794.02
694.63	1705.96
694.81	1638.38
695.00	1611.75
695.18	1767.40
695.37	1880.04
695.55	1744.87
695.74	1673.19
695.92	1662.95
696.10	1783.78
696.29	1646.57
696.47	1761.25
696.66	1656.81
696.84	1669.09
697.03	1685.48
697.21	1794.02
697.40	2396.12
697.58	1810.40
697.76	1705.96
697.95	1691.62
698.13	1642.47
698.32	1681.38
698.50	1718.25
698.68	1722.34
698.87	1757.16
699.05	1824.74
699.24	1734.63
699.42	1712.10
699.61	1748.97
699.79	1759.21
699.97	1724.39
700.16	1691.62
700.34	1677.29
700.53	1728.49
700.71	1886.18
700.89	1804.26
701.08	1658.85
701.26	1699.81
701.45	2082.78
701.63	1755.11
701.81	1736.68
702.00	1689.57
702.18	1681.38
702.37	1816.55
702.55	1849.32
702.73	1877.99
702.92	1873.89
703.10	2023.39
703.28	1955.81
703.47	1843.17
703.65	1984.48
703.84	1787.88
704.02	1787.88
704.20	1943.52
704.39	1738.73
704.57	1767.40
704.75	1841.12
704.94	1830.88
705.12	1841.12
705.30	1871.84
705.49	2488.28
705.67	5504.94
705.86	13068.09
706.04	19173.08
706.22	22582.95
706.41	24755.85
706.59	24542.86
706.77	19060.45
706.96	13805.36
707.14	11767.63
707.32	10170.21
707.51	8912.76
707.69	7706.51
707.87	6733.72
708.06	5543.85
708.24	4388.80
708.42	3387.34
708.61	2756.57
708.79	2205.66
708.97	2072.54
709.16	1961.95
709.34	1859.56
709.52	1779.68
709.71	1746.92
709.89	1736.68
710.07	1628.14
710.26	1681.38
710.44	1781.73
710.62	1773.54
710.80	1765.35
710.99	1796.07
711.17	1816.55
711.35	1710.05
711.54	1714.15
711.72	1843.17
711.90	1783.78
712.09	1777.64
712.27	1601.51
712.45	1753.06
712.63	1724.39
712.82	1722.34
713.00	1671.14
713.18	1771.49
713.37	1808.36
713.55	1718.25
713.73	1794.02
713.91	1744.87
714.10	1742.82
714.28	1796.07
714.46	1652.71
714.65	1779.68
714.83	1773.54
715.01	1699.81
715.19	1689.57
715.38	1734.63
715.56	1710.05
715.74	1736.68
715.92	1697.77
716.11	1802.21
716.29	1626.09
716.47	1703.91
716.65	1791.97
716.84	1660.90
717.02	1732.58
717.20	1646.57
717.38	1626.09
717.57	1804.26
717.75	1763.30
717.93	1662.95
718.11	1791.97
718.30	1648.61
718.48	1718.25
718.66	1763.30
718.84	1826.79
719.03	1681.38
719.21	1650.66
719.39	1855.46
719.57	1806.31
719.75	1771.49
719.94	1656.81
720.12	1683.43
720.30	1724.39
720.48	1783.78
720.67	1744.87
720.85	1652.71
721.03	1656.81
721.21	1765.35
721.39	1708.01
721.58	1730.53
721.76	1740.77
721.94	1800.16
722.12	1681.38
722.30	1771.49
722.49	1603.56
722.67	1722.34
722.85	1654.76
723.03	1710.05
723.21	1648.61
723.40	1775.59
723.58	1775.59
723.76	1785.83
723.94	1789.92
724.12	1841.12
724.30	1755.11
724.49	1789.92
724.67	1812.45
724.85	1832.93
725.03	1732.58
725.21	1753.06
725.40	1828.84
725.58	1722.34
725.76	1810.40
725.94	1710.05
726.12	1576.94
726.30	1740.77
726.49	1677.29
726.67	1716.20
726.85	1783.78
727.03	1826.79
727.21	2181.09
727.39	3330.00
727.57	4976.56
727.76	5728.17
727.94	6195.11
728.12	6234.02
728.30	5552.04
728.48	4560.83
728.66	3971.01
728.84	3688.39
729.03	3235.79
729.21	2838.48
729.39	2377.69
729.57	2181.09
729.75	1984.48
729.93	1896.42
730.11	1779.68
730.30	1820.64
730.48	1689.57
730.66	1830.88
730.84	1765.35
731.02	1748.97
731.20	1695.72
731.38	1697.77
731.56	1636.33
731.74	1624.04
731.93	1714.15
732.11	1660.90
732.29	1751.01
732.47	1755.11
732.65	1822.69
732.83	1896.42
733.01	1740.77
733.19	1718.25
733.37	1722.34
733.56	1722.34
733.74	1718.25
733.92	1820.64
734.10	1708.01
734.28	1689.57
734.46	1665.00
734.64	1722.34
734.82	1689.57
735.00	1638.38
735.18	1710.05
735.36	1693.67
735.54	1710.05
735.73	1726.44
735.91	1730.53
736.09	1738.73
736.27	1665.00
736.45	1742.82
736.63	1628.14
736.81	1712.10
736.99	1744.87
737.17	1861.60
737.35	1689.57
737.53	1675.24
737.71	1712.10
737.89	1728.49
738.07	1634.28
738.25	1654.76
738.43	1677.29
738.61	1718.25
738.80	1650.66
738.98	1673.19
739.16	1667.05
739.34	1683.43
739.52	1814.50
739.70	1798.12
739.88	1689.57
740.06	1740.77
740.24	1619.94
740.42	1742.82
740.60	1568.74
740.78	1656.81
740.96	1591.27
741.14	1660.90
741.32	1720.29
741.50	1646.57
741.68	1734.63
741.86	1808.36
742.04	1673.19
742.22	1660.90
742.40	1765.35
742.58	1665.00
742.76	1671.14
742.94	1683.43
743.12	1624.04
743.30	1724.39
743.48	1732.58
743.66	1667.05
743.84	1763.30
744.02	1751.01
744.20	1689.57
744.38	1701.86
744.56	1705.96
744.74	1779.68
744.92	1744.87
745.10	1789.92
745.28	1814.50
745.46	1748.97
745.64	1660.90
745.82	1796.07
746.00	1775.59
746.18	1734.63
746.36	1697.77
746.54	1755.11
746.72	1796.07
746.90	1597.42
747.08	1744.87
747.26	1669.09
747.44	1781.73
747.62	1710.05
747.80	1703.91
747.98	1808.36
748.15	1722.34
748.33	1939.43
748.51	1708.01
748.69	1773.54
748.87	1640.42
749.05	1691.62
749.23	1771.49
749.41	1701.86
749.59	1665.00
749.77	1751.01
749.95	1665.00
750.13	1705.96
750.31	1808.36
750.49	1669.09
750.67	1763.30
750.85	1798.12
751.03	1701.86
751.20	1740.77
751.38	1714.15
751.56	1669.09
751.74	1748.97
751.92	1718.25
752.10	1648.61
752.28	1662.95
752.46	1732.58
752.64	1751.01
752.82	1734.63
753.00	1802.21
753.18	1734.63
753.35	1718.25
753.53	1789.92
753.71	1669.09
753.89	1730.53
754.07	1775.59
754.25	1798.12
754.43	1726.44
754.61	1648.61
754.79	1755.11
754.97	1675.24
755.14	1761.25
755.32	1669.09
755.50	1691.62
755.68	1656.81
755.86	1658.85
756.04	1703.91
756.22	1640.42
756.40	1771.49
756.57	1777.64
756.75	1744.87
756.93	1783.78
757.11	1693.67
757.29	1648.61
757.47	1648.61
757.65	1611.75
757.82	1591.27
758.00	1638.38
758.18	1718.25
758.36	1656.81
758.54	1787.88
758.72	1593.32
758.90	1689.57
759.07	1697.77
759.25	1636.33
759.43	1787.88
759.61	1705.96
759.79	2176.99
759.97	1730.53
760.15	1693.67
760.32	1634.28
760.50	1744.87
760.68	1816.55
760.86	1681.38
761.04	1775.59
761.22	1687.53
761.39	1751.01
761.57	1785.83
761.75	1767.40
761.93	1720.29
762.11	1720.29
762.28	1763.30
762.46	1656.81
762.64	1757.16
762.82	1632.23
763.00	1662.95
763.18	1785.83
763.35	1716.20
763.53	1808.36
763.71	1806.31
763.89	1740.77
764.07	1683.43
764.24	1712.10
764.42	1820.64
764.60	1665.00
764.78	1716.20
764.96	1796.07
765.13	1757.16
765.31	1722.34
765.49	1800.16
765.67	1693.67
765.84	1636.33
766.02	1644.52
766.20	1619.94
766.38	1662.95
766.56	1693.67
766.73	1771.49
766.91	1763.30
767.09	1677.29
767.27	1648.61
767.44	1689.57
767.62	1787.88
767.80	1636.33
767.98	1699.81
768.15	1677.29
768.33	1761.25
768.51	1742.82
768.69	1691.62
768.87	1734.63
769.04	1677.29
769.22	1814.50
769.40	1798.12
769.58	1804.26
769.75	1734.63
769.93	1789.92
770.11	1679.33
770.28	1675.24
770.46	1751.01
770.64	1718.25
770.82	1685.48
770.99	1673.19
771.17	1767.40
771.35	1734.63
771.53	1699.81
771.70	1691.62
771.88	1736.68
772.06	1697.77
772.23	1730.53
772.41	1773.54
772.59	1714.15
772.77	1648.61
772.94	1656.81
773.12	1804.26
773.30	1705.96
773.47	1755.11
773.65	1662.95
773.83	1798.12
774.01	1681.38
774.18	1705.96
774.36	1714.15
774.54	1683.43
774.71	1693.67
774.89	1695.72
775.07	1681.38
775.24	1685.48
775.42	1697.77
775.60	1818.60
775.78	1691.62
775.95	1679.33
776.13	1558.50
776.31	1523.69
776.48	1726.44
776.66	1730.53
776.84	1587.18
777.01	1736.68
777.19	1636.33
777.37	1685.48
777.54	1701.86
777.72	1724.39
777.90	1710.05
778.07	1605.61
778.25	1923.04
778.43	1703.91
778.60	1732.58
778.78	1724.39
778.96	1837.03
779.13	1662.95
779.31	1802.21
779.49	1701.86
779.66	1681.38
779.84	1671.14
780.01	1669.09
780.19	1705.96
780.37	1808.36
780.54	1710.05
780.72	1652.71
780.90	1660.90
781.07	1675.24
781.25	1806.31
781.43	1773.54
781.60	1705.96
781.78	1712.10
781.95	1662.95
782.13	1644.52
782.31	1744.87
782.48	1644.52
782.66	1728.49
782.83	1869.80
783.01	1650.66
783.19	1765.35
783.36	1710.05
783.54	1665.00
783.72	1771.49
783.89	1742.82
784.07	1718.25
784.24	1669.09
784.42	1800.16
784.60	1708.01
784.77	1722.34
784.95	1603.56
785.12	1687.53
785.30	1775.59
785.47	1607.66
785.65	1607.66
785.83	1736.68
786.00	1701.86
786.18	1724.39
786.35	1675.24
786.53	1654.76
786.71	1742.82
786.88	1660.90
787.06	1697.77
787.23	1626.09
787.41	1626.09
787.58	1753.06
787.76	1585.13
787.94	1722.34
788.11	1697.77
788.29	1603.56
788.46	1740.77
788.64	1683.43
788.81	1652.71
788.99	1714.15
789.16	1660.90
789.34	1658.85
789.52	1718.25
789.69	1667.05
789.87	1605.61
790.04	1730.53
790.22	1665.00
790.39	1818.60
790.57	1748.97
790.74	1710.05
790.92	1771.49
791.09	1677.29
791.27	1804.26
791.44	1753.06
791.62	1675.24
791.79	1734.63
791.97	1806.31
792.15	1904.61
792.32	1701.86
792.50	1824.74
792.67	1816.55
792.85	1804.26
793.02	1730.53
793.20	1634.28
793.37	1701.86
793.55	1716.20
793.72	1570.79
793.90	1730.53
794.07	1658.85
794.25	1689.57
794.42	1732.58
794.60	1728.49
794.77	1697.77
794.95	1726.44
795.12	1738.73
795.30	1656.81
795.47	1644.52
795.65	1927.14
795.82	1634.28
796.00	1597.42
796.17	1767.40
796.34	1642.47
796.52	1812.45
796.69	1796.07
796.87	1763.30
797.04	1746.92
797.22	1681.38
797.39	1613.80
797.57	1744.87
797.74	1740.77
797.92	1683.43
798.09	1691.62
798.27	1703.91
798.44	1748.97
798.62	1605.61
798.79	1787.88
798.96	1726.44
799.14	1726.44
799.31	1884.13
799.49	1662.95
799.66	1755.11
799.84	1722.34
800.01	1705.96
800.19	1759.21
800.36	1574.89
800.53	1624.04
800.71	1769.44
800.88	1849.32
801.06	1705.96
801.23	1703.91
801.41	1783.78
801.58	1751.01
801.75	1722.34
801.93	1708.01
802.10	1693.67
802.28	1642.47
802.45	1681.38
802.63	1738.73
802.80	1824.74
802.97	1757.16
803.15	1712.10
803.32	1763.30
803.50	1701.86
803.67	1685.48
803.84	1628.14
804.02	1767.40
804.19	1656.81
804.37	1552.36
804.54	1677.29
804.71	1714.15
804.89	1642.47
805.06	1681.38
805.24	1718.25
805.41	1701.86
805.58	1665.00
805.76	1812.45
805.93	1759.21
806.10	1763.30
806.28	1710.05
806.45	1697.77
806.63	1720.29
806.80	1789.92
806.97	1779.68
807.15	1656.81
807.32	1716.20
807.49	1796.07
807.67	1726.44
807.84	1742.82
808.01	1576.94
808.19	1859.56
808.36	1814.50
808.54	1677.29
808.71	1718.25
808.88	1708.01
809.06	1779.68
809.23	1779.68
809.40	1642.47
809.58	1734.63
809.75	1708.01
809.92	1675.24
810.10	1761.25
810.27	1738.73
810.44	1691.62
810.62	1773.54
810.79	1744.87
810.96	1644.52
811.14	1701.86
811.31	1746.92
811.48	1726.44
811.66	1648.61
811.83	1716.20
812.00	1755.11
812.18	1724.39
812.35	1826.79
812.52	1703.91
812.69	1628.14
812.87	1734.63
813.04	1667.05
813.21	1712.10
813.39	1673.19
813.56	1656.81
813.73	1740.77
813.91	1593.32
814.08	1660.90
814.25	1769.44
814.42	1654.76
814.60	1671.14
814.77	1712.10
814.94	1691.62
815.12	1734.63
815.29	1730.53
815.46	1671.14
815.63	1638.38
815.81	1742.82
815.98	1703.91
816.15	1615.85
816.33	1701.86
816.50	1671.14
816.67	1751.01
816.84	1675.24
817.02	1689.57
817.19	1656.81
817.36	1695.72
817.53	1705.96
817.71	1636.33
817.88	1779.68
818.05	1683.43
818.22	1736.68
818.40	1853.41
818.57	1744.87
818.74	1693.67
818.91	1699.81
819.09	1722.34
819.26	1730.53
819.43	1611.75
819.60	1660.90
819.78	1763.30
819.95	1796.07
820.12	1665.00
820.29	1755.11
820.47	1787.88
820.64	1660.90
820.81	1679.33
820.98	1617.90
821.15	1630.18
821.33	1781.73
821.50	1578.98
821.67	1675.24
821.84	1654.76
822.02	1738.73
822.19	1773.54
822.36	1671.14
822.53	1638.38
822.70	1595.37
822.88	1646.57
823.05	1841.12
823.22	1689.57
823.39	1736.68
823.56	1689.57
823.74	1787.88
823.91	1658.85
824.08	1636.33
824.25	1603.56
824.42	1683.43
824.60	1540.07
824.77	1705.96
824.94	1644.52
825.11	1693.67
825.28	1576.94
825.45	1697.77
825.63	1726.44
825.80	1646.57
825.97	1730.53
826.14	1751.01
826.31	1638.38
826.48	1673.19
826.66	1630.18
826.83	1718.25
827.00	1677.29
827.17	1621.99
827.34	1708.01
827.51	1722.34
827.69	1767.40
827.86	1652.71
828.03	1673.19
828.20	1767.40
828.37	1658.85
828.54	1691.62
828.71	1675.24
828.89	1763.30
829.06	1667.05
829.23	1828.84
829.40	1630.18
829.57	1669.09
829.74	1755.11
829.91	1656.81
830.09	1673.19
830.26	1724.39
830.43	1734.63
830.60	1720.29
830.77	1765.35
830.94	1740.77
831.11	1724.39
831.28	1683.43
831.46	1757.16
831.63	1699.81
831.80	1787.88
831.97	1722.34
832.14	1705.96
832.31	1689.57
832.48	1685.48
832.65	1740.77
832.82	1699.81
832.99	1624.04
833.17	1677.29
833.34	1751.01
833.51	1759.21
833.68	1578.98
833.85	1736.68
834.02	1665.00
834.19	1626.09
834.36	1708.01
834.53	1691.62
834.70	1710.05
834.87	1753.06
835.04	1644.52
835.22	1667.05
835.39	1665.00
835.56	1642.47
835.73	1748.97
835.90	1773.54
836.07	1720.29
836.24	1787.88
836.41	1646.57
836.58	1626.09
836.75	1734.63
836.92	1685.48
837.09	1693.67
837.26	1734.63
837.43	1675.24
837.60	1654.76
837.77	1785.83
837.94	1781.73
838.12	1781.73
838.29	1685.48
838.46	1675.24
838.63	1662.95
838.80	1781.73
838.97	1812.45
839.14	1705.96
839.31	1708.01
839.48	1681.38
839.65	1710.05
839.82	1679.33
839.99	1685.48
840.16	1720.29
840.33	1703.91
840.50	1689.57
840.67	1681.38
840.84	1656.81
841.01	1736.68
841.18	1650.66
841.35	1646.57
841.52	1691.62
841.69	1767.40
841.86	1742.82
842.03	1794.02
842.20	1746.92
842.37	1675.24
842.54	1710.05
842.71	1693.67
842.88	1665.00
843.05	1814.50
843.22	1722.34
843.39	1755.11
843.56	1712.10
843.73	1726.44
843.90	1722.34
844.07	1726.44
844.24	1748.97
844.41	1722.34
844.58	1695.72
844.75	1714.15
844.92	1703.91
845.09	1650.66
845.26	1585.13
845.43	1677.29
845.60	1714.15
845.77	1712.10
845.94	1742.82
846.10	1734.63
846.27	1630.18
846.44	1601.51
846.61	1630.18
846.78	1736.68
846.95	1798.12
847.12	1683.43
847.29	1718.25
847.46	1734.63
847.63	1773.54
847.80	1726.44
847.97	1689.57
848.14	1841.12
848.31	1654.76
848.48	1634.28
848.65	1738.73
848.82	1679.33
848.98	1828.84
849.15	1785.83
849.32	1800.16
849.49	1787.88
849.66	1644.52
849.83	1787.88
850.00	1560.55
850.17	1687.53
850.34	1632.23
850.51	1591.27
850.68	1738.73
850.85	1755.11
851.01	1722.34
851.18	1697.77
851.35	1619.94
851.52	1703.91
851.69	1867.75
851.86	1593.32
852.03	1644.52
852.20	1779.68
852.37	1673.19
852.53	1585.13
852.70	1669.09
852.87	1703.91
853.04	1714.15
853.21	1769.44
853.38	1767.40
853.55	1765.35
853.72	1806.31
853.89	1665.00
854.05	1628.14
854.22	1697.77
854.39	1669.09
854.56	1687.53
854.73	1800.16
854.90	1656.81
855.07	1656.81
855.23	1683.43
855.40	1693.67
855.57	1652.71
855.74	1574.89
855.91	1880.04
856.08	1628.14
856.25	1585.13
856.41	1701.86
856.58	1685.48
856.75	1679.33
856.92	1658.85
857.09	1816.55
857.26	1656.81
857.42	1761.25
857.59	1755.11
857.76	1681.38
857.93	1728.49
858.10	1714.15
858.27	1660.90
858.43	1697.77
858.60	1619.94
858.77	1624.04
858.94	1763.30
859.11	1814.50
859.27	1650.66
859.44	1771.49
859.61	1841.12
859.78	1718.25
859.95	1656.81
860.12	1689.57
860.28	1781.73
860.45	1779.68
860.62	1656.81
860.79	1753.06
860.95	1669.09
861.12	1675.24
861.29	1708.01
861.46	1646.57
861.63	1710.05
861.79	1728.49
861.96	1648.61
862.13	1712.10
862.30	1800.16
862.47	1665.00
862.63	1542.12
862.80	1755.11
862.97	1787.88
863.14	1703.91
863.30	1755.11
863.47	1644.52
863.64	1859.56
863.81	1734.63
863.97	1744.87
864.14	1691.62
864.31	1673.19
864.48	1828.84
864.65	1667.05
864.81	1759.21
864.98	1708.01
865.15	1777.64
865.32	1710.05
865.48	1812.45
865.65	1785.83
865.82	1679.33
865.98	1718.25
866.15	1804.26
866.32	1693.67
866.49	1619.94
866.65	1716.20
866.82	1617.90
866.99	1710.05
867.16	1703.91
867.32	1634.28
867.49	1648.61
867.66	1699.81
867.83	1636.33
867.99	1587.18
868.16	1714.15
868.33	1640.42
868.49	1775.59
868.66	1660.90
868.83	1740.77
868.99	1677.29
869.16	1748.97
869.33	1726.44
869.50	1751.01
869.66	1665.00
869.83	1667.05
870.00	1593.32
870.16	1771.49
870.33	1730.53
870.50	1679.33
870.66	1755.11
870.83	1814.50
871.00	1650.66
871.17	1705.96
871.33	1683.43
871.50	1705.96
871.67	1673.19
871.83	1650.66
872.00	1845.22
872.17	1689.57
872.33	1820.64
872.50	1736.68
872.67	1630.18
872.83	1724.39
873.00	1624.04
873.17	1724.39
873.33	1714.15
873.50	1654.76
873.67	1646.57
873.83	1665.00
874.00	1697.77
874.16	1773.54
874.33	1697.77
874.50	1613.80
874.66	1730.53
874.83	1724.39
875.00	1812.45
875.16	1724.39
875.33	1812.45
875.50	1607.66
875.66	1675.24
875.83	1679.33
875.99	1740.77
876.16	1675.24
876.33	1665.00
876.49	1691.62
876.66	1714.15
876.83	1738.73
876.99	1660.90
877.16	1691.62
877.32	1693.67
877.49	1677.29
877.66	1710.05
877.82	1796.07
877.99	1681.38
878.15	1789.92
878.32	1687.53
878.49	1720.29
878.65	1714.15
878.82	1744.87
878.98	1712.10
879.15	1802.21
879.32	1740.77
879.48	1712.10
879.65	1605.61
879.81	1667.05
879.98	1748.97
880.15	1679.33
880.31	1726.44
880.48	1603.56
880.64	1779.68
880.81	1753.06
880.97	1812.45
881.14	1710.05
881.31	1689.57
881.47	1806.31
881.64	1697.77
881.80	1685.48
881.97	1699.81
882.13	1755.11
882.30	1630.18
882.47	1540.07
882.63	1662.95
882.80	1615.85
882.96	1685.48
883.13	1800.16
883.29	1712.10
883.46	1710.05
883.62	1755.11
883.79	1693.67
883.95	1671.14
884.12	1724.39
884.29	1763.30
884.45	1722.34
884.62	1671.14
884.78	1658.85
884.95	1832.93
885.11	1681.38
885.28	1665.00
885.44	1650.66
885.61	1712.10
885.77	1806.31
885.94	1724.39
886.10	1691.62
886.27	1755.11
886.43	1826.79
886.60	1822.69
886.76	1697.77
886.93	1597.42
887.09	1775.59
887.26	1613.80
887.42	1681.38
887.59	1701.86
887.75	1869.80
887.92	1834.98
888.08	1777.64
888.25	1873.89
888.41	1765.35
888.58	1695.72
888.74	1685.48
888.91	1644.52
>>>>>End Processed Spectral Data<<<<<
