SpectraSuite Data File
++++++++++++++++++++++++++++++++++++
Date: Wed May 04 18:44:25 CEST 2016
User: root
Dark Spectrum Present: No
Reference Spectrum Present: No
Number of Sampled Component Spectra: 1
Spectrometers: USB4C02835
Integration Time (usec): 100000 (USB4C02835)
Spectra Averaged: 1 (USB4C02835)
Boxcar Smoothing: 0 (USB4C02835)
Correct for Electrical Dark: No (USB4C02835)
Strobe/Lamp Enabled: No (USB4C02835)
Correct for Detector Non-linearity: No (USB4C02835)
Correct for Stray Light: No (USB4C02835)
Number of Pixels in Processed Spectrum: 3648
>>>>>Begin Processed Spectral Data<<<<<
177.47	1443.82
177.69	1443.82
177.91	1443.82
178.13	1492.97
178.36	1458.15
178.58	1652.71
178.80	1830.88
179.02	1675.24
179.24	1646.57
179.46	1615.85
179.68	1759.21
179.90	1748.97
180.13	1667.05
180.35	1630.18
180.57	1724.39
180.79	1718.25
181.01	1679.33
181.23	1791.97
181.45	1742.82
181.67	1757.16
181.90	1789.92
182.12	1644.52
182.34	1617.90
182.56	1705.96
182.78	1681.38
183.00	1705.96
183.22	1689.57
183.44	1617.90
183.66	1785.83
183.89	1798.12
184.11	1763.30
184.33	1701.86
184.55	1791.97
184.77	1755.11
184.99	1720.29
185.21	1673.19
185.43	1865.70
185.65	1716.20
185.87	1722.34
186.10	1845.22
186.32	1849.32
186.54	1695.72
186.76	1738.73
186.98	1761.25
187.20	1665.00
187.42	1718.25
187.64	1701.86
187.86	1724.39
188.08	1699.81
188.30	1673.19
188.52	1658.85
188.75	1773.54
188.97	1820.64
189.19	1708.01
189.41	1705.96
189.63	1685.48
189.85	1712.10
190.07	1665.00
190.29	1703.91
190.51	1769.44
190.73	1632.23
190.95	1748.97
191.17	1638.38
191.39	1683.43
191.61	1689.57
191.84	1603.56
192.06	1806.31
192.28	1640.42
192.50	1849.32
192.72	1730.53
192.94	1640.42
193.16	1681.38
193.38	1673.19
193.60	1740.77
193.82	1701.86
194.04	1828.84
194.26	1806.31
194.48	1742.82
194.70	1652.71
194.92	1712.10
195.14	1722.34
195.36	1722.34
195.58	1654.76
195.80	1767.40
196.02	1638.38
196.24	1681.38
196.46	1683.43
196.69	1662.95
196.91	1857.51
197.13	1656.81
197.35	1691.62
197.57	1759.21
197.79	1687.53
198.01	1736.68
198.23	1740.77
198.45	1693.67
198.67	1656.81
198.89	1697.77
199.11	1697.77
199.33	1673.19
199.55	1591.27
199.77	1658.85
199.99	1746.92
200.21	1617.90
200.43	1654.76
200.65	1744.87
200.87	1560.55
201.09	1734.63
201.31	1675.24
201.53	1742.82
201.75	1658.85
201.97	1732.58
202.19	1662.95
202.41	1683.43
202.63	1849.32
202.85	1732.58
203.07	1714.15
203.29	1648.61
203.51	1675.24
203.73	1669.09
203.95	1949.67
204.17	1701.86
204.39	1705.96
204.61	1683.43
204.83	1683.43
205.05	1710.05
205.27	1804.26
205.49	1796.07
205.71	1665.00
205.93	1587.18
206.15	1628.14
206.37	1644.52
206.59	1650.66
206.81	1656.81
207.03	1648.61
207.25	1605.61
207.47	1763.30
207.69	1785.83
207.91	1687.53
208.13	1791.97
208.34	1703.91
208.56	1656.81
208.78	1654.76
209.00	1718.25
209.22	1656.81
209.44	1685.48
209.66	1677.29
209.88	1787.88
210.10	1724.39
210.32	1652.71
210.54	1806.31
210.76	1669.09
210.98	1771.49
211.20	1538.02
211.42	1689.57
211.64	1728.49
211.86	1685.48
212.08	1734.63
212.30	1728.49
212.52	1779.68
212.74	1746.92
212.96	1734.63
213.17	1720.29
213.39	1763.30
213.61	1804.26
213.83	1826.79
214.05	1697.77
214.27	1757.16
214.49	1587.18
214.71	1632.23
214.93	1812.45
215.15	1640.42
215.37	1757.16
215.59	1640.42
215.81	1683.43
216.03	1820.64
216.24	1677.29
216.46	1701.86
216.68	1669.09
216.90	1783.78
217.12	1787.88
217.34	1730.53
217.56	1689.57
217.78	1824.74
218.00	1716.20
218.22	1720.29
218.44	1699.81
218.66	1705.96
218.87	1822.69
219.09	1701.86
219.31	1716.20
219.53	1724.39
219.75	1658.85
219.97	1689.57
220.19	1697.77
220.41	1722.34
220.63	1757.16
220.85	1660.90
221.06	1681.38
221.28	1814.50
221.50	1726.44
221.72	1693.67
221.94	1726.44
222.16	1705.96
222.38	1722.34
222.60	1742.82
222.82	1652.71
223.03	1791.97
223.25	1626.09
223.47	1644.52
223.69	1818.60
223.91	1845.22
224.13	1697.77
224.35	1667.05
224.57	1751.01
224.78	1722.34
225.00	1687.53
225.22	1677.29
225.44	1755.11
225.66	1806.31
225.88	1669.09
226.10	1761.25
226.32	1751.01
226.53	1767.40
226.75	1687.53
226.97	1785.83
227.19	1634.28
227.41	1658.85
227.63	1722.34
227.85	1644.52
228.06	1732.58
228.28	1742.82
228.50	1705.96
228.72	1644.52
228.94	1685.48
229.16	1648.61
229.37	1630.18
229.59	1675.24
229.81	1765.35
230.03	1601.51
230.25	1662.95
230.47	1634.28
230.69	1638.38
230.90	1769.44
231.12	1660.90
231.34	1736.68
231.56	1689.57
231.78	1652.71
232.00	1687.53
232.21	1687.53
232.43	1730.53
232.65	1517.54
232.87	1751.01
233.09	1650.66
233.30	1632.23
233.52	1789.92
233.74	1724.39
233.96	1669.09
234.18	1753.06
234.40	1654.76
234.61	1814.50
234.83	1599.46
235.05	1591.27
235.27	1810.40
235.49	1718.25
235.70	1710.05
235.92	1691.62
236.14	1738.73
236.36	1806.31
236.58	1640.42
236.79	1714.15
237.01	1689.57
237.23	1742.82
237.45	1775.59
237.67	1654.76
237.88	1705.96
238.10	1769.44
238.32	1685.48
238.54	1708.01
238.76	1695.72
238.97	1736.68
239.19	1736.68
239.41	1748.97
239.63	1714.15
239.85	1718.25
240.06	1720.29
240.28	1642.47
240.50	1736.68
240.72	1759.21
240.93	1695.72
241.15	1724.39
241.37	1740.77
241.59	1740.77
241.81	1767.40
242.02	1703.91
242.24	1742.82
242.46	1736.68
242.68	1630.18
242.89	1763.30
243.11	1810.40
243.33	1705.96
243.55	1755.11
243.76	1644.52
243.98	1683.43
244.20	1724.39
244.42	1736.68
244.64	1673.19
244.85	1601.51
245.07	1685.48
245.29	1718.25
245.51	1716.20
245.72	1705.96
245.94	1832.93
246.16	1683.43
246.38	1806.31
246.59	1693.67
246.81	1634.28
247.03	1656.81
247.24	1626.09
247.46	1626.09
247.68	1708.01
247.90	1714.15
248.11	1738.73
248.33	1720.29
248.55	1687.53
248.77	1714.15
248.98	1751.01
249.20	1757.16
249.42	1753.06
249.64	1761.25
249.85	1757.16
250.07	1695.72
250.29	1714.15
250.50	1775.59
250.72	1621.99
250.94	1757.16
251.16	1763.30
251.37	1724.39
251.59	1738.73
251.81	1763.30
252.02	1802.21
252.24	1742.82
252.46	1808.36
252.68	1597.42
252.89	1650.66
253.11	1626.09
253.33	1800.16
253.54	1775.59
253.76	1595.37
253.98	1630.18
254.20	1722.34
254.41	1628.14
254.63	1669.09
254.85	1568.74
255.06	1722.34
255.28	1654.76
255.50	1705.96
255.71	1675.24
255.93	1648.61
256.15	1644.52
256.36	1773.54
256.58	1646.57
256.80	1724.39
257.02	1628.14
257.23	1722.34
257.45	1714.15
257.67	1785.83
257.88	1689.57
258.10	1824.74
258.32	1804.26
258.53	1744.87
258.75	1714.15
258.97	1654.76
259.18	1734.63
259.40	1765.35
259.62	1800.16
259.83	1800.16
260.05	1722.34
260.27	2015.20
260.48	1738.73
260.70	1677.29
260.92	1708.01
261.13	1761.25
261.35	1728.49
261.57	1736.68
261.78	1585.13
262.00	1624.04
262.22	1796.07
262.43	1626.09
262.65	1691.62
262.86	1705.96
263.08	1812.45
263.30	1751.01
263.51	1632.23
263.73	1675.24
263.95	1818.60
264.16	1724.39
264.38	1689.57
264.60	1742.82
264.81	1669.09
265.03	1683.43
265.25	1765.35
265.46	1708.01
265.68	1767.40
265.89	1746.92
266.11	1611.75
266.33	1724.39
266.54	1804.26
266.76	1757.16
266.98	1761.25
267.19	1759.21
267.41	1806.31
267.62	1765.35
267.84	1632.23
268.06	1738.73
268.27	1769.44
268.49	1777.64
268.70	1730.53
268.92	1652.71
269.14	1712.10
269.35	1675.24
269.57	1654.76
269.79	1691.62
270.00	1726.44
270.22	1742.82
270.43	1591.27
270.65	1560.55
270.87	1775.59
271.08	1785.83
271.30	1796.07
271.51	1703.91
271.73	1800.16
271.95	1832.93
272.16	1759.21
272.38	1677.29
272.59	1658.85
272.81	1779.68
273.02	1726.44
273.24	1697.77
273.46	1755.11
273.67	1660.90
273.89	1626.09
274.10	1628.14
274.32	1669.09
274.54	1691.62
274.75	1742.82
274.97	1665.00
275.18	1705.96
275.40	1718.25
275.61	1658.85
275.83	1689.57
276.05	1601.51
276.26	1607.66
276.48	1728.49
276.69	1685.48
276.91	1736.68
277.12	1730.53
277.34	1732.58
277.55	1742.82
277.77	1728.49
277.99	1648.61
278.20	1630.18
278.42	1677.29
278.63	1691.62
278.85	1675.24
279.06	1621.99
279.28	1714.15
279.49	1732.58
279.71	1701.86
279.93	1615.85
280.14	1802.21
280.36	1632.23
280.57	1708.01
280.79	1724.39
281.00	1679.33
281.22	1683.43
281.43	1802.21
281.65	1638.38
281.86	1624.04
282.08	1796.07
282.29	1777.64
282.51	1687.53
282.73	1648.61
282.94	1701.86
283.16	1765.35
283.37	1789.92
283.59	1619.94
283.80	1665.00
284.02	1665.00
284.23	1691.62
284.45	1677.29
284.66	1650.66
284.88	1708.01
285.09	1738.73
285.31	1695.72
285.52	1742.82
285.74	1591.27
285.95	1761.25
286.17	1787.88
286.38	1757.16
286.60	1689.57
286.81	1665.00
287.03	1757.16
287.24	1722.34
287.46	1732.58
287.67	1796.07
287.89	1800.16
288.10	1636.33
288.32	1705.96
288.53	1751.01
288.75	1712.10
288.96	1775.59
289.18	1671.14
289.39	1718.25
289.61	1832.93
289.82	1832.93
290.04	1761.25
290.25	1673.19
290.47	1701.86
290.68	1652.71
290.90	1718.25
291.11	1646.57
291.33	1871.84
291.54	1597.42
291.76	1648.61
291.97	1722.34
292.18	1646.57
292.40	1648.61
292.61	1740.77
292.83	1900.52
293.04	1730.53
293.26	1716.20
293.47	1652.71
293.69	1636.33
293.90	1673.19
294.12	1810.40
294.33	1654.76
294.55	1757.16
294.76	1697.77
294.97	1785.83
295.19	1841.12
295.40	1621.99
295.62	1710.05
295.83	1742.82
296.05	1714.15
296.26	1759.21
296.48	1673.19
296.69	1699.81
296.90	1683.43
297.12	1826.79
297.33	1791.97
297.55	1701.86
297.76	1751.01
297.98	1791.97
298.19	1689.57
298.41	1751.01
298.62	1671.14
298.83	1837.03
299.05	1718.25
299.26	1617.90
299.48	1628.14
299.69	1763.30
299.90	1697.77
300.12	1560.55
300.33	1724.39
300.55	1669.09
300.76	1710.05
300.98	1665.00
301.19	1714.15
301.40	1699.81
301.62	1679.33
301.83	1675.24
302.05	1744.87
302.26	1669.09
302.47	1714.15
302.69	1626.09
302.90	1730.53
303.12	1611.75
303.33	1765.35
303.54	1767.40
303.76	1683.43
303.97	1679.33
304.19	1816.55
304.40	1642.47
304.61	1693.67
304.83	1751.01
305.04	1757.16
305.26	1722.34
305.47	1656.81
305.68	1699.81
305.90	1658.85
306.11	1755.11
306.33	1673.19
306.54	1640.42
306.75	1632.23
306.97	1640.42
307.18	1697.77
307.39	1697.77
307.61	1734.63
307.82	1695.72
308.04	1779.68
308.25	1677.29
308.46	1755.11
308.68	1697.77
308.89	1718.25
309.10	1781.73
309.32	1751.01
309.53	1634.28
309.74	1755.11
309.96	1624.04
310.17	1791.97
310.39	1632.23
310.60	1728.49
310.81	1810.40
311.03	1685.48
311.24	1730.53
311.45	1665.00
311.67	1896.42
311.88	1673.19
312.09	1716.20
312.31	1732.58
312.52	1728.49
312.73	1732.58
312.95	1669.09
313.16	1679.33
313.37	1757.16
313.59	1705.96
313.80	1814.50
314.01	1751.01
314.23	1697.77
314.44	1769.44
314.65	1601.51
314.87	1689.57
315.08	1685.48
315.29	1632.23
315.51	1710.05
315.72	1609.70
315.93	1769.44
316.15	1802.21
316.36	1671.14
316.57	1722.34
316.79	1746.92
317.00	1681.38
317.21	1759.21
317.43	1665.00
317.64	1724.39
317.85	1734.63
318.07	1673.19
318.28	1769.44
318.49	1935.33
318.70	2064.35
318.92	1900.52
319.13	1871.84
319.34	1957.86
319.56	1914.85
319.77	1869.80
319.98	1816.55
320.20	1789.92
320.41	1851.36
320.62	1765.35
320.83	1642.47
321.05	1824.74
321.26	1724.39
321.47	1669.09
321.69	1822.69
321.90	1636.33
322.11	1767.40
322.32	1722.34
322.54	1816.55
322.75	1732.58
322.96	1863.65
323.18	1656.81
323.39	1624.04
323.60	1681.38
323.81	1759.21
324.03	1626.09
324.24	1720.29
324.45	1720.29
324.66	1714.15
324.88	1791.97
325.09	1787.88
325.30	1720.29
325.52	1718.25
325.73	1654.76
325.94	1597.42
326.15	1669.09
326.37	1708.01
326.58	1732.58
326.79	1865.70
327.00	1681.38
327.22	1736.68
327.43	1693.67
327.64	1601.51
327.85	1634.28
328.07	1658.85
328.28	1814.50
328.49	1607.66
328.70	1701.86
328.92	1728.49
329.13	1738.73
329.34	1828.84
329.55	1759.21
329.76	1763.30
329.98	1705.96
330.19	1712.10
330.40	1742.82
330.61	1722.34
330.83	1808.36
331.04	1665.00
331.25	1658.85
331.46	1679.33
331.68	1607.66
331.89	1687.53
332.10	1705.96
332.31	1708.01
332.52	1691.62
332.74	1867.75
332.95	1648.61
333.16	1617.90
333.37	1746.92
333.58	1681.38
333.80	1669.09
334.01	1681.38
334.22	1720.29
334.43	1708.01
334.64	1716.20
334.86	1646.57
335.07	1699.81
335.28	1781.73
335.49	1679.33
335.70	1763.30
335.92	1800.16
336.13	1767.40
336.34	1769.44
336.55	1718.25
336.76	1705.96
336.98	1665.00
337.19	1648.61
337.40	1822.69
337.61	1886.18
337.82	1689.57
338.04	1769.44
338.25	1607.66
338.46	1718.25
338.67	1650.66
338.88	1609.70
339.09	1687.53
339.31	1708.01
339.52	1673.19
339.73	1599.46
339.94	1611.75
340.15	1681.38
340.36	1617.90
340.58	1773.54
340.79	1705.96
341.00	1767.40
341.21	1617.90
341.42	1834.98
341.63	1714.15
341.85	1796.07
342.06	1720.29
342.27	1648.61
342.48	1765.35
342.69	1615.85
342.90	1697.77
343.12	1740.77
343.33	1697.77
343.54	1830.88
343.75	1779.68
343.96	1695.72
344.17	1626.09
344.38	1667.05
344.60	1652.71
344.81	1667.05
345.02	1667.05
345.23	1734.63
345.44	1865.70
345.65	1814.50
345.86	1730.53
346.07	1734.63
346.29	1757.16
346.50	1726.44
346.71	1738.73
346.92	1806.31
347.13	1806.31
347.34	1685.48
347.55	1636.33
347.76	1718.25
347.98	1640.42
348.19	1687.53
348.40	1789.92
348.61	1685.48
348.82	1779.68
349.03	1746.92
349.24	1716.20
349.45	1828.84
349.66	1593.32
349.88	1730.53
350.09	1701.86
350.30	1730.53
350.51	1771.49
350.72	1687.53
350.93	1769.44
351.14	1681.38
351.35	1734.63
351.56	1693.67
351.77	1755.11
351.99	1679.33
352.20	1732.58
352.41	1820.64
352.62	1601.51
352.83	1724.39
353.04	1748.97
353.25	1632.23
353.46	1767.40
353.67	1658.85
353.88	1607.66
354.09	1755.11
354.30	1669.09
354.52	1701.86
354.73	1722.34
354.94	1705.96
355.15	1765.35
355.36	1824.74
355.57	1693.67
355.78	1705.96
355.99	1626.09
356.20	1697.77
356.41	1773.54
356.62	1714.15
356.83	1710.05
357.04	1845.22
357.25	1601.51
357.46	1746.92
357.68	1648.61
357.89	1660.90
358.10	1742.82
358.31	1720.29
358.52	1722.34
358.73	1667.05
358.94	1619.94
359.15	1746.92
359.36	1740.77
359.57	1728.49
359.78	1736.68
359.99	1798.12
360.20	1675.24
360.41	1697.77
360.62	1710.05
360.83	1695.72
361.04	1714.15
361.25	1822.69
361.46	1849.32
361.67	1738.73
361.88	1640.42
362.09	1794.02
362.30	1761.25
362.51	1675.24
362.72	1722.34
362.93	1794.02
363.14	1738.73
363.35	1708.01
363.56	1638.38
363.78	1660.90
363.99	1744.87
364.20	1681.38
364.41	1816.55
364.62	1787.88
364.83	1710.05
365.04	1773.54
365.25	1775.59
365.46	1824.74
365.67	1617.90
365.88	1695.72
366.09	1697.77
366.30	1685.48
366.51	1669.09
366.72	1683.43
366.93	1681.38
367.14	1650.66
367.35	1744.87
367.56	1800.16
367.77	1806.31
367.98	1701.86
368.18	1683.43
368.39	1728.49
368.60	1748.97
368.81	1695.72
369.02	1681.38
369.23	1730.53
369.44	1665.00
369.65	1716.20
369.86	1708.01
370.07	1703.91
370.28	1677.29
370.49	1675.24
370.70	1703.91
370.91	1642.47
371.12	1615.85
371.33	1710.05
371.54	1746.92
371.75	1818.60
371.96	1611.75
372.17	1742.82
372.38	1656.81
372.59	1769.44
372.80	1613.80
373.01	1691.62
373.22	1671.14
373.43	1699.81
373.64	1628.14
373.85	1755.11
374.06	1828.84
374.26	1734.63
374.47	1728.49
374.68	1845.22
374.89	1789.92
375.10	1742.82
375.31	1832.93
375.52	1718.25
375.73	1667.05
375.94	1681.38
376.15	1808.36
376.36	1718.25
376.57	1646.57
376.78	1617.90
376.99	1746.92
377.20	1703.91
377.40	1671.14
377.61	1826.79
377.82	1710.05
378.03	1787.88
378.24	1816.55
378.45	1691.62
378.66	1718.25
378.87	1693.67
379.08	1599.46
379.29	1677.29
379.50	1769.44
379.71	1726.44
379.91	1787.88
380.12	1783.78
380.33	1693.67
380.54	1656.81
380.75	1693.67
380.96	1714.15
381.17	1753.06
381.38	1742.82
381.59	1779.68
381.80	1730.53
382.00	1896.42
382.21	1847.27
382.42	1796.07
382.63	1888.23
382.84	1746.92
383.05	1753.06
383.26	1779.68
383.47	1732.58
383.68	1730.53
383.88	1843.17
384.09	1746.92
384.30	1761.25
384.51	1777.64
384.72	1656.81
384.93	1683.43
385.14	1726.44
385.35	1841.12
385.55	1699.81
385.76	1798.12
385.97	1746.92
386.18	1632.23
386.39	1724.39
386.60	1691.62
386.81	1699.81
387.02	1632.23
387.22	1677.29
387.43	1798.12
387.64	1900.52
387.85	1949.67
388.06	2252.77
388.27	4681.66
388.48	9234.29
388.68	11579.22
388.89	13520.69
389.10	14012.20
389.31	11884.36
389.52	9690.99
389.73	8632.19
389.93	7819.14
390.14	7143.32
390.35	6627.23
390.56	5842.85
390.77	4995.00
390.98	3958.72
391.18	2994.13
391.39	2332.64
391.60	1920.99
391.81	1902.56
392.02	1759.21
392.23	1875.94
392.43	1746.92
392.64	1771.49
392.85	1785.83
393.06	1863.65
393.27	1732.58
393.47	1697.77
393.68	1693.67
393.89	1685.48
394.10	1777.64
394.31	1619.94
394.52	1665.00
394.72	1656.81
394.93	1765.35
395.14	1640.42
395.35	1759.21
395.56	1648.61
395.76	1734.63
395.97	1818.60
396.18	1910.75
396.39	1910.75
396.60	2045.92
396.80	1976.29
397.01	1904.61
397.22	1906.66
397.43	1841.12
397.64	1789.92
397.84	1771.49
398.05	1787.88
398.26	1771.49
398.47	1849.32
398.67	1783.78
398.88	1751.01
399.09	1781.73
399.30	1775.59
399.51	1781.73
399.71	1626.09
399.92	1708.01
400.13	1755.11
400.34	1650.66
400.54	1685.48
400.75	1824.74
400.96	1773.54
401.17	1820.64
401.37	1781.73
401.58	1730.53
401.79	1677.29
402.00	1927.14
402.21	2064.35
402.41	2103.26
402.62	2168.80
402.83	2197.47
403.04	2164.70
403.24	2181.09
403.45	1822.69
403.66	1933.28
403.87	1927.14
404.07	1984.48
404.28	1966.05
404.49	1941.47
404.70	1808.36
404.90	1855.46
405.11	1800.16
405.32	1767.40
405.52	1755.11
405.73	1658.85
405.94	1671.14
406.15	1761.25
406.35	1789.92
406.56	1832.93
406.77	1753.06
406.98	1738.73
407.18	1581.03
407.39	1818.60
407.60	1693.67
407.80	1777.64
408.01	1695.72
408.22	1730.53
408.43	1677.29
408.63	1691.62
408.84	1804.26
409.05	1785.83
409.25	1732.58
409.46	1697.77
409.67	1640.42
409.88	1687.53
410.08	1693.67
410.29	1644.52
410.50	1710.05
410.70	1732.58
410.91	1695.72
411.12	1734.63
411.32	1730.53
411.53	1757.16
411.74	1828.84
411.95	1837.03
412.15	1779.68
412.36	1791.97
412.57	1855.46
412.77	1855.46
412.98	1728.49
413.19	1693.67
413.39	1765.35
413.60	1761.25
413.81	1873.89
414.01	1636.33
414.22	1908.71
414.43	1697.77
414.63	1689.57
414.84	1732.58
415.05	1621.99
415.25	1642.47
415.46	1728.49
415.67	1744.87
415.87	1710.05
416.08	1699.81
416.29	1746.92
416.49	1783.78
416.70	1675.24
416.91	1685.48
417.11	1732.58
417.32	1755.11
417.53	1818.60
417.73	1783.78
417.94	1669.09
418.15	1730.53
418.35	1673.19
418.56	1705.96
418.77	1902.56
418.97	1767.40
419.18	1640.42
419.38	1605.61
419.59	1621.99
419.80	1830.88
420.00	1646.57
420.21	1634.28
420.42	1746.92
420.62	1771.49
420.83	1681.38
421.04	1705.96
421.24	1738.73
421.45	1736.68
421.65	1656.81
421.86	1738.73
422.07	1798.12
422.27	1722.34
422.48	1785.83
422.69	1732.58
422.89	1689.57
423.10	1673.19
423.30	1675.24
423.51	1650.66
423.72	1757.16
423.92	1732.58
424.13	1597.42
424.33	1685.48
424.54	1738.73
424.75	1669.09
424.95	1828.84
425.16	1796.07
425.36	1683.43
425.57	1742.82
425.78	1716.20
425.98	1765.35
426.19	1726.44
426.39	1705.96
426.60	1738.73
426.81	1843.17
427.01	1640.42
427.22	1638.38
427.42	1601.51
427.63	1654.76
427.83	1757.16
428.04	1791.97
428.25	1701.86
428.45	1783.78
428.66	1748.97
428.86	1746.92
429.07	1685.48
429.28	1746.92
429.48	1624.04
429.69	1615.85
429.89	1746.92
430.10	1626.09
430.30	1720.29
430.51	1695.72
430.71	1732.58
430.92	1658.85
431.13	1687.53
431.33	1673.19
431.54	1755.11
431.74	1830.88
431.95	1861.60
432.15	1574.89
432.36	1726.44
432.56	1708.01
432.77	1804.26
432.98	1818.60
433.18	1773.54
433.39	1746.92
433.59	1728.49
433.80	1916.90
434.00	1888.23
434.21	1609.70
434.41	1605.61
434.62	1890.28
434.82	1673.19
435.03	1685.48
435.23	1767.40
435.44	1644.52
435.64	1746.92
435.85	1710.05
436.06	1742.82
436.26	1710.05
436.47	1683.43
436.67	1708.01
436.88	1683.43
437.08	1798.12
437.29	1834.98
437.49	1722.34
437.70	1845.22
437.90	1763.30
438.11	1812.45
438.31	1845.22
438.52	1826.79
438.72	1941.47
438.93	1943.52
439.13	1849.32
439.34	1802.21
439.54	1798.12
439.75	1810.40
439.95	1814.50
440.16	1763.30
440.36	1822.69
440.57	1812.45
440.77	1802.21
440.98	1724.39
441.18	1785.83
441.39	1710.05
441.59	1742.82
441.80	1841.12
442.00	1687.53
442.21	1761.25
442.41	1662.95
442.62	1806.31
442.82	1617.90
443.02	1681.38
443.23	1785.83
443.43	1740.77
443.64	1828.84
443.84	1812.45
444.05	1808.36
444.25	1816.55
444.46	1763.30
444.66	1789.92
444.87	1841.12
445.07	1636.33
445.28	1722.34
445.48	1806.31
445.69	1718.25
445.89	1959.91
446.09	1773.54
446.30	2105.31
446.50	2559.96
446.71	4169.66
446.91	5070.77
447.12	5795.75
447.32	5984.16
447.53	5285.81
447.73	4456.38
447.93	3960.77
448.14	3706.82
448.34	3450.83
448.55	3155.92
448.75	3059.67
448.96	2992.08
449.16	2596.82
449.36	2504.67
449.57	2207.71
449.77	1939.43
449.98	1804.26
450.18	1837.03
450.39	1777.64
450.59	1757.16
450.79	1759.21
451.00	1728.49
451.20	1785.83
451.41	1800.16
451.61	1726.44
451.81	1746.92
452.02	1728.49
452.22	1771.49
452.43	1728.49
452.63	1691.62
452.84	1722.34
453.04	1724.39
453.24	1769.44
453.45	1665.00
453.65	1773.54
453.86	1771.49
454.06	1732.58
454.26	1738.73
454.47	1673.19
454.67	1751.01
454.87	1796.07
455.08	1753.06
455.28	1834.98
455.49	1757.16
455.69	1744.87
455.89	1863.65
456.10	1728.49
456.30	1658.85
456.51	1796.07
456.71	1646.57
456.91	1695.72
457.12	1769.44
457.32	1748.97
457.52	1642.47
457.73	1800.16
457.93	1744.87
458.14	1644.52
458.34	1667.05
458.54	1710.05
458.75	1775.59
458.95	1761.25
459.15	1765.35
459.36	1824.74
459.56	1722.34
459.76	1886.18
459.97	1751.01
460.17	1742.82
460.37	1822.69
460.58	1734.63
460.78	1796.07
460.99	1699.81
461.19	1742.82
461.39	1644.52
461.60	1730.53
461.80	1708.01
462.00	1710.05
462.21	1673.19
462.41	1705.96
462.61	1699.81
462.82	1656.81
463.02	1789.92
463.22	1746.92
463.43	1800.16
463.63	1814.50
463.83	1802.21
464.04	1714.15
464.24	1697.77
464.44	1613.80
464.64	1681.38
464.85	1767.40
465.05	1818.60
465.25	1765.35
465.46	1679.33
465.66	1824.74
465.86	1726.44
466.07	1679.33
466.27	1685.48
466.47	1660.90
466.68	1689.57
466.88	1804.26
467.08	1759.21
467.29	1783.78
467.49	1699.81
467.69	1689.57
467.89	1761.25
468.10	1726.44
468.30	1656.81
468.50	1767.40
468.71	1730.53
468.91	1644.52
469.11	1763.30
469.31	1742.82
469.52	1730.53
469.72	1804.26
469.92	1839.08
470.13	1699.81
470.33	1736.68
470.53	1894.37
470.73	2166.75
470.94	2572.25
471.14	2713.56
471.34	2947.03
471.54	2932.69
471.75	2598.87
471.95	2349.02
472.15	2197.47
472.36	2287.58
472.56	2144.22
472.76	2213.85
472.96	2148.32
473.17	2041.82
473.37	1974.24
473.57	1834.98
473.77	1859.56
473.98	1839.08
474.18	1701.86
474.38	1931.23
474.58	1732.58
474.79	1681.38
474.99	1796.07
475.19	1734.63
475.39	1656.81
475.60	1769.44
475.80	1738.73
476.00	1656.81
476.20	1689.57
476.41	1763.30
476.61	1873.89
476.81	1783.78
477.01	1683.43
477.21	1841.12
477.42	1843.17
477.62	1681.38
477.82	1814.50
478.02	1726.44
478.23	1775.59
478.43	1757.16
478.63	1693.67
478.83	1736.68
479.03	1658.85
479.24	1816.55
479.44	1890.28
479.64	1697.77
479.84	1560.55
480.04	1746.92
480.25	1839.08
480.45	1591.27
480.65	1714.15
480.85	1818.60
481.06	1701.86
481.26	1800.16
481.46	1681.38
481.66	1701.86
481.86	1703.91
482.06	1820.64
482.27	1779.68
482.47	1613.80
482.67	1697.77
482.87	1798.12
483.07	1777.64
483.28	1673.19
483.48	1722.34
483.68	1720.29
483.88	1675.24
484.08	1617.90
484.29	1642.47
484.49	1718.25
484.69	1683.43
484.89	1796.07
485.09	1763.30
485.29	1728.49
485.50	1734.63
485.70	1710.05
485.90	1812.45
486.10	1742.82
486.30	1816.55
486.50	1759.21
486.71	1785.83
486.91	1728.49
487.11	1816.55
487.31	1585.13
487.51	1771.49
487.71	1671.14
487.91	1734.63
488.12	1605.61
488.32	1648.61
488.52	1708.01
488.72	1640.42
488.92	1703.91
489.12	1781.73
489.32	1773.54
489.53	1748.97
489.73	1630.18
489.93	1755.11
490.13	1728.49
490.33	1609.70
490.53	1705.96
490.73	1771.49
490.94	1689.57
491.14	1712.10
491.34	1773.54
491.54	2133.98
491.74	2668.50
491.94	3243.98
492.14	3477.45
492.34	3499.98
492.54	3155.92
492.75	2691.03
492.95	2566.10
493.15	2416.60
493.35	2414.56
493.55	2267.10
493.75	2230.24
493.95	2224.09
494.15	2121.70
494.35	1986.53
494.56	1966.05
494.76	1898.47
494.96	1812.45
495.16	1806.31
495.36	1716.20
495.56	1746.92
495.76	1746.92
495.96	1689.57
496.16	1701.86
496.36	1820.64
496.56	1675.24
496.77	1761.25
496.97	1710.05
497.17	1775.59
497.37	1683.43
497.57	1714.15
497.77	1771.49
497.97	1658.85
498.17	1667.05
498.37	1751.01
498.57	1681.38
498.77	1656.81
498.97	1767.40
499.17	1845.22
499.38	1726.44
499.58	1759.21
499.78	1808.36
499.98	1796.07
500.18	1755.11
500.38	1693.67
500.58	1804.26
500.78	2430.94
500.98	4695.99
501.18	6725.53
501.38	8251.27
501.58	8970.10
501.78	8658.81
501.98	6756.25
502.18	5654.44
502.38	5087.15
502.58	4614.07
502.78	4147.14
502.98	3971.01
503.18	3837.89
503.38	3405.77
503.59	3121.10
503.79	2899.92
503.99	2635.74
504.19	2480.09
504.39	2387.93
504.59	2344.92
504.79	2303.96
504.99	2314.20
505.19	2105.31
505.39	1964.00
505.59	1998.82
505.79	1869.80
505.99	1964.00
506.19	1845.22
506.39	1947.62
506.59	1826.79
506.79	1771.49
506.99	1755.11
507.19	1763.30
507.39	1814.50
507.59	1658.85
507.79	1699.81
507.99	1679.33
508.19	1791.97
508.39	1646.57
508.59	1812.45
508.79	1800.16
508.99	1816.55
509.19	1724.39
509.39	1798.12
509.59	1837.03
509.79	1697.77
509.99	1759.21
510.19	1740.77
510.39	1781.73
510.59	1701.86
510.79	1689.57
510.99	1722.34
511.19	1804.26
511.39	1798.12
511.59	1789.92
511.79	1796.07
511.99	1759.21
512.19	1839.08
512.38	1771.49
512.58	1624.04
512.78	1695.72
512.98	1826.79
513.18	1830.88
513.38	1652.71
513.58	1773.54
513.78	1730.53
513.98	1722.34
514.18	1736.68
514.38	1695.72
514.58	1759.21
514.78	1718.25
514.98	1677.29
515.18	1761.25
515.38	1599.46
515.58	1843.17
515.78	1701.86
515.98	1767.40
516.18	1765.35
516.38	1751.01
516.57	1738.73
516.77	1667.05
516.97	1746.92
517.17	1705.96
517.37	1613.80
517.57	1785.83
517.77	1738.73
517.97	1662.95
518.17	1687.53
518.37	1693.67
518.57	1667.05
518.77	1765.35
518.97	1724.39
519.16	1773.54
519.36	1814.50
519.56	1701.86
519.76	1736.68
519.96	1777.64
520.16	1796.07
520.36	1685.48
520.56	1869.80
520.76	1650.66
520.96	1671.14
521.16	1763.30
521.35	1791.97
521.55	1798.12
521.75	1759.21
521.95	1738.73
522.15	1730.53
522.35	1581.03
522.55	1736.68
522.75	1726.44
522.95	1724.39
523.14	1660.90
523.34	1710.05
523.54	1665.00
523.74	1751.01
523.94	1781.73
524.14	1669.09
524.34	1761.25
524.54	1828.84
524.73	1724.39
524.93	1705.96
525.13	1746.92
525.33	1716.20
525.53	1869.80
525.73	1781.73
525.93	1755.11
526.13	1712.10
526.32	1773.54
526.52	1763.30
526.72	1814.50
526.92	1654.76
527.12	1732.58
527.32	1648.61
527.52	1728.49
527.71	1771.49
527.91	1757.16
528.11	1742.82
528.31	1771.49
528.51	1736.68
528.71	1675.24
528.90	1796.07
529.10	1738.73
529.30	1767.40
529.50	1695.72
529.70	1681.38
529.90	1669.09
530.09	1755.11
530.29	1693.67
530.49	1742.82
530.69	1806.31
530.89	1726.44
531.09	1763.30
531.28	1767.40
531.48	1824.74
531.68	1693.67
531.88	1796.07
532.08	1765.35
532.28	1689.57
532.47	1787.88
532.67	1796.07
532.87	1718.25
533.07	1728.49
533.27	1814.50
533.46	1824.74
533.66	1744.87
533.86	1697.77
534.06	1714.15
534.26	1845.22
534.45	1744.87
534.65	1802.21
534.85	1734.63
535.05	1744.87
535.25	1806.31
535.44	1646.57
535.64	1746.92
535.84	1779.68
536.04	1779.68
536.24	1669.09
536.43	1697.77
536.63	1890.28
536.83	1742.82
537.03	1724.39
537.22	1601.51
537.42	1638.38
537.62	1773.54
537.82	1595.37
538.02	1832.93
538.21	1841.12
538.41	1925.09
538.61	1697.77
538.81	1785.83
539.00	1810.40
539.20	1611.75
539.40	1642.47
539.60	1726.44
539.79	1781.73
539.99	1757.16
540.19	1667.05
540.39	1796.07
540.58	1732.58
540.78	1781.73
540.98	1773.54
541.18	1804.26
541.37	1820.64
541.57	1785.83
541.77	1791.97
541.97	1701.86
542.16	1724.39
542.36	1757.16
542.56	1796.07
542.76	1796.07
542.95	1767.40
543.15	1787.88
543.35	1755.11
543.54	1673.19
543.74	1640.42
543.94	1767.40
544.14	1771.49
544.33	1816.55
544.53	1722.34
544.73	1730.53
544.93	1773.54
545.12	1777.64
545.32	1703.91
545.52	1703.91
545.71	1716.20
545.91	1699.81
546.11	1699.81
546.30	1683.43
546.50	1705.96
546.70	1785.83
546.90	1712.10
547.09	1636.33
547.29	1734.63
547.49	1769.44
547.68	1742.82
547.88	1714.15
548.08	1794.02
548.27	2133.98
548.47	1705.96
548.67	1621.99
548.87	1697.77
549.06	1693.67
549.26	1769.44
549.46	1771.49
549.65	1665.00
549.85	1738.73
550.05	1765.35
550.24	1650.66
550.44	1789.92
550.64	1722.34
550.83	1669.09
551.03	1808.36
551.23	1806.31
551.42	1779.68
551.62	1675.24
551.82	1714.15
552.01	1699.81
552.21	1730.53
552.41	1777.64
552.60	1820.64
552.80	1697.77
553.00	1734.63
553.19	1730.53
553.39	1859.56
553.59	1667.05
553.78	1730.53
553.98	1728.49
554.17	1673.19
554.37	1757.16
554.57	1744.87
554.76	1671.14
554.96	1658.85
555.16	1789.92
555.35	1763.30
555.55	1632.23
555.75	1761.25
555.94	1710.05
556.14	1710.05
556.33	1730.53
556.53	1783.78
556.73	1703.91
556.92	1763.30
557.12	1810.40
557.32	1851.36
557.51	1820.64
557.71	1789.92
557.90	1834.98
558.10	1820.64
558.30	1708.01
558.49	1683.43
558.69	1761.25
558.88	1769.44
559.08	1716.20
559.28	1769.44
559.47	1812.45
559.67	1748.97
559.86	1806.31
560.06	1761.25
560.26	1740.77
560.45	1828.84
560.65	1777.64
560.84	1849.32
561.04	1691.62
561.24	1787.88
561.43	1728.49
561.63	1779.68
561.82	1753.06
562.02	1798.12
562.22	1736.68
562.41	1677.29
562.61	1685.48
562.80	1726.44
563.00	1863.65
563.19	1720.29
563.39	1808.36
563.59	1812.45
563.78	1734.63
563.98	1677.29
564.17	1718.25
564.37	1599.46
564.56	1740.77
564.76	1689.57
564.96	1767.40
565.15	1783.78
565.35	1898.47
565.54	1716.20
565.74	1783.78
565.93	1800.16
566.13	1787.88
566.32	1724.39
566.52	1785.83
566.71	1732.58
566.91	1714.15
567.11	1710.05
567.30	1628.14
567.50	1757.16
567.69	1779.68
567.89	1746.92
568.08	1701.86
568.28	1783.78
568.47	1716.20
568.67	1736.68
568.86	1781.73
569.06	1740.77
569.25	1787.88
569.45	1665.00
569.64	1722.34
569.84	1740.77
570.04	1757.16
570.23	1681.38
570.43	1748.97
570.62	1865.70
570.82	1775.59
571.01	1640.42
571.21	1736.68
571.40	1718.25
571.60	1787.88
571.79	1787.88
571.99	1824.74
572.18	1677.29
572.38	1677.29
572.57	1730.53
572.77	1771.49
572.96	1933.28
573.16	1775.59
573.35	1681.38
573.55	1791.97
573.74	1734.63
573.94	1726.44
574.13	1802.21
574.33	1759.21
574.52	1871.84
574.71	1746.92
574.91	1763.30
575.10	1689.57
575.30	1753.06
575.49	1712.10
575.69	1695.72
575.88	1849.32
576.08	1810.40
576.27	1935.33
576.47	1789.92
576.66	1912.80
576.86	1882.08
577.05	1806.31
577.25	1783.78
577.44	1873.89
577.64	1734.63
577.83	1826.79
578.02	1722.34
578.22	1822.69
578.41	1847.27
578.61	1740.77
578.80	1646.57
579.00	1775.59
579.19	1742.82
579.39	1830.88
579.58	1734.63
579.77	1781.73
579.97	1834.98
580.16	1824.74
580.36	1851.36
580.55	1826.79
580.75	1832.93
580.94	1822.69
581.13	1888.23
581.33	1861.60
581.52	1714.15
581.72	1877.99
581.91	1873.89
582.11	1773.54
582.30	1830.88
582.49	1796.07
582.69	1875.94
582.88	1771.49
583.08	1800.16
583.27	1839.08
583.47	1718.25
583.66	1722.34
583.85	1763.30
584.05	1757.16
584.24	1814.50
584.44	1837.03
584.63	1791.97
584.82	1935.33
585.02	1935.33
585.21	1855.46
585.41	1941.47
585.60	1877.99
585.79	1984.48
585.99	2000.87
586.18	1949.67
586.37	2281.44
586.57	3260.37
586.76	9891.69
586.96	27242.08
587.15	41729.41
587.34	52030.69
587.54	58190.98
587.73	55708.85
587.93	40324.50
588.12	29857.34
588.31	23596.70
588.51	20510.41
588.70	18550.50
588.89	17327.86
589.09	15443.73
589.28	13641.52
589.47	11671.37
589.67	9391.98
589.86	7409.55
590.06	5326.77
590.25	4169.66
590.44	3280.85
590.64	2607.06
590.83	2332.64
591.02	2189.28
591.22	1914.85
591.41	1906.66
591.60	1818.60
591.80	1974.24
591.99	1767.40
592.18	1767.40
592.38	1779.68
592.57	1769.44
592.76	1734.63
592.96	1771.49
593.15	1644.52
593.34	1775.59
593.54	1791.97
593.73	1834.98
593.92	1837.03
594.12	1853.41
594.31	1861.60
594.50	1898.47
594.70	1826.79
594.89	1943.52
595.08	1773.54
595.28	1765.35
595.47	1984.48
595.66	1857.51
595.86	1724.39
596.05	1763.30
596.24	1712.10
596.43	1880.04
596.63	1855.46
596.82	1748.97
597.01	1751.01
597.21	1906.66
597.40	1832.93
597.59	1777.64
597.79	1798.12
597.98	1777.64
598.17	1755.11
598.36	1794.02
598.56	1755.11
598.75	1693.67
598.94	1828.84
599.14	1767.40
599.33	1691.62
599.52	1859.56
599.71	1794.02
599.91	1724.39
600.10	1785.83
600.29	1740.77
600.48	1783.78
600.68	1798.12
600.87	1769.44
601.06	1724.39
601.26	1746.92
601.45	1761.25
601.64	1722.34
601.83	1787.88
602.03	1718.25
602.22	1693.67
602.41	1818.60
602.60	1869.80
602.80	1781.73
602.99	1828.84
603.18	1748.97
603.37	1757.16
603.57	1763.30
603.76	1808.36
603.95	1884.13
604.14	1740.77
604.34	1740.77
604.53	1767.40
604.72	1734.63
604.91	1763.30
605.10	1742.82
605.30	1724.39
605.49	1783.78
605.68	1824.74
605.87	1724.39
606.07	1724.39
606.26	1802.21
606.45	1748.97
606.64	1697.77
606.84	1785.83
607.03	1802.21
607.22	1810.40
607.41	1755.11
607.60	1681.38
607.80	1882.08
607.99	1730.53
608.18	1794.02
608.37	1755.11
608.56	1728.49
608.76	1791.97
608.95	1861.60
609.14	1849.32
609.33	1910.75
609.52	1900.52
609.72	1822.69
609.91	1855.46
610.10	1820.64
610.29	1892.32
610.48	1740.77
610.68	1882.08
610.87	1718.25
611.06	1816.55
611.25	1751.01
611.44	1855.46
611.63	1722.34
611.83	1834.98
612.02	1695.72
612.21	1791.97
612.40	1626.09
612.59	1677.29
612.79	1658.85
612.98	1726.44
613.17	1834.98
613.36	1736.68
613.55	1902.56
613.74	1775.59
613.93	1820.64
614.13	1920.99
614.32	1925.09
614.51	1951.71
614.70	1933.28
614.89	1841.12
615.08	1910.75
615.28	2191.33
615.47	1726.44
615.66	1894.37
615.85	1779.68
616.04	1978.34
616.23	1771.49
616.42	1861.60
616.62	1812.45
616.81	1701.86
617.00	1773.54
617.19	1791.97
617.38	1763.30
617.57	1720.29
617.76	1779.68
617.95	1794.02
618.15	1773.54
618.34	1796.07
618.53	1624.04
618.72	1757.16
618.91	1834.98
619.10	1861.60
619.29	1761.25
619.48	1705.96
619.68	1615.85
619.87	1665.00
620.06	1687.53
620.25	1734.63
620.44	1693.67
620.63	1755.11
620.82	1779.68
621.01	1791.97
621.20	1763.30
621.39	1738.73
621.59	1877.99
621.78	1789.92
621.97	1802.21
622.16	1818.60
622.35	1699.81
622.54	1806.31
622.73	1841.12
622.92	1636.33
623.11	1759.21
623.30	1710.05
623.49	1785.83
623.68	1708.01
623.88	1808.36
624.07	1691.62
624.26	1667.05
624.45	1763.30
624.64	1783.78
624.83	1757.16
625.02	1785.83
625.21	1781.73
625.40	1714.15
625.59	1849.32
625.78	1716.20
625.97	1806.31
626.16	1818.60
626.35	1880.04
626.54	1771.49
626.74	1906.66
626.93	1828.84
627.12	1849.32
627.31	1841.12
627.50	1816.55
627.69	1814.50
627.88	1716.20
628.07	1755.11
628.26	1617.90
628.45	1697.77
628.64	1673.19
628.83	1736.68
629.02	1708.01
629.21	1789.92
629.40	1759.21
629.59	1720.29
629.78	1669.09
629.97	1742.82
630.16	1695.72
630.35	1771.49
630.54	1728.49
630.73	1777.64
630.92	1697.77
631.11	1697.77
631.30	1615.85
631.49	1796.07
631.68	1775.59
631.87	1742.82
632.06	1617.90
632.25	1890.28
632.44	1699.81
632.63	1812.45
632.82	1759.21
633.01	1824.74
633.20	1867.75
633.39	1814.50
633.58	1742.82
633.77	1826.79
633.96	1763.30
634.15	1800.16
634.34	1773.54
634.53	1738.73
634.72	1736.68
634.91	1677.29
635.10	1746.92
635.29	1779.68
635.48	1826.79
635.67	1726.44
635.86	1665.00
636.05	1832.93
636.24	1652.71
636.43	1761.25
636.62	1728.49
636.81	1638.38
637.00	1638.38
637.19	1740.77
637.38	1708.01
637.57	1679.33
637.76	1802.21
637.95	1892.32
638.14	1882.08
638.33	1834.98
638.52	1816.55
638.71	1761.25
638.89	1738.73
639.08	1888.23
639.27	1845.22
639.46	1914.85
639.65	2142.18
639.84	2209.76
640.03	2406.36
640.22	2426.84
640.41	2396.12
640.60	2133.98
640.79	2025.44
640.98	2035.68
641.17	2007.01
641.36	1959.91
641.55	1920.99
641.74	1814.50
641.92	1759.21
642.11	1765.35
642.30	1804.26
642.49	1734.63
642.68	1753.06
642.87	1794.02
643.06	1740.77
643.25	1685.48
643.44	1730.53
643.63	1716.20
643.82	1757.16
644.00	1722.34
644.19	1787.88
644.38	1708.01
644.57	1796.07
644.76	1699.81
644.95	1701.86
645.14	1677.29
645.33	1746.92
645.52	1800.16
645.71	1632.23
645.89	1712.10
646.08	1785.83
646.27	1689.57
646.46	1865.70
646.65	1611.75
646.84	1726.44
647.03	1634.28
647.22	1765.35
647.40	1716.20
647.59	1697.77
647.78	1687.53
647.97	1703.91
648.16	1722.34
648.35	1789.92
648.54	1824.74
648.73	1742.82
648.91	1779.68
649.10	1728.49
649.29	1654.76
649.48	1720.29
649.67	1681.38
649.86	1753.06
650.05	1877.99
650.23	1910.75
650.42	1820.64
650.61	1988.58
650.80	1861.60
650.99	1951.71
651.18	1824.74
651.36	1830.88
651.55	1724.39
651.74	1822.69
651.93	1746.92
652.12	1765.35
652.31	1781.73
652.49	1677.29
652.68	1626.09
652.87	1765.35
653.06	1722.34
653.25	1853.41
653.44	1667.05
653.62	1808.36
653.81	1693.67
654.00	1714.15
654.19	1806.31
654.38	1910.75
654.56	1742.82
654.75	1660.90
654.94	1763.30
655.13	1712.10
655.32	1701.86
655.51	1791.97
655.69	1677.29
655.88	1718.25
656.07	1660.90
656.26	1714.15
656.45	1632.23
656.63	1710.05
656.82	1679.33
657.01	1794.02
657.20	1712.10
657.38	1794.02
657.57	1716.20
657.76	1746.92
657.95	1781.73
658.14	1693.67
658.32	1624.04
658.51	1634.28
658.70	1742.82
658.89	1748.97
659.08	1689.57
659.26	1845.22
659.45	1681.38
659.64	1837.03
659.83	1728.49
660.01	1929.19
660.20	1785.83
660.39	1849.32
660.58	1656.81
660.76	1785.83
660.95	1585.13
661.14	1697.77
661.33	1658.85
661.51	1691.62
661.70	1755.11
661.89	1703.91
662.08	1767.40
662.26	1699.81
662.45	1662.95
662.64	1837.03
662.83	1773.54
663.01	1619.94
663.20	1759.21
663.39	1736.68
663.58	1730.53
663.76	1755.11
663.95	1755.11
664.14	1740.77
664.32	1740.77
664.51	1685.48
664.70	1599.46
664.89	1679.33
665.07	1681.38
665.26	1769.44
665.45	1689.57
665.64	1769.44
665.82	1708.01
666.01	1832.93
666.20	1654.76
666.38	1892.32
666.57	1857.51
666.76	2213.85
666.95	4573.11
667.13	11499.34
667.32	18558.69
667.51	22337.20
667.69	25167.49
667.88	25501.31
668.07	19656.40
668.25	14139.18
668.44	11966.28
668.63	9799.53
668.81	8617.85
669.00	7563.15
669.19	6973.33
669.38	6152.10
669.56	5363.63
669.75	4548.54
669.94	3588.04
670.12	3086.29
670.31	2731.99
670.50	2369.50
670.68	2123.74
670.87	1955.81
671.06	1857.51
671.24	1794.02
671.43	1875.94
671.62	1818.60
671.80	1765.35
671.99	1787.88
672.18	1705.96
672.36	1777.64
672.55	1734.63
672.74	1806.31
672.92	1765.35
673.11	1712.10
673.29	1748.97
673.48	1859.56
673.67	1783.78
673.85	1798.12
674.04	1722.34
674.23	1714.15
674.41	1837.03
674.60	1708.01
674.79	1552.36
674.97	1654.76
675.16	1845.22
675.34	1822.69
675.53	1724.39
675.72	1767.40
675.90	1771.49
676.09	1656.81
676.28	1728.49
676.46	1634.28
676.65	1787.88
676.83	1648.61
677.02	1681.38
677.21	1689.57
677.39	1701.86
677.58	1609.70
677.77	1751.01
677.95	1734.63
678.14	1730.53
678.32	1695.72
678.51	1615.85
678.70	1847.27
678.88	1677.29
679.07	1765.35
679.25	1683.43
679.44	1710.05
679.63	1572.84
679.81	1648.61
680.00	1730.53
680.18	1757.16
680.37	1779.68
680.55	1665.00
680.74	1611.75
680.93	1693.67
681.11	1710.05
681.30	1708.01
681.48	1791.97
681.67	1703.91
681.85	1714.15
682.04	1619.94
682.23	1789.92
682.41	1800.16
682.60	1671.14
682.78	1642.47
682.97	1626.09
683.15	1691.62
683.34	1679.33
683.53	1814.50
683.71	1677.29
683.90	1853.41
684.08	1751.01
684.27	1671.14
684.45	1751.01
684.64	1816.55
684.82	1673.19
685.01	1746.92
685.19	1703.91
685.38	1841.12
685.57	1779.68
685.75	1691.62
685.94	1708.01
686.12	1638.38
686.31	1667.05
686.49	1781.73
686.68	1644.52
686.86	1652.71
687.05	1722.34
687.23	1812.45
687.42	1699.81
687.60	1642.47
687.79	1771.49
687.97	1728.49
688.16	1808.36
688.34	1777.64
688.53	1599.46
688.71	1703.91
688.90	1789.92
689.08	1771.49
689.27	1638.38
689.45	1808.36
689.64	1759.21
689.82	1724.39
690.01	1767.40
690.19	1744.87
690.38	1689.57
690.56	1810.40
690.75	1599.46
690.93	1675.24
691.12	1683.43
691.30	1714.15
691.49	1681.38
691.67	1742.82
691.86	1837.03
692.04	1671.14
692.23	1714.15
692.41	1826.79
692.60	1875.94
692.78	1884.13
692.97	1816.55
693.15	1773.54
693.34	1880.04
693.52	1824.74
693.71	1777.64
693.89	1724.39
694.08	1660.90
694.26	1697.77
694.44	1828.84
694.63	1843.17
694.81	1665.00
695.00	1712.10
695.18	1716.20
695.37	1847.27
695.55	1710.05
695.74	1669.09
695.92	1652.71
696.10	1748.97
696.29	1667.05
696.47	1693.67
696.66	1660.90
696.84	1599.46
697.03	1742.82
697.21	1822.69
697.40	2295.77
697.58	1794.02
697.76	1734.63
697.95	1675.24
698.13	1669.09
698.32	1730.53
698.50	1746.92
698.68	1705.96
698.87	1789.92
699.05	1712.10
699.24	1736.68
699.42	1681.38
699.61	1728.49
699.79	1775.59
699.97	1787.88
700.16	1708.01
700.34	1697.77
700.53	1781.73
700.71	1830.88
700.89	1798.12
701.08	1759.21
701.26	1816.55
701.45	2185.18
701.63	1685.48
701.81	1681.38
702.00	1697.77
702.18	1783.78
702.37	1701.86
702.55	1892.32
702.73	1941.47
702.92	1800.16
703.10	1996.77
703.28	1945.57
703.47	1867.75
703.65	1898.47
703.84	1904.61
704.02	1820.64
704.20	1871.84
704.39	1746.92
704.57	1828.84
704.75	1875.94
704.94	1851.36
705.12	1734.63
705.30	1931.23
705.49	2521.05
705.67	5566.38
705.86	12951.35
706.04	19175.13
706.22	22648.49
706.41	25048.71
706.59	24684.17
706.77	19066.59
706.96	13545.27
707.14	11861.84
707.32	10190.69
707.51	8937.34
707.69	7890.82
707.87	6637.47
708.06	5590.95
708.24	4317.12
708.42	3235.79
708.61	2750.42
708.79	2269.15
708.97	2033.63
709.16	1964.00
709.34	1892.32
709.52	1824.74
709.71	1759.21
709.89	1802.21
710.07	1685.48
710.26	1642.47
710.44	1779.68
710.62	1763.30
710.80	1800.16
710.99	1796.07
711.17	1796.07
711.35	1628.14
711.54	1656.81
711.72	1841.12
711.90	1697.77
712.09	1736.68
712.27	1718.25
712.45	1785.83
712.63	1746.92
712.82	1656.81
713.00	1714.15
713.18	1822.69
713.37	1742.82
713.55	1783.78
713.73	1748.97
713.91	1820.64
714.10	1644.52
714.28	1689.57
714.46	1681.38
714.65	1697.77
714.83	1705.96
715.01	1677.29
715.19	1722.34
715.38	1658.85
715.56	1728.49
715.74	1685.48
715.92	1736.68
716.11	1771.49
716.29	1591.27
716.47	1738.73
716.65	1658.85
716.84	1628.14
717.02	1783.78
717.20	1634.28
717.38	1734.63
717.57	1796.07
717.75	1693.67
717.93	1734.63
718.11	1730.53
718.30	1705.96
718.48	1656.81
718.66	1755.11
718.84	1806.31
719.03	1697.77
719.21	1683.43
719.39	1818.60
719.57	1720.29
719.75	1808.36
719.94	1611.75
720.12	1685.48
720.30	1714.15
720.48	1781.73
720.67	1626.09
720.85	1658.85
721.03	1689.57
721.21	1714.15
721.39	1751.01
721.58	1634.28
721.76	1773.54
721.94	1748.97
722.12	1726.44
722.30	1789.92
722.49	1712.10
722.67	1775.59
722.85	1673.19
723.03	1687.53
723.21	1701.86
723.40	1726.44
723.58	1796.07
723.76	1777.64
723.94	1787.88
724.12	1787.88
724.30	1812.45
724.49	1763.30
724.67	1732.58
724.85	1828.84
725.03	1681.38
725.21	1789.92
725.40	1769.44
725.58	1726.44
725.76	1773.54
725.94	1783.78
726.12	1595.37
726.30	1703.91
726.49	1697.77
726.67	1636.33
726.85	1775.59
727.03	1779.68
727.21	2238.43
727.39	3413.96
727.57	4859.83
727.76	5607.34
727.94	6127.52
728.12	6107.04
728.30	5611.43
728.48	4458.43
728.66	3999.68
728.84	3487.69
729.03	3186.64
729.21	2799.57
729.39	2478.04
729.57	2101.22
729.75	1978.34
729.93	1877.99
730.11	1808.36
730.30	1714.15
730.48	1765.35
730.66	1814.50
730.84	1742.82
731.02	1697.77
731.20	1640.42
731.38	1675.24
731.56	1705.96
731.74	1626.09
731.93	1736.68
732.11	1685.48
732.29	1675.24
732.47	1761.25
732.65	1730.53
732.83	1798.12
733.01	1697.77
733.19	1667.05
733.37	1730.53
733.56	1701.86
733.74	1740.77
733.92	1867.75
734.10	1708.01
734.28	1689.57
734.46	1703.91
734.64	1632.23
734.82	1691.62
735.00	1685.48
735.18	1699.81
735.36	1699.81
735.54	1759.21
735.73	1660.90
735.91	1730.53
736.09	1675.24
736.27	1720.29
736.45	1787.88
736.63	1601.51
736.81	1671.14
736.99	1787.88
737.17	1693.67
737.35	1648.61
737.53	1742.82
737.71	1673.19
737.89	1767.40
738.07	1603.56
738.25	1656.81
738.43	1746.92
738.61	1701.86
738.80	1673.19
738.98	1642.47
739.16	1642.47
739.34	1644.52
739.52	1808.36
739.70	1675.24
739.88	1769.44
740.06	1763.30
740.24	1626.09
740.42	1767.40
740.60	1570.79
740.78	1693.67
740.96	1603.56
741.14	1693.67
741.32	1738.73
741.50	1642.47
741.68	1832.93
741.86	1761.25
742.04	1710.05
742.22	1617.90
742.40	1699.81
742.58	1789.92
742.76	1691.62
742.94	1734.63
743.12	1542.12
743.30	1671.14
743.48	1808.36
743.66	1675.24
743.84	1673.19
744.02	1726.44
744.20	1740.77
744.38	1730.53
744.56	1697.77
744.74	1761.25
744.92	1755.11
745.10	1806.31
745.28	1767.40
745.46	1804.26
745.64	1726.44
745.82	1755.11
746.00	1658.85
746.18	1673.19
746.36	1648.61
746.54	1753.06
746.72	1697.77
746.90	1632.23
747.08	1732.58
747.26	1701.86
747.44	1746.92
747.62	1720.29
747.80	1734.63
747.98	1740.77
748.15	1769.44
748.33	1742.82
748.51	1728.49
748.69	1734.63
748.87	1636.33
749.05	1650.66
749.23	1714.15
749.41	1697.77
749.59	1667.05
749.77	1802.21
749.95	1720.29
750.13	1652.71
750.31	1681.38
750.49	1757.16
750.67	1708.01
750.85	1814.50
751.03	1771.49
751.20	1810.40
751.38	1740.77
751.56	1730.53
751.74	1734.63
751.92	1718.25
752.10	1615.85
752.28	1736.68
752.46	1546.22
752.64	1730.53
752.82	1742.82
753.00	1779.68
753.18	1753.06
753.35	1753.06
753.53	1730.53
753.71	1656.81
753.89	1761.25
754.07	1751.01
754.25	1665.00
754.43	1724.39
754.61	1695.72
754.79	1662.95
754.97	1718.25
755.14	1779.68
755.32	1662.95
755.50	1751.01
755.68	1665.00
755.86	1628.14
756.04	1570.79
756.22	1576.94
756.40	1798.12
756.57	1794.02
756.75	1738.73
756.93	1687.53
757.11	1859.56
757.29	1703.91
757.47	1619.94
757.65	1628.14
757.82	1615.85
758.00	1607.66
758.18	1658.85
758.36	1669.09
758.54	1796.07
758.72	1675.24
758.90	1658.85
759.07	1738.73
759.25	1728.49
759.43	1785.83
759.61	1535.98
759.79	2238.43
759.97	1763.30
760.15	1728.49
760.32	1736.68
760.50	1685.48
760.68	1863.65
760.86	1648.61
761.04	1841.12
761.22	1744.87
761.39	1738.73
761.57	1781.73
761.75	1656.81
761.93	1761.25
762.11	1693.67
762.28	1671.14
762.46	1656.81
762.64	1759.21
762.82	1632.23
763.00	1724.39
763.18	1789.92
763.35	1660.90
763.53	1710.05
763.71	1714.15
763.89	1748.97
764.07	1742.82
764.24	1673.19
764.42	1753.06
764.60	1632.23
764.78	1730.53
764.96	1822.69
765.13	1751.01
765.31	1763.30
765.49	1787.88
765.67	1673.19
765.84	1665.00
766.02	1703.91
766.20	1632.23
766.38	1724.39
766.56	1734.63
766.73	1697.77
766.91	1642.47
767.09	1644.52
767.27	1736.68
767.44	1613.80
767.62	1744.87
767.80	1755.11
767.98	1701.86
768.15	1624.04
768.33	1660.90
768.51	1714.15
768.69	1755.11
768.87	1738.73
769.04	1673.19
769.22	1886.18
769.40	1814.50
769.58	1830.88
769.75	1771.49
769.93	1853.41
770.11	1759.21
770.28	1718.25
770.46	1671.14
770.64	1751.01
770.82	1679.33
770.99	1615.85
771.17	1767.40
771.35	1675.24
771.53	1701.86
771.70	1660.90
771.88	1718.25
772.06	1716.20
772.23	1703.91
772.41	1751.01
772.59	1646.57
772.77	1607.66
772.94	1677.29
773.12	1691.62
773.30	1736.68
773.47	1748.97
773.65	1716.20
773.83	1789.92
774.01	1679.33
774.18	1642.47
774.36	1728.49
774.54	1677.29
774.71	1748.97
774.89	1648.61
775.07	1683.43
775.24	1728.49
775.42	1712.10
775.60	1830.88
775.78	1734.63
775.95	1660.90
776.13	1617.90
776.31	1572.84
776.48	1767.40
776.66	1824.74
776.84	1662.95
777.01	1634.28
777.19	1683.43
777.37	1730.53
777.54	1716.20
777.72	1888.23
777.90	1716.20
778.07	1714.15
778.25	1871.84
778.43	1757.16
778.60	1681.38
778.78	1769.44
778.96	1820.64
779.13	1632.23
779.31	1742.82
779.49	1746.92
779.66	1722.34
779.84	1708.01
780.01	1654.76
780.19	1642.47
780.37	1728.49
780.54	1742.82
780.72	1650.66
780.90	1769.44
781.07	1701.86
781.25	1624.04
781.43	1712.10
781.60	1679.33
781.78	1820.64
781.95	1738.73
782.13	1648.61
782.31	1732.58
782.48	1558.50
782.66	1718.25
782.83	1777.64
783.01	1681.38
783.19	1716.20
783.36	1705.96
783.54	1617.90
783.72	1845.22
783.89	1683.43
784.07	1642.47
784.24	1767.40
784.42	1761.25
784.60	1744.87
784.77	1689.57
784.95	1605.61
785.12	1693.67
785.30	1710.05
785.47	1726.44
785.65	1734.63
785.83	1730.53
786.00	1740.77
786.18	1685.48
786.35	1681.38
786.53	1638.38
786.71	1699.81
786.88	1779.68
787.06	1714.15
787.23	1691.62
787.41	1710.05
787.58	1740.77
787.76	1671.14
787.94	1660.90
788.11	1718.25
788.29	1638.38
788.46	1648.61
788.64	1574.89
788.81	1746.92
788.99	1603.56
789.16	1716.20
789.34	1705.96
789.52	1634.28
789.69	1658.85
789.87	1654.76
790.04	1718.25
790.22	1640.42
790.39	1826.79
790.57	1681.38
790.74	1634.28
790.92	1751.01
791.09	1671.14
791.27	1665.00
791.44	1810.40
791.62	1642.47
791.79	1695.72
791.97	1800.16
792.15	1884.13
792.32	1736.68
792.50	1748.97
792.67	1759.21
792.85	1781.73
793.02	1722.34
793.20	1673.19
793.37	1638.38
793.55	1703.91
793.72	1701.86
793.90	1718.25
794.07	1677.29
794.25	1681.38
794.42	1703.91
794.60	1652.71
794.77	1751.01
794.95	1732.58
795.12	1656.81
795.30	1632.23
795.47	1648.61
795.65	1834.98
795.82	1755.11
796.00	1673.19
796.17	1681.38
796.34	1697.77
796.52	1665.00
796.69	1771.49
796.87	1734.63
797.04	1753.06
797.22	1812.45
797.39	1683.43
797.57	1746.92
797.74	1683.43
797.92	1712.10
798.09	1769.44
798.27	1718.25
798.44	1681.38
798.62	1669.09
798.79	1673.19
798.96	1738.73
799.14	1714.15
799.31	1822.69
799.49	1697.77
799.66	1746.92
799.84	1685.48
800.01	1656.81
800.19	1722.34
800.36	1632.23
800.53	1718.25
800.71	1736.68
800.88	1814.50
801.06	1652.71
801.23	1683.43
801.41	1693.67
801.58	1652.71
801.75	1621.99
801.93	1628.14
802.10	1710.05
802.28	1658.85
802.45	1669.09
802.63	1777.64
802.80	1714.15
802.97	1638.38
803.15	1654.76
803.32	1636.33
803.50	1714.15
803.67	1640.42
803.84	1556.46
804.02	1724.39
804.19	1667.05
804.37	1548.26
804.54	1589.22
804.71	1658.85
804.89	1660.90
805.06	1691.62
805.24	1734.63
805.41	1738.73
805.58	1751.01
805.76	1804.26
805.93	1734.63
806.10	1761.25
806.28	1701.86
806.45	1640.42
806.63	1757.16
806.80	1759.21
806.97	1779.68
807.15	1705.96
807.32	1755.11
807.49	1734.63
807.67	1636.33
807.84	1732.58
808.01	1624.04
808.19	1828.84
808.36	1812.45
808.54	1662.95
808.71	1656.81
808.88	1759.21
809.06	1714.15
809.23	1753.06
809.40	1628.14
809.58	1740.77
809.75	1722.34
809.92	1624.04
810.10	1806.31
810.27	1681.38
810.44	1705.96
810.62	1689.57
810.79	1705.96
810.96	1693.67
811.14	1669.09
811.31	1748.97
811.48	1816.55
811.66	1640.42
811.83	1771.49
812.00	1724.39
812.18	1755.11
812.35	1857.51
812.52	1679.33
812.69	1722.34
812.87	1630.18
813.04	1683.43
813.21	1691.62
813.39	1581.03
813.56	1628.14
813.73	1738.73
813.91	1617.90
814.08	1640.42
814.25	1681.38
814.42	1650.66
814.60	1652.71
814.77	1695.72
814.94	1718.25
815.12	1714.15
815.29	1746.92
815.46	1730.53
815.63	1781.73
815.81	1761.25
815.98	1689.57
816.15	1699.81
816.33	1798.12
816.50	1673.19
816.67	1687.53
816.84	1699.81
817.02	1583.08
817.19	1728.49
817.36	1669.09
817.53	1775.59
817.71	1619.94
817.88	1867.75
818.05	1689.57
818.22	1658.85
818.40	1796.07
818.57	1665.00
818.74	1710.05
818.91	1710.05
819.09	1701.86
819.26	1757.16
819.43	1607.66
819.60	1677.29
819.78	1681.38
819.95	1773.54
820.12	1644.52
820.29	1697.77
820.47	1771.49
820.64	1667.05
820.81	1675.24
820.98	1609.70
821.15	1693.67
821.33	1742.82
821.50	1689.57
821.67	1648.61
821.84	1701.86
822.02	1753.06
822.19	1804.26
822.36	1654.76
822.53	1701.86
822.70	1679.33
822.88	1703.91
823.05	1775.59
823.22	1705.96
823.39	1691.62
823.56	1685.48
823.74	1851.36
823.91	1652.71
824.08	1624.04
824.25	1724.39
824.42	1765.35
824.60	1558.50
824.77	1722.34
824.94	1751.01
825.11	1714.15
825.28	1708.01
825.45	1763.30
825.63	1720.29
825.80	1640.42
825.97	1730.53
826.14	1705.96
826.31	1566.70
826.48	1732.58
826.66	1650.66
826.83	1673.19
827.00	1681.38
827.17	1687.53
827.34	1724.39
827.51	1722.34
827.69	1634.28
827.86	1683.43
828.03	1679.33
828.20	1658.85
828.37	1624.04
828.54	1687.53
828.71	1665.00
828.89	1806.31
829.06	1718.25
829.23	1808.36
829.40	1619.94
829.57	1662.95
829.74	1671.14
829.91	1628.14
830.09	1718.25
830.26	1740.77
830.43	1732.58
830.60	1697.77
830.77	1667.05
830.94	1796.07
831.11	1751.01
831.28	1757.16
831.46	1720.29
831.63	1755.11
831.80	1673.19
831.97	1705.96
832.14	1677.29
832.31	1767.40
832.48	1693.67
832.65	1755.11
832.82	1705.96
832.99	1806.31
833.17	1617.90
833.34	1763.30
833.51	1794.02
833.68	1560.55
833.85	1699.81
834.02	1650.66
834.19	1665.00
834.36	1632.23
834.53	1728.49
834.70	1763.30
834.87	1748.97
835.04	1712.10
835.22	1613.80
835.39	1783.78
835.56	1642.47
835.73	1712.10
835.90	1699.81
836.07	1669.09
836.24	1800.16
836.41	1599.46
836.58	1718.25
836.75	1781.73
836.92	1632.23
837.09	1671.14
837.26	1720.29
837.43	1763.30
837.60	1736.68
837.77	1714.15
837.94	1693.67
838.12	1734.63
838.29	1718.25
838.46	1667.05
838.63	1669.09
838.80	1822.69
838.97	1777.64
839.14	1703.91
839.31	1681.38
839.48	1669.09
839.65	1701.86
839.82	1755.11
839.99	1716.20
840.16	1716.20
840.33	1630.18
840.50	1662.95
840.67	1642.47
840.84	1566.70
841.01	1681.38
841.18	1691.62
841.35	1742.82
841.52	1773.54
841.69	1886.18
841.86	1722.34
842.03	1642.47
842.20	1675.24
842.37	1693.67
842.54	1712.10
842.71	1611.75
842.88	1699.81
843.05	1785.83
843.22	1634.28
843.39	1712.10
843.56	1673.19
843.73	1601.51
843.90	1751.01
844.07	1683.43
844.24	1675.24
844.41	1718.25
844.58	1697.77
844.75	1697.77
844.92	1689.57
845.09	1691.62
845.26	1673.19
845.43	1751.01
845.60	1714.15
845.77	1746.92
845.94	1689.57
846.10	1822.69
846.27	1609.70
846.44	1619.94
846.61	1656.81
846.78	1736.68
846.95	1789.92
847.12	1679.33
847.29	1699.81
847.46	1695.72
847.63	1791.97
847.80	1566.70
847.97	1761.25
848.14	1832.93
848.31	1724.39
848.48	1632.23
848.65	1828.84
848.82	1660.90
848.98	1808.36
849.15	1785.83
849.32	1775.59
849.49	1703.91
849.66	1685.48
849.83	1746.92
850.00	1667.05
850.17	1662.95
850.34	1714.15
850.51	1658.85
850.68	1701.86
850.85	1847.27
851.01	1673.19
851.18	1695.72
851.35	1755.11
851.52	1701.86
851.69	1787.88
851.86	1644.52
852.03	1632.23
852.20	1757.16
852.37	1738.73
852.53	1634.28
852.70	1679.33
852.87	1710.05
853.04	1810.40
853.21	1691.62
853.38	1775.59
853.55	1841.12
853.72	1755.11
853.89	1689.57
854.05	1673.19
854.22	1607.66
854.39	1769.44
854.56	1662.95
854.73	1757.16
854.90	1681.38
855.07	1757.16
855.23	1722.34
855.40	1734.63
855.57	1679.33
855.74	1619.94
855.91	1877.99
856.08	1646.57
856.25	1587.18
856.41	1693.67
856.58	1695.72
856.75	1755.11
856.92	1619.94
857.09	1736.68
857.26	1644.52
857.42	1695.72
857.59	1769.44
857.76	1665.00
857.93	1720.29
858.10	1693.67
858.27	1691.62
858.43	1609.70
858.60	1671.14
858.77	1605.61
858.94	1705.96
859.11	1732.58
859.27	1665.00
859.44	1703.91
859.61	1873.89
859.78	1763.30
859.95	1654.76
860.12	1689.57
860.28	1859.56
860.45	1798.12
860.62	1683.43
860.79	1689.57
860.95	1681.38
861.12	1710.05
861.29	1599.46
861.46	1642.47
861.63	1679.33
861.79	1730.53
861.96	1681.38
862.13	1648.61
862.30	1697.77
862.47	1662.95
862.63	1779.68
862.80	1804.26
862.97	1779.68
863.14	1677.29
863.30	1701.86
863.47	1722.34
863.64	1781.73
863.81	1744.87
863.97	1665.00
864.14	1746.92
864.31	1665.00
864.48	1679.33
864.65	1646.57
864.81	1722.34
864.98	1761.25
865.15	1765.35
865.32	1746.92
865.48	1757.16
865.65	1800.16
865.82	1685.48
865.98	1730.53
866.15	1783.78
866.32	1689.57
866.49	1744.87
866.65	1777.64
866.82	1691.62
866.99	1748.97
867.16	1718.25
867.32	1691.62
867.49	1748.97
867.66	1621.99
867.83	1652.71
867.99	1615.85
868.16	1689.57
868.33	1626.09
868.49	1728.49
868.66	1726.44
868.83	1814.50
868.99	1701.86
869.16	1720.29
869.33	1777.64
869.50	1736.68
869.66	1634.28
869.83	1724.39
870.00	1652.71
870.16	1785.83
870.33	1710.05
870.50	1779.68
870.66	1728.49
870.83	1759.21
871.00	1660.90
871.17	1740.77
871.33	1800.16
871.50	1646.57
871.67	1617.90
871.83	1613.80
872.00	1775.59
872.17	1626.09
872.33	1744.87
872.50	1751.01
872.67	1740.77
872.83	1671.14
873.00	1736.68
873.17	1710.05
873.33	1732.58
873.50	1712.10
873.67	1656.81
873.83	1648.61
874.00	1736.68
874.16	1783.78
874.33	1722.34
874.50	1605.61
874.66	1683.43
874.83	1757.16
875.00	1746.92
875.16	1753.06
875.33	1800.16
875.50	1605.61
875.66	1683.43
875.83	1781.73
875.99	1787.88
876.16	1650.66
876.33	1644.52
876.49	1656.81
876.66	1705.96
876.83	1740.77
876.99	1574.89
877.16	1685.48
877.32	1732.58
877.49	1703.91
877.66	1732.58
877.82	1726.44
877.99	1785.83
878.15	1755.11
878.32	1736.68
878.49	1738.73
878.65	1726.44
878.82	1771.49
878.98	1697.77
879.15	1769.44
879.32	1773.54
879.48	1757.16
879.65	1652.71
879.81	1665.00
879.98	1671.14
880.15	1681.38
880.31	1789.92
880.48	1585.13
880.64	1736.68
880.81	1804.26
880.97	1851.36
881.14	1816.55
881.31	1638.38
881.47	1841.12
881.64	1728.49
881.80	1615.85
881.97	1720.29
882.13	1796.07
882.30	1650.66
882.47	1626.09
882.63	1638.38
882.80	1726.44
882.96	1697.77
883.13	1734.63
883.29	1687.53
883.46	1712.10
883.62	1841.12
883.79	1734.63
883.95	1765.35
884.12	1646.57
884.29	1742.82
884.45	1697.77
884.62	1755.11
884.78	1669.09
884.95	1808.36
885.11	1683.43
885.28	1755.11
885.44	1814.50
885.61	1708.01
885.77	1718.25
885.94	1728.49
886.10	1697.77
886.27	1718.25
886.43	1765.35
886.60	1806.31
886.76	1667.05
886.93	1718.25
887.09	1736.68
887.26	1630.18
887.42	1746.92
887.59	1765.35
887.75	1927.14
887.92	1718.25
888.08	1791.97
888.25	1853.41
888.41	1712.10
888.58	1720.29
888.74	1677.29
888.91	1677.29
>>>>>End Processed Spectral Data<<<<<
