SpectraSuite Data File
++++++++++++++++++++++++++++++++++++
Date: Wed May 04 18:44:03 CEST 2016
User: root
Dark Spectrum Present: No
Reference Spectrum Present: No
Number of Sampled Component Spectra: 1
Spectrometers: USB4C02835
Integration Time (usec): 100000 (USB4C02835)
Spectra Averaged: 1 (USB4C02835)
Boxcar Smoothing: 0 (USB4C02835)
Correct for Electrical Dark: No (USB4C02835)
Strobe/Lamp Enabled: No (USB4C02835)
Correct for Detector Non-linearity: No (USB4C02835)
Correct for Stray Light: No (USB4C02835)
Number of Pixels in Processed Spectrum: 3648
>>>>>Begin Processed Spectral Data<<<<<
177.47	1435.63
177.69	1435.63
177.91	1435.63
178.13	1439.72
178.36	1423.34
178.58	1591.27
178.80	1718.25
179.02	1667.05
179.24	1632.23
179.46	1771.49
179.68	1759.21
179.90	1662.95
180.13	1669.09
180.35	1726.44
180.57	1689.57
180.79	1757.16
181.01	1742.82
181.23	1740.77
181.45	1748.97
181.67	1671.14
181.90	1787.88
182.12	1615.85
182.34	1658.85
182.56	1732.58
182.78	1683.43
183.00	1671.14
183.22	1757.16
183.44	1619.94
183.66	1871.84
183.89	1734.63
184.11	1751.01
184.33	1771.49
184.55	1769.44
184.77	1695.72
184.99	1753.06
185.21	1720.29
185.43	1841.12
185.65	1630.18
185.87	1689.57
186.10	1802.21
186.32	1873.89
186.54	1714.15
186.76	1822.69
186.98	1734.63
187.20	1716.20
187.42	1716.20
187.64	1742.82
187.86	1718.25
188.08	1718.25
188.30	1632.23
188.52	1732.58
188.75	1769.44
188.97	1767.40
189.19	1689.57
189.41	1683.43
189.63	1699.81
189.85	1691.62
190.07	1673.19
190.29	1640.42
190.51	1646.57
190.73	1593.32
190.95	1816.55
191.17	1783.78
191.39	1621.99
191.61	1714.15
191.84	1609.70
192.06	1816.55
192.28	1638.38
192.50	1935.33
192.72	1726.44
192.94	1671.14
193.16	1763.30
193.38	1773.54
193.60	1607.66
193.82	1761.25
194.04	1708.01
194.26	1767.40
194.48	1667.05
194.70	1652.71
194.92	1581.03
195.14	1759.21
195.36	1636.33
195.58	1724.39
195.80	1658.85
196.02	1615.85
196.24	1677.29
196.46	1755.11
196.69	1640.42
196.91	1925.09
197.13	1656.81
197.35	1714.15
197.57	1783.78
197.79	1724.39
198.01	1716.20
198.23	1718.25
198.45	1660.90
198.67	1671.14
198.89	1789.92
199.11	1736.68
199.33	1667.05
199.55	1624.04
199.77	1687.53
199.99	1769.44
200.21	1695.72
200.43	1675.24
200.65	1630.18
200.87	1593.32
201.09	1675.24
201.31	1693.67
201.53	1746.92
201.75	1726.44
201.97	1665.00
202.19	1787.88
202.41	1769.44
202.63	1882.08
202.85	1697.77
203.07	1714.15
203.29	1654.76
203.51	1634.28
203.73	1626.09
203.95	1861.60
204.17	1691.62
204.39	1689.57
204.61	1683.43
204.83	1689.57
205.05	1730.53
205.27	1814.50
205.49	1816.55
205.71	1703.91
205.93	1591.27
206.15	1685.48
206.37	1695.72
206.59	1695.72
206.81	1652.71
207.03	1636.33
207.25	1660.90
207.47	1816.55
207.69	1734.63
207.91	1810.40
208.13	1703.91
208.34	1673.19
208.56	1634.28
208.78	1656.81
209.00	1665.00
209.22	1675.24
209.44	1714.15
209.66	1662.95
209.88	1806.31
210.10	1701.86
210.32	1685.48
210.54	1767.40
210.76	1740.77
210.98	1738.73
211.20	1564.65
211.42	1726.44
211.64	1767.40
211.86	1746.92
212.08	1773.54
212.30	1689.57
212.52	1679.33
212.74	1773.54
212.96	1724.39
213.17	1699.81
213.39	1697.77
213.61	1843.17
213.83	1695.72
214.05	1779.68
214.27	1767.40
214.49	1624.04
214.71	1632.23
214.93	1800.16
215.15	1691.62
215.37	1697.77
215.59	1613.80
215.81	1701.86
216.03	1755.11
216.24	1701.86
216.46	1738.73
216.68	1730.53
216.90	1775.59
217.12	1734.63
217.34	1683.43
217.56	1693.67
217.78	1767.40
218.00	1705.96
218.22	1703.91
218.44	1673.19
218.66	1722.34
218.87	1757.16
219.09	1701.86
219.31	1763.30
219.53	1699.81
219.75	1675.24
219.97	1720.29
220.19	1728.49
220.41	1701.86
220.63	1751.01
220.85	1675.24
221.06	1617.90
221.28	1802.21
221.50	1660.90
221.72	1669.09
221.94	1732.58
222.16	1746.92
222.38	1748.97
222.60	1724.39
222.82	1681.38
223.03	1710.05
223.25	1718.25
223.47	1818.60
223.69	1865.70
223.91	1755.11
224.13	1781.73
224.35	1644.52
224.57	1802.21
224.78	1689.57
225.00	1669.09
225.22	1658.85
225.44	1699.81
225.66	1732.58
225.88	1710.05
226.10	1759.21
226.32	1806.31
226.53	1802.21
226.75	1605.61
226.97	1712.10
227.19	1665.00
227.41	1701.86
227.63	1648.61
227.85	1693.67
228.06	1708.01
228.28	1730.53
228.50	1720.29
228.72	1599.46
228.94	1701.86
229.16	1609.70
229.37	1624.04
229.59	1662.95
229.81	1783.78
230.03	1681.38
230.25	1634.28
230.47	1693.67
230.69	1671.14
230.90	1757.16
231.12	1710.05
231.34	1701.86
231.56	1787.88
231.78	1660.90
232.00	1746.92
232.21	1734.63
232.43	1726.44
232.65	1589.22
232.87	1685.48
233.09	1710.05
233.30	1660.90
233.52	1796.07
233.74	1691.62
233.96	1662.95
234.18	1732.58
234.40	1746.92
234.61	1779.68
234.83	1591.27
235.05	1687.53
235.27	1775.59
235.49	1748.97
235.70	1751.01
235.92	1798.12
236.14	1742.82
236.36	1822.69
236.58	1681.38
236.79	1837.03
237.01	1669.09
237.23	1689.57
237.45	1800.16
237.67	1665.00
237.88	1689.57
238.10	1804.26
238.32	1667.05
238.54	1665.00
238.76	1771.49
238.97	1701.86
239.19	1634.28
239.41	1722.34
239.63	1738.73
239.85	1691.62
240.06	1662.95
240.28	1656.81
240.50	1718.25
240.72	1720.29
240.93	1712.10
241.15	1800.16
241.37	1751.01
241.59	1834.98
241.81	1695.72
242.02	1685.48
242.24	1718.25
242.46	1751.01
242.68	1638.38
242.89	1689.57
243.11	1724.39
243.33	1728.49
243.55	1724.39
243.76	1732.58
243.98	1779.68
244.20	1679.33
244.42	1730.53
244.64	1798.12
244.85	1656.81
245.07	1689.57
245.29	1720.29
245.51	1685.48
245.72	1677.29
245.94	1820.64
246.16	1742.82
246.38	1783.78
246.59	1658.85
246.81	1677.29
247.03	1652.71
247.24	1658.85
247.46	1689.57
247.68	1697.77
247.90	1638.38
248.11	1650.66
248.33	1683.43
248.55	1673.19
248.77	1751.01
248.98	1845.22
249.20	1808.36
249.42	1681.38
249.64	1748.97
249.85	1732.58
250.07	1658.85
250.29	1855.46
250.50	1716.20
250.72	1685.48
250.94	1761.25
251.16	1789.92
251.37	1771.49
251.59	1724.39
251.81	1730.53
252.02	1800.16
252.24	1644.52
252.46	1781.73
252.68	1617.90
252.89	1660.90
253.11	1632.23
253.33	1761.25
253.54	1716.20
253.76	1601.51
253.98	1683.43
254.20	1722.34
254.41	1613.80
254.63	1595.37
254.85	1677.29
255.06	1699.81
255.28	1705.96
255.50	1720.29
255.71	1679.33
255.93	1632.23
256.15	1763.30
256.36	1751.01
256.58	1687.53
256.80	1685.48
257.02	1656.81
257.23	1714.15
257.45	1767.40
257.67	1771.49
257.88	1691.62
258.10	1732.58
258.32	1728.49
258.53	1699.81
258.75	1798.12
258.97	1703.91
259.18	1683.43
259.40	1718.25
259.62	1851.36
259.83	1812.45
260.05	1679.33
260.27	1964.00
260.48	1779.68
260.70	1626.09
260.92	1736.68
261.13	1722.34
261.35	1742.82
261.57	1689.57
261.78	1652.71
262.00	1703.91
262.22	1695.72
262.43	1710.05
262.65	1636.33
262.86	1734.63
263.08	1896.42
263.30	1626.09
263.51	1681.38
263.73	1718.25
263.95	1839.08
264.16	1609.70
264.38	1714.15
264.60	1730.53
264.81	1654.76
265.03	1771.49
265.25	1765.35
265.46	1722.34
265.68	1791.97
265.89	1708.01
266.11	1605.61
266.33	1746.92
266.54	1763.30
266.76	1630.18
266.98	1759.21
267.19	1779.68
267.41	1828.84
267.62	1675.24
267.84	1558.50
268.06	1751.01
268.27	1681.38
268.49	1660.90
268.70	1769.44
268.92	1751.01
269.14	1642.47
269.35	1634.28
269.57	1730.53
269.79	1691.62
270.00	1681.38
270.22	1755.11
270.43	1695.72
270.65	1652.71
270.87	1720.29
271.08	1708.01
271.30	1746.92
271.51	1714.15
271.73	1734.63
271.95	1800.16
272.16	1697.77
272.38	1714.15
272.59	1681.38
272.81	1812.45
273.02	1681.38
273.24	1718.25
273.46	1822.69
273.67	1671.14
273.89	1695.72
274.10	1673.19
274.32	1722.34
274.54	1761.25
274.75	1736.68
274.97	1736.68
275.18	1710.05
275.40	1796.07
275.61	1644.52
275.83	1740.77
276.05	1630.18
276.26	1671.14
276.48	1798.12
276.69	1558.50
276.91	1693.67
277.12	1751.01
277.34	1705.96
277.55	1753.06
277.77	1685.48
277.99	1705.96
278.20	1654.76
278.42	1730.53
278.63	1658.85
278.85	1660.90
279.06	1605.61
279.28	1779.68
279.49	1796.07
279.71	1683.43
279.93	1738.73
280.14	1662.95
280.36	1617.90
280.57	1673.19
280.79	1804.26
281.00	1640.42
281.22	1685.48
281.43	1746.92
281.65	1607.66
281.86	1679.33
282.08	1736.68
282.29	1841.12
282.51	1658.85
282.73	1644.52
282.94	1591.27
283.16	1742.82
283.37	1785.83
283.59	1701.86
283.80	1718.25
284.02	1683.43
284.23	1712.10
284.45	1603.56
284.66	1601.51
284.88	1697.77
285.09	1667.05
285.31	1808.36
285.52	1724.39
285.74	1613.80
285.95	1703.91
286.17	1712.10
286.38	1781.73
286.60	1685.48
286.81	1681.38
287.03	1673.19
287.24	1722.34
287.46	1798.12
287.67	1652.71
287.89	1798.12
288.10	1740.77
288.32	1724.39
288.53	1773.54
288.75	1716.20
288.96	1787.88
289.18	1599.46
289.39	1763.30
289.61	1787.88
289.82	1832.93
290.04	1753.06
290.25	1687.53
290.47	1697.77
290.68	1607.66
290.90	1740.77
291.11	1689.57
291.33	1679.33
291.54	1677.29
291.76	1632.23
291.97	1736.68
292.18	1701.86
292.40	1716.20
292.61	1689.57
292.83	1861.60
293.04	1732.58
293.26	1789.92
293.47	1769.44
293.69	1660.90
293.90	1738.73
294.12	1761.25
294.33	1675.24
294.55	1755.11
294.76	1759.21
294.97	1810.40
295.19	1847.27
295.40	1712.10
295.62	1732.58
295.83	1734.63
296.05	1662.95
296.26	1822.69
296.48	1683.43
296.69	1708.01
296.90	1767.40
297.12	1679.33
297.33	1814.50
297.55	1673.19
297.76	1724.39
297.98	1634.28
298.19	1667.05
298.41	1798.12
298.62	1654.76
298.83	1789.92
299.05	1757.16
299.26	1685.48
299.48	1630.18
299.69	1755.11
299.90	1738.73
300.12	1642.47
300.33	1742.82
300.55	1712.10
300.76	1587.18
300.98	1591.27
301.19	1708.01
301.40	1720.29
301.62	1667.05
301.83	1660.90
302.05	1730.53
302.26	1701.86
302.47	1777.64
302.69	1640.42
302.90	1697.77
303.12	1624.04
303.33	1746.92
303.54	1779.68
303.76	1697.77
303.97	1734.63
304.19	1722.34
304.40	1634.28
304.61	1730.53
304.83	1779.68
305.04	1773.54
305.26	1710.05
305.47	1712.10
305.68	1681.38
305.90	1677.29
306.11	1738.73
306.33	1673.19
306.54	1689.57
306.75	1708.01
306.97	1677.29
307.18	1646.57
307.39	1640.42
307.61	1738.73
307.82	1697.77
308.04	1771.49
308.25	1701.86
308.46	1718.25
308.68	1605.61
308.89	1718.25
309.10	1738.73
309.32	1638.38
309.53	1689.57
309.74	1716.20
309.96	1736.68
310.17	1714.15
310.39	1708.01
310.60	1644.52
310.81	1705.96
311.03	1650.66
311.24	1742.82
311.45	1644.52
311.67	1753.06
311.88	1814.50
312.09	1687.53
312.31	1656.81
312.52	1701.86
312.73	1748.97
312.95	1693.67
313.16	1730.53
313.37	1789.92
313.59	1755.11
313.80	1685.48
314.01	1771.49
314.23	1603.56
314.44	1675.24
314.65	1613.80
314.87	1574.89
315.08	1634.28
315.29	1730.53
315.51	1699.81
315.72	1628.14
315.93	1787.88
316.15	1822.69
316.36	1652.71
316.57	1726.44
316.79	1744.87
317.00	1748.97
317.21	1759.21
317.43	1740.77
317.64	1816.55
317.85	1642.47
318.07	1685.48
318.28	1798.12
318.49	1951.71
318.70	1931.23
318.92	1931.23
319.13	1961.95
319.34	1869.80
319.56	1810.40
319.77	1869.80
319.98	1785.83
320.20	1857.51
320.41	1710.05
320.62	1771.49
320.83	1701.86
321.05	1800.16
321.26	1755.11
321.47	1720.29
321.69	1757.16
321.90	1697.77
322.11	1718.25
322.32	1687.53
322.54	1800.16
322.75	1705.96
322.96	1837.03
323.18	1603.56
323.39	1617.90
323.60	1691.62
323.81	1748.97
324.03	1621.99
324.24	1646.57
324.45	1679.33
324.66	1699.81
324.88	1734.63
325.09	1738.73
325.30	1730.53
325.52	1714.15
325.73	1695.72
325.94	1656.81
326.15	1548.26
326.37	1697.77
326.58	1751.01
326.79	1777.64
327.00	1693.67
327.22	1738.73
327.43	1626.09
327.64	1648.61
327.85	1777.64
328.07	1619.94
328.28	1740.77
328.49	1665.00
328.70	1699.81
328.92	1683.43
329.13	1720.29
329.34	1785.83
329.55	1775.59
329.76	1830.88
329.98	1714.15
330.19	1746.92
330.40	1769.44
330.61	1808.36
330.83	1726.44
331.04	1574.89
331.25	1677.29
331.46	1675.24
331.68	1617.90
331.89	1779.68
332.10	1753.06
332.31	1638.38
332.52	1718.25
332.74	1718.25
332.95	1654.76
333.16	1746.92
333.37	1734.63
333.58	1585.13
333.80	1703.91
334.01	1648.61
334.22	1720.29
334.43	1642.47
334.64	1621.99
334.86	1628.14
335.07	1673.19
335.28	1765.35
335.49	1628.14
335.70	1697.77
335.92	1779.68
336.13	1908.71
336.34	1755.11
336.55	1728.49
336.76	1726.44
336.98	1611.75
337.19	1800.16
337.40	1814.50
337.61	1810.40
337.82	1791.97
338.04	1800.16
338.25	1658.85
338.46	1789.92
338.67	1634.28
338.88	1691.62
339.09	1673.19
339.31	1652.71
339.52	1626.09
339.73	1630.18
339.94	1800.16
340.15	1746.92
340.36	1716.20
340.58	1714.15
340.79	1691.62
341.00	1769.44
341.21	1646.57
341.42	1773.54
341.63	1679.33
341.85	1773.54
342.06	1712.10
342.27	1681.38
342.48	1720.29
342.69	1628.14
342.90	1777.64
343.12	1777.64
343.33	1691.62
343.54	1798.12
343.75	1773.54
343.96	1744.87
344.17	1726.44
344.38	1691.62
344.60	1660.90
344.81	1642.47
345.02	1710.05
345.23	1767.40
345.44	1886.18
345.65	1767.40
345.86	1738.73
346.07	1722.34
346.29	1728.49
346.50	1693.67
346.71	1834.98
346.92	1767.40
347.13	1892.32
347.34	1701.86
347.55	1791.97
347.76	1658.85
347.98	1591.27
348.19	1771.49
348.40	1802.21
348.61	1671.14
348.82	1767.40
349.03	1673.19
349.24	1626.09
349.45	1875.94
349.66	1630.18
349.88	1681.38
350.09	1619.94
350.30	1847.27
350.51	1800.16
350.72	1748.97
350.93	1728.49
351.14	1681.38
351.35	1675.24
351.56	1726.44
351.77	1722.34
351.99	1734.63
352.20	1851.36
352.41	1730.53
352.62	1607.66
352.83	1710.05
353.04	1646.57
353.25	1687.53
353.46	1796.07
353.67	1738.73
353.88	1624.04
354.09	1757.16
354.30	1652.71
354.52	1736.68
354.73	1677.29
354.94	1677.29
355.15	1746.92
355.36	1785.83
355.57	1687.53
355.78	1718.25
355.99	1667.05
356.20	1722.34
356.41	1757.16
356.62	1787.88
356.83	1755.11
357.04	1742.82
357.25	1624.04
357.46	1781.73
357.68	1648.61
357.89	1679.33
358.10	1771.49
358.31	1718.25
358.52	1716.20
358.73	1673.19
358.94	1724.39
359.15	1640.42
359.36	1679.33
359.57	1714.15
359.78	1691.62
359.99	1828.84
360.20	1658.85
360.41	1673.19
360.62	1765.35
360.83	1777.64
361.04	1740.77
361.25	1722.34
361.46	1812.45
361.67	1714.15
361.88	1718.25
362.09	1763.30
362.30	1744.87
362.51	1675.24
362.72	1716.20
362.93	1779.68
363.14	1734.63
363.35	1665.00
363.56	1722.34
363.78	1781.73
363.99	1738.73
364.20	1671.14
364.41	1677.29
364.62	1783.78
364.83	1724.39
365.04	1759.21
365.25	1734.63
365.46	1808.36
365.67	1665.00
365.88	1681.38
366.09	1753.06
366.30	1724.39
366.51	1683.43
366.72	1708.01
366.93	1748.97
367.14	1705.96
367.35	1802.21
367.56	1755.11
367.77	1775.59
367.98	1656.81
368.18	1695.72
368.39	1722.34
368.60	1722.34
368.81	1753.06
369.02	1673.19
369.23	1708.01
369.44	1699.81
369.65	1628.14
369.86	1728.49
370.07	1628.14
370.28	1724.39
370.49	1716.20
370.70	1716.20
370.91	1677.29
371.12	1667.05
371.33	1746.92
371.54	1710.05
371.75	1736.68
371.96	1648.61
372.17	1677.29
372.38	1722.34
372.59	1751.01
372.80	1667.05
373.01	1677.29
373.22	1755.11
373.43	1703.91
373.64	1677.29
373.85	1779.68
374.06	1771.49
374.26	1785.83
374.47	1720.29
374.68	1730.53
374.89	1740.77
375.10	1705.96
375.31	1771.49
375.52	1650.66
375.73	1703.91
375.94	1654.76
376.15	1818.60
376.36	1665.00
376.57	1648.61
376.78	1677.29
376.99	1736.68
377.20	1734.63
377.40	1708.01
377.61	1814.50
377.82	1640.42
378.03	1800.16
378.24	1722.34
378.45	1712.10
378.66	1820.64
378.87	1634.28
379.08	1654.76
379.29	1669.09
379.50	1753.06
379.71	1619.94
379.91	1751.01
380.12	1726.44
380.33	1828.84
380.54	1720.29
380.75	1742.82
380.96	1695.72
381.17	1769.44
381.38	1697.77
381.59	1822.69
381.80	1787.88
382.00	1937.38
382.21	1779.68
382.42	1861.60
382.63	1841.12
382.84	1798.12
383.05	1810.40
383.26	1804.26
383.47	1744.87
383.68	1753.06
383.88	1701.86
384.09	1708.01
384.30	1800.16
384.51	1771.49
384.72	1708.01
384.93	1689.57
385.14	1730.53
385.35	1822.69
385.55	1529.83
385.76	1787.88
385.97	1722.34
386.18	1642.47
386.39	1718.25
386.60	1658.85
386.81	1738.73
387.02	1636.33
387.22	1632.23
387.43	1804.26
387.64	1761.25
387.85	1927.14
388.06	2248.67
388.27	4724.66
388.48	9066.36
388.68	11773.77
388.89	13604.66
389.10	14206.76
389.31	12048.20
389.52	9742.19
389.73	8742.78
389.93	7958.41
390.14	7313.30
390.35	6573.98
390.56	6029.22
390.77	4933.56
390.98	3825.61
391.18	3076.05
391.39	2396.12
391.60	2000.87
391.81	1810.40
392.02	1728.49
392.23	1820.64
392.43	1724.39
392.64	1857.51
392.85	1701.86
393.06	1880.04
393.27	1757.16
393.47	1722.34
393.68	1734.63
393.89	1687.53
394.10	1777.64
394.31	1728.49
394.52	1652.71
394.72	1665.00
394.93	1871.84
395.14	1693.67
395.35	1695.72
395.56	1662.95
395.76	1699.81
395.97	1828.84
396.18	1857.51
396.39	1890.28
396.60	2093.02
396.80	1902.56
397.01	1865.70
397.22	1900.52
397.43	1902.56
397.64	1763.30
397.84	1769.44
398.05	1914.85
398.26	1771.49
398.47	1771.49
398.67	1880.04
398.88	1687.53
399.09	1736.68
399.30	1734.63
399.51	1781.73
399.71	1720.29
399.92	1669.09
400.13	1834.98
400.34	1701.86
400.54	1705.96
400.75	1863.65
400.96	1685.48
401.17	1855.46
401.37	1755.11
401.58	1738.73
401.79	1697.77
402.00	1812.45
402.21	2017.25
402.41	2035.68
402.62	2029.54
402.83	2246.62
403.04	2056.16
403.24	2152.42
403.45	1902.56
403.66	1976.29
403.87	1914.85
404.07	1896.42
404.28	2025.44
404.49	1976.29
404.70	1781.73
404.90	1828.84
405.11	1824.74
405.32	1701.86
405.52	1710.05
405.73	1708.01
405.94	1701.86
406.15	1724.39
406.35	1736.68
406.56	1726.44
406.77	1751.01
406.98	1708.01
407.18	1652.71
407.39	1789.92
407.60	1744.87
407.80	1710.05
408.01	1677.29
408.22	1757.16
408.43	1671.14
408.63	1791.97
408.84	1755.11
409.05	1742.82
409.25	1703.91
409.46	1626.09
409.67	1679.33
409.88	1675.24
410.08	1726.44
410.29	1607.66
410.50	1697.77
410.70	1755.11
410.91	1708.01
411.12	1746.92
411.32	1767.40
411.53	1691.62
411.74	1785.83
411.95	1802.21
412.15	1794.02
412.36	1796.07
412.57	1769.44
412.77	1839.08
412.98	1746.92
413.19	1693.67
413.39	1755.11
413.60	1693.67
413.81	1888.23
414.01	1669.09
414.22	1628.14
414.43	1818.60
414.63	1724.39
414.84	1757.16
415.05	1728.49
415.25	1695.72
415.46	1839.08
415.67	1652.71
415.87	1736.68
416.08	1734.63
416.29	1701.86
416.49	1775.59
416.70	1648.61
416.91	1703.91
417.11	1781.73
417.32	1791.97
417.53	1751.01
417.73	1703.91
417.94	1755.11
418.15	1775.59
418.35	1718.25
418.56	1658.85
418.77	1834.98
418.97	1673.19
419.18	1771.49
419.38	1603.56
419.59	1648.61
419.80	1808.36
420.00	1722.34
420.21	1740.77
420.42	1761.25
420.62	1718.25
420.83	1712.10
421.04	1730.53
421.24	1720.29
421.45	1794.02
421.65	1638.38
421.86	1701.86
422.07	1759.21
422.27	1748.97
422.48	1675.24
422.69	1699.81
422.89	1681.38
423.10	1695.72
423.30	1624.04
423.51	1716.20
423.72	1734.63
423.92	1800.16
424.13	1748.97
424.33	1673.19
424.54	1796.07
424.75	1724.39
424.95	1812.45
425.16	1712.10
425.36	1667.05
425.57	1697.77
425.78	1783.78
425.98	1767.40
426.19	1695.72
426.39	1642.47
426.60	1755.11
426.81	1767.40
427.01	1630.18
427.22	1726.44
427.42	1650.66
427.63	1734.63
427.83	1734.63
428.04	1820.64
428.25	1808.36
428.45	1703.91
428.66	1791.97
428.86	1677.29
429.07	1742.82
429.28	1830.88
429.48	1687.53
429.69	1656.81
429.89	1691.62
430.10	1648.61
430.30	1724.39
430.51	1708.01
430.71	1632.23
430.92	1761.25
431.13	1640.42
431.33	1767.40
431.54	1730.53
431.74	1757.16
431.95	1839.08
432.15	1609.70
432.36	1695.72
432.56	1767.40
432.77	1808.36
432.98	1830.88
433.18	1748.97
433.39	1693.67
433.59	1628.14
433.80	1804.26
434.00	1808.36
434.21	1669.09
434.41	1642.47
434.62	1863.65
434.82	1693.67
435.03	1675.24
435.23	1687.53
435.44	1634.28
435.64	1736.68
435.85	1759.21
436.06	1794.02
436.26	1748.97
436.47	1624.04
436.67	1710.05
436.88	1599.46
437.08	1751.01
437.29	1802.21
437.49	1755.11
437.70	1763.30
437.90	1738.73
438.11	1906.66
438.31	1853.41
438.52	1873.89
438.72	1939.43
438.93	1875.94
439.13	1806.31
439.34	1814.50
439.54	1796.07
439.75	1785.83
439.95	1812.45
440.16	1806.31
440.36	1826.79
440.57	1730.53
440.77	1742.82
440.98	1773.54
441.18	1783.78
441.39	1640.42
441.59	1755.11
441.80	1849.32
442.00	1703.91
442.21	1875.94
442.41	1714.15
442.62	1724.39
442.82	1642.47
443.02	1716.20
443.23	1703.91
443.43	1726.44
443.64	1820.64
443.84	1708.01
444.05	1837.03
444.25	1816.55
444.46	1722.34
444.66	1789.92
444.87	1888.23
445.07	1677.29
445.28	1718.25
445.48	1761.25
445.69	1769.44
445.89	1955.81
446.09	1724.39
446.30	2009.06
446.50	2662.36
446.71	4171.71
446.91	5156.79
447.12	5947.30
447.32	5920.68
447.53	5398.45
447.73	4495.29
447.93	4011.97
448.14	3712.97
448.34	3422.16
448.55	3110.86
448.75	3088.34
448.96	2959.31
449.16	2648.02
449.36	2396.12
449.57	2136.03
449.77	1939.43
449.98	1800.16
450.18	1841.12
450.39	1916.90
450.59	1818.60
450.79	1728.49
451.00	1677.29
451.20	1800.16
451.41	1736.68
451.61	1705.96
451.81	1767.40
452.02	1769.44
452.22	1673.19
452.43	1669.09
452.63	1744.87
452.84	1722.34
453.04	1708.01
453.24	1722.34
453.45	1708.01
453.65	1681.38
453.86	1779.68
454.06	1714.15
454.26	1779.68
454.47	1708.01
454.67	1857.51
454.87	1751.01
455.08	1818.60
455.28	1859.56
455.49	1902.56
455.69	1728.49
455.89	1775.59
456.10	1857.51
456.30	1734.63
456.51	1787.88
456.71	1738.73
456.91	1800.16
457.12	1769.44
457.32	1746.92
457.52	1632.23
457.73	1781.73
457.93	1757.16
458.14	1751.01
458.34	1665.00
458.54	1701.86
458.75	1675.24
458.95	1826.79
459.15	1705.96
459.36	1697.77
459.56	1861.60
459.76	1820.64
459.97	1771.49
460.17	1775.59
460.37	1775.59
460.58	1626.09
460.78	1779.68
460.99	1681.38
461.19	1738.73
461.39	1681.38
461.60	1746.92
461.80	1765.35
462.00	1665.00
462.21	1669.09
462.41	1665.00
462.61	1646.57
462.82	1687.53
463.02	1695.72
463.22	1746.92
463.43	1771.49
463.63	1769.44
463.83	1816.55
464.04	1779.68
464.24	1736.68
464.44	1705.96
464.64	1665.00
464.85	1687.53
465.05	1857.51
465.25	1796.07
465.46	1697.77
465.66	1814.50
465.86	1736.68
466.07	1665.00
466.27	1722.34
466.47	1656.81
466.68	1601.51
466.88	1685.48
467.08	1701.86
467.29	1834.98
467.49	1710.05
467.69	1763.30
467.89	1804.26
468.10	1724.39
468.30	1705.96
468.50	1794.02
468.71	1789.92
468.91	1634.28
469.11	1894.37
469.31	1742.82
469.52	1712.10
469.72	1798.12
469.92	1796.07
470.13	1697.77
470.33	1732.58
470.53	1853.41
470.73	2127.84
470.94	2473.95
471.14	2678.74
471.34	2949.08
471.54	2852.82
471.75	2478.04
471.95	2381.79
472.15	2303.96
472.36	2207.71
472.56	2263.01
472.76	2078.69
472.96	2133.98
473.17	2007.01
473.37	1955.81
473.57	1837.03
473.77	1822.69
473.98	1834.98
474.18	1689.57
474.38	1888.23
474.58	1658.85
474.79	1695.72
474.99	1802.21
475.19	1767.40
475.39	1671.14
475.60	1746.92
475.80	1673.19
476.00	1736.68
476.20	1716.20
476.41	1708.01
476.61	1890.28
476.81	1800.16
477.01	1648.61
477.21	1861.60
477.42	1783.78
477.62	1718.25
477.82	1849.32
478.02	1642.47
478.23	1730.53
478.43	1611.75
478.63	1693.67
478.83	1703.91
479.03	1734.63
479.24	1826.79
479.44	1804.26
479.64	1611.75
479.84	1636.33
480.04	1693.67
480.25	1761.25
480.45	1753.06
480.65	1748.97
480.85	1814.50
481.06	1708.01
481.26	1800.16
481.46	1722.34
481.66	1765.35
481.86	1654.76
482.06	1765.35
482.27	1712.10
482.47	1671.14
482.67	1771.49
482.87	1751.01
483.07	1755.11
483.28	1693.67
483.48	1634.28
483.68	1718.25
483.88	1671.14
484.08	1626.09
484.29	1718.25
484.49	1738.73
484.69	1705.96
484.89	1828.84
485.09	1820.64
485.29	1806.31
485.50	1742.82
485.70	1609.70
485.90	1804.26
486.10	1732.58
486.30	1728.49
486.50	1761.25
486.71	1775.59
486.91	1800.16
487.11	1789.92
487.31	1628.14
487.51	1763.30
487.71	1697.77
487.91	1677.29
488.12	1669.09
488.32	1609.70
488.52	1691.62
488.72	1656.81
488.92	1736.68
489.12	1828.84
489.32	1828.84
489.53	1761.25
489.73	1597.42
489.93	1742.82
490.13	1734.63
490.33	1746.92
490.53	1701.86
490.73	1824.74
490.94	1677.29
491.14	1746.92
491.34	1791.97
491.54	2174.94
491.74	2709.46
491.94	3196.88
492.14	3456.97
492.34	3530.70
492.54	3229.65
492.75	2748.37
492.95	2555.86
493.15	2478.04
493.35	2312.16
493.55	2326.49
493.75	2181.09
493.95	2193.37
494.15	2095.07
494.35	1947.62
494.56	1847.27
494.76	1824.74
494.96	1820.64
495.16	1832.93
495.36	1730.53
495.56	1736.68
495.76	1738.73
495.96	1738.73
496.16	1628.14
496.36	1859.56
496.56	1738.73
496.77	1734.63
496.97	1740.77
497.17	1824.74
497.37	1642.47
497.57	1740.77
497.77	1726.44
497.97	1660.90
498.17	1761.25
498.37	1728.49
498.57	1816.55
498.77	1640.42
498.97	1855.46
499.17	1843.17
499.38	1726.44
499.58	1804.26
499.78	1779.68
499.98	1855.46
500.18	1710.05
500.38	1738.73
500.58	1914.85
500.78	2394.08
500.98	4509.63
501.18	6559.64
501.38	8171.40
501.58	8968.06
501.78	8746.87
501.98	7022.48
502.18	5965.73
502.38	4982.71
502.58	4540.35
502.78	4143.04
502.98	3958.72
503.18	3821.51
503.38	3606.47
503.59	3016.66
503.79	2959.31
503.99	2619.35
504.19	2412.51
504.39	2361.31
504.59	2416.60
504.79	2387.93
504.99	2279.39
505.19	2123.74
505.39	2070.50
505.59	2015.20
505.79	2017.25
505.99	1888.23
506.19	1859.56
506.39	1943.52
506.59	1738.73
506.79	1767.40
506.99	1908.71
507.19	1804.26
507.39	1804.26
507.59	1677.29
507.79	1718.25
507.99	1695.72
508.19	1736.68
508.39	1624.04
508.59	1689.57
508.79	1849.32
508.99	1826.79
509.19	1673.19
509.39	1763.30
509.59	1722.34
509.79	1691.62
509.99	1726.44
510.19	1771.49
510.39	1763.30
510.59	1767.40
510.79	1734.63
510.99	1632.23
511.19	1744.87
511.39	1849.32
511.59	1767.40
511.79	1796.07
511.99	1798.12
512.19	1826.79
512.38	1773.54
512.58	1738.73
512.78	1724.39
512.98	1804.26
513.18	1771.49
513.38	1714.15
513.58	1781.73
513.78	1701.86
513.98	1708.01
514.18	1705.96
514.38	1683.43
514.58	1798.12
514.78	1769.44
514.98	1667.05
515.18	1714.15
515.38	1691.62
515.58	1882.08
515.78	1757.16
515.98	1738.73
516.18	1773.54
516.38	1765.35
516.57	1720.29
516.77	1751.01
516.97	1806.31
517.17	1710.05
517.37	1662.95
517.57	1767.40
517.77	1669.09
517.97	1740.77
518.17	1783.78
518.37	1679.33
518.57	1660.90
518.77	1714.15
518.97	1759.21
519.16	1791.97
519.36	1824.74
519.56	1720.29
519.76	1755.11
519.96	1804.26
520.16	1804.26
520.36	1619.94
520.56	1832.93
520.76	1714.15
520.96	1656.81
521.16	1816.55
521.35	1767.40
521.55	1794.02
521.75	1751.01
521.95	1652.71
522.15	1726.44
522.35	1681.38
522.55	1742.82
522.75	1873.89
522.95	1714.15
523.14	1630.18
523.34	1734.63
523.54	1685.48
523.74	1771.49
523.94	1738.73
524.14	1654.76
524.34	1689.57
524.54	1785.83
524.73	1648.61
524.93	1609.70
525.13	1718.25
525.33	1611.75
525.53	1789.92
525.73	1751.01
525.93	1718.25
526.13	1699.81
526.32	1730.53
526.52	1734.63
526.72	1810.40
526.92	1773.54
527.12	1712.10
527.32	1652.71
527.52	1771.49
527.71	1775.59
527.91	1765.35
528.11	1720.29
528.31	1751.01
528.51	1681.38
528.71	1720.29
528.90	1716.20
529.10	1789.92
529.30	1777.64
529.50	1665.00
529.70	1726.44
529.90	1693.67
530.09	1736.68
530.29	1652.71
530.49	1671.14
530.69	1841.12
530.89	1589.22
531.09	1802.21
531.28	1775.59
531.48	1841.12
531.68	1755.11
531.88	1779.68
532.08	1763.30
532.28	1701.86
532.47	1830.88
532.67	1787.88
532.87	1732.58
533.07	1718.25
533.27	1839.08
533.46	1755.11
533.66	1763.30
533.86	1777.64
534.06	1785.83
534.26	1748.97
534.45	1820.64
534.65	1847.27
534.85	1785.83
535.05	1769.44
535.25	1783.78
535.44	1667.05
535.64	1810.40
535.84	1787.88
536.04	1695.72
536.24	1689.57
536.43	1679.33
536.63	1726.44
536.83	1718.25
537.03	1669.09
537.22	1675.24
537.42	1601.51
537.62	1699.81
537.82	1701.86
538.02	1773.54
538.21	1789.92
538.41	1929.19
538.61	1779.68
538.81	1695.72
539.00	1839.08
539.20	1673.19
539.40	1771.49
539.60	1751.01
539.79	1834.98
539.99	1648.61
540.19	1673.19
540.39	1693.67
540.58	1761.25
540.78	1814.50
540.98	1734.63
541.18	1781.73
541.37	1763.30
541.57	1742.82
541.77	1755.11
541.97	1671.14
542.16	1681.38
542.36	1742.82
542.56	1779.68
542.76	1959.91
542.95	1763.30
543.15	1796.07
543.35	1755.11
543.54	1748.97
543.74	1681.38
543.94	1853.41
544.14	1683.43
544.33	1742.82
544.53	1757.16
544.73	1779.68
544.93	1738.73
545.12	1644.52
545.32	1714.15
545.52	1740.77
545.71	1636.33
545.91	1714.15
546.11	1691.62
546.30	1705.96
546.50	1710.05
546.70	1687.53
546.90	1685.48
547.09	1751.01
547.29	1742.82
547.49	1787.88
547.68	1693.67
547.88	1703.91
548.08	1759.21
548.27	2133.98
548.47	1710.05
548.67	1708.01
548.87	1783.78
549.06	1693.67
549.26	1744.87
549.46	1828.84
549.65	1656.81
549.85	1697.77
550.05	1736.68
550.24	1685.48
550.44	1763.30
550.64	1722.34
550.83	1716.20
551.03	1886.18
551.23	1753.06
551.42	1751.01
551.62	1708.01
551.82	1695.72
552.01	1691.62
552.21	1843.17
552.41	1683.43
552.60	1785.83
552.80	1677.29
553.00	1736.68
553.19	1740.77
553.39	1867.75
553.59	1740.77
553.78	1708.01
553.98	1757.16
554.17	1621.99
554.37	1806.31
554.57	1753.06
554.76	1615.85
554.96	1722.34
555.16	1738.73
555.35	1751.01
555.55	1769.44
555.75	1673.19
555.94	1765.35
556.14	1736.68
556.33	1773.54
556.53	1851.36
556.73	1652.71
556.92	1787.88
557.12	1828.84
557.32	1824.74
557.51	1855.46
557.71	1734.63
557.90	1779.68
558.10	1796.07
558.30	1742.82
558.49	1714.15
558.69	1705.96
558.88	1800.16
559.08	1660.90
559.28	1714.15
559.47	1794.02
559.67	1751.01
559.86	1816.55
560.06	1773.54
560.26	1732.58
560.45	1767.40
560.65	1757.16
560.84	1787.88
561.04	1673.19
561.24	1814.50
561.43	1701.86
561.63	1882.08
561.82	1724.39
562.02	1759.21
562.22	1787.88
562.41	1693.67
562.61	1718.25
562.80	1685.48
563.00	1851.36
563.19	1761.25
563.39	1722.34
563.59	1769.44
563.78	1638.38
563.98	1646.57
564.17	1644.52
564.37	1640.42
564.56	1660.90
564.76	1628.14
564.96	1806.31
565.15	1789.92
565.35	1959.91
565.54	1665.00
565.74	1845.22
565.93	1769.44
566.13	1785.83
566.32	1781.73
566.52	1771.49
566.71	1751.01
566.91	1748.97
567.11	1705.96
567.30	1734.63
567.50	1742.82
567.69	1810.40
567.89	1794.02
568.08	1738.73
568.28	1769.44
568.47	1757.16
568.67	1763.30
568.86	1806.31
569.06	1789.92
569.25	1769.44
569.45	1685.48
569.64	1691.62
569.84	1726.44
570.04	1777.64
570.23	1712.10
570.43	1771.49
570.62	1748.97
570.82	1757.16
571.01	1685.48
571.21	1787.88
571.40	1621.99
571.60	1767.40
571.79	1730.53
571.99	1832.93
572.18	1689.57
572.38	1716.20
572.57	1804.26
572.77	1775.59
572.96	1837.03
573.16	1769.44
573.35	1736.68
573.55	1816.55
573.74	1767.40
573.94	1699.81
574.13	1738.73
574.33	1843.17
574.52	1863.65
574.71	1757.16
574.91	1697.77
575.10	1730.53
575.30	1669.09
575.49	1763.30
575.69	1736.68
575.88	1814.50
576.08	1822.69
576.27	1853.41
576.47	1789.92
576.66	1839.08
576.86	1873.89
577.05	1769.44
577.25	1857.51
577.44	1912.80
577.64	1736.68
577.83	1730.53
578.02	1732.58
578.22	1834.98
578.41	1828.84
578.61	1738.73
578.80	1669.09
579.00	1847.27
579.19	1771.49
579.39	1791.97
579.58	1828.84
579.77	1773.54
579.97	1851.36
580.16	1769.44
580.36	1877.99
580.55	1834.98
580.75	1865.70
580.94	1712.10
581.13	1890.28
581.33	1869.80
581.52	1712.10
581.72	1927.14
581.91	1839.08
582.11	1779.68
582.30	1884.13
582.49	1789.92
582.69	1865.70
582.88	1822.69
583.08	1843.17
583.27	1902.56
583.47	1791.97
583.66	1820.64
583.85	1769.44
584.05	1746.92
584.24	1888.23
584.44	1902.56
584.63	1888.23
584.82	1920.99
585.02	1916.90
585.21	1970.15
585.41	1908.71
585.60	1918.95
585.79	1970.15
585.99	2021.35
586.18	1927.14
586.37	2197.47
586.57	3393.48
586.76	9893.74
586.96	27260.51
587.15	41844.10
587.34	51674.35
587.54	57904.27
587.73	55864.49
587.93	40150.43
588.12	29576.76
588.31	23768.73
588.51	20299.47
588.70	18478.82
588.89	17104.64
589.09	15439.64
589.28	13461.30
589.47	11642.70
589.67	9518.96
589.86	7360.40
590.06	5506.99
590.25	4177.86
590.44	3213.26
590.64	2693.08
590.83	2244.57
591.02	2129.89
591.22	2041.82
591.41	1910.75
591.60	1900.52
591.80	1957.86
591.99	1765.35
592.18	1806.31
592.38	1814.50
592.57	1812.45
592.76	1812.45
592.96	1806.31
593.15	1763.30
593.34	1857.51
593.54	1757.16
593.73	1796.07
593.92	1726.44
594.12	1820.64
594.31	1787.88
594.50	1966.05
594.70	1873.89
594.89	1996.77
595.08	1689.57
595.28	1753.06
595.47	1955.81
595.66	1753.06
595.86	1667.05
596.05	1730.53
596.24	1783.78
596.43	1857.51
596.63	1886.18
596.82	1884.13
597.01	1812.45
597.21	1886.18
597.40	1794.02
597.59	1757.16
597.79	1757.16
597.98	1814.50
598.17	1808.36
598.36	1808.36
598.56	1812.45
598.75	1781.73
598.94	1830.88
599.14	1773.54
599.33	1699.81
599.52	1763.30
599.71	1761.25
599.91	1796.07
600.10	1808.36
600.29	1771.49
600.48	1732.58
600.68	1751.01
600.87	1716.20
601.06	1699.81
601.26	1732.58
601.45	1808.36
601.64	1656.81
601.83	1845.22
602.03	1734.63
602.22	1693.67
602.41	1775.59
602.60	1830.88
602.80	1800.16
602.99	1759.21
603.18	1669.09
603.37	1722.34
603.57	1753.06
603.76	1796.07
603.95	1826.79
604.14	1695.72
604.34	1791.97
604.53	1769.44
604.72	1730.53
604.91	1757.16
605.10	1775.59
605.30	1697.77
605.49	1882.08
605.68	1722.34
605.87	1789.92
606.07	1693.67
606.26	1738.73
606.45	1742.82
606.64	1742.82
606.84	1712.10
607.03	1765.35
607.22	1877.99
607.41	1773.54
607.60	1826.79
607.80	1791.97
607.99	1787.88
608.18	1708.01
608.37	1734.63
608.56	1675.24
608.76	1816.55
608.95	1898.47
609.14	1826.79
609.33	1902.56
609.52	1865.70
609.72	1828.84
609.91	1939.43
610.10	1816.55
610.29	1845.22
610.48	1828.84
610.68	1722.34
610.87	1683.43
611.06	1789.92
611.25	1687.53
611.44	1837.03
611.63	1699.81
611.83	1845.22
612.02	1714.15
612.21	1791.97
612.40	1593.32
612.59	1658.85
612.79	1722.34
612.98	1753.06
613.17	1931.23
613.36	1712.10
613.55	1892.32
613.74	1875.94
613.93	1853.41
614.13	1910.75
614.32	1988.58
614.51	1964.00
614.70	1857.51
614.89	1767.40
615.08	1773.54
615.28	2160.61
615.47	1744.87
615.66	1730.53
615.85	1873.89
616.04	1920.99
616.23	1798.12
616.42	1900.52
616.62	1787.88
616.81	1814.50
617.00	1800.16
617.19	1773.54
617.38	1697.77
617.57	1759.21
617.76	1777.64
617.95	1738.73
618.15	1720.29
618.34	1812.45
618.53	1724.39
618.72	1773.54
618.91	1802.21
619.10	1875.94
619.29	1765.35
619.48	1742.82
619.68	1648.61
619.87	1746.92
620.06	1675.24
620.25	1785.83
620.44	1742.82
620.63	1691.62
620.82	1759.21
621.01	1714.15
621.20	1798.12
621.39	1681.38
621.59	1765.35
621.78	1685.48
621.97	1726.44
622.16	1785.83
622.35	1687.53
622.54	1806.31
622.73	1802.21
622.92	1636.33
623.11	1763.30
623.30	1667.05
623.49	1812.45
623.68	1640.42
623.88	1826.79
624.07	1779.68
624.26	1736.68
624.45	1703.91
624.64	1751.01
624.83	1730.53
625.02	1716.20
625.21	1665.00
625.40	1730.53
625.59	1806.31
625.78	1763.30
625.97	1839.08
626.16	1927.14
626.35	1830.88
626.54	1832.93
626.74	1920.99
626.93	1888.23
627.12	1720.29
627.31	1906.66
627.50	1769.44
627.69	1763.30
627.88	1818.60
628.07	1757.16
628.26	1658.85
628.45	1646.57
628.64	1675.24
628.83	1722.34
629.02	1728.49
629.21	1755.11
629.40	1716.20
629.59	1695.72
629.78	1730.53
629.97	1746.92
630.16	1779.68
630.35	1751.01
630.54	1759.21
630.73	1665.00
630.92	1738.73
631.11	1626.09
631.30	1806.31
631.49	1773.54
631.68	1687.53
631.87	1693.67
632.06	1742.82
632.25	1892.32
632.44	1812.45
632.63	1771.49
632.82	1646.57
633.01	1718.25
633.20	1744.87
633.39	1841.12
633.58	1763.30
633.77	1826.79
633.96	1910.75
634.15	1837.03
634.34	1804.26
634.53	1822.69
634.72	1771.49
634.91	1722.34
635.10	1796.07
635.29	1757.16
635.48	1714.15
635.67	1683.43
635.86	1722.34
636.05	1794.02
636.24	1701.86
636.43	1705.96
636.62	1728.49
636.81	1542.12
637.00	1738.73
637.19	1820.64
637.38	1755.11
637.57	1783.78
637.76	1779.68
637.95	1771.49
638.14	1820.64
638.33	1843.17
638.52	1845.22
638.71	1714.15
638.89	1722.34
639.08	1826.79
639.27	1839.08
639.46	1806.31
639.65	2236.38
639.84	2185.18
640.03	2398.17
640.22	2306.01
640.41	2342.88
640.60	2164.70
640.79	2045.92
640.98	1902.56
641.17	1980.39
641.36	1970.15
641.55	1888.23
641.74	1818.60
641.92	1716.20
642.11	1773.54
642.30	1841.12
642.49	1736.68
642.68	1765.35
642.87	1763.30
643.06	1724.39
643.25	1673.19
643.44	1683.43
643.63	1714.15
643.82	1783.78
644.00	1669.09
644.19	1765.35
644.38	1660.90
644.57	1746.92
644.76	1751.01
644.95	1740.77
645.14	1689.57
645.33	1689.57
645.52	1718.25
645.71	1658.85
645.89	1619.94
646.08	1746.92
646.27	1646.57
646.46	1820.64
646.65	1689.57
646.84	1740.77
647.03	1636.33
647.22	1763.30
647.40	1720.29
647.59	1652.71
647.78	1624.04
647.97	1726.44
648.16	1781.73
648.35	1773.54
648.54	1830.88
648.73	1701.86
648.91	1861.60
649.10	1724.39
649.29	1693.67
649.48	1705.96
649.67	1685.48
649.86	1783.78
650.05	1804.26
650.23	1927.14
650.42	1847.27
650.61	1908.71
650.80	1902.56
650.99	1912.80
651.18	1861.60
651.36	1806.31
651.55	1744.87
651.74	1785.83
651.93	1765.35
652.12	1687.53
652.31	1802.21
652.49	1816.55
652.68	1662.95
652.87	1951.71
653.06	1849.32
653.25	1920.99
653.44	1710.05
653.62	1800.16
653.81	1716.20
654.00	1763.30
654.19	1785.83
654.38	1912.80
654.56	1791.97
654.75	1771.49
654.94	1757.16
655.13	1673.19
655.32	1710.05
655.51	1871.84
655.69	1683.43
655.88	1718.25
656.07	1691.62
656.26	1691.62
656.45	1691.62
656.63	1730.53
656.82	1789.92
657.01	1697.77
657.20	1736.68
657.38	1787.88
657.57	1718.25
657.76	1630.18
657.95	1775.59
658.14	1722.34
658.32	1767.40
658.51	1669.09
658.70	1738.73
658.89	1787.88
659.08	1761.25
659.26	1806.31
659.45	1689.57
659.64	1781.73
659.83	1810.40
660.01	2009.06
660.20	1730.53
660.39	1755.11
660.58	1615.85
660.76	1714.15
660.95	1660.90
661.14	1798.12
661.33	1638.38
661.51	1751.01
661.70	1705.96
661.89	1787.88
662.08	1748.97
662.26	1615.85
662.45	1675.24
662.64	1839.08
662.83	1734.63
663.01	1716.20
663.20	1671.14
663.39	1779.68
663.58	1652.71
663.76	1751.01
663.95	1744.87
664.14	1685.48
664.32	1699.81
664.51	1642.47
664.70	1712.10
664.89	1849.32
665.07	1638.38
665.26	1730.53
665.45	1689.57
665.64	1748.97
665.82	1732.58
666.01	1761.25
666.20	1662.95
666.38	1849.32
666.57	1802.21
666.76	2152.42
666.95	4638.65
667.13	11396.95
667.32	18403.05
667.51	22417.07
667.69	25101.95
667.88	25390.72
668.07	19736.27
668.25	14460.71
668.44	11900.75
668.63	9781.10
668.81	8654.72
669.00	7626.64
669.19	6786.97
669.38	6244.26
669.56	5373.87
669.75	4650.94
669.94	3848.13
670.12	3100.62
670.31	2648.02
670.50	2392.03
670.68	2101.22
670.87	1968.10
671.06	1894.37
671.24	1925.09
671.43	2009.06
671.62	1855.46
671.80	1802.21
671.99	1791.97
672.18	1777.64
672.36	1783.78
672.55	1708.01
672.74	1771.49
672.92	1773.54
673.11	1804.26
673.29	1705.96
673.48	1824.74
673.67	1669.09
673.85	1789.92
674.04	1720.29
674.23	1728.49
674.41	1837.03
674.60	1697.77
674.79	1665.00
674.97	1746.92
675.16	1724.39
675.34	1761.25
675.53	1650.66
675.72	1746.92
675.90	1847.27
676.09	1732.58
676.28	1705.96
676.46	1662.95
676.65	1775.59
676.83	1685.48
677.02	1763.30
677.21	1699.81
677.39	1761.25
677.58	1656.81
677.77	1722.34
677.95	1675.24
678.14	1626.09
678.32	1705.96
678.51	1665.00
678.70	1816.55
678.88	1671.14
679.07	1771.49
679.25	1849.32
679.44	1714.15
679.63	1673.19
679.81	1738.73
680.00	1718.25
680.18	1779.68
680.37	1789.92
680.55	1744.87
680.74	1624.04
680.93	1615.85
681.11	1775.59
681.30	1640.42
681.48	1732.58
681.67	1740.77
681.85	1753.06
682.04	1742.82
682.23	1742.82
682.41	1681.38
682.60	1697.77
682.78	1724.39
682.97	1736.68
683.15	1681.38
683.34	1710.05
683.53	1806.31
683.71	1624.04
683.90	1730.53
684.08	1814.50
684.27	1697.77
684.45	1697.77
684.64	1759.21
684.82	1722.34
685.01	1722.34
685.19	1740.77
685.38	1839.08
685.57	1658.85
685.75	1683.43
685.94	1677.29
686.12	1640.42
686.31	1718.25
686.49	1841.12
686.68	1574.89
686.86	1724.39
687.05	1660.90
687.23	1779.68
687.42	1757.16
687.60	1640.42
687.79	1701.86
687.97	1845.22
688.16	1759.21
688.34	1771.49
688.53	1619.94
688.71	1783.78
688.90	1794.02
689.08	1740.77
689.27	1562.60
689.45	1800.16
689.64	1771.49
689.82	1722.34
690.01	1724.39
690.19	1740.77
690.38	1775.59
690.56	1789.92
690.75	1656.81
690.93	1726.44
691.12	1681.38
691.30	1720.29
691.49	1691.62
691.67	1748.97
691.86	1849.32
692.04	1683.43
692.23	1693.67
692.41	1767.40
692.60	1834.98
692.78	1828.84
692.97	1757.16
693.15	1830.88
693.34	1806.31
693.52	1845.22
693.71	1812.45
693.89	1705.96
694.08	1611.75
694.26	1726.44
694.44	1839.08
694.63	1755.11
694.81	1726.44
695.00	1650.66
695.18	1841.12
695.37	1804.26
695.55	1767.40
695.74	1771.49
695.92	1681.38
696.10	1773.54
696.29	1665.00
696.47	1718.25
696.66	1613.80
696.84	1722.34
697.03	1802.21
697.21	1837.03
697.40	2291.68
697.58	1763.30
697.76	1654.76
697.95	1665.00
698.13	1648.61
698.32	1677.29
698.50	1742.82
698.68	1671.14
698.87	1714.15
699.05	1828.84
699.24	1753.06
699.42	1687.53
699.61	1726.44
699.79	1779.68
699.97	1599.46
700.16	1656.81
700.34	1548.26
700.53	1728.49
700.71	1841.12
700.89	1802.21
701.08	1728.49
701.26	1726.44
701.45	2093.02
701.63	1767.40
701.81	1675.24
702.00	1697.77
702.18	1683.43
702.37	1710.05
702.55	1890.28
702.73	1855.46
702.92	1867.75
703.10	1945.57
703.28	1986.53
703.47	1925.09
703.65	1931.23
703.84	1925.09
704.02	1796.07
704.20	1882.08
704.39	1796.07
704.57	1763.30
704.75	1757.16
704.94	1789.92
705.12	1765.35
705.30	1912.80
705.49	2598.87
705.67	5269.42
705.86	13606.70
706.04	19156.70
706.22	22814.37
706.41	25347.71
706.59	24852.10
706.77	19066.59
706.96	13971.24
707.14	11984.71
707.32	10366.82
707.51	9086.84
707.69	7991.17
707.87	6805.40
708.06	5588.91
708.24	4294.59
708.42	3420.11
708.61	2826.20
708.79	2267.10
708.97	2082.78
709.16	1980.39
709.34	1904.61
709.52	1900.52
709.71	1742.82
709.89	1820.64
710.07	1753.06
710.26	1701.86
710.44	1730.53
710.62	1763.30
710.80	1714.15
710.99	1802.21
711.17	1763.30
711.35	1775.59
711.54	1779.68
711.72	1783.78
711.90	1748.97
712.09	1744.87
712.27	1615.85
712.45	1783.78
712.63	1728.49
712.82	1757.16
713.00	1800.16
713.18	1794.02
713.37	1748.97
713.55	1697.77
713.73	1757.16
713.91	1775.59
714.10	1716.20
714.28	1705.96
714.46	1763.30
714.65	1724.39
714.83	1789.92
715.01	1724.39
715.19	1771.49
715.38	1658.85
715.56	1667.05
715.74	1748.97
715.92	1638.38
716.11	1794.02
716.29	1648.61
716.47	1787.88
716.65	1705.96
716.84	1617.90
717.02	1824.74
717.20	1693.67
717.38	1679.33
717.57	1763.30
717.75	1726.44
717.93	1701.86
718.11	1728.49
718.30	1718.25
718.48	1730.53
718.66	1748.97
718.84	1724.39
719.03	1740.77
719.21	1632.23
719.39	1822.69
719.57	1724.39
719.75	1796.07
719.94	1665.00
720.12	1681.38
720.30	1775.59
720.48	1736.68
720.67	1665.00
720.85	1736.68
721.03	1718.25
721.21	1646.57
721.39	1812.45
721.58	1716.20
721.76	1693.67
721.94	1767.40
722.12	1738.73
722.30	1767.40
722.49	1689.57
722.67	1710.05
722.85	1759.21
723.03	1607.66
723.21	1699.81
723.40	1726.44
723.58	1804.26
723.76	1814.50
723.94	1894.37
724.12	1841.12
724.30	1794.02
724.49	1832.93
724.67	1705.96
724.85	1845.22
725.03	1701.86
725.21	1802.21
725.40	1871.84
725.58	1691.62
725.76	1751.01
725.94	1736.68
726.12	1665.00
726.30	1798.12
726.49	1742.82
726.67	1667.05
726.85	1787.88
727.03	1808.36
727.21	2353.12
727.39	3434.44
727.57	4841.40
727.76	5683.11
727.94	6322.08
728.12	6223.78
728.30	5631.91
728.48	4491.20
728.66	3887.04
728.84	3653.58
729.03	3243.98
729.21	2924.50
729.39	2480.09
729.57	2209.76
729.75	1984.48
729.93	1882.08
730.11	1775.59
730.30	1734.63
730.48	1718.25
730.66	1869.80
730.84	1751.01
731.02	1763.30
731.20	1634.28
731.38	1718.25
731.56	1619.94
731.74	1679.33
731.93	1728.49
732.11	1689.57
732.29	1660.90
732.47	1716.20
732.65	1648.61
732.83	1834.98
733.01	1648.61
733.19	1722.34
733.37	1779.68
733.56	1716.20
733.74	1693.67
733.92	1759.21
734.10	1679.33
734.28	1693.67
734.46	1529.83
734.64	1687.53
734.82	1685.48
735.00	1699.81
735.18	1697.77
735.36	1722.34
735.54	1691.62
735.73	1665.00
735.91	1734.63
736.09	1716.20
736.27	1751.01
736.45	1705.96
736.63	1587.18
736.81	1665.00
736.99	1687.53
737.17	1773.54
737.35	1759.21
737.53	1703.91
737.71	1648.61
737.89	1787.88
738.07	1720.29
738.25	1705.96
738.43	1673.19
738.61	1628.14
738.80	1599.46
738.98	1572.84
739.16	1621.99
739.34	1710.05
739.52	1787.88
739.70	1609.70
739.88	1779.68
740.06	1695.72
740.24	1601.51
740.42	1738.73
740.60	1595.37
740.78	1687.53
740.96	1607.66
741.14	1689.57
741.32	1695.72
741.50	1640.42
741.68	1837.03
741.86	1746.92
742.04	1685.48
742.22	1675.24
742.40	1685.48
742.58	1742.82
742.76	1626.09
742.94	1708.01
743.12	1642.47
743.30	1693.67
743.48	1753.06
743.66	1669.09
743.84	1806.31
744.02	1753.06
744.20	1736.68
744.38	1603.56
744.56	1660.90
744.74	1839.08
744.92	1738.73
745.10	1787.88
745.28	1771.49
745.46	1785.83
745.64	1759.21
745.82	1777.64
746.00	1669.09
746.18	1785.83
746.36	1665.00
746.54	1718.25
746.72	1720.29
746.90	1619.94
747.08	1834.98
747.26	1677.29
747.44	1710.05
747.62	1703.91
747.80	1757.16
747.98	1773.54
748.15	1751.01
748.33	1863.65
748.51	1769.44
748.69	1787.88
748.87	1722.34
749.05	1648.61
749.23	1718.25
749.41	1767.40
749.59	1742.82
749.77	1748.97
749.95	1689.57
750.13	1720.29
750.31	1724.39
750.49	1644.52
750.67	1687.53
750.85	1800.16
751.03	1771.49
751.20	1902.56
751.38	1712.10
751.56	1667.05
751.74	1759.21
751.92	1722.34
752.10	1589.22
752.28	1845.22
752.46	1738.73
752.64	1703.91
752.82	1665.00
753.00	1730.53
753.18	1683.43
753.35	1777.64
753.53	1683.43
753.71	1669.09
753.89	1718.25
754.07	1814.50
754.25	1761.25
754.43	1742.82
754.61	1648.61
754.79	1701.86
754.97	1646.57
755.14	1763.30
755.32	1675.24
755.50	1701.86
755.68	1675.24
755.86	1716.20
756.04	1652.71
756.22	1597.42
756.40	1794.02
756.57	1806.31
756.75	1679.33
756.93	1730.53
757.11	1796.07
757.29	1685.48
757.47	1671.14
757.65	1658.85
757.82	1607.66
758.00	1665.00
758.18	1626.09
758.36	1630.18
758.54	1777.64
758.72	1644.52
758.90	1734.63
759.07	1742.82
759.25	1611.75
759.43	1710.05
759.61	1705.96
759.79	2250.72
759.97	1691.62
760.15	1734.63
760.32	1710.05
760.50	1710.05
760.68	1746.92
760.86	1632.23
761.04	1763.30
761.22	1769.44
761.39	1751.01
761.57	1771.49
761.75	1681.38
761.93	1775.59
762.11	1599.46
762.28	1605.61
762.46	1634.28
762.64	1701.86
762.82	1570.79
763.00	1736.68
763.18	1816.55
763.35	1658.85
763.53	1712.10
763.71	1732.58
763.89	1730.53
764.07	1677.29
764.24	1679.33
764.42	1748.97
764.60	1722.34
764.78	1734.63
764.96	1744.87
765.13	1882.08
765.31	1779.68
765.49	1726.44
765.67	1665.00
765.84	1607.66
766.02	1652.71
766.20	1617.90
766.38	1714.15
766.56	1751.01
766.73	1775.59
766.91	1697.77
767.09	1710.05
767.27	1763.30
767.44	1550.31
767.62	1753.06
767.80	1773.54
767.98	1673.19
768.15	1697.77
768.33	1808.36
768.51	1710.05
768.69	1701.86
768.87	1724.39
769.04	1734.63
769.22	1890.28
769.40	1765.35
769.58	1783.78
769.75	1722.34
769.93	1779.68
770.11	1697.77
770.28	1736.68
770.46	1794.02
770.64	1779.68
770.82	1718.25
770.99	1718.25
771.17	1767.40
771.35	1701.86
771.53	1677.29
771.70	1730.53
771.88	1705.96
772.06	1697.77
772.23	1656.81
772.41	1746.92
772.59	1730.53
772.77	1695.72
772.94	1746.92
773.12	1716.20
773.30	1724.39
773.47	1748.97
773.65	1722.34
773.83	1804.26
774.01	1644.52
774.18	1576.94
774.36	1648.61
774.54	1646.57
774.71	1677.29
774.89	1583.08
775.07	1656.81
775.24	1681.38
775.42	1642.47
775.60	1855.46
775.78	1669.09
775.95	1638.38
776.13	1613.80
776.31	1615.85
776.48	1703.91
776.66	1755.11
776.84	1712.10
777.01	1693.67
777.19	1695.72
777.37	1687.53
777.54	1705.96
777.72	1824.74
777.90	1708.01
778.07	1638.38
778.25	1873.89
778.43	1767.40
778.60	1689.57
778.78	1726.44
778.96	1689.57
779.13	1658.85
779.31	1734.63
779.49	1720.29
779.66	1763.30
779.84	1667.05
780.01	1736.68
780.19	1652.71
780.37	1751.01
780.54	1697.77
780.72	1732.58
780.90	1669.09
781.07	1718.25
781.25	1671.14
781.43	1730.53
781.60	1693.67
781.78	1791.97
781.95	1658.85
782.13	1689.57
782.31	1763.30
782.48	1638.38
782.66	1691.62
782.83	1826.79
783.01	1722.34
783.19	1804.26
783.36	1705.96
783.54	1613.80
783.72	1751.01
783.89	1718.25
784.07	1705.96
784.24	1746.92
784.42	1785.83
784.60	1665.00
784.77	1703.91
784.95	1638.38
785.12	1652.71
785.30	1804.26
785.47	1708.01
785.65	1681.38
785.83	1685.48
786.00	1767.40
786.18	1660.90
786.35	1673.19
786.53	1638.38
786.71	1759.21
786.88	1761.25
787.06	1726.44
787.23	1685.48
787.41	1677.29
787.58	1724.39
787.76	1738.73
787.94	1705.96
788.11	1740.77
788.29	1716.20
788.46	1679.33
788.64	1636.33
788.81	1732.58
788.99	1744.87
789.16	1650.66
789.34	1759.21
789.52	1697.77
789.69	1628.14
789.87	1578.98
790.04	1699.81
790.22	1691.62
790.39	1824.74
790.57	1613.80
790.74	1738.73
790.92	1744.87
791.09	1626.09
791.27	1724.39
791.44	1828.84
791.62	1720.29
791.79	1812.45
791.97	1728.49
792.15	1884.13
792.32	1697.77
792.50	1773.54
792.67	1755.11
792.85	1810.40
793.02	1775.59
793.20	1738.73
793.37	1621.99
793.55	1732.58
793.72	1677.29
793.90	1769.44
794.07	1710.05
794.25	1705.96
794.42	1757.16
794.60	1740.77
794.77	1710.05
794.95	1732.58
795.12	1796.07
795.30	1691.62
795.47	1560.55
795.65	1927.14
795.82	1830.88
796.00	1681.38
796.17	1693.67
796.34	1689.57
796.52	1687.53
796.69	1763.30
796.87	1794.02
797.04	1675.24
797.22	1753.06
797.39	1722.34
797.57	1775.59
797.74	1716.20
797.92	1716.20
798.09	1640.42
798.27	1841.12
798.44	1630.18
798.62	1720.29
798.79	1732.58
798.96	1716.20
799.14	1710.05
799.31	1808.36
799.49	1689.57
799.66	1671.14
799.84	1728.49
800.01	1660.90
800.19	1726.44
800.36	1624.04
800.53	1656.81
800.71	1683.43
800.88	1818.60
801.06	1714.15
801.23	1671.14
801.41	1705.96
801.58	1617.90
801.75	1621.99
801.93	1705.96
802.10	1710.05
802.28	1730.53
802.45	1675.24
802.63	1744.87
802.80	1697.77
802.97	1660.90
803.15	1755.11
803.32	1761.25
803.50	1689.57
803.67	1681.38
803.84	1634.28
804.02	1740.77
804.19	1691.62
804.37	1601.51
804.54	1648.61
804.71	1701.86
804.89	1738.73
805.06	1591.27
805.24	1671.14
805.41	1685.48
805.58	1613.80
805.76	1882.08
805.93	1730.53
806.10	1794.02
806.28	1712.10
806.45	1673.19
806.63	1728.49
806.80	1634.28
806.97	1779.68
807.15	1701.86
807.32	1685.48
807.49	1765.35
807.67	1656.81
807.84	1716.20
808.01	1642.47
808.19	1798.12
808.36	1839.08
808.54	1705.96
808.71	1607.66
808.88	1681.38
809.06	1769.44
809.23	1773.54
809.40	1595.37
809.58	1800.16
809.75	1656.81
809.92	1619.94
810.10	1818.60
810.27	1691.62
810.44	1744.87
810.62	1787.88
810.79	1726.44
810.96	1705.96
811.14	1665.00
811.31	1722.34
811.48	1712.10
811.66	1660.90
811.83	1769.44
812.00	1841.12
812.18	1665.00
812.35	1841.12
812.52	1699.81
812.69	1699.81
812.87	1650.66
813.04	1607.66
813.21	1744.87
813.39	1593.32
813.56	1648.61
813.73	1736.68
813.91	1619.94
814.08	1718.25
814.25	1732.58
814.42	1611.75
814.60	1705.96
814.77	1732.58
814.94	1734.63
815.12	1712.10
815.29	1742.82
815.46	1634.28
815.63	1742.82
815.81	1724.39
815.98	1683.43
816.15	1685.48
816.33	1742.82
816.50	1701.86
816.67	1734.63
816.84	1691.62
817.02	1673.19
817.19	1744.87
817.36	1742.82
817.53	1748.97
817.71	1658.85
817.88	1701.86
818.05	1718.25
818.22	1658.85
818.40	1877.99
818.57	1701.86
818.74	1716.20
818.91	1673.19
819.09	1751.01
819.26	1763.30
819.43	1638.38
819.60	1677.29
819.78	1742.82
819.95	1904.61
820.12	1640.42
820.29	1787.88
820.47	1740.77
820.64	1748.97
820.81	1648.61
820.98	1652.71
821.15	1677.29
821.33	1738.73
821.50	1634.28
821.67	1791.97
821.84	1710.05
822.02	1738.73
822.19	1732.58
822.36	1714.15
822.53	1759.21
822.70	1605.61
822.88	1683.43
823.05	1701.86
823.22	1751.01
823.39	1724.39
823.56	1695.72
823.74	1826.79
823.91	1685.48
824.08	1691.62
824.25	1669.09
824.42	1734.63
824.60	1669.09
824.77	1800.16
824.94	1648.61
825.11	1695.72
825.28	1640.42
825.45	1701.86
825.63	1665.00
825.80	1658.85
825.97	1742.82
826.14	1703.91
826.31	1581.03
826.48	1697.77
826.66	1679.33
826.83	1724.39
827.00	1730.53
827.17	1656.81
827.34	1703.91
827.51	1615.85
827.69	1650.66
827.86	1636.33
828.03	1679.33
828.20	1759.21
828.37	1654.76
828.54	1767.40
828.71	1687.53
828.89	1685.48
829.06	1726.44
829.23	1765.35
829.40	1675.24
829.57	1691.62
829.74	1691.62
829.91	1673.19
830.09	1714.15
830.26	1773.54
830.43	1744.87
830.60	1609.70
830.77	1753.06
830.94	1742.82
831.11	1708.01
831.28	1705.96
831.46	1720.29
831.63	1693.67
831.80	1798.12
831.97	1675.24
832.14	1673.19
832.31	1787.88
832.48	1681.38
832.65	1751.01
832.82	1697.77
832.99	1679.33
833.17	1714.15
833.34	1761.25
833.51	1765.35
833.68	1599.46
833.85	1697.77
834.02	1636.33
834.19	1665.00
834.36	1636.33
834.53	1615.85
834.70	1720.29
834.87	1718.25
835.04	1654.76
835.22	1611.75
835.39	1652.71
835.56	1605.61
835.73	1638.38
835.90	1818.60
836.07	1667.05
836.24	1761.25
836.41	1671.14
836.58	1669.09
836.75	1757.16
836.92	1703.91
837.09	1642.47
837.26	1738.73
837.43	1697.77
837.60	1730.53
837.77	1677.29
837.94	1738.73
838.12	1796.07
838.29	1718.25
838.46	1656.81
838.63	1654.76
838.80	1789.92
838.97	1777.64
839.14	1722.34
839.31	1708.01
839.48	1867.75
839.65	1626.09
839.82	1796.07
839.99	1744.87
840.16	1726.44
840.33	1652.71
840.50	1761.25
840.67	1656.81
840.84	1572.84
841.01	1742.82
841.18	1665.00
841.35	1658.85
841.52	1724.39
841.69	1732.58
841.86	1665.00
842.03	1613.80
842.20	1740.77
842.37	1683.43
842.54	1730.53
842.71	1636.33
842.88	1714.15
843.05	1785.83
843.22	1675.24
843.39	1738.73
843.56	1665.00
843.73	1748.97
843.90	1634.28
844.07	1693.67
844.24	1828.84
844.41	1730.53
844.58	1712.10
844.75	1714.15
844.92	1748.97
845.09	1671.14
845.26	1710.05
845.43	1724.39
845.60	1652.71
845.77	1712.10
845.94	1705.96
846.10	1775.59
846.27	1662.95
846.44	1708.01
846.61	1638.38
846.78	1695.72
846.95	1832.93
847.12	1615.85
847.29	1744.87
847.46	1669.09
847.63	1761.25
847.80	1648.61
847.97	1726.44
848.14	1843.17
848.31	1681.38
848.48	1671.14
848.65	1738.73
848.82	1748.97
848.98	1914.85
849.15	1689.57
849.32	1697.77
849.49	1740.77
849.66	1773.54
849.83	1697.77
850.00	1650.66
850.17	1730.53
850.34	1636.33
850.51	1701.86
850.68	1632.23
850.85	1789.92
851.01	1685.48
851.18	1673.19
851.35	1599.46
851.52	1769.44
851.69	1757.16
851.86	1656.81
852.03	1652.71
852.20	1748.97
852.37	1716.20
852.53	1669.09
852.70	1703.91
852.87	1679.33
853.04	1785.83
853.21	1742.82
853.38	1804.26
853.55	1751.01
853.72	1753.06
853.89	1671.14
854.05	1681.38
854.22	1658.85
854.39	1804.26
854.56	1681.38
854.73	1771.49
854.90	1757.16
855.07	1705.96
855.23	1693.67
855.40	1632.23
855.57	1732.58
855.74	1636.33
855.91	1816.55
856.08	1658.85
856.25	1650.66
856.41	1632.23
856.58	1703.91
856.75	1726.44
856.92	1638.38
857.09	1763.30
857.26	1683.43
857.42	1720.29
857.59	1775.59
857.76	1607.66
857.93	1730.53
858.10	1714.15
858.27	1570.79
858.43	1761.25
858.60	1599.46
858.77	1652.71
858.94	1738.73
859.11	1722.34
859.27	1681.38
859.44	1685.48
859.61	1845.22
859.78	1761.25
859.95	1640.42
860.12	1671.14
860.28	1761.25
860.45	1791.97
860.62	1654.76
860.79	1722.34
860.95	1705.96
861.12	1667.05
861.29	1708.01
861.46	1748.97
861.63	1677.29
861.79	1697.77
861.96	1650.66
862.13	1667.05
862.30	1740.77
862.47	1662.95
862.63	1658.85
862.80	1722.34
862.97	1761.25
863.14	1687.53
863.30	1732.58
863.47	1603.56
863.64	1726.44
863.81	1722.34
863.97	1638.38
864.14	1689.57
864.31	1771.49
864.48	1714.15
864.65	1763.30
864.81	1787.88
864.98	1714.15
865.15	1681.38
865.32	1818.60
865.48	1714.15
865.65	1736.68
865.82	1720.29
865.98	1632.23
866.15	1679.33
866.32	1703.91
866.49	1720.29
866.65	1710.05
866.82	1624.04
866.99	1761.25
867.16	1650.66
867.32	1599.46
867.49	1685.48
867.66	1720.29
867.83	1679.33
867.99	1595.37
868.16	1679.33
868.33	1626.09
868.49	1712.10
868.66	1789.92
868.83	1767.40
868.99	1724.39
869.16	1652.71
869.33	1736.68
869.50	1771.49
869.66	1722.34
869.83	1675.24
870.00	1675.24
870.16	1665.00
870.33	1742.82
870.50	1748.97
870.66	1697.77
870.83	1818.60
871.00	1689.57
871.17	1746.92
871.33	1767.40
871.50	1681.38
871.67	1679.33
871.83	1587.18
872.00	1779.68
872.17	1638.38
872.33	1767.40
872.50	1808.36
872.67	1691.62
872.83	1638.38
873.00	1757.16
873.17	1673.19
873.33	1740.77
873.50	1773.54
873.67	1615.85
873.83	1699.81
874.00	1683.43
874.16	1740.77
874.33	1742.82
874.50	1689.57
874.66	1648.61
874.83	1656.81
875.00	1738.73
875.16	1775.59
875.33	1742.82
875.50	1650.66
875.66	1740.77
875.83	1751.01
875.99	1806.31
876.16	1642.47
876.33	1671.14
876.49	1667.05
876.66	1763.30
876.83	1708.01
876.99	1591.27
877.16	1669.09
877.32	1619.94
877.49	1671.14
877.66	1681.38
877.82	1722.34
877.99	1632.23
878.15	1785.83
878.32	1708.01
878.49	1744.87
878.65	1705.96
878.82	1724.39
878.98	1693.67
879.15	1705.96
879.32	1775.59
879.48	1779.68
879.65	1689.57
879.81	1615.85
879.98	1740.77
880.15	1697.77
880.31	1685.48
880.48	1648.61
880.64	1728.49
880.81	1781.73
880.97	1779.68
881.14	1736.68
881.31	1621.99
881.47	1828.84
881.64	1626.09
881.80	1628.14
881.97	1689.57
882.13	1769.44
882.30	1648.61
882.47	1599.46
882.63	1648.61
882.80	1613.80
882.96	1593.32
883.13	1794.02
883.29	1671.14
883.46	1712.10
883.62	1777.64
883.79	1742.82
883.95	1701.86
884.12	1730.53
884.29	1771.49
884.45	1675.24
884.62	1722.34
884.78	1648.61
884.95	1740.77
885.11	1710.05
885.28	1714.15
885.44	1679.33
885.61	1751.01
885.77	1779.68
885.94	1722.34
886.10	1703.91
886.27	1744.87
886.43	1732.58
886.60	1796.07
886.76	1677.29
886.93	1654.76
887.09	1755.11
887.26	1624.04
887.42	1751.01
887.59	1712.10
887.75	1849.32
887.92	1746.92
888.08	1740.77
888.25	1726.44
888.41	1779.68
888.58	1710.05
888.74	1665.00
888.91	1677.29
>>>>>End Processed Spectral Data<<<<<
