SpectraSuite Data File
++++++++++++++++++++++++++++++++++++
Date: Wed May 04 18:44:44 CEST 2016
User: root
Dark Spectrum Present: No
Reference Spectrum Present: No
Number of Sampled Component Spectra: 1
Spectrometers: USB4C02835
Integration Time (usec): 100000 (USB4C02835)
Spectra Averaged: 1 (USB4C02835)
Boxcar Smoothing: 0 (USB4C02835)
Correct for Electrical Dark: No (USB4C02835)
Strobe/Lamp Enabled: No (USB4C02835)
Correct for Detector Non-linearity: No (USB4C02835)
Correct for Stray Light: No (USB4C02835)
Number of Pixels in Processed Spectrum: 3648
>>>>>Begin Processed Spectral Data<<<<<
177.47	1517.54
177.69	1517.54
177.91	1517.54
178.13	1411.05
178.36	1398.76
178.58	1650.66
178.80	1687.53
179.02	1650.66
179.24	1667.05
179.46	1683.43
179.68	1779.68
179.90	1669.09
180.13	1759.21
180.35	1681.38
180.57	1669.09
180.79	1693.67
181.01	1740.77
181.23	1767.40
181.45	1746.92
181.67	1714.15
181.90	1812.45
182.12	1609.70
182.34	1695.72
182.56	1718.25
182.78	1783.78
183.00	1695.72
183.22	1734.63
183.44	1644.52
183.66	1910.75
183.89	1781.73
184.11	1689.57
184.33	1781.73
184.55	1810.40
184.77	1736.68
184.99	1730.53
185.21	1646.57
185.43	1877.99
185.65	1724.39
185.87	1716.20
186.10	1812.45
186.32	1796.07
186.54	1736.68
186.76	1736.68
186.98	1724.39
187.20	1724.39
187.42	1679.33
187.64	1705.96
187.86	1738.73
188.08	1757.16
188.30	1632.23
188.52	1699.81
188.75	1734.63
188.97	1794.02
189.19	1644.52
189.41	1734.63
189.63	1810.40
189.85	1730.53
190.07	1597.42
190.29	1613.80
190.51	1841.12
190.73	1658.85
190.95	1748.97
191.17	1736.68
191.39	1691.62
191.61	1697.77
191.84	1683.43
192.06	1748.97
192.28	1568.74
192.50	1859.56
192.72	1742.82
192.94	1744.87
193.16	1791.97
193.38	1767.40
193.60	1638.38
193.82	1701.86
194.04	1718.25
194.26	1716.20
194.48	1658.85
194.70	1640.42
194.92	1640.42
195.14	1724.39
195.36	1607.66
195.58	1683.43
195.80	1744.87
196.02	1722.34
196.24	1769.44
196.46	1748.97
196.69	1578.98
196.91	1877.99
197.13	1705.96
197.35	1673.19
197.57	1796.07
197.79	1761.25
198.01	1720.29
198.23	1771.49
198.45	1720.29
198.67	1626.09
198.89	1742.82
199.11	1806.31
199.33	1669.09
199.55	1581.03
199.77	1705.96
199.99	1724.39
200.21	1705.96
200.43	1712.10
200.65	1619.94
200.87	1552.36
201.09	1689.57
201.31	1656.81
201.53	1769.44
201.75	1730.53
201.97	1724.39
202.19	1699.81
202.41	1654.76
202.63	1818.60
202.85	1708.01
203.07	1679.33
203.29	1638.38
203.51	1648.61
203.73	1705.96
203.95	1910.75
204.17	1726.44
204.39	1703.91
204.61	1738.73
204.83	1683.43
205.05	1779.68
205.27	1718.25
205.49	1802.21
205.71	1796.07
205.93	1665.00
206.15	1705.96
206.37	1654.76
206.59	1642.47
206.81	1681.38
207.03	1640.42
207.25	1685.48
207.47	1673.19
207.69	1679.33
207.91	1714.15
208.13	1738.73
208.34	1716.20
208.56	1603.56
208.78	1697.77
209.00	1667.05
209.22	1691.62
209.44	1705.96
209.66	1712.10
209.88	1687.53
210.10	1681.38
210.32	1703.91
210.54	1804.26
210.76	1701.86
210.98	1779.68
211.20	1613.80
211.42	1724.39
211.64	1789.92
211.86	1744.87
212.08	1660.90
212.30	1693.67
212.52	1699.81
212.74	1748.97
212.96	1714.15
213.17	1691.62
213.39	1794.02
213.61	1894.37
213.83	1734.63
214.05	1708.01
214.27	1751.01
214.49	1669.09
214.71	1712.10
214.93	1783.78
215.15	1654.76
215.37	1720.29
215.59	1589.22
215.81	1775.59
216.03	1757.16
216.24	1718.25
216.46	1724.39
216.68	1642.47
216.90	1828.84
217.12	1751.01
217.34	1658.85
217.56	1740.77
217.78	1779.68
218.00	1771.49
218.22	1634.28
218.44	1751.01
218.66	1697.77
218.87	1738.73
219.09	1775.59
219.31	1669.09
219.53	1816.55
219.75	1570.79
219.97	1710.05
220.19	1718.25
220.41	1679.33
220.63	1736.68
220.85	1705.96
221.06	1720.29
221.28	1798.12
221.50	1693.67
221.72	1705.96
221.94	1677.29
222.16	1757.16
222.38	1748.97
222.60	1718.25
222.82	1697.77
223.03	1726.44
223.25	1667.05
223.47	1744.87
223.69	1880.04
223.91	1767.40
224.13	1708.01
224.35	1636.33
224.57	1705.96
224.78	1779.68
225.00	1648.61
225.22	1658.85
225.44	1718.25
225.66	1677.29
225.88	1683.43
226.10	1830.88
226.32	1699.81
226.53	1804.26
226.75	1646.57
226.97	1718.25
227.19	1685.48
227.41	1753.06
227.63	1697.77
227.85	1628.14
228.06	1728.49
228.28	1689.57
228.50	1773.54
228.72	1665.00
228.94	1728.49
229.16	1599.46
229.37	1714.15
229.59	1642.47
229.81	1794.02
230.03	1710.05
230.25	1642.47
230.47	1685.48
230.69	1669.09
230.90	1738.73
231.12	1714.15
231.34	1683.43
231.56	1769.44
231.78	1658.85
232.00	1703.91
232.21	1685.48
232.43	1658.85
232.65	1570.79
232.87	1767.40
233.09	1640.42
233.30	1636.33
233.52	1783.78
233.74	1703.91
233.96	1687.53
234.18	1748.97
234.40	1708.01
234.61	1773.54
234.83	1726.44
235.05	1626.09
235.27	1781.73
235.49	1726.44
235.70	1656.81
235.92	1728.49
236.14	1763.30
236.36	1841.12
236.58	1628.14
236.79	1726.44
237.01	1667.05
237.23	1685.48
237.45	1773.54
237.67	1654.76
237.88	1677.29
238.10	1765.35
238.32	1705.96
238.54	1720.29
238.76	1677.29
238.97	1660.90
239.19	1703.91
239.41	1765.35
239.63	1787.88
239.85	1734.63
240.06	1728.49
240.28	1757.16
240.50	1726.44
240.72	1728.49
240.93	1720.29
241.15	1796.07
241.37	1714.15
241.59	1761.25
241.81	1796.07
242.02	1693.67
242.24	1675.24
242.46	1675.24
242.68	1667.05
242.89	1685.48
243.11	1699.81
243.33	1755.11
243.55	1767.40
243.76	1751.01
243.98	1640.42
244.20	1748.97
244.42	1761.25
244.64	1726.44
244.85	1650.66
245.07	1671.14
245.29	1810.40
245.51	1650.66
245.72	1738.73
245.94	1757.16
246.16	1695.72
246.38	1767.40
246.59	1669.09
246.81	1742.82
247.03	1767.40
247.24	1673.19
247.46	1644.52
247.68	1679.33
247.90	1742.82
248.11	1656.81
248.33	1726.44
248.55	1675.24
248.77	1716.20
248.98	1740.77
249.20	1761.25
249.42	1730.53
249.64	1710.05
249.85	1703.91
250.07	1656.81
250.29	1685.48
250.50	1730.53
250.72	1687.53
250.94	1724.39
251.16	1845.22
251.37	1755.11
251.59	1693.67
251.81	1751.01
252.02	1759.21
252.24	1677.29
252.46	1767.40
252.68	1595.37
252.89	1691.62
253.11	1650.66
253.33	1806.31
253.54	1748.97
253.76	1697.77
253.98	1689.57
254.20	1673.19
254.41	1722.34
254.63	1693.67
254.85	1671.14
255.06	1734.63
255.28	1720.29
255.50	1642.47
255.71	1648.61
255.93	1691.62
256.15	1611.75
256.36	1724.39
256.58	1701.86
256.80	1734.63
257.02	1630.18
257.23	1628.14
257.45	1732.58
257.67	1724.39
257.88	1628.14
258.10	1732.58
258.32	1675.24
258.53	1667.05
258.75	1798.12
258.97	1726.44
259.18	1644.52
259.40	1730.53
259.62	1828.84
259.83	1773.54
260.05	1734.63
260.27	2029.54
260.48	1769.44
260.70	1609.70
260.92	1658.85
261.13	1734.63
261.35	1630.18
261.57	1738.73
261.78	1628.14
262.00	1697.77
262.22	1781.73
262.43	1654.76
262.65	1671.14
262.86	1769.44
263.08	1861.60
263.30	1705.96
263.51	1617.90
263.73	1742.82
263.95	1763.30
264.16	1683.43
264.38	1710.05
264.60	1736.68
264.81	1650.66
265.03	1738.73
265.25	1746.92
265.46	1648.61
265.68	1730.53
265.89	1722.34
266.11	1679.33
266.33	1744.87
266.54	1781.73
266.76	1748.97
266.98	1714.15
267.19	1753.06
267.41	1763.30
267.62	1714.15
267.84	1632.23
268.06	1712.10
268.27	1726.44
268.49	1826.79
268.70	1791.97
268.92	1710.05
269.14	1665.00
269.35	1603.56
269.57	1662.95
269.79	1658.85
270.00	1681.38
270.22	1751.01
270.43	1703.91
270.65	1605.61
270.87	1728.49
271.08	1720.29
271.30	1736.68
271.51	1730.53
271.73	1701.86
271.95	1814.50
272.16	1763.30
272.38	1767.40
272.59	1742.82
272.81	1812.45
273.02	1732.58
273.24	1710.05
273.46	1787.88
273.67	1673.19
273.89	1697.77
274.10	1703.91
274.32	1761.25
274.54	1740.77
274.75	1748.97
274.97	1699.81
275.18	1697.77
275.40	1771.49
275.61	1605.61
275.83	1726.44
276.05	1646.57
276.26	1642.47
276.48	1746.92
276.69	1632.23
276.91	1681.38
277.12	1781.73
277.34	1757.16
277.55	1718.25
277.77	1755.11
277.99	1689.57
278.20	1650.66
278.42	1636.33
278.63	1730.53
278.85	1718.25
279.06	1628.14
279.28	1703.91
279.49	1746.92
279.71	1726.44
279.93	1767.40
280.14	1720.29
280.36	1718.25
280.57	1726.44
280.79	1791.97
281.00	1640.42
281.22	1681.38
281.43	1757.16
281.65	1533.93
281.86	1685.48
282.08	1677.29
282.29	1806.31
282.51	1621.99
282.73	1611.75
282.94	1628.14
283.16	1794.02
283.37	1800.16
283.59	1703.91
283.80	1675.24
284.02	1712.10
284.23	1701.86
284.45	1669.09
284.66	1722.34
284.88	1685.48
285.09	1724.39
285.31	1779.68
285.52	1691.62
285.74	1619.94
285.95	1777.64
286.17	1720.29
286.38	1746.92
286.60	1738.73
286.81	1708.01
287.03	1671.14
287.24	1730.53
287.46	1746.92
287.67	1763.30
287.89	1837.03
288.10	1718.25
288.32	1665.00
288.53	1804.26
288.75	1755.11
288.96	1703.91
289.18	1738.73
289.39	1708.01
289.61	1736.68
289.82	1857.51
290.04	1839.08
290.25	1658.85
290.47	1695.72
290.68	1650.66
290.90	1728.49
291.11	1613.80
291.33	1769.44
291.54	1648.61
291.76	1658.85
291.97	1740.77
292.18	1665.00
292.40	1644.52
292.61	1665.00
292.83	1871.84
293.04	1748.97
293.26	1753.06
293.47	1699.81
293.69	1693.67
293.90	1724.39
294.12	1775.59
294.33	1685.48
294.55	1738.73
294.76	1798.12
294.97	1761.25
295.19	1777.64
295.40	1644.52
295.62	1710.05
295.83	1755.11
296.05	1626.09
296.26	1710.05
296.48	1599.46
296.69	1720.29
296.90	1650.66
297.12	1687.53
297.33	1771.49
297.55	1638.38
297.76	1783.78
297.98	1785.83
298.19	1648.61
298.41	1611.75
298.62	1701.86
298.83	1820.64
299.05	1708.01
299.26	1697.77
299.48	1667.05
299.69	1742.82
299.90	1740.77
300.12	1691.62
300.33	1804.26
300.55	1679.33
300.76	1714.15
300.98	1665.00
301.19	1720.29
301.40	1710.05
301.62	1656.81
301.83	1759.21
302.05	1699.81
302.26	1679.33
302.47	1699.81
302.69	1720.29
302.90	1658.85
303.12	1599.46
303.33	1755.11
303.54	1775.59
303.76	1693.67
303.97	1703.91
304.19	1755.11
304.40	1638.38
304.61	1775.59
304.83	1814.50
305.04	1748.97
305.26	1773.54
305.47	1568.74
305.68	1714.15
305.90	1624.04
306.11	1751.01
306.33	1685.48
306.54	1634.28
306.75	1642.47
306.97	1591.27
307.18	1593.32
307.39	1679.33
307.61	1824.74
307.82	1748.97
308.04	1763.30
308.25	1687.53
308.46	1763.30
308.68	1603.56
308.89	1705.96
309.10	1775.59
309.32	1669.09
309.53	1677.29
309.74	1759.21
309.96	1634.28
310.17	1767.40
310.39	1681.38
310.60	1695.72
310.81	1611.75
311.03	1589.22
311.24	1744.87
311.45	1761.25
311.67	1880.04
311.88	1677.29
312.09	1615.85
312.31	1689.57
312.52	1685.48
312.73	1658.85
312.95	1705.96
313.16	1634.28
313.37	1798.12
313.59	1812.45
313.80	1744.87
314.01	1863.65
314.23	1675.24
314.44	1695.72
314.65	1697.77
314.87	1681.38
315.08	1658.85
315.29	1724.39
315.51	1597.42
315.72	1607.66
315.93	1751.01
316.15	1673.19
316.36	1662.95
316.57	1687.53
316.79	1761.25
317.00	1681.38
317.21	1728.49
317.43	1681.38
317.64	1787.88
317.85	1693.67
318.07	1742.82
318.28	1841.12
318.49	1859.56
318.70	1953.76
318.92	1945.57
319.13	1927.14
319.34	1847.27
319.56	1875.94
319.77	1857.51
319.98	1812.45
320.20	1880.04
320.41	1769.44
320.62	1767.40
320.83	1685.48
321.05	1906.66
321.26	1718.25
321.47	1675.24
321.69	1746.92
321.90	1644.52
322.11	1648.61
322.32	1656.81
322.54	1808.36
322.75	1675.24
322.96	1859.56
323.18	1607.66
323.39	1613.80
323.60	1679.33
323.81	1708.01
324.03	1687.53
324.24	1681.38
324.45	1742.82
324.66	1650.66
324.88	1695.72
325.09	1834.98
325.30	1785.83
325.52	1732.58
325.73	1722.34
325.94	1673.19
326.15	1712.10
326.37	1705.96
326.58	1720.29
326.79	1769.44
327.00	1624.04
327.22	1738.73
327.43	1726.44
327.64	1734.63
327.85	1834.98
328.07	1837.03
328.28	1890.28
328.49	1757.16
328.70	1701.86
328.92	1703.91
329.13	1656.81
329.34	1763.30
329.55	1808.36
329.76	1746.92
329.98	1683.43
330.19	1814.50
330.40	1742.82
330.61	1667.05
330.83	1722.34
331.04	1658.85
331.25	1710.05
331.46	1634.28
331.68	1697.77
331.89	1796.07
332.10	1740.77
332.31	1687.53
332.52	1712.10
332.74	1830.88
332.95	1638.38
333.16	1665.00
333.37	1779.68
333.58	1681.38
333.80	1753.06
334.01	1685.48
334.22	1685.48
334.43	1685.48
334.64	1624.04
334.86	1636.33
335.07	1703.91
335.28	1753.06
335.49	1693.67
335.70	1757.16
335.92	1753.06
336.13	1787.88
336.34	1671.14
336.55	1720.29
336.76	1697.77
336.98	1628.14
337.19	1765.35
337.40	1738.73
337.61	1896.42
337.82	1630.18
338.04	1798.12
338.25	1652.71
338.46	1712.10
338.67	1763.30
338.88	1679.33
339.09	1697.77
339.31	1720.29
339.52	1675.24
339.73	1646.57
339.94	1593.32
340.15	1720.29
340.36	1646.57
340.58	1712.10
340.79	1689.57
341.00	1679.33
341.21	1583.08
341.42	1755.11
341.63	1710.05
341.85	1775.59
342.06	1669.09
342.27	1660.90
342.48	1718.25
342.69	1624.04
342.90	1732.58
343.12	1720.29
343.33	1624.04
343.54	1738.73
343.75	1755.11
343.96	1775.59
344.17	1753.06
344.38	1742.82
344.60	1626.09
344.81	1628.14
345.02	1738.73
345.23	1769.44
345.44	1796.07
345.65	1765.35
345.86	1710.05
346.07	1734.63
346.29	1673.19
346.50	1755.11
346.71	1816.55
346.92	1791.97
347.13	1800.16
347.34	1640.42
347.55	1705.96
347.76	1697.77
347.98	1656.81
348.19	1660.90
348.40	1763.30
348.61	1683.43
348.82	1781.73
349.03	1796.07
349.24	1685.48
349.45	1841.12
349.66	1605.61
349.88	1712.10
350.09	1730.53
350.30	1796.07
350.51	1763.30
350.72	1710.05
350.93	1662.95
351.14	1619.94
351.35	1761.25
351.56	1736.68
351.77	1689.57
351.99	1701.86
352.20	1785.83
352.41	1804.26
352.62	1671.14
352.83	1679.33
353.04	1714.15
353.25	1710.05
353.46	1755.11
353.67	1812.45
353.88	1609.70
354.09	1693.67
354.30	1761.25
354.52	1718.25
354.73	1714.15
354.94	1621.99
355.15	1736.68
355.36	1746.92
355.57	1630.18
355.78	1675.24
355.99	1611.75
356.20	1673.19
356.41	1748.97
356.62	1718.25
356.83	1789.92
357.04	1738.73
357.25	1619.94
357.46	1640.42
357.68	1599.46
357.89	1642.47
358.10	1742.82
358.31	1724.39
358.52	1705.96
358.73	1636.33
358.94	1714.15
359.15	1701.86
359.36	1689.57
359.57	1665.00
359.78	1748.97
359.99	1724.39
360.20	1708.01
360.41	1769.44
360.62	1791.97
360.83	1697.77
361.04	1669.09
361.25	1693.67
361.46	1810.40
361.67	1679.33
361.88	1730.53
362.09	1748.97
362.30	1683.43
362.51	1658.85
362.72	1761.25
362.93	1785.83
363.14	1746.92
363.35	1722.34
363.56	1720.29
363.78	1816.55
363.99	1787.88
364.20	1728.49
364.41	1761.25
364.62	1814.50
364.83	1705.96
365.04	1734.63
365.25	1712.10
365.46	1787.88
365.67	1654.76
365.88	1742.82
366.09	1697.77
366.30	1654.76
366.51	1673.19
366.72	1693.67
366.93	1755.11
367.14	1742.82
367.35	1746.92
367.56	1751.01
367.77	1847.27
367.98	1695.72
368.18	1703.91
368.39	1785.83
368.60	1615.85
368.81	1775.59
369.02	1683.43
369.23	1697.77
369.44	1607.66
369.65	1722.34
369.86	1701.86
370.07	1734.63
370.28	1681.38
370.49	1703.91
370.70	1740.77
370.91	1656.81
371.12	1673.19
371.33	1765.35
371.54	1773.54
371.75	1740.77
371.96	1533.93
372.17	1701.86
372.38	1697.77
372.59	1783.78
372.80	1716.20
373.01	1669.09
373.22	1734.63
373.43	1728.49
373.64	1656.81
373.85	1798.12
374.06	1765.35
374.26	1744.87
374.47	1665.00
374.68	1837.03
374.89	1681.38
375.10	1748.97
375.31	1808.36
375.52	1769.44
375.73	1710.05
375.94	1697.77
376.15	1798.12
376.36	1697.77
376.57	1621.99
376.78	1779.68
376.99	1732.58
377.20	1767.40
377.40	1685.48
377.61	1863.65
377.82	1642.47
378.03	1804.26
378.24	1771.49
378.45	1738.73
378.66	1767.40
378.87	1540.07
379.08	1697.77
379.29	1710.05
379.50	1826.79
379.71	1617.90
379.91	1740.77
380.12	1714.15
380.33	1716.20
380.54	1783.78
380.75	1697.77
380.96	1638.38
381.17	1810.40
381.38	1681.38
381.59	1771.49
381.80	1755.11
382.00	1853.41
382.21	1812.45
382.42	1837.03
382.63	1886.18
382.84	1798.12
383.05	1779.68
383.26	1877.99
383.47	1791.97
383.68	1845.22
383.88	1746.92
384.09	1726.44
384.30	1785.83
384.51	1740.77
384.72	1767.40
384.93	1634.28
385.14	1781.73
385.35	1753.06
385.55	1669.09
385.76	1679.33
385.97	1716.20
386.18	1613.80
386.39	1705.96
386.60	1744.87
386.81	1757.16
387.02	1681.38
387.22	1689.57
387.43	1794.02
387.64	1841.12
387.85	1910.75
388.06	2314.20
388.27	4687.80
388.48	9084.79
388.68	11691.85
388.89	13283.13
389.10	14083.88
389.31	11845.45
389.52	9828.20
389.73	8562.56
389.93	7903.11
390.14	7206.80
390.35	6545.31
390.56	5965.73
390.77	5035.96
390.98	3899.33
391.18	3028.95
391.39	2461.66
391.60	1912.80
391.81	1869.80
392.02	1714.15
392.23	1968.10
392.43	1755.11
392.64	1773.54
392.85	1722.34
393.06	1849.32
393.27	1689.57
393.47	1685.48
393.68	1718.25
393.89	1703.91
394.10	1789.92
394.31	1720.29
394.52	1740.77
394.72	1689.57
394.93	1787.88
395.14	1656.81
395.35	1755.11
395.56	1738.73
395.76	1732.58
395.97	1851.36
396.18	1875.94
396.39	1892.32
396.60	2146.27
396.80	1968.10
397.01	1865.70
397.22	1849.32
397.43	1847.27
397.64	1746.92
397.84	1798.12
398.05	1867.75
398.26	1701.86
398.47	1796.07
398.67	1771.49
398.88	1751.01
399.09	1843.17
399.30	1591.27
399.51	1724.39
399.71	1658.85
399.92	1714.15
400.13	1757.16
400.34	1765.35
400.54	1687.53
400.75	1796.07
400.96	1665.00
401.17	1808.36
401.37	1714.15
401.58	1718.25
401.79	1787.88
402.00	1837.03
402.21	2099.17
402.41	2029.54
402.62	2156.51
402.83	2215.90
403.04	2117.60
403.24	2125.79
403.45	1814.50
403.66	1894.37
403.87	1880.04
404.07	1943.52
404.28	2015.20
404.49	1951.71
404.70	1773.54
404.90	1779.68
405.11	1824.74
405.32	1724.39
405.52	1677.29
405.73	1587.18
405.94	1640.42
406.15	1708.01
406.35	1689.57
406.56	1820.64
406.77	1695.72
406.98	1806.31
407.18	1679.33
407.39	1791.97
407.60	1705.96
407.80	1757.16
408.01	1712.10
408.22	1765.35
408.43	1613.80
408.63	1746.92
408.84	1744.87
409.05	1738.73
409.25	1626.09
409.46	1626.09
409.67	1646.57
409.88	1654.76
410.08	1705.96
410.29	1683.43
410.50	1746.92
410.70	1755.11
410.91	1619.94
411.12	1675.24
411.32	1722.34
411.53	1685.48
411.74	1863.65
411.95	1816.55
412.15	1802.21
412.36	1824.74
412.57	1796.07
412.77	1857.51
412.98	1693.67
413.19	1712.10
413.39	1785.83
413.60	1746.92
413.81	1804.26
414.01	1748.97
414.22	1746.92
414.43	1851.36
414.63	1800.16
414.84	1746.92
415.05	1775.59
415.25	1609.70
415.46	1755.11
415.67	1759.21
415.87	1730.53
416.08	1767.40
416.29	1636.33
416.49	1722.34
416.70	1708.01
416.91	1724.39
417.11	1646.57
417.32	1753.06
417.53	1820.64
417.73	1759.21
417.94	1667.05
418.15	1769.44
418.35	1726.44
418.56	1734.63
418.77	1918.95
418.97	1619.94
419.18	1761.25
419.38	1617.90
419.59	1757.16
419.80	1751.01
420.00	1701.86
420.21	1785.83
420.42	1771.49
420.62	1773.54
420.83	1699.81
421.04	1722.34
421.24	1726.44
421.45	1771.49
421.65	1685.48
421.86	1697.77
422.07	1771.49
422.27	1708.01
422.48	1662.95
422.69	1648.61
422.89	1671.14
423.10	1687.53
423.30	1714.15
423.51	1681.38
423.72	1681.38
423.92	1730.53
424.13	1636.33
424.33	1759.21
424.54	1681.38
424.75	1652.71
424.95	1810.40
425.16	1732.58
425.36	1656.81
425.57	1857.51
425.78	1708.01
425.98	1779.68
426.19	1611.75
426.39	1708.01
426.60	1703.91
426.81	1732.58
427.01	1708.01
427.22	1615.85
427.42	1714.15
427.63	1681.38
427.83	1689.57
428.04	1820.64
428.25	1855.46
428.45	1812.45
428.66	1730.53
428.86	1665.00
429.07	1691.62
429.28	1683.43
429.48	1662.95
429.69	1632.23
429.89	1742.82
430.10	1634.28
430.30	1785.83
430.51	1769.44
430.71	1597.42
430.92	1595.37
431.13	1693.67
431.33	1767.40
431.54	1736.68
431.74	1855.46
431.95	1791.97
432.15	1722.34
432.36	1775.59
432.56	1781.73
432.77	1847.27
432.98	1839.08
433.18	1787.88
433.39	1701.86
433.59	1689.57
433.80	1822.69
434.00	1828.84
434.21	1722.34
434.41	1703.91
434.62	1861.60
434.82	1658.85
435.03	1646.57
435.23	1751.01
435.44	1603.56
435.64	1730.53
435.85	1742.82
436.06	1806.31
436.26	1736.68
436.47	1656.81
436.67	1687.53
436.88	1759.21
437.08	1820.64
437.29	1800.16
437.49	1734.63
437.70	1748.97
437.90	1742.82
438.11	1914.85
438.31	1757.16
438.52	1943.52
438.72	1902.56
438.93	1984.48
439.13	1847.27
439.34	1859.56
439.54	1755.11
439.75	1845.22
439.95	1771.49
440.16	1761.25
440.36	1847.27
440.57	1796.07
440.77	1738.73
440.98	1740.77
441.18	1708.01
441.39	1726.44
441.59	1636.33
441.80	1857.51
442.00	1742.82
442.21	1847.27
442.41	1689.57
442.62	1691.62
442.82	1730.53
443.02	1728.49
443.23	1785.83
443.43	1714.15
443.64	1828.84
443.84	1693.67
444.05	1845.22
444.25	1751.01
444.46	1697.77
444.66	1738.73
444.87	1810.40
445.07	1697.77
445.28	1726.44
445.48	1796.07
445.69	1716.20
445.89	1898.47
446.09	1806.31
446.30	1988.58
446.50	2652.12
446.71	4044.74
446.91	5042.10
447.12	5851.05
447.32	6088.61
447.53	5429.17
447.73	4464.57
447.93	3885.00
448.14	3590.09
448.34	3450.83
448.55	3151.82
448.75	3074.00
448.96	2990.03
449.16	2670.55
449.36	2426.84
449.57	2121.70
449.77	2002.91
449.98	1787.88
450.18	1812.45
450.39	1812.45
450.59	1669.09
450.79	1675.24
451.00	1736.68
451.20	1726.44
451.41	1822.69
451.61	1781.73
451.81	1757.16
452.02	1689.57
452.22	1726.44
452.43	1746.92
452.63	1681.38
452.84	1765.35
453.04	1708.01
453.24	1685.48
453.45	1726.44
453.65	1705.96
453.86	1726.44
454.06	1767.40
454.26	1755.11
454.47	1621.99
454.67	1910.75
454.87	1753.06
455.08	1701.86
455.28	1902.56
455.49	1794.02
455.69	1728.49
455.89	1857.51
456.10	1853.41
456.30	1763.30
456.51	1736.68
456.71	1683.43
456.91	1802.21
457.12	1761.25
457.32	1765.35
457.52	1642.47
457.73	1814.50
457.93	1794.02
458.14	1716.20
458.34	1689.57
458.54	1671.14
458.75	1708.01
458.95	1812.45
459.15	1757.16
459.36	1748.97
459.56	1785.83
459.76	1902.56
459.97	1771.49
460.17	1757.16
460.37	1730.53
460.58	1757.16
460.78	1837.03
460.99	1628.14
461.19	1656.81
461.39	1710.05
461.60	1742.82
461.80	1796.07
462.00	1720.29
462.21	1708.01
462.41	1626.09
462.61	1673.19
462.82	1652.71
463.02	1812.45
463.22	1730.53
463.43	1785.83
463.63	1751.01
463.83	1834.98
464.04	1746.92
464.24	1724.39
464.44	1679.33
464.64	1726.44
464.85	1746.92
465.05	1755.11
465.25	1855.46
465.46	1720.29
465.66	1869.80
465.86	1667.05
466.07	1710.05
466.27	1710.05
466.47	1667.05
466.68	1714.15
466.88	1796.07
467.08	1695.72
467.29	1810.40
467.49	1744.87
467.69	1716.20
467.89	1736.68
468.10	1755.11
468.30	1777.64
468.50	1804.26
468.71	1787.88
468.91	1640.42
469.11	1841.12
469.31	1673.19
469.52	1753.06
469.72	1828.84
469.92	1916.90
470.13	1757.16
470.33	1816.55
470.53	1828.84
470.73	2148.32
470.94	2437.08
471.14	2754.52
471.34	2938.84
471.54	2949.08
471.75	2539.48
471.95	2308.06
472.15	2193.37
472.36	2299.87
472.56	2166.75
472.76	2133.98
472.96	2082.78
473.17	2035.68
473.37	2013.15
473.57	1845.22
473.77	1904.61
473.98	1775.59
474.18	1689.57
474.38	1906.66
474.58	1724.39
474.79	1724.39
474.99	1818.60
475.19	1777.64
475.39	1714.15
475.60	1773.54
475.80	1673.19
476.00	1705.96
476.20	1679.33
476.41	1691.62
476.61	1761.25
476.81	1816.55
477.01	1644.52
477.21	1894.37
477.42	1826.79
477.62	1665.00
477.82	1781.73
478.02	1787.88
478.23	1705.96
478.43	1759.21
478.63	1781.73
478.83	1730.53
479.03	1689.57
479.24	1812.45
479.44	1798.12
479.64	1642.47
479.84	1658.85
480.04	1638.38
480.25	1759.21
480.45	1699.81
480.65	1734.63
480.85	1796.07
481.06	1673.19
481.26	1734.63
481.46	1753.06
481.66	1712.10
481.86	1673.19
482.06	1816.55
482.27	1746.92
482.47	1662.95
482.67	1683.43
482.87	1714.15
483.07	1894.37
483.28	1712.10
483.48	1714.15
483.68	1673.19
483.88	1658.85
484.08	1533.93
484.29	1615.85
484.49	1685.48
484.69	1689.57
484.89	1828.84
485.09	1808.36
485.29	1724.39
485.50	1685.48
485.70	1673.19
485.90	1804.26
486.10	1746.92
486.30	1714.15
486.50	1834.98
486.71	1726.44
486.91	1783.78
487.11	1732.58
487.31	1654.76
487.51	1794.02
487.71	1693.67
487.91	1601.51
488.12	1654.76
488.32	1568.74
488.52	1734.63
488.72	1640.42
488.92	1769.44
489.12	1837.03
489.32	1806.31
489.53	1726.44
489.73	1665.00
489.93	1785.83
490.13	1689.57
490.33	1662.95
490.53	1726.44
490.73	1714.15
490.94	1652.71
491.14	1828.84
491.34	1886.18
491.54	2068.45
491.74	2672.60
491.94	3243.98
492.14	3526.60
492.34	3663.82
492.54	3196.88
492.75	2750.42
492.95	2658.26
493.15	2488.28
493.35	2336.73
493.55	2265.05
493.75	2254.81
493.95	2185.18
494.15	2070.50
494.35	1964.00
494.56	1800.16
494.76	1755.11
494.96	1845.22
495.16	1765.35
495.36	1740.77
495.56	1716.20
495.76	1658.85
495.96	1738.73
496.16	1665.00
496.36	1837.03
496.56	1767.40
496.77	1779.68
496.97	1751.01
497.17	1720.29
497.37	1683.43
497.57	1779.68
497.77	1730.53
497.97	1730.53
498.17	1619.94
498.37	1640.42
498.57	1740.77
498.77	1748.97
498.97	1800.16
499.17	1873.89
499.38	1785.83
499.58	1705.96
499.78	1777.64
499.98	1796.07
500.18	1695.72
500.38	1691.62
500.58	1894.37
500.78	2418.65
500.98	4704.18
501.18	6649.75
501.38	8232.83
501.58	9002.87
501.78	8877.94
501.98	6883.22
502.18	5695.40
502.38	4929.46
502.58	4470.72
502.78	4145.09
502.98	3997.64
503.18	3766.21
503.38	3579.85
503.59	3100.62
503.79	2875.35
503.99	2637.78
504.19	2475.99
504.39	2404.32
504.59	2353.12
504.79	2324.44
504.99	2246.62
505.19	2045.92
505.39	1974.24
505.59	2078.69
505.79	1920.99
505.99	1961.95
506.19	1857.51
506.39	1841.12
506.59	1755.11
506.79	1830.88
506.99	1808.36
507.19	1763.30
507.39	1789.92
507.59	1691.62
507.79	1722.34
507.99	1701.86
508.19	1767.40
508.39	1718.25
508.59	1724.39
508.79	1828.84
508.99	1802.21
509.19	1699.81
509.39	1873.89
509.59	1607.66
509.79	1724.39
509.99	1773.54
510.19	1753.06
510.39	1775.59
510.59	1714.15
510.79	1755.11
510.99	1683.43
511.19	1802.21
511.39	1841.12
511.59	1830.88
511.79	1820.64
511.99	1787.88
512.19	1873.89
512.38	1728.49
512.58	1757.16
512.78	1671.14
512.98	1765.35
513.18	1826.79
513.38	1677.29
513.58	1710.05
513.78	1636.33
513.98	1746.92
514.18	1697.77
514.38	1732.58
514.58	1802.21
514.78	1722.34
514.98	1705.96
515.18	1781.73
515.38	1701.86
515.58	1841.12
515.78	1746.92
515.98	1767.40
516.18	1783.78
516.38	1632.23
516.57	1773.54
516.77	1699.81
516.97	1783.78
517.17	1624.04
517.37	1585.13
517.57	1769.44
517.77	1763.30
517.97	1732.58
518.17	1869.80
518.37	1667.05
518.57	1726.44
518.77	1705.96
518.97	1716.20
519.16	1671.14
519.36	1736.68
519.56	1714.15
519.76	1732.58
519.96	1798.12
520.16	1781.73
520.36	1683.43
520.56	1853.41
520.76	1667.05
520.96	1640.42
521.16	1757.16
521.35	1886.18
521.55	1853.41
521.75	1714.15
521.95	1728.49
522.15	1708.01
522.35	1611.75
522.55	1718.25
522.75	1851.36
522.95	1689.57
523.14	1667.05
523.34	1691.62
523.54	1673.19
523.74	1748.97
523.94	1720.29
524.14	1646.57
524.34	1791.97
524.54	1734.63
524.73	1724.39
524.93	1771.49
525.13	1759.21
525.33	1701.86
525.53	1837.03
525.73	1728.49
525.93	1744.87
526.13	1771.49
526.32	1673.19
526.52	1781.73
526.72	1796.07
526.92	1701.86
527.12	1742.82
527.32	1640.42
527.52	1839.08
527.71	1783.78
527.91	1773.54
528.11	1699.81
528.31	1734.63
528.51	1636.33
528.71	1742.82
528.90	1746.92
529.10	1736.68
529.30	1791.97
529.50	1607.66
529.70	1761.25
529.90	1796.07
530.09	1759.21
530.29	1691.62
530.49	1685.48
530.69	1808.36
530.89	1779.68
531.09	1728.49
531.28	1705.96
531.48	1773.54
531.68	1753.06
531.88	1730.53
532.08	1820.64
532.28	1716.20
532.47	1804.26
532.67	1751.01
532.87	1810.40
533.07	1705.96
533.27	1802.21
533.46	1755.11
533.66	1863.65
533.86	1834.98
534.06	1734.63
534.26	1771.49
534.45	1726.44
534.65	1832.93
534.85	1773.54
535.05	1730.53
535.25	1757.16
535.44	1671.14
535.64	1693.67
535.84	1669.09
536.04	1703.91
536.24	1761.25
536.43	1710.05
536.63	1798.12
536.83	1771.49
537.03	1773.54
537.22	1642.47
537.42	1650.66
537.62	1701.86
537.82	1738.73
538.02	1804.26
538.21	1830.88
538.41	1877.99
538.61	1734.63
538.81	1714.15
539.00	1767.40
539.20	1646.57
539.40	1699.81
539.60	1734.63
539.79	1775.59
539.99	1748.97
540.19	1740.77
540.39	1724.39
540.58	1759.21
540.78	1765.35
540.98	1710.05
541.18	1779.68
541.37	1910.75
541.57	1673.19
541.77	1736.68
541.97	1718.25
542.16	1583.08
542.36	1660.90
542.56	1705.96
542.76	1822.69
542.95	1746.92
543.15	1806.31
543.35	1777.64
543.54	1648.61
543.74	1718.25
543.94	1734.63
544.14	1773.54
544.33	1806.31
544.53	1757.16
544.73	1681.38
544.93	1720.29
545.12	1742.82
545.32	1689.57
545.52	1716.20
545.71	1705.96
545.91	1712.10
546.11	1697.77
546.30	1736.68
546.50	1683.43
546.70	1785.83
546.90	1736.68
547.09	1667.05
547.29	1751.01
547.49	1773.54
547.68	1720.29
547.88	1654.76
548.08	1734.63
548.27	2111.46
548.47	1708.01
548.67	1712.10
548.87	1744.87
549.06	1683.43
549.26	1730.53
549.46	1662.95
549.65	1687.53
549.85	1736.68
550.05	1773.54
550.24	1648.61
550.44	1794.02
550.64	1740.77
550.83	1789.92
551.03	1828.84
551.23	1837.03
551.42	1794.02
551.62	1656.81
551.82	1687.53
552.01	1626.09
552.21	1796.07
552.41	1773.54
552.60	1787.88
552.80	1728.49
553.00	1697.77
553.19	1714.15
553.39	1794.02
553.59	1742.82
553.78	1736.68
553.98	1728.49
554.17	1730.53
554.37	1880.04
554.57	1783.78
554.76	1777.64
554.96	1687.53
555.16	1693.67
555.35	1787.88
555.55	1748.97
555.75	1673.19
555.94	1779.68
556.14	1708.01
556.33	1720.29
556.53	1746.92
556.73	1728.49
556.92	1712.10
557.12	1832.93
557.32	1859.56
557.51	1800.16
557.71	1800.16
557.90	1791.97
558.10	1800.16
558.30	1730.53
558.49	1755.11
558.69	1689.57
558.88	1806.31
559.08	1773.54
559.28	1724.39
559.47	1748.97
559.67	1769.44
559.86	1824.74
560.06	1791.97
560.26	1742.82
560.45	1763.30
560.65	1703.91
560.84	1828.84
561.04	1726.44
561.24	1775.59
561.43	1603.56
561.63	1849.32
561.82	1738.73
562.02	1787.88
562.22	1650.66
562.41	1652.71
562.61	1718.25
562.80	1689.57
563.00	1804.26
563.19	1812.45
563.39	1857.51
563.59	1763.30
563.78	1820.64
563.98	1665.00
564.17	1708.01
564.37	1726.44
564.56	1740.77
564.76	1634.28
564.96	1847.27
565.15	1746.92
565.35	1906.66
565.54	1683.43
565.74	1804.26
565.93	1683.43
566.13	1765.35
566.32	1777.64
566.52	1705.96
566.71	1773.54
566.91	1755.11
567.11	1775.59
567.30	1718.25
567.50	1781.73
567.69	1740.77
567.89	1689.57
568.08	1650.66
568.28	1757.16
568.47	1640.42
568.67	1732.58
568.86	1693.67
569.06	1843.17
569.25	1667.05
569.45	1685.48
569.64	1722.34
569.84	1763.30
570.04	1773.54
570.23	1740.77
570.43	1724.39
570.62	1775.59
570.82	1808.36
571.01	1791.97
571.21	1675.24
571.40	1681.38
571.60	1816.55
571.79	1753.06
571.99	1779.68
572.18	1640.42
572.38	1681.38
572.57	1701.86
572.77	1732.58
572.96	1904.61
573.16	1804.26
573.35	1730.53
573.55	1849.32
573.74	1791.97
573.94	1673.19
574.13	1761.25
574.33	1908.71
574.52	1837.03
574.71	1740.77
574.91	1787.88
575.10	1640.42
575.30	1783.78
575.49	1708.01
575.69	1681.38
575.88	1816.55
576.08	1779.68
576.27	1824.74
576.47	1740.77
576.66	1908.71
576.86	1865.70
577.05	1794.02
577.25	1832.93
577.44	1849.32
577.64	1732.58
577.83	1800.16
578.02	1755.11
578.22	1857.51
578.41	1765.35
578.61	1728.49
578.80	1726.44
579.00	1736.68
579.19	1726.44
579.39	1798.12
579.58	1779.68
579.77	1703.91
579.97	1857.51
580.16	1822.69
580.36	1925.09
580.55	1853.41
580.75	1808.36
580.94	1859.56
581.13	1875.94
581.33	1800.16
581.52	1818.60
581.72	1961.95
581.91	1880.04
582.11	1812.45
582.30	1804.26
582.49	1847.27
582.69	1875.94
582.88	1779.68
583.08	1804.26
583.27	1832.93
583.47	1708.01
583.66	1712.10
583.85	1759.21
584.05	1738.73
584.24	1755.11
584.44	1888.23
584.63	1828.84
584.82	1863.65
585.02	1884.13
585.21	1851.36
585.41	1945.57
585.60	1884.13
585.79	2027.49
585.99	2013.15
586.18	1943.52
586.37	2295.77
586.57	3311.57
586.76	9779.05
586.96	26840.68
587.15	41846.15
587.34	51563.76
587.54	57865.36
587.73	55712.94
587.93	40013.21
588.12	29986.36
588.31	23660.18
588.51	20192.97
588.70	18542.31
588.89	17098.49
589.09	15599.38
589.28	13451.06
589.47	11515.73
589.67	9412.46
589.86	7536.52
590.06	5328.81
590.25	4179.90
590.44	3246.03
590.64	2652.12
590.83	2291.68
591.02	2088.93
591.22	1951.71
591.41	1877.99
591.60	1804.26
591.80	2027.49
591.99	1681.38
592.18	1730.53
592.38	1910.75
592.57	1724.39
592.76	1738.73
592.96	1714.15
593.15	1847.27
593.34	1875.94
593.54	1796.07
593.73	1841.12
593.92	1820.64
594.12	1796.07
594.31	1740.77
594.50	1882.08
594.70	1906.66
594.89	2002.91
595.08	1703.91
595.28	1820.64
595.47	1894.37
595.66	1828.84
595.86	1720.29
596.05	1755.11
596.24	1779.68
596.43	1812.45
596.63	1798.12
596.82	1789.92
597.01	1802.21
597.21	1841.12
597.40	1724.39
597.59	1738.73
597.79	1783.78
597.98	1863.65
598.17	1822.69
598.36	1759.21
598.56	1820.64
598.75	1769.44
598.94	1834.98
599.14	1701.86
599.33	1685.48
599.52	1785.83
599.71	1779.68
599.91	1843.17
600.10	1787.88
600.29	1757.16
600.48	1726.44
600.68	1816.55
600.87	1787.88
601.06	1730.53
601.26	1736.68
601.45	1708.01
601.64	1736.68
601.83	1849.32
602.03	1781.73
602.22	1755.11
602.41	1853.41
602.60	1910.75
602.80	1791.97
602.99	1712.10
603.18	1695.72
603.37	1681.38
603.57	1787.88
603.76	1814.50
603.95	1804.26
604.14	1730.53
604.34	1726.44
604.53	1742.82
604.72	1673.19
604.91	1771.49
605.10	1796.07
605.30	1628.14
605.49	1834.98
605.68	1791.97
605.87	1818.60
606.07	1714.15
606.26	1783.78
606.45	1822.69
606.64	1734.63
606.84	1728.49
607.03	1794.02
607.22	1841.12
607.41	1785.83
607.60	1695.72
607.80	1781.73
607.99	1748.97
608.18	1820.64
608.37	1800.16
608.56	1679.33
608.76	1841.12
608.95	1875.94
609.14	1763.30
609.33	1863.65
609.52	1847.27
609.72	1822.69
609.91	1863.65
610.10	1820.64
610.29	1798.12
610.48	1802.21
610.68	1820.64
610.87	1716.20
611.06	1761.25
611.25	1763.30
611.44	1767.40
611.63	1736.68
611.83	1757.16
612.02	1699.81
612.21	1826.79
612.40	1638.38
612.59	1640.42
612.79	1642.47
612.98	1665.00
613.17	1851.36
613.36	1710.05
613.55	1863.65
613.74	1804.26
613.93	1890.28
614.13	1955.81
614.32	1953.76
614.51	1982.43
614.70	1857.51
614.89	1873.89
615.08	1810.40
615.28	2131.94
615.47	1818.60
615.66	1828.84
615.85	1857.51
616.04	1898.47
616.23	1689.57
616.42	1761.25
616.62	1855.46
616.81	1869.80
617.00	1791.97
617.19	1783.78
617.38	1730.53
617.57	1732.58
617.76	1755.11
617.95	1802.21
618.15	1773.54
618.34	1998.82
618.53	1726.44
618.72	1789.92
618.91	1857.51
619.10	1845.22
619.29	1769.44
619.48	1730.53
619.68	1708.01
619.87	1710.05
620.06	1693.67
620.25	1771.49
620.44	1751.01
620.63	1740.77
620.82	1812.45
621.01	1675.24
621.20	1740.77
621.39	1775.59
621.59	1830.88
621.78	1783.78
621.97	1716.20
622.16	1812.45
622.35	1701.86
622.54	1771.49
622.73	1779.68
622.92	1693.67
623.11	1789.92
623.30	1779.68
623.49	1767.40
623.68	1687.53
623.88	1812.45
624.07	1736.68
624.26	1705.96
624.45	1716.20
624.64	1765.35
624.83	1714.15
625.02	1691.62
625.21	1751.01
625.40	1800.16
625.59	1822.69
625.78	1759.21
625.97	1818.60
626.16	1818.60
626.35	1847.27
626.54	1785.83
626.74	1824.74
626.93	1722.34
627.12	1744.87
627.31	1837.03
627.50	1781.73
627.69	1779.68
627.88	1710.05
628.07	1722.34
628.26	1624.04
628.45	1724.39
628.64	1691.62
628.83	1814.50
629.02	1654.76
629.21	1847.27
629.40	1759.21
629.59	1726.44
629.78	1710.05
629.97	1753.06
630.16	1751.01
630.35	1718.25
630.54	1734.63
630.73	1665.00
630.92	1748.97
631.11	1660.90
631.30	1710.05
631.49	1728.49
631.68	1804.26
631.87	1800.16
632.06	1640.42
632.25	1892.32
632.44	1710.05
632.63	1884.13
632.82	1798.12
633.01	1800.16
633.20	1890.28
633.39	1742.82
633.58	1679.33
633.77	1882.08
633.96	1779.68
634.15	1691.62
634.34	1783.78
634.53	1746.92
634.72	1773.54
634.91	1746.92
635.10	1744.87
635.29	1798.12
635.48	1755.11
635.67	1691.62
635.86	1634.28
636.05	1804.26
636.24	1853.41
636.43	1673.19
636.62	1697.77
636.81	1609.70
637.00	1732.58
637.19	1771.49
637.38	1775.59
637.57	1665.00
637.76	1742.82
637.95	1910.75
638.14	1886.18
638.33	1841.12
638.52	1832.93
638.71	1753.06
638.89	1662.95
639.08	1918.95
639.27	1837.03
639.46	1908.71
639.65	2101.22
639.84	2258.91
640.03	2439.13
640.22	2392.03
640.41	2379.74
640.60	2021.35
640.79	1972.19
640.98	1910.75
641.17	1949.67
641.36	1920.99
641.55	1929.19
641.74	1789.92
641.92	1816.55
642.11	1722.34
642.30	1787.88
642.49	1746.92
642.68	1779.68
642.87	1744.87
643.06	1742.82
643.25	1734.63
643.44	1714.15
643.63	1638.38
643.82	1798.12
644.00	1621.99
644.19	1767.40
644.38	1607.66
644.57	1744.87
644.76	1705.96
644.95	1732.58
645.14	1701.86
645.33	1683.43
645.52	1791.97
645.71	1689.57
645.89	1603.56
646.08	1632.23
646.27	1665.00
646.46	1828.84
646.65	1681.38
646.84	1660.90
647.03	1677.29
647.22	1769.44
647.40	1765.35
647.59	1681.38
647.78	1619.94
647.97	1685.48
648.16	1726.44
648.35	1789.92
648.54	1767.40
648.73	1687.53
648.91	1722.34
649.10	1742.82
649.29	1669.09
649.48	1708.01
649.67	1689.57
649.86	1773.54
650.05	1679.33
650.23	1896.42
650.42	1832.93
650.61	1988.58
650.80	1943.52
650.99	1951.71
651.18	1855.46
651.36	1828.84
651.55	1785.83
651.74	1880.04
651.93	1673.19
652.12	1761.25
652.31	1812.45
652.49	1732.58
652.68	1796.07
652.87	1804.26
653.06	1714.15
653.25	1769.44
653.44	1755.11
653.62	1812.45
653.81	1705.96
654.00	1769.44
654.19	1796.07
654.38	1869.80
654.56	1777.64
654.75	1705.96
654.94	1746.92
655.13	1740.77
655.32	1732.58
655.51	1808.36
655.69	1728.49
655.88	1751.01
656.07	1669.09
656.26	1767.40
656.45	1710.05
656.63	1695.72
656.82	1732.58
657.01	1769.44
657.20	1677.29
657.38	1759.21
657.57	1693.67
657.76	1558.50
657.95	1761.25
658.14	1691.62
658.32	1755.11
658.51	1683.43
658.70	1732.58
658.89	1708.01
659.08	1722.34
659.26	1863.65
659.45	1683.43
659.64	1802.21
659.83	1724.39
660.01	1955.81
660.20	1759.21
660.39	1812.45
660.58	1662.95
660.76	1708.01
660.95	1693.67
661.14	1681.38
661.33	1650.66
661.51	1621.99
661.70	1751.01
661.89	1724.39
662.08	1712.10
662.26	1646.57
662.45	1689.57
662.64	1810.40
662.83	1746.92
663.01	1642.47
663.20	1699.81
663.39	1822.69
663.58	1656.81
663.76	1681.38
663.95	1710.05
664.14	1708.01
664.32	1656.81
664.51	1673.19
664.70	1658.85
664.89	1726.44
665.07	1732.58
665.26	1740.77
665.45	1628.14
665.64	1691.62
665.82	1683.43
666.01	1812.45
666.20	1658.85
666.38	1773.54
666.57	1828.84
666.76	2172.89
666.95	4534.20
667.13	11421.52
667.32	18298.60
667.51	22095.53
667.69	24872.58
667.88	25439.87
668.07	19451.61
668.25	14184.23
668.44	11657.04
668.63	9734.00
668.81	8644.48
669.00	7645.07
669.19	7026.58
669.38	6182.82
669.56	5341.10
669.75	4493.24
669.94	3798.98
670.12	3098.58
670.31	2676.70
670.50	2377.69
670.68	2160.61
670.87	1994.72
671.06	1867.75
671.24	1775.59
671.43	1853.41
671.62	1769.44
671.80	1777.64
671.99	1828.84
672.18	1724.39
672.36	1781.73
672.55	1724.39
672.74	1763.30
672.92	1773.54
673.11	1798.12
673.29	1681.38
673.48	1783.78
673.67	1740.77
673.85	1757.16
674.04	1705.96
674.23	1781.73
674.41	1742.82
674.60	1691.62
674.79	1630.18
674.97	1742.82
675.16	1808.36
675.34	1783.78
675.53	1708.01
675.72	1783.78
675.90	1755.11
676.09	1740.77
676.28	1732.58
676.46	1640.42
676.65	1710.05
676.83	1728.49
677.02	1785.83
677.21	1728.49
677.39	1816.55
677.58	1777.64
677.77	1732.58
677.95	1642.47
678.14	1714.15
678.32	1722.34
678.51	1695.72
678.70	1859.56
678.88	1675.24
679.07	1703.91
679.25	1740.77
679.44	1714.15
679.63	1656.81
679.81	1728.49
680.00	1722.34
680.18	1748.97
680.37	1736.68
680.55	1689.57
680.74	1572.84
680.93	1587.18
681.11	1734.63
681.30	1697.77
681.48	1673.19
681.67	1634.28
681.85	1771.49
682.04	1781.73
682.23	1738.73
682.41	1724.39
682.60	1689.57
682.78	1689.57
682.97	1646.57
683.15	1722.34
683.34	1689.57
683.53	1763.30
683.71	1699.81
683.90	1789.92
684.08	1761.25
684.27	1673.19
684.45	1787.88
684.64	1796.07
684.82	1632.23
685.01	1767.40
685.19	1705.96
685.38	1785.83
685.57	1691.62
685.75	1691.62
685.94	1640.42
686.12	1714.15
686.31	1683.43
686.49	1783.78
686.68	1634.28
686.86	1755.11
687.05	1705.96
687.23	1771.49
687.42	1677.29
687.60	1662.95
687.79	1753.06
687.97	1794.02
688.16	1763.30
688.34	1771.49
688.53	1644.52
688.71	1783.78
688.90	1763.30
689.08	1683.43
689.27	1605.61
689.45	1718.25
689.64	1775.59
689.82	1679.33
690.01	1769.44
690.19	1705.96
690.38	1710.05
690.56	1748.97
690.75	1677.29
690.93	1673.19
691.12	1734.63
691.30	1681.38
691.49	1673.19
691.67	1742.82
691.86	1830.88
692.04	1632.23
692.23	1683.43
692.41	1742.82
692.60	1865.70
692.78	1869.80
692.97	1689.57
693.15	1783.78
693.34	1834.98
693.52	1843.17
693.71	1753.06
693.89	1693.67
694.08	1703.91
694.26	1787.88
694.44	1720.29
694.63	1740.77
694.81	1621.99
695.00	1703.91
695.18	1730.53
695.37	1791.97
695.55	1746.92
695.74	1718.25
695.92	1656.81
696.10	1826.79
696.29	1669.09
696.47	1693.67
696.66	1683.43
696.84	1738.73
697.03	1728.49
697.21	1892.32
697.40	2283.49
697.58	1841.12
697.76	1742.82
697.95	1652.71
698.13	1662.95
698.32	1734.63
698.50	1746.92
698.68	1718.25
698.87	1791.97
699.05	1808.36
699.24	1728.49
699.42	1703.91
699.61	1644.52
699.79	1712.10
699.97	1740.77
700.16	1626.09
700.34	1669.09
700.53	1667.05
700.71	1806.31
700.89	1773.54
701.08	1681.38
701.26	1716.20
701.45	2097.12
701.63	1783.78
701.81	1701.86
702.00	1697.77
702.18	1712.10
702.37	1701.86
702.55	1843.17
702.73	1880.04
702.92	1861.60
703.10	2056.16
703.28	2007.01
703.47	1800.16
703.65	1939.43
703.84	1847.27
704.02	1900.52
704.20	1826.79
704.39	1826.79
704.57	1820.64
704.75	1839.08
704.94	1824.74
705.12	1806.31
705.30	1892.32
705.49	2531.29
705.67	5345.20
705.86	13014.84
706.04	18931.42
706.22	22572.71
706.41	24983.17
706.59	24540.81
706.77	18982.62
706.96	13606.70
707.14	11695.95
707.32	10266.47
707.51	8873.85
707.69	7745.42
707.87	6629.27
708.06	5545.90
708.24	4429.76
708.42	3327.95
708.61	2836.44
708.79	2133.98
708.97	2086.88
709.16	1906.66
709.34	1853.41
709.52	1761.25
709.71	1767.40
709.89	1837.03
710.07	1746.92
710.26	1701.86
710.44	1742.82
710.62	1783.78
710.80	1665.00
710.99	1710.05
711.17	1736.68
711.35	1751.01
711.54	1701.86
711.72	1804.26
711.90	1722.34
712.09	1755.11
712.27	1648.61
712.45	1703.91
712.63	1724.39
712.82	1662.95
713.00	1693.67
713.18	1701.86
713.37	1789.92
713.55	1759.21
713.73	1755.11
713.91	1724.39
714.10	1708.01
714.28	1691.62
714.46	1746.92
714.65	1687.53
714.83	1751.01
715.01	1787.88
715.19	1796.07
715.38	1701.86
715.56	1765.35
715.74	1660.90
715.92	1705.96
716.11	1757.16
716.29	1599.46
716.47	1732.58
716.65	1681.38
716.84	1603.56
717.02	1779.68
717.20	1609.70
717.38	1681.38
717.57	1705.96
717.75	1656.81
717.93	1724.39
718.11	1755.11
718.30	1644.52
718.48	1796.07
718.66	1755.11
718.84	1791.97
719.03	1667.05
719.21	1697.77
719.39	1796.07
719.57	1824.74
719.75	1824.74
719.94	1718.25
720.12	1759.21
720.30	1841.12
720.48	1845.22
720.67	1714.15
720.85	1603.56
721.03	1738.73
721.21	1609.70
721.39	1740.77
721.58	1695.72
721.76	1730.53
721.94	1728.49
722.12	1730.53
722.30	1816.55
722.49	1652.71
722.67	1724.39
722.85	1716.20
723.03	1660.90
723.21	1693.67
723.40	1763.30
723.58	1730.53
723.76	1716.20
723.94	1826.79
724.12	1748.97
724.30	1820.64
724.49	1826.79
724.67	1701.86
724.85	1822.69
725.03	1710.05
725.21	1826.79
725.40	1763.30
725.58	1732.58
725.76	1849.32
725.94	1802.21
726.12	1613.80
726.30	1716.20
726.49	1732.58
726.67	1691.62
726.85	1808.36
727.03	1839.08
727.21	2351.07
727.39	3446.73
727.57	4845.49
727.76	5638.06
727.94	6307.74
728.12	6219.68
728.30	5560.24
728.48	4407.23
728.66	3921.86
728.84	3502.03
729.03	3139.54
729.21	2805.72
729.39	2353.12
729.57	2133.98
729.75	2007.01
729.93	1898.47
730.11	1837.03
730.30	1769.44
730.48	1617.90
730.66	1804.26
730.84	1806.31
731.02	1705.96
731.20	1697.77
731.38	1714.15
731.56	1697.77
731.74	1630.18
731.93	1677.29
732.11	1673.19
732.29	1720.29
732.47	1757.16
732.65	1755.11
732.83	1773.54
733.01	1785.83
733.19	1773.54
733.37	1757.16
733.56	1796.07
733.74	1703.91
733.92	1789.92
734.10	1626.09
734.28	1693.67
734.46	1601.51
734.64	1716.20
734.82	1689.57
735.00	1718.25
735.18	1748.97
735.36	1781.73
735.54	1734.63
735.73	1691.62
735.91	1779.68
736.09	1783.78
736.27	1701.86
736.45	1703.91
736.63	1730.53
736.81	1730.53
736.99	1728.49
737.17	1818.60
737.35	1689.57
737.53	1712.10
737.71	1697.77
737.89	1763.30
738.07	1615.85
738.25	1716.20
738.43	1683.43
738.61	1736.68
738.80	1648.61
738.98	1703.91
739.16	1730.53
739.34	1693.67
739.52	1722.34
739.70	1662.95
739.88	1703.91
740.06	1744.87
740.24	1621.99
740.42	1849.32
740.60	1617.90
740.78	1685.48
740.96	1695.72
741.14	1677.29
741.32	1777.64
741.50	1728.49
741.68	1787.88
741.86	1804.26
742.04	1638.38
742.22	1675.24
742.40	1660.90
742.58	1683.43
742.76	1708.01
742.94	1722.34
743.12	1599.46
743.30	1677.29
743.48	1796.07
743.66	1693.67
743.84	1742.82
744.02	1665.00
744.20	1759.21
744.38	1636.33
744.56	1646.57
744.74	1845.22
744.92	1705.96
745.10	1748.97
745.28	1775.59
745.46	1800.16
745.64	1650.66
745.82	1804.26
746.00	1787.88
746.18	1726.44
746.36	1640.42
746.54	1697.77
746.72	1675.24
746.90	1673.19
747.08	1804.26
747.26	1748.97
747.44	1681.38
747.62	1746.92
747.80	1759.21
747.98	1802.21
748.15	1660.90
748.33	1787.88
748.51	1759.21
748.69	1685.48
748.87	1693.67
749.05	1714.15
749.23	1759.21
749.41	1708.01
749.59	1761.25
749.77	1775.59
749.95	1710.05
750.13	1714.15
750.31	1699.81
750.49	1699.81
750.67	1755.11
750.85	1800.16
751.03	1722.34
751.20	1710.05
751.38	1724.39
751.56	1656.81
751.74	1615.85
751.92	1650.66
752.10	1759.21
752.28	1730.53
752.46	1689.57
752.64	1712.10
752.82	1615.85
753.00	1757.16
753.18	1652.71
753.35	1714.15
753.53	1718.25
753.71	1710.05
753.89	1765.35
754.07	1697.77
754.25	1849.32
754.43	1687.53
754.61	1718.25
754.79	1705.96
754.97	1675.24
755.14	1724.39
755.32	1644.52
755.50	1701.86
755.68	1722.34
755.86	1662.95
756.04	1730.53
756.22	1611.75
756.40	1699.81
756.57	1834.98
756.75	1710.05
756.93	1759.21
757.11	1800.16
757.29	1693.67
757.47	1718.25
757.65	1660.90
757.82	1628.14
758.00	1669.09
758.18	1697.77
758.36	1703.91
758.54	1771.49
758.72	1724.39
758.90	1826.79
759.07	1738.73
759.25	1640.42
759.43	1667.05
759.61	1589.22
759.79	2203.61
759.97	1781.73
760.15	1724.39
760.32	1624.04
760.50	1654.76
760.68	1806.31
760.86	1665.00
761.04	1771.49
761.22	1781.73
761.39	1632.23
761.57	1671.14
761.75	1683.43
761.93	1742.82
762.11	1691.62
762.28	1718.25
762.46	1605.61
762.64	1796.07
762.82	1587.18
763.00	1650.66
763.18	1865.70
763.35	1636.33
763.53	1787.88
763.71	1605.61
763.89	1658.85
764.07	1708.01
764.24	1646.57
764.42	1773.54
764.60	1669.09
764.78	1751.01
764.96	1775.59
765.13	1748.97
765.31	1798.12
765.49	1699.81
765.67	1658.85
765.84	1648.61
766.02	1658.85
766.20	1673.19
766.38	1722.34
766.56	1712.10
766.73	1791.97
766.91	1730.53
767.09	1689.57
767.27	1757.16
767.44	1689.57
767.62	1800.16
767.80	1798.12
767.98	1722.34
768.15	1771.49
768.33	1775.59
768.51	1791.97
768.69	1712.10
768.87	1724.39
769.04	1689.57
769.22	1820.64
769.40	1824.74
769.58	1777.64
769.75	1763.30
769.93	1796.07
770.11	1724.39
770.28	1697.77
770.46	1763.30
770.64	1761.25
770.82	1728.49
770.99	1673.19
771.17	1734.63
771.35	1716.20
771.53	1654.76
771.70	1691.62
771.88	1703.91
772.06	1748.97
772.23	1650.66
772.41	1673.19
772.59	1683.43
772.77	1652.71
772.94	1601.51
773.12	1695.72
773.30	1679.33
773.47	1701.86
773.65	1726.44
773.83	1744.87
774.01	1689.57
774.18	1726.44
774.36	1716.20
774.54	1595.37
774.71	1834.98
774.89	1640.42
775.07	1689.57
775.24	1636.33
775.42	1718.25
775.60	1818.60
775.78	1675.24
775.95	1624.04
776.13	1638.38
776.31	1574.89
776.48	1761.25
776.66	1800.16
776.84	1742.82
777.01	1656.81
777.19	1601.51
777.37	1720.29
777.54	1769.44
777.72	1890.28
777.90	1681.38
778.07	1796.07
778.25	1851.36
778.43	1734.63
778.60	1650.66
778.78	1769.44
778.96	1779.68
779.13	1673.19
779.31	1748.97
779.49	1685.48
779.66	1705.96
779.84	1718.25
780.01	1632.23
780.19	1650.66
780.37	1720.29
780.54	1689.57
780.72	1669.09
780.90	1693.67
781.07	1697.77
781.25	1605.61
781.43	1771.49
781.60	1685.48
781.78	1789.92
781.95	1705.96
782.13	1683.43
782.31	1755.11
782.48	1585.13
782.66	1728.49
782.83	1804.26
783.01	1697.77
783.19	1716.20
783.36	1677.29
783.54	1677.29
783.72	1746.92
783.89	1722.34
784.07	1771.49
784.24	1705.96
784.42	1824.74
784.60	1726.44
784.77	1665.00
784.95	1681.38
785.12	1667.05
785.30	1638.38
785.47	1652.71
785.65	1658.85
785.83	1738.73
786.00	1601.51
786.18	1738.73
786.35	1642.47
786.53	1718.25
786.71	1726.44
786.88	1777.64
787.06	1816.55
787.23	1626.09
787.41	1675.24
787.58	1730.53
787.76	1638.38
787.94	1712.10
788.11	1699.81
788.29	1660.90
788.46	1621.99
788.64	1689.57
788.81	1701.86
788.99	1646.57
789.16	1687.53
789.34	1687.53
789.52	1640.42
789.69	1613.80
789.87	1681.38
790.04	1669.09
790.22	1716.20
790.39	1814.50
790.57	1695.72
790.74	1732.58
790.92	1681.38
791.09	1626.09
791.27	1685.48
791.44	1746.92
791.62	1652.71
791.79	1798.12
791.97	1744.87
792.15	1992.67
792.32	1738.73
792.50	1755.11
792.67	1755.11
792.85	1824.74
793.02	1703.91
793.20	1763.30
793.37	1642.47
793.55	1787.88
793.72	1601.51
793.90	1759.21
794.07	1624.04
794.25	1669.09
794.42	1757.16
794.60	1687.53
794.77	1708.01
794.95	1732.58
795.12	1748.97
795.30	1587.18
795.47	1648.61
795.65	1837.03
795.82	1673.19
796.00	1665.00
796.17	1734.63
796.34	1660.90
796.52	1689.57
796.69	1683.43
796.87	1771.49
797.04	1685.48
797.22	1771.49
797.39	1738.73
797.57	1769.44
797.74	1738.73
797.92	1759.21
798.09	1687.53
798.27	1775.59
798.44	1660.90
798.62	1734.63
798.79	1683.43
798.96	1769.44
799.14	1605.61
799.31	1875.94
799.49	1644.52
799.66	1732.58
799.84	1697.77
800.01	1685.48
800.19	1738.73
800.36	1642.47
800.53	1724.39
800.71	1736.68
800.88	1814.50
801.06	1644.52
801.23	1718.25
801.41	1728.49
801.58	1710.05
801.75	1695.72
801.93	1720.29
802.10	1730.53
802.28	1718.25
802.45	1683.43
802.63	1669.09
802.80	1761.25
802.97	1611.75
803.15	1695.72
803.32	1693.67
803.50	1681.38
803.67	1687.53
803.84	1677.29
804.02	1763.30
804.19	1660.90
804.37	1554.41
804.54	1605.61
804.71	1658.85
804.89	1742.82
805.06	1652.71
805.24	1636.33
805.41	1601.51
805.58	1697.77
805.76	1771.49
805.93	1769.44
806.10	1732.58
806.28	1761.25
806.45	1705.96
806.63	1777.64
806.80	1757.16
806.97	1732.58
807.15	1726.44
807.32	1794.02
807.49	1724.39
807.67	1646.57
807.84	1730.53
808.01	1638.38
808.19	1845.22
808.36	1857.51
808.54	1777.64
808.71	1669.09
808.88	1734.63
809.06	1738.73
809.23	1832.93
809.40	1693.67
809.58	1791.97
809.75	1714.15
809.92	1591.27
810.10	1804.26
810.27	1714.15
810.44	1791.97
810.62	1787.88
810.79	1753.06
810.96	1613.80
811.14	1654.76
811.31	1746.92
811.48	1714.15
811.66	1746.92
811.83	1763.30
812.00	1734.63
812.18	1724.39
812.35	1816.55
812.52	1732.58
812.69	1755.11
812.87	1701.86
813.04	1656.81
813.21	1693.67
813.39	1683.43
813.56	1652.71
813.73	1714.15
813.91	1697.77
814.08	1734.63
814.25	1767.40
814.42	1607.66
814.60	1669.09
814.77	1710.05
814.94	1683.43
815.12	1730.53
815.29	1873.89
815.46	1730.53
815.63	1693.67
815.81	1685.48
815.98	1669.09
816.15	1736.68
816.33	1718.25
816.50	1773.54
816.67	1703.91
816.84	1689.57
817.02	1695.72
817.19	1689.57
817.36	1720.29
817.53	1681.38
817.71	1607.66
817.88	1724.39
818.05	1699.81
818.22	1728.49
818.40	1849.32
818.57	1691.62
818.74	1777.64
818.91	1646.57
819.09	1765.35
819.26	1753.06
819.43	1646.57
819.60	1695.72
819.78	1742.82
819.95	1828.84
820.12	1677.29
820.29	1755.11
820.47	1785.83
820.64	1642.47
820.81	1568.74
820.98	1634.28
821.15	1675.24
821.33	1701.86
821.50	1632.23
821.67	1708.01
821.84	1705.96
822.02	1740.77
822.19	1761.25
822.36	1714.15
822.53	1607.66
822.70	1634.28
822.88	1718.25
823.05	1783.78
823.22	1751.01
823.39	1769.44
823.56	1716.20
823.74	1787.88
823.91	1667.05
824.08	1652.71
824.25	1658.85
824.42	1841.12
824.60	1660.90
824.77	1693.67
824.94	1636.33
825.11	1648.61
825.28	1697.77
825.45	1687.53
825.63	1636.33
825.80	1665.00
825.97	1669.09
826.14	1695.72
826.31	1626.09
826.48	1740.77
826.66	1601.51
826.83	1689.57
827.00	1722.34
827.17	1626.09
827.34	1595.37
827.51	1634.28
827.69	1617.90
827.86	1673.19
828.03	1697.77
828.20	1796.07
828.37	1630.18
828.54	1697.77
828.71	1718.25
828.89	1755.11
829.06	1765.35
829.23	1779.68
829.40	1660.90
829.57	1662.95
829.74	1646.57
829.91	1687.53
830.09	1626.09
830.26	1759.21
830.43	1705.96
830.60	1673.19
830.77	1763.30
830.94	1853.41
831.11	1779.68
831.28	1660.90
831.46	1771.49
831.63	1662.95
831.80	1740.77
831.97	1697.77
832.14	1746.92
832.31	1681.38
832.48	1673.19
832.65	1771.49
832.82	1683.43
832.99	1755.11
833.17	1650.66
833.34	1769.44
833.51	1775.59
833.68	1607.66
833.85	1701.86
834.02	1626.09
834.19	1636.33
834.36	1685.48
834.53	1675.24
834.70	1738.73
834.87	1798.12
835.04	1662.95
835.22	1701.86
835.39	1703.91
835.56	1636.33
835.73	1669.09
835.90	1820.64
836.07	1650.66
836.24	1759.21
836.41	1595.37
836.58	1658.85
836.75	1730.53
836.92	1687.53
837.09	1671.14
837.26	1710.05
837.43	1843.17
837.60	1710.05
837.77	1587.18
837.94	1683.43
838.12	1759.21
838.29	1738.73
838.46	1624.04
838.63	1671.14
838.80	1839.08
838.97	1705.96
839.14	1732.58
839.31	1722.34
839.48	1734.63
839.65	1648.61
839.82	1722.34
839.99	1759.21
840.16	1712.10
840.33	1615.85
840.50	1646.57
840.67	1677.29
840.84	1624.04
841.01	1710.05
841.18	1652.71
841.35	1656.81
841.52	1724.39
841.69	1810.40
841.86	1667.05
842.03	1689.57
842.20	1712.10
842.37	1748.97
842.54	1781.73
842.71	1773.54
842.88	1642.47
843.05	1755.11
843.22	1699.81
843.39	1783.78
843.56	1769.44
843.73	1617.90
843.90	1736.68
844.07	1681.38
844.24	1724.39
844.41	1679.33
844.58	1742.82
844.75	1761.25
844.92	1796.07
845.09	1662.95
845.26	1652.71
845.43	1757.16
845.60	1724.39
845.77	1703.91
845.94	1736.68
846.10	1703.91
846.27	1662.95
846.44	1683.43
846.61	1648.61
846.78	1771.49
846.95	1828.84
847.12	1748.97
847.29	1681.38
847.46	1609.70
847.63	1742.82
847.80	1576.94
847.97	1658.85
848.14	1837.03
848.31	1726.44
848.48	1566.70
848.65	1773.54
848.82	1714.15
848.98	1861.60
849.15	1744.87
849.32	1837.03
849.49	1763.30
849.66	1732.58
849.83	1767.40
850.00	1669.09
850.17	1769.44
850.34	1755.11
850.51	1660.90
850.68	1720.29
850.85	1849.32
851.01	1708.01
851.18	1746.92
851.35	1718.25
851.52	1757.16
851.69	1798.12
851.86	1613.80
852.03	1708.01
852.20	1763.30
852.37	1728.49
852.53	1660.90
852.70	1650.66
852.87	1689.57
853.04	1681.38
853.21	1695.72
853.38	1771.49
853.55	1769.44
853.72	1746.92
853.89	1648.61
854.05	1632.23
854.22	1671.14
854.39	1718.25
854.56	1654.76
854.73	1751.01
854.90	1665.00
855.07	1699.81
855.23	1699.81
855.40	1662.95
855.57	1683.43
855.74	1632.23
855.91	1851.36
856.08	1658.85
856.25	1673.19
856.41	1734.63
856.58	1660.90
856.75	1763.30
856.92	1583.08
857.09	1695.72
857.26	1644.52
857.42	1708.01
857.59	1712.10
857.76	1726.44
857.93	1726.44
858.10	1697.77
858.27	1632.23
858.43	1738.73
858.60	1599.46
858.77	1626.09
858.94	1689.57
859.11	1767.40
859.27	1746.92
859.44	1673.19
859.61	1828.84
859.78	1751.01
859.95	1710.05
860.12	1648.61
860.28	1837.03
860.45	1832.93
860.62	1724.39
860.79	1658.85
860.95	1597.42
861.12	1703.91
861.29	1726.44
861.46	1703.91
861.63	1712.10
861.79	1718.25
861.96	1675.24
862.13	1695.72
862.30	1767.40
862.47	1685.48
862.63	1697.77
862.80	1730.53
862.97	1734.63
863.14	1671.14
863.30	1798.12
863.47	1695.72
863.64	1796.07
863.81	1738.73
863.97	1753.06
864.14	1773.54
864.31	1619.94
864.48	1665.00
864.65	1634.28
864.81	1787.88
864.98	1751.01
865.15	1765.35
865.32	1812.45
865.48	1791.97
865.65	1820.64
865.82	1691.62
865.98	1710.05
866.15	1765.35
866.32	1662.95
866.49	1677.29
866.65	1777.64
866.82	1671.14
866.99	1677.29
867.16	1673.19
867.32	1591.27
867.49	1744.87
867.66	1730.53
867.83	1654.76
867.99	1736.68
868.16	1628.14
868.33	1679.33
868.49	1689.57
868.66	1703.91
868.83	1748.97
868.99	1726.44
869.16	1736.68
869.33	1726.44
869.50	1693.67
869.66	1658.85
869.83	1734.63
870.00	1685.48
870.16	1734.63
870.33	1738.73
870.50	1773.54
870.66	1804.26
870.83	1841.12
871.00	1746.92
871.17	1689.57
871.33	1738.73
871.50	1681.38
871.67	1650.66
871.83	1642.47
872.00	1869.80
872.17	1673.19
872.33	1802.21
872.50	1740.77
872.67	1769.44
872.83	1640.42
873.00	1812.45
873.17	1767.40
873.33	1816.55
873.50	1794.02
873.67	1724.39
873.83	1619.94
874.00	1667.05
874.16	1757.16
874.33	1673.19
874.50	1619.94
874.66	1773.54
874.83	1732.58
875.00	1832.93
875.16	1757.16
875.33	1751.01
875.50	1542.12
875.66	1646.57
875.83	1763.30
875.99	1765.35
876.16	1609.70
876.33	1681.38
876.49	1740.77
876.66	1689.57
876.83	1636.33
876.99	1617.90
877.16	1728.49
877.32	1716.20
877.49	1658.85
877.66	1701.86
877.82	1853.41
877.99	1751.01
878.15	1701.86
878.32	1701.86
878.49	1722.34
878.65	1677.29
878.82	1773.54
878.98	1636.33
879.15	1665.00
879.32	1693.67
879.48	1665.00
879.65	1697.77
879.81	1687.53
879.98	1697.77
880.15	1748.97
880.31	1777.64
880.48	1656.81
880.64	1767.40
880.81	1812.45
880.97	1722.34
881.14	1812.45
881.31	1640.42
881.47	1812.45
881.64	1667.05
881.80	1634.28
881.97	1695.72
882.13	1763.30
882.30	1634.28
882.47	1626.09
882.63	1763.30
882.80	1665.00
882.96	1681.38
883.13	1763.30
883.29	1755.11
883.46	1716.20
883.62	1751.01
883.79	1697.77
883.95	1718.25
884.12	1724.39
884.29	1718.25
884.45	1665.00
884.62	1771.49
884.78	1638.38
884.95	1863.65
885.11	1660.90
885.28	1732.58
885.44	1675.24
885.61	1673.19
885.77	1791.97
885.94	1644.52
886.10	1769.44
886.27	1685.48
886.43	1804.26
886.60	1720.29
886.76	1654.76
886.93	1681.38
887.09	1726.44
887.26	1611.75
887.42	1699.81
887.59	1708.01
887.75	1816.55
887.92	1777.64
888.08	1767.40
888.25	1789.92
888.41	1763.30
888.58	1685.48
888.74	1679.33
888.91	1691.62
>>>>>End Processed Spectral Data<<<<<
