SpectraSuite Data File
++++++++++++++++++++++++++++++++++++
Date: Wed May 04 18:44:07 CEST 2016
User: root
Dark Spectrum Present: No
Reference Spectrum Present: No
Number of Sampled Component Spectra: 1
Spectrometers: USB4C02835
Integration Time (usec): 100000 (USB4C02835)
Spectra Averaged: 1 (USB4C02835)
Boxcar Smoothing: 0 (USB4C02835)
Correct for Electrical Dark: No (USB4C02835)
Strobe/Lamp Enabled: No (USB4C02835)
Correct for Detector Non-linearity: No (USB4C02835)
Correct for Stray Light: No (USB4C02835)
Number of Pixels in Processed Spectrum: 3648
>>>>>Begin Processed Spectral Data<<<<<
177.47	1437.67
177.69	1437.67
177.91	1437.67
178.13	1472.49
178.36	1466.35
178.58	1720.29
178.80	1697.77
179.02	1681.38
179.24	1572.84
179.46	1724.39
179.68	1701.86
179.90	1673.19
180.13	1667.05
180.35	1669.09
180.57	1710.05
180.79	1718.25
181.01	1626.09
181.23	1681.38
181.45	1744.87
181.67	1677.29
181.90	1691.62
182.12	1599.46
182.34	1611.75
182.56	1765.35
182.78	1742.82
183.00	1710.05
183.22	1712.10
183.44	1558.50
183.66	1853.41
183.89	1789.92
184.11	1681.38
184.33	1710.05
184.55	1822.69
184.77	1728.49
184.99	1746.92
185.21	1705.96
185.43	1841.12
185.65	1609.70
185.87	1771.49
186.10	1851.36
186.32	1886.18
186.54	1796.07
186.76	1800.16
186.98	1769.44
187.20	1650.66
187.42	1685.48
187.64	1732.58
187.86	1771.49
188.08	1763.30
188.30	1751.01
188.52	1710.05
188.75	1787.88
188.97	1787.88
189.19	1644.52
189.41	1722.34
189.63	1734.63
189.85	1679.33
190.07	1628.14
190.29	1652.71
190.51	1675.24
190.73	1640.42
190.95	1736.68
191.17	1701.86
191.39	1648.61
191.61	1726.44
191.84	1681.38
192.06	1791.97
192.28	1679.33
192.50	1839.08
192.72	1716.20
192.94	1771.49
193.16	1763.30
193.38	1687.53
193.60	1724.39
193.82	1691.62
194.04	1714.15
194.26	1726.44
194.48	1746.92
194.70	1677.29
194.92	1718.25
195.14	1781.73
195.36	1630.18
195.58	1738.73
195.80	1656.81
196.02	1712.10
196.24	1718.25
196.46	1767.40
196.69	1699.81
196.91	1853.41
197.13	1740.77
197.35	1685.48
197.57	1789.92
197.79	1669.09
198.01	1703.91
198.23	1697.77
198.45	1693.67
198.67	1595.37
198.89	1748.97
199.11	1736.68
199.33	1681.38
199.55	1572.84
199.77	1728.49
199.99	1791.97
200.21	1642.47
200.43	1726.44
200.65	1578.98
200.87	1644.52
201.09	1693.67
201.31	1736.68
201.53	1822.69
201.75	1695.72
201.97	1644.52
202.19	1724.39
202.41	1783.78
202.63	1796.07
202.85	1736.68
203.07	1705.96
203.29	1665.00
203.51	1697.77
203.73	1720.29
203.95	1869.80
204.17	1701.86
204.39	1617.90
204.61	1744.87
204.83	1705.96
205.05	1759.21
205.27	1783.78
205.49	1771.49
205.71	1767.40
205.93	1619.94
206.15	1667.05
206.37	1660.90
206.59	1789.92
206.81	1640.42
207.03	1693.67
207.25	1650.66
207.47	1738.73
207.69	1683.43
207.91	1818.60
208.13	1822.69
208.34	1560.55
208.56	1683.43
208.78	1755.11
209.00	1697.77
209.22	1744.87
209.44	1691.62
209.66	1697.77
209.88	1716.20
210.10	1687.53
210.32	1595.37
210.54	1781.73
210.76	1742.82
210.98	1730.53
211.20	1632.23
211.42	1748.97
211.64	1798.12
211.86	1693.67
212.08	1730.53
212.30	1695.72
212.52	1718.25
212.74	1722.34
212.96	1626.09
213.17	1730.53
213.39	1744.87
213.61	1808.36
213.83	1730.53
214.05	1761.25
214.27	1742.82
214.49	1621.99
214.71	1691.62
214.93	1687.53
215.15	1714.15
215.37	1804.26
215.59	1605.61
215.81	1714.15
216.03	1847.27
216.24	1705.96
216.46	1773.54
216.68	1773.54
216.90	1742.82
217.12	1763.30
217.34	1738.73
217.56	1673.19
217.78	1775.59
218.00	1828.84
218.22	1677.29
218.44	1773.54
218.66	1748.97
218.87	1859.56
219.09	1681.38
219.31	1800.16
219.53	1738.73
219.75	1593.32
219.97	1757.16
220.19	1740.77
220.41	1720.29
220.63	1775.59
220.85	1673.19
221.06	1673.19
221.28	1722.34
221.50	1736.68
221.72	1705.96
221.94	1726.44
222.16	1714.15
222.38	1779.68
222.60	1781.73
222.82	1714.15
223.03	1726.44
223.25	1621.99
223.47	1816.55
223.69	1824.74
223.91	1783.78
224.13	1660.90
224.35	1673.19
224.57	1771.49
224.78	1767.40
225.00	1636.33
225.22	1771.49
225.44	1714.15
225.66	1742.82
225.88	1671.14
226.10	1763.30
226.32	1720.29
226.53	1867.75
226.75	1650.66
226.97	1689.57
227.19	1724.39
227.41	1681.38
227.63	1683.43
227.85	1665.00
228.06	1718.25
228.28	1730.53
228.50	1787.88
228.72	1630.18
228.94	1683.43
229.16	1599.46
229.37	1597.42
229.59	1662.95
229.81	1845.22
230.03	1691.62
230.25	1671.14
230.47	1705.96
230.69	1673.19
230.90	1763.30
231.12	1681.38
231.34	1701.86
231.56	1732.58
231.78	1662.95
232.00	1720.29
232.21	1720.29
232.43	1699.81
232.65	1576.94
232.87	1708.01
233.09	1701.86
233.30	1632.23
233.52	1789.92
233.74	1697.77
233.96	1683.43
234.18	1695.72
234.40	1677.29
234.61	1812.45
234.83	1652.71
235.05	1691.62
235.27	1800.16
235.49	1767.40
235.70	1710.05
235.92	1763.30
236.14	1736.68
236.36	1806.31
236.58	1660.90
236.79	1802.21
237.01	1748.97
237.23	1669.09
237.45	1853.41
237.67	1685.48
237.88	1720.29
238.10	1759.21
238.32	1603.56
238.54	1748.97
238.76	1691.62
238.97	1667.05
239.19	1701.86
239.41	1789.92
239.63	1751.01
239.85	1669.09
240.06	1687.53
240.28	1714.15
240.50	1802.21
240.72	1638.38
240.93	1693.67
241.15	1781.73
241.37	1753.06
241.59	1855.46
241.81	1708.01
242.02	1683.43
242.24	1712.10
242.46	1691.62
242.68	1656.81
242.89	1753.06
243.11	1726.44
243.33	1646.57
243.55	1701.86
243.76	1783.78
243.98	1687.53
244.20	1767.40
244.42	1693.67
244.64	1689.57
244.85	1578.98
245.07	1640.42
245.29	1712.10
245.51	1685.48
245.72	1710.05
245.94	1755.11
246.16	1765.35
246.38	1779.68
246.59	1724.39
246.81	1650.66
247.03	1681.38
247.24	1624.04
247.46	1587.18
247.68	1757.16
247.90	1685.48
248.11	1724.39
248.33	1781.73
248.55	1769.44
248.77	1765.35
248.98	1738.73
249.20	1740.77
249.42	1617.90
249.64	1705.96
249.85	1736.68
250.07	1611.75
250.29	1771.49
250.50	1781.73
250.72	1617.90
250.94	1685.48
251.16	1855.46
251.37	1863.65
251.59	1652.71
251.81	1726.44
252.02	1759.21
252.24	1648.61
252.46	1800.16
252.68	1648.61
252.89	1660.90
253.11	1642.47
253.33	1748.97
253.54	1736.68
253.76	1611.75
253.98	1697.77
254.20	1683.43
254.41	1671.14
254.63	1740.77
254.85	1624.04
255.06	1716.20
255.28	1763.30
255.50	1705.96
255.71	1583.08
255.93	1667.05
256.15	1703.91
256.36	1697.77
256.58	1675.24
256.80	1777.64
257.02	1660.90
257.23	1650.66
257.45	1769.44
257.67	1689.57
257.88	1669.09
258.10	1712.10
258.32	1701.86
258.53	1705.96
258.75	1689.57
258.97	1607.66
259.18	1718.25
259.40	1783.78
259.62	1896.42
259.83	1777.64
260.05	1679.33
260.27	1972.19
260.48	1789.92
260.70	1662.95
260.92	1738.73
261.13	1763.30
261.35	1746.92
261.57	1705.96
261.78	1636.33
262.00	1675.24
262.22	1779.68
262.43	1632.23
262.65	1691.62
262.86	1665.00
263.08	1791.97
263.30	1695.72
263.51	1675.24
263.73	1716.20
263.95	1779.68
264.16	1611.75
264.38	1712.10
264.60	1683.43
264.81	1652.71
265.03	1791.97
265.25	1800.16
265.46	1708.01
265.68	1798.12
265.89	1703.91
266.11	1642.47
266.33	1652.71
266.54	1673.19
266.76	1755.11
266.98	1699.81
267.19	1769.44
267.41	1794.02
267.62	1701.86
267.84	1718.25
268.06	1751.01
268.27	1720.29
268.49	1777.64
268.70	1630.18
268.92	1693.67
269.14	1677.29
269.35	1628.14
269.57	1742.82
269.79	1785.83
270.00	1656.81
270.22	1806.31
270.43	1669.09
270.65	1624.04
270.87	1755.11
271.08	1779.68
271.30	1787.88
271.51	1675.24
271.73	1681.38
271.95	1837.03
272.16	1714.15
272.38	1703.91
272.59	1708.01
272.81	1757.16
273.02	1753.06
273.24	1728.49
273.46	1724.39
273.67	1677.29
273.89	1693.67
274.10	1714.15
274.32	1708.01
274.54	1697.77
274.75	1705.96
274.97	1695.72
275.18	1726.44
275.40	1767.40
275.61	1689.57
275.83	1644.52
276.05	1693.67
276.26	1683.43
276.48	1681.38
276.69	1669.09
276.91	1677.29
277.12	1808.36
277.34	1755.11
277.55	1753.06
277.77	1705.96
277.99	1665.00
278.20	1681.38
278.42	1718.25
278.63	1640.42
278.85	1619.94
279.06	1628.14
279.28	1708.01
279.49	1705.96
279.71	1726.44
279.93	1667.05
280.14	1642.47
280.36	1662.95
280.57	1732.58
280.79	1744.87
281.00	1673.19
281.22	1658.85
281.43	1824.74
281.65	1558.50
281.86	1574.89
282.08	1701.86
282.29	1837.03
282.51	1654.76
282.73	1679.33
282.94	1619.94
283.16	1732.58
283.37	1734.63
283.59	1699.81
283.80	1730.53
284.02	1656.81
284.23	1736.68
284.45	1697.77
284.66	1652.71
284.88	1689.57
285.09	1724.39
285.31	1789.92
285.52	1673.19
285.74	1697.77
285.95	1771.49
286.17	1695.72
286.38	1732.58
286.60	1687.53
286.81	1677.29
287.03	1716.20
287.24	1699.81
287.46	1730.53
287.67	1665.00
287.89	1902.56
288.10	1738.73
288.32	1755.11
288.53	1810.40
288.75	1734.63
288.96	1705.96
289.18	1689.57
289.39	1748.97
289.61	1703.91
289.82	1808.36
290.04	1845.22
290.25	1591.27
290.47	1656.81
290.68	1667.05
290.90	1808.36
291.11	1593.32
291.33	1701.86
291.54	1794.02
291.76	1644.52
291.97	1685.48
292.18	1695.72
292.40	1662.95
292.61	1658.85
292.83	1871.84
293.04	1724.39
293.26	1710.05
293.47	1734.63
293.69	1656.81
293.90	1685.48
294.12	1775.59
294.33	1738.73
294.55	1705.96
294.76	1724.39
294.97	1759.21
295.19	1808.36
295.40	1665.00
295.62	1730.53
295.83	1738.73
296.05	1617.90
296.26	1834.98
296.48	1705.96
296.69	1714.15
296.90	1673.19
297.12	1746.92
297.33	1722.34
297.55	1687.53
297.76	1751.01
297.98	1740.77
298.19	1701.86
298.41	1751.01
298.62	1667.05
298.83	1818.60
299.05	1785.83
299.26	1742.82
299.48	1654.76
299.69	1710.05
299.90	1665.00
300.12	1652.71
300.33	1767.40
300.55	1693.67
300.76	1742.82
300.98	1660.90
301.19	1759.21
301.40	1656.81
301.62	1757.16
301.83	1681.38
302.05	1667.05
302.26	1693.67
302.47	1673.19
302.69	1611.75
302.90	1685.48
303.12	1570.79
303.33	1746.92
303.54	1853.41
303.76	1679.33
303.97	1751.01
304.19	1757.16
304.40	1601.51
304.61	1712.10
304.83	1800.16
305.04	1746.92
305.26	1732.58
305.47	1658.85
305.68	1699.81
305.90	1699.81
306.11	1740.77
306.33	1681.38
306.54	1619.94
306.75	1703.91
306.97	1595.37
307.18	1630.18
307.39	1644.52
307.61	1763.30
307.82	1687.53
308.04	1699.81
308.25	1691.62
308.46	1677.29
308.68	1708.01
308.89	1724.39
309.10	1855.46
309.32	1787.88
309.53	1689.57
309.74	1724.39
309.96	1689.57
310.17	1710.05
310.39	1734.63
310.60	1701.86
310.81	1677.29
311.03	1673.19
311.24	1769.44
311.45	1720.29
311.67	1843.17
311.88	1736.68
312.09	1705.96
312.31	1710.05
312.52	1665.00
312.73	1726.44
312.95	1613.80
313.16	1624.04
313.37	1781.73
313.59	1748.97
313.80	1705.96
314.01	1843.17
314.23	1652.71
314.44	1646.57
314.65	1679.33
314.87	1667.05
315.08	1746.92
315.29	1753.06
315.51	1683.43
315.72	1624.04
315.93	1748.97
316.15	1794.02
316.36	1683.43
316.57	1675.24
316.79	1738.73
317.00	1714.15
317.21	1730.53
317.43	1697.77
317.64	1738.73
317.85	1650.66
318.07	1769.44
318.28	1794.02
318.49	1873.89
318.70	1886.18
318.92	1902.56
319.13	1943.52
319.34	1923.04
319.56	1890.28
319.77	1753.06
319.98	1775.59
320.20	1826.79
320.41	1789.92
320.62	1800.16
320.83	1658.85
321.05	1843.17
321.26	1734.63
321.47	1740.77
321.69	1824.74
321.90	1697.77
322.11	1705.96
322.32	1732.58
322.54	1812.45
322.75	1638.38
322.96	1816.55
323.18	1669.09
323.39	1607.66
323.60	1658.85
323.81	1738.73
324.03	1640.42
324.24	1701.86
324.45	1722.34
324.66	1748.97
324.88	1822.69
325.09	1837.03
325.30	1708.01
325.52	1726.44
325.73	1701.86
325.94	1683.43
326.15	1558.50
326.37	1667.05
326.58	1746.92
326.79	1751.01
327.00	1617.90
327.22	1665.00
327.43	1652.71
327.64	1681.38
327.85	1683.43
328.07	1689.57
328.28	1816.55
328.49	1650.66
328.70	1621.99
328.92	1740.77
329.13	1701.86
329.34	1796.07
329.55	1759.21
329.76	1779.68
329.98	1675.24
330.19	1763.30
330.40	1675.24
330.61	1712.10
330.83	1761.25
331.04	1712.10
331.25	1677.29
331.46	1712.10
331.68	1675.24
331.89	1730.53
332.10	1734.63
332.31	1654.76
332.52	1751.01
332.74	1685.48
332.95	1638.38
333.16	1695.72
333.37	1693.67
333.58	1669.09
333.80	1669.09
334.01	1593.32
334.22	1714.15
334.43	1667.05
334.64	1705.96
334.86	1703.91
335.07	1695.72
335.28	1726.44
335.49	1587.18
335.70	1785.83
335.92	1812.45
336.13	1812.45
336.34	1779.68
336.55	1748.97
336.76	1726.44
336.98	1628.14
337.19	1673.19
337.40	1765.35
337.61	1822.69
337.82	1636.33
338.04	1738.73
338.25	1638.38
338.46	1742.82
338.67	1665.00
338.88	1669.09
339.09	1650.66
339.31	1695.72
339.52	1648.61
339.73	1703.91
339.94	1650.66
340.15	1683.43
340.36	1652.71
340.58	1689.57
340.79	1757.16
341.00	1779.68
341.21	1617.90
341.42	1841.12
341.63	1665.00
341.85	1714.15
342.06	1691.62
342.27	1714.15
342.48	1769.44
342.69	1656.81
342.90	1812.45
343.12	1732.58
343.33	1695.72
343.54	1779.68
343.75	1716.20
343.96	1656.81
344.17	1710.05
344.38	1693.67
344.60	1624.04
344.81	1673.19
345.02	1658.85
345.23	1781.73
345.44	1802.21
345.65	1722.34
345.86	1675.24
346.07	1753.06
346.29	1705.96
346.50	1755.11
346.71	1775.59
346.92	1746.92
347.13	1826.79
347.34	1662.95
347.55	1679.33
347.76	1675.24
347.98	1638.38
348.19	1691.62
348.40	1671.14
348.61	1624.04
348.82	1767.40
349.03	1675.24
349.24	1681.38
349.45	1796.07
349.66	1552.36
349.88	1775.59
350.09	1626.09
350.30	1824.74
350.51	1830.88
350.72	1697.77
350.93	1691.62
351.14	1640.42
351.35	1716.20
351.56	1744.87
351.77	1736.68
351.99	1814.50
352.20	1834.98
352.41	1794.02
352.62	1665.00
352.83	1697.77
353.04	1708.01
353.25	1685.48
353.46	1767.40
353.67	1824.74
353.88	1599.46
354.09	1726.44
354.30	1697.77
354.52	1746.92
354.73	1771.49
354.94	1585.13
355.15	1662.95
355.36	1802.21
355.57	1716.20
355.78	1710.05
355.99	1675.24
356.20	1732.58
356.41	1787.88
356.62	1755.11
356.83	1693.67
357.04	1718.25
357.25	1591.27
357.46	1742.82
357.68	1648.61
357.89	1638.38
358.10	1671.14
358.31	1703.91
358.52	1748.97
358.73	1638.38
358.94	1640.42
359.15	1732.58
359.36	1714.15
359.57	1714.15
359.78	1714.15
359.99	1689.57
360.20	1665.00
360.41	1734.63
360.62	1773.54
360.83	1660.90
361.04	1742.82
361.25	1759.21
361.46	1800.16
361.67	1771.49
361.88	1714.15
362.09	1769.44
362.30	1783.78
362.51	1662.95
362.72	1730.53
362.93	1699.81
363.14	1746.92
363.35	1701.86
363.56	1656.81
363.78	1769.44
363.99	1705.96
364.20	1667.05
364.41	1781.73
364.62	1810.40
364.83	1763.30
365.04	1738.73
365.25	1675.24
365.46	1808.36
365.67	1656.81
365.88	1619.94
366.09	1697.77
366.30	1708.01
366.51	1632.23
366.72	1677.29
366.93	1703.91
367.14	1751.01
367.35	1814.50
367.56	1736.68
367.77	1806.31
367.98	1708.01
368.18	1654.76
368.39	1763.30
368.60	1640.42
368.81	1740.77
369.02	1765.35
369.23	1779.68
369.44	1624.04
369.65	1718.25
369.86	1757.16
370.07	1804.26
370.28	1652.71
370.49	1767.40
370.70	1798.12
370.91	1609.70
371.12	1540.07
371.33	1722.34
371.54	1726.44
371.75	1824.74
371.96	1607.66
372.17	1808.36
372.38	1712.10
372.59	1771.49
372.80	1724.39
373.01	1730.53
373.22	1765.35
373.43	1693.67
373.64	1693.67
373.85	1796.07
374.06	1771.49
374.26	1748.97
374.47	1757.16
374.68	1781.73
374.89	1705.96
375.10	1693.67
375.31	1781.73
375.52	1720.29
375.73	1722.34
375.94	1624.04
376.15	1773.54
376.36	1624.04
376.57	1605.61
376.78	1710.05
376.99	1693.67
377.20	1771.49
377.40	1675.24
377.61	1820.64
377.82	1607.66
378.03	1798.12
378.24	1710.05
378.45	1712.10
378.66	1722.34
378.87	1615.85
379.08	1697.77
379.29	1742.82
379.50	1791.97
379.71	1691.62
379.91	1755.11
380.12	1642.47
380.33	1658.85
380.54	1716.20
380.75	1708.01
380.96	1744.87
381.17	1767.40
381.38	1681.38
381.59	1679.33
381.80	1775.59
382.00	1865.70
382.21	1724.39
382.42	1841.12
382.63	1869.80
382.84	1705.96
383.05	1849.32
383.26	1787.88
383.47	1730.53
383.68	1824.74
383.88	1759.21
384.09	1775.59
384.30	1787.88
384.51	1722.34
384.72	1673.19
384.93	1591.27
385.14	1689.57
385.35	1708.01
385.55	1626.09
385.76	1783.78
385.97	1701.86
386.18	1566.70
386.39	1660.90
386.60	1695.72
386.81	1681.38
387.02	1615.85
387.22	1697.77
387.43	1742.82
387.64	1767.40
387.85	1865.70
388.06	2226.14
388.27	4681.66
388.48	9310.07
388.68	11835.21
388.89	13563.70
389.10	14473.00
389.31	12099.40
389.52	9867.11
389.73	8793.98
389.93	7948.17
390.14	7278.48
390.35	6670.23
390.56	5990.31
390.77	5033.91
390.98	3940.29
391.18	3157.97
391.39	2426.84
391.60	2002.91
391.81	1841.12
392.02	1691.62
392.23	1904.61
392.43	1726.44
392.64	1892.32
392.85	1806.31
393.06	1857.51
393.27	1699.81
393.47	1667.05
393.68	1779.68
393.89	1636.33
394.10	1724.39
394.31	1718.25
394.52	1685.48
394.72	1699.81
394.93	1806.31
395.14	1581.03
395.35	1746.92
395.56	1691.62
395.76	1744.87
395.97	1859.56
396.18	1892.32
396.39	1886.18
396.60	2088.93
396.80	1961.95
397.01	1783.78
397.22	1896.42
397.43	1910.75
397.64	1712.10
397.84	1812.45
398.05	1861.60
398.26	1826.79
398.47	1837.03
398.67	1714.15
398.88	1757.16
399.09	1759.21
399.30	1701.86
399.51	1751.01
399.71	1673.19
399.92	1748.97
400.13	1722.34
400.34	1683.43
400.54	1714.15
400.75	1746.92
400.96	1771.49
401.17	1841.12
401.37	1767.40
401.58	1808.36
401.79	1691.62
402.00	1892.32
402.21	2140.13
402.41	2068.45
402.62	2090.98
402.83	2189.28
403.04	2031.58
403.24	2174.94
403.45	1970.15
403.66	1980.39
403.87	1994.72
404.07	1880.04
404.28	1943.52
404.49	2045.92
404.70	1781.73
404.90	1814.50
405.11	1746.92
405.32	1695.72
405.52	1705.96
405.73	1716.20
405.94	1644.52
406.15	1691.62
406.35	1726.44
406.56	1726.44
406.77	1759.21
406.98	1720.29
407.18	1724.39
407.39	1841.12
407.60	1671.14
407.80	1779.68
408.01	1697.77
408.22	1714.15
408.43	1570.79
408.63	1730.53
408.84	1744.87
409.05	1796.07
409.25	1656.81
409.46	1560.55
409.67	1712.10
409.88	1683.43
410.08	1746.92
410.29	1703.91
410.50	1783.78
410.70	1742.82
410.91	1726.44
411.12	1691.62
411.32	1712.10
411.53	1771.49
411.74	1865.70
411.95	1808.36
412.15	1763.30
412.36	1826.79
412.57	1718.25
412.77	1900.52
412.98	1730.53
413.19	1650.66
413.39	1806.31
413.60	1751.01
413.81	1849.32
414.01	1765.35
414.22	1757.16
414.43	1845.22
414.63	1767.40
414.84	1769.44
415.05	1732.58
415.25	1642.47
415.46	1798.12
415.67	1689.57
415.87	1730.53
416.08	1742.82
416.29	1681.38
416.49	1748.97
416.70	1714.15
416.91	1746.92
417.11	1748.97
417.32	1759.21
417.53	1787.88
417.73	1734.63
417.94	1734.63
418.15	1781.73
418.35	1628.14
418.56	1714.15
418.77	1853.41
418.97	1693.67
419.18	1665.00
419.38	1662.95
419.59	1779.68
419.80	1865.70
420.00	1636.33
420.21	1673.19
420.42	1759.21
420.62	1740.77
420.83	1708.01
421.04	1769.44
421.24	1712.10
421.45	1800.16
421.65	1783.78
421.86	1767.40
422.07	1787.88
422.27	1671.14
422.48	1767.40
422.69	1732.58
422.89	1695.72
423.10	1738.73
423.30	1730.53
423.51	1691.62
423.72	1685.48
423.92	1742.82
424.13	1607.66
424.33	1722.34
424.54	1771.49
424.75	1640.42
424.95	1779.68
425.16	1759.21
425.36	1605.61
425.57	1816.55
425.78	1802.21
425.98	1781.73
426.19	1693.67
426.39	1738.73
426.60	1726.44
426.81	1789.92
427.01	1800.16
427.22	1665.00
427.42	1660.90
427.63	1695.72
427.83	1781.73
428.04	1816.55
428.25	1800.16
428.45	1789.92
428.66	1703.91
428.86	1708.01
429.07	1734.63
429.28	1722.34
429.48	1697.77
429.69	1671.14
429.89	1746.92
430.10	1714.15
430.30	1718.25
430.51	1781.73
430.71	1710.05
430.92	1744.87
431.13	1683.43
431.33	1865.70
431.54	1802.21
431.74	1808.36
431.95	1826.79
432.15	1589.22
432.36	1714.15
432.56	1759.21
432.77	1834.98
432.98	1814.50
433.18	1712.10
433.39	1689.57
433.59	1697.77
433.80	1898.47
434.00	1863.65
434.21	1665.00
434.41	1722.34
434.62	1853.41
434.82	1675.24
435.03	1681.38
435.23	1798.12
435.44	1660.90
435.64	1708.01
435.85	1730.53
436.06	1814.50
436.26	1730.53
436.47	1738.73
436.67	1687.53
436.88	1736.68
437.08	1830.88
437.29	1832.93
437.49	1742.82
437.70	1673.19
437.90	1685.48
438.11	1785.83
438.31	1828.84
438.52	1837.03
438.72	1937.38
438.93	2013.15
439.13	1877.99
439.34	1851.36
439.54	1722.34
439.75	1812.45
439.95	1855.46
440.16	1716.20
440.36	1689.57
440.57	1738.73
440.77	1730.53
440.98	1728.49
441.18	1771.49
441.39	1720.29
441.59	1677.29
441.80	1771.49
442.00	1714.15
442.21	1800.16
442.41	1634.28
442.62	1775.59
442.82	1705.96
443.02	1775.59
443.23	1751.01
443.43	1779.68
443.64	1789.92
443.84	1708.01
444.05	1898.47
444.25	1722.34
444.46	1701.86
444.66	1734.63
444.87	1877.99
445.07	1675.24
445.28	1656.81
445.48	1816.55
445.69	1759.21
445.89	1892.32
446.09	1785.83
446.30	2015.20
446.50	2537.43
446.71	4097.99
446.91	5154.74
447.12	5732.26
447.32	6104.99
447.53	5457.84
447.73	4601.79
447.93	4118.47
448.14	3743.69
448.34	3592.14
448.55	3266.51
448.75	3135.44
448.96	2992.08
449.16	2621.40
449.36	2547.67
449.57	2199.52
449.77	1918.95
449.98	1779.68
450.18	1796.07
450.39	1755.11
450.59	1781.73
450.79	1710.05
451.00	1667.05
451.20	1804.26
451.41	1800.16
451.61	1798.12
451.81	1675.24
452.02	1710.05
452.22	1691.62
452.43	1716.20
452.63	1673.19
452.84	1701.86
453.04	1724.39
453.24	1773.54
453.45	1677.29
453.65	1722.34
453.86	1683.43
454.06	1816.55
454.26	1710.05
454.47	1728.49
454.67	1808.36
454.87	1773.54
455.08	1716.20
455.28	1849.32
455.49	1796.07
455.69	1746.92
455.89	1896.42
456.10	1830.88
456.30	1669.09
456.51	1742.82
456.71	1736.68
456.91	1845.22
457.12	1687.53
457.32	1763.30
457.52	1671.14
457.73	1818.60
457.93	1822.69
458.14	1697.77
458.34	1628.14
458.54	1695.72
458.75	1761.25
458.95	1767.40
459.15	1816.55
459.36	1769.44
459.56	1748.97
459.76	1853.41
459.97	1665.00
460.17	1691.62
460.37	1855.46
460.58	1769.44
460.78	1806.31
460.99	1673.19
461.19	1683.43
461.39	1689.57
461.60	1714.15
461.80	1740.77
462.00	1716.20
462.21	1757.16
462.41	1718.25
462.61	1703.91
462.82	1656.81
463.02	1761.25
463.22	1748.97
463.43	1812.45
463.63	1771.49
463.83	1820.64
464.04	1787.88
464.24	1765.35
464.44	1689.57
464.64	1789.92
464.85	1830.88
465.05	1802.21
465.25	1769.44
465.46	1730.53
465.66	1806.31
465.86	1779.68
466.07	1746.92
466.27	1662.95
466.47	1665.00
466.68	1640.42
466.88	1767.40
467.08	1767.40
467.29	1812.45
467.49	1779.68
467.69	1757.16
467.89	1785.83
468.10	1841.12
468.30	1671.14
468.50	1804.26
468.71	1777.64
468.91	1673.19
469.11	1804.26
469.31	1714.15
469.52	1662.95
469.72	1834.98
469.92	1841.12
470.13	1724.39
470.33	1701.86
470.53	1814.50
470.73	2273.25
470.94	2492.38
471.14	2760.66
471.34	2994.13
471.54	2998.23
471.75	2623.45
471.95	2334.68
472.15	2230.24
472.36	2234.33
472.56	2197.47
472.76	2156.51
472.96	2156.51
473.17	2113.50
473.37	2029.54
473.57	1875.94
473.77	1826.79
473.98	1775.59
474.18	1738.73
474.38	1783.78
474.58	1687.53
474.79	1712.10
474.99	1783.78
475.19	1806.31
475.39	1624.04
475.60	1724.39
475.80	1732.58
476.00	1710.05
476.20	1710.05
476.41	1718.25
476.61	1818.60
476.81	1802.21
477.01	1705.96
477.21	1830.88
477.42	1845.22
477.62	1626.09
477.82	1722.34
478.02	1681.38
478.23	1761.25
478.43	1644.52
478.63	1759.21
478.83	1730.53
479.03	1697.77
479.24	1779.68
479.44	1867.75
479.64	1679.33
479.84	1593.32
480.04	1671.14
480.25	1779.68
480.45	1708.01
480.65	1638.38
480.85	1787.88
481.06	1712.10
481.26	1740.77
481.46	1708.01
481.66	1734.63
481.86	1734.63
482.06	1826.79
482.27	1691.62
482.47	1761.25
482.67	1722.34
482.87	1748.97
483.07	1738.73
483.28	1687.53
483.48	1621.99
483.68	1712.10
483.88	1660.90
484.08	1632.23
484.29	1619.94
484.49	1640.42
484.69	1675.24
484.89	1843.17
485.09	1744.87
485.29	1691.62
485.50	1718.25
485.70	1751.01
485.90	1837.03
486.10	1730.53
486.30	1751.01
486.50	1818.60
486.71	1765.35
486.91	1773.54
487.11	1755.11
487.31	1705.96
487.51	1771.49
487.71	1665.00
487.91	1714.15
488.12	1701.86
488.32	1554.41
488.52	1728.49
488.72	1638.38
488.92	1746.92
489.12	1804.26
489.32	1761.25
489.53	1755.11
489.73	1701.86
489.93	1808.36
490.13	1701.86
490.33	1691.62
490.53	1720.29
490.73	1810.40
490.94	1658.85
491.14	1769.44
491.34	1798.12
491.54	2086.88
491.74	2713.56
491.94	3325.90
492.14	3463.12
492.34	3594.19
492.54	3151.82
492.75	2705.37
492.95	2666.46
493.15	2471.90
493.35	2365.40
493.55	2332.64
493.75	2213.85
493.95	2174.94
494.15	2119.65
494.35	2027.49
494.56	1849.32
494.76	1806.31
494.96	1775.59
495.16	1773.54
495.36	1753.06
495.56	1675.24
495.76	1738.73
495.96	1751.01
496.16	1611.75
496.36	1798.12
496.56	1742.82
496.77	1748.97
496.97	1757.16
497.17	1751.01
497.37	1654.76
497.57	1789.92
497.77	1736.68
497.97	1665.00
498.17	1644.52
498.37	1691.62
498.57	1763.30
498.77	1757.16
498.97	1775.59
499.17	1820.64
499.38	1787.88
499.58	1789.92
499.78	1812.45
499.98	1796.07
500.18	1849.32
500.38	1679.33
500.58	1857.51
500.78	2449.37
500.98	4661.18
501.18	6584.22
501.38	8251.27
501.58	9217.91
501.78	9088.89
501.98	6860.70
502.18	5894.05
502.38	5097.39
502.58	4614.07
502.78	4130.75
502.98	4087.75
503.18	3925.96
503.38	3532.75
503.59	3225.55
503.79	2901.97
503.99	2629.59
504.19	2369.50
504.39	2328.54
504.59	2383.84
504.79	2283.49
504.99	2232.29
505.19	2086.88
505.39	1992.67
505.59	2025.44
505.79	1984.48
505.99	1900.52
506.19	1789.92
506.39	1976.29
506.59	1816.55
506.79	1757.16
506.99	1910.75
507.19	1796.07
507.39	1761.25
507.59	1697.77
507.79	1710.05
507.99	1677.29
508.19	1736.68
508.39	1710.05
508.59	1783.78
508.79	1804.26
508.99	1859.56
509.19	1679.33
509.39	1791.97
509.59	1685.48
509.79	1652.71
509.99	1779.68
510.19	1730.53
510.39	1828.84
510.59	1775.59
510.79	1722.34
510.99	1677.29
511.19	1830.88
511.39	1873.89
511.59	1662.95
511.79	1877.99
511.99	1703.91
512.19	1812.45
512.38	1746.92
512.58	1712.10
512.78	1783.78
512.98	1814.50
513.18	1826.79
513.38	1667.05
513.58	1746.92
513.78	1724.39
513.98	1765.35
514.18	1697.77
514.38	1740.77
514.58	1697.77
514.78	1708.01
514.98	1669.09
515.18	1767.40
515.38	1699.81
515.58	1855.46
515.78	1724.39
515.98	1658.85
516.18	1763.30
516.38	1751.01
516.57	1787.88
516.77	1695.72
516.97	1798.12
517.17	1708.01
517.37	1683.43
517.57	1691.62
517.77	1677.29
517.97	1683.43
518.17	1746.92
518.37	1671.14
518.57	1761.25
518.77	1669.09
518.97	1769.44
519.16	1748.97
519.36	1775.59
519.56	1712.10
519.76	1712.10
519.96	1693.67
520.16	1837.03
520.36	1638.38
520.56	1804.26
520.76	1720.29
520.96	1712.10
521.16	1822.69
521.35	1742.82
521.55	1814.50
521.75	1765.35
521.95	1660.90
522.15	1677.29
522.35	1640.42
522.55	1675.24
522.75	1755.11
522.95	1710.05
523.14	1691.62
523.34	1673.19
523.54	1689.57
523.74	1779.68
523.94	1744.87
524.14	1687.53
524.34	1783.78
524.54	1785.83
524.73	1673.19
524.93	1824.74
525.13	1769.44
525.33	1695.72
525.53	1841.12
525.73	1712.10
525.93	1771.49
526.13	1691.62
526.32	1718.25
526.52	1822.69
526.72	1722.34
526.92	1683.43
527.12	1665.00
527.32	1665.00
527.52	1769.44
527.71	1742.82
527.91	1660.90
528.11	1722.34
528.31	1765.35
528.51	1624.04
528.71	1771.49
528.90	1730.53
529.10	1826.79
529.30	1822.69
529.50	1619.94
529.70	1708.01
529.90	1748.97
530.09	1755.11
530.29	1693.67
530.49	1665.00
530.69	1851.36
530.89	1726.44
531.09	1806.31
531.28	1671.14
531.48	1779.68
531.68	1726.44
531.88	1710.05
532.08	1763.30
532.28	1738.73
532.47	1765.35
532.67	1748.97
532.87	1812.45
533.07	1740.77
533.27	1693.67
533.46	1771.49
533.66	1732.58
533.86	1785.83
534.06	1796.07
534.26	1763.30
534.45	1714.15
534.65	1816.55
534.85	1791.97
535.05	1714.15
535.25	1662.95
535.44	1640.42
535.64	1812.45
535.84	1615.85
536.04	1767.40
536.24	1777.64
536.43	1687.53
536.63	1742.82
536.83	1742.82
537.03	1675.24
537.22	1677.29
537.42	1656.81
537.62	1751.01
537.82	1662.95
538.02	1814.50
538.21	1763.30
538.41	1867.75
538.61	1791.97
538.81	1740.77
539.00	1812.45
539.20	1685.48
539.40	1671.14
539.60	1671.14
539.79	1804.26
539.99	1675.24
540.19	1650.66
540.39	1736.68
540.58	1748.97
540.78	1796.07
540.98	1806.31
541.18	1779.68
541.37	1755.11
541.57	1744.87
541.77	1697.77
541.97	1665.00
542.16	1748.97
542.36	1755.11
542.56	1841.12
542.76	1861.60
542.95	1744.87
543.15	1779.68
543.35	1783.78
543.54	1638.38
543.74	1732.58
543.94	1775.59
544.14	1722.34
544.33	1773.54
544.53	1705.96
544.73	1718.25
544.93	1667.05
545.12	1800.16
545.32	1787.88
545.52	1718.25
545.71	1695.72
545.91	1701.86
546.11	1744.87
546.30	1742.82
546.50	1798.12
546.70	1824.74
546.90	1740.77
547.09	1603.56
547.29	1677.29
547.49	1818.60
547.68	1763.30
547.88	1603.56
548.08	1796.07
548.27	2226.14
548.47	1673.19
548.67	1660.90
548.87	1755.11
549.06	1703.91
549.26	1781.73
549.46	1798.12
549.65	1705.96
549.85	1746.92
550.05	1726.44
550.24	1708.01
550.44	1744.87
550.64	1695.72
550.83	1701.86
551.03	1830.88
551.23	1759.21
551.42	1884.13
551.62	1716.20
551.82	1748.97
552.01	1695.72
552.21	1767.40
552.41	1777.64
552.60	1785.83
552.80	1744.87
553.00	1683.43
553.19	1773.54
553.39	1871.84
553.59	1738.73
553.78	1779.68
553.98	1804.26
554.17	1605.61
554.37	1679.33
554.57	1853.41
554.76	1611.75
554.96	1673.19
555.16	1767.40
555.35	1767.40
555.55	1701.86
555.75	1794.02
555.94	1683.43
556.14	1617.90
556.33	1730.53
556.53	1685.48
556.73	1695.72
556.92	1802.21
557.12	1761.25
557.32	1849.32
557.51	1783.78
557.71	1738.73
557.90	1882.08
558.10	1728.49
558.30	1724.39
558.49	1771.49
558.69	1763.30
558.88	1814.50
559.08	1734.63
559.28	1742.82
559.47	1779.68
559.67	1695.72
559.86	1818.60
560.06	1648.61
560.26	1730.53
560.45	1732.58
560.65	1673.19
560.84	1834.98
561.04	1716.20
561.24	1806.31
561.43	1718.25
561.63	1783.78
561.82	1710.05
562.02	1796.07
562.22	1705.96
562.41	1621.99
562.61	1673.19
562.80	1689.57
563.00	1826.79
563.19	1703.91
563.39	1820.64
563.59	1720.29
563.78	1677.29
563.98	1656.81
564.17	1619.94
564.37	1642.47
564.56	1716.20
564.76	1636.33
564.96	1884.13
565.15	1769.44
565.35	1886.18
565.54	1648.61
565.74	1759.21
565.93	1734.63
566.13	1718.25
566.32	1738.73
566.52	1896.42
566.71	1669.09
566.91	1812.45
567.11	1808.36
567.30	1660.90
567.50	1722.34
567.69	1648.61
567.89	1679.33
568.08	1656.81
568.28	1761.25
568.47	1726.44
568.67	1757.16
568.86	1687.53
569.06	1775.59
569.25	1820.64
569.45	1628.14
569.64	1671.14
569.84	1761.25
570.04	1755.11
570.23	1697.77
570.43	1712.10
570.62	1730.53
570.82	1736.68
571.01	1648.61
571.21	1695.72
571.40	1660.90
571.60	1771.49
571.79	1738.73
571.99	1818.60
572.18	1767.40
572.38	1726.44
572.57	1748.97
572.77	1744.87
572.96	1945.57
573.16	1810.40
573.35	1824.74
573.55	1781.73
573.74	1785.83
573.94	1761.25
574.13	1681.38
574.33	1808.36
574.52	1798.12
574.71	1712.10
574.91	1796.07
575.10	1710.05
575.30	1720.29
575.49	1789.92
575.69	1783.78
575.88	1789.92
576.08	1712.10
576.27	1929.19
576.47	1771.49
576.66	1882.08
576.86	1834.98
577.05	1818.60
577.25	1871.84
577.44	1910.75
577.64	1767.40
577.83	1742.82
578.02	1728.49
578.22	1865.70
578.41	1865.70
578.61	1740.77
578.80	1771.49
579.00	1802.21
579.19	1783.78
579.39	1773.54
579.58	1808.36
579.77	1753.06
579.97	1880.04
580.16	1816.55
580.36	1875.94
580.55	1824.74
580.75	1808.36
580.94	1828.84
581.13	1939.43
581.33	1832.93
581.52	1818.60
581.72	1935.33
581.91	1828.84
582.11	1832.93
582.30	1800.16
582.49	1773.54
582.69	1820.64
582.88	1841.12
583.08	1800.16
583.27	1865.70
583.47	1748.97
583.66	1755.11
583.85	1781.73
584.05	1828.84
584.24	1800.16
584.44	1740.77
584.63	1800.16
584.82	1882.08
585.02	1861.60
585.21	1953.76
585.41	1984.48
585.60	1845.22
585.79	1976.29
585.99	1998.82
586.18	2097.12
586.37	2199.52
586.57	3448.78
586.76	10012.52
586.96	27653.72
587.15	42202.49
587.34	52141.28
587.54	58436.74
587.73	56417.44
587.93	40484.25
588.12	30090.80
588.31	24209.04
588.51	20502.22
588.70	18507.49
588.89	17233.66
589.09	15601.43
589.28	13643.57
589.47	11540.30
589.67	9609.07
589.86	7403.41
590.06	5586.86
590.25	4165.57
590.44	3200.98
590.64	2607.06
590.83	2265.05
591.02	2115.55
591.22	1906.66
591.41	1882.08
591.60	1781.73
591.80	1875.94
591.99	1818.60
592.18	1806.31
592.38	1775.59
592.57	1718.25
592.76	1730.53
592.96	1783.78
593.15	1734.63
593.34	1814.50
593.54	1773.54
593.73	1812.45
593.92	1779.68
594.12	1796.07
594.31	1789.92
594.50	1837.03
594.70	1869.80
594.89	1912.80
595.08	1767.40
595.28	1871.84
595.47	1900.52
595.66	1783.78
595.86	1708.01
596.05	1736.68
596.24	1681.38
596.43	1841.12
596.63	1763.30
596.82	1834.98
597.01	1740.77
597.21	1906.66
597.40	1837.03
597.59	1681.38
597.79	1837.03
597.98	1738.73
598.17	1796.07
598.36	1722.34
598.56	1806.31
598.75	1732.58
598.94	1847.27
599.14	1779.68
599.33	1648.61
599.52	1746.92
599.71	1814.50
599.91	1757.16
600.10	1753.06
600.29	1802.21
600.48	1812.45
600.68	1759.21
600.87	1759.21
601.06	1677.29
601.26	1796.07
601.45	1798.12
601.64	1720.29
601.83	1853.41
602.03	1730.53
602.22	1673.19
602.41	1761.25
602.60	1898.47
602.80	1845.22
602.99	1767.40
603.18	1718.25
603.37	1853.41
603.57	1761.25
603.76	1748.97
603.95	1851.36
604.14	1722.34
604.34	1755.11
604.53	1742.82
604.72	1771.49
604.91	1802.21
605.10	1796.07
605.30	1734.63
605.49	1849.32
605.68	1796.07
605.87	1820.64
606.07	1705.96
606.26	1746.92
606.45	1748.97
606.64	1755.11
606.84	1660.90
607.03	1794.02
607.22	1779.68
607.41	1742.82
607.60	1759.21
607.80	1824.74
607.99	1734.63
608.18	1818.60
608.37	1818.60
608.56	1710.05
608.76	1783.78
608.95	1865.70
609.14	1865.70
609.33	1947.62
609.52	1839.08
609.72	1857.51
609.91	1753.06
610.10	1794.02
610.29	1871.84
610.48	1857.51
610.68	1791.97
610.87	1763.30
611.06	1755.11
611.25	1775.59
611.44	1789.92
611.63	1689.57
611.83	1814.50
612.02	1648.61
612.21	1843.17
612.40	1691.62
612.59	1591.27
612.79	1626.09
612.98	1679.33
613.17	1863.65
613.36	1703.91
613.55	1849.32
613.74	1892.32
613.93	1822.69
614.13	1943.52
614.32	1937.38
614.51	1951.71
614.70	1882.08
614.89	1828.84
615.08	1890.28
615.28	2140.13
615.47	1734.63
615.66	1796.07
615.85	1847.27
616.04	1820.64
616.23	1820.64
616.42	1818.60
616.62	1818.60
616.81	1927.14
617.00	1757.16
617.19	1773.54
617.38	1753.06
617.57	1697.77
617.76	1834.98
617.95	1800.16
618.15	1845.22
618.34	1902.56
618.53	1722.34
618.72	1771.49
618.91	1834.98
619.10	1826.79
619.29	1697.77
619.48	1763.30
619.68	1693.67
619.87	1759.21
620.06	1650.66
620.25	1771.49
620.44	1677.29
620.63	1763.30
620.82	1736.68
621.01	1697.77
621.20	1724.39
621.39	1785.83
621.59	1837.03
621.78	1806.31
621.97	1738.73
622.16	1781.73
622.35	1859.56
622.54	1781.73
622.73	1832.93
622.92	1665.00
623.11	1794.02
623.30	1773.54
623.49	1775.59
623.68	1691.62
623.88	1769.44
624.07	1763.30
624.26	1695.72
624.45	1724.39
624.64	1693.67
624.83	1779.68
625.02	1626.09
625.21	1751.01
625.40	1740.77
625.59	1765.35
625.78	1632.23
625.97	1798.12
626.16	1845.22
626.35	1828.84
626.54	1777.64
626.74	1830.88
626.93	1730.53
627.12	1722.34
627.31	1837.03
627.50	1806.31
627.69	1781.73
627.88	1726.44
628.07	1697.77
628.26	1718.25
628.45	1732.58
628.64	1693.67
628.83	1701.86
629.02	1714.15
629.21	1779.68
629.40	1751.01
629.59	1689.57
629.78	1724.39
629.97	1746.92
630.16	1841.12
630.35	1687.53
630.54	1640.42
630.73	1681.38
630.92	1763.30
631.11	1791.97
631.30	1810.40
631.49	1789.92
631.68	1732.58
631.87	1730.53
632.06	1634.28
632.25	1816.55
632.44	1787.88
632.63	1787.88
632.82	1744.87
633.01	1744.87
633.20	1845.22
633.39	1798.12
633.58	1740.77
633.77	1759.21
633.96	1791.97
634.15	1796.07
634.34	1802.21
634.53	1785.83
634.72	1650.66
634.91	1673.19
635.10	1736.68
635.29	1789.92
635.48	1710.05
635.67	1720.29
635.86	1662.95
636.05	1814.50
636.24	1837.03
636.43	1775.59
636.62	1718.25
636.81	1662.95
637.00	1701.86
637.19	1679.33
637.38	1757.16
637.57	1697.77
637.76	1761.25
637.95	1875.94
638.14	1789.92
638.33	1867.75
638.52	1794.02
638.71	1781.73
638.89	1746.92
639.08	1927.14
639.27	1875.94
639.46	1894.37
639.65	2207.71
639.84	2238.43
640.03	2428.89
640.22	2394.08
640.41	2426.84
640.60	2066.40
640.79	1992.67
640.98	1953.76
641.17	1953.76
641.36	1949.67
641.55	1906.66
641.74	1843.17
641.92	1802.21
642.11	1720.29
642.30	1832.93
642.49	1714.15
642.68	1753.06
642.87	1837.03
643.06	1779.68
643.25	1685.48
643.44	1677.29
643.63	1724.39
643.82	1800.16
644.00	1718.25
644.19	1767.40
644.38	1652.71
644.57	1718.25
644.76	1773.54
644.95	1652.71
645.14	1697.77
645.33	1724.39
645.52	1646.57
645.71	1585.13
645.89	1650.66
646.08	1759.21
646.27	1712.10
646.46	1818.60
646.65	1613.80
646.84	1632.23
647.03	1669.09
647.22	1746.92
647.40	1748.97
647.59	1710.05
647.78	1660.90
647.97	1632.23
648.16	1726.44
648.35	1812.45
648.54	1826.79
648.73	1718.25
648.91	1837.03
649.10	1730.53
649.29	1742.82
649.48	1669.09
649.67	1748.97
649.86	1695.72
650.05	1791.97
650.23	1863.65
650.42	1841.12
650.61	1972.19
650.80	1972.19
650.99	1945.57
651.18	1818.60
651.36	1818.60
651.55	1806.31
651.74	1779.68
651.93	1695.72
652.12	1722.34
652.31	1775.59
652.49	1742.82
652.68	1808.36
652.87	1834.98
653.06	1800.16
653.25	1845.22
653.44	1789.92
653.62	1802.21
653.81	1742.82
654.00	1738.73
654.19	1832.93
654.38	1871.84
654.56	1728.49
654.75	1736.68
654.94	1822.69
655.13	1718.25
655.32	1701.86
655.51	1773.54
655.69	1742.82
655.88	1751.01
656.07	1656.81
656.26	1730.53
656.45	1628.14
656.63	1716.20
656.82	1724.39
657.01	1751.01
657.20	1716.20
657.38	1816.55
657.57	1685.48
657.76	1634.28
657.95	1820.64
658.14	1722.34
658.32	1703.91
658.51	1619.94
658.70	1710.05
658.89	1757.16
659.08	1662.95
659.26	1822.69
659.45	1611.75
659.64	1830.88
659.83	1773.54
660.01	1923.04
660.20	1796.07
660.39	1834.98
660.58	1691.62
660.76	1828.84
660.95	1703.91
661.14	1755.11
661.33	1628.14
661.51	1744.87
661.70	1726.44
661.89	1779.68
662.08	1724.39
662.26	1646.57
662.45	1617.90
662.64	1800.16
662.83	1812.45
663.01	1644.52
663.20	1671.14
663.39	1867.75
663.58	1751.01
663.76	1763.30
663.95	1732.58
664.14	1734.63
664.32	1677.29
664.51	1726.44
664.70	1701.86
664.89	1742.82
665.07	1683.43
665.26	1791.97
665.45	1705.96
665.64	1812.45
665.82	1789.92
666.01	1763.30
666.20	1611.75
666.38	1810.40
666.57	1832.93
666.76	2234.33
666.95	4579.26
667.13	11620.17
667.32	18761.44
667.51	22681.25
667.69	25620.09
667.88	25849.46
668.07	19859.15
668.25	14737.18
668.44	11910.99
668.63	9961.32
668.81	8705.92
669.00	7661.45
669.19	7137.17
669.38	6113.19
669.56	5498.80
669.75	4638.65
669.94	3794.89
670.12	3182.54
670.31	2725.85
670.50	2394.08
670.68	2205.66
670.87	2052.06
671.06	1843.17
671.24	1888.23
671.43	1849.32
671.62	1847.27
671.80	1738.73
671.99	1771.49
672.18	1814.50
672.36	1771.49
672.55	1816.55
672.74	1773.54
672.92	1761.25
673.11	1759.21
673.29	1744.87
673.48	1748.97
673.67	1675.24
673.85	1781.73
674.04	1728.49
674.23	1673.19
674.41	1839.08
674.60	1683.43
674.79	1648.61
674.97	1697.77
675.16	1763.30
675.34	1781.73
675.53	1720.29
675.72	1767.40
675.90	1871.84
676.09	1710.05
676.28	1734.63
676.46	1695.72
676.65	1648.61
676.83	1642.47
677.02	1677.29
677.21	1693.67
677.39	1757.16
677.58	1673.19
677.77	1654.76
677.95	1763.30
678.14	1746.92
678.32	1697.77
678.51	1734.63
678.70	1730.53
678.88	1665.00
679.07	1824.74
679.25	1691.62
679.44	1665.00
679.63	1624.04
679.81	1730.53
680.00	1845.22
680.18	1742.82
680.37	1771.49
680.55	1677.29
680.74	1656.81
680.93	1615.85
681.11	1798.12
681.30	1714.15
681.48	1720.29
681.67	1681.38
681.85	1673.19
682.04	1667.05
682.23	1808.36
682.41	1726.44
682.60	1796.07
682.78	1624.04
682.97	1662.95
683.15	1779.68
683.34	1703.91
683.53	1763.30
683.71	1636.33
683.90	1869.80
684.08	1808.36
684.27	1726.44
684.45	1705.96
684.64	1714.15
684.82	1755.11
685.01	1722.34
685.19	1771.49
685.38	1744.87
685.57	1724.39
685.75	1656.81
685.94	1722.34
686.12	1701.86
686.31	1757.16
686.49	1757.16
686.68	1574.89
686.86	1722.34
687.05	1710.05
687.23	1771.49
687.42	1677.29
687.60	1607.66
687.79	1771.49
687.97	1728.49
688.16	1746.92
688.34	1769.44
688.53	1576.94
688.71	1740.77
688.90	1775.59
689.08	1703.91
689.27	1581.03
689.45	1738.73
689.64	1787.88
689.82	1716.20
690.01	1744.87
690.19	1738.73
690.38	1697.77
690.56	1757.16
690.75	1617.90
690.93	1683.43
691.12	1689.57
691.30	1677.29
691.49	1626.09
691.67	1701.86
691.86	1759.21
692.04	1714.15
692.23	1687.53
692.41	1691.62
692.60	1865.70
692.78	1816.55
692.97	1808.36
693.15	1920.99
693.34	1812.45
693.52	1845.22
693.71	1691.62
693.89	1765.35
694.08	1648.61
694.26	1826.79
694.44	1826.79
694.63	1824.74
694.81	1722.34
695.00	1730.53
695.18	1808.36
695.37	1935.33
695.55	1734.63
695.74	1716.20
695.92	1718.25
696.10	1773.54
696.29	1619.94
696.47	1624.04
696.66	1662.95
696.84	1765.35
697.03	1710.05
697.21	1857.51
697.40	2238.43
697.58	1732.58
697.76	1636.33
697.95	1665.00
698.13	1595.37
698.32	1591.27
698.50	1759.21
698.68	1716.20
698.87	1740.77
699.05	1710.05
699.24	1787.88
699.42	1710.05
699.61	1730.53
699.79	1720.29
699.97	1746.92
700.16	1656.81
700.34	1681.38
700.53	1720.29
700.71	1820.64
700.89	1820.64
701.08	1779.68
701.26	1677.29
701.45	2088.93
701.63	1665.00
701.81	1783.78
702.00	1740.77
702.18	1742.82
702.37	1714.15
702.55	1789.92
702.73	1943.52
702.92	1841.12
703.10	2017.25
703.28	1957.86
703.47	1877.99
703.65	1828.84
703.84	1849.32
704.02	1816.55
704.20	1877.99
704.39	1822.69
704.57	1710.05
704.75	1884.13
704.94	1787.88
705.12	1720.29
705.30	1814.50
705.49	2549.72
705.67	5650.35
705.86	13684.53
706.04	19723.99
706.22	23316.12
706.41	25554.55
706.59	25204.35
706.77	19476.18
706.96	14075.69
707.14	12253.00
707.32	10346.34
707.51	8988.53
707.69	7989.13
707.87	6965.14
708.06	5621.67
708.24	4433.85
708.42	3280.85
708.61	2881.49
708.79	2222.05
708.97	2097.12
709.16	1873.89
709.34	1812.45
709.52	1738.73
709.71	1853.41
709.89	1877.99
710.07	1693.67
710.26	1757.16
710.44	1751.01
710.62	1804.26
710.80	1773.54
710.99	1857.51
711.17	1869.80
711.35	1787.88
711.54	1724.39
711.72	1761.25
711.90	1875.94
712.09	1738.73
712.27	1636.33
712.45	1785.83
712.63	1708.01
712.82	1753.06
713.00	1718.25
713.18	1775.59
713.37	1759.21
713.55	1832.93
713.73	1771.49
713.91	1730.53
714.10	1646.57
714.28	1695.72
714.46	1759.21
714.65	1748.97
714.83	1769.44
715.01	1705.96
715.19	1701.86
715.38	1771.49
715.56	1679.33
715.74	1671.14
715.92	1703.91
716.11	1845.22
716.29	1595.37
716.47	1730.53
716.65	1716.20
716.84	1609.70
717.02	1828.84
717.20	1669.09
717.38	1673.19
717.57	1662.95
717.75	1718.25
717.93	1667.05
718.11	1677.29
718.30	1710.05
718.48	1665.00
718.66	1742.82
718.84	1769.44
719.03	1673.19
719.21	1628.14
719.39	1843.17
719.57	1718.25
719.75	1820.64
719.94	1679.33
720.12	1683.43
720.30	1689.57
720.48	1759.21
720.67	1687.53
720.85	1638.38
721.03	1636.33
721.21	1593.32
721.39	1832.93
721.58	1775.59
721.76	1724.39
721.94	1773.54
722.12	1755.11
722.30	1748.97
722.49	1691.62
722.67	1703.91
722.85	1685.48
723.03	1718.25
723.21	1701.86
723.40	1777.64
723.58	1771.49
723.76	1810.40
723.94	1742.82
724.12	1736.68
724.30	1853.41
724.49	1837.03
724.67	1724.39
724.85	1828.84
725.03	1712.10
725.21	1781.73
725.40	1871.84
725.58	1712.10
725.76	1810.40
725.94	1730.53
726.12	1683.43
726.30	1714.15
726.49	1714.15
726.67	1730.53
726.85	1673.19
727.03	1824.74
727.21	2308.06
727.39	3422.16
727.57	5068.72
727.76	5676.97
727.94	6416.29
728.12	6453.15
728.30	5785.51
728.48	4579.26
728.66	4022.21
728.84	3592.14
729.03	3344.33
729.21	2818.00
729.39	2496.47
729.57	2056.16
729.75	1957.86
729.93	1972.19
730.11	1712.10
730.30	1746.92
730.48	1714.15
730.66	1789.92
730.84	1748.97
731.02	1734.63
731.20	1794.02
731.38	1683.43
731.56	1675.24
731.74	1703.91
731.93	1697.77
732.11	1718.25
732.29	1722.34
732.47	1720.29
732.65	1701.86
732.83	1798.12
733.01	1701.86
733.19	1628.14
733.37	1671.14
733.56	1732.58
733.74	1630.18
733.92	1771.49
734.10	1681.38
734.28	1710.05
734.46	1681.38
734.64	1720.29
734.82	1697.77
735.00	1677.29
735.18	1705.96
735.36	1726.44
735.54	1693.67
735.73	1775.59
735.91	1724.39
736.09	1796.07
736.27	1693.67
736.45	1775.59
736.63	1585.13
736.81	1710.05
736.99	1824.74
737.17	1773.54
737.35	1669.09
737.53	1769.44
737.71	1675.24
737.89	1755.11
738.07	1644.52
738.25	1683.43
738.43	1630.18
738.61	1636.33
738.80	1630.18
738.98	1673.19
739.16	1679.33
739.34	1693.67
739.52	1834.98
739.70	1660.90
739.88	1722.34
740.06	1675.24
740.24	1650.66
740.42	1759.21
740.60	1644.52
740.78	1624.04
740.96	1632.23
741.14	1740.77
741.32	1746.92
741.50	1585.13
741.68	1837.03
741.86	1705.96
742.04	1652.71
742.22	1648.61
742.40	1708.01
742.58	1732.58
742.76	1660.90
742.94	1771.49
743.12	1621.99
743.30	1759.21
743.48	1708.01
743.66	1699.81
743.84	1806.31
744.02	1671.14
744.20	1654.76
744.38	1732.58
744.56	1658.85
744.74	1822.69
744.92	1726.44
745.10	1763.30
745.28	1759.21
745.46	1863.65
745.64	1603.56
745.82	1767.40
746.00	1714.15
746.18	1759.21
746.36	1642.47
746.54	1744.87
746.72	1791.97
746.90	1650.66
747.08	1759.21
747.26	1693.67
747.44	1726.44
747.62	1771.49
747.80	1701.86
747.98	1791.97
748.15	1632.23
748.33	1810.40
748.51	1736.68
748.69	1763.30
748.87	1687.53
749.05	1728.49
749.23	1728.49
749.41	1699.81
749.59	1726.44
749.77	1783.78
749.95	1798.12
750.13	1662.95
750.31	1730.53
750.49	1652.71
750.67	1746.92
750.85	1818.60
751.03	1708.01
751.20	1800.16
751.38	1730.53
751.56	1677.29
751.74	1710.05
751.92	1689.57
752.10	1699.81
752.28	1839.08
752.46	1738.73
752.64	1708.01
752.82	1667.05
753.00	1773.54
753.18	1683.43
753.35	1675.24
753.53	1718.25
753.71	1734.63
753.89	1652.71
754.07	1730.53
754.25	1761.25
754.43	1718.25
754.61	1587.18
754.79	1689.57
754.97	1638.38
755.14	1824.74
755.32	1630.18
755.50	1689.57
755.68	1646.57
755.86	1619.94
756.04	1675.24
756.22	1562.60
756.40	1798.12
756.57	1773.54
756.75	1681.38
756.93	1783.78
757.11	1728.49
757.29	1705.96
757.47	1613.80
757.65	1654.76
757.82	1640.42
758.00	1615.85
758.18	1714.15
758.36	1675.24
758.54	1828.84
758.72	1671.14
758.90	1685.48
759.07	1675.24
759.25	1603.56
759.43	1726.44
759.61	1689.57
759.79	2156.51
759.97	1814.50
760.15	1695.72
760.32	1730.53
760.50	1759.21
760.68	1796.07
760.86	1634.28
761.04	1802.21
761.22	1703.91
761.39	1734.63
761.57	1728.49
761.75	1748.97
761.93	1695.72
762.11	1769.44
762.28	1748.97
762.46	1736.68
762.64	1783.78
762.82	1626.09
763.00	1685.48
763.18	1845.22
763.35	1652.71
763.53	1798.12
763.71	1681.38
763.89	1730.53
764.07	1705.96
764.24	1763.30
764.42	1763.30
764.60	1705.96
764.78	1667.05
764.96	1746.92
765.13	1757.16
765.31	1714.15
765.49	1736.68
765.67	1669.09
765.84	1746.92
766.02	1648.61
766.20	1562.60
766.38	1691.62
766.56	1742.82
766.73	1742.82
766.91	1738.73
767.09	1726.44
767.27	1796.07
767.44	1658.85
767.62	1714.15
767.80	1714.15
767.98	1693.67
768.15	1712.10
768.33	1800.16
768.51	1783.78
768.69	1669.09
768.87	1708.01
769.04	1683.43
769.22	1896.42
769.40	1773.54
769.58	1820.64
769.75	1712.10
769.93	1814.50
770.11	1685.48
770.28	1609.70
770.46	1820.64
770.64	1804.26
770.82	1644.52
770.99	1685.48
771.17	1742.82
771.35	1673.19
771.53	1701.86
771.70	1718.25
771.88	1658.85
772.06	1667.05
772.23	1689.57
772.41	1746.92
772.59	1683.43
772.77	1662.95
772.94	1748.97
773.12	1699.81
773.30	1675.24
773.47	1783.78
773.65	1617.90
773.83	1779.68
774.01	1681.38
774.18	1615.85
774.36	1693.67
774.54	1589.22
774.71	1697.77
774.89	1585.13
775.07	1636.33
775.24	1642.47
775.42	1683.43
775.60	1763.30
775.78	1636.33
775.95	1597.42
776.13	1660.90
776.31	1644.52
776.48	1746.92
776.66	1740.77
776.84	1683.43
777.01	1638.38
777.19	1587.18
777.37	1621.99
777.54	1753.06
777.72	1888.23
777.90	1751.01
778.07	1589.22
778.25	1980.39
778.43	1720.29
778.60	1705.96
778.78	1734.63
778.96	1777.64
779.13	1740.77
779.31	1728.49
779.49	1783.78
779.66	1708.01
779.84	1675.24
780.01	1683.43
780.19	1644.52
780.37	1824.74
780.54	1728.49
780.72	1685.48
780.90	1681.38
781.07	1667.05
781.25	1609.70
781.43	1773.54
781.60	1716.20
781.78	1787.88
781.95	1689.57
782.13	1660.90
782.31	1677.29
782.48	1679.33
782.66	1683.43
782.83	1798.12
783.01	1732.58
783.19	1738.73
783.36	1695.72
783.54	1605.61
783.72	1777.64
783.89	1681.38
784.07	1693.67
784.24	1755.11
784.42	1812.45
784.60	1660.90
784.77	1763.30
784.95	1650.66
785.12	1624.04
785.30	1671.14
785.47	1726.44
785.65	1615.85
785.83	1775.59
786.00	1634.28
786.18	1734.63
786.35	1576.94
786.53	1652.71
786.71	1783.78
786.88	1759.21
787.06	1730.53
787.23	1732.58
787.41	1638.38
787.58	1701.86
787.76	1683.43
787.94	1677.29
788.11	1673.19
788.29	1679.33
788.46	1626.09
788.64	1589.22
788.81	1595.37
788.99	1708.01
789.16	1687.53
789.34	1626.09
789.52	1685.48
789.69	1705.96
789.87	1611.75
790.04	1746.92
790.22	1705.96
790.39	1812.45
790.57	1736.68
790.74	1640.42
790.92	1812.45
791.09	1603.56
791.27	1771.49
791.44	1769.44
791.62	1677.29
791.79	1822.69
791.97	1652.71
792.15	1845.22
792.32	1738.73
792.50	1718.25
792.67	1869.80
792.85	1810.40
793.02	1665.00
793.20	1742.82
793.37	1619.94
793.55	1814.50
793.72	1648.61
793.90	1722.34
794.07	1759.21
794.25	1656.81
794.42	1724.39
794.60	1687.53
794.77	1699.81
794.95	1757.16
795.12	1791.97
795.30	1691.62
795.47	1626.09
795.65	1914.85
795.82	1724.39
796.00	1689.57
796.17	1603.56
796.34	1708.01
796.52	1716.20
796.69	1763.30
796.87	1767.40
797.04	1732.58
797.22	1689.57
797.39	1665.00
797.57	1748.97
797.74	1773.54
797.92	1656.81
798.09	1683.43
798.27	1757.16
798.44	1665.00
798.62	1671.14
798.79	1630.18
798.96	1714.15
799.14	1656.81
799.31	1902.56
799.49	1730.53
799.66	1675.24
799.84	1751.01
800.01	1683.43
800.19	1773.54
800.36	1597.42
800.53	1773.54
800.71	1767.40
800.88	1791.97
801.06	1683.43
801.23	1748.97
801.41	1728.49
801.58	1695.72
801.75	1630.18
801.93	1783.78
802.10	1726.44
802.28	1675.24
802.45	1669.09
802.63	1738.73
802.80	1789.92
802.97	1695.72
803.15	1751.01
803.32	1716.20
803.50	1730.53
803.67	1601.51
803.84	1562.60
804.02	1767.40
804.19	1609.70
804.37	1599.46
804.54	1720.29
804.71	1656.81
804.89	1695.72
805.06	1656.81
805.24	1673.19
805.41	1636.33
805.58	1730.53
805.76	1814.50
805.93	1708.01
806.10	1808.36
806.28	1693.67
806.45	1638.38
806.63	1712.10
806.80	1759.21
806.97	1665.00
807.15	1658.85
807.32	1736.68
807.49	1748.97
807.67	1638.38
807.84	1705.96
808.01	1660.90
808.19	1841.12
808.36	1826.79
808.54	1718.25
808.71	1730.53
808.88	1820.64
809.06	1722.34
809.23	1800.16
809.40	1644.52
809.58	1787.88
809.75	1673.19
809.92	1615.85
810.10	1923.04
810.27	1753.06
810.44	1746.92
810.62	1714.15
810.79	1703.91
810.96	1685.48
811.14	1718.25
811.31	1824.74
811.48	1783.78
811.66	1671.14
811.83	1759.21
812.00	1693.67
812.18	1691.62
812.35	1761.25
812.52	1595.37
812.69	1656.81
812.87	1675.24
813.04	1703.91
813.21	1671.14
813.39	1619.94
813.56	1630.18
813.73	1783.78
813.91	1617.90
814.08	1710.05
814.25	1640.42
814.42	1593.32
814.60	1746.92
814.77	1734.63
814.94	1640.42
815.12	1658.85
815.29	1755.11
815.46	1669.09
815.63	1759.21
815.81	1716.20
815.98	1689.57
816.15	1669.09
816.33	1703.91
816.50	1662.95
816.67	1691.62
816.84	1636.33
817.02	1757.16
817.19	1714.15
817.36	1738.73
817.53	1703.91
817.71	1634.28
817.88	1759.21
818.05	1697.77
818.22	1652.71
818.40	1882.08
818.57	1751.01
818.74	1683.43
818.91	1701.86
819.09	1736.68
819.26	1802.21
819.43	1611.75
819.60	1691.62
819.78	1708.01
819.95	1771.49
820.12	1669.09
820.29	1802.21
820.47	1742.82
820.64	1681.38
820.81	1652.71
820.98	1619.94
821.15	1619.94
821.33	1775.59
821.50	1535.98
821.67	1767.40
821.84	1640.42
822.02	1714.15
822.19	1775.59
822.36	1585.13
822.53	1746.92
822.70	1632.23
822.88	1685.48
823.05	1753.06
823.22	1673.19
823.39	1779.68
823.56	1656.81
823.74	1884.13
823.91	1675.24
824.08	1656.81
824.25	1703.91
824.42	1769.44
824.60	1644.52
824.77	1712.10
824.94	1716.20
825.11	1710.05
825.28	1576.94
825.45	1800.16
825.63	1787.88
825.80	1585.13
825.97	1748.97
826.14	1759.21
826.31	1689.57
826.48	1699.81
826.66	1699.81
826.83	1705.96
827.00	1601.51
827.17	1689.57
827.34	1701.86
827.51	1667.05
827.69	1748.97
827.86	1640.42
828.03	1724.39
828.20	1744.87
828.37	1681.38
828.54	1751.01
828.71	1656.81
828.89	1738.73
829.06	1746.92
829.23	1828.84
829.40	1669.09
829.57	1615.85
829.74	1693.67
829.91	1673.19
830.09	1689.57
830.26	1765.35
830.43	1751.01
830.60	1705.96
830.77	1708.01
830.94	1757.16
831.11	1742.82
831.28	1603.56
831.46	1742.82
831.63	1732.58
831.80	1761.25
831.97	1689.57
832.14	1693.67
832.31	1728.49
832.48	1654.76
832.65	1771.49
832.82	1736.68
832.99	1708.01
833.17	1656.81
833.34	1748.97
833.51	1660.90
833.68	1609.70
833.85	1671.14
834.02	1716.20
834.19	1615.85
834.36	1642.47
834.53	1748.97
834.70	1796.07
834.87	1804.26
835.04	1742.82
835.22	1742.82
835.39	1662.95
835.56	1621.99
835.73	1695.72
835.90	1734.63
836.07	1638.38
836.24	1720.29
836.41	1695.72
836.58	1638.38
836.75	1710.05
836.92	1820.64
837.09	1689.57
837.26	1714.15
837.43	1718.25
837.60	1751.01
837.77	1705.96
837.94	1847.27
838.12	1814.50
838.29	1796.07
838.46	1585.13
838.63	1695.72
838.80	1810.40
838.97	1722.34
839.14	1693.67
839.31	1728.49
839.48	1744.87
839.65	1679.33
839.82	1755.11
839.99	1697.77
840.16	1685.48
840.33	1644.52
840.50	1718.25
840.67	1599.46
840.84	1583.08
841.01	1679.33
841.18	1644.52
841.35	1677.29
841.52	1722.34
841.69	1800.16
841.86	1640.42
842.03	1708.01
842.20	1767.40
842.37	1701.86
842.54	1691.62
842.71	1714.15
842.88	1624.04
843.05	1824.74
843.22	1701.86
843.39	1734.63
843.56	1589.22
843.73	1597.42
843.90	1744.87
844.07	1697.77
844.24	1761.25
844.41	1740.77
844.58	1736.68
844.75	1746.92
844.92	1751.01
845.09	1667.05
845.26	1675.24
845.43	1740.77
845.60	1732.58
845.77	1734.63
845.94	1765.35
846.10	1746.92
846.27	1607.66
846.44	1681.38
846.61	1636.33
846.78	1734.63
846.95	1726.44
847.12	1716.20
847.29	1652.71
847.46	1650.66
847.63	1689.57
847.80	1728.49
847.97	1640.42
848.14	1789.92
848.31	1665.00
848.48	1585.13
848.65	1710.05
848.82	1679.33
848.98	1820.64
849.15	1751.01
849.32	1773.54
849.49	1730.53
849.66	1699.81
849.83	1695.72
850.00	1615.85
850.17	1681.38
850.34	1759.21
850.51	1636.33
850.68	1681.38
850.85	1863.65
851.01	1716.20
851.18	1738.73
851.35	1630.18
851.52	1787.88
851.69	1767.40
851.86	1603.56
852.03	1705.96
852.20	1736.68
852.37	1714.15
852.53	1677.29
852.70	1726.44
852.87	1685.48
853.04	1734.63
853.21	1689.57
853.38	1839.08
853.55	1722.34
853.72	1746.92
853.89	1642.47
854.05	1636.33
854.22	1619.94
854.39	1691.62
854.56	1746.92
854.73	1771.49
854.90	1636.33
855.07	1716.20
855.23	1722.34
855.40	1654.76
855.57	1648.61
855.74	1634.28
855.91	1877.99
856.08	1562.60
856.25	1603.56
856.41	1603.56
856.58	1636.33
856.75	1648.61
856.92	1665.00
857.09	1660.90
857.26	1673.19
857.42	1638.38
857.59	1791.97
857.76	1732.58
857.93	1638.38
858.10	1669.09
858.27	1581.03
858.43	1746.92
858.60	1701.86
858.77	1636.33
858.94	1693.67
859.11	1761.25
859.27	1595.37
859.44	1781.73
859.61	1775.59
859.78	1650.66
859.95	1802.21
860.12	1648.61
860.28	1763.30
860.45	1820.64
860.62	1665.00
860.79	1681.38
860.95	1636.33
861.12	1624.04
861.29	1665.00
861.46	1585.13
861.63	1697.77
861.79	1683.43
861.96	1681.38
862.13	1671.14
862.30	1742.82
862.47	1689.57
862.63	1673.19
862.80	1781.73
862.97	1751.01
863.14	1675.24
863.30	1755.11
863.47	1652.71
863.64	1767.40
863.81	1730.53
863.97	1638.38
864.14	1681.38
864.31	1687.53
864.48	1697.77
864.65	1726.44
864.81	1691.62
864.98	1732.58
865.15	1753.06
865.32	1767.40
865.48	1703.91
865.65	1839.08
865.82	1656.81
865.98	1804.26
866.15	1783.78
866.32	1687.53
866.49	1732.58
866.65	1779.68
866.82	1687.53
866.99	1722.34
867.16	1691.62
867.32	1671.14
867.49	1669.09
867.66	1716.20
867.83	1695.72
867.99	1611.75
868.16	1699.81
868.33	1638.38
868.49	1671.14
868.66	1693.67
868.83	1708.01
868.99	1775.59
869.16	1740.77
869.33	1769.44
869.50	1781.73
869.66	1669.09
869.83	1738.73
870.00	1583.08
870.16	1738.73
870.33	1730.53
870.50	1728.49
870.66	1695.72
870.83	1798.12
871.00	1771.49
871.17	1689.57
871.33	1759.21
871.50	1691.62
871.67	1675.24
871.83	1558.50
872.00	1783.78
872.17	1734.63
872.33	1830.88
872.50	1816.55
872.67	1720.29
872.83	1714.15
873.00	1634.28
873.17	1693.67
873.33	1722.34
873.50	1830.88
873.67	1628.14
873.83	1656.81
874.00	1738.73
874.16	1742.82
874.33	1755.11
874.50	1593.32
874.66	1757.16
874.83	1755.11
875.00	1839.08
875.16	1781.73
875.33	1718.25
875.50	1552.36
875.66	1679.33
875.83	1759.21
875.99	1767.40
876.16	1687.53
876.33	1642.47
876.49	1703.91
876.66	1744.87
876.83	1689.57
876.99	1687.53
877.16	1681.38
877.32	1648.61
877.49	1683.43
877.66	1730.53
877.82	1763.30
877.99	1708.01
878.15	1730.53
878.32	1705.96
878.49	1722.34
878.65	1789.92
878.82	1751.01
878.98	1669.09
879.15	1753.06
879.32	1779.68
879.48	1705.96
879.65	1683.43
879.81	1730.53
879.98	1771.49
880.15	1654.76
880.31	1710.05
880.48	1648.61
880.64	1734.63
880.81	1783.78
880.97	1837.03
881.14	1808.36
881.31	1601.51
881.47	1828.84
881.64	1705.96
881.80	1648.61
881.97	1675.24
882.13	1759.21
882.30	1654.76
882.47	1630.18
882.63	1632.23
882.80	1656.81
882.96	1669.09
883.13	1767.40
883.29	1689.57
883.46	1740.77
883.62	1841.12
883.79	1753.06
883.95	1724.39
884.12	1701.86
884.29	1834.98
884.45	1642.47
884.62	1738.73
884.78	1667.05
884.95	1787.88
885.11	1705.96
885.28	1726.44
885.44	1712.10
885.61	1794.02
885.77	1773.54
885.94	1736.68
886.10	1708.01
886.27	1665.00
886.43	1837.03
886.60	1736.68
886.76	1695.72
886.93	1736.68
887.09	1791.97
887.26	1607.66
887.42	1732.58
887.59	1759.21
887.75	1834.98
887.92	1785.83
888.08	1791.97
888.25	1843.17
888.41	1722.34
888.58	1783.78
888.74	1677.29
888.91	1650.66
>>>>>End Processed Spectral Data<<<<<
