SpectraSuite Data File
++++++++++++++++++++++++++++++++++++
Date: Wed May 04 18:44:09 CEST 2016
User: root
Dark Spectrum Present: No
Reference Spectrum Present: No
Number of Sampled Component Spectra: 1
Spectrometers: USB4C02835
Integration Time (usec): 100000 (USB4C02835)
Spectra Averaged: 1 (USB4C02835)
Boxcar Smoothing: 0 (USB4C02835)
Correct for Electrical Dark: No (USB4C02835)
Strobe/Lamp Enabled: No (USB4C02835)
Correct for Detector Non-linearity: No (USB4C02835)
Correct for Stray Light: No (USB4C02835)
Number of Pixels in Processed Spectrum: 3648
>>>>>Begin Processed Spectral Data<<<<<
177.47	1419.24
177.69	1419.24
177.91	1419.24
178.13	1474.54
178.36	1509.35
178.58	1669.09
178.80	1718.25
179.02	1595.37
179.24	1648.61
179.46	1705.96
179.68	1736.68
179.90	1734.63
180.13	1742.82
180.35	1708.01
180.57	1730.53
180.79	1761.25
181.01	1718.25
181.23	1728.49
181.45	1763.30
181.67	1757.16
181.90	1732.58
182.12	1687.53
182.34	1652.71
182.56	1673.19
182.78	1699.81
183.00	1656.81
183.22	1669.09
183.44	1609.70
183.66	1851.36
183.89	1738.73
184.11	1660.90
184.33	1677.29
184.55	1787.88
184.77	1716.20
184.99	1730.53
185.21	1724.39
185.43	1837.03
185.65	1644.52
185.87	1652.71
186.10	1771.49
186.32	1783.78
186.54	1753.06
186.76	1767.40
186.98	1740.77
187.20	1708.01
187.42	1630.18
187.64	1652.71
187.86	1624.04
188.08	1771.49
188.30	1738.73
188.52	1699.81
188.75	1812.45
188.97	1783.78
189.19	1650.66
189.41	1724.39
189.63	1736.68
189.85	1675.24
190.07	1619.94
190.29	1615.85
190.51	1726.44
190.73	1599.46
190.95	1826.79
191.17	1734.63
191.39	1613.80
191.61	1701.86
191.84	1667.05
192.06	1746.92
192.28	1574.89
192.50	1863.65
192.72	1675.24
192.94	1683.43
193.16	1677.29
193.38	1781.73
193.60	1628.14
193.82	1636.33
194.04	1810.40
194.26	1675.24
194.48	1689.57
194.70	1718.25
194.92	1705.96
195.14	1748.97
195.36	1671.14
195.58	1701.86
195.80	1771.49
196.02	1669.09
196.24	1669.09
196.46	1685.48
196.69	1734.63
196.91	1841.12
197.13	1703.91
197.35	1699.81
197.57	1787.88
197.79	1701.86
198.01	1779.68
198.23	1689.57
198.45	1765.35
198.67	1558.50
198.89	1640.42
199.11	1765.35
199.33	1630.18
199.55	1648.61
199.77	1728.49
199.99	1787.88
200.21	1675.24
200.43	1824.74
200.65	1703.91
200.87	1601.51
201.09	1705.96
201.31	1636.33
201.53	1781.73
201.75	1722.34
201.97	1710.05
202.19	1726.44
202.41	1656.81
202.63	1832.93
202.85	1718.25
203.07	1734.63
203.29	1679.33
203.51	1693.67
203.73	1630.18
203.95	1855.46
204.17	1710.05
204.39	1681.38
204.61	1701.86
204.83	1617.90
205.05	1734.63
205.27	1824.74
205.49	1849.32
205.71	1628.14
205.93	1656.81
206.15	1574.89
206.37	1677.29
206.59	1726.44
206.81	1652.71
207.03	1644.52
207.25	1675.24
207.47	1763.30
207.69	1728.49
207.91	1794.02
208.13	1834.98
208.34	1691.62
208.56	1624.04
208.78	1699.81
209.00	1656.81
209.22	1699.81
209.44	1705.96
209.66	1683.43
209.88	1630.18
210.10	1691.62
210.32	1656.81
210.54	1773.54
210.76	1665.00
210.98	1710.05
211.20	1632.23
211.42	1734.63
211.64	1808.36
211.86	1753.06
212.08	1705.96
212.30	1673.19
212.52	1771.49
212.74	1779.68
212.96	1705.96
213.17	1738.73
213.39	1693.67
213.61	1814.50
213.83	1820.64
214.05	1697.77
214.27	1773.54
214.49	1689.57
214.71	1611.75
214.93	1759.21
215.15	1757.16
215.37	1748.97
215.59	1621.99
215.81	1765.35
216.03	1712.10
216.24	1640.42
216.46	1679.33
216.68	1703.91
216.90	1761.25
217.12	1781.73
217.34	1695.72
217.56	1748.97
217.78	1796.07
218.00	1699.81
218.22	1763.30
218.44	1748.97
218.66	1636.33
218.87	1798.12
219.09	1613.80
219.31	1759.21
219.53	1761.25
219.75	1697.77
219.97	1638.38
220.19	1730.53
220.41	1636.33
220.63	1773.54
220.85	1748.97
221.06	1669.09
221.28	1863.65
221.50	1761.25
221.72	1701.86
221.94	1714.15
222.16	1665.00
222.38	1742.82
222.60	1748.97
222.82	1648.61
223.03	1710.05
223.25	1671.14
223.47	1703.91
223.69	1888.23
223.91	1728.49
224.13	1710.05
224.35	1683.43
224.57	1761.25
224.78	1703.91
225.00	1669.09
225.22	1695.72
225.44	1660.90
225.66	1761.25
225.88	1773.54
226.10	1812.45
226.32	1720.29
226.53	1763.30
226.75	1722.34
226.97	1667.05
227.19	1691.62
227.41	1624.04
227.63	1599.46
227.85	1650.66
228.06	1783.78
228.28	1658.85
228.50	1716.20
228.72	1701.86
228.94	1697.77
229.16	1630.18
229.37	1734.63
229.59	1738.73
229.81	1787.88
230.03	1738.73
230.25	1685.48
230.47	1673.19
230.69	1636.33
230.90	1806.31
231.12	1632.23
231.34	1714.15
231.56	1806.31
231.78	1677.29
232.00	1677.29
232.21	1701.86
232.43	1689.57
232.65	1558.50
232.87	1761.25
233.09	1687.53
233.30	1615.85
233.52	1763.30
233.74	1753.06
233.96	1677.29
234.18	1701.86
234.40	1738.73
234.61	1828.84
234.83	1570.79
235.05	1650.66
235.27	1845.22
235.49	1763.30
235.70	1656.81
235.92	1789.92
236.14	1720.29
236.36	1806.31
236.58	1685.48
236.79	1738.73
237.01	1701.86
237.23	1691.62
237.45	1882.08
237.67	1771.49
237.88	1708.01
238.10	1771.49
238.32	1554.41
238.54	1679.33
238.76	1699.81
238.97	1628.14
239.19	1609.70
239.41	1798.12
239.63	1740.77
239.85	1624.04
240.06	1687.53
240.28	1675.24
240.50	1775.59
240.72	1689.57
240.93	1753.06
241.15	1849.32
241.37	1714.15
241.59	1771.49
241.81	1771.49
242.02	1624.04
242.24	1683.43
242.46	1769.44
242.68	1699.81
242.89	1785.83
243.11	1775.59
243.33	1658.85
243.55	1675.24
243.76	1798.12
243.98	1675.24
244.20	1683.43
244.42	1734.63
244.64	1787.88
244.85	1636.33
245.07	1654.76
245.29	1740.77
245.51	1714.15
245.72	1736.68
245.94	1767.40
246.16	1693.67
246.38	1755.11
246.59	1722.34
246.81	1677.29
247.03	1710.05
247.24	1656.81
247.46	1691.62
247.68	1738.73
247.90	1720.29
248.11	1648.61
248.33	1738.73
248.55	1722.34
248.77	1728.49
248.98	1759.21
249.20	1791.97
249.42	1736.68
249.64	1740.77
249.85	1640.42
250.07	1705.96
250.29	1779.68
250.50	1681.38
250.72	1591.27
250.94	1748.97
251.16	1796.07
251.37	1757.16
251.59	1689.57
251.81	1806.31
252.02	1769.44
252.24	1675.24
252.46	1798.12
252.68	1599.46
252.89	1615.85
253.11	1599.46
253.33	1806.31
253.54	1806.31
253.76	1615.85
253.98	1685.48
254.20	1720.29
254.41	1681.38
254.63	1724.39
254.85	1701.86
255.06	1701.86
255.28	1742.82
255.50	1722.34
255.71	1652.71
255.93	1591.27
256.15	1658.85
256.36	1742.82
256.58	1603.56
256.80	1796.07
257.02	1734.63
257.23	1755.11
257.45	1701.86
257.67	1830.88
257.88	1665.00
258.10	1642.47
258.32	1732.58
258.53	1689.57
258.75	1767.40
258.97	1730.53
259.18	1669.09
259.40	1736.68
259.62	1820.64
259.83	1841.12
260.05	1716.20
260.27	1925.09
260.48	1777.64
260.70	1677.29
260.92	1689.57
261.13	1718.25
261.35	1730.53
261.57	1673.19
261.78	1630.18
262.00	1640.42
262.22	1681.38
262.43	1669.09
262.65	1671.14
262.86	1615.85
263.08	1763.30
263.30	1714.15
263.51	1585.13
263.73	1714.15
263.95	1775.59
264.16	1624.04
264.38	1638.38
264.60	1726.44
264.81	1701.86
265.03	1755.11
265.25	1773.54
265.46	1708.01
265.68	1787.88
265.89	1804.26
266.11	1662.95
266.33	1771.49
266.54	1695.72
266.76	1779.68
266.98	1796.07
267.19	1787.88
267.41	1712.10
267.62	1734.63
267.84	1652.71
268.06	1677.29
268.27	1705.96
268.49	1761.25
268.70	1785.83
268.92	1748.97
269.14	1693.67
269.35	1673.19
269.57	1703.91
269.79	1677.29
270.00	1607.66
270.22	1808.36
270.43	1638.38
270.65	1599.46
270.87	1775.59
271.08	1751.01
271.30	1746.92
271.51	1665.00
271.73	1744.87
271.95	1787.88
272.16	1724.39
272.38	1730.53
272.59	1742.82
272.81	1724.39
273.02	1748.97
273.24	1814.50
273.46	1728.49
273.67	1624.04
273.89	1716.20
274.10	1658.85
274.32	1841.12
274.54	1791.97
274.75	1671.14
274.97	1656.81
275.18	1746.92
275.40	1763.30
275.61	1701.86
275.83	1701.86
276.05	1652.71
276.26	1746.92
276.48	1765.35
276.69	1632.23
276.91	1712.10
277.12	1796.07
277.34	1761.25
277.55	1712.10
277.77	1744.87
277.99	1673.19
278.20	1632.23
278.42	1675.24
278.63	1689.57
278.85	1624.04
279.06	1679.33
279.28	1753.06
279.49	1742.82
279.71	1783.78
279.93	1714.15
280.14	1697.77
280.36	1703.91
280.57	1787.88
280.79	1748.97
281.00	1632.23
281.22	1646.57
281.43	1708.01
281.65	1656.81
281.86	1675.24
282.08	1755.11
282.29	1837.03
282.51	1583.08
282.73	1705.96
282.94	1574.89
283.16	1736.68
283.37	1828.84
283.59	1734.63
283.80	1755.11
284.02	1673.19
284.23	1662.95
284.45	1738.73
284.66	1648.61
284.88	1652.71
285.09	1759.21
285.31	1736.68
285.52	1701.86
285.74	1615.85
285.95	1810.40
286.17	1748.97
286.38	1761.25
286.60	1613.80
286.81	1650.66
287.03	1662.95
287.24	1701.86
287.46	1757.16
287.67	1726.44
287.89	1796.07
288.10	1742.82
288.32	1693.67
288.53	1705.96
288.75	1708.01
288.96	1806.31
289.18	1693.67
289.39	1658.85
289.61	1785.83
289.82	1822.69
290.04	1808.36
290.25	1685.48
290.47	1734.63
290.68	1611.75
290.90	1822.69
291.11	1689.57
291.33	1769.44
291.54	1744.87
291.76	1677.29
291.97	1716.20
292.18	1705.96
292.40	1671.14
292.61	1689.57
292.83	1880.04
293.04	1724.39
293.26	1683.43
293.47	1734.63
293.69	1583.08
293.90	1767.40
294.12	1722.34
294.33	1746.92
294.55	1744.87
294.76	1814.50
294.97	1804.26
295.19	1796.07
295.40	1703.91
295.62	1740.77
295.83	1722.34
296.05	1665.00
296.26	1751.01
296.48	1730.53
296.69	1693.67
296.90	1763.30
297.12	1712.10
297.33	1798.12
297.55	1695.72
297.76	1708.01
297.98	1777.64
298.19	1742.82
298.41	1726.44
298.62	1701.86
298.83	1796.07
299.05	1808.36
299.26	1644.52
299.48	1710.05
299.69	1744.87
299.90	1732.58
300.12	1638.38
300.33	1726.44
300.55	1742.82
300.76	1710.05
300.98	1585.13
301.19	1697.77
301.40	1656.81
301.62	1697.77
301.83	1716.20
302.05	1732.58
302.26	1642.47
302.47	1697.77
302.69	1665.00
302.90	1685.48
303.12	1603.56
303.33	1722.34
303.54	1800.16
303.76	1677.29
303.97	1802.21
304.19	1796.07
304.40	1726.44
304.61	1689.57
304.83	1837.03
305.04	1734.63
305.26	1767.40
305.47	1665.00
305.68	1701.86
305.90	1587.18
306.11	1712.10
306.33	1689.57
306.54	1722.34
306.75	1681.38
306.97	1583.08
307.18	1677.29
307.39	1660.90
307.61	1755.11
307.82	1783.78
308.04	1613.80
308.25	1720.29
308.46	1771.49
308.68	1681.38
308.89	1779.68
309.10	1794.02
309.32	1740.77
309.53	1726.44
309.74	1693.67
309.96	1673.19
310.17	1730.53
310.39	1695.72
310.60	1742.82
310.81	1701.86
311.03	1632.23
311.24	1740.77
311.45	1673.19
311.67	1845.22
311.88	1705.96
312.09	1648.61
312.31	1642.47
312.52	1683.43
312.73	1693.67
312.95	1658.85
313.16	1734.63
313.37	1804.26
313.59	1775.59
313.80	1712.10
314.01	1765.35
314.23	1675.24
314.44	1771.49
314.65	1712.10
314.87	1703.91
315.08	1714.15
315.29	1689.57
315.51	1669.09
315.72	1648.61
315.93	1828.84
316.15	1822.69
316.36	1665.00
316.57	1728.49
316.79	1800.16
317.00	1677.29
317.21	1693.67
317.43	1632.23
317.64	1734.63
317.85	1697.77
318.07	1771.49
318.28	1814.50
318.49	1935.33
318.70	1890.28
318.92	1857.51
319.13	1966.05
319.34	1798.12
319.56	1837.03
319.77	1808.36
319.98	1810.40
320.20	1824.74
320.41	1830.88
320.62	1744.87
320.83	1679.33
321.05	1832.93
321.26	1652.71
321.47	1734.63
321.69	1820.64
321.90	1642.47
322.11	1697.77
322.32	1685.48
322.54	1828.84
322.75	1687.53
322.96	1802.21
323.18	1675.24
323.39	1585.13
323.60	1626.09
323.81	1673.19
324.03	1710.05
324.24	1712.10
324.45	1656.81
324.66	1705.96
324.88	1724.39
325.09	1834.98
325.30	1654.76
325.52	1722.34
325.73	1816.55
325.94	1617.90
326.15	1597.42
326.37	1730.53
326.58	1757.16
326.79	1781.73
327.00	1714.15
327.22	1724.39
327.43	1646.57
327.64	1656.81
327.85	1783.78
328.07	1775.59
328.28	1802.21
328.49	1744.87
328.70	1693.67
328.92	1771.49
329.13	1697.77
329.34	1736.68
329.55	1798.12
329.76	1853.41
329.98	1726.44
330.19	1722.34
330.40	1777.64
330.61	1660.90
330.83	1744.87
331.04	1662.95
331.25	1685.48
331.46	1722.34
331.68	1742.82
331.89	1783.78
332.10	1718.25
332.31	1705.96
332.52	1687.53
332.74	1822.69
332.95	1667.05
333.16	1644.52
333.37	1800.16
333.58	1611.75
333.80	1716.20
334.01	1605.61
334.22	1650.66
334.43	1675.24
334.64	1683.43
334.86	1714.15
335.07	1683.43
335.28	1755.11
335.49	1665.00
335.70	1740.77
335.92	1785.83
336.13	1882.08
336.34	1738.73
336.55	1691.62
336.76	1710.05
336.98	1693.67
337.19	1712.10
337.40	1775.59
337.61	1834.98
337.82	1685.48
338.04	1746.92
338.25	1554.41
338.46	1787.88
338.67	1685.48
338.88	1671.14
339.09	1626.09
339.31	1669.09
339.52	1648.61
339.73	1628.14
339.94	1697.77
340.15	1718.25
340.36	1648.61
340.58	1695.72
340.79	1665.00
341.00	1742.82
341.21	1654.76
341.42	1810.40
341.63	1734.63
341.85	1689.57
342.06	1746.92
342.27	1658.85
342.48	1775.59
342.69	1619.94
342.90	1705.96
343.12	1845.22
343.33	1621.99
343.54	1695.72
343.75	1787.88
343.96	1738.73
344.17	1681.38
344.38	1726.44
344.60	1644.52
344.81	1667.05
345.02	1693.67
345.23	1746.92
345.44	1839.08
345.65	1720.29
345.86	1742.82
346.07	1740.77
346.29	1699.81
346.50	1705.96
346.71	1755.11
346.92	1812.45
347.13	1834.98
347.34	1730.53
347.55	1726.44
347.76	1681.38
347.98	1632.23
348.19	1665.00
348.40	1726.44
348.61	1722.34
348.82	1794.02
349.03	1697.77
349.24	1603.56
349.45	1771.49
349.66	1564.65
349.88	1800.16
350.09	1677.29
350.30	1832.93
350.51	1714.15
350.72	1732.58
350.93	1701.86
351.14	1671.14
351.35	1785.83
351.56	1736.68
351.77	1785.83
351.99	1697.77
352.20	1841.12
352.41	1814.50
352.62	1529.83
352.83	1716.20
353.04	1652.71
353.25	1705.96
353.46	1740.77
353.67	1771.49
353.88	1615.85
354.09	1726.44
354.30	1697.77
354.52	1726.44
354.73	1724.39
354.94	1687.53
355.15	1705.96
355.36	1869.80
355.57	1677.29
355.78	1742.82
355.99	1673.19
356.20	1667.05
356.41	1742.82
356.62	1802.21
356.83	1720.29
357.04	1742.82
357.25	1660.90
357.46	1638.38
357.68	1673.19
357.89	1677.29
358.10	1726.44
358.31	1746.92
358.52	1714.15
358.73	1636.33
358.94	1669.09
359.15	1712.10
359.36	1800.16
359.57	1708.01
359.78	1689.57
359.99	1714.15
360.20	1640.42
360.41	1675.24
360.62	1708.01
360.83	1794.02
361.04	1714.15
361.25	1685.48
361.46	1781.73
361.67	1730.53
361.88	1775.59
362.09	1785.83
362.30	1685.48
362.51	1736.68
362.72	1738.73
362.93	1726.44
363.14	1693.67
363.35	1681.38
363.56	1697.77
363.78	1703.91
363.99	1726.44
364.20	1787.88
364.41	1689.57
364.62	1843.17
364.83	1744.87
365.04	1746.92
365.25	1724.39
365.46	1834.98
365.67	1658.85
365.88	1673.19
366.09	1697.77
366.30	1740.77
366.51	1722.34
366.72	1636.33
366.93	1705.96
367.14	1691.62
367.35	1775.59
367.56	1689.57
367.77	1740.77
367.98	1662.95
368.18	1720.29
368.39	1712.10
368.60	1652.71
368.81	1783.78
369.02	1757.16
369.23	1714.15
369.44	1599.46
369.65	1632.23
369.86	1697.77
370.07	1839.08
370.28	1669.09
370.49	1718.25
370.70	1693.67
370.91	1638.38
371.12	1646.57
371.33	1775.59
371.54	1697.77
371.75	1769.44
371.96	1615.85
372.17	1697.77
372.38	1697.77
372.59	1736.68
372.80	1673.19
373.01	1646.57
373.22	1732.58
373.43	1726.44
373.64	1652.71
373.85	1748.97
374.06	1767.40
374.26	1791.97
374.47	1669.09
374.68	1720.29
374.89	1767.40
375.10	1718.25
375.31	1839.08
375.52	1726.44
375.73	1730.53
375.94	1671.14
376.15	1773.54
376.36	1732.58
376.57	1699.81
376.78	1693.67
376.99	1718.25
377.20	1785.83
377.40	1708.01
377.61	1796.07
377.82	1650.66
378.03	1849.32
378.24	1787.88
378.45	1763.30
378.66	1730.53
378.87	1587.18
379.08	1636.33
379.29	1705.96
379.50	1746.92
379.71	1595.37
379.91	1695.72
380.12	1687.53
380.33	1646.57
380.54	1689.57
380.75	1665.00
380.96	1675.24
381.17	1892.32
381.38	1718.25
381.59	1787.88
381.80	1794.02
382.00	1894.37
382.21	1714.15
382.42	1802.21
382.63	1865.70
382.84	1761.25
383.05	1806.31
383.26	1875.94
383.47	1751.01
383.68	1847.27
383.88	1736.68
384.09	1759.21
384.30	1824.74
384.51	1742.82
384.72	1683.43
384.93	1697.77
385.14	1738.73
385.35	1728.49
385.55	1667.05
385.76	1851.36
385.97	1757.16
386.18	1634.28
386.39	1662.95
386.60	1720.29
386.81	1693.67
387.02	1751.01
387.22	1642.47
387.43	1781.73
387.64	1748.97
387.85	1982.43
388.06	2267.10
388.27	4796.34
388.48	9168.76
388.68	11929.42
388.89	13451.06
389.10	14176.04
389.31	11945.80
389.52	9738.09
389.73	8761.21
389.93	7825.29
390.14	7329.68
390.35	6705.05
390.56	6160.29
390.77	5029.81
390.98	3968.96
391.18	3088.34
391.39	2418.65
391.60	1992.67
391.81	1855.46
392.02	1726.44
392.23	1824.74
392.43	1738.73
392.64	1834.98
392.85	1732.58
393.06	1796.07
393.27	1740.77
393.47	1726.44
393.68	1712.10
393.89	1703.91
394.10	1730.53
394.31	1681.38
394.52	1669.09
394.72	1689.57
394.93	1783.78
395.14	1669.09
395.35	1738.73
395.56	1652.71
395.76	1740.77
395.97	1824.74
396.18	1837.03
396.39	1871.84
396.60	2066.40
396.80	1910.75
397.01	1918.95
397.22	1886.18
397.43	1820.64
397.64	1775.59
397.84	1808.36
398.05	1943.52
398.26	1812.45
398.47	1822.69
398.67	1751.01
398.88	1794.02
399.09	1677.29
399.30	1689.57
399.51	1763.30
399.71	1673.19
399.92	1763.30
400.13	1753.06
400.34	1656.81
400.54	1705.96
400.75	1824.74
400.96	1812.45
401.17	1789.92
401.37	1705.96
401.58	1652.71
401.79	1744.87
402.00	1890.28
402.21	2115.55
402.41	2121.70
402.62	2011.11
402.83	2176.99
403.04	2154.46
403.24	2121.70
403.45	1896.42
403.66	1982.43
403.87	1939.43
404.07	1947.62
404.28	1927.14
404.49	1929.19
404.70	1875.94
404.90	1857.51
405.11	1755.11
405.32	1751.01
405.52	1679.33
405.73	1689.57
405.94	1662.95
406.15	1689.57
406.35	1726.44
406.56	1742.82
406.77	1798.12
406.98	1765.35
407.18	1597.42
407.39	1791.97
407.60	1775.59
407.80	1757.16
408.01	1730.53
408.22	1701.86
408.43	1683.43
408.63	1769.44
408.84	1822.69
409.05	1740.77
409.25	1695.72
409.46	1703.91
409.67	1708.01
409.88	1648.61
410.08	1720.29
410.29	1648.61
410.50	1740.77
410.70	1673.19
410.91	1699.81
411.12	1781.73
411.32	1763.30
411.53	1714.15
411.74	1830.88
411.95	1757.16
412.15	1796.07
412.36	1773.54
412.57	1728.49
412.77	1818.60
412.98	1755.11
413.19	1744.87
413.39	1783.78
413.60	1695.72
413.81	1884.13
414.01	1687.53
414.22	1808.36
414.43	1800.16
414.63	1685.48
414.84	1785.83
415.05	1632.23
415.25	1644.52
415.46	1736.68
415.67	1710.05
415.87	1712.10
416.08	1826.79
416.29	1624.04
416.49	1732.58
416.70	1703.91
416.91	1732.58
417.11	1681.38
417.32	1822.69
417.53	1789.92
417.73	1708.01
417.94	1665.00
418.15	1734.63
418.35	1742.82
418.56	1755.11
418.77	1834.98
418.97	1744.87
419.18	1642.47
419.38	1589.22
419.59	1687.53
419.80	1855.46
420.00	1695.72
420.21	1732.58
420.42	1665.00
420.62	1798.12
420.83	1675.24
421.04	1650.66
421.24	1701.86
421.45	1804.26
421.65	1744.87
421.86	1667.05
422.07	1755.11
422.27	1751.01
422.48	1708.01
422.69	1693.67
422.89	1730.53
423.10	1703.91
423.30	1644.52
423.51	1648.61
423.72	1781.73
423.92	1681.38
424.13	1607.66
424.33	1675.24
424.54	1769.44
424.75	1728.49
424.95	1779.68
425.16	1763.30
425.36	1677.29
425.57	1738.73
425.78	1806.31
425.98	1773.54
426.19	1660.90
426.39	1640.42
426.60	1763.30
426.81	1763.30
427.01	1685.48
427.22	1648.61
427.42	1689.57
427.63	1660.90
427.83	1775.59
428.04	1767.40
428.25	1722.34
428.45	1800.16
428.66	1757.16
428.86	1667.05
429.07	1746.92
429.28	1714.15
429.48	1662.95
429.69	1734.63
429.89	1699.81
430.10	1712.10
430.30	1787.88
430.51	1875.94
430.71	1650.66
430.92	1665.00
431.13	1677.29
431.33	1765.35
431.54	1753.06
431.74	1740.77
431.95	1785.83
432.15	1607.66
432.36	1771.49
432.56	1689.57
432.77	1822.69
432.98	1740.77
433.18	1718.25
433.39	1636.33
433.59	1693.67
433.80	1855.46
434.00	1871.84
434.21	1673.19
434.41	1693.67
434.62	1875.94
434.82	1658.85
435.03	1728.49
435.23	1720.29
435.44	1593.32
435.64	1662.95
435.85	1728.49
436.06	1802.21
436.26	1789.92
436.47	1685.48
436.67	1679.33
436.88	1667.05
437.08	1816.55
437.29	1830.88
437.49	1738.73
437.70	1832.93
437.90	1736.68
438.11	1794.02
438.31	1816.55
438.52	1800.16
438.72	1837.03
438.93	1920.99
439.13	1812.45
439.34	1857.51
439.54	1771.49
439.75	1781.73
439.95	1847.27
440.16	1767.40
440.36	1810.40
440.57	1816.55
440.77	1800.16
440.98	1769.44
441.18	1751.01
441.39	1677.29
441.59	1712.10
441.80	1863.65
442.00	1703.91
442.21	1861.60
442.41	1626.09
442.62	1822.69
442.82	1679.33
443.02	1732.58
443.23	1773.54
443.43	1697.77
443.64	1789.92
443.84	1699.81
444.05	1849.32
444.25	1673.19
444.46	1734.63
444.66	1732.58
444.87	1828.84
445.07	1628.14
445.28	1738.73
445.48	1867.75
445.69	1671.14
445.89	1832.93
446.09	1789.92
446.30	2029.54
446.50	2619.35
446.71	4255.68
446.91	5183.41
447.12	5783.46
447.32	5998.50
447.53	5388.21
447.73	4462.52
447.93	3979.20
448.14	3706.82
448.34	3506.12
448.55	3090.38
448.75	3082.19
448.96	2877.40
449.16	2686.94
449.36	2449.37
449.57	2174.94
449.77	1929.19
449.98	1814.50
450.18	1863.65
450.39	1845.22
450.59	1732.58
450.79	1755.11
451.00	1683.43
451.20	1785.83
451.41	1802.21
451.61	1773.54
451.81	1697.77
452.02	1746.92
452.22	1728.49
452.43	1728.49
452.63	1718.25
452.84	1726.44
453.04	1699.81
453.24	1777.64
453.45	1665.00
453.65	1767.40
453.86	1624.04
454.06	1773.54
454.26	1789.92
454.47	1703.91
454.67	1828.84
454.87	1783.78
455.08	1722.34
455.28	1767.40
455.49	1671.14
455.69	1785.83
455.89	1851.36
456.10	1837.03
456.30	1714.15
456.51	1767.40
456.71	1781.73
456.91	1736.68
457.12	1751.01
457.32	1695.72
457.52	1665.00
457.73	1724.39
457.93	1820.64
458.14	1705.96
458.34	1603.56
458.54	1697.77
458.75	1710.05
458.95	1734.63
459.15	1771.49
459.36	1757.16
459.56	1779.68
459.76	1841.12
459.97	1726.44
460.17	1759.21
460.37	1785.83
460.58	1697.77
460.78	1843.17
460.99	1753.06
461.19	1740.77
461.39	1742.82
461.60	1732.58
461.80	1767.40
462.00	1683.43
462.21	1701.86
462.41	1716.20
462.61	1652.71
462.82	1638.38
463.02	1791.97
463.22	1718.25
463.43	1769.44
463.63	1718.25
463.83	1837.03
464.04	1714.15
464.24	1681.38
464.44	1675.24
464.64	1689.57
464.85	1789.92
465.05	1826.79
465.25	1681.38
465.46	1701.86
465.66	1744.87
465.86	1708.01
466.07	1800.16
466.27	1703.91
466.47	1646.57
466.68	1648.61
466.88	1812.45
467.08	1765.35
467.29	1783.78
467.49	1777.64
467.69	1718.25
467.89	1775.59
468.10	1734.63
468.30	1691.62
468.50	1814.50
468.71	1785.83
468.91	1656.81
469.11	1822.69
469.31	1730.53
469.52	1656.81
469.72	1837.03
469.92	1839.08
470.13	1755.11
470.33	1753.06
470.53	1826.79
470.73	2191.33
470.94	2557.91
471.14	2826.20
471.34	2975.70
471.54	2926.55
471.75	2478.04
471.95	2346.97
472.15	2312.16
472.36	2224.09
472.56	2211.81
472.76	2136.03
472.96	2056.16
473.17	2086.88
473.37	1978.34
473.57	1873.89
473.77	1857.51
473.98	1767.40
474.18	1730.53
474.38	1918.95
474.58	1744.87
474.79	1718.25
474.99	1861.60
475.19	1828.84
475.39	1646.57
475.60	1703.91
475.80	1744.87
476.00	1740.77
476.20	1724.39
476.41	1781.73
476.61	1839.08
476.81	1802.21
477.01	1669.09
477.21	1816.55
477.42	1769.44
477.62	1675.24
477.82	1804.26
478.02	1718.25
478.23	1681.38
478.43	1710.05
478.63	1693.67
478.83	1712.10
479.03	1742.82
479.24	1781.73
479.44	1808.36
479.64	1695.72
479.84	1621.99
480.04	1691.62
480.25	1812.45
480.45	1652.71
480.65	1658.85
480.85	1783.78
481.06	1763.30
481.26	1781.73
481.46	1755.11
481.66	1757.16
481.86	1710.05
482.06	1755.11
482.27	1787.88
482.47	1658.85
482.67	1701.86
482.87	1722.34
483.07	1789.92
483.28	1689.57
483.48	1632.23
483.68	1722.34
483.88	1609.70
484.08	1683.43
484.29	1714.15
484.49	1742.82
484.69	1740.77
484.89	1755.11
485.09	1763.30
485.29	1671.14
485.50	1773.54
485.70	1746.92
485.90	1791.97
486.10	1697.77
486.30	1763.30
486.50	1755.11
486.71	1775.59
486.91	1728.49
487.11	1771.49
487.31	1687.53
487.51	1746.92
487.71	1679.33
487.91	1685.48
488.12	1728.49
488.32	1648.61
488.52	1681.38
488.72	1630.18
488.92	1718.25
489.12	1779.68
489.32	1800.16
489.53	1771.49
489.73	1656.81
489.93	1861.60
490.13	1744.87
490.33	1685.48
490.53	1744.87
490.73	1837.03
490.94	1636.33
491.14	1812.45
491.34	1837.03
491.54	2105.31
491.74	2680.79
491.94	3133.39
492.14	3397.58
492.34	3567.56
492.54	3186.64
492.75	2789.33
492.95	2611.16
493.15	2435.03
493.35	2410.46
493.55	2349.02
493.75	2172.89
493.95	2271.20
494.15	2082.78
494.35	2013.15
494.56	1918.95
494.76	1837.03
494.96	1822.69
495.16	1769.44
495.36	1773.54
495.56	1779.68
495.76	1738.73
495.96	1703.91
496.16	1669.09
496.36	1830.88
496.56	1759.21
496.77	1789.92
496.97	1712.10
497.17	1832.93
497.37	1724.39
497.57	1789.92
497.77	1720.29
497.97	1656.81
498.17	1720.29
498.37	1757.16
498.57	1820.64
498.77	1648.61
498.97	1751.01
499.17	1724.39
499.38	1677.29
499.58	1796.07
499.78	1812.45
499.98	1810.40
500.18	1753.06
500.38	1734.63
500.58	1873.89
500.78	2435.03
500.98	4642.75
501.18	6639.51
501.38	8200.07
501.58	9135.99
501.78	8853.37
501.98	6842.26
502.18	5902.25
502.38	5128.11
502.58	4579.26
502.78	4241.34
502.98	4093.89
503.18	3868.61
503.38	3631.05
503.59	3141.58
503.79	3000.27
503.99	2539.48
504.19	2443.23
504.39	2338.78
504.59	2334.68
504.79	2355.16
504.99	2299.87
505.19	2045.92
505.39	1943.52
505.59	2084.83
505.79	1984.48
505.99	1935.33
506.19	1837.03
506.39	1910.75
506.59	1810.40
506.79	1798.12
506.99	1880.04
507.19	1798.12
507.39	1828.84
507.59	1710.05
507.79	1746.92
507.99	1794.02
508.19	1703.91
508.39	1675.24
508.59	1687.53
508.79	1812.45
508.99	1877.99
509.19	1730.53
509.39	1751.01
509.59	1701.86
509.79	1685.48
509.99	1763.30
510.19	1800.16
510.39	1734.63
510.59	1771.49
510.79	1734.63
510.99	1697.77
511.19	1712.10
511.39	1847.27
511.59	1849.32
511.79	1859.56
511.99	1751.01
512.19	1843.17
512.38	1753.06
512.58	1736.68
512.78	1677.29
512.98	1820.64
513.18	1781.73
513.38	1628.14
513.58	1783.78
513.78	1699.81
513.98	1798.12
514.18	1794.02
514.38	1738.73
514.58	1718.25
514.78	1683.43
514.98	1832.93
515.18	1753.06
515.38	1654.76
515.58	1834.98
515.78	1695.72
515.98	1712.10
516.18	1753.06
516.38	1796.07
516.57	1697.77
516.77	1687.53
516.97	1822.69
517.17	1689.57
517.37	1619.94
517.57	1757.16
517.77	1689.57
517.97	1681.38
518.17	1789.92
518.37	1611.75
518.57	1671.14
518.77	1716.20
518.97	1699.81
519.16	1841.12
519.36	1820.64
519.56	1693.67
519.76	1687.53
519.96	1683.43
520.16	1810.40
520.36	1662.95
520.56	1765.35
520.76	1710.05
520.96	1732.58
521.16	1789.92
521.35	1814.50
521.55	1791.97
521.75	1716.20
521.95	1728.49
522.15	1703.91
522.35	1691.62
522.55	1693.67
522.75	1789.92
522.95	1708.01
523.14	1726.44
523.34	1726.44
523.54	1759.21
523.74	1818.60
523.94	1779.68
524.14	1660.90
524.34	1673.19
524.54	1769.44
524.73	1763.30
524.93	1718.25
525.13	1798.12
525.33	1689.57
525.53	1882.08
525.73	1724.39
525.93	1744.87
526.13	1714.15
526.32	1710.05
526.52	1812.45
526.72	1751.01
526.92	1646.57
527.12	1730.53
527.32	1617.90
527.52	1714.15
527.71	1708.01
527.91	1738.73
528.11	1714.15
528.31	1722.34
528.51	1583.08
528.71	1705.96
528.90	1753.06
529.10	1832.93
529.30	1791.97
529.50	1634.28
529.70	1718.25
529.90	1656.81
530.09	1785.83
530.29	1742.82
530.49	1695.72
530.69	1900.52
530.89	1765.35
531.09	1812.45
531.28	1791.97
531.48	1761.25
531.68	1728.49
531.88	1787.88
532.08	1773.54
532.28	1716.20
532.47	1761.25
532.67	1802.21
532.87	1785.83
533.07	1736.68
533.27	1820.64
533.46	1767.40
533.66	1718.25
533.86	1771.49
534.06	1810.40
534.26	1730.53
534.45	1722.34
534.65	1806.31
534.85	1771.49
535.05	1816.55
535.25	1730.53
535.44	1679.33
535.64	1726.44
535.84	1763.30
536.04	1677.29
536.24	1683.43
536.43	1685.48
536.63	1767.40
536.83	1748.97
537.03	1681.38
537.22	1675.24
537.42	1665.00
537.62	1742.82
537.82	1720.29
538.02	1798.12
538.21	1828.84
538.41	1857.51
538.61	1712.10
538.81	1857.51
539.00	1765.35
539.20	1632.23
539.40	1667.05
539.60	1761.25
539.79	1826.79
539.99	1753.06
540.19	1628.14
540.39	1742.82
540.58	1771.49
540.78	1765.35
540.98	1775.59
541.18	1751.01
541.37	1734.63
541.57	1695.72
541.77	1773.54
541.97	1761.25
542.16	1617.90
542.36	1759.21
542.56	1777.64
542.76	1812.45
542.95	1722.34
543.15	1636.33
543.35	1802.21
543.54	1718.25
543.74	1736.68
543.94	1808.36
544.14	1673.19
544.33	1771.49
544.53	1665.00
544.73	1724.39
544.93	1669.09
545.12	1683.43
545.32	1783.78
545.52	1798.12
545.71	1685.48
545.91	1681.38
546.11	1687.53
546.30	1658.85
546.50	1714.15
546.70	1798.12
546.90	1687.53
547.09	1697.77
547.29	1746.92
547.49	1818.60
547.68	1722.34
547.88	1636.33
548.08	1796.07
548.27	2148.32
548.47	1775.59
548.67	1617.90
548.87	1802.21
549.06	1785.83
549.26	1787.88
549.46	1796.07
549.65	1624.04
549.85	1796.07
550.05	1773.54
550.24	1697.77
550.44	1695.72
550.64	1787.88
550.83	1798.12
551.03	1796.07
551.23	1740.77
551.42	1796.07
551.62	1736.68
551.82	1748.97
552.01	1708.01
552.21	1810.40
552.41	1755.11
552.60	1769.44
552.80	1791.97
553.00	1648.61
553.19	1746.92
553.39	1798.12
553.59	1728.49
553.78	1810.40
553.98	1802.21
554.17	1724.39
554.37	1794.02
554.57	1820.64
554.76	1669.09
554.96	1748.97
555.16	1742.82
555.35	1810.40
555.55	1701.86
555.75	1742.82
555.94	1789.92
556.14	1636.33
556.33	1746.92
556.53	1726.44
556.73	1736.68
556.92	1765.35
557.12	1839.08
557.32	1859.56
557.51	1877.99
557.71	1705.96
557.90	1832.93
558.10	1753.06
558.30	1677.29
558.49	1665.00
558.69	1714.15
558.88	1738.73
559.08	1714.15
559.28	1677.29
559.47	1673.19
559.67	1775.59
559.86	1894.37
560.06	1765.35
560.26	1714.15
560.45	1701.86
560.65	1781.73
560.84	1839.08
561.04	1718.25
561.24	1710.05
561.43	1677.29
561.63	1828.84
561.82	1736.68
562.02	1851.36
562.22	1763.30
562.41	1662.95
562.61	1607.66
562.80	1683.43
563.00	1834.98
563.19	1771.49
563.39	1697.77
563.59	1693.67
563.78	1746.92
563.98	1669.09
564.17	1669.09
564.37	1583.08
564.56	1648.61
564.76	1744.87
564.96	1798.12
565.15	1742.82
565.35	1898.47
565.54	1679.33
565.74	1824.74
565.93	1755.11
566.13	1798.12
566.32	1763.30
566.52	1843.17
566.71	1669.09
566.91	1804.26
567.11	1681.38
567.30	1712.10
567.50	1671.14
567.69	1753.06
567.89	1701.86
568.08	1775.59
568.28	1757.16
568.47	1667.05
568.67	1738.73
568.86	1748.97
569.06	1783.78
569.25	1732.58
569.45	1665.00
569.64	1736.68
569.84	1742.82
570.04	1708.01
570.23	1669.09
570.43	1748.97
570.62	1771.49
570.82	1787.88
571.01	1722.34
571.21	1701.86
571.40	1755.11
571.60	1740.77
571.79	1773.54
571.99	1806.31
572.18	1755.11
572.38	1834.98
572.57	1765.35
572.77	1771.49
572.96	1824.74
573.16	1736.68
573.35	1710.05
573.55	1796.07
573.74	1800.16
573.94	1730.53
574.13	1744.87
574.33	1779.68
574.52	1765.35
574.71	1744.87
574.91	1880.04
575.10	1687.53
575.30	1791.97
575.49	1591.27
575.69	1740.77
575.88	1802.21
576.08	1812.45
576.27	1830.88
576.47	1822.69
576.66	1859.56
576.86	1861.60
577.05	1691.62
577.25	1832.93
577.44	1888.23
577.64	1636.33
577.83	1839.08
578.02	1755.11
578.22	1861.60
578.41	1920.99
578.61	1757.16
578.80	1695.72
579.00	1765.35
579.19	1771.49
579.39	1705.96
579.58	1769.44
579.77	1716.20
579.97	1964.00
580.16	1785.83
580.36	1851.36
580.55	1902.56
580.75	1818.60
580.94	1769.44
581.13	1865.70
581.33	1824.74
581.52	1738.73
581.72	1896.42
581.91	1863.65
582.11	1832.93
582.30	1867.75
582.49	1832.93
582.69	1867.75
582.88	1804.26
583.08	1865.70
583.27	1871.84
583.47	1789.92
583.66	1714.15
583.85	1685.48
584.05	1779.68
584.24	1771.49
584.44	1892.32
584.63	1822.69
584.82	1865.70
585.02	2004.96
585.21	1929.19
585.41	1912.80
585.60	1771.49
585.79	1961.95
585.99	1992.67
586.18	1935.33
586.37	2250.72
586.57	3303.37
586.76	9795.43
586.96	27088.48
587.15	42081.66
587.34	51969.26
587.54	58092.68
587.73	55809.20
587.93	39966.11
588.12	29750.84
588.31	23586.46
588.51	20295.37
588.70	18380.52
588.89	17118.97
589.09	15474.45
589.28	13713.20
589.47	11409.23
589.67	9432.94
589.86	7397.26
590.06	5631.91
590.25	4184.00
590.44	3309.52
590.64	2615.26
590.83	2351.07
591.02	2082.78
591.22	2009.06
591.41	1871.84
591.60	1841.12
591.80	1869.80
591.99	1781.73
592.18	1781.73
592.38	1822.69
592.57	1763.30
592.76	1828.84
592.96	1847.27
593.15	1847.27
593.34	1783.78
593.54	1757.16
593.73	1843.17
593.92	1865.70
594.12	1939.43
594.31	1753.06
594.50	1888.23
594.70	1884.13
594.89	1984.48
595.08	1724.39
595.28	1791.97
595.47	1863.65
595.66	1771.49
595.86	1714.15
596.05	1693.67
596.24	1751.01
596.43	1853.41
596.63	1894.37
596.82	1828.84
597.01	1814.50
597.21	1861.60
597.40	1730.53
597.59	1755.11
597.79	1773.54
597.98	1834.98
598.17	1720.29
598.36	1787.88
598.56	1783.78
598.75	1783.78
598.94	1841.12
599.14	1806.31
599.33	1759.21
599.52	1863.65
599.71	1767.40
599.91	1777.64
600.10	1806.31
600.29	1675.24
600.48	1720.29
600.68	1759.21
600.87	1736.68
601.06	1730.53
601.26	1716.20
601.45	1736.68
601.64	1669.09
601.83	1814.50
602.03	1742.82
602.22	1669.09
602.41	1789.92
602.60	1857.51
602.80	1892.32
602.99	1669.09
603.18	1718.25
603.37	1796.07
603.57	1777.64
603.76	1841.12
603.95	1828.84
604.14	1748.97
604.34	1675.24
604.53	1701.86
604.72	1746.92
604.91	1828.84
605.10	1841.12
605.30	1656.81
605.49	1898.47
605.68	1796.07
605.87	1742.82
606.07	1691.62
606.26	1742.82
606.45	1728.49
606.64	1826.79
606.84	1777.64
607.03	1732.58
607.22	1834.98
607.41	1769.44
607.60	1781.73
607.80	1849.32
607.99	1705.96
608.18	1779.68
608.37	1787.88
608.56	1683.43
608.76	1789.92
608.95	1920.99
609.14	1808.36
609.33	1955.81
609.52	1888.23
609.72	1828.84
609.91	1867.75
610.10	1771.49
610.29	1896.42
610.48	1751.01
610.68	1861.60
610.87	1826.79
611.06	1761.25
611.25	1681.38
611.44	1798.12
611.63	1751.01
611.83	1828.84
612.02	1675.24
612.21	1802.21
612.40	1683.43
612.59	1656.81
612.79	1687.53
612.98	1771.49
613.17	1900.52
613.36	1728.49
613.55	1906.66
613.74	1816.55
613.93	1880.04
614.13	1937.38
614.32	2058.21
614.51	1935.33
614.70	1820.64
614.89	1796.07
615.08	1828.84
615.28	2117.60
615.47	1687.53
615.66	1814.50
615.85	1808.36
616.04	1966.05
616.23	1740.77
616.42	1841.12
616.62	1890.28
616.81	1771.49
617.00	1746.92
617.19	1693.67
617.38	1824.74
617.57	1820.64
617.76	1841.12
617.95	1875.94
618.15	1769.44
618.34	1783.78
618.53	1628.14
618.72	1849.32
618.91	1834.98
619.10	1777.64
619.29	1773.54
619.48	1742.82
619.68	1675.24
619.87	1724.39
620.06	1595.37
620.25	1746.92
620.44	1705.96
620.63	1748.97
620.82	1755.11
621.01	1796.07
621.20	1849.32
621.39	1812.45
621.59	1771.49
621.78	1673.19
621.97	1759.21
622.16	1806.31
622.35	1738.73
622.54	1759.21
622.73	1845.22
622.92	1609.70
623.11	1755.11
623.30	1773.54
623.49	1736.68
623.68	1679.33
623.88	1773.54
624.07	1648.61
624.26	1769.44
624.45	1726.44
624.64	1728.49
624.83	1771.49
625.02	1757.16
625.21	1738.73
625.40	1738.73
625.59	1757.16
625.78	1718.25
625.97	1841.12
626.16	1851.36
626.35	1869.80
626.54	1775.59
626.74	1877.99
626.93	1746.92
627.12	1718.25
627.31	1783.78
627.50	1787.88
627.69	1818.60
627.88	1738.73
628.07	1734.63
628.26	1677.29
628.45	1679.33
628.64	1679.33
628.83	1691.62
629.02	1738.73
629.21	1748.97
629.40	1757.16
629.59	1773.54
629.78	1662.95
629.97	1730.53
630.16	1748.97
630.35	1812.45
630.54	1753.06
630.73	1720.29
630.92	1798.12
631.11	1712.10
631.30	1726.44
631.49	1796.07
631.68	1720.29
631.87	1812.45
632.06	1681.38
632.25	1916.90
632.44	1757.16
632.63	1765.35
632.82	1804.26
633.01	1759.21
633.20	1912.80
633.39	1796.07
633.58	1724.39
633.77	1808.36
633.96	1812.45
634.15	1791.97
634.34	1806.31
634.53	1810.40
634.72	1816.55
634.91	1687.53
635.10	1746.92
635.29	1814.50
635.48	1753.06
635.67	1710.05
635.86	1689.57
636.05	1781.73
636.24	1757.16
636.43	1740.77
636.62	1726.44
636.81	1652.71
637.00	1804.26
637.19	1691.62
637.38	1712.10
637.57	1781.73
637.76	1763.30
637.95	1894.37
638.14	1877.99
638.33	1853.41
638.52	1744.87
638.71	1705.96
638.89	1710.05
639.08	1957.86
639.27	1796.07
639.46	1837.03
639.65	2170.85
639.84	2189.28
640.03	2426.84
640.22	2314.20
640.41	2394.08
640.60	2068.45
640.79	2013.15
640.98	1828.84
641.17	1935.33
641.36	1898.47
641.55	1939.43
641.74	1765.35
641.92	1732.58
642.11	1636.33
642.30	1753.06
642.49	1777.64
642.68	1701.86
642.87	1740.77
643.06	1832.93
643.25	1683.43
643.44	1630.18
643.63	1726.44
643.82	1783.78
644.00	1662.95
644.19	1757.16
644.38	1648.61
644.57	1691.62
644.76	1767.40
644.95	1683.43
645.14	1732.58
645.33	1753.06
645.52	1712.10
645.71	1642.47
645.89	1681.38
646.08	1681.38
646.27	1660.90
646.46	1834.98
646.65	1656.81
646.84	1738.73
647.03	1675.24
647.22	1726.44
647.40	1708.01
647.59	1669.09
647.78	1667.05
647.97	1656.81
648.16	1677.29
648.35	1712.10
648.54	1804.26
648.73	1714.15
648.91	1744.87
649.10	1757.16
649.29	1654.76
649.48	1701.86
649.67	1693.67
649.86	1761.25
650.05	1783.78
650.23	1871.84
650.42	1851.36
650.61	1920.99
650.80	1992.67
650.99	2027.49
651.18	1900.52
651.36	1869.80
651.55	1777.64
651.74	1734.63
651.93	1740.77
652.12	1722.34
652.31	1781.73
652.49	1687.53
652.68	1732.58
652.87	1826.79
653.06	1804.26
653.25	1906.66
653.44	1779.68
653.62	1830.88
653.81	1705.96
654.00	1722.34
654.19	1755.11
654.38	1865.70
654.56	1728.49
654.75	1654.76
654.94	1843.17
655.13	1738.73
655.32	1765.35
655.51	1697.77
655.69	1705.96
655.88	1800.16
656.07	1767.40
656.26	1742.82
656.45	1613.80
656.63	1685.48
656.82	1789.92
657.01	1775.59
657.20	1691.62
657.38	1800.16
657.57	1642.47
657.76	1658.85
657.95	1732.58
658.14	1673.19
658.32	1773.54
658.51	1697.77
658.70	1742.82
658.89	1759.21
659.08	1757.16
659.26	1841.12
659.45	1726.44
659.64	1843.17
659.83	1669.09
660.01	1984.48
660.20	1812.45
660.39	1843.17
660.58	1665.00
660.76	1779.68
660.95	1746.92
661.14	1814.50
661.33	1708.01
661.51	1730.53
661.70	1656.81
661.89	1742.82
662.08	1751.01
662.26	1634.28
662.45	1636.33
662.64	1837.03
662.83	1753.06
663.01	1665.00
663.20	1767.40
663.39	1822.69
663.58	1660.90
663.76	1804.26
663.95	1794.02
664.14	1667.05
664.32	1847.27
664.51	1726.44
664.70	1624.04
664.89	1742.82
665.07	1640.42
665.26	1775.59
665.45	1681.38
665.64	1746.92
665.82	1765.35
666.01	1775.59
666.20	1691.62
666.38	1822.69
666.57	1800.16
666.76	2273.25
666.95	4536.25
667.13	11628.37
667.32	18749.15
667.51	22300.33
667.69	25220.74
667.88	25722.49
668.07	19730.13
668.25	14477.09
668.44	11874.12
668.63	9973.61
668.81	8693.63
669.00	7628.68
669.19	6852.50
669.38	6236.06
669.56	5447.60
669.75	4691.90
669.94	3704.78
670.12	3188.69
670.31	2668.50
670.50	2330.59
670.68	2127.84
670.87	1959.91
671.06	1849.32
671.24	1834.98
671.43	1855.46
671.62	1849.32
671.80	1779.68
671.99	1732.58
672.18	1806.31
672.36	1812.45
672.55	1765.35
672.74	1777.64
672.92	1681.38
673.11	1771.49
673.29	1708.01
673.48	1796.07
673.67	1701.86
673.85	1830.88
674.04	1654.76
674.23	1726.44
674.41	1900.52
674.60	1662.95
674.79	1689.57
674.97	1683.43
675.16	1708.01
675.34	1822.69
675.53	1681.38
675.72	1785.83
675.90	1820.64
676.09	1679.33
676.28	1712.10
676.46	1660.90
676.65	1755.11
676.83	1693.67
677.02	1708.01
677.21	1689.57
677.39	1787.88
677.58	1669.09
677.77	1662.95
677.95	1662.95
678.14	1640.42
678.32	1718.25
678.51	1642.47
678.70	1779.68
678.88	1714.15
679.07	1767.40
679.25	1681.38
679.44	1781.73
679.63	1632.23
679.81	1763.30
680.00	1781.73
680.18	1685.48
680.37	1783.78
680.55	1722.34
680.74	1701.86
680.93	1595.37
681.11	1718.25
681.30	1757.16
681.48	1796.07
681.67	1646.57
681.85	1808.36
682.04	1730.53
682.23	1775.59
682.41	1708.01
682.60	1660.90
682.78	1730.53
682.97	1697.77
683.15	1726.44
683.34	1695.72
683.53	1726.44
683.71	1593.32
683.90	1818.60
684.08	1798.12
684.27	1675.24
684.45	1728.49
684.64	1824.74
684.82	1742.82
685.01	1777.64
685.19	1679.33
685.38	1789.92
685.57	1722.34
685.75	1675.24
685.94	1679.33
686.12	1675.24
686.31	1617.90
686.49	1789.92
686.68	1656.81
686.86	1742.82
687.05	1730.53
687.23	1781.73
687.42	1679.33
687.60	1630.18
687.79	1839.08
687.97	1812.45
688.16	1814.50
688.34	1812.45
688.53	1646.57
688.71	1767.40
688.90	1863.65
689.08	1671.14
689.27	1656.81
689.45	1763.30
689.64	1718.25
689.82	1738.73
690.01	1757.16
690.19	1720.29
690.38	1701.86
690.56	1785.83
690.75	1701.86
690.93	1669.09
691.12	1679.33
691.30	1656.81
691.49	1763.30
691.67	1703.91
691.86	1863.65
692.04	1677.29
692.23	1695.72
692.41	1726.44
692.60	1869.80
692.78	1886.18
692.97	1718.25
693.15	1798.12
693.34	1869.80
693.52	1783.78
693.71	1652.71
693.89	1656.81
694.08	1724.39
694.26	1736.68
694.44	1665.00
694.63	1687.53
694.81	1691.62
695.00	1591.27
695.18	1822.69
695.37	1892.32
695.55	1734.63
695.74	1699.81
695.92	1648.61
696.10	1767.40
696.29	1644.52
696.47	1665.00
696.66	1716.20
696.84	1681.38
697.03	1681.38
697.21	1783.78
697.40	2316.25
697.58	1734.63
697.76	1718.25
697.95	1728.49
698.13	1675.24
698.32	1789.92
698.50	1738.73
698.68	1779.68
698.87	1710.05
699.05	1777.64
699.24	1714.15
699.42	1728.49
699.61	1683.43
699.79	1705.96
699.97	1734.63
700.16	1720.29
700.34	1583.08
700.53	1763.30
700.71	1849.32
700.89	1779.68
701.08	1753.06
701.26	1751.01
701.45	2127.84
701.63	1753.06
701.81	1718.25
702.00	1708.01
702.18	1763.30
702.37	1751.01
702.55	1845.22
702.73	1933.28
702.92	1771.49
703.10	1964.00
703.28	1910.75
703.47	1861.60
703.65	1916.90
703.84	1859.56
704.02	1822.69
704.20	1789.92
704.39	1767.40
704.57	1861.60
704.75	1849.32
704.94	1853.41
705.12	1853.41
705.30	1886.18
705.49	2467.80
705.67	5416.88
705.86	13596.46
706.04	19527.38
706.22	23146.14
706.41	25276.03
706.59	24913.54
706.77	19285.72
706.96	14006.06
707.14	11814.73
707.32	10248.04
707.51	9148.28
707.69	7839.62
707.87	6743.96
708.06	5566.38
708.24	4468.67
708.42	3319.76
708.61	2834.39
708.79	2265.05
708.97	2074.59
709.16	1984.48
709.34	1884.13
709.52	1755.11
709.71	1777.64
709.89	1810.40
710.07	1728.49
710.26	1724.39
710.44	1757.16
710.62	1802.21
710.80	1738.73
710.99	1734.63
711.17	1775.59
711.35	1722.34
711.54	1710.05
711.72	1810.40
711.90	1730.53
712.09	1818.60
712.27	1714.15
712.45	1740.77
712.63	1689.57
712.82	1720.29
713.00	1695.72
713.18	1730.53
713.37	1794.02
713.55	1654.76
713.73	1789.92
713.91	1732.58
714.10	1734.63
714.28	1738.73
714.46	1816.55
714.65	1837.03
714.83	1775.59
715.01	1705.96
715.19	1738.73
715.38	1728.49
715.56	1751.01
715.74	1675.24
715.92	1675.24
716.11	1724.39
716.29	1636.33
716.47	1695.72
716.65	1705.96
716.84	1656.81
717.02	1865.70
717.20	1650.66
717.38	1656.81
717.57	1781.73
717.75	1630.18
717.93	1691.62
718.11	1730.53
718.30	1652.71
718.48	1701.86
718.66	1775.59
718.84	1787.88
719.03	1675.24
719.21	1540.07
719.39	1859.56
719.57	1812.45
719.75	1746.92
719.94	1740.77
720.12	1701.86
720.30	1753.06
720.48	1748.97
720.67	1703.91
720.85	1677.29
721.03	1685.48
721.21	1654.76
721.39	1757.16
721.58	1738.73
721.76	1765.35
721.94	1767.40
722.12	1730.53
722.30	1820.64
722.49	1685.48
722.67	1710.05
722.85	1703.91
723.03	1652.71
723.21	1718.25
723.40	1767.40
723.58	1802.21
723.76	1800.16
723.94	1820.64
724.12	1798.12
724.30	1791.97
724.49	1880.04
724.67	1693.67
724.85	1873.89
725.03	1746.92
725.21	1789.92
725.40	1832.93
725.58	1732.58
725.76	1820.64
725.94	1736.68
726.12	1624.04
726.30	1654.76
726.49	1748.97
726.67	1753.06
726.85	1751.01
727.03	1822.69
727.21	2320.35
727.39	3401.68
727.57	4913.08
727.76	5724.07
727.94	6320.03
728.12	6381.47
728.30	5789.61
728.48	4454.33
728.66	3995.59
728.84	3495.88
729.03	3172.30
729.21	2746.33
729.39	2461.66
729.57	2125.79
729.75	2000.87
729.93	1912.80
730.11	1820.64
730.30	1800.16
730.48	1714.15
730.66	1789.92
730.84	1832.93
731.02	1748.97
731.20	1701.86
731.38	1789.92
731.56	1636.33
731.74	1611.75
731.93	1718.25
732.11	1689.57
732.29	1746.92
732.47	1710.05
732.65	1695.72
732.83	1718.25
733.01	1716.20
733.19	1660.90
733.37	1808.36
733.56	1683.43
733.74	1714.15
733.92	1839.08
734.10	1685.48
734.28	1740.77
734.46	1652.71
734.64	1714.15
734.82	1665.00
735.00	1656.81
735.18	1701.86
735.36	1732.58
735.54	1728.49
735.73	1765.35
735.91	1767.40
736.09	1787.88
736.27	1730.53
736.45	1843.17
736.63	1650.66
736.81	1701.86
736.99	1742.82
737.17	1775.59
737.35	1738.73
737.53	1722.34
737.71	1685.48
737.89	1638.38
738.07	1691.62
738.25	1701.86
738.43	1644.52
738.61	1691.62
738.80	1624.04
738.98	1646.57
739.16	1705.96
739.34	1685.48
739.52	1806.31
739.70	1685.48
739.88	1738.73
740.06	1753.06
740.24	1566.70
740.42	1767.40
740.60	1667.05
740.78	1642.47
740.96	1628.14
741.14	1683.43
741.32	1636.33
741.50	1656.81
741.68	1834.98
741.86	1826.79
742.04	1675.24
742.22	1738.73
742.40	1685.48
742.58	1796.07
742.76	1673.19
742.94	1746.92
743.12	1665.00
743.30	1691.62
743.48	1757.16
743.66	1693.67
743.84	1818.60
744.02	1652.71
744.20	1730.53
744.38	1597.42
744.56	1703.91
744.74	1843.17
744.92	1755.11
745.10	1791.97
745.28	1759.21
745.46	1785.83
745.64	1669.09
745.82	1710.05
746.00	1712.10
746.18	1718.25
746.36	1703.91
746.54	1703.91
746.72	1703.91
746.90	1581.03
747.08	1804.26
747.26	1675.24
747.44	1738.73
747.62	1722.34
747.80	1740.77
747.98	1775.59
748.15	1681.38
748.33	1775.59
748.51	1767.40
748.69	1796.07
748.87	1744.87
749.05	1755.11
749.23	1738.73
749.41	1753.06
749.59	1693.67
749.77	1800.16
749.95	1681.38
750.13	1658.85
750.31	1685.48
750.49	1755.11
750.67	1738.73
750.85	1736.68
751.03	1662.95
751.20	1818.60
751.38	1703.91
751.56	1720.29
751.74	1701.86
751.92	1738.73
752.10	1687.53
752.28	1730.53
752.46	1716.20
752.64	1718.25
752.82	1701.86
753.00	1796.07
753.18	1689.57
753.35	1673.19
753.53	1759.21
753.71	1695.72
753.89	1781.73
754.07	1681.38
754.25	1736.68
754.43	1812.45
754.61	1667.05
754.79	1742.82
754.97	1746.92
755.14	1748.97
755.32	1632.23
755.50	1677.29
755.68	1742.82
755.86	1628.14
756.04	1619.94
756.22	1595.37
756.40	1722.34
756.57	1851.36
756.75	1656.81
756.93	1773.54
757.11	1763.30
757.29	1607.66
757.47	1697.77
757.65	1728.49
757.82	1632.23
758.00	1654.76
758.18	1689.57
758.36	1730.53
758.54	1816.55
758.72	1683.43
758.90	1746.92
759.07	1681.38
759.25	1689.57
759.43	1675.24
759.61	1673.19
759.79	2248.67
759.97	1828.84
760.15	1720.29
760.32	1687.53
760.50	1695.72
760.68	1791.97
760.86	1593.32
761.04	1802.21
761.22	1695.72
761.39	1744.87
761.57	1681.38
761.75	1677.29
761.93	1724.39
762.11	1708.01
762.28	1632.23
762.46	1632.23
762.64	1810.40
762.82	1665.00
763.00	1703.91
763.18	1751.01
763.35	1699.81
763.53	1701.86
763.71	1746.92
763.89	1716.20
764.07	1730.53
764.24	1681.38
764.42	1744.87
764.60	1767.40
764.78	1628.14
764.96	1740.77
765.13	1812.45
765.31	1675.24
765.49	1742.82
765.67	1662.95
765.84	1646.57
766.02	1683.43
766.20	1621.99
766.38	1757.16
766.56	1781.73
766.73	1771.49
766.91	1718.25
767.09	1744.87
767.27	1785.83
767.44	1671.14
767.62	1742.82
767.80	1744.87
767.98	1677.29
768.15	1728.49
768.33	1695.72
768.51	1728.49
768.69	1685.48
768.87	1722.34
769.04	1660.90
769.22	1861.60
769.40	1806.31
769.58	1822.69
769.75	1730.53
769.93	1748.97
770.11	1744.87
770.28	1640.42
770.46	1652.71
770.64	1783.78
770.82	1765.35
770.99	1681.38
771.17	1740.77
771.35	1648.61
771.53	1726.44
771.70	1673.19
771.88	1753.06
772.06	1710.05
772.23	1697.77
772.41	1765.35
772.59	1726.44
772.77	1689.57
772.94	1662.95
773.12	1726.44
773.30	1681.38
773.47	1701.86
773.65	1705.96
773.83	1785.83
774.01	1708.01
774.18	1630.18
774.36	1705.96
774.54	1636.33
774.71	1628.14
774.89	1619.94
775.07	1730.53
775.24	1759.21
775.42	1656.81
775.60	1714.15
775.78	1621.99
775.95	1650.66
776.13	1589.22
776.31	1609.70
776.48	1757.16
776.66	1738.73
776.84	1677.29
777.01	1697.77
777.19	1621.99
777.37	1570.79
777.54	1730.53
777.72	1851.36
777.90	1767.40
778.07	1665.00
778.25	1812.45
778.43	1736.68
778.60	1652.71
778.78	1777.64
778.96	1769.44
779.13	1677.29
779.31	1730.53
779.49	1675.24
779.66	1716.20
779.84	1687.53
780.01	1662.95
780.19	1677.29
780.37	1810.40
780.54	1724.39
780.72	1656.81
780.90	1648.61
781.07	1730.53
781.25	1669.09
781.43	1773.54
781.60	1751.01
781.78	1794.02
781.95	1685.48
782.13	1636.33
782.31	1677.29
782.48	1638.38
782.66	1689.57
782.83	1755.11
783.01	1705.96
783.19	1779.68
783.36	1689.57
783.54	1728.49
783.72	1765.35
783.89	1619.94
784.07	1812.45
784.24	1734.63
784.42	1861.60
784.60	1712.10
784.77	1767.40
784.95	1611.75
785.12	1673.19
785.30	1636.33
785.47	1619.94
785.65	1591.27
785.83	1658.85
786.00	1634.28
786.18	1693.67
786.35	1665.00
786.53	1689.57
786.71	1861.60
786.88	1724.39
787.06	1705.96
787.23	1734.63
787.41	1634.28
787.58	1638.38
787.76	1665.00
787.94	1742.82
788.11	1761.25
788.29	1689.57
788.46	1665.00
788.64	1568.74
788.81	1595.37
788.99	1619.94
789.16	1646.57
789.34	1728.49
789.52	1658.85
789.69	1701.86
789.87	1578.98
790.04	1605.61
790.22	1658.85
790.39	1832.93
790.57	1673.19
790.74	1720.29
790.92	1716.20
791.09	1611.75
791.27	1763.30
791.44	1757.16
791.62	1730.53
791.79	1785.83
791.97	1701.86
792.15	1859.56
792.32	1753.06
792.50	1671.14
792.67	1710.05
792.85	1779.68
793.02	1708.01
793.20	1744.87
793.37	1597.42
793.55	1640.42
793.72	1644.52
793.90	1822.69
794.07	1638.38
794.25	1693.67
794.42	1710.05
794.60	1619.94
794.77	1710.05
794.95	1748.97
795.12	1728.49
795.30	1619.94
795.47	1646.57
795.65	1890.28
795.82	1734.63
796.00	1726.44
796.17	1636.33
796.34	1671.14
796.52	1695.72
796.69	1744.87
796.87	1738.73
797.04	1689.57
797.22	1748.97
797.39	1714.15
797.57	1720.29
797.74	1755.11
797.92	1695.72
798.09	1667.05
798.27	1650.66
798.44	1669.09
798.62	1644.52
798.79	1791.97
798.96	1763.30
799.14	1683.43
799.31	1775.59
799.49	1681.38
799.66	1736.68
799.84	1800.16
800.01	1619.94
800.19	1804.26
800.36	1638.38
800.53	1730.53
800.71	1798.12
800.88	1767.40
801.06	1644.52
801.23	1654.76
801.41	1675.24
801.58	1718.25
801.75	1665.00
801.93	1787.88
802.10	1710.05
802.28	1734.63
802.45	1677.29
802.63	1736.68
802.80	1824.74
802.97	1583.08
803.15	1699.81
803.32	1689.57
803.50	1619.94
803.67	1640.42
803.84	1648.61
804.02	1746.92
804.19	1716.20
804.37	1578.98
804.54	1695.72
804.71	1687.53
804.89	1728.49
805.06	1605.61
805.24	1716.20
805.41	1554.41
805.58	1746.92
805.76	1910.75
805.93	1724.39
806.10	1714.15
806.28	1755.11
806.45	1777.64
806.63	1767.40
806.80	1783.78
806.97	1681.38
807.15	1722.34
807.32	1677.29
807.49	1665.00
807.67	1669.09
807.84	1746.92
808.01	1689.57
808.19	1863.65
808.36	1816.55
808.54	1685.48
808.71	1595.37
808.88	1667.05
809.06	1705.96
809.23	1787.88
809.40	1718.25
809.58	1794.02
809.75	1617.90
809.92	1624.04
810.10	1841.12
810.27	1697.77
810.44	1658.85
810.62	1740.77
810.79	1691.62
810.96	1798.12
811.14	1675.24
811.31	1720.29
811.48	1738.73
811.66	1724.39
811.83	1781.73
812.00	1732.58
812.18	1710.05
812.35	1822.69
812.52	1693.67
812.69	1669.09
812.87	1671.14
813.04	1609.70
813.21	1730.53
813.39	1599.46
813.56	1628.14
813.73	1724.39
813.91	1617.90
814.08	1765.35
814.25	1751.01
814.42	1642.47
814.60	1759.21
814.77	1640.42
814.94	1734.63
815.12	1710.05
815.29	1796.07
815.46	1621.99
815.63	1775.59
815.81	1720.29
815.98	1722.34
816.15	1716.20
816.33	1722.34
816.50	1710.05
816.67	1748.97
816.84	1697.77
817.02	1587.18
817.19	1710.05
817.36	1658.85
817.53	1636.33
817.71	1673.19
817.88	1677.29
818.05	1632.23
818.22	1712.10
818.40	1796.07
818.57	1683.43
818.74	1718.25
818.91	1697.77
819.09	1789.92
819.26	1763.30
819.43	1677.29
819.60	1601.51
819.78	1660.90
819.95	1791.97
820.12	1607.66
820.29	1738.73
820.47	1759.21
820.64	1665.00
820.81	1656.81
820.98	1677.29
821.15	1726.44
821.33	1718.25
821.50	1585.13
821.67	1759.21
821.84	1675.24
822.02	1726.44
822.19	1828.84
822.36	1646.57
822.53	1671.14
822.70	1677.29
822.88	1744.87
823.05	1869.80
823.22	1722.34
823.39	1781.73
823.56	1744.87
823.74	1861.60
823.91	1634.28
824.08	1718.25
824.25	1712.10
824.42	1800.16
824.60	1662.95
824.77	1689.57
824.94	1728.49
825.11	1697.77
825.28	1611.75
825.45	1640.42
825.63	1691.62
825.80	1734.63
825.97	1814.50
826.14	1744.87
826.31	1578.98
826.48	1685.48
826.66	1650.66
826.83	1607.66
827.00	1708.01
827.17	1648.61
827.34	1740.77
827.51	1689.57
827.69	1734.63
827.86	1624.04
828.03	1687.53
828.20	1683.43
828.37	1712.10
828.54	1742.82
828.71	1609.70
828.89	1888.23
829.06	1730.53
829.23	1812.45
829.40	1619.94
829.57	1722.34
829.74	1685.48
829.91	1626.09
830.09	1658.85
830.26	1796.07
830.43	1751.01
830.60	1732.58
830.77	1714.15
830.94	1779.68
831.11	1746.92
831.28	1599.46
831.46	1783.78
831.63	1646.57
831.80	1822.69
831.97	1734.63
832.14	1718.25
832.31	1822.69
832.48	1642.47
832.65	1691.62
832.82	1775.59
832.99	1785.83
833.17	1681.38
833.34	1773.54
833.51	1753.06
833.68	1632.23
833.85	1775.59
834.02	1615.85
834.19	1646.57
834.36	1648.61
834.53	1775.59
834.70	1716.20
834.87	1679.33
835.04	1769.44
835.22	1703.91
835.39	1658.85
835.56	1628.14
835.73	1757.16
835.90	1787.88
836.07	1626.09
836.24	1734.63
836.41	1654.76
836.58	1599.46
836.75	1748.97
836.92	1757.16
837.09	1710.05
837.26	1771.49
837.43	1658.85
837.60	1742.82
837.77	1611.75
837.94	1769.44
838.12	1816.55
838.29	1732.58
838.46	1660.90
838.63	1683.43
838.80	1808.36
838.97	1734.63
839.14	1714.15
839.31	1759.21
839.48	1687.53
839.65	1759.21
839.82	1726.44
839.99	1603.56
840.16	1671.14
840.33	1695.72
840.50	1736.68
840.67	1628.14
840.84	1613.80
841.01	1685.48
841.18	1656.81
841.35	1814.50
841.52	1746.92
841.69	1771.49
841.86	1673.19
842.03	1720.29
842.20	1755.11
842.37	1640.42
842.54	1693.67
842.71	1724.39
842.88	1624.04
843.05	1710.05
843.22	1740.77
843.39	1734.63
843.56	1646.57
843.73	1701.86
843.90	1753.06
844.07	1660.90
844.24	1710.05
844.41	1703.91
844.58	1667.05
844.75	1624.04
844.92	1683.43
845.09	1720.29
845.26	1703.91
845.43	1726.44
845.60	1644.52
845.77	1773.54
845.94	1693.67
846.10	1810.40
846.27	1607.66
846.44	1640.42
846.61	1671.14
846.78	1708.01
846.95	1806.31
847.12	1671.14
847.29	1671.14
847.46	1695.72
847.63	1740.77
847.80	1693.67
847.97	1710.05
848.14	1853.41
848.31	1673.19
848.48	1695.72
848.65	1724.39
848.82	1628.14
848.98	1818.60
849.15	1685.48
849.32	1751.01
849.49	1724.39
849.66	1705.96
849.83	1755.11
850.00	1701.86
850.17	1744.87
850.34	1755.11
850.51	1605.61
850.68	1689.57
850.85	1800.16
851.01	1695.72
851.18	1732.58
851.35	1658.85
851.52	1732.58
851.69	1738.73
851.86	1607.66
852.03	1665.00
852.20	1802.21
852.37	1712.10
852.53	1646.57
852.70	1689.57
852.87	1718.25
853.04	1794.02
853.21	1656.81
853.38	1693.67
853.55	1738.73
853.72	1779.68
853.89	1662.95
854.05	1710.05
854.22	1656.81
854.39	1699.81
854.56	1689.57
854.73	1763.30
854.90	1624.04
855.07	1689.57
855.23	1681.38
855.40	1736.68
855.57	1650.66
855.74	1568.74
855.91	1869.80
856.08	1562.60
856.25	1585.13
856.41	1679.33
856.58	1728.49
856.75	1732.58
856.92	1587.18
857.09	1761.25
857.26	1634.28
857.42	1607.66
857.59	1767.40
857.76	1681.38
857.93	1763.30
858.10	1662.95
858.27	1589.22
858.43	1730.53
858.60	1611.75
858.77	1560.55
858.94	1656.81
859.11	1697.77
859.27	1673.19
859.44	1603.56
859.61	1800.16
859.78	1701.86
859.95	1710.05
860.12	1755.11
860.28	1761.25
860.45	1880.04
860.62	1732.58
860.79	1675.24
860.95	1718.25
861.12	1708.01
861.29	1638.38
861.46	1660.90
861.63	1673.19
861.79	1763.30
861.96	1681.38
862.13	1660.90
862.30	1746.92
862.47	1665.00
862.63	1665.00
862.80	1791.97
862.97	1714.15
863.14	1783.78
863.30	1734.63
863.47	1597.42
863.64	1849.32
863.81	1697.77
863.97	1714.15
864.14	1736.68
864.31	1677.29
864.48	1689.57
864.65	1751.01
864.81	1775.59
864.98	1759.21
865.15	1810.40
865.32	1716.20
865.48	1718.25
865.65	1789.92
865.82	1621.99
865.98	1726.44
866.15	1767.40
866.32	1710.05
866.49	1705.96
866.65	1785.83
866.82	1681.38
866.99	1714.15
867.16	1628.14
867.32	1648.61
867.49	1773.54
867.66	1660.90
867.83	1673.19
867.99	1638.38
868.16	1687.53
868.33	1591.27
868.49	1673.19
868.66	1578.98
868.83	1771.49
868.99	1732.58
869.16	1724.39
869.33	1791.97
869.50	1708.01
869.66	1742.82
869.83	1714.15
870.00	1660.90
870.16	1787.88
870.33	1701.86
870.50	1742.82
870.66	1693.67
870.83	1808.36
871.00	1669.09
871.17	1685.48
871.33	1736.68
871.50	1734.63
871.67	1697.77
871.83	1546.22
872.00	1759.21
872.17	1687.53
872.33	1767.40
872.50	1796.07
872.67	1751.01
872.83	1685.48
873.00	1787.88
873.17	1716.20
873.33	1708.01
873.50	1787.88
873.67	1660.90
873.83	1673.19
874.00	1648.61
874.16	1751.01
874.33	1783.78
874.50	1656.81
874.66	1753.06
874.83	1675.24
875.00	1830.88
875.16	1740.77
875.33	1796.07
875.50	1591.27
875.66	1693.67
875.83	1720.29
875.99	1705.96
876.16	1716.20
876.33	1578.98
876.49	1691.62
876.66	1742.82
876.83	1691.62
876.99	1665.00
877.16	1712.10
877.32	1714.15
877.49	1630.18
877.66	1714.15
877.82	1779.68
877.99	1693.67
878.15	1724.39
878.32	1722.34
878.49	1781.73
878.65	1710.05
878.82	1798.12
878.98	1669.09
879.15	1771.49
879.32	1746.92
879.48	1691.62
879.65	1734.63
879.81	1753.06
879.98	1644.52
880.15	1716.20
880.31	1718.25
880.48	1628.14
880.64	1708.01
880.81	1806.31
880.97	1769.44
881.14	1683.43
881.31	1642.47
881.47	1853.41
881.64	1699.81
881.80	1638.38
881.97	1742.82
882.13	1775.59
882.30	1595.37
882.47	1570.79
882.63	1736.68
882.80	1712.10
882.96	1695.72
883.13	1685.48
883.29	1716.20
883.46	1675.24
883.62	1757.16
883.79	1638.38
883.95	1705.96
884.12	1640.42
884.29	1826.79
884.45	1724.39
884.62	1722.34
884.78	1665.00
884.95	1714.15
885.11	1644.52
885.28	1701.86
885.44	1732.58
885.61	1658.85
885.77	1738.73
885.94	1759.21
886.10	1738.73
886.27	1718.25
886.43	1808.36
886.60	1804.26
886.76	1642.47
886.93	1628.14
887.09	1705.96
887.26	1685.48
887.42	1734.63
887.59	1820.64
887.75	1865.70
887.92	1728.49
888.08	1665.00
888.25	1777.64
888.41	1796.07
888.58	1724.39
888.74	1642.47
888.91	1662.95
>>>>>End Processed Spectral Data<<<<<
