SpectraSuite Data File
++++++++++++++++++++++++++++++++++++
Date: Wed May 04 18:44:26 CEST 2016
User: root
Dark Spectrum Present: No
Reference Spectrum Present: No
Number of Sampled Component Spectra: 1
Spectrometers: USB4C02835
Integration Time (usec): 100000 (USB4C02835)
Spectra Averaged: 1 (USB4C02835)
Boxcar Smoothing: 0 (USB4C02835)
Correct for Electrical Dark: No (USB4C02835)
Strobe/Lamp Enabled: No (USB4C02835)
Correct for Detector Non-linearity: No (USB4C02835)
Correct for Stray Light: No (USB4C02835)
Number of Pixels in Processed Spectrum: 3648
>>>>>Begin Processed Spectral Data<<<<<
177.47	1417.19
177.69	1417.19
177.91	1417.19
178.13	1419.24
178.36	1411.05
178.58	1634.28
178.80	1710.05
179.02	1687.53
179.24	1626.09
179.46	1636.33
179.68	1773.54
179.90	1673.19
180.13	1703.91
180.35	1714.15
180.57	1697.77
180.79	1800.16
181.01	1644.52
181.23	1816.55
181.45	1746.92
181.67	1712.10
181.90	1722.34
182.12	1718.25
182.34	1626.09
182.56	1789.92
182.78	1693.67
183.00	1718.25
183.22	1822.69
183.44	1613.80
183.66	1861.60
183.89	1818.60
184.11	1712.10
184.33	1730.53
184.55	1798.12
184.77	1763.30
184.99	1699.81
185.21	1769.44
185.43	1855.46
185.65	1640.42
185.87	1708.01
186.10	1820.64
186.32	1888.23
186.54	1767.40
186.76	1730.53
186.98	1802.21
187.20	1671.14
187.42	1748.97
187.64	1767.40
187.86	1697.77
188.08	1744.87
188.30	1658.85
188.52	1683.43
188.75	1740.77
188.97	1779.68
189.19	1695.72
189.41	1738.73
189.63	1748.97
189.85	1718.25
190.07	1677.29
190.29	1583.08
190.51	1763.30
190.73	1669.09
190.95	1748.97
191.17	1615.85
191.39	1619.94
191.61	1687.53
191.84	1650.66
192.06	1757.16
192.28	1679.33
192.50	1882.08
192.72	1796.07
192.94	1695.72
193.16	1769.44
193.38	1732.58
193.60	1693.67
193.82	1665.00
194.04	1705.96
194.26	1759.21
194.48	1708.01
194.70	1656.81
194.92	1648.61
195.14	1826.79
195.36	1687.53
195.58	1697.77
195.80	1630.18
196.02	1619.94
196.24	1693.67
196.46	1810.40
196.69	1591.27
196.91	1865.70
197.13	1705.96
197.35	1636.33
197.57	1828.84
197.79	1748.97
198.01	1732.58
198.23	1740.77
198.45	1716.20
198.67	1566.70
198.89	1665.00
199.11	1675.24
199.33	1720.29
199.55	1624.04
199.77	1665.00
199.99	1822.69
200.21	1679.33
200.43	1740.77
200.65	1632.23
200.87	1640.42
201.09	1794.02
201.31	1728.49
201.53	1722.34
201.75	1677.29
201.97	1693.67
202.19	1675.24
202.41	1697.77
202.63	1841.12
202.85	1761.25
203.07	1781.73
203.29	1695.72
203.51	1646.57
203.73	1701.86
203.95	1898.47
204.17	1693.67
204.39	1701.86
204.61	1710.05
204.83	1724.39
205.05	1759.21
205.27	1839.08
205.49	1796.07
205.71	1732.58
205.93	1681.38
206.15	1574.89
206.37	1697.77
206.59	1695.72
206.81	1767.40
207.03	1677.29
207.25	1630.18
207.47	1730.53
207.69	1732.58
207.91	1791.97
208.13	1851.36
208.34	1714.15
208.56	1685.48
208.78	1751.01
209.00	1708.01
209.22	1681.38
209.44	1689.57
209.66	1746.92
209.88	1705.96
210.10	1683.43
210.32	1730.53
210.54	1818.60
210.76	1759.21
210.98	1765.35
211.20	1646.57
211.42	1714.15
211.64	1779.68
211.86	1699.81
212.08	1701.86
212.30	1726.44
212.52	1687.53
212.74	1783.78
212.96	1722.34
213.17	1675.24
213.39	1732.58
213.61	1755.11
213.83	1759.21
214.05	1671.14
214.27	1724.39
214.49	1603.56
214.71	1701.86
214.93	1748.97
215.15	1714.15
215.37	1759.21
215.59	1570.79
215.81	1738.73
216.03	1771.49
216.24	1746.92
216.46	1691.62
216.68	1697.77
216.90	1849.32
217.12	1853.41
217.34	1722.34
217.56	1693.67
217.78	1791.97
218.00	1759.21
218.22	1744.87
218.44	1755.11
218.66	1665.00
218.87	1845.22
219.09	1638.38
219.31	1722.34
219.53	1767.40
219.75	1683.43
219.97	1695.72
220.19	1826.79
220.41	1615.85
220.63	1796.07
220.85	1720.29
221.06	1685.48
221.28	1767.40
221.50	1718.25
221.72	1648.61
221.94	1687.53
222.16	1736.68
222.38	1751.01
222.60	1716.20
222.82	1697.77
223.03	1722.34
223.25	1585.13
223.47	1785.83
223.69	1847.27
223.91	1759.21
224.13	1689.57
224.35	1675.24
224.57	1767.40
224.78	1710.05
225.00	1634.28
225.22	1736.68
225.44	1757.16
225.66	1665.00
225.88	1648.61
226.10	1710.05
226.32	1738.73
226.53	1812.45
226.75	1710.05
226.97	1714.15
227.19	1693.67
227.41	1638.38
227.63	1701.86
227.85	1613.80
228.06	1748.97
228.28	1796.07
228.50	1730.53
228.72	1687.53
228.94	1685.48
229.16	1640.42
229.37	1583.08
229.59	1597.42
229.81	1755.11
230.03	1693.67
230.25	1626.09
230.47	1621.99
230.69	1714.15
230.90	1726.44
231.12	1638.38
231.34	1683.43
231.56	1718.25
231.78	1669.09
232.00	1712.10
232.21	1671.14
232.43	1675.24
232.65	1626.09
232.87	1708.01
233.09	1662.95
233.30	1607.66
233.52	1712.10
233.74	1660.90
233.96	1628.14
234.18	1736.68
234.40	1736.68
234.61	1832.93
234.83	1671.14
235.05	1591.27
235.27	1830.88
235.49	1802.21
235.70	1753.06
235.92	1748.97
236.14	1794.02
236.36	1935.33
236.58	1640.42
236.79	1738.73
237.01	1746.92
237.23	1726.44
237.45	1800.16
237.67	1662.95
237.88	1695.72
238.10	1884.13
238.32	1626.09
238.54	1726.44
238.76	1722.34
238.97	1665.00
239.19	1658.85
239.41	1724.39
239.63	1728.49
239.85	1681.38
240.06	1662.95
240.28	1724.39
240.50	1738.73
240.72	1685.48
240.93	1691.62
241.15	1783.78
241.37	1687.53
241.59	1794.02
241.81	1667.05
242.02	1724.39
242.24	1703.91
242.46	1628.14
242.68	1617.90
242.89	1689.57
243.11	1755.11
243.33	1673.19
243.55	1738.73
243.76	1689.57
243.98	1689.57
244.20	1751.01
244.42	1742.82
244.64	1771.49
244.85	1646.57
245.07	1685.48
245.29	1837.03
245.51	1701.86
245.72	1705.96
245.94	1728.49
246.16	1716.20
246.38	1761.25
246.59	1624.04
246.81	1607.66
247.03	1632.23
247.24	1667.05
247.46	1722.34
247.68	1708.01
247.90	1705.96
248.11	1665.00
248.33	1769.44
248.55	1662.95
248.77	1804.26
248.98	1693.67
249.20	1804.26
249.42	1705.96
249.64	1742.82
249.85	1718.25
250.07	1646.57
250.29	1718.25
250.50	1667.05
250.72	1636.33
250.94	1751.01
251.16	1740.77
251.37	1763.30
251.59	1732.58
251.81	1652.71
252.02	1855.46
252.24	1671.14
252.46	1759.21
252.68	1679.33
252.89	1738.73
253.11	1578.98
253.33	1800.16
253.54	1710.05
253.76	1611.75
253.98	1761.25
254.20	1701.86
254.41	1660.90
254.63	1724.39
254.85	1634.28
255.06	1730.53
255.28	1802.21
255.50	1650.66
255.71	1679.33
255.93	1640.42
256.15	1689.57
256.36	1746.92
256.58	1691.62
256.80	1724.39
257.02	1691.62
257.23	1619.94
257.45	1662.95
257.67	1724.39
257.88	1699.81
258.10	1708.01
258.32	1683.43
258.53	1718.25
258.75	1847.27
258.97	1675.24
259.18	1665.00
259.40	1660.90
259.62	1738.73
259.83	1720.29
260.05	1751.01
260.27	1976.29
260.48	1832.93
260.70	1665.00
260.92	1669.09
261.13	1740.77
261.35	1763.30
261.57	1761.25
261.78	1581.03
262.00	1748.97
262.22	1701.86
262.43	1636.33
262.65	1654.76
262.86	1730.53
263.08	1857.51
263.30	1708.01
263.51	1644.52
263.73	1660.90
263.95	1746.92
264.16	1644.52
264.38	1644.52
264.60	1699.81
264.81	1624.04
265.03	1789.92
265.25	1751.01
265.46	1734.63
265.68	1789.92
265.89	1775.59
266.11	1654.76
266.33	1714.15
266.54	1759.21
266.76	1695.72
266.98	1734.63
267.19	1806.31
267.41	1742.82
267.62	1683.43
267.84	1646.57
268.06	1738.73
268.27	1691.62
268.49	1679.33
268.70	1816.55
268.92	1675.24
269.14	1599.46
269.35	1665.00
269.57	1738.73
269.79	1718.25
270.00	1656.81
270.22	1814.50
270.43	1660.90
270.65	1628.14
270.87	1708.01
271.08	1818.60
271.30	1744.87
271.51	1679.33
271.73	1732.58
271.95	1763.30
272.16	1742.82
272.38	1660.90
272.59	1648.61
272.81	1728.49
273.02	1730.53
273.24	1732.58
273.46	1839.08
273.67	1601.51
273.89	1687.53
274.10	1593.32
274.32	1800.16
274.54	1640.42
274.75	1701.86
274.97	1683.43
275.18	1736.68
275.40	1640.42
275.61	1718.25
275.83	1660.90
276.05	1654.76
276.26	1724.39
276.48	1748.97
276.69	1693.67
276.91	1730.53
277.12	1824.74
277.34	1798.12
277.55	1781.73
277.77	1648.61
277.99	1732.58
278.20	1656.81
278.42	1593.32
278.63	1736.68
278.85	1757.16
279.06	1636.33
279.28	1718.25
279.49	1791.97
279.71	1714.15
279.93	1697.77
280.14	1710.05
280.36	1642.47
280.57	1798.12
280.79	1761.25
281.00	1667.05
281.22	1660.90
281.43	1791.97
281.65	1593.32
281.86	1701.86
282.08	1697.77
282.29	1875.94
282.51	1607.66
282.73	1701.86
282.94	1597.42
283.16	1765.35
283.37	1714.15
283.59	1683.43
283.80	1673.19
284.02	1775.59
284.23	1699.81
284.45	1705.96
284.66	1679.33
284.88	1710.05
285.09	1761.25
285.31	1755.11
285.52	1748.97
285.74	1634.28
285.95	1757.16
286.17	1708.01
286.38	1787.88
286.60	1638.38
286.81	1656.81
287.03	1710.05
287.24	1683.43
287.46	1734.63
287.67	1748.97
287.89	1763.30
288.10	1740.77
288.32	1769.44
288.53	1773.54
288.75	1740.77
288.96	1755.11
289.18	1683.43
289.39	1669.09
289.61	1753.06
289.82	1832.93
290.04	1763.30
290.25	1630.18
290.47	1720.29
290.68	1671.14
290.90	1818.60
291.11	1621.99
291.33	1746.92
291.54	1652.71
291.76	1681.38
291.97	1683.43
292.18	1724.39
292.40	1703.91
292.61	1718.25
292.83	1771.49
293.04	1826.79
293.26	1767.40
293.47	1722.34
293.69	1658.85
293.90	1679.33
294.12	1826.79
294.33	1683.43
294.55	1744.87
294.76	1736.68
294.97	1767.40
295.19	1841.12
295.40	1714.15
295.62	1712.10
295.83	1742.82
296.05	1675.24
296.26	1845.22
296.48	1689.57
296.69	1734.63
296.90	1673.19
297.12	1734.63
297.33	1781.73
297.55	1736.68
297.76	1722.34
297.98	1724.39
298.19	1748.97
298.41	1656.81
298.62	1656.81
298.83	1775.59
299.05	1769.44
299.26	1710.05
299.48	1710.05
299.69	1781.73
299.90	1701.86
300.12	1624.04
300.33	1691.62
300.55	1665.00
300.76	1755.11
300.98	1624.04
301.19	1757.16
301.40	1673.19
301.62	1671.14
301.83	1746.92
302.05	1748.97
302.26	1726.44
302.47	1751.01
302.69	1679.33
302.90	1746.92
303.12	1619.94
303.33	1748.97
303.54	1804.26
303.76	1681.38
303.97	1673.19
304.19	1740.77
304.40	1642.47
304.61	1804.26
304.83	1826.79
305.04	1763.30
305.26	1744.87
305.47	1783.78
305.68	1648.61
305.90	1720.29
306.11	1695.72
306.33	1689.57
306.54	1648.61
306.75	1728.49
306.97	1615.85
307.18	1632.23
307.39	1673.19
307.61	1732.58
307.82	1685.48
308.04	1748.97
308.25	1607.66
308.46	1665.00
308.68	1683.43
308.89	1646.57
309.10	1763.30
309.32	1738.73
309.53	1722.34
309.74	1699.81
309.96	1673.19
310.17	1724.39
310.39	1644.52
310.60	1738.73
310.81	1693.67
311.03	1634.28
311.24	1759.21
311.45	1683.43
311.67	1763.30
311.88	1675.24
312.09	1708.01
312.31	1619.94
312.52	1705.96
312.73	1710.05
312.95	1658.85
313.16	1701.86
313.37	1732.58
313.59	1708.01
313.80	1769.44
314.01	1818.60
314.23	1708.01
314.44	1632.23
314.65	1619.94
314.87	1714.15
315.08	1646.57
315.29	1677.29
315.51	1601.51
315.72	1689.57
315.93	1818.60
316.15	1730.53
316.36	1675.24
316.57	1779.68
316.79	1738.73
317.00	1691.62
317.21	1783.78
317.43	1667.05
317.64	1755.11
317.85	1652.71
318.07	1658.85
318.28	1824.74
318.49	1865.70
318.70	2015.20
318.92	1880.04
319.13	1834.98
319.34	1906.66
319.56	1789.92
319.77	1837.03
319.98	1837.03
320.20	1804.26
320.41	1775.59
320.62	1806.31
320.83	1703.91
321.05	1855.46
321.26	1759.21
321.47	1691.62
321.69	1808.36
321.90	1619.94
322.11	1679.33
322.32	1720.29
322.54	1841.12
322.75	1650.66
322.96	1832.93
323.18	1677.29
323.39	1601.51
323.60	1734.63
323.81	1718.25
324.03	1665.00
324.24	1734.63
324.45	1796.07
324.66	1660.90
324.88	1814.50
325.09	1863.65
325.30	1667.05
325.52	1832.93
325.73	1667.05
325.94	1632.23
326.15	1617.90
326.37	1613.80
326.58	1804.26
326.79	1791.97
327.00	1595.37
327.22	1691.62
327.43	1613.80
327.64	1679.33
327.85	1759.21
328.07	1644.52
328.28	1812.45
328.49	1705.96
328.70	1687.53
328.92	1656.81
329.13	1697.77
329.34	1716.20
329.55	1814.50
329.76	1742.82
329.98	1685.48
330.19	1796.07
330.40	1722.34
330.61	1689.57
330.83	1820.64
331.04	1667.05
331.25	1718.25
331.46	1705.96
331.68	1642.47
331.89	1730.53
332.10	1728.49
332.31	1634.28
332.52	1658.85
332.74	1763.30
332.95	1669.09
333.16	1722.34
333.37	1705.96
333.58	1665.00
333.80	1710.05
334.01	1673.19
334.22	1660.90
334.43	1548.26
334.64	1675.24
334.86	1648.61
335.07	1722.34
335.28	1771.49
335.49	1669.09
335.70	1675.24
335.92	1765.35
336.13	1812.45
336.34	1783.78
336.55	1714.15
336.76	1708.01
336.98	1605.61
337.19	1701.86
337.40	1789.92
337.61	1841.12
337.82	1658.85
338.04	1845.22
338.25	1624.04
338.46	1695.72
338.67	1679.33
338.88	1701.86
339.09	1701.86
339.31	1611.75
339.52	1613.80
339.73	1574.89
339.94	1689.57
340.15	1722.34
340.36	1732.58
340.58	1714.15
340.79	1689.57
341.00	1816.55
341.21	1640.42
341.42	1755.11
341.63	1804.26
341.85	1761.25
342.06	1679.33
342.27	1703.91
342.48	1732.58
342.69	1593.32
342.90	1740.77
343.12	1763.30
343.33	1685.48
343.54	1732.58
343.75	1738.73
343.96	1710.05
344.17	1701.86
344.38	1589.22
344.60	1607.66
344.81	1671.14
345.02	1708.01
345.23	1806.31
345.44	1822.69
345.65	1785.83
345.86	1773.54
346.07	1675.24
346.29	1699.81
346.50	1779.68
346.71	1761.25
346.92	1705.96
347.13	1771.49
347.34	1607.66
347.55	1779.68
347.76	1822.69
347.98	1630.18
348.19	1771.49
348.40	1822.69
348.61	1681.38
348.82	1759.21
349.03	1824.74
349.24	1632.23
349.45	1769.44
349.66	1642.47
349.88	1701.86
350.09	1673.19
350.30	1730.53
350.51	1748.97
350.72	1695.72
350.93	1732.58
351.14	1617.90
351.35	1746.92
351.56	1753.06
351.77	1658.85
351.99	1785.83
352.20	1830.88
352.41	1802.21
352.62	1642.47
352.83	1677.29
353.04	1652.71
353.25	1732.58
353.46	1746.92
353.67	1796.07
353.88	1691.62
354.09	1753.06
354.30	1669.09
354.52	1787.88
354.73	1658.85
354.94	1744.87
355.15	1781.73
355.36	1777.64
355.57	1728.49
355.78	1730.53
355.99	1689.57
356.20	1748.97
356.41	1839.08
356.62	1726.44
356.83	1636.33
357.04	1773.54
357.25	1609.70
357.46	1720.29
357.68	1654.76
357.89	1714.15
358.10	1712.10
358.31	1695.72
358.52	1685.48
358.73	1671.14
358.94	1675.24
359.15	1656.81
359.36	1798.12
359.57	1683.43
359.78	1693.67
359.99	1685.48
360.20	1634.28
360.41	1710.05
360.62	1771.49
360.83	1636.33
361.04	1720.29
361.25	1722.34
361.46	1779.68
361.67	1736.68
361.88	1744.87
362.09	1794.02
362.30	1744.87
362.51	1703.91
362.72	1603.56
362.93	1832.93
363.14	1726.44
363.35	1761.25
363.56	1755.11
363.78	1761.25
363.99	1751.01
364.20	1675.24
364.41	1669.09
364.62	1798.12
364.83	1714.15
365.04	1722.34
365.25	1738.73
365.46	1832.93
365.67	1685.48
365.88	1759.21
366.09	1644.52
366.30	1726.44
366.51	1650.66
366.72	1677.29
366.93	1671.14
367.14	1646.57
367.35	1710.05
367.56	1701.86
367.77	1751.01
367.98	1665.00
368.18	1742.82
368.39	1726.44
368.60	1617.90
368.81	1822.69
369.02	1744.87
369.23	1695.72
369.44	1703.91
369.65	1677.29
369.86	1738.73
370.07	1761.25
370.28	1611.75
370.49	1734.63
370.70	1773.54
370.91	1638.38
371.12	1658.85
371.33	1738.73
371.54	1744.87
371.75	1843.17
371.96	1572.84
372.17	1755.11
372.38	1675.24
372.59	1667.05
372.80	1765.35
373.01	1654.76
373.22	1742.82
373.43	1691.62
373.64	1763.30
373.85	1834.98
374.06	1783.78
374.26	1738.73
374.47	1751.01
374.68	1775.59
374.89	1751.01
375.10	1671.14
375.31	1755.11
375.52	1724.39
375.73	1699.81
375.94	1742.82
376.15	1718.25
376.36	1689.57
376.57	1648.61
376.78	1716.20
376.99	1769.44
377.20	1718.25
377.40	1665.00
377.61	1828.84
377.82	1619.94
378.03	1779.68
378.24	1822.69
378.45	1771.49
378.66	1720.29
378.87	1609.70
379.08	1669.09
379.29	1695.72
379.50	1771.49
379.71	1697.77
379.91	1708.01
380.12	1685.48
380.33	1656.81
380.54	1648.61
380.75	1675.24
380.96	1642.47
381.17	1777.64
381.38	1673.19
381.59	1783.78
381.80	1837.03
382.00	1855.46
382.21	1800.16
382.42	1933.28
382.63	1898.47
382.84	1738.73
383.05	1761.25
383.26	1800.16
383.47	1771.49
383.68	1724.39
383.88	1810.40
384.09	1738.73
384.30	1783.78
384.51	1730.53
384.72	1652.71
384.93	1636.33
385.14	1699.81
385.35	1791.97
385.55	1578.98
385.76	1753.06
385.97	1710.05
386.18	1662.95
386.39	1708.01
386.60	1726.44
386.81	1671.14
387.02	1763.30
387.22	1744.87
387.43	1765.35
387.64	1796.07
387.85	1943.52
388.06	2234.33
388.27	4665.27
388.48	9054.07
388.68	11562.83
388.89	13504.31
389.10	13977.39
389.31	11824.97
389.52	9920.36
389.73	8478.59
389.93	7776.14
390.14	7292.82
390.35	6700.95
390.56	5867.43
390.77	5015.48
390.98	3891.14
391.18	3028.95
391.39	2334.68
391.60	1994.72
391.81	1880.04
392.02	1714.15
392.23	1814.50
392.43	1767.40
392.64	1800.16
392.85	1683.43
393.06	1734.63
393.27	1677.29
393.47	1732.58
393.68	1701.86
393.89	1734.63
394.10	1824.74
394.31	1624.04
394.52	1671.14
394.72	1642.47
394.93	1789.92
395.14	1701.86
395.35	1732.58
395.56	1646.57
395.76	1701.86
395.97	1802.21
396.18	1925.09
396.39	1867.75
396.60	2133.98
396.80	1955.81
397.01	1947.62
397.22	1892.32
397.43	1880.04
397.64	1849.32
397.84	1814.50
398.05	1882.08
398.26	1716.20
398.47	1843.17
398.67	1869.80
398.88	1720.29
399.09	1720.29
399.30	1669.09
399.51	1787.88
399.71	1587.18
399.92	1728.49
400.13	1744.87
400.34	1681.38
400.54	1646.57
400.75	1818.60
400.96	1705.96
401.17	1871.84
401.37	1687.53
401.58	1710.05
401.79	1738.73
402.00	1880.04
402.21	2144.22
402.41	2078.69
402.62	2230.24
402.83	2224.09
403.04	2090.98
403.24	2215.90
403.45	1918.95
403.66	1927.14
403.87	1867.75
404.07	1970.15
404.28	1959.91
404.49	1943.52
404.70	1712.10
404.90	1843.17
405.11	1814.50
405.32	1779.68
405.52	1656.81
405.73	1662.95
405.94	1658.85
406.15	1718.25
406.35	1710.05
406.56	1728.49
406.77	1761.25
406.98	1787.88
407.18	1712.10
407.39	1890.28
407.60	1720.29
407.80	1718.25
408.01	1689.57
408.22	1798.12
408.43	1695.72
408.63	1722.34
408.84	1773.54
409.05	1753.06
409.25	1644.52
409.46	1642.47
409.67	1660.90
409.88	1679.33
410.08	1687.53
410.29	1642.47
410.50	1722.34
410.70	1791.97
410.91	1605.61
411.12	1791.97
411.32	1675.24
411.53	1634.28
411.74	1806.31
411.95	1812.45
412.15	1845.22
412.36	1732.58
412.57	1886.18
412.77	1847.27
412.98	1714.15
413.19	1738.73
413.39	1730.53
413.60	1796.07
413.81	1755.11
414.01	1683.43
414.22	1751.01
414.43	1791.97
414.63	1804.26
414.84	1794.02
415.05	1755.11
415.25	1656.81
415.46	1734.63
415.67	1654.76
415.87	1744.87
416.08	1771.49
416.29	1677.29
416.49	1697.77
416.70	1689.57
416.91	1685.48
417.11	1685.48
417.32	1757.16
417.53	1742.82
417.73	1837.03
417.94	1671.14
418.15	1736.68
418.35	1798.12
418.56	1730.53
418.77	1812.45
418.97	1675.24
419.18	1716.20
419.38	1591.27
419.59	1742.82
419.80	1802.21
420.00	1775.59
420.21	1689.57
420.42	1718.25
420.62	1746.92
420.83	1609.70
421.04	1712.10
421.24	1679.33
421.45	1730.53
421.65	1740.77
421.86	1677.29
422.07	1761.25
422.27	1796.07
422.48	1783.78
422.69	1673.19
422.89	1685.48
423.10	1738.73
423.30	1619.94
423.51	1722.34
423.72	1746.92
423.92	1746.92
424.13	1650.66
424.33	1671.14
424.54	1701.86
424.75	1722.34
424.95	1826.79
425.16	1685.48
425.36	1708.01
425.57	1740.77
425.78	1720.29
425.98	1767.40
426.19	1718.25
426.39	1646.57
426.60	1773.54
426.81	1798.12
427.01	1665.00
427.22	1667.05
427.42	1642.47
427.63	1619.94
427.83	1716.20
428.04	1794.02
428.25	1761.25
428.45	1853.41
428.66	1695.72
428.86	1656.81
429.07	1697.77
429.28	1718.25
429.48	1710.05
429.69	1689.57
429.89	1705.96
430.10	1710.05
430.30	1710.05
430.51	1794.02
430.71	1730.53
430.92	1699.81
431.13	1705.96
431.33	1726.44
431.54	1826.79
431.74	1734.63
431.95	1882.08
432.15	1673.19
432.36	1712.10
432.56	1757.16
432.77	1812.45
432.98	1822.69
433.18	1714.15
433.39	1701.86
433.59	1734.63
433.80	1822.69
434.00	1847.27
434.21	1703.91
434.41	1677.29
434.62	1853.41
434.82	1755.11
435.03	1701.86
435.23	1720.29
435.44	1601.51
435.64	1716.20
435.85	1722.34
436.06	1789.92
436.26	1779.68
436.47	1673.19
436.67	1681.38
436.88	1677.29
437.08	1740.77
437.29	1796.07
437.49	1708.01
437.70	1757.16
437.90	1751.01
438.11	1873.89
438.31	1748.97
438.52	1941.47
438.72	1896.42
438.93	1880.04
439.13	1751.01
439.34	1849.32
439.54	1849.32
439.75	1765.35
439.95	1789.92
440.16	1794.02
440.36	1714.15
440.57	1783.78
440.77	1761.25
440.98	1767.40
441.18	1855.46
441.39	1710.05
441.59	1665.00
441.80	1812.45
442.00	1701.86
442.21	1777.64
442.41	1601.51
442.62	1742.82
442.82	1679.33
443.02	1699.81
443.23	1734.63
443.43	1789.92
443.64	1710.05
443.84	1720.29
444.05	1875.94
444.25	1720.29
444.46	1710.05
444.66	1794.02
444.87	1779.68
445.07	1695.72
445.28	1755.11
445.48	1859.56
445.69	1804.26
445.89	1923.04
446.09	1701.86
446.30	2009.06
446.50	2637.78
446.71	4106.18
446.91	5181.36
447.12	5828.52
447.32	5894.05
447.53	5326.77
447.73	4458.43
447.93	4059.07
448.14	3698.63
448.34	3450.83
448.55	3196.88
448.75	3200.98
448.96	2934.74
449.16	2621.40
449.36	2482.14
449.57	2279.39
449.77	1853.41
449.98	1845.22
450.18	1873.89
450.39	1740.77
450.59	1783.78
450.79	1693.67
451.00	1695.72
451.20	1814.50
451.41	1738.73
451.61	1755.11
451.81	1736.68
452.02	1736.68
452.22	1732.58
452.43	1740.77
452.63	1765.35
452.84	1650.66
453.04	1746.92
453.24	1820.64
453.45	1697.77
453.65	1705.96
453.86	1753.06
454.06	1742.82
454.26	1742.82
454.47	1654.76
454.67	1845.22
454.87	1728.49
455.08	1718.25
455.28	1830.88
455.49	1755.11
455.69	1665.00
455.89	1804.26
456.10	1728.49
456.30	1691.62
456.51	1726.44
456.71	1701.86
456.91	1759.21
457.12	1705.96
457.32	1748.97
457.52	1714.15
457.73	1791.97
457.93	1794.02
458.14	1765.35
458.34	1626.09
458.54	1771.49
458.75	1708.01
458.95	1769.44
459.15	1771.49
459.36	1783.78
459.56	1806.31
459.76	1845.22
459.97	1736.68
460.17	1783.78
460.37	1769.44
460.58	1718.25
460.78	1773.54
460.99	1628.14
461.19	1771.49
461.39	1738.73
461.60	1703.91
461.80	1751.01
462.00	1710.05
462.21	1746.92
462.41	1667.05
462.61	1642.47
462.82	1626.09
463.02	1755.11
463.22	1744.87
463.43	1730.53
463.63	1705.96
463.83	1816.55
464.04	1708.01
464.24	1767.40
464.44	1665.00
464.64	1640.42
464.85	1693.67
465.05	1767.40
465.25	1730.53
465.46	1660.90
465.66	1837.03
465.86	1755.11
466.07	1693.67
466.27	1757.16
466.47	1681.38
466.68	1634.28
466.88	1863.65
467.08	1744.87
467.29	1708.01
467.49	1767.40
467.69	1615.85
467.89	1757.16
468.10	1695.72
468.30	1701.86
468.50	1832.93
468.71	1775.59
468.91	1613.80
469.11	1857.51
469.31	1765.35
469.52	1708.01
469.72	1798.12
469.92	1908.71
470.13	1738.73
470.33	1679.33
470.53	1816.55
470.73	2254.81
470.94	2543.58
471.14	2740.18
471.34	2934.74
471.54	2910.16
471.75	2559.96
471.95	2346.97
472.15	2230.24
472.36	2248.67
472.56	2207.71
472.76	2168.80
472.96	2103.26
473.17	2021.35
473.37	1976.29
473.57	1941.47
473.77	1824.74
473.98	1798.12
474.18	1669.09
474.38	1869.80
474.58	1708.01
474.79	1685.48
474.99	1808.36
475.19	1757.16
475.39	1628.14
475.60	1675.24
475.80	1722.34
476.00	1732.58
476.20	1744.87
476.41	1699.81
476.61	1763.30
476.81	1839.08
477.01	1628.14
477.21	1855.46
477.42	1855.46
477.62	1697.77
477.82	1841.12
478.02	1710.05
478.23	1740.77
478.43	1624.04
478.63	1728.49
478.83	1777.64
479.03	1724.39
479.24	1880.04
479.44	1810.40
479.64	1689.57
479.84	1640.42
480.04	1679.33
480.25	1730.53
480.45	1710.05
480.65	1775.59
480.85	1771.49
481.06	1673.19
481.26	1708.01
481.46	1742.82
481.66	1716.20
481.86	1720.29
482.06	1863.65
482.27	1726.44
482.47	1748.97
482.67	1718.25
482.87	1687.53
483.07	1783.78
483.28	1679.33
483.48	1732.58
483.68	1685.48
483.88	1716.20
484.08	1626.09
484.29	1640.42
484.49	1748.97
484.69	1648.61
484.89	1875.94
485.09	1810.40
485.29	1767.40
485.50	1753.06
485.70	1771.49
485.90	1808.36
486.10	1732.58
486.30	1834.98
486.50	1808.36
486.71	1800.16
486.91	1785.83
487.11	1814.50
487.31	1640.42
487.51	1722.34
487.71	1683.43
487.91	1695.72
488.12	1656.81
488.32	1578.98
488.52	1654.76
488.72	1658.85
488.92	1667.05
489.12	1779.68
489.32	1779.68
489.53	1841.12
489.73	1673.19
489.93	1734.63
490.13	1722.34
490.33	1677.29
490.53	1697.77
490.73	1748.97
490.94	1701.86
491.14	1779.68
491.34	1802.21
491.54	2078.69
491.74	2701.27
491.94	3286.99
492.14	3405.77
492.34	3516.36
492.54	3145.68
492.75	2674.65
492.95	2654.17
493.15	2410.46
493.35	2371.55
493.55	2299.87
493.75	2195.42
493.95	2201.57
494.15	2031.58
494.35	1986.53
494.56	1914.85
494.76	1800.16
494.96	1767.40
495.16	1849.32
495.36	1765.35
495.56	1638.38
495.76	1759.21
495.96	1828.84
496.16	1710.05
496.36	1857.51
496.56	1693.67
496.77	1800.16
496.97	1775.59
497.17	1781.73
497.37	1724.39
497.57	1732.58
497.77	1722.34
497.97	1665.00
498.17	1716.20
498.37	1718.25
498.57	1812.45
498.77	1703.91
498.97	1669.09
499.17	1861.60
499.38	1665.00
499.58	1783.78
499.78	1855.46
499.98	1734.63
500.18	1654.76
500.38	1775.59
500.58	1832.93
500.78	2377.69
500.98	4626.36
501.18	6633.37
501.38	8054.66
501.58	8996.73
501.78	8728.44
501.98	6973.33
502.18	5805.99
502.38	4939.70
502.58	4648.89
502.78	4138.94
502.98	4007.87
503.18	3885.00
503.38	3538.89
503.59	3160.02
503.79	2944.98
503.99	2668.50
504.19	2482.14
504.39	2328.54
504.59	2363.36
504.79	2379.74
504.99	2316.25
505.19	2125.79
505.39	1951.71
505.59	2101.22
505.79	1966.05
505.99	1896.42
506.19	1814.50
506.39	1935.33
506.59	1730.53
506.79	1789.92
506.99	1753.06
507.19	1824.74
507.39	1761.25
507.59	1798.12
507.79	1650.66
507.99	1722.34
508.19	1712.10
508.39	1724.39
508.59	1763.30
508.79	1898.47
508.99	1855.46
509.19	1683.43
509.39	1777.64
509.59	1685.48
509.79	1626.09
509.99	1757.16
510.19	1828.84
510.39	1787.88
510.59	1740.77
510.79	1746.92
510.99	1705.96
511.19	1699.81
511.39	1777.64
511.59	1849.32
511.79	1814.50
511.99	1744.87
512.19	1841.12
512.38	1771.49
512.58	1667.05
512.78	1742.82
512.98	1824.74
513.18	1877.99
513.38	1613.80
513.58	1808.36
513.78	1681.38
513.98	1744.87
514.18	1714.15
514.38	1746.92
514.58	1761.25
514.78	1683.43
514.98	1708.01
515.18	1716.20
515.38	1662.95
515.58	1845.22
515.78	1740.77
515.98	1738.73
516.18	1755.11
516.38	1748.97
516.57	1689.57
516.77	1677.29
516.97	1816.55
517.17	1662.95
517.37	1636.33
517.57	1810.40
517.77	1740.77
517.97	1732.58
518.17	1800.16
518.37	1708.01
518.57	1736.68
518.77	1660.90
518.97	1718.25
519.16	1800.16
519.36	1808.36
519.56	1679.33
519.76	1755.11
519.96	1785.83
520.16	1855.46
520.36	1634.28
520.56	1712.10
520.76	1775.59
520.96	1724.39
521.16	1775.59
521.35	1781.73
521.55	1830.88
521.75	1789.92
521.95	1617.90
522.15	1785.83
522.35	1667.05
522.55	1652.71
522.75	1830.88
522.95	1728.49
523.14	1726.44
523.34	1763.30
523.54	1669.09
523.74	1812.45
523.94	1789.92
524.14	1640.42
524.34	1695.72
524.54	1898.47
524.73	1685.48
524.93	1726.44
525.13	1689.57
525.33	1718.25
525.53	1812.45
525.73	1810.40
525.93	1734.63
526.13	1724.39
526.32	1732.58
526.52	1800.16
526.72	1820.64
526.92	1714.15
527.12	1783.78
527.32	1652.71
527.52	1777.64
527.71	1734.63
527.91	1751.01
528.11	1656.81
528.31	1675.24
528.51	1660.90
528.71	1804.26
528.90	1726.44
529.10	1812.45
529.30	1755.11
529.50	1689.57
529.70	1687.53
529.90	1642.47
530.09	1705.96
530.29	1630.18
530.49	1759.21
530.69	1847.27
530.89	1757.16
531.09	1705.96
531.28	1771.49
531.48	1787.88
531.68	1765.35
531.88	1830.88
532.08	1806.31
532.28	1730.53
532.47	1767.40
532.67	1826.79
532.87	1794.02
533.07	1689.57
533.27	1857.51
533.46	1769.44
533.66	1855.46
533.86	1787.88
534.06	1742.82
534.26	1814.50
534.45	1732.58
534.65	1738.73
534.85	1759.21
535.05	1742.82
535.25	1783.78
535.44	1759.21
535.64	1789.92
535.84	1738.73
536.04	1742.82
536.24	1740.77
536.43	1685.48
536.63	1714.15
536.83	1722.34
537.03	1757.16
537.22	1677.29
537.42	1679.33
537.62	1812.45
537.82	1767.40
538.02	1863.65
538.21	1761.25
538.41	1896.42
538.61	1714.15
538.81	1718.25
539.00	1794.02
539.20	1611.75
539.40	1607.66
539.60	1742.82
539.79	1761.25
539.99	1714.15
540.19	1656.81
540.39	1705.96
540.58	1689.57
540.78	1837.03
540.98	1710.05
541.18	1763.30
541.37	1814.50
541.57	1714.15
541.77	1773.54
541.97	1716.20
542.16	1646.57
542.36	1748.97
542.56	1818.60
542.76	1873.89
542.95	1759.21
543.15	1763.30
543.35	1787.88
543.54	1689.57
543.74	1681.38
543.94	1822.69
544.14	1634.28
544.33	1755.11
544.53	1710.05
544.73	1718.25
544.93	1753.06
545.12	1693.67
545.32	1744.87
545.52	1726.44
545.71	1619.94
545.91	1728.49
546.11	1748.97
546.30	1621.99
546.50	1740.77
546.70	1791.97
546.90	1837.03
547.09	1701.86
547.29	1712.10
547.49	1708.01
547.68	1798.12
547.88	1681.38
548.08	1726.44
548.27	2168.80
548.47	1683.43
548.67	1703.91
548.87	1769.44
549.06	1695.72
549.26	1820.64
549.46	1703.91
549.65	1697.77
549.85	1722.34
550.05	1746.92
550.24	1607.66
550.44	1751.01
550.64	1753.06
550.83	1689.57
551.03	1757.16
551.23	1804.26
551.42	1681.38
551.62	1791.97
551.82	1779.68
552.01	1755.11
552.21	1742.82
552.41	1748.97
552.60	1781.73
552.80	1828.84
553.00	1703.91
553.19	1736.68
553.39	1771.49
553.59	1648.61
553.78	1769.44
553.98	1751.01
554.17	1615.85
554.37	1824.74
554.57	1761.25
554.76	1683.43
554.96	1679.33
555.16	1710.05
555.35	1720.29
555.55	1839.08
555.75	1744.87
555.94	1775.59
556.14	1599.46
556.33	1771.49
556.53	1767.40
556.73	1742.82
556.92	1816.55
557.12	1814.50
557.32	1822.69
557.51	1779.68
557.71	1736.68
557.90	1820.64
558.10	1775.59
558.30	1683.43
558.49	1757.16
558.69	1738.73
558.88	1761.25
559.08	1738.73
559.28	1679.33
559.47	1705.96
559.67	1824.74
559.86	1845.22
560.06	1738.73
560.26	1722.34
560.45	1753.06
560.65	1671.14
560.84	1847.27
561.04	1695.72
561.24	1732.58
561.43	1705.96
561.63	1777.64
561.82	1789.92
562.02	1798.12
562.22	1732.58
562.41	1689.57
562.61	1773.54
562.80	1689.57
563.00	1912.80
563.19	1751.01
563.39	1769.44
563.59	1818.60
563.78	1652.71
563.98	1665.00
564.17	1765.35
564.37	1632.23
564.56	1740.77
564.76	1693.67
564.96	1839.08
565.15	1767.40
565.35	1877.99
565.54	1699.81
565.74	1785.83
565.93	1781.73
566.13	1673.19
566.32	1771.49
566.52	1744.87
566.71	1693.67
566.91	1810.40
567.11	1701.86
567.30	1632.23
567.50	1814.50
567.69	1810.40
567.89	1767.40
568.08	1751.01
568.28	1726.44
568.47	1820.64
568.67	1746.92
568.86	1744.87
569.06	1755.11
569.25	1753.06
569.45	1687.53
569.64	1630.18
569.84	1703.91
570.04	1804.26
570.23	1710.05
570.43	1720.29
570.62	1783.78
570.82	1714.15
571.01	1693.67
571.21	1634.28
571.40	1708.01
571.60	1796.07
571.79	1705.96
571.99	1689.57
572.18	1701.86
572.38	1773.54
572.57	1746.92
572.77	1757.16
572.96	1894.37
573.16	1736.68
573.35	1730.53
573.55	1816.55
573.74	1773.54
573.94	1701.86
574.13	1763.30
574.33	1785.83
574.52	1775.59
574.71	1832.93
574.91	1710.05
575.10	1679.33
575.30	1744.87
575.49	1705.96
575.69	1693.67
575.88	1843.17
576.08	1763.30
576.27	1810.40
576.47	1806.31
576.66	1896.42
576.86	1800.16
577.05	1718.25
577.25	1826.79
577.44	1855.46
577.64	1773.54
577.83	1812.45
578.02	1767.40
578.22	1832.93
578.41	1837.03
578.61	1730.53
578.80	1660.90
579.00	1701.86
579.19	1832.93
579.39	1744.87
579.58	1785.83
579.77	1841.12
579.97	1912.80
580.16	1873.89
580.36	1818.60
580.55	1906.66
580.75	1814.50
580.94	1757.16
581.13	1882.08
581.33	1925.09
581.52	1775.59
581.72	1853.41
581.91	1914.85
582.11	1767.40
582.30	1820.64
582.49	1843.17
582.69	1814.50
582.88	1816.55
583.08	1759.21
583.27	1820.64
583.47	1804.26
583.66	1796.07
583.85	1765.35
584.05	1724.39
584.24	1746.92
584.44	1767.40
584.63	1935.33
584.82	1914.85
585.02	1974.24
585.21	1896.42
585.41	1871.84
585.60	1861.60
585.79	1992.67
585.99	2013.15
586.18	1925.09
586.37	2250.72
586.57	3286.99
586.76	9781.10
586.96	27317.86
587.15	42200.44
587.34	52081.89
587.54	58113.16
587.73	55760.05
587.93	40254.87
588.12	29967.93
588.31	24043.15
588.51	20410.06
588.70	18478.82
588.89	17116.92
589.09	15537.94
589.28	13526.83
589.47	11519.82
589.67	9402.22
589.86	7475.09
590.06	5492.65
590.25	4313.02
590.44	3246.03
590.64	2658.26
590.83	2340.83
591.02	2117.60
591.22	1927.14
591.41	1951.71
591.60	1726.44
591.80	1949.67
591.99	1824.74
592.18	1740.77
592.38	1820.64
592.57	1712.10
592.76	1804.26
592.96	1781.73
593.15	1779.68
593.34	1837.03
593.54	1708.01
593.73	1796.07
593.92	1808.36
594.12	1853.41
594.31	1820.64
594.50	1900.52
594.70	1912.80
594.89	1959.91
595.08	1705.96
595.28	1769.44
595.47	1904.61
595.66	1816.55
595.86	1701.86
596.05	1746.92
596.24	1753.06
596.43	1873.89
596.63	1898.47
596.82	1736.68
597.01	1845.22
597.21	1863.65
597.40	1779.68
597.59	1789.92
597.79	1880.04
597.98	1722.34
598.17	1849.32
598.36	1722.34
598.56	1873.89
598.75	1697.77
598.94	1847.27
599.14	1779.68
599.33	1710.05
599.52	1818.60
599.71	1828.84
599.91	1888.23
600.10	1804.26
600.29	1779.68
600.48	1728.49
600.68	1769.44
600.87	1755.11
601.06	1722.34
601.26	1732.58
601.45	1763.30
601.64	1740.77
601.83	1773.54
602.03	1705.96
602.22	1705.96
602.41	1828.84
602.60	1929.19
602.80	1732.58
602.99	1820.64
603.18	1705.96
603.37	1765.35
603.57	1775.59
603.76	1855.46
603.95	1769.44
604.14	1699.81
604.34	1693.67
604.53	1746.92
604.72	1771.49
604.91	1787.88
605.10	1740.77
605.30	1691.62
605.49	1886.18
605.68	1755.11
605.87	1720.29
606.07	1722.34
606.26	1718.25
606.45	1791.97
606.64	1712.10
606.84	1613.80
607.03	1767.40
607.22	1837.03
607.41	1781.73
607.60	1802.21
607.80	1759.21
607.99	1787.88
608.18	1830.88
608.37	1812.45
608.56	1714.15
608.76	1773.54
608.95	1871.84
609.14	1798.12
609.33	1839.08
609.52	1869.80
609.72	1877.99
609.91	1910.75
610.10	1841.12
610.29	1929.19
610.48	1806.31
610.68	1775.59
610.87	1769.44
611.06	1800.16
611.25	1712.10
611.44	1730.53
611.63	1777.64
611.83	1785.83
612.02	1658.85
612.21	1804.26
612.40	1570.79
612.59	1640.42
612.79	1646.57
612.98	1726.44
613.17	1787.88
613.36	1712.10
613.55	1812.45
613.74	1781.73
613.93	1865.70
614.13	1918.95
614.32	1949.67
614.51	1896.42
614.70	1755.11
614.89	1853.41
615.08	1779.68
615.28	2043.87
615.47	1718.25
615.66	1812.45
615.85	1773.54
616.04	1943.52
616.23	1818.60
616.42	1861.60
616.62	1751.01
616.81	1783.78
617.00	1708.01
617.19	1785.83
617.38	1724.39
617.57	1781.73
617.76	1783.78
617.95	1789.92
618.15	1814.50
618.34	1834.98
618.53	1714.15
618.72	1873.89
618.91	1822.69
619.10	1822.69
619.29	1716.20
619.48	1755.11
619.68	1720.29
619.87	1728.49
620.06	1669.09
620.25	1783.78
620.44	1730.53
620.63	1791.97
620.82	1771.49
621.01	1857.51
621.20	1691.62
621.39	1769.44
621.59	1810.40
621.78	1757.16
621.97	1798.12
622.16	1746.92
622.35	1771.49
622.54	1787.88
622.73	1828.84
622.92	1550.31
623.11	1757.16
623.30	1701.86
623.49	1755.11
623.68	1677.29
623.88	1906.66
624.07	1757.16
624.26	1734.63
624.45	1742.82
624.64	1695.72
624.83	1687.53
625.02	1703.91
625.21	1763.30
625.40	1660.90
625.59	1830.88
625.78	1697.77
625.97	1875.94
626.16	1816.55
626.35	1847.27
626.54	1808.36
626.74	1865.70
626.93	1748.97
627.12	1751.01
627.31	1888.23
627.50	1742.82
627.69	1791.97
627.88	1765.35
628.07	1763.30
628.26	1689.57
628.45	1730.53
628.64	1689.57
628.83	1837.03
629.02	1626.09
629.21	1769.44
629.40	1755.11
629.59	1726.44
629.78	1724.39
629.97	1783.78
630.16	1740.77
630.35	1783.78
630.54	1814.50
630.73	1708.01
630.92	1763.30
631.11	1716.20
631.30	1814.50
631.49	1775.59
631.68	1726.44
631.87	1796.07
632.06	1675.24
632.25	1861.60
632.44	1791.97
632.63	1898.47
632.82	1781.73
633.01	1767.40
633.20	1857.51
633.39	1818.60
633.58	1773.54
633.77	1759.21
633.96	1775.59
634.15	1806.31
634.34	1843.17
634.53	1738.73
634.72	1712.10
634.91	1689.57
635.10	1769.44
635.29	1628.14
635.48	1822.69
635.67	1738.73
635.86	1691.62
636.05	1826.79
636.24	1742.82
636.43	1787.88
636.62	1818.60
636.81	1660.90
637.00	1726.44
637.19	1671.14
637.38	1751.01
637.57	1724.39
637.76	1763.30
637.95	1845.22
638.14	1857.51
638.33	1896.42
638.52	1869.80
638.71	1712.10
638.89	1714.15
639.08	1896.42
639.27	1804.26
639.46	1892.32
639.65	2144.22
639.84	2295.77
640.03	2371.55
640.22	2346.97
640.41	2437.08
640.60	2035.68
640.79	2050.02
640.98	1880.04
641.17	1988.58
641.36	1931.23
641.55	1908.71
641.74	1779.68
641.92	1742.82
642.11	1728.49
642.30	1824.74
642.49	1679.33
642.68	1716.20
642.87	1794.02
643.06	1789.92
643.25	1753.06
643.44	1630.18
643.63	1701.86
643.82	1693.67
644.00	1687.53
644.19	1701.86
644.38	1689.57
644.57	1785.83
644.76	1753.06
644.95	1685.48
645.14	1763.30
645.33	1710.05
645.52	1755.11
645.71	1593.32
645.89	1634.28
646.08	1718.25
646.27	1744.87
646.46	1841.12
646.65	1662.95
646.84	1779.68
647.03	1673.19
647.22	1779.68
647.40	1773.54
647.59	1703.91
647.78	1710.05
647.97	1673.19
648.16	1748.97
648.35	1798.12
648.54	1804.26
648.73	1765.35
648.91	1814.50
649.10	1730.53
649.29	1660.90
649.48	1705.96
649.67	1753.06
649.86	1779.68
650.05	1773.54
650.23	1837.03
650.42	1834.98
650.61	1918.95
650.80	1912.80
650.99	1953.76
651.18	1912.80
651.36	1832.93
651.55	1697.77
651.74	1828.84
651.93	1767.40
652.12	1705.96
652.31	1834.98
652.49	1798.12
652.68	1687.53
652.87	1808.36
653.06	1888.23
653.25	1841.12
653.44	1783.78
653.62	1796.07
653.81	1759.21
654.00	1751.01
654.19	1785.83
654.38	1884.13
654.56	1710.05
654.75	1703.91
654.94	1701.86
655.13	1730.53
655.32	1699.81
655.51	1771.49
655.69	1640.42
655.88	1732.58
656.07	1716.20
656.26	1779.68
656.45	1658.85
656.63	1697.77
656.82	1742.82
657.01	1837.03
657.20	1640.42
657.38	1763.30
657.57	1705.96
657.76	1705.96
657.95	1716.20
658.14	1685.48
658.32	1730.53
658.51	1626.09
658.70	1755.11
658.89	1742.82
659.08	1660.90
659.26	1877.99
659.45	1734.63
659.64	1802.21
659.83	1705.96
660.01	1996.77
660.20	1744.87
660.39	1908.71
660.58	1693.67
660.76	1785.83
660.95	1675.24
661.14	1773.54
661.33	1726.44
661.51	1703.91
661.70	1742.82
661.89	1746.92
662.08	1734.63
662.26	1701.86
662.45	1755.11
662.64	1929.19
662.83	1755.11
663.01	1781.73
663.20	1689.57
663.39	1820.64
663.58	1732.58
663.76	1722.34
663.95	1779.68
664.14	1654.76
664.32	1734.63
664.51	1742.82
664.70	1642.47
664.89	1765.35
665.07	1691.62
665.26	1808.36
665.45	1640.42
665.64	1722.34
665.82	1742.82
666.01	1802.21
666.20	1710.05
666.38	1794.02
666.57	1812.45
666.76	2172.89
666.95	4526.01
667.13	11482.96
667.32	18396.90
667.51	22486.70
667.69	24962.69
667.88	25441.92
668.07	19736.27
668.25	14268.20
668.44	11878.22
668.63	9869.16
668.81	8699.77
669.00	7751.56
669.19	7004.05
669.38	6150.05
669.56	5281.71
669.75	4540.35
669.94	3741.64
670.12	3155.92
670.31	2662.36
670.50	2355.16
670.68	2150.37
670.87	1959.91
671.06	1898.47
671.24	1865.70
671.43	1882.08
671.62	1845.22
671.80	1775.59
671.99	1740.77
672.18	1720.29
672.36	1789.92
672.55	1769.44
672.74	1771.49
672.92	1748.97
673.11	1791.97
673.29	1636.33
673.48	1787.88
673.67	1675.24
673.85	1748.97
674.04	1732.58
674.23	1751.01
674.41	1871.84
674.60	1648.61
674.79	1679.33
674.97	1685.48
675.16	1830.88
675.34	1746.92
675.53	1640.42
675.72	1693.67
675.90	1861.60
676.09	1710.05
676.28	1705.96
676.46	1718.25
676.65	1777.64
676.83	1638.38
677.02	1718.25
677.21	1726.44
677.39	1726.44
677.58	1718.25
677.77	1708.01
677.95	1740.77
678.14	1708.01
678.32	1724.39
678.51	1718.25
678.70	1849.32
678.88	1714.15
679.07	1732.58
679.25	1673.19
679.44	1677.29
679.63	1703.91
679.81	1732.58
680.00	1724.39
680.18	1804.26
680.37	1781.73
680.55	1662.95
680.74	1630.18
680.93	1609.70
681.11	1691.62
681.30	1683.43
681.48	1751.01
681.67	1665.00
681.85	1736.68
682.04	1693.67
682.23	1691.62
682.41	1724.39
682.60	1730.53
682.78	1677.29
682.97	1673.19
683.15	1703.91
683.34	1726.44
683.53	1804.26
683.71	1613.80
683.90	1837.03
684.08	1755.11
684.27	1701.86
684.45	1718.25
684.64	1828.84
684.82	1742.82
685.01	1744.87
685.19	1728.49
685.38	1886.18
685.57	1683.43
685.75	1679.33
685.94	1742.82
686.12	1705.96
686.31	1710.05
686.49	1804.26
686.68	1652.71
686.86	1740.77
687.05	1763.30
687.23	1865.70
687.42	1695.72
687.60	1628.14
687.79	1798.12
687.97	1781.73
688.16	1884.13
688.34	1830.88
688.53	1632.23
688.71	1671.14
688.90	1781.73
689.08	1744.87
689.27	1658.85
689.45	1818.60
689.64	1812.45
689.82	1759.21
690.01	1753.06
690.19	1710.05
690.38	1681.38
690.56	1855.46
690.75	1740.77
690.93	1660.90
691.12	1671.14
691.30	1691.62
691.49	1718.25
691.67	1724.39
691.86	1804.26
692.04	1712.10
692.23	1693.67
692.41	1685.48
692.60	1910.75
692.78	1845.22
692.97	1857.51
693.15	1800.16
693.34	1828.84
693.52	1779.68
693.71	1769.44
693.89	1689.57
694.08	1636.33
694.26	1808.36
694.44	1751.01
694.63	1761.25
694.81	1701.86
695.00	1578.98
695.18	1814.50
695.37	1841.12
695.55	1701.86
695.74	1697.77
695.92	1701.86
696.10	1759.21
696.29	1595.37
696.47	1656.81
696.66	1681.38
696.84	1636.33
697.03	1669.09
697.21	1800.16
697.40	2398.17
697.58	1802.21
697.76	1748.97
697.95	1736.68
698.13	1607.66
698.32	1763.30
698.50	1785.83
698.68	1724.39
698.87	1710.05
699.05	1810.40
699.24	1736.68
699.42	1607.66
699.61	1734.63
699.79	1695.72
699.97	1726.44
700.16	1724.39
700.34	1648.61
700.53	1722.34
700.71	1777.64
700.89	1751.01
701.08	1703.91
701.26	1695.72
701.45	2172.89
701.63	1662.95
701.81	1705.96
702.00	1705.96
702.18	1732.58
702.37	1705.96
702.55	1875.94
702.73	1810.40
702.92	1968.10
703.10	1992.67
703.28	1933.28
703.47	1933.28
703.65	1869.80
703.84	1855.46
704.02	1806.31
704.20	1918.95
704.39	1742.82
704.57	1779.68
704.75	1861.60
704.94	1777.64
705.12	1654.76
705.30	1892.32
705.49	2385.88
705.67	5474.22
705.86	13023.03
706.04	18867.94
706.22	22558.38
706.41	25108.10
706.59	24569.48
706.77	18986.72
706.96	13868.84
707.14	11941.71
707.32	10182.50
707.51	9006.97
707.69	7841.67
707.87	6780.82
708.06	5341.10
708.24	4396.99
708.42	3262.41
708.61	2805.72
708.79	2105.31
708.97	2052.06
709.16	1968.10
709.34	1832.93
709.52	1783.78
709.71	1824.74
709.89	1810.40
710.07	1656.81
710.26	1722.34
710.44	1771.49
710.62	1767.40
710.80	1748.97
710.99	1710.05
711.17	1779.68
711.35	1665.00
711.54	1691.62
711.72	1748.97
711.90	1796.07
712.09	1796.07
712.27	1740.77
712.45	1716.20
712.63	1728.49
712.82	1669.09
713.00	1699.81
713.18	1763.30
713.37	1742.82
713.55	1753.06
713.73	1783.78
713.91	1767.40
714.10	1720.29
714.28	1683.43
714.46	1755.11
714.65	1683.43
714.83	1689.57
715.01	1728.49
715.19	1652.71
715.38	1638.38
715.56	1767.40
715.74	1669.09
715.92	1705.96
716.11	1751.01
716.29	1609.70
716.47	1701.86
716.65	1628.14
716.84	1630.18
717.02	1734.63
717.20	1669.09
717.38	1755.11
717.57	1716.20
717.75	1724.39
717.93	1755.11
718.11	1771.49
718.30	1755.11
718.48	1736.68
718.66	1834.98
718.84	1814.50
719.03	1710.05
719.21	1630.18
719.39	1775.59
719.57	1669.09
719.75	1761.25
719.94	1665.00
720.12	1701.86
720.30	1771.49
720.48	1785.83
720.67	1581.03
720.85	1654.76
721.03	1785.83
721.21	1677.29
721.39	1794.02
721.58	1742.82
721.76	1683.43
721.94	1767.40
722.12	1775.59
722.30	1783.78
722.49	1710.05
722.67	1726.44
722.85	1746.92
723.03	1642.47
723.21	1761.25
723.40	1720.29
723.58	1773.54
723.76	1769.44
723.94	1759.21
724.12	1751.01
724.30	1818.60
724.49	1830.88
724.67	1695.72
724.85	1822.69
725.03	1728.49
725.21	1730.53
725.40	1785.83
725.58	1710.05
725.76	1855.46
725.94	1820.64
726.12	1691.62
726.30	1732.58
726.49	1644.52
726.67	1679.33
726.85	1755.11
727.03	1822.69
727.21	2324.44
727.39	3389.39
727.57	4870.07
727.76	5703.59
727.94	6156.19
728.12	6129.57
728.30	5730.22
728.48	4442.04
728.66	3960.77
728.84	3555.27
729.03	3147.73
729.21	2908.12
729.39	2461.66
729.57	2088.93
729.75	2000.87
729.93	1869.80
730.11	1812.45
730.30	1761.25
730.48	1722.34
730.66	1802.21
730.84	1791.97
731.02	1759.21
731.20	1705.96
731.38	1769.44
731.56	1726.44
731.74	1585.13
731.93	1755.11
732.11	1718.25
732.29	1744.87
732.47	1740.77
732.65	1714.15
732.83	1826.79
733.01	1714.15
733.19	1638.38
733.37	1791.97
733.56	1734.63
733.74	1716.20
733.92	1779.68
734.10	1650.66
734.28	1796.07
734.46	1683.43
734.64	1691.62
734.82	1777.64
735.00	1710.05
735.18	1714.15
735.36	1734.63
735.54	1751.01
735.73	1767.40
735.91	1744.87
736.09	1734.63
736.27	1736.68
736.45	1734.63
736.63	1601.51
736.81	1728.49
736.99	1738.73
737.17	1794.02
737.35	1601.51
737.53	1751.01
737.71	1703.91
737.89	1812.45
738.07	1689.57
738.25	1566.70
738.43	1591.27
738.61	1669.09
738.80	1626.09
738.98	1646.57
739.16	1675.24
739.34	1640.42
739.52	1824.74
739.70	1689.57
739.88	1755.11
740.06	1779.68
740.24	1652.71
740.42	1808.36
740.60	1619.94
740.78	1677.29
740.96	1613.80
741.14	1681.38
741.32	1738.73
741.50	1642.47
741.68	1871.84
741.86	1789.92
742.04	1697.77
742.22	1742.82
742.40	1650.66
742.58	1708.01
742.76	1576.94
742.94	1779.68
743.12	1626.09
743.30	1644.52
743.48	1730.53
743.66	1730.53
743.84	1685.48
744.02	1718.25
744.20	1656.81
744.38	1683.43
744.56	1716.20
744.74	1820.64
744.92	1746.92
745.10	1824.74
745.28	1751.01
745.46	1746.92
745.64	1660.90
745.82	1820.64
746.00	1738.73
746.18	1705.96
746.36	1695.72
746.54	1765.35
746.72	1652.71
746.90	1638.38
747.08	1746.92
747.26	1681.38
747.44	1714.15
747.62	1740.77
747.80	1738.73
747.98	1757.16
748.15	1734.63
748.33	1818.60
748.51	1656.81
748.69	1716.20
748.87	1667.05
749.05	1697.77
749.23	1714.15
749.41	1720.29
749.59	1738.73
749.77	1742.82
749.95	1746.92
750.13	1652.71
750.31	1732.58
750.49	1710.05
750.67	1783.78
750.85	1777.64
751.03	1718.25
751.20	1845.22
751.38	1695.72
751.56	1722.34
751.74	1697.77
751.92	1669.09
752.10	1662.95
752.28	1785.83
752.46	1746.92
752.64	1703.91
752.82	1654.76
753.00	1785.83
753.18	1685.48
753.35	1734.63
753.53	1736.68
753.71	1638.38
753.89	1740.77
754.07	1669.09
754.25	1798.12
754.43	1718.25
754.61	1656.81
754.79	1814.50
754.97	1689.57
755.14	1746.92
755.32	1685.48
755.50	1701.86
755.68	1691.62
755.86	1681.38
756.04	1740.77
756.22	1667.05
756.40	1724.39
756.57	1904.61
756.75	1738.73
756.93	1744.87
757.11	1705.96
757.29	1648.61
757.47	1658.85
757.65	1585.13
757.82	1568.74
758.00	1658.85
758.18	1726.44
758.36	1691.62
758.54	1787.88
758.72	1652.71
758.90	1740.77
759.07	1726.44
759.25	1658.85
759.43	1712.10
759.61	1644.52
759.79	2201.57
759.97	1800.16
760.15	1642.47
760.32	1632.23
760.50	1669.09
760.68	1849.32
760.86	1640.42
761.04	1777.64
761.22	1796.07
761.39	1714.15
761.57	1777.64
761.75	1708.01
761.93	1718.25
762.11	1718.25
762.28	1718.25
762.46	1681.38
762.64	1714.15
762.82	1652.71
763.00	1785.83
763.18	1783.78
763.35	1652.71
763.53	1736.68
763.71	1634.28
763.89	1703.91
764.07	1662.95
764.24	1642.47
764.42	1730.53
764.60	1669.09
764.78	1761.25
764.96	1722.34
765.13	1722.34
765.31	1617.90
765.49	1771.49
765.67	1601.51
765.84	1742.82
766.02	1654.76
766.20	1628.14
766.38	1699.81
766.56	1753.06
766.73	1812.45
766.91	1714.15
767.09	1595.37
767.27	1730.53
767.44	1677.29
767.62	1710.05
767.80	1720.29
767.98	1681.38
768.15	1669.09
768.33	1708.01
768.51	1705.96
768.69	1724.39
768.87	1705.96
769.04	1660.90
769.22	1910.75
769.40	1808.36
769.58	1773.54
769.75	1796.07
769.93	1759.21
770.11	1624.04
770.28	1624.04
770.46	1708.01
770.64	1759.21
770.82	1626.09
770.99	1662.95
771.17	1669.09
771.35	1687.53
771.53	1695.72
771.70	1730.53
771.88	1626.09
772.06	1714.15
772.23	1652.71
772.41	1728.49
772.59	1687.53
772.77	1646.57
772.94	1665.00
773.12	1738.73
773.30	1732.58
773.47	1673.19
773.65	1726.44
773.83	1802.21
774.01	1722.34
774.18	1591.27
774.36	1716.20
774.54	1683.43
774.71	1646.57
774.89	1656.81
775.07	1685.48
775.24	1697.77
775.42	1660.90
775.60	1796.07
775.78	1689.57
775.95	1683.43
776.13	1626.09
776.31	1595.37
776.48	1755.11
776.66	1789.92
776.84	1681.38
777.01	1689.57
777.19	1740.77
777.37	1716.20
777.54	1783.78
777.72	1871.84
777.90	1685.48
778.07	1683.43
778.25	1859.56
778.43	1753.06
778.60	1630.18
778.78	1722.34
778.96	1699.81
779.13	1691.62
779.31	1730.53
779.49	1722.34
779.66	1763.30
779.84	1714.15
780.01	1669.09
780.19	1699.81
780.37	1779.68
780.54	1724.39
780.72	1667.05
780.90	1671.14
781.07	1701.86
781.25	1669.09
781.43	1685.48
781.60	1660.90
781.78	1734.63
781.95	1679.33
782.13	1677.29
782.31	1703.91
782.48	1615.85
782.66	1744.87
782.83	1890.28
783.01	1658.85
783.19	1765.35
783.36	1650.66
783.54	1703.91
783.72	1773.54
783.89	1728.49
784.07	1718.25
784.24	1771.49
784.42	1730.53
784.60	1722.34
784.77	1783.78
784.95	1710.05
785.12	1636.33
785.30	1736.68
785.47	1685.48
785.65	1642.47
785.83	1697.77
786.00	1691.62
786.18	1763.30
786.35	1603.56
786.53	1718.25
786.71	1769.44
786.88	1726.44
787.06	1775.59
787.23	1714.15
787.41	1636.33
787.58	1759.21
787.76	1671.14
787.94	1722.34
788.11	1712.10
788.29	1652.71
788.46	1628.14
788.64	1714.15
788.81	1669.09
788.99	1724.39
789.16	1650.66
789.34	1648.61
789.52	1683.43
789.69	1640.42
789.87	1599.46
790.04	1693.67
790.22	1722.34
790.39	1816.55
790.57	1714.15
790.74	1656.81
790.92	1820.64
791.09	1607.66
791.27	1705.96
791.44	1708.01
791.62	1800.16
791.79	1755.11
791.97	1630.18
792.15	1828.84
792.32	1775.59
792.50	1761.25
792.67	1783.78
792.85	1812.45
793.02	1765.35
793.20	1722.34
793.37	1656.81
793.55	1650.66
793.72	1671.14
793.90	1740.77
794.07	1683.43
794.25	1624.04
794.42	1718.25
794.60	1722.34
794.77	1746.92
794.95	1718.25
795.12	1742.82
795.30	1744.87
795.47	1554.41
795.65	1824.74
795.82	1695.72
796.00	1675.24
796.17	1708.01
796.34	1693.67
796.52	1630.18
796.69	1787.88
796.87	1812.45
797.04	1708.01
797.22	1796.07
797.39	1720.29
797.57	1718.25
797.74	1771.49
797.92	1738.73
798.09	1624.04
798.27	1730.53
798.44	1722.34
798.62	1648.61
798.79	1701.86
798.96	1767.40
799.14	1667.05
799.31	1820.64
799.49	1699.81
799.66	1679.33
799.84	1781.73
800.01	1615.85
800.19	1732.58
800.36	1578.98
800.53	1718.25
800.71	1695.72
800.88	1806.31
801.06	1705.96
801.23	1628.14
801.41	1738.73
801.58	1720.29
801.75	1742.82
801.93	1695.72
802.10	1775.59
802.28	1662.95
802.45	1687.53
802.63	1728.49
802.80	1757.16
802.97	1740.77
803.15	1697.77
803.32	1699.81
803.50	1685.48
803.67	1650.66
803.84	1646.57
804.02	1761.25
804.19	1607.66
804.37	1648.61
804.54	1605.61
804.71	1730.53
804.89	1800.16
805.06	1660.90
805.24	1593.32
805.41	1619.94
805.58	1648.61
805.76	1804.26
805.93	1687.53
806.10	1712.10
806.28	1693.67
806.45	1677.29
806.63	1777.64
806.80	1677.29
806.97	1705.96
807.15	1705.96
807.32	1669.09
807.49	1697.77
807.67	1673.19
807.84	1710.05
808.01	1644.52
808.19	1822.69
808.36	1877.99
808.54	1671.14
808.71	1695.72
808.88	1773.54
809.06	1783.78
809.23	1791.97
809.40	1630.18
809.58	1769.44
809.75	1683.43
809.92	1626.09
810.10	1816.55
810.27	1732.58
810.44	1810.40
810.62	1783.78
810.79	1714.15
810.96	1628.14
811.14	1632.23
811.31	1726.44
811.48	1708.01
811.66	1730.53
811.83	1722.34
812.00	1824.74
812.18	1691.62
812.35	1783.78
812.52	1710.05
812.69	1748.97
812.87	1714.15
813.04	1683.43
813.21	1658.85
813.39	1716.20
813.56	1683.43
813.73	1718.25
813.91	1679.33
814.08	1689.57
814.25	1734.63
814.42	1632.23
814.60	1699.81
814.77	1701.86
814.94	1763.30
815.12	1730.53
815.29	1681.38
815.46	1652.71
815.63	1761.25
815.81	1658.85
815.98	1779.68
816.15	1705.96
816.33	1753.06
816.50	1685.48
816.67	1705.96
816.84	1697.77
817.02	1675.24
817.19	1662.95
817.36	1665.00
817.53	1730.53
817.71	1667.05
817.88	1720.29
818.05	1656.81
818.22	1665.00
818.40	1806.31
818.57	1703.91
818.74	1697.77
818.91	1701.86
819.09	1695.72
819.26	1720.29
819.43	1574.89
819.60	1632.23
819.78	1759.21
819.95	1794.02
820.12	1681.38
820.29	1732.58
820.47	1697.77
820.64	1662.95
820.81	1665.00
820.98	1738.73
821.15	1746.92
821.33	1726.44
821.50	1591.27
821.67	1753.06
821.84	1662.95
822.02	1736.68
822.19	1699.81
822.36	1699.81
822.53	1658.85
822.70	1658.85
822.88	1669.09
823.05	1767.40
823.22	1736.68
823.39	1658.85
823.56	1644.52
823.74	1789.92
823.91	1695.72
824.08	1697.77
824.25	1669.09
824.42	1851.36
824.60	1638.38
824.77	1656.81
824.94	1662.95
825.11	1755.11
825.28	1589.22
825.45	1751.01
825.63	1757.16
825.80	1576.94
825.97	1718.25
826.14	1746.92
826.31	1685.48
826.48	1767.40
826.66	1660.90
826.83	1673.19
827.00	1650.66
827.17	1665.00
827.34	1681.38
827.51	1652.71
827.69	1656.81
827.86	1679.33
828.03	1671.14
828.20	1708.01
828.37	1599.46
828.54	1765.35
828.71	1589.22
828.89	1798.12
829.06	1714.15
829.23	1685.48
829.40	1665.00
829.57	1685.48
829.74	1673.19
829.91	1689.57
830.09	1683.43
830.26	1769.44
830.43	1804.26
830.60	1691.62
830.77	1753.06
830.94	1800.16
831.11	1699.81
831.28	1671.14
831.46	1748.97
831.63	1642.47
831.80	1763.30
831.97	1640.42
832.14	1648.61
832.31	1785.83
832.48	1648.61
832.65	1742.82
832.82	1794.02
832.99	1724.39
833.17	1665.00
833.34	1796.07
833.51	1667.05
833.68	1681.38
833.85	1671.14
834.02	1624.04
834.19	1630.18
834.36	1658.85
834.53	1669.09
834.70	1755.11
834.87	1722.34
835.04	1669.09
835.22	1652.71
835.39	1708.01
835.56	1593.32
835.73	1697.77
835.90	1724.39
836.07	1662.95
836.24	1787.88
836.41	1675.24
836.58	1597.42
836.75	1740.77
836.92	1730.53
837.09	1611.75
837.26	1738.73
837.43	1804.26
837.60	1734.63
837.77	1630.18
837.94	1736.68
838.12	1767.40
838.29	1726.44
838.46	1648.61
838.63	1630.18
838.80	1767.40
838.97	1744.87
839.14	1740.77
839.31	1699.81
839.48	1742.82
839.65	1728.49
839.82	1746.92
839.99	1759.21
840.16	1648.61
840.33	1644.52
840.50	1677.29
840.67	1658.85
840.84	1638.38
841.01	1708.01
841.18	1621.99
841.35	1714.15
841.52	1742.82
841.69	1824.74
841.86	1712.10
842.03	1669.09
842.20	1716.20
842.37	1767.40
842.54	1726.44
842.71	1705.96
842.88	1677.29
843.05	1796.07
843.22	1697.77
843.39	1742.82
843.56	1611.75
843.73	1662.95
843.90	1777.64
844.07	1646.57
844.24	1753.06
844.41	1642.47
844.58	1718.25
844.75	1712.10
844.92	1681.38
845.09	1677.29
845.26	1697.77
845.43	1763.30
845.60	1716.20
845.77	1796.07
845.94	1718.25
846.10	1755.11
846.27	1613.80
846.44	1615.85
846.61	1638.38
846.78	1761.25
846.95	1718.25
847.12	1744.87
847.29	1667.05
847.46	1654.76
847.63	1773.54
847.80	1685.48
847.97	1697.77
848.14	1828.84
848.31	1705.96
848.48	1611.75
848.65	1738.73
848.82	1599.46
848.98	1822.69
849.15	1703.91
849.32	1785.83
849.49	1722.34
849.66	1677.29
849.83	1691.62
850.00	1617.90
850.17	1798.12
850.34	1736.68
850.51	1589.22
850.68	1740.77
850.85	1845.22
851.01	1644.52
851.18	1726.44
851.35	1710.05
851.52	1822.69
851.69	1746.92
851.86	1589.22
852.03	1660.90
852.20	1742.82
852.37	1656.81
852.53	1632.23
852.70	1687.53
852.87	1671.14
853.04	1742.82
853.21	1683.43
853.38	1726.44
853.55	1746.92
853.72	1775.59
853.89	1574.89
854.05	1669.09
854.22	1646.57
854.39	1701.86
854.56	1652.71
854.73	1802.21
854.90	1652.71
855.07	1691.62
855.23	1753.06
855.40	1630.18
855.57	1716.20
855.74	1585.13
855.91	1853.41
856.08	1652.71
856.25	1660.90
856.41	1732.58
856.58	1624.04
856.75	1658.85
856.92	1660.90
857.09	1744.87
857.26	1654.76
857.42	1705.96
857.59	1734.63
857.76	1646.57
857.93	1675.24
858.10	1599.46
858.27	1611.75
858.43	1662.95
858.60	1644.52
858.77	1599.46
858.94	1656.81
859.11	1720.29
859.27	1660.90
859.44	1775.59
859.61	1851.36
859.78	1703.91
859.95	1660.90
860.12	1695.72
860.28	1800.16
860.45	1724.39
860.62	1636.33
860.79	1716.20
860.95	1652.71
861.12	1656.81
861.29	1621.99
861.46	1636.33
861.63	1636.33
861.79	1683.43
861.96	1619.94
862.13	1683.43
862.30	1839.08
862.47	1601.51
862.63	1628.14
862.80	1779.68
862.97	1798.12
863.14	1642.47
863.30	1734.63
863.47	1671.14
863.64	1763.30
863.81	1708.01
863.97	1662.95
864.14	1740.77
864.31	1628.14
864.48	1695.72
864.65	1705.96
864.81	1699.81
864.98	1779.68
865.15	1781.73
865.32	1726.44
865.48	1814.50
865.65	1767.40
865.82	1677.29
865.98	1677.29
866.15	1703.91
866.32	1710.05
866.49	1669.09
866.65	1806.31
866.82	1636.33
866.99	1697.77
867.16	1662.95
867.32	1640.42
867.49	1673.19
867.66	1753.06
867.83	1667.05
867.99	1628.14
868.16	1681.38
868.33	1599.46
868.49	1712.10
868.66	1683.43
868.83	1740.77
868.99	1669.09
869.16	1755.11
869.33	1802.21
869.50	1765.35
869.66	1667.05
869.83	1738.73
870.00	1652.71
870.16	1712.10
870.33	1654.76
870.50	1851.36
870.66	1843.17
870.83	1806.31
871.00	1800.16
871.17	1722.34
871.33	1751.01
871.50	1753.06
871.67	1656.81
871.83	1630.18
872.00	1824.74
872.17	1656.81
872.33	1785.83
872.50	1751.01
872.67	1683.43
872.83	1615.85
873.00	1671.14
873.17	1742.82
873.33	1812.45
873.50	1685.48
873.67	1656.81
873.83	1662.95
874.00	1665.00
874.16	1787.88
874.33	1728.49
874.50	1642.47
874.66	1679.33
874.83	1751.01
875.00	1736.68
875.16	1716.20
875.33	1712.10
875.50	1650.66
875.66	1693.67
875.83	1691.62
875.99	1699.81
876.16	1714.15
876.33	1677.29
876.49	1769.44
876.66	1714.15
876.83	1667.05
876.99	1613.80
877.16	1720.29
877.32	1613.80
877.49	1767.40
877.66	1650.66
877.82	1822.69
877.99	1744.87
878.15	1640.42
878.32	1734.63
878.49	1665.00
878.65	1671.14
878.82	1767.40
878.98	1673.19
879.15	1857.51
879.32	1665.00
879.48	1675.24
879.65	1701.86
879.81	1648.61
879.98	1722.34
880.15	1689.57
880.31	1853.41
880.48	1683.43
880.64	1742.82
880.81	1753.06
880.97	1777.64
881.14	1771.49
881.31	1652.71
881.47	1886.18
881.64	1691.62
881.80	1636.33
881.97	1767.40
882.13	1730.53
882.30	1662.95
882.47	1675.24
882.63	1714.15
882.80	1658.85
882.96	1652.71
883.13	1773.54
883.29	1619.94
883.46	1732.58
883.62	1781.73
883.79	1675.24
883.95	1775.59
884.12	1665.00
884.29	1783.78
884.45	1689.57
884.62	1693.67
884.78	1628.14
884.95	1771.49
885.11	1734.63
885.28	1697.77
885.44	1576.94
885.61	1640.42
885.77	1693.67
885.94	1767.40
886.10	1832.93
886.27	1728.49
886.43	1736.68
886.60	1738.73
886.76	1669.09
886.93	1681.38
887.09	1732.58
887.26	1630.18
887.42	1736.68
887.59	1697.77
887.75	1820.64
887.92	1746.92
888.08	1732.58
888.25	1779.68
888.41	1689.57
888.58	1697.77
888.74	1660.90
888.91	1626.09
>>>>>End Processed Spectral Data<<<<<
