SpectraSuite Data File
++++++++++++++++++++++++++++++++++++
Date: Wed May 04 18:44:34 CEST 2016
User: root
Dark Spectrum Present: No
Reference Spectrum Present: No
Number of Sampled Component Spectra: 1
Spectrometers: USB4C02835
Integration Time (usec): 100000 (USB4C02835)
Spectra Averaged: 1 (USB4C02835)
Boxcar Smoothing: 0 (USB4C02835)
Correct for Electrical Dark: No (USB4C02835)
Strobe/Lamp Enabled: No (USB4C02835)
Correct for Detector Non-linearity: No (USB4C02835)
Correct for Stray Light: No (USB4C02835)
Number of Pixels in Processed Spectrum: 3648
>>>>>Begin Processed Spectral Data<<<<<
177.47	1535.98
177.69	1535.98
177.91	1535.98
178.13	1458.15
178.36	1517.54
178.58	1716.20
178.80	1708.01
179.02	1558.50
179.24	1605.61
179.46	1644.52
179.68	1794.02
179.90	1648.61
180.13	1798.12
180.35	1654.76
180.57	1691.62
180.79	1796.07
181.01	1755.11
181.23	1763.30
181.45	1787.88
181.67	1730.53
181.90	1710.05
182.12	1710.05
182.34	1619.94
182.56	1777.64
182.78	1753.06
183.00	1675.24
183.22	1753.06
183.44	1638.38
183.66	1826.79
183.89	1757.16
184.11	1673.19
184.33	1697.77
184.55	1742.82
184.77	1773.54
184.99	1757.16
185.21	1714.15
185.43	1812.45
185.65	1658.85
185.87	1753.06
186.10	1767.40
186.32	1888.23
186.54	1763.30
186.76	1832.93
186.98	1685.48
187.20	1728.49
187.42	1636.33
187.64	1630.18
187.86	1734.63
188.08	1763.30
188.30	1640.42
188.52	1710.05
188.75	1746.92
188.97	1830.88
189.19	1720.29
189.41	1667.05
189.63	1705.96
189.85	1691.62
190.07	1587.18
190.29	1646.57
190.51	1695.72
190.73	1652.71
190.95	1753.06
191.17	1605.61
191.39	1611.75
191.61	1689.57
191.84	1673.19
192.06	1785.83
192.28	1619.94
192.50	1886.18
192.72	1761.25
192.94	1654.76
193.16	1808.36
193.38	1697.77
193.60	1679.33
193.82	1675.24
194.04	1744.87
194.26	1781.73
194.48	1673.19
194.70	1646.57
194.92	1636.33
195.14	1755.11
195.36	1712.10
195.58	1685.48
195.80	1650.66
196.02	1662.95
196.24	1726.44
196.46	1726.44
196.69	1671.14
196.91	1830.88
197.13	1656.81
197.35	1728.49
197.57	1753.06
197.79	1736.68
198.01	1712.10
198.23	1824.74
198.45	1689.57
198.67	1615.85
198.89	1712.10
199.11	1834.98
199.33	1679.33
199.55	1632.23
199.77	1746.92
199.99	1751.01
200.21	1730.53
200.43	1716.20
200.65	1634.28
200.87	1636.33
201.09	1736.68
201.31	1675.24
201.53	1736.68
201.75	1748.97
201.97	1669.09
202.19	1722.34
202.41	1714.15
202.63	1861.60
202.85	1828.84
203.07	1675.24
203.29	1624.04
203.51	1576.94
203.73	1626.09
203.95	1888.23
204.17	1765.35
204.39	1714.15
204.61	1665.00
204.83	1671.14
205.05	1816.55
205.27	1769.44
205.49	1820.64
205.71	1701.86
205.93	1671.14
206.15	1644.52
206.37	1681.38
206.59	1748.97
206.81	1650.66
207.03	1699.81
207.25	1730.53
207.47	1732.58
207.69	1687.53
207.91	1763.30
208.13	1818.60
208.34	1708.01
208.56	1708.01
208.78	1796.07
209.00	1712.10
209.22	1691.62
209.44	1742.82
209.66	1630.18
209.88	1650.66
210.10	1685.48
210.32	1648.61
210.54	1775.59
210.76	1646.57
210.98	1732.58
211.20	1581.03
211.42	1656.81
211.64	1738.73
211.86	1751.01
212.08	1759.21
212.30	1716.20
212.52	1697.77
212.74	1685.48
212.96	1755.11
213.17	1789.92
213.39	1654.76
213.61	1771.49
213.83	1789.92
214.05	1697.77
214.27	1771.49
214.49	1628.14
214.71	1658.85
214.93	1753.06
215.15	1644.52
215.37	1753.06
215.59	1634.28
215.81	1742.82
216.03	1863.65
216.24	1683.43
216.46	1722.34
216.68	1695.72
216.90	1787.88
217.12	1820.64
217.34	1779.68
217.56	1746.92
217.78	1671.14
218.00	1736.68
218.22	1630.18
218.44	1617.90
218.66	1669.09
218.87	1808.36
219.09	1665.00
219.31	1689.57
219.53	1710.05
219.75	1665.00
219.97	1695.72
220.19	1699.81
220.41	1718.25
220.63	1791.97
220.85	1732.58
221.06	1662.95
221.28	1800.16
221.50	1773.54
221.72	1734.63
221.94	1703.91
222.16	1708.01
222.38	1763.30
222.60	1695.72
222.82	1710.05
223.03	1726.44
223.25	1687.53
223.47	1736.68
223.69	1841.12
223.91	1773.54
224.13	1697.77
224.35	1669.09
224.57	1718.25
224.78	1675.24
225.00	1634.28
225.22	1728.49
225.44	1662.95
225.66	1693.67
225.88	1646.57
226.10	1716.20
226.32	1771.49
226.53	1730.53
226.75	1746.92
226.97	1712.10
227.19	1714.15
227.41	1685.48
227.63	1724.39
227.85	1669.09
228.06	1660.90
228.28	1748.97
228.50	1722.34
228.72	1662.95
228.94	1703.91
229.16	1605.61
229.37	1699.81
229.59	1640.42
229.81	1765.35
230.03	1685.48
230.25	1675.24
230.47	1652.71
230.69	1660.90
230.90	1718.25
231.12	1742.82
231.34	1693.67
231.56	1732.58
231.78	1619.94
232.00	1695.72
232.21	1591.27
232.43	1656.81
232.65	1611.75
232.87	1714.15
233.09	1667.05
233.30	1724.39
233.52	1705.96
233.74	1732.58
233.96	1732.58
234.18	1740.77
234.40	1712.10
234.61	1781.73
234.83	1624.04
235.05	1632.23
235.27	1781.73
235.49	1869.80
235.70	1744.87
235.92	1773.54
236.14	1861.60
236.36	1820.64
236.58	1669.09
236.79	1773.54
237.01	1751.01
237.23	1683.43
237.45	1765.35
237.67	1685.48
237.88	1695.72
238.10	1789.92
238.32	1644.52
238.54	1724.39
238.76	1695.72
238.97	1660.90
239.19	1648.61
239.41	1697.77
239.63	1830.88
239.85	1626.09
240.06	1693.67
240.28	1767.40
240.50	1683.43
240.72	1697.77
240.93	1673.19
241.15	1800.16
241.37	1640.42
241.59	1744.87
241.81	1712.10
242.02	1701.86
242.24	1712.10
242.46	1701.86
242.68	1619.94
242.89	1716.20
243.11	1791.97
243.33	1742.82
243.55	1832.93
243.76	1681.38
243.98	1648.61
244.20	1693.67
244.42	1748.97
244.64	1685.48
244.85	1624.04
245.07	1755.11
245.29	1789.92
245.51	1689.57
245.72	1675.24
245.94	1703.91
246.16	1751.01
246.38	1716.20
246.59	1677.29
246.81	1677.29
247.03	1691.62
247.24	1710.05
247.46	1673.19
247.68	1703.91
247.90	1626.09
248.11	1748.97
248.33	1660.90
248.55	1658.85
248.77	1705.96
248.98	1708.01
249.20	1785.83
249.42	1742.82
249.64	1710.05
249.85	1701.86
250.07	1660.90
250.29	1732.58
250.50	1824.74
250.72	1652.71
250.94	1689.57
251.16	1824.74
251.37	1791.97
251.59	1695.72
251.81	1732.58
252.02	1822.69
252.24	1693.67
252.46	1734.63
252.68	1619.94
252.89	1640.42
253.11	1611.75
253.33	1771.49
253.54	1716.20
253.76	1642.47
253.98	1679.33
254.20	1773.54
254.41	1593.32
254.63	1714.15
254.85	1662.95
255.06	1740.77
255.28	1802.21
255.50	1681.38
255.71	1742.82
255.93	1734.63
256.15	1646.57
256.36	1626.09
256.58	1697.77
256.80	1763.30
257.02	1718.25
257.23	1667.05
257.45	1718.25
257.67	1837.03
257.88	1712.10
258.10	1763.30
258.32	1734.63
258.53	1673.19
258.75	1832.93
258.97	1660.90
259.18	1710.05
259.40	1712.10
259.62	1824.74
259.83	1757.16
260.05	1796.07
260.27	2002.91
260.48	1744.87
260.70	1550.31
260.92	1794.02
261.13	1681.38
261.35	1693.67
261.57	1771.49
261.78	1611.75
262.00	1671.14
262.22	1779.68
262.43	1685.48
262.65	1642.47
262.86	1742.82
263.08	1837.03
263.30	1683.43
263.51	1689.57
263.73	1675.24
263.95	1789.92
264.16	1714.15
264.38	1605.61
264.60	1705.96
264.81	1718.25
265.03	1781.73
265.25	1789.92
265.46	1724.39
265.68	1820.64
265.89	1787.88
266.11	1562.60
266.33	1695.72
266.54	1712.10
266.76	1714.15
266.98	1767.40
267.19	1732.58
267.41	1722.34
267.62	1757.16
267.84	1576.94
268.06	1724.39
268.27	1751.01
268.49	1763.30
268.70	1751.01
268.92	1695.72
269.14	1654.76
269.35	1691.62
269.57	1693.67
269.79	1748.97
270.00	1677.29
270.22	1779.68
270.43	1650.66
270.65	1632.23
270.87	1728.49
271.08	1746.92
271.30	1703.91
271.51	1708.01
271.73	1748.97
271.95	1767.40
272.16	1703.91
272.38	1755.11
272.59	1701.86
272.81	1705.96
273.02	1660.90
273.24	1724.39
273.46	1732.58
273.67	1660.90
273.89	1714.15
274.10	1636.33
274.32	1738.73
274.54	1714.15
274.75	1675.24
274.97	1757.16
275.18	1779.68
275.40	1734.63
275.61	1718.25
275.83	1746.92
276.05	1667.05
276.26	1673.19
276.48	1650.66
276.69	1665.00
276.91	1619.94
277.12	1785.83
277.34	1724.39
277.55	1705.96
277.77	1716.20
277.99	1679.33
278.20	1689.57
278.42	1681.38
278.63	1683.43
278.85	1564.65
279.06	1708.01
279.28	1656.81
279.49	1767.40
279.71	1763.30
279.93	1685.48
280.14	1720.29
280.36	1712.10
280.57	1740.77
280.79	1748.97
281.00	1662.95
281.22	1736.68
281.43	1787.88
281.65	1581.03
281.86	1722.34
282.08	1728.49
282.29	1826.79
282.51	1654.76
282.73	1667.05
282.94	1568.74
283.16	1824.74
283.37	1857.51
283.59	1726.44
283.80	1761.25
284.02	1652.71
284.23	1697.77
284.45	1671.14
284.66	1642.47
284.88	1656.81
285.09	1771.49
285.31	1791.97
285.52	1710.05
285.74	1691.62
285.95	1775.59
286.17	1679.33
286.38	1800.16
286.60	1611.75
286.81	1587.18
287.03	1638.38
287.24	1675.24
287.46	1646.57
287.67	1699.81
287.89	1798.12
288.10	1712.10
288.32	1730.53
288.53	1785.83
288.75	1703.91
288.96	1683.43
289.18	1626.09
289.39	1724.39
289.61	1785.83
289.82	1875.94
290.04	1816.55
290.25	1624.04
290.47	1699.81
290.68	1689.57
290.90	1726.44
291.11	1656.81
291.33	1714.15
291.54	1611.75
291.76	1669.09
291.97	1681.38
292.18	1691.62
292.40	1781.73
292.61	1677.29
292.83	1861.60
293.04	1748.97
293.26	1679.33
293.47	1689.57
293.69	1650.66
293.90	1691.62
294.12	1820.64
294.33	1673.19
294.55	1693.67
294.76	1771.49
294.97	1738.73
295.19	1763.30
295.40	1607.66
295.62	1691.62
295.83	1748.97
296.05	1736.68
296.26	1814.50
296.48	1646.57
296.69	1691.62
296.90	1681.38
297.12	1748.97
297.33	1744.87
297.55	1730.53
297.76	1759.21
297.98	1785.83
298.19	1675.24
298.41	1710.05
298.62	1679.33
298.83	1822.69
299.05	1683.43
299.26	1689.57
299.48	1609.70
299.69	1740.77
299.90	1710.05
300.12	1640.42
300.33	1759.21
300.55	1738.73
300.76	1832.93
300.98	1681.38
301.19	1701.86
301.40	1619.94
301.62	1624.04
301.83	1728.49
302.05	1761.25
302.26	1650.66
302.47	1705.96
302.69	1667.05
302.90	1755.11
303.12	1576.94
303.33	1738.73
303.54	1773.54
303.76	1685.48
303.97	1753.06
304.19	1783.78
304.40	1681.38
304.61	1730.53
304.83	1877.99
305.04	1791.97
305.26	1648.61
305.47	1722.34
305.68	1734.63
305.90	1574.89
306.11	1785.83
306.33	1634.28
306.54	1619.94
306.75	1720.29
306.97	1638.38
307.18	1646.57
307.39	1667.05
307.61	1734.63
307.82	1718.25
308.04	1665.00
308.25	1685.48
308.46	1718.25
308.68	1662.95
308.89	1699.81
309.10	1763.30
309.32	1726.44
309.53	1589.22
309.74	1701.86
309.96	1644.52
310.17	1789.92
310.39	1687.53
310.60	1746.92
310.81	1683.43
311.03	1677.29
311.24	1734.63
311.45	1701.86
311.67	1882.08
311.88	1691.62
312.09	1624.04
312.31	1685.48
312.52	1712.10
312.73	1701.86
312.95	1658.85
313.16	1650.66
313.37	1808.36
313.59	1699.81
313.80	1736.68
314.01	1814.50
314.23	1753.06
314.44	1640.42
314.65	1660.90
314.87	1628.14
315.08	1646.57
315.29	1613.80
315.51	1716.20
315.72	1597.42
315.93	1832.93
316.15	1701.86
316.36	1650.66
316.57	1722.34
316.79	1724.39
317.00	1787.88
317.21	1755.11
317.43	1609.70
317.64	1632.23
317.85	1708.01
318.07	1681.38
318.28	1755.11
318.49	1826.79
318.70	1992.67
318.92	1945.57
319.13	1832.93
319.34	1892.32
319.56	1832.93
319.77	1828.84
319.98	1851.36
320.20	1796.07
320.41	1755.11
320.62	1785.83
320.83	1722.34
321.05	1888.23
321.26	1794.02
321.47	1681.38
321.69	1769.44
321.90	1636.33
322.11	1751.01
322.32	1677.29
322.54	1855.46
322.75	1683.43
322.96	1798.12
323.18	1646.57
323.39	1552.36
323.60	1677.29
323.81	1796.07
324.03	1687.53
324.24	1667.05
324.45	1726.44
324.66	1718.25
324.88	1791.97
325.09	1787.88
325.30	1650.66
325.52	1669.09
325.73	1699.81
325.94	1654.76
326.15	1609.70
326.37	1665.00
326.58	1791.97
326.79	1791.97
327.00	1650.66
327.22	1808.36
327.43	1640.42
327.64	1640.42
327.85	1683.43
328.07	1681.38
328.28	1785.83
328.49	1697.77
328.70	1714.15
328.92	1669.09
329.13	1669.09
329.34	1708.01
329.55	1849.32
329.76	1841.12
329.98	1726.44
330.19	1699.81
330.40	1701.86
330.61	1679.33
330.83	1734.63
331.04	1697.77
331.25	1650.66
331.46	1634.28
331.68	1697.77
331.89	1800.16
332.10	1691.62
332.31	1689.57
332.52	1759.21
332.74	1869.80
332.95	1632.23
333.16	1753.06
333.37	1787.88
333.58	1640.42
333.80	1771.49
334.01	1615.85
334.22	1765.35
334.43	1691.62
334.64	1695.72
334.86	1564.65
335.07	1640.42
335.28	1783.78
335.49	1673.19
335.70	1777.64
335.92	1730.53
336.13	1857.51
336.34	1775.59
336.55	1693.67
336.76	1763.30
336.98	1591.27
337.19	1636.33
337.40	1798.12
337.61	1945.57
337.82	1724.39
338.04	1791.97
338.25	1574.89
338.46	1658.85
338.67	1632.23
338.88	1697.77
339.09	1660.90
339.31	1658.85
339.52	1644.52
339.73	1652.71
339.94	1748.97
340.15	1783.78
340.36	1650.66
340.58	1767.40
340.79	1693.67
341.00	1708.01
341.21	1683.43
341.42	1820.64
341.63	1742.82
341.85	1720.29
342.06	1703.91
342.27	1677.29
342.48	1789.92
342.69	1626.09
342.90	1689.57
343.12	1726.44
343.33	1740.77
343.54	1759.21
343.75	1783.78
343.96	1730.53
344.17	1689.57
344.38	1740.77
344.60	1701.86
344.81	1644.52
345.02	1667.05
345.23	1734.63
345.44	1828.84
345.65	1783.78
345.86	1683.43
346.07	1740.77
346.29	1699.81
346.50	1773.54
346.71	1716.20
346.92	1728.49
347.13	1906.66
347.34	1667.05
347.55	1712.10
347.76	1658.85
347.98	1644.52
348.19	1683.43
348.40	1742.82
348.61	1720.29
348.82	1828.84
349.03	1759.21
349.24	1656.81
349.45	1849.32
349.66	1558.50
349.88	1699.81
350.09	1673.19
350.30	1853.41
350.51	1748.97
350.72	1720.29
350.93	1748.97
351.14	1703.91
351.35	1728.49
351.56	1689.57
351.77	1697.77
351.99	1718.25
352.20	1726.44
352.41	1816.55
352.62	1634.28
352.83	1669.09
353.04	1722.34
353.25	1697.77
353.46	1755.11
353.67	1763.30
353.88	1632.23
354.09	1742.82
354.30	1771.49
354.52	1767.40
354.73	1685.48
354.94	1640.42
355.15	1724.39
355.36	1763.30
355.57	1755.11
355.78	1630.18
355.99	1695.72
356.20	1619.94
356.41	1767.40
356.62	1726.44
356.83	1677.29
357.04	1738.73
357.25	1695.72
357.46	1718.25
357.68	1636.33
357.89	1583.08
358.10	1669.09
358.31	1755.11
358.52	1724.39
358.73	1720.29
358.94	1593.32
359.15	1695.72
359.36	1800.16
359.57	1665.00
359.78	1738.73
359.99	1781.73
360.20	1624.04
360.41	1681.38
360.62	1718.25
360.83	1730.53
361.04	1785.83
361.25	1777.64
361.46	1822.69
361.67	1779.68
361.88	1753.06
362.09	1755.11
362.30	1740.77
362.51	1728.49
362.72	1703.91
362.93	1726.44
363.14	1763.30
363.35	1716.20
363.56	1638.38
363.78	1775.59
363.99	1744.87
364.20	1607.66
364.41	1755.11
364.62	1910.75
364.83	1753.06
365.04	1705.96
365.25	1660.90
365.46	1796.07
365.67	1665.00
365.88	1751.01
366.09	1630.18
366.30	1705.96
366.51	1755.11
366.72	1687.53
366.93	1771.49
367.14	1761.25
367.35	1859.56
367.56	1748.97
367.77	1796.07
367.98	1665.00
368.18	1710.05
368.39	1660.90
368.60	1646.57
368.81	1697.77
369.02	1689.57
369.23	1759.21
369.44	1632.23
369.65	1689.57
369.86	1746.92
370.07	1730.53
370.28	1683.43
370.49	1777.64
370.70	1738.73
370.91	1691.62
371.12	1658.85
371.33	1818.60
371.54	1615.85
371.75	1789.92
371.96	1658.85
372.17	1742.82
372.38	1683.43
372.59	1673.19
372.80	1665.00
373.01	1658.85
373.22	1658.85
373.43	1683.43
373.64	1665.00
373.85	1865.70
374.06	1789.92
374.26	1703.91
374.47	1730.53
374.68	1841.12
374.89	1746.92
375.10	1646.57
375.31	1785.83
375.52	1785.83
375.73	1718.25
375.94	1681.38
376.15	1820.64
376.36	1681.38
376.57	1681.38
376.78	1648.61
376.99	1722.34
377.20	1794.02
377.40	1650.66
377.61	1804.26
377.82	1675.24
378.03	1837.03
378.24	1742.82
378.45	1753.06
378.66	1691.62
378.87	1617.90
379.08	1695.72
379.29	1632.23
379.50	1800.16
379.71	1734.63
379.91	1765.35
380.12	1669.09
380.33	1669.09
380.54	1689.57
380.75	1685.48
380.96	1693.67
381.17	1787.88
381.38	1767.40
381.59	1730.53
381.80	1705.96
382.00	1877.99
382.21	1767.40
382.42	1904.61
382.63	1800.16
382.84	1800.16
383.05	1705.96
383.26	1796.07
383.47	1751.01
383.68	1783.78
383.88	1744.87
384.09	1738.73
384.30	1806.31
384.51	1669.09
384.72	1720.29
384.93	1583.08
385.14	1675.24
385.35	1705.96
385.55	1681.38
385.76	1783.78
385.97	1724.39
386.18	1683.43
386.39	1701.86
386.60	1650.66
386.81	1685.48
387.02	1734.63
387.22	1693.67
387.43	1755.11
387.64	1755.11
387.85	1920.99
388.06	2201.57
388.27	4689.85
388.48	9133.94
388.68	11542.35
388.89	13295.41
389.10	13950.76
389.31	11786.06
389.52	9707.37
389.73	8644.48
389.93	7710.60
390.14	7272.34
390.35	6694.81
390.56	6018.98
390.77	4956.08
390.98	3925.96
391.18	3149.78
391.39	2385.88
391.60	1980.39
391.81	1937.38
392.02	1818.60
392.23	1890.28
392.43	1736.68
392.64	1804.26
392.85	1763.30
393.06	1920.99
393.27	1701.86
393.47	1615.85
393.68	1734.63
393.89	1712.10
394.10	1839.08
394.31	1738.73
394.52	1716.20
394.72	1687.53
394.93	1798.12
395.14	1660.90
395.35	1798.12
395.56	1669.09
395.76	1771.49
395.97	1779.68
396.18	1896.42
396.39	1880.04
396.60	2019.30
396.80	1982.43
397.01	1970.15
397.22	1849.32
397.43	1845.22
397.64	1814.50
397.84	1837.03
398.05	1925.09
398.26	1761.25
398.47	1818.60
398.67	1761.25
398.88	1791.97
399.09	1730.53
399.30	1746.92
399.51	1726.44
399.71	1644.52
399.92	1742.82
400.13	1841.12
400.34	1705.96
400.54	1730.53
400.75	1847.27
400.96	1724.39
401.17	1853.41
401.37	1757.16
401.58	1683.43
401.79	1730.53
402.00	1851.36
402.21	2082.78
402.41	2117.60
402.62	2095.07
402.83	2185.18
403.04	2090.98
403.24	2203.61
403.45	1896.42
403.66	1992.67
403.87	1943.52
404.07	1896.42
404.28	1908.71
404.49	1855.46
404.70	1814.50
404.90	1730.53
405.11	1697.77
405.32	1761.25
405.52	1724.39
405.73	1650.66
405.94	1724.39
406.15	1701.86
406.35	1775.59
406.56	1759.21
406.77	1673.19
406.98	1773.54
407.18	1687.53
407.39	1781.73
407.60	1722.34
407.80	1679.33
408.01	1695.72
408.22	1714.15
408.43	1673.19
408.63	1796.07
408.84	1742.82
409.05	1705.96
409.25	1734.63
409.46	1626.09
409.67	1708.01
409.88	1683.43
410.08	1648.61
410.29	1691.62
410.50	1789.92
410.70	1785.83
410.91	1607.66
411.12	1742.82
411.32	1685.48
411.53	1658.85
411.74	1890.28
411.95	1865.70
412.15	1808.36
412.36	1837.03
412.57	1787.88
412.77	1855.46
412.98	1726.44
413.19	1796.07
413.39	1746.92
413.60	1693.67
413.81	1789.92
414.01	1671.14
414.22	1693.67
414.43	1771.49
414.63	1693.67
414.84	1779.68
415.05	1722.34
415.25	1685.48
415.46	1757.16
415.67	1671.14
415.87	1751.01
416.08	1703.91
416.29	1722.34
416.49	1759.21
416.70	1665.00
416.91	1671.14
417.11	1765.35
417.32	1820.64
417.53	1800.16
417.73	1761.25
417.94	1736.68
418.15	1730.53
418.35	1693.67
418.56	1726.44
418.77	1865.70
418.97	1714.15
419.18	1673.19
419.38	1599.46
419.59	1738.73
419.80	1791.97
420.00	1699.81
420.21	1701.86
420.42	1755.11
420.62	1644.52
420.83	1650.66
421.04	1826.79
421.24	1652.71
421.45	1822.69
421.65	1773.54
421.86	1716.20
422.07	1765.35
422.27	1802.21
422.48	1730.53
422.69	1632.23
422.89	1681.38
423.10	1699.81
423.30	1644.52
423.51	1800.16
423.72	1675.24
423.92	1718.25
424.13	1589.22
424.33	1722.34
424.54	1738.73
424.75	1679.33
424.95	1791.97
425.16	1789.92
425.36	1708.01
425.57	1746.92
425.78	1763.30
425.98	1695.72
426.19	1716.20
426.39	1642.47
426.60	1738.73
426.81	1871.84
427.01	1722.34
427.22	1714.15
427.42	1576.94
427.63	1673.19
427.83	1738.73
428.04	1794.02
428.25	1738.73
428.45	1820.64
428.66	1732.58
428.86	1716.20
429.07	1710.05
429.28	1648.61
429.48	1591.27
429.69	1642.47
429.89	1742.82
430.10	1632.23
430.30	1740.77
430.51	1671.14
430.71	1599.46
430.92	1650.66
431.13	1617.90
431.33	1693.67
431.54	1718.25
431.74	1775.59
431.95	1798.12
432.15	1634.28
432.36	1710.05
432.56	1718.25
432.77	1785.83
432.98	1804.26
433.18	1669.09
433.39	1753.06
433.59	1736.68
433.80	1849.32
434.00	1863.65
434.21	1697.77
434.41	1656.81
434.62	1855.46
434.82	1652.71
435.03	1687.53
435.23	1761.25
435.44	1665.00
435.64	1681.38
435.85	1695.72
436.06	1843.17
436.26	1650.66
436.47	1669.09
436.67	1728.49
436.88	1665.00
437.08	1787.88
437.29	1763.30
437.49	1734.63
437.70	1851.36
437.90	1714.15
438.11	1847.27
438.31	1806.31
438.52	1918.95
438.72	1955.81
438.93	1968.10
439.13	1861.60
439.34	1798.12
439.54	1822.69
439.75	1779.68
439.95	1736.68
440.16	1738.73
440.36	1773.54
440.57	1843.17
440.77	1738.73
440.98	1726.44
441.18	1708.01
441.39	1714.15
441.59	1626.09
441.80	1794.02
442.00	1716.20
442.21	1847.27
442.41	1677.29
442.62	1763.30
442.82	1689.57
443.02	1767.40
443.23	1732.58
443.43	1685.48
443.64	1812.45
443.84	1800.16
444.05	1810.40
444.25	1802.21
444.46	1732.58
444.66	1763.30
444.87	1820.64
445.07	1667.05
445.28	1714.15
445.48	1810.40
445.69	1783.78
445.89	1847.27
446.09	1708.01
446.30	2023.39
446.50	2557.91
446.71	4118.47
446.91	5140.40
447.12	5744.55
447.32	5892.01
447.53	5302.19
447.73	4419.52
447.93	4001.73
448.14	3610.57
448.34	3448.78
448.55	3147.73
448.75	3123.15
448.96	3002.32
449.16	2686.94
449.36	2469.85
449.57	2189.28
449.77	1974.24
449.98	1734.63
450.18	1820.64
450.39	1894.37
450.59	1730.53
450.79	1767.40
451.00	1675.24
451.20	1851.36
451.41	1679.33
451.61	1808.36
451.81	1755.11
452.02	1748.97
452.22	1691.62
452.43	1753.06
452.63	1830.88
452.84	1730.53
453.04	1681.38
453.24	1744.87
453.45	1703.91
453.65	1722.34
453.86	1755.11
454.06	1779.68
454.26	1705.96
454.47	1677.29
454.67	1767.40
454.87	1810.40
455.08	1759.21
455.28	1816.55
455.49	1759.21
455.69	1748.97
455.89	1847.27
456.10	1746.92
456.30	1724.39
456.51	1791.97
456.71	1824.74
456.91	1748.97
457.12	1806.31
457.32	1732.58
457.52	1681.38
457.73	1769.44
457.93	1781.73
458.14	1742.82
458.34	1667.05
458.54	1716.20
458.75	1779.68
458.95	1796.07
459.15	1722.34
459.36	1828.84
459.56	1718.25
459.76	1880.04
459.97	1771.49
460.17	1736.68
460.37	1757.16
460.58	1685.48
460.78	1742.82
460.99	1640.42
461.19	1710.05
461.39	1593.32
461.60	1677.29
461.80	1826.79
462.00	1660.90
462.21	1732.58
462.41	1724.39
462.61	1728.49
462.82	1640.42
463.02	1769.44
463.22	1789.92
463.43	1826.79
463.63	1763.30
463.83	1779.68
464.04	1773.54
464.24	1759.21
464.44	1705.96
464.64	1701.86
464.85	1783.78
465.05	1818.60
465.25	1718.25
465.46	1689.57
465.66	1787.88
465.86	1816.55
466.07	1722.34
466.27	1689.57
466.47	1658.85
466.68	1669.09
466.88	1726.44
467.08	1714.15
467.29	1787.88
467.49	1800.16
467.69	1685.48
467.89	1689.57
468.10	1773.54
468.30	1767.40
468.50	1810.40
468.71	1726.44
468.91	1660.90
469.11	1830.88
469.31	1679.33
469.52	1617.90
469.72	1804.26
469.92	1791.97
470.13	1681.38
470.33	1781.73
470.53	1806.31
470.73	2156.51
470.94	2445.27
471.14	2703.32
471.34	2987.99
471.54	2824.15
471.75	2549.72
471.95	2351.07
472.15	2217.95
472.36	2211.81
472.56	2213.85
472.76	2222.05
472.96	2148.32
473.17	2031.58
473.37	2000.87
473.57	1892.32
473.77	1804.26
473.98	1718.25
474.18	1665.00
474.38	1904.61
474.58	1710.05
474.79	1640.42
474.99	1746.92
475.19	1830.88
475.39	1685.48
475.60	1869.80
475.80	1765.35
476.00	1734.63
476.20	1740.77
476.41	1691.62
476.61	1818.60
476.81	1810.40
477.01	1794.02
477.21	1845.22
477.42	1877.99
477.62	1691.62
477.82	1757.16
478.02	1701.86
478.23	1593.32
478.43	1701.86
478.63	1736.68
478.83	1722.34
479.03	1703.91
479.24	1843.17
479.44	1816.55
479.64	1681.38
479.84	1619.94
480.04	1621.99
480.25	1785.83
480.45	1730.53
480.65	1701.86
480.85	1771.49
481.06	1685.48
481.26	1734.63
481.46	1830.88
481.66	1687.53
481.86	1767.40
482.06	1753.06
482.27	1624.04
482.47	1673.19
482.67	1755.11
482.87	1726.44
483.07	1748.97
483.28	1665.00
483.48	1685.48
483.68	1738.73
483.88	1763.30
484.08	1697.77
484.29	1708.01
484.49	1746.92
484.69	1728.49
484.89	1865.70
485.09	1714.15
485.29	1708.01
485.50	1687.53
485.70	1769.44
485.90	1779.68
486.10	1757.16
486.30	1841.12
486.50	1804.26
486.71	1751.01
486.91	1816.55
487.11	1787.88
487.31	1681.38
487.51	1701.86
487.71	1705.96
487.91	1691.62
488.12	1714.15
488.32	1599.46
488.52	1744.87
488.72	1628.14
488.92	1730.53
489.12	1853.41
489.32	1787.88
489.53	1820.64
489.73	1650.66
489.93	1855.46
490.13	1718.25
490.33	1660.90
490.53	1710.05
490.73	1810.40
490.94	1681.38
491.14	1775.59
491.34	1789.92
491.54	2109.41
491.74	2684.89
491.94	3139.54
492.14	3426.25
492.34	3489.74
492.54	3127.25
492.75	2754.52
492.95	2627.54
493.15	2459.61
493.35	2394.08
493.55	2387.93
493.75	2217.95
493.95	2265.05
494.15	2066.40
494.35	2000.87
494.56	1841.12
494.76	1814.50
494.96	1812.45
495.16	1730.53
495.36	1720.29
495.56	1855.46
495.76	1695.72
495.96	1748.97
496.16	1689.57
496.36	1794.02
496.56	1677.29
496.77	1751.01
496.97	1691.62
497.17	1810.40
497.37	1654.76
497.57	1791.97
497.77	1738.73
497.97	1783.78
498.17	1636.33
498.37	1736.68
498.57	1769.44
498.77	1675.24
498.97	1787.88
499.17	1839.08
499.38	1775.59
499.58	1779.68
499.78	1705.96
499.98	1800.16
500.18	1771.49
500.38	1716.20
500.58	1888.23
500.78	2400.22
500.98	4630.46
501.18	6649.75
501.38	8255.36
501.58	9021.30
501.78	8789.88
501.98	6885.27
502.18	5838.76
502.38	5048.24
502.58	4595.64
502.78	4130.75
502.98	4001.73
503.18	3928.00
503.38	3514.31
503.59	3160.02
503.79	2895.83
503.99	2592.73
504.19	2461.66
504.39	2371.55
504.59	2351.07
504.79	2326.49
504.99	2207.71
505.19	2056.16
505.39	1951.71
505.59	2027.49
505.79	1988.58
505.99	1853.41
506.19	1804.26
506.39	1927.14
506.59	1820.64
506.79	1816.55
506.99	1845.22
507.19	1744.87
507.39	1791.97
507.59	1685.48
507.79	1658.85
507.99	1705.96
508.19	1796.07
508.39	1693.67
508.59	1789.92
508.79	1822.69
508.99	1896.42
509.19	1673.19
509.39	1746.92
509.59	1675.24
509.79	1732.58
509.99	1783.78
510.19	1818.60
510.39	1779.68
510.59	1740.77
510.79	1642.47
510.99	1671.14
511.19	1765.35
511.39	1871.84
511.59	1767.40
511.79	1779.68
511.99	1660.90
512.19	1884.13
512.38	1763.30
512.58	1689.57
512.78	1765.35
512.98	1845.22
513.18	1789.92
513.38	1689.57
513.58	1726.44
513.78	1740.77
513.98	1718.25
514.18	1738.73
514.38	1722.34
514.58	1777.64
514.78	1619.94
514.98	1755.11
515.18	1744.87
515.38	1724.39
515.58	1738.73
515.78	1677.29
515.98	1681.38
516.18	1763.30
516.38	1738.73
516.57	1710.05
516.77	1687.53
516.97	1744.87
517.17	1583.08
517.37	1564.65
517.57	1738.73
517.77	1791.97
517.97	1740.77
518.17	1773.54
518.37	1634.28
518.57	1691.62
518.77	1574.89
518.97	1730.53
519.16	1740.77
519.36	1812.45
519.56	1708.01
519.76	1730.53
519.96	1714.15
520.16	1783.78
520.36	1705.96
520.56	1814.50
520.76	1695.72
520.96	1687.53
521.16	1748.97
521.35	1837.03
521.55	1824.74
521.75	1728.49
521.95	1646.57
522.15	1753.06
522.35	1644.52
522.55	1671.14
522.75	1767.40
522.95	1695.72
523.14	1646.57
523.34	1683.43
523.54	1693.67
523.74	1773.54
523.94	1746.92
524.14	1656.81
524.34	1716.20
524.54	1845.22
524.73	1820.64
524.93	1759.21
525.13	1769.44
525.33	1714.15
525.53	1859.56
525.73	1718.25
525.93	1757.16
526.13	1658.85
526.32	1683.43
526.52	1834.98
526.72	1777.64
526.92	1736.68
527.12	1744.87
527.32	1697.77
527.52	1806.31
527.71	1775.59
527.91	1738.73
528.11	1669.09
528.31	1726.44
528.51	1736.68
528.71	1812.45
528.90	1699.81
529.10	1865.70
529.30	1783.78
529.50	1648.61
529.70	1705.96
529.90	1708.01
530.09	1701.86
530.29	1654.76
530.49	1720.29
530.69	1796.07
530.89	1753.06
531.09	1802.21
531.28	1710.05
531.48	1843.17
531.68	1763.30
531.88	1755.11
532.08	1828.84
532.28	1791.97
532.47	1746.92
532.67	1771.49
532.87	1777.64
533.07	1736.68
533.27	1800.16
533.46	1701.86
533.66	1728.49
533.86	1701.86
534.06	1791.97
534.26	1773.54
534.45	1726.44
534.65	1736.68
534.85	1802.21
535.05	1765.35
535.25	1820.64
535.44	1699.81
535.64	1757.16
535.84	1675.24
536.04	1755.11
536.24	1726.44
536.43	1736.68
536.63	1771.49
536.83	1652.71
537.03	1656.81
537.22	1695.72
537.42	1665.00
537.62	1738.73
537.82	1699.81
538.02	1845.22
538.21	1740.77
538.41	1861.60
538.61	1734.63
538.81	1701.86
539.00	1863.65
539.20	1736.68
539.40	1744.87
539.60	1746.92
539.79	1779.68
539.99	1697.77
540.19	1691.62
540.39	1687.53
540.58	1738.73
540.78	1767.40
540.98	1722.34
541.18	1677.29
541.37	1847.27
541.57	1773.54
541.77	1775.59
541.97	1642.47
542.16	1738.73
542.36	1763.30
542.56	1771.49
542.76	1832.93
542.95	1740.77
543.15	1660.90
543.35	1746.92
543.54	1597.42
543.74	1716.20
543.94	1744.87
544.14	1687.53
544.33	1726.44
544.53	1730.53
544.73	1705.96
544.93	1722.34
545.12	1671.14
545.32	1646.57
545.52	1671.14
545.71	1746.92
545.91	1685.48
546.11	1738.73
546.30	1730.53
546.50	1748.97
546.70	1691.62
546.90	1732.58
547.09	1671.14
547.29	1767.40
547.49	1800.16
547.68	1671.14
547.88	1656.81
548.08	1777.64
548.27	2119.65
548.47	1712.10
548.67	1683.43
548.87	1744.87
549.06	1667.05
549.26	1730.53
549.46	1802.21
549.65	1705.96
549.85	1742.82
550.05	1808.36
550.24	1689.57
550.44	1726.44
550.64	1683.43
550.83	1757.16
551.03	1722.34
551.23	1851.36
551.42	1673.19
551.62	1789.92
551.82	1771.49
552.01	1722.34
552.21	1814.50
552.41	1746.92
552.60	1798.12
552.80	1755.11
553.00	1710.05
553.19	1744.87
553.39	1906.66
553.59	1648.61
553.78	1765.35
553.98	1804.26
554.17	1722.34
554.37	1730.53
554.57	1812.45
554.76	1681.38
554.96	1705.96
555.16	1753.06
555.35	1753.06
555.55	1882.08
555.75	1787.88
555.94	1796.07
556.14	1699.81
556.33	1808.36
556.53	1837.03
556.73	1757.16
556.92	1748.97
557.12	1814.50
557.32	1890.28
557.51	1734.63
557.71	1777.64
557.90	1804.26
558.10	1800.16
558.30	1714.15
558.49	1753.06
558.69	1802.21
558.88	1738.73
559.08	1781.73
559.28	1689.57
559.47	1824.74
559.67	1832.93
559.86	1791.97
560.06	1812.45
560.26	1748.97
560.45	1708.01
560.65	1734.63
560.84	1791.97
561.04	1740.77
561.24	1775.59
561.43	1710.05
561.63	1855.46
561.82	1798.12
562.02	1757.16
562.22	1767.40
562.41	1693.67
562.61	1691.62
562.80	1791.97
563.00	1787.88
563.19	1769.44
563.39	1691.62
563.59	1728.49
563.78	1683.43
563.98	1654.76
564.17	1740.77
564.37	1632.23
564.56	1779.68
564.76	1609.70
564.96	1826.79
565.15	1791.97
565.35	1841.12
565.54	1730.53
565.74	1759.21
565.93	1753.06
566.13	1820.64
566.32	1804.26
566.52	1787.88
566.71	1832.93
566.91	1791.97
567.11	1722.34
567.30	1673.19
567.50	1738.73
567.69	1779.68
567.89	1644.52
568.08	1669.09
568.28	1638.38
568.47	1599.46
568.67	1871.84
568.86	1646.57
569.06	1791.97
569.25	1677.29
569.45	1671.14
569.64	1800.16
569.84	1689.57
570.04	1820.64
570.23	1671.14
570.43	1699.81
570.62	1753.06
570.82	1843.17
571.01	1609.70
571.21	1742.82
571.40	1755.11
571.60	1783.78
571.79	1748.97
571.99	1748.97
572.18	1714.15
572.38	1755.11
572.57	1687.53
572.77	1806.31
572.96	1912.80
573.16	1771.49
573.35	1753.06
573.55	1822.69
573.74	1732.58
573.94	1703.91
574.13	1732.58
574.33	1882.08
574.52	1777.64
574.71	1751.01
574.91	1839.08
575.10	1708.01
575.30	1771.49
575.49	1769.44
575.69	1720.29
575.88	1771.49
576.08	1712.10
576.27	1859.56
576.47	1816.55
576.66	1896.42
576.86	1914.85
577.05	1787.88
577.25	1744.87
577.44	1929.19
577.64	1753.06
577.83	1853.41
578.02	1771.49
578.22	1892.32
578.41	1902.56
578.61	1755.11
578.80	1689.57
579.00	1785.83
579.19	1779.68
579.39	1855.46
579.58	1841.12
579.77	1722.34
579.97	1785.83
580.16	1820.64
580.36	1847.27
580.55	1855.46
580.75	1808.36
580.94	1787.88
581.13	1892.32
581.33	1912.80
581.52	1798.12
581.72	1910.75
581.91	1871.84
582.11	1787.88
582.30	1886.18
582.49	1814.50
582.69	1824.74
582.88	1806.31
583.08	1855.46
583.27	1822.69
583.47	1751.01
583.66	1732.58
583.85	1785.83
584.05	1767.40
584.24	1808.36
584.44	1748.97
584.63	1828.84
584.82	1898.47
585.02	1875.94
585.21	1918.95
585.41	1839.08
585.60	1953.76
585.79	2062.30
585.99	1968.10
586.18	1976.29
586.37	2289.63
586.57	3362.76
586.76	9795.43
586.96	27041.38
587.15	41647.49
587.34	51479.79
587.54	57441.43
587.73	55743.66
587.93	40258.97
588.12	29781.56
588.31	23549.59
588.51	20442.82
588.70	18554.60
588.89	17123.07
589.09	15515.41
589.28	13760.30
589.47	11312.98
589.67	9469.81
589.86	7288.72
590.06	5441.45
590.25	4134.85
590.44	3233.74
590.64	2635.74
590.83	2215.90
591.02	2115.55
591.22	1968.10
591.41	1849.32
591.60	1759.21
591.80	1966.05
591.99	1755.11
592.18	1751.01
592.38	1818.60
592.57	1740.77
592.76	1742.82
592.96	1773.54
593.15	1767.40
593.34	1765.35
593.54	1820.64
593.73	1781.73
593.92	1834.98
594.12	1800.16
594.31	1820.64
594.50	1820.64
594.70	1869.80
594.89	1959.91
595.08	1675.24
595.28	1830.88
595.47	1910.75
595.66	1710.05
595.86	1665.00
596.05	1798.12
596.24	1777.64
596.43	1824.74
596.63	1834.98
596.82	1834.98
597.01	1871.84
597.21	1894.37
597.40	1763.30
597.59	1775.59
597.79	1888.23
597.98	1787.88
598.17	1773.54
598.36	1789.92
598.56	1808.36
598.75	1681.38
598.94	1763.30
599.14	1812.45
599.33	1769.44
599.52	1816.55
599.71	1763.30
599.91	1808.36
600.10	1796.07
600.29	1730.53
600.48	1843.17
600.68	1837.03
600.87	1703.91
601.06	1712.10
601.26	1722.34
601.45	1837.03
601.64	1769.44
601.83	1916.90
602.03	1675.24
602.22	1710.05
602.41	1777.64
602.60	1873.89
602.80	1787.88
602.99	1677.29
603.18	1718.25
603.37	1791.97
603.57	1714.15
603.76	1816.55
603.95	1746.92
604.14	1740.77
604.34	1669.09
604.53	1734.63
604.72	1734.63
604.91	1732.58
605.10	1812.45
605.30	1736.68
605.49	1853.41
605.68	1748.97
605.87	1773.54
606.07	1675.24
606.26	1791.97
606.45	1675.24
606.64	1740.77
606.84	1769.44
607.03	1691.62
607.22	1863.65
607.41	1775.59
607.60	1785.83
607.80	1843.17
607.99	1742.82
608.18	1791.97
608.37	1787.88
608.56	1738.73
608.76	1781.73
608.95	1859.56
609.14	1744.87
609.33	1771.49
609.52	1910.75
609.72	1798.12
609.91	1857.51
610.10	1804.26
610.29	1884.13
610.48	1880.04
610.68	1771.49
610.87	1773.54
611.06	1857.51
611.25	1748.97
611.44	1886.18
611.63	1705.96
611.83	1751.01
612.02	1662.95
612.21	1748.97
612.40	1630.18
612.59	1624.04
612.79	1679.33
612.98	1705.96
613.17	1849.32
613.36	1746.92
613.55	1816.55
613.74	1802.21
613.93	1826.79
614.13	1880.04
614.32	1974.24
614.51	1896.42
614.70	1816.55
614.89	1794.02
615.08	1877.99
615.28	2215.90
615.47	1779.68
615.66	1824.74
615.85	1783.78
616.04	1904.61
616.23	1794.02
616.42	1742.82
616.62	1832.93
616.81	1851.36
617.00	1808.36
617.19	1667.05
617.38	1740.77
617.57	1699.81
617.76	1832.93
617.95	1771.49
618.15	1783.78
618.34	1812.45
618.53	1705.96
618.72	1826.79
618.91	1837.03
619.10	1834.98
619.29	1687.53
619.48	1755.11
619.68	1763.30
619.87	1656.81
620.06	1697.77
620.25	1730.53
620.44	1677.29
620.63	1787.88
620.82	1765.35
621.01	1671.14
621.20	1732.58
621.39	1791.97
621.59	1753.06
621.78	1677.29
621.97	1630.18
622.16	1800.16
622.35	1765.35
622.54	1798.12
622.73	1849.32
622.92	1632.23
623.11	1810.40
623.30	1746.92
623.49	1755.11
623.68	1624.04
623.88	1767.40
624.07	1763.30
624.26	1728.49
624.45	1730.53
624.64	1683.43
624.83	1783.78
625.02	1646.57
625.21	1697.77
625.40	1746.92
625.59	1798.12
625.78	1695.72
625.97	1781.73
626.16	1796.07
626.35	1777.64
626.54	1843.17
626.74	1910.75
626.93	1763.30
627.12	1822.69
627.31	1851.36
627.50	1779.68
627.69	1814.50
627.88	1765.35
628.07	1746.92
628.26	1667.05
628.45	1650.66
628.64	1714.15
628.83	1781.73
629.02	1683.43
629.21	1748.97
629.40	1738.73
629.59	1734.63
629.78	1734.63
629.97	1728.49
630.16	1783.78
630.35	1789.92
630.54	1773.54
630.73	1675.24
630.92	1818.60
631.11	1769.44
631.30	1769.44
631.49	1710.05
631.68	1763.30
631.87	1851.36
632.06	1640.42
632.25	1818.60
632.44	1716.20
632.63	1814.50
632.82	1757.16
633.01	1759.21
633.20	1877.99
633.39	1816.55
633.58	1716.20
633.77	1785.83
633.96	1816.55
634.15	1775.59
634.34	1853.41
634.53	1705.96
634.72	1724.39
634.91	1720.29
635.10	1863.65
635.29	1757.16
635.48	1755.11
635.67	1658.85
635.86	1648.61
636.05	1755.11
636.24	1677.29
636.43	1791.97
636.62	1753.06
636.81	1587.18
637.00	1603.56
637.19	1740.77
637.38	1689.57
637.57	1705.96
637.76	1806.31
637.95	1822.69
638.14	1802.21
638.33	1814.50
638.52	1794.02
638.71	1722.34
638.89	1665.00
639.08	1787.88
639.27	1834.98
639.46	1890.28
639.65	2189.28
639.84	2201.57
640.03	2406.36
640.22	2324.44
640.41	2254.81
640.60	2035.68
640.79	2027.49
640.98	1961.95
641.17	1892.32
641.36	1841.12
641.55	1894.37
641.74	1763.30
641.92	1814.50
642.11	1742.82
642.30	1781.73
642.49	1783.78
642.68	1757.16
642.87	1828.84
643.06	1703.91
643.25	1800.16
643.44	1669.09
643.63	1699.81
643.82	1742.82
644.00	1701.86
644.19	1730.53
644.38	1621.99
644.57	1742.82
644.76	1724.39
644.95	1677.29
645.14	1769.44
645.33	1705.96
645.52	1669.09
645.71	1691.62
645.89	1642.47
646.08	1697.77
646.27	1722.34
646.46	1751.01
646.65	1671.14
646.84	1714.15
647.03	1640.42
647.22	1757.16
647.40	1775.59
647.59	1710.05
647.78	1660.90
647.97	1632.23
648.16	1665.00
648.35	1777.64
648.54	1783.78
648.73	1679.33
648.91	1779.68
649.10	1652.71
649.29	1642.47
649.48	1646.57
649.67	1761.25
649.86	1796.07
650.05	1763.30
650.23	1968.10
650.42	1828.84
650.61	1906.66
650.80	1976.29
650.99	2056.16
651.18	1841.12
651.36	1804.26
651.55	1781.73
651.74	1841.12
651.93	1681.38
652.12	1738.73
652.31	1734.63
652.49	1695.72
652.68	1718.25
652.87	1849.32
653.06	1785.83
653.25	1929.19
653.44	1714.15
653.62	1859.56
653.81	1642.47
654.00	1701.86
654.19	1755.11
654.38	1853.41
654.56	1705.96
654.75	1787.88
654.94	1775.59
655.13	1763.30
655.32	1763.30
655.51	1791.97
655.69	1669.09
655.88	1783.78
656.07	1638.38
656.26	1748.97
656.45	1654.76
656.63	1751.01
656.82	1777.64
657.01	1775.59
657.20	1685.48
657.38	1763.30
657.57	1640.42
657.76	1640.42
657.95	1785.83
658.14	1742.82
658.32	1775.59
658.51	1642.47
658.70	1691.62
658.89	1705.96
659.08	1746.92
659.26	1847.27
659.45	1730.53
659.64	1783.78
659.83	1742.82
660.01	2021.35
660.20	1834.98
660.39	1845.22
660.58	1730.53
660.76	1785.83
660.95	1685.48
661.14	1773.54
661.33	1648.61
661.51	1632.23
661.70	1718.25
661.89	1804.26
662.08	1708.01
662.26	1638.38
662.45	1775.59
662.64	1837.03
662.83	1798.12
663.01	1583.08
663.20	1636.33
663.39	1826.79
663.58	1650.66
663.76	1675.24
663.95	1748.97
664.14	1730.53
664.32	1685.48
664.51	1691.62
664.70	1667.05
664.89	1798.12
665.07	1644.52
665.26	1806.31
665.45	1611.75
665.64	1800.16
665.82	1681.38
666.01	1783.78
666.20	1675.24
666.38	1855.46
666.57	1822.69
666.76	2308.06
666.95	4601.79
667.13	11384.66
667.32	18482.92
667.51	22365.87
667.69	24991.36
667.88	25271.93
668.07	19508.95
668.25	14444.32
668.44	11700.05
668.63	9824.11
668.81	8636.28
669.00	7608.20
669.19	6954.90
669.38	6064.04
669.56	5359.53
669.75	4622.27
669.94	3827.65
670.12	3024.85
670.31	2662.36
670.50	2379.74
670.68	2154.46
670.87	1875.94
671.06	1810.40
671.24	1851.36
671.43	1853.41
671.62	1779.68
671.80	1765.35
671.99	1830.88
672.18	1771.49
672.36	1789.92
672.55	1798.12
672.74	1753.06
672.92	1677.29
673.11	1757.16
673.29	1632.23
673.48	1771.49
673.67	1753.06
673.85	1740.77
674.04	1708.01
674.23	1722.34
674.41	1816.55
674.60	1634.28
674.79	1660.90
674.97	1714.15
675.16	1755.11
675.34	1796.07
675.53	1701.86
675.72	1724.39
675.90	1857.51
676.09	1763.30
676.28	1779.68
676.46	1648.61
676.65	1732.58
676.83	1632.23
677.02	1675.24
677.21	1665.00
677.39	1748.97
677.58	1662.95
677.77	1705.96
677.95	1636.33
678.14	1646.57
678.32	1665.00
678.51	1681.38
678.70	1871.84
678.88	1697.77
679.07	1718.25
679.25	1783.78
679.44	1673.19
679.63	1673.19
679.81	1687.53
680.00	1791.97
680.18	1755.11
680.37	1775.59
680.55	1732.58
680.74	1654.76
680.93	1677.29
681.11	1705.96
681.30	1740.77
681.48	1744.87
681.67	1644.52
681.85	1751.01
682.04	1624.04
682.23	1726.44
682.41	1751.01
682.60	1667.05
682.78	1802.21
682.97	1648.61
683.15	1759.21
683.34	1765.35
683.53	1771.49
683.71	1722.34
683.90	1759.21
684.08	1794.02
684.27	1689.57
684.45	1791.97
684.64	1822.69
684.82	1714.15
685.01	1714.15
685.19	1718.25
685.38	1785.83
685.57	1710.05
685.75	1648.61
685.94	1710.05
686.12	1640.42
686.31	1689.57
686.49	1824.74
686.68	1603.56
686.86	1728.49
687.05	1671.14
687.23	1810.40
687.42	1671.14
687.60	1642.47
687.79	1828.84
687.97	1800.16
688.16	1742.82
688.34	1794.02
688.53	1624.04
688.71	1763.30
688.90	1812.45
689.08	1667.05
689.27	1646.57
689.45	1834.98
689.64	1640.42
689.82	1671.14
690.01	1744.87
690.19	1683.43
690.38	1779.68
690.56	1810.40
690.75	1718.25
690.93	1763.30
691.12	1718.25
691.30	1728.49
691.49	1714.15
691.67	1783.78
691.86	1859.56
692.04	1785.83
692.23	1738.73
692.41	1789.92
692.60	1865.70
692.78	1873.89
692.97	1742.82
693.15	1757.16
693.34	1882.08
693.52	1767.40
693.71	1701.86
693.89	1675.24
694.08	1648.61
694.26	1783.78
694.44	1777.64
694.63	1796.07
694.81	1681.38
695.00	1669.09
695.18	1826.79
695.37	1841.12
695.55	1716.20
695.74	1691.62
695.92	1679.33
696.10	1845.22
696.29	1701.86
696.47	1740.77
696.66	1675.24
696.84	1691.62
697.03	1744.87
697.21	1816.55
697.40	2316.25
697.58	1738.73
697.76	1761.25
697.95	1697.77
698.13	1699.81
698.32	1679.33
698.50	1705.96
698.68	1755.11
698.87	1777.64
699.05	1777.64
699.24	1742.82
699.42	1595.37
699.61	1746.92
699.79	1716.20
699.97	1714.15
700.16	1646.57
700.34	1740.77
700.53	1726.44
700.71	1751.01
700.89	1773.54
701.08	1763.30
701.26	1722.34
701.45	2074.59
701.63	1617.90
701.81	1699.81
702.00	1710.05
702.18	1738.73
702.37	1787.88
702.55	1877.99
702.73	1910.75
702.92	1867.75
703.10	2017.25
703.28	2050.02
703.47	1875.94
703.65	1902.56
703.84	1880.04
704.02	1800.16
704.20	1984.48
704.39	1773.54
704.57	1730.53
704.75	1802.21
704.94	1794.02
705.12	1761.25
705.30	1837.03
705.49	2453.47
705.67	5472.17
705.86	13053.75
706.04	19070.68
706.22	22537.90
706.41	25398.91
706.59	24751.75
706.77	19019.49
706.96	13745.97
707.14	12205.89
707.32	9994.09
707.51	9138.04
707.69	7853.96
707.87	6703.00
708.06	5455.79
708.24	4335.55
708.42	3411.92
708.61	2836.44
708.79	2236.38
708.97	2121.70
709.16	1951.71
709.34	2007.01
709.52	1726.44
709.71	1798.12
709.89	1744.87
710.07	1673.19
710.26	1714.15
710.44	1722.34
710.62	1826.79
710.80	1722.34
710.99	1796.07
711.17	1812.45
711.35	1734.63
711.54	1667.05
711.72	1867.75
711.90	1773.54
712.09	1759.21
712.27	1591.27
712.45	1722.34
712.63	1726.44
712.82	1722.34
713.00	1675.24
713.18	1775.59
713.37	1740.77
713.55	1791.97
713.73	1755.11
713.91	1759.21
714.10	1656.81
714.28	1662.95
714.46	1677.29
714.65	1681.38
714.83	1761.25
715.01	1718.25
715.19	1730.53
715.38	1673.19
715.56	1771.49
715.74	1607.66
715.92	1648.61
716.11	1765.35
716.29	1630.18
716.47	1705.96
716.65	1726.44
716.84	1669.09
717.02	1722.34
717.20	1685.48
717.38	1718.25
717.57	1730.53
717.75	1765.35
717.93	1787.88
718.11	1714.15
718.30	1613.80
718.48	1708.01
718.66	1767.40
718.84	1830.88
719.03	1753.06
719.21	1630.18
719.39	1777.64
719.57	1736.68
719.75	1726.44
719.94	1751.01
720.12	1671.14
720.30	1712.10
720.48	1783.78
720.67	1665.00
720.85	1621.99
721.03	1753.06
721.21	1705.96
721.39	1837.03
721.58	1767.40
721.76	1746.92
721.94	1710.05
722.12	1746.92
722.30	1771.49
722.49	1767.40
722.67	1677.29
722.85	1689.57
723.03	1578.98
723.21	1697.77
723.40	1714.15
723.58	1773.54
723.76	1738.73
723.94	1826.79
724.12	1757.16
724.30	1814.50
724.49	1820.64
724.67	1654.76
724.85	1839.08
725.03	1624.04
725.21	1748.97
725.40	1808.36
725.58	1697.77
725.76	1800.16
725.94	1783.78
726.12	1671.14
726.30	1783.78
726.49	1669.09
726.67	1755.11
726.85	1753.06
727.03	1728.49
727.21	2248.67
727.39	3416.01
727.57	4913.08
727.76	5631.91
727.94	6209.44
728.12	6293.41
728.30	5670.83
728.48	4474.81
728.66	3913.67
728.84	3598.28
729.03	3198.93
729.21	2879.44
729.39	2478.04
729.57	2195.42
729.75	2002.91
729.93	1976.29
730.11	1841.12
730.30	1820.64
730.48	1732.58
730.66	1859.56
730.84	1808.36
731.02	1718.25
731.20	1746.92
731.38	1812.45
731.56	1648.61
731.74	1697.77
731.93	1712.10
732.11	1693.67
732.29	1673.19
732.47	1736.68
732.65	1757.16
732.83	1863.65
733.01	1767.40
733.19	1644.52
733.37	1734.63
733.56	1718.25
733.74	1693.67
733.92	1785.83
734.10	1683.43
734.28	1708.01
734.46	1628.14
734.64	1705.96
734.82	1779.68
735.00	1662.95
735.18	1603.56
735.36	1720.29
735.54	1673.19
735.73	1763.30
735.91	1714.15
736.09	1761.25
736.27	1796.07
736.45	1716.20
736.63	1677.29
736.81	1732.58
736.99	1773.54
737.17	1812.45
737.35	1626.09
737.53	1681.38
737.71	1732.58
737.89	1796.07
738.07	1650.66
738.25	1736.68
738.43	1640.42
738.61	1746.92
738.80	1644.52
738.98	1732.58
739.16	1673.19
739.34	1724.39
739.52	1837.03
739.70	1714.15
739.88	1724.39
740.06	1746.92
740.24	1619.94
740.42	1771.49
740.60	1656.81
740.78	1675.24
740.96	1603.56
741.14	1662.95
741.32	1640.42
741.50	1652.71
741.68	1865.70
741.86	1701.86
742.04	1669.09
742.22	1679.33
742.40	1798.12
742.58	1734.63
742.76	1652.71
742.94	1800.16
743.12	1615.85
743.30	1708.01
743.48	1720.29
743.66	1722.34
743.84	1724.39
744.02	1751.01
744.20	1705.96
744.38	1646.57
744.56	1615.85
744.74	1837.03
744.92	1738.73
745.10	1775.59
745.28	1806.31
745.46	1794.02
745.64	1751.01
745.82	1740.77
746.00	1726.44
746.18	1710.05
746.36	1712.10
746.54	1775.59
746.72	1683.43
746.90	1673.19
747.08	1812.45
747.26	1662.95
747.44	1751.01
747.62	1738.73
747.80	1738.73
747.98	1787.88
748.15	1681.38
748.33	1742.82
748.51	1691.62
748.69	1794.02
748.87	1671.14
749.05	1697.77
749.23	1736.68
749.41	1787.88
749.59	1800.16
749.77	1791.97
749.95	1732.58
750.13	1742.82
750.31	1699.81
750.49	1751.01
750.67	1732.58
750.85	1849.32
751.03	1763.30
751.20	1765.35
751.38	1722.34
751.56	1720.29
751.74	1710.05
751.92	1710.05
752.10	1640.42
752.28	1748.97
752.46	1671.14
752.64	1695.72
752.82	1732.58
753.00	1767.40
753.18	1726.44
753.35	1699.81
753.53	1744.87
753.71	1697.77
753.89	1761.25
754.07	1773.54
754.25	1734.63
754.43	1726.44
754.61	1630.18
754.79	1777.64
754.97	1658.85
755.14	1771.49
755.32	1628.14
755.50	1689.57
755.68	1740.77
755.86	1660.90
756.04	1677.29
756.22	1665.00
756.40	1751.01
756.57	1849.32
756.75	1669.09
756.93	1832.93
757.11	1736.68
757.29	1685.48
757.47	1607.66
757.65	1615.85
757.82	1607.66
758.00	1675.24
758.18	1646.57
758.36	1619.94
758.54	1791.97
758.72	1621.99
758.90	1761.25
759.07	1726.44
759.25	1693.67
759.43	1763.30
759.61	1593.32
759.79	2170.85
759.97	1763.30
760.15	1665.00
760.32	1611.75
760.50	1767.40
760.68	1734.63
760.86	1640.42
761.04	1783.78
761.22	1777.64
761.39	1722.34
761.57	1681.38
761.75	1689.57
761.93	1712.10
762.11	1697.77
762.28	1775.59
762.46	1722.34
762.64	1775.59
762.82	1642.47
763.00	1730.53
763.18	1845.22
763.35	1740.77
763.53	1777.64
763.71	1689.57
763.89	1734.63
764.07	1671.14
764.24	1697.77
764.42	1773.54
764.60	1669.09
764.78	1708.01
764.96	1812.45
765.13	1787.88
765.31	1648.61
765.49	1714.15
765.67	1648.61
765.84	1683.43
766.02	1714.15
766.20	1601.51
766.38	1720.29
766.56	1822.69
766.73	1791.97
766.91	1742.82
767.09	1712.10
767.27	1693.67
767.44	1644.52
767.62	1779.68
767.80	1662.95
767.98	1765.35
768.15	1736.68
768.33	1789.92
768.51	1718.25
768.69	1753.06
768.87	1761.25
769.04	1734.63
769.22	1847.27
769.40	1837.03
769.58	1765.35
769.75	1691.62
769.93	1738.73
770.11	1628.14
770.28	1626.09
770.46	1724.39
770.64	1812.45
770.82	1748.97
770.99	1658.85
771.17	1742.82
771.35	1607.66
771.53	1671.14
771.70	1730.53
771.88	1796.07
772.06	1646.57
772.23	1693.67
772.41	1710.05
772.59	1654.76
772.77	1658.85
772.94	1681.38
773.12	1775.59
773.30	1642.47
773.47	1744.87
773.65	1712.10
773.83	1812.45
774.01	1751.01
774.18	1531.88
774.36	1650.66
774.54	1681.38
774.71	1708.01
774.89	1667.05
775.07	1677.29
775.24	1699.81
775.42	1665.00
775.60	1783.78
775.78	1742.82
775.95	1634.28
776.13	1583.08
776.31	1605.61
776.48	1681.38
776.66	1740.77
776.84	1613.80
777.01	1613.80
777.19	1642.47
777.37	1648.61
777.54	1761.25
777.72	1822.69
777.90	1781.73
778.07	1710.05
778.25	1920.99
778.43	1759.21
778.60	1710.05
778.78	1685.48
778.96	1775.59
779.13	1712.10
779.31	1783.78
779.49	1683.43
779.66	1699.81
779.84	1648.61
780.01	1667.05
780.19	1656.81
780.37	1701.86
780.54	1751.01
780.72	1578.98
780.90	1656.81
781.07	1646.57
781.25	1677.29
781.43	1757.16
781.60	1624.04
781.78	1714.15
781.95	1714.15
782.13	1693.67
782.31	1771.49
782.48	1656.81
782.66	1763.30
782.83	1845.22
783.01	1718.25
783.19	1697.77
783.36	1703.91
783.54	1667.05
783.72	1755.11
783.89	1669.09
784.07	1714.15
784.24	1716.20
784.42	1826.79
784.60	1701.86
784.77	1742.82
784.95	1609.70
785.12	1701.86
785.30	1714.15
785.47	1734.63
785.65	1646.57
785.83	1669.09
786.00	1581.03
786.18	1708.01
786.35	1681.38
786.53	1681.38
786.71	1781.73
786.88	1730.53
787.06	1751.01
787.23	1691.62
787.41	1636.33
787.58	1714.15
787.76	1691.62
787.94	1787.88
788.11	1708.01
788.29	1708.01
788.46	1667.05
788.64	1652.71
788.81	1710.05
788.99	1634.28
789.16	1640.42
789.34	1695.72
789.52	1634.28
789.69	1679.33
789.87	1632.23
790.04	1718.25
790.22	1781.73
790.39	1824.74
790.57	1636.33
790.74	1681.38
790.92	1755.11
791.09	1632.23
791.27	1652.71
791.44	1775.59
791.62	1744.87
791.79	1695.72
791.97	1787.88
792.15	1892.32
792.32	1820.64
792.50	1804.26
792.67	1806.31
792.85	1818.60
793.02	1665.00
793.20	1650.66
793.37	1613.80
793.55	1650.66
793.72	1632.23
793.90	1765.35
794.07	1654.76
794.25	1646.57
794.42	1728.49
794.60	1648.61
794.77	1720.29
794.95	1796.07
795.12	1656.81
795.30	1689.57
795.47	1613.80
795.65	1894.37
795.82	1701.86
796.00	1640.42
796.17	1667.05
796.34	1671.14
796.52	1650.66
796.69	1753.06
796.87	1697.77
797.04	1693.67
797.22	1755.11
797.39	1718.25
797.57	1808.36
797.74	1765.35
797.92	1734.63
798.09	1652.71
798.27	1763.30
798.44	1724.39
798.62	1587.18
798.79	1697.77
798.96	1677.29
799.14	1734.63
799.31	1779.68
799.49	1652.71
799.66	1644.52
799.84	1742.82
800.01	1632.23
800.19	1685.48
800.36	1621.99
800.53	1734.63
800.71	1746.92
800.88	1755.11
801.06	1595.37
801.23	1736.68
801.41	1714.15
801.58	1703.91
801.75	1705.96
801.93	1759.21
802.10	1738.73
802.28	1718.25
802.45	1712.10
802.63	1703.91
802.80	1863.65
802.97	1667.05
803.15	1652.71
803.32	1654.76
803.50	1667.05
803.67	1665.00
803.84	1585.13
804.02	1611.75
804.19	1656.81
804.37	1554.41
804.54	1673.19
804.71	1726.44
804.89	1742.82
805.06	1660.90
805.24	1683.43
805.41	1687.53
805.58	1658.85
805.76	1843.17
805.93	1665.00
806.10	1746.92
806.28	1853.41
806.45	1742.82
806.63	1689.57
806.80	1736.68
806.97	1667.05
807.15	1726.44
807.32	1753.06
807.49	1714.15
807.67	1693.67
807.84	1720.29
808.01	1658.85
808.19	1853.41
808.36	1810.40
808.54	1632.23
808.71	1679.33
808.88	1767.40
809.06	1759.21
809.23	1810.40
809.40	1638.38
809.58	1812.45
809.75	1726.44
809.92	1636.33
810.10	1775.59
810.27	1695.72
810.44	1816.55
810.62	1751.01
810.79	1751.01
810.96	1677.29
811.14	1689.57
811.31	1761.25
811.48	1767.40
811.66	1695.72
811.83	1869.80
812.00	1742.82
812.18	1705.96
812.35	1837.03
812.52	1607.66
812.69	1685.48
812.87	1687.53
813.04	1613.80
813.21	1804.26
813.39	1665.00
813.56	1638.38
813.73	1781.73
813.91	1628.14
814.08	1699.81
814.25	1693.67
814.42	1591.27
814.60	1660.90
814.77	1732.58
814.94	1730.53
815.12	1761.25
815.29	1728.49
815.46	1673.19
815.63	1675.24
815.81	1714.15
815.98	1751.01
816.15	1724.39
816.33	1611.75
816.50	1662.95
816.67	1751.01
816.84	1687.53
817.02	1564.65
817.19	1652.71
817.36	1658.85
817.53	1701.86
817.71	1673.19
817.88	1705.96
818.05	1642.47
818.22	1613.80
818.40	1734.63
818.57	1755.11
818.74	1791.97
818.91	1703.91
819.09	1736.68
819.26	1730.53
819.43	1667.05
819.60	1660.90
819.78	1669.09
819.95	1871.84
820.12	1644.52
820.29	1789.92
820.47	1812.45
820.64	1665.00
820.81	1628.14
820.98	1677.29
821.15	1744.87
821.33	1748.97
821.50	1730.53
821.67	1738.73
821.84	1673.19
822.02	1787.88
822.19	1814.50
822.36	1617.90
822.53	1699.81
822.70	1630.18
822.88	1748.97
823.05	1744.87
823.22	1689.57
823.39	1796.07
823.56	1679.33
823.74	1794.02
823.91	1705.96
824.08	1691.62
824.25	1660.90
824.42	1787.88
824.60	1642.47
824.77	1718.25
824.94	1656.81
825.11	1722.34
825.28	1574.89
825.45	1740.77
825.63	1714.15
825.80	1728.49
825.97	1714.15
826.14	1693.67
826.31	1572.84
826.48	1699.81
826.66	1691.62
826.83	1626.09
827.00	1726.44
827.17	1699.81
827.34	1779.68
827.51	1660.90
827.69	1677.29
827.86	1644.52
828.03	1716.20
828.20	1740.77
828.37	1763.30
828.54	1712.10
828.71	1658.85
828.89	1871.84
829.06	1705.96
829.23	1822.69
829.40	1658.85
829.57	1724.39
829.74	1697.77
829.91	1619.94
830.09	1597.42
830.26	1695.72
830.43	1742.82
830.60	1708.01
830.77	1656.81
830.94	1724.39
831.11	1714.15
831.28	1714.15
831.46	1697.77
831.63	1769.44
831.80	1777.64
831.97	1619.94
832.14	1630.18
832.31	1767.40
832.48	1757.16
832.65	1759.21
832.82	1710.05
832.99	1800.16
833.17	1710.05
833.34	1812.45
833.51	1785.83
833.68	1603.56
833.85	1761.25
834.02	1644.52
834.19	1621.99
834.36	1613.80
834.53	1726.44
834.70	1773.54
834.87	1714.15
835.04	1695.72
835.22	1683.43
835.39	1665.00
835.56	1609.70
835.73	1693.67
835.90	1771.49
836.07	1695.72
836.24	1677.29
836.41	1583.08
836.58	1708.01
836.75	1636.33
836.92	1763.30
837.09	1705.96
837.26	1687.53
837.43	1693.67
837.60	1695.72
837.77	1665.00
837.94	1763.30
838.12	1699.81
838.29	1742.82
838.46	1597.42
838.63	1669.09
838.80	1759.21
838.97	1669.09
839.14	1695.72
839.31	1714.15
839.48	1716.20
839.65	1677.29
839.82	1751.01
839.99	1693.67
840.16	1730.53
840.33	1667.05
840.50	1648.61
840.67	1675.24
840.84	1548.26
841.01	1710.05
841.18	1675.24
841.35	1669.09
841.52	1716.20
841.69	1789.92
841.86	1689.57
842.03	1748.97
842.20	1763.30
842.37	1710.05
842.54	1691.62
842.71	1712.10
842.88	1662.95
843.05	1820.64
843.22	1697.77
843.39	1716.20
843.56	1669.09
843.73	1738.73
843.90	1683.43
844.07	1683.43
844.24	1751.01
844.41	1765.35
844.58	1679.33
844.75	1753.06
844.92	1746.92
845.09	1705.96
845.26	1699.81
845.43	1775.59
845.60	1681.38
845.77	1736.68
845.94	1689.57
846.10	1777.64
846.27	1703.91
846.44	1624.04
846.61	1640.42
846.78	1687.53
846.95	1791.97
847.12	1701.86
847.29	1708.01
847.46	1712.10
847.63	1734.63
847.80	1689.57
847.97	1714.15
848.14	1859.56
848.31	1703.91
848.48	1626.09
848.65	1804.26
848.82	1687.53
848.98	1865.70
849.15	1753.06
849.32	1673.19
849.49	1771.49
849.66	1726.44
849.83	1724.39
850.00	1656.81
850.17	1732.58
850.34	1763.30
850.51	1724.39
850.68	1710.05
850.85	1865.70
851.01	1728.49
851.18	1748.97
851.35	1716.20
851.52	1677.29
851.69	1769.44
851.86	1540.07
852.03	1665.00
852.20	1724.39
852.37	1681.38
852.53	1654.76
852.70	1660.90
852.87	1748.97
853.04	1708.01
853.21	1679.33
853.38	1783.78
853.55	1759.21
853.72	1828.84
853.89	1665.00
854.05	1660.90
854.22	1665.00
854.39	1679.33
854.56	1769.44
854.73	1724.39
854.90	1630.18
855.07	1708.01
855.23	1710.05
855.40	1705.96
855.57	1611.75
855.74	1642.47
855.91	1818.60
856.08	1667.05
856.25	1638.38
856.41	1732.58
856.58	1687.53
856.75	1705.96
856.92	1701.86
857.09	1722.34
857.26	1656.81
857.42	1687.53
857.59	1757.16
857.76	1710.05
857.93	1773.54
858.10	1699.81
858.27	1587.18
858.43	1779.68
858.60	1732.58
858.77	1558.50
858.94	1718.25
859.11	1724.39
859.27	1656.81
859.44	1685.48
859.61	1824.74
859.78	1828.84
859.95	1644.52
860.12	1710.05
860.28	1837.03
860.45	1806.31
860.62	1615.85
860.79	1671.14
860.95	1662.95
861.12	1652.71
861.29	1624.04
861.46	1703.91
861.63	1691.62
861.79	1689.57
861.96	1652.71
862.13	1665.00
862.30	1742.82
862.47	1677.29
862.63	1628.14
862.80	1740.77
862.97	1753.06
863.14	1753.06
863.30	1759.21
863.47	1636.33
863.64	1755.11
863.81	1712.10
863.97	1665.00
864.14	1691.62
864.31	1603.56
864.48	1640.42
864.65	1742.82
864.81	1769.44
864.98	1708.01
865.15	1832.93
865.32	1697.77
865.48	1722.34
865.65	1814.50
865.82	1648.61
865.98	1691.62
866.15	1755.11
866.32	1816.55
866.49	1755.11
866.65	1736.68
866.82	1648.61
866.99	1765.35
867.16	1642.47
867.32	1669.09
867.49	1654.76
867.66	1734.63
867.83	1570.79
867.99	1634.28
868.16	1671.14
868.33	1634.28
868.49	1675.24
868.66	1636.33
868.83	1740.77
868.99	1726.44
869.16	1681.38
869.33	1763.30
869.50	1779.68
869.66	1728.49
869.83	1695.72
870.00	1648.61
870.16	1734.63
870.33	1675.24
870.50	1744.87
870.66	1748.97
870.83	1910.75
871.00	1736.68
871.17	1718.25
871.33	1697.77
871.50	1677.29
871.67	1681.38
871.83	1650.66
872.00	1703.91
872.17	1759.21
872.33	1830.88
872.50	1693.67
872.67	1736.68
872.83	1697.77
873.00	1722.34
873.17	1724.39
873.33	1767.40
873.50	1701.86
873.67	1660.90
873.83	1714.15
874.00	1669.09
874.16	1703.91
874.33	1699.81
874.50	1652.71
874.66	1710.05
874.83	1708.01
875.00	1720.29
875.16	1697.77
875.33	1683.43
875.50	1578.98
875.66	1615.85
875.83	1665.00
875.99	1718.25
876.16	1669.09
876.33	1662.95
876.49	1746.92
876.66	1640.42
876.83	1736.68
876.99	1640.42
877.16	1695.72
877.32	1734.63
877.49	1703.91
877.66	1732.58
877.82	1812.45
877.99	1712.10
878.15	1724.39
878.32	1710.05
878.49	1703.91
878.65	1654.76
878.82	1740.77
878.98	1683.43
879.15	1771.49
879.32	1779.68
879.48	1722.34
879.65	1732.58
879.81	1671.14
879.98	1644.52
880.15	1787.88
880.31	1794.02
880.48	1621.99
880.64	1730.53
880.81	1703.91
880.97	1867.75
881.14	1767.40
881.31	1636.33
881.47	1894.37
881.64	1701.86
881.80	1689.57
881.97	1771.49
882.13	1757.16
882.30	1619.94
882.47	1677.29
882.63	1665.00
882.80	1640.42
882.96	1673.19
883.13	1734.63
883.29	1705.96
883.46	1675.24
883.62	1759.21
883.79	1740.77
883.95	1763.30
884.12	1697.77
884.29	1730.53
884.45	1677.29
884.62	1736.68
884.78	1697.77
884.95	1777.64
885.11	1615.85
885.28	1724.39
885.44	1603.56
885.61	1785.83
885.77	1798.12
885.94	1738.73
886.10	1697.77
886.27	1787.88
886.43	1771.49
886.60	1687.53
886.76	1742.82
886.93	1646.57
887.09	1710.05
887.26	1650.66
887.42	1691.62
887.59	1794.02
887.75	1820.64
887.92	1722.34
888.08	1769.44
888.25	1771.49
888.41	1705.96
888.58	1718.25
888.74	1613.80
888.91	1673.19
>>>>>End Processed Spectral Data<<<<<
