SpectraSuite Data File
++++++++++++++++++++++++++++++++++++
Date: Wed May 04 18:44:00 CEST 2016
User: root
Dark Spectrum Present: No
Reference Spectrum Present: No
Number of Sampled Component Spectra: 1
Spectrometers: USB4C02835
Integration Time (usec): 100000 (USB4C02835)
Spectra Averaged: 1 (USB4C02835)
Boxcar Smoothing: 0 (USB4C02835)
Correct for Electrical Dark: No (USB4C02835)
Strobe/Lamp Enabled: No (USB4C02835)
Correct for Detector Non-linearity: No (USB4C02835)
Correct for Stray Light: No (USB4C02835)
Number of Pixels in Processed Spectrum: 3648
>>>>>Begin Processed Spectral Data<<<<<
177.47	1503.21
177.69	1503.21
177.91	1503.21
178.13	1550.31
178.36	1468.39
178.58	1646.57
178.80	1738.73
179.02	1669.09
179.24	1632.23
179.46	1697.77
179.68	1787.88
179.90	1724.39
180.13	1703.91
180.35	1589.22
180.57	1724.39
180.79	1746.92
181.01	1751.01
181.23	1742.82
181.45	1845.22
181.67	1673.19
181.90	1771.49
182.12	1701.86
182.34	1742.82
182.56	1716.20
182.78	1757.16
183.00	1779.68
183.22	1769.44
183.44	1644.52
183.66	1787.88
183.89	1814.50
184.11	1757.16
184.33	1720.29
184.55	1771.49
184.77	1728.49
184.99	1744.87
185.21	1617.90
185.43	1906.66
185.65	1720.29
185.87	1599.46
186.10	1779.68
186.32	1808.36
186.54	1720.29
186.76	1669.09
186.98	1771.49
187.20	1683.43
187.42	1697.77
187.64	1693.67
187.86	1693.67
188.08	1787.88
188.30	1759.21
188.52	1689.57
188.75	1742.82
188.97	1810.40
189.19	1689.57
189.41	1714.15
189.63	1753.06
189.85	1652.71
190.07	1685.48
190.29	1617.90
190.51	1693.67
190.73	1560.55
190.95	1763.30
191.17	1724.39
191.39	1603.56
191.61	1814.50
191.84	1673.19
192.06	1708.01
192.28	1675.24
192.50	1853.41
192.72	1755.11
192.94	1701.86
193.16	1781.73
193.38	1681.38
193.60	1687.53
193.82	1685.48
194.04	1761.25
194.26	1757.16
194.48	1746.92
194.70	1712.10
194.92	1646.57
195.14	1726.44
195.36	1751.01
195.58	1703.91
195.80	1730.53
196.02	1697.77
196.24	1716.20
196.46	1751.01
196.69	1691.62
196.91	1888.23
197.13	1687.53
197.35	1648.61
197.57	1726.44
197.79	1710.05
198.01	1794.02
198.23	1703.91
198.45	1683.43
198.67	1736.68
198.89	1683.43
199.11	1681.38
199.33	1724.39
199.55	1601.51
199.77	1699.81
199.99	1746.92
200.21	1746.92
200.43	1763.30
200.65	1650.66
200.87	1644.52
201.09	1644.52
201.31	1667.05
201.53	1814.50
201.75	1693.67
201.97	1755.11
202.19	1642.47
202.41	1673.19
202.63	1814.50
202.85	1701.86
203.07	1748.97
203.29	1681.38
203.51	1628.14
203.73	1650.66
203.95	1839.08
204.17	1773.54
204.39	1753.06
204.61	1730.53
204.83	1708.01
205.05	1751.01
205.27	1695.72
205.49	1832.93
205.71	1716.20
205.93	1708.01
206.15	1665.00
206.37	1781.73
206.59	1673.19
206.81	1630.18
207.03	1617.90
207.25	1691.62
207.47	1757.16
207.69	1714.15
207.91	1841.12
208.13	1753.06
208.34	1716.20
208.56	1667.05
208.78	1771.49
209.00	1697.77
209.22	1665.00
209.44	1705.96
209.66	1724.39
209.88	1689.57
210.10	1748.97
210.32	1728.49
210.54	1744.87
210.76	1710.05
210.98	1757.16
211.20	1611.75
211.42	1726.44
211.64	1732.58
211.86	1738.73
212.08	1728.49
212.30	1660.90
212.52	1660.90
212.74	1722.34
212.96	1699.81
213.17	1734.63
213.39	1765.35
213.61	1828.84
213.83	1773.54
214.05	1673.19
214.27	1730.53
214.49	1648.61
214.71	1642.47
214.93	1732.58
215.15	1677.29
215.37	1736.68
215.59	1619.94
215.81	1734.63
216.03	1822.69
216.24	1736.68
216.46	1695.72
216.68	1753.06
216.90	1708.01
217.12	1722.34
217.34	1812.45
217.56	1699.81
217.78	1787.88
218.00	1755.11
218.22	1804.26
218.44	1732.58
218.66	1757.16
218.87	1634.28
219.09	1761.25
219.31	1720.29
219.53	1732.58
219.75	1728.49
219.97	1734.63
220.19	1738.73
220.41	1705.96
220.63	1806.31
220.85	1726.44
221.06	1665.00
221.28	1804.26
221.50	1777.64
221.72	1648.61
221.94	1683.43
222.16	1746.92
222.38	1759.21
222.60	1740.77
222.82	1628.14
223.03	1783.78
223.25	1626.09
223.47	1748.97
223.69	1867.75
223.91	1822.69
224.13	1763.30
224.35	1689.57
224.57	1773.54
224.78	1785.83
225.00	1705.96
225.22	1703.91
225.44	1656.81
225.66	1710.05
225.88	1585.13
226.10	1800.16
226.32	1689.57
226.53	1775.59
226.75	1705.96
226.97	1699.81
227.19	1746.92
227.41	1724.39
227.63	1773.54
227.85	1587.18
228.06	1644.52
228.28	1759.21
228.50	1671.14
228.72	1656.81
228.94	1722.34
229.16	1601.51
229.37	1605.61
229.59	1660.90
229.81	1814.50
230.03	1691.62
230.25	1640.42
230.47	1650.66
230.69	1683.43
230.90	1728.49
231.12	1662.95
231.34	1714.15
231.56	1705.96
231.78	1599.46
232.00	1728.49
232.21	1646.57
232.43	1703.91
232.65	1589.22
232.87	1681.38
233.09	1720.29
233.30	1665.00
233.52	1746.92
233.74	1746.92
233.96	1738.73
234.18	1714.15
234.40	1691.62
234.61	1783.78
234.83	1624.04
235.05	1599.46
235.27	1865.70
235.49	1775.59
235.70	1722.34
235.92	1806.31
236.14	1753.06
236.36	1822.69
236.58	1628.14
236.79	1757.16
237.01	1705.96
237.23	1730.53
237.45	1789.92
237.67	1638.38
237.88	1734.63
238.10	1898.47
238.32	1617.90
238.54	1693.67
238.76	1763.30
238.97	1626.09
239.19	1679.33
239.41	1769.44
239.63	1794.02
239.85	1718.25
240.06	1681.38
240.28	1650.66
240.50	1787.88
240.72	1697.77
240.93	1701.86
241.15	1783.78
241.37	1667.05
241.59	1703.91
241.81	1673.19
242.02	1714.15
242.24	1775.59
242.46	1689.57
242.68	1599.46
242.89	1656.81
243.11	1708.01
243.33	1673.19
243.55	1748.97
243.76	1755.11
243.98	1662.95
244.20	1740.77
244.42	1720.29
244.64	1675.24
244.85	1656.81
245.07	1660.90
245.29	1693.67
245.51	1705.96
245.72	1697.77
245.94	1775.59
246.16	1714.15
246.38	1746.92
246.59	1701.86
246.81	1644.52
247.03	1779.68
247.24	1675.24
247.46	1726.44
247.68	1699.81
247.90	1699.81
248.11	1644.52
248.33	1722.34
248.55	1718.25
248.77	1730.53
248.98	1697.77
249.20	1818.60
249.42	1712.10
249.64	1705.96
249.85	1691.62
250.07	1652.71
250.29	1705.96
250.50	1726.44
250.72	1644.52
250.94	1765.35
251.16	1851.36
251.37	1781.73
251.59	1779.68
251.81	1771.49
252.02	1718.25
252.24	1677.29
252.46	1820.64
252.68	1624.04
252.89	1697.77
253.11	1642.47
253.33	1802.21
253.54	1746.92
253.76	1626.09
253.98	1658.85
254.20	1648.61
254.41	1554.41
254.63	1644.52
254.85	1632.23
255.06	1669.09
255.28	1769.44
255.50	1683.43
255.71	1630.18
255.93	1646.57
256.15	1693.67
256.36	1771.49
256.58	1689.57
256.80	1720.29
257.02	1701.86
257.23	1724.39
257.45	1724.39
257.67	1769.44
257.88	1640.42
258.10	1746.92
258.32	1755.11
258.53	1744.87
258.75	1771.49
258.97	1658.85
259.18	1781.73
259.40	1683.43
259.62	1808.36
259.83	1714.15
260.05	1718.25
260.27	1949.67
260.48	1820.64
260.70	1689.57
260.92	1675.24
261.13	1722.34
261.35	1740.77
261.57	1746.92
261.78	1603.56
262.00	1624.04
262.22	1769.44
262.43	1685.48
262.65	1658.85
262.86	1693.67
263.08	1839.08
263.30	1779.68
263.51	1617.90
263.73	1632.23
263.95	1832.93
264.16	1691.62
264.38	1691.62
264.60	1791.97
264.81	1658.85
265.03	1732.58
265.25	1710.05
265.46	1755.11
265.68	1787.88
265.89	1800.16
266.11	1681.38
266.33	1697.77
266.54	1763.30
266.76	1722.34
266.98	1738.73
267.19	1802.21
267.41	1783.78
267.62	1728.49
267.84	1638.38
268.06	1730.53
268.27	1691.62
268.49	1751.01
268.70	1740.77
268.92	1728.49
269.14	1568.74
269.35	1593.32
269.57	1691.62
269.79	1724.39
270.00	1626.09
270.22	1771.49
270.43	1652.71
270.65	1601.51
270.87	1699.81
271.08	1736.68
271.30	1734.63
271.51	1732.58
271.73	1771.49
271.95	1771.49
272.16	1759.21
272.38	1648.61
272.59	1587.18
272.81	1718.25
273.02	1736.68
273.24	1689.57
273.46	1744.87
273.67	1681.38
273.89	1656.81
274.10	1673.19
274.32	1683.43
274.54	1771.49
274.75	1730.53
274.97	1742.82
275.18	1726.44
275.40	1757.16
275.61	1714.15
275.83	1648.61
276.05	1683.43
276.26	1701.86
276.48	1785.83
276.69	1685.48
276.91	1755.11
277.12	1765.35
277.34	1726.44
277.55	1738.73
277.77	1734.63
277.99	1781.73
278.20	1687.53
278.42	1636.33
278.63	1640.42
278.85	1583.08
279.06	1605.61
279.28	1726.44
279.49	1800.16
279.71	1757.16
279.93	1714.15
280.14	1714.15
280.36	1712.10
280.57	1699.81
280.79	1763.30
281.00	1648.61
281.22	1656.81
281.43	1798.12
281.65	1619.94
281.86	1665.00
282.08	1761.25
282.29	1789.92
282.51	1716.20
282.73	1656.81
282.94	1675.24
283.16	1789.92
283.37	1828.84
283.59	1712.10
283.80	1703.91
284.02	1730.53
284.23	1677.29
284.45	1685.48
284.66	1652.71
284.88	1703.91
285.09	1787.88
285.31	1744.87
285.52	1681.38
285.74	1675.24
285.95	1656.81
286.17	1710.05
286.38	1763.30
286.60	1632.23
286.81	1656.81
287.03	1738.73
287.24	1771.49
287.46	1667.05
287.67	1775.59
287.89	1806.31
288.10	1693.67
288.32	1712.10
288.53	1693.67
288.75	1710.05
288.96	1753.06
289.18	1701.86
289.39	1703.91
289.61	1712.10
289.82	1810.40
290.04	1732.58
290.25	1621.99
290.47	1722.34
290.68	1699.81
290.90	1843.17
291.11	1617.90
291.33	1753.06
291.54	1675.24
291.76	1648.61
291.97	1767.40
292.18	1734.63
292.40	1650.66
292.61	1660.90
292.83	1814.50
293.04	1730.53
293.26	1687.53
293.47	1759.21
293.69	1716.20
293.90	1722.34
294.12	1738.73
294.33	1753.06
294.55	1652.71
294.76	1701.86
294.97	1849.32
295.19	1755.11
295.40	1718.25
295.62	1730.53
295.83	1789.92
296.05	1708.01
296.26	1775.59
296.48	1613.80
296.69	1714.15
296.90	1671.14
297.12	1710.05
297.33	1814.50
297.55	1693.67
297.76	1744.87
297.98	1751.01
298.19	1726.44
298.41	1740.77
298.62	1665.00
298.83	1755.11
299.05	1644.52
299.26	1624.04
299.48	1679.33
299.69	1673.19
299.90	1697.77
300.12	1671.14
300.33	1755.11
300.55	1724.39
300.76	1710.05
300.98	1683.43
301.19	1759.21
301.40	1751.01
301.62	1703.91
301.83	1701.86
302.05	1693.67
302.26	1708.01
302.47	1812.45
302.69	1654.76
302.90	1748.97
303.12	1615.85
303.33	1802.21
303.54	1771.49
303.76	1714.15
303.97	1742.82
304.19	1796.07
304.40	1603.56
304.61	1738.73
304.83	1783.78
305.04	1804.26
305.26	1734.63
305.47	1699.81
305.68	1701.86
305.90	1662.95
306.11	1714.15
306.33	1718.25
306.54	1714.15
306.75	1691.62
306.97	1583.08
307.18	1632.23
307.39	1646.57
307.61	1734.63
307.82	1669.09
308.04	1695.72
308.25	1628.14
308.46	1757.16
308.68	1703.91
308.89	1726.44
309.10	1757.16
309.32	1796.07
309.53	1675.24
309.74	1753.06
309.96	1695.72
310.17	1753.06
310.39	1626.09
310.60	1691.62
310.81	1783.78
311.03	1560.55
311.24	1802.21
311.45	1695.72
311.67	1759.21
311.88	1722.34
312.09	1751.01
312.31	1634.28
312.52	1665.00
312.73	1724.39
312.95	1603.56
313.16	1564.65
313.37	1632.23
313.59	1708.01
313.80	1763.30
314.01	1736.68
314.23	1738.73
314.44	1689.57
314.65	1603.56
314.87	1679.33
315.08	1673.19
315.29	1710.05
315.51	1714.15
315.72	1615.85
315.93	1822.69
316.15	1738.73
316.36	1714.15
316.57	1683.43
316.79	1773.54
317.00	1732.58
317.21	1746.92
317.43	1689.57
317.64	1734.63
317.85	1669.09
318.07	1728.49
318.28	1830.88
318.49	1937.38
318.70	1923.04
318.92	1951.71
319.13	1968.10
319.34	1988.58
319.56	1830.88
319.77	1808.36
319.98	1816.55
320.20	1828.84
320.41	1853.41
320.62	1734.63
320.83	1609.70
321.05	1816.55
321.26	1730.53
321.47	1796.07
321.69	1785.83
321.90	1630.18
322.11	1648.61
322.32	1775.59
322.54	1783.78
322.75	1658.85
322.96	1943.52
323.18	1599.46
323.39	1656.81
323.60	1626.09
323.81	1710.05
324.03	1603.56
324.24	1691.62
324.45	1691.62
324.66	1697.77
324.88	1804.26
325.09	1859.56
325.30	1703.91
325.52	1681.38
325.73	1642.47
325.94	1617.90
326.15	1681.38
326.37	1697.77
326.58	1759.21
326.79	1800.16
327.00	1669.09
327.22	1724.39
327.43	1703.91
327.64	1746.92
327.85	1812.45
328.07	1697.77
328.28	1855.46
328.49	1669.09
328.70	1744.87
328.92	1703.91
329.13	1710.05
329.34	1671.14
329.55	1873.89
329.76	1837.03
329.98	1581.03
330.19	1785.83
330.40	1671.14
330.61	1730.53
330.83	1781.73
331.04	1628.14
331.25	1720.29
331.46	1712.10
331.68	1640.42
331.89	1736.68
332.10	1757.16
332.31	1660.90
332.52	1681.38
332.74	1822.69
332.95	1617.90
333.16	1687.53
333.37	1705.96
333.58	1609.70
333.80	1726.44
334.01	1615.85
334.22	1621.99
334.43	1642.47
334.64	1734.63
334.86	1660.90
335.07	1693.67
335.28	1716.20
335.49	1728.49
335.70	1751.01
335.92	1765.35
336.13	1849.32
336.34	1708.01
336.55	1763.30
336.76	1726.44
336.98	1720.29
337.19	1705.96
337.40	1798.12
337.61	1818.60
337.82	1757.16
338.04	1746.92
338.25	1679.33
338.46	1654.76
338.67	1689.57
338.88	1656.81
339.09	1734.63
339.31	1658.85
339.52	1615.85
339.73	1605.61
339.94	1701.86
340.15	1742.82
340.36	1683.43
340.58	1667.05
340.79	1615.85
341.00	1779.68
341.21	1644.52
341.42	1812.45
341.63	1671.14
341.85	1718.25
342.06	1712.10
342.27	1646.57
342.48	1687.53
342.69	1589.22
342.90	1755.11
343.12	1693.67
343.33	1656.81
343.54	1759.21
343.75	1794.02
343.96	1718.25
344.17	1681.38
344.38	1699.81
344.60	1658.85
344.81	1712.10
345.02	1726.44
345.23	1783.78
345.44	1847.27
345.65	1765.35
345.86	1779.68
346.07	1693.67
346.29	1665.00
346.50	1730.53
346.71	1798.12
346.92	1796.07
347.13	1845.22
347.34	1681.38
347.55	1695.72
347.76	1683.43
347.98	1634.28
348.19	1679.33
348.40	1787.88
348.61	1605.61
348.82	1820.64
349.03	1673.19
349.24	1634.28
349.45	1796.07
349.66	1607.66
349.88	1732.58
350.09	1722.34
350.30	1810.40
350.51	1794.02
350.72	1722.34
350.93	1765.35
351.14	1714.15
351.35	1755.11
351.56	1791.97
351.77	1650.66
351.99	1753.06
352.20	1828.84
352.41	1775.59
352.62	1609.70
352.83	1710.05
353.04	1751.01
353.25	1599.46
353.46	1796.07
353.67	1771.49
353.88	1574.89
354.09	1738.73
354.30	1691.62
354.52	1779.68
354.73	1667.05
354.94	1662.95
355.15	1753.06
355.36	1802.21
355.57	1689.57
355.78	1796.07
355.99	1671.14
356.20	1699.81
356.41	1798.12
356.62	1742.82
356.83	1714.15
357.04	1808.36
357.25	1640.42
357.46	1626.09
357.68	1626.09
357.89	1701.86
358.10	1718.25
358.31	1650.66
358.52	1626.09
358.73	1689.57
358.94	1646.57
359.15	1718.25
359.36	1748.97
359.57	1703.91
359.78	1697.77
359.99	1773.54
360.20	1701.86
360.41	1732.58
360.62	1736.68
360.83	1677.29
361.04	1791.97
361.25	1734.63
361.46	1822.69
361.67	1761.25
361.88	1763.30
362.09	1847.27
362.30	1724.39
362.51	1683.43
362.72	1718.25
362.93	1722.34
363.14	1673.19
363.35	1728.49
363.56	1613.80
363.78	1769.44
363.99	1662.95
364.20	1753.06
364.41	1716.20
364.62	1857.51
364.83	1689.57
365.04	1679.33
365.25	1667.05
365.46	1785.83
365.67	1667.05
365.88	1763.30
366.09	1681.38
366.30	1744.87
366.51	1669.09
366.72	1650.66
366.93	1728.49
367.14	1671.14
367.35	1769.44
367.56	1775.59
367.77	1767.40
367.98	1736.68
368.18	1808.36
368.39	1710.05
368.60	1681.38
368.81	1748.97
369.02	1767.40
369.23	1712.10
369.44	1595.37
369.65	1712.10
369.86	1716.20
370.07	1814.50
370.28	1652.71
370.49	1712.10
370.70	1802.21
370.91	1685.48
371.12	1585.13
371.33	1759.21
371.54	1697.77
371.75	1896.42
371.96	1624.04
372.17	1746.92
372.38	1744.87
372.59	1693.67
372.80	1691.62
373.01	1695.72
373.22	1777.64
373.43	1628.14
373.64	1630.18
373.85	1802.21
374.06	1744.87
374.26	1710.05
374.47	1738.73
374.68	1708.01
374.89	1765.35
375.10	1710.05
375.31	1742.82
375.52	1701.86
375.73	1738.73
375.94	1660.90
376.15	1902.56
376.36	1624.04
376.57	1621.99
376.78	1701.86
376.99	1699.81
377.20	1816.55
377.40	1740.77
377.61	1744.87
377.82	1677.29
378.03	1773.54
378.24	1701.86
378.45	1726.44
378.66	1714.15
378.87	1667.05
379.08	1630.18
379.29	1712.10
379.50	1806.31
379.71	1742.82
379.91	1808.36
380.12	1662.95
380.33	1761.25
380.54	1677.29
380.75	1738.73
380.96	1720.29
381.17	1730.53
381.38	1728.49
381.59	1777.64
381.80	1785.83
382.00	1865.70
382.21	1734.63
382.42	1771.49
382.63	1884.13
382.84	1775.59
383.05	1751.01
383.26	1830.88
383.47	1681.38
383.68	1755.11
383.88	1824.74
384.09	1759.21
384.30	1806.31
384.51	1761.25
384.72	1689.57
384.93	1640.42
385.14	1722.34
385.35	1787.88
385.55	1665.00
385.76	1812.45
385.97	1736.68
386.18	1687.53
386.39	1652.71
386.60	1675.24
386.81	1771.49
387.02	1675.24
387.22	1669.09
387.43	1818.60
387.64	1849.32
387.85	1853.41
388.06	2107.36
388.27	4765.62
388.48	9056.12
388.68	11667.28
388.89	13420.34
389.10	14063.40
389.31	11931.47
389.52	9660.27
389.73	8726.39
389.93	7810.95
390.14	7333.78
390.35	6700.95
390.56	6023.08
390.77	5015.48
390.98	3860.42
391.18	3078.10
391.39	2394.08
391.60	1961.95
391.81	1863.65
392.02	1771.49
392.23	1902.56
392.43	1658.85
392.64	1843.17
392.85	1767.40
393.06	1740.77
393.27	1771.49
393.47	1714.15
393.68	1783.78
393.89	1699.81
394.10	1847.27
394.31	1693.67
394.52	1761.25
394.72	1673.19
394.93	1763.30
395.14	1636.33
395.35	1665.00
395.56	1638.38
395.76	1742.82
395.97	1785.83
396.18	1851.36
396.39	1877.99
396.60	2074.59
396.80	1927.14
397.01	1933.28
397.22	1857.51
397.43	1873.89
397.64	1769.44
397.84	1845.22
398.05	1783.78
398.26	1767.40
398.47	1755.11
398.67	1751.01
398.88	1730.53
399.09	1689.57
399.30	1759.21
399.51	1753.06
399.71	1677.29
399.92	1783.78
400.13	1734.63
400.34	1693.67
400.54	1800.16
400.75	1841.12
400.96	1736.68
401.17	1880.04
401.37	1746.92
401.58	1691.62
401.79	1808.36
402.00	1751.01
402.21	2131.94
402.41	1998.82
402.62	2095.07
402.83	2181.09
403.04	2140.13
403.24	2099.17
403.45	1890.28
403.66	2066.40
403.87	1914.85
404.07	1949.67
404.28	1894.37
404.49	1920.99
404.70	1826.79
404.90	1843.17
405.11	1732.58
405.32	1746.92
405.52	1677.29
405.73	1681.38
405.94	1724.39
406.15	1812.45
406.35	1820.64
406.56	1755.11
406.77	1710.05
406.98	1691.62
407.18	1732.58
407.39	1718.25
407.60	1624.04
407.80	1699.81
408.01	1728.49
408.22	1730.53
408.43	1689.57
408.63	1763.30
408.84	1710.05
409.05	1775.59
409.25	1679.33
409.46	1763.30
409.67	1628.14
409.88	1685.48
410.08	1734.63
410.29	1644.52
410.50	1814.50
410.70	1789.92
410.91	1609.70
411.12	1804.26
411.32	1787.88
411.53	1755.11
411.74	1820.64
411.95	1812.45
412.15	1839.08
412.36	1832.93
412.57	1800.16
412.77	1839.08
412.98	1710.05
413.19	1748.97
413.39	1757.16
413.60	1781.73
413.81	1824.74
414.01	1755.11
414.22	1830.88
414.43	1791.97
414.63	1730.53
414.84	1810.40
415.05	1775.59
415.25	1724.39
415.46	1742.82
415.67	1736.68
415.87	1802.21
416.08	1757.16
416.29	1695.72
416.49	1783.78
416.70	1697.77
416.91	1675.24
417.11	1675.24
417.32	1722.34
417.53	1814.50
417.73	1771.49
417.94	1746.92
418.15	1736.68
418.35	1722.34
418.56	1710.05
418.77	1906.66
418.97	1634.28
419.18	1669.09
419.38	1562.60
419.59	1675.24
419.80	1849.32
420.00	1695.72
420.21	1697.77
420.42	1677.29
420.62	1730.53
420.83	1714.15
421.04	1624.04
421.24	1675.24
421.45	1755.11
421.65	1724.39
421.86	1734.63
422.07	1640.42
422.27	1757.16
422.48	1693.67
422.69	1714.15
422.89	1728.49
423.10	1769.44
423.30	1656.81
423.51	1697.77
423.72	1734.63
423.92	1826.79
424.13	1667.05
424.33	1800.16
424.54	1775.59
424.75	1740.77
424.95	1796.07
425.16	1746.92
425.36	1710.05
425.57	1802.21
425.78	1689.57
425.98	1818.60
426.19	1673.19
426.39	1644.52
426.60	1673.19
426.81	1808.36
427.01	1619.94
427.22	1658.85
427.42	1652.71
427.63	1658.85
427.83	1769.44
428.04	1787.88
428.25	1769.44
428.45	1832.93
428.66	1798.12
428.86	1658.85
429.07	1656.81
429.28	1726.44
429.48	1769.44
429.69	1759.21
429.89	1779.68
430.10	1648.61
430.30	1824.74
430.51	1759.21
430.71	1718.25
430.92	1701.86
431.13	1710.05
431.33	1763.30
431.54	1740.77
431.74	1814.50
431.95	1785.83
432.15	1619.94
432.36	1728.49
432.56	1732.58
432.77	1746.92
432.98	1724.39
433.18	1671.14
433.39	1652.71
433.59	1755.11
433.80	1824.74
434.00	1869.80
434.21	1628.14
434.41	1677.29
434.62	1865.70
434.82	1732.58
435.03	1650.66
435.23	1724.39
435.44	1669.09
435.64	1734.63
435.85	1740.77
436.06	1728.49
436.26	1771.49
436.47	1701.86
436.67	1693.67
436.88	1804.26
437.08	1779.68
437.29	1800.16
437.49	1734.63
437.70	1732.58
437.90	1728.49
438.11	1810.40
438.31	1789.92
438.52	1896.42
438.72	1910.75
438.93	1951.71
439.13	1800.16
439.34	1886.18
439.54	1738.73
439.75	1800.16
439.95	1806.31
440.16	1679.33
440.36	1820.64
440.57	1679.33
440.77	1736.68
440.98	1701.86
441.18	1855.46
441.39	1730.53
441.59	1685.48
441.80	1853.41
442.00	1773.54
442.21	1755.11
442.41	1636.33
442.62	1744.87
442.82	1693.67
443.02	1761.25
443.23	1773.54
443.43	1718.25
443.64	1837.03
443.84	1681.38
444.05	1933.28
444.25	1695.72
444.46	1767.40
444.66	1744.87
444.87	1785.83
445.07	1621.99
445.28	1718.25
445.48	1865.70
445.69	1818.60
445.89	1951.71
446.09	1789.92
446.30	2004.96
446.50	2580.44
446.71	4034.50
446.91	5218.22
447.12	5803.94
447.32	5883.81
447.53	5173.17
447.73	4415.42
447.93	3950.53
448.14	3651.53
448.34	3510.22
448.55	3221.45
448.75	3133.39
448.96	2983.89
449.16	2623.45
449.36	2451.42
449.57	2228.19
449.77	1951.71
449.98	1781.73
450.18	1859.56
450.39	1769.44
450.59	1724.39
450.79	1783.78
451.00	1791.97
451.20	1740.77
451.41	1775.59
451.61	1742.82
451.81	1724.39
452.02	1779.68
452.22	1703.91
452.43	1734.63
452.63	1695.72
452.84	1738.73
453.04	1732.58
453.24	1734.63
453.45	1708.01
453.65	1697.77
453.86	1740.77
454.06	1726.44
454.26	1820.64
454.47	1654.76
454.67	1800.16
454.87	1751.01
455.08	1773.54
455.28	1857.51
455.49	1730.53
455.69	1671.14
455.89	1890.28
456.10	1857.51
456.30	1681.38
456.51	1791.97
456.71	1832.93
456.91	1775.59
457.12	1779.68
457.32	1779.68
457.52	1681.38
457.73	1847.27
457.93	1820.64
458.14	1697.77
458.34	1673.19
458.54	1685.48
458.75	1691.62
458.95	1783.78
459.15	1837.03
459.36	1724.39
459.56	1785.83
459.76	1861.60
459.97	1763.30
460.17	1740.77
460.37	1726.44
460.58	1753.06
460.78	1761.25
460.99	1740.77
461.19	1712.10
461.39	1662.95
461.60	1679.33
461.80	1783.78
462.00	1693.67
462.21	1679.33
462.41	1687.53
462.61	1701.86
462.82	1681.38
463.02	1806.31
463.22	1761.25
463.43	1814.50
463.63	1738.73
463.83	1804.26
464.04	1751.01
464.24	1775.59
464.44	1689.57
464.64	1787.88
464.85	1816.55
465.05	1814.50
465.25	1787.88
465.46	1740.77
465.66	1763.30
465.86	1761.25
466.07	1697.77
466.27	1826.79
466.47	1628.14
466.68	1716.20
466.88	1828.84
467.08	1767.40
467.29	1773.54
467.49	1814.50
467.69	1656.81
467.89	1730.53
468.10	1701.86
468.30	1740.77
468.50	1810.40
468.71	1781.73
468.91	1574.89
469.11	1820.64
469.31	1695.72
469.52	1708.01
469.72	1853.41
469.92	1968.10
470.13	1794.02
470.33	1804.26
470.53	1855.46
470.73	2127.84
470.94	2578.39
471.14	2684.89
471.34	3057.62
471.54	2772.95
471.75	2602.97
471.95	2392.03
472.15	2357.21
472.36	2254.81
472.56	2160.61
472.76	2181.09
472.96	2086.88
473.17	1986.53
473.37	2045.92
473.57	1832.93
473.77	1832.93
473.98	1798.12
474.18	1689.57
474.38	1896.42
474.58	1824.74
474.79	1736.68
474.99	1818.60
475.19	1832.93
475.39	1714.15
475.60	1710.05
475.80	1714.15
476.00	1679.33
476.20	1701.86
476.41	1734.63
476.61	1904.61
476.81	1824.74
477.01	1648.61
477.21	1783.78
477.42	1808.36
477.62	1652.71
477.82	1724.39
478.02	1689.57
478.23	1703.91
478.43	1632.23
478.63	1785.83
478.83	1689.57
479.03	1701.86
479.24	1808.36
479.44	1779.68
479.64	1697.77
479.84	1574.89
480.04	1748.97
480.25	1773.54
480.45	1703.91
480.65	1648.61
480.85	1804.26
481.06	1650.66
481.26	1740.77
481.46	1740.77
481.66	1671.14
481.86	1689.57
482.06	1742.82
482.27	1714.15
482.47	1652.71
482.67	1767.40
482.87	1677.29
483.07	1779.68
483.28	1708.01
483.48	1701.86
483.68	1744.87
483.88	1712.10
484.08	1562.60
484.29	1634.28
484.49	1755.11
484.69	1656.81
484.89	1785.83
485.09	1828.84
485.29	1771.49
485.50	1753.06
485.70	1724.39
485.90	1787.88
486.10	1671.14
486.30	1742.82
486.50	1820.64
486.71	1695.72
486.91	1830.88
487.11	1826.79
487.31	1640.42
487.51	1769.44
487.71	1656.81
487.91	1677.29
488.12	1685.48
488.32	1662.95
488.52	1669.09
488.72	1626.09
488.92	1765.35
489.12	1720.29
489.32	1765.35
489.53	1695.72
489.73	1671.14
489.93	1865.70
490.13	1652.71
490.33	1617.90
490.53	1775.59
490.73	1779.68
490.94	1652.71
491.14	1783.78
491.34	1802.21
491.54	2099.17
491.74	2641.88
491.94	3135.44
492.14	3504.07
492.34	3442.64
492.54	3127.25
492.75	2779.09
492.95	2615.26
493.15	2490.33
493.35	2365.40
493.55	2377.69
493.75	2269.15
493.95	2215.90
494.15	2113.50
494.35	1972.19
494.56	1900.52
494.76	1796.07
494.96	1900.52
495.16	1771.49
495.36	1736.68
495.56	1804.26
495.76	1779.68
495.96	1763.30
496.16	1636.33
496.36	1882.08
496.56	1693.67
496.77	1744.87
496.97	1689.57
497.17	1791.97
497.37	1685.48
497.57	1691.62
497.77	1718.25
497.97	1693.67
498.17	1701.86
498.37	1732.58
498.57	1781.73
498.77	1673.19
498.97	1830.88
499.17	1734.63
499.38	1714.15
499.58	1740.77
499.78	1806.31
499.98	1789.92
500.18	1638.38
500.38	1722.34
500.58	1855.46
500.78	2508.76
500.98	4468.67
501.18	6700.95
501.38	8112.00
501.58	8980.34
501.78	8761.21
501.98	6981.53
502.18	5855.14
502.38	5005.24
502.58	4509.63
502.78	4147.14
502.98	3901.38
503.18	3745.73
503.38	3481.55
503.59	3139.54
503.79	2959.31
503.99	2562.01
504.19	2445.27
504.39	2322.40
504.59	2373.60
504.79	2328.54
504.99	2279.39
505.19	2078.69
505.39	1970.15
505.59	2043.87
505.79	2025.44
505.99	1918.95
506.19	1869.80
506.39	1902.56
506.59	1779.68
506.79	1816.55
506.99	1865.70
507.19	1789.92
507.39	1722.34
507.59	1681.38
507.79	1710.05
507.99	1724.39
508.19	1726.44
508.39	1748.97
508.59	1771.49
508.79	1761.25
508.99	1828.84
509.19	1732.58
509.39	1830.88
509.59	1771.49
509.79	1632.23
509.99	1673.19
510.19	1789.92
510.39	1826.79
510.59	1763.30
510.79	1714.15
510.99	1693.67
511.19	1736.68
511.39	1871.84
511.59	1781.73
511.79	1826.79
511.99	1787.88
512.19	1830.88
512.38	1675.24
512.58	1726.44
512.78	1794.02
512.98	1839.08
513.18	1812.45
513.38	1570.79
513.58	1832.93
513.78	1775.59
513.98	1654.76
514.18	1638.38
514.38	1693.67
514.58	1691.62
514.78	1632.23
514.98	1693.67
515.18	1751.01
515.38	1775.59
515.58	1804.26
515.78	1703.91
515.98	1697.77
516.18	1791.97
516.38	1730.53
516.57	1722.34
516.77	1708.01
516.97	1777.64
517.17	1728.49
517.37	1699.81
517.57	1853.41
517.77	1712.10
517.97	1652.71
518.17	1767.40
518.37	1703.91
518.57	1677.29
518.77	1751.01
518.97	1773.54
519.16	1771.49
519.36	1845.22
519.56	1697.77
519.76	1697.77
519.96	1779.68
520.16	1802.21
520.36	1701.86
520.56	1822.69
520.76	1630.18
520.96	1691.62
521.16	1773.54
521.35	1757.16
521.55	1789.92
521.75	1761.25
521.95	1767.40
522.15	1755.11
522.35	1789.92
522.55	1703.91
522.75	1730.53
522.95	1753.06
523.14	1681.38
523.34	1714.15
523.54	1789.92
523.74	1697.77
523.94	1708.01
524.14	1624.04
524.34	1744.87
524.54	1861.60
524.73	1742.82
524.93	1781.73
525.13	1751.01
525.33	1611.75
525.53	1906.66
525.73	1746.92
525.93	1720.29
526.13	1634.28
526.32	1665.00
526.52	1769.44
526.72	1820.64
526.92	1691.62
527.12	1755.11
527.32	1703.91
527.52	1806.31
527.71	1720.29
527.91	1740.77
528.11	1730.53
528.31	1687.53
528.51	1695.72
528.71	1804.26
528.90	1814.50
529.10	1708.01
529.30	1812.45
529.50	1634.28
529.70	1703.91
529.90	1675.24
530.09	1730.53
530.29	1654.76
530.49	1687.53
530.69	1851.36
530.89	1787.88
531.09	1761.25
531.28	1757.16
531.48	1781.73
531.68	1673.19
531.88	1701.86
532.08	1732.58
532.28	1621.99
532.47	1736.68
532.67	1857.51
532.87	1806.31
533.07	1660.90
533.27	1865.70
533.46	1832.93
533.66	1769.44
533.86	1697.77
534.06	1794.02
534.26	1742.82
534.45	1685.48
534.65	1834.98
534.85	1763.30
535.05	1722.34
535.25	1804.26
535.44	1689.57
535.64	1814.50
535.84	1742.82
536.04	1732.58
536.24	1742.82
536.43	1716.20
536.63	1738.73
536.83	1753.06
537.03	1777.64
537.22	1626.09
537.42	1605.61
537.62	1746.92
537.82	1722.34
538.02	1865.70
538.21	1867.75
538.41	1920.99
538.61	1710.05
538.81	1771.49
539.00	1771.49
539.20	1646.57
539.40	1746.92
539.60	1783.78
539.79	1839.08
539.99	1693.67
540.19	1695.72
540.39	1744.87
540.58	1779.68
540.78	1871.84
540.98	1779.68
541.18	1804.26
541.37	1859.56
541.57	1740.77
541.77	1773.54
541.97	1634.28
542.16	1650.66
542.36	1742.82
542.56	1781.73
542.76	1837.03
542.95	1746.92
543.15	1791.97
543.35	1810.40
543.54	1695.72
543.74	1718.25
543.94	1814.50
544.14	1744.87
544.33	1769.44
544.53	1757.16
544.73	1816.55
544.93	1726.44
545.12	1669.09
545.32	1773.54
545.52	1691.62
545.71	1677.29
545.91	1667.05
546.11	1742.82
546.30	1726.44
546.50	1619.94
546.70	1695.72
546.90	1710.05
547.09	1648.61
547.29	1769.44
547.49	1734.63
547.68	1779.68
547.88	1714.15
548.08	1787.88
548.27	2133.98
548.47	1712.10
548.67	1660.90
548.87	1775.59
549.06	1708.01
549.26	1783.78
549.46	1736.68
549.65	1685.48
549.85	1716.20
550.05	1816.55
550.24	1705.96
550.44	1738.73
550.64	1726.44
550.83	1761.25
551.03	1755.11
551.23	1751.01
551.42	1732.58
551.62	1722.34
551.82	1712.10
552.01	1689.57
552.21	1808.36
552.41	1705.96
552.60	1802.21
552.80	1779.68
553.00	1697.77
553.19	1777.64
553.39	1857.51
553.59	1652.71
553.78	1712.10
553.98	1675.24
554.17	1685.48
554.37	1724.39
554.57	1783.78
554.76	1662.95
554.96	1648.61
555.16	1771.49
555.35	1802.21
555.55	1705.96
555.75	1771.49
555.94	1734.63
556.14	1677.29
556.33	1781.73
556.53	1726.44
556.73	1759.21
556.92	1812.45
557.12	1738.73
557.32	1869.80
557.51	1814.50
557.71	1738.73
557.90	1769.44
558.10	1818.60
558.30	1748.97
558.49	1726.44
558.69	1724.39
558.88	1806.31
559.08	1814.50
559.28	1705.96
559.47	1726.44
559.67	1810.40
559.86	1820.64
560.06	1724.39
560.26	1746.92
560.45	1830.88
560.65	1781.73
560.84	1705.96
561.04	1703.91
561.24	1734.63
561.43	1675.24
561.63	1742.82
561.82	1814.50
562.02	1728.49
562.22	1665.00
562.41	1683.43
562.61	1734.63
562.80	1638.38
563.00	1841.12
563.19	1724.39
563.39	1744.87
563.59	1742.82
563.78	1785.83
563.98	1574.89
564.17	1660.90
564.37	1603.56
564.56	1759.21
564.76	1714.15
564.96	1847.27
565.15	1759.21
565.35	1902.56
565.54	1687.53
565.74	1753.06
565.93	1773.54
566.13	1812.45
566.32	1687.53
566.52	1757.16
566.71	1763.30
566.91	1826.79
567.11	1691.62
567.30	1689.57
567.50	1798.12
567.69	1740.77
567.89	1736.68
568.08	1724.39
568.28	1728.49
568.47	1714.15
568.67	1757.16
568.86	1665.00
569.06	1810.40
569.25	1765.35
569.45	1691.62
569.64	1738.73
569.84	1626.09
570.04	1738.73
570.23	1718.25
570.43	1746.92
570.62	1816.55
570.82	1830.88
571.01	1636.33
571.21	1734.63
571.40	1794.02
571.60	1771.49
571.79	1742.82
571.99	1767.40
572.18	1665.00
572.38	1767.40
572.57	1748.97
572.77	1763.30
572.96	1890.28
573.16	1734.63
573.35	1638.38
573.55	1767.40
573.74	1785.83
573.94	1736.68
574.13	1703.91
574.33	1742.82
574.52	1781.73
574.71	1746.92
574.91	1740.77
575.10	1609.70
575.30	1726.44
575.49	1654.76
575.69	1683.43
575.88	1810.40
576.08	1689.57
576.27	1902.56
576.47	1812.45
576.66	1923.04
576.86	1830.88
577.05	1761.25
577.25	1800.16
577.44	1873.89
577.64	1759.21
577.83	1755.11
578.02	1738.73
578.22	1832.93
578.41	1845.22
578.61	1710.05
578.80	1755.11
579.00	1810.40
579.19	1794.02
579.39	1773.54
579.58	1810.40
579.77	1726.44
579.97	1834.98
580.16	1767.40
580.36	1826.79
580.55	1951.71
580.75	1781.73
580.94	1775.59
581.13	1767.40
581.33	1857.51
581.52	1734.63
581.72	1888.23
581.91	1853.41
582.11	1773.54
582.30	1818.60
582.49	1779.68
582.69	1828.84
582.88	1751.01
583.08	1822.69
583.27	1708.01
583.47	1740.77
583.66	1746.92
583.85	1822.69
584.05	1718.25
584.24	1849.32
584.44	1826.79
584.63	1865.70
584.82	1828.84
585.02	1955.81
585.21	1986.53
585.41	1896.42
585.60	1943.52
585.79	1990.63
585.99	1935.33
586.18	2013.15
586.37	2273.25
586.57	3330.00
586.76	9654.12
586.96	26846.82
587.15	41532.81
587.34	51594.48
587.54	57658.51
587.73	55463.09
587.93	39880.10
588.12	29527.61
588.31	23817.88
588.51	20391.62
588.70	18271.98
588.89	17071.87
589.09	15372.05
589.28	13629.23
589.47	11573.07
589.67	9482.10
589.86	7483.28
590.06	5412.78
590.25	4126.66
590.44	3203.02
590.64	2613.21
590.83	2289.63
591.02	2197.47
591.22	1894.37
591.41	1920.99
591.60	1865.70
591.80	1947.62
591.99	1742.82
592.18	1763.30
592.38	1804.26
592.57	1751.01
592.76	1742.82
592.96	1742.82
593.15	1773.54
593.34	1832.93
593.54	1757.16
593.73	1755.11
593.92	1882.08
594.12	1877.99
594.31	1791.97
594.50	1884.13
594.70	1810.40
594.89	1896.42
595.08	1710.05
595.28	1937.38
595.47	2002.91
595.66	1812.45
595.86	1630.18
596.05	1701.86
596.24	1775.59
596.43	1843.17
596.63	1828.84
596.82	1757.16
597.01	1765.35
597.21	1939.43
597.40	1884.13
597.59	1789.92
597.79	1800.16
597.98	1828.84
598.17	1753.06
598.36	1744.87
598.56	1720.29
598.75	1689.57
598.94	1791.97
599.14	1732.58
599.33	1769.44
599.52	1763.30
599.71	1771.49
599.91	1798.12
600.10	1755.11
600.29	1736.68
600.48	1834.98
600.68	1734.63
600.87	1730.53
601.06	1726.44
601.26	1744.87
601.45	1738.73
601.64	1722.34
601.83	1775.59
602.03	1714.15
602.22	1646.57
602.41	1822.69
602.60	1873.89
602.80	1785.83
602.99	1748.97
603.18	1730.53
603.37	1806.31
603.57	1755.11
603.76	1777.64
603.95	1802.21
604.14	1660.90
604.34	1703.91
604.53	1726.44
604.72	1753.06
604.91	1822.69
605.10	1771.49
605.30	1669.09
605.49	1851.36
605.68	1775.59
605.87	1708.01
606.07	1824.74
606.26	1765.35
606.45	1787.88
606.64	1808.36
606.84	1714.15
607.03	1748.97
607.22	1828.84
607.41	1759.21
607.60	1722.34
607.80	1820.64
607.99	1773.54
608.18	1738.73
608.37	1724.39
608.56	1691.62
608.76	1742.82
608.95	1853.41
609.14	1861.60
609.33	1861.60
609.52	1837.03
609.72	1861.60
609.91	1845.22
610.10	1808.36
610.29	1806.31
610.48	1867.75
610.68	1802.21
610.87	1802.21
611.06	1837.03
611.25	1765.35
611.44	1861.60
611.63	1755.11
611.83	1824.74
612.02	1658.85
612.21	1865.70
612.40	1662.95
612.59	1658.85
612.79	1656.81
612.98	1746.92
613.17	1824.74
613.36	1791.97
613.55	1853.41
613.74	1824.74
613.93	1892.32
614.13	1927.14
614.32	1943.52
614.51	1931.23
614.70	1871.84
614.89	1802.21
615.08	1761.25
615.28	2168.80
615.47	1765.35
615.66	1785.83
615.85	1794.02
616.04	1861.60
616.23	1783.78
616.42	1839.08
616.62	1816.55
616.81	1781.73
617.00	1748.97
617.19	1783.78
617.38	1736.68
617.57	1730.53
617.76	1779.68
617.95	1830.88
618.15	1748.97
618.34	1943.52
618.53	1679.33
618.72	1826.79
618.91	1865.70
619.10	1789.92
619.29	1699.81
619.48	1669.09
619.68	1714.15
619.87	1648.61
620.06	1701.86
620.25	1796.07
620.44	1720.29
620.63	1751.01
620.82	1712.10
621.01	1753.06
621.20	1738.73
621.39	1720.29
621.59	1783.78
621.78	1724.39
621.97	1763.30
622.16	1800.16
622.35	1710.05
622.54	1802.21
622.73	1853.41
622.92	1660.90
623.11	1771.49
623.30	1665.00
623.49	1755.11
623.68	1607.66
623.88	1816.55
624.07	1730.53
624.26	1693.67
624.45	1726.44
624.64	1722.34
624.83	1757.16
625.02	1777.64
625.21	1718.25
625.40	1648.61
625.59	1763.30
625.78	1810.40
625.97	1834.98
626.16	1861.60
626.35	1787.88
626.54	1875.94
626.74	1875.94
626.93	1720.29
627.12	1787.88
627.31	1775.59
627.50	1863.65
627.69	1771.49
627.88	1714.15
628.07	1679.33
628.26	1683.43
628.45	1744.87
628.64	1675.24
628.83	1703.91
629.02	1691.62
629.21	1759.21
629.40	1724.39
629.59	1699.81
629.78	1744.87
629.97	1712.10
630.16	1810.40
630.35	1732.58
630.54	1734.63
630.73	1751.01
630.92	1802.21
631.11	1773.54
631.30	1755.11
631.49	1816.55
631.68	1705.96
631.87	1665.00
632.06	1701.86
632.25	1892.32
632.44	1765.35
632.63	1843.17
632.82	1783.78
633.01	1800.16
633.20	1738.73
633.39	1787.88
633.58	1699.81
633.77	1761.25
633.96	1771.49
634.15	1847.27
634.34	1804.26
634.53	1777.64
634.72	1757.16
634.91	1585.13
635.10	1781.73
635.29	1679.33
635.48	1783.78
635.67	1691.62
635.86	1738.73
636.05	1845.22
636.24	1667.05
636.43	1781.73
636.62	1820.64
636.81	1636.33
637.00	1730.53
637.19	1765.35
637.38	1771.49
637.57	1689.57
637.76	1830.88
637.95	1865.70
638.14	1800.16
638.33	1892.32
638.52	1798.12
638.71	1736.68
638.89	1712.10
639.08	1966.05
639.27	1841.12
639.46	1894.37
639.65	2248.67
639.84	2285.53
640.03	2338.78
640.22	2340.83
640.41	2353.12
640.60	2060.26
640.79	2033.63
640.98	1935.33
641.17	1984.48
641.36	1898.47
641.55	1931.23
641.74	1839.08
641.92	1753.06
642.11	1755.11
642.30	1802.21
642.49	1710.05
642.68	1742.82
642.87	1791.97
643.06	1777.64
643.25	1636.33
643.44	1685.48
643.63	1669.09
643.82	1740.77
644.00	1597.42
644.19	1748.97
644.38	1755.11
644.57	1773.54
644.76	1781.73
644.95	1736.68
645.14	1787.88
645.33	1773.54
645.52	1726.44
645.71	1652.71
645.89	1699.81
646.08	1634.28
646.27	1691.62
646.46	1804.26
646.65	1617.90
646.84	1695.72
647.03	1689.57
647.22	1837.03
647.40	1662.95
647.59	1714.15
647.78	1548.26
647.97	1697.77
648.16	1615.85
648.35	1828.84
648.54	1785.83
648.73	1701.86
648.91	1716.20
649.10	1636.33
649.29	1697.77
649.48	1689.57
649.67	1763.30
649.86	1746.92
650.05	1771.49
650.23	1888.23
650.42	1771.49
650.61	1961.95
650.80	1964.00
650.99	1949.67
651.18	1877.99
651.36	1904.61
651.55	1673.19
651.74	1824.74
651.93	1765.35
652.12	1673.19
652.31	1710.05
652.49	1724.39
652.68	1751.01
652.87	1863.65
653.06	1755.11
653.25	1892.32
653.44	1753.06
653.62	1837.03
653.81	1734.63
654.00	1755.11
654.19	1820.64
654.38	1849.32
654.56	1726.44
654.75	1730.53
654.94	1742.82
655.13	1746.92
655.32	1712.10
655.51	1857.51
655.69	1685.48
655.88	1808.36
656.07	1624.04
656.26	1714.15
656.45	1665.00
656.63	1775.59
656.82	1781.73
657.01	1767.40
657.20	1740.77
657.38	1779.68
657.57	1714.15
657.76	1630.18
657.95	1724.39
658.14	1640.42
658.32	1738.73
658.51	1677.29
658.70	1771.49
658.89	1712.10
659.08	1744.87
659.26	1794.02
659.45	1687.53
659.64	1828.84
659.83	1775.59
660.01	1961.95
660.20	1798.12
660.39	1931.23
660.58	1624.04
660.76	1716.20
660.95	1634.28
661.14	1689.57
661.33	1705.96
661.51	1628.14
661.70	1677.29
661.89	1779.68
662.08	1656.81
662.26	1691.62
662.45	1660.90
662.64	1853.41
662.83	1740.77
663.01	1673.19
663.20	1697.77
663.39	1867.75
663.58	1699.81
663.76	1720.29
663.95	1738.73
664.14	1691.62
664.32	1689.57
664.51	1673.19
664.70	1642.47
664.89	1820.64
665.07	1716.20
665.26	1720.29
665.45	1605.61
665.64	1791.97
665.82	1683.43
666.01	1763.30
666.20	1695.72
666.38	1882.08
666.57	1810.40
666.76	2226.14
666.95	4489.15
667.13	11417.43
667.32	18401.00
667.51	22017.71
667.69	24907.40
667.88	25609.85
668.07	19705.56
668.25	14366.50
668.44	11614.03
668.63	9803.63
668.81	8638.33
669.00	7632.78
669.19	7006.10
669.38	5961.64
669.56	5267.38
669.75	4630.46
669.94	3788.74
670.12	3020.75
670.31	2600.92
670.50	2349.02
670.68	2168.80
670.87	1943.52
671.06	1828.84
671.24	1832.93
671.43	1818.60
671.62	1900.52
671.80	1802.21
671.99	1865.70
672.18	1794.02
672.36	1783.78
672.55	1804.26
672.74	1740.77
672.92	1734.63
673.11	1816.55
673.29	1636.33
673.48	1804.26
673.67	1665.00
673.85	1800.16
674.04	1726.44
674.23	1712.10
674.41	1851.36
674.60	1671.14
674.79	1632.23
674.97	1685.48
675.16	1736.68
675.34	1761.25
675.53	1710.05
675.72	1728.49
675.90	1789.92
676.09	1712.10
676.28	1722.34
676.46	1656.81
676.65	1808.36
676.83	1740.77
677.02	1716.20
677.21	1675.24
677.39	1757.16
677.58	1718.25
677.77	1652.71
677.95	1669.09
678.14	1681.38
678.32	1673.19
678.51	1693.67
678.70	1761.25
678.88	1775.59
679.07	1732.58
679.25	1740.77
679.44	1665.00
679.63	1591.27
679.81	1695.72
680.00	1759.21
680.18	1701.86
680.37	1816.55
680.55	1802.21
680.74	1699.81
680.93	1626.09
681.11	1665.00
681.30	1683.43
681.48	1714.15
681.67	1718.25
681.85	1783.78
682.04	1673.19
682.23	1708.01
682.41	1654.76
682.60	1644.52
682.78	1693.67
682.97	1681.38
683.15	1781.73
683.34	1740.77
683.53	1812.45
683.71	1687.53
683.90	1820.64
684.08	1796.07
684.27	1736.68
684.45	1748.97
684.64	1730.53
684.82	1705.96
685.01	1767.40
685.19	1648.61
685.38	1761.25
685.57	1724.39
685.75	1710.05
685.94	1636.33
686.12	1665.00
686.31	1613.80
686.49	1824.74
686.68	1640.42
686.86	1742.82
687.05	1671.14
687.23	1748.97
687.42	1654.76
687.60	1640.42
687.79	1736.68
687.97	1710.05
688.16	1744.87
688.34	1781.73
688.53	1558.50
688.71	1730.53
688.90	1861.60
689.08	1701.86
689.27	1609.70
689.45	1746.92
689.64	1779.68
689.82	1740.77
690.01	1697.77
690.19	1718.25
690.38	1669.09
690.56	1789.92
690.75	1611.75
690.93	1722.34
691.12	1628.14
691.30	1732.58
691.49	1660.90
691.67	1701.86
691.86	1859.56
692.04	1671.14
692.23	1722.34
692.41	1689.57
692.60	1925.09
692.78	1820.64
692.97	1775.59
693.15	1837.03
693.34	1851.36
693.52	1722.34
693.71	1765.35
693.89	1673.19
694.08	1642.47
694.26	1681.38
694.44	1759.21
694.63	1734.63
694.81	1720.29
695.00	1662.95
695.18	1798.12
695.37	1841.12
695.55	1748.97
695.74	1687.53
695.92	1650.66
696.10	1791.97
696.29	1572.84
696.47	1744.87
696.66	1619.94
696.84	1722.34
697.03	1751.01
697.21	1892.32
697.40	2328.54
697.58	1814.50
697.76	1665.00
697.95	1697.77
698.13	1675.24
698.32	1724.39
698.50	1736.68
698.68	1773.54
698.87	1624.04
699.05	1742.82
699.24	1697.77
699.42	1624.04
699.61	1748.97
699.79	1738.73
699.97	1718.25
700.16	1624.04
700.34	1675.24
700.53	1671.14
700.71	1791.97
700.89	1763.30
701.08	1689.57
701.26	1761.25
701.45	2201.57
701.63	1681.38
701.81	1648.61
702.00	1607.66
702.18	1673.19
702.37	1675.24
702.55	1767.40
702.73	1900.52
702.92	1826.79
703.10	1937.38
703.28	2019.30
703.47	1837.03
703.65	1894.37
703.84	1802.21
704.02	1789.92
704.20	1927.14
704.39	1771.49
704.57	1806.31
704.75	1855.46
704.94	1783.78
705.12	1800.16
705.30	1828.84
705.49	2465.75
705.67	5437.36
705.86	13096.76
706.04	19392.22
706.22	22650.53
706.41	25265.79
706.59	24786.57
706.77	19162.84
706.96	13879.08
707.14	11775.82
707.32	10106.73
707.51	8861.56
707.69	7802.76
707.87	6737.82
708.06	5498.80
708.24	4411.32
708.42	3291.09
708.61	2781.14
708.79	2244.57
708.97	2074.59
709.16	2027.49
709.34	1931.23
709.52	1804.26
709.71	1751.01
709.89	1783.78
710.07	1742.82
710.26	1767.40
710.44	1757.16
710.62	1779.68
710.80	1773.54
710.99	1769.44
711.17	1740.77
711.35	1716.20
711.54	1697.77
711.72	1796.07
711.90	1751.01
712.09	1798.12
712.27	1691.62
712.45	1779.68
712.63	1720.29
712.82	1757.16
713.00	1730.53
713.18	1736.68
713.37	1730.53
713.55	1728.49
713.73	1669.09
713.91	1703.91
714.10	1619.94
714.28	1683.43
714.46	1708.01
714.65	1712.10
714.83	1718.25
715.01	1746.92
715.19	1689.57
715.38	1691.62
715.56	1810.40
715.74	1626.09
715.92	1724.39
716.11	1753.06
716.29	1607.66
716.47	1732.58
716.65	1738.73
716.84	1601.51
717.02	1773.54
717.20	1656.81
717.38	1724.39
717.57	1712.10
717.75	1712.10
717.93	1648.61
718.11	1685.48
718.30	1591.27
718.48	1675.24
718.66	1771.49
718.84	1734.63
719.03	1669.09
719.21	1638.38
719.39	1783.78
719.57	1730.53
719.75	1800.16
719.94	1699.81
720.12	1701.86
720.30	1738.73
720.48	1748.97
720.67	1628.14
720.85	1705.96
721.03	1763.30
721.21	1656.81
721.39	1771.49
721.58	1607.66
721.76	1685.48
721.94	1671.14
722.12	1683.43
722.30	1775.59
722.49	1656.81
722.67	1761.25
722.85	1734.63
723.03	1689.57
723.21	1634.28
723.40	1662.95
723.58	1783.78
723.76	1773.54
723.94	1789.92
724.12	1769.44
724.30	1849.32
724.49	1923.04
724.67	1724.39
724.85	1841.12
725.03	1746.92
725.21	1726.44
725.40	1843.17
725.58	1652.71
725.76	1794.02
725.94	1724.39
726.12	1634.28
726.30	1726.44
726.49	1701.86
726.67	1759.21
726.85	1783.78
727.03	1785.83
727.21	2246.62
727.39	3354.57
727.57	4933.56
727.76	5572.52
727.94	6238.11
728.12	6240.16
728.30	5648.30
728.48	4421.56
728.66	4005.83
728.84	3557.32
729.03	3170.26
729.21	2815.96
729.39	2447.32
729.57	2062.30
729.75	1863.65
729.93	1863.65
730.11	1789.92
730.30	1759.21
730.48	1779.68
730.66	1824.74
730.84	1763.30
731.02	1728.49
731.20	1679.33
731.38	1662.95
731.56	1677.29
731.74	1656.81
731.93	1732.58
732.11	1714.15
732.29	1738.73
732.47	1761.25
732.65	1687.53
732.83	1787.88
733.01	1769.44
733.19	1660.90
733.37	1718.25
733.56	1701.86
733.74	1665.00
733.92	1757.16
734.10	1734.63
734.28	1734.63
734.46	1628.14
734.64	1710.05
734.82	1697.77
735.00	1669.09
735.18	1669.09
735.36	1742.82
735.54	1636.33
735.73	1679.33
735.91	1689.57
736.09	1712.10
736.27	1673.19
736.45	1744.87
736.63	1607.66
736.81	1744.87
736.99	1800.16
737.17	1771.49
737.35	1691.62
737.53	1701.86
737.71	1753.06
737.89	1785.83
738.07	1691.62
738.25	1634.28
738.43	1712.10
738.61	1753.06
738.80	1658.85
738.98	1597.42
739.16	1642.47
739.34	1656.81
739.52	1787.88
739.70	1695.72
739.88	1755.11
740.06	1787.88
740.24	1615.85
740.42	1759.21
740.60	1572.84
740.78	1677.29
740.96	1638.38
741.14	1667.05
741.32	1652.71
741.50	1660.90
741.68	1847.27
741.86	1794.02
742.04	1775.59
742.22	1640.42
742.40	1677.29
742.58	1755.11
742.76	1675.24
742.94	1818.60
743.12	1632.23
743.30	1767.40
743.48	1732.58
743.66	1650.66
743.84	1656.81
744.02	1710.05
744.20	1746.92
744.38	1675.24
744.56	1675.24
744.74	1853.41
744.92	1665.00
745.10	1886.18
745.28	1753.06
745.46	1824.74
745.64	1607.66
745.82	1816.55
746.00	1691.62
746.18	1714.15
746.36	1701.86
746.54	1757.16
746.72	1714.15
746.90	1652.71
747.08	1708.01
747.26	1646.57
747.44	1718.25
747.62	1826.79
747.80	1685.48
747.98	1755.11
748.15	1689.57
748.33	1734.63
748.51	1656.81
748.69	1730.53
748.87	1705.96
749.05	1667.05
749.23	1691.62
749.41	1722.34
749.59	1636.33
749.77	1816.55
749.95	1609.70
750.13	1685.48
750.31	1740.77
750.49	1763.30
750.67	1755.11
750.85	1857.51
751.03	1787.88
751.20	1814.50
751.38	1679.33
751.56	1701.86
751.74	1722.34
751.92	1708.01
752.10	1691.62
752.28	1796.07
752.46	1685.48
752.64	1656.81
752.82	1718.25
753.00	1746.92
753.18	1775.59
753.35	1705.96
753.53	1642.47
753.71	1708.01
753.89	1757.16
754.07	1722.34
754.25	1798.12
754.43	1785.83
754.61	1671.14
754.79	1804.26
754.97	1740.77
755.14	1730.53
755.32	1689.57
755.50	1705.96
755.68	1689.57
755.86	1621.99
756.04	1703.91
756.22	1650.66
756.40	1740.77
756.57	1826.79
756.75	1699.81
756.93	1740.77
757.11	1791.97
757.29	1646.57
757.47	1632.23
757.65	1570.79
757.82	1671.14
758.00	1619.94
758.18	1726.44
758.36	1607.66
758.54	1779.68
758.72	1665.00
758.90	1761.25
759.07	1697.77
759.25	1634.28
759.43	1660.90
759.61	1632.23
759.79	2205.66
759.97	1771.49
760.15	1667.05
760.32	1652.71
760.50	1691.62
760.68	1814.50
760.86	1693.67
761.04	1802.21
761.22	1720.29
761.39	1740.77
761.57	1611.75
761.75	1720.29
761.93	1740.77
762.11	1662.95
762.28	1693.67
762.46	1746.92
762.64	1755.11
762.82	1640.42
763.00	1650.66
763.18	1775.59
763.35	1630.18
763.53	1656.81
763.71	1720.29
763.89	1761.25
764.07	1781.73
764.24	1757.16
764.42	1755.11
764.60	1638.38
764.78	1771.49
764.96	1773.54
765.13	1771.49
765.31	1722.34
765.49	1675.24
765.67	1681.38
765.84	1662.95
766.02	1615.85
766.20	1646.57
766.38	1708.01
766.56	1685.48
766.73	1695.72
766.91	1714.15
767.09	1648.61
767.27	1699.81
767.44	1626.09
767.62	1691.62
767.80	1787.88
767.98	1658.85
768.15	1720.29
768.33	1691.62
768.51	1748.97
768.69	1738.73
768.87	1755.11
769.04	1662.95
769.22	1791.97
769.40	1902.56
769.58	1892.32
769.75	1742.82
769.93	1705.96
770.11	1701.86
770.28	1705.96
770.46	1783.78
770.64	1705.96
770.82	1619.94
770.99	1705.96
771.17	1701.86
771.35	1738.73
771.53	1736.68
771.70	1718.25
771.88	1724.39
772.06	1708.01
772.23	1665.00
772.41	1714.15
772.59	1730.53
772.77	1599.46
772.94	1734.63
773.12	1800.16
773.30	1728.49
773.47	1751.01
773.65	1681.38
773.83	1828.84
774.01	1648.61
774.18	1632.23
774.36	1718.25
774.54	1673.19
774.71	1765.35
774.89	1626.09
775.07	1603.56
775.24	1724.39
775.42	1740.77
775.60	1785.83
775.78	1734.63
775.95	1628.14
776.13	1589.22
776.31	1581.03
776.48	1732.58
776.66	1728.49
776.84	1671.14
777.01	1656.81
777.19	1691.62
777.37	1726.44
777.54	1740.77
777.72	1871.84
777.90	1734.63
778.07	1689.57
778.25	1837.03
778.43	1789.92
778.60	1644.52
778.78	1742.82
778.96	1708.01
779.13	1736.68
779.31	1746.92
779.49	1693.67
779.66	1722.34
779.84	1693.67
780.01	1781.73
780.19	1710.05
780.37	1755.11
780.54	1787.88
780.72	1626.09
780.90	1703.91
781.07	1695.72
781.25	1722.34
781.43	1767.40
781.60	1591.27
781.78	1794.02
781.95	1708.01
782.13	1638.38
782.31	1734.63
782.48	1560.55
782.66	1742.82
782.83	1748.97
783.01	1642.47
783.19	1757.16
783.36	1722.34
783.54	1697.77
783.72	1824.74
783.89	1781.73
784.07	1722.34
784.24	1728.49
784.42	1802.21
784.60	1701.86
784.77	1732.58
784.95	1603.56
785.12	1685.48
785.30	1726.44
785.47	1644.52
785.65	1640.42
785.83	1689.57
786.00	1699.81
786.18	1712.10
786.35	1667.05
786.53	1667.05
786.71	1751.01
786.88	1734.63
787.06	1689.57
787.23	1636.33
787.41	1656.81
787.58	1669.09
787.76	1669.09
787.94	1718.25
788.11	1708.01
788.29	1687.53
788.46	1652.71
788.64	1648.61
788.81	1681.38
788.99	1697.77
789.16	1609.70
789.34	1654.76
789.52	1628.14
789.69	1718.25
789.87	1589.22
790.04	1628.14
790.22	1763.30
790.39	1828.84
790.57	1703.91
790.74	1712.10
790.92	1781.73
791.09	1673.19
791.27	1697.77
791.44	1775.59
791.62	1789.92
791.79	1734.63
791.97	1636.33
792.15	1873.89
792.32	1730.53
792.50	1699.81
792.67	1722.34
792.85	1777.64
793.02	1738.73
793.20	1677.29
793.37	1652.71
793.55	1726.44
793.72	1601.51
793.90	1628.14
794.07	1669.09
794.25	1656.81
794.42	1691.62
794.60	1669.09
794.77	1701.86
794.95	1744.87
795.12	1767.40
795.30	1746.92
795.47	1673.19
795.65	1888.23
795.82	1718.25
796.00	1654.76
796.17	1673.19
796.34	1640.42
796.52	1703.91
796.69	1744.87
796.87	1662.95
797.04	1703.91
797.22	1757.16
797.39	1703.91
797.57	1828.84
797.74	1830.88
797.92	1789.92
798.09	1681.38
798.27	1806.31
798.44	1683.43
798.62	1732.58
798.79	1675.24
798.96	1769.44
799.14	1730.53
799.31	1804.26
799.49	1726.44
799.66	1644.52
799.84	1705.96
800.01	1628.14
800.19	1755.11
800.36	1550.31
800.53	1757.16
800.71	1742.82
800.88	1828.84
801.06	1703.91
801.23	1693.67
801.41	1708.01
801.58	1626.09
801.75	1650.66
801.93	1751.01
802.10	1673.19
802.28	1677.29
802.45	1746.92
802.63	1777.64
802.80	1724.39
802.97	1601.51
803.15	1767.40
803.32	1652.71
803.50	1605.61
803.67	1583.08
803.84	1646.57
804.02	1724.39
804.19	1746.92
804.37	1613.80
804.54	1644.52
804.71	1632.23
804.89	1681.38
805.06	1652.71
805.24	1650.66
805.41	1687.53
805.58	1708.01
805.76	1779.68
805.93	1757.16
806.10	1837.03
806.28	1665.00
806.45	1779.68
806.63	1800.16
806.80	1759.21
806.97	1722.34
807.15	1697.77
807.32	1660.90
807.49	1683.43
807.67	1642.47
807.84	1699.81
808.01	1642.47
808.19	1824.74
808.36	1906.66
808.54	1734.63
808.71	1669.09
808.88	1691.62
809.06	1812.45
809.23	1769.44
809.40	1630.18
809.58	1820.64
809.75	1710.05
809.92	1710.05
810.10	1785.83
810.27	1714.15
810.44	1728.49
810.62	1742.82
810.79	1652.71
810.96	1601.51
811.14	1611.75
811.31	1759.21
811.48	1769.44
811.66	1658.85
811.83	1759.21
812.00	1685.48
812.18	1691.62
812.35	1849.32
812.52	1689.57
812.69	1685.48
812.87	1789.92
813.04	1634.28
813.21	1728.49
813.39	1677.29
813.56	1640.42
813.73	1812.45
813.91	1624.04
814.08	1728.49
814.25	1746.92
814.42	1650.66
814.60	1679.33
814.77	1724.39
814.94	1712.10
815.12	1710.05
815.29	1791.97
815.46	1712.10
815.63	1728.49
815.81	1669.09
815.98	1699.81
816.15	1714.15
816.33	1695.72
816.50	1615.85
816.67	1687.53
816.84	1689.57
817.02	1621.99
817.19	1708.01
817.36	1697.77
817.53	1724.39
817.71	1660.90
817.88	1712.10
818.05	1767.40
818.22	1636.33
818.40	1783.78
818.57	1667.05
818.74	1724.39
818.91	1699.81
819.09	1773.54
819.26	1724.39
819.43	1685.48
819.60	1667.05
819.78	1763.30
819.95	1765.35
820.12	1675.24
820.29	1828.84
820.47	1800.16
820.64	1691.62
820.81	1656.81
820.98	1630.18
821.15	1695.72
821.33	1796.07
821.50	1626.09
821.67	1738.73
821.84	1693.67
822.02	1738.73
822.19	1757.16
822.36	1724.39
822.53	1626.09
822.70	1689.57
822.88	1714.15
823.05	1726.44
823.22	1722.34
823.39	1724.39
823.56	1630.18
823.74	1841.12
823.91	1652.71
824.08	1642.47
824.25	1681.38
824.42	1767.40
824.60	1662.95
824.77	1753.06
824.94	1658.85
825.11	1755.11
825.28	1656.81
825.45	1724.39
825.63	1751.01
825.80	1550.31
825.97	1785.83
826.14	1652.71
826.31	1650.66
826.48	1744.87
826.66	1673.19
826.83	1693.67
827.00	1648.61
827.17	1683.43
827.34	1699.81
827.51	1791.97
827.69	1740.77
827.86	1710.05
828.03	1726.44
828.20	1697.77
828.37	1726.44
828.54	1714.15
828.71	1646.57
828.89	1787.88
829.06	1701.86
829.23	1767.40
829.40	1652.71
829.57	1650.66
829.74	1746.92
829.91	1667.05
830.09	1617.90
830.26	1722.34
830.43	1837.03
830.60	1675.24
830.77	1757.16
830.94	1734.63
831.11	1761.25
831.28	1701.86
831.46	1703.91
831.63	1744.87
831.80	1734.63
831.97	1697.77
832.14	1730.53
832.31	1710.05
832.48	1718.25
832.65	1755.11
832.82	1708.01
832.99	1681.38
833.17	1630.18
833.34	1777.64
833.51	1671.14
833.68	1615.85
833.85	1693.67
834.02	1611.75
834.19	1708.01
834.36	1673.19
834.53	1669.09
834.70	1773.54
834.87	1783.78
835.04	1730.53
835.22	1751.01
835.39	1634.28
835.56	1597.42
835.73	1677.29
835.90	1757.16
836.07	1642.47
836.24	1736.68
836.41	1660.90
836.58	1660.90
836.75	1763.30
836.92	1662.95
837.09	1722.34
837.26	1665.00
837.43	1689.57
837.60	1773.54
837.77	1640.42
837.94	1732.58
838.12	1818.60
838.29	1636.33
838.46	1599.46
838.63	1650.66
838.80	1699.81
838.97	1748.97
839.14	1726.44
839.31	1701.86
839.48	1708.01
839.65	1667.05
839.82	1742.82
839.99	1757.16
840.16	1681.38
840.33	1648.61
840.50	1751.01
840.67	1667.05
840.84	1626.09
841.01	1652.71
841.18	1640.42
841.35	1746.92
841.52	1734.63
841.69	1894.37
841.86	1740.77
842.03	1660.90
842.20	1763.30
842.37	1746.92
842.54	1658.85
842.71	1681.38
842.88	1613.80
843.05	1652.71
843.22	1701.86
843.39	1665.00
843.56	1697.77
843.73	1718.25
843.90	1720.29
844.07	1685.48
844.24	1712.10
844.41	1785.83
844.58	1736.68
844.75	1646.57
844.92	1710.05
845.09	1636.33
845.26	1683.43
845.43	1759.21
845.60	1732.58
845.77	1679.33
845.94	1599.46
846.10	1767.40
846.27	1634.28
846.44	1634.28
846.61	1636.33
846.78	1638.38
846.95	1708.01
847.12	1705.96
847.29	1658.85
847.46	1660.90
847.63	1791.97
847.80	1628.14
847.97	1650.66
848.14	1857.51
848.31	1761.25
848.48	1654.76
848.65	1806.31
848.82	1671.14
848.98	1781.73
849.15	1718.25
849.32	1746.92
849.49	1712.10
849.66	1689.57
849.83	1683.43
850.00	1644.52
850.17	1839.08
850.34	1685.48
850.51	1662.95
850.68	1671.14
850.85	1900.52
851.01	1753.06
851.18	1720.29
851.35	1775.59
851.52	1791.97
851.69	1746.92
851.86	1675.24
852.03	1728.49
852.20	1804.26
852.37	1710.05
852.53	1595.37
852.70	1638.38
852.87	1689.57
853.04	1730.53
853.21	1644.52
853.38	1679.33
853.55	1877.99
853.72	1716.20
853.89	1658.85
854.05	1619.94
854.22	1630.18
854.39	1708.01
854.56	1744.87
854.73	1738.73
854.90	1611.75
855.07	1689.57
855.23	1675.24
855.40	1644.52
855.57	1632.23
855.74	1613.80
855.91	1892.32
856.08	1665.00
856.25	1665.00
856.41	1720.29
856.58	1636.33
856.75	1769.44
856.92	1581.03
857.09	1726.44
857.26	1595.37
857.42	1708.01
857.59	1718.25
857.76	1671.14
857.93	1730.53
858.10	1628.14
858.27	1605.61
858.43	1693.67
858.60	1746.92
858.77	1626.09
858.94	1658.85
859.11	1722.34
859.27	1642.47
859.44	1742.82
859.61	1798.12
859.78	1779.68
859.95	1679.33
860.12	1681.38
860.28	1841.12
860.45	1789.92
860.62	1699.81
860.79	1687.53
860.95	1701.86
861.12	1708.01
861.29	1665.00
861.46	1638.38
861.63	1662.95
861.79	1746.92
861.96	1691.62
862.13	1654.76
862.30	1794.02
862.47	1619.94
862.63	1648.61
862.80	1816.55
862.97	1755.11
863.14	1705.96
863.30	1753.06
863.47	1673.19
863.64	1832.93
863.81	1742.82
863.97	1681.38
864.14	1724.39
864.31	1705.96
864.48	1722.34
864.65	1703.91
864.81	1730.53
864.98	1818.60
865.15	1767.40
865.32	1748.97
865.48	1748.97
865.65	1796.07
865.82	1650.66
865.98	1720.29
866.15	1785.83
866.32	1658.85
866.49	1671.14
866.65	1802.21
866.82	1691.62
866.99	1677.29
867.16	1697.77
867.32	1638.38
867.49	1726.44
867.66	1703.91
867.83	1611.75
867.99	1591.27
868.16	1693.67
868.33	1576.94
868.49	1765.35
868.66	1593.32
868.83	1761.25
868.99	1708.01
869.16	1798.12
869.33	1722.34
869.50	1816.55
869.66	1644.52
869.83	1697.77
870.00	1699.81
870.16	1722.34
870.33	1779.68
870.50	1732.58
870.66	1728.49
870.83	1755.11
871.00	1728.49
871.17	1748.97
871.33	1687.53
871.50	1718.25
871.67	1738.73
871.83	1609.70
872.00	1796.07
872.17	1673.19
872.33	1871.84
872.50	1695.72
872.67	1718.25
872.83	1703.91
873.00	1769.44
873.17	1712.10
873.33	1757.16
873.50	1730.53
873.67	1767.40
873.83	1732.58
874.00	1656.81
874.16	1691.62
874.33	1685.48
874.50	1667.05
874.66	1701.86
874.83	1681.38
875.00	1791.97
875.16	1767.40
875.33	1753.06
875.50	1513.45
875.66	1636.33
875.83	1677.29
875.99	1738.73
876.16	1640.42
876.33	1624.04
876.49	1660.90
876.66	1724.39
876.83	1720.29
876.99	1667.05
877.16	1689.57
877.32	1669.09
877.49	1665.00
877.66	1720.29
877.82	1816.55
877.99	1675.24
878.15	1761.25
878.32	1675.24
878.49	1665.00
878.65	1683.43
878.82	1724.39
878.98	1656.81
879.15	1738.73
879.32	1748.97
879.48	1744.87
879.65	1679.33
879.81	1746.92
879.98	1734.63
880.15	1724.39
880.31	1730.53
880.48	1681.38
880.64	1785.83
880.81	1736.68
880.97	1796.07
881.14	1783.78
881.31	1652.71
881.47	1828.84
881.64	1693.67
881.80	1630.18
881.97	1740.77
882.13	1708.01
882.30	1642.47
882.47	1693.67
882.63	1619.94
882.80	1718.25
882.96	1689.57
883.13	1800.16
883.29	1755.11
883.46	1681.38
883.62	1769.44
883.79	1654.76
883.95	1687.53
884.12	1677.29
884.29	1708.01
884.45	1744.87
884.62	1796.07
884.78	1642.47
884.95	1818.60
885.11	1658.85
885.28	1798.12
885.44	1650.66
885.61	1763.30
885.77	1820.64
885.94	1781.73
886.10	1677.29
886.27	1740.77
886.43	1748.97
886.60	1794.02
886.76	1658.85
886.93	1626.09
887.09	1789.92
887.26	1626.09
887.42	1699.81
887.59	1787.88
887.75	1839.08
887.92	1714.15
888.08	1804.26
888.25	1845.22
888.41	1759.21
888.58	1722.34
888.74	1609.70
888.91	1697.77
>>>>>End Processed Spectral Data<<<<<
