SpectraSuite Data File
++++++++++++++++++++++++++++++++++++
Date: Wed May 04 18:44:46 CEST 2016
User: root
Dark Spectrum Present: No
Reference Spectrum Present: No
Number of Sampled Component Spectra: 1
Spectrometers: USB4C02835
Integration Time (usec): 100000 (USB4C02835)
Spectra Averaged: 1 (USB4C02835)
Boxcar Smoothing: 0 (USB4C02835)
Correct for Electrical Dark: No (USB4C02835)
Strobe/Lamp Enabled: No (USB4C02835)
Correct for Detector Non-linearity: No (USB4C02835)
Correct for Stray Light: No (USB4C02835)
Number of Pixels in Processed Spectrum: 3648
>>>>>Begin Processed Spectral Data<<<<<
177.47	1495.02
177.69	1495.02
177.91	1495.02
178.13	1445.87
178.36	1492.97
178.58	1675.24
178.80	1708.01
179.02	1714.15
179.24	1685.48
179.46	1681.38
179.68	1785.83
179.90	1757.16
180.13	1683.43
180.35	1636.33
180.57	1640.42
180.79	1734.63
181.01	1742.82
181.23	1787.88
181.45	1710.05
181.67	1681.38
181.90	1724.39
182.12	1652.71
182.34	1683.43
182.56	1693.67
182.78	1744.87
183.00	1718.25
183.22	1705.96
183.44	1585.13
183.66	1861.60
183.89	1730.53
184.11	1740.77
184.33	1671.14
184.55	1748.97
184.77	1660.90
184.99	1742.82
185.21	1673.19
185.43	1855.46
185.65	1673.19
185.87	1718.25
186.10	1791.97
186.32	1787.88
186.54	1714.15
186.76	1798.12
186.98	1705.96
187.20	1638.38
187.42	1671.14
187.64	1751.01
187.86	1708.01
188.08	1771.49
188.30	1677.29
188.52	1722.34
188.75	1855.46
188.97	1779.68
189.19	1732.58
189.41	1679.33
189.63	1755.11
189.85	1687.53
190.07	1712.10
190.29	1648.61
190.51	1791.97
190.73	1648.61
190.95	1710.05
191.17	1705.96
191.39	1609.70
191.61	1673.19
191.84	1632.23
192.06	1724.39
192.28	1656.81
192.50	1916.90
192.72	1695.72
192.94	1763.30
193.16	1697.77
193.38	1755.11
193.60	1716.20
193.82	1677.29
194.04	1771.49
194.26	1726.44
194.48	1652.71
194.70	1759.21
194.92	1646.57
195.14	1785.83
195.36	1748.97
195.58	1685.48
195.80	1726.44
196.02	1671.14
196.24	1658.85
196.46	1710.05
196.69	1689.57
196.91	1877.99
197.13	1669.09
197.35	1650.66
197.57	1789.92
197.79	1656.81
198.01	1710.05
198.23	1746.92
198.45	1759.21
198.67	1652.71
198.89	1722.34
199.11	1730.53
199.33	1699.81
199.55	1570.79
199.77	1687.53
199.99	1769.44
200.21	1662.95
200.43	1705.96
200.65	1574.89
200.87	1595.37
201.09	1638.38
201.31	1673.19
201.53	1695.72
201.75	1705.96
201.97	1697.77
202.19	1634.28
202.41	1742.82
202.63	1779.68
202.85	1716.20
203.07	1740.77
203.29	1691.62
203.51	1669.09
203.73	1665.00
203.95	1974.24
204.17	1701.86
204.39	1730.53
204.61	1728.49
204.83	1615.85
205.05	1744.87
205.27	1748.97
205.49	1800.16
205.71	1681.38
205.93	1648.61
206.15	1718.25
206.37	1740.77
206.59	1708.01
206.81	1683.43
207.03	1722.34
207.25	1646.57
207.47	1755.11
207.69	1673.19
207.91	1734.63
208.13	1808.36
208.34	1667.05
208.56	1710.05
208.78	1724.39
209.00	1751.01
209.22	1718.25
209.44	1652.71
209.66	1708.01
209.88	1665.00
210.10	1628.14
210.32	1667.05
210.54	1791.97
210.76	1697.77
210.98	1699.81
211.20	1591.27
211.42	1695.72
211.64	1748.97
211.86	1746.92
212.08	1806.31
212.30	1687.53
212.52	1757.16
212.74	1767.40
212.96	1740.77
213.17	1777.64
213.39	1746.92
213.61	1824.74
213.83	1802.21
214.05	1656.81
214.27	1736.68
214.49	1599.46
214.71	1615.85
214.93	1771.49
215.15	1687.53
215.37	1732.58
215.59	1626.09
215.81	1751.01
216.03	1798.12
216.24	1748.97
216.46	1714.15
216.68	1658.85
216.90	1755.11
217.12	1742.82
217.34	1691.62
217.56	1787.88
217.78	1783.78
218.00	1728.49
218.22	1665.00
218.44	1761.25
218.66	1619.94
218.87	1746.92
219.09	1695.72
219.31	1710.05
219.53	1712.10
219.75	1738.73
219.97	1654.76
220.19	1755.11
220.41	1751.01
220.63	1738.73
220.85	1783.78
221.06	1687.53
221.28	1769.44
221.50	1783.78
221.72	1691.62
221.94	1767.40
222.16	1681.38
222.38	1761.25
222.60	1773.54
222.82	1634.28
223.03	1732.58
223.25	1611.75
223.47	1722.34
223.69	1931.23
223.91	1708.01
224.13	1667.05
224.35	1722.34
224.57	1734.63
224.78	1662.95
225.00	1617.90
225.22	1710.05
225.44	1673.19
225.66	1742.82
225.88	1665.00
226.10	1822.69
226.32	1687.53
226.53	1761.25
226.75	1734.63
226.97	1728.49
227.19	1744.87
227.41	1656.81
227.63	1667.05
227.85	1726.44
228.06	1722.34
228.28	1681.38
228.50	1751.01
228.72	1617.90
228.94	1644.52
229.16	1607.66
229.37	1626.09
229.59	1673.19
229.81	1781.73
230.03	1716.20
230.25	1681.38
230.47	1679.33
230.69	1654.76
230.90	1746.92
231.12	1716.20
231.34	1773.54
231.56	1824.74
231.78	1654.76
232.00	1771.49
232.21	1675.24
232.43	1734.63
232.65	1597.42
232.87	1605.61
233.09	1646.57
233.30	1695.72
233.52	1798.12
233.74	1705.96
233.96	1730.53
234.18	1759.21
234.40	1681.38
234.61	1761.25
234.83	1660.90
235.05	1617.90
235.27	1816.55
235.49	1787.88
235.70	1759.21
235.92	1755.11
236.14	1732.58
236.36	1902.56
236.58	1697.77
236.79	1701.86
237.01	1695.72
237.23	1699.81
237.45	1773.54
237.67	1697.77
237.88	1812.45
238.10	1820.64
238.32	1689.57
238.54	1665.00
238.76	1615.85
238.97	1683.43
239.19	1675.24
239.41	1794.02
239.63	1804.26
239.85	1667.05
240.06	1683.43
240.28	1619.94
240.50	1734.63
240.72	1689.57
240.93	1705.96
241.15	1783.78
241.37	1662.95
241.59	1871.84
241.81	1763.30
242.02	1681.38
242.24	1724.39
242.46	1746.92
242.68	1669.09
242.89	1812.45
243.11	1742.82
243.33	1720.29
243.55	1697.77
243.76	1714.15
243.98	1740.77
244.20	1697.77
244.42	1689.57
244.64	1628.14
244.85	1642.47
245.07	1679.33
245.29	1740.77
245.51	1632.23
245.72	1642.47
245.94	1812.45
246.16	1722.34
246.38	1746.92
246.59	1716.20
246.81	1705.96
247.03	1726.44
247.24	1630.18
247.46	1650.66
247.68	1652.71
247.90	1660.90
248.11	1685.48
248.33	1732.58
248.55	1751.01
248.77	1679.33
248.98	1738.73
249.20	1794.02
249.42	1693.67
249.64	1753.06
249.85	1738.73
250.07	1701.86
250.29	1738.73
250.50	1775.59
250.72	1626.09
250.94	1703.91
251.16	1877.99
251.37	1695.72
251.59	1767.40
251.81	1728.49
252.02	1687.53
252.24	1589.22
252.46	1775.59
252.68	1726.44
252.89	1646.57
253.11	1677.29
253.33	1730.53
253.54	1746.92
253.76	1556.46
253.98	1585.13
254.20	1689.57
254.41	1665.00
254.63	1693.67
254.85	1617.90
255.06	1738.73
255.28	1738.73
255.50	1740.77
255.71	1695.72
255.93	1660.90
256.15	1701.86
256.36	1740.77
256.58	1650.66
256.80	1714.15
257.02	1679.33
257.23	1662.95
257.45	1646.57
257.67	1755.11
257.88	1665.00
258.10	1744.87
258.32	1644.52
258.53	1699.81
258.75	1767.40
258.97	1722.34
259.18	1742.82
259.40	1665.00
259.62	1781.73
259.83	1828.84
260.05	1689.57
260.27	1935.33
260.48	1808.36
260.70	1632.23
260.92	1677.29
261.13	1693.67
261.35	1726.44
261.57	1746.92
261.78	1617.90
262.00	1642.47
262.22	1771.49
262.43	1632.23
262.65	1673.19
262.86	1683.43
263.08	1740.77
263.30	1658.85
263.51	1609.70
263.73	1738.73
263.95	1828.84
264.16	1654.76
264.38	1607.66
264.60	1730.53
264.81	1738.73
265.03	1777.64
265.25	1708.01
265.46	1781.73
265.68	1787.88
265.89	1722.34
266.11	1660.90
266.33	1718.25
266.54	1789.92
266.76	1796.07
266.98	1775.59
267.19	1751.01
267.41	1802.21
267.62	1665.00
267.84	1609.70
268.06	1773.54
268.27	1742.82
268.49	1787.88
268.70	1730.53
268.92	1660.90
269.14	1591.27
269.35	1665.00
269.57	1736.68
269.79	1763.30
270.00	1697.77
270.22	1800.16
270.43	1603.56
270.65	1599.46
270.87	1691.62
271.08	1791.97
271.30	1828.84
271.51	1667.05
271.73	1736.68
271.95	1775.59
272.16	1816.55
272.38	1714.15
272.59	1712.10
272.81	1714.15
273.02	1730.53
273.24	1800.16
273.46	1753.06
273.67	1697.77
273.89	1650.66
274.10	1685.48
274.32	1820.64
274.54	1609.70
274.75	1773.54
274.97	1675.24
275.18	1693.67
275.40	1779.68
275.61	1710.05
275.83	1681.38
276.05	1718.25
276.26	1687.53
276.48	1755.11
276.69	1669.09
276.91	1642.47
277.12	1808.36
277.34	1761.25
277.55	1871.84
277.77	1644.52
277.99	1689.57
278.20	1638.38
278.42	1593.32
278.63	1656.81
278.85	1615.85
279.06	1689.57
279.28	1771.49
279.49	1779.68
279.71	1736.68
279.93	1775.59
280.14	1763.30
280.36	1665.00
280.57	1691.62
280.79	1738.73
281.00	1683.43
281.22	1695.72
281.43	1708.01
281.65	1605.61
281.86	1665.00
282.08	1740.77
282.29	1830.88
282.51	1648.61
282.73	1630.18
282.94	1632.23
283.16	1789.92
283.37	1904.61
283.59	1712.10
283.80	1763.30
284.02	1757.16
284.23	1796.07
284.45	1716.20
284.66	1722.34
284.88	1632.23
285.09	1732.58
285.31	1740.77
285.52	1771.49
285.74	1630.18
285.95	1763.30
286.17	1726.44
286.38	1710.05
286.60	1679.33
286.81	1677.29
287.03	1695.72
287.24	1636.33
287.46	1722.34
287.67	1748.97
287.89	1837.03
288.10	1681.38
288.32	1665.00
288.53	1787.88
288.75	1673.19
288.96	1722.34
289.18	1652.71
289.39	1712.10
289.61	1611.75
289.82	1843.17
290.04	1832.93
290.25	1640.42
290.47	1683.43
290.68	1701.86
290.90	1763.30
291.11	1609.70
291.33	1814.50
291.54	1691.62
291.76	1652.71
291.97	1701.86
292.18	1705.96
292.40	1656.81
292.61	1714.15
292.83	1798.12
293.04	1751.01
293.26	1662.95
293.47	1648.61
293.69	1652.71
293.90	1630.18
294.12	1789.92
294.33	1675.24
294.55	1728.49
294.76	1812.45
294.97	1849.32
295.19	1837.03
295.40	1730.53
295.62	1732.58
295.83	1703.91
296.05	1720.29
296.26	1767.40
296.48	1681.38
296.69	1708.01
296.90	1720.29
297.12	1742.82
297.33	1746.92
297.55	1718.25
297.76	1679.33
297.98	1794.02
298.19	1689.57
298.41	1742.82
298.62	1777.64
298.83	1753.06
299.05	1765.35
299.26	1656.81
299.48	1656.81
299.69	1683.43
299.90	1716.20
300.12	1583.08
300.33	1644.52
300.55	1667.05
300.76	1757.16
300.98	1619.94
301.19	1777.64
301.40	1732.58
301.62	1718.25
301.83	1726.44
302.05	1708.01
302.26	1791.97
302.47	1751.01
302.69	1636.33
302.90	1757.16
303.12	1613.80
303.33	1738.73
303.54	1845.22
303.76	1681.38
303.97	1703.91
304.19	1867.75
304.40	1724.39
304.61	1714.15
304.83	1851.36
305.04	1683.43
305.26	1812.45
305.47	1583.08
305.68	1738.73
305.90	1568.74
306.11	1738.73
306.33	1693.67
306.54	1675.24
306.75	1667.05
306.97	1640.42
307.18	1667.05
307.39	1617.90
307.61	1716.20
307.82	1642.47
308.04	1708.01
308.25	1636.33
308.46	1724.39
308.68	1683.43
308.89	1701.86
309.10	1701.86
309.32	1718.25
309.53	1736.68
309.74	1759.21
309.96	1726.44
310.17	1726.44
310.39	1691.62
310.60	1681.38
310.81	1712.10
311.03	1677.29
311.24	1830.88
311.45	1714.15
311.67	1877.99
311.88	1738.73
312.09	1691.62
312.31	1705.96
312.52	1689.57
312.73	1804.26
312.95	1628.14
313.16	1716.20
313.37	1791.97
313.59	1761.25
313.80	1769.44
314.01	1785.83
314.23	1638.38
314.44	1652.71
314.65	1677.29
314.87	1621.99
315.08	1726.44
315.29	1712.10
315.51	1630.18
315.72	1673.19
315.93	1751.01
316.15	1814.50
316.36	1624.04
316.57	1703.91
316.79	1695.72
317.00	1691.62
317.21	1744.87
317.43	1677.29
317.64	1708.01
317.85	1732.58
318.07	1662.95
318.28	1783.78
318.49	1869.80
318.70	1933.28
318.92	1929.19
319.13	1798.12
319.34	1814.50
319.56	1812.45
319.77	1775.59
319.98	1832.93
320.20	1806.31
320.41	1802.21
320.62	1779.68
320.83	1652.71
321.05	1886.18
321.26	1697.77
321.47	1767.40
321.69	1839.08
321.90	1736.68
322.11	1683.43
322.32	1759.21
322.54	1740.77
322.75	1665.00
322.96	1787.88
323.18	1589.22
323.39	1544.17
323.60	1775.59
323.81	1691.62
324.03	1617.90
324.24	1757.16
324.45	1716.20
324.66	1714.15
324.88	1755.11
325.09	1751.01
325.30	1730.53
325.52	1734.63
325.73	1697.77
325.94	1638.38
326.15	1613.80
326.37	1714.15
326.58	1755.11
326.79	1851.36
327.00	1679.33
327.22	1673.19
327.43	1689.57
327.64	1685.48
327.85	1689.57
328.07	1763.30
328.28	1783.78
328.49	1689.57
328.70	1654.76
328.92	1677.29
329.13	1679.33
329.34	1705.96
329.55	1806.31
329.76	1767.40
329.98	1640.42
330.19	1796.07
330.40	1800.16
330.61	1763.30
330.83	1726.44
331.04	1687.53
331.25	1726.44
331.46	1736.68
331.68	1654.76
331.89	1787.88
332.10	1720.29
332.31	1601.51
332.52	1740.77
332.74	1746.92
332.95	1654.76
333.16	1722.34
333.37	1734.63
333.58	1613.80
333.80	1734.63
334.01	1589.22
334.22	1703.91
334.43	1689.57
334.64	1740.77
334.86	1671.14
335.07	1648.61
335.28	1775.59
335.49	1613.80
335.70	1753.06
335.92	1746.92
336.13	1816.55
336.34	1742.82
336.55	1665.00
336.76	1683.43
336.98	1538.02
337.19	1755.11
337.40	1740.77
337.61	1865.70
337.82	1738.73
338.04	1751.01
338.25	1619.94
338.46	1636.33
338.67	1646.57
338.88	1701.86
339.09	1619.94
339.31	1648.61
339.52	1677.29
339.73	1558.50
339.94	1716.20
340.15	1722.34
340.36	1665.00
340.58	1685.48
340.79	1710.05
341.00	1769.44
341.21	1679.33
341.42	1851.36
341.63	1685.48
341.85	1771.49
342.06	1665.00
342.27	1650.66
342.48	1777.64
342.69	1621.99
342.90	1796.07
343.12	1734.63
343.33	1720.29
343.54	1845.22
343.75	1796.07
343.96	1708.01
344.17	1683.43
344.38	1763.30
344.60	1689.57
344.81	1640.42
345.02	1744.87
345.23	1763.30
345.44	1843.17
345.65	1828.84
345.86	1642.47
346.07	1671.14
346.29	1699.81
346.50	1802.21
346.71	1746.92
346.92	1791.97
347.13	1918.95
347.34	1683.43
347.55	1681.38
347.76	1732.58
347.98	1626.09
348.19	1671.14
348.40	1771.49
348.61	1722.34
348.82	1679.33
349.03	1697.77
349.24	1687.53
349.45	1841.12
349.66	1675.24
349.88	1718.25
350.09	1734.63
350.30	1783.78
350.51	1777.64
350.72	1763.30
350.93	1681.38
351.14	1751.01
351.35	1755.11
351.56	1701.86
351.77	1738.73
351.99	1738.73
352.20	1796.07
352.41	1769.44
352.62	1568.74
352.83	1769.44
353.04	1689.57
353.25	1669.09
353.46	1708.01
353.67	1755.11
353.88	1513.45
354.09	1697.77
354.30	1757.16
354.52	1716.20
354.73	1746.92
354.94	1734.63
355.15	1730.53
355.36	1761.25
355.57	1720.29
355.78	1753.06
355.99	1650.66
356.20	1697.77
356.41	1789.92
356.62	1708.01
356.83	1681.38
357.04	1775.59
357.25	1703.91
357.46	1687.53
357.68	1634.28
357.89	1640.42
358.10	1683.43
358.31	1701.86
358.52	1669.09
358.73	1628.14
358.94	1630.18
359.15	1701.86
359.36	1765.35
359.57	1730.53
359.78	1712.10
359.99	1689.57
360.20	1699.81
360.41	1701.86
360.62	1732.58
360.83	1705.96
361.04	1685.48
361.25	1820.64
361.46	1845.22
361.67	1728.49
361.88	1753.06
362.09	1781.73
362.30	1697.77
362.51	1665.00
362.72	1667.05
362.93	1734.63
363.14	1755.11
363.35	1767.40
363.56	1656.81
363.78	1740.77
363.99	1781.73
364.20	1693.67
364.41	1753.06
364.62	1785.83
364.83	1691.62
365.04	1667.05
365.25	1615.85
365.46	1804.26
365.67	1697.77
365.88	1771.49
366.09	1744.87
366.30	1617.90
366.51	1685.48
366.72	1644.52
366.93	1720.29
367.14	1691.62
367.35	1748.97
367.56	1695.72
367.77	1816.55
367.98	1685.48
368.18	1710.05
368.39	1722.34
368.60	1648.61
368.81	1796.07
369.02	1722.34
369.23	1683.43
369.44	1607.66
369.65	1630.18
369.86	1779.68
370.07	1697.77
370.28	1677.29
370.49	1746.92
370.70	1738.73
370.91	1673.19
371.12	1640.42
371.33	1816.55
371.54	1675.24
371.75	1763.30
371.96	1595.37
372.17	1642.47
372.38	1681.38
372.59	1738.73
372.80	1697.77
373.01	1705.96
373.22	1738.73
373.43	1703.91
373.64	1658.85
373.85	1791.97
374.06	1767.40
374.26	1816.55
374.47	1632.23
374.68	1839.08
374.89	1757.16
375.10	1685.48
375.31	1765.35
375.52	1693.67
375.73	1730.53
375.94	1689.57
376.15	1761.25
376.36	1689.57
376.57	1667.05
376.78	1777.64
376.99	1691.62
377.20	1798.12
377.40	1734.63
377.61	1771.49
377.82	1603.56
378.03	1806.31
378.24	1679.33
378.45	1714.15
378.66	1681.38
378.87	1679.33
379.08	1689.57
379.29	1675.24
379.50	1804.26
379.71	1701.86
379.91	1673.19
380.12	1636.33
380.33	1726.44
380.54	1671.14
380.75	1775.59
380.96	1638.38
381.17	1718.25
381.38	1734.63
381.59	1820.64
381.80	1755.11
382.00	1853.41
382.21	1796.07
382.42	1841.12
382.63	1886.18
382.84	1812.45
383.05	1724.39
383.26	1839.08
383.47	1812.45
383.68	1816.55
383.88	1759.21
384.09	1755.11
384.30	1828.84
384.51	1681.38
384.72	1658.85
384.93	1648.61
385.14	1681.38
385.35	1843.17
385.55	1630.18
385.76	1834.98
385.97	1740.77
386.18	1675.24
386.39	1640.42
386.60	1781.73
386.81	1691.62
387.02	1712.10
387.22	1642.47
387.43	1826.79
387.64	1886.18
387.85	1898.47
388.06	2256.86
388.27	4847.54
388.48	9168.76
388.68	11636.56
388.89	13420.34
389.10	14149.42
389.31	11949.90
389.52	9641.84
389.73	8421.25
389.93	7899.02
390.14	7311.25
390.35	6627.23
390.56	5980.07
390.77	5121.97
390.98	3948.48
391.18	2926.55
391.39	2392.03
391.60	1986.53
391.81	1832.93
392.02	1751.01
392.23	1843.17
392.43	1755.11
392.64	1679.33
392.85	1843.17
393.06	1828.84
393.27	1695.72
393.47	1644.52
393.68	1669.09
393.89	1671.14
394.10	1775.59
394.31	1732.58
394.52	1697.77
394.72	1677.29
394.93	1755.11
395.14	1695.72
395.35	1818.60
395.56	1617.90
395.76	1705.96
395.97	1812.45
396.18	1892.32
396.39	1896.42
396.60	2105.31
396.80	1957.86
397.01	1834.98
397.22	1910.75
397.43	1884.13
397.64	1730.53
397.84	1806.31
398.05	1865.70
398.26	1794.02
398.47	1761.25
398.67	1761.25
398.88	1759.21
399.09	1787.88
399.30	1720.29
399.51	1748.97
399.71	1683.43
399.92	1722.34
400.13	1718.25
400.34	1746.92
400.54	1728.49
400.75	1806.31
400.96	1734.63
401.17	1886.18
401.37	1767.40
401.58	1669.09
401.79	1710.05
402.00	1855.46
402.21	2017.25
402.41	2023.39
402.62	2142.18
402.83	2136.03
403.04	2078.69
403.24	2084.83
403.45	1871.84
403.66	2009.06
403.87	1908.71
404.07	1935.33
404.28	2000.87
404.49	1941.47
404.70	1787.88
404.90	1789.92
405.11	1734.63
405.32	1763.30
405.52	1748.97
405.73	1640.42
405.94	1658.85
406.15	1722.34
406.35	1791.97
406.56	1816.55
406.77	1685.48
406.98	1701.86
407.18	1716.20
407.39	1785.83
407.60	1626.09
407.80	1732.58
408.01	1705.96
408.22	1736.68
408.43	1652.71
408.63	1746.92
408.84	1714.15
409.05	1755.11
409.25	1646.57
409.46	1665.00
409.67	1689.57
409.88	1667.05
410.08	1742.82
410.29	1679.33
410.50	1683.43
410.70	1751.01
410.91	1652.71
411.12	1732.58
411.32	1652.71
411.53	1677.29
411.74	1890.28
411.95	1830.88
412.15	1765.35
412.36	1755.11
412.57	1798.12
412.77	1834.98
412.98	1710.05
413.19	1703.91
413.39	1777.64
413.60	1742.82
413.81	1832.93
414.01	1705.96
414.22	1789.92
414.43	1791.97
414.63	1703.91
414.84	1816.55
415.05	1712.10
415.25	1599.46
415.46	1761.25
415.67	1720.29
415.87	1708.01
416.08	1736.68
416.29	1742.82
416.49	1722.34
416.70	1722.34
416.91	1697.77
417.11	1648.61
417.32	1742.82
417.53	1748.97
417.73	1734.63
417.94	1705.96
418.15	1683.43
418.35	1630.18
418.56	1798.12
418.77	1867.75
418.97	1748.97
419.18	1714.15
419.38	1605.61
419.59	1771.49
419.80	1814.50
420.00	1765.35
420.21	1726.44
420.42	1744.87
420.62	1763.30
420.83	1714.15
421.04	1636.33
421.24	1675.24
421.45	1689.57
421.65	1728.49
421.86	1665.00
422.07	1753.06
422.27	1763.30
422.48	1708.01
422.69	1628.14
422.89	1689.57
423.10	1728.49
423.30	1609.70
423.51	1787.88
423.72	1742.82
423.92	1742.82
424.13	1662.95
424.33	1693.67
424.54	1781.73
424.75	1718.25
424.95	1828.84
425.16	1800.16
425.36	1761.25
425.57	1781.73
425.78	1798.12
425.98	1693.67
426.19	1695.72
426.39	1658.85
426.60	1714.15
426.81	1761.25
427.01	1785.83
427.22	1613.80
427.42	1611.75
427.63	1681.38
427.83	1806.31
428.04	1822.69
428.25	1808.36
428.45	1863.65
428.66	1740.77
428.86	1687.53
429.07	1734.63
429.28	1738.73
429.48	1685.48
429.69	1624.04
429.89	1656.81
430.10	1640.42
430.30	1771.49
430.51	1714.15
430.71	1673.19
430.92	1681.38
431.13	1701.86
431.33	1755.11
431.54	1767.40
431.74	1779.68
431.95	1814.50
432.15	1652.71
432.36	1759.21
432.56	1708.01
432.77	1810.40
432.98	1830.88
433.18	1667.05
433.39	1769.44
433.59	1683.43
433.80	1822.69
434.00	1851.36
434.21	1677.29
434.41	1718.25
434.62	1812.45
434.82	1744.87
435.03	1597.42
435.23	1755.11
435.44	1619.94
435.64	1701.86
435.85	1779.68
436.06	1828.84
436.26	1824.74
436.47	1669.09
436.67	1679.33
436.88	1738.73
437.08	1800.16
437.29	1802.21
437.49	1728.49
437.70	1796.07
437.90	1736.68
438.11	1800.16
438.31	1834.98
438.52	1841.12
438.72	1918.95
438.93	1910.75
439.13	1861.60
439.34	1853.41
439.54	1740.77
439.75	1826.79
439.95	1794.02
440.16	1648.61
440.36	1755.11
440.57	1796.07
440.77	1816.55
440.98	1759.21
441.18	1828.84
441.39	1800.16
441.59	1669.09
441.80	1865.70
442.00	1746.92
442.21	1837.03
442.41	1624.04
442.62	1802.21
442.82	1683.43
443.02	1716.20
443.23	1751.01
443.43	1710.05
443.64	1839.08
443.84	1660.90
444.05	1830.88
444.25	1761.25
444.46	1695.72
444.66	1751.01
444.87	1837.03
445.07	1722.34
445.28	1720.29
445.48	1789.92
445.69	1820.64
445.89	1882.08
446.09	1761.25
446.30	2025.44
446.50	2566.10
446.71	4138.94
446.91	5181.36
447.12	5836.71
447.32	5914.53
447.53	5427.12
447.73	4370.37
447.93	3995.59
448.14	3659.72
448.34	3499.98
448.55	3178.45
448.75	3059.67
448.96	3028.95
449.16	2668.50
449.36	2459.61
449.57	2170.85
449.77	1898.47
449.98	1816.55
450.18	1773.54
450.39	1761.25
450.59	1796.07
450.79	1767.40
451.00	1708.01
451.20	1859.56
451.41	1726.44
451.61	1753.06
451.81	1720.29
452.02	1751.01
452.22	1667.05
452.43	1671.14
452.63	1640.42
452.84	1755.11
453.04	1740.77
453.24	1693.67
453.45	1822.69
453.65	1748.97
453.86	1787.88
454.06	1791.97
454.26	1783.78
454.47	1630.18
454.67	1810.40
454.87	1732.58
455.08	1757.16
455.28	1761.25
455.49	1751.01
455.69	1656.81
455.89	1937.38
456.10	1744.87
456.30	1701.86
456.51	1775.59
456.71	1806.31
456.91	1738.73
457.12	1775.59
457.32	1693.67
457.52	1656.81
457.73	1810.40
457.93	1763.30
458.14	1665.00
458.34	1644.52
458.54	1783.78
458.75	1683.43
458.95	1806.31
459.15	1826.79
459.36	1734.63
459.56	1830.88
459.76	1906.66
459.97	1701.86
460.17	1742.82
460.37	1746.92
460.58	1742.82
460.78	1755.11
460.99	1677.29
461.19	1677.29
461.39	1693.67
461.60	1671.14
461.80	1789.92
462.00	1701.86
462.21	1697.77
462.41	1667.05
462.61	1644.52
462.82	1578.98
463.02	1791.97
463.22	1683.43
463.43	1857.51
463.63	1796.07
463.83	1814.50
464.04	1751.01
464.24	1716.20
464.44	1660.90
464.64	1710.05
464.85	1730.53
465.05	1714.15
465.25	1804.26
465.46	1712.10
465.66	1777.64
465.86	1794.02
466.07	1705.96
466.27	1679.33
466.47	1656.81
466.68	1630.18
466.88	1806.31
467.08	1720.29
467.29	1773.54
467.49	1769.44
467.69	1755.11
467.89	1726.44
468.10	1734.63
468.30	1679.33
468.50	1820.64
468.71	1810.40
468.91	1748.97
469.11	1871.84
469.31	1722.34
469.52	1714.15
469.72	1853.41
469.92	1796.07
470.13	1738.73
470.33	1775.59
470.53	1847.27
470.73	2230.24
470.94	2500.57
471.14	2670.55
471.34	2967.51
471.54	2918.36
471.75	2609.11
471.95	2410.46
472.15	2269.15
472.36	2269.15
472.56	2226.14
472.76	2027.49
472.96	2090.98
473.17	2021.35
473.37	1992.67
473.57	1912.80
473.77	1834.98
473.98	1865.70
474.18	1681.38
474.38	1918.95
474.58	1796.07
474.79	1691.62
474.99	1701.86
475.19	1691.62
475.39	1665.00
475.60	1757.16
475.80	1771.49
476.00	1744.87
476.20	1587.18
476.41	1726.44
476.61	1759.21
476.81	1865.70
477.01	1611.75
477.21	1814.50
477.42	1804.26
477.62	1667.05
477.82	1730.53
478.02	1810.40
478.23	1771.49
478.43	1683.43
478.63	1697.77
478.83	1755.11
479.03	1658.85
479.24	1708.01
479.44	1839.08
479.64	1656.81
479.84	1605.61
480.04	1652.71
480.25	1759.21
480.45	1716.20
480.65	1767.40
480.85	1748.97
481.06	1683.43
481.26	1716.20
481.46	1767.40
481.66	1722.34
481.86	1699.81
482.06	1855.46
482.27	1791.97
482.47	1642.47
482.67	1693.67
482.87	1798.12
483.07	1812.45
483.28	1665.00
483.48	1669.09
483.68	1742.82
483.88	1687.53
484.08	1628.14
484.29	1667.05
484.49	1699.81
484.69	1714.15
484.89	1771.49
485.09	1791.97
485.29	1658.85
485.50	1808.36
485.70	1738.73
485.90	1744.87
486.10	1732.58
486.30	1689.57
486.50	1812.45
486.71	1759.21
486.91	1834.98
487.11	1773.54
487.31	1671.14
487.51	1806.31
487.71	1650.66
487.91	1703.91
488.12	1650.66
488.32	1619.94
488.52	1710.05
488.72	1681.38
488.92	1673.19
489.12	1800.16
489.32	1812.45
489.53	1847.27
489.73	1732.58
489.93	1828.84
490.13	1669.09
490.33	1601.51
490.53	1720.29
490.73	1765.35
490.94	1660.90
491.14	1742.82
491.34	1837.03
491.54	2117.60
491.74	2721.75
491.94	3129.30
492.14	3491.79
492.34	3567.56
492.54	3104.72
492.75	2803.67
492.95	2676.70
493.15	2453.47
493.35	2435.03
493.55	2308.06
493.75	2119.65
493.95	2222.05
494.15	2127.84
494.35	1880.04
494.56	1964.00
494.76	1859.56
494.96	1818.60
495.16	1712.10
495.36	1681.38
495.56	1665.00
495.76	1738.73
495.96	1769.44
496.16	1675.24
496.36	1839.08
496.56	1705.96
496.77	1779.68
496.97	1689.57
497.17	1783.78
497.37	1646.57
497.57	1751.01
497.77	1779.68
497.97	1677.29
498.17	1728.49
498.37	1681.38
498.57	1714.15
498.77	1755.11
498.97	1783.78
499.17	1791.97
499.38	1701.86
499.58	1748.97
499.78	1701.86
499.98	1763.30
500.18	1787.88
500.38	1683.43
500.58	1865.70
500.78	2432.99
500.98	4538.30
501.18	6705.05
501.38	8167.30
501.58	9086.84
501.78	8826.75
501.98	6786.97
502.18	5846.95
502.38	5087.15
502.58	4483.00
502.78	4126.66
502.98	4040.64
503.18	3823.56
503.38	3510.22
503.59	3100.62
503.79	2914.26
503.99	2557.91
504.19	2441.18
504.39	2420.70
504.59	2291.68
504.79	2271.20
504.99	2281.44
505.19	2002.91
505.39	1968.10
505.59	1996.77
505.79	1970.15
505.99	1906.66
506.19	1839.08
506.39	1935.33
506.59	1808.36
506.79	1798.12
506.99	1894.37
507.19	1765.35
507.39	1808.36
507.59	1650.66
507.79	1712.10
507.99	1656.81
508.19	1732.58
508.39	1701.86
508.59	1791.97
508.79	1804.26
508.99	1822.69
509.19	1705.96
509.39	1789.92
509.59	1724.39
509.79	1697.77
509.99	1751.01
510.19	1775.59
510.39	1812.45
510.59	1673.19
510.79	1822.69
510.99	1679.33
511.19	1781.73
511.39	1806.31
511.59	1804.26
511.79	1800.16
511.99	1724.39
512.19	1791.97
512.38	1724.39
512.58	1744.87
512.78	1697.77
512.98	1789.92
513.18	1726.44
513.38	1669.09
513.58	1685.48
513.78	1669.09
513.98	1736.68
514.18	1787.88
514.38	1660.90
514.58	1736.68
514.78	1677.29
514.98	1722.34
515.18	1779.68
515.38	1675.24
515.58	1877.99
515.78	1726.44
515.98	1738.73
516.18	1761.25
516.38	1785.83
516.57	1708.01
516.77	1712.10
516.97	1800.16
517.17	1673.19
517.37	1630.18
517.57	1816.55
517.77	1720.29
517.97	1728.49
518.17	1757.16
518.37	1751.01
518.57	1732.58
518.77	1724.39
518.97	1751.01
519.16	1777.64
519.36	1757.16
519.56	1716.20
519.76	1759.21
519.96	1685.48
520.16	1773.54
520.36	1632.23
520.56	1800.16
520.76	1757.16
520.96	1699.81
521.16	1816.55
521.35	1826.79
521.55	1812.45
521.75	1658.85
521.95	1748.97
522.15	1746.92
522.35	1650.66
522.55	1687.53
522.75	1783.78
522.95	1714.15
523.14	1677.29
523.34	1742.82
523.54	1720.29
523.74	1718.25
523.94	1738.73
524.14	1656.81
524.34	1691.62
524.54	1800.16
524.73	1757.16
524.93	1775.59
525.13	1732.58
525.33	1693.67
525.53	1834.98
525.73	1791.97
525.93	1763.30
526.13	1724.39
526.32	1652.71
526.52	1753.06
526.72	1830.88
526.92	1787.88
527.12	1714.15
527.32	1658.85
527.52	1828.84
527.71	1861.60
527.91	1732.58
528.11	1695.72
528.31	1734.63
528.51	1581.03
528.71	1769.44
528.90	1705.96
529.10	1777.64
529.30	1802.21
529.50	1636.33
529.70	1820.64
529.90	1685.48
530.09	1843.17
530.29	1687.53
530.49	1771.49
530.69	1959.91
530.89	1724.39
531.09	1773.54
531.28	1615.85
531.48	1812.45
531.68	1701.86
531.88	1843.17
532.08	1742.82
532.28	1630.18
532.47	1777.64
532.67	1751.01
532.87	1796.07
533.07	1738.73
533.27	1839.08
533.46	1794.02
533.66	1761.25
533.86	1736.68
534.06	1779.68
534.26	1751.01
534.45	1746.92
534.65	1857.51
534.85	1740.77
535.05	1705.96
535.25	1769.44
535.44	1697.77
535.64	1818.60
535.84	1718.25
536.04	1722.34
536.24	1746.92
536.43	1695.72
536.63	1769.44
536.83	1775.59
537.03	1773.54
537.22	1628.14
537.42	1675.24
537.62	1767.40
537.82	1693.67
538.02	1847.27
538.21	1871.84
538.41	1855.46
538.61	1705.96
538.81	1759.21
539.00	1855.46
539.20	1646.57
539.40	1681.38
539.60	1730.53
539.79	1767.40
539.99	1710.05
540.19	1675.24
540.39	1718.25
540.58	1726.44
540.78	1832.93
540.98	1710.05
541.18	1779.68
541.37	1777.64
541.57	1730.53
541.77	1740.77
541.97	1605.61
542.16	1681.38
542.36	1681.38
542.56	1697.77
542.76	1857.51
542.95	1738.73
543.15	1763.30
543.35	1794.02
543.54	1763.30
543.74	1683.43
543.94	1746.92
544.14	1687.53
544.33	1746.92
544.53	1755.11
544.73	1787.88
544.93	1724.39
545.12	1759.21
545.32	1730.53
545.52	1705.96
545.71	1724.39
545.91	1710.05
546.11	1761.25
546.30	1685.48
546.50	1710.05
546.70	1787.88
546.90	1757.16
547.09	1665.00
547.29	1705.96
547.49	1796.07
547.68	1693.67
547.88	1646.57
548.08	1765.35
548.27	2082.78
548.47	1697.77
548.67	1697.77
548.87	1816.55
549.06	1689.57
549.26	1677.29
549.46	1767.40
549.65	1732.58
549.85	1730.53
550.05	1763.30
550.24	1642.47
550.44	1748.97
550.64	1722.34
550.83	1785.83
551.03	1712.10
551.23	1798.12
551.42	1748.97
551.62	1734.63
551.82	1744.87
552.01	1785.83
552.21	1882.08
552.41	1746.92
552.60	1767.40
552.80	1753.06
553.00	1642.47
553.19	1789.92
553.39	1689.57
553.59	1703.91
553.78	1767.40
553.98	1798.12
554.17	1736.68
554.37	1687.53
554.57	1767.40
554.76	1716.20
554.96	1785.83
555.16	1771.49
555.35	1714.15
555.55	1736.68
555.75	1771.49
555.94	1734.63
556.14	1626.09
556.33	1716.20
556.53	1748.97
556.73	1736.68
556.92	1736.68
557.12	1798.12
557.32	1884.13
557.51	1843.17
557.71	1667.05
557.90	1785.83
558.10	1787.88
558.30	1705.96
558.49	1744.87
558.69	1800.16
558.88	1818.60
559.08	1746.92
559.28	1734.63
559.47	1746.92
559.67	1710.05
559.86	1877.99
560.06	1767.40
560.26	1804.26
560.45	1824.74
560.65	1675.24
560.84	1824.74
561.04	1730.53
561.24	1732.58
561.43	1734.63
561.63	1845.22
561.82	1755.11
562.02	1834.98
562.22	1718.25
562.41	1687.53
562.61	1710.05
562.80	1753.06
563.00	1914.85
563.19	1705.96
563.39	1763.30
563.59	1746.92
563.78	1658.85
563.98	1644.52
564.17	1748.97
564.37	1681.38
564.56	1710.05
564.76	1652.71
564.96	1796.07
565.15	1781.73
565.35	1914.85
565.54	1755.11
565.74	1775.59
565.93	1732.58
566.13	1722.34
566.32	1804.26
566.52	1697.77
566.71	1732.58
566.91	1796.07
567.11	1703.91
567.30	1769.44
567.50	1775.59
567.69	1773.54
567.89	1714.15
568.08	1685.48
568.28	1789.92
568.47	1724.39
568.67	1767.40
568.86	1697.77
569.06	1816.55
569.25	1746.92
569.45	1636.33
569.64	1673.19
569.84	1619.94
570.04	1748.97
570.23	1675.24
570.43	1732.58
570.62	1722.34
570.82	1812.45
571.01	1615.85
571.21	1746.92
571.40	1708.01
571.60	1744.87
571.79	1822.69
571.99	1771.49
572.18	1681.38
572.38	1761.25
572.57	1693.67
572.77	1812.45
572.96	1783.78
573.16	1701.86
573.35	1787.88
573.55	1857.51
573.74	1738.73
573.94	1771.49
574.13	1767.40
574.33	1755.11
574.52	1794.02
574.71	1751.01
574.91	1800.16
575.10	1671.14
575.30	1710.05
575.49	1734.63
575.69	1687.53
575.88	1843.17
576.08	1804.26
576.27	1796.07
576.47	1771.49
576.66	1822.69
576.86	1834.98
577.05	1830.88
577.25	1755.11
577.44	1873.89
577.64	1814.50
577.83	1855.46
578.02	1693.67
578.22	1837.03
578.41	1877.99
578.61	1720.29
578.80	1665.00
579.00	1708.01
579.19	1763.30
579.39	1812.45
579.58	1839.08
579.77	1738.73
579.97	1877.99
580.16	1853.41
580.36	1869.80
580.55	1888.23
580.75	1791.97
580.94	1779.68
581.13	1814.50
581.33	1880.04
581.52	1785.83
581.72	1961.95
581.91	1906.66
582.11	1746.92
582.30	1839.08
582.49	1822.69
582.69	1841.12
582.88	1794.02
583.08	1794.02
583.27	1794.02
583.47	1816.55
583.66	1798.12
583.85	1732.58
584.05	1837.03
584.24	1740.77
584.44	1785.83
584.63	1832.93
584.82	1884.13
585.02	1959.91
585.21	1937.38
585.41	1910.75
585.60	1918.95
585.79	2058.21
585.99	1910.75
586.18	2007.01
586.37	2287.58
586.57	3321.81
586.76	9926.50
586.96	27180.64
587.15	42550.65
587.34	51793.13
587.54	58195.08
587.73	55729.33
587.93	40248.73
588.12	29808.19
588.31	23617.18
588.51	20664.00
588.70	18454.25
588.89	17184.51
589.09	15460.12
589.28	13606.70
589.47	11442.00
589.67	9592.69
589.86	7391.12
590.06	5511.08
590.25	4112.32
590.44	3297.23
590.64	2643.93
590.83	2258.91
591.02	2150.37
591.22	1996.77
591.41	1822.69
591.60	1882.08
591.80	1877.99
591.99	1759.21
592.18	1722.34
592.38	1853.41
592.57	1728.49
592.76	1796.07
592.96	1763.30
593.15	1820.64
593.34	1826.79
593.54	1720.29
593.73	1843.17
593.92	1845.22
594.12	1875.94
594.31	1751.01
594.50	1871.84
594.70	1898.47
594.89	1914.85
595.08	1769.44
595.28	1773.54
595.47	1966.05
595.66	1820.64
595.86	1738.73
596.05	1806.31
596.24	1769.44
596.43	1880.04
596.63	1824.74
596.82	1773.54
597.01	1771.49
597.21	1861.60
597.40	1873.89
597.59	1804.26
597.79	1816.55
597.98	1785.83
598.17	1734.63
598.36	1804.26
598.56	1730.53
598.75	1765.35
598.94	1699.81
599.14	1794.02
599.33	1726.44
599.52	1767.40
599.71	1734.63
599.91	1808.36
600.10	1824.74
600.29	1681.38
600.48	1738.73
600.68	1746.92
600.87	1697.77
601.06	1677.29
601.26	1738.73
601.45	1722.34
601.64	1781.73
601.83	1812.45
602.03	1740.77
602.22	1712.10
602.41	1748.97
602.60	1902.56
602.80	1759.21
602.99	1773.54
603.18	1703.91
603.37	1732.58
603.57	1849.32
603.76	1736.68
603.95	1785.83
604.14	1697.77
604.34	1726.44
604.53	1732.58
604.72	1685.48
604.91	1781.73
605.10	1757.16
605.30	1701.86
605.49	1914.85
605.68	1736.68
605.87	1755.11
606.07	1761.25
606.26	1710.05
606.45	1783.78
606.64	1787.88
606.84	1681.38
607.03	1802.21
607.22	1855.46
607.41	1810.40
607.60	1730.53
607.80	1855.46
607.99	1812.45
608.18	1710.05
608.37	1796.07
608.56	1716.20
608.76	1853.41
608.95	1859.56
609.14	1818.60
609.33	1839.08
609.52	1877.99
609.72	1896.42
609.91	1804.26
610.10	1853.41
610.29	1818.60
610.48	1787.88
610.68	1796.07
610.87	1755.11
611.06	1847.27
611.25	1705.96
611.44	1783.78
611.63	1763.30
611.83	1820.64
612.02	1781.73
612.21	1779.68
612.40	1652.71
612.59	1732.58
612.79	1734.63
612.98	1740.77
613.17	1832.93
613.36	1789.92
613.55	1890.28
613.74	1808.36
613.93	1888.23
614.13	1916.90
614.32	1923.04
614.51	1920.99
614.70	1830.88
614.89	1763.30
615.08	1824.74
615.28	2133.98
615.47	1673.19
615.66	1800.16
615.85	1705.96
616.04	1902.56
616.23	1730.53
616.42	1826.79
616.62	1746.92
616.81	1794.02
617.00	1738.73
617.19	1691.62
617.38	1714.15
617.57	1755.11
617.76	1763.30
617.95	1804.26
618.15	1761.25
618.34	1806.31
618.53	1693.67
618.72	1820.64
618.91	1873.89
619.10	1812.45
619.29	1669.09
619.48	1757.16
619.68	1683.43
619.87	1759.21
620.06	1687.53
620.25	1800.16
620.44	1748.97
620.63	1724.39
620.82	1742.82
621.01	1705.96
621.20	1757.16
621.39	1830.88
621.59	1806.31
621.78	1746.92
621.97	1726.44
622.16	1841.12
622.35	1720.29
622.54	1761.25
622.73	1820.64
622.92	1658.85
623.11	1746.92
623.30	1697.77
623.49	1722.34
623.68	1724.39
623.88	1824.74
624.07	1722.34
624.26	1701.86
624.45	1802.21
624.64	1685.48
624.83	1742.82
625.02	1669.09
625.21	1695.72
625.40	1728.49
625.59	1814.50
625.78	1714.15
625.97	1853.41
626.16	1814.50
626.35	1877.99
626.54	1738.73
626.74	1894.37
626.93	1779.68
627.12	1755.11
627.31	1822.69
627.50	1732.58
627.69	1748.97
627.88	1708.01
628.07	1705.96
628.26	1673.19
628.45	1656.81
628.64	1673.19
628.83	1736.68
629.02	1634.28
629.21	1791.97
629.40	1732.58
629.59	1763.30
629.78	1701.86
629.97	1740.77
630.16	1689.57
630.35	1701.86
630.54	1773.54
630.73	1738.73
630.92	1787.88
631.11	1695.72
631.30	1716.20
631.49	1753.06
631.68	1748.97
631.87	1785.83
632.06	1687.53
632.25	1828.84
632.44	1712.10
632.63	1853.41
632.82	1759.21
633.01	1757.16
633.20	1863.65
633.39	1716.20
633.58	1783.78
633.77	1796.07
633.96	1802.21
634.15	1812.45
634.34	1744.87
634.53	1751.01
634.72	1765.35
634.91	1658.85
635.10	1755.11
635.29	1746.92
635.48	1724.39
635.67	1746.92
635.86	1615.85
636.05	1851.36
636.24	1714.15
636.43	1681.38
636.62	1757.16
636.81	1619.94
637.00	1730.53
637.19	1726.44
637.38	1767.40
637.57	1705.96
637.76	1765.35
637.95	1853.41
638.14	1759.21
638.33	1812.45
638.52	1826.79
638.71	1708.01
638.89	1673.19
639.08	1892.32
639.27	1826.79
639.46	1861.60
639.65	2211.81
639.84	2289.63
640.03	2398.17
640.22	2398.17
640.41	2439.13
640.60	2041.82
640.79	2064.35
640.98	1916.90
641.17	1855.46
641.36	1964.00
641.55	1869.80
641.74	1777.64
641.92	1779.68
642.11	1812.45
642.30	1779.68
642.49	1691.62
642.68	1726.44
642.87	1775.59
643.06	1791.97
643.25	1705.96
643.44	1638.38
643.63	1640.42
643.82	1787.88
644.00	1671.14
644.19	1699.81
644.38	1660.90
644.57	1796.07
644.76	1791.97
644.95	1691.62
645.14	1714.15
645.33	1714.15
645.52	1691.62
645.71	1658.85
645.89	1671.14
646.08	1740.77
646.27	1691.62
646.46	1777.64
646.65	1572.84
646.84	1744.87
647.03	1703.91
647.22	1740.77
647.40	1718.25
647.59	1642.47
647.78	1628.14
647.97	1681.38
648.16	1730.53
648.35	1839.08
648.54	1800.16
648.73	1693.67
648.91	1820.64
649.10	1828.84
649.29	1705.96
649.48	1722.34
649.67	1714.15
649.86	1716.20
650.05	1802.21
650.23	1894.37
650.42	1728.49
650.61	1927.14
650.80	1982.43
650.99	2017.25
651.18	1812.45
651.36	1902.56
651.55	1765.35
651.74	1822.69
651.93	1708.01
652.12	1734.63
652.31	1767.40
652.49	1826.79
652.68	1689.57
652.87	1910.75
653.06	1853.41
653.25	1834.98
653.44	1742.82
653.62	1787.88
653.81	1689.57
654.00	1716.20
654.19	1798.12
654.38	1902.56
654.56	1716.20
654.75	1683.43
654.94	1718.25
655.13	1746.92
655.32	1677.29
655.51	1773.54
655.69	1679.33
655.88	1773.54
656.07	1675.24
656.26	1730.53
656.45	1732.58
656.63	1787.88
656.82	1791.97
657.01	1851.36
657.20	1724.39
657.38	1824.74
657.57	1677.29
657.76	1562.60
657.95	1789.92
658.14	1695.72
658.32	1740.77
658.51	1640.42
658.70	1724.39
658.89	1769.44
659.08	1712.10
659.26	1830.88
659.45	1722.34
659.64	1804.26
659.83	1755.11
660.01	1937.38
660.20	1757.16
660.39	1849.32
660.58	1671.14
660.76	1798.12
660.95	1611.75
661.14	1712.10
661.33	1617.90
661.51	1699.81
661.70	1746.92
661.89	1740.77
662.08	1746.92
662.26	1687.53
662.45	1673.19
662.64	1826.79
662.83	1720.29
663.01	1669.09
663.20	1703.91
663.39	1777.64
663.58	1665.00
663.76	1765.35
663.95	1751.01
664.14	1710.05
664.32	1677.29
664.51	1591.27
664.70	1689.57
664.89	1691.62
665.07	1601.51
665.26	1800.16
665.45	1621.99
665.64	1824.74
665.82	1722.34
666.01	1787.88
666.20	1710.05
666.38	1802.21
666.57	1806.31
666.76	2207.71
666.95	4642.75
667.13	11646.80
667.32	18489.06
667.51	22199.98
667.69	25347.71
667.88	25587.32
668.07	19662.55
668.25	14294.82
668.44	11751.24
668.63	9824.11
668.81	8587.13
669.00	7798.66
669.19	6901.65
669.38	6176.67
669.56	5408.69
669.75	4544.44
669.94	3776.45
670.12	3190.74
670.31	2736.09
670.50	2435.03
670.68	2082.78
670.87	1908.71
671.06	1880.04
671.24	1925.09
671.43	1894.37
671.62	1816.55
671.80	1839.08
671.99	1857.51
672.18	1718.25
672.36	1839.08
672.55	1728.49
672.74	1767.40
672.92	1714.15
673.11	1806.31
673.29	1675.24
673.48	1791.97
673.67	1751.01
673.85	1732.58
674.04	1585.13
674.23	1753.06
674.41	1783.78
674.60	1656.81
674.79	1644.52
674.97	1703.91
675.16	1759.21
675.34	1810.40
675.53	1654.76
675.72	1769.44
675.90	1794.02
676.09	1658.85
676.28	1757.16
676.46	1626.09
676.65	1703.91
676.83	1751.01
677.02	1763.30
677.21	1689.57
677.39	1662.95
677.58	1611.75
677.77	1574.89
677.95	1660.90
678.14	1703.91
678.32	1740.77
678.51	1699.81
678.70	1789.92
678.88	1660.90
679.07	1693.67
679.25	1699.81
679.44	1775.59
679.63	1628.14
679.81	1730.53
680.00	1789.92
680.18	1789.92
680.37	1804.26
680.55	1636.33
680.74	1642.47
680.93	1624.04
681.11	1755.11
681.30	1703.91
681.48	1800.16
681.67	1773.54
681.85	1738.73
682.04	1626.09
682.23	1726.44
682.41	1677.29
682.60	1746.92
682.78	1761.25
682.97	1632.23
683.15	1787.88
683.34	1681.38
683.53	1781.73
683.71	1611.75
683.90	1716.20
684.08	1810.40
684.27	1724.39
684.45	1724.39
684.64	1822.69
684.82	1773.54
685.01	1783.78
685.19	1724.39
685.38	1763.30
685.57	1693.67
685.75	1648.61
685.94	1693.67
686.12	1720.29
686.31	1648.61
686.49	1839.08
686.68	1619.94
686.86	1654.76
687.05	1605.61
687.23	1763.30
687.42	1693.67
687.60	1665.00
687.79	1708.01
687.97	1787.88
688.16	1822.69
688.34	1757.16
688.53	1613.80
688.71	1732.58
688.90	1771.49
689.08	1714.15
689.27	1640.42
689.45	1679.33
689.64	1806.31
689.82	1828.84
690.01	1728.49
690.19	1736.68
690.38	1705.96
690.56	1863.65
690.75	1703.91
690.93	1718.25
691.12	1714.15
691.30	1753.06
691.49	1736.68
691.67	1640.42
691.86	1779.68
692.04	1609.70
692.23	1771.49
692.41	1771.49
692.60	1929.19
692.78	1832.93
692.97	1791.97
693.15	1796.07
693.34	1886.18
693.52	1785.83
693.71	1699.81
693.89	1675.24
694.08	1669.09
694.26	1787.88
694.44	1820.64
694.63	1738.73
694.81	1648.61
695.00	1687.53
695.18	1789.92
695.37	1863.65
695.55	1691.62
695.74	1789.92
695.92	1669.09
696.10	1796.07
696.29	1673.19
696.47	1703.91
696.66	1677.29
696.84	1652.71
697.03	1669.09
697.21	1804.26
697.40	2269.15
697.58	1828.84
697.76	1681.38
697.95	1699.81
698.13	1621.99
698.32	1667.05
698.50	1742.82
698.68	1738.73
698.87	1697.77
699.05	1839.08
699.24	1681.38
699.42	1613.80
699.61	1773.54
699.79	1705.96
699.97	1771.49
700.16	1665.00
700.34	1662.95
700.53	1712.10
700.71	1804.26
700.89	1767.40
701.08	1720.29
701.26	1736.68
701.45	2140.13
701.63	1722.34
701.81	1742.82
702.00	1718.25
702.18	1783.78
702.37	1693.67
702.55	1851.36
702.73	1808.36
702.92	1908.71
703.10	1961.95
703.28	1923.04
703.47	1804.26
703.65	1986.53
703.84	1837.03
704.02	1779.68
704.20	1828.84
704.39	1761.25
704.57	1781.73
704.75	1882.08
704.94	1826.79
705.12	1806.31
705.30	1892.32
705.49	2519.00
705.67	5459.88
705.86	13346.61
706.04	19275.48
706.22	22869.67
706.41	25097.86
706.59	24569.48
706.77	19226.33
706.96	13793.07
707.14	12087.11
707.32	10291.04
707.51	9207.67
707.69	7880.58
707.87	6729.63
708.06	5552.04
708.24	4353.98
708.42	3393.48
708.61	2883.54
708.79	2228.19
708.97	2025.44
709.16	1931.23
709.34	1834.98
709.52	1822.69
709.71	1810.40
709.89	1746.92
710.07	1746.92
710.26	1679.33
710.44	1775.59
710.62	1802.21
710.80	1740.77
710.99	1773.54
711.17	1763.30
711.35	1689.57
711.54	1775.59
711.72	1781.73
711.90	1714.15
712.09	1748.97
712.27	1662.95
712.45	1687.53
712.63	1689.57
712.82	1808.36
713.00	1734.63
713.18	1789.92
713.37	1722.34
713.55	1744.87
713.73	1730.53
713.91	1798.12
714.10	1693.67
714.28	1624.04
714.46	1808.36
714.65	1742.82
714.83	1689.57
715.01	1671.14
715.19	1658.85
715.38	1640.42
715.56	1744.87
715.74	1748.97
715.92	1712.10
716.11	1802.21
716.29	1648.61
716.47	1677.29
716.65	1699.81
716.84	1630.18
717.02	1718.25
717.20	1611.75
717.38	1740.77
717.57	1683.43
717.75	1714.15
717.93	1679.33
718.11	1718.25
718.30	1628.14
718.48	1746.92
718.66	1689.57
718.84	1736.68
719.03	1746.92
719.21	1701.86
719.39	1859.56
719.57	1748.97
719.75	1837.03
719.94	1708.01
720.12	1714.15
720.30	1738.73
720.48	1808.36
720.67	1710.05
720.85	1701.86
721.03	1646.57
721.21	1689.57
721.39	1742.82
721.58	1705.96
721.76	1650.66
721.94	1759.21
722.12	1677.29
722.30	1824.74
722.49	1751.01
722.67	1695.72
722.85	1761.25
723.03	1716.20
723.21	1695.72
723.40	1691.62
723.58	1845.22
723.76	1738.73
723.94	1804.26
724.12	1773.54
724.30	1818.60
724.49	1820.64
724.67	1705.96
724.85	1855.46
725.03	1669.09
725.21	1685.48
725.40	1746.92
725.58	1691.62
725.76	1804.26
725.94	1798.12
726.12	1650.66
726.30	1771.49
726.49	1693.67
726.67	1716.20
726.85	1730.53
727.03	1800.16
727.21	2236.38
727.39	3393.48
727.57	4861.88
727.76	5693.35
727.94	6256.54
728.12	6274.98
728.30	5638.06
728.48	4575.16
728.66	3962.82
728.84	3620.81
729.03	3344.33
729.21	2750.42
729.39	2422.75
729.57	2127.84
729.75	2007.01
729.93	1892.32
730.11	1748.97
730.30	1724.39
730.48	1781.73
730.66	1843.17
730.84	1804.26
731.02	1718.25
731.20	1687.53
731.38	1722.34
731.56	1658.85
731.74	1677.29
731.93	1716.20
732.11	1699.81
732.29	1701.86
732.47	1740.77
732.65	1656.81
732.83	1783.78
733.01	1669.09
733.19	1673.19
733.37	1804.26
733.56	1753.06
733.74	1693.67
733.92	1748.97
734.10	1683.43
734.28	1759.21
734.46	1660.90
734.64	1671.14
734.82	1726.44
735.00	1677.29
735.18	1648.61
735.36	1675.24
735.54	1740.77
735.73	1724.39
735.91	1726.44
736.09	1748.97
736.27	1705.96
736.45	1763.30
736.63	1652.71
736.81	1685.48
736.99	1755.11
737.17	1781.73
737.35	1855.46
737.53	1763.30
737.71	1732.58
737.89	1812.45
738.07	1615.85
738.25	1634.28
738.43	1517.54
738.61	1746.92
738.80	1660.90
738.98	1615.85
739.16	1642.47
739.34	1619.94
739.52	1808.36
739.70	1693.67
739.88	1798.12
740.06	1794.02
740.24	1658.85
740.42	1849.32
740.60	1611.75
740.78	1687.53
740.96	1662.95
741.14	1673.19
741.32	1683.43
741.50	1619.94
741.68	1804.26
741.86	1781.73
742.04	1732.58
742.22	1671.14
742.40	1710.05
742.58	1851.36
742.76	1671.14
742.94	1720.29
743.12	1679.33
743.30	1753.06
743.48	1734.63
743.66	1718.25
743.84	1726.44
744.02	1669.09
744.20	1738.73
744.38	1675.24
744.56	1587.18
744.74	1681.38
744.92	1726.44
745.10	1777.64
745.28	1742.82
745.46	1822.69
745.64	1691.62
745.82	1705.96
746.00	1693.67
746.18	1730.53
746.36	1660.90
746.54	1679.33
746.72	1689.57
746.90	1652.71
747.08	1744.87
747.26	1763.30
747.44	1705.96
747.62	1755.11
747.80	1652.71
747.98	1765.35
748.15	1730.53
748.33	1851.36
748.51	1724.39
748.69	1800.16
748.87	1605.61
749.05	1689.57
749.23	1697.77
749.41	1796.07
749.59	1652.71
749.77	1769.44
749.95	1683.43
750.13	1640.42
750.31	1716.20
750.49	1644.52
750.67	1828.84
750.85	1822.69
751.03	1728.49
751.20	1771.49
751.38	1763.30
751.56	1726.44
751.74	1710.05
751.92	1701.86
752.10	1703.91
752.28	1771.49
752.46	1703.91
752.64	1683.43
752.82	1648.61
753.00	1767.40
753.18	1636.33
753.35	1718.25
753.53	1679.33
753.71	1605.61
753.89	1757.16
754.07	1656.81
754.25	1771.49
754.43	1660.90
754.61	1624.04
754.79	1673.19
754.97	1769.44
755.14	1765.35
755.32	1636.33
755.50	1718.25
755.68	1740.77
755.86	1617.90
756.04	1703.91
756.22	1574.89
756.40	1783.78
756.57	1851.36
756.75	1763.30
756.93	1716.20
757.11	1714.15
757.29	1681.38
757.47	1654.76
757.65	1667.05
757.82	1636.33
758.00	1681.38
758.18	1726.44
758.36	1648.61
758.54	1837.03
758.72	1650.66
758.90	1744.87
759.07	1748.97
759.25	1642.47
759.43	1660.90
759.61	1634.28
759.79	2199.52
759.97	1765.35
760.15	1671.14
760.32	1697.77
760.50	1710.05
760.68	1816.55
760.86	1640.42
761.04	1808.36
761.22	1824.74
761.39	1689.57
761.57	1748.97
761.75	1648.61
761.93	1732.58
762.11	1712.10
762.28	1689.57
762.46	1697.77
762.64	1757.16
762.82	1611.75
763.00	1724.39
763.18	1738.73
763.35	1615.85
763.53	1650.66
763.71	1693.67
763.89	1769.44
764.07	1677.29
764.24	1720.29
764.42	1740.77
764.60	1679.33
764.78	1761.25
764.96	1744.87
765.13	1804.26
765.31	1665.00
765.49	1753.06
765.67	1673.19
765.84	1681.38
766.02	1673.19
766.20	1665.00
766.38	1691.62
766.56	1738.73
766.73	1746.92
766.91	1689.57
767.09	1744.87
767.27	1791.97
767.44	1636.33
767.62	1724.39
767.80	1724.39
767.98	1736.68
768.15	1699.81
768.33	1847.27
768.51	1824.74
768.69	1755.11
768.87	1757.16
769.04	1689.57
769.22	1828.84
769.40	1761.25
769.58	1765.35
769.75	1738.73
769.93	1734.63
770.11	1658.85
770.28	1654.76
770.46	1691.62
770.64	1757.16
770.82	1654.76
770.99	1730.53
771.17	1779.68
771.35	1703.91
771.53	1665.00
771.70	1718.25
771.88	1742.82
772.06	1771.49
772.23	1687.53
772.41	1740.77
772.59	1689.57
772.77	1656.81
772.94	1734.63
773.12	1697.77
773.30	1656.81
773.47	1732.58
773.65	1730.53
773.83	1804.26
774.01	1716.20
774.18	1593.32
774.36	1675.24
774.54	1652.71
774.71	1751.01
774.89	1636.33
775.07	1673.19
775.24	1681.38
775.42	1667.05
775.60	1861.60
775.78	1667.05
775.95	1646.57
776.13	1583.08
776.31	1556.46
776.48	1710.05
776.66	1800.16
776.84	1646.57
777.01	1685.48
777.19	1638.38
777.37	1824.74
777.54	1712.10
777.72	1773.54
777.90	1726.44
778.07	1755.11
778.25	1843.17
778.43	1738.73
778.60	1650.66
778.78	1699.81
778.96	1779.68
779.13	1693.67
779.31	1751.01
779.49	1726.44
779.66	1669.09
779.84	1730.53
780.01	1691.62
780.19	1699.81
780.37	1777.64
780.54	1751.01
780.72	1689.57
780.90	1697.77
781.07	1689.57
781.25	1634.28
781.43	1722.34
781.60	1708.01
781.78	1789.92
781.95	1683.43
782.13	1740.77
782.31	1734.63
782.48	1570.79
782.66	1673.19
782.83	1734.63
783.01	1720.29
783.19	1781.73
783.36	1650.66
783.54	1587.18
783.72	1748.97
783.89	1689.57
784.07	1751.01
784.24	1712.10
784.42	1794.02
784.60	1757.16
784.77	1753.06
784.95	1638.38
785.12	1626.09
785.30	1732.58
785.47	1650.66
785.65	1777.64
785.83	1640.42
786.00	1695.72
786.18	1665.00
786.35	1652.71
786.53	1660.90
786.71	1720.29
786.88	1675.24
787.06	1703.91
787.23	1642.47
787.41	1683.43
787.58	1722.34
787.76	1681.38
787.94	1769.44
788.11	1732.58
788.29	1638.38
788.46	1576.94
788.64	1644.52
788.81	1757.16
788.99	1648.61
789.16	1583.08
789.34	1679.33
789.52	1691.62
789.69	1693.67
789.87	1628.14
790.04	1765.35
790.22	1712.10
790.39	1798.12
790.57	1591.27
790.74	1646.57
790.92	1705.96
791.09	1673.19
791.27	1771.49
791.44	1777.64
791.62	1712.10
791.79	1708.01
791.97	1794.02
792.15	1869.80
792.32	1746.92
792.50	1779.68
792.67	1791.97
792.85	1847.27
793.02	1695.72
793.20	1683.43
793.37	1660.90
793.55	1675.24
793.72	1597.42
793.90	1724.39
794.07	1734.63
794.25	1628.14
794.42	1714.15
794.60	1669.09
794.77	1691.62
794.95	1785.83
795.12	1796.07
795.30	1665.00
795.47	1619.94
795.65	1880.04
795.82	1660.90
796.00	1665.00
796.17	1710.05
796.34	1718.25
796.52	1746.92
796.69	1718.25
796.87	1693.67
797.04	1765.35
797.22	1673.19
797.39	1738.73
797.57	1818.60
797.74	1689.57
797.92	1732.58
798.09	1740.77
798.27	1710.05
798.44	1738.73
798.62	1712.10
798.79	1718.25
798.96	1671.14
799.14	1724.39
799.31	1857.51
799.49	1669.09
799.66	1689.57
799.84	1787.88
800.01	1591.27
800.19	1695.72
800.36	1708.01
800.53	1726.44
800.71	1732.58
800.88	1794.02
801.06	1673.19
801.23	1609.70
801.41	1712.10
801.58	1689.57
801.75	1646.57
801.93	1816.55
802.10	1728.49
802.28	1736.68
802.45	1665.00
802.63	1634.28
802.80	1710.05
802.97	1660.90
803.15	1665.00
803.32	1755.11
803.50	1626.09
803.67	1685.48
803.84	1603.56
804.02	1708.01
804.19	1720.29
804.37	1626.09
804.54	1652.71
804.71	1691.62
804.89	1695.72
805.06	1722.34
805.24	1720.29
805.41	1652.71
805.58	1753.06
805.76	1873.89
805.93	1753.06
806.10	1810.40
806.28	1718.25
806.45	1710.05
806.63	1679.33
806.80	1722.34
806.97	1789.92
807.15	1761.25
807.32	1656.81
807.49	1748.97
807.67	1591.27
807.84	1732.58
808.01	1513.45
808.19	1830.88
808.36	1861.60
808.54	1607.66
808.71	1652.71
808.88	1638.38
809.06	1759.21
809.23	1820.64
809.40	1611.75
809.58	1720.29
809.75	1710.05
809.92	1730.53
810.10	1949.67
810.27	1689.57
810.44	1675.24
810.62	1720.29
810.79	1736.68
810.96	1624.04
811.14	1640.42
811.31	1814.50
811.48	1665.00
811.66	1677.29
811.83	1759.21
812.00	1708.01
812.18	1708.01
812.35	1849.32
812.52	1679.33
812.69	1738.73
812.87	1708.01
813.04	1755.11
813.21	1640.42
813.39	1665.00
813.56	1624.04
813.73	1730.53
813.91	1609.70
814.08	1748.97
814.25	1662.95
814.42	1603.56
814.60	1615.85
814.77	1722.34
814.94	1677.29
815.12	1687.53
815.29	1744.87
815.46	1640.42
815.63	1716.20
815.81	1679.33
815.98	1673.19
816.15	1654.76
816.33	1662.95
816.50	1742.82
816.67	1652.71
816.84	1703.91
817.02	1677.29
817.19	1695.72
817.36	1812.45
817.53	1748.97
817.71	1642.47
817.88	1718.25
818.05	1648.61
818.22	1681.38
818.40	1847.27
818.57	1679.33
818.74	1705.96
818.91	1693.67
819.09	1712.10
819.26	1812.45
819.43	1697.77
819.60	1660.90
819.78	1687.53
819.95	1705.96
820.12	1742.82
820.29	1812.45
820.47	1787.88
820.64	1675.24
820.81	1693.67
820.98	1605.61
821.15	1720.29
821.33	1771.49
821.50	1611.75
821.67	1753.06
821.84	1632.23
822.02	1783.78
822.19	1771.49
822.36	1726.44
822.53	1677.29
822.70	1648.61
822.88	1679.33
823.05	1718.25
823.22	1705.96
823.39	1751.01
823.56	1693.67
823.74	1773.54
823.91	1710.05
824.08	1609.70
824.25	1677.29
824.42	1816.55
824.60	1591.27
824.77	1740.77
824.94	1691.62
825.11	1738.73
825.28	1636.33
825.45	1816.55
825.63	1714.15
825.80	1621.99
825.97	1689.57
826.14	1724.39
826.31	1589.22
826.48	1644.52
826.66	1662.95
826.83	1691.62
827.00	1691.62
827.17	1650.66
827.34	1665.00
827.51	1636.33
827.69	1671.14
827.86	1677.29
828.03	1695.72
828.20	1763.30
828.37	1671.14
828.54	1732.58
828.71	1708.01
828.89	1839.08
829.06	1697.77
829.23	1826.79
829.40	1673.19
829.57	1669.09
829.74	1724.39
829.91	1669.09
830.09	1681.38
830.26	1699.81
830.43	1767.40
830.60	1724.39
830.77	1773.54
830.94	1820.64
831.11	1716.20
831.28	1685.48
831.46	1740.77
831.63	1673.19
831.80	1755.11
831.97	1642.47
832.14	1660.90
832.31	1740.77
832.48	1693.67
832.65	1779.68
832.82	1718.25
832.99	1785.83
833.17	1689.57
833.34	1787.88
833.51	1732.58
833.68	1603.56
833.85	1769.44
834.02	1601.51
834.19	1652.71
834.36	1652.71
834.53	1652.71
834.70	1714.15
834.87	1857.51
835.04	1738.73
835.22	1658.85
835.39	1667.05
835.56	1660.90
835.73	1656.81
835.90	1798.12
836.07	1667.05
836.24	1734.63
836.41	1595.37
836.58	1677.29
836.75	1757.16
836.92	1724.39
837.09	1626.09
837.26	1722.34
837.43	1724.39
837.60	1734.63
837.77	1701.86
837.94	1773.54
838.12	1738.73
838.29	1751.01
838.46	1591.27
838.63	1642.47
838.80	1748.97
838.97	1716.20
839.14	1738.73
839.31	1708.01
839.48	1820.64
839.65	1673.19
839.82	1734.63
839.99	1712.10
840.16	1648.61
840.33	1716.20
840.50	1714.15
840.67	1685.48
840.84	1599.46
841.01	1730.53
841.18	1599.46
841.35	1722.34
841.52	1742.82
841.69	1849.32
841.86	1773.54
842.03	1652.71
842.20	1767.40
842.37	1683.43
842.54	1722.34
842.71	1642.47
842.88	1669.09
843.05	1746.92
843.22	1691.62
843.39	1751.01
843.56	1677.29
843.73	1671.14
843.90	1746.92
844.07	1804.26
844.24	1691.62
844.41	1671.14
844.58	1712.10
844.75	1693.67
844.92	1667.05
845.09	1699.81
845.26	1601.51
845.43	1726.44
845.60	1744.87
845.77	1777.64
845.94	1730.53
846.10	1761.25
846.27	1595.37
846.44	1660.90
846.61	1687.53
846.78	1748.97
846.95	1701.86
847.12	1689.57
847.29	1746.92
847.46	1718.25
847.63	1771.49
847.80	1701.86
847.97	1701.86
848.14	1820.64
848.31	1697.77
848.48	1609.70
848.65	1767.40
848.82	1585.13
848.98	1798.12
849.15	1804.26
849.32	1783.78
849.49	1798.12
849.66	1693.67
849.83	1787.88
850.00	1566.70
850.17	1781.73
850.34	1644.52
850.51	1648.61
850.68	1685.48
850.85	1808.36
851.01	1648.61
851.18	1744.87
851.35	1765.35
851.52	1716.20
851.69	1748.97
851.86	1587.18
852.03	1652.71
852.20	1697.77
852.37	1775.59
852.53	1624.04
852.70	1716.20
852.87	1699.81
853.04	1665.00
853.21	1710.05
853.38	1789.92
853.55	1732.58
853.72	1744.87
853.89	1591.27
854.05	1667.05
854.22	1675.24
854.39	1705.96
854.56	1705.96
854.73	1779.68
854.90	1693.67
855.07	1718.25
855.23	1683.43
855.40	1603.56
855.57	1689.57
855.74	1593.32
855.91	1892.32
856.08	1724.39
856.25	1646.57
856.41	1665.00
856.58	1634.28
856.75	1681.38
856.92	1611.75
857.09	1767.40
857.26	1714.15
857.42	1695.72
857.59	1785.83
857.76	1722.34
857.93	1736.68
858.10	1763.30
858.27	1697.77
858.43	1763.30
858.60	1691.62
858.77	1632.23
858.94	1656.81
859.11	1746.92
859.27	1701.86
859.44	1640.42
859.61	1859.56
859.78	1708.01
859.95	1675.24
860.12	1656.81
860.28	1757.16
860.45	1859.56
860.62	1736.68
860.79	1710.05
860.95	1656.81
861.12	1640.42
861.29	1669.09
861.46	1683.43
861.63	1718.25
861.79	1763.30
861.96	1621.99
862.13	1630.18
862.30	1808.36
862.47	1640.42
862.63	1724.39
862.80	1724.39
862.97	1798.12
863.14	1699.81
863.30	1642.47
863.47	1626.09
863.64	1714.15
863.81	1697.77
863.97	1699.81
864.14	1703.91
864.31	1665.00
864.48	1808.36
864.65	1783.78
864.81	1787.88
864.98	1753.06
865.15	1730.53
865.32	1804.26
865.48	1740.77
865.65	1742.82
865.82	1726.44
865.98	1734.63
866.15	1796.07
866.32	1644.52
866.49	1673.19
866.65	1746.92
866.82	1603.56
866.99	1703.91
867.16	1675.24
867.32	1716.20
867.49	1714.15
867.66	1699.81
867.83	1681.38
867.99	1572.84
868.16	1685.48
868.33	1669.09
868.49	1800.16
868.66	1744.87
868.83	1710.05
868.99	1714.15
869.16	1718.25
869.33	1814.50
869.50	1689.57
869.66	1679.33
869.83	1681.38
870.00	1644.52
870.16	1691.62
870.33	1695.72
870.50	1628.14
870.66	1708.01
870.83	1791.97
871.00	1775.59
871.17	1718.25
871.33	1697.77
871.50	1708.01
871.67	1675.24
871.83	1630.18
872.00	1849.32
872.17	1636.33
872.33	1796.07
872.50	1701.86
872.67	1746.92
872.83	1669.09
873.00	1695.72
873.17	1683.43
873.33	1724.39
873.50	1765.35
873.67	1710.05
873.83	1722.34
874.00	1722.34
874.16	1730.53
874.33	1753.06
874.50	1619.94
874.66	1785.83
874.83	1720.29
875.00	1693.67
875.16	1732.58
875.33	1705.96
875.50	1640.42
875.66	1644.52
875.83	1730.53
875.99	1712.10
876.16	1710.05
876.33	1697.77
876.49	1748.97
876.66	1763.30
876.83	1751.01
876.99	1701.86
877.16	1726.44
877.32	1570.79
877.49	1736.68
877.66	1703.91
877.82	1746.92
877.99	1710.05
878.15	1804.26
878.32	1728.49
878.49	1693.67
878.65	1714.15
878.82	1798.12
878.98	1728.49
879.15	1783.78
879.32	1755.11
879.48	1759.21
879.65	1771.49
879.81	1697.77
879.98	1701.86
880.15	1726.44
880.31	1697.77
880.48	1644.52
880.64	1769.44
880.81	1718.25
880.97	1794.02
881.14	1791.97
881.31	1722.34
881.47	1884.13
881.64	1685.48
881.80	1712.10
881.97	1720.29
882.13	1748.97
882.30	1646.57
882.47	1701.86
882.63	1679.33
882.80	1740.77
882.96	1603.56
883.13	1810.40
883.29	1763.30
883.46	1755.11
883.62	1867.75
883.79	1685.48
883.95	1802.21
884.12	1644.52
884.29	1665.00
884.45	1708.01
884.62	1755.11
884.78	1660.90
884.95	1873.89
885.11	1667.05
885.28	1738.73
885.44	1683.43
885.61	1665.00
885.77	1798.12
885.94	1767.40
886.10	1705.96
886.27	1720.29
886.43	1757.16
886.60	1794.02
886.76	1652.71
886.93	1660.90
887.09	1740.77
887.26	1675.24
887.42	1728.49
887.59	1761.25
887.75	1847.27
887.92	1796.07
888.08	1771.49
888.25	1791.97
888.41	1699.81
888.58	1736.68
888.74	1685.48
888.91	1660.90
>>>>>End Processed Spectral Data<<<<<
