SpectraSuite Data File
++++++++++++++++++++++++++++++++++++
Date: Wed May 04 18:44:33 CEST 2016
User: root
Dark Spectrum Present: No
Reference Spectrum Present: No
Number of Sampled Component Spectra: 1
Spectrometers: USB4C02835
Integration Time (usec): 100000 (USB4C02835)
Spectra Averaged: 1 (USB4C02835)
Boxcar Smoothing: 0 (USB4C02835)
Correct for Electrical Dark: No (USB4C02835)
Strobe/Lamp Enabled: No (USB4C02835)
Correct for Detector Non-linearity: No (USB4C02835)
Correct for Stray Light: No (USB4C02835)
Number of Pixels in Processed Spectrum: 3648
>>>>>Begin Processed Spectral Data<<<<<
177.47	1425.39
177.69	1425.39
177.91	1425.39
178.13	1439.72
178.36	1429.48
178.58	1730.53
178.80	1708.01
179.02	1673.19
179.24	1636.33
179.46	1763.30
179.68	1771.49
179.90	1748.97
180.13	1662.95
180.35	1730.53
180.57	1671.14
180.79	1773.54
181.01	1671.14
181.23	1740.77
181.45	1789.92
181.67	1800.16
181.90	1695.72
182.12	1652.71
182.34	1638.38
182.56	1777.64
182.78	1710.05
183.00	1738.73
183.22	1763.30
183.44	1628.14
183.66	1867.75
183.89	1796.07
184.11	1673.19
184.33	1781.73
184.55	1796.07
184.77	1705.96
184.99	1763.30
185.21	1691.62
185.43	1822.69
185.65	1667.05
185.87	1771.49
186.10	1802.21
186.32	1773.54
186.54	1738.73
186.76	1751.01
186.98	1734.63
187.20	1697.77
187.42	1667.05
187.64	1705.96
187.86	1658.85
188.08	1638.38
188.30	1714.15
188.52	1640.42
188.75	1775.59
188.97	1779.68
189.19	1695.72
189.41	1644.52
189.63	1708.01
189.85	1738.73
190.07	1648.61
190.29	1669.09
190.51	1775.59
190.73	1675.24
190.95	1716.20
191.17	1703.91
191.39	1677.29
191.61	1677.29
191.84	1693.67
192.06	1681.38
192.28	1665.00
192.50	1918.95
192.72	1681.38
192.94	1720.29
193.16	1740.77
193.38	1710.05
193.60	1675.24
193.82	1626.09
194.04	1716.20
194.26	1714.15
194.48	1671.14
194.70	1665.00
194.92	1703.91
195.14	1738.73
195.36	1648.61
195.58	1708.01
195.80	1671.14
196.02	1681.38
196.24	1687.53
196.46	1759.21
196.69	1769.44
196.91	1814.50
197.13	1708.01
197.35	1658.85
197.57	1841.12
197.79	1775.59
198.01	1732.58
198.23	1714.15
198.45	1699.81
198.67	1685.48
198.89	1742.82
199.11	1748.97
199.33	1607.66
199.55	1609.70
199.77	1736.68
199.99	1732.58
200.21	1648.61
200.43	1806.31
200.65	1656.81
200.87	1658.85
201.09	1730.53
201.31	1728.49
201.53	1767.40
201.75	1691.62
201.97	1687.53
202.19	1720.29
202.41	1767.40
202.63	1822.69
202.85	1716.20
203.07	1744.87
203.29	1718.25
203.51	1632.23
203.73	1679.33
203.95	1912.80
204.17	1740.77
204.39	1695.72
204.61	1679.33
204.83	1648.61
205.05	1783.78
205.27	1800.16
205.49	1839.08
205.71	1726.44
205.93	1679.33
206.15	1615.85
206.37	1597.42
206.59	1695.72
206.81	1587.18
207.03	1720.29
207.25	1677.29
207.47	1804.26
207.69	1665.00
207.91	1775.59
208.13	1781.73
208.34	1632.23
208.56	1603.56
208.78	1765.35
209.00	1632.23
209.22	1595.37
209.44	1640.42
209.66	1644.52
209.88	1634.28
210.10	1699.81
210.32	1662.95
210.54	1771.49
210.76	1740.77
210.98	1705.96
211.20	1564.65
211.42	1665.00
211.64	1783.78
211.86	1712.10
212.08	1710.05
212.30	1789.92
212.52	1763.30
212.74	1671.14
212.96	1726.44
213.17	1699.81
213.39	1767.40
213.61	1828.84
213.83	1736.68
214.05	1673.19
214.27	1796.07
214.49	1640.42
214.71	1710.05
214.93	1773.54
215.15	1693.67
215.37	1720.29
215.59	1642.47
215.81	1742.82
216.03	1710.05
216.24	1718.25
216.46	1693.67
216.68	1730.53
216.90	1789.92
217.12	1767.40
217.34	1652.71
217.56	1730.53
217.78	1775.59
218.00	1703.91
218.22	1775.59
218.44	1677.29
218.66	1714.15
218.87	1763.30
219.09	1679.33
219.31	1806.31
219.53	1677.29
219.75	1726.44
219.97	1675.24
220.19	1679.33
220.41	1687.53
220.63	1761.25
220.85	1701.86
221.06	1714.15
221.28	1755.11
221.50	1748.97
221.72	1773.54
221.94	1738.73
222.16	1703.91
222.38	1767.40
222.60	1734.63
222.82	1730.53
223.03	1794.02
223.25	1652.71
223.47	1695.72
223.69	1875.94
223.91	1726.44
224.13	1773.54
224.35	1697.77
224.57	1779.68
224.78	1794.02
225.00	1660.90
225.22	1677.29
225.44	1716.20
225.66	1826.79
225.88	1681.38
226.10	1800.16
226.32	1757.16
226.53	1820.64
226.75	1705.96
226.97	1648.61
227.19	1726.44
227.41	1712.10
227.63	1638.38
227.85	1712.10
228.06	1638.38
228.28	1757.16
228.50	1722.34
228.72	1574.89
228.94	1601.51
229.16	1648.61
229.37	1734.63
229.59	1642.47
229.81	1726.44
230.03	1710.05
230.25	1746.92
230.47	1630.18
230.69	1611.75
230.90	1771.49
231.12	1710.05
231.34	1712.10
231.56	1791.97
231.78	1673.19
232.00	1787.88
232.21	1701.86
232.43	1734.63
232.65	1636.33
232.87	1714.15
233.09	1691.62
233.30	1683.43
233.52	1773.54
233.74	1673.19
233.96	1665.00
234.18	1755.11
234.40	1665.00
234.61	1853.41
234.83	1587.18
235.05	1613.80
235.27	1863.65
235.49	1810.40
235.70	1675.24
235.92	1802.21
236.14	1658.85
236.36	1804.26
236.58	1675.24
236.79	1734.63
237.01	1656.81
237.23	1740.77
237.45	1802.21
237.67	1636.33
237.88	1753.06
238.10	1804.26
238.32	1642.47
238.54	1677.29
238.76	1708.01
238.97	1740.77
239.19	1650.66
239.41	1816.55
239.63	1773.54
239.85	1630.18
240.06	1710.05
240.28	1699.81
240.50	1843.17
240.72	1634.28
240.93	1687.53
241.15	1806.31
241.37	1708.01
241.59	1726.44
241.81	1638.38
242.02	1705.96
242.24	1740.77
242.46	1775.59
242.68	1613.80
242.89	1712.10
243.11	1857.51
243.33	1634.28
243.55	1728.49
243.76	1689.57
243.98	1621.99
244.20	1675.24
244.42	1738.73
244.64	1751.01
244.85	1648.61
245.07	1699.81
245.29	1722.34
245.51	1634.28
245.72	1679.33
245.94	1789.92
246.16	1628.14
246.38	1757.16
246.59	1654.76
246.81	1665.00
247.03	1753.06
247.24	1675.24
247.46	1701.86
247.68	1722.34
247.90	1683.43
248.11	1683.43
248.33	1810.40
248.55	1763.30
248.77	1753.06
248.98	1726.44
249.20	1849.32
249.42	1720.29
249.64	1720.29
249.85	1701.86
250.07	1656.81
250.29	1787.88
250.50	1746.92
250.72	1593.32
250.94	1621.99
251.16	1859.56
251.37	1753.06
251.59	1796.07
251.81	1693.67
252.02	1775.59
252.24	1701.86
252.46	1789.92
252.68	1685.48
252.89	1734.63
253.11	1728.49
253.33	1773.54
253.54	1783.78
253.76	1650.66
253.98	1630.18
254.20	1714.15
254.41	1591.27
254.63	1685.48
254.85	1677.29
255.06	1705.96
255.28	1660.90
255.50	1740.77
255.71	1669.09
255.93	1697.77
256.15	1693.67
256.36	1755.11
256.58	1765.35
256.80	1800.16
257.02	1660.90
257.23	1716.20
257.45	1753.06
257.67	1697.77
257.88	1699.81
258.10	1740.77
258.32	1781.73
258.53	1681.38
258.75	1814.50
258.97	1648.61
259.18	1689.57
259.40	1742.82
259.62	1808.36
259.83	1794.02
260.05	1703.91
260.27	1865.70
260.48	1802.21
260.70	1679.33
260.92	1761.25
261.13	1615.85
261.35	1683.43
261.57	1767.40
261.78	1621.99
262.00	1677.29
262.22	1742.82
262.43	1705.96
262.65	1693.67
262.86	1679.33
263.08	1828.84
263.30	1708.01
263.51	1681.38
263.73	1701.86
263.95	1824.74
264.16	1650.66
264.38	1626.09
264.60	1779.68
264.81	1681.38
265.03	1816.55
265.25	1783.78
265.46	1667.05
265.68	1834.98
265.89	1710.05
266.11	1613.80
266.33	1710.05
266.54	1777.64
266.76	1796.07
266.98	1753.06
267.19	1796.07
267.41	1710.05
267.62	1634.28
267.84	1675.24
268.06	1759.21
268.27	1753.06
268.49	1746.92
268.70	1812.45
268.92	1677.29
269.14	1630.18
269.35	1603.56
269.57	1665.00
269.79	1742.82
270.00	1728.49
270.22	1767.40
270.43	1687.53
270.65	1619.94
270.87	1687.53
271.08	1742.82
271.30	1722.34
271.51	1787.88
271.73	1724.39
271.95	1767.40
272.16	1718.25
272.38	1712.10
272.59	1572.84
272.81	1785.83
273.02	1755.11
273.24	1765.35
273.46	1708.01
273.67	1746.92
273.89	1685.48
274.10	1744.87
274.32	1789.92
274.54	1701.86
274.75	1746.92
274.97	1769.44
275.18	1701.86
275.40	1734.63
275.61	1734.63
275.83	1693.67
276.05	1712.10
276.26	1677.29
276.48	1769.44
276.69	1722.34
276.91	1734.63
277.12	1755.11
277.34	1753.06
277.55	1722.34
277.77	1712.10
277.99	1701.86
278.20	1673.19
278.42	1642.47
278.63	1652.71
278.85	1720.29
279.06	1681.38
279.28	1718.25
279.49	1687.53
279.71	1714.15
279.93	1699.81
280.14	1673.19
280.36	1665.00
280.57	1738.73
280.79	1744.87
281.00	1656.81
281.22	1632.23
281.43	1777.64
281.65	1578.98
281.86	1722.34
282.08	1726.44
282.29	1781.73
282.51	1478.63
282.73	1626.09
282.94	1628.14
283.16	1826.79
283.37	1791.97
283.59	1644.52
283.80	1767.40
284.02	1667.05
284.23	1701.86
284.45	1724.39
284.66	1685.48
284.88	1726.44
285.09	1710.05
285.31	1812.45
285.52	1796.07
285.74	1699.81
285.95	1796.07
286.17	1726.44
286.38	1794.02
286.60	1712.10
286.81	1675.24
287.03	1730.53
287.24	1726.44
287.46	1722.34
287.67	1689.57
287.89	1765.35
288.10	1697.77
288.32	1769.44
288.53	1845.22
288.75	1681.38
288.96	1718.25
289.18	1685.48
289.39	1712.10
289.61	1767.40
289.82	1804.26
290.04	1855.46
290.25	1636.33
290.47	1728.49
290.68	1632.23
290.90	1806.31
291.11	1644.52
291.33	1812.45
291.54	1689.57
291.76	1699.81
291.97	1703.91
292.18	1773.54
292.40	1716.20
292.61	1652.71
292.83	1837.03
293.04	1732.58
293.26	1708.01
293.47	1685.48
293.69	1628.14
293.90	1708.01
294.12	1771.49
294.33	1718.25
294.55	1695.72
294.76	1751.01
294.97	1802.21
295.19	1847.27
295.40	1695.72
295.62	1734.63
295.83	1740.77
296.05	1568.74
296.26	1798.12
296.48	1716.20
296.69	1718.25
296.90	1728.49
297.12	1726.44
297.33	1853.41
297.55	1642.47
297.76	1773.54
297.98	1759.21
298.19	1712.10
298.41	1689.57
298.62	1679.33
298.83	1796.07
299.05	1755.11
299.26	1660.90
299.48	1673.19
299.69	1755.11
299.90	1720.29
300.12	1689.57
300.33	1804.26
300.55	1646.57
300.76	1716.20
300.98	1769.44
301.19	1732.58
301.40	1636.33
301.62	1652.71
301.83	1734.63
302.05	1783.78
302.26	1705.96
302.47	1716.20
302.69	1658.85
302.90	1740.77
303.12	1593.32
303.33	1705.96
303.54	1826.79
303.76	1699.81
303.97	1689.57
304.19	1849.32
304.40	1734.63
304.61	1669.09
304.83	1839.08
305.04	1726.44
305.26	1718.25
305.47	1699.81
305.68	1699.81
305.90	1683.43
306.11	1730.53
306.33	1794.02
306.54	1665.00
306.75	1611.75
306.97	1687.53
307.18	1656.81
307.39	1675.24
307.61	1759.21
307.82	1656.81
308.04	1720.29
308.25	1662.95
308.46	1765.35
308.68	1693.67
308.89	1710.05
309.10	1665.00
309.32	1757.16
309.53	1673.19
309.74	1718.25
309.96	1705.96
310.17	1765.35
310.39	1617.90
310.60	1767.40
310.81	1675.24
311.03	1638.38
311.24	1777.64
311.45	1681.38
311.67	1843.17
311.88	1679.33
312.09	1693.67
312.31	1585.13
312.52	1701.86
312.73	1720.29
312.95	1654.76
313.16	1611.75
313.37	1787.88
313.59	1712.10
313.80	1728.49
314.01	1718.25
314.23	1705.96
314.44	1638.38
314.65	1638.38
314.87	1705.96
315.08	1677.29
315.29	1712.10
315.51	1669.09
315.72	1609.70
315.93	1718.25
316.15	1689.57
316.36	1662.95
316.57	1771.49
316.79	1730.53
317.00	1667.05
317.21	1712.10
317.43	1658.85
317.64	1791.97
317.85	1689.57
318.07	1671.14
318.28	1800.16
318.49	1824.74
318.70	1947.62
318.92	1902.56
319.13	1886.18
319.34	1871.84
319.56	1818.60
319.77	1873.89
319.98	1906.66
320.20	1783.78
320.41	1753.06
320.62	1755.11
320.83	1753.06
321.05	1855.46
321.26	1650.66
321.47	1685.48
321.69	1820.64
321.90	1656.81
322.11	1605.61
322.32	1699.81
322.54	1794.02
322.75	1689.57
322.96	1810.40
323.18	1607.66
323.39	1607.66
323.60	1673.19
323.81	1703.91
324.03	1689.57
324.24	1660.90
324.45	1771.49
324.66	1718.25
324.88	1810.40
325.09	1791.97
325.30	1644.52
325.52	1673.19
325.73	1818.60
325.94	1609.70
326.15	1644.52
326.37	1697.77
326.58	1824.74
326.79	1802.21
327.00	1695.72
327.22	1718.25
327.43	1667.05
327.64	1642.47
327.85	1718.25
328.07	1787.88
328.28	1871.84
328.49	1599.46
328.70	1701.86
328.92	1736.68
329.13	1554.41
329.34	1685.48
329.55	1777.64
329.76	1798.12
329.98	1644.52
330.19	1812.45
330.40	1630.18
330.61	1748.97
330.83	1812.45
331.04	1652.71
331.25	1730.53
331.46	1683.43
331.68	1652.71
331.89	1767.40
332.10	1705.96
332.31	1615.85
332.52	1726.44
332.74	1718.25
332.95	1626.09
333.16	1712.10
333.37	1761.25
333.58	1679.33
333.80	1730.53
334.01	1617.90
334.22	1703.91
334.43	1681.38
334.64	1646.57
334.86	1613.80
335.07	1689.57
335.28	1771.49
335.49	1691.62
335.70	1740.77
335.92	1734.63
336.13	1863.65
336.34	1771.49
336.55	1746.92
336.76	1742.82
336.98	1648.61
337.19	1718.25
337.40	1802.21
337.61	1822.69
337.82	1732.58
338.04	1726.44
338.25	1568.74
338.46	1701.86
338.67	1718.25
338.88	1693.67
339.09	1714.15
339.31	1677.29
339.52	1624.04
339.73	1685.48
339.94	1724.39
340.15	1769.44
340.36	1611.75
340.58	1695.72
340.79	1624.04
341.00	1742.82
341.21	1568.74
341.42	1779.68
341.63	1667.05
341.85	1718.25
342.06	1740.77
342.27	1621.99
342.48	1783.78
342.69	1601.51
342.90	1757.16
343.12	1738.73
343.33	1705.96
343.54	1763.30
343.75	1802.21
343.96	1611.75
344.17	1648.61
344.38	1720.29
344.60	1724.39
344.81	1708.01
345.02	1787.88
345.23	1865.70
345.44	1839.08
345.65	1796.07
345.86	1699.81
346.07	1726.44
346.29	1658.85
346.50	1794.02
346.71	1812.45
346.92	1763.30
347.13	1816.55
347.34	1755.11
347.55	1675.24
347.76	1746.92
347.98	1679.33
348.19	1724.39
348.40	1791.97
348.61	1697.77
348.82	1820.64
349.03	1759.21
349.24	1726.44
349.45	1744.87
349.66	1568.74
349.88	1757.16
350.09	1712.10
350.30	1781.73
350.51	1763.30
350.72	1738.73
350.93	1722.34
351.14	1642.47
351.35	1798.12
351.56	1712.10
351.77	1689.57
351.99	1767.40
352.20	1839.08
352.41	1820.64
352.62	1566.70
352.83	1726.44
353.04	1791.97
353.25	1718.25
353.46	1785.83
353.67	1685.48
353.88	1591.27
354.09	1697.77
354.30	1798.12
354.52	1730.53
354.73	1675.24
354.94	1667.05
355.15	1734.63
355.36	1837.03
355.57	1748.97
355.78	1691.62
355.99	1636.33
356.20	1671.14
356.41	1736.68
356.62	1757.16
356.83	1689.57
357.04	1757.16
357.25	1693.67
357.46	1753.06
357.68	1687.53
357.89	1611.75
358.10	1714.15
358.31	1658.85
358.52	1808.36
358.73	1691.62
358.94	1703.91
359.15	1609.70
359.36	1753.06
359.57	1744.87
359.78	1701.86
359.99	1710.05
360.20	1697.77
360.41	1605.61
360.62	1738.73
360.83	1742.82
361.04	1701.86
361.25	1718.25
361.46	1765.35
361.67	1736.68
361.88	1677.29
362.09	1734.63
362.30	1697.77
362.51	1693.67
362.72	1714.15
362.93	1732.58
363.14	1787.88
363.35	1726.44
363.56	1730.53
363.78	1740.77
363.99	1751.01
364.20	1677.29
364.41	1730.53
364.62	1853.41
364.83	1724.39
365.04	1701.86
365.25	1759.21
365.46	1769.44
365.67	1652.71
365.88	1710.05
366.09	1701.86
366.30	1671.14
366.51	1705.96
366.72	1673.19
366.93	1757.16
367.14	1599.46
367.35	1767.40
367.56	1701.86
367.77	1751.01
367.98	1751.01
368.18	1740.77
368.39	1771.49
368.60	1701.86
368.81	1802.21
369.02	1693.67
369.23	1677.29
369.44	1599.46
369.65	1724.39
369.86	1734.63
370.07	1779.68
370.28	1738.73
370.49	1765.35
370.70	1730.53
370.91	1644.52
371.12	1667.05
371.33	1771.49
371.54	1722.34
371.75	1824.74
371.96	1595.37
372.17	1683.43
372.38	1652.71
372.59	1757.16
372.80	1775.59
373.01	1703.91
373.22	1697.77
373.43	1769.44
373.64	1662.95
373.85	1789.92
374.06	1763.30
374.26	1728.49
374.47	1691.62
374.68	1755.11
374.89	1732.58
375.10	1714.15
375.31	1720.29
375.52	1742.82
375.73	1712.10
375.94	1662.95
376.15	1791.97
376.36	1650.66
376.57	1667.05
376.78	1759.21
376.99	1691.62
377.20	1763.30
377.40	1669.09
377.61	1794.02
377.82	1671.14
378.03	1748.97
378.24	1785.83
378.45	1699.81
378.66	1710.05
378.87	1560.55
379.08	1646.57
379.29	1646.57
379.50	1744.87
379.71	1687.53
379.91	1708.01
380.12	1718.25
380.33	1665.00
380.54	1740.77
380.75	1648.61
380.96	1726.44
381.17	1765.35
381.38	1771.49
381.59	1687.53
381.80	1804.26
382.00	1867.75
382.21	1718.25
382.42	1877.99
382.63	1826.79
382.84	1712.10
383.05	1865.70
383.26	1738.73
383.47	1806.31
383.68	1718.25
383.88	1806.31
384.09	1769.44
384.30	1849.32
384.51	1689.57
384.72	1642.47
384.93	1636.33
385.14	1708.01
385.35	1740.77
385.55	1585.13
385.76	1845.22
385.97	1746.92
386.18	1693.67
386.39	1685.48
386.60	1697.77
386.81	1705.96
387.02	1732.58
387.22	1691.62
387.43	1794.02
387.64	1896.42
387.85	1875.94
388.06	2226.14
388.27	4646.84
388.48	9125.75
388.68	11700.05
388.89	13520.69
389.10	14004.01
389.31	11798.35
389.52	9783.15
389.73	8519.55
389.93	7696.27
390.14	7147.41
390.35	6492.06
390.56	6059.94
390.77	5025.72
390.98	3925.96
391.18	3078.10
391.39	2375.64
391.60	1888.23
391.81	1814.50
392.02	1705.96
392.23	1849.32
392.43	1767.40
392.64	1781.73
392.85	1748.97
393.06	1738.73
393.27	1714.15
393.47	1681.38
393.68	1732.58
393.89	1656.81
394.10	1775.59
394.31	1665.00
394.52	1712.10
394.72	1675.24
394.93	1812.45
395.14	1660.90
395.35	1765.35
395.56	1638.38
395.76	1675.24
395.97	1820.64
396.18	1884.13
396.39	1906.66
396.60	2150.37
396.80	1945.57
397.01	1855.46
397.22	1804.26
397.43	1822.69
397.64	1767.40
397.84	1828.84
398.05	1906.66
398.26	1744.87
398.47	1800.16
398.67	1775.59
398.88	1765.35
399.09	1712.10
399.30	1673.19
399.51	1685.48
399.71	1652.71
399.92	1738.73
400.13	1679.33
400.34	1742.82
400.54	1757.16
400.75	1796.07
400.96	1771.49
401.17	1767.40
401.37	1748.97
401.58	1701.86
401.79	1804.26
402.00	1877.99
402.21	2050.02
402.41	2133.98
402.62	2117.60
402.83	2181.09
403.04	2121.70
403.24	2158.56
403.45	1845.22
403.66	1980.39
403.87	1861.60
404.07	1947.62
404.28	1939.43
404.49	1908.71
404.70	1896.42
404.90	1796.07
405.11	1767.40
405.32	1746.92
405.52	1701.86
405.73	1636.33
405.94	1660.90
406.15	1765.35
406.35	1728.49
406.56	1753.06
406.77	1658.85
406.98	1755.11
407.18	1671.14
407.39	1800.16
407.60	1658.85
407.80	1830.88
408.01	1583.08
408.22	1738.73
408.43	1714.15
408.63	1755.11
408.84	1734.63
409.05	1748.97
409.25	1665.00
409.46	1599.46
409.67	1705.96
409.88	1691.62
410.08	1730.53
410.29	1714.15
410.50	1736.68
410.70	1710.05
410.91	1648.61
411.12	1800.16
411.32	1677.29
411.53	1673.19
411.74	1820.64
411.95	1787.88
412.15	1748.97
412.36	1787.88
412.57	1808.36
412.77	1730.53
412.98	1755.11
413.19	1769.44
413.39	1767.40
413.60	1771.49
413.81	1744.87
414.01	1851.36
414.22	1810.40
414.43	1732.58
414.63	1716.20
414.84	1849.32
415.05	1691.62
415.25	1654.76
415.46	1787.88
415.67	1650.66
415.87	1759.21
416.08	1720.29
416.29	1677.29
416.49	1759.21
416.70	1755.11
416.91	1714.15
417.11	1658.85
417.32	1763.30
417.53	1730.53
417.73	1732.58
417.94	1699.81
418.15	1710.05
418.35	1718.25
418.56	1710.05
418.77	1800.16
418.97	1677.29
419.18	1685.48
419.38	1576.94
419.59	1697.77
419.80	1818.60
420.00	1724.39
420.21	1652.71
420.42	1771.49
420.62	1787.88
420.83	1591.27
421.04	1662.95
421.24	1714.15
421.45	1757.16
421.65	1785.83
421.86	1703.91
422.07	1800.16
422.27	1767.40
422.48	1753.06
422.69	1656.81
422.89	1726.44
423.10	1722.34
423.30	1681.38
423.51	1746.92
423.72	1748.97
423.92	1724.39
424.13	1662.95
424.33	1724.39
424.54	1769.44
424.75	1740.77
424.95	1828.84
425.16	1746.92
425.36	1693.67
425.57	1779.68
425.78	1724.39
425.98	1775.59
426.19	1724.39
426.39	1667.05
426.60	1798.12
426.81	1847.27
427.01	1701.86
427.22	1652.71
427.42	1693.67
427.63	1689.57
427.83	1751.01
428.04	1816.55
428.25	1834.98
428.45	1763.30
428.66	1769.44
428.86	1744.87
429.07	1742.82
429.28	1730.53
429.48	1632.23
429.69	1716.20
429.89	1724.39
430.10	1685.48
430.30	1705.96
430.51	1789.92
430.71	1746.92
430.92	1699.81
431.13	1671.14
431.33	1804.26
431.54	1755.11
431.74	1837.03
431.95	1804.26
432.15	1679.33
432.36	1726.44
432.56	1689.57
432.77	1837.03
432.98	1804.26
433.18	1748.97
433.39	1769.44
433.59	1703.91
433.80	1820.64
434.00	1875.94
434.21	1671.14
434.41	1736.68
434.62	1738.73
434.82	1675.24
435.03	1587.18
435.23	1667.05
435.44	1636.33
435.64	1742.82
435.85	1738.73
436.06	1826.79
436.26	1794.02
436.47	1697.77
436.67	1683.43
436.88	1671.14
437.08	1777.64
437.29	1826.79
437.49	1753.06
437.70	1800.16
437.90	1726.44
438.11	1767.40
438.31	1787.88
438.52	1904.61
438.72	1892.32
438.93	1968.10
439.13	1806.31
439.34	1931.23
439.54	1847.27
439.75	1767.40
439.95	1808.36
440.16	1755.11
440.36	1755.11
440.57	1775.59
440.77	1724.39
440.98	1783.78
441.18	1724.39
441.39	1759.21
441.59	1665.00
441.80	1877.99
442.00	1779.68
442.21	1787.88
442.41	1601.51
442.62	1789.92
442.82	1724.39
443.02	1732.58
443.23	1732.58
443.43	1769.44
443.64	1746.92
443.84	1652.71
444.05	1804.26
444.25	1773.54
444.46	1712.10
444.66	1714.15
444.87	1824.74
445.07	1650.66
445.28	1773.54
445.48	1734.63
445.69	1736.68
445.89	1918.95
446.09	1740.77
446.30	2054.11
446.50	2557.91
446.71	4179.90
446.91	5081.01
447.12	5844.90
447.32	6156.19
447.53	5289.90
447.73	4534.20
447.93	3981.25
448.14	3663.82
448.34	3409.87
448.55	3086.29
448.75	3188.69
448.96	2934.74
449.16	2643.93
449.36	2414.56
449.57	2133.98
449.77	1925.09
449.98	1884.13
450.18	1822.69
450.39	1832.93
450.59	1751.01
450.79	1701.86
451.00	1701.86
451.20	1779.68
451.41	1734.63
451.61	1703.91
451.81	1775.59
452.02	1720.29
452.22	1742.82
452.43	1638.38
452.63	1718.25
452.84	1693.67
453.04	1703.91
453.24	1640.42
453.45	1748.97
453.65	1687.53
453.86	1826.79
454.06	1763.30
454.26	1740.77
454.47	1677.29
454.67	1908.71
454.87	1771.49
455.08	1736.68
455.28	1843.17
455.49	1816.55
455.69	1691.62
455.89	1798.12
456.10	1808.36
456.30	1751.01
456.51	1753.06
456.71	1748.97
456.91	1748.97
457.12	1699.81
457.32	1724.39
457.52	1585.13
457.73	1779.68
457.93	1720.29
458.14	1636.33
458.34	1685.48
458.54	1691.62
458.75	1640.42
458.95	1763.30
459.15	1671.14
459.36	1722.34
459.56	1775.59
459.76	1869.80
459.97	1681.38
460.17	1775.59
460.37	1847.27
460.58	1681.38
460.78	1765.35
460.99	1728.49
461.19	1683.43
461.39	1748.97
461.60	1753.06
461.80	1705.96
462.00	1771.49
462.21	1712.10
462.41	1679.33
462.61	1683.43
462.82	1677.29
463.02	1759.21
463.22	1753.06
463.43	1779.68
463.63	1699.81
463.83	1892.32
464.04	1769.44
464.24	1763.30
464.44	1691.62
464.64	1722.34
464.85	1744.87
465.05	1779.68
465.25	1769.44
465.46	1701.86
465.66	1740.77
465.86	1738.73
466.07	1746.92
466.27	1712.10
466.47	1687.53
466.68	1611.75
466.88	1853.41
467.08	1798.12
467.29	1800.16
467.49	1708.01
467.69	1665.00
467.89	1662.95
468.10	1755.11
468.30	1718.25
468.50	1746.92
468.71	1765.35
468.91	1708.01
469.11	1804.26
469.31	1714.15
469.52	1634.28
469.72	1859.56
469.92	1875.94
470.13	1718.25
470.33	1714.15
470.53	1755.11
470.73	2080.74
470.94	2484.19
471.14	2701.27
471.34	2924.50
471.54	2871.25
471.75	2578.39
471.95	2361.31
472.15	2263.01
472.36	2148.32
472.56	2140.13
472.76	2191.33
472.96	2185.18
473.17	2045.92
473.37	1996.77
473.57	1929.19
473.77	1849.32
473.98	1740.77
474.18	1665.00
474.38	1867.75
474.58	1624.04
474.79	1710.05
474.99	1728.49
475.19	1777.64
475.39	1722.34
475.60	1712.10
475.80	1738.73
476.00	1779.68
476.20	1685.48
476.41	1765.35
476.61	1839.08
476.81	1773.54
477.01	1693.67
477.21	1845.22
477.42	1839.08
477.62	1718.25
477.82	1832.93
478.02	1648.61
478.23	1812.45
478.43	1611.75
478.63	1730.53
478.83	1681.38
479.03	1757.16
479.24	1779.68
479.44	1920.99
479.64	1689.57
479.84	1718.25
480.04	1697.77
480.25	1755.11
480.45	1740.77
480.65	1746.92
480.85	1800.16
481.06	1660.90
481.26	1732.58
481.46	1773.54
481.66	1767.40
481.86	1675.24
482.06	1742.82
482.27	1681.38
482.47	1728.49
482.67	1767.40
482.87	1755.11
483.07	1810.40
483.28	1675.24
483.48	1712.10
483.68	1753.06
483.88	1648.61
484.08	1568.74
484.29	1611.75
484.49	1677.29
484.69	1667.05
484.89	1800.16
485.09	1828.84
485.29	1732.58
485.50	1738.73
485.70	1773.54
485.90	1771.49
486.10	1738.73
486.30	1759.21
486.50	1814.50
486.71	1822.69
486.91	1839.08
487.11	1822.69
487.31	1689.57
487.51	1689.57
487.71	1667.05
487.91	1599.46
488.12	1665.00
488.32	1626.09
488.52	1646.57
488.72	1597.42
488.92	1751.01
489.12	1869.80
489.32	1802.21
489.53	1787.88
489.73	1554.41
489.93	1884.13
490.13	1652.71
490.33	1685.48
490.53	1708.01
490.73	1837.03
490.94	1640.42
491.14	1777.64
491.34	1843.17
491.54	2136.03
491.74	2781.14
491.94	3149.78
492.14	3319.76
492.34	3518.41
492.54	3190.74
492.75	2768.85
492.95	2621.40
493.15	2422.75
493.35	2463.71
493.55	2312.16
493.75	2187.23
493.95	2269.15
494.15	2004.96
494.35	1978.34
494.56	1851.36
494.76	1763.30
494.96	1785.83
495.16	1722.34
495.36	1800.16
495.56	1847.27
495.76	1734.63
495.96	1738.73
496.16	1736.68
496.36	1826.79
496.56	1742.82
496.77	1748.97
496.97	1769.44
497.17	1808.36
497.37	1722.34
497.57	1779.68
497.77	1712.10
497.97	1685.48
498.17	1763.30
498.37	1693.67
498.57	1697.77
498.77	1738.73
498.97	1730.53
499.17	1796.07
499.38	1742.82
499.58	1824.74
499.78	1746.92
499.98	1849.32
500.18	1746.92
500.38	1718.25
500.58	1959.91
500.78	2402.27
500.98	4704.18
501.18	6723.48
501.38	8079.24
501.58	9070.45
501.78	8724.35
501.98	6750.10
502.18	5826.47
502.38	4949.94
502.58	4415.42
502.78	4026.31
502.98	4112.32
503.18	3827.65
503.38	3510.22
503.59	3184.59
503.79	3000.27
503.99	2656.22
504.19	2422.75
504.39	2314.20
504.59	2287.58
504.79	2428.89
504.99	2306.01
505.19	2066.40
505.39	1959.91
505.59	2013.15
505.79	1966.05
505.99	1824.74
506.19	1847.27
506.39	1890.28
506.59	1771.49
506.79	1861.60
506.99	1783.78
507.19	1796.07
507.39	1781.73
507.59	1665.00
507.79	1761.25
507.99	1726.44
508.19	1730.53
508.39	1734.63
508.59	1724.39
508.79	1787.88
508.99	1849.32
509.19	1726.44
509.39	1785.83
509.59	1740.77
509.79	1615.85
509.99	1746.92
510.19	1853.41
510.39	1769.44
510.59	1712.10
510.79	1796.07
510.99	1767.40
511.19	1757.16
511.39	1779.68
511.59	1779.68
511.79	1816.55
511.99	1771.49
512.19	1830.88
512.38	1757.16
512.58	1646.57
512.78	1722.34
512.98	1742.82
513.18	1816.55
513.38	1695.72
513.58	1800.16
513.78	1699.81
513.98	1742.82
514.18	1755.11
514.38	1697.77
514.58	1660.90
514.78	1695.72
514.98	1626.09
515.18	1705.96
515.38	1730.53
515.58	1877.99
515.78	1742.82
515.98	1724.39
516.18	1794.02
516.38	1734.63
516.57	1732.58
516.77	1734.63
516.97	1701.86
517.17	1677.29
517.37	1638.38
517.57	1841.12
517.77	1736.68
517.97	1683.43
518.17	1804.26
518.37	1716.20
518.57	1689.57
518.77	1708.01
518.97	1720.29
519.16	1798.12
519.36	1814.50
519.56	1673.19
519.76	1751.01
519.96	1712.10
520.16	1775.59
520.36	1771.49
520.56	1740.77
520.76	1761.25
520.96	1767.40
521.16	1791.97
521.35	1890.28
521.55	1894.37
521.75	1775.59
521.95	1705.96
522.15	1730.53
522.35	1677.29
522.55	1628.14
522.75	1771.49
522.95	1755.11
523.14	1718.25
523.34	1703.91
523.54	1726.44
523.74	1808.36
523.94	1738.73
524.14	1636.33
524.34	1771.49
524.54	1824.74
524.73	1767.40
524.93	1781.73
525.13	1765.35
525.33	1660.90
525.53	1859.56
525.73	1757.16
525.93	1708.01
526.13	1634.28
526.32	1726.44
526.52	1832.93
526.72	1773.54
526.92	1671.14
527.12	1724.39
527.32	1703.91
527.52	1800.16
527.71	1789.92
527.91	1697.77
528.11	1740.77
528.31	1746.92
528.51	1681.38
528.71	1757.16
528.90	1789.92
529.10	1734.63
529.30	1841.12
529.50	1615.85
529.70	1728.49
529.90	1705.96
530.09	1722.34
530.29	1679.33
530.49	1734.63
530.69	1884.13
530.89	1822.69
531.09	1763.30
531.28	1679.33
531.48	1806.31
531.68	1740.77
531.88	1808.36
532.08	1777.64
532.28	1683.43
532.47	1755.11
532.67	1814.50
532.87	1841.12
533.07	1691.62
533.27	1845.22
533.46	1787.88
533.66	1753.06
533.86	1751.01
534.06	1691.62
534.26	1718.25
534.45	1783.78
534.65	1812.45
534.85	1734.63
535.05	1617.90
535.25	1853.41
535.44	1619.94
535.64	1800.16
535.84	1742.82
536.04	1718.25
536.24	1693.67
536.43	1742.82
536.63	1775.59
536.83	1701.86
537.03	1822.69
537.22	1654.76
537.42	1638.38
537.62	1810.40
537.82	1691.62
538.02	1847.27
538.21	1855.46
538.41	1867.75
538.61	1712.10
538.81	1759.21
539.00	1863.65
539.20	1665.00
539.40	1714.15
539.60	1796.07
539.79	1806.31
539.99	1755.11
540.19	1771.49
540.39	1730.53
540.58	1783.78
540.78	1787.88
540.98	1785.83
541.18	1857.51
541.37	1791.97
541.57	1732.58
541.77	1730.53
541.97	1658.85
542.16	1703.91
542.36	1734.63
542.56	1845.22
542.76	1871.84
542.95	1814.50
543.15	1685.48
543.35	1804.26
543.54	1802.21
543.74	1751.01
543.94	1785.83
544.14	1751.01
544.33	1810.40
544.53	1732.58
544.73	1705.96
544.93	1736.68
545.12	1687.53
545.32	1734.63
545.52	1716.20
545.71	1685.48
545.91	1728.49
546.11	1812.45
546.30	1638.38
546.50	1640.42
546.70	1779.68
546.90	1740.77
547.09	1685.48
547.29	1734.63
547.49	1824.74
547.68	1714.15
547.88	1708.01
548.08	1789.92
548.27	2158.56
548.47	1787.88
548.67	1705.96
548.87	1779.68
549.06	1685.48
549.26	1730.53
549.46	1769.44
549.65	1617.90
549.85	1742.82
550.05	1765.35
550.24	1624.04
550.44	1775.59
550.64	1791.97
550.83	1601.51
551.03	1808.36
551.23	1828.84
551.42	1812.45
551.62	1753.06
551.82	1763.30
552.01	1722.34
552.21	1804.26
552.41	1789.92
552.60	1810.40
552.80	1751.01
553.00	1740.77
553.19	1773.54
553.39	1877.99
553.59	1679.33
553.78	1738.73
553.98	1689.57
554.17	1736.68
554.37	1755.11
554.57	1816.55
554.76	1679.33
554.96	1669.09
555.16	1761.25
555.35	1806.31
555.55	1808.36
555.75	1748.97
555.94	1789.92
556.14	1656.81
556.33	1748.97
556.53	1759.21
556.73	1726.44
556.92	1728.49
557.12	1888.23
557.32	1806.31
557.51	1830.88
557.71	1746.92
557.90	1787.88
558.10	1882.08
558.30	1703.91
558.49	1746.92
558.69	1681.38
558.88	1710.05
559.08	1714.15
559.28	1714.15
559.47	1746.92
559.67	1779.68
559.86	1863.65
560.06	1796.07
560.26	1699.81
560.45	1806.31
560.65	1665.00
560.84	1746.92
561.04	1779.68
561.24	1781.73
561.43	1652.71
561.63	1808.36
561.82	1726.44
562.02	1773.54
562.22	1691.62
562.41	1734.63
562.61	1726.44
562.80	1669.09
563.00	1824.74
563.19	1669.09
563.39	1775.59
563.59	1804.26
563.78	1693.67
563.98	1681.38
564.17	1658.85
564.37	1685.48
564.56	1712.10
564.76	1656.81
564.96	1781.73
565.15	1675.24
565.35	1861.60
565.54	1677.29
565.74	1671.14
565.93	1744.87
566.13	1761.25
566.32	1761.25
566.52	1763.30
566.71	1785.83
566.91	1802.21
567.11	1714.15
567.30	1738.73
567.50	1771.49
567.69	1853.41
567.89	1800.16
568.08	1732.58
568.28	1787.88
568.47	1740.77
568.67	1757.16
568.86	1791.97
569.06	1796.07
569.25	1716.20
569.45	1662.95
569.64	1708.01
569.84	1761.25
570.04	1722.34
570.23	1751.01
570.43	1802.21
570.62	1759.21
570.82	1763.30
571.01	1720.29
571.21	1685.48
571.40	1757.16
571.60	1828.84
571.79	1734.63
571.99	1740.77
572.18	1673.19
572.38	1755.11
572.57	1794.02
572.77	1804.26
572.96	1820.64
573.16	1769.44
573.35	1796.07
573.55	1740.77
573.74	1783.78
573.94	1777.64
574.13	1722.34
574.33	1845.22
574.52	1769.44
574.71	1671.14
574.91	1820.64
575.10	1714.15
575.30	1753.06
575.49	1695.72
575.69	1726.44
575.88	1726.44
576.08	1781.73
576.27	1822.69
576.47	1814.50
576.66	1906.66
576.86	1837.03
577.05	1765.35
577.25	1873.89
577.44	1875.94
577.64	1726.44
577.83	1812.45
578.02	1761.25
578.22	1822.69
578.41	1832.93
578.61	1779.68
578.80	1699.81
579.00	1822.69
579.19	1775.59
579.39	1751.01
579.58	1726.44
579.77	1730.53
579.97	1791.97
580.16	1800.16
580.36	1937.38
580.55	1853.41
580.75	1794.02
580.94	1744.87
581.13	1871.84
581.33	1843.17
581.52	1675.24
581.72	1896.42
581.91	1923.04
582.11	1755.11
582.30	1857.51
582.49	1820.64
582.69	1894.37
582.88	1789.92
583.08	1822.69
583.27	1857.51
583.47	1787.88
583.66	1783.78
583.85	1767.40
584.05	1769.44
584.24	1910.75
584.44	1873.89
584.63	1904.61
584.82	1918.95
585.02	1908.71
585.21	1935.33
585.41	1933.28
585.60	1951.71
585.79	2033.63
585.99	2039.78
586.18	1935.33
586.37	2254.81
586.57	3407.82
586.76	9840.49
586.96	27149.92
587.15	41801.09
587.34	51559.66
587.54	57992.33
587.73	55350.45
587.93	40060.32
588.12	29527.61
588.31	23398.04
588.51	20131.53
588.70	18294.50
588.89	17088.25
589.09	15124.25
589.28	13469.49
589.47	11554.64
589.67	9518.96
589.86	7301.01
590.06	5328.81
590.25	4253.63
590.44	3235.79
590.64	2598.87
590.83	2263.01
591.02	2136.03
591.22	1929.19
591.41	1992.67
591.60	1822.69
591.80	1935.33
591.99	1746.92
592.18	1765.35
592.38	1880.04
592.57	1685.48
592.76	1818.60
592.96	1832.93
593.15	1734.63
593.34	1859.56
593.54	1726.44
593.73	1841.12
593.92	1820.64
594.12	1855.46
594.31	1820.64
594.50	1943.52
594.70	1832.93
594.89	1900.52
595.08	1777.64
595.28	1808.36
595.47	1910.75
595.66	1798.12
595.86	1697.77
596.05	1648.61
596.24	1726.44
596.43	1890.28
596.63	1837.03
596.82	1892.32
597.01	1849.32
597.21	1875.94
597.40	1847.27
597.59	1857.51
597.79	1820.64
597.98	1822.69
598.17	1763.30
598.36	1767.40
598.56	1826.79
598.75	1771.49
598.94	1769.44
599.14	1855.46
599.33	1710.05
599.52	1785.83
599.71	1820.64
599.91	1873.89
600.10	1734.63
600.29	1796.07
600.48	1791.97
600.68	1802.21
600.87	1800.16
601.06	1808.36
601.26	1691.62
601.45	1718.25
601.64	1748.97
601.83	1742.82
602.03	1779.68
602.22	1673.19
602.41	1800.16
602.60	1951.71
602.80	1830.88
602.99	1826.79
603.18	1712.10
603.37	1818.60
603.57	1808.36
603.76	1841.12
603.95	1820.64
604.14	1722.34
604.34	1722.34
604.53	1757.16
604.72	1705.96
604.91	1861.60
605.10	1777.64
605.30	1671.14
605.49	1814.50
605.68	1816.55
605.87	1767.40
606.07	1689.57
606.26	1736.68
606.45	1816.55
606.64	1796.07
606.84	1775.59
607.03	1828.84
607.22	1814.50
607.41	1738.73
607.60	1753.06
607.80	1869.80
607.99	1697.77
608.18	1722.34
608.37	1796.07
608.56	1751.01
608.76	1851.36
608.95	1886.18
609.14	1853.41
609.33	1824.74
609.52	1841.12
609.72	1822.69
609.91	1834.98
610.10	1877.99
610.29	1808.36
610.48	1826.79
610.68	1802.21
610.87	1822.69
611.06	1755.11
611.25	1763.30
611.44	1783.78
611.63	1685.48
611.83	1845.22
612.02	1681.38
612.21	1867.75
612.40	1638.38
612.59	1705.96
612.79	1691.62
612.98	1816.55
613.17	1796.07
613.36	1697.77
613.55	1914.85
613.74	1841.12
613.93	1902.56
614.13	1851.36
614.32	1976.29
614.51	2009.06
614.70	1785.83
614.89	1855.46
615.08	1894.37
615.28	2119.65
615.47	1722.34
615.66	1771.49
615.85	1802.21
616.04	1867.75
616.23	1816.55
616.42	1841.12
616.62	1810.40
616.81	1730.53
617.00	1746.92
617.19	1771.49
617.38	1804.26
617.57	1769.44
617.76	1710.05
617.95	1834.98
618.15	1806.31
618.34	1884.13
618.53	1740.77
618.72	1759.21
618.91	1824.74
619.10	1794.02
619.29	1722.34
619.48	1791.97
619.68	1658.85
619.87	1740.77
620.06	1648.61
620.25	1703.91
620.44	1759.21
620.63	1722.34
620.82	1738.73
621.01	1814.50
621.20	1775.59
621.39	1800.16
621.59	1783.78
621.78	1771.49
621.97	1798.12
622.16	1834.98
622.35	1804.26
622.54	1718.25
622.73	1845.22
622.92	1685.48
623.11	1763.30
623.30	1746.92
623.49	1708.01
623.68	1724.39
623.88	1757.16
624.07	1773.54
624.26	1697.77
624.45	1722.34
624.64	1759.21
624.83	1705.96
625.02	1753.06
625.21	1740.77
625.40	1796.07
625.59	1763.30
625.78	1753.06
625.97	1816.55
626.16	1798.12
626.35	1804.26
626.54	1904.61
626.74	1847.27
626.93	1744.87
627.12	1789.92
627.31	1783.78
627.50	1718.25
627.69	1822.69
627.88	1765.35
628.07	1722.34
628.26	1775.59
628.45	1751.01
628.64	1689.57
628.83	1787.88
629.02	1662.95
629.21	1736.68
629.40	1683.43
629.59	1742.82
629.78	1705.96
629.97	1708.01
630.16	1787.88
630.35	1841.12
630.54	1783.78
630.73	1714.15
630.92	1714.15
631.11	1705.96
631.30	1685.48
631.49	1738.73
631.68	1757.16
631.87	1789.92
632.06	1703.91
632.25	1880.04
632.44	1775.59
632.63	1728.49
632.82	1800.16
633.01	1804.26
633.20	1816.55
633.39	1861.60
633.58	1783.78
633.77	1757.16
633.96	1730.53
634.15	1759.21
634.34	1773.54
634.53	1761.25
634.72	1734.63
634.91	1662.95
635.10	1783.78
635.29	1748.97
635.48	1724.39
635.67	1724.39
635.86	1591.27
636.05	1791.97
636.24	1681.38
636.43	1767.40
636.62	1751.01
636.81	1613.80
637.00	1742.82
637.19	1701.86
637.38	1662.95
637.57	1689.57
637.76	1804.26
637.95	1740.77
638.14	1880.04
638.33	1832.93
638.52	1855.46
638.71	1744.87
638.89	1687.53
639.08	1900.52
639.27	1918.95
639.46	1894.37
639.65	2301.92
639.84	2271.20
640.03	2361.31
640.22	2312.16
640.41	2402.27
640.60	1986.53
640.79	2007.01
640.98	1882.08
641.17	2007.01
641.36	1875.94
641.55	1970.15
641.74	1787.88
641.92	1804.26
642.11	1802.21
642.30	1738.73
642.49	1710.05
642.68	1761.25
642.87	1628.14
643.06	1716.20
643.25	1677.29
643.44	1701.86
643.63	1740.77
643.82	1796.07
644.00	1630.18
644.19	1820.64
644.38	1742.82
644.57	1822.69
644.76	1718.25
644.95	1652.71
645.14	1732.58
645.33	1724.39
645.52	1763.30
645.71	1673.19
645.89	1658.85
646.08	1650.66
646.27	1628.14
646.46	1851.36
646.65	1630.18
646.84	1689.57
647.03	1593.32
647.22	1679.33
647.40	1767.40
647.59	1734.63
647.78	1695.72
647.97	1689.57
648.16	1667.05
648.35	1765.35
648.54	1791.97
648.73	1708.01
648.91	1744.87
649.10	1736.68
649.29	1665.00
649.48	1740.77
649.67	1722.34
649.86	1738.73
650.05	1812.45
650.23	1857.51
650.42	1765.35
650.61	1998.82
650.80	1980.39
650.99	1970.15
651.18	1853.41
651.36	1869.80
651.55	1746.92
651.74	1736.68
651.93	1677.29
652.12	1714.15
652.31	1703.91
652.49	1753.06
652.68	1791.97
652.87	1816.55
653.06	1677.29
653.25	1753.06
653.44	1722.34
653.62	1853.41
653.81	1787.88
654.00	1730.53
654.19	1742.82
654.38	1902.56
654.56	1708.01
654.75	1718.25
654.94	1640.42
655.13	1732.58
655.32	1726.44
655.51	1728.49
655.69	1728.49
655.88	1769.44
656.07	1642.47
656.26	1783.78
656.45	1669.09
656.63	1738.73
656.82	1773.54
657.01	1759.21
657.20	1683.43
657.38	1839.08
657.57	1744.87
657.76	1660.90
657.95	1730.53
658.14	1652.71
658.32	1691.62
658.51	1613.80
658.70	1716.20
658.89	1771.49
659.08	1738.73
659.26	1873.89
659.45	1689.57
659.64	1824.74
659.83	1783.78
660.01	1959.91
660.20	1789.92
660.39	1804.26
660.58	1628.14
660.76	1812.45
660.95	1669.09
661.14	1712.10
661.33	1650.66
661.51	1726.44
661.70	1718.25
661.89	1767.40
662.08	1689.57
662.26	1621.99
662.45	1609.70
662.64	1796.07
662.83	1789.92
663.01	1697.77
663.20	1738.73
663.39	1781.73
663.58	1724.39
663.76	1716.20
663.95	1765.35
664.14	1689.57
664.32	1669.09
664.51	1665.00
664.70	1669.09
664.89	1718.25
665.07	1621.99
665.26	1796.07
665.45	1685.48
665.64	1794.02
665.82	1753.06
666.01	1847.27
666.20	1632.23
666.38	1740.77
666.57	1964.00
666.76	2215.90
666.95	4601.79
667.13	11390.80
667.32	18472.68
667.51	21986.99
667.69	24931.97
667.88	25261.69
668.07	19355.35
668.25	14401.32
668.44	11837.26
668.63	9754.48
668.81	8523.65
669.00	7702.41
669.19	6971.29
669.38	6076.32
669.56	5302.19
669.75	4550.59
669.94	3841.99
670.12	3112.91
670.31	2643.93
670.50	2379.74
670.68	2107.36
670.87	1986.53
671.06	1908.71
671.24	1832.93
671.43	1972.19
671.62	1820.64
671.80	1791.97
671.99	1818.60
672.18	1787.88
672.36	1814.50
672.55	1761.25
672.74	1814.50
672.92	1785.83
673.11	1824.74
673.29	1710.05
673.48	1826.79
673.67	1755.11
673.85	1775.59
674.04	1673.19
674.23	1736.68
674.41	1775.59
674.60	1726.44
674.79	1609.70
674.97	1646.57
675.16	1701.86
675.34	1781.73
675.53	1611.75
675.72	1755.11
675.90	1804.26
676.09	1665.00
676.28	1714.15
676.46	1617.90
676.65	1765.35
676.83	1753.06
677.02	1677.29
677.21	1769.44
677.39	1757.16
677.58	1736.68
677.77	1689.57
677.95	1705.96
678.14	1701.86
678.32	1697.77
678.51	1665.00
678.70	1808.36
678.88	1632.23
679.07	1726.44
679.25	1757.16
679.44	1751.01
679.63	1628.14
679.81	1667.05
680.00	1781.73
680.18	1740.77
680.37	1814.50
680.55	1757.16
680.74	1703.91
680.93	1656.81
681.11	1667.05
681.30	1757.16
681.48	1675.24
681.67	1636.33
681.85	1746.92
682.04	1712.10
682.23	1824.74
682.41	1701.86
682.60	1603.56
682.78	1757.16
682.97	1673.19
683.15	1767.40
683.34	1652.71
683.53	1806.31
683.71	1656.81
683.90	1740.77
684.08	1812.45
684.27	1630.18
684.45	1703.91
684.64	1853.41
684.82	1753.06
685.01	1746.92
685.19	1638.38
685.38	1751.01
685.57	1755.11
685.75	1673.19
685.94	1648.61
686.12	1638.38
686.31	1689.57
686.49	1822.69
686.68	1603.56
686.86	1708.01
687.05	1773.54
687.23	1753.06
687.42	1701.86
687.60	1689.57
687.79	1740.77
687.97	1861.60
688.16	1816.55
688.34	1712.10
688.53	1673.19
688.71	1703.91
688.90	1800.16
689.08	1683.43
689.27	1677.29
689.45	1755.11
689.64	1705.96
689.82	1767.40
690.01	1767.40
690.19	1765.35
690.38	1695.72
690.56	1810.40
690.75	1603.56
690.93	1742.82
691.12	1646.57
691.30	1771.49
691.49	1689.57
691.67	1732.58
691.86	1869.80
692.04	1654.76
692.23	1724.39
692.41	1689.57
692.60	1916.90
692.78	1896.42
692.97	1718.25
693.15	1802.21
693.34	1849.32
693.52	1839.08
693.71	1722.34
693.89	1681.38
694.08	1662.95
694.26	1794.02
694.44	1791.97
694.63	1748.97
694.81	1591.27
695.00	1685.48
695.18	1722.34
695.37	1873.89
695.55	1720.29
695.74	1689.57
695.92	1701.86
696.10	1748.97
696.29	1626.09
696.47	1601.51
696.66	1726.44
696.84	1634.28
697.03	1714.15
697.21	1800.16
697.40	2334.68
697.58	1849.32
697.76	1654.76
697.95	1589.22
698.13	1675.24
698.32	1714.15
698.50	1791.97
698.68	1763.30
698.87	1744.87
699.05	1906.66
699.24	1767.40
699.42	1615.85
699.61	1671.14
699.79	1695.72
699.97	1767.40
700.16	1724.39
700.34	1660.90
700.53	1730.53
700.71	1773.54
700.89	1777.64
701.08	1671.14
701.26	1703.91
701.45	2074.59
701.63	1652.71
701.81	1640.42
702.00	1722.34
702.18	1738.73
702.37	1798.12
702.55	1904.61
702.73	1853.41
702.92	1884.13
703.10	2009.06
703.28	1964.00
703.47	1830.88
703.65	1892.32
703.84	1892.32
704.02	1830.88
704.20	1806.31
704.39	1826.79
704.57	1781.73
704.75	1861.60
704.94	1839.08
705.12	1890.28
705.30	1814.50
705.49	2488.28
705.67	5478.32
705.86	13274.93
706.04	19097.31
706.22	22683.30
706.41	24993.41
706.59	24534.67
706.77	19015.39
706.96	13618.99
707.14	11767.63
707.32	9963.37
707.51	9039.73
707.69	7720.84
707.87	6750.10
708.06	5472.17
708.24	4247.49
708.42	3295.18
708.61	2772.95
708.79	2326.49
708.97	2078.69
709.16	1976.29
709.34	1920.99
709.52	1748.97
709.71	1738.73
709.89	1839.08
710.07	1652.71
710.26	1689.57
710.44	1738.73
710.62	1781.73
710.80	1804.26
710.99	1812.45
711.17	1798.12
711.35	1755.11
711.54	1701.86
711.72	1849.32
711.90	1808.36
712.09	1714.15
712.27	1724.39
712.45	1779.68
712.63	1738.73
712.82	1705.96
713.00	1720.29
713.18	1783.78
713.37	1820.64
713.55	1669.09
713.73	1708.01
713.91	1718.25
714.10	1730.53
714.28	1718.25
714.46	1742.82
714.65	1695.72
714.83	1742.82
715.01	1796.07
715.19	1683.43
715.38	1722.34
715.56	1730.53
715.74	1626.09
715.92	1615.85
716.11	1847.27
716.29	1642.47
716.47	1636.33
716.65	1691.62
716.84	1652.71
717.02	1734.63
717.20	1636.33
717.38	1656.81
717.57	1761.25
717.75	1755.11
717.93	1726.44
718.11	1689.57
718.30	1755.11
718.48	1679.33
718.66	1759.21
718.84	1824.74
719.03	1697.77
719.21	1681.38
719.39	1779.68
719.57	1771.49
719.75	1806.31
719.94	1660.90
720.12	1662.95
720.30	1712.10
720.48	1791.97
720.67	1697.77
720.85	1667.05
721.03	1722.34
721.21	1736.68
721.39	1814.50
721.58	1738.73
721.76	1656.81
721.94	1736.68
722.12	1673.19
722.30	1869.80
722.49	1722.34
722.67	1832.93
722.85	1665.00
723.03	1689.57
723.21	1689.57
723.40	1744.87
723.58	1851.36
723.76	1810.40
723.94	1837.03
724.12	1763.30
724.30	1943.52
724.49	1865.70
724.67	1746.92
724.85	1814.50
725.03	1667.05
725.21	1771.49
725.40	1714.15
725.58	1726.44
725.76	1816.55
725.94	1740.77
726.12	1642.47
726.30	1601.51
726.49	1658.85
726.67	1757.16
726.85	1751.01
727.03	1775.59
727.21	2265.05
727.39	3366.86
727.57	4992.95
727.76	5644.20
727.94	6207.39
728.12	6223.78
728.30	5728.17
728.48	4523.96
728.66	3934.15
728.84	3647.43
729.03	3260.37
729.21	2785.24
729.39	2418.65
729.57	2127.84
729.75	1943.52
729.93	1943.52
730.11	1755.11
730.30	1701.86
730.48	1708.01
730.66	1767.40
730.84	1783.78
731.02	1771.49
731.20	1751.01
731.38	1734.63
731.56	1691.62
731.74	1693.67
731.93	1658.85
732.11	1710.05
732.29	1796.07
732.47	1769.44
732.65	1675.24
732.83	1693.67
733.01	1794.02
733.19	1722.34
733.37	1683.43
733.56	1746.92
733.74	1742.82
733.92	1837.03
734.10	1658.85
734.28	1669.09
734.46	1665.00
734.64	1626.09
734.82	1742.82
735.00	1730.53
735.18	1693.67
735.36	1705.96
735.54	1673.19
735.73	1703.91
735.91	1740.77
736.09	1810.40
736.27	1742.82
736.45	1720.29
736.63	1732.58
736.81	1693.67
736.99	1742.82
737.17	1791.97
737.35	1714.15
737.53	1755.11
737.71	1742.82
737.89	1769.44
738.07	1656.81
738.25	1714.15
738.43	1621.99
738.61	1748.97
738.80	1603.56
738.98	1685.48
739.16	1658.85
739.34	1712.10
739.52	1802.21
739.70	1720.29
739.88	1769.44
740.06	1722.34
740.24	1650.66
740.42	1785.83
740.60	1583.08
740.78	1689.57
740.96	1644.52
741.14	1593.32
741.32	1720.29
741.50	1626.09
741.68	1865.70
741.86	1730.53
742.04	1671.14
742.22	1656.81
742.40	1642.47
742.58	1753.06
742.76	1693.67
742.94	1777.64
743.12	1628.14
743.30	1777.64
743.48	1796.07
743.66	1634.28
743.84	1705.96
744.02	1728.49
744.20	1705.96
744.38	1722.34
744.56	1683.43
744.74	1800.16
744.92	1720.29
745.10	1771.49
745.28	1828.84
745.46	1740.77
745.64	1691.62
745.82	1753.06
746.00	1691.62
746.18	1798.12
746.36	1660.90
746.54	1755.11
746.72	1628.14
746.90	1626.09
747.08	1751.01
747.26	1599.46
747.44	1839.08
747.62	1763.30
747.80	1652.71
747.98	1748.97
748.15	1753.06
748.33	1832.93
748.51	1724.39
748.69	1738.73
748.87	1574.89
749.05	1736.68
749.23	1753.06
749.41	1730.53
749.59	1644.52
749.77	1757.16
749.95	1722.34
750.13	1615.85
750.31	1785.83
750.49	1683.43
750.67	1705.96
750.85	1837.03
751.03	1677.29
751.20	1771.49
751.38	1689.57
751.56	1681.38
751.74	1748.97
751.92	1710.05
752.10	1607.66
752.28	1744.87
752.46	1656.81
752.64	1734.63
752.82	1714.15
753.00	1759.21
753.18	1783.78
753.35	1710.05
753.53	1708.01
753.71	1720.29
753.89	1722.34
754.07	1777.64
754.25	1759.21
754.43	1740.77
754.61	1683.43
754.79	1744.87
754.97	1683.43
755.14	1863.65
755.32	1658.85
755.50	1685.48
755.68	1699.81
755.86	1574.89
756.04	1681.38
756.22	1617.90
756.40	1701.86
756.57	1886.18
756.75	1716.20
756.93	1800.16
757.11	1808.36
757.29	1617.90
757.47	1660.90
757.65	1599.46
757.82	1644.52
758.00	1665.00
758.18	1665.00
758.36	1621.99
758.54	1787.88
758.72	1578.98
758.90	1718.25
759.07	1761.25
759.25	1742.82
759.43	1755.11
759.61	1669.09
759.79	2142.18
759.97	1699.81
760.15	1720.29
760.32	1691.62
760.50	1759.21
760.68	1751.01
760.86	1665.00
761.04	1771.49
761.22	1732.58
761.39	1658.85
761.57	1695.72
761.75	1714.15
761.93	1728.49
762.11	1708.01
762.28	1738.73
762.46	1691.62
762.64	1724.39
762.82	1542.12
763.00	1630.18
763.18	1744.87
763.35	1595.37
763.53	1763.30
763.71	1665.00
763.89	1730.53
764.07	1718.25
764.24	1783.78
764.42	1779.68
764.60	1722.34
764.78	1748.97
764.96	1787.88
765.13	1802.21
765.31	1695.72
765.49	1755.11
765.67	1591.27
765.84	1636.33
766.02	1683.43
766.20	1632.23
766.38	1669.09
766.56	1697.77
766.73	1730.53
766.91	1783.78
767.09	1671.14
767.27	1650.66
767.44	1665.00
767.62	1814.50
767.80	1775.59
767.98	1660.90
768.15	1705.96
768.33	1787.88
768.51	1763.30
768.69	1880.04
768.87	1705.96
769.04	1681.38
769.22	1851.36
769.40	1826.79
769.58	1882.08
769.75	1695.72
769.93	1822.69
770.11	1673.19
770.28	1738.73
770.46	1785.83
770.64	1699.81
770.82	1703.91
770.99	1724.39
771.17	1714.15
771.35	1714.15
771.53	1744.87
771.70	1771.49
771.88	1703.91
772.06	1755.11
772.23	1671.14
772.41	1675.24
772.59	1667.05
772.77	1763.30
772.94	1720.29
773.12	1689.57
773.30	1689.57
773.47	1708.01
773.65	1605.61
773.83	1779.68
774.01	1673.19
774.18	1673.19
774.36	1679.33
774.54	1687.53
774.71	1730.53
774.89	1662.95
775.07	1628.14
775.24	1671.14
775.42	1697.77
775.60	1834.98
775.78	1673.19
775.95	1689.57
776.13	1578.98
776.31	1626.09
776.48	1722.34
776.66	1730.53
776.84	1656.81
777.01	1609.70
777.19	1695.72
777.37	1665.00
777.54	1687.53
777.72	1781.73
777.90	1685.48
778.07	1636.33
778.25	1906.66
778.43	1753.06
778.60	1650.66
778.78	1771.49
778.96	1716.20
779.13	1634.28
779.31	1712.10
779.49	1669.09
779.66	1730.53
779.84	1658.85
780.01	1736.68
780.19	1660.90
780.37	1779.68
780.54	1718.25
780.72	1726.44
780.90	1732.58
781.07	1621.99
781.25	1671.14
781.43	1734.63
781.60	1697.77
781.78	1830.88
781.95	1687.53
782.13	1716.20
782.31	1734.63
782.48	1585.13
782.66	1675.24
782.83	1746.92
783.01	1771.49
783.19	1693.67
783.36	1652.71
783.54	1615.85
783.72	1724.39
783.89	1675.24
784.07	1638.38
784.24	1755.11
784.42	1769.44
784.60	1677.29
784.77	1669.09
784.95	1599.46
785.12	1673.19
785.30	1660.90
785.47	1650.66
785.65	1621.99
785.83	1732.58
786.00	1632.23
786.18	1773.54
786.35	1695.72
786.53	1591.27
786.71	1656.81
786.88	1705.96
787.06	1669.09
787.23	1691.62
787.41	1693.67
787.58	1691.62
787.76	1685.48
787.94	1722.34
788.11	1669.09
788.29	1650.66
788.46	1632.23
788.64	1658.85
788.81	1724.39
788.99	1648.61
789.16	1634.28
789.34	1701.86
789.52	1689.57
789.69	1658.85
789.87	1632.23
790.04	1662.95
790.22	1722.34
790.39	1808.36
790.57	1658.85
790.74	1689.57
790.92	1763.30
791.09	1656.81
791.27	1576.94
791.44	1746.92
791.62	1699.81
791.79	1708.01
791.97	1648.61
792.15	1839.08
792.32	1740.77
792.50	1695.72
792.67	1742.82
792.85	1761.25
793.02	1734.63
793.20	1665.00
793.37	1591.27
793.55	1740.77
793.72	1658.85
793.90	1781.73
794.07	1722.34
794.25	1652.71
794.42	1769.44
794.60	1732.58
794.77	1732.58
794.95	1781.73
795.12	1767.40
795.30	1732.58
795.47	1652.71
795.65	1839.08
795.82	1722.34
796.00	1665.00
796.17	1785.83
796.34	1689.57
796.52	1746.92
796.69	1814.50
796.87	1720.29
797.04	1726.44
797.22	1822.69
797.39	1746.92
797.57	1732.58
797.74	1695.72
797.92	1806.31
798.09	1681.38
798.27	1798.12
798.44	1683.43
798.62	1619.94
798.79	1671.14
798.96	1736.68
799.14	1667.05
799.31	1910.75
799.49	1683.43
799.66	1671.14
799.84	1761.25
800.01	1660.90
800.19	1705.96
800.36	1605.61
800.53	1718.25
800.71	1726.44
800.88	1771.49
801.06	1644.52
801.23	1667.05
801.41	1626.09
801.58	1718.25
801.75	1716.20
801.93	1767.40
802.10	1757.16
802.28	1673.19
802.45	1708.01
802.63	1738.73
802.80	1794.02
802.97	1599.46
803.15	1669.09
803.32	1724.39
803.50	1675.24
803.67	1712.10
803.84	1669.09
804.02	1742.82
804.19	1656.81
804.37	1626.09
804.54	1603.56
804.71	1679.33
804.89	1785.83
805.06	1648.61
805.24	1578.98
805.41	1683.43
805.58	1685.48
805.76	1828.84
805.93	1800.16
806.10	1861.60
806.28	1769.44
806.45	1734.63
806.63	1730.53
806.80	1718.25
806.97	1755.11
807.15	1789.92
807.32	1726.44
807.49	1714.15
807.67	1640.42
807.84	1675.24
808.01	1640.42
808.19	1818.60
808.36	1916.90
808.54	1710.05
808.71	1732.58
808.88	1681.38
809.06	1771.49
809.23	1777.64
809.40	1646.57
809.58	1773.54
809.75	1697.77
809.92	1607.66
810.10	1877.99
810.27	1654.76
810.44	1746.92
810.62	1730.53
810.79	1695.72
810.96	1667.05
811.14	1662.95
811.31	1732.58
811.48	1763.30
811.66	1634.28
811.83	1675.24
812.00	1769.44
812.18	1681.38
812.35	1826.79
812.52	1701.86
812.69	1693.67
812.87	1722.34
813.04	1621.99
813.21	1724.39
813.39	1648.61
813.56	1595.37
813.73	1767.40
813.91	1665.00
814.08	1695.72
814.25	1736.68
814.42	1687.53
814.60	1646.57
814.77	1722.34
814.94	1691.62
815.12	1718.25
815.29	1853.41
815.46	1669.09
815.63	1742.82
815.81	1656.81
815.98	1665.00
816.15	1759.21
816.33	1724.39
816.50	1742.82
816.67	1681.38
816.84	1638.38
817.02	1640.42
817.19	1699.81
817.36	1724.39
817.53	1757.16
817.71	1667.05
817.88	1708.01
818.05	1734.63
818.22	1712.10
818.40	1822.69
818.57	1662.95
818.74	1699.81
818.91	1705.96
819.09	1820.64
819.26	1773.54
819.43	1650.66
819.60	1783.78
819.78	1648.61
819.95	1773.54
820.12	1648.61
820.29	1726.44
820.47	1773.54
820.64	1595.37
820.81	1662.95
820.98	1615.85
821.15	1652.71
821.33	1701.86
821.50	1638.38
821.67	1724.39
821.84	1681.38
822.02	1773.54
822.19	1777.64
822.36	1628.14
822.53	1714.15
822.70	1671.14
822.88	1593.32
823.05	1759.21
823.22	1712.10
823.39	1736.68
823.56	1697.77
823.74	1875.94
823.91	1576.94
824.08	1677.29
824.25	1675.24
824.42	1804.26
824.60	1656.81
824.77	1791.97
824.94	1693.67
825.11	1773.54
825.28	1624.04
825.45	1669.09
825.63	1687.53
825.80	1665.00
825.97	1703.91
826.14	1673.19
826.31	1611.75
826.48	1751.01
826.66	1658.85
826.83	1654.76
827.00	1730.53
827.17	1705.96
827.34	1748.97
827.51	1652.71
827.69	1705.96
827.86	1628.14
828.03	1712.10
828.20	1689.57
828.37	1763.30
828.54	1685.48
828.71	1619.94
828.89	1785.83
829.06	1691.62
829.23	1787.88
829.40	1630.18
829.57	1660.90
829.74	1810.40
829.91	1742.82
830.09	1744.87
830.26	1740.77
830.43	1798.12
830.60	1701.86
830.77	1767.40
830.94	1822.69
831.11	1794.02
831.28	1669.09
831.46	1779.68
831.63	1679.33
831.80	1746.92
831.97	1665.00
832.14	1624.04
832.31	1724.39
832.48	1742.82
832.65	1751.01
832.82	1697.77
832.99	1771.49
833.17	1675.24
833.34	1828.84
833.51	1759.21
833.68	1628.14
833.85	1714.15
834.02	1716.20
834.19	1675.24
834.36	1648.61
834.53	1730.53
834.70	1808.36
834.87	1699.81
835.04	1769.44
835.22	1738.73
835.39	1759.21
835.56	1599.46
835.73	1671.14
835.90	1779.68
836.07	1630.18
836.24	1720.29
836.41	1632.23
836.58	1648.61
836.75	1796.07
836.92	1738.73
837.09	1742.82
837.26	1710.05
837.43	1757.16
837.60	1691.62
837.77	1636.33
837.94	1718.25
838.12	1697.77
838.29	1693.67
838.46	1609.70
838.63	1673.19
838.80	1781.73
838.97	1738.73
839.14	1759.21
839.31	1775.59
839.48	1777.64
839.65	1701.86
839.82	1699.81
839.99	1691.62
840.16	1640.42
840.33	1685.48
840.50	1722.34
840.67	1673.19
840.84	1583.08
841.01	1691.62
841.18	1665.00
841.35	1683.43
841.52	1705.96
841.69	1894.37
841.86	1697.77
842.03	1783.78
842.20	1695.72
842.37	1740.77
842.54	1722.34
842.71	1662.95
842.88	1714.15
843.05	1757.16
843.22	1705.96
843.39	1781.73
843.56	1581.03
843.73	1746.92
843.90	1767.40
844.07	1695.72
844.24	1730.53
844.41	1718.25
844.58	1724.39
844.75	1667.05
844.92	1800.16
845.09	1689.57
845.26	1695.72
845.43	1712.10
845.60	1703.91
845.77	1753.06
845.94	1730.53
846.10	1783.78
846.27	1669.09
846.44	1660.90
846.61	1642.47
846.78	1679.33
846.95	1705.96
847.12	1740.77
847.29	1656.81
847.46	1656.81
847.63	1742.82
847.80	1683.43
847.97	1757.16
848.14	1863.65
848.31	1736.68
848.48	1576.94
848.65	1830.88
848.82	1701.86
848.98	1886.18
849.15	1689.57
849.32	1708.01
849.49	1748.97
849.66	1673.19
849.83	1701.86
850.00	1632.23
850.17	1724.39
850.34	1736.68
850.51	1648.61
850.68	1648.61
850.85	1851.36
851.01	1714.15
851.18	1714.15
851.35	1859.56
851.52	1783.78
851.69	1822.69
851.86	1644.52
852.03	1669.09
852.20	1791.97
852.37	1771.49
852.53	1632.23
852.70	1693.67
852.87	1767.40
853.04	1746.92
853.21	1693.67
853.38	1781.73
853.55	1726.44
853.72	1738.73
853.89	1621.99
854.05	1632.23
854.22	1685.48
854.39	1695.72
854.56	1718.25
854.73	1697.77
854.90	1708.01
855.07	1617.90
855.23	1710.05
855.40	1701.86
855.57	1724.39
855.74	1617.90
855.91	1804.26
856.08	1714.15
856.25	1644.52
856.41	1710.05
856.58	1689.57
856.75	1642.47
856.92	1636.33
857.09	1722.34
857.26	1718.25
857.42	1683.43
857.59	1689.57
857.76	1683.43
857.93	1787.88
858.10	1742.82
858.27	1615.85
858.43	1716.20
858.60	1662.95
858.77	1628.14
858.94	1689.57
859.11	1718.25
859.27	1689.57
859.44	1628.14
859.61	1759.21
859.78	1746.92
859.95	1687.53
860.12	1689.57
860.28	1908.71
860.45	1824.74
860.62	1742.82
860.79	1701.86
860.95	1619.94
861.12	1642.47
861.29	1753.06
861.46	1636.33
861.63	1705.96
861.79	1603.56
861.96	1648.61
862.13	1615.85
862.30	1796.07
862.47	1660.90
862.63	1679.33
862.80	1796.07
862.97	1685.48
863.14	1675.24
863.30	1673.19
863.47	1683.43
863.64	1755.11
863.81	1763.30
863.97	1673.19
864.14	1730.53
864.31	1716.20
864.48	1708.01
864.65	1693.67
864.81	1660.90
864.98	1783.78
865.15	1732.58
865.32	1730.53
865.48	1816.55
865.65	1773.54
865.82	1669.09
865.98	1716.20
866.15	1765.35
866.32	1652.71
866.49	1681.38
866.65	1794.02
866.82	1665.00
866.99	1701.86
867.16	1683.43
867.32	1632.23
867.49	1673.19
867.66	1722.34
867.83	1593.32
867.99	1687.53
868.16	1597.42
868.33	1595.37
868.49	1708.01
868.66	1740.77
868.83	1751.01
868.99	1695.72
869.16	1769.44
869.33	1697.77
869.50	1701.86
869.66	1730.53
869.83	1710.05
870.00	1583.08
870.16	1718.25
870.33	1650.66
870.50	1734.63
870.66	1712.10
870.83	1822.69
871.00	1681.38
871.17	1703.91
871.33	1783.78
871.50	1646.57
871.67	1658.85
871.83	1624.04
872.00	1800.16
872.17	1726.44
872.33	1814.50
872.50	1755.11
872.67	1681.38
872.83	1648.61
873.00	1718.25
873.17	1789.92
873.33	1773.54
873.50	1732.58
873.67	1703.91
873.83	1681.38
874.00	1621.99
874.16	1843.17
874.33	1673.19
874.50	1658.85
874.66	1773.54
874.83	1705.96
875.00	1714.15
875.16	1744.87
875.33	1816.55
875.50	1632.23
875.66	1701.86
875.83	1716.20
875.99	1753.06
876.16	1673.19
876.33	1601.51
876.49	1701.86
876.66	1675.24
876.83	1660.90
876.99	1619.94
877.16	1716.20
877.32	1699.81
877.49	1640.42
877.66	1744.87
877.82	1753.06
877.99	1783.78
878.15	1753.06
878.32	1734.63
878.49	1681.38
878.65	1650.66
878.82	1773.54
878.98	1681.38
879.15	1789.92
879.32	1724.39
879.48	1665.00
879.65	1650.66
879.81	1644.52
879.98	1722.34
880.15	1740.77
880.31	1830.88
880.48	1642.47
880.64	1773.54
880.81	1708.01
880.97	1812.45
881.14	1789.92
881.31	1650.66
881.47	1798.12
881.64	1665.00
881.80	1601.51
881.97	1740.77
882.13	1783.78
882.30	1665.00
882.47	1724.39
882.63	1648.61
882.80	1624.04
882.96	1662.95
883.13	1730.53
883.29	1691.62
883.46	1667.05
883.62	1824.74
883.79	1681.38
883.95	1705.96
884.12	1757.16
884.29	1777.64
884.45	1716.20
884.62	1699.81
884.78	1630.18
884.95	1757.16
885.11	1642.47
885.28	1667.05
885.44	1660.90
885.61	1734.63
885.77	1820.64
885.94	1705.96
886.10	1708.01
886.27	1746.92
886.43	1845.22
886.60	1781.73
886.76	1720.29
886.93	1708.01
887.09	1726.44
887.26	1613.80
887.42	1742.82
887.59	1708.01
887.75	1818.60
887.92	1820.64
888.08	1697.77
888.25	1785.83
888.41	1714.15
888.58	1628.14
888.74	1691.62
888.91	1650.66
>>>>>End Processed Spectral Data<<<<<
