SpectraSuite Data File
++++++++++++++++++++++++++++++++++++
Date: Wed May 04 18:44:47 CEST 2016
User: root
Dark Spectrum Present: No
Reference Spectrum Present: No
Number of Sampled Component Spectra: 1
Spectrometers: USB4C02835
Integration Time (usec): 100000 (USB4C02835)
Spectra Averaged: 1 (USB4C02835)
Boxcar Smoothing: 0 (USB4C02835)
Correct for Electrical Dark: No (USB4C02835)
Strobe/Lamp Enabled: No (USB4C02835)
Correct for Detector Non-linearity: No (USB4C02835)
Correct for Stray Light: No (USB4C02835)
Number of Pixels in Processed Spectrum: 3648
>>>>>Begin Processed Spectral Data<<<<<
177.47	1456.11
177.69	1456.11
177.91	1456.11
178.13	1425.39
178.36	1544.17
178.58	1703.91
178.80	1732.58
179.02	1628.14
179.24	1628.14
179.46	1730.53
179.68	1802.21
179.90	1705.96
180.13	1685.48
180.35	1679.33
180.57	1683.43
180.79	1761.25
181.01	1787.88
181.23	1742.82
181.45	1890.28
181.67	1681.38
181.90	1767.40
182.12	1677.29
182.34	1564.65
182.56	1734.63
182.78	1677.29
183.00	1681.38
183.22	1693.67
183.44	1607.66
183.66	1894.37
183.89	1734.63
184.11	1738.73
184.33	1718.25
184.55	1783.78
184.77	1761.25
184.99	1697.77
185.21	1685.48
185.43	1847.27
185.65	1660.90
185.87	1685.48
186.10	1888.23
186.32	1771.49
186.54	1771.49
186.76	1734.63
186.98	1744.87
187.20	1753.06
187.42	1650.66
187.64	1720.29
187.86	1761.25
188.08	1884.13
188.30	1683.43
188.52	1687.53
188.75	1798.12
188.97	1705.96
189.19	1689.57
189.41	1687.53
189.63	1755.11
189.85	1619.94
190.07	1652.71
190.29	1601.51
190.51	1800.16
190.73	1681.38
190.95	1771.49
191.17	1693.67
191.39	1665.00
191.61	1722.34
191.84	1683.43
192.06	1783.78
192.28	1617.90
192.50	1865.70
192.72	1712.10
192.94	1722.34
193.16	1724.39
193.38	1726.44
193.60	1644.52
193.82	1660.90
194.04	1710.05
194.26	1722.34
194.48	1699.81
194.70	1724.39
194.92	1689.57
195.14	1722.34
195.36	1685.48
195.58	1757.16
195.80	1650.66
196.02	1689.57
196.24	1703.91
196.46	1740.77
196.69	1638.38
196.91	1796.07
197.13	1652.71
197.35	1718.25
197.57	1773.54
197.79	1703.91
198.01	1689.57
198.23	1757.16
198.45	1804.26
198.67	1669.09
198.89	1697.77
199.11	1751.01
199.33	1619.94
199.55	1556.46
199.77	1703.91
199.99	1761.25
200.21	1673.19
200.43	1720.29
200.65	1687.53
200.87	1576.94
201.09	1636.33
201.31	1697.77
201.53	1763.30
201.75	1683.43
201.97	1665.00
202.19	1679.33
202.41	1677.29
202.63	1822.69
202.85	1712.10
203.07	1722.34
203.29	1619.94
203.51	1683.43
203.73	1632.23
203.95	1896.42
204.17	1826.79
204.39	1755.11
204.61	1701.86
204.83	1675.24
205.05	1738.73
205.27	1722.34
205.49	1834.98
205.71	1720.29
205.93	1630.18
206.15	1646.57
206.37	1671.14
206.59	1642.47
206.81	1648.61
207.03	1660.90
207.25	1652.71
207.47	1763.30
207.69	1689.57
207.91	1773.54
208.13	1761.25
208.34	1662.95
208.56	1689.57
208.78	1802.21
209.00	1656.81
209.22	1681.38
209.44	1656.81
209.66	1736.68
209.88	1636.33
210.10	1685.48
210.32	1710.05
210.54	1781.73
210.76	1671.14
210.98	1804.26
211.20	1574.89
211.42	1759.21
211.64	1769.44
211.86	1673.19
212.08	1738.73
212.30	1726.44
212.52	1665.00
212.74	1759.21
212.96	1732.58
213.17	1726.44
213.39	1734.63
213.61	1796.07
213.83	1771.49
214.05	1701.86
214.27	1734.63
214.49	1632.23
214.71	1683.43
214.93	1744.87
215.15	1681.38
215.37	1781.73
215.59	1669.09
215.81	1714.15
216.03	1765.35
216.24	1650.66
216.46	1810.40
216.68	1708.01
216.90	1830.88
217.12	1720.29
217.34	1665.00
217.56	1660.90
217.78	1769.44
218.00	1705.96
218.22	1775.59
218.44	1724.39
218.66	1765.35
218.87	1806.31
219.09	1734.63
219.31	1755.11
219.53	1705.96
219.75	1642.47
219.97	1716.20
220.19	1761.25
220.41	1689.57
220.63	1761.25
220.85	1689.57
221.06	1705.96
221.28	1771.49
221.50	1720.29
221.72	1714.15
221.94	1679.33
222.16	1652.71
222.38	1783.78
222.60	1742.82
222.82	1703.91
223.03	1787.88
223.25	1605.61
223.47	1712.10
223.69	1855.46
223.91	1683.43
224.13	1734.63
224.35	1722.34
224.57	1779.68
224.78	1687.53
225.00	1673.19
225.22	1689.57
225.44	1697.77
225.66	1755.11
225.88	1710.05
226.10	1783.78
226.32	1738.73
226.53	1796.07
226.75	1691.62
226.97	1732.58
227.19	1712.10
227.41	1726.44
227.63	1652.71
227.85	1617.90
228.06	1759.21
228.28	1720.29
228.50	1724.39
228.72	1687.53
228.94	1732.58
229.16	1578.98
229.37	1607.66
229.59	1689.57
229.81	1783.78
230.03	1673.19
230.25	1669.09
230.47	1576.94
230.69	1648.61
230.90	1765.35
231.12	1697.77
231.34	1730.53
231.56	1808.36
231.78	1652.71
232.00	1701.86
232.21	1724.39
232.43	1789.92
232.65	1583.08
232.87	1679.33
233.09	1685.48
233.30	1644.52
233.52	1855.46
233.74	1763.30
233.96	1665.00
234.18	1720.29
234.40	1701.86
234.61	1845.22
234.83	1685.48
235.05	1607.66
235.27	1822.69
235.49	1751.01
235.70	1687.53
235.92	1814.50
236.14	1714.15
236.36	1841.12
236.58	1669.09
236.79	1685.48
237.01	1652.71
237.23	1644.52
237.45	1828.84
237.67	1685.48
237.88	1669.09
238.10	1882.08
238.32	1712.10
238.54	1634.28
238.76	1681.38
238.97	1685.48
239.19	1648.61
239.41	1779.68
239.63	1763.30
239.85	1652.71
240.06	1638.38
240.28	1634.28
240.50	1787.88
240.72	1669.09
240.93	1755.11
241.15	1722.34
241.37	1685.48
241.59	1789.92
241.81	1685.48
242.02	1609.70
242.24	1755.11
242.46	1730.53
242.68	1656.81
242.89	1691.62
243.11	1732.58
243.33	1697.77
243.55	1683.43
243.76	1689.57
243.98	1689.57
244.20	1732.58
244.42	1722.34
244.64	1718.25
244.85	1607.66
245.07	1648.61
245.29	1726.44
245.51	1722.34
245.72	1722.34
245.94	1812.45
246.16	1712.10
246.38	1822.69
246.59	1626.09
246.81	1685.48
247.03	1662.95
247.24	1699.81
247.46	1728.49
247.68	1728.49
247.90	1703.91
248.11	1679.33
248.33	1734.63
248.55	1730.53
248.77	1724.39
248.98	1722.34
249.20	1720.29
249.42	1708.01
249.64	1800.16
249.85	1736.68
250.07	1697.77
250.29	1771.49
250.50	1740.77
250.72	1687.53
250.94	1679.33
251.16	1820.64
251.37	1734.63
251.59	1689.57
251.81	1748.97
252.02	1751.01
252.24	1656.81
252.46	1751.01
252.68	1644.52
252.89	1759.21
253.11	1636.33
253.33	1773.54
253.54	1816.55
253.76	1660.90
253.98	1701.86
254.20	1656.81
254.41	1621.99
254.63	1730.53
254.85	1681.38
255.06	1654.76
255.28	1730.53
255.50	1603.56
255.71	1673.19
255.93	1646.57
256.15	1716.20
256.36	1777.64
256.58	1714.15
256.80	1761.25
257.02	1759.21
257.23	1617.90
257.45	1708.01
257.67	1787.88
257.88	1613.80
258.10	1724.39
258.32	1757.16
258.53	1734.63
258.75	1794.02
258.97	1630.18
259.18	1800.16
259.40	1718.25
259.62	1869.80
259.83	1714.15
260.05	1746.92
260.27	1974.24
260.48	1763.30
260.70	1636.33
260.92	1763.30
261.13	1722.34
261.35	1710.05
261.57	1648.61
261.78	1613.80
262.00	1648.61
262.22	1759.21
262.43	1701.86
262.65	1669.09
262.86	1697.77
263.08	1849.32
263.30	1708.01
263.51	1714.15
263.73	1601.51
263.95	1828.84
264.16	1658.85
264.38	1673.19
264.60	1791.97
264.81	1771.49
265.03	1689.57
265.25	1773.54
265.46	1697.77
265.68	1738.73
265.89	1839.08
266.11	1671.14
266.33	1830.88
266.54	1810.40
266.76	1716.20
266.98	1783.78
267.19	1837.03
267.41	1761.25
267.62	1693.67
267.84	1634.28
268.06	1673.19
268.27	1775.59
268.49	1777.64
268.70	1732.58
268.92	1611.75
269.14	1607.66
269.35	1693.67
269.57	1701.86
269.79	1755.11
270.00	1681.38
270.22	1744.87
270.43	1619.94
270.65	1558.50
270.87	1705.96
271.08	1740.77
271.30	1775.59
271.51	1748.97
271.73	1710.05
271.95	1816.55
272.16	1732.58
272.38	1714.15
272.59	1642.47
272.81	1710.05
273.02	1753.06
273.24	1722.34
273.46	1771.49
273.67	1640.42
273.89	1673.19
274.10	1660.90
274.32	1783.78
274.54	1751.01
274.75	1757.16
274.97	1720.29
275.18	1755.11
275.40	1722.34
275.61	1701.86
275.83	1685.48
276.05	1638.38
276.26	1708.01
276.48	1710.05
276.69	1693.67
276.91	1671.14
277.12	1804.26
277.34	1789.92
277.55	1820.64
277.77	1755.11
277.99	1714.15
278.20	1646.57
278.42	1665.00
278.63	1671.14
278.85	1589.22
279.06	1636.33
279.28	1667.05
279.49	1720.29
279.71	1789.92
279.93	1671.14
280.14	1732.58
280.36	1648.61
280.57	1746.92
280.79	1767.40
281.00	1621.99
281.22	1695.72
281.43	1726.44
281.65	1568.74
281.86	1691.62
282.08	1757.16
282.29	1802.21
282.51	1603.56
282.73	1689.57
282.94	1642.47
283.16	1708.01
283.37	1847.27
283.59	1697.77
283.80	1665.00
284.02	1742.82
284.23	1738.73
284.45	1658.85
284.66	1626.09
284.88	1634.28
285.09	1722.34
285.31	1730.53
285.52	1687.53
285.74	1634.28
285.95	1734.63
286.17	1691.62
286.38	1767.40
286.60	1783.78
286.81	1660.90
287.03	1712.10
287.24	1609.70
287.46	1781.73
287.67	1753.06
287.89	1841.12
288.10	1675.24
288.32	1751.01
288.53	1744.87
288.75	1740.77
288.96	1802.21
289.18	1744.87
289.39	1697.77
289.61	1771.49
289.82	1849.32
290.04	1761.25
290.25	1656.81
290.47	1685.48
290.68	1638.38
290.90	1734.63
291.11	1648.61
291.33	1757.16
291.54	1673.19
291.76	1652.71
291.97	1679.33
292.18	1753.06
292.40	1691.62
292.61	1667.05
292.83	1820.64
293.04	1798.12
293.26	1718.25
293.47	1779.68
293.69	1656.81
293.90	1718.25
294.12	1789.92
294.33	1720.29
294.55	1697.77
294.76	1746.92
294.97	1767.40
295.19	1855.46
295.40	1630.18
295.62	1769.44
295.83	1808.36
296.05	1675.24
296.26	1785.83
296.48	1673.19
296.69	1726.44
296.90	1718.25
297.12	1779.68
297.33	1683.43
297.55	1726.44
297.76	1710.05
297.98	1761.25
298.19	1701.86
298.41	1660.90
298.62	1667.05
298.83	1794.02
299.05	1722.34
299.26	1703.91
299.48	1695.72
299.69	1757.16
299.90	1720.29
300.12	1669.09
300.33	1744.87
300.55	1722.34
300.76	1710.05
300.98	1593.32
301.19	1761.25
301.40	1716.20
301.62	1644.52
301.83	1665.00
302.05	1740.77
302.26	1771.49
302.47	1730.53
302.69	1699.81
302.90	1763.30
303.12	1642.47
303.33	1703.91
303.54	1824.74
303.76	1726.44
303.97	1714.15
304.19	1832.93
304.40	1671.14
304.61	1722.34
304.83	1779.68
305.04	1763.30
305.26	1748.97
305.47	1632.23
305.68	1734.63
305.90	1679.33
306.11	1708.01
306.33	1669.09
306.54	1781.73
306.75	1589.22
306.97	1642.47
307.18	1675.24
307.39	1730.53
307.61	1789.92
307.82	1722.34
308.04	1771.49
308.25	1605.61
308.46	1730.53
308.68	1746.92
308.89	1732.58
309.10	1857.51
309.32	1765.35
309.53	1701.86
309.74	1802.21
309.96	1746.92
310.17	1796.07
310.39	1662.95
310.60	1763.30
310.81	1667.05
311.03	1714.15
311.24	1761.25
311.45	1691.62
311.67	1853.41
311.88	1722.34
312.09	1769.44
312.31	1656.81
312.52	1703.91
312.73	1736.68
312.95	1613.80
313.16	1654.76
313.37	1710.05
313.59	1703.91
313.80	1695.72
314.01	1820.64
314.23	1617.90
314.44	1705.96
314.65	1624.04
314.87	1660.90
315.08	1679.33
315.29	1710.05
315.51	1765.35
315.72	1699.81
315.93	1828.84
316.15	1771.49
316.36	1710.05
316.57	1761.25
316.79	1697.77
317.00	1677.29
317.21	1771.49
317.43	1640.42
317.64	1652.71
317.85	1683.43
318.07	1710.05
318.28	1783.78
318.49	1841.12
318.70	1988.58
318.92	1875.94
319.13	1853.41
319.34	1875.94
319.56	1894.37
319.77	1894.37
319.98	1724.39
320.20	1849.32
320.41	1789.92
320.62	1783.78
320.83	1662.95
321.05	1847.27
321.26	1781.73
321.47	1759.21
321.69	1716.20
321.90	1630.18
322.11	1621.99
322.32	1708.01
322.54	1753.06
322.75	1687.53
322.96	1847.27
323.18	1597.42
323.39	1613.80
323.60	1656.81
323.81	1705.96
324.03	1648.61
324.24	1673.19
324.45	1705.96
324.66	1656.81
324.88	1794.02
325.09	1779.68
325.30	1636.33
325.52	1691.62
325.73	1726.44
325.94	1638.38
326.15	1624.04
326.37	1699.81
326.58	1775.59
326.79	1828.84
327.00	1568.74
327.22	1785.83
327.43	1654.76
327.64	1669.09
327.85	1740.77
328.07	1722.34
328.28	1822.69
328.49	1705.96
328.70	1710.05
328.92	1708.01
329.13	1687.53
329.34	1755.11
329.55	1824.74
329.76	1777.64
329.98	1607.66
330.19	1806.31
330.40	1742.82
330.61	1755.11
330.83	1746.92
331.04	1626.09
331.25	1736.68
331.46	1660.90
331.68	1724.39
331.89	1755.11
332.10	1718.25
332.31	1656.81
332.52	1671.14
332.74	1701.86
332.95	1636.33
333.16	1724.39
333.37	1765.35
333.58	1656.81
333.80	1748.97
334.01	1626.09
334.22	1697.77
334.43	1746.92
334.64	1642.47
334.86	1585.13
335.07	1601.51
335.28	1816.55
335.49	1574.89
335.70	1730.53
335.92	1851.36
336.13	1812.45
336.34	1701.86
336.55	1738.73
336.76	1742.82
336.98	1562.60
337.19	1712.10
337.40	1800.16
337.61	1869.80
337.82	1673.19
338.04	1677.29
338.25	1603.56
338.46	1607.66
338.67	1667.05
338.88	1726.44
339.09	1662.95
339.31	1687.53
339.52	1665.00
339.73	1638.38
339.94	1714.15
340.15	1734.63
340.36	1667.05
340.58	1834.98
340.79	1648.61
341.00	1753.06
341.21	1617.90
341.42	1789.92
341.63	1681.38
341.85	1740.77
342.06	1714.15
342.27	1767.40
342.48	1822.69
342.69	1613.80
342.90	1726.44
343.12	1771.49
343.33	1699.81
343.54	1640.42
343.75	1742.82
343.96	1705.96
344.17	1689.57
344.38	1714.15
344.60	1689.57
344.81	1673.19
345.02	1732.58
345.23	1779.68
345.44	1863.65
345.65	1769.44
345.86	1734.63
346.07	1791.97
346.29	1701.86
346.50	1742.82
346.71	1722.34
346.92	1789.92
347.13	1796.07
347.34	1660.90
347.55	1701.86
347.76	1748.97
347.98	1611.75
348.19	1730.53
348.40	1814.50
348.61	1712.10
348.82	1798.12
349.03	1794.02
349.24	1693.67
349.45	1796.07
349.66	1624.04
349.88	1621.99
350.09	1703.91
350.30	1824.74
350.51	1705.96
350.72	1742.82
350.93	1742.82
351.14	1689.57
351.35	1703.91
351.56	1677.29
351.77	1665.00
351.99	1781.73
352.20	1703.91
352.41	1705.96
352.62	1613.80
352.83	1650.66
353.04	1693.67
353.25	1730.53
353.46	1726.44
353.67	1763.30
353.88	1562.60
354.09	1738.73
354.30	1740.77
354.52	1736.68
354.73	1771.49
354.94	1636.33
355.15	1757.16
355.36	1769.44
355.57	1773.54
355.78	1822.69
355.99	1740.77
356.20	1665.00
356.41	1783.78
356.62	1724.39
356.83	1751.01
357.04	1763.30
357.25	1619.94
357.46	1640.42
357.68	1697.77
357.89	1685.48
358.10	1742.82
358.31	1732.58
358.52	1662.95
358.73	1669.09
358.94	1658.85
359.15	1720.29
359.36	1785.83
359.57	1673.19
359.78	1724.39
359.99	1656.81
360.20	1665.00
360.41	1710.05
360.62	1769.44
360.83	1734.63
361.04	1683.43
361.25	1779.68
361.46	1785.83
361.67	1765.35
361.88	1816.55
362.09	1753.06
362.30	1742.82
362.51	1712.10
362.72	1789.92
362.93	1689.57
363.14	1808.36
363.35	1806.31
363.56	1648.61
363.78	1785.83
363.99	1716.20
364.20	1703.91
364.41	1669.09
364.62	1804.26
364.83	1646.57
365.04	1697.77
365.25	1697.77
365.46	1826.79
365.67	1593.32
365.88	1744.87
366.09	1667.05
366.30	1634.28
366.51	1705.96
366.72	1656.81
366.93	1730.53
367.14	1755.11
367.35	1847.27
367.56	1738.73
367.77	1826.79
367.98	1695.72
368.18	1775.59
368.39	1685.48
368.60	1632.23
368.81	1771.49
369.02	1728.49
369.23	1669.09
369.44	1681.38
369.65	1619.94
369.86	1689.57
370.07	1789.92
370.28	1681.38
370.49	1755.11
370.70	1798.12
370.91	1687.53
371.12	1679.33
371.33	1734.63
371.54	1636.33
371.75	1839.08
371.96	1576.94
372.17	1767.40
372.38	1683.43
372.59	1701.86
372.80	1681.38
373.01	1665.00
373.22	1669.09
373.43	1716.20
373.64	1650.66
373.85	1837.03
374.06	1806.31
374.26	1791.97
374.47	1757.16
374.68	1695.72
374.89	1695.72
375.10	1642.47
375.31	1767.40
375.52	1679.33
375.73	1718.25
375.94	1669.09
376.15	1863.65
376.36	1697.77
376.57	1611.75
376.78	1705.96
376.99	1640.42
377.20	1748.97
377.40	1683.43
377.61	1857.51
377.82	1728.49
378.03	1847.27
378.24	1738.73
378.45	1748.97
378.66	1691.62
378.87	1656.81
379.08	1621.99
379.29	1681.38
379.50	1744.87
379.71	1675.24
379.91	1734.63
380.12	1665.00
380.33	1697.77
380.54	1744.87
380.75	1738.73
380.96	1724.39
381.17	1757.16
381.38	1759.21
381.59	1736.68
381.80	1806.31
382.00	1900.52
382.21	1796.07
382.42	1830.88
382.63	1888.23
382.84	1730.53
383.05	1847.27
383.26	1841.12
383.47	1759.21
383.68	1816.55
383.88	1722.34
384.09	1722.34
384.30	1777.64
384.51	1730.53
384.72	1703.91
384.93	1656.81
385.14	1761.25
385.35	1798.12
385.55	1660.90
385.76	1847.27
385.97	1773.54
386.18	1589.22
386.39	1710.05
386.60	1656.81
386.81	1689.57
387.02	1714.15
387.22	1677.29
387.43	1863.65
387.64	1779.68
387.85	1902.56
388.06	2263.01
388.27	4769.72
388.48	9025.40
388.68	11571.02
388.89	13369.14
389.10	14085.93
389.31	11908.94
389.52	9611.12
389.73	8624.00
389.93	8011.65
390.14	7180.18
390.35	6596.51
390.56	6000.55
390.77	5117.87
390.98	4036.55
391.18	2998.23
391.39	2334.68
391.60	1972.19
391.81	1873.89
392.02	1732.58
392.23	1867.75
392.43	1699.81
392.64	1898.47
392.85	1763.30
393.06	1763.30
393.27	1708.01
393.47	1695.72
393.68	1736.68
393.89	1728.49
394.10	1818.60
394.31	1660.90
394.52	1681.38
394.72	1650.66
394.93	1822.69
395.14	1593.32
395.35	1761.25
395.56	1603.56
395.76	1669.09
395.97	1736.68
396.18	1882.08
396.39	1964.00
396.60	2101.22
396.80	1992.67
397.01	1877.99
397.22	1826.79
397.43	1935.33
397.64	1818.60
397.84	1890.28
398.05	1935.33
398.26	1789.92
398.47	1806.31
398.67	1841.12
398.88	1767.40
399.09	1722.34
399.30	1691.62
399.51	1744.87
399.71	1691.62
399.92	1714.15
400.13	1746.92
400.34	1679.33
400.54	1746.92
400.75	1800.16
400.96	1759.21
401.17	1898.47
401.37	1789.92
401.58	1619.94
401.79	1699.81
402.00	1914.85
402.21	2054.11
402.41	2148.32
402.62	2136.03
402.83	2115.55
403.04	2156.51
403.24	2217.95
403.45	1877.99
403.66	1982.43
403.87	1912.80
404.07	1902.56
404.28	1992.67
404.49	1937.38
404.70	1751.01
404.90	1869.80
405.11	1718.25
405.32	1681.38
405.52	1599.46
405.73	1656.81
405.94	1628.14
406.15	1689.57
406.35	1767.40
406.56	1648.61
406.77	1734.63
406.98	1703.91
407.18	1615.85
407.39	1791.97
407.60	1640.42
407.80	1773.54
408.01	1640.42
408.22	1720.29
408.43	1642.47
408.63	1703.91
408.84	1765.35
409.05	1820.64
409.25	1701.86
409.46	1712.10
409.67	1640.42
409.88	1697.77
410.08	1777.64
410.29	1738.73
410.50	1787.88
410.70	1722.34
410.91	1681.38
411.12	1736.68
411.32	1667.05
411.53	1665.00
411.74	1812.45
411.95	1824.74
412.15	1787.88
412.36	1841.12
412.57	1808.36
412.77	1808.36
412.98	1728.49
413.19	1689.57
413.39	1783.78
413.60	1748.97
413.81	1830.88
414.01	1808.36
414.22	1765.35
414.43	1824.74
414.63	1714.15
414.84	1769.44
415.05	1740.77
415.25	1683.43
415.46	1701.86
415.67	1644.52
415.87	1751.01
416.08	1691.62
416.29	1716.20
416.49	1746.92
416.70	1720.29
416.91	1724.39
417.11	1681.38
417.32	1753.06
417.53	1773.54
417.73	1705.96
417.94	1767.40
418.15	1656.81
418.35	1771.49
418.56	1765.35
418.77	1937.38
418.97	1697.77
419.18	1751.01
419.38	1595.37
419.59	1716.20
419.80	1834.98
420.00	1665.00
420.21	1665.00
420.42	1761.25
420.62	1699.81
420.83	1632.23
421.04	1771.49
421.24	1671.14
421.45	1716.20
421.65	1767.40
421.86	1691.62
422.07	1755.11
422.27	1800.16
422.48	1679.33
422.69	1638.38
422.89	1757.16
423.10	1658.85
423.30	1619.94
423.51	1771.49
423.72	1757.16
423.92	1759.21
424.13	1665.00
424.33	1751.01
424.54	1757.16
424.75	1755.11
424.95	1851.36
425.16	1728.49
425.36	1624.04
425.57	1783.78
425.78	1699.81
425.98	1755.11
426.19	1656.81
426.39	1726.44
426.60	1705.96
426.81	1796.07
427.01	1681.38
427.22	1671.14
427.42	1546.22
427.63	1677.29
427.83	1757.16
428.04	1839.08
428.25	1781.73
428.45	1716.20
428.66	1703.91
428.86	1746.92
429.07	1716.20
429.28	1740.77
429.48	1689.57
429.69	1642.47
429.89	1767.40
430.10	1722.34
430.30	1718.25
430.51	1767.40
430.71	1724.39
430.92	1667.05
431.13	1671.14
431.33	1736.68
431.54	1804.26
431.74	1820.64
431.95	1759.21
432.15	1611.75
432.36	1783.78
432.56	1802.21
432.77	1849.32
432.98	1845.22
433.18	1736.68
433.39	1658.85
433.59	1777.64
433.80	1806.31
434.00	1834.98
434.21	1771.49
434.41	1630.18
434.62	1845.22
434.82	1566.70
435.03	1677.29
435.23	1791.97
435.44	1533.93
435.64	1789.92
435.85	1787.88
436.06	1703.91
436.26	1712.10
436.47	1691.62
436.67	1722.34
436.88	1710.05
437.08	1753.06
437.29	1880.04
437.49	1650.66
437.70	1724.39
437.90	1816.55
438.11	1820.64
438.31	1773.54
438.52	1865.70
438.72	1982.43
438.93	1970.15
439.13	1916.90
439.34	1828.84
439.54	1804.26
439.75	1781.73
439.95	1738.73
440.16	1710.05
440.36	1777.64
440.57	1740.77
440.77	1847.27
440.98	1777.64
441.18	1757.16
441.39	1748.97
441.59	1640.42
441.80	1873.89
442.00	1783.78
442.21	1755.11
442.41	1697.77
442.62	1845.22
442.82	1683.43
443.02	1671.14
443.23	1765.35
443.43	1712.10
443.64	1828.84
443.84	1703.91
444.05	1802.21
444.25	1791.97
444.46	1769.44
444.66	1763.30
444.87	1796.07
445.07	1601.51
445.28	1722.34
445.48	1763.30
445.69	1726.44
445.89	1865.70
446.09	1757.16
446.30	1923.04
446.50	2611.16
446.71	4091.84
446.91	5248.94
447.12	5705.64
447.32	5892.01
447.53	5281.71
447.73	4485.05
447.93	4069.31
448.14	3682.25
448.34	3528.65
448.55	3164.11
448.75	3157.97
448.96	2852.82
449.16	2562.01
449.36	2502.62
449.57	2181.09
449.77	1947.62
449.98	1843.17
450.18	1800.16
450.39	1869.80
450.59	1720.29
450.79	1703.91
451.00	1730.53
451.20	1814.50
451.41	1714.15
451.61	1751.01
451.81	1718.25
452.02	1665.00
452.22	1757.16
452.43	1748.97
452.63	1703.91
452.84	1732.58
453.04	1699.81
453.24	1773.54
453.45	1677.29
453.65	1775.59
453.86	1714.15
454.06	1785.83
454.26	1720.29
454.47	1609.70
454.67	1847.27
454.87	1689.57
455.08	1796.07
455.28	1822.69
455.49	1804.26
455.69	1685.48
455.89	1841.12
456.10	1775.59
456.30	1767.40
456.51	1767.40
456.71	1677.29
456.91	1724.39
457.12	1753.06
457.32	1781.73
457.52	1619.94
457.73	1738.73
457.93	1796.07
458.14	1744.87
458.34	1636.33
458.54	1740.77
458.75	1648.61
458.95	1681.38
459.15	1728.49
459.36	1753.06
459.56	1757.16
459.76	1888.23
459.97	1652.71
460.17	1724.39
460.37	1767.40
460.58	1746.92
460.78	1787.88
460.99	1671.14
461.19	1722.34
461.39	1718.25
461.60	1714.15
461.80	1763.30
462.00	1654.76
462.21	1669.09
462.41	1761.25
462.61	1779.68
462.82	1665.00
463.02	1787.88
463.22	1738.73
463.43	1808.36
463.63	1726.44
463.83	1781.73
464.04	1728.49
464.24	1789.92
464.44	1703.91
464.64	1621.99
464.85	1761.25
465.05	1802.21
465.25	1767.40
465.46	1675.24
465.66	1738.73
465.86	1722.34
466.07	1697.77
466.27	1804.26
466.47	1638.38
466.68	1732.58
466.88	1824.74
467.08	1751.01
467.29	1746.92
467.49	1751.01
467.69	1714.15
467.89	1730.53
468.10	1742.82
468.30	1746.92
468.50	1804.26
468.71	1839.08
468.91	1634.28
469.11	1826.79
469.31	1728.49
469.52	1665.00
469.72	1853.41
469.92	1820.64
470.13	1722.34
470.33	1728.49
470.53	1851.36
470.73	2207.71
470.94	2600.92
471.14	2607.06
471.34	3012.56
471.54	2828.24
471.75	2596.82
471.95	2357.21
472.15	2312.16
472.36	2222.05
472.56	2160.61
472.76	2201.57
472.96	2101.22
473.17	2093.02
473.37	1972.19
473.57	1861.60
473.77	1871.84
473.98	1802.21
474.18	1681.38
474.38	1937.38
474.58	1701.86
474.79	1679.33
474.99	1759.21
475.19	1806.31
475.39	1714.15
475.60	1701.86
475.80	1761.25
476.00	1740.77
476.20	1716.20
476.41	1693.67
476.61	1855.46
476.81	1884.13
477.01	1746.92
477.21	1886.18
477.42	1816.55
477.62	1673.19
477.82	1863.65
478.02	1689.57
478.23	1638.38
478.43	1705.96
478.63	1662.95
478.83	1732.58
479.03	1714.15
479.24	1787.88
479.44	1898.47
479.64	1685.48
479.84	1566.70
480.04	1665.00
480.25	1738.73
480.45	1691.62
480.65	1705.96
480.85	1789.92
481.06	1705.96
481.26	1730.53
481.46	1771.49
481.66	1798.12
481.86	1722.34
482.06	1773.54
482.27	1744.87
482.47	1742.82
482.67	1734.63
482.87	1759.21
483.07	1781.73
483.28	1624.04
483.48	1703.91
483.68	1693.67
483.88	1689.57
484.08	1636.33
484.29	1703.91
484.49	1718.25
484.69	1675.24
484.89	1812.45
485.09	1791.97
485.29	1744.87
485.50	1714.15
485.70	1769.44
485.90	1746.92
486.10	1701.86
486.30	1751.01
486.50	1763.30
486.71	1730.53
486.91	1789.92
487.11	1820.64
487.31	1728.49
487.51	1728.49
487.71	1626.09
487.91	1681.38
488.12	1693.67
488.32	1669.09
488.52	1697.77
488.72	1634.28
488.92	1734.63
489.12	1726.44
489.32	1902.56
489.53	1683.43
489.73	1669.09
489.93	1773.54
490.13	1734.63
490.33	1675.24
490.53	1730.53
490.73	1806.31
490.94	1642.47
491.14	1726.44
491.34	1822.69
491.54	2078.69
491.74	2736.09
491.94	3196.88
492.14	3403.72
492.34	3598.28
492.54	3133.39
492.75	2717.65
492.95	2662.36
493.15	2373.60
493.35	2355.16
493.55	2246.62
493.75	2244.57
493.95	2293.72
494.15	2007.01
494.35	2000.87
494.56	1820.64
494.76	1867.75
494.96	1791.97
495.16	1796.07
495.36	1849.32
495.56	1744.87
495.76	1705.96
495.96	1726.44
496.16	1595.37
496.36	1763.30
496.56	1726.44
496.77	1697.77
496.97	1685.48
497.17	1779.68
497.37	1658.85
497.57	1761.25
497.77	1724.39
497.97	1708.01
498.17	1744.87
498.37	1773.54
498.57	1740.77
498.77	1681.38
498.97	1794.02
499.17	1894.37
499.38	1701.86
499.58	1730.53
499.78	1710.05
499.98	1804.26
500.18	1716.20
500.38	1705.96
500.58	1935.33
500.78	2408.41
500.98	4685.75
501.18	6530.97
501.38	8112.00
501.58	9090.93
501.78	8853.37
501.98	6762.39
502.18	5883.81
502.38	4943.80
502.58	4530.11
502.78	4077.51
502.98	4032.45
503.18	3870.66
503.38	3528.65
503.59	3055.57
503.79	2848.72
503.99	2639.83
504.19	2322.40
504.39	2375.64
504.59	2295.77
504.79	2336.73
504.99	2250.72
505.19	2105.31
505.39	1918.95
505.59	2027.49
505.79	1935.33
505.99	1906.66
506.19	1849.32
506.39	1992.67
506.59	1853.41
506.79	1818.60
506.99	1865.70
507.19	1742.82
507.39	1722.34
507.59	1712.10
507.79	1611.75
507.99	1679.33
508.19	1755.11
508.39	1773.54
508.59	1710.05
508.79	1783.78
508.99	1859.56
509.19	1669.09
509.39	1800.16
509.59	1736.68
509.79	1718.25
509.99	1705.96
510.19	1736.68
510.39	1806.31
510.59	1794.02
510.79	1744.87
510.99	1714.15
511.19	1759.21
511.39	1798.12
511.59	1806.31
511.79	1853.41
511.99	1742.82
512.19	1877.99
512.38	1759.21
512.58	1781.73
512.78	1765.35
512.98	1736.68
513.18	1818.60
513.38	1683.43
513.58	1787.88
513.78	1708.01
513.98	1697.77
514.18	1798.12
514.38	1769.44
514.58	1726.44
514.78	1677.29
514.98	1728.49
515.18	1677.29
515.38	1617.90
515.58	1863.65
515.78	1695.72
515.98	1736.68
516.18	1757.16
516.38	1701.86
516.57	1624.04
516.77	1730.53
516.97	1718.25
517.17	1701.86
517.37	1669.09
517.57	1773.54
517.77	1753.06
517.97	1746.92
518.17	1763.30
518.37	1673.19
518.57	1722.34
518.77	1712.10
518.97	1716.20
519.16	1730.53
519.36	1789.92
519.56	1740.77
519.76	1656.81
519.96	1787.88
520.16	1861.60
520.36	1746.92
520.56	1822.69
520.76	1734.63
520.96	1732.58
521.16	1787.88
521.35	1796.07
521.55	1839.08
521.75	1695.72
521.95	1730.53
522.15	1746.92
522.35	1652.71
522.55	1644.52
522.75	1765.35
522.95	1777.64
523.14	1652.71
523.34	1693.67
523.54	1703.91
523.74	1746.92
523.94	1763.30
524.14	1669.09
524.34	1771.49
524.54	1841.12
524.73	1705.96
524.93	1701.86
525.13	1748.97
525.33	1619.94
525.53	1898.47
525.73	1814.50
525.93	1765.35
526.13	1693.67
526.32	1712.10
526.52	1806.31
526.72	1800.16
526.92	1718.25
527.12	1740.77
527.32	1669.09
527.52	1718.25
527.71	1744.87
527.91	1730.53
528.11	1718.25
528.31	1728.49
528.51	1720.29
528.71	1738.73
528.90	1773.54
529.10	1785.83
529.30	1845.22
529.50	1544.17
529.70	1712.10
529.90	1697.77
530.09	1740.77
530.29	1697.77
530.49	1697.77
530.69	1886.18
530.89	1740.77
531.09	1755.11
531.28	1718.25
531.48	1824.74
531.68	1771.49
531.88	1755.11
532.08	1832.93
532.28	1738.73
532.47	1808.36
532.67	1757.16
532.87	1753.06
533.07	1693.67
533.27	1816.55
533.46	1757.16
533.66	1738.73
533.86	1742.82
534.06	1703.91
534.26	1785.83
534.45	1748.97
534.65	1705.96
534.85	1802.21
535.05	1677.29
535.25	1822.69
535.44	1665.00
535.64	1806.31
535.84	1742.82
536.04	1710.05
536.24	1757.16
536.43	1644.52
536.63	1800.16
536.83	1757.16
537.03	1767.40
537.22	1658.85
537.42	1656.81
537.62	1755.11
537.82	1658.85
538.02	1791.97
538.21	1724.39
538.41	1957.86
538.61	1656.81
538.81	1775.59
539.00	1865.70
539.20	1607.66
539.40	1689.57
539.60	1865.70
539.79	1763.30
539.99	1738.73
540.19	1716.20
540.39	1708.01
540.58	1714.15
540.78	1841.12
540.98	1777.64
541.18	1757.16
541.37	1734.63
541.57	1722.34
541.77	1720.29
541.97	1681.38
542.16	1634.28
542.36	1665.00
542.56	1644.52
542.76	1869.80
542.95	1785.83
543.15	1720.29
543.35	1808.36
543.54	1650.66
543.74	1632.23
543.94	1798.12
544.14	1665.00
544.33	1841.12
544.53	1718.25
544.73	1779.68
544.93	1703.91
545.12	1718.25
545.32	1744.87
545.52	1728.49
545.71	1683.43
545.91	1773.54
546.11	1779.68
546.30	1703.91
546.50	1732.58
546.70	1824.74
546.90	1736.68
547.09	1652.71
547.29	1730.53
547.49	1724.39
547.68	1814.50
547.88	1685.48
548.08	1738.73
548.27	2133.98
548.47	1665.00
548.67	1669.09
548.87	1794.02
549.06	1703.91
549.26	1730.53
549.46	1773.54
549.65	1683.43
549.85	1785.83
550.05	1847.27
550.24	1722.34
550.44	1751.01
550.64	1705.96
550.83	1787.88
551.03	1898.47
551.23	1748.97
551.42	1816.55
551.62	1712.10
551.82	1728.49
552.01	1730.53
552.21	1804.26
552.41	1783.78
552.60	1742.82
552.80	1732.58
553.00	1716.20
553.19	1767.40
553.39	1812.45
553.59	1740.77
553.78	1763.30
553.98	1718.25
554.17	1675.24
554.37	1740.77
554.57	1798.12
554.76	1781.73
554.96	1687.53
555.16	1751.01
555.35	1818.60
555.55	1730.53
555.75	1800.16
555.94	1820.64
556.14	1677.29
556.33	1771.49
556.53	1783.78
556.73	1775.59
556.92	1757.16
557.12	1826.79
557.32	1824.74
557.51	1820.64
557.71	1857.51
557.90	1775.59
558.10	1810.40
558.30	1769.44
558.49	1691.62
558.69	1679.33
558.88	1722.34
559.08	1816.55
559.28	1777.64
559.47	1722.34
559.67	1730.53
559.86	1847.27
560.06	1728.49
560.26	1742.82
560.45	1744.87
560.65	1718.25
560.84	1834.98
561.04	1724.39
561.24	1759.21
561.43	1691.62
561.63	1824.74
561.82	1736.68
562.02	1730.53
562.22	1722.34
562.41	1640.42
562.61	1693.67
562.80	1701.86
563.00	1841.12
563.19	1775.59
563.39	1773.54
563.59	1787.88
563.78	1751.01
563.98	1599.46
564.17	1687.53
564.37	1564.65
564.56	1755.11
564.76	1652.71
564.96	1800.16
565.15	1730.53
565.35	1880.04
565.54	1734.63
565.74	1779.68
565.93	1722.34
566.13	1757.16
566.32	1783.78
566.52	1755.11
566.71	1699.81
566.91	1857.51
567.11	1765.35
567.30	1787.88
567.50	1746.92
567.69	1787.88
567.89	1710.05
568.08	1773.54
568.28	1710.05
568.47	1673.19
568.67	1748.97
568.86	1761.25
569.06	1787.88
569.25	1650.66
569.45	1689.57
569.64	1705.96
569.84	1615.85
570.04	1769.44
570.23	1675.24
570.43	1800.16
570.62	1791.97
570.82	1800.16
571.01	1673.19
571.21	1755.11
571.40	1669.09
571.60	1746.92
571.79	1791.97
571.99	1738.73
572.18	1716.20
572.38	1771.49
572.57	1759.21
572.77	1730.53
572.96	1918.95
573.16	1720.29
573.35	1736.68
573.55	1791.97
573.74	1712.10
573.94	1722.34
574.13	1642.47
574.33	1806.31
574.52	1806.31
574.71	1800.16
574.91	1828.84
575.10	1654.76
575.30	1736.68
575.49	1708.01
575.69	1685.48
575.88	1710.05
576.08	1720.29
576.27	1841.12
576.47	1826.79
576.66	1853.41
576.86	1867.75
577.05	1816.55
577.25	1781.73
577.44	1916.90
577.64	1677.29
577.83	1855.46
578.02	1681.38
578.22	1849.32
578.41	1882.08
578.61	1798.12
578.80	1701.86
579.00	1867.75
579.19	1738.73
579.39	1753.06
579.58	1787.88
579.77	1773.54
579.97	1806.31
580.16	1871.84
580.36	1859.56
580.55	1943.52
580.75	1751.01
580.94	1800.16
581.13	1845.22
581.33	1929.19
581.52	1759.21
581.72	1873.89
581.91	1843.17
582.11	1777.64
582.30	1812.45
582.49	1812.45
582.69	1843.17
582.88	1849.32
583.08	1877.99
583.27	1873.89
583.47	1834.98
583.66	1787.88
583.85	1695.72
584.05	1714.15
584.24	1841.12
584.44	1720.29
584.63	1896.42
584.82	1841.12
585.02	1890.28
585.21	1920.99
585.41	1935.33
585.60	1943.52
585.79	2019.30
585.99	1943.52
586.18	1923.04
586.37	2295.77
586.57	3397.58
586.76	9719.66
586.96	27170.40
587.15	41809.28
587.34	51666.16
587.54	57719.95
587.73	55860.40
587.93	39976.35
588.12	29824.57
588.31	23803.54
588.51	20473.54
588.70	18396.90
588.89	17231.61
589.09	15611.67
589.28	13344.56
589.47	11478.86
589.67	9504.62
589.86	7432.08
590.06	5416.88
590.25	4169.66
590.44	3340.24
590.64	2639.83
590.83	2291.68
591.02	2080.74
591.22	1968.10
591.41	1925.09
591.60	1828.84
591.80	2017.25
591.99	1810.40
592.18	1830.88
592.38	1755.11
592.57	1730.53
592.76	1761.25
592.96	1724.39
593.15	1791.97
593.34	1820.64
593.54	1755.11
593.73	1828.84
593.92	1808.36
594.12	1849.32
594.31	1775.59
594.50	1877.99
594.70	1902.56
594.89	1857.51
595.08	1738.73
595.28	1843.17
595.47	2035.68
595.66	1826.79
595.86	1693.67
596.05	1808.36
596.24	1769.44
596.43	1845.22
596.63	1888.23
596.82	1808.36
597.01	1781.73
597.21	1904.61
597.40	1834.98
597.59	1732.58
597.79	1751.01
597.98	1837.03
598.17	1773.54
598.36	1763.30
598.56	1773.54
598.75	1716.20
598.94	1787.88
599.14	1818.60
599.33	1699.81
599.52	1828.84
599.71	1710.05
599.91	1808.36
600.10	1828.84
600.29	1767.40
600.48	1820.64
600.68	1802.21
600.87	1732.58
601.06	1701.86
601.26	1736.68
601.45	1816.55
601.64	1767.40
601.83	1744.87
602.03	1691.62
602.22	1667.05
602.41	1812.45
602.60	1986.53
602.80	1859.56
602.99	1763.30
603.18	1746.92
603.37	1798.12
603.57	1769.44
603.76	1724.39
603.95	1779.68
604.14	1757.16
604.34	1740.77
604.53	1763.30
604.72	1695.72
604.91	1714.15
605.10	1824.74
605.30	1648.61
605.49	1847.27
605.68	1832.93
605.87	1843.17
606.07	1734.63
606.26	1765.35
606.45	1742.82
606.64	1753.06
606.84	1734.63
607.03	1738.73
607.22	1796.07
607.41	1748.97
607.60	1742.82
607.80	1865.70
607.99	1779.68
608.18	1699.81
608.37	1738.73
608.56	1654.76
608.76	1765.35
608.95	1865.70
609.14	1800.16
609.33	1841.12
609.52	1886.18
609.72	1877.99
609.91	1806.31
610.10	1767.40
610.29	1814.50
610.48	1773.54
610.68	1812.45
610.87	1720.29
611.06	1816.55
611.25	1705.96
611.44	1849.32
611.63	1669.09
611.83	1853.41
612.02	1677.29
612.21	1765.35
612.40	1560.55
612.59	1630.18
612.79	1652.71
612.98	1742.82
613.17	1837.03
613.36	1703.91
613.55	1886.18
613.74	1802.21
613.93	1898.47
614.13	1886.18
614.32	1959.91
614.51	1951.71
614.70	1816.55
614.89	1830.88
615.08	1884.13
615.28	2111.46
615.47	1701.86
615.66	1810.40
615.85	1832.93
616.04	1945.57
616.23	1888.23
616.42	1679.33
616.62	1738.73
616.81	1783.78
617.00	1720.29
617.19	1812.45
617.38	1720.29
617.57	1794.02
617.76	1738.73
617.95	1828.84
618.15	1759.21
618.34	1796.07
618.53	1691.62
618.72	1753.06
618.91	1865.70
619.10	1798.12
619.29	1701.86
619.48	1843.17
619.68	1671.14
619.87	1740.77
620.06	1708.01
620.25	1718.25
620.44	1699.81
620.63	1744.87
620.82	1757.16
621.01	1763.30
621.20	1802.21
621.39	1769.44
621.59	1785.83
621.78	1834.98
621.97	1708.01
622.16	1730.53
622.35	1787.88
622.54	1828.84
622.73	1791.97
622.92	1691.62
623.11	1759.21
623.30	1769.44
623.49	1794.02
623.68	1718.25
623.88	1798.12
624.07	1742.82
624.26	1691.62
624.45	1728.49
624.64	1652.71
624.83	1818.60
625.02	1658.85
625.21	1732.58
625.40	1671.14
625.59	1830.88
625.78	1798.12
625.97	1820.64
626.16	1892.32
626.35	1789.92
626.54	1875.94
626.74	1894.37
626.93	1783.78
627.12	1775.59
627.31	1779.68
627.50	1773.54
627.69	1814.50
627.88	1671.14
628.07	1701.86
628.26	1689.57
628.45	1787.88
628.64	1722.34
628.83	1810.40
629.02	1687.53
629.21	1861.60
629.40	1759.21
629.59	1687.53
629.78	1716.20
629.97	1740.77
630.16	1695.72
630.35	1751.01
630.54	1769.44
630.73	1734.63
630.92	1703.91
631.11	1679.33
631.30	1789.92
631.49	1783.78
631.68	1740.77
631.87	1859.56
632.06	1554.41
632.25	1877.99
632.44	1732.58
632.63	1830.88
632.82	1804.26
633.01	1736.68
633.20	1804.26
633.39	1751.01
633.58	1863.65
633.77	1785.83
633.96	1787.88
634.15	1742.82
634.34	1796.07
634.53	1828.84
634.72	1724.39
634.91	1675.24
635.10	1763.30
635.29	1841.12
635.48	1857.51
635.67	1740.77
635.86	1646.57
636.05	1834.98
636.24	1656.81
636.43	1681.38
636.62	1800.16
636.81	1632.23
637.00	1746.92
637.19	1742.82
637.38	1769.44
637.57	1720.29
637.76	1816.55
637.95	1843.17
638.14	1787.88
638.33	1892.32
638.52	1791.97
638.71	1730.53
638.89	1701.86
639.08	1931.23
639.27	1906.66
639.46	1865.70
639.65	2215.90
639.84	2189.28
640.03	2369.50
640.22	2269.15
640.41	2443.23
640.60	2138.08
640.79	1920.99
640.98	1968.10
641.17	2027.49
641.36	1941.47
641.55	1966.05
641.74	1804.26
641.92	1855.46
642.11	1783.78
642.30	1775.59
642.49	1759.21
642.68	1724.39
642.87	1726.44
643.06	1746.92
643.25	1726.44
643.44	1701.86
643.63	1665.00
643.82	1726.44
644.00	1673.19
644.19	1783.78
644.38	1679.33
644.57	1763.30
644.76	1755.11
644.95	1718.25
645.14	1761.25
645.33	1761.25
645.52	1726.44
645.71	1675.24
645.89	1673.19
646.08	1738.73
646.27	1779.68
646.46	1935.33
646.65	1683.43
646.84	1677.29
647.03	1689.57
647.22	1791.97
647.40	1841.12
647.59	1681.38
647.78	1640.42
647.97	1703.91
648.16	1636.33
648.35	1796.07
648.54	1757.16
648.73	1748.97
648.91	1771.49
649.10	1736.68
649.29	1621.99
649.48	1652.71
649.67	1755.11
649.86	1800.16
650.05	1726.44
650.23	1892.32
650.42	1853.41
650.61	1992.67
650.80	1923.04
650.99	1996.77
651.18	1728.49
651.36	1810.40
651.55	1746.92
651.74	1759.21
651.93	1755.11
652.12	1757.16
652.31	1765.35
652.49	1769.44
652.68	1748.97
652.87	1746.92
653.06	1765.35
653.25	1828.84
653.44	1720.29
653.62	1806.31
653.81	1748.97
654.00	1800.16
654.19	1736.68
654.38	1849.32
654.56	1734.63
654.75	1699.81
654.94	1753.06
655.13	1767.40
655.32	1705.96
655.51	1703.91
655.69	1626.09
655.88	1730.53
656.07	1683.43
656.26	1830.88
656.45	1736.68
656.63	1742.82
656.82	1845.22
657.01	1689.57
657.20	1683.43
657.38	1787.88
657.57	1777.64
657.76	1658.85
657.95	1812.45
658.14	1640.42
658.32	1773.54
658.51	1714.15
658.70	1701.86
658.89	1740.77
659.08	1697.77
659.26	1820.64
659.45	1732.58
659.64	1832.93
659.83	1736.68
660.01	1992.67
660.20	1847.27
660.39	1841.12
660.58	1615.85
660.76	1751.01
660.95	1689.57
661.14	1757.16
661.33	1701.86
661.51	1720.29
661.70	1615.85
661.89	1763.30
662.08	1677.29
662.26	1628.14
662.45	1736.68
662.64	1828.84
662.83	1689.57
663.01	1642.47
663.20	1710.05
663.39	1845.22
663.58	1705.96
663.76	1699.81
663.95	1763.30
664.14	1718.25
664.32	1665.00
664.51	1607.66
664.70	1578.98
664.89	1689.57
665.07	1677.29
665.26	1753.06
665.45	1611.75
665.64	1736.68
665.82	1734.63
666.01	1800.16
666.20	1703.91
666.38	1814.50
666.57	1859.56
666.76	2303.96
666.95	4530.11
667.13	11317.08
667.32	18446.05
667.51	22286.00
667.69	25034.37
667.88	25290.37
668.07	19818.19
668.25	14407.46
668.44	11833.16
668.63	9805.67
668.81	8552.32
669.00	7616.40
669.19	6944.66
669.38	6074.28
669.56	5304.24
669.75	4542.39
669.94	3848.13
670.12	3147.73
670.31	2652.12
670.50	2322.40
670.68	2023.39
670.87	1988.58
671.06	1875.94
671.24	1880.04
671.43	1927.14
671.62	1763.30
671.80	1771.49
671.99	1781.73
672.18	1808.36
672.36	1861.60
672.55	1783.78
672.74	1773.54
672.92	1716.20
673.11	1783.78
673.29	1593.32
673.48	1798.12
673.67	1771.49
673.85	1775.59
674.04	1708.01
674.23	1697.77
674.41	1843.17
674.60	1681.38
674.79	1624.04
674.97	1669.09
675.16	1808.36
675.34	1816.55
675.53	1708.01
675.72	1789.92
675.90	1779.68
676.09	1671.14
676.28	1669.09
676.46	1658.85
676.65	1785.83
676.83	1691.62
677.02	1791.97
677.21	1724.39
677.39	1722.34
677.58	1724.39
677.77	1691.62
677.95	1667.05
678.14	1701.86
678.32	1701.86
678.51	1720.29
678.70	1789.92
678.88	1720.29
679.07	1708.01
679.25	1689.57
679.44	1695.72
679.63	1673.19
679.81	1687.53
680.00	1796.07
680.18	1773.54
680.37	1794.02
680.55	1714.15
680.74	1638.38
680.93	1665.00
681.11	1710.05
681.30	1751.01
681.48	1718.25
681.67	1619.94
681.85	1738.73
682.04	1691.62
682.23	1796.07
682.41	1796.07
682.60	1652.71
682.78	1732.58
682.97	1617.90
683.15	1755.11
683.34	1669.09
683.53	1759.21
683.71	1669.09
683.90	1779.68
684.08	1875.94
684.27	1701.86
684.45	1773.54
684.64	1783.78
684.82	1722.34
685.01	1800.16
685.19	1736.68
685.38	1769.44
685.57	1761.25
685.75	1599.46
685.94	1728.49
686.12	1687.53
686.31	1636.33
686.49	1822.69
686.68	1615.85
686.86	1789.92
687.05	1708.01
687.23	1763.30
687.42	1716.20
687.60	1656.81
687.79	1812.45
687.97	1824.74
688.16	1796.07
688.34	1785.83
688.53	1736.68
688.71	1771.49
688.90	1800.16
689.08	1718.25
689.27	1630.18
689.45	1722.34
689.64	1736.68
689.82	1673.19
690.01	1808.36
690.19	1744.87
690.38	1783.78
690.56	1757.16
690.75	1691.62
690.93	1685.48
691.12	1681.38
691.30	1738.73
691.49	1677.29
691.67	1755.11
691.86	1865.70
692.04	1714.15
692.23	1689.57
692.41	1732.58
692.60	1953.76
692.78	1849.32
692.97	1830.88
693.15	1837.03
693.34	1910.75
693.52	1824.74
693.71	1763.30
693.89	1761.25
694.08	1611.75
694.26	1798.12
694.44	1800.16
694.63	1734.63
694.81	1644.52
695.00	1697.77
695.18	1728.49
695.37	1863.65
695.55	1701.86
695.74	1662.95
695.92	1658.85
696.10	1796.07
696.29	1613.80
696.47	1734.63
696.66	1681.38
696.84	1718.25
697.03	1802.21
697.21	1822.69
697.40	2402.27
697.58	1812.45
697.76	1734.63
697.95	1675.24
698.13	1683.43
698.32	1658.85
698.50	1787.88
698.68	1730.53
698.87	1787.88
699.05	1767.40
699.24	1714.15
699.42	1640.42
699.61	1775.59
699.79	1798.12
699.97	1714.15
700.16	1679.33
700.34	1662.95
700.53	1751.01
700.71	1798.12
700.89	1798.12
701.08	1712.10
701.26	1808.36
701.45	2191.33
701.63	1687.53
701.81	1732.58
702.00	1763.30
702.18	1775.59
702.37	1738.73
702.55	1830.88
702.73	1839.08
702.92	1832.93
703.10	2004.96
703.28	1972.19
703.47	1918.95
703.65	1908.71
703.84	1900.52
704.02	1837.03
704.20	1892.32
704.39	1843.17
704.57	1810.40
704.75	1875.94
704.94	1839.08
705.12	1781.73
705.30	1861.60
705.49	2488.28
705.67	5457.84
705.86	12977.98
706.04	19197.66
706.22	22515.37
706.41	25198.21
706.59	24475.27
706.77	18792.16
706.96	13651.76
707.14	11700.05
707.32	10196.84
707.51	8759.16
707.69	7841.67
707.87	6606.75
708.06	5472.17
708.24	4341.69
708.42	3360.72
708.61	2883.54
708.79	2250.72
708.97	2054.11
709.16	1949.67
709.34	1865.70
709.52	1757.16
709.71	1755.11
709.89	1820.64
710.07	1708.01
710.26	1693.67
710.44	1757.16
710.62	1763.30
710.80	1705.96
710.99	1726.44
711.17	1738.73
711.35	1730.53
711.54	1691.62
711.72	1816.55
711.90	1787.88
712.09	1781.73
712.27	1703.91
712.45	1757.16
712.63	1726.44
712.82	1693.67
713.00	1703.91
713.18	1724.39
713.37	1816.55
713.55	1828.84
713.73	1724.39
713.91	1769.44
714.10	1718.25
714.28	1669.09
714.46	1728.49
714.65	1742.82
714.83	1718.25
715.01	1785.83
715.19	1665.00
715.38	1566.70
715.56	1699.81
715.74	1636.33
715.92	1675.24
716.11	1822.69
716.29	1585.13
716.47	1589.22
716.65	1755.11
716.84	1621.99
717.02	1783.78
717.20	1632.23
717.38	1705.96
717.57	1783.78
717.75	1662.95
717.93	1722.34
718.11	1708.01
718.30	1677.29
718.48	1705.96
718.66	1796.07
718.84	1816.55
719.03	1714.15
719.21	1656.81
719.39	1898.47
719.57	1710.05
719.75	1761.25
719.94	1708.01
720.12	1738.73
720.30	1646.57
720.48	1753.06
720.67	1660.90
720.85	1624.04
721.03	1757.16
721.21	1636.33
721.39	1791.97
721.58	1720.29
721.76	1765.35
721.94	1755.11
722.12	1720.29
722.30	1830.88
722.49	1691.62
722.67	1740.77
722.85	1695.72
723.03	1644.52
723.21	1611.75
723.40	1755.11
723.58	1751.01
723.76	1767.40
723.94	1755.11
724.12	1765.35
724.30	1837.03
724.49	1820.64
724.67	1714.15
724.85	1841.12
725.03	1660.90
725.21	1798.12
725.40	1718.25
725.58	1685.48
725.76	1771.49
725.94	1689.57
726.12	1697.77
726.30	1755.11
726.49	1746.92
726.67	1683.43
726.85	1775.59
727.03	1787.88
727.21	2320.35
727.39	3481.55
727.57	4845.49
727.76	5582.76
727.94	6176.67
728.12	6207.39
728.30	5580.71
728.48	4540.35
728.66	3876.80
728.84	3631.05
729.03	3121.10
729.21	2742.23
729.39	2426.84
729.57	2097.12
729.75	1931.23
729.93	1892.32
730.11	1794.02
730.30	1701.86
730.48	1830.88
730.66	1787.88
730.84	1757.16
731.02	1699.81
731.20	1763.30
731.38	1662.95
731.56	1689.57
731.74	1730.53
731.93	1710.05
732.11	1685.48
732.29	1767.40
732.47	1740.77
732.65	1748.97
732.83	1763.30
733.01	1796.07
733.19	1699.81
733.37	1677.29
733.56	1755.11
733.74	1636.33
733.92	1857.51
734.10	1679.33
734.28	1708.01
734.46	1611.75
734.64	1621.99
734.82	1689.57
735.00	1675.24
735.18	1669.09
735.36	1732.58
735.54	1662.95
735.73	1642.47
735.91	1675.24
736.09	1796.07
736.27	1722.34
736.45	1738.73
736.63	1638.38
736.81	1689.57
736.99	1789.92
737.17	1755.11
737.35	1705.96
737.53	1724.39
737.71	1615.85
737.89	1802.21
738.07	1669.09
738.25	1636.33
738.43	1603.56
738.61	1660.90
738.80	1685.48
738.98	1679.33
739.16	1697.77
739.34	1673.19
739.52	1804.26
739.70	1697.77
739.88	1767.40
740.06	1759.21
740.24	1566.70
740.42	1767.40
740.60	1611.75
740.78	1609.70
740.96	1605.61
741.14	1681.38
741.32	1738.73
741.50	1685.48
741.68	1851.36
741.86	1751.01
742.04	1656.81
742.22	1693.67
742.40	1673.19
742.58	1779.68
742.76	1679.33
742.94	1755.11
743.12	1560.55
743.30	1636.33
743.48	1699.81
743.66	1679.33
743.84	1771.49
744.02	1734.63
744.20	1759.21
744.38	1617.90
744.56	1722.34
744.74	1839.08
744.92	1753.06
745.10	1734.63
745.28	1769.44
745.46	1798.12
745.64	1667.05
745.82	1746.92
746.00	1705.96
746.18	1675.24
746.36	1714.15
746.54	1714.15
746.72	1763.30
746.90	1689.57
747.08	1736.68
747.26	1679.33
747.44	1759.21
747.62	1708.01
747.80	1683.43
747.98	1738.73
748.15	1675.24
748.33	1884.13
748.51	1806.31
748.69	1806.31
748.87	1697.77
749.05	1712.10
749.23	1675.24
749.41	1761.25
749.59	1742.82
749.77	1755.11
749.95	1685.48
750.13	1619.94
750.31	1804.26
750.49	1701.86
750.67	1724.39
750.85	1818.60
751.03	1742.82
751.20	1791.97
751.38	1722.34
751.56	1753.06
751.74	1710.05
751.92	1714.15
752.10	1648.61
752.28	1718.25
752.46	1578.98
752.64	1722.34
752.82	1671.14
753.00	1751.01
753.18	1669.09
753.35	1650.66
753.53	1732.58
753.71	1697.77
753.89	1746.92
754.07	1689.57
754.25	1751.01
754.43	1720.29
754.61	1603.56
754.79	1816.55
754.97	1619.94
755.14	1855.46
755.32	1640.42
755.50	1773.54
755.68	1703.91
755.86	1710.05
756.04	1677.29
756.22	1677.29
756.40	1748.97
756.57	1873.89
756.75	1751.01
756.93	1806.31
757.11	1736.68
757.29	1660.90
757.47	1767.40
757.65	1611.75
757.82	1523.69
758.00	1746.92
758.18	1710.05
758.36	1662.95
758.54	1845.22
758.72	1603.56
758.90	1812.45
759.07	1705.96
759.25	1669.09
759.43	1701.86
759.61	1650.66
759.79	2271.20
759.97	1693.67
760.15	1681.38
760.32	1722.34
760.50	1648.61
760.68	1714.15
760.86	1603.56
761.04	1734.63
761.22	1763.30
761.39	1681.38
761.57	1791.97
761.75	1705.96
761.93	1726.44
762.11	1603.56
762.28	1714.15
762.46	1609.70
762.64	1761.25
762.82	1634.28
763.00	1624.04
763.18	1822.69
763.35	1609.70
763.53	1714.15
763.71	1673.19
763.89	1695.72
764.07	1689.57
764.24	1746.92
764.42	1726.44
764.60	1734.63
764.78	1716.20
764.96	1771.49
765.13	1740.77
765.31	1691.62
765.49	1814.50
765.67	1669.09
765.84	1671.14
766.02	1779.68
766.20	1667.05
766.38	1816.55
766.56	1734.63
766.73	1681.38
766.91	1710.05
767.09	1724.39
767.27	1656.81
767.44	1632.23
767.62	1695.72
767.80	1689.57
767.98	1697.77
768.15	1697.77
768.33	1769.44
768.51	1787.88
768.69	1771.49
768.87	1759.21
769.04	1701.86
769.22	1880.04
769.40	1837.03
769.58	1904.61
769.75	1691.62
769.93	1771.49
770.11	1673.19
770.28	1705.96
770.46	1699.81
770.64	1757.16
770.82	1658.85
770.99	1665.00
771.17	1744.87
771.35	1695.72
771.53	1697.77
771.70	1628.14
771.88	1748.97
772.06	1652.71
772.23	1560.55
772.41	1746.92
772.59	1742.82
772.77	1693.67
772.94	1708.01
773.12	1787.88
773.30	1722.34
773.47	1761.25
773.65	1734.63
773.83	1830.88
774.01	1724.39
774.18	1656.81
774.36	1722.34
774.54	1724.39
774.71	1673.19
774.89	1587.18
775.07	1656.81
775.24	1691.62
775.42	1640.42
775.60	1806.31
775.78	1648.61
775.95	1660.90
776.13	1687.53
776.31	1609.70
776.48	1699.81
776.66	1849.32
776.84	1710.05
777.01	1601.51
777.19	1646.57
777.37	1675.24
777.54	1697.77
777.72	1855.46
777.90	1769.44
778.07	1640.42
778.25	1906.66
778.43	1775.59
778.60	1703.91
778.78	1755.11
778.96	1748.97
779.13	1624.04
779.31	1744.87
779.49	1621.99
779.66	1769.44
779.84	1714.15
780.01	1683.43
780.19	1621.99
780.37	1736.68
780.54	1761.25
780.72	1626.09
780.90	1695.72
781.07	1742.82
781.25	1710.05
781.43	1710.05
781.60	1730.53
781.78	1751.01
781.95	1726.44
782.13	1665.00
782.31	1648.61
782.48	1609.70
782.66	1701.86
782.83	1828.84
783.01	1712.10
783.19	1712.10
783.36	1689.57
783.54	1556.46
783.72	1746.92
783.89	1689.57
784.07	1675.24
784.24	1755.11
784.42	1779.68
784.60	1701.86
784.77	1757.16
784.95	1519.59
785.12	1744.87
785.30	1644.52
785.47	1685.48
785.65	1669.09
785.83	1710.05
786.00	1619.94
786.18	1703.91
786.35	1624.04
786.53	1683.43
786.71	1791.97
786.88	1708.01
787.06	1767.40
787.23	1755.11
787.41	1660.90
787.58	1755.11
787.76	1687.53
787.94	1673.19
788.11	1757.16
788.29	1652.71
788.46	1632.23
788.64	1636.33
788.81	1728.49
788.99	1708.01
789.16	1611.75
789.34	1697.77
789.52	1603.56
789.69	1681.38
789.87	1611.75
790.04	1671.14
790.22	1769.44
790.39	1830.88
790.57	1640.42
790.74	1611.75
790.92	1785.83
791.09	1667.05
791.27	1757.16
791.44	1816.55
791.62	1677.29
791.79	1728.49
791.97	1705.96
792.15	1918.95
792.32	1732.58
792.50	1779.68
792.67	1808.36
792.85	1828.84
793.02	1648.61
793.20	1724.39
793.37	1615.85
793.55	1730.53
793.72	1595.37
793.90	1859.56
794.07	1705.96
794.25	1679.33
794.42	1693.67
794.60	1714.15
794.77	1595.37
794.95	1769.44
795.12	1699.81
795.30	1693.67
795.47	1611.75
795.65	1882.08
795.82	1679.33
796.00	1650.66
796.17	1675.24
796.34	1730.53
796.52	1738.73
796.69	1705.96
796.87	1708.01
797.04	1736.68
797.22	1740.77
797.39	1712.10
797.57	1722.34
797.74	1744.87
797.92	1705.96
798.09	1673.19
798.27	1724.39
798.44	1630.18
798.62	1658.85
798.79	1765.35
798.96	1679.33
799.14	1716.20
799.31	1837.03
799.49	1720.29
799.66	1691.62
799.84	1744.87
800.01	1677.29
800.19	1662.95
800.36	1593.32
800.53	1669.09
800.71	1734.63
800.88	1765.35
801.06	1656.81
801.23	1640.42
801.41	1665.00
801.58	1662.95
801.75	1728.49
801.93	1720.29
802.10	1722.34
802.28	1716.20
802.45	1654.76
802.63	1759.21
802.80	1763.30
802.97	1656.81
803.15	1755.11
803.32	1732.58
803.50	1578.98
803.67	1761.25
803.84	1695.72
804.02	1669.09
804.19	1746.92
804.37	1564.65
804.54	1636.33
804.71	1728.49
804.89	1689.57
805.06	1634.28
805.24	1640.42
805.41	1671.14
805.58	1740.77
805.76	1824.74
805.93	1755.11
806.10	1802.21
806.28	1681.38
806.45	1632.23
806.63	1691.62
806.80	1687.53
806.97	1751.01
807.15	1761.25
807.32	1646.57
807.49	1753.06
807.67	1705.96
807.84	1689.57
808.01	1636.33
808.19	1896.42
808.36	1798.12
808.54	1660.90
808.71	1691.62
808.88	1726.44
809.06	1855.46
809.23	1845.22
809.40	1728.49
809.58	1742.82
809.75	1742.82
809.92	1652.71
810.10	1808.36
810.27	1699.81
810.44	1714.15
810.62	1769.44
810.79	1619.94
810.96	1712.10
811.14	1695.72
811.31	1716.20
811.48	1722.34
811.66	1689.57
811.83	1767.40
812.00	1765.35
812.18	1667.05
812.35	1814.50
812.52	1751.01
812.69	1710.05
812.87	1726.44
813.04	1634.28
813.21	1730.53
813.39	1640.42
813.56	1613.80
813.73	1777.64
813.91	1677.29
814.08	1724.39
814.25	1662.95
814.42	1693.67
814.60	1640.42
814.77	1753.06
814.94	1722.34
815.12	1763.30
815.29	1767.40
815.46	1736.68
815.63	1681.38
815.81	1765.35
815.98	1736.68
816.15	1681.38
816.33	1665.00
816.50	1740.77
816.67	1660.90
816.84	1624.04
817.02	1673.19
817.19	1685.48
817.36	1699.81
817.53	1767.40
817.71	1665.00
817.88	1697.77
818.05	1671.14
818.22	1679.33
818.40	1816.55
818.57	1667.05
818.74	1689.57
818.91	1708.01
819.09	1732.58
819.26	1779.68
819.43	1660.90
819.60	1630.18
819.78	1724.39
819.95	1746.92
820.12	1621.99
820.29	1759.21
820.47	1724.39
820.64	1705.96
820.81	1632.23
820.98	1718.25
821.15	1744.87
821.33	1771.49
821.50	1634.28
821.67	1699.81
821.84	1734.63
822.02	1767.40
822.19	1716.20
822.36	1662.95
822.53	1775.59
822.70	1619.94
822.88	1634.28
823.05	1708.01
823.22	1738.73
823.39	1751.01
823.56	1708.01
823.74	1783.78
823.91	1617.90
824.08	1658.85
824.25	1640.42
824.42	1757.16
824.60	1599.46
824.77	1697.77
824.94	1611.75
825.11	1658.85
825.28	1652.71
825.45	1738.73
825.63	1683.43
825.80	1636.33
825.97	1628.14
826.14	1675.24
826.31	1581.03
826.48	1785.83
826.66	1644.52
826.83	1603.56
827.00	1748.97
827.17	1632.23
827.34	1695.72
827.51	1605.61
827.69	1730.53
827.86	1591.27
828.03	1685.48
828.20	1757.16
828.37	1607.66
828.54	1714.15
828.71	1710.05
828.89	1769.44
829.06	1744.87
829.23	1822.69
829.40	1669.09
829.57	1716.20
829.74	1734.63
829.91	1677.29
830.09	1675.24
830.26	1771.49
830.43	1746.92
830.60	1658.85
830.77	1777.64
830.94	1730.53
831.11	1738.73
831.28	1724.39
831.46	1779.68
831.63	1665.00
831.80	1693.67
831.97	1671.14
832.14	1714.15
832.31	1763.30
832.48	1724.39
832.65	1740.77
832.82	1658.85
832.99	1708.01
833.17	1687.53
833.34	1783.78
833.51	1738.73
833.68	1581.03
833.85	1720.29
834.02	1665.00
834.19	1601.51
834.36	1638.38
834.53	1632.23
834.70	1822.69
834.87	1693.67
835.04	1714.15
835.22	1640.42
835.39	1665.00
835.56	1662.95
835.73	1714.15
835.90	1802.21
836.07	1581.03
836.24	1695.72
836.41	1619.94
836.58	1626.09
836.75	1789.92
836.92	1656.81
837.09	1708.01
837.26	1771.49
837.43	1710.05
837.60	1724.39
837.77	1738.73
837.94	1648.61
838.12	1806.31
838.29	1757.16
838.46	1630.18
838.63	1615.85
838.80	1791.97
838.97	1810.40
839.14	1734.63
839.31	1804.26
839.48	1804.26
839.65	1751.01
839.82	1820.64
839.99	1726.44
840.16	1648.61
840.33	1697.77
840.50	1759.21
840.67	1636.33
840.84	1587.18
841.01	1658.85
841.18	1751.01
841.35	1738.73
841.52	1730.53
841.69	1820.64
841.86	1763.30
842.03	1687.53
842.20	1810.40
842.37	1751.01
842.54	1656.81
842.71	1634.28
842.88	1613.80
843.05	1703.91
843.22	1691.62
843.39	1712.10
843.56	1667.05
843.73	1708.01
843.90	1697.77
844.07	1624.04
844.24	1705.96
844.41	1755.11
844.58	1699.81
844.75	1685.48
844.92	1781.73
845.09	1728.49
845.26	1665.00
845.43	1603.56
845.60	1695.72
845.77	1730.53
845.94	1765.35
846.10	1810.40
846.27	1652.71
846.44	1669.09
846.61	1681.38
846.78	1787.88
846.95	1722.34
847.12	1636.33
847.29	1775.59
847.46	1632.23
847.63	1708.01
847.80	1673.19
847.97	1679.33
848.14	1802.21
848.31	1671.14
848.48	1669.09
848.65	1761.25
848.82	1660.90
848.98	1781.73
849.15	1656.81
849.32	1730.53
849.49	1701.86
849.66	1714.15
849.83	1724.39
850.00	1689.57
850.17	1710.05
850.34	1714.15
850.51	1642.47
850.68	1789.92
850.85	1779.68
851.01	1699.81
851.18	1751.01
851.35	1773.54
851.52	1800.16
851.69	1767.40
851.86	1665.00
852.03	1687.53
852.20	1728.49
852.37	1742.82
852.53	1619.94
852.70	1736.68
852.87	1730.53
853.04	1755.11
853.21	1708.01
853.38	1769.44
853.55	1781.73
853.72	1779.68
853.89	1687.53
854.05	1583.08
854.22	1675.24
854.39	1673.19
854.56	1738.73
854.73	1763.30
854.90	1703.91
855.07	1763.30
855.23	1710.05
855.40	1621.99
855.57	1697.77
855.74	1667.05
855.91	1937.38
856.08	1673.19
856.25	1578.98
856.41	1671.14
856.58	1710.05
856.75	1685.48
856.92	1748.97
857.09	1794.02
857.26	1617.90
857.42	1724.39
857.59	1695.72
857.76	1601.51
857.93	1722.34
858.10	1748.97
858.27	1652.71
858.43	1812.45
858.60	1632.23
858.77	1652.71
858.94	1644.52
859.11	1804.26
859.27	1701.86
859.44	1693.67
859.61	1824.74
859.78	1724.39
859.95	1662.95
860.12	1605.61
860.28	1847.27
860.45	1886.18
860.62	1652.71
860.79	1658.85
860.95	1691.62
861.12	1685.48
861.29	1654.76
861.46	1656.81
861.63	1689.57
861.79	1740.77
861.96	1673.19
862.13	1685.48
862.30	1777.64
862.47	1662.95
862.63	1669.09
862.80	1671.14
862.97	1771.49
863.14	1746.92
863.30	1736.68
863.47	1652.71
863.64	1775.59
863.81	1763.30
863.97	1701.86
864.14	1763.30
864.31	1603.56
864.48	1824.74
864.65	1652.71
864.81	1671.14
864.98	1783.78
865.15	1728.49
865.32	1771.49
865.48	1775.59
865.65	1794.02
865.82	1611.75
865.98	1767.40
866.15	1789.92
866.32	1667.05
866.49	1708.01
866.65	1736.68
866.82	1681.38
866.99	1640.42
867.16	1677.29
867.32	1703.91
867.49	1673.19
867.66	1675.24
867.83	1677.29
867.99	1578.98
868.16	1751.01
868.33	1679.33
868.49	1671.14
868.66	1701.86
868.83	1771.49
868.99	1710.05
869.16	1669.09
869.33	1675.24
869.50	1775.59
869.66	1652.71
869.83	1675.24
870.00	1630.18
870.16	1689.57
870.33	1726.44
870.50	1761.25
870.66	1675.24
870.83	1796.07
871.00	1712.10
871.17	1734.63
871.33	1738.73
871.50	1640.42
871.67	1722.34
871.83	1619.94
872.00	1738.73
872.17	1636.33
872.33	1834.98
872.50	1736.68
872.67	1671.14
872.83	1689.57
873.00	1746.92
873.17	1757.16
873.33	1757.16
873.50	1734.63
873.67	1632.23
873.83	1603.56
874.00	1755.11
874.16	1787.88
874.33	1705.96
874.50	1665.00
874.66	1781.73
874.83	1689.57
875.00	1796.07
875.16	1812.45
875.33	1755.11
875.50	1656.81
875.66	1665.00
875.83	1699.81
875.99	1738.73
876.16	1695.72
876.33	1632.23
876.49	1648.61
876.66	1753.06
876.83	1642.47
876.99	1619.94
877.16	1751.01
877.32	1701.86
877.49	1708.01
877.66	1708.01
877.82	1748.97
877.99	1708.01
878.15	1714.15
878.32	1667.05
878.49	1624.04
878.65	1660.90
878.82	1753.06
878.98	1642.47
879.15	1775.59
879.32	1722.34
879.48	1701.86
879.65	1689.57
879.81	1669.09
879.98	1646.57
880.15	1679.33
880.31	1732.58
880.48	1599.46
880.64	1822.69
880.81	1712.10
880.97	1812.45
881.14	1789.92
881.31	1708.01
881.47	1882.08
881.64	1736.68
881.80	1574.89
881.97	1665.00
882.13	1757.16
882.30	1648.61
882.47	1658.85
882.63	1656.81
882.80	1597.42
882.96	1630.18
883.13	1796.07
883.29	1636.33
883.46	1755.11
883.62	1810.40
883.79	1724.39
883.95	1710.05
884.12	1697.77
884.29	1781.73
884.45	1732.58
884.62	1796.07
884.78	1703.91
884.95	1767.40
885.11	1748.97
885.28	1742.82
885.44	1746.92
885.61	1773.54
885.77	1832.93
885.94	1716.20
886.10	1755.11
886.27	1740.77
886.43	1683.43
886.60	1724.39
886.76	1734.63
886.93	1679.33
887.09	1703.91
887.26	1632.23
887.42	1689.57
887.59	1726.44
887.75	1755.11
887.92	1748.97
888.08	1787.88
888.25	1804.26
888.41	1748.97
888.58	1677.29
888.74	1669.09
888.91	1755.11
>>>>>End Processed Spectral Data<<<<<
