SpectraSuite Data File
++++++++++++++++++++++++++++++++++++
Date: Wed May 04 18:44:10 CEST 2016
User: root
Dark Spectrum Present: No
Reference Spectrum Present: No
Number of Sampled Component Spectra: 1
Spectrometers: USB4C02835
Integration Time (usec): 100000 (USB4C02835)
Spectra Averaged: 1 (USB4C02835)
Boxcar Smoothing: 0 (USB4C02835)
Correct for Electrical Dark: No (USB4C02835)
Strobe/Lamp Enabled: No (USB4C02835)
Correct for Detector Non-linearity: No (USB4C02835)
Correct for Stray Light: No (USB4C02835)
Number of Pixels in Processed Spectrum: 3648
>>>>>Begin Processed Spectral Data<<<<<
177.47	1495.02
177.69	1495.02
177.91	1495.02
178.13	1515.50
178.36	1490.92
178.58	1675.24
178.80	1734.63
179.02	1562.60
179.24	1699.81
179.46	1748.97
179.68	1820.64
179.90	1656.81
180.13	1708.01
180.35	1677.29
180.57	1685.48
180.79	1736.68
181.01	1701.86
181.23	1839.08
181.45	1748.97
181.67	1834.98
181.90	1812.45
182.12	1681.38
182.34	1632.23
182.56	1742.82
182.78	1789.92
183.00	1660.90
183.22	1740.77
183.44	1699.81
183.66	1826.79
183.89	1769.44
184.11	1685.48
184.33	1785.83
184.55	1767.40
184.77	1761.25
184.99	1744.87
185.21	1689.57
185.43	1816.55
185.65	1689.57
185.87	1726.44
186.10	1859.56
186.32	1843.17
186.54	1677.29
186.76	1609.70
186.98	1734.63
187.20	1689.57
187.42	1687.53
187.64	1759.21
187.86	1689.57
188.08	1757.16
188.30	1689.57
188.52	1716.20
188.75	1705.96
188.97	1763.30
189.19	1658.85
189.41	1632.23
189.63	1728.49
189.85	1746.92
190.07	1662.95
190.29	1677.29
190.51	1644.52
190.73	1673.19
190.95	1746.92
191.17	1724.39
191.39	1693.67
191.61	1753.06
191.84	1697.77
192.06	1728.49
192.28	1626.09
192.50	1918.95
192.72	1693.67
192.94	1740.77
193.16	1722.34
193.38	1714.15
193.60	1640.42
193.82	1669.09
194.04	1757.16
194.26	1761.25
194.48	1677.29
194.70	1693.67
194.92	1648.61
195.14	1738.73
195.36	1705.96
195.58	1718.25
195.80	1679.33
196.02	1671.14
196.24	1687.53
196.46	1742.82
196.69	1662.95
196.91	1853.41
197.13	1640.42
197.35	1693.67
197.57	1726.44
197.79	1722.34
198.01	1740.77
198.23	1744.87
198.45	1787.88
198.67	1587.18
198.89	1662.95
199.11	1732.58
199.33	1701.86
199.55	1587.18
199.77	1710.05
199.99	1765.35
200.21	1730.53
200.43	1738.73
200.65	1660.90
200.87	1615.85
201.09	1697.77
201.31	1703.91
201.53	1734.63
201.75	1708.01
201.97	1728.49
202.19	1757.16
202.41	1769.44
202.63	1834.98
202.85	1783.78
203.07	1765.35
203.29	1716.20
203.51	1673.19
203.73	1716.20
203.95	1855.46
204.17	1734.63
204.39	1695.72
204.61	1718.25
204.83	1656.81
205.05	1820.64
205.27	1804.26
205.49	1773.54
205.71	1656.81
205.93	1609.70
206.15	1621.99
206.37	1753.06
206.59	1669.09
206.81	1679.33
207.03	1673.19
207.25	1681.38
207.47	1748.97
207.69	1673.19
207.91	1880.04
208.13	1794.02
208.34	1701.86
208.56	1640.42
208.78	1765.35
209.00	1685.48
209.22	1687.53
209.44	1697.77
209.66	1607.66
209.88	1691.62
210.10	1656.81
210.32	1638.38
210.54	1888.23
210.76	1728.49
210.98	1755.11
211.20	1619.94
211.42	1736.68
211.64	1720.29
211.86	1701.86
212.08	1789.92
212.30	1740.77
212.52	1822.69
212.74	1783.78
212.96	1650.66
213.17	1755.11
213.39	1734.63
213.61	1771.49
213.83	1742.82
214.05	1732.58
214.27	1734.63
214.49	1617.90
214.71	1705.96
214.93	1781.73
215.15	1675.24
215.37	1740.77
215.59	1683.43
215.81	1691.62
216.03	1714.15
216.24	1732.58
216.46	1669.09
216.68	1681.38
216.90	1736.68
217.12	1767.40
217.34	1755.11
217.56	1751.01
217.78	1773.54
218.00	1800.16
218.22	1755.11
218.44	1736.68
218.66	1710.05
218.87	1812.45
219.09	1718.25
219.31	1751.01
219.53	1718.25
219.75	1751.01
219.97	1656.81
220.19	1697.77
220.41	1667.05
220.63	1777.64
220.85	1701.86
221.06	1697.77
221.28	1753.06
221.50	1771.49
221.72	1685.48
221.94	1738.73
222.16	1732.58
222.38	1744.87
222.60	1718.25
222.82	1746.92
223.03	1753.06
223.25	1636.33
223.47	1726.44
223.69	1771.49
223.91	1687.53
224.13	1667.05
224.35	1798.12
224.57	1710.05
224.78	1736.68
225.00	1689.57
225.22	1658.85
225.44	1705.96
225.66	1800.16
225.88	1705.96
226.10	1763.30
226.32	1710.05
226.53	1818.60
226.75	1671.14
226.97	1693.67
227.19	1652.71
227.41	1656.81
227.63	1689.57
227.85	1654.76
228.06	1753.06
228.28	1787.88
228.50	1724.39
228.72	1693.67
228.94	1652.71
229.16	1648.61
229.37	1658.85
229.59	1722.34
229.81	1812.45
230.03	1552.36
230.25	1650.66
230.47	1583.08
230.69	1644.52
230.90	1767.40
231.12	1658.85
231.34	1722.34
231.56	1804.26
231.78	1624.04
232.00	1701.86
232.21	1673.19
232.43	1595.37
232.65	1591.27
232.87	1716.20
233.09	1656.81
233.30	1691.62
233.52	1728.49
233.74	1681.38
233.96	1789.92
234.18	1814.50
234.40	1607.66
234.61	1789.92
234.83	1644.52
235.05	1638.38
235.27	1810.40
235.49	1781.73
235.70	1734.63
235.92	1767.40
236.14	1761.25
236.36	1804.26
236.58	1615.85
236.79	1757.16
237.01	1695.72
237.23	1699.81
237.45	1775.59
237.67	1705.96
237.88	1740.77
238.10	1877.99
238.32	1671.14
238.54	1730.53
238.76	1685.48
238.97	1671.14
239.19	1658.85
239.41	1746.92
239.63	1787.88
239.85	1671.14
240.06	1693.67
240.28	1669.09
240.50	1791.97
240.72	1638.38
240.93	1681.38
241.15	1775.59
241.37	1755.11
241.59	1787.88
241.81	1660.90
242.02	1658.85
242.24	1687.53
242.46	1771.49
242.68	1646.57
242.89	1746.92
243.11	1708.01
243.33	1675.24
243.55	1640.42
243.76	1701.86
243.98	1671.14
244.20	1669.09
244.42	1703.91
244.64	1665.00
244.85	1601.51
245.07	1611.75
245.29	1714.15
245.51	1708.01
245.72	1728.49
245.94	1773.54
246.16	1724.39
246.38	1755.11
246.59	1689.57
246.81	1689.57
247.03	1748.97
247.24	1607.66
247.46	1730.53
247.68	1746.92
247.90	1642.47
248.11	1636.33
248.33	1796.07
248.55	1710.05
248.77	1751.01
248.98	1753.06
249.20	1826.79
249.42	1726.44
249.64	1773.54
249.85	1656.81
250.07	1673.19
250.29	1742.82
250.50	1755.11
250.72	1695.72
250.94	1708.01
251.16	1789.92
251.37	1785.83
251.59	1712.10
251.81	1695.72
252.02	1748.97
252.24	1669.09
252.46	1798.12
252.68	1603.56
252.89	1648.61
253.11	1710.05
253.33	1806.31
253.54	1783.78
253.76	1613.80
253.98	1714.15
254.20	1744.87
254.41	1648.61
254.63	1673.19
254.85	1646.57
255.06	1699.81
255.28	1740.77
255.50	1681.38
255.71	1662.95
255.93	1605.61
256.15	1669.09
256.36	1794.02
256.58	1705.96
256.80	1601.51
257.02	1751.01
257.23	1658.85
257.45	1624.04
257.67	1689.57
257.88	1609.70
258.10	1685.48
258.32	1722.34
258.53	1701.86
258.75	1755.11
258.97	1699.81
259.18	1681.38
259.40	1673.19
259.62	1816.55
259.83	1816.55
260.05	1771.49
260.27	1949.67
260.48	1771.49
260.70	1699.81
260.92	1722.34
261.13	1705.96
261.35	1691.62
261.57	1742.82
261.78	1658.85
262.00	1783.78
262.22	1730.53
262.43	1648.61
262.65	1662.95
262.86	1703.91
263.08	1843.17
263.30	1746.92
263.51	1681.38
263.73	1656.81
263.95	1738.73
264.16	1697.77
264.38	1658.85
264.60	1818.60
264.81	1726.44
265.03	1693.67
265.25	1796.07
265.46	1789.92
265.68	1783.78
265.89	1722.34
266.11	1654.76
266.33	1746.92
266.54	1808.36
266.76	1740.77
266.98	1710.05
267.19	1824.74
267.41	1773.54
267.62	1714.15
267.84	1673.19
268.06	1736.68
268.27	1763.30
268.49	1718.25
268.70	1767.40
268.92	1640.42
269.14	1591.27
269.35	1630.18
269.57	1685.48
269.79	1763.30
270.00	1650.66
270.22	1843.17
270.43	1646.57
270.65	1624.04
270.87	1730.53
271.08	1734.63
271.30	1814.50
271.51	1683.43
271.73	1757.16
271.95	1751.01
272.16	1716.20
272.38	1736.68
272.59	1685.48
272.81	1710.05
273.02	1722.34
273.24	1787.88
273.46	1789.92
273.67	1621.99
273.89	1654.76
274.10	1703.91
274.32	1837.03
274.54	1648.61
274.75	1763.30
274.97	1640.42
275.18	1769.44
275.40	1744.87
275.61	1679.33
275.83	1738.73
276.05	1662.95
276.26	1693.67
276.48	1720.29
276.69	1724.39
276.91	1677.29
277.12	1812.45
277.34	1765.35
277.55	1789.92
277.77	1718.25
277.99	1626.09
278.20	1611.75
278.42	1619.94
278.63	1636.33
278.85	1714.15
279.06	1607.66
279.28	1708.01
279.49	1710.05
279.71	1816.55
279.93	1691.62
280.14	1681.38
280.36	1632.23
280.57	1798.12
280.79	1781.73
281.00	1677.29
281.22	1705.96
281.43	1720.29
281.65	1665.00
281.86	1615.85
282.08	1761.25
282.29	1779.68
282.51	1646.57
282.73	1658.85
282.94	1683.43
283.16	1726.44
283.37	1796.07
283.59	1755.11
283.80	1771.49
284.02	1681.38
284.23	1734.63
284.45	1746.92
284.66	1650.66
284.88	1665.00
285.09	1734.63
285.31	1769.44
285.52	1746.92
285.74	1632.23
285.95	1746.92
286.17	1701.86
286.38	1759.21
286.60	1730.53
286.81	1597.42
287.03	1685.48
287.24	1728.49
287.46	1761.25
287.67	1636.33
287.89	1826.79
288.10	1658.85
288.32	1746.92
288.53	1753.06
288.75	1740.77
288.96	1697.77
289.18	1679.33
289.39	1722.34
289.61	1787.88
289.82	1830.88
290.04	1826.79
290.25	1646.57
290.47	1648.61
290.68	1751.01
290.90	1824.74
291.11	1617.90
291.33	1705.96
291.54	1658.85
291.76	1705.96
291.97	1730.53
292.18	1687.53
292.40	1671.14
292.61	1759.21
292.83	1877.99
293.04	1783.78
293.26	1771.49
293.47	1751.01
293.69	1628.14
293.90	1595.37
294.12	1744.87
294.33	1681.38
294.55	1654.76
294.76	1771.49
294.97	1720.29
295.19	1789.92
295.40	1585.13
295.62	1693.67
295.83	1763.30
296.05	1736.68
296.26	1734.63
296.48	1689.57
296.69	1720.29
296.90	1787.88
297.12	1761.25
297.33	1763.30
297.55	1695.72
297.76	1744.87
297.98	1693.67
298.19	1763.30
298.41	1722.34
298.62	1720.29
298.83	1738.73
299.05	1759.21
299.26	1619.94
299.48	1660.90
299.69	1777.64
299.90	1705.96
300.12	1626.09
300.33	1753.06
300.55	1736.68
300.76	1794.02
300.98	1619.94
301.19	1777.64
301.40	1642.47
301.62	1642.47
301.83	1732.58
302.05	1624.04
302.26	1746.92
302.47	1724.39
302.69	1691.62
302.90	1751.01
303.12	1601.51
303.33	1689.57
303.54	1748.97
303.76	1605.61
303.97	1726.44
304.19	1818.60
304.40	1665.00
304.61	1757.16
304.83	1847.27
305.04	1779.68
305.26	1724.39
305.47	1695.72
305.68	1658.85
305.90	1609.70
306.11	1732.58
306.33	1687.53
306.54	1656.81
306.75	1748.97
306.97	1626.09
307.18	1687.53
307.39	1628.14
307.61	1779.68
307.82	1646.57
308.04	1710.05
308.25	1630.18
308.46	1744.87
308.68	1632.23
308.89	1665.00
309.10	1757.16
309.32	1705.96
309.53	1712.10
309.74	1751.01
309.96	1652.71
310.17	1677.29
310.39	1652.71
310.60	1783.78
310.81	1630.18
311.03	1673.19
311.24	1685.48
311.45	1679.33
311.67	1820.64
311.88	1644.52
312.09	1697.77
312.31	1603.56
312.52	1671.14
312.73	1734.63
312.95	1714.15
313.16	1658.85
313.37	1818.60
313.59	1769.44
313.80	1714.15
314.01	1777.64
314.23	1691.62
314.44	1701.86
314.65	1611.75
314.87	1695.72
315.08	1687.53
315.29	1716.20
315.51	1603.56
315.72	1552.36
315.93	1775.59
316.15	1800.16
316.36	1679.33
316.57	1669.09
316.79	1730.53
317.00	1669.09
317.21	1751.01
317.43	1689.57
317.64	1697.77
317.85	1671.14
318.07	1703.91
318.28	1738.73
318.49	1923.04
318.70	1966.05
318.92	1892.32
319.13	1857.51
319.34	1894.37
319.56	1812.45
319.77	1918.95
319.98	1828.84
320.20	1859.56
320.41	1800.16
320.62	1791.97
320.83	1660.90
321.05	1859.56
321.26	1738.73
321.47	1685.48
321.69	1814.50
321.90	1681.38
322.11	1677.29
322.32	1726.44
322.54	1806.31
322.75	1681.38
322.96	1775.59
323.18	1613.80
323.39	1650.66
323.60	1677.29
323.81	1740.77
324.03	1675.24
324.24	1714.15
324.45	1744.87
324.66	1646.57
324.88	1818.60
325.09	1783.78
325.30	1718.25
325.52	1748.97
325.73	1685.48
325.94	1689.57
326.15	1615.85
326.37	1632.23
326.58	1757.16
326.79	1748.97
327.00	1751.01
327.22	1689.57
327.43	1699.81
327.64	1558.50
327.85	1665.00
328.07	1724.39
328.28	1832.93
328.49	1644.52
328.70	1714.15
328.92	1667.05
329.13	1681.38
329.34	1726.44
329.55	1814.50
329.76	1675.24
329.98	1679.33
330.19	1753.06
330.40	1753.06
330.61	1740.77
330.83	1734.63
331.04	1681.38
331.25	1708.01
331.46	1693.67
331.68	1673.19
331.89	1722.34
332.10	1722.34
332.31	1591.27
332.52	1640.42
332.74	1681.38
332.95	1609.70
333.16	1685.48
333.37	1738.73
333.58	1679.33
333.80	1748.97
334.01	1681.38
334.22	1726.44
334.43	1677.29
334.64	1701.86
334.86	1617.90
335.07	1609.70
335.28	1832.93
335.49	1624.04
335.70	1689.57
335.92	1759.21
336.13	1824.74
336.34	1732.58
336.55	1748.97
336.76	1767.40
336.98	1624.04
337.19	1671.14
337.40	1812.45
337.61	1931.23
337.82	1691.62
338.04	1710.05
338.25	1683.43
338.46	1656.81
338.67	1679.33
338.88	1656.81
339.09	1685.48
339.31	1693.67
339.52	1652.71
339.73	1677.29
339.94	1660.90
340.15	1699.81
340.36	1669.09
340.58	1673.19
340.79	1703.91
341.00	1771.49
341.21	1677.29
341.42	1902.56
341.63	1695.72
341.85	1714.15
342.06	1771.49
342.27	1677.29
342.48	1615.85
342.69	1679.33
342.90	1755.11
343.12	1736.68
343.33	1660.90
343.54	1740.77
343.75	1822.69
343.96	1712.10
344.17	1669.09
344.38	1654.76
344.60	1646.57
344.81	1624.04
345.02	1660.90
345.23	1763.30
345.44	1931.23
345.65	1705.96
345.86	1757.16
346.07	1734.63
346.29	1656.81
346.50	1757.16
346.71	1757.16
346.92	1751.01
347.13	1767.40
347.34	1740.77
347.55	1703.91
347.76	1732.58
347.98	1624.04
348.19	1691.62
348.40	1763.30
348.61	1673.19
348.82	1787.88
349.03	1658.85
349.24	1654.76
349.45	1794.02
349.66	1669.09
349.88	1679.33
350.09	1724.39
350.30	1771.49
350.51	1796.07
350.72	1748.97
350.93	1791.97
351.14	1632.23
351.35	1779.68
351.56	1640.42
351.77	1724.39
351.99	1720.29
352.20	1773.54
352.41	1759.21
352.62	1671.14
352.83	1681.38
353.04	1738.73
353.25	1746.92
353.46	1800.16
353.67	1785.83
353.88	1646.57
354.09	1718.25
354.30	1648.61
354.52	1734.63
354.73	1640.42
354.94	1705.96
355.15	1693.67
355.36	1775.59
355.57	1669.09
355.78	1714.15
355.99	1613.80
356.20	1595.37
356.41	1787.88
356.62	1714.15
356.83	1808.36
357.04	1806.31
357.25	1689.57
357.46	1695.72
357.68	1669.09
357.89	1650.66
358.10	1746.92
358.31	1677.29
358.52	1751.01
358.73	1712.10
358.94	1675.24
359.15	1718.25
359.36	1708.01
359.57	1722.34
359.78	1734.63
359.99	1763.30
360.20	1650.66
360.41	1669.09
360.62	1751.01
360.83	1738.73
361.04	1773.54
361.25	1806.31
361.46	1841.12
361.67	1718.25
361.88	1734.63
362.09	1796.07
362.30	1753.06
362.51	1648.61
362.72	1734.63
362.93	1779.68
363.14	1722.34
363.35	1753.06
363.56	1732.58
363.78	1699.81
363.99	1718.25
364.20	1689.57
364.41	1736.68
364.62	1785.83
364.83	1761.25
365.04	1757.16
365.25	1718.25
365.46	1820.64
365.67	1656.81
365.88	1658.85
366.09	1714.15
366.30	1669.09
366.51	1718.25
366.72	1679.33
366.93	1652.71
367.14	1724.39
367.35	1759.21
367.56	1767.40
367.77	1888.23
367.98	1705.96
368.18	1753.06
368.39	1675.24
368.60	1675.24
368.81	1720.29
369.02	1796.07
369.23	1687.53
369.44	1677.29
369.65	1761.25
369.86	1662.95
370.07	1695.72
370.28	1665.00
370.49	1759.21
370.70	1857.51
370.91	1681.38
371.12	1630.18
371.33	1716.20
371.54	1677.29
371.75	1798.12
371.96	1525.74
372.17	1736.68
372.38	1681.38
372.59	1785.83
372.80	1679.33
373.01	1667.05
373.22	1748.97
373.43	1740.77
373.64	1673.19
373.85	1814.50
374.06	1787.88
374.26	1673.19
374.47	1720.29
374.68	1775.59
374.89	1767.40
375.10	1705.96
375.31	1761.25
375.52	1708.01
375.73	1687.53
375.94	1636.33
376.15	1767.40
376.36	1720.29
376.57	1724.39
376.78	1701.86
376.99	1742.82
377.20	1781.73
377.40	1695.72
377.61	1789.92
377.82	1617.90
378.03	1732.58
378.24	1710.05
378.45	1716.20
378.66	1714.15
378.87	1646.57
379.08	1648.61
379.29	1722.34
379.50	1763.30
379.71	1656.81
379.91	1730.53
380.12	1669.09
380.33	1730.53
380.54	1703.91
380.75	1724.39
380.96	1736.68
381.17	1783.78
381.38	1755.11
381.59	1740.77
381.80	1802.21
382.00	1843.17
382.21	1775.59
382.42	1871.84
382.63	1933.28
382.84	1759.21
383.05	1791.97
383.26	1787.88
383.47	1732.58
383.68	1669.09
383.88	1804.26
384.09	1681.38
384.30	1785.83
384.51	1763.30
384.72	1732.58
384.93	1566.70
385.14	1763.30
385.35	1824.74
385.55	1677.29
385.76	1787.88
385.97	1675.24
386.18	1673.19
386.39	1722.34
386.60	1679.33
386.81	1714.15
387.02	1636.33
387.22	1673.19
387.43	1779.68
387.64	1818.60
387.85	1939.43
388.06	2213.85
388.27	4739.00
388.48	9039.73
388.68	11593.55
388.89	13330.23
389.10	13979.43
389.31	11876.17
389.52	9736.04
389.73	8726.39
389.93	7745.42
390.14	7135.12
390.35	6633.37
390.56	6006.69
390.77	4992.95
390.98	4069.31
391.18	3002.32
391.39	2398.17
391.60	1929.19
391.81	1861.60
392.02	1794.02
392.23	1808.36
392.43	1738.73
392.64	1759.21
392.85	1744.87
393.06	1783.78
393.27	1701.86
393.47	1660.90
393.68	1755.11
393.89	1740.77
394.10	1732.58
394.31	1722.34
394.52	1730.53
394.72	1701.86
394.93	1785.83
395.14	1673.19
395.35	1769.44
395.56	1667.05
395.76	1720.29
395.97	1763.30
396.18	1849.32
396.39	1910.75
396.60	2070.50
396.80	1951.71
397.01	1779.68
397.22	1912.80
397.43	1816.55
397.64	1814.50
397.84	1886.18
398.05	1890.28
398.26	1675.24
398.47	1800.16
398.67	1867.75
398.88	1722.34
399.09	1728.49
399.30	1744.87
399.51	1744.87
399.71	1662.95
399.92	1732.58
400.13	1736.68
400.34	1712.10
400.54	1687.53
400.75	1886.18
400.96	1738.73
401.17	1812.45
401.37	1798.12
401.58	1703.91
401.79	1665.00
402.00	1914.85
402.21	2058.21
402.41	2119.65
402.62	2050.02
402.83	2242.53
403.04	2076.64
403.24	2078.69
403.45	1880.04
403.66	2062.30
403.87	1875.94
404.07	1912.80
404.28	1974.24
404.49	1888.23
404.70	1814.50
404.90	1804.26
405.11	1759.21
405.32	1734.63
405.52	1812.45
405.73	1714.15
405.94	1642.47
406.15	1621.99
406.35	1710.05
406.56	1781.73
406.77	1785.83
406.98	1765.35
407.18	1689.57
407.39	1796.07
407.60	1656.81
407.80	1697.77
408.01	1679.33
408.22	1724.39
408.43	1724.39
408.63	1722.34
408.84	1701.86
409.05	1744.87
409.25	1624.04
409.46	1677.29
409.67	1705.96
409.88	1685.48
410.08	1712.10
410.29	1683.43
410.50	1710.05
410.70	1726.44
410.91	1619.94
411.12	1779.68
411.32	1691.62
411.53	1675.24
411.74	1828.84
411.95	1855.46
412.15	1800.16
412.36	1820.64
412.57	1777.64
412.77	1796.07
412.98	1718.25
413.19	1679.33
413.39	1814.50
413.60	1771.49
413.81	1828.84
414.01	1724.39
414.22	1763.30
414.43	1734.63
414.63	1699.81
414.84	1773.54
415.05	1759.21
415.25	1621.99
415.46	1763.30
415.67	1767.40
415.87	1697.77
416.08	1685.48
416.29	1671.14
416.49	1800.16
416.70	1783.78
416.91	1703.91
417.11	1771.49
417.32	1724.39
417.53	1798.12
417.73	1789.92
417.94	1642.47
418.15	1773.54
418.35	1642.47
418.56	1669.09
418.77	1896.42
418.97	1724.39
419.18	1742.82
419.38	1591.27
419.59	1746.92
419.80	1791.97
420.00	1748.97
420.21	1734.63
420.42	1785.83
420.62	1746.92
420.83	1617.90
421.04	1687.53
421.24	1716.20
421.45	1718.25
421.65	1767.40
421.86	1658.85
422.07	1734.63
422.27	1705.96
422.48	1687.53
422.69	1634.28
422.89	1671.14
423.10	1693.67
423.30	1656.81
423.51	1779.68
423.72	1685.48
423.92	1742.82
424.13	1628.14
424.33	1703.91
424.54	1716.20
424.75	1708.01
424.95	1789.92
425.16	1736.68
425.36	1691.62
425.57	1753.06
425.78	1685.48
425.98	1808.36
426.19	1603.56
426.39	1624.04
426.60	1796.07
426.81	1828.84
427.01	1708.01
427.22	1720.29
427.42	1650.66
427.63	1636.33
427.83	1751.01
428.04	1802.21
428.25	1785.83
428.45	1753.06
428.66	1703.91
428.86	1652.71
429.07	1681.38
429.28	1734.63
429.48	1722.34
429.69	1679.33
429.89	1730.53
430.10	1632.23
430.30	1738.73
430.51	1789.92
430.71	1701.86
430.92	1722.34
431.13	1714.15
431.33	1695.72
431.54	1740.77
431.74	1746.92
431.95	1828.84
432.15	1679.33
432.36	1722.34
432.56	1746.92
432.77	1759.21
432.98	1839.08
433.18	1701.86
433.39	1656.81
433.59	1697.77
433.80	1839.08
434.00	1890.28
434.21	1726.44
434.41	1734.63
434.62	1855.46
434.82	1679.33
435.03	1626.09
435.23	1746.92
435.44	1648.61
435.64	1748.97
435.85	1753.06
436.06	1738.73
436.26	1722.34
436.47	1734.63
436.67	1751.01
436.88	1777.64
437.08	1730.53
437.29	1730.53
437.49	1759.21
437.70	1751.01
437.90	1746.92
438.11	1771.49
438.31	1816.55
438.52	1828.84
438.72	1894.37
438.93	2013.15
439.13	1839.08
439.34	1808.36
439.54	1810.40
439.75	1806.31
439.95	1783.78
440.16	1708.01
440.36	1810.40
440.57	1841.12
440.77	1746.92
440.98	1710.05
441.18	1867.75
441.39	1757.16
441.59	1705.96
441.80	1820.64
442.00	1720.29
442.21	1814.50
442.41	1667.05
442.62	1867.75
442.82	1667.05
443.02	1632.23
443.23	1755.11
443.43	1695.72
443.64	1824.74
443.84	1746.92
444.05	1777.64
444.25	1726.44
444.46	1744.87
444.66	1712.10
444.87	1787.88
445.07	1638.38
445.28	1751.01
445.48	1847.27
445.69	1796.07
445.89	1861.60
446.09	1822.69
446.30	2013.15
446.50	2516.95
446.71	4063.17
446.91	5113.78
447.12	5683.11
447.32	5906.34
447.53	5291.95
447.73	4579.26
447.93	4034.50
448.14	3700.68
448.34	3373.00
448.55	3145.68
448.75	3127.25
448.96	2977.75
449.16	2725.85
449.36	2453.47
449.57	2211.81
449.77	1853.41
449.98	1765.35
450.18	1787.88
450.39	1859.56
450.59	1734.63
450.79	1665.00
451.00	1687.53
451.20	1777.64
451.41	1767.40
451.61	1757.16
451.81	1769.44
452.02	1720.29
452.22	1636.33
452.43	1734.63
452.63	1673.19
452.84	1718.25
453.04	1724.39
453.24	1771.49
453.45	1648.61
453.65	1718.25
453.86	1746.92
454.06	1761.25
454.26	1716.20
454.47	1695.72
454.67	1837.03
454.87	1685.48
455.08	1718.25
455.28	1714.15
455.49	1763.30
455.69	1632.23
455.89	1888.23
456.10	1761.25
456.30	1652.71
456.51	1763.30
456.71	1771.49
456.91	1769.44
457.12	1763.30
457.32	1746.92
457.52	1673.19
457.73	1804.26
457.93	1738.73
458.14	1720.29
458.34	1689.57
458.54	1685.48
458.75	1712.10
458.95	1798.12
459.15	1687.53
459.36	1708.01
459.56	1818.60
459.76	1877.99
459.97	1744.87
460.17	1761.25
460.37	1656.81
460.58	1765.35
460.78	1755.11
460.99	1726.44
461.19	1693.67
461.39	1685.48
461.60	1705.96
461.80	1806.31
462.00	1591.27
462.21	1753.06
462.41	1642.47
462.61	1656.81
462.82	1636.33
463.02	1789.92
463.22	1787.88
463.43	1853.41
463.63	1693.67
463.83	1783.78
464.04	1710.05
464.24	1763.30
464.44	1714.15
464.64	1705.96
464.85	1765.35
465.05	1742.82
465.25	1701.86
465.46	1759.21
465.66	1697.77
465.86	1810.40
466.07	1777.64
466.27	1714.15
466.47	1705.96
466.68	1628.14
466.88	1767.40
467.08	1712.10
467.29	1828.84
467.49	1814.50
467.69	1748.97
467.89	1703.91
468.10	1730.53
468.30	1705.96
468.50	1740.77
468.71	1847.27
468.91	1671.14
469.11	1839.08
469.31	1720.29
469.52	1677.29
469.72	1818.60
469.92	1896.42
470.13	1683.43
470.33	1753.06
470.53	1773.54
470.73	2140.13
470.94	2459.61
471.14	2721.75
471.34	3028.95
471.54	2899.92
471.75	2494.43
471.95	2349.02
472.15	2199.52
472.36	2213.85
472.56	2209.76
472.76	2217.95
472.96	2101.22
473.17	2056.16
473.37	2013.15
473.57	1884.13
473.77	1888.23
473.98	1742.82
474.18	1671.14
474.38	1980.39
474.58	1701.86
474.79	1667.05
474.99	1742.82
475.19	1771.49
475.39	1634.28
475.60	1763.30
475.80	1677.29
476.00	1740.77
476.20	1660.90
476.41	1794.02
476.61	1839.08
476.81	1910.75
477.01	1695.72
477.21	1875.94
477.42	1820.64
477.62	1701.86
477.82	1710.05
478.02	1701.86
478.23	1779.68
478.43	1642.47
478.63	1718.25
478.83	1691.62
479.03	1732.58
479.24	1773.54
479.44	1828.84
479.64	1708.01
479.84	1619.94
480.04	1687.53
480.25	1757.16
480.45	1677.29
480.65	1748.97
480.85	1775.59
481.06	1681.38
481.26	1748.97
481.46	1757.16
481.66	1748.97
481.86	1687.53
482.06	1828.84
482.27	1722.34
482.47	1740.77
482.67	1796.07
482.87	1689.57
483.07	1857.51
483.28	1687.53
483.48	1642.47
483.68	1679.33
483.88	1669.09
484.08	1626.09
484.29	1734.63
484.49	1755.11
484.69	1607.66
484.89	1828.84
485.09	1849.32
485.29	1736.68
485.50	1757.16
485.70	1712.10
485.90	1738.73
486.10	1712.10
486.30	1712.10
486.50	1763.30
486.71	1783.78
486.91	1789.92
487.11	1808.36
487.31	1662.95
487.51	1781.73
487.71	1685.48
487.91	1632.23
488.12	1675.24
488.32	1615.85
488.52	1746.92
488.72	1591.27
488.92	1705.96
489.12	1761.25
489.32	1812.45
489.53	1822.69
489.73	1736.68
489.93	1796.07
490.13	1679.33
490.33	1718.25
490.53	1781.73
490.73	1761.25
490.94	1634.28
491.14	1736.68
491.34	1787.88
491.54	2107.36
491.74	2637.78
491.94	3190.74
492.14	3426.25
492.34	3477.45
492.54	3117.01
492.75	2746.33
492.95	2613.21
493.15	2416.60
493.35	2430.94
493.55	2260.96
493.75	2230.24
493.95	2168.80
494.15	2156.51
494.35	1984.48
494.56	1902.56
494.76	1740.77
494.96	1800.16
495.16	1832.93
495.36	1789.92
495.56	1748.97
495.76	1685.48
495.96	1732.58
496.16	1648.61
496.36	1820.64
496.56	1794.02
496.77	1746.92
496.97	1728.49
497.17	1783.78
497.37	1671.14
497.57	1810.40
497.77	1701.86
497.97	1699.81
498.17	1730.53
498.37	1740.77
498.57	1779.68
498.77	1787.88
498.97	1753.06
499.17	1855.46
499.38	1755.11
499.58	1656.81
499.78	1796.07
499.98	1765.35
500.18	1724.39
500.38	1701.86
500.58	1841.12
500.78	2394.08
500.98	4548.54
501.18	6750.10
501.38	8087.43
501.58	9099.13
501.78	8841.08
501.98	6846.36
502.18	5810.09
502.38	4939.70
502.58	4499.39
502.78	4007.87
502.98	3981.25
503.18	3905.48
503.38	3549.13
503.59	3147.73
503.79	2881.49
503.99	2709.46
504.19	2400.22
504.39	2320.35
504.59	2271.20
504.79	2301.92
504.99	2299.87
505.19	1982.43
505.39	2002.91
505.59	1980.39
505.79	1957.86
505.99	1970.15
506.19	1949.67
506.39	1839.08
506.59	1738.73
506.79	1849.32
506.99	1880.04
507.19	1781.73
507.39	1728.49
507.59	1708.01
507.79	1701.86
507.99	1744.87
508.19	1826.79
508.39	1722.34
508.59	1748.97
508.79	1769.44
508.99	1834.98
509.19	1685.48
509.39	1818.60
509.59	1712.10
509.79	1765.35
509.99	1714.15
510.19	1832.93
510.39	1746.92
510.59	1738.73
510.79	1677.29
510.99	1673.19
511.19	1785.83
511.39	1859.56
511.59	1781.73
511.79	1918.95
511.99	1761.25
512.19	1888.23
512.38	1712.10
512.58	1662.95
512.78	1740.77
512.98	1781.73
513.18	1824.74
513.38	1679.33
513.58	1791.97
513.78	1802.21
513.98	1769.44
514.18	1708.01
514.38	1742.82
514.58	1742.82
514.78	1695.72
514.98	1607.66
515.18	1742.82
515.38	1708.01
515.58	1859.56
515.78	1724.39
515.98	1771.49
516.18	1720.29
516.38	1804.26
516.57	1683.43
516.77	1796.07
516.97	1738.73
517.17	1740.77
517.37	1599.46
517.57	1812.45
517.77	1753.06
517.97	1771.49
518.17	1796.07
518.37	1705.96
518.57	1646.57
518.77	1710.05
518.97	1748.97
519.16	1781.73
519.36	1812.45
519.56	1728.49
519.76	1738.73
519.96	1816.55
520.16	1791.97
520.36	1624.04
520.56	1806.31
520.76	1732.58
520.96	1667.05
521.16	1771.49
521.35	1718.25
521.55	1843.17
521.75	1767.40
521.95	1767.40
522.15	1761.25
522.35	1656.81
522.55	1761.25
522.75	1798.12
522.95	1669.09
523.14	1675.24
523.34	1771.49
523.54	1722.34
523.74	1773.54
523.94	1740.77
524.14	1691.62
524.34	1732.58
524.54	1855.46
524.73	1789.92
524.93	1863.65
525.13	1806.31
525.33	1619.94
525.53	1843.17
525.73	1734.63
525.93	1736.68
526.13	1677.29
526.32	1785.83
526.52	1726.44
526.72	1751.01
526.92	1703.91
527.12	1769.44
527.32	1671.14
527.52	1734.63
527.71	1785.83
527.91	1755.11
528.11	1703.91
528.31	1718.25
528.51	1617.90
528.71	1755.11
528.90	1806.31
529.10	1859.56
529.30	1724.39
529.50	1619.94
529.70	1767.40
529.90	1673.19
530.09	1714.15
530.29	1658.85
530.49	1603.56
530.69	1925.09
530.89	1775.59
531.09	1720.29
531.28	1742.82
531.48	1857.51
531.68	1755.11
531.88	1742.82
532.08	1773.54
532.28	1693.67
532.47	1798.12
532.67	1757.16
532.87	1783.78
533.07	1712.10
533.27	1779.68
533.46	1722.34
533.66	1789.92
533.86	1714.15
534.06	1689.57
534.26	1843.17
534.45	1744.87
534.65	1814.50
534.85	1757.16
535.05	1712.10
535.25	1763.30
535.44	1611.75
535.64	1773.54
535.84	1689.57
536.04	1626.09
536.24	1701.86
536.43	1660.90
536.63	1767.40
536.83	1716.20
537.03	1728.49
537.22	1679.33
537.42	1632.23
537.62	1724.39
537.82	1734.63
538.02	1843.17
538.21	1781.73
538.41	1851.36
538.61	1773.54
538.81	1714.15
539.00	1718.25
539.20	1679.33
539.40	1720.29
539.60	1857.51
539.79	1783.78
539.99	1701.86
540.19	1675.24
540.39	1724.39
540.58	1755.11
540.78	1701.86
540.98	1748.97
541.18	1861.60
541.37	1769.44
541.57	1669.09
541.77	1755.11
541.97	1677.29
542.16	1636.33
542.36	1705.96
542.56	1712.10
542.76	1873.89
542.95	1767.40
543.15	1720.29
543.35	1845.22
543.54	1744.87
543.74	1767.40
543.94	1800.16
544.14	1693.67
544.33	1837.03
544.53	1738.73
544.73	1742.82
544.93	1722.34
545.12	1673.19
545.32	1818.60
545.52	1736.68
545.71	1609.70
545.91	1697.77
546.11	1644.52
546.30	1759.21
546.50	1724.39
546.70	1775.59
546.90	1730.53
547.09	1621.99
547.29	1746.92
547.49	1775.59
547.68	1722.34
547.88	1648.61
548.08	1800.16
548.27	2213.85
548.47	1587.18
548.67	1619.94
548.87	1802.21
549.06	1789.92
549.26	1830.88
549.46	1671.14
549.65	1718.25
549.85	1718.25
550.05	1798.12
550.24	1695.72
550.44	1730.53
550.64	1732.58
550.83	1787.88
551.03	1820.64
551.23	1767.40
551.42	1828.84
551.62	1691.62
551.82	1753.06
552.01	1691.62
552.21	1787.88
552.41	1767.40
552.60	1822.69
552.80	1710.05
553.00	1673.19
553.19	1802.21
553.39	1791.97
553.59	1611.75
553.78	1775.59
553.98	1765.35
554.17	1656.81
554.37	1785.83
554.57	1740.77
554.76	1665.00
554.96	1705.96
555.16	1751.01
555.35	1812.45
555.55	1708.01
555.75	1759.21
555.94	1789.92
556.14	1685.48
556.33	1808.36
556.53	1738.73
556.73	1755.11
556.92	1746.92
557.12	1847.27
557.32	1773.54
557.51	1847.27
557.71	1763.30
557.90	1826.79
558.10	1832.93
558.30	1693.67
558.49	1681.38
558.69	1683.43
558.88	1755.11
559.08	1748.97
559.28	1714.15
559.47	1822.69
559.67	1755.11
559.86	1824.74
560.06	1787.88
560.26	1724.39
560.45	1683.43
560.65	1755.11
560.84	1832.93
561.04	1669.09
561.24	1755.11
561.43	1640.42
561.63	1812.45
561.82	1773.54
562.02	1718.25
562.22	1751.01
562.41	1613.80
562.61	1697.77
562.80	1583.08
563.00	1914.85
563.19	1697.77
563.39	1783.78
563.59	1837.03
563.78	1681.38
563.98	1615.85
564.17	1736.68
564.37	1710.05
564.56	1683.43
564.76	1628.14
564.96	1753.06
565.15	1720.29
565.35	1898.47
565.54	1685.48
565.74	1796.07
565.93	1779.68
566.13	1712.10
566.32	1820.64
566.52	1740.77
566.71	1751.01
566.91	1732.58
567.11	1777.64
567.30	1714.15
567.50	1748.97
567.69	1728.49
567.89	1718.25
568.08	1665.00
568.28	1785.83
568.47	1671.14
568.67	1718.25
568.86	1691.62
569.06	1800.16
569.25	1705.96
569.45	1681.38
569.64	1728.49
569.84	1734.63
570.04	1787.88
570.23	1714.15
570.43	1638.38
570.62	1703.91
570.82	1804.26
571.01	1681.38
571.21	1738.73
571.40	1675.24
571.60	1755.11
571.79	1699.81
571.99	1714.15
572.18	1732.58
572.38	1773.54
572.57	1701.86
572.77	1726.44
572.96	1834.98
573.16	1804.26
573.35	1714.15
573.55	1781.73
573.74	1716.20
573.94	1691.62
574.13	1746.92
574.33	1828.84
574.52	1837.03
574.71	1796.07
574.91	1777.64
575.10	1679.33
575.30	1773.54
575.49	1683.43
575.69	1753.06
575.88	1744.87
576.08	1798.12
576.27	1910.75
576.47	1787.88
576.66	1910.75
576.86	1841.12
577.05	1761.25
577.25	1763.30
577.44	1927.14
577.64	1705.96
577.83	1769.44
578.02	1748.97
578.22	1783.78
578.41	1830.88
578.61	1654.76
578.80	1687.53
579.00	1773.54
579.19	1763.30
579.39	1732.58
579.58	1824.74
579.77	1726.44
579.97	1910.75
580.16	1834.98
580.36	1880.04
580.55	1861.60
580.75	1830.88
580.94	1755.11
581.13	1830.88
581.33	1896.42
581.52	1738.73
581.72	1861.60
581.91	1904.61
582.11	1736.68
582.30	1761.25
582.49	1845.22
582.69	1832.93
582.88	1857.51
583.08	1779.68
583.27	1859.56
583.47	1738.73
583.66	1712.10
583.85	1662.95
584.05	1734.63
584.24	1834.98
584.44	1787.88
584.63	1939.43
584.82	1898.47
585.02	1865.70
585.21	1972.19
585.41	1941.47
585.60	1978.34
585.79	1931.23
585.99	2009.06
586.18	1894.37
586.37	2265.05
586.57	3336.14
586.76	9989.99
586.96	27082.34
587.15	41794.95
587.34	51420.40
587.54	58004.62
587.73	55624.88
587.93	40013.21
588.12	29750.84
588.31	23522.97
588.51	20104.91
588.70	18462.44
588.89	16951.04
589.09	15445.78
589.28	13426.48
589.47	11505.49
589.67	9514.86
589.86	7376.78
590.06	5523.37
590.25	4188.10
590.44	3280.85
590.64	2637.78
590.83	2367.45
591.02	2054.11
591.22	1923.04
591.41	1918.95
591.60	1832.93
591.80	1943.52
591.99	1771.49
592.18	1812.45
592.38	1771.49
592.57	1732.58
592.76	1773.54
592.96	1771.49
593.15	1710.05
593.34	1865.70
593.54	1732.58
593.73	1746.92
593.92	1834.98
594.12	1834.98
594.31	1783.78
594.50	1816.55
594.70	1877.99
594.89	1886.18
595.08	1720.29
595.28	1863.65
595.47	1927.14
595.66	1816.55
595.86	1791.97
596.05	1789.92
596.24	1779.68
596.43	1867.75
596.63	1847.27
596.82	1804.26
597.01	1720.29
597.21	1892.32
597.40	1787.88
597.59	1830.88
597.79	1806.31
597.98	1851.36
598.17	1806.31
598.36	1816.55
598.56	1816.55
598.75	1779.68
598.94	1777.64
599.14	1777.64
599.33	1779.68
599.52	1693.67
599.71	1765.35
599.91	1785.83
600.10	1845.22
600.29	1701.86
600.48	1837.03
600.68	1779.68
600.87	1832.93
601.06	1675.24
601.26	1755.11
601.45	1724.39
601.64	1687.53
601.83	1802.21
602.03	1697.77
602.22	1628.14
602.41	1824.74
602.60	1914.85
602.80	1863.65
602.99	1755.11
603.18	1732.58
603.37	1789.92
603.57	1761.25
603.76	1710.05
603.95	1849.32
604.14	1736.68
604.34	1660.90
604.53	1708.01
604.72	1800.16
604.91	1800.16
605.10	1779.68
605.30	1708.01
605.49	1877.99
605.68	1753.06
605.87	1742.82
606.07	1705.96
606.26	1710.05
606.45	1753.06
606.64	1730.53
606.84	1689.57
607.03	1773.54
607.22	1806.31
607.41	1763.30
607.60	1712.10
607.80	1824.74
607.99	1722.34
608.18	1671.14
608.37	1748.97
608.56	1816.55
608.76	1861.60
608.95	1886.18
609.14	1812.45
609.33	1845.22
609.52	1910.75
609.72	1775.59
609.91	1880.04
610.10	1810.40
610.29	1888.23
610.48	1908.71
610.68	1810.40
610.87	1701.86
611.06	1830.88
611.25	1748.97
611.44	1812.45
611.63	1679.33
611.83	1867.75
612.02	1650.66
612.21	1814.50
612.40	1630.18
612.59	1642.47
612.79	1695.72
612.98	1724.39
613.17	1857.51
613.36	1689.57
613.55	1769.44
613.74	1822.69
613.93	1912.80
614.13	1875.94
614.32	1941.47
614.51	1935.33
614.70	1869.80
614.89	1773.54
615.08	1820.64
615.28	2084.83
615.47	1697.77
615.66	1828.84
615.85	1800.16
616.04	1824.74
616.23	1857.51
616.42	1818.60
616.62	1863.65
616.81	1789.92
617.00	1681.38
617.19	1830.88
617.38	1728.49
617.57	1755.11
617.76	1712.10
617.95	1771.49
618.15	1777.64
618.34	1855.46
618.53	1683.43
618.72	1755.11
618.91	1724.39
619.10	1845.22
619.29	1748.97
619.48	1796.07
619.68	1695.72
619.87	1720.29
620.06	1611.75
620.25	1771.49
620.44	1687.53
620.63	1693.67
620.82	1798.12
621.01	1761.25
621.20	1826.79
621.39	1800.16
621.59	1789.92
621.78	1777.64
621.97	1787.88
622.16	1689.57
622.35	1806.31
622.54	1781.73
622.73	1761.25
622.92	1699.81
623.11	1839.08
623.30	1714.15
623.49	1812.45
623.68	1722.34
623.88	1808.36
624.07	1691.62
624.26	1634.28
624.45	1683.43
624.64	1779.68
624.83	1783.78
625.02	1665.00
625.21	1697.77
625.40	1728.49
625.59	1822.69
625.78	1697.77
625.97	1798.12
626.16	1863.65
626.35	1796.07
626.54	1818.60
626.74	1873.89
626.93	1783.78
627.12	1812.45
627.31	1796.07
627.50	1740.77
627.69	1798.12
627.88	1720.29
628.07	1767.40
628.26	1699.81
628.45	1824.74
628.64	1720.29
628.83	1734.63
629.02	1681.38
629.21	1771.49
629.40	1775.59
629.59	1695.72
629.78	1789.92
629.97	1677.29
630.16	1775.59
630.35	1679.33
630.54	1746.92
630.73	1693.67
630.92	1728.49
631.11	1697.77
631.30	1787.88
631.49	1757.16
631.68	1738.73
631.87	1757.16
632.06	1681.38
632.25	1871.84
632.44	1675.24
632.63	1761.25
632.82	1730.53
633.01	1757.16
633.20	1918.95
633.39	1757.16
633.58	1765.35
633.77	1818.60
633.96	1820.64
634.15	1794.02
634.34	1777.64
634.53	1824.74
634.72	1748.97
634.91	1718.25
635.10	1736.68
635.29	1740.77
635.48	1806.31
635.67	1738.73
635.86	1644.52
636.05	1845.22
636.24	1783.78
636.43	1753.06
636.62	1691.62
636.81	1619.94
637.00	1673.19
637.19	1740.77
637.38	1796.07
637.57	1675.24
637.76	1738.73
637.95	1861.60
638.14	1802.21
638.33	1785.83
638.52	1886.18
638.71	1650.66
638.89	1691.62
639.08	1857.51
639.27	1888.23
639.46	1892.32
639.65	2201.57
639.84	2226.14
640.03	2303.96
640.22	2408.41
640.41	2379.74
640.60	2050.02
640.79	1980.39
640.98	1882.08
641.17	2000.87
641.36	1894.37
641.55	1912.80
641.74	1806.31
641.92	1728.49
642.11	1712.10
642.30	1794.02
642.49	1753.06
642.68	1724.39
642.87	1740.77
643.06	1781.73
643.25	1677.29
643.44	1679.33
643.63	1705.96
643.82	1748.97
644.00	1736.68
644.19	1775.59
644.38	1662.95
644.57	1777.64
644.76	1708.01
644.95	1697.77
645.14	1746.92
645.33	1728.49
645.52	1699.81
645.71	1648.61
645.89	1642.47
646.08	1685.48
646.27	1718.25
646.46	1920.99
646.65	1660.90
646.84	1779.68
647.03	1644.52
647.22	1683.43
647.40	1728.49
647.59	1722.34
647.78	1683.43
647.97	1624.04
648.16	1628.14
648.35	1759.21
648.54	1841.12
648.73	1714.15
648.91	1744.87
649.10	1720.29
649.29	1695.72
649.48	1650.66
649.67	1740.77
649.86	1755.11
650.05	1785.83
650.23	1841.12
650.42	1894.37
650.61	1937.38
650.80	1871.84
650.99	1906.66
651.18	1804.26
651.36	1773.54
651.55	1732.58
651.74	1787.88
651.93	1701.86
652.12	1697.77
652.31	1767.40
652.49	1736.68
652.68	1679.33
652.87	1787.88
653.06	1810.40
653.25	1824.74
653.44	1763.30
653.62	1841.12
653.81	1720.29
654.00	1796.07
654.19	1794.02
654.38	1877.99
654.56	1812.45
654.75	1699.81
654.94	1720.29
655.13	1726.44
655.32	1654.76
655.51	1742.82
655.69	1732.58
655.88	1765.35
656.07	1658.85
656.26	1738.73
656.45	1630.18
656.63	1712.10
656.82	1814.50
657.01	1746.92
657.20	1730.53
657.38	1816.55
657.57	1683.43
657.76	1673.19
657.95	1775.59
658.14	1705.96
658.32	1697.77
658.51	1710.05
658.70	1759.21
658.89	1740.77
659.08	1693.67
659.26	1892.32
659.45	1697.77
659.64	1773.54
659.83	1738.73
660.01	2015.20
660.20	1689.57
660.39	1787.88
660.58	1644.52
660.76	1837.03
660.95	1624.04
661.14	1767.40
661.33	1671.14
661.51	1683.43
661.70	1718.25
661.89	1814.50
662.08	1699.81
662.26	1656.81
662.45	1712.10
662.64	1820.64
662.83	1810.40
663.01	1613.80
663.20	1658.85
663.39	1837.03
663.58	1681.38
663.76	1751.01
663.95	1779.68
664.14	1695.72
664.32	1734.63
664.51	1652.71
664.70	1642.47
664.89	1708.01
665.07	1736.68
665.26	1800.16
665.45	1705.96
665.64	1789.92
665.82	1683.43
666.01	1759.21
666.20	1683.43
666.38	1865.70
666.57	1824.74
666.76	2230.24
666.95	4593.59
667.13	11470.67
667.32	18446.05
667.51	22544.04
667.69	25075.33
667.88	25480.83
668.07	19599.06
668.25	14251.81
668.44	11923.27
668.63	9688.94
668.81	8484.73
669.00	7761.80
669.19	6965.14
669.38	6205.35
669.56	5314.48
669.75	4464.57
669.94	3819.46
670.12	3067.86
670.31	2734.04
670.50	2314.20
670.68	2115.55
670.87	2035.68
671.06	1855.46
671.24	1830.88
671.43	1877.99
671.62	1871.84
671.80	1710.05
671.99	1804.26
672.18	1703.91
672.36	1820.64
672.55	1732.58
672.74	1619.94
672.92	1679.33
673.11	1779.68
673.29	1673.19
673.48	1748.97
673.67	1656.81
673.85	1720.29
674.04	1669.09
674.23	1734.63
674.41	1796.07
674.60	1724.39
674.79	1628.14
674.97	1699.81
675.16	1716.20
675.34	1812.45
675.53	1683.43
675.72	1734.63
675.90	1826.79
676.09	1697.77
676.28	1800.16
676.46	1636.33
676.65	1767.40
676.83	1656.81
677.02	1724.39
677.21	1734.63
677.39	1777.64
677.58	1730.53
677.77	1675.24
677.95	1693.67
678.14	1718.25
678.32	1699.81
678.51	1683.43
678.70	1765.35
678.88	1738.73
679.07	1716.20
679.25	1701.86
679.44	1665.00
679.63	1603.56
679.81	1730.53
680.00	1761.25
680.18	1730.53
680.37	1880.04
680.55	1740.77
680.74	1650.66
680.93	1603.56
681.11	1697.77
681.30	1673.19
681.48	1843.17
681.67	1624.04
681.85	1626.09
682.04	1671.14
682.23	1697.77
682.41	1703.91
682.60	1730.53
682.78	1648.61
682.97	1691.62
683.15	1714.15
683.34	1777.64
683.53	1824.74
683.71	1576.94
683.90	1855.46
684.08	1820.64
684.27	1708.01
684.45	1724.39
684.64	1863.65
684.82	1720.29
685.01	1673.19
685.19	1679.33
685.38	1849.32
685.57	1708.01
685.75	1662.95
685.94	1708.01
686.12	1718.25
686.31	1638.38
686.49	1828.84
686.68	1660.90
686.86	1740.77
687.05	1636.33
687.23	1761.25
687.42	1681.38
687.60	1675.24
687.79	1759.21
687.97	1828.84
688.16	1771.49
688.34	1800.16
688.53	1544.17
688.71	1787.88
688.90	1773.54
689.08	1687.53
689.27	1619.94
689.45	1662.95
689.64	1742.82
689.82	1777.64
690.01	1726.44
690.19	1697.77
690.38	1685.48
690.56	1816.55
690.75	1656.81
690.93	1662.95
691.12	1722.34
691.30	1763.30
691.49	1742.82
691.67	1695.72
691.86	1796.07
692.04	1728.49
692.23	1769.44
692.41	1722.34
692.60	1953.76
692.78	1849.32
692.97	1779.68
693.15	1865.70
693.34	1830.88
693.52	1777.64
693.71	1701.86
693.89	1712.10
694.08	1646.57
694.26	1748.97
694.44	1736.68
694.63	1761.25
694.81	1658.85
695.00	1748.97
695.18	1732.58
695.37	1865.70
695.55	1675.24
695.74	1640.42
695.92	1654.76
696.10	1783.78
696.29	1667.05
696.47	1677.29
696.66	1656.81
696.84	1685.48
697.03	1675.24
697.21	1857.51
697.40	2334.68
697.58	1763.30
697.76	1669.09
697.95	1656.81
698.13	1697.77
698.32	1763.30
698.50	1728.49
698.68	1789.92
698.87	1681.38
699.05	1837.03
699.24	1705.96
699.42	1714.15
699.61	1683.43
699.79	1740.77
699.97	1708.01
700.16	1673.19
700.34	1697.77
700.53	1738.73
700.71	1849.32
700.89	1683.43
701.08	1640.42
701.26	1771.49
701.45	2074.59
701.63	1746.92
701.81	1683.43
702.00	1716.20
702.18	1744.87
702.37	1697.77
702.55	1875.94
702.73	1945.57
702.92	1869.80
703.10	2013.15
703.28	2050.02
703.47	1800.16
703.65	1896.42
703.84	1939.43
704.02	1775.59
704.20	1931.23
704.39	1738.73
704.57	1748.97
704.75	1828.84
704.94	1781.73
705.12	1830.88
705.30	1816.55
705.49	2502.62
705.67	5437.36
705.86	13139.77
706.04	19117.79
706.22	22832.80
706.41	25091.71
706.59	24839.81
706.77	19056.35
706.96	13725.49
707.14	11843.40
707.32	10184.55
707.51	8828.79
707.69	7815.05
707.87	6739.87
708.06	5334.96
708.24	4284.35
708.42	3340.24
708.61	2746.33
708.79	2275.29
708.97	1992.67
709.16	1980.39
709.34	1791.97
709.52	1789.92
709.71	1769.44
709.89	1751.01
710.07	1746.92
710.26	1726.44
710.44	1626.09
710.62	1683.43
710.80	1714.15
710.99	1783.78
711.17	1767.40
711.35	1753.06
711.54	1671.14
711.72	1820.64
711.90	1724.39
712.09	1753.06
712.27	1757.16
712.45	1755.11
712.63	1699.81
712.82	1701.86
713.00	1755.11
713.18	1802.21
713.37	1785.83
713.55	1759.21
713.73	1740.77
713.91	1744.87
714.10	1714.15
714.28	1730.53
714.46	1751.01
714.65	1693.67
714.83	1720.29
715.01	1728.49
715.19	1783.78
715.38	1634.28
715.56	1751.01
715.74	1644.52
715.92	1656.81
716.11	1794.02
716.29	1605.61
716.47	1681.38
716.65	1677.29
716.84	1644.52
717.02	1689.57
717.20	1626.09
717.38	1640.42
717.57	1675.24
717.75	1763.30
717.93	1708.01
718.11	1679.33
718.30	1753.06
718.48	1722.34
718.66	1720.29
718.84	1781.73
719.03	1705.96
719.21	1634.28
719.39	1828.84
719.57	1728.49
719.75	1791.97
719.94	1658.85
720.12	1687.53
720.30	1671.14
720.48	1759.21
720.67	1640.42
720.85	1677.29
721.03	1621.99
721.21	1697.77
721.39	1822.69
721.58	1849.32
721.76	1744.87
721.94	1775.59
722.12	1806.31
722.30	1820.64
722.49	1679.33
722.67	1740.77
722.85	1718.25
723.03	1695.72
723.21	1671.14
723.40	1812.45
723.58	1759.21
723.76	1732.58
723.94	1832.93
724.12	1820.64
724.30	1828.84
724.49	1851.36
724.67	1742.82
724.85	1871.84
725.03	1675.24
725.21	1800.16
725.40	1832.93
725.58	1724.39
725.76	1787.88
725.94	1716.20
726.12	1669.09
726.30	1816.55
726.49	1712.10
726.67	1728.49
726.85	1781.73
727.03	1880.04
727.21	2355.16
727.39	3303.37
727.57	4958.13
727.76	5668.78
727.94	6176.67
728.12	6195.11
728.30	5736.36
728.48	4511.68
728.66	4009.92
728.84	3534.79
729.03	3133.39
729.21	2856.92
729.39	2533.34
729.57	2152.42
729.75	1988.58
729.93	1906.66
730.11	1771.49
730.30	1744.87
730.48	1775.59
730.66	1863.65
730.84	1808.36
731.02	1798.12
731.20	1665.00
731.38	1757.16
731.56	1648.61
731.74	1685.48
731.93	1712.10
732.11	1736.68
732.29	1697.77
732.47	1624.04
732.65	1742.82
732.83	1730.53
733.01	1695.72
733.19	1701.86
733.37	1759.21
733.56	1714.15
733.74	1669.09
733.92	1791.97
734.10	1814.50
734.28	1714.15
734.46	1562.60
734.64	1699.81
734.82	1685.48
735.00	1689.57
735.18	1689.57
735.36	1712.10
735.54	1710.05
735.73	1632.23
735.91	1710.05
736.09	1765.35
736.27	1705.96
736.45	1751.01
736.63	1638.38
736.81	1724.39
736.99	1843.17
737.17	1812.45
737.35	1673.19
737.53	1728.49
737.71	1755.11
737.89	1732.58
738.07	1632.23
738.25	1685.48
738.43	1652.71
738.61	1636.33
738.80	1705.96
738.98	1619.94
739.16	1720.29
739.34	1617.90
739.52	1789.92
739.70	1665.00
739.88	1775.59
740.06	1810.40
740.24	1689.57
740.42	1716.20
740.60	1642.47
740.78	1650.66
740.96	1591.27
741.14	1685.48
741.32	1697.77
741.50	1691.62
741.68	1763.30
741.86	1789.92
742.04	1671.14
742.22	1718.25
742.40	1683.43
742.58	1667.05
742.76	1685.48
742.94	1738.73
743.12	1671.14
743.30	1724.39
743.48	1730.53
743.66	1708.01
743.84	1787.88
744.02	1763.30
744.20	1599.46
744.38	1712.10
744.56	1697.77
744.74	1855.46
744.92	1722.34
745.10	1740.77
745.28	1738.73
745.46	1755.11
745.64	1689.57
745.82	1802.21
746.00	1681.38
746.18	1720.29
746.36	1751.01
746.54	1683.43
746.72	1734.63
746.90	1673.19
747.08	1763.30
747.26	1742.82
747.44	1814.50
747.62	1744.87
747.80	1697.77
747.98	1695.72
748.15	1685.48
748.33	1843.17
748.51	1681.38
748.69	1820.64
748.87	1718.25
749.05	1701.86
749.23	1712.10
749.41	1736.68
749.59	1617.90
749.77	1724.39
749.95	1720.29
750.13	1771.49
750.31	1779.68
750.49	1697.77
750.67	1794.02
750.85	1830.88
751.03	1681.38
751.20	1779.68
751.38	1681.38
751.56	1675.24
751.74	1744.87
751.92	1675.24
752.10	1691.62
752.28	1767.40
752.46	1710.05
752.64	1714.15
752.82	1742.82
753.00	1767.40
753.18	1730.53
753.35	1689.57
753.53	1759.21
753.71	1720.29
753.89	1753.06
754.07	1705.96
754.25	1738.73
754.43	1773.54
754.61	1648.61
754.79	1769.44
754.97	1716.20
755.14	1824.74
755.32	1650.66
755.50	1712.10
755.68	1705.96
755.86	1697.77
756.04	1650.66
756.22	1730.53
756.40	1800.16
756.57	1865.70
756.75	1730.53
756.93	1800.16
757.11	1740.77
757.29	1705.96
757.47	1640.42
757.65	1554.41
757.82	1615.85
758.00	1656.81
758.18	1675.24
758.36	1705.96
758.54	1892.32
758.72	1626.09
758.90	1730.53
759.07	1703.91
759.25	1558.50
759.43	1689.57
759.61	1630.18
759.79	2197.47
759.97	1751.01
760.15	1660.90
760.32	1648.61
760.50	1665.00
760.68	1777.64
760.86	1660.90
761.04	1757.16
761.22	1701.86
761.39	1730.53
761.57	1767.40
761.75	1714.15
761.93	1665.00
762.11	1697.77
762.28	1693.67
762.46	1708.01
762.64	1753.06
762.82	1626.09
763.00	1621.99
763.18	1822.69
763.35	1638.38
763.53	1724.39
763.71	1771.49
763.89	1753.06
764.07	1716.20
764.24	1708.01
764.42	1740.77
764.60	1683.43
764.78	1708.01
764.96	1718.25
765.13	1834.98
765.31	1728.49
765.49	1763.30
765.67	1691.62
765.84	1683.43
766.02	1652.71
766.20	1626.09
766.38	1804.26
766.56	1673.19
766.73	1693.67
766.91	1695.72
767.09	1724.39
767.27	1665.00
767.44	1656.81
767.62	1751.01
767.80	1732.58
767.98	1654.76
768.15	1613.80
768.33	1787.88
768.51	1783.78
768.69	1701.86
768.87	1804.26
769.04	1683.43
769.22	1777.64
769.40	1785.83
769.58	1933.28
769.75	1714.15
769.93	1783.78
770.11	1705.96
770.28	1642.47
770.46	1847.27
770.64	1771.49
770.82	1712.10
770.99	1705.96
771.17	1806.31
771.35	1660.90
771.53	1738.73
771.70	1669.09
771.88	1775.59
772.06	1767.40
772.23	1718.25
772.41	1728.49
772.59	1636.33
772.77	1705.96
772.94	1718.25
773.12	1740.77
773.30	1675.24
773.47	1722.34
773.65	1679.33
773.83	1781.73
774.01	1624.04
774.18	1619.94
774.36	1673.19
774.54	1544.17
774.71	1683.43
774.89	1581.03
775.07	1697.77
775.24	1710.05
775.42	1654.76
775.60	1781.73
775.78	1615.85
775.95	1681.38
776.13	1611.75
776.31	1587.18
776.48	1738.73
776.66	1714.15
776.84	1662.95
777.01	1693.67
777.19	1738.73
777.37	1689.57
777.54	1818.60
777.72	1851.36
777.90	1796.07
778.07	1695.72
778.25	1931.23
778.43	1730.53
778.60	1785.83
778.78	1751.01
778.96	1804.26
779.13	1626.09
779.31	1763.30
779.49	1613.80
779.66	1724.39
779.84	1734.63
780.01	1677.29
780.19	1701.86
780.37	1769.44
780.54	1736.68
780.72	1714.15
780.90	1722.34
781.07	1759.21
781.25	1705.96
781.43	1695.72
781.60	1693.67
781.78	1757.16
781.95	1744.87
782.13	1665.00
782.31	1726.44
782.48	1632.23
782.66	1656.81
782.83	1738.73
783.01	1701.86
783.19	1746.92
783.36	1746.92
783.54	1636.33
783.72	1755.11
783.89	1730.53
784.07	1691.62
784.24	1708.01
784.42	1753.06
784.60	1619.94
784.77	1791.97
784.95	1626.09
785.12	1677.29
785.30	1710.05
785.47	1603.56
785.65	1705.96
785.83	1671.14
786.00	1654.76
786.18	1716.20
786.35	1640.42
786.53	1626.09
786.71	1718.25
786.88	1703.91
787.06	1744.87
787.23	1765.35
787.41	1691.62
787.58	1685.48
787.76	1730.53
787.94	1683.43
788.11	1689.57
788.29	1646.57
788.46	1677.29
788.64	1595.37
788.81	1677.29
788.99	1654.76
789.16	1609.70
789.34	1671.14
789.52	1669.09
789.69	1658.85
789.87	1701.86
790.04	1589.22
790.22	1660.90
790.39	1808.36
790.57	1630.18
790.74	1619.94
790.92	1773.54
791.09	1654.76
791.27	1798.12
791.44	1751.01
791.62	1658.85
791.79	1746.92
791.97	1673.19
792.15	1796.07
792.32	1699.81
792.50	1755.11
792.67	1808.36
792.85	1865.70
793.02	1695.72
793.20	1650.66
793.37	1669.09
793.55	1681.38
793.72	1589.22
793.90	1708.01
794.07	1654.76
794.25	1728.49
794.42	1695.72
794.60	1671.14
794.77	1734.63
794.95	1796.07
795.12	1746.92
795.30	1667.05
795.47	1560.55
795.65	1910.75
795.82	1681.38
796.00	1613.80
796.17	1689.57
796.34	1679.33
796.52	1646.57
796.69	1757.16
796.87	1771.49
797.04	1660.90
797.22	1697.77
797.39	1734.63
797.57	1744.87
797.74	1767.40
797.92	1714.15
798.09	1705.96
798.27	1757.16
798.44	1667.05
798.62	1697.77
798.79	1710.05
798.96	1728.49
799.14	1726.44
799.31	1908.71
799.49	1699.81
799.66	1679.33
799.84	1773.54
800.01	1656.81
800.19	1767.40
800.36	1638.38
800.53	1773.54
800.71	1701.86
800.88	1800.16
801.06	1777.64
801.23	1677.29
801.41	1673.19
801.58	1656.81
801.75	1599.46
801.93	1701.86
802.10	1826.79
802.28	1677.29
802.45	1712.10
802.63	1742.82
802.80	1773.54
802.97	1638.38
803.15	1681.38
803.32	1681.38
803.50	1691.62
803.67	1665.00
803.84	1665.00
804.02	1740.77
804.19	1581.03
804.37	1574.89
804.54	1712.10
804.71	1648.61
804.89	1677.29
805.06	1660.90
805.24	1683.43
805.41	1720.29
805.58	1724.39
805.76	1800.16
805.93	1634.28
806.10	1730.53
806.28	1753.06
806.45	1632.23
806.63	1791.97
806.80	1720.29
806.97	1654.76
807.15	1697.77
807.32	1681.38
807.49	1691.62
807.67	1710.05
807.84	1761.25
808.01	1603.56
808.19	1886.18
808.36	1873.89
808.54	1724.39
808.71	1646.57
808.88	1685.48
809.06	1779.68
809.23	1789.92
809.40	1660.90
809.58	1744.87
809.75	1740.77
809.92	1726.44
810.10	1837.03
810.27	1609.70
810.44	1714.15
810.62	1744.87
810.79	1718.25
810.96	1687.53
811.14	1656.81
811.31	1691.62
811.48	1769.44
811.66	1656.81
811.83	1769.44
812.00	1759.21
812.18	1765.35
812.35	1828.84
812.52	1726.44
812.69	1595.37
812.87	1646.57
813.04	1667.05
813.21	1648.61
813.39	1714.15
813.56	1701.86
813.73	1714.15
813.91	1734.63
814.08	1734.63
814.25	1665.00
814.42	1660.90
814.60	1615.85
814.77	1765.35
814.94	1734.63
815.12	1689.57
815.29	1796.07
815.46	1634.28
815.63	1662.95
815.81	1734.63
815.98	1705.96
816.15	1638.38
816.33	1755.11
816.50	1683.43
816.67	1662.95
816.84	1710.05
817.02	1787.88
817.19	1667.05
817.36	1669.09
817.53	1765.35
817.71	1687.53
817.88	1767.40
818.05	1671.14
818.22	1667.05
818.40	1906.66
818.57	1671.14
818.74	1734.63
818.91	1699.81
819.09	1730.53
819.26	1751.01
819.43	1677.29
819.60	1708.01
819.78	1781.73
819.95	1732.58
820.12	1626.09
820.29	1705.96
820.47	1732.58
820.64	1658.85
820.81	1576.94
820.98	1648.61
821.15	1695.72
821.33	1777.64
821.50	1683.43
821.67	1716.20
821.84	1677.29
822.02	1748.97
822.19	1712.10
822.36	1703.91
822.53	1714.15
822.70	1642.47
822.88	1697.77
823.05	1693.67
823.22	1738.73
823.39	1681.38
823.56	1714.15
823.74	1769.44
823.91	1578.98
824.08	1687.53
824.25	1652.71
824.42	1785.83
824.60	1630.18
824.77	1714.15
824.94	1642.47
825.11	1798.12
825.28	1646.57
825.45	1742.82
825.63	1738.73
825.80	1710.05
825.97	1759.21
826.14	1705.96
826.31	1648.61
826.48	1691.62
826.66	1714.15
826.83	1736.68
827.00	1722.34
827.17	1675.24
827.34	1714.15
827.51	1662.95
827.69	1703.91
827.86	1689.57
828.03	1705.96
828.20	1763.30
828.37	1673.19
828.54	1703.91
828.71	1677.29
828.89	1695.72
829.06	1763.30
829.23	1781.73
829.40	1671.14
829.57	1665.00
829.74	1726.44
829.91	1673.19
830.09	1673.19
830.26	1771.49
830.43	1818.60
830.60	1662.95
830.77	1718.25
830.94	1742.82
831.11	1804.26
831.28	1677.29
831.46	1691.62
831.63	1681.38
831.80	1796.07
831.97	1638.38
832.14	1785.83
832.31	1794.02
832.48	1773.54
832.65	1832.93
832.82	1738.73
832.99	1755.11
833.17	1705.96
833.34	1791.97
833.51	1720.29
833.68	1591.27
833.85	1722.34
834.02	1640.42
834.19	1650.66
834.36	1523.69
834.53	1675.24
834.70	1742.82
834.87	1763.30
835.04	1673.19
835.22	1677.29
835.39	1746.92
835.56	1609.70
835.73	1646.57
835.90	1712.10
836.07	1650.66
836.24	1785.83
836.41	1681.38
836.58	1636.33
836.75	1722.34
836.92	1820.64
837.09	1689.57
837.26	1714.15
837.43	1769.44
837.60	1773.54
837.77	1730.53
837.94	1740.77
838.12	1746.92
838.29	1791.97
838.46	1667.05
838.63	1660.90
838.80	1742.82
838.97	1783.78
839.14	1724.39
839.31	1710.05
839.48	1718.25
839.65	1775.59
839.82	1785.83
839.99	1695.72
840.16	1753.06
840.33	1677.29
840.50	1722.34
840.67	1714.15
840.84	1650.66
841.01	1689.57
841.18	1638.38
841.35	1740.77
841.52	1734.63
841.69	1802.21
841.86	1755.11
842.03	1697.77
842.20	1730.53
842.37	1685.48
842.54	1681.38
842.71	1613.80
842.88	1552.36
843.05	1675.24
843.22	1687.53
843.39	1716.20
843.56	1677.29
843.73	1742.82
843.90	1662.95
844.07	1679.33
844.24	1802.21
844.41	1796.07
844.58	1677.29
844.75	1671.14
844.92	1683.43
845.09	1738.73
845.26	1638.38
845.43	1716.20
845.60	1607.66
845.77	1736.68
845.94	1724.39
846.10	1740.77
846.27	1656.81
846.44	1662.95
846.61	1691.62
846.78	1781.73
846.95	1796.07
847.12	1742.82
847.29	1656.81
847.46	1681.38
847.63	1783.78
847.80	1689.57
847.97	1689.57
848.14	1845.22
848.31	1710.05
848.48	1671.14
848.65	1710.05
848.82	1695.72
848.98	1851.36
849.15	1736.68
849.32	1755.11
849.49	1671.14
849.66	1658.85
849.83	1779.68
850.00	1646.57
850.17	1712.10
850.34	1701.86
850.51	1677.29
850.68	1658.85
850.85	1871.84
851.01	1673.19
851.18	1693.67
851.35	1689.57
851.52	1742.82
851.69	1814.50
851.86	1695.72
852.03	1705.96
852.20	1730.53
852.37	1705.96
852.53	1669.09
852.70	1687.53
852.87	1722.34
853.04	1693.67
853.21	1736.68
853.38	1834.98
853.55	1800.16
853.72	1716.20
853.89	1734.63
854.05	1703.91
854.22	1671.14
854.39	1667.05
854.56	1724.39
854.73	1748.97
854.90	1722.34
855.07	1751.01
855.23	1640.42
855.40	1738.73
855.57	1687.53
855.74	1619.94
855.91	1841.12
856.08	1636.33
856.25	1583.08
856.41	1650.66
856.58	1675.24
856.75	1730.53
856.92	1578.98
857.09	1746.92
857.26	1699.81
857.42	1648.61
857.59	1746.92
857.76	1687.53
857.93	1771.49
858.10	1746.92
858.27	1716.20
858.43	1712.10
858.60	1724.39
858.77	1636.33
858.94	1607.66
859.11	1759.21
859.27	1691.62
859.44	1722.34
859.61	1845.22
859.78	1710.05
859.95	1720.29
860.12	1697.77
860.28	1849.32
860.45	1841.12
860.62	1603.56
860.79	1714.15
860.95	1695.72
861.12	1648.61
861.29	1681.38
861.46	1683.43
861.63	1726.44
861.79	1746.92
861.96	1662.95
862.13	1693.67
862.30	1714.15
862.47	1662.95
862.63	1648.61
862.80	1779.68
862.97	1775.59
863.14	1650.66
863.30	1779.68
863.47	1708.01
863.64	1748.97
863.81	1742.82
863.97	1732.58
864.14	1738.73
864.31	1656.81
864.48	1703.91
864.65	1699.81
864.81	1761.25
864.98	1705.96
865.15	1781.73
865.32	1746.92
865.48	1736.68
865.65	1826.79
865.82	1667.05
865.98	1718.25
866.15	1806.31
866.32	1708.01
866.49	1644.52
866.65	1791.97
866.82	1677.29
866.99	1738.73
867.16	1697.77
867.32	1681.38
867.49	1638.38
867.66	1716.20
867.83	1734.63
867.99	1751.01
868.16	1728.49
868.33	1656.81
868.49	1730.53
868.66	1697.77
868.83	1734.63
868.99	1722.34
869.16	1667.05
869.33	1740.77
869.50	1740.77
869.66	1720.29
869.83	1687.53
870.00	1712.10
870.16	1730.53
870.33	1701.86
870.50	1738.73
870.66	1748.97
870.83	1775.59
871.00	1695.72
871.17	1746.92
871.33	1771.49
871.50	1677.29
871.67	1638.38
871.83	1683.43
872.00	1816.55
872.17	1632.23
872.33	1769.44
872.50	1804.26
872.67	1603.56
872.83	1705.96
873.00	1716.20
873.17	1697.77
873.33	1679.33
873.50	1736.68
873.67	1621.99
873.83	1662.95
874.00	1691.62
874.16	1742.82
874.33	1744.87
874.50	1693.67
874.66	1773.54
874.83	1718.25
875.00	1736.68
875.16	1728.49
875.33	1710.05
875.50	1695.72
875.66	1689.57
875.83	1656.81
875.99	1791.97
876.16	1613.80
876.33	1685.48
876.49	1697.77
876.66	1742.82
876.83	1714.15
876.99	1671.14
877.16	1755.11
877.32	1748.97
877.49	1665.00
877.66	1757.16
877.82	1765.35
877.99	1705.96
878.15	1755.11
878.32	1789.92
878.49	1708.01
878.65	1652.71
878.82	1783.78
878.98	1714.15
879.15	1734.63
879.32	1716.20
879.48	1697.77
879.65	1619.94
879.81	1642.47
879.98	1611.75
880.15	1656.81
880.31	1771.49
880.48	1578.98
880.64	1787.88
880.81	1689.57
880.97	1742.82
881.14	1759.21
881.31	1621.99
881.47	1863.65
881.64	1685.48
881.80	1691.62
881.97	1763.30
882.13	1720.29
882.30	1710.05
882.47	1705.96
882.63	1691.62
882.80	1708.01
882.96	1671.14
883.13	1783.78
883.29	1615.85
883.46	1771.49
883.62	1837.03
883.79	1718.25
883.95	1775.59
884.12	1744.87
884.29	1665.00
884.45	1769.44
884.62	1699.81
884.78	1699.81
884.95	1775.59
885.11	1660.90
885.28	1736.68
885.44	1710.05
885.61	1755.11
885.77	1771.49
885.94	1738.73
886.10	1615.85
886.27	1693.67
886.43	1732.58
886.60	1742.82
886.76	1720.29
886.93	1607.66
887.09	1695.72
887.26	1595.37
887.42	1718.25
887.59	1783.78
887.75	1853.41
887.92	1800.16
888.08	1681.38
888.25	1744.87
888.41	1730.53
888.58	1714.15
888.74	1667.05
888.91	1683.43
>>>>>End Processed Spectral Data<<<<<
