SpectraSuite Data File
++++++++++++++++++++++++++++++++++++
Date: Wed May 04 18:44:23 CEST 2016
User: root
Dark Spectrum Present: No
Reference Spectrum Present: No
Number of Sampled Component Spectra: 1
Spectrometers: USB4C02835
Integration Time (usec): 100000 (USB4C02835)
Spectra Averaged: 1 (USB4C02835)
Boxcar Smoothing: 0 (USB4C02835)
Correct for Electrical Dark: No (USB4C02835)
Strobe/Lamp Enabled: No (USB4C02835)
Correct for Detector Non-linearity: No (USB4C02835)
Correct for Stray Light: No (USB4C02835)
Number of Pixels in Processed Spectrum: 3648
>>>>>Begin Processed Spectral Data<<<<<
177.47	1464.30
177.69	1464.30
177.91	1464.30
178.13	1441.77
178.36	1480.68
178.58	1687.53
178.80	1685.48
179.02	1574.89
179.24	1669.09
179.46	1628.14
179.68	1769.44
179.90	1769.44
180.13	1662.95
180.35	1662.95
180.57	1660.90
180.79	1777.64
181.01	1675.24
181.23	1681.38
181.45	1722.34
181.67	1779.68
181.90	1755.11
182.12	1650.66
182.34	1720.29
182.56	1705.96
182.78	1710.05
183.00	1693.67
183.22	1689.57
183.44	1564.65
183.66	1810.40
183.89	1802.21
184.11	1722.34
184.33	1691.62
184.55	1812.45
184.77	1757.16
184.99	1689.57
185.21	1718.25
185.43	1763.30
185.65	1636.33
185.87	1712.10
186.10	1763.30
186.32	1834.98
186.54	1763.30
186.76	1669.09
186.98	1697.77
187.20	1751.01
187.42	1621.99
187.64	1703.91
187.86	1718.25
188.08	1785.83
188.30	1636.33
188.52	1798.12
188.75	1738.73
188.97	1804.26
189.19	1603.56
189.41	1744.87
189.63	1677.29
189.85	1724.39
190.07	1611.75
190.29	1665.00
190.51	1759.21
190.73	1644.52
190.95	1708.01
191.17	1730.53
191.39	1615.85
191.61	1650.66
191.84	1667.05
192.06	1738.73
192.28	1654.76
192.50	1845.22
192.72	1796.07
192.94	1691.62
193.16	1714.15
193.38	1755.11
193.60	1730.53
193.82	1642.47
194.04	1777.64
194.26	1689.57
194.48	1710.05
194.70	1695.72
194.92	1597.42
195.14	1658.85
195.36	1583.08
195.58	1650.66
195.80	1693.67
196.02	1685.48
196.24	1728.49
196.46	1755.11
196.69	1746.92
196.91	1880.04
197.13	1701.86
197.35	1675.24
197.57	1816.55
197.79	1714.15
198.01	1755.11
198.23	1800.16
198.45	1673.19
198.67	1546.22
198.89	1804.26
199.11	1791.97
199.33	1681.38
199.55	1673.19
199.77	1734.63
199.99	1740.77
200.21	1695.72
200.43	1681.38
200.65	1619.94
200.87	1619.94
201.09	1665.00
201.31	1671.14
201.53	1648.61
201.75	1806.31
201.97	1679.33
202.19	1730.53
202.41	1703.91
202.63	1877.99
202.85	1785.83
203.07	1755.11
203.29	1662.95
203.51	1689.57
203.73	1646.57
203.95	1869.80
204.17	1736.68
204.39	1660.90
204.61	1726.44
204.83	1665.00
205.05	1740.77
205.27	1722.34
205.49	1867.75
205.71	1763.30
205.93	1583.08
206.15	1689.57
206.37	1705.96
206.59	1738.73
206.81	1648.61
207.03	1587.18
207.25	1677.29
207.47	1767.40
207.69	1634.28
207.91	1785.83
208.13	1775.59
208.34	1677.29
208.56	1593.32
208.78	1742.82
209.00	1693.67
209.22	1708.01
209.44	1710.05
209.66	1697.77
209.88	1681.38
210.10	1667.05
210.32	1656.81
210.54	1779.68
210.76	1660.90
210.98	1705.96
211.20	1554.41
211.42	1716.20
211.64	1761.25
211.86	1687.53
212.08	1740.77
212.30	1699.81
212.52	1683.43
212.74	1781.73
212.96	1683.43
213.17	1753.06
213.39	1722.34
213.61	1804.26
213.83	1751.01
214.05	1722.34
214.27	1824.74
214.49	1722.34
214.71	1634.28
214.93	1802.21
215.15	1703.91
215.37	1697.77
215.59	1679.33
215.81	1773.54
216.03	1742.82
216.24	1648.61
216.46	1681.38
216.68	1648.61
216.90	1761.25
217.12	1763.30
217.34	1710.05
217.56	1753.06
217.78	1773.54
218.00	1722.34
218.22	1716.20
218.44	1673.19
218.66	1767.40
218.87	1773.54
219.09	1671.14
219.31	1763.30
219.53	1656.81
219.75	1632.23
219.97	1662.95
220.19	1693.67
220.41	1734.63
220.63	1730.53
220.85	1730.53
221.06	1732.58
221.28	1701.86
221.50	1761.25
221.72	1701.86
221.94	1724.39
222.16	1718.25
222.38	1767.40
222.60	1748.97
222.82	1720.29
223.03	1773.54
223.25	1613.80
223.47	1742.82
223.69	1783.78
223.91	1765.35
224.13	1675.24
224.35	1720.29
224.57	1814.50
224.78	1693.67
225.00	1615.85
225.22	1708.01
225.44	1710.05
225.66	1763.30
225.88	1685.48
226.10	1689.57
226.32	1787.88
226.53	1871.84
226.75	1679.33
226.97	1781.73
227.19	1718.25
227.41	1613.80
227.63	1703.91
227.85	1695.72
228.06	1689.57
228.28	1701.86
228.50	1703.91
228.72	1636.33
228.94	1689.57
229.16	1589.22
229.37	1583.08
229.59	1683.43
229.81	1695.72
230.03	1667.05
230.25	1611.75
230.47	1642.47
230.69	1624.04
230.90	1798.12
231.12	1628.14
231.34	1810.40
231.56	1740.77
231.78	1644.52
232.00	1685.48
232.21	1669.09
232.43	1632.23
232.65	1544.17
232.87	1695.72
233.09	1708.01
233.30	1665.00
233.52	1804.26
233.74	1728.49
233.96	1736.68
234.18	1746.92
234.40	1728.49
234.61	1824.74
234.83	1652.71
235.05	1628.14
235.27	1830.88
235.49	1794.02
235.70	1697.77
235.92	1746.92
236.14	1765.35
236.36	1820.64
236.58	1697.77
236.79	1748.97
237.01	1728.49
237.23	1705.96
237.45	1800.16
237.67	1669.09
237.88	1685.48
238.10	1861.60
238.32	1701.86
238.54	1646.57
238.76	1726.44
238.97	1644.52
239.19	1665.00
239.41	1763.30
239.63	1773.54
239.85	1669.09
240.06	1634.28
240.28	1654.76
240.50	1759.21
240.72	1718.25
240.93	1677.29
241.15	1712.10
241.37	1673.19
241.59	1806.31
241.81	1730.53
242.02	1708.01
242.24	1738.73
242.46	1755.11
242.68	1742.82
242.89	1763.30
243.11	1693.67
243.33	1755.11
243.55	1650.66
243.76	1679.33
243.98	1679.33
244.20	1658.85
244.42	1705.96
244.64	1736.68
244.85	1658.85
245.07	1705.96
245.29	1667.05
245.51	1648.61
245.72	1785.83
245.94	1804.26
246.16	1777.64
246.38	1710.05
246.59	1708.01
246.81	1650.66
247.03	1724.39
247.24	1591.27
247.46	1665.00
247.68	1716.20
247.90	1687.53
248.11	1613.80
248.33	1777.64
248.55	1714.15
248.77	1681.38
248.98	1742.82
249.20	1708.01
249.42	1701.86
249.64	1718.25
249.85	1683.43
250.07	1632.23
250.29	1751.01
250.50	1779.68
250.72	1632.23
250.94	1789.92
251.16	1859.56
251.37	1808.36
251.59	1765.35
251.81	1861.60
252.02	1820.64
252.24	1685.48
252.46	1789.92
252.68	1658.85
252.89	1728.49
253.11	1652.71
253.33	1853.41
253.54	1875.94
253.76	1658.85
253.98	1714.15
254.20	1693.67
254.41	1665.00
254.63	1763.30
254.85	1632.23
255.06	1720.29
255.28	1687.53
255.50	1656.81
255.71	1677.29
255.93	1636.33
256.15	1638.38
256.36	1806.31
256.58	1675.24
256.80	1708.01
257.02	1730.53
257.23	1662.95
257.45	1695.72
257.67	1759.21
257.88	1687.53
258.10	1763.30
258.32	1714.15
258.53	1671.14
258.75	1789.92
258.97	1605.61
259.18	1650.66
259.40	1675.24
259.62	1834.98
259.83	1736.68
260.05	1738.73
260.27	2009.06
260.48	1761.25
260.70	1667.05
260.92	1722.34
261.13	1781.73
261.35	1695.72
261.57	1732.58
261.78	1605.61
262.00	1648.61
262.22	1748.97
262.43	1632.23
262.65	1708.01
262.86	1683.43
263.08	1867.75
263.30	1746.92
263.51	1548.26
263.73	1699.81
263.95	1755.11
264.16	1691.62
264.38	1695.72
264.60	1642.47
264.81	1789.92
265.03	1734.63
265.25	1820.64
265.46	1695.72
265.68	1794.02
265.89	1757.16
266.11	1632.23
266.33	1802.21
266.54	1794.02
266.76	1695.72
266.98	1808.36
267.19	1783.78
267.41	1742.82
267.62	1638.38
267.84	1621.99
268.06	1765.35
268.27	1685.48
268.49	1777.64
268.70	1714.15
268.92	1693.67
269.14	1650.66
269.35	1621.99
269.57	1728.49
269.79	1761.25
270.00	1693.67
270.22	1804.26
270.43	1716.20
270.65	1546.22
270.87	1636.33
271.08	1699.81
271.30	1744.87
271.51	1699.81
271.73	1761.25
271.95	1759.21
272.16	1638.38
272.38	1699.81
272.59	1683.43
272.81	1796.07
273.02	1722.34
273.24	1742.82
273.46	1804.26
273.67	1605.61
273.89	1632.23
274.10	1728.49
274.32	1636.33
274.54	1701.86
274.75	1734.63
274.97	1638.38
275.18	1755.11
275.40	1794.02
275.61	1681.38
275.83	1732.58
276.05	1644.52
276.26	1697.77
276.48	1798.12
276.69	1646.57
276.91	1693.67
277.12	1763.30
277.34	1742.82
277.55	1787.88
277.77	1691.62
277.99	1615.85
278.20	1681.38
278.42	1665.00
278.63	1646.57
278.85	1621.99
279.06	1658.85
279.28	1714.15
279.49	1775.59
279.71	1716.20
279.93	1763.30
280.14	1662.95
280.36	1701.86
280.57	1765.35
280.79	1697.77
281.00	1732.58
281.22	1640.42
281.43	1798.12
281.65	1560.55
281.86	1632.23
282.08	1744.87
282.29	1759.21
282.51	1652.71
282.73	1652.71
282.94	1644.52
283.16	1777.64
283.37	1773.54
283.59	1718.25
283.80	1695.72
284.02	1597.42
284.23	1667.05
284.45	1677.29
284.66	1675.24
284.88	1630.18
285.09	1710.05
285.31	1740.77
285.52	1767.40
285.74	1656.81
285.95	1654.76
286.17	1796.07
286.38	1714.15
286.60	1710.05
286.81	1673.19
287.03	1751.01
287.24	1748.97
287.46	1710.05
287.67	1683.43
287.89	1716.20
288.10	1701.86
288.32	1730.53
288.53	1828.84
288.75	1681.38
288.96	1746.92
289.18	1609.70
289.39	1714.15
289.61	1775.59
289.82	1787.88
290.04	1730.53
290.25	1675.24
290.47	1685.48
290.68	1681.38
290.90	1769.44
291.11	1681.38
291.33	1757.16
291.54	1613.80
291.76	1730.53
291.97	1712.10
292.18	1763.30
292.40	1642.47
292.61	1583.08
292.83	1828.84
293.04	1734.63
293.26	1791.97
293.47	1675.24
293.69	1603.56
293.90	1669.09
294.12	1773.54
294.33	1769.44
294.55	1701.86
294.76	1779.68
294.97	1783.78
295.19	1820.64
295.40	1634.28
295.62	1691.62
295.83	1804.26
296.05	1687.53
296.26	1716.20
296.48	1669.09
296.69	1718.25
296.90	1710.05
297.12	1730.53
297.33	1798.12
297.55	1581.03
297.76	1705.96
297.98	1779.68
298.19	1771.49
298.41	1726.44
298.62	1648.61
298.83	1796.07
299.05	1814.50
299.26	1701.86
299.48	1615.85
299.69	1671.14
299.90	1738.73
300.12	1677.29
300.33	1771.49
300.55	1757.16
300.76	1738.73
300.98	1652.71
301.19	1705.96
301.40	1701.86
301.62	1613.80
301.83	1693.67
302.05	1716.20
302.26	1732.58
302.47	1765.35
302.69	1638.38
302.90	1628.14
303.12	1611.75
303.33	1771.49
303.54	1828.84
303.76	1644.52
303.97	1789.92
304.19	1796.07
304.40	1634.28
304.61	1681.38
304.83	1890.28
305.04	1841.12
305.26	1769.44
305.47	1658.85
305.68	1732.58
305.90	1615.85
306.11	1775.59
306.33	1697.77
306.54	1726.44
306.75	1658.85
306.97	1615.85
307.18	1681.38
307.39	1642.47
307.61	1683.43
307.82	1724.39
308.04	1679.33
308.25	1658.85
308.46	1687.53
308.68	1740.77
308.89	1699.81
309.10	1781.73
309.32	1675.24
309.53	1783.78
309.74	1697.77
309.96	1697.77
310.17	1789.92
310.39	1671.14
310.60	1824.74
310.81	1724.39
311.03	1693.67
311.24	1789.92
311.45	1722.34
311.67	1755.11
311.88	1708.01
312.09	1638.38
312.31	1744.87
312.52	1710.05
312.73	1644.52
312.95	1742.82
313.16	1630.18
313.37	1777.64
313.59	1746.92
313.80	1757.16
314.01	1843.17
314.23	1640.42
314.44	1648.61
314.65	1628.14
314.87	1615.85
315.08	1632.23
315.29	1648.61
315.51	1642.47
315.72	1654.76
315.93	1730.53
316.15	1771.49
316.36	1734.63
316.57	1738.73
316.79	1708.01
317.00	1660.90
317.21	1804.26
317.43	1685.48
317.64	1703.91
317.85	1665.00
318.07	1675.24
318.28	1800.16
318.49	1828.84
318.70	2078.69
318.92	1884.13
319.13	1947.62
319.34	1886.18
319.56	1843.17
319.77	1818.60
319.98	1882.08
320.20	1818.60
320.41	1710.05
320.62	1802.21
320.83	1667.05
321.05	1859.56
321.26	1740.77
321.47	1685.48
321.69	1845.22
321.90	1638.38
322.11	1691.62
322.32	1701.86
322.54	1734.63
322.75	1693.67
322.96	1816.55
323.18	1599.46
323.39	1621.99
323.60	1685.48
323.81	1771.49
324.03	1714.15
324.24	1675.24
324.45	1710.05
324.66	1656.81
324.88	1785.83
325.09	1794.02
325.30	1638.38
325.52	1738.73
325.73	1757.16
325.94	1599.46
326.15	1597.42
326.37	1738.73
326.58	1761.25
326.79	1841.12
327.00	1605.61
327.22	1732.58
327.43	1708.01
327.64	1626.09
327.85	1697.77
328.07	1714.15
328.28	1771.49
328.49	1697.77
328.70	1728.49
328.92	1724.39
329.13	1685.48
329.34	1751.01
329.55	1765.35
329.76	1765.35
329.98	1665.00
330.19	1757.16
330.40	1681.38
330.61	1683.43
330.83	1798.12
331.04	1667.05
331.25	1685.48
331.46	1628.14
331.68	1716.20
331.89	1740.77
332.10	1617.90
332.31	1568.74
332.52	1669.09
332.74	1746.92
332.95	1630.18
333.16	1677.29
333.37	1728.49
333.58	1675.24
333.80	1751.01
334.01	1658.85
334.22	1644.52
334.43	1673.19
334.64	1695.72
334.86	1677.29
335.07	1654.76
335.28	1826.79
335.49	1667.05
335.70	1800.16
335.92	1777.64
336.13	1812.45
336.34	1662.95
336.55	1578.98
336.76	1658.85
336.98	1675.24
337.19	1644.52
337.40	1798.12
337.61	1773.54
337.82	1753.06
338.04	1720.29
338.25	1644.52
338.46	1628.14
338.67	1619.94
338.88	1677.29
339.09	1654.76
339.31	1648.61
339.52	1673.19
339.73	1697.77
339.94	1730.53
340.15	1732.58
340.36	1722.34
340.58	1757.16
340.79	1697.77
341.00	1736.68
341.21	1730.53
341.42	1857.51
341.63	1673.19
341.85	1755.11
342.06	1736.68
342.27	1695.72
342.48	1771.49
342.69	1699.81
342.90	1699.81
343.12	1804.26
343.33	1724.39
343.54	1740.77
343.75	1734.63
343.96	1689.57
344.17	1630.18
344.38	1671.14
344.60	1724.39
344.81	1624.04
345.02	1708.01
345.23	1775.59
345.44	1894.37
345.65	1730.53
345.86	1716.20
346.07	1648.61
346.29	1763.30
346.50	1718.25
346.71	1757.16
346.92	1779.68
347.13	1771.49
347.34	1628.14
347.55	1691.62
347.76	1697.77
347.98	1525.74
348.19	1755.11
348.40	1789.92
348.61	1636.33
348.82	1837.03
349.03	1730.53
349.24	1599.46
349.45	1914.85
349.66	1599.46
349.88	1714.15
350.09	1669.09
350.30	1757.16
350.51	1787.88
350.72	1771.49
350.93	1693.67
351.14	1683.43
351.35	1658.85
351.56	1738.73
351.77	1673.19
351.99	1773.54
352.20	1771.49
352.41	1761.25
352.62	1638.38
352.83	1669.09
353.04	1734.63
353.25	1587.18
353.46	1724.39
353.67	1826.79
353.88	1621.99
354.09	1720.29
354.30	1699.81
354.52	1802.21
354.73	1642.47
354.94	1718.25
355.15	1705.96
355.36	1814.50
355.57	1689.57
355.78	1701.86
355.99	1718.25
356.20	1705.96
356.41	1765.35
356.62	1748.97
356.83	1665.00
357.04	1763.30
357.25	1636.33
357.46	1652.71
357.68	1628.14
357.89	1687.53
358.10	1738.73
358.31	1740.77
358.52	1673.19
358.73	1710.05
358.94	1699.81
359.15	1595.37
359.36	1718.25
359.57	1740.77
359.78	1728.49
359.99	1689.57
360.20	1658.85
360.41	1716.20
360.62	1726.44
360.83	1699.81
361.04	1724.39
361.25	1677.29
361.46	1748.97
361.67	1814.50
361.88	1683.43
362.09	1791.97
362.30	1751.01
362.51	1726.44
362.72	1736.68
362.93	1781.73
363.14	1693.67
363.35	1732.58
363.56	1665.00
363.78	1744.87
363.99	1722.34
364.20	1732.58
364.41	1718.25
364.62	1865.70
364.83	1724.39
365.04	1765.35
365.25	1691.62
365.46	1826.79
365.67	1599.46
365.88	1652.71
366.09	1734.63
366.30	1726.44
366.51	1728.49
366.72	1660.90
366.93	1673.19
367.14	1757.16
367.35	1763.30
367.56	1669.09
367.77	1812.45
367.98	1738.73
368.18	1753.06
368.39	1693.67
368.60	1607.66
368.81	1802.21
369.02	1718.25
369.23	1724.39
369.44	1593.32
369.65	1691.62
369.86	1720.29
370.07	1740.77
370.28	1794.02
370.49	1775.59
370.70	1818.60
370.91	1703.91
371.12	1609.70
371.33	1712.10
371.54	1642.47
371.75	1814.50
371.96	1587.18
372.17	1763.30
372.38	1714.15
372.59	1769.44
372.80	1710.05
373.01	1748.97
373.22	1714.15
373.43	1720.29
373.64	1658.85
373.85	1812.45
374.06	1857.51
374.26	1738.73
374.47	1728.49
374.68	1718.25
374.89	1683.43
375.10	1744.87
375.31	1777.64
375.52	1667.05
375.73	1816.55
375.94	1691.62
376.15	1820.64
376.36	1697.77
376.57	1648.61
376.78	1665.00
376.99	1697.77
377.20	1791.97
377.40	1691.62
377.61	1824.74
377.82	1636.33
378.03	1785.83
378.24	1705.96
378.45	1771.49
378.66	1751.01
378.87	1656.81
379.08	1607.66
379.29	1615.85
379.50	1861.60
379.71	1720.29
379.91	1722.34
380.12	1712.10
380.33	1777.64
380.54	1718.25
380.75	1695.72
380.96	1658.85
381.17	1738.73
381.38	1716.20
381.59	1798.12
381.80	1808.36
382.00	1902.56
382.21	1759.21
382.42	1886.18
382.63	1900.52
382.84	1742.82
383.05	1853.41
383.26	1808.36
383.47	1705.96
383.68	1783.78
383.88	1656.81
384.09	1763.30
384.30	1808.36
384.51	1767.40
384.72	1650.66
384.93	1603.56
385.14	1771.49
385.35	1781.73
385.55	1695.72
385.76	1769.44
385.97	1726.44
386.18	1652.71
386.39	1681.38
386.60	1632.23
386.81	1638.38
387.02	1732.58
387.22	1665.00
387.43	1839.08
387.64	1783.78
387.85	1957.86
388.06	2217.95
388.27	4726.71
388.48	9121.65
388.68	11646.80
388.89	13391.67
389.10	14479.14
389.31	11966.28
389.52	9856.87
389.73	8812.41
389.93	7815.05
390.14	7298.96
390.35	6645.66
390.56	6014.88
390.77	5066.67
390.98	3813.32
391.18	2992.08
391.39	2416.60
391.60	1943.52
391.81	1910.75
392.02	1705.96
392.23	1863.65
392.43	1757.16
392.64	1847.27
392.85	1742.82
393.06	1802.21
393.27	1699.81
393.47	1710.05
393.68	1796.07
393.89	1699.81
394.10	1787.88
394.31	1675.24
394.52	1658.85
394.72	1746.92
394.93	1839.08
395.14	1650.66
395.35	1726.44
395.56	1730.53
395.76	1738.73
395.97	1828.84
396.18	1824.74
396.39	1855.46
396.60	2109.41
396.80	1949.67
397.01	1826.79
397.22	1845.22
397.43	1939.43
397.64	1808.36
397.84	1839.08
398.05	1847.27
398.26	1828.84
398.47	1794.02
398.67	1808.36
398.88	1738.73
399.09	1722.34
399.30	1681.38
399.51	1722.34
399.71	1597.42
399.92	1691.62
400.13	1781.73
400.34	1722.34
400.54	1710.05
400.75	1765.35
400.96	1796.07
401.17	1814.50
401.37	1728.49
401.58	1771.49
401.79	1712.10
402.00	1875.94
402.21	2043.87
402.41	2041.82
402.62	2062.30
402.83	2187.23
403.04	2082.78
403.24	2179.04
403.45	1904.61
403.66	1978.34
403.87	1951.71
404.07	1961.95
404.28	2029.54
404.49	1896.42
404.70	1791.97
404.90	1847.27
405.11	1710.05
405.32	1789.92
405.52	1722.34
405.73	1662.95
405.94	1662.95
406.15	1679.33
406.35	1755.11
406.56	1667.05
406.77	1656.81
406.98	1658.85
407.18	1712.10
407.39	1769.44
407.60	1630.18
407.80	1826.79
408.01	1656.81
408.22	1732.58
408.43	1667.05
408.63	1705.96
408.84	1751.01
409.05	1740.77
409.25	1648.61
409.46	1654.76
409.67	1697.77
409.88	1646.57
410.08	1763.30
410.29	1665.00
410.50	1671.14
410.70	1681.38
410.91	1646.57
411.12	1710.05
411.32	1824.74
411.53	1728.49
411.74	1873.89
411.95	1832.93
412.15	1755.11
412.36	1773.54
412.57	1814.50
412.77	1902.56
412.98	1804.26
413.19	1716.20
413.39	1730.53
413.60	1730.53
413.81	1767.40
414.01	1689.57
414.22	1755.11
414.43	1732.58
414.63	1751.01
414.84	1781.73
415.05	1742.82
415.25	1660.90
415.46	1765.35
415.67	1628.14
415.87	1722.34
416.08	1701.86
416.29	1728.49
416.49	1796.07
416.70	1673.19
416.91	1714.15
417.11	1705.96
417.32	1761.25
417.53	1796.07
417.73	1753.06
417.94	1699.81
418.15	1755.11
418.35	1697.77
418.56	1687.53
418.77	1832.93
418.97	1673.19
419.18	1716.20
419.38	1609.70
419.59	1714.15
419.80	1806.31
420.00	1642.47
420.21	1783.78
420.42	1759.21
420.62	1634.28
420.83	1658.85
421.04	1697.77
421.24	1691.62
421.45	1757.16
421.65	1767.40
421.86	1656.81
422.07	1761.25
422.27	1845.22
422.48	1724.39
422.69	1746.92
422.89	1826.79
423.10	1712.10
423.30	1609.70
423.51	1665.00
423.72	1775.59
423.92	1660.90
424.13	1677.29
424.33	1759.21
424.54	1728.49
424.75	1771.49
424.95	1740.77
425.16	1779.68
425.36	1699.81
425.57	1748.97
425.78	1769.44
425.98	1708.01
426.19	1683.43
426.39	1675.24
426.60	1679.33
426.81	1837.03
427.01	1771.49
427.22	1673.19
427.42	1597.42
427.63	1669.09
427.83	1808.36
428.04	1771.49
428.25	1796.07
428.45	1775.59
428.66	1789.92
428.86	1681.38
429.07	1748.97
429.28	1808.36
429.48	1767.40
429.69	1626.09
429.89	1726.44
430.10	1636.33
430.30	1757.16
430.51	1781.73
430.71	1697.77
430.92	1673.19
431.13	1648.61
431.33	1714.15
431.54	1751.01
431.74	1783.78
431.95	1765.35
432.15	1634.28
432.36	1724.39
432.56	1773.54
432.77	1783.78
432.98	1882.08
433.18	1763.30
433.39	1708.01
433.59	1683.43
433.80	1802.21
434.00	1834.98
434.21	1691.62
434.41	1628.14
434.62	1763.30
434.82	1648.61
435.03	1677.29
435.23	1777.64
435.44	1628.14
435.64	1746.92
435.85	1751.01
436.06	1740.77
436.26	1767.40
436.47	1630.18
436.67	1769.44
436.88	1716.20
437.08	1775.59
437.29	1787.88
437.49	1642.47
437.70	1781.73
437.90	1667.05
438.11	1841.12
438.31	1779.68
438.52	1904.61
438.72	1886.18
438.93	1992.67
439.13	1841.12
439.34	1920.99
439.54	1820.64
439.75	1761.25
439.95	1789.92
440.16	1777.64
440.36	1748.97
440.57	1800.16
440.77	1763.30
440.98	1769.44
441.18	1845.22
441.39	1662.95
441.59	1691.62
441.80	1822.69
442.00	1660.90
442.21	1744.87
442.41	1560.55
442.62	1834.98
442.82	1654.76
443.02	1751.01
443.23	1691.62
443.43	1748.97
443.64	1837.03
443.84	1632.23
444.05	1839.08
444.25	1699.81
444.46	1740.77
444.66	1714.15
444.87	1787.88
445.07	1665.00
445.28	1726.44
445.48	1845.22
445.69	1820.64
445.89	1849.32
446.09	1742.82
446.30	1998.82
446.50	2607.06
446.71	4104.13
446.91	5154.74
447.12	5740.46
447.32	6002.60
447.53	5343.15
447.73	4542.39
447.93	4014.02
448.14	3655.62
448.34	3481.55
448.55	3139.54
448.75	3248.08
448.96	3035.09
449.16	2623.45
449.36	2609.11
449.57	2133.98
449.77	1884.13
449.98	1765.35
450.18	1742.82
450.39	1804.26
450.59	1814.50
450.79	1746.92
451.00	1652.71
451.20	1726.44
451.41	1732.58
451.61	1746.92
451.81	1728.49
452.02	1783.78
452.22	1679.33
452.43	1697.77
452.63	1724.39
452.84	1710.05
453.04	1703.91
453.24	1734.63
453.45	1712.10
453.65	1681.38
453.86	1771.49
454.06	1822.69
454.26	1767.40
454.47	1703.91
454.67	1845.22
454.87	1791.97
455.08	1804.26
455.28	1828.84
455.49	1671.14
455.69	1705.96
455.89	1841.12
456.10	1769.44
456.30	1691.62
456.51	1718.25
456.71	1734.63
456.91	1720.29
457.12	1781.73
457.32	1734.63
457.52	1710.05
457.73	1683.43
457.93	1740.77
458.14	1636.33
458.34	1634.28
458.54	1734.63
458.75	1687.53
458.95	1689.57
459.15	1777.64
459.36	1781.73
459.56	1761.25
459.76	1857.51
459.97	1708.01
460.17	1759.21
460.37	1751.01
460.58	1781.73
460.78	1736.68
460.99	1693.67
461.19	1781.73
461.39	1771.49
461.60	1742.82
461.80	1802.21
462.00	1632.23
462.21	1681.38
462.41	1746.92
462.61	1656.81
462.82	1671.14
463.02	1755.11
463.22	1736.68
463.43	1871.84
463.63	1685.48
463.83	1753.06
464.04	1748.97
464.24	1751.01
464.44	1701.86
464.64	1779.68
464.85	1794.02
465.05	1873.89
465.25	1730.53
465.46	1689.57
465.66	1810.40
465.86	1759.21
466.07	1679.33
466.27	1708.01
466.47	1681.38
466.68	1636.33
466.88	1769.44
467.08	1798.12
467.29	1787.88
467.49	1812.45
467.69	1740.77
467.89	1720.29
468.10	1785.83
468.30	1730.53
468.50	1779.68
468.71	1796.07
468.91	1691.62
469.11	1724.39
469.31	1722.34
469.52	1650.66
469.72	1812.45
469.92	1798.12
470.13	1820.64
470.33	1697.77
470.53	1820.64
470.73	2097.12
470.94	2449.37
471.14	2656.22
471.34	2932.69
471.54	2869.20
471.75	2629.59
471.95	2258.91
472.15	2367.45
472.36	2236.38
472.56	2263.01
472.76	2189.28
472.96	2068.45
473.17	1996.77
473.37	1943.52
473.57	1822.69
473.77	1830.88
473.98	1812.45
474.18	1734.63
474.38	1873.89
474.58	1773.54
474.79	1699.81
474.99	1810.40
475.19	1830.88
475.39	1632.23
475.60	1728.49
475.80	1769.44
476.00	1720.29
476.20	1673.19
476.41	1710.05
476.61	1742.82
476.81	1785.83
477.01	1705.96
477.21	1787.88
477.42	1773.54
477.62	1687.53
477.82	1808.36
478.02	1669.09
478.23	1732.58
478.43	1603.56
478.63	1730.53
478.83	1712.10
479.03	1746.92
479.24	1837.03
479.44	1830.88
479.64	1640.42
479.84	1589.22
480.04	1679.33
480.25	1724.39
480.45	1689.57
480.65	1714.15
480.85	1701.86
481.06	1697.77
481.26	1705.96
481.46	1724.39
481.66	1673.19
481.86	1689.57
482.06	1806.31
482.27	1722.34
482.47	1681.38
482.67	1724.39
482.87	1730.53
483.07	1800.16
483.28	1656.81
483.48	1677.29
483.68	1730.53
483.88	1607.66
484.08	1558.50
484.29	1634.28
484.49	1746.92
484.69	1566.70
484.89	1791.97
485.09	1718.25
485.29	1740.77
485.50	1767.40
485.70	1630.18
485.90	1857.51
486.10	1681.38
486.30	1791.97
486.50	1816.55
486.71	1763.30
486.91	1767.40
487.11	1841.12
487.31	1687.53
487.51	1722.34
487.71	1728.49
487.91	1665.00
488.12	1665.00
488.32	1558.50
488.52	1746.92
488.72	1646.57
488.92	1705.96
489.12	1806.31
489.32	1783.78
489.53	1814.50
489.73	1705.96
489.93	1839.08
490.13	1669.09
490.33	1667.05
490.53	1759.21
490.73	1757.16
490.94	1615.85
491.14	1734.63
491.34	1800.16
491.54	2056.16
491.74	2664.41
491.94	3280.85
492.14	3590.09
492.34	3471.31
492.54	3162.06
492.75	2725.85
492.95	2629.59
493.15	2363.36
493.35	2320.35
493.55	2400.22
493.75	2224.09
493.95	2281.44
494.15	2017.25
494.35	1955.81
494.56	1890.28
494.76	1722.34
494.96	1789.92
495.16	1783.78
495.36	1714.15
495.56	1658.85
495.76	1746.92
495.96	1673.19
496.16	1642.47
496.36	1828.84
496.56	1677.29
496.77	1794.02
496.97	1693.67
497.17	1857.51
497.37	1708.01
497.57	1810.40
497.77	1714.15
497.97	1740.77
498.17	1781.73
498.37	1687.53
498.57	1767.40
498.77	1695.72
498.97	1804.26
499.17	1818.60
499.38	1689.57
499.58	1738.73
499.78	1791.97
499.98	1781.73
500.18	1732.58
500.38	1697.77
500.58	1900.52
500.78	2457.56
500.98	4462.52
501.18	6719.39
501.38	8343.42
501.58	9342.83
501.78	8900.47
501.98	6836.12
502.18	5865.38
502.38	5081.01
502.58	4554.68
502.78	4106.18
502.98	4036.55
503.18	3856.33
503.38	3542.99
503.59	3233.74
503.79	2967.51
503.99	2635.74
504.19	2453.47
504.39	2359.26
504.59	2385.88
504.79	2371.55
504.99	2365.40
505.19	2025.44
505.39	1992.67
505.59	2068.45
505.79	2037.73
505.99	1945.57
506.19	1892.32
506.39	1943.52
506.59	1693.67
506.79	1796.07
506.99	1884.13
507.19	1755.11
507.39	1791.97
507.59	1705.96
507.79	1652.71
507.99	1609.70
508.19	1777.64
508.39	1771.49
508.59	1726.44
508.79	1812.45
508.99	1841.12
509.19	1644.52
509.39	1751.01
509.59	1718.25
509.79	1685.48
509.99	1744.87
510.19	1748.97
510.39	1753.06
510.59	1753.06
510.79	1724.39
510.99	1705.96
511.19	1779.68
511.39	1849.32
511.59	1818.60
511.79	1794.02
511.99	1740.77
512.19	1794.02
512.38	1783.78
512.58	1744.87
512.78	1746.92
512.98	1837.03
513.18	1826.79
513.38	1605.61
513.58	1787.88
513.78	1710.05
513.98	1691.62
514.18	1787.88
514.38	1763.30
514.58	1794.02
514.78	1714.15
514.98	1742.82
515.18	1775.59
515.38	1693.67
515.58	1845.22
515.78	1738.73
515.98	1730.53
516.18	1773.54
516.38	1695.72
516.57	1687.53
516.77	1730.53
516.97	1791.97
517.17	1738.73
517.37	1646.57
517.57	1730.53
517.77	1724.39
517.97	1726.44
518.17	1834.98
518.37	1689.57
518.57	1644.52
518.77	1742.82
518.97	1867.75
519.16	1699.81
519.36	1753.06
519.56	1691.62
519.76	1791.97
519.96	1775.59
520.16	1843.17
520.36	1703.91
520.56	1875.94
520.76	1730.53
520.96	1796.07
521.16	1855.46
521.35	1828.84
521.55	1861.60
521.75	1771.49
521.95	1691.62
522.15	1744.87
522.35	1648.61
522.55	1701.86
522.75	1830.88
522.95	1736.68
523.14	1705.96
523.34	1724.39
523.54	1773.54
523.74	1796.07
523.94	1742.82
524.14	1644.52
524.34	1761.25
524.54	1789.92
524.73	1701.86
524.93	1671.14
525.13	1724.39
525.33	1652.71
525.53	1890.28
525.73	1753.06
525.93	1789.92
526.13	1705.96
526.32	1751.01
526.52	1748.97
526.72	1728.49
526.92	1763.30
527.12	1734.63
527.32	1744.87
527.52	1736.68
527.71	1810.40
527.91	1738.73
528.11	1781.73
528.31	1656.81
528.51	1677.29
528.71	1695.72
528.90	1705.96
529.10	1763.30
529.30	1822.69
529.50	1624.04
529.70	1814.50
529.90	1695.72
530.09	1751.01
530.29	1652.71
530.49	1695.72
530.69	1890.28
530.89	1742.82
531.09	1810.40
531.28	1767.40
531.48	1773.54
531.68	1785.83
531.88	1736.68
532.08	1789.92
532.28	1751.01
532.47	1748.97
532.67	1798.12
532.87	1779.68
533.07	1662.95
533.27	1867.75
533.46	1755.11
533.66	1769.44
533.86	1794.02
534.06	1763.30
534.26	1724.39
534.45	1744.87
534.65	1779.68
534.85	1779.68
535.05	1742.82
535.25	1712.10
535.44	1753.06
535.64	1730.53
535.84	1685.48
536.04	1761.25
536.24	1734.63
536.43	1755.11
536.63	1769.44
536.83	1794.02
537.03	1701.86
537.22	1703.91
537.42	1607.66
537.62	1683.43
537.82	1736.68
538.02	1857.51
538.21	1794.02
538.41	1873.89
538.61	1873.89
538.81	1634.28
539.00	1806.31
539.20	1683.43
539.40	1779.68
539.60	1714.15
539.79	1742.82
539.99	1789.92
540.19	1705.96
540.39	1777.64
540.58	1820.64
540.78	1806.31
540.98	1847.27
541.18	1779.68
541.37	1742.82
541.57	1755.11
541.77	1738.73
541.97	1697.77
542.16	1716.20
542.36	1726.44
542.56	1820.64
542.76	1783.78
542.95	1708.01
543.15	1751.01
543.35	1796.07
543.54	1732.58
543.74	1746.92
543.94	1802.21
544.14	1677.29
544.33	1759.21
544.53	1761.25
544.73	1703.91
544.93	1779.68
545.12	1705.96
545.32	1736.68
545.52	1722.34
545.71	1699.81
545.91	1724.39
546.11	1695.72
546.30	1734.63
546.50	1714.15
546.70	1710.05
546.90	1730.53
547.09	1593.32
547.29	1714.15
547.49	1746.92
547.68	1724.39
547.88	1712.10
548.08	1843.17
548.27	2156.51
548.47	1669.09
548.67	1705.96
548.87	1730.53
549.06	1738.73
549.26	1742.82
549.46	1734.63
549.65	1724.39
549.85	1804.26
550.05	1787.88
550.24	1652.71
550.44	1728.49
550.64	1693.67
550.83	1669.09
551.03	1845.22
551.23	1765.35
551.42	1726.44
551.62	1744.87
551.82	1703.91
552.01	1726.44
552.21	1787.88
552.41	1808.36
552.60	1816.55
552.80	1699.81
553.00	1701.86
553.19	1726.44
553.39	1783.78
553.59	1755.11
553.78	1837.03
553.98	1701.86
554.17	1601.51
554.37	1820.64
554.57	1783.78
554.76	1667.05
554.96	1693.67
555.16	1728.49
555.35	1761.25
555.55	1665.00
555.75	1730.53
555.94	1789.92
556.14	1650.66
556.33	1763.30
556.53	1699.81
556.73	1714.15
556.92	1763.30
557.12	1800.16
557.32	1841.12
557.51	1824.74
557.71	1730.53
557.90	1898.47
558.10	1812.45
558.30	1718.25
558.49	1722.34
558.69	1732.58
558.88	1744.87
559.08	1712.10
559.28	1673.19
559.47	1730.53
559.67	1855.46
559.86	1839.08
560.06	1789.92
560.26	1767.40
560.45	1789.92
560.65	1718.25
560.84	1863.65
561.04	1681.38
561.24	1720.29
561.43	1701.86
561.63	1847.27
561.82	1802.21
562.02	1834.98
562.22	1685.48
562.41	1634.28
562.61	1775.59
562.80	1669.09
563.00	1898.47
563.19	1742.82
563.39	1783.78
563.59	1736.68
563.78	1683.43
563.98	1648.61
564.17	1730.53
564.37	1621.99
564.56	1734.63
564.76	1685.48
564.96	1857.51
565.15	1705.96
565.35	1832.93
565.54	1761.25
565.74	1771.49
565.93	1777.64
566.13	1785.83
566.32	1710.05
566.52	1732.58
566.71	1806.31
566.91	1796.07
567.11	1679.33
567.30	1716.20
567.50	1746.92
567.69	1755.11
567.89	1714.15
568.08	1751.01
568.28	1816.55
568.47	1759.21
568.67	1757.16
568.86	1740.77
569.06	1869.80
569.25	1656.81
569.45	1636.33
569.64	1685.48
569.84	1691.62
570.04	1736.68
570.23	1691.62
570.43	1675.24
570.62	1732.58
570.82	1853.41
571.01	1691.62
571.21	1738.73
571.40	1656.81
571.60	1820.64
571.79	1769.44
571.99	1789.92
572.18	1685.48
572.38	1783.78
572.57	1794.02
572.77	1755.11
572.96	1869.80
573.16	1728.49
573.35	1775.59
573.55	1824.74
573.74	1761.25
573.94	1765.35
574.13	1693.67
574.33	1804.26
574.52	1873.89
574.71	1775.59
574.91	1775.59
575.10	1724.39
575.30	1693.67
575.49	1665.00
575.69	1658.85
575.88	1810.40
576.08	1746.92
576.27	1837.03
576.47	1834.98
576.66	1910.75
576.86	1873.89
577.05	1794.02
577.25	1828.84
577.44	1966.05
577.64	1755.11
577.83	1767.40
578.02	1742.82
578.22	1863.65
578.41	1839.08
578.61	1746.92
578.80	1716.20
579.00	1769.44
579.19	1673.19
579.39	1730.53
579.58	1841.12
579.77	1810.40
579.97	1781.73
580.16	1849.32
580.36	1861.60
580.55	1814.50
580.75	1724.39
580.94	1730.53
581.13	1855.46
581.33	1894.37
581.52	1755.11
581.72	1880.04
581.91	1931.23
582.11	1804.26
582.30	1834.98
582.49	1806.31
582.69	1806.31
582.88	1779.68
583.08	1800.16
583.27	1828.84
583.47	1753.06
583.66	1746.92
583.85	1724.39
584.05	1769.44
584.24	1806.31
584.44	1804.26
584.63	1916.90
584.82	1904.61
585.02	1992.67
585.21	1918.95
585.41	1904.61
585.60	1914.85
585.79	2056.16
585.99	1904.61
586.18	1908.71
586.37	2287.58
586.57	3393.48
586.76	9852.78
586.96	27539.04
587.15	42530.17
587.34	52178.15
587.54	59067.51
587.73	56116.39
587.93	40770.96
588.12	30193.20
588.31	24028.82
588.51	20522.69
588.70	18675.43
588.89	17247.99
589.09	15580.95
589.28	13629.23
589.47	11605.84
589.67	9643.88
589.86	7532.43
590.06	5562.28
590.25	4138.94
590.44	3215.31
590.64	2639.83
590.83	2252.77
591.02	2123.74
591.22	1873.89
591.41	1892.32
591.60	1794.02
591.80	1968.10
591.99	1742.82
592.18	1746.92
592.38	1877.99
592.57	1757.16
592.76	1869.80
592.96	1718.25
593.15	1857.51
593.34	1834.98
593.54	1724.39
593.73	1826.79
593.92	1830.88
594.12	1802.21
594.31	1873.89
594.50	1849.32
594.70	1834.98
594.89	1849.32
595.08	1689.57
595.28	1839.08
595.47	1951.71
595.66	1847.27
595.86	1722.34
596.05	1798.12
596.24	1763.30
596.43	1861.60
596.63	1845.22
596.82	1847.27
597.01	1789.92
597.21	1828.84
597.40	1857.51
597.59	1816.55
597.79	1824.74
597.98	1742.82
598.17	1806.31
598.36	1763.30
598.56	1920.99
598.75	1724.39
598.94	1763.30
599.14	1826.79
599.33	1693.67
599.52	1753.06
599.71	1685.48
599.91	1794.02
600.10	1767.40
600.29	1722.34
600.48	1718.25
600.68	1703.91
600.87	1732.58
601.06	1699.81
601.26	1779.68
601.45	1779.68
601.64	1767.40
601.83	1765.35
602.03	1710.05
602.22	1634.28
602.41	1771.49
602.60	1884.13
602.80	1791.97
602.99	1746.92
603.18	1720.29
603.37	1708.01
603.57	1791.97
603.76	1796.07
603.95	1824.74
604.14	1695.72
604.34	1728.49
604.53	1732.58
604.72	1812.45
604.91	1791.97
605.10	1773.54
605.30	1681.38
605.49	1839.08
605.68	1773.54
605.87	1769.44
606.07	1642.47
606.26	1724.39
606.45	1738.73
606.64	1730.53
606.84	1765.35
607.03	1773.54
607.22	1877.99
607.41	1765.35
607.60	1751.01
607.80	1804.26
607.99	1748.97
608.18	1662.95
608.37	1742.82
608.56	1730.53
608.76	1890.28
608.95	1824.74
609.14	1828.84
609.33	1894.37
609.52	1949.67
609.72	1855.46
609.91	1796.07
610.10	1777.64
610.29	1951.71
610.48	1796.07
610.68	1744.87
610.87	1740.77
611.06	1697.77
611.25	1777.64
611.44	1808.36
611.63	1718.25
611.83	1808.36
612.02	1621.99
612.21	1751.01
612.40	1673.19
612.59	1673.19
612.79	1753.06
612.98	1759.21
613.17	1877.99
613.36	1806.31
613.55	1865.70
613.74	1789.92
613.93	1832.93
614.13	1904.61
614.32	1908.71
614.51	2039.78
614.70	1902.56
614.89	1871.84
615.08	1841.12
615.28	2066.40
615.47	1669.09
615.66	1806.31
615.85	1822.69
616.04	1947.62
616.23	1763.30
616.42	1808.36
616.62	1779.68
616.81	1830.88
617.00	1720.29
617.19	1738.73
617.38	1740.77
617.57	1775.59
617.76	1755.11
617.95	1789.92
618.15	1746.92
618.34	1824.74
618.53	1669.09
618.72	1746.92
618.91	1736.68
619.10	1759.21
619.29	1781.73
619.48	1771.49
619.68	1722.34
619.87	1740.77
620.06	1638.38
620.25	1800.16
620.44	1687.53
620.63	1746.92
620.82	1669.09
621.01	1765.35
621.20	1796.07
621.39	1787.88
621.59	1773.54
621.78	1769.44
621.97	1722.34
622.16	1738.73
622.35	1724.39
622.54	1818.60
622.73	1773.54
622.92	1730.53
623.11	1814.50
623.30	1695.72
623.49	1789.92
623.68	1642.47
623.88	1771.49
624.07	1789.92
624.26	1636.33
624.45	1746.92
624.64	1650.66
624.83	1783.78
625.02	1699.81
625.21	1738.73
625.40	1712.10
625.59	1783.78
625.78	1787.88
625.97	1783.78
626.16	1777.64
626.35	1841.12
626.54	1712.10
626.74	1826.79
626.93	1841.12
627.12	1806.31
627.31	1800.16
627.50	1759.21
627.69	1746.92
627.88	1673.19
628.07	1789.92
628.26	1646.57
628.45	1785.83
628.64	1740.77
628.83	1640.42
629.02	1632.23
629.21	1746.92
629.40	1742.82
629.59	1742.82
629.78	1744.87
629.97	1806.31
630.16	1783.78
630.35	1746.92
630.54	1705.96
630.73	1665.00
630.92	1624.04
631.11	1683.43
631.30	1804.26
631.49	1777.64
631.68	1708.01
631.87	1722.34
632.06	1724.39
632.25	1888.23
632.44	1742.82
632.63	1738.73
632.82	1785.83
633.01	1775.59
633.20	1796.07
633.39	1787.88
633.58	1785.83
633.77	1781.73
633.96	1783.78
634.15	1796.07
634.34	1832.93
634.53	1732.58
634.72	1658.85
634.91	1703.91
635.10	1755.11
635.29	1794.02
635.48	1751.01
635.67	1665.00
635.86	1681.38
636.05	1771.49
636.24	1787.88
636.43	1785.83
636.62	1765.35
636.81	1531.88
637.00	1746.92
637.19	1787.88
637.38	1724.39
637.57	1722.34
637.76	1837.03
637.95	1748.97
638.14	1720.29
638.33	1765.35
638.52	1791.97
638.71	1738.73
638.89	1689.57
639.08	1882.08
639.27	1834.98
639.46	1880.04
639.65	2228.19
639.84	2238.43
640.03	2369.50
640.22	2340.83
640.41	2318.30
640.60	2080.74
640.79	1966.05
640.98	1982.43
641.17	1896.42
641.36	1902.56
641.55	1912.80
641.74	1767.40
641.92	1767.40
642.11	1779.68
642.30	1769.44
642.49	1738.73
642.68	1763.30
642.87	1742.82
643.06	1673.19
643.25	1644.52
643.44	1693.67
643.63	1665.00
643.82	1765.35
644.00	1640.42
644.19	1730.53
644.38	1621.99
644.57	1730.53
644.76	1775.59
644.95	1669.09
645.14	1714.15
645.33	1730.53
645.52	1757.16
645.71	1626.09
645.89	1669.09
646.08	1626.09
646.27	1697.77
646.46	1884.13
646.65	1603.56
646.84	1697.77
647.03	1626.09
647.22	1699.81
647.40	1726.44
647.59	1736.68
647.78	1578.98
647.97	1683.43
648.16	1703.91
648.35	1810.40
648.54	1751.01
648.73	1757.16
648.91	1753.06
649.10	1718.25
649.29	1654.76
649.48	1748.97
649.67	1710.05
649.86	1724.39
650.05	1783.78
650.23	1863.65
650.42	1808.36
650.61	1906.66
650.80	1939.43
650.99	1873.89
651.18	1796.07
651.36	1812.45
651.55	1759.21
651.74	1738.73
651.93	1718.25
652.12	1757.16
652.31	1806.31
652.49	1769.44
652.68	1726.44
652.87	1871.84
653.06	1832.93
653.25	1873.89
653.44	1710.05
653.62	1796.07
653.81	1730.53
654.00	1751.01
654.19	1804.26
654.38	1847.27
654.56	1794.02
654.75	1654.76
654.94	1800.16
655.13	1730.53
655.32	1679.33
655.51	1740.77
655.69	1701.86
655.88	1796.07
656.07	1708.01
656.26	1755.11
656.45	1640.42
656.63	1751.01
656.82	1730.53
657.01	1728.49
657.20	1658.85
657.38	1771.49
657.57	1775.59
657.76	1652.71
657.95	1744.87
658.14	1648.61
658.32	1736.68
658.51	1681.38
658.70	1757.16
658.89	1824.74
659.08	1812.45
659.26	1820.64
659.45	1771.49
659.64	1767.40
659.83	1736.68
660.01	1869.80
660.20	1736.68
660.39	1920.99
660.58	1597.42
660.76	1775.59
660.95	1679.33
661.14	1693.67
661.33	1673.19
661.51	1685.48
661.70	1765.35
661.89	1714.15
662.08	1712.10
662.26	1587.18
662.45	1675.24
662.64	1800.16
662.83	1712.10
663.01	1624.04
663.20	1736.68
663.39	1804.26
663.58	1734.63
663.76	1740.77
663.95	1810.40
664.14	1691.62
664.32	1703.91
664.51	1652.71
664.70	1660.90
664.89	1697.77
665.07	1621.99
665.26	1757.16
665.45	1699.81
665.64	1834.98
665.82	1726.44
666.01	1808.36
666.20	1738.73
666.38	1824.74
666.57	1914.85
666.76	2271.20
666.95	4790.20
667.13	11634.51
667.32	18644.71
667.51	22609.58
667.69	24970.88
667.88	25871.99
668.07	19973.84
668.25	14456.61
668.44	11720.53
668.63	10037.09
668.81	8617.85
669.00	7755.66
669.19	6940.57
669.38	6104.99
669.56	5365.68
669.75	4429.76
669.94	3788.74
670.12	3096.53
670.31	2691.03
670.50	2412.51
670.68	2172.89
670.87	1990.63
671.06	1843.17
671.24	1871.84
671.43	1980.39
671.62	1884.13
671.80	1771.49
671.99	1777.64
672.18	1789.92
672.36	1732.58
672.55	1783.78
672.74	1779.68
672.92	1699.81
673.11	1767.40
673.29	1673.19
673.48	1769.44
673.67	1691.62
673.85	1773.54
674.04	1646.57
674.23	1759.21
674.41	1763.30
674.60	1685.48
674.79	1677.29
674.97	1642.47
675.16	1779.68
675.34	1708.01
675.53	1697.77
675.72	1714.15
675.90	1869.80
676.09	1677.29
676.28	1730.53
676.46	1632.23
676.65	1759.21
676.83	1779.68
677.02	1722.34
677.21	1720.29
677.39	1736.68
677.58	1654.76
677.77	1619.94
677.95	1767.40
678.14	1652.71
678.32	1681.38
678.51	1652.71
678.70	1824.74
678.88	1710.05
679.07	1783.78
679.25	1744.87
679.44	1736.68
679.63	1697.77
679.81	1675.24
680.00	1695.72
680.18	1734.63
680.37	1769.44
680.55	1695.72
680.74	1581.03
680.93	1640.42
681.11	1761.25
681.30	1697.77
681.48	1687.53
681.67	1708.01
681.85	1693.67
682.04	1628.14
682.23	1789.92
682.41	1673.19
682.60	1701.86
682.78	1705.96
682.97	1634.28
683.15	1699.81
683.34	1665.00
683.53	1726.44
683.71	1697.77
683.90	1791.97
684.08	1802.21
684.27	1681.38
684.45	1681.38
684.64	1822.69
684.82	1718.25
685.01	1791.97
685.19	1708.01
685.38	1757.16
685.57	1648.61
685.75	1646.57
685.94	1732.58
686.12	1624.04
686.31	1738.73
686.49	1837.03
686.68	1576.94
686.86	1720.29
687.05	1652.71
687.23	1773.54
687.42	1673.19
687.60	1640.42
687.79	1804.26
687.97	1726.44
688.16	1804.26
688.34	1785.83
688.53	1634.28
688.71	1738.73
688.90	1761.25
689.08	1714.15
689.27	1624.04
689.45	1736.68
689.64	1767.40
689.82	1783.78
690.01	1718.25
690.19	1779.68
690.38	1636.33
690.56	1814.50
690.75	1654.76
690.93	1681.38
691.12	1677.29
691.30	1748.97
691.49	1677.29
691.67	1697.77
691.86	1779.68
692.04	1697.77
692.23	1720.29
692.41	1724.39
692.60	1853.41
692.78	1853.41
692.97	1779.68
693.15	1869.80
693.34	1923.04
693.52	1810.40
693.71	1687.53
693.89	1748.97
694.08	1662.95
694.26	1746.92
694.44	1779.68
694.63	1796.07
694.81	1705.96
695.00	1695.72
695.18	1720.29
695.37	1828.84
695.55	1765.35
695.74	1689.57
695.92	1689.57
696.10	1791.97
696.29	1607.66
696.47	1665.00
696.66	1581.03
696.84	1681.38
697.03	1714.15
697.21	1880.04
697.40	2310.11
697.58	1742.82
697.76	1677.29
697.95	1601.51
698.13	1656.81
698.32	1763.30
698.50	1755.11
698.68	1773.54
698.87	1763.30
699.05	1751.01
699.24	1740.77
699.42	1703.91
699.61	1757.16
699.79	1691.62
699.97	1738.73
700.16	1693.67
700.34	1644.52
700.53	1718.25
700.71	1859.56
700.89	1716.20
701.08	1662.95
701.26	1712.10
701.45	2127.84
701.63	1662.95
701.81	1710.05
702.00	1705.96
702.18	1720.29
702.37	1695.72
702.55	1869.80
702.73	1841.12
702.92	1865.70
703.10	2009.06
703.28	1992.67
703.47	1839.08
703.65	1929.19
703.84	1867.75
704.02	1767.40
704.20	1896.42
704.39	1775.59
704.57	1740.77
704.75	1845.22
704.94	1765.35
705.12	1734.63
705.30	1877.99
705.49	2480.09
705.67	5564.33
705.86	13354.80
706.04	19545.81
706.22	22924.96
706.41	25618.04
706.59	24862.34
706.77	19072.73
706.96	14004.01
707.14	12103.50
707.32	10241.89
707.51	9125.75
707.69	8001.41
707.87	6907.80
708.06	5672.87
708.24	4265.92
708.42	3334.09
708.61	2815.96
708.79	2258.91
708.97	2086.88
709.16	1871.84
709.34	1890.28
709.52	1765.35
709.71	1691.62
709.89	1755.11
710.07	1710.05
710.26	1722.34
710.44	1726.44
710.62	1855.46
710.80	1726.44
710.99	1851.36
711.17	1710.05
711.35	1755.11
711.54	1751.01
711.72	1703.91
711.90	1730.53
712.09	1787.88
712.27	1726.44
712.45	1787.88
712.63	1691.62
712.82	1769.44
713.00	1722.34
713.18	1757.16
713.37	1769.44
713.55	1751.01
713.73	1755.11
713.91	1716.20
714.10	1730.53
714.28	1767.40
714.46	1705.96
714.65	1779.68
714.83	1742.82
715.01	1705.96
715.19	1757.16
715.38	1665.00
715.56	1728.49
715.74	1691.62
715.92	1662.95
716.11	1841.12
716.29	1642.47
716.47	1662.95
716.65	1722.34
716.84	1624.04
717.02	1789.92
717.20	1603.56
717.38	1654.76
717.57	1708.01
717.75	1814.50
717.93	1677.29
718.11	1738.73
718.30	1611.75
718.48	1718.25
718.66	1767.40
718.84	1830.88
719.03	1691.62
719.21	1695.72
719.39	1849.32
719.57	1755.11
719.75	1716.20
719.94	1693.67
720.12	1671.14
720.30	1755.11
720.48	1798.12
720.67	1675.24
720.85	1673.19
721.03	1773.54
721.21	1665.00
721.39	1751.01
721.58	1746.92
721.76	1701.86
721.94	1775.59
722.12	1656.81
722.30	1828.84
722.49	1796.07
722.67	1728.49
722.85	1738.73
723.03	1656.81
723.21	1732.58
723.40	1761.25
723.58	1775.59
723.76	1787.88
723.94	1820.64
724.12	1791.97
724.30	1839.08
724.49	1834.98
724.67	1685.48
724.85	1822.69
725.03	1607.66
725.21	1794.02
725.40	1810.40
725.58	1785.83
725.76	1785.83
725.94	1796.07
726.12	1697.77
726.30	1701.86
726.49	1722.34
726.67	1693.67
726.85	1767.40
727.03	1855.46
727.21	2363.36
727.39	3430.35
727.57	4902.84
727.76	5666.73
727.94	6217.63
728.12	6434.72
728.30	5625.77
728.48	4487.10
728.66	3979.20
728.84	3663.82
729.03	3153.87
729.21	2875.35
729.39	2492.38
729.57	2189.28
729.75	1996.77
729.93	1871.84
730.11	1738.73
730.30	1771.49
730.48	1736.68
730.66	1867.75
730.84	1753.06
731.02	1753.06
731.20	1734.63
731.38	1736.68
731.56	1636.33
731.74	1691.62
731.93	1730.53
732.11	1734.63
732.29	1720.29
732.47	1730.53
732.65	1673.19
732.83	1853.41
733.01	1759.21
733.19	1667.05
733.37	1822.69
733.56	1789.92
733.74	1689.57
733.92	1796.07
734.10	1675.24
734.28	1720.29
734.46	1599.46
734.64	1675.24
734.82	1658.85
735.00	1724.39
735.18	1648.61
735.36	1685.48
735.54	1654.76
735.73	1738.73
735.91	1728.49
736.09	1716.20
736.27	1783.78
736.45	1697.77
736.63	1603.56
736.81	1742.82
736.99	1751.01
737.17	1812.45
737.35	1703.91
737.53	1693.67
737.71	1658.85
737.89	1796.07
738.07	1683.43
738.25	1705.96
738.43	1599.46
738.61	1646.57
738.80	1605.61
738.98	1591.27
739.16	1665.00
739.34	1662.95
739.52	1802.21
739.70	1712.10
739.88	1810.40
740.06	1740.77
740.24	1607.66
740.42	1748.97
740.60	1660.90
740.78	1652.71
740.96	1669.09
741.14	1724.39
741.32	1722.34
741.50	1626.09
741.68	1877.99
741.86	1746.92
742.04	1632.23
742.22	1697.77
742.40	1701.86
742.58	1812.45
742.76	1650.66
742.94	1689.57
743.12	1628.14
743.30	1751.01
743.48	1816.55
743.66	1611.75
743.84	1765.35
744.02	1697.77
744.20	1699.81
744.38	1587.18
744.56	1738.73
744.74	1822.69
744.92	1669.09
745.10	1800.16
745.28	1757.16
745.46	1763.30
745.64	1621.99
745.82	1740.77
746.00	1714.15
746.18	1789.92
746.36	1652.71
746.54	1761.25
746.72	1665.00
746.90	1726.44
747.08	1738.73
747.26	1642.47
747.44	1769.44
747.62	1789.92
747.80	1712.10
747.98	1775.59
748.15	1689.57
748.33	1771.49
748.51	1781.73
748.69	1740.77
748.87	1712.10
749.05	1732.58
749.23	1767.40
749.41	1746.92
749.59	1642.47
749.77	1810.40
749.95	1650.66
750.13	1755.11
750.31	1712.10
750.49	1751.01
750.67	1757.16
750.85	1826.79
751.03	1675.24
751.20	1828.84
751.38	1679.33
751.56	1708.01
751.74	1658.85
751.92	1697.77
752.10	1716.20
752.28	1701.86
752.46	1665.00
752.64	1689.57
752.82	1753.06
753.00	1734.63
753.18	1679.33
753.35	1687.53
753.53	1679.33
753.71	1679.33
753.89	1693.67
754.07	1771.49
754.25	1701.86
754.43	1730.53
754.61	1617.90
754.79	1705.96
754.97	1689.57
755.14	1767.40
755.32	1761.25
755.50	1693.67
755.68	1736.68
755.86	1681.38
756.04	1714.15
756.22	1609.70
756.40	1744.87
756.57	1873.89
756.75	1738.73
756.93	1765.35
757.11	1701.86
757.29	1705.96
757.47	1726.44
757.65	1611.75
757.82	1603.56
758.00	1636.33
758.18	1722.34
758.36	1736.68
758.54	1775.59
758.72	1576.94
758.90	1783.78
759.07	1712.10
759.25	1662.95
759.43	1710.05
759.61	1609.70
759.79	2287.58
759.97	1767.40
760.15	1644.52
760.32	1675.24
760.50	1783.78
760.68	1814.50
760.86	1630.18
761.04	1800.16
761.22	1808.36
761.39	1718.25
761.57	1662.95
761.75	1734.63
761.93	1722.34
762.11	1722.34
762.28	1710.05
762.46	1617.90
762.64	1775.59
762.82	1656.81
763.00	1738.73
763.18	1837.03
763.35	1665.00
763.53	1730.53
763.71	1744.87
763.89	1738.73
764.07	1730.53
764.24	1632.23
764.42	1703.91
764.60	1722.34
764.78	1746.92
764.96	1751.01
765.13	1757.16
765.31	1691.62
765.49	1726.44
765.67	1689.57
765.84	1679.33
766.02	1662.95
766.20	1609.70
766.38	1675.24
766.56	1738.73
766.73	1730.53
766.91	1677.29
767.09	1675.24
767.27	1777.64
767.44	1667.05
767.62	1732.58
767.80	1755.11
767.98	1617.90
768.15	1607.66
768.33	1732.58
768.51	1796.07
768.69	1658.85
768.87	1705.96
769.04	1734.63
769.22	1814.50
769.40	1767.40
769.58	1877.99
769.75	1744.87
769.93	1763.30
770.11	1740.77
770.28	1646.57
770.46	1804.26
770.64	1730.53
770.82	1624.04
770.99	1753.06
771.17	1722.34
771.35	1722.34
771.53	1695.72
771.70	1796.07
771.88	1652.71
772.06	1720.29
772.23	1689.57
772.41	1742.82
772.59	1681.38
772.77	1632.23
772.94	1722.34
773.12	1667.05
773.30	1673.19
773.47	1763.30
773.65	1685.48
773.83	1841.12
774.01	1701.86
774.18	1574.89
774.36	1695.72
774.54	1609.70
774.71	1671.14
774.89	1568.74
775.07	1642.47
775.24	1673.19
775.42	1628.14
775.60	1748.97
775.78	1630.18
775.95	1691.62
776.13	1660.90
776.31	1605.61
776.48	1716.20
776.66	1722.34
776.84	1708.01
777.01	1714.15
777.19	1695.72
777.37	1585.13
777.54	1755.11
777.72	1746.92
777.90	1732.58
778.07	1636.33
778.25	1898.47
778.43	1667.05
778.60	1665.00
778.78	1757.16
778.96	1804.26
779.13	1656.81
779.31	1720.29
779.49	1746.92
779.66	1710.05
779.84	1677.29
780.01	1748.97
780.19	1683.43
780.37	1720.29
780.54	1763.30
780.72	1619.94
780.90	1648.61
781.07	1658.85
781.25	1650.66
781.43	1740.77
781.60	1660.90
781.78	1771.49
781.95	1746.92
782.13	1679.33
782.31	1746.92
782.48	1683.43
782.66	1708.01
782.83	1814.50
783.01	1705.96
783.19	1794.02
783.36	1665.00
783.54	1705.96
783.72	1730.53
783.89	1681.38
784.07	1730.53
784.24	1722.34
784.42	1791.97
784.60	1683.43
784.77	1728.49
784.95	1683.43
785.12	1681.38
785.30	1701.86
785.47	1679.33
785.65	1640.42
785.83	1679.33
786.00	1710.05
786.18	1732.58
786.35	1708.01
786.53	1669.09
786.71	1814.50
786.88	1740.77
787.06	1705.96
787.23	1730.53
787.41	1650.66
787.58	1785.83
787.76	1693.67
787.94	1765.35
788.11	1814.50
788.29	1675.24
788.46	1599.46
788.64	1611.75
788.81	1675.24
788.99	1669.09
789.16	1732.58
789.34	1734.63
789.52	1660.90
789.69	1691.62
789.87	1587.18
790.04	1609.70
790.22	1751.01
790.39	1738.73
790.57	1611.75
790.74	1597.42
790.92	1773.54
791.09	1621.99
791.27	1718.25
791.44	1740.77
791.62	1632.23
791.79	1724.39
791.97	1691.62
792.15	1877.99
792.32	1726.44
792.50	1828.84
792.67	1683.43
792.85	1802.21
793.02	1775.59
793.20	1624.04
793.37	1626.09
793.55	1710.05
793.72	1673.19
793.90	1728.49
794.07	1613.80
794.25	1732.58
794.42	1767.40
794.60	1712.10
794.77	1671.14
794.95	1695.72
795.12	1787.88
795.30	1718.25
795.47	1609.70
795.65	1830.88
795.82	1710.05
796.00	1673.19
796.17	1683.43
796.34	1722.34
796.52	1759.21
796.69	1837.03
796.87	1693.67
797.04	1685.48
797.22	1718.25
797.39	1724.39
797.57	1746.92
797.74	1712.10
797.92	1824.74
798.09	1658.85
798.27	1730.53
798.44	1691.62
798.62	1683.43
798.79	1724.39
798.96	1781.73
799.14	1802.21
799.31	1900.52
799.49	1699.81
799.66	1720.29
799.84	1726.44
800.01	1667.05
800.19	1728.49
800.36	1624.04
800.53	1734.63
800.71	1820.64
800.88	1871.84
801.06	1755.11
801.23	1683.43
801.41	1701.86
801.58	1732.58
801.75	1599.46
801.93	1683.43
802.10	1748.97
802.28	1771.49
802.45	1638.38
802.63	1818.60
802.80	1802.21
802.97	1644.52
803.15	1673.19
803.32	1720.29
803.50	1603.56
803.67	1675.24
803.84	1665.00
804.02	1769.44
804.19	1781.73
804.37	1667.05
804.54	1697.77
804.71	1808.36
804.89	1669.09
805.06	1685.48
805.24	1634.28
805.41	1591.27
805.58	1705.96
805.76	1828.84
805.93	1720.29
806.10	1771.49
806.28	1781.73
806.45	1630.18
806.63	1691.62
806.80	1759.21
806.97	1710.05
807.15	1687.53
807.32	1660.90
807.49	1710.05
807.67	1574.89
807.84	1806.31
808.01	1617.90
808.19	1834.98
808.36	1839.08
808.54	1669.09
808.71	1669.09
808.88	1748.97
809.06	1773.54
809.23	1816.55
809.40	1628.14
809.58	1802.21
809.75	1748.97
809.92	1718.25
810.10	1837.03
810.27	1626.09
810.44	1744.87
810.62	1755.11
810.79	1630.18
810.96	1673.19
811.14	1687.53
811.31	1765.35
811.48	1810.40
811.66	1665.00
811.83	1728.49
812.00	1705.96
812.18	1773.54
812.35	1781.73
812.52	1691.62
812.69	1691.62
812.87	1695.72
813.04	1634.28
813.21	1712.10
813.39	1652.71
813.56	1685.48
813.73	1769.44
813.91	1677.29
814.08	1781.73
814.25	1736.68
814.42	1595.37
814.60	1675.24
814.77	1701.86
814.94	1728.49
815.12	1755.11
815.29	1724.39
815.46	1648.61
815.63	1755.11
815.81	1693.67
815.98	1593.32
816.15	1613.80
816.33	1708.01
816.50	1755.11
816.67	1648.61
816.84	1654.76
817.02	1662.95
817.19	1681.38
817.36	1740.77
817.53	1759.21
817.71	1650.66
817.88	1755.11
818.05	1765.35
818.22	1650.66
818.40	1841.12
818.57	1759.21
818.74	1705.96
818.91	1654.76
819.09	1734.63
819.26	1789.92
819.43	1665.00
819.60	1712.10
819.78	1679.33
819.95	1810.40
820.12	1691.62
820.29	1810.40
820.47	1757.16
820.64	1671.14
820.81	1599.46
820.98	1658.85
821.15	1679.33
821.33	1804.26
821.50	1595.37
821.67	1832.93
821.84	1683.43
822.02	1802.21
822.19	1728.49
822.36	1701.86
822.53	1675.24
822.70	1654.76
822.88	1601.51
823.05	1787.88
823.22	1794.02
823.39	1732.58
823.56	1634.28
823.74	1796.07
823.91	1712.10
824.08	1630.18
824.25	1552.36
824.42	1818.60
824.60	1597.42
824.77	1742.82
824.94	1636.33
825.11	1660.90
825.28	1644.52
825.45	1695.72
825.63	1742.82
825.80	1644.52
825.97	1693.67
826.14	1710.05
826.31	1650.66
826.48	1665.00
826.66	1703.91
826.83	1648.61
827.00	1642.47
827.17	1599.46
827.34	1701.86
827.51	1746.92
827.69	1693.67
827.86	1613.80
828.03	1730.53
828.20	1691.62
828.37	1697.77
828.54	1720.29
828.71	1650.66
828.89	1728.49
829.06	1738.73
829.23	1708.01
829.40	1673.19
829.57	1671.14
829.74	1705.96
829.91	1638.38
830.09	1648.61
830.26	1773.54
830.43	1708.01
830.60	1753.06
830.77	1697.77
830.94	1734.63
831.11	1714.15
831.28	1648.61
831.46	1724.39
831.63	1699.81
831.80	1718.25
831.97	1673.19
832.14	1691.62
832.31	1728.49
832.48	1665.00
832.65	1767.40
832.82	1689.57
832.99	1777.64
833.17	1728.49
833.34	1773.54
833.51	1757.16
833.68	1587.18
833.85	1791.97
834.02	1703.91
834.19	1650.66
834.36	1667.05
834.53	1730.53
834.70	1738.73
834.87	1808.36
835.04	1667.05
835.22	1656.81
835.39	1677.29
835.56	1654.76
835.73	1730.53
835.90	1804.26
836.07	1632.23
836.24	1759.21
836.41	1595.37
836.58	1603.56
836.75	1828.84
836.92	1724.39
837.09	1710.05
837.26	1726.44
837.43	1771.49
837.60	1687.53
837.77	1628.14
837.94	1753.06
838.12	1779.68
838.29	1714.15
838.46	1693.67
838.63	1634.28
838.80	1832.93
838.97	1712.10
839.14	1777.64
839.31	1689.57
839.48	1693.67
839.65	1662.95
839.82	1824.74
839.99	1687.53
840.16	1654.76
840.33	1689.57
840.50	1660.90
840.67	1607.66
840.84	1628.14
841.01	1742.82
841.18	1583.08
841.35	1660.90
841.52	1695.72
841.69	1824.74
841.86	1781.73
842.03	1724.39
842.20	1738.73
842.37	1681.38
842.54	1648.61
842.71	1710.05
842.88	1660.90
843.05	1761.25
843.22	1703.91
843.39	1732.58
843.56	1658.85
843.73	1759.21
843.90	1734.63
844.07	1771.49
844.24	1734.63
844.41	1730.53
844.58	1718.25
844.75	1636.33
844.92	1722.34
845.09	1687.53
845.26	1640.42
845.43	1763.30
845.60	1718.25
845.77	1767.40
845.94	1699.81
846.10	1734.63
846.27	1593.32
846.44	1740.77
846.61	1636.33
846.78	1679.33
846.95	1738.73
847.12	1730.53
847.29	1624.04
847.46	1685.48
847.63	1773.54
847.80	1630.18
847.97	1746.92
848.14	1695.72
848.31	1689.57
848.48	1656.81
848.65	1777.64
848.82	1667.05
848.98	1822.69
849.15	1660.90
849.32	1812.45
849.49	1812.45
849.66	1834.98
849.83	1738.73
850.00	1572.84
850.17	1718.25
850.34	1703.91
850.51	1687.53
850.68	1644.52
850.85	1828.84
851.01	1728.49
851.18	1728.49
851.35	1624.04
851.52	1773.54
851.69	1783.78
851.86	1619.94
852.03	1673.19
852.20	1779.68
852.37	1671.14
852.53	1525.74
852.70	1679.33
852.87	1685.48
853.04	1753.06
853.21	1755.11
853.38	1742.82
853.55	1632.23
853.72	1806.31
853.89	1714.15
854.05	1662.95
854.22	1712.10
854.39	1671.14
854.56	1708.01
854.73	1728.49
854.90	1675.24
855.07	1681.38
855.23	1718.25
855.40	1669.09
855.57	1722.34
855.74	1548.26
855.91	1920.99
856.08	1628.14
856.25	1636.33
856.41	1677.29
856.58	1763.30
856.75	1654.76
856.92	1601.51
857.09	1726.44
857.26	1683.43
857.42	1710.05
857.59	1783.78
857.76	1746.92
857.93	1693.67
858.10	1789.92
858.27	1613.80
858.43	1710.05
858.60	1699.81
858.77	1583.08
858.94	1724.39
859.11	1771.49
859.27	1687.53
859.44	1691.62
859.61	1843.17
859.78	1724.39
859.95	1740.77
860.12	1683.43
860.28	1818.60
860.45	1826.79
860.62	1701.86
860.79	1712.10
860.95	1736.68
861.12	1648.61
861.29	1757.16
861.46	1718.25
861.63	1681.38
861.79	1746.92
861.96	1642.47
862.13	1589.22
862.30	1728.49
862.47	1626.09
862.63	1656.81
862.80	1746.92
862.97	1744.87
863.14	1689.57
863.30	1767.40
863.47	1652.71
863.64	1800.16
863.81	1787.88
863.97	1652.71
864.14	1734.63
864.31	1755.11
864.48	1730.53
864.65	1662.95
864.81	1800.16
864.98	1665.00
865.15	1767.40
865.32	1779.68
865.48	1777.64
865.65	1724.39
865.82	1681.38
865.98	1755.11
866.15	1777.64
866.32	1665.00
866.49	1708.01
866.65	1789.92
866.82	1640.42
866.99	1738.73
867.16	1683.43
867.32	1716.20
867.49	1671.14
867.66	1767.40
867.83	1665.00
867.99	1570.79
868.16	1746.92
868.33	1607.66
868.49	1603.56
868.66	1644.52
868.83	1740.77
868.99	1705.96
869.16	1730.53
869.33	1785.83
869.50	1769.44
869.66	1689.57
869.83	1689.57
870.00	1648.61
870.16	1783.78
870.33	1724.39
870.50	1765.35
870.66	1695.72
870.83	1771.49
871.00	1691.62
871.17	1673.19
871.33	1693.67
871.50	1595.37
871.67	1677.29
871.83	1626.09
872.00	1734.63
872.17	1677.29
872.33	1791.97
872.50	1734.63
872.67	1669.09
872.83	1603.56
873.00	1763.30
873.17	1732.58
873.33	1691.62
873.50	1765.35
873.67	1640.42
873.83	1660.90
874.00	1736.68
874.16	1714.15
874.33	1771.49
874.50	1632.23
874.66	1695.72
874.83	1718.25
875.00	1712.10
875.16	1699.81
875.33	1791.97
875.50	1562.60
875.66	1658.85
875.83	1703.91
875.99	1726.44
876.16	1652.71
876.33	1648.61
876.49	1638.38
876.66	1673.19
876.83	1714.15
876.99	1568.74
877.16	1681.38
877.32	1722.34
877.49	1683.43
877.66	1714.15
877.82	1751.01
877.99	1679.33
878.15	1740.77
878.32	1712.10
878.49	1667.05
878.65	1621.99
878.82	1824.74
878.98	1640.42
879.15	1869.80
879.32	1816.55
879.48	1683.43
879.65	1667.05
879.81	1634.28
879.98	1712.10
880.15	1724.39
880.31	1746.92
880.48	1611.75
880.64	1708.01
880.81	1775.59
880.97	1818.60
881.14	1773.54
881.31	1736.68
881.47	1845.22
881.64	1728.49
881.80	1554.41
881.97	1800.16
882.13	1787.88
882.30	1681.38
882.47	1624.04
882.63	1714.15
882.80	1683.43
882.96	1710.05
883.13	1755.11
883.29	1730.53
883.46	1679.33
883.62	1785.83
883.79	1740.77
883.95	1734.63
884.12	1683.43
884.29	1744.87
884.45	1777.64
884.62	1740.77
884.78	1619.94
884.95	1748.97
885.11	1689.57
885.28	1697.77
885.44	1740.77
885.61	1763.30
885.77	1765.35
885.94	1716.20
886.10	1626.09
886.27	1712.10
886.43	1759.21
886.60	1775.59
886.76	1703.91
886.93	1583.08
887.09	1710.05
887.26	1675.24
887.42	1771.49
887.59	1808.36
887.75	1798.12
887.92	1753.06
888.08	1718.25
888.25	1767.40
888.41	1812.45
888.58	1679.33
888.74	1628.14
888.91	1679.33
>>>>>End Processed Spectral Data<<<<<
