SpectraSuite Data File
++++++++++++++++++++++++++++++++++++
Date: Wed May 04 18:43:57 CEST 2016
User: root
Dark Spectrum Present: No
Reference Spectrum Present: No
Number of Sampled Component Spectra: 1
Spectrometers: USB4C02835
Integration Time (usec): 100000 (USB4C02835)
Spectra Averaged: 1 (USB4C02835)
Boxcar Smoothing: 0 (USB4C02835)
Correct for Electrical Dark: No (USB4C02835)
Strobe/Lamp Enabled: No (USB4C02835)
Correct for Detector Non-linearity: No (USB4C02835)
Correct for Stray Light: No (USB4C02835)
Number of Pixels in Processed Spectrum: 3648
>>>>>Begin Processed Spectral Data<<<<<
177.47	1474.54
177.69	1474.54
177.91	1474.54
178.13	1462.25
178.36	1474.54
178.58	1605.61
178.80	1730.53
179.02	1615.85
179.24	1638.38
179.46	1746.92
179.68	1722.34
179.90	1691.62
180.13	1755.11
180.35	1693.67
180.57	1650.66
180.79	1728.49
181.01	1714.15
181.23	1773.54
181.45	1781.73
181.67	1755.11
181.90	1748.97
182.12	1644.52
182.34	1652.71
182.56	1695.72
182.78	1669.09
183.00	1687.53
183.22	1685.48
183.44	1681.38
183.66	1851.36
183.89	1837.03
184.11	1701.86
184.33	1759.21
184.55	1757.16
184.77	1806.31
184.99	1767.40
185.21	1705.96
185.43	1816.55
185.65	1656.81
185.87	1718.25
186.10	1863.65
186.32	1845.22
186.54	1746.92
186.76	1757.16
186.98	1820.64
187.20	1738.73
187.42	1617.90
187.64	1669.09
187.86	1744.87
188.08	1763.30
188.30	1671.14
188.52	1757.16
188.75	1769.44
188.97	1839.08
189.19	1667.05
189.41	1730.53
189.63	1849.32
189.85	1697.77
190.07	1654.76
190.29	1685.48
190.51	1689.57
190.73	1642.47
190.95	1826.79
191.17	1751.01
191.39	1654.76
191.61	1703.91
191.84	1708.01
192.06	1665.00
192.28	1593.32
192.50	1929.19
192.72	1734.63
192.94	1712.10
193.16	1765.35
193.38	1779.68
193.60	1589.22
193.82	1689.57
194.04	1775.59
194.26	1757.16
194.48	1701.86
194.70	1697.77
194.92	1734.63
195.14	1730.53
195.36	1648.61
195.58	1624.04
195.80	1683.43
196.02	1665.00
196.24	1712.10
196.46	1718.25
196.69	1665.00
196.91	1861.60
197.13	1628.14
197.35	1712.10
197.57	1775.59
197.79	1822.69
198.01	1734.63
198.23	1771.49
198.45	1726.44
198.67	1607.66
198.89	1728.49
199.11	1730.53
199.33	1640.42
199.55	1615.85
199.77	1744.87
199.99	1759.21
200.21	1681.38
200.43	1701.86
200.65	1632.23
200.87	1593.32
201.09	1648.61
201.31	1671.14
201.53	1765.35
201.75	1703.91
201.97	1730.53
202.19	1689.57
202.41	1767.40
202.63	1794.02
202.85	1687.53
203.07	1748.97
203.29	1736.68
203.51	1613.80
203.73	1675.24
203.95	1818.60
204.17	1734.63
204.39	1673.19
204.61	1665.00
204.83	1701.86
205.05	1740.77
205.27	1742.82
205.49	1863.65
205.71	1693.67
205.93	1574.89
206.15	1621.99
206.37	1650.66
206.59	1687.53
206.81	1697.77
207.03	1665.00
207.25	1634.28
207.47	1701.86
207.69	1734.63
207.91	1830.88
208.13	1808.36
208.34	1662.95
208.56	1632.23
208.78	1724.39
209.00	1652.71
209.22	1775.59
209.44	1673.19
209.66	1734.63
209.88	1724.39
210.10	1636.33
210.32	1679.33
210.54	1779.68
210.76	1685.48
210.98	1724.39
211.20	1570.79
211.42	1757.16
211.64	1751.01
211.86	1652.71
212.08	1732.58
212.30	1726.44
212.52	1753.06
212.74	1753.06
212.96	1720.29
213.17	1777.64
213.39	1705.96
213.61	1767.40
213.83	1705.96
214.05	1669.09
214.27	1669.09
214.49	1675.24
214.71	1716.20
214.93	1779.68
215.15	1665.00
215.37	1777.64
215.59	1607.66
215.81	1783.78
216.03	1755.11
216.24	1736.68
216.46	1757.16
216.68	1708.01
216.90	1761.25
217.12	1732.58
217.34	1728.49
217.56	1783.78
217.78	1834.98
218.00	1705.96
218.22	1722.34
218.44	1677.29
218.66	1673.19
218.87	1787.88
219.09	1693.67
219.31	1742.82
219.53	1775.59
219.75	1742.82
219.97	1726.44
220.19	1675.24
220.41	1748.97
220.63	1791.97
220.85	1751.01
221.06	1722.34
221.28	1740.77
221.50	1734.63
221.72	1714.15
221.94	1742.82
222.16	1714.15
222.38	1796.07
222.60	1732.58
222.82	1740.77
223.03	1763.30
223.25	1695.72
223.47	1675.24
223.69	1773.54
223.91	1701.86
224.13	1746.92
224.35	1685.48
224.57	1703.91
224.78	1732.58
225.00	1673.19
225.22	1744.87
225.44	1642.47
225.66	1720.29
225.88	1734.63
226.10	1843.17
226.32	1767.40
226.53	1746.92
226.75	1665.00
226.97	1665.00
227.19	1714.15
227.41	1634.28
227.63	1703.91
227.85	1619.94
228.06	1687.53
228.28	1667.05
228.50	1738.73
228.72	1646.57
228.94	1673.19
229.16	1667.05
229.37	1568.74
229.59	1652.71
229.81	1753.06
230.03	1638.38
230.25	1673.19
230.47	1650.66
230.69	1671.14
230.90	1802.21
231.12	1673.19
231.34	1728.49
231.56	1699.81
231.78	1607.66
232.00	1677.29
232.21	1705.96
232.43	1646.57
232.65	1597.42
232.87	1693.67
233.09	1636.33
233.30	1671.14
233.52	1742.82
233.74	1693.67
233.96	1726.44
234.18	1738.73
234.40	1732.58
234.61	1880.04
234.83	1646.57
235.05	1685.48
235.27	1798.12
235.49	1767.40
235.70	1654.76
235.92	1773.54
236.14	1746.92
236.36	1877.99
236.58	1755.11
236.79	1751.01
237.01	1693.67
237.23	1712.10
237.45	1800.16
237.67	1703.91
237.88	1708.01
238.10	1716.20
238.32	1624.04
238.54	1697.77
238.76	1695.72
238.97	1656.81
239.19	1675.24
239.41	1744.87
239.63	1742.82
239.85	1679.33
240.06	1685.48
240.28	1652.71
240.50	1759.21
240.72	1726.44
240.93	1734.63
241.15	1783.78
241.37	1671.14
241.59	1845.22
241.81	1742.82
242.02	1691.62
242.24	1697.77
242.46	1751.01
242.68	1699.81
242.89	1630.18
243.11	1791.97
243.33	1703.91
243.55	1740.77
243.76	1744.87
243.98	1779.68
244.20	1744.87
244.42	1705.96
244.64	1716.20
244.85	1693.67
245.07	1699.81
245.29	1796.07
245.51	1656.81
245.72	1767.40
245.94	1757.16
246.16	1714.15
246.38	1763.30
246.59	1693.67
246.81	1677.29
247.03	1693.67
247.24	1621.99
247.46	1554.41
247.68	1738.73
247.90	1691.62
248.11	1669.09
248.33	1761.25
248.55	1677.29
248.77	1656.81
248.98	1738.73
249.20	1744.87
249.42	1726.44
249.64	1779.68
249.85	1800.16
250.07	1681.38
250.29	1720.29
250.50	1693.67
250.72	1660.90
250.94	1738.73
251.16	1812.45
251.37	1687.53
251.59	1716.20
251.81	1714.15
252.02	1722.34
252.24	1648.61
252.46	1662.95
252.68	1640.42
252.89	1689.57
253.11	1550.31
253.33	1773.54
253.54	1890.28
253.76	1587.18
253.98	1658.85
254.20	1654.76
254.41	1595.37
254.63	1665.00
254.85	1638.38
255.06	1701.86
255.28	1671.14
255.50	1669.09
255.71	1642.47
255.93	1572.84
256.15	1705.96
256.36	1769.44
256.58	1648.61
256.80	1746.92
257.02	1744.87
257.23	1679.33
257.45	1660.90
257.67	1744.87
257.88	1646.57
258.10	1771.49
258.32	1724.39
258.53	1730.53
258.75	1791.97
258.97	1628.14
259.18	1703.91
259.40	1718.25
259.62	1763.30
259.83	1761.25
260.05	1775.59
260.27	2068.45
260.48	1804.26
260.70	1681.38
260.92	1710.05
261.13	1751.01
261.35	1701.86
261.57	1718.25
261.78	1634.28
262.00	1628.14
262.22	1744.87
262.43	1593.32
262.65	1656.81
262.86	1679.33
263.08	1730.53
263.30	1722.34
263.51	1648.61
263.73	1718.25
263.95	1722.34
264.16	1632.23
264.38	1720.29
264.60	1665.00
264.81	1718.25
265.03	1740.77
265.25	1714.15
265.46	1695.72
265.68	1767.40
265.89	1751.01
266.11	1570.79
266.33	1730.53
266.54	1789.92
266.76	1681.38
266.98	1738.73
267.19	1771.49
267.41	1759.21
267.62	1695.72
267.84	1644.52
268.06	1720.29
268.27	1763.30
268.49	1796.07
268.70	1798.12
268.92	1689.57
269.14	1642.47
269.35	1583.08
269.57	1710.05
269.79	1677.29
270.00	1628.14
270.22	1863.65
270.43	1714.15
270.65	1593.32
270.87	1712.10
271.08	1753.06
271.30	1744.87
271.51	1746.92
271.73	1736.68
271.95	1736.68
272.16	1744.87
272.38	1722.34
272.59	1650.66
272.81	1677.29
273.02	1718.25
273.24	1712.10
273.46	1847.27
273.67	1607.66
273.89	1603.56
274.10	1665.00
274.32	1767.40
274.54	1755.11
274.75	1726.44
274.97	1720.29
275.18	1716.20
275.40	1781.73
275.61	1771.49
275.83	1669.09
276.05	1679.33
276.26	1761.25
276.48	1714.15
276.69	1611.75
276.91	1718.25
277.12	1773.54
277.34	1841.12
277.55	1746.92
277.77	1667.05
277.99	1779.68
278.20	1683.43
278.42	1636.33
278.63	1568.74
278.85	1607.66
279.06	1542.12
279.28	1724.39
279.49	1767.40
279.71	1695.72
279.93	1621.99
280.14	1701.86
280.36	1628.14
280.57	1650.66
280.79	1742.82
281.00	1654.76
281.22	1748.97
281.43	1759.21
281.65	1591.27
281.86	1669.09
282.08	1742.82
282.29	1732.58
282.51	1660.90
282.73	1613.80
282.94	1583.08
283.16	1726.44
283.37	1783.78
283.59	1705.96
283.80	1687.53
284.02	1730.53
284.23	1730.53
284.45	1699.81
284.66	1689.57
284.88	1665.00
285.09	1765.35
285.31	1730.53
285.52	1705.96
285.74	1583.08
285.95	1787.88
286.17	1755.11
286.38	1748.97
286.60	1720.29
286.81	1710.05
287.03	1718.25
287.24	1621.99
287.46	1689.57
287.67	1736.68
287.89	1796.07
288.10	1669.09
288.32	1693.67
288.53	1753.06
288.75	1724.39
288.96	1716.20
289.18	1722.34
289.39	1646.57
289.61	1738.73
289.82	1800.16
290.04	1861.60
290.25	1671.14
290.47	1660.90
290.68	1720.29
290.90	1714.15
291.11	1597.42
291.33	1740.77
291.54	1619.94
291.76	1671.14
291.97	1705.96
292.18	1796.07
292.40	1599.46
292.61	1648.61
292.83	1800.16
293.04	1738.73
293.26	1669.09
293.47	1722.34
293.69	1679.33
293.90	1699.81
294.12	1734.63
294.33	1757.16
294.55	1705.96
294.76	1712.10
294.97	1800.16
295.19	1800.16
295.40	1646.57
295.62	1730.53
295.83	1767.40
296.05	1740.77
296.26	1771.49
296.48	1683.43
296.69	1691.62
296.90	1734.63
297.12	1783.78
297.33	1726.44
297.55	1681.38
297.76	1732.58
297.98	1751.01
298.19	1779.68
298.41	1652.71
298.62	1691.62
298.83	1802.21
299.05	1718.25
299.26	1693.67
299.48	1607.66
299.69	1728.49
299.90	1748.97
300.12	1634.28
300.33	1697.77
300.55	1726.44
300.76	1716.20
300.98	1632.23
301.19	1724.39
301.40	1615.85
301.62	1734.63
301.83	1789.92
302.05	1669.09
302.26	1654.76
302.47	1796.07
302.69	1615.85
302.90	1765.35
303.12	1578.98
303.33	1679.33
303.54	1925.09
303.76	1673.19
303.97	1779.68
304.19	1785.83
304.40	1675.24
304.61	1779.68
304.83	1806.31
305.04	1828.84
305.26	1769.44
305.47	1720.29
305.68	1693.67
305.90	1646.57
306.11	1728.49
306.33	1671.14
306.54	1619.94
306.75	1628.14
306.97	1634.28
307.18	1626.09
307.39	1646.57
307.61	1720.29
307.82	1705.96
308.04	1777.64
308.25	1730.53
308.46	1765.35
308.68	1679.33
308.89	1751.01
309.10	1746.92
309.32	1779.68
309.53	1726.44
309.74	1796.07
309.96	1685.48
310.17	1851.36
310.39	1660.90
310.60	1724.39
310.81	1734.63
311.03	1648.61
311.24	1783.78
311.45	1734.63
311.67	1820.64
311.88	1724.39
312.09	1738.73
312.31	1665.00
312.52	1714.15
312.73	1732.58
312.95	1599.46
313.16	1646.57
313.37	1779.68
313.59	1804.26
313.80	1732.58
314.01	1728.49
314.23	1705.96
314.44	1705.96
314.65	1669.09
314.87	1673.19
315.08	1722.34
315.29	1677.29
315.51	1619.94
315.72	1662.95
315.93	1742.82
316.15	1734.63
316.36	1656.81
316.57	1759.21
316.79	1779.68
317.00	1705.96
317.21	1730.53
317.43	1642.47
317.64	1746.92
317.85	1685.48
318.07	1761.25
318.28	1695.72
318.49	1937.38
318.70	1978.34
318.92	1906.66
319.13	1888.23
319.34	1912.80
319.56	1794.02
319.77	1892.32
319.98	1800.16
320.20	1830.88
320.41	1761.25
320.62	1751.01
320.83	1718.25
321.05	1843.17
321.26	1697.77
321.47	1753.06
321.69	1748.97
321.90	1615.85
322.11	1609.70
322.32	1744.87
322.54	1816.55
322.75	1665.00
322.96	1877.99
323.18	1591.27
323.39	1601.51
323.60	1667.05
323.81	1857.51
324.03	1691.62
324.24	1748.97
324.45	1701.86
324.66	1599.46
324.88	1853.41
325.09	1800.16
325.30	1695.72
325.52	1769.44
325.73	1716.20
325.94	1656.81
326.15	1636.33
326.37	1642.47
326.58	1712.10
326.79	1777.64
327.00	1689.57
327.22	1658.85
327.43	1724.39
327.64	1726.44
327.85	1660.90
328.07	1724.39
328.28	1789.92
328.49	1628.14
328.70	1681.38
328.92	1724.39
329.13	1714.15
329.34	1738.73
329.55	1751.01
329.76	1730.53
329.98	1701.86
330.19	1697.77
330.40	1677.29
330.61	1779.68
330.83	1769.44
331.04	1660.90
331.25	1685.48
331.46	1652.71
331.68	1687.53
331.89	1734.63
332.10	1714.15
332.31	1646.57
332.52	1736.68
332.74	1814.50
332.95	1642.47
333.16	1691.62
333.37	1837.03
333.58	1718.25
333.80	1771.49
334.01	1578.98
334.22	1677.29
334.43	1650.66
334.64	1705.96
334.86	1638.38
335.07	1656.81
335.28	1789.92
335.49	1601.51
335.70	1730.53
335.92	1789.92
336.13	1798.12
336.34	1722.34
336.55	1732.58
336.76	1656.81
336.98	1673.19
337.19	1665.00
337.40	1859.56
337.61	1804.26
337.82	1693.67
338.04	1808.36
338.25	1621.99
338.46	1720.29
338.67	1683.43
338.88	1673.19
339.09	1599.46
339.31	1687.53
339.52	1697.77
339.73	1685.48
339.94	1712.10
340.15	1748.97
340.36	1691.62
340.58	1738.73
340.79	1710.05
341.00	1730.53
341.21	1685.48
341.42	1869.80
341.63	1705.96
341.85	1728.49
342.06	1755.11
342.27	1658.85
342.48	1669.09
342.69	1677.29
342.90	1757.16
343.12	1785.83
343.33	1626.09
343.54	1744.87
343.75	1771.49
343.96	1624.04
344.17	1716.20
344.38	1759.21
344.60	1699.81
344.81	1665.00
345.02	1730.53
345.23	1783.78
345.44	1931.23
345.65	1705.96
345.86	1726.44
346.07	1724.39
346.29	1626.09
346.50	1755.11
346.71	1708.01
346.92	1736.68
347.13	1865.70
347.34	1689.57
347.55	1617.90
347.76	1744.87
347.98	1562.60
348.19	1703.91
348.40	1785.83
348.61	1695.72
348.82	1851.36
349.03	1785.83
349.24	1724.39
349.45	1785.83
349.66	1648.61
349.88	1644.52
350.09	1703.91
350.30	1781.73
350.51	1816.55
350.72	1718.25
350.93	1673.19
351.14	1675.24
351.35	1757.16
351.56	1708.01
351.77	1744.87
351.99	1785.83
352.20	1779.68
352.41	1761.25
352.62	1617.90
352.83	1673.19
353.04	1691.62
353.25	1642.47
353.46	1761.25
353.67	1759.21
353.88	1597.42
354.09	1712.10
354.30	1665.00
354.52	1814.50
354.73	1716.20
354.94	1640.42
355.15	1710.05
355.36	1873.89
355.57	1705.96
355.78	1755.11
355.99	1699.81
356.20	1738.73
356.41	1765.35
356.62	1697.77
356.83	1734.63
357.04	1789.92
357.25	1644.52
357.46	1773.54
357.68	1669.09
357.89	1697.77
358.10	1660.90
358.31	1679.33
358.52	1734.63
358.73	1640.42
358.94	1615.85
359.15	1730.53
359.36	1705.96
359.57	1722.34
359.78	1710.05
359.99	1804.26
360.20	1648.61
360.41	1765.35
360.62	1740.77
360.83	1667.05
361.04	1632.23
361.25	1718.25
361.46	1783.78
361.67	1769.44
361.88	1759.21
362.09	1724.39
362.30	1738.73
362.51	1642.47
362.72	1716.20
362.93	1732.58
363.14	1710.05
363.35	1734.63
363.56	1677.29
363.78	1748.97
363.99	1722.34
364.20	1683.43
364.41	1738.73
364.62	1775.59
364.83	1699.81
365.04	1730.53
365.25	1769.44
365.46	1859.56
365.67	1660.90
365.88	1667.05
366.09	1669.09
366.30	1667.05
366.51	1714.15
366.72	1626.09
366.93	1685.48
367.14	1685.48
367.35	1771.49
367.56	1691.62
367.77	1847.27
367.98	1654.76
368.18	1748.97
368.39	1791.97
368.60	1671.14
368.81	1755.11
369.02	1662.95
369.23	1656.81
369.44	1660.90
369.65	1673.19
369.86	1765.35
370.07	1789.92
370.28	1601.51
370.49	1736.68
370.70	1785.83
370.91	1669.09
371.12	1671.14
371.33	1699.81
371.54	1701.86
371.75	1736.68
371.96	1613.80
372.17	1601.51
372.38	1787.88
372.59	1847.27
372.80	1632.23
373.01	1695.72
373.22	1716.20
373.43	1722.34
373.64	1683.43
373.85	1748.97
374.06	1765.35
374.26	1724.39
374.47	1746.92
374.68	1812.45
374.89	1710.05
375.10	1685.48
375.31	1730.53
375.52	1683.43
375.73	1736.68
375.94	1652.71
376.15	1773.54
376.36	1746.92
376.57	1656.81
376.78	1722.34
376.99	1695.72
377.20	1804.26
377.40	1652.71
377.61	1783.78
377.82	1677.29
378.03	1814.50
378.24	1763.30
378.45	1736.68
378.66	1710.05
378.87	1656.81
379.08	1673.19
379.29	1636.33
379.50	1740.77
379.71	1679.33
379.91	1779.68
380.12	1708.01
380.33	1685.48
380.54	1726.44
380.75	1726.44
380.96	1683.43
381.17	1802.21
381.38	1738.73
381.59	1656.81
381.80	1695.72
382.00	1863.65
382.21	1767.40
382.42	1951.71
382.63	1847.27
382.84	1787.88
383.05	1779.68
383.26	1892.32
383.47	1728.49
383.68	1746.92
383.88	1763.30
384.09	1837.03
384.30	1822.69
384.51	1652.71
384.72	1656.81
384.93	1751.01
385.14	1716.20
385.35	1804.26
385.55	1693.67
385.76	1765.35
385.97	1720.29
386.18	1540.07
386.39	1708.01
386.60	1652.71
386.81	1808.36
387.02	1660.90
387.22	1767.40
387.43	1798.12
387.64	1853.41
387.85	1869.80
388.06	2269.15
388.27	4763.58
388.48	9209.72
388.68	11747.15
388.89	13621.04
389.10	14286.63
389.31	11843.40
389.52	9844.59
389.73	8685.44
389.93	7927.69
390.14	7258.00
390.35	6537.12
390.56	6064.04
390.77	5015.48
390.98	3889.09
391.18	2934.74
391.39	2398.17
391.60	2007.01
391.81	1931.23
392.02	1736.68
392.23	1880.04
392.43	1689.57
392.64	1832.93
392.85	1726.44
393.06	1816.55
393.27	1687.53
393.47	1691.62
393.68	1730.53
393.89	1738.73
394.10	1773.54
394.31	1609.70
394.52	1708.01
394.72	1712.10
394.93	1757.16
395.14	1667.05
395.35	1710.05
395.56	1640.42
395.76	1808.36
395.97	1808.36
396.18	1892.32
396.39	1959.91
396.60	2144.22
396.80	1886.18
397.01	1880.04
397.22	1853.41
397.43	1791.97
397.64	1794.02
397.84	1830.88
398.05	1935.33
398.26	1714.15
398.47	1779.68
398.67	1865.70
398.88	1703.91
399.09	1775.59
399.30	1665.00
399.51	1765.35
399.71	1665.00
399.92	1689.57
400.13	1748.97
400.34	1732.58
400.54	1708.01
400.75	1816.55
400.96	1730.53
401.17	1798.12
401.37	1703.91
401.58	1718.25
401.79	1748.97
402.00	1871.84
402.21	2138.08
402.41	2099.17
402.62	2136.03
402.83	2236.38
403.04	2160.61
403.24	2052.06
403.45	1832.93
403.66	2029.54
403.87	1980.39
404.07	1927.14
404.28	1914.85
404.49	1970.15
404.70	1880.04
404.90	1894.37
405.11	1751.01
405.32	1826.79
405.52	1669.09
405.73	1628.14
405.94	1703.91
406.15	1736.68
406.35	1736.68
406.56	1759.21
406.77	1759.21
406.98	1708.01
407.18	1642.47
407.39	1781.73
407.60	1677.29
407.80	1697.77
408.01	1679.33
408.22	1775.59
408.43	1699.81
408.63	1800.16
408.84	1734.63
409.05	1847.27
409.25	1636.33
409.46	1642.47
409.67	1714.15
409.88	1665.00
410.08	1740.77
410.29	1701.86
410.50	1757.16
410.70	1816.55
410.91	1697.77
411.12	1773.54
411.32	1720.29
411.53	1648.61
411.74	1800.16
411.95	1853.41
412.15	1826.79
412.36	1748.97
412.57	1720.29
412.77	1847.27
412.98	1794.02
413.19	1738.73
413.39	1755.11
413.60	1728.49
413.81	1841.12
414.01	1767.40
414.22	1765.35
414.43	1771.49
414.63	1767.40
414.84	1824.74
415.05	1744.87
415.25	1652.71
415.46	1705.96
415.67	1699.81
415.87	1777.64
416.08	1738.73
416.29	1652.71
416.49	1708.01
416.70	1718.25
416.91	1654.76
417.11	1751.01
417.32	1830.88
417.53	1736.68
417.73	1705.96
417.94	1687.53
418.15	1710.05
418.35	1748.97
418.56	1763.30
418.77	1853.41
418.97	1751.01
419.18	1738.73
419.38	1607.66
419.59	1759.21
419.80	1761.25
420.00	1730.53
420.21	1701.86
420.42	1718.25
420.62	1746.92
420.83	1658.85
421.04	1718.25
421.24	1689.57
421.45	1814.50
421.65	1791.97
421.86	1699.81
422.07	1779.68
422.27	1746.92
422.48	1734.63
422.69	1687.53
422.89	1730.53
423.10	1714.15
423.30	1724.39
423.51	1697.77
423.72	1718.25
423.92	1730.53
424.13	1554.41
424.33	1650.66
424.54	1755.11
424.75	1730.53
424.95	1794.02
425.16	1753.06
425.36	1677.29
425.57	1746.92
425.78	1789.92
425.98	1716.20
426.19	1671.14
426.39	1640.42
426.60	1738.73
426.81	1861.60
427.01	1695.72
427.22	1656.81
427.42	1585.13
427.63	1695.72
427.83	1771.49
428.04	1812.45
428.25	1873.89
428.45	1822.69
428.66	1759.21
428.86	1763.30
429.07	1693.67
429.28	1654.76
429.48	1705.96
429.69	1734.63
429.89	1742.82
430.10	1628.14
430.30	1771.49
430.51	1765.35
430.71	1636.33
430.92	1753.06
431.13	1675.24
431.33	1773.54
431.54	1718.25
431.74	1767.40
431.95	1863.65
432.15	1656.81
432.36	1716.20
432.56	1722.34
432.77	1781.73
432.98	1796.07
433.18	1701.86
433.39	1679.33
433.59	1701.86
433.80	1796.07
434.00	1837.03
434.21	1748.97
434.41	1689.57
434.62	1826.79
434.82	1685.48
435.03	1689.57
435.23	1736.68
435.44	1615.85
435.64	1730.53
435.85	1720.29
436.06	1730.53
436.26	1843.17
436.47	1710.05
436.67	1691.62
436.88	1630.18
437.08	1804.26
437.29	1900.52
437.49	1753.06
437.70	1806.31
437.90	1632.23
438.11	1861.60
438.31	1771.49
438.52	1771.49
438.72	1877.99
438.93	1996.77
439.13	1849.32
439.34	1843.17
439.54	1724.39
439.75	1785.83
439.95	1773.54
440.16	1736.68
440.36	1699.81
440.57	1808.36
440.77	1726.44
440.98	1751.01
441.18	1722.34
441.39	1669.09
441.59	1744.87
441.80	1791.97
442.00	1736.68
442.21	1748.97
442.41	1665.00
442.62	1761.25
442.82	1689.57
443.02	1734.63
443.23	1710.05
443.43	1695.72
443.64	1806.31
443.84	1667.05
444.05	1734.63
444.25	1791.97
444.46	1689.57
444.66	1722.34
444.87	1845.22
445.07	1603.56
445.28	1757.16
445.48	1818.60
445.69	1800.16
445.89	1847.27
446.09	1712.10
446.30	1988.58
446.50	2529.24
446.71	4184.00
446.91	5140.40
447.12	5810.09
447.32	6150.05
447.53	5359.53
447.73	4399.04
447.93	3913.67
448.14	3659.72
448.34	3514.31
448.55	3106.77
448.75	3149.78
448.96	3035.09
449.16	2738.13
449.36	2422.75
449.57	2215.90
449.77	2017.25
449.98	1822.69
450.18	1808.36
450.39	1796.07
450.59	1751.01
450.79	1775.59
451.00	1697.77
451.20	1808.36
451.41	1683.43
451.61	1734.63
451.81	1763.30
452.02	1722.34
452.22	1728.49
452.43	1738.73
452.63	1708.01
452.84	1705.96
453.04	1695.72
453.24	1746.92
453.45	1648.61
453.65	1771.49
453.86	1857.51
454.06	1767.40
454.26	1656.81
454.47	1679.33
454.67	1765.35
454.87	1742.82
455.08	1787.88
455.28	1810.40
455.49	1810.40
455.69	1669.09
455.89	1865.70
456.10	1783.78
456.30	1697.77
456.51	1691.62
456.71	1726.44
456.91	1816.55
457.12	1736.68
457.32	1812.45
457.52	1636.33
457.73	1748.97
457.93	1712.10
458.14	1662.95
458.34	1634.28
458.54	1728.49
458.75	1751.01
458.95	1787.88
459.15	1757.16
459.36	1767.40
459.56	1730.53
459.76	1861.60
459.97	1724.39
460.17	1732.58
460.37	1880.04
460.58	1738.73
460.78	1773.54
460.99	1742.82
461.19	1759.21
461.39	1732.58
461.60	1773.54
461.80	1761.25
462.00	1656.81
462.21	1744.87
462.41	1746.92
462.61	1675.24
462.82	1665.00
463.02	1757.16
463.22	1701.86
463.43	1705.96
463.63	1705.96
463.83	1759.21
464.04	1730.53
464.24	1783.78
464.44	1673.19
464.64	1714.15
464.85	1746.92
465.05	1820.64
465.25	1748.97
465.46	1812.45
465.66	1730.53
465.86	1757.16
466.07	1720.29
466.27	1638.38
466.47	1714.15
466.68	1626.09
466.88	1814.50
467.08	1826.79
467.29	1765.35
467.49	1775.59
467.69	1765.35
467.89	1808.36
468.10	1648.61
468.30	1708.01
468.50	1740.77
468.71	1748.97
468.91	1710.05
469.11	1775.59
469.31	1677.29
469.52	1626.09
469.72	1730.53
469.92	1910.75
470.13	1742.82
470.33	1767.40
470.53	1839.08
470.73	2152.42
470.94	2445.27
471.14	2707.41
471.34	3049.43
471.54	2834.39
471.75	2535.39
471.95	2363.36
472.15	2295.77
472.36	2199.52
472.56	2080.74
472.76	2119.65
472.96	2099.17
473.17	2119.65
473.37	2082.78
473.57	1853.41
473.77	1777.64
473.98	1738.73
474.18	1660.90
474.38	1925.09
474.58	1681.38
474.79	1677.29
474.99	1802.21
475.19	1779.68
475.39	1714.15
475.60	1812.45
475.80	1718.25
476.00	1710.05
476.20	1599.46
476.41	1769.44
476.61	1789.92
476.81	1808.36
477.01	1712.10
477.21	1808.36
477.42	1736.68
477.62	1630.18
477.82	1820.64
478.02	1689.57
478.23	1652.71
478.43	1689.57
478.63	1673.19
478.83	1814.50
479.03	1665.00
479.24	1783.78
479.44	1808.36
479.64	1646.57
479.84	1564.65
480.04	1751.01
480.25	1769.44
480.45	1638.38
480.65	1755.11
480.85	1791.97
481.06	1763.30
481.26	1687.53
481.46	1783.78
481.66	1771.49
481.86	1681.38
482.06	1742.82
482.27	1714.15
482.47	1679.33
482.67	1710.05
482.87	1667.05
483.07	1779.68
483.28	1759.21
483.48	1656.81
483.68	1687.53
483.88	1662.95
484.08	1593.32
484.29	1746.92
484.49	1730.53
484.69	1730.53
484.89	1832.93
485.09	1697.77
485.29	1744.87
485.50	1730.53
485.70	1771.49
485.90	1822.69
486.10	1724.39
486.30	1755.11
486.50	1763.30
486.71	1787.88
486.91	1775.59
487.11	1789.92
487.31	1697.77
487.51	1751.01
487.71	1687.53
487.91	1675.24
488.12	1675.24
488.32	1570.79
488.52	1695.72
488.72	1640.42
488.92	1822.69
489.12	1746.92
489.32	1748.97
489.53	1751.01
489.73	1665.00
489.93	1771.49
490.13	1636.33
490.33	1716.20
490.53	1718.25
490.73	1851.36
490.94	1624.04
491.14	1779.68
491.34	1828.84
491.54	2164.70
491.74	2723.80
491.94	3203.02
492.14	3452.88
492.34	3463.12
492.54	3198.93
492.75	2656.22
492.95	2586.58
493.15	2396.12
493.35	2408.41
493.55	2383.84
493.75	2185.18
493.95	2168.80
494.15	2037.73
494.35	2023.39
494.56	1810.40
494.76	1863.65
494.96	1828.84
495.16	1763.30
495.36	1763.30
495.56	1734.63
495.76	1716.20
495.96	1738.73
496.16	1671.14
496.36	1845.22
496.56	1708.01
496.77	1689.57
496.97	1697.77
497.17	1720.29
497.37	1587.18
497.57	1787.88
497.77	1703.91
497.97	1728.49
498.17	1660.90
498.37	1708.01
498.57	1753.06
498.77	1728.49
498.97	1777.64
499.17	1841.12
499.38	1716.20
499.58	1705.96
499.78	1818.60
499.98	1773.54
500.18	1693.67
500.38	1734.63
500.58	1812.45
500.78	2508.76
500.98	4614.07
501.18	6754.20
501.38	8380.29
501.58	9166.71
501.78	8968.06
501.98	6891.41
502.18	5830.57
502.38	5081.01
502.58	4597.69
502.78	4143.04
502.98	4057.03
503.18	4077.51
503.38	3467.21
503.59	3137.49
503.79	2981.84
503.99	2641.88
504.19	2435.03
504.39	2287.58
504.59	2353.12
504.79	2342.88
504.99	2226.14
505.19	2074.59
505.39	2007.01
505.59	2103.26
505.79	2070.50
505.99	1982.43
506.19	1900.52
506.39	1947.62
506.59	1794.02
506.79	1849.32
506.99	1871.84
507.19	1800.16
507.39	1718.25
507.59	1703.91
507.79	1675.24
507.99	1673.19
508.19	1714.15
508.39	1669.09
508.59	1757.16
508.79	1851.36
508.99	1820.64
509.19	1656.81
509.39	1777.64
509.59	1689.57
509.79	1701.86
509.99	1748.97
510.19	1816.55
510.39	1822.69
510.59	1779.68
510.79	1791.97
510.99	1710.05
511.19	1773.54
511.39	1828.84
511.59	1730.53
511.79	1804.26
511.99	1722.34
512.19	1742.82
512.38	1738.73
512.58	1703.91
512.78	1732.58
512.98	1748.97
513.18	1812.45
513.38	1689.57
513.58	1834.98
513.78	1742.82
513.98	1720.29
514.18	1789.92
514.38	1705.96
514.58	1765.35
514.78	1730.53
514.98	1683.43
515.18	1695.72
515.38	1681.38
515.58	1834.98
515.78	1736.68
515.98	1724.39
516.18	1816.55
516.38	1716.20
516.57	1708.01
516.77	1724.39
516.97	1783.78
517.17	1736.68
517.37	1640.42
517.57	1785.83
517.77	1652.71
517.97	1681.38
518.17	1779.68
518.37	1671.14
518.57	1652.71
518.77	1816.55
518.97	1699.81
519.16	1724.39
519.36	1773.54
519.56	1683.43
519.76	1769.44
519.96	1726.44
520.16	1841.12
520.36	1697.77
520.56	1796.07
520.76	1740.77
520.96	1722.34
521.16	1730.53
521.35	1808.36
521.55	1798.12
521.75	1744.87
521.95	1710.05
522.15	1693.67
522.35	1671.14
522.55	1763.30
522.75	1800.16
522.95	1763.30
523.14	1701.86
523.34	1632.23
523.54	1716.20
523.74	1789.92
523.94	1738.73
524.14	1693.67
524.34	1765.35
524.54	1802.21
524.73	1693.67
524.93	1777.64
525.13	1753.06
525.33	1636.33
525.53	1851.36
525.73	1736.68
525.93	1720.29
526.13	1638.38
526.32	1806.31
526.52	1787.88
526.72	1804.26
526.92	1736.68
527.12	1665.00
527.32	1665.00
527.52	1783.78
527.71	1830.88
527.91	1720.29
528.11	1681.38
528.31	1710.05
528.51	1693.67
528.71	1841.12
528.90	1714.15
529.10	1771.49
529.30	1806.31
529.50	1609.70
529.70	1759.21
529.90	1708.01
530.09	1726.44
530.29	1699.81
530.49	1675.24
530.69	1832.93
530.89	1767.40
531.09	1753.06
531.28	1732.58
531.48	1757.16
531.68	1716.20
531.88	1763.30
532.08	1787.88
532.28	1679.33
532.47	1810.40
532.67	1779.68
532.87	1804.26
533.07	1724.39
533.27	1810.40
533.46	1781.73
533.66	1734.63
533.86	1771.49
534.06	1701.86
534.26	1740.77
534.45	1769.44
534.65	1791.97
534.85	1742.82
535.05	1697.77
535.25	1818.60
535.44	1681.38
535.64	1822.69
535.84	1767.40
536.04	1738.73
536.24	1689.57
536.43	1753.06
536.63	1720.29
536.83	1710.05
537.03	1656.81
537.22	1703.91
537.42	1689.57
537.62	1718.25
537.82	1798.12
538.02	1837.03
538.21	1740.77
538.41	1853.41
538.61	1765.35
538.81	1677.29
539.00	1705.96
539.20	1716.20
539.40	1718.25
539.60	1683.43
539.79	1765.35
539.99	1800.16
540.19	1624.04
540.39	1673.19
540.58	1755.11
540.78	1824.74
540.98	1740.77
541.18	1816.55
541.37	1785.83
541.57	1730.53
541.77	1736.68
541.97	1654.76
542.16	1755.11
542.36	1650.66
542.56	1812.45
542.76	1892.32
542.95	1755.11
543.15	1720.29
543.35	1808.36
543.54	1714.15
543.74	1644.52
543.94	1785.83
544.14	1673.19
544.33	1777.64
544.53	1738.73
544.73	1669.09
544.93	1728.49
545.12	1710.05
545.32	1720.29
545.52	1800.16
545.71	1624.04
545.91	1644.52
546.11	1732.58
546.30	1675.24
546.50	1751.01
546.70	1785.83
546.90	1769.44
547.09	1613.80
547.29	1712.10
547.49	1703.91
547.68	1751.01
547.88	1683.43
548.08	1736.68
548.27	2197.47
548.47	1697.77
548.67	1734.63
548.87	1796.07
549.06	1804.26
549.26	1847.27
549.46	1738.73
549.65	1824.74
549.85	1691.62
550.05	1830.88
550.24	1697.77
550.44	1804.26
550.64	1730.53
550.83	1714.15
551.03	1828.84
551.23	1865.70
551.42	1812.45
551.62	1742.82
551.82	1734.63
552.01	1708.01
552.21	1837.03
552.41	1712.10
552.60	1781.73
552.80	1781.73
553.00	1679.33
553.19	1685.48
553.39	1877.99
553.59	1724.39
553.78	1738.73
553.98	1751.01
554.17	1640.42
554.37	1779.68
554.57	1810.40
554.76	1642.47
554.96	1691.62
555.16	1761.25
555.35	1765.35
555.55	1820.64
555.75	1716.20
555.94	1816.55
556.14	1624.04
556.33	1789.92
556.53	1724.39
556.73	1689.57
556.92	1804.26
557.12	1824.74
557.32	1916.90
557.51	1818.60
557.71	1726.44
557.90	1808.36
558.10	1802.21
558.30	1761.25
558.49	1697.77
558.69	1681.38
558.88	1746.92
559.08	1757.16
559.28	1693.67
559.47	1738.73
559.67	1777.64
559.86	1828.84
560.06	1746.92
560.26	1673.19
560.45	1775.59
560.65	1695.72
560.84	1853.41
561.04	1783.78
561.24	1755.11
561.43	1714.15
561.63	1849.32
561.82	1755.11
562.02	1724.39
562.22	1705.96
562.41	1652.71
562.61	1734.63
562.80	1660.90
563.00	1828.84
563.19	1740.77
563.39	1839.08
563.59	1699.81
563.78	1673.19
563.98	1671.14
564.17	1640.42
564.37	1660.90
564.56	1705.96
564.76	1621.99
564.96	1802.21
565.15	1822.69
565.35	1884.13
565.54	1683.43
565.74	1693.67
565.93	1736.68
566.13	1740.77
566.32	1818.60
566.52	1800.16
566.71	1783.78
566.91	1732.58
567.11	1665.00
567.30	1665.00
567.50	1808.36
567.69	1798.12
567.89	1693.67
568.08	1826.79
568.28	1708.01
568.47	1740.77
568.67	1775.59
568.86	1695.72
569.06	1763.30
569.25	1773.54
569.45	1714.15
569.64	1730.53
569.84	1718.25
570.04	1746.92
570.23	1644.52
570.43	1705.96
570.62	1873.89
570.82	1824.74
571.01	1615.85
571.21	1679.33
571.40	1644.52
571.60	1802.21
571.79	1791.97
571.99	1738.73
572.18	1699.81
572.38	1742.82
572.57	1720.29
572.77	1802.21
572.96	1955.81
573.16	1779.68
573.35	1693.67
573.55	1863.65
573.74	1812.45
573.94	1673.19
574.13	1744.87
574.33	1900.52
574.52	1806.31
574.71	1806.31
574.91	1783.78
575.10	1703.91
575.30	1708.01
575.49	1689.57
575.69	1683.43
575.88	1861.60
576.08	1775.59
576.27	1877.99
576.47	1791.97
576.66	1894.37
576.86	1849.32
577.05	1853.41
577.25	1808.36
577.44	1908.71
577.64	1742.82
577.83	1855.46
578.02	1791.97
578.22	1861.60
578.41	1837.03
578.61	1744.87
578.80	1642.47
579.00	1714.15
579.19	1791.97
579.39	1779.68
579.58	1794.02
579.77	1853.41
579.97	1806.31
580.16	1918.95
580.36	1818.60
580.55	1837.03
580.75	1769.44
580.94	1828.84
581.13	1853.41
581.33	1834.98
581.52	1757.16
581.72	1959.91
581.91	1884.13
582.11	1777.64
582.30	1787.88
582.49	1755.11
582.69	1855.46
582.88	1779.68
583.08	1828.84
583.27	1824.74
583.47	1718.25
583.66	1789.92
583.85	1769.44
584.05	1818.60
584.24	1763.30
584.44	1812.45
584.63	1873.89
584.82	1931.23
585.02	1877.99
585.21	2011.11
585.41	1968.10
585.60	1941.47
585.79	1982.43
585.99	2013.15
586.18	2007.01
586.37	2281.44
586.57	3373.00
586.76	10037.09
586.96	27438.69
587.15	42493.30
587.34	52174.05
587.54	58432.64
587.73	55995.56
587.93	40422.81
588.12	29910.58
588.31	24059.54
588.51	20707.01
588.70	18626.28
588.89	17612.53
589.09	15619.86
589.28	13758.25
589.47	11478.86
589.67	9629.55
589.86	7286.67
590.06	5406.64
590.25	4198.34
590.44	3360.72
590.64	2633.69
590.83	2265.05
591.02	2088.93
591.22	2004.96
591.41	1904.61
591.60	1826.79
591.80	1931.23
591.99	1753.06
592.18	1748.97
592.38	1847.27
592.57	1746.92
592.76	1800.16
592.96	1769.44
593.15	1716.20
593.34	1794.02
593.54	1763.30
593.73	1814.50
593.92	1839.08
594.12	1761.25
594.31	1796.07
594.50	1892.32
594.70	1863.65
594.89	1920.99
595.08	1746.92
595.28	1837.03
595.47	1910.75
595.66	1791.97
595.86	1777.64
596.05	1755.11
596.24	1722.34
596.43	1910.75
596.63	1832.93
596.82	1779.68
597.01	1748.97
597.21	1869.80
597.40	1779.68
597.59	1779.68
597.79	1722.34
597.98	1744.87
598.17	1761.25
598.36	1822.69
598.56	1818.60
598.75	1675.24
598.94	1755.11
599.14	1812.45
599.33	1701.86
599.52	1787.88
599.71	1771.49
599.91	1757.16
600.10	1748.97
600.29	1697.77
600.48	1783.78
600.68	1757.16
600.87	1732.58
601.06	1624.04
601.26	1703.91
601.45	1791.97
601.64	1613.80
601.83	1898.47
602.03	1693.67
602.22	1677.29
602.41	1759.21
602.60	1824.74
602.80	1804.26
602.99	1755.11
603.18	1726.44
603.37	1855.46
603.57	1787.88
603.76	1800.16
603.95	1867.75
604.14	1740.77
604.34	1708.01
604.53	1800.16
604.72	1728.49
604.91	1849.32
605.10	1783.78
605.30	1656.81
605.49	1832.93
605.68	1859.56
605.87	1779.68
606.07	1685.48
606.26	1744.87
606.45	1755.11
606.64	1775.59
606.84	1753.06
607.03	1759.21
607.22	1832.93
607.41	1722.34
607.60	1746.92
607.80	1812.45
607.99	1736.68
608.18	1673.19
608.37	1757.16
608.56	1701.86
608.76	1806.31
608.95	1900.52
609.14	1859.56
609.33	1898.47
609.52	1959.91
609.72	1908.71
609.91	1740.77
610.10	1738.73
610.29	1892.32
610.48	1681.38
610.68	1828.84
610.87	1773.54
611.06	1777.64
611.25	1742.82
611.44	1845.22
611.63	1734.63
611.83	1783.78
612.02	1693.67
612.21	1804.26
612.40	1644.52
612.59	1660.90
612.79	1683.43
612.98	1746.92
613.17	1759.21
613.36	1763.30
613.55	1888.23
613.74	1884.13
613.93	1894.37
614.13	1951.71
614.32	1892.32
614.51	1943.52
614.70	1742.82
614.89	1736.68
615.08	1861.60
615.28	2172.89
615.47	1771.49
615.66	1789.92
615.85	1755.11
616.04	1957.86
616.23	1845.22
616.42	1814.50
616.62	1769.44
616.81	1806.31
617.00	1693.67
617.19	1781.73
617.38	1705.96
617.57	1755.11
617.76	1847.27
617.95	1757.16
618.15	1761.25
618.34	1787.88
618.53	1658.85
618.72	1765.35
618.91	1826.79
619.10	1902.56
619.29	1791.97
619.48	1785.83
619.68	1615.85
619.87	1751.01
620.06	1628.14
620.25	1740.77
620.44	1689.57
620.63	1767.40
620.82	1804.26
621.01	1732.58
621.20	1738.73
621.39	1765.35
621.59	1828.84
621.78	1732.58
621.97	1794.02
622.16	1810.40
622.35	1681.38
622.54	1839.08
622.73	1796.07
622.92	1644.52
623.11	1812.45
623.30	1777.64
623.49	1742.82
623.68	1669.09
623.88	1755.11
624.07	1712.10
624.26	1746.92
624.45	1732.58
624.64	1726.44
624.83	1697.77
625.02	1705.96
625.21	1740.77
625.40	1753.06
625.59	1865.70
625.78	1748.97
625.97	1898.47
626.16	1818.60
626.35	1890.28
626.54	1798.12
626.74	1886.18
626.93	1726.44
627.12	1763.30
627.31	1732.58
627.50	1771.49
627.69	1808.36
627.88	1665.00
628.07	1744.87
628.26	1726.44
628.45	1728.49
628.64	1648.61
628.83	1705.96
629.02	1708.01
629.21	1761.25
629.40	1800.16
629.59	1728.49
629.78	1714.15
629.97	1724.39
630.16	1753.06
630.35	1687.53
630.54	1742.82
630.73	1718.25
630.92	1771.49
631.11	1650.66
631.30	1716.20
631.49	1810.40
631.68	1753.06
631.87	1697.77
632.06	1650.66
632.25	1869.80
632.44	1816.55
632.63	1753.06
632.82	1753.06
633.01	1728.49
633.20	1802.21
633.39	1832.93
633.58	1699.81
633.77	1822.69
633.96	1853.41
634.15	1816.55
634.34	1855.46
634.53	1847.27
634.72	1755.11
634.91	1712.10
635.10	1693.67
635.29	1789.92
635.48	1720.29
635.67	1740.77
635.86	1632.23
636.05	1794.02
636.24	1693.67
636.43	1779.68
636.62	1818.60
636.81	1595.37
637.00	1718.25
637.19	1736.68
637.38	1765.35
637.57	1691.62
637.76	1777.64
637.95	1882.08
638.14	1751.01
638.33	1832.93
638.52	1777.64
638.71	1789.92
638.89	1742.82
639.08	1890.28
639.27	1810.40
639.46	1914.85
639.65	2344.92
639.84	2289.63
640.03	2447.32
640.22	2283.49
640.41	2330.59
640.60	2050.02
640.79	2027.49
640.98	1839.08
641.17	2043.87
641.36	1861.60
641.55	1861.60
641.74	1843.17
641.92	1710.05
642.11	1767.40
642.30	1738.73
642.49	1794.02
642.68	1685.48
642.87	1796.07
643.06	1720.29
643.25	1667.05
643.44	1722.34
643.63	1718.25
643.82	1791.97
644.00	1691.62
644.19	1816.55
644.38	1603.56
644.57	1738.73
644.76	1679.33
644.95	1648.61
645.14	1787.88
645.33	1665.00
645.52	1732.58
645.71	1681.38
645.89	1757.16
646.08	1679.33
646.27	1681.38
646.46	1855.46
646.65	1656.81
646.84	1714.15
647.03	1693.67
647.22	1757.16
647.40	1755.11
647.59	1783.78
647.78	1630.18
647.97	1693.67
648.16	1615.85
648.35	1785.83
648.54	1738.73
648.73	1662.95
648.91	1773.54
649.10	1771.49
649.29	1755.11
649.48	1675.24
649.67	1806.31
649.86	1783.78
650.05	1755.11
650.23	1869.80
650.42	1789.92
650.61	1957.86
650.80	1855.46
650.99	1918.95
651.18	1820.64
651.36	1814.50
651.55	1800.16
651.74	1847.27
651.93	1683.43
652.12	1847.27
652.31	1834.98
652.49	1685.48
652.68	1675.24
652.87	1867.75
653.06	1736.68
653.25	1822.69
653.44	1753.06
653.62	1867.75
653.81	1697.77
654.00	1746.92
654.19	1738.73
654.38	1818.60
654.56	1753.06
654.75	1699.81
654.94	1828.84
655.13	1751.01
655.32	1724.39
655.51	1718.25
655.69	1701.86
655.88	1757.16
656.07	1658.85
656.26	1746.92
656.45	1634.28
656.63	1775.59
656.82	1845.22
657.01	1787.88
657.20	1673.19
657.38	1755.11
657.57	1708.01
657.76	1611.75
657.95	1732.58
658.14	1720.29
658.32	1671.14
658.51	1710.05
658.70	1732.58
658.89	1710.05
659.08	1740.77
659.26	1855.46
659.45	1701.86
659.64	1828.84
659.83	1787.88
660.01	2033.63
660.20	1828.84
660.39	1855.46
660.58	1615.85
660.76	1804.26
660.95	1712.10
661.14	1746.92
661.33	1650.66
661.51	1726.44
661.70	1636.33
661.89	1818.60
662.08	1744.87
662.26	1677.29
662.45	1712.10
662.64	1785.83
662.83	1724.39
663.01	1638.38
663.20	1691.62
663.39	1775.59
663.58	1689.57
663.76	1693.67
663.95	1736.68
664.14	1759.21
664.32	1740.77
664.51	1628.14
664.70	1736.68
664.89	1769.44
665.07	1691.62
665.26	1761.25
665.45	1667.05
665.64	1728.49
665.82	1759.21
666.01	1773.54
666.20	1705.96
666.38	1746.92
666.57	1867.75
666.76	2187.23
666.95	4607.93
667.13	11691.85
667.32	18640.61
667.51	22498.98
667.69	25308.80
667.88	25550.46
668.07	19779.28
668.25	14620.45
668.44	11829.07
668.63	9846.63
668.81	8757.11
669.00	7702.41
669.19	6969.24
669.38	6174.63
669.56	5351.34
669.75	4638.65
669.94	3893.19
670.12	3125.20
670.31	2635.74
670.50	2320.35
670.68	2105.31
670.87	1996.77
671.06	1853.41
671.24	1886.18
671.43	1898.47
671.62	1781.73
671.80	1791.97
671.99	1832.93
672.18	1748.97
672.36	1765.35
672.55	1777.64
672.74	1722.34
672.92	1744.87
673.11	1763.30
673.29	1701.86
673.48	1755.11
673.67	1810.40
673.85	1783.78
674.04	1652.71
674.23	1730.53
674.41	1855.46
674.60	1710.05
674.79	1683.43
674.97	1732.58
675.16	1757.16
675.34	1726.44
675.53	1687.53
675.72	1726.44
675.90	1804.26
676.09	1763.30
676.28	1767.40
676.46	1732.58
676.65	1769.44
676.83	1671.14
677.02	1740.77
677.21	1677.29
677.39	1736.68
677.58	1636.33
677.77	1660.90
677.95	1687.53
678.14	1714.15
678.32	1802.21
678.51	1669.09
678.70	1748.97
678.88	1710.05
679.07	1699.81
679.25	1673.19
679.44	1742.82
679.63	1738.73
679.81	1789.92
680.00	1767.40
680.18	1728.49
680.37	1775.59
680.55	1738.73
680.74	1626.09
680.93	1675.24
681.11	1652.71
681.30	1710.05
681.48	1742.82
681.67	1736.68
681.85	1718.25
682.04	1712.10
682.23	1738.73
682.41	1716.20
682.60	1748.97
682.78	1839.08
682.97	1611.75
683.15	1738.73
683.34	1742.82
683.53	1808.36
683.71	1671.14
683.90	1869.80
684.08	1783.78
684.27	1634.28
684.45	1759.21
684.64	1730.53
684.82	1710.05
685.01	1693.67
685.19	1751.01
685.38	1853.41
685.57	1675.24
685.75	1660.90
685.94	1699.81
686.12	1662.95
686.31	1759.21
686.49	1877.99
686.68	1718.25
686.86	1783.78
687.05	1708.01
687.23	1769.44
687.42	1685.48
687.60	1626.09
687.79	1753.06
687.97	1763.30
688.16	1832.93
688.34	1810.40
688.53	1634.28
688.71	1755.11
688.90	1796.07
689.08	1767.40
689.27	1632.23
689.45	1791.97
689.64	1773.54
689.82	1753.06
690.01	1755.11
690.19	1802.21
690.38	1644.52
690.56	1714.15
690.75	1638.38
690.93	1658.85
691.12	1640.42
691.30	1687.53
691.49	1636.33
691.67	1677.29
691.86	1882.08
692.04	1724.39
692.23	1759.21
692.41	1677.29
692.60	1832.93
692.78	1808.36
692.97	1796.07
693.15	1837.03
693.34	1908.71
693.52	1857.51
693.71	1765.35
693.89	1708.01
694.08	1603.56
694.26	1771.49
694.44	1804.26
694.63	1738.73
694.81	1691.62
695.00	1671.14
695.18	1755.11
695.37	1896.42
695.55	1767.40
695.74	1679.33
695.92	1654.76
696.10	1740.77
696.29	1738.73
696.47	1685.48
696.66	1632.23
696.84	1716.20
697.03	1628.14
697.21	1732.58
697.40	2303.96
697.58	1755.11
697.76	1703.91
697.95	1628.14
698.13	1654.76
698.32	1757.16
698.50	1748.97
698.68	1722.34
698.87	1720.29
699.05	1708.01
699.24	1744.87
699.42	1691.62
699.61	1722.34
699.79	1720.29
699.97	1728.49
700.16	1632.23
700.34	1671.14
700.53	1775.59
700.71	1794.02
700.89	1751.01
701.08	1712.10
701.26	1744.87
701.45	2078.69
701.63	1722.34
701.81	1716.20
702.00	1677.29
702.18	1742.82
702.37	1718.25
702.55	1906.66
702.73	1914.85
702.92	1843.17
703.10	1937.38
703.28	1992.67
703.47	1902.56
703.65	1982.43
703.84	1882.08
704.02	1722.34
704.20	1845.22
704.39	1753.06
704.57	1685.48
704.75	1806.31
704.94	1810.40
705.12	1726.44
705.30	1910.75
705.49	2523.10
705.67	5400.49
705.86	13414.20
706.04	19678.93
706.22	23197.34
706.41	25575.03
706.59	25167.49
706.77	19574.49
706.96	13969.19
707.14	12189.51
707.32	10364.77
707.51	8834.94
707.69	7937.93
707.87	6883.22
708.06	5476.27
708.24	4396.99
708.42	3350.48
708.61	2881.49
708.79	2256.86
708.97	2078.69
709.16	1933.28
709.34	1865.70
709.52	1734.63
709.71	1742.82
709.89	1834.98
710.07	1697.77
710.26	1718.25
710.44	1736.68
710.62	1738.73
710.80	1796.07
710.99	1742.82
711.17	1718.25
711.35	1710.05
711.54	1701.86
711.72	1765.35
711.90	1783.78
712.09	1718.25
712.27	1746.92
712.45	1791.97
712.63	1699.81
712.82	1728.49
713.00	1626.09
713.18	1777.64
713.37	1744.87
713.55	1798.12
713.73	1710.05
713.91	1746.92
714.10	1679.33
714.28	1621.99
714.46	1751.01
714.65	1693.67
714.83	1722.34
715.01	1662.95
715.19	1728.49
715.38	1703.91
715.56	1689.57
715.74	1710.05
715.92	1689.57
716.11	1763.30
716.29	1687.53
716.47	1724.39
716.65	1744.87
716.84	1621.99
717.02	1787.88
717.20	1662.95
717.38	1681.38
717.57	1738.73
717.75	1724.39
717.93	1646.57
718.11	1703.91
718.30	1669.09
718.48	1732.58
718.66	1757.16
718.84	1837.03
719.03	1714.15
719.21	1665.00
719.39	1810.40
719.57	1736.68
719.75	1806.31
719.94	1720.29
720.12	1724.39
720.30	1753.06
720.48	1751.01
720.67	1654.76
720.85	1724.39
721.03	1767.40
721.21	1695.72
721.39	1814.50
721.58	1699.81
721.76	1681.38
721.94	1728.49
722.12	1714.15
722.30	1808.36
722.49	1691.62
722.67	1736.68
722.85	1757.16
723.03	1595.37
723.21	1671.14
723.40	1740.77
723.58	1791.97
723.76	1761.25
723.94	1814.50
724.12	1820.64
724.30	1843.17
724.49	1814.50
724.67	1656.81
724.85	1845.22
725.03	1638.38
725.21	1771.49
725.40	1886.18
725.58	1701.86
725.76	1753.06
725.94	1671.14
726.12	1671.14
726.30	1708.01
726.49	1718.25
726.67	1681.38
726.85	1722.34
727.03	1828.84
727.21	2281.44
727.39	3426.25
727.57	4947.89
727.76	5842.85
727.94	6320.03
728.12	6379.42
728.30	5957.54
728.48	4609.98
728.66	4034.50
728.84	3588.04
729.03	3213.26
729.21	2818.00
729.39	2469.85
729.57	2090.98
729.75	2009.06
729.93	1933.28
730.11	1785.83
730.30	1773.54
730.48	1759.21
730.66	1794.02
730.84	1802.21
731.02	1708.01
731.20	1671.14
731.38	1732.58
731.56	1681.38
731.74	1665.00
731.93	1728.49
732.11	1740.77
732.29	1718.25
732.47	1697.77
732.65	1710.05
732.83	1808.36
733.01	1791.97
733.19	1732.58
733.37	1767.40
733.56	1755.11
733.74	1626.09
733.92	1689.57
734.10	1716.20
734.28	1785.83
734.46	1619.94
734.64	1710.05
734.82	1705.96
735.00	1703.91
735.18	1685.48
735.36	1699.81
735.54	1746.92
735.73	1597.42
735.91	1710.05
736.09	1761.25
736.27	1683.43
736.45	1712.10
736.63	1597.42
736.81	1796.07
736.99	1773.54
737.17	1810.40
737.35	1720.29
737.53	1759.21
737.71	1712.10
737.89	1812.45
738.07	1628.14
738.25	1701.86
738.43	1634.28
738.61	1681.38
738.80	1585.13
738.98	1607.66
739.16	1714.15
739.34	1638.38
739.52	1730.53
739.70	1685.48
739.88	1718.25
740.06	1757.16
740.24	1556.46
740.42	1728.49
740.60	1615.85
740.78	1677.29
740.96	1677.29
741.14	1716.20
741.32	1677.29
741.50	1632.23
741.68	1773.54
741.86	1783.78
742.04	1671.14
742.22	1687.53
742.40	1705.96
742.58	1779.68
742.76	1708.01
742.94	1673.19
743.12	1648.61
743.30	1599.46
743.48	1734.63
743.66	1662.95
743.84	1775.59
744.02	1730.53
744.20	1761.25
744.38	1656.81
744.56	1699.81
744.74	1820.64
744.92	1671.14
745.10	1865.70
745.28	1847.27
745.46	1773.54
745.64	1744.87
745.82	1730.53
746.00	1738.73
746.18	1621.99
746.36	1679.33
746.54	1710.05
746.72	1654.76
746.90	1656.81
747.08	1804.26
747.26	1673.19
747.44	1626.09
747.62	1695.72
747.80	1730.53
747.98	1777.64
748.15	1589.22
748.33	1794.02
748.51	1695.72
748.69	1880.04
748.87	1624.04
749.05	1673.19
749.23	1714.15
749.41	1781.73
749.59	1671.14
749.77	1781.73
749.95	1724.39
750.13	1644.52
750.31	1773.54
750.49	1691.62
750.67	1714.15
750.85	1837.03
751.03	1669.09
751.20	1828.84
751.38	1757.16
751.56	1699.81
751.74	1681.38
751.92	1759.21
752.10	1699.81
752.28	1742.82
752.46	1687.53
752.64	1695.72
752.82	1798.12
753.00	1830.88
753.18	1656.81
753.35	1722.34
753.53	1732.58
753.71	1691.62
753.89	1843.17
754.07	1714.15
754.25	1791.97
754.43	1732.58
754.61	1605.61
754.79	1660.90
754.97	1675.24
755.14	1767.40
755.32	1697.77
755.50	1738.73
755.68	1736.68
755.86	1615.85
756.04	1646.57
756.22	1574.89
756.40	1773.54
756.57	1816.55
756.75	1617.90
756.93	1818.60
757.11	1753.06
757.29	1642.47
757.47	1660.90
757.65	1621.99
757.82	1609.70
758.00	1689.57
758.18	1654.76
758.36	1638.38
758.54	1771.49
758.72	1650.66
758.90	1779.68
759.07	1744.87
759.25	1716.20
759.43	1791.97
759.61	1712.10
759.79	2263.01
759.97	1734.63
760.15	1697.77
760.32	1705.96
760.50	1738.73
760.68	1812.45
760.86	1603.56
761.04	1781.73
761.22	1738.73
761.39	1720.29
761.57	1753.06
761.75	1675.24
761.93	1714.15
762.11	1740.77
762.28	1742.82
762.46	1626.09
762.64	1771.49
762.82	1640.42
763.00	1710.05
763.18	1734.63
763.35	1648.61
763.53	1726.44
763.71	1705.96
763.89	1769.44
764.07	1615.85
764.24	1701.86
764.42	1785.83
764.60	1712.10
764.78	1777.64
764.96	1730.53
765.13	1791.97
765.31	1660.90
765.49	1734.63
765.67	1685.48
765.84	1636.33
766.02	1667.05
766.20	1642.47
766.38	1732.58
766.56	1767.40
766.73	1777.64
766.91	1734.63
767.09	1746.92
767.27	1796.07
767.44	1656.81
767.62	1660.90
767.80	1757.16
767.98	1716.20
768.15	1710.05
768.33	1757.16
768.51	1775.59
768.69	1681.38
768.87	1722.34
769.04	1658.85
769.22	1783.78
769.40	1841.12
769.58	1865.70
769.75	1652.71
769.93	1730.53
770.11	1693.67
770.28	1697.77
770.46	1775.59
770.64	1710.05
770.82	1695.72
770.99	1675.24
771.17	1791.97
771.35	1669.09
771.53	1667.05
771.70	1624.04
771.88	1724.39
772.06	1726.44
772.23	1728.49
772.41	1703.91
772.59	1658.85
772.77	1630.18
772.94	1734.63
773.12	1722.34
773.30	1656.81
773.47	1740.77
773.65	1611.75
773.83	1771.49
774.01	1679.33
774.18	1636.33
774.36	1701.86
774.54	1697.77
774.71	1687.53
774.89	1644.52
775.07	1646.57
775.24	1671.14
775.42	1658.85
775.60	1777.64
775.78	1662.95
775.95	1617.90
776.13	1587.18
776.31	1648.61
776.48	1701.86
776.66	1834.98
776.84	1697.77
777.01	1642.47
777.19	1583.08
777.37	1667.05
777.54	1724.39
777.72	1753.06
777.90	1740.77
778.07	1642.47
778.25	1886.18
778.43	1771.49
778.60	1658.85
778.78	1755.11
778.96	1748.97
779.13	1710.05
779.31	1683.43
779.49	1742.82
779.66	1720.29
779.84	1742.82
780.01	1630.18
780.19	1640.42
780.37	1726.44
780.54	1755.11
780.72	1712.10
780.90	1683.43
781.07	1607.66
781.25	1671.14
781.43	1763.30
781.60	1722.34
781.78	1826.79
781.95	1771.49
782.13	1628.14
782.31	1703.91
782.48	1560.55
782.66	1781.73
782.83	1804.26
783.01	1765.35
783.19	1685.48
783.36	1689.57
783.54	1753.06
783.72	1724.39
783.89	1671.14
784.07	1691.62
784.24	1685.48
784.42	1746.92
784.60	1673.19
784.77	1757.16
784.95	1621.99
785.12	1669.09
785.30	1648.61
785.47	1691.62
785.65	1669.09
785.83	1654.76
786.00	1705.96
786.18	1746.92
786.35	1640.42
786.53	1660.90
786.71	1763.30
786.88	1714.15
787.06	1691.62
787.23	1697.77
787.41	1665.00
787.58	1718.25
787.76	1646.57
787.94	1722.34
788.11	1726.44
788.29	1644.52
788.46	1734.63
788.64	1611.75
788.81	1697.77
788.99	1597.42
789.16	1628.14
789.34	1673.19
789.52	1619.94
789.69	1732.58
789.87	1632.23
790.04	1703.91
790.22	1703.91
790.39	1781.73
790.57	1605.61
790.74	1656.81
790.92	1802.21
791.09	1640.42
791.27	1710.05
791.44	1769.44
791.62	1687.53
791.79	1724.39
791.97	1716.20
792.15	1886.18
792.32	1734.63
792.50	1695.72
792.67	1826.79
792.85	1791.97
793.02	1693.67
793.20	1710.05
793.37	1656.81
793.55	1673.19
793.72	1615.85
793.90	1746.92
794.07	1714.15
794.25	1601.51
794.42	1777.64
794.60	1685.48
794.77	1693.67
794.95	1730.53
795.12	1839.08
795.30	1607.66
795.47	1615.85
795.65	1920.99
795.82	1830.88
796.00	1742.82
796.17	1742.82
796.34	1648.61
796.52	1699.81
796.69	1722.34
796.87	1757.16
797.04	1669.09
797.22	1728.49
797.39	1720.29
797.57	1763.30
797.74	1679.33
797.92	1732.58
798.09	1689.57
798.27	1708.01
798.44	1720.29
798.62	1615.85
798.79	1671.14
798.96	1689.57
799.14	1763.30
799.31	1869.80
799.49	1728.49
799.66	1720.29
799.84	1751.01
800.01	1640.42
800.19	1624.04
800.36	1634.28
800.53	1775.59
800.71	1650.66
800.88	1771.49
801.06	1621.99
801.23	1689.57
801.41	1691.62
801.58	1509.35
801.75	1759.21
801.93	1744.87
802.10	1712.10
802.28	1701.86
802.45	1681.38
802.63	1736.68
802.80	1767.40
802.97	1724.39
803.15	1701.86
803.32	1681.38
803.50	1605.61
803.67	1656.81
803.84	1648.61
804.02	1718.25
804.19	1650.66
804.37	1660.90
804.54	1685.48
804.71	1673.19
804.89	1662.95
805.06	1697.77
805.24	1701.86
805.41	1624.04
805.58	1693.67
805.76	1787.88
805.93	1705.96
806.10	1808.36
806.28	1740.77
806.45	1667.05
806.63	1718.25
806.80	1744.87
806.97	1759.21
807.15	1693.67
807.32	1699.81
807.49	1738.73
807.67	1648.61
807.84	1699.81
808.01	1671.14
808.19	1802.21
808.36	1824.74
808.54	1685.48
808.71	1617.90
808.88	1740.77
809.06	1691.62
809.23	1822.69
809.40	1648.61
809.58	1748.97
809.75	1822.69
809.92	1662.95
810.10	1816.55
810.27	1658.85
810.44	1703.91
810.62	1710.05
810.79	1730.53
810.96	1691.62
811.14	1619.94
811.31	1691.62
811.48	1837.03
811.66	1732.58
811.83	1761.25
812.00	1634.28
812.18	1677.29
812.35	1816.55
812.52	1718.25
812.69	1665.00
812.87	1687.53
813.04	1511.40
813.21	1687.53
813.39	1685.48
813.56	1628.14
813.73	1845.22
813.91	1681.38
814.08	1701.86
814.25	1687.53
814.42	1626.09
814.60	1681.38
814.77	1667.05
814.94	1748.97
815.12	1728.49
815.29	1794.02
815.46	1730.53
815.63	1691.62
815.81	1726.44
815.98	1581.03
816.15	1687.53
816.33	1771.49
816.50	1640.42
816.67	1705.96
816.84	1689.57
817.02	1732.58
817.19	1708.01
817.36	1718.25
817.53	1712.10
817.71	1736.68
817.88	1753.06
818.05	1695.72
818.22	1689.57
818.40	1802.21
818.57	1671.14
818.74	1757.16
818.91	1638.38
819.09	1736.68
819.26	1759.21
819.43	1683.43
819.60	1619.94
819.78	1714.15
819.95	1753.06
820.12	1599.46
820.29	1738.73
820.47	1740.77
820.64	1675.24
820.81	1695.72
820.98	1640.42
821.15	1654.76
821.33	1783.78
821.50	1628.14
821.67	1701.86
821.84	1634.28
822.02	1712.10
822.19	1789.92
822.36	1650.66
822.53	1705.96
822.70	1640.42
822.88	1740.77
823.05	1806.31
823.22	1800.16
823.39	1691.62
823.56	1712.10
823.74	1771.49
823.91	1599.46
824.08	1634.28
824.25	1693.67
824.42	1804.26
824.60	1554.41
824.77	1771.49
824.94	1697.77
825.11	1742.82
825.28	1630.18
825.45	1708.01
825.63	1734.63
825.80	1644.52
825.97	1699.81
826.14	1714.15
826.31	1609.70
826.48	1669.09
826.66	1640.42
826.83	1667.05
827.00	1740.77
827.17	1673.19
827.34	1662.95
827.51	1705.96
827.69	1671.14
827.86	1685.48
828.03	1755.11
828.20	1751.01
828.37	1640.42
828.54	1697.77
828.71	1673.19
828.89	1714.15
829.06	1667.05
829.23	1757.16
829.40	1654.76
829.57	1669.09
829.74	1759.21
829.91	1677.29
830.09	1683.43
830.26	1716.20
830.43	1775.59
830.60	1732.58
830.77	1669.09
830.94	1820.64
831.11	1726.44
831.28	1628.14
831.46	1781.73
831.63	1671.14
831.80	1787.88
831.97	1755.11
832.14	1660.90
832.31	1763.30
832.48	1603.56
832.65	1728.49
832.82	1722.34
832.99	1656.81
833.17	1648.61
833.34	1806.31
833.51	1675.24
833.68	1550.31
833.85	1742.82
834.02	1599.46
834.19	1581.03
834.36	1667.05
834.53	1773.54
834.70	1787.88
834.87	1826.79
835.04	1640.42
835.22	1718.25
835.39	1720.29
835.56	1632.23
835.73	1703.91
835.90	1763.30
836.07	1626.09
836.24	1763.30
836.41	1705.96
836.58	1675.24
836.75	1746.92
836.92	1708.01
837.09	1685.48
837.26	1744.87
837.43	1779.68
837.60	1703.91
837.77	1642.47
837.94	1703.91
838.12	1859.56
838.29	1683.43
838.46	1617.90
838.63	1634.28
838.80	1769.44
838.97	1710.05
839.14	1718.25
839.31	1714.15
839.48	1665.00
839.65	1683.43
839.82	1769.44
839.99	1681.38
840.16	1697.77
840.33	1646.57
840.50	1720.29
840.67	1638.38
840.84	1628.14
841.01	1636.33
841.18	1632.23
841.35	1708.01
841.52	1744.87
841.69	1796.07
841.86	1667.05
842.03	1677.29
842.20	1763.30
842.37	1689.57
842.54	1740.77
842.71	1638.38
842.88	1646.57
843.05	1789.92
843.22	1716.20
843.39	1722.34
843.56	1708.01
843.73	1621.99
843.90	1740.77
844.07	1677.29
844.24	1802.21
844.41	1726.44
844.58	1687.53
844.75	1710.05
844.92	1724.39
845.09	1728.49
845.26	1632.23
845.43	1705.96
845.60	1683.43
845.77	1796.07
845.94	1685.48
846.10	1705.96
846.27	1703.91
846.44	1701.86
846.61	1671.14
846.78	1718.25
846.95	1746.92
847.12	1675.24
847.29	1650.66
847.46	1693.67
847.63	1718.25
847.80	1693.67
847.97	1699.81
848.14	1810.40
848.31	1738.73
848.48	1628.14
848.65	1640.42
848.82	1757.16
848.98	1787.88
849.15	1701.86
849.32	1783.78
849.49	1787.88
849.66	1685.48
849.83	1744.87
850.00	1679.33
850.17	1730.53
850.34	1691.62
850.51	1679.33
850.68	1648.61
850.85	1800.16
851.01	1714.15
851.18	1734.63
851.35	1751.01
851.52	1679.33
851.69	1841.12
851.86	1691.62
852.03	1763.30
852.20	1822.69
852.37	1673.19
852.53	1613.80
852.70	1679.33
852.87	1701.86
853.04	1689.57
853.21	1640.42
853.38	1720.29
853.55	1785.83
853.72	1789.92
853.89	1699.81
854.05	1689.57
854.22	1658.85
854.39	1755.11
854.56	1662.95
854.73	1767.40
854.90	1646.57
855.07	1714.15
855.23	1630.18
855.40	1748.97
855.57	1695.72
855.74	1646.57
855.91	1830.88
856.08	1742.82
856.25	1697.77
856.41	1681.38
856.58	1761.25
856.75	1701.86
856.92	1699.81
857.09	1697.77
857.26	1638.38
857.42	1697.77
857.59	1753.06
857.76	1677.29
857.93	1669.09
858.10	1728.49
858.27	1603.56
858.43	1693.67
858.60	1656.81
858.77	1634.28
858.94	1644.52
859.11	1755.11
859.27	1712.10
859.44	1710.05
859.61	1832.93
859.78	1757.16
859.95	1634.28
860.12	1650.66
860.28	1882.08
860.45	1767.40
860.62	1572.84
860.79	1628.14
860.95	1738.73
861.12	1642.47
861.29	1740.77
861.46	1615.85
861.63	1722.34
861.79	1677.29
861.96	1695.72
862.13	1648.61
862.30	1761.25
862.47	1705.96
862.63	1632.23
862.80	1730.53
862.97	1744.87
863.14	1638.38
863.30	1769.44
863.47	1646.57
863.64	1818.60
863.81	1753.06
863.97	1667.05
864.14	1683.43
864.31	1656.81
864.48	1724.39
864.65	1630.18
864.81	1714.15
864.98	1728.49
865.15	1740.77
865.32	1740.77
865.48	1759.21
865.65	1808.36
865.82	1611.75
865.98	1755.11
866.15	1798.12
866.32	1763.30
866.49	1607.66
866.65	1812.45
866.82	1714.15
866.99	1763.30
867.16	1681.38
867.32	1634.28
867.49	1714.15
867.66	1603.56
867.83	1656.81
867.99	1597.42
868.16	1693.67
868.33	1699.81
868.49	1714.15
868.66	1685.48
868.83	1732.58
868.99	1662.95
869.16	1794.02
869.33	1722.34
869.50	1734.63
869.66	1640.42
869.83	1701.86
870.00	1683.43
870.16	1742.82
870.33	1689.57
870.50	1662.95
870.66	1748.97
870.83	1845.22
871.00	1646.57
871.17	1705.96
871.33	1724.39
871.50	1771.49
871.67	1718.25
871.83	1576.94
872.00	1783.78
872.17	1691.62
872.33	1808.36
872.50	1695.72
872.67	1677.29
872.83	1683.43
873.00	1679.33
873.17	1716.20
873.33	1728.49
873.50	1814.50
873.67	1689.57
873.83	1634.28
874.00	1648.61
874.16	1779.68
874.33	1753.06
874.50	1648.61
874.66	1753.06
874.83	1648.61
875.00	1798.12
875.16	1755.11
875.33	1708.01
875.50	1570.79
875.66	1642.47
875.83	1699.81
875.99	1722.34
876.16	1724.39
876.33	1650.66
876.49	1716.20
876.66	1769.44
876.83	1834.98
876.99	1640.42
877.16	1673.19
877.32	1703.91
877.49	1722.34
877.66	1728.49
877.82	1742.82
877.99	1751.01
878.15	1777.64
878.32	1638.38
878.49	1712.10
878.65	1669.09
878.82	1820.64
878.98	1689.57
879.15	1783.78
879.32	1738.73
879.48	1673.19
879.65	1671.14
879.81	1722.34
879.98	1687.53
880.15	1665.00
880.31	1796.07
880.48	1687.53
880.64	1730.53
880.81	1697.77
880.97	1771.49
881.14	1781.73
881.31	1673.19
881.47	1796.07
881.64	1685.48
881.80	1601.51
881.97	1667.05
882.13	1742.82
882.30	1609.70
882.47	1656.81
882.63	1724.39
882.80	1703.91
882.96	1738.73
883.13	1843.17
883.29	1656.81
883.46	1744.87
883.62	1736.68
883.79	1654.76
883.95	1822.69
884.12	1728.49
884.29	1746.92
884.45	1767.40
884.62	1705.96
884.78	1662.95
884.95	1851.36
885.11	1611.75
885.28	1673.19
885.44	1683.43
885.61	1714.15
885.77	1738.73
885.94	1689.57
886.10	1665.00
886.27	1730.53
886.43	1759.21
886.60	1708.01
886.76	1654.76
886.93	1634.28
887.09	1730.53
887.26	1640.42
887.42	1685.48
887.59	1697.77
887.75	1855.46
887.92	1710.05
888.08	1783.78
888.25	1826.79
888.41	1802.21
888.58	1748.97
888.74	1656.81
888.91	1572.84
>>>>>End Processed Spectral Data<<<<<
