SpectraSuite Data File
++++++++++++++++++++++++++++++++++++
Date: Wed May 04 18:44:56 CEST 2016
User: root
Dark Spectrum Present: No
Reference Spectrum Present: No
Number of Sampled Component Spectra: 1
Spectrometers: USB4C02835
Integration Time (usec): 100000 (USB4C02835)
Spectra Averaged: 1 (USB4C02835)
Boxcar Smoothing: 0 (USB4C02835)
Correct for Electrical Dark: No (USB4C02835)
Strobe/Lamp Enabled: No (USB4C02835)
Correct for Detector Non-linearity: No (USB4C02835)
Correct for Stray Light: No (USB4C02835)
Number of Pixels in Processed Spectrum: 3648
>>>>>Begin Processed Spectral Data<<<<<
177.47	1497.07
177.69	1497.07
177.91	1497.07
178.13	1470.44
178.36	1505.26
178.58	1683.43
178.80	1794.02
179.02	1589.22
179.24	1667.05
179.46	1677.29
179.68	1806.31
179.90	1757.16
180.13	1701.86
180.35	1708.01
180.57	1683.43
180.79	1796.07
181.01	1724.39
181.23	1736.68
181.45	1730.53
181.67	1710.05
181.90	1757.16
182.12	1751.01
182.34	1675.24
182.56	1710.05
182.78	1730.53
183.00	1705.96
183.22	1789.92
183.44	1646.57
183.66	1882.08
183.89	1789.92
184.11	1654.76
184.33	1773.54
184.55	1804.26
184.77	1755.11
184.99	1687.53
185.21	1669.09
185.43	1904.61
185.65	1687.53
185.87	1710.05
186.10	1845.22
186.32	1761.25
186.54	1697.77
186.76	1753.06
186.98	1708.01
187.20	1767.40
187.42	1724.39
187.64	1681.38
187.86	1791.97
188.08	1722.34
188.30	1705.96
188.52	1675.24
188.75	1785.83
188.97	1785.83
189.19	1603.56
189.41	1691.62
189.63	1734.63
189.85	1675.24
190.07	1605.61
190.29	1654.76
190.51	1740.77
190.73	1632.23
190.95	1738.73
191.17	1699.81
191.39	1597.42
191.61	1683.43
191.84	1687.53
192.06	1705.96
192.28	1609.70
192.50	1900.52
192.72	1808.36
192.94	1705.96
193.16	1834.98
193.38	1730.53
193.60	1656.81
193.82	1708.01
194.04	1798.12
194.26	1716.20
194.48	1720.29
194.70	1767.40
194.92	1648.61
195.14	1791.97
195.36	1775.59
195.58	1710.05
195.80	1687.53
196.02	1685.48
196.24	1728.49
196.46	1703.91
196.69	1673.19
196.91	1798.12
197.13	1644.52
197.35	1736.68
197.57	1796.07
197.79	1757.16
198.01	1736.68
198.23	1734.63
198.45	1703.91
198.67	1617.90
198.89	1785.83
199.11	1712.10
199.33	1746.92
199.55	1578.98
199.77	1665.00
199.99	1832.93
200.21	1621.99
200.43	1734.63
200.65	1667.05
200.87	1615.85
201.09	1730.53
201.31	1728.49
201.53	1751.01
201.75	1705.96
201.97	1677.29
202.19	1689.57
202.41	1769.44
202.63	1810.40
202.85	1628.14
203.07	1720.29
203.29	1738.73
203.51	1705.96
203.73	1699.81
203.95	1880.04
204.17	1748.97
204.39	1718.25
204.61	1675.24
204.83	1667.05
205.05	1759.21
205.27	1705.96
205.49	1826.79
205.71	1705.96
205.93	1634.28
206.15	1644.52
206.37	1705.96
206.59	1751.01
206.81	1642.47
207.03	1677.29
207.25	1654.76
207.47	1746.92
207.69	1718.25
207.91	1755.11
208.13	1767.40
208.34	1636.33
208.56	1695.72
208.78	1683.43
209.00	1689.57
209.22	1656.81
209.44	1621.99
209.66	1697.77
209.88	1720.29
210.10	1691.62
210.32	1669.09
210.54	1726.44
210.76	1689.57
210.98	1810.40
211.20	1646.57
211.42	1740.77
211.64	1726.44
211.86	1740.77
212.08	1683.43
212.30	1753.06
212.52	1634.28
212.74	1765.35
212.96	1714.15
213.17	1705.96
213.39	1734.63
213.61	1851.36
213.83	1816.55
214.05	1699.81
214.27	1849.32
214.49	1675.24
214.71	1613.80
214.93	1816.55
215.15	1751.01
215.37	1671.14
215.59	1615.85
215.81	1765.35
216.03	1806.31
216.24	1744.87
216.46	1716.20
216.68	1740.77
216.90	1734.63
217.12	1767.40
217.34	1724.39
217.56	1763.30
217.78	1757.16
218.00	1742.82
218.22	1724.39
218.44	1720.29
218.66	1626.09
218.87	1837.03
219.09	1576.94
219.31	1789.92
219.53	1748.97
219.75	1681.38
219.97	1654.76
220.19	1681.38
220.41	1687.53
220.63	1767.40
220.85	1705.96
221.06	1667.05
221.28	1834.98
221.50	1765.35
221.72	1691.62
221.94	1687.53
222.16	1761.25
222.38	1759.21
222.60	1728.49
222.82	1638.38
223.03	1791.97
223.25	1726.44
223.47	1740.77
223.69	1787.88
223.91	1724.39
224.13	1724.39
224.35	1699.81
224.57	1765.35
224.78	1724.39
225.00	1626.09
225.22	1714.15
225.44	1683.43
225.66	1755.11
225.88	1619.94
226.10	1759.21
226.32	1695.72
226.53	1832.93
226.75	1716.20
226.97	1726.44
227.19	1742.82
227.41	1701.86
227.63	1675.24
227.85	1619.94
228.06	1714.15
228.28	1685.48
228.50	1804.26
228.72	1603.56
228.94	1679.33
229.16	1652.71
229.37	1593.32
229.59	1642.47
229.81	1781.73
230.03	1728.49
230.25	1615.85
230.47	1601.51
230.69	1632.23
230.90	1767.40
231.12	1648.61
231.34	1718.25
231.56	1716.20
231.78	1607.66
232.00	1650.66
232.21	1687.53
232.43	1800.16
232.65	1599.46
232.87	1763.30
233.09	1632.23
233.30	1716.20
233.52	1773.54
233.74	1720.29
233.96	1685.48
234.18	1789.92
234.40	1669.09
234.61	1851.36
234.83	1615.85
235.05	1687.53
235.27	1853.41
235.49	1806.31
235.70	1753.06
235.92	1820.64
236.14	1742.82
236.36	1837.03
236.58	1693.67
236.79	1746.92
237.01	1718.25
237.23	1560.55
237.45	1847.27
237.67	1695.72
237.88	1630.18
238.10	1847.27
238.32	1673.19
238.54	1687.53
238.76	1683.43
238.97	1665.00
239.19	1576.94
239.41	1724.39
239.63	1787.88
239.85	1744.87
240.06	1728.49
240.28	1689.57
240.50	1701.86
240.72	1673.19
240.93	1669.09
241.15	1740.77
241.37	1746.92
241.59	1757.16
241.81	1687.53
242.02	1740.77
242.24	1730.53
242.46	1705.96
242.68	1699.81
242.89	1763.30
243.11	1716.20
243.33	1714.15
243.55	1724.39
243.76	1759.21
243.98	1665.00
244.20	1687.53
244.42	1740.77
244.64	1720.29
244.85	1583.08
245.07	1673.19
245.29	1681.38
245.51	1703.91
245.72	1767.40
245.94	1767.40
246.16	1677.29
246.38	1748.97
246.59	1640.42
246.81	1611.75
247.03	1685.48
247.24	1605.61
247.46	1624.04
247.68	1716.20
247.90	1714.15
248.11	1687.53
248.33	1841.12
248.55	1609.70
248.77	1779.68
248.98	1724.39
249.20	1757.16
249.42	1628.14
249.64	1734.63
249.85	1744.87
250.07	1650.66
250.29	1845.22
250.50	1822.69
250.72	1705.96
250.94	1699.81
251.16	1816.55
251.37	1789.92
251.59	1710.05
251.81	1689.57
252.02	1796.07
252.24	1726.44
252.46	1771.49
252.68	1603.56
252.89	1693.67
253.11	1648.61
253.33	1746.92
253.54	1787.88
253.76	1677.29
253.98	1689.57
254.20	1755.11
254.41	1611.75
254.63	1755.11
254.85	1654.76
255.06	1738.73
255.28	1796.07
255.50	1710.05
255.71	1619.94
255.93	1669.09
256.15	1662.95
256.36	1781.73
256.58	1699.81
256.80	1726.44
257.02	1720.29
257.23	1765.35
257.45	1738.73
257.67	1748.97
257.88	1679.33
258.10	1779.68
258.32	1783.78
258.53	1771.49
258.75	1826.79
258.97	1671.14
259.18	1742.82
259.40	1755.11
259.62	1798.12
259.83	1837.03
260.05	1716.20
260.27	1976.29
260.48	1779.68
260.70	1634.28
260.92	1667.05
261.13	1820.64
261.35	1710.05
261.57	1798.12
261.78	1681.38
262.00	1681.38
262.22	1703.91
262.43	1673.19
262.65	1587.18
262.86	1642.47
263.08	1769.44
263.30	1705.96
263.51	1667.05
263.73	1644.52
263.95	1802.21
264.16	1699.81
264.38	1687.53
264.60	1648.61
264.81	1667.05
265.03	1755.11
265.25	1693.67
265.46	1673.19
265.68	1779.68
265.89	1746.92
266.11	1628.14
266.33	1714.15
266.54	1789.92
266.76	1820.64
266.98	1755.11
267.19	1886.18
267.41	1691.62
267.62	1701.86
267.84	1648.61
268.06	1744.87
268.27	1751.01
268.49	1693.67
268.70	1718.25
268.92	1738.73
269.14	1671.14
269.35	1640.42
269.57	1718.25
269.79	1812.45
270.00	1595.37
270.22	1802.21
270.43	1710.05
270.65	1591.27
270.87	1724.39
271.08	1732.58
271.30	1791.97
271.51	1642.47
271.73	1691.62
271.95	1748.97
272.16	1671.14
272.38	1722.34
272.59	1669.09
272.81	1697.77
273.02	1671.14
273.24	1804.26
273.46	1746.92
273.67	1738.73
273.89	1710.05
274.10	1665.00
274.32	1781.73
274.54	1773.54
274.75	1777.64
274.97	1675.24
275.18	1783.78
275.40	1728.49
275.61	1671.14
275.83	1665.00
276.05	1679.33
276.26	1751.01
276.48	1705.96
276.69	1636.33
276.91	1689.57
277.12	1859.56
277.34	1763.30
277.55	1751.01
277.77	1673.19
277.99	1718.25
278.20	1650.66
278.42	1693.67
278.63	1624.04
278.85	1615.85
279.06	1710.05
279.28	1710.05
279.49	1712.10
279.71	1757.16
279.93	1759.21
280.14	1769.44
280.36	1693.67
280.57	1779.68
280.79	1738.73
281.00	1669.09
281.22	1705.96
281.43	1714.15
281.65	1607.66
281.86	1695.72
282.08	1673.19
282.29	1841.12
282.51	1628.14
282.73	1607.66
282.94	1570.79
283.16	1837.03
283.37	1783.78
283.59	1740.77
283.80	1697.77
284.02	1652.71
284.23	1697.77
284.45	1665.00
284.66	1724.39
284.88	1679.33
285.09	1767.40
285.31	1708.01
285.52	1773.54
285.74	1646.57
285.95	1755.11
286.17	1746.92
286.38	1748.97
286.60	1656.81
286.81	1789.92
287.03	1679.33
287.24	1755.11
287.46	1755.11
287.67	1736.68
287.89	1820.64
288.10	1693.67
288.32	1708.01
288.53	1748.97
288.75	1744.87
288.96	1834.98
289.18	1689.57
289.39	1761.25
289.61	1728.49
289.82	1839.08
290.04	1806.31
290.25	1646.57
290.47	1679.33
290.68	1775.59
290.90	1724.39
291.11	1697.77
291.33	1724.39
291.54	1621.99
291.76	1681.38
291.97	1708.01
292.18	1708.01
292.40	1652.71
292.61	1734.63
292.83	1816.55
293.04	1667.05
293.26	1710.05
293.47	1697.77
293.69	1599.46
293.90	1671.14
294.12	1757.16
294.33	1738.73
294.55	1669.09
294.76	1787.88
294.97	1724.39
295.19	1818.60
295.40	1714.15
295.62	1730.53
295.83	1769.44
296.05	1667.05
296.26	1624.04
296.48	1617.90
296.69	1665.00
296.90	1718.25
297.12	1791.97
297.33	1820.64
297.55	1720.29
297.76	1726.44
297.98	1742.82
298.19	1689.57
298.41	1726.44
298.62	1673.19
298.83	1773.54
299.05	1771.49
299.26	1693.67
299.48	1652.71
299.69	1765.35
299.90	1679.33
300.12	1642.47
300.33	1755.11
300.55	1736.68
300.76	1769.44
300.98	1736.68
301.19	1757.16
301.40	1675.24
301.62	1671.14
301.83	1744.87
302.05	1642.47
302.26	1773.54
302.47	1667.05
302.69	1677.29
302.90	1669.09
303.12	1558.50
303.33	1785.83
303.54	1746.92
303.76	1732.58
303.97	1691.62
304.19	1771.49
304.40	1615.85
304.61	1740.77
304.83	1812.45
305.04	1701.86
305.26	1724.39
305.47	1755.11
305.68	1763.30
305.90	1703.91
306.11	1808.36
306.33	1757.16
306.54	1742.82
306.75	1673.19
306.97	1581.03
307.18	1656.81
307.39	1683.43
307.61	1755.11
307.82	1662.95
308.04	1671.14
308.25	1677.29
308.46	1767.40
308.68	1697.77
308.89	1638.38
309.10	1812.45
309.32	1769.44
309.53	1755.11
309.74	1753.06
309.96	1697.77
310.17	1746.92
310.39	1763.30
310.60	1777.64
310.81	1712.10
311.03	1701.86
311.24	1712.10
311.45	1689.57
311.67	1755.11
311.88	1689.57
312.09	1699.81
312.31	1601.51
312.52	1757.16
312.73	1613.80
312.95	1669.09
313.16	1640.42
313.37	1777.64
313.59	1744.87
313.80	1742.82
314.01	1816.55
314.23	1656.81
314.44	1724.39
314.65	1589.22
314.87	1697.77
315.08	1720.29
315.29	1673.19
315.51	1609.70
315.72	1669.09
315.93	1847.27
316.15	1740.77
316.36	1718.25
316.57	1652.71
316.79	1755.11
317.00	1740.77
317.21	1703.91
317.43	1646.57
317.64	1669.09
317.85	1714.15
318.07	1658.85
318.28	1761.25
318.49	1841.12
318.70	2009.06
318.92	1900.52
319.13	1841.12
319.34	1916.90
319.56	1808.36
319.77	1828.84
319.98	1828.84
320.20	1851.36
320.41	1796.07
320.62	1757.16
320.83	1753.06
321.05	1892.32
321.26	1710.05
321.47	1794.02
321.69	1808.36
321.90	1624.04
322.11	1658.85
322.32	1705.96
322.54	1763.30
322.75	1691.62
322.96	1845.22
323.18	1697.77
323.39	1681.38
323.60	1662.95
323.81	1724.39
324.03	1677.29
324.24	1701.86
324.45	1789.92
324.66	1718.25
324.88	1812.45
325.09	1740.77
325.30	1656.81
325.52	1761.25
325.73	1718.25
325.94	1642.47
326.15	1660.90
326.37	1720.29
326.58	1884.13
326.79	1701.86
327.00	1656.81
327.22	1755.11
327.43	1753.06
327.64	1679.33
327.85	1742.82
328.07	1673.19
328.28	1847.27
328.49	1734.63
328.70	1636.33
328.92	1703.91
329.13	1658.85
329.34	1753.06
329.55	1710.05
329.76	1736.68
329.98	1722.34
330.19	1796.07
330.40	1720.29
330.61	1636.33
330.83	1771.49
331.04	1624.04
331.25	1677.29
331.46	1703.91
331.68	1648.61
331.89	1736.68
332.10	1695.72
332.31	1689.57
332.52	1724.39
332.74	1826.79
332.95	1644.52
333.16	1648.61
333.37	1751.01
333.58	1662.95
333.80	1693.67
334.01	1697.77
334.22	1734.63
334.43	1744.87
334.64	1697.77
334.86	1591.27
335.07	1589.22
335.28	1791.97
335.49	1642.47
335.70	1693.67
335.92	1789.92
336.13	1837.03
336.34	1730.53
336.55	1736.68
336.76	1744.87
336.98	1597.42
337.19	1718.25
337.40	1832.93
337.61	1816.55
337.82	1683.43
338.04	1808.36
338.25	1632.23
338.46	1687.53
338.67	1722.34
338.88	1640.42
339.09	1662.95
339.31	1718.25
339.52	1619.94
339.73	1734.63
339.94	1783.78
340.15	1777.64
340.36	1626.09
340.58	1656.81
340.79	1697.77
341.00	1812.45
341.21	1669.09
341.42	1828.84
341.63	1669.09
341.85	1730.53
342.06	1665.00
342.27	1656.81
342.48	1775.59
342.69	1669.09
342.90	1732.58
343.12	1822.69
343.33	1722.34
343.54	1726.44
343.75	1699.81
343.96	1677.29
344.17	1619.94
344.38	1716.20
344.60	1660.90
344.81	1626.09
345.02	1740.77
345.23	1808.36
345.44	1779.68
345.65	1775.59
345.86	1740.77
346.07	1718.25
346.29	1699.81
346.50	1714.15
346.71	1714.15
346.92	1744.87
347.13	1785.83
347.34	1683.43
347.55	1740.77
347.76	1802.21
347.98	1675.24
348.19	1691.62
348.40	1714.15
348.61	1691.62
348.82	1859.56
349.03	1742.82
349.24	1705.96
349.45	1798.12
349.66	1617.90
349.88	1642.47
350.09	1626.09
350.30	1812.45
350.51	1812.45
350.72	1728.49
350.93	1763.30
351.14	1726.44
351.35	1703.91
351.56	1624.04
351.77	1681.38
351.99	1775.59
352.20	1744.87
352.41	1744.87
352.62	1581.03
352.83	1742.82
353.04	1683.43
353.25	1693.67
353.46	1763.30
353.67	1763.30
353.88	1597.42
354.09	1751.01
354.30	1699.81
354.52	1755.11
354.73	1794.02
354.94	1710.05
355.15	1712.10
355.36	1837.03
355.57	1726.44
355.78	1755.11
355.99	1722.34
356.20	1675.24
356.41	1744.87
356.62	1738.73
356.83	1734.63
357.04	1808.36
357.25	1654.76
357.46	1775.59
357.68	1591.27
357.89	1644.52
358.10	1761.25
358.31	1699.81
358.52	1755.11
358.73	1677.29
358.94	1681.38
359.15	1681.38
359.36	1738.73
359.57	1738.73
359.78	1701.86
359.99	1755.11
360.20	1615.85
360.41	1681.38
360.62	1734.63
360.83	1728.49
361.04	1681.38
361.25	1755.11
361.46	1785.83
361.67	1736.68
361.88	1800.16
362.09	1738.73
362.30	1689.57
362.51	1681.38
362.72	1691.62
362.93	1796.07
363.14	1744.87
363.35	1705.96
363.56	1703.91
363.78	1785.83
363.99	1771.49
364.20	1673.19
364.41	1783.78
364.62	1787.88
364.83	1714.15
365.04	1669.09
365.25	1798.12
365.46	1800.16
365.67	1697.77
365.88	1673.19
366.09	1732.58
366.30	1716.20
366.51	1751.01
366.72	1667.05
366.93	1722.34
367.14	1748.97
367.35	1796.07
367.56	1751.01
367.77	1783.78
367.98	1660.90
368.18	1708.01
368.39	1779.68
368.60	1685.48
368.81	1714.15
369.02	1701.86
369.23	1685.48
369.44	1589.22
369.65	1675.24
369.86	1705.96
370.07	1828.84
370.28	1675.24
370.49	1730.53
370.70	1767.40
370.91	1636.33
371.12	1646.57
371.33	1716.20
371.54	1722.34
371.75	1841.12
371.96	1587.18
372.17	1675.24
372.38	1669.09
372.59	1738.73
372.80	1609.70
373.01	1677.29
373.22	1691.62
373.43	1814.50
373.64	1708.01
373.85	1800.16
374.06	1861.60
374.26	1742.82
374.47	1679.33
374.68	1744.87
374.89	1734.63
375.10	1767.40
375.31	1785.83
375.52	1826.79
375.73	1646.57
375.94	1689.57
376.15	1798.12
376.36	1718.25
376.57	1662.95
376.78	1648.61
376.99	1708.01
377.20	1761.25
377.40	1693.67
377.61	1802.21
377.82	1689.57
378.03	1767.40
378.24	1771.49
378.45	1681.38
378.66	1691.62
378.87	1587.18
379.08	1640.42
379.29	1796.07
379.50	1783.78
379.71	1734.63
379.91	1773.54
380.12	1697.77
380.33	1693.67
380.54	1771.49
380.75	1714.15
380.96	1703.91
381.17	1693.67
381.38	1697.77
381.59	1703.91
381.80	1699.81
382.00	1865.70
382.21	1757.16
382.42	1859.56
382.63	1931.23
382.84	1757.16
383.05	1775.59
383.26	1841.12
383.47	1708.01
383.68	1730.53
383.88	1796.07
384.09	1726.44
384.30	1820.64
384.51	1722.34
384.72	1642.47
384.93	1628.14
385.14	1726.44
385.35	1783.78
385.55	1687.53
385.76	1767.40
385.97	1640.42
386.18	1636.33
386.39	1669.09
386.60	1697.77
386.81	1738.73
387.02	1730.53
387.22	1695.72
387.43	1808.36
387.64	1834.98
387.85	1855.46
388.06	2193.37
388.27	4663.22
388.48	9056.12
388.68	11382.61
388.89	13453.11
389.10	13907.76
389.31	11923.27
389.52	9625.45
389.73	8550.27
389.93	7872.39
390.14	7235.47
390.35	6684.57
390.56	6012.84
390.77	4984.76
390.98	3887.04
391.18	3006.42
391.39	2392.03
391.60	1984.48
391.81	1841.12
392.02	1667.05
392.23	1810.40
392.43	1791.97
392.64	1818.60
392.85	1751.01
393.06	1787.88
393.27	1724.39
393.47	1677.29
393.68	1740.77
393.89	1720.29
394.10	1798.12
394.31	1718.25
394.52	1701.86
394.72	1646.57
394.93	1789.92
395.14	1665.00
395.35	1724.39
395.56	1681.38
395.76	1744.87
395.97	1853.41
396.18	1927.14
396.39	1945.57
396.60	2140.13
396.80	1865.70
397.01	1853.41
397.22	1970.15
397.43	1853.41
397.64	1742.82
397.84	1783.78
398.05	1882.08
398.26	1800.16
398.47	1761.25
398.67	1804.26
398.88	1740.77
399.09	1665.00
399.30	1701.86
399.51	1689.57
399.71	1701.86
399.92	1689.57
400.13	1791.97
400.34	1722.34
400.54	1658.85
400.75	1865.70
400.96	1730.53
401.17	1794.02
401.37	1787.88
401.58	1710.05
401.79	1699.81
402.00	1855.46
402.21	2101.22
402.41	1972.19
402.62	2072.54
402.83	2152.42
403.04	2052.06
403.24	2150.37
403.45	1955.81
403.66	2007.01
403.87	2002.91
404.07	1925.09
404.28	1939.43
404.49	1882.08
404.70	1804.26
404.90	1742.82
405.11	1710.05
405.32	1785.83
405.52	1763.30
405.73	1667.05
405.94	1660.90
406.15	1804.26
406.35	1757.16
406.56	1775.59
406.77	1665.00
406.98	1722.34
407.18	1740.77
407.39	1757.16
407.60	1714.15
407.80	1804.26
408.01	1728.49
408.22	1710.05
408.43	1619.94
408.63	1804.26
408.84	1740.77
409.05	1761.25
409.25	1646.57
409.46	1705.96
409.67	1644.52
409.88	1648.61
410.08	1677.29
410.29	1714.15
410.50	1789.92
410.70	1787.88
410.91	1646.57
411.12	1705.96
411.32	1720.29
411.53	1705.96
411.74	1816.55
411.95	1861.60
412.15	1748.97
412.36	1855.46
412.57	1751.01
412.77	1845.22
412.98	1699.81
413.19	1660.90
413.39	1777.64
413.60	1724.39
413.81	1804.26
414.01	1714.15
414.22	1794.02
414.43	1748.97
414.63	1650.66
414.84	1769.44
415.05	1650.66
415.25	1578.98
415.46	1712.10
415.67	1683.43
415.87	1822.69
416.08	1701.86
416.29	1718.25
416.49	1789.92
416.70	1665.00
416.91	1705.96
417.11	1748.97
417.32	1818.60
417.53	1746.92
417.73	1689.57
417.94	1734.63
418.15	1681.38
418.35	1705.96
418.56	1695.72
418.77	1875.94
418.97	1724.39
419.18	1697.77
419.38	1615.85
419.59	1689.57
419.80	1796.07
420.00	1693.67
420.21	1728.49
420.42	1777.64
420.62	1685.48
420.83	1722.34
421.04	1730.53
421.24	1632.23
421.45	1720.29
421.65	1708.01
421.86	1648.61
422.07	1767.40
422.27	1746.92
422.48	1710.05
422.69	1677.29
422.89	1718.25
423.10	1681.38
423.30	1714.15
423.51	1716.20
423.72	1705.96
423.92	1791.97
424.13	1613.80
424.33	1724.39
424.54	1785.83
424.75	1689.57
424.95	1787.88
425.16	1722.34
425.36	1703.91
425.57	1673.19
425.78	1726.44
425.98	1738.73
426.19	1656.81
426.39	1738.73
426.60	1757.16
426.81	1738.73
427.01	1722.34
427.22	1695.72
427.42	1605.61
427.63	1605.61
427.83	1785.83
428.04	1900.52
428.25	1773.54
428.45	1806.31
428.66	1855.46
428.86	1681.38
429.07	1718.25
429.28	1648.61
429.48	1667.05
429.69	1712.10
429.89	1738.73
430.10	1626.09
430.30	1755.11
430.51	1830.88
430.71	1646.57
430.92	1677.29
431.13	1662.95
431.33	1759.21
431.54	1728.49
431.74	1746.92
431.95	1814.50
432.15	1714.15
432.36	1744.87
432.56	1806.31
432.77	1884.13
432.98	1796.07
433.18	1718.25
433.39	1687.53
433.59	1763.30
433.80	1804.26
434.00	1751.01
434.21	1652.71
434.41	1621.99
434.62	1890.28
434.82	1681.38
435.03	1671.14
435.23	1677.29
435.44	1574.89
435.64	1705.96
435.85	1791.97
436.06	1738.73
436.26	1724.39
436.47	1636.33
436.67	1638.38
436.88	1667.05
437.08	1771.49
437.29	1818.60
437.49	1757.16
437.70	1757.16
437.90	1685.48
438.11	1804.26
438.31	1746.92
438.52	1839.08
438.72	1863.65
438.93	1998.82
439.13	1857.51
439.34	1832.93
439.54	1753.06
439.75	1796.07
439.95	1837.03
440.16	1728.49
440.36	1730.53
440.57	1800.16
440.77	1826.79
440.98	1660.90
441.18	1722.34
441.39	1734.63
441.59	1724.39
441.80	1826.79
442.00	1626.09
442.21	1767.40
442.41	1705.96
442.62	1806.31
442.82	1712.10
443.02	1775.59
443.23	1714.15
443.43	1759.21
443.64	1843.17
443.84	1777.64
444.05	1800.16
444.25	1720.29
444.46	1734.63
444.66	1693.67
444.87	1804.26
445.07	1724.39
445.28	1761.25
445.48	1812.45
445.69	1839.08
445.89	1832.93
446.09	1742.82
446.30	2062.30
446.50	2547.67
446.71	4243.39
446.91	5138.35
447.12	5779.37
447.32	5935.01
447.53	5289.90
447.73	4360.13
447.93	3964.87
448.14	3573.71
448.34	3450.83
448.55	3213.26
448.75	3033.04
448.96	2947.03
449.16	2641.88
449.36	2465.75
449.57	2035.68
449.77	1923.04
449.98	1779.68
450.18	1773.54
450.39	1853.41
450.59	1779.68
450.79	1699.81
451.00	1712.10
451.20	1863.65
451.41	1751.01
451.61	1816.55
451.81	1722.34
452.02	1742.82
452.22	1701.86
452.43	1652.71
452.63	1660.90
452.84	1736.68
453.04	1669.09
453.24	1812.45
453.45	1736.68
453.65	1703.91
453.86	1722.34
454.06	1808.36
454.26	1689.57
454.47	1732.58
454.67	1927.14
454.87	1802.21
455.08	1730.53
455.28	1837.03
455.49	1781.73
455.69	1718.25
455.89	1794.02
456.10	1775.59
456.30	1683.43
456.51	1742.82
456.71	1882.08
456.91	1802.21
457.12	1728.49
457.32	1740.77
457.52	1632.23
457.73	1849.32
457.93	1765.35
458.14	1728.49
458.34	1660.90
458.54	1800.16
458.75	1689.57
458.95	1757.16
459.15	1816.55
459.36	1718.25
459.56	1779.68
459.76	1914.85
459.97	1730.53
460.17	1722.34
460.37	1753.06
460.58	1755.11
460.78	1753.06
460.99	1775.59
461.19	1757.16
461.39	1763.30
461.60	1705.96
461.80	1695.72
462.00	1738.73
462.21	1693.67
462.41	1617.90
462.61	1667.05
462.82	1660.90
463.02	1828.84
463.22	1734.63
463.43	1736.68
463.63	1759.21
463.83	1824.74
464.04	1699.81
464.24	1728.49
464.44	1722.34
464.64	1808.36
464.85	1783.78
465.05	1845.22
465.25	1687.53
465.46	1726.44
465.66	1710.05
465.86	1748.97
466.07	1720.29
466.27	1714.15
466.47	1660.90
466.68	1730.53
466.88	1798.12
467.08	1789.92
467.29	1777.64
467.49	1691.62
467.69	1751.01
467.89	1697.77
468.10	1755.11
468.30	1779.68
468.50	1771.49
468.71	1886.18
468.91	1619.94
469.11	1910.75
469.31	1757.16
469.52	1710.05
469.72	1789.92
469.92	1847.27
470.13	1742.82
470.33	1724.39
470.53	1847.27
470.73	2199.52
470.94	2609.11
471.14	2656.22
471.34	2938.84
471.54	2848.72
471.75	2525.15
471.95	2320.35
472.15	2299.87
472.36	2230.24
472.56	2205.66
472.76	2174.94
472.96	2052.06
473.17	1980.39
473.37	2021.35
473.57	1875.94
473.77	1880.04
473.98	1759.21
474.18	1669.09
474.38	1845.22
474.58	1621.99
474.79	1730.53
474.99	1740.77
475.19	1714.15
475.39	1703.91
475.60	1759.21
475.80	1734.63
476.00	1693.67
476.20	1730.53
476.41	1751.01
476.61	1794.02
476.81	1759.21
477.01	1673.19
477.21	1812.45
477.42	1767.40
477.62	1628.14
477.82	1826.79
478.02	1712.10
478.23	1771.49
478.43	1626.09
478.63	1662.95
478.83	1771.49
479.03	1671.14
479.24	1826.79
479.44	1730.53
479.64	1638.38
479.84	1593.32
480.04	1687.53
480.25	1785.83
480.45	1705.96
480.65	1800.16
480.85	1812.45
481.06	1638.38
481.26	1689.57
481.46	1740.77
481.66	1761.25
481.86	1685.48
482.06	1781.73
482.27	1656.81
482.47	1814.50
482.67	1695.72
482.87	1634.28
483.07	1775.59
483.28	1679.33
483.48	1751.01
483.68	1611.75
483.88	1675.24
484.08	1615.85
484.29	1650.66
484.49	1640.42
484.69	1697.77
484.89	1816.55
485.09	1753.06
485.29	1783.78
485.50	1800.16
485.70	1722.34
485.90	1769.44
486.10	1748.97
486.30	1703.91
486.50	1775.59
486.71	1722.34
486.91	1773.54
487.11	1771.49
487.31	1630.18
487.51	1740.77
487.71	1671.14
487.91	1732.58
488.12	1656.81
488.32	1673.19
488.52	1710.05
488.72	1665.00
488.92	1705.96
489.12	1804.26
489.32	1761.25
489.53	1806.31
489.73	1716.20
489.93	1820.64
490.13	1691.62
490.33	1648.61
490.53	1787.88
490.73	1781.73
490.94	1587.18
491.14	1796.07
491.34	1904.61
491.54	2054.11
491.74	2795.48
491.94	3282.89
492.14	3483.59
492.34	3428.30
492.54	3037.14
492.75	2701.27
492.95	2602.97
493.15	2435.03
493.35	2414.56
493.55	2326.49
493.75	2263.01
493.95	2191.33
494.15	2131.94
494.35	1976.29
494.56	1880.04
494.76	1826.79
494.96	1853.41
495.16	1757.16
495.36	1708.01
495.56	1740.77
495.76	1812.45
495.96	1724.39
496.16	1761.25
496.36	1814.50
496.56	1763.30
496.77	1726.44
496.97	1701.86
497.17	1814.50
497.37	1669.09
497.57	1708.01
497.77	1681.38
497.97	1679.33
498.17	1748.97
498.37	1683.43
498.57	1720.29
498.77	1705.96
498.97	1777.64
499.17	1796.07
499.38	1720.29
499.58	1849.32
499.78	1800.16
499.98	1798.12
500.18	1740.77
500.38	1689.57
500.58	1888.23
500.78	2500.57
500.98	4614.07
501.18	6522.78
501.38	8173.44
501.58	9058.17
501.78	8658.81
501.98	6739.87
502.18	5758.89
502.38	5029.81
502.58	4569.02
502.78	4001.73
502.98	4014.02
503.18	3903.43
503.38	3551.18
503.59	3131.34
503.79	2908.12
503.99	2617.30
504.19	2420.70
504.39	2314.20
504.59	2334.68
504.79	2396.12
504.99	2287.58
505.19	1986.53
505.39	1974.24
505.59	1988.58
505.79	1933.28
505.99	1959.91
506.19	1892.32
506.39	1863.65
506.59	1849.32
506.79	1812.45
506.99	1834.98
507.19	1751.01
507.39	1783.78
507.59	1765.35
507.79	1644.52
507.99	1771.49
508.19	1691.62
508.39	1685.48
508.59	1771.49
508.79	1771.49
508.99	1804.26
509.19	1720.29
509.39	1742.82
509.59	1718.25
509.79	1703.91
509.99	1695.72
510.19	1767.40
510.39	1740.77
510.59	1757.16
510.79	1759.21
510.99	1720.29
511.19	1705.96
511.39	1845.22
511.59	1763.30
511.79	1828.84
511.99	1714.15
512.19	1834.98
512.38	1757.16
512.58	1734.63
512.78	1677.29
512.98	1841.12
513.18	1816.55
513.38	1642.47
513.58	1757.16
513.78	1705.96
513.98	1656.81
514.18	1665.00
514.38	1701.86
514.58	1759.21
514.78	1697.77
514.98	1675.24
515.18	1751.01
515.38	1642.47
515.58	1871.84
515.78	1703.91
515.98	1734.63
516.18	1767.40
516.38	1683.43
516.57	1681.38
516.77	1763.30
516.97	1777.64
517.17	1705.96
517.37	1605.61
517.57	1779.68
517.77	1714.15
517.97	1728.49
518.17	1757.16
518.37	1705.96
518.57	1691.62
518.77	1689.57
518.97	1736.68
519.16	1775.59
519.36	1806.31
519.56	1689.57
519.76	1771.49
519.96	1748.97
520.16	1753.06
520.36	1669.09
520.56	1810.40
520.76	1722.34
520.96	1736.68
521.16	1804.26
521.35	1841.12
521.55	1812.45
521.75	1751.01
521.95	1646.57
522.15	1701.86
522.35	1685.48
522.55	1675.24
522.75	1708.01
522.95	1777.64
523.14	1728.49
523.34	1746.92
523.54	1755.11
523.74	1818.60
523.94	1683.43
524.14	1681.38
524.34	1806.31
524.54	1888.23
524.73	1732.58
524.93	1722.34
525.13	1761.25
525.33	1673.19
525.53	1906.66
525.73	1800.16
525.93	1787.88
526.13	1708.01
526.32	1734.63
526.52	1722.34
526.72	1802.21
526.92	1732.58
527.12	1669.09
527.32	1673.19
527.52	1837.03
527.71	1751.01
527.91	1722.34
528.11	1705.96
528.31	1732.58
528.51	1718.25
528.71	1765.35
528.90	1851.36
529.10	1791.97
529.30	1783.78
529.50	1656.81
529.70	1669.09
529.90	1703.91
530.09	1757.16
530.29	1658.85
530.49	1658.85
530.69	1884.13
530.89	1673.19
531.09	1812.45
531.28	1730.53
531.48	1847.27
531.68	1767.40
531.88	1669.09
532.08	1744.87
532.28	1736.68
532.47	1791.97
532.67	1796.07
532.87	1779.68
533.07	1726.44
533.27	1751.01
533.46	1732.58
533.66	1800.16
533.86	1822.69
534.06	1800.16
534.26	1701.86
534.45	1767.40
534.65	1746.92
534.85	1677.29
535.05	1699.81
535.25	1738.73
535.44	1570.79
535.64	1808.36
535.84	1728.49
536.04	1748.97
536.24	1714.15
536.43	1683.43
536.63	1796.07
536.83	1755.11
537.03	1697.77
537.22	1677.29
537.42	1591.27
537.62	1841.12
537.82	1699.81
538.02	1804.26
538.21	1783.78
538.41	1929.19
538.61	1787.88
538.81	1724.39
539.00	1787.88
539.20	1683.43
539.40	1736.68
539.60	1656.81
539.79	1820.64
539.99	1781.73
540.19	1738.73
540.39	1781.73
540.58	1781.73
540.78	1783.78
540.98	1691.62
541.18	1779.68
541.37	1769.44
541.57	1693.67
541.77	1794.02
541.97	1660.90
542.16	1628.14
542.36	1738.73
542.56	1667.05
542.76	1851.36
542.95	1755.11
543.15	1785.83
543.35	1777.64
543.54	1624.04
543.74	1748.97
543.94	1820.64
544.14	1681.38
544.33	1785.83
544.53	1691.62
544.73	1660.90
544.93	1740.77
545.12	1802.21
545.32	1779.68
545.52	1720.29
545.71	1689.57
545.91	1732.58
546.11	1720.29
546.30	1701.86
546.50	1712.10
546.70	1667.05
546.90	1746.92
547.09	1632.23
547.29	1705.96
547.49	1740.77
547.68	1787.88
547.88	1630.18
548.08	1742.82
548.27	2162.66
548.47	1748.97
548.67	1720.29
548.87	1726.44
549.06	1759.21
549.26	1814.50
549.46	1861.60
549.65	1742.82
549.85	1744.87
550.05	1755.11
550.24	1593.32
550.44	1724.39
550.64	1710.05
550.83	1753.06
551.03	1791.97
551.23	1781.73
551.42	1658.85
551.62	1736.68
551.82	1695.72
552.01	1730.53
552.21	1802.21
552.41	1789.92
552.60	1794.02
552.80	1798.12
553.00	1687.53
553.19	1806.31
553.39	1767.40
553.59	1732.58
553.78	1751.01
553.98	1765.35
554.17	1595.37
554.37	1738.73
554.57	1787.88
554.76	1648.61
554.96	1705.96
555.16	1798.12
555.35	1755.11
555.55	1804.26
555.75	1695.72
555.94	1775.59
556.14	1691.62
556.33	1722.34
556.53	1744.87
556.73	1675.24
556.92	1744.87
557.12	1855.46
557.32	1853.41
557.51	1802.21
557.71	1894.37
557.90	1787.88
558.10	1791.97
558.30	1658.85
558.49	1812.45
558.69	1683.43
558.88	1767.40
559.08	1769.44
559.28	1779.68
559.47	1781.73
559.67	1877.99
559.86	1820.64
560.06	1769.44
560.26	1771.49
560.45	1652.71
560.65	1759.21
560.84	1839.08
561.04	1783.78
561.24	1757.16
561.43	1648.61
561.63	1867.75
561.82	1740.77
562.02	1798.12
562.22	1636.33
562.41	1683.43
562.61	1728.49
562.80	1718.25
563.00	1902.56
563.19	1691.62
563.39	1773.54
563.59	1738.73
563.78	1730.53
563.98	1628.14
564.17	1683.43
564.37	1742.82
564.56	1765.35
564.76	1705.96
564.96	1851.36
565.15	1769.44
565.35	1927.14
565.54	1787.88
565.74	1767.40
565.93	1791.97
566.13	1822.69
566.32	1804.26
566.52	1755.11
566.71	1738.73
566.91	1787.88
567.11	1701.86
567.30	1703.91
567.50	1773.54
567.69	1738.73
567.89	1667.05
568.08	1730.53
568.28	1732.58
568.47	1718.25
568.67	1781.73
568.86	1724.39
569.06	1710.05
569.25	1708.01
569.45	1667.05
569.64	1703.91
569.84	1722.34
570.04	1757.16
570.23	1714.15
570.43	1748.97
570.62	1726.44
570.82	1839.08
571.01	1630.18
571.21	1705.96
571.40	1681.38
571.60	1804.26
571.79	1744.87
571.99	1710.05
572.18	1748.97
572.38	1800.16
572.57	1687.53
572.77	1734.63
572.96	1839.08
573.16	1802.21
573.35	1748.97
573.55	1800.16
573.74	1794.02
573.94	1714.15
574.13	1751.01
574.33	1841.12
574.52	1794.02
574.71	1765.35
574.91	1683.43
575.10	1703.91
575.30	1759.21
575.49	1728.49
575.69	1675.24
575.88	1806.31
576.08	1738.73
576.27	1834.98
576.47	1808.36
576.66	1974.24
576.86	1920.99
577.05	1683.43
577.25	1757.16
577.44	1900.52
577.64	1722.34
577.83	1812.45
578.02	1783.78
578.22	1794.02
578.41	1859.56
578.61	1781.73
578.80	1705.96
579.00	1648.61
579.19	1736.68
579.39	1783.78
579.58	1814.50
579.77	1794.02
579.97	1845.22
580.16	1961.95
580.36	1863.65
580.55	1830.88
580.75	1726.44
580.94	1771.49
581.13	1865.70
581.33	1853.41
581.52	1837.03
581.72	1939.43
581.91	1902.56
582.11	1841.12
582.30	1894.37
582.49	1767.40
582.69	1888.23
582.88	1812.45
583.08	1871.84
583.27	1904.61
583.47	1834.98
583.66	1738.73
583.85	1716.20
584.05	1728.49
584.24	1810.40
584.44	1728.49
584.63	1804.26
584.82	1894.37
585.02	1908.71
585.21	1843.17
585.41	1929.19
585.60	1902.56
585.79	1961.95
585.99	1927.14
586.18	1886.18
586.37	2283.49
586.57	3317.71
586.76	9705.32
586.96	27106.91
587.15	41610.63
587.34	52090.09
587.54	57826.45
587.73	55708.85
587.93	40187.29
588.12	29732.41
588.31	23746.20
588.51	20217.55
588.70	18411.24
588.89	17012.48
589.09	15290.13
589.28	13684.53
589.47	11681.61
589.67	9518.96
589.86	7454.61
590.06	5498.80
590.25	4077.51
590.44	3258.32
590.64	2629.59
590.83	2332.64
591.02	2076.64
591.22	1931.23
591.41	1959.91
591.60	1857.51
591.80	1947.62
591.99	1763.30
592.18	1820.64
592.38	1867.75
592.57	1812.45
592.76	1718.25
592.96	1884.13
593.15	1726.44
593.34	1853.41
593.54	1818.60
593.73	1839.08
593.92	1806.31
594.12	1865.70
594.31	1896.42
594.50	1902.56
594.70	1888.23
594.89	1886.18
595.08	1761.25
595.28	1785.83
595.47	1892.32
595.66	1771.49
595.86	1730.53
596.05	1769.44
596.24	1746.92
596.43	1908.71
596.63	1800.16
596.82	1732.58
597.01	1802.21
597.21	1902.56
597.40	1855.46
597.59	1867.75
597.79	1796.07
597.98	1818.60
598.17	1804.26
598.36	1816.55
598.56	1781.73
598.75	1714.15
598.94	1779.68
599.14	1722.34
599.33	1673.19
599.52	1843.17
599.71	1771.49
599.91	1847.27
600.10	1769.44
600.29	1773.54
600.48	1732.58
600.68	1753.06
600.87	1677.29
601.06	1634.28
601.26	1732.58
601.45	1783.78
601.64	1746.92
601.83	1769.44
602.03	1744.87
602.22	1642.47
602.41	1826.79
602.60	1935.33
602.80	1763.30
602.99	1738.73
603.18	1746.92
603.37	1714.15
603.57	1740.77
603.76	1767.40
603.95	1789.92
604.14	1740.77
604.34	1632.23
604.53	1742.82
604.72	1744.87
604.91	1726.44
605.10	1773.54
605.30	1656.81
605.49	1791.97
605.68	1738.73
605.87	1785.83
606.07	1658.85
606.26	1763.30
606.45	1789.92
606.64	1748.97
606.84	1787.88
607.03	1804.26
607.22	1828.84
607.41	1757.16
607.60	1701.86
607.80	1869.80
607.99	1779.68
608.18	1789.92
608.37	1710.05
608.56	1742.82
608.76	1822.69
608.95	1857.51
609.14	1853.41
609.33	1863.65
609.52	1900.52
609.72	1849.32
609.91	1816.55
610.10	1691.62
610.29	1912.80
610.48	1732.58
610.68	1804.26
610.87	1710.05
611.06	1710.05
611.25	1738.73
611.44	1802.21
611.63	1767.40
611.83	1746.92
612.02	1732.58
612.21	1796.07
612.40	1634.28
612.59	1656.81
612.79	1732.58
612.98	1744.87
613.17	1814.50
613.36	1744.87
613.55	1818.60
613.74	1834.98
613.93	1847.27
614.13	1949.67
614.32	1955.81
614.51	1945.57
614.70	1814.50
614.89	1781.73
615.08	1789.92
615.28	2115.55
615.47	1701.86
615.66	1798.12
615.85	1771.49
616.04	1920.99
616.23	1857.51
616.42	1892.32
616.62	1763.30
616.81	1759.21
617.00	1736.68
617.19	1779.68
617.38	1673.19
617.57	1759.21
617.76	1730.53
617.95	1798.12
618.15	1816.55
618.34	1789.92
618.53	1660.90
618.72	1783.78
618.91	1869.80
619.10	1845.22
619.29	1714.15
619.48	1773.54
619.68	1619.94
619.87	1691.62
620.06	1679.33
620.25	1861.60
620.44	1742.82
620.63	1697.77
620.82	1746.92
621.01	1730.53
621.20	1748.97
621.39	1771.49
621.59	1890.28
621.78	1746.92
621.97	1755.11
622.16	1759.21
622.35	1767.40
622.54	1789.92
622.73	1800.16
622.92	1703.91
623.11	1861.60
623.30	1738.73
623.49	1781.73
623.68	1673.19
623.88	1818.60
624.07	1724.39
624.26	1714.15
624.45	1767.40
624.64	1744.87
624.83	1732.58
625.02	1669.09
625.21	1681.38
625.40	1685.48
625.59	1800.16
625.78	1787.88
625.97	1736.68
626.16	1855.46
626.35	1820.64
626.54	1849.32
626.74	1863.65
626.93	1769.44
627.12	1767.40
627.31	1802.21
627.50	1732.58
627.69	1859.56
627.88	1712.10
628.07	1708.01
628.26	1677.29
628.45	1710.05
628.64	1665.00
628.83	1734.63
629.02	1697.77
629.21	1802.21
629.40	1724.39
629.59	1708.01
629.78	1708.01
629.97	1726.44
630.16	1806.31
630.35	1744.87
630.54	1765.35
630.73	1695.72
630.92	1755.11
631.11	1714.15
631.30	1771.49
631.49	1757.16
631.68	1673.19
631.87	1742.82
632.06	1636.33
632.25	1908.71
632.44	1822.69
632.63	1757.16
632.82	1855.46
633.01	1783.78
633.20	1873.89
633.39	1812.45
633.58	1675.24
633.77	1837.03
633.96	1845.22
634.15	1812.45
634.34	1796.07
634.53	1841.12
634.72	1705.96
634.91	1642.47
635.10	1796.07
635.29	1832.93
635.48	1787.88
635.67	1652.71
635.86	1726.44
636.05	1763.30
636.24	1697.77
636.43	1751.01
636.62	1732.58
636.81	1621.99
637.00	1673.19
637.19	1728.49
637.38	1763.30
637.57	1742.82
637.76	1783.78
637.95	1849.32
638.14	1828.84
638.33	1867.75
638.52	1798.12
638.71	1828.84
638.89	1714.15
639.08	1845.22
639.27	1796.07
639.46	1841.12
639.65	2140.13
639.84	2187.23
640.03	2422.75
640.22	2392.03
640.41	2387.93
640.60	2041.82
640.79	2074.59
640.98	1923.04
641.17	1918.95
641.36	1984.48
641.55	1927.14
641.74	1814.50
641.92	1845.22
642.11	1746.92
642.30	1771.49
642.49	1746.92
642.68	1724.39
642.87	1775.59
643.06	1787.88
643.25	1718.25
643.44	1642.47
643.63	1662.95
643.82	1816.55
644.00	1714.15
644.19	1671.14
644.38	1632.23
644.57	1714.15
644.76	1748.97
644.95	1728.49
645.14	1841.12
645.33	1654.76
645.52	1720.29
645.71	1679.33
645.89	1714.15
646.08	1755.11
646.27	1687.53
646.46	1718.25
646.65	1722.34
646.84	1779.68
647.03	1710.05
647.22	1857.51
647.40	1742.82
647.59	1724.39
647.78	1679.33
647.97	1697.77
648.16	1675.24
648.35	1837.03
648.54	1742.82
648.73	1742.82
648.91	1773.54
649.10	1771.49
649.29	1615.85
649.48	1712.10
649.67	1742.82
649.86	1701.86
650.05	1798.12
650.23	1871.84
650.42	1701.86
650.61	1972.19
650.80	1941.47
650.99	1927.14
651.18	1863.65
651.36	1894.37
651.55	1775.59
651.74	1845.22
651.93	1849.32
652.12	1798.12
652.31	1697.77
652.49	1722.34
652.68	1769.44
652.87	1849.32
653.06	1718.25
653.25	1804.26
653.44	1781.73
653.62	1828.84
653.81	1695.72
654.00	1734.63
654.19	1761.25
654.38	1832.93
654.56	1791.97
654.75	1703.91
654.94	1789.92
655.13	1705.96
655.32	1693.67
655.51	1806.31
655.69	1693.67
655.88	1712.10
656.07	1652.71
656.26	1751.01
656.45	1697.77
656.63	1701.86
656.82	1720.29
657.01	1771.49
657.20	1701.86
657.38	1810.40
657.57	1624.04
657.76	1667.05
657.95	1837.03
658.14	1667.05
658.32	1656.81
658.51	1634.28
658.70	1691.62
658.89	1708.01
659.08	1699.81
659.26	1818.60
659.45	1755.11
659.64	1834.98
659.83	1687.53
660.01	1935.33
660.20	1841.12
660.39	1791.97
660.58	1619.94
660.76	1832.93
660.95	1685.48
661.14	1746.92
661.33	1701.86
661.51	1775.59
661.70	1716.20
661.89	1769.44
662.08	1791.97
662.26	1632.23
662.45	1689.57
662.64	1855.46
662.83	1757.16
663.01	1634.28
663.20	1654.76
663.39	1767.40
663.58	1720.29
663.76	1693.67
663.95	1763.30
664.14	1691.62
664.32	1673.19
664.51	1650.66
664.70	1624.04
664.89	1697.77
665.07	1662.95
665.26	1787.88
665.45	1673.19
665.64	1757.16
665.82	1775.59
666.01	1830.88
666.20	1619.94
666.38	1785.83
666.57	1822.69
666.76	2215.90
666.95	4581.31
667.13	11507.54
667.32	18503.40
667.51	22171.31
667.69	25321.09
667.88	25405.05
668.07	19465.94
668.25	14507.81
668.44	11872.07
668.63	9727.85
668.81	8550.27
669.00	7634.83
669.19	6907.80
669.38	5965.73
669.56	5339.05
669.75	4507.58
669.94	3823.56
670.12	3131.34
670.31	2641.88
670.50	2297.82
670.68	2179.04
670.87	1970.15
671.06	1824.74
671.24	1880.04
671.43	1865.70
671.62	1855.46
671.80	1761.25
671.99	1800.16
672.18	1746.92
672.36	1857.51
672.55	1789.92
672.74	1728.49
672.92	1724.39
673.11	1785.83
673.29	1689.57
673.48	1785.83
673.67	1665.00
673.85	1800.16
674.04	1681.38
674.23	1710.05
674.41	1857.51
674.60	1667.05
674.79	1648.61
674.97	1734.63
675.16	1724.39
675.34	1732.58
675.53	1636.33
675.72	1714.15
675.90	1855.46
676.09	1736.68
676.28	1855.46
676.46	1638.38
676.65	1705.96
676.83	1636.33
677.02	1665.00
677.21	1728.49
677.39	1677.29
677.58	1693.67
677.77	1648.61
677.95	1765.35
678.14	1697.77
678.32	1710.05
678.51	1695.72
678.70	1808.36
678.88	1681.38
679.07	1673.19
679.25	1734.63
679.44	1767.40
679.63	1656.81
679.81	1759.21
680.00	1832.93
680.18	1714.15
680.37	1828.84
680.55	1714.15
680.74	1644.52
680.93	1679.33
681.11	1705.96
681.30	1755.11
681.48	1728.49
681.67	1730.53
681.85	1746.92
682.04	1705.96
682.23	1732.58
682.41	1714.15
682.60	1753.06
682.78	1712.10
682.97	1681.38
683.15	1742.82
683.34	1646.57
683.53	1812.45
683.71	1589.22
683.90	1861.60
684.08	1812.45
684.27	1619.94
684.45	1685.48
684.64	1808.36
684.82	1755.11
685.01	1665.00
685.19	1781.73
685.38	1787.88
685.57	1753.06
685.75	1675.24
685.94	1660.90
686.12	1677.29
686.31	1605.61
686.49	1822.69
686.68	1720.29
686.86	1714.15
687.05	1742.82
687.23	1796.07
687.42	1699.81
687.60	1644.52
687.79	1767.40
687.97	1787.88
688.16	1753.06
688.34	1744.87
688.53	1576.94
688.71	1722.34
688.90	1808.36
689.08	1701.86
689.27	1673.19
689.45	1773.54
689.64	1734.63
689.82	1763.30
690.01	1748.97
690.19	1753.06
690.38	1736.68
690.56	1724.39
690.75	1624.04
690.93	1685.48
691.12	1726.44
691.30	1726.44
691.49	1718.25
691.67	1746.92
691.86	1845.22
692.04	1638.38
692.23	1712.10
692.41	1708.01
692.60	1918.95
692.78	1830.88
692.97	1808.36
693.15	1828.84
693.34	1847.27
693.52	1775.59
693.71	1736.68
693.89	1730.53
694.08	1734.63
694.26	1794.02
694.44	1802.21
694.63	1789.92
694.81	1742.82
695.00	1642.47
695.18	1822.69
695.37	1781.73
695.55	1718.25
695.74	1693.67
695.92	1570.79
696.10	1765.35
696.29	1703.91
696.47	1611.75
696.66	1642.47
696.84	1712.10
697.03	1703.91
697.21	1816.55
697.40	2355.16
697.58	1888.23
697.76	1685.48
697.95	1675.24
698.13	1644.52
698.32	1679.33
698.50	1703.91
698.68	1667.05
698.87	1761.25
699.05	1800.16
699.24	1714.15
699.42	1685.48
699.61	1726.44
699.79	1755.11
699.97	1751.01
700.16	1695.72
700.34	1683.43
700.53	1710.05
700.71	1787.88
700.89	1861.60
701.08	1656.81
701.26	1703.91
701.45	2136.03
701.63	1691.62
701.81	1617.90
702.00	1751.01
702.18	1734.63
702.37	1701.86
702.55	1892.32
702.73	1902.56
702.92	1873.89
703.10	2027.49
703.28	1929.19
703.47	1822.69
703.65	1920.99
703.84	1927.14
704.02	1791.97
704.20	1898.47
704.39	1906.66
704.57	1789.92
704.75	1845.22
704.94	1785.83
705.12	1775.59
705.30	1849.32
705.49	2406.36
705.67	5570.48
705.86	12922.68
706.04	19146.46
706.22	22703.78
706.41	25114.24
706.59	24653.45
706.77	18976.48
706.96	13686.58
707.14	11620.17
707.32	10278.76
707.51	8859.51
707.69	7804.81
707.87	6780.82
708.06	5511.08
708.24	4323.26
708.42	3286.99
708.61	2777.05
708.79	2265.05
708.97	1972.19
709.16	1984.48
709.34	1843.17
709.52	1785.83
709.71	1759.21
709.89	1787.88
710.07	1738.73
710.26	1681.38
710.44	1644.52
710.62	1779.68
710.80	1734.63
710.99	1816.55
711.17	1765.35
711.35	1671.14
711.54	1675.24
711.72	1789.92
711.90	1669.09
712.09	1736.68
712.27	1705.96
712.45	1705.96
712.63	1712.10
712.82	1669.09
713.00	1665.00
713.18	1777.64
713.37	1757.16
713.55	1767.40
713.73	1740.77
713.91	1787.88
714.10	1679.33
714.28	1767.40
714.46	1722.34
714.65	1755.11
714.83	1693.67
715.01	1722.34
715.19	1724.39
715.38	1718.25
715.56	1736.68
715.74	1677.29
715.92	1656.81
716.11	1806.31
716.29	1689.57
716.47	1744.87
716.65	1718.25
716.84	1705.96
717.02	1806.31
717.20	1650.66
717.38	1724.39
717.57	1724.39
717.75	1630.18
717.93	1660.90
718.11	1783.78
718.30	1679.33
718.48	1730.53
718.66	1761.25
718.84	1796.07
719.03	1767.40
719.21	1656.81
719.39	1771.49
719.57	1757.16
719.75	1724.39
719.94	1710.05
720.12	1689.57
720.30	1798.12
720.48	1712.10
720.67	1716.20
720.85	1665.00
721.03	1691.62
721.21	1624.04
721.39	1748.97
721.58	1777.64
721.76	1712.10
721.94	1697.77
722.12	1728.49
722.30	1824.74
722.49	1683.43
722.67	1732.58
722.85	1834.98
723.03	1617.90
723.21	1708.01
723.40	1634.28
723.58	1746.92
723.76	1742.82
723.94	1798.12
724.12	1794.02
724.30	1867.75
724.49	1877.99
724.67	1798.12
724.85	1804.26
725.03	1656.81
725.21	1783.78
725.40	1873.89
725.58	1761.25
725.76	1806.31
725.94	1636.33
726.12	1650.66
726.30	1751.01
726.49	1722.34
726.67	1714.15
726.85	1728.49
727.03	1828.84
727.21	2252.77
727.39	3459.02
727.57	4890.55
727.76	5658.54
727.94	6160.29
728.12	6356.90
728.30	5560.24
728.48	4431.80
728.66	3936.20
728.84	3604.42
729.03	3180.50
729.21	2818.00
729.39	2406.36
729.57	2101.22
729.75	1970.15
729.93	1951.71
730.11	1769.44
730.30	1757.16
730.48	1710.05
730.66	1755.11
730.84	1824.74
731.02	1617.90
731.20	1759.21
731.38	1757.16
731.56	1619.94
731.74	1572.84
731.93	1753.06
732.11	1681.38
732.29	1689.57
732.47	1705.96
732.65	1753.06
732.83	1794.02
733.01	1814.50
733.19	1671.14
733.37	1773.54
733.56	1714.15
733.74	1697.77
733.92	1789.92
734.10	1710.05
734.28	1785.83
734.46	1673.19
734.64	1669.09
734.82	1587.18
735.00	1642.47
735.18	1679.33
735.36	1744.87
735.54	1685.48
735.73	1771.49
735.91	1685.48
736.09	1712.10
736.27	1714.15
736.45	1763.30
736.63	1632.23
736.81	1740.77
736.99	1720.29
737.17	1841.12
737.35	1658.85
737.53	1812.45
737.71	1701.86
737.89	1796.07
738.07	1630.18
738.25	1699.81
738.43	1615.85
738.61	1730.53
738.80	1632.23
738.98	1705.96
739.16	1673.19
739.34	1681.38
739.52	1816.55
739.70	1724.39
739.88	1781.73
740.06	1779.68
740.24	1583.08
740.42	1791.97
740.60	1662.95
740.78	1699.81
740.96	1611.75
741.14	1720.29
741.32	1746.92
741.50	1677.29
741.68	1730.53
741.86	1777.64
742.04	1681.38
742.22	1642.47
742.40	1667.05
742.58	1779.68
742.76	1699.81
742.94	1755.11
743.12	1632.23
743.30	1718.25
743.48	1736.68
743.66	1804.26
743.84	1736.68
744.02	1658.85
744.20	1718.25
744.38	1634.28
744.56	1722.34
744.74	1914.85
744.92	1734.63
745.10	1806.31
745.28	1746.92
745.46	1791.97
745.64	1648.61
745.82	1705.96
746.00	1744.87
746.18	1722.34
746.36	1658.85
746.54	1734.63
746.72	1665.00
746.90	1710.05
747.08	1800.16
747.26	1675.24
747.44	1714.15
747.62	1693.67
747.80	1716.20
747.98	1794.02
748.15	1693.67
748.33	1820.64
748.51	1722.34
748.69	1853.41
748.87	1673.19
749.05	1773.54
749.23	1669.09
749.41	1748.97
749.59	1695.72
749.77	1742.82
749.95	1615.85
750.13	1603.56
750.31	1816.55
750.49	1736.68
750.67	1757.16
750.85	1777.64
751.03	1761.25
751.20	1867.75
751.38	1634.28
751.56	1730.53
751.74	1697.77
751.92	1697.77
752.10	1634.28
752.28	1755.11
752.46	1658.85
752.64	1732.58
752.82	1658.85
753.00	1681.38
753.18	1652.71
753.35	1646.57
753.53	1665.00
753.71	1757.16
753.89	1794.02
754.07	1669.09
754.25	1730.53
754.43	1728.49
754.61	1669.09
754.79	1722.34
754.97	1656.81
755.14	1761.25
755.32	1695.72
755.50	1693.67
755.68	1785.83
755.86	1628.14
756.04	1718.25
756.22	1660.90
756.40	1697.77
756.57	1779.68
756.75	1708.01
756.93	1748.97
757.11	1746.92
757.29	1640.42
757.47	1581.03
757.65	1603.56
757.82	1626.09
758.00	1656.81
758.18	1753.06
758.36	1703.91
758.54	1796.07
758.72	1593.32
758.90	1720.29
759.07	1689.57
759.25	1662.95
759.43	1693.67
759.61	1636.33
759.79	2138.08
759.97	1740.77
760.15	1726.44
760.32	1662.95
760.50	1712.10
760.68	1847.27
760.86	1673.19
761.04	1789.92
761.22	1765.35
761.39	1787.88
761.57	1708.01
761.75	1683.43
761.93	1699.81
762.11	1632.23
762.28	1689.57
762.46	1660.90
762.64	1787.88
762.82	1654.76
763.00	1689.57
763.18	1781.73
763.35	1660.90
763.53	1877.99
763.71	1714.15
763.89	1738.73
764.07	1689.57
764.24	1697.77
764.42	1705.96
764.60	1728.49
764.78	1732.58
764.96	1746.92
765.13	1742.82
765.31	1703.91
765.49	1759.21
765.67	1646.57
765.84	1675.24
766.02	1763.30
766.20	1621.99
766.38	1718.25
766.56	1673.19
766.73	1718.25
766.91	1708.01
767.09	1691.62
767.27	1716.20
767.44	1710.05
767.62	1685.48
767.80	1667.05
767.98	1744.87
768.15	1701.86
768.33	1671.14
768.51	1771.49
768.69	1744.87
768.87	1685.48
769.04	1732.58
769.22	1818.60
769.40	1812.45
769.58	1826.79
769.75	1710.05
769.93	1705.96
770.11	1687.53
770.28	1728.49
770.46	1708.01
770.64	1683.43
770.82	1671.14
770.99	1710.05
771.17	1746.92
771.35	1718.25
771.53	1736.68
771.70	1628.14
771.88	1771.49
772.06	1683.43
772.23	1619.94
772.41	1753.06
772.59	1667.05
772.77	1628.14
772.94	1693.67
773.12	1652.71
773.30	1740.77
773.47	1701.86
773.65	1660.90
773.83	1837.03
774.01	1695.72
774.18	1607.66
774.36	1734.63
774.54	1646.57
774.71	1619.94
774.89	1640.42
775.07	1646.57
775.24	1667.05
775.42	1683.43
775.60	1806.31
775.78	1746.92
775.95	1660.90
776.13	1669.09
776.31	1658.85
776.48	1730.53
776.66	1769.44
776.84	1730.53
777.01	1665.00
777.19	1636.33
777.37	1746.92
777.54	1826.79
777.72	1822.69
777.90	1806.31
778.07	1710.05
778.25	1880.04
778.43	1798.12
778.60	1644.52
778.78	1781.73
778.96	1710.05
779.13	1624.04
779.31	1771.49
779.49	1699.81
779.66	1697.77
779.84	1708.01
780.01	1671.14
780.19	1687.53
780.37	1857.51
780.54	1806.31
780.72	1710.05
780.90	1701.86
781.07	1683.43
781.25	1718.25
781.43	1748.97
781.60	1683.43
781.78	1746.92
781.95	1714.15
782.13	1695.72
782.31	1753.06
782.48	1652.71
782.66	1685.48
782.83	1818.60
783.01	1701.86
783.19	1673.19
783.36	1740.77
783.54	1720.29
783.72	1816.55
783.89	1742.82
784.07	1703.91
784.24	1703.91
784.42	1892.32
784.60	1755.11
784.77	1728.49
784.95	1583.08
785.12	1685.48
785.30	1640.42
785.47	1642.47
785.65	1671.14
785.83	1642.47
786.00	1593.32
786.18	1636.33
786.35	1603.56
786.53	1585.13
786.71	1746.92
786.88	1693.67
787.06	1712.10
787.23	1765.35
787.41	1675.24
787.58	1638.38
787.76	1665.00
787.94	1724.39
788.11	1775.59
788.29	1642.47
788.46	1648.61
788.64	1677.29
788.81	1611.75
788.99	1642.47
789.16	1628.14
789.34	1619.94
789.52	1638.38
789.69	1714.15
789.87	1656.81
790.04	1642.47
790.22	1703.91
790.39	1847.27
790.57	1578.98
790.74	1710.05
790.92	1740.77
791.09	1673.19
791.27	1677.29
791.44	1777.64
791.62	1648.61
791.79	1742.82
791.97	1724.39
792.15	1888.23
792.32	1748.97
792.50	1691.62
792.67	1771.49
792.85	1800.16
793.02	1677.29
793.20	1755.11
793.37	1574.89
793.55	1736.68
793.72	1660.90
793.90	1759.21
794.07	1630.18
794.25	1626.09
794.42	1720.29
794.60	1636.33
794.77	1796.07
794.95	1771.49
795.12	1863.65
795.30	1736.68
795.47	1656.81
795.65	1814.50
795.82	1691.62
796.00	1679.33
796.17	1671.14
796.34	1665.00
796.52	1697.77
796.69	1740.77
796.87	1820.64
797.04	1734.63
797.22	1814.50
797.39	1689.57
797.57	1744.87
797.74	1718.25
797.92	1718.25
798.09	1708.01
798.27	1779.68
798.44	1650.66
798.62	1710.05
798.79	1796.07
798.96	1726.44
799.14	1662.95
799.31	1880.04
799.49	1632.23
799.66	1640.42
799.84	1716.20
800.01	1595.37
800.19	1748.97
800.36	1527.78
800.53	1732.58
800.71	1810.40
800.88	1777.64
801.06	1630.18
801.23	1677.29
801.41	1650.66
801.58	1730.53
801.75	1669.09
801.93	1685.48
802.10	1767.40
802.28	1683.43
802.45	1648.61
802.63	1724.39
802.80	1767.40
802.97	1699.81
803.15	1685.48
803.32	1691.62
803.50	1718.25
803.67	1621.99
803.84	1718.25
804.02	1730.53
804.19	1695.72
804.37	1605.61
804.54	1677.29
804.71	1648.61
804.89	1611.75
805.06	1636.33
805.24	1626.09
805.41	1675.24
805.58	1624.04
805.76	1787.88
805.93	1736.68
806.10	1798.12
806.28	1775.59
806.45	1714.15
806.63	1716.20
806.80	1726.44
806.97	1730.53
807.15	1689.57
807.32	1736.68
807.49	1705.96
807.67	1695.72
807.84	1712.10
808.01	1615.85
808.19	1796.07
808.36	1890.28
808.54	1689.57
808.71	1679.33
808.88	1710.05
809.06	1726.44
809.23	1845.22
809.40	1652.71
809.58	1697.77
809.75	1675.24
809.92	1656.81
810.10	1894.37
810.27	1677.29
810.44	1751.01
810.62	1744.87
810.79	1769.44
810.96	1671.14
811.14	1607.66
811.31	1708.01
811.48	1646.57
811.66	1699.81
811.83	1773.54
812.00	1773.54
812.18	1732.58
812.35	1775.59
812.52	1701.86
812.69	1697.77
812.87	1642.47
813.04	1665.00
813.21	1687.53
813.39	1705.96
813.56	1710.05
813.73	1728.49
813.91	1687.53
814.08	1714.15
814.25	1730.53
814.42	1652.71
814.60	1654.76
814.77	1724.39
814.94	1687.53
815.12	1703.91
815.29	1742.82
815.46	1732.58
815.63	1689.57
815.81	1699.81
815.98	1609.70
816.15	1693.67
816.33	1699.81
816.50	1642.47
816.67	1648.61
816.84	1730.53
817.02	1605.61
817.19	1695.72
817.36	1767.40
817.53	1746.92
817.71	1644.52
817.88	1763.30
818.05	1669.09
818.22	1708.01
818.40	1837.03
818.57	1638.38
818.74	1714.15
818.91	1718.25
819.09	1742.82
819.26	1775.59
819.43	1621.99
819.60	1613.80
819.78	1734.63
819.95	1757.16
820.12	1603.56
820.29	1769.44
820.47	1806.31
820.64	1755.11
820.81	1693.67
820.98	1624.04
821.15	1656.81
821.33	1724.39
821.50	1665.00
821.67	1681.38
821.84	1646.57
822.02	1734.63
822.19	1734.63
822.36	1677.29
822.53	1736.68
822.70	1607.66
822.88	1626.09
823.05	1843.17
823.22	1572.84
823.39	1736.68
823.56	1710.05
823.74	1824.74
823.91	1761.25
824.08	1546.22
824.25	1650.66
824.42	1787.88
824.60	1613.80
824.77	1699.81
824.94	1748.97
825.11	1705.96
825.28	1613.80
825.45	1679.33
825.63	1759.21
825.80	1644.52
825.97	1767.40
826.14	1708.01
826.31	1630.18
826.48	1744.87
826.66	1613.80
826.83	1632.23
827.00	1677.29
827.17	1624.04
827.34	1603.56
827.51	1644.52
827.69	1718.25
827.86	1673.19
828.03	1648.61
828.20	1724.39
828.37	1718.25
828.54	1689.57
828.71	1673.19
828.89	1779.68
829.06	1736.68
829.23	1751.01
829.40	1648.61
829.57	1677.29
829.74	1767.40
829.91	1712.10
830.09	1687.53
830.26	1722.34
830.43	1853.41
830.60	1646.57
830.77	1802.21
830.94	1738.73
831.11	1763.30
831.28	1718.25
831.46	1722.34
831.63	1701.86
831.80	1730.53
831.97	1757.16
832.14	1642.47
832.31	1791.97
832.48	1712.10
832.65	1773.54
832.82	1712.10
832.99	1714.15
833.17	1660.90
833.34	1804.26
833.51	1710.05
833.68	1656.81
833.85	1701.86
834.02	1693.67
834.19	1718.25
834.36	1632.23
834.53	1693.67
834.70	1699.81
834.87	1800.16
835.04	1671.14
835.22	1673.19
835.39	1681.38
835.56	1624.04
835.73	1722.34
835.90	1839.08
836.07	1591.27
836.24	1751.01
836.41	1677.29
836.58	1683.43
836.75	1685.48
836.92	1685.48
837.09	1658.85
837.26	1705.96
837.43	1744.87
837.60	1765.35
837.77	1607.66
837.94	1755.11
838.12	1755.11
838.29	1658.85
838.46	1558.50
838.63	1621.99
838.80	1748.97
838.97	1767.40
839.14	1710.05
839.31	1677.29
839.48	1732.58
839.65	1710.05
839.82	1812.45
839.99	1755.11
840.16	1697.77
840.33	1619.94
840.50	1650.66
840.67	1679.33
840.84	1550.31
841.01	1730.53
841.18	1679.33
841.35	1724.39
841.52	1806.31
841.69	1765.35
841.86	1679.33
842.03	1667.05
842.20	1810.40
842.37	1687.53
842.54	1748.97
842.71	1769.44
842.88	1665.00
843.05	1744.87
843.22	1681.38
843.39	1765.35
843.56	1693.67
843.73	1722.34
843.90	1697.77
844.07	1710.05
844.24	1794.02
844.41	1767.40
844.58	1679.33
844.75	1703.91
844.92	1800.16
845.09	1732.58
845.26	1654.76
845.43	1724.39
845.60	1681.38
845.77	1734.63
845.94	1724.39
846.10	1820.64
846.27	1634.28
846.44	1716.20
846.61	1658.85
846.78	1683.43
846.95	1781.73
847.12	1630.18
847.29	1708.01
847.46	1714.15
847.63	1732.58
847.80	1640.42
847.97	1656.81
848.14	1834.98
848.31	1673.19
848.48	1695.72
848.65	1693.67
848.82	1718.25
848.98	1853.41
849.15	1724.39
849.32	1705.96
849.49	1798.12
849.66	1726.44
849.83	1730.53
850.00	1628.14
850.17	1724.39
850.34	1714.15
850.51	1599.46
850.68	1642.47
850.85	1800.16
851.01	1695.72
851.18	1736.68
851.35	1712.10
851.52	1665.00
851.69	1765.35
851.86	1681.38
852.03	1730.53
852.20	1722.34
852.37	1742.82
852.53	1691.62
852.70	1716.20
852.87	1660.90
853.04	1726.44
853.21	1708.01
853.38	1787.88
853.55	1744.87
853.72	1810.40
853.89	1667.05
854.05	1648.61
854.22	1679.33
854.39	1636.33
854.56	1763.30
854.73	1763.30
854.90	1615.85
855.07	1658.85
855.23	1671.14
855.40	1697.77
855.57	1687.53
855.74	1587.18
855.91	1900.52
856.08	1736.68
856.25	1667.05
856.41	1724.39
856.58	1746.92
856.75	1654.76
856.92	1681.38
857.09	1746.92
857.26	1603.56
857.42	1755.11
857.59	1783.78
857.76	1705.96
857.93	1689.57
858.10	1722.34
858.27	1650.66
858.43	1677.29
858.60	1687.53
858.77	1613.80
858.94	1726.44
859.11	1732.58
859.27	1621.99
859.44	1679.33
859.61	1847.27
859.78	1726.44
859.95	1703.91
860.12	1636.33
860.28	1900.52
860.45	1808.36
860.62	1636.33
860.79	1681.38
860.95	1683.43
861.12	1665.00
861.29	1714.15
861.46	1593.32
861.63	1593.32
861.79	1705.96
861.96	1646.57
862.13	1689.57
862.30	1734.63
862.47	1658.85
862.63	1632.23
862.80	1638.38
862.97	1759.21
863.14	1708.01
863.30	1701.86
863.47	1681.38
863.64	1771.49
863.81	1740.77
863.97	1669.09
864.14	1757.16
864.31	1718.25
864.48	1742.82
864.65	1650.66
864.81	1751.01
864.98	1599.46
865.15	1736.68
865.32	1810.40
865.48	1710.05
865.65	1779.68
865.82	1665.00
865.98	1724.39
866.15	1855.46
866.32	1683.43
866.49	1710.05
866.65	1712.10
866.82	1697.77
866.99	1734.63
867.16	1654.76
867.32	1738.73
867.49	1607.66
867.66	1748.97
867.83	1621.99
867.99	1609.70
868.16	1699.81
868.33	1642.47
868.49	1732.58
868.66	1683.43
868.83	1740.77
868.99	1724.39
869.16	1667.05
869.33	1658.85
869.50	1740.77
869.66	1720.29
869.83	1648.61
870.00	1617.90
870.16	1724.39
870.33	1658.85
870.50	1806.31
870.66	1742.82
870.83	1775.59
871.00	1626.09
871.17	1734.63
871.33	1624.04
871.50	1701.86
871.67	1656.81
871.83	1617.90
872.00	1865.70
872.17	1738.73
872.33	1773.54
872.50	1771.49
872.67	1693.67
872.83	1646.57
873.00	1648.61
873.17	1679.33
873.33	1728.49
873.50	1726.44
873.67	1699.81
873.83	1554.41
874.00	1624.04
874.16	1798.12
874.33	1710.05
874.50	1673.19
874.66	1695.72
874.83	1775.59
875.00	1767.40
875.16	1796.07
875.33	1802.21
875.50	1603.56
875.66	1699.81
875.83	1746.92
875.99	1720.29
876.16	1693.67
876.33	1624.04
876.49	1624.04
876.66	1732.58
876.83	1681.38
876.99	1624.04
877.16	1763.30
877.32	1718.25
877.49	1646.57
877.66	1708.01
877.82	1789.92
877.99	1796.07
878.15	1789.92
878.32	1658.85
878.49	1728.49
878.65	1673.19
878.82	1837.03
878.98	1685.48
879.15	1740.77
879.32	1734.63
879.48	1730.53
879.65	1705.96
879.81	1675.24
879.98	1660.90
880.15	1718.25
880.31	1791.97
880.48	1773.54
880.64	1710.05
880.81	1755.11
880.97	1742.82
881.14	1781.73
881.31	1701.86
881.47	1849.32
881.64	1658.85
881.80	1591.27
881.97	1748.97
882.13	1771.49
882.30	1699.81
882.47	1710.05
882.63	1732.58
882.80	1628.14
882.96	1642.47
883.13	1765.35
883.29	1667.05
883.46	1669.09
883.62	1873.89
883.79	1757.16
883.95	1712.10
884.12	1665.00
884.29	1718.25
884.45	1744.87
884.62	1769.44
884.78	1640.42
884.95	1775.59
885.11	1599.46
885.28	1779.68
885.44	1722.34
885.61	1763.30
885.77	1722.34
885.94	1751.01
886.10	1738.73
886.27	1734.63
886.43	1765.35
886.60	1796.07
886.76	1701.86
886.93	1677.29
887.09	1724.39
887.26	1665.00
887.42	1730.53
887.59	1695.72
887.75	1857.51
887.92	1730.53
888.08	1730.53
888.25	1916.90
888.41	1761.25
888.58	1714.15
888.74	1650.66
888.91	1632.23
>>>>>End Processed Spectral Data<<<<<
