SpectraSuite Data File
++++++++++++++++++++++++++++++++++++
Date: Wed May 04 18:44:41 CEST 2016
User: root
Dark Spectrum Present: No
Reference Spectrum Present: No
Number of Sampled Component Spectra: 1
Spectrometers: USB4C02835
Integration Time (usec): 100000 (USB4C02835)
Spectra Averaged: 1 (USB4C02835)
Boxcar Smoothing: 0 (USB4C02835)
Correct for Electrical Dark: No (USB4C02835)
Strobe/Lamp Enabled: No (USB4C02835)
Correct for Detector Non-linearity: No (USB4C02835)
Correct for Stray Light: No (USB4C02835)
Number of Pixels in Processed Spectrum: 3648
>>>>>Begin Processed Spectral Data<<<<<
177.47	1468.39
177.69	1468.39
177.91	1468.39
178.13	1443.82
178.36	1388.52
178.58	1732.58
178.80	1789.92
179.02	1634.28
179.24	1613.80
179.46	1728.49
179.68	1757.16
179.90	1658.85
180.13	1665.00
180.35	1703.91
180.57	1759.21
180.79	1789.92
181.01	1699.81
181.23	1775.59
181.45	1710.05
181.67	1755.11
181.90	1714.15
182.12	1718.25
182.34	1656.81
182.56	1738.73
182.78	1771.49
183.00	1679.33
183.22	1732.58
183.44	1654.76
183.66	1855.46
183.89	1765.35
184.11	1654.76
184.33	1712.10
184.55	1787.88
184.77	1755.11
184.99	1685.48
185.21	1671.14
185.43	1867.75
185.65	1658.85
185.87	1712.10
186.10	1810.40
186.32	1828.84
186.54	1738.73
186.76	1730.53
186.98	1783.78
187.20	1718.25
187.42	1675.24
187.64	1710.05
187.86	1714.15
188.08	1730.53
188.30	1669.09
188.52	1714.15
188.75	1798.12
188.97	1779.68
189.19	1656.81
189.41	1673.19
189.63	1779.68
189.85	1660.90
190.07	1685.48
190.29	1658.85
190.51	1785.83
190.73	1675.24
190.95	1796.07
191.17	1718.25
191.39	1693.67
191.61	1675.24
191.84	1660.90
192.06	1740.77
192.28	1658.85
192.50	1863.65
192.72	1675.24
192.94	1728.49
193.16	1708.01
193.38	1757.16
193.60	1595.37
193.82	1660.90
194.04	1746.92
194.26	1730.53
194.48	1665.00
194.70	1740.77
194.92	1621.99
195.14	1781.73
195.36	1736.68
195.58	1701.86
195.80	1708.01
196.02	1697.77
196.24	1734.63
196.46	1783.78
196.69	1738.73
196.91	1882.08
197.13	1669.09
197.35	1642.47
197.57	1810.40
197.79	1771.49
198.01	1767.40
198.23	1757.16
198.45	1746.92
198.67	1652.71
198.89	1689.57
199.11	1730.53
199.33	1697.77
199.55	1667.05
199.77	1722.34
199.99	1822.69
200.21	1621.99
200.43	1726.44
200.65	1595.37
200.87	1634.28
201.09	1685.48
201.31	1695.72
201.53	1714.15
201.75	1759.21
201.97	1701.86
202.19	1638.38
202.41	1660.90
202.63	1880.04
202.85	1728.49
203.07	1621.99
203.29	1742.82
203.51	1673.19
203.73	1738.73
203.95	1847.27
204.17	1642.47
204.39	1732.58
204.61	1677.29
204.83	1734.63
205.05	1642.47
205.27	1796.07
205.49	1781.73
205.71	1705.96
205.93	1605.61
206.15	1669.09
206.37	1705.96
206.59	1646.57
206.81	1671.14
207.03	1681.38
207.25	1693.67
207.47	1841.12
207.69	1720.29
207.91	1746.92
208.13	1775.59
208.34	1691.62
208.56	1656.81
208.78	1748.97
209.00	1679.33
209.22	1648.61
209.44	1654.76
209.66	1656.81
209.88	1724.39
210.10	1689.57
210.32	1679.33
210.54	1826.79
210.76	1746.92
210.98	1710.05
211.20	1642.47
211.42	1652.71
211.64	1748.97
211.86	1775.59
212.08	1722.34
212.30	1673.19
212.52	1724.39
212.74	1677.29
212.96	1695.72
213.17	1732.58
213.39	1738.73
213.61	1783.78
213.83	1794.02
214.05	1714.15
214.27	1775.59
214.49	1665.00
214.71	1689.57
214.93	1832.93
215.15	1726.44
215.37	1800.16
215.59	1640.42
215.81	1710.05
216.03	1802.21
216.24	1746.92
216.46	1683.43
216.68	1744.87
216.90	1736.68
217.12	1781.73
217.34	1720.29
217.56	1695.72
217.78	1767.40
218.00	1796.07
218.22	1740.77
218.44	1777.64
218.66	1652.71
218.87	1755.11
219.09	1697.77
219.31	1777.64
219.53	1681.38
219.75	1757.16
219.97	1730.53
220.19	1787.88
220.41	1669.09
220.63	1740.77
220.85	1593.32
221.06	1693.67
221.28	1728.49
221.50	1677.29
221.72	1710.05
221.94	1765.35
222.16	1703.91
222.38	1771.49
222.60	1822.69
222.82	1724.39
223.03	1763.30
223.25	1679.33
223.47	1814.50
223.69	1761.25
223.91	1808.36
224.13	1695.72
224.35	1699.81
224.57	1796.07
224.78	1794.02
225.00	1656.81
225.22	1675.24
225.44	1738.73
225.66	1710.05
225.88	1712.10
226.10	1699.81
226.32	1722.34
226.53	1767.40
226.75	1601.51
226.97	1730.53
227.19	1779.68
227.41	1656.81
227.63	1712.10
227.85	1626.09
228.06	1730.53
228.28	1708.01
228.50	1742.82
228.72	1673.19
228.94	1701.86
229.16	1607.66
229.37	1611.75
229.59	1624.04
229.81	1759.21
230.03	1636.33
230.25	1673.19
230.47	1716.20
230.69	1681.38
230.90	1857.51
231.12	1617.90
231.34	1730.53
231.56	1763.30
231.78	1660.90
232.00	1740.77
232.21	1726.44
232.43	1671.14
232.65	1642.47
232.87	1816.55
233.09	1628.14
233.30	1757.16
233.52	1697.77
233.74	1660.90
233.96	1724.39
234.18	1634.28
234.40	1710.05
234.61	1757.16
234.83	1650.66
235.05	1652.71
235.27	1857.51
235.49	1789.92
235.70	1712.10
235.92	1796.07
236.14	1656.81
236.36	1804.26
236.58	1658.85
236.79	1771.49
237.01	1683.43
237.23	1679.33
237.45	1804.26
237.67	1656.81
237.88	1789.92
238.10	1855.46
238.32	1615.85
238.54	1652.71
238.76	1744.87
238.97	1695.72
239.19	1714.15
239.41	1701.86
239.63	1800.16
239.85	1697.77
240.06	1724.39
240.28	1740.77
240.50	1683.43
240.72	1787.88
240.93	1740.77
241.15	1744.87
241.37	1677.29
241.59	1794.02
241.81	1693.67
242.02	1640.42
242.24	1677.29
242.46	1738.73
242.68	1759.21
242.89	1740.77
243.11	1755.11
243.33	1603.56
243.55	1824.74
243.76	1783.78
243.98	1665.00
244.20	1642.47
244.42	1746.92
244.64	1730.53
244.85	1708.01
245.07	1636.33
245.29	1714.15
245.51	1757.16
245.72	1695.72
245.94	1701.86
246.16	1767.40
246.38	1802.21
246.59	1746.92
246.81	1722.34
247.03	1687.53
247.24	1564.65
247.46	1693.67
247.68	1738.73
247.90	1689.57
248.11	1630.18
248.33	1751.01
248.55	1671.14
248.77	1736.68
248.98	1742.82
249.20	1791.97
249.42	1656.81
249.64	1761.25
249.85	1695.72
250.07	1710.05
250.29	1824.74
250.50	1796.07
250.72	1669.09
250.94	1714.15
251.16	1789.92
251.37	1775.59
251.59	1748.97
251.81	1748.97
252.02	1777.64
252.24	1644.52
252.46	1796.07
252.68	1769.44
252.89	1708.01
253.11	1665.00
253.33	1775.59
253.54	1839.08
253.76	1669.09
253.98	1765.35
254.20	1714.15
254.41	1689.57
254.63	1718.25
254.85	1660.90
255.06	1699.81
255.28	1712.10
255.50	1761.25
255.71	1652.71
255.93	1675.24
256.15	1673.19
256.36	1691.62
256.58	1646.57
256.80	1683.43
257.02	1765.35
257.23	1658.85
257.45	1746.92
257.67	1759.21
257.88	1660.90
258.10	1673.19
258.32	1691.62
258.53	1691.62
258.75	1796.07
258.97	1665.00
259.18	1619.94
259.40	1685.48
259.62	1796.07
259.83	1794.02
260.05	1746.92
260.27	2031.58
260.48	1732.58
260.70	1658.85
260.92	1691.62
261.13	1765.35
261.35	1703.91
261.57	1744.87
261.78	1644.52
262.00	1687.53
262.22	1781.73
262.43	1675.24
262.65	1609.70
262.86	1691.62
263.08	1832.93
263.30	1660.90
263.51	1548.26
263.73	1624.04
263.95	1822.69
264.16	1628.14
264.38	1583.08
264.60	1746.92
264.81	1734.63
265.03	1734.63
265.25	1722.34
265.46	1693.67
265.68	1767.40
265.89	1746.92
266.11	1654.76
266.33	1765.35
266.54	1783.78
266.76	1730.53
266.98	1773.54
267.19	1794.02
267.41	1740.77
267.62	1734.63
267.84	1597.42
268.06	1744.87
268.27	1695.72
268.49	1804.26
268.70	1720.29
268.92	1755.11
269.14	1681.38
269.35	1611.75
269.57	1716.20
269.79	1763.30
270.00	1644.52
270.22	1806.31
270.43	1652.71
270.65	1591.27
270.87	1695.72
271.08	1755.11
271.30	1767.40
271.51	1746.92
271.73	1644.52
271.95	1820.64
272.16	1728.49
272.38	1751.01
272.59	1611.75
272.81	1701.86
273.02	1730.53
273.24	1691.62
273.46	1814.50
273.67	1603.56
273.89	1714.15
274.10	1671.14
274.32	1769.44
274.54	1746.92
274.75	1746.92
274.97	1720.29
275.18	1695.72
275.40	1787.88
275.61	1624.04
275.83	1712.10
276.05	1679.33
276.26	1765.35
276.48	1652.71
276.69	1613.80
276.91	1617.90
277.12	1714.15
277.34	1746.92
277.55	1724.39
277.77	1685.48
277.99	1615.85
278.20	1673.19
278.42	1673.19
278.63	1662.95
278.85	1710.05
279.06	1671.14
279.28	1765.35
279.49	1781.73
279.71	1816.55
279.93	1662.95
280.14	1763.30
280.36	1665.00
280.57	1714.15
280.79	1751.01
281.00	1679.33
281.22	1632.23
281.43	1775.59
281.65	1554.41
281.86	1736.68
282.08	1742.82
282.29	1861.60
282.51	1601.51
282.73	1697.77
282.94	1640.42
283.16	1744.87
283.37	1775.59
283.59	1701.86
283.80	1775.59
284.02	1751.01
284.23	1740.77
284.45	1636.33
284.66	1642.47
284.88	1630.18
285.09	1832.93
285.31	1722.34
285.52	1779.68
285.74	1640.42
285.95	1781.73
286.17	1759.21
286.38	1718.25
286.60	1644.52
286.81	1724.39
287.03	1681.38
287.24	1673.19
287.46	1703.91
287.67	1669.09
287.89	1802.21
288.10	1652.71
288.32	1632.23
288.53	1806.31
288.75	1691.62
288.96	1771.49
289.18	1675.24
289.39	1693.67
289.61	1718.25
289.82	1787.88
290.04	1703.91
290.25	1583.08
290.47	1658.85
290.68	1712.10
290.90	1822.69
291.11	1685.48
291.33	1816.55
291.54	1593.32
291.76	1644.52
291.97	1755.11
292.18	1718.25
292.40	1685.48
292.61	1708.01
292.83	1857.51
293.04	1736.68
293.26	1755.11
293.47	1689.57
293.69	1660.90
293.90	1757.16
294.12	1746.92
294.33	1753.06
294.55	1718.25
294.76	1877.99
294.97	1834.98
295.19	1890.28
295.40	1658.85
295.62	1675.24
295.83	1761.25
296.05	1736.68
296.26	1693.67
296.48	1662.95
296.69	1763.30
296.90	1708.01
297.12	1667.05
297.33	1767.40
297.55	1693.67
297.76	1734.63
297.98	1798.12
298.19	1705.96
298.41	1673.19
298.62	1671.14
298.83	1759.21
299.05	1722.34
299.26	1697.77
299.48	1658.85
299.69	1755.11
299.90	1652.71
300.12	1644.52
300.33	1732.58
300.55	1699.81
300.76	1681.38
300.98	1660.90
301.19	1783.78
301.40	1769.44
301.62	1669.09
301.83	1765.35
302.05	1693.67
302.26	1751.01
302.47	1744.87
302.69	1658.85
302.90	1693.67
303.12	1554.41
303.33	1759.21
303.54	1884.13
303.76	1703.91
303.97	1728.49
304.19	1865.70
304.40	1724.39
304.61	1736.68
304.83	1769.44
305.04	1791.97
305.26	1736.68
305.47	1601.51
305.68	1699.81
305.90	1624.04
306.11	1769.44
306.33	1730.53
306.54	1708.01
306.75	1716.20
306.97	1681.38
307.18	1636.33
307.39	1675.24
307.61	1757.16
307.82	1669.09
308.04	1740.77
308.25	1703.91
308.46	1689.57
308.68	1759.21
308.89	1669.09
309.10	1820.64
309.32	1716.20
309.53	1648.61
309.74	1724.39
309.96	1791.97
310.17	1718.25
310.39	1722.34
310.60	1789.92
310.81	1755.11
311.03	1683.43
311.24	1697.77
311.45	1730.53
311.67	1759.21
311.88	1726.44
312.09	1701.86
312.31	1609.70
312.52	1720.29
312.73	1660.90
312.95	1658.85
313.16	1652.71
313.37	1767.40
313.59	1746.92
313.80	1746.92
314.01	1773.54
314.23	1763.30
314.44	1746.92
314.65	1634.28
314.87	1626.09
315.08	1734.63
315.29	1601.51
315.51	1638.38
315.72	1558.50
315.93	1773.54
316.15	1755.11
316.36	1681.38
316.57	1738.73
316.79	1765.35
317.00	1652.71
317.21	1751.01
317.43	1646.57
317.64	1738.73
317.85	1628.14
318.07	1734.63
318.28	1720.29
318.49	1816.55
318.70	1931.23
318.92	1927.14
319.13	1865.70
319.34	1832.93
319.56	1871.84
319.77	1814.50
319.98	1834.98
320.20	1767.40
320.41	1857.51
320.62	1722.34
320.83	1697.77
321.05	1832.93
321.26	1779.68
321.47	1753.06
321.69	1744.87
321.90	1665.00
322.11	1581.03
322.32	1714.15
322.54	1806.31
322.75	1699.81
322.96	1845.22
323.18	1689.57
323.39	1517.54
323.60	1665.00
323.81	1714.15
324.03	1685.48
324.24	1644.52
324.45	1736.68
324.66	1753.06
324.88	1820.64
325.09	1746.92
325.30	1751.01
325.52	1777.64
325.73	1742.82
325.94	1665.00
326.15	1636.33
326.37	1685.48
326.58	1818.60
326.79	1757.16
327.00	1634.28
327.22	1685.48
327.43	1599.46
327.64	1669.09
327.85	1691.62
328.07	1775.59
328.28	1757.16
328.49	1626.09
328.70	1665.00
328.92	1650.66
329.13	1699.81
329.34	1705.96
329.55	1802.21
329.76	1800.16
329.98	1740.77
330.19	1691.62
330.40	1748.97
330.61	1759.21
330.83	1773.54
331.04	1628.14
331.25	1701.86
331.46	1730.53
331.68	1626.09
331.89	1722.34
332.10	1681.38
332.31	1691.62
332.52	1683.43
332.74	1855.46
332.95	1658.85
333.16	1609.70
333.37	1705.96
333.58	1673.19
333.80	1767.40
334.01	1648.61
334.22	1667.05
334.43	1665.00
334.64	1677.29
334.86	1652.71
335.07	1609.70
335.28	1787.88
335.49	1671.14
335.70	1667.05
335.92	1824.74
336.13	1853.41
336.34	1701.86
336.55	1777.64
336.76	1722.34
336.98	1558.50
337.19	1724.39
337.40	1787.88
337.61	1865.70
337.82	1775.59
338.04	1800.16
338.25	1617.90
338.46	1722.34
338.67	1767.40
338.88	1685.48
339.09	1689.57
339.31	1644.52
339.52	1621.99
339.73	1677.29
339.94	1693.67
340.15	1796.07
340.36	1652.71
340.58	1703.91
340.79	1718.25
341.00	1789.92
341.21	1634.28
341.42	1853.41
341.63	1677.29
341.85	1755.11
342.06	1748.97
342.27	1595.37
342.48	1701.86
342.69	1640.42
342.90	1808.36
343.12	1789.92
343.33	1724.39
343.54	1681.38
343.75	1796.07
343.96	1689.57
344.17	1607.66
344.38	1705.96
344.60	1720.29
344.81	1624.04
345.02	1656.81
345.23	1773.54
345.44	1818.60
345.65	1812.45
345.86	1689.57
346.07	1703.91
346.29	1724.39
346.50	1755.11
346.71	1781.73
346.92	1791.97
347.13	1773.54
347.34	1632.23
347.55	1716.20
347.76	1742.82
347.98	1628.14
348.19	1740.77
348.40	1744.87
348.61	1667.05
348.82	1759.21
349.03	1773.54
349.24	1628.14
349.45	1787.88
349.66	1642.47
349.88	1673.19
350.09	1738.73
350.30	1714.15
350.51	1814.50
350.72	1730.53
350.93	1671.14
351.14	1617.90
351.35	1779.68
351.56	1681.38
351.77	1777.64
351.99	1724.39
352.20	1708.01
352.41	1826.79
352.62	1679.33
352.83	1730.53
353.04	1708.01
353.25	1687.53
353.46	1867.75
353.67	1767.40
353.88	1609.70
354.09	1742.82
354.30	1662.95
354.52	1695.72
354.73	1712.10
354.94	1650.66
355.15	1732.58
355.36	1714.15
355.57	1673.19
355.78	1677.29
355.99	1687.53
356.20	1716.20
356.41	1755.11
356.62	1734.63
356.83	1652.71
357.04	1843.17
357.25	1599.46
357.46	1708.01
357.68	1611.75
357.89	1628.14
358.10	1636.33
358.31	1716.20
358.52	1667.05
358.73	1595.37
358.94	1761.25
359.15	1724.39
359.36	1761.25
359.57	1671.14
359.78	1677.29
359.99	1693.67
360.20	1597.42
360.41	1662.95
360.62	1714.15
360.83	1771.49
361.04	1701.86
361.25	1781.73
361.46	1763.30
361.67	1748.97
361.88	1736.68
362.09	1798.12
362.30	1736.68
362.51	1734.63
362.72	1734.63
362.93	1755.11
363.14	1673.19
363.35	1724.39
363.56	1695.72
363.78	1775.59
363.99	1716.20
364.20	1738.73
364.41	1697.77
364.62	1767.40
364.83	1693.67
365.04	1681.38
365.25	1742.82
365.46	1820.64
365.67	1583.08
365.88	1740.77
366.09	1761.25
366.30	1703.91
366.51	1687.53
366.72	1632.23
366.93	1714.15
367.14	1693.67
367.35	1726.44
367.56	1732.58
367.77	1822.69
367.98	1775.59
368.18	1742.82
368.39	1761.25
368.60	1761.25
368.81	1738.73
369.02	1791.97
369.23	1681.38
369.44	1632.23
369.65	1667.05
369.86	1785.83
370.07	1742.82
370.28	1585.13
370.49	1816.55
370.70	1748.97
370.91	1632.23
371.12	1593.32
371.33	1734.63
371.54	1681.38
371.75	1761.25
371.96	1636.33
372.17	1699.81
372.38	1755.11
372.59	1755.11
372.80	1691.62
373.01	1691.62
373.22	1722.34
373.43	1632.23
373.64	1613.80
373.85	1796.07
374.06	1773.54
374.26	1808.36
374.47	1732.58
374.68	1787.88
374.89	1740.77
375.10	1759.21
375.31	1740.77
375.52	1767.40
375.73	1703.91
375.94	1669.09
376.15	1775.59
376.36	1685.48
376.57	1681.38
376.78	1724.39
376.99	1718.25
377.20	1722.34
377.40	1691.62
377.61	1845.22
377.82	1701.86
378.03	1826.79
378.24	1783.78
378.45	1773.54
378.66	1667.05
378.87	1619.94
379.08	1652.71
379.29	1730.53
379.50	1798.12
379.71	1699.81
379.91	1865.70
380.12	1714.15
380.33	1777.64
380.54	1693.67
380.75	1744.87
380.96	1646.57
381.17	1798.12
381.38	1773.54
381.59	1791.97
381.80	1722.34
382.00	1918.95
382.21	1726.44
382.42	1744.87
382.63	1939.43
382.84	1736.68
383.05	1837.03
383.26	1810.40
383.47	1771.49
383.68	1759.21
383.88	1728.49
384.09	1722.34
384.30	1902.56
384.51	1753.06
384.72	1689.57
384.93	1650.66
385.14	1673.19
385.35	1769.44
385.55	1656.81
385.76	1771.49
385.97	1656.81
386.18	1667.05
386.39	1632.23
386.60	1679.33
386.81	1730.53
387.02	1732.58
387.22	1714.15
387.43	1875.94
387.64	1746.92
387.85	1861.60
388.06	2164.70
388.27	4765.62
388.48	8978.30
388.68	11626.32
388.89	13369.14
389.10	14036.78
389.31	11759.44
389.52	9752.43
389.73	8384.38
389.93	7634.83
390.14	7235.47
390.35	6547.36
390.56	6098.85
390.77	5021.62
390.98	3878.85
391.18	3067.86
391.39	2389.98
391.60	1961.95
391.81	1898.47
392.02	1787.88
392.23	1865.70
392.43	1746.92
392.64	1832.93
392.85	1693.67
393.06	1808.36
393.27	1697.77
393.47	1650.66
393.68	1656.81
393.89	1656.81
394.10	1779.68
394.31	1701.86
394.52	1714.15
394.72	1714.15
394.93	1808.36
395.14	1650.66
395.35	1779.68
395.56	1679.33
395.76	1720.29
395.97	1818.60
396.18	1961.95
396.39	1931.23
396.60	2095.07
396.80	1941.47
397.01	1918.95
397.22	1912.80
397.43	1822.69
397.64	1738.73
397.84	1861.60
398.05	1843.17
398.26	1808.36
398.47	1839.08
398.67	1763.30
398.88	1789.92
399.09	1757.16
399.30	1671.14
399.51	1794.02
399.71	1679.33
399.92	1787.88
400.13	1742.82
400.34	1771.49
400.54	1726.44
400.75	1771.49
400.96	1742.82
401.17	1851.36
401.37	1775.59
401.58	1726.44
401.79	1806.31
402.00	1841.12
402.21	2007.01
402.41	2013.15
402.62	2097.12
402.83	2148.32
403.04	2076.64
403.24	2121.70
403.45	1828.84
403.66	1968.10
403.87	1941.47
404.07	1877.99
404.28	1894.37
404.49	1945.57
404.70	1824.74
404.90	1804.26
405.11	1775.59
405.32	1832.93
405.52	1673.19
405.73	1634.28
405.94	1720.29
406.15	1728.49
406.35	1748.97
406.56	1771.49
406.77	1736.68
406.98	1751.01
407.18	1710.05
407.39	1728.49
407.60	1695.72
407.80	1732.58
408.01	1626.09
408.22	1806.31
408.43	1732.58
408.63	1763.30
408.84	1773.54
409.05	1753.06
409.25	1671.14
409.46	1636.33
409.67	1671.14
409.88	1607.66
410.08	1753.06
410.29	1636.33
410.50	1761.25
410.70	1748.97
410.91	1589.22
411.12	1738.73
411.32	1677.29
411.53	1744.87
411.74	1896.42
411.95	1763.30
412.15	1748.97
412.36	1746.92
412.57	1798.12
412.77	1814.50
412.98	1699.81
413.19	1716.20
413.39	1740.77
413.60	1716.20
413.81	1865.70
414.01	1730.53
414.22	1822.69
414.43	1667.05
414.63	1691.62
414.84	1767.40
415.05	1669.09
415.25	1695.72
415.46	1800.16
415.67	1691.62
415.87	1736.68
416.08	1724.39
416.29	1679.33
416.49	1744.87
416.70	1695.72
416.91	1705.96
417.11	1665.00
417.32	1755.11
417.53	1703.91
417.73	1693.67
417.94	1667.05
418.15	1783.78
418.35	1685.48
418.56	1763.30
418.77	1814.50
418.97	1583.08
419.18	1677.29
419.38	1574.89
419.59	1716.20
419.80	1853.41
420.00	1677.29
420.21	1748.97
420.42	1882.08
420.62	1759.21
420.83	1718.25
421.04	1767.40
421.24	1734.63
421.45	1718.25
421.65	1769.44
421.86	1761.25
422.07	1740.77
422.27	1775.59
422.48	1783.78
422.69	1675.24
422.89	1710.05
423.10	1683.43
423.30	1603.56
423.51	1708.01
423.72	1685.48
423.92	1769.44
424.13	1599.46
424.33	1701.86
424.54	1814.50
424.75	1759.21
424.95	1824.74
425.16	1789.92
425.36	1677.29
425.57	1689.57
425.78	1740.77
425.98	1693.67
426.19	1726.44
426.39	1665.00
426.60	1742.82
426.81	1755.11
427.01	1734.63
427.22	1687.53
427.42	1632.23
427.63	1642.47
427.83	1796.07
428.04	1812.45
428.25	1714.15
428.45	1767.40
428.66	1769.44
428.86	1656.81
429.07	1693.67
429.28	1738.73
429.48	1705.96
429.69	1669.09
429.89	1730.53
430.10	1648.61
430.30	1701.86
430.51	1681.38
430.71	1650.66
430.92	1746.92
431.13	1613.80
431.33	1732.58
431.54	1806.31
431.74	1863.65
431.95	1837.03
432.15	1697.77
432.36	1724.39
432.56	1818.60
432.77	1830.88
432.98	1771.49
433.18	1757.16
433.39	1710.05
433.59	1748.97
433.80	1726.44
434.00	1896.42
434.21	1687.53
434.41	1662.95
434.62	1808.36
434.82	1652.71
435.03	1652.71
435.23	1802.21
435.44	1556.46
435.64	1716.20
435.85	1730.53
436.06	1681.38
436.26	1716.20
436.47	1710.05
436.67	1730.53
436.88	1703.91
437.08	1722.34
437.29	1804.26
437.49	1726.44
437.70	1740.77
437.90	1693.67
438.11	1849.32
438.31	1800.16
438.52	1916.90
438.72	1875.94
438.93	1925.09
439.13	1787.88
439.34	1869.80
439.54	1757.16
439.75	1837.03
439.95	1841.12
440.16	1699.81
440.36	1763.30
440.57	1785.83
440.77	1808.36
440.98	1773.54
441.18	1740.77
441.39	1681.38
441.59	1724.39
441.80	1875.94
442.00	1697.77
442.21	1830.88
442.41	1718.25
442.62	1761.25
442.82	1736.68
443.02	1603.56
443.23	1740.77
443.43	1761.25
443.64	1732.58
443.84	1693.67
444.05	1859.56
444.25	1808.36
444.46	1726.44
444.66	1791.97
444.87	1863.65
445.07	1611.75
445.28	1730.53
445.48	1826.79
445.69	1751.01
445.89	1824.74
446.09	1767.40
446.30	2060.26
446.50	2619.35
446.71	4087.75
446.91	5105.59
447.12	5814.18
447.32	6137.76
447.53	5314.48
447.73	4394.94
447.93	3944.39
448.14	3696.58
448.34	3588.04
448.55	3108.82
448.75	3131.34
448.96	2975.70
449.16	2699.22
449.36	2408.41
449.57	2117.60
449.77	1988.58
449.98	1867.75
450.18	1800.16
450.39	1796.07
450.59	1832.93
450.79	1818.60
451.00	1718.25
451.20	1781.73
451.41	1730.53
451.61	1779.68
451.81	1810.40
452.02	1689.57
452.22	1796.07
452.43	1746.92
452.63	1712.10
452.84	1746.92
453.04	1689.57
453.24	1794.02
453.45	1726.44
453.65	1716.20
453.86	1687.53
454.06	1734.63
454.26	1722.34
454.47	1714.15
454.67	1822.69
454.87	1734.63
455.08	1710.05
455.28	1925.09
455.49	1746.92
455.69	1652.71
455.89	1855.46
456.10	1765.35
456.30	1722.34
456.51	1748.97
456.71	1767.40
456.91	1726.44
457.12	1779.68
457.32	1841.12
457.52	1681.38
457.73	1824.74
457.93	1710.05
458.14	1710.05
458.34	1609.70
458.54	1722.34
458.75	1701.86
458.95	1800.16
459.15	1802.21
459.36	1804.26
459.56	1787.88
459.76	1884.13
459.97	1738.73
460.17	1798.12
460.37	1820.64
460.58	1740.77
460.78	1726.44
460.99	1695.72
461.19	1732.58
461.39	1677.29
461.60	1734.63
461.80	1746.92
462.00	1746.92
462.21	1767.40
462.41	1714.15
462.61	1654.76
462.82	1593.32
463.02	1779.68
463.22	1673.19
463.43	1738.73
463.63	1746.92
463.83	1798.12
464.04	1742.82
464.24	1748.97
464.44	1687.53
464.64	1757.16
464.85	1753.06
465.05	1785.83
465.25	1669.09
465.46	1720.29
465.66	1757.16
465.86	1771.49
466.07	1730.53
466.27	1730.53
466.47	1714.15
466.68	1685.48
466.88	1755.11
467.08	1744.87
467.29	1761.25
467.49	1777.64
467.69	1697.77
467.89	1759.21
468.10	1648.61
468.30	1708.01
468.50	1781.73
468.71	1736.68
468.91	1742.82
469.11	1873.89
469.31	1660.90
469.52	1675.24
469.72	1800.16
469.92	1761.25
470.13	1628.14
470.33	1712.10
470.53	1751.01
470.73	2273.25
470.94	2523.10
471.14	2775.00
471.34	2930.64
471.54	2877.40
471.75	2631.64
471.95	2342.88
472.15	2291.68
472.36	2299.87
472.56	2164.70
472.76	2115.55
472.96	2115.55
473.17	2095.07
473.37	1986.53
473.57	1896.42
473.77	1877.99
473.98	1736.68
474.18	1648.61
474.38	1904.61
474.58	1673.19
474.79	1804.26
474.99	1765.35
475.19	1802.21
475.39	1642.47
475.60	1746.92
475.80	1705.96
476.00	1751.01
476.20	1687.53
476.41	1736.68
476.61	1853.41
476.81	1703.91
477.01	1689.57
477.21	1914.85
477.42	1746.92
477.62	1648.61
477.82	1804.26
478.02	1710.05
478.23	1714.15
478.43	1669.09
478.63	1783.78
478.83	1853.41
479.03	1677.29
479.24	1746.92
479.44	1759.21
479.64	1703.91
479.84	1665.00
480.04	1689.57
480.25	1769.44
480.45	1759.21
480.65	1697.77
480.85	1751.01
481.06	1654.76
481.26	1796.07
481.46	1722.34
481.66	1763.30
481.86	1712.10
482.06	1720.29
482.27	1744.87
482.47	1724.39
482.67	1691.62
482.87	1695.72
483.07	1859.56
483.28	1746.92
483.48	1699.81
483.68	1765.35
483.88	1660.90
484.08	1697.77
484.29	1689.57
484.49	1703.91
484.69	1697.77
484.89	1783.78
485.09	1744.87
485.29	1804.26
485.50	1720.29
485.70	1763.30
485.90	1861.60
486.10	1734.63
486.30	1736.68
486.50	1820.64
486.71	1699.81
486.91	1820.64
487.11	1732.58
487.31	1687.53
487.51	1716.20
487.71	1718.25
487.91	1662.95
488.12	1705.96
488.32	1693.67
488.52	1673.19
488.72	1646.57
488.92	1777.64
489.12	1761.25
489.32	1826.79
489.53	1718.25
489.73	1669.09
489.93	1787.88
490.13	1732.58
490.33	1648.61
490.53	1732.58
490.73	1816.55
490.94	1718.25
491.14	1738.73
491.34	1810.40
491.54	2095.07
491.74	2772.95
491.94	3211.22
492.14	3348.43
492.34	3540.94
492.54	3246.03
492.75	2748.37
492.95	2570.20
493.15	2310.11
493.35	2408.41
493.55	2244.57
493.75	2228.19
493.95	2201.57
494.15	2076.64
494.35	1951.71
494.56	1923.04
494.76	1882.08
494.96	1800.16
495.16	1722.34
495.36	1787.88
495.56	1748.97
495.76	1705.96
495.96	1685.48
496.16	1705.96
496.36	1861.60
496.56	1697.77
496.77	1765.35
496.97	1740.77
497.17	1765.35
497.37	1724.39
497.57	1773.54
497.77	1779.68
497.97	1669.09
498.17	1767.40
498.37	1677.29
498.57	1753.06
498.77	1695.72
498.97	1753.06
499.17	1802.21
499.38	1724.39
499.58	1837.03
499.78	1814.50
499.98	1720.29
500.18	1810.40
500.38	1761.25
500.58	1912.80
500.78	2408.41
500.98	4536.25
501.18	6713.24
501.38	8107.91
501.58	9045.88
501.78	8636.28
501.98	6858.65
502.18	5767.08
502.38	4919.22
502.58	4499.39
502.78	4198.34
502.98	3962.82
503.18	3811.27
503.38	3450.83
503.59	2967.51
503.79	2906.07
503.99	2699.22
504.19	2457.56
504.39	2369.50
504.59	2328.54
504.79	2287.58
504.99	2224.09
505.19	2162.66
505.39	2025.44
505.59	2074.59
505.79	2009.06
505.99	1873.89
506.19	1894.37
506.39	1959.91
506.59	1767.40
506.79	1777.64
506.99	1882.08
507.19	1777.64
507.39	1779.68
507.59	1718.25
507.79	1685.48
507.99	1716.20
508.19	1724.39
508.39	1730.53
508.59	1712.10
508.79	1906.66
508.99	1820.64
509.19	1665.00
509.39	1769.44
509.59	1798.12
509.79	1712.10
509.99	1726.44
510.19	1789.92
510.39	1722.34
510.59	1794.02
510.79	1714.15
510.99	1669.09
511.19	1726.44
511.39	1804.26
511.59	1683.43
511.79	1894.37
511.99	1716.20
512.19	1853.41
512.38	1742.82
512.58	1751.01
512.78	1708.01
512.98	1794.02
513.18	1890.28
513.38	1691.62
513.58	1779.68
513.78	1767.40
513.98	1677.29
514.18	1748.97
514.38	1732.58
514.58	1744.87
514.78	1724.39
514.98	1728.49
515.18	1724.39
515.38	1734.63
515.58	1804.26
515.78	1742.82
515.98	1771.49
516.18	1746.92
516.38	1689.57
516.57	1654.76
516.77	1681.38
516.97	1755.11
517.17	1730.53
517.37	1640.42
517.57	1796.07
517.77	1728.49
517.97	1685.48
518.17	1763.30
518.37	1679.33
518.57	1738.73
518.77	1697.77
518.97	1761.25
519.16	1873.89
519.36	1779.68
519.56	1701.86
519.76	1697.77
519.96	1677.29
520.16	1810.40
520.36	1675.24
520.56	1830.88
520.76	1716.20
520.96	1738.73
521.16	1796.07
521.35	1777.64
521.55	1824.74
521.75	1738.73
521.95	1785.83
522.15	1689.57
522.35	1644.52
522.55	1675.24
522.75	1812.45
522.95	1718.25
523.14	1736.68
523.34	1681.38
523.54	1732.58
523.74	1877.99
523.94	1771.49
524.14	1669.09
524.34	1763.30
524.54	1777.64
524.73	1724.39
524.93	1751.01
525.13	1734.63
525.33	1798.12
525.53	1820.64
525.73	1763.30
525.93	1732.58
526.13	1753.06
526.32	1738.73
526.52	1773.54
526.72	1732.58
526.92	1716.20
527.12	1738.73
527.32	1671.14
527.52	1763.30
527.71	1705.96
527.91	1761.25
528.11	1658.85
528.31	1789.92
528.51	1697.77
528.71	1789.92
528.90	1701.86
529.10	1812.45
529.30	1800.16
529.50	1634.28
529.70	1791.97
529.90	1613.80
530.09	1783.78
530.29	1689.57
530.49	1656.81
530.69	1853.41
530.89	1638.38
531.09	1728.49
531.28	1703.91
531.48	1783.78
531.68	1767.40
531.88	1798.12
532.08	1802.21
532.28	1691.62
532.47	1755.11
532.67	1783.78
532.87	1708.01
533.07	1730.53
533.27	1789.92
533.46	1814.50
533.66	1843.17
533.86	1783.78
534.06	1748.97
534.26	1732.58
534.45	1767.40
534.65	1834.98
534.85	1757.16
535.05	1714.15
535.25	1777.64
535.44	1685.48
535.64	1794.02
535.84	1677.29
536.04	1662.95
536.24	1695.72
536.43	1708.01
536.63	1679.33
536.83	1769.44
537.03	1701.86
537.22	1679.33
537.42	1605.61
537.62	1806.31
537.82	1667.05
538.02	1845.22
538.21	1787.88
538.41	1943.52
538.61	1734.63
538.81	1687.53
539.00	1806.31
539.20	1710.05
539.40	1765.35
539.60	1818.60
539.79	1771.49
539.99	1693.67
540.19	1746.92
540.39	1677.29
540.58	1728.49
540.78	1751.01
540.98	1734.63
541.18	1849.32
541.37	1796.07
541.57	1710.05
541.77	1726.44
541.97	1685.48
542.16	1740.77
542.36	1779.68
542.56	1705.96
542.76	1882.08
542.95	1736.68
543.15	1755.11
543.35	1751.01
543.54	1687.53
543.74	1591.27
543.94	1742.82
544.14	1718.25
544.33	1769.44
544.53	1734.63
544.73	1738.73
544.93	1699.81
545.12	1757.16
545.32	1738.73
545.52	1716.20
545.71	1646.57
545.91	1734.63
546.11	1734.63
546.30	1605.61
546.50	1716.20
546.70	1753.06
546.90	1753.06
547.09	1685.48
547.29	1699.81
547.49	1777.64
547.68	1722.34
547.88	1708.01
548.08	1783.78
548.27	2152.42
548.47	1691.62
548.67	1660.90
548.87	1816.55
549.06	1703.91
549.26	1740.77
549.46	1705.96
549.65	1738.73
549.85	1837.03
550.05	1726.44
550.24	1673.19
550.44	1763.30
550.64	1757.16
550.83	1705.96
551.03	1828.84
551.23	1820.64
551.42	1855.46
551.62	1740.77
551.82	1728.49
552.01	1671.14
552.21	1865.70
552.41	1748.97
552.60	1722.34
552.80	1708.01
553.00	1687.53
553.19	1753.06
553.39	1888.23
553.59	1722.34
553.78	1734.63
553.98	1724.39
554.17	1683.43
554.37	1699.81
554.57	1800.16
554.76	1685.48
554.96	1685.48
555.16	1722.34
555.35	1675.24
555.55	1691.62
555.75	1689.57
555.94	1791.97
556.14	1730.53
556.33	1763.30
556.53	1673.19
556.73	1759.21
556.92	1800.16
557.12	1791.97
557.32	1851.36
557.51	1816.55
557.71	1763.30
557.90	1812.45
558.10	1814.50
558.30	1689.57
558.49	1701.86
558.69	1673.19
558.88	1746.92
559.08	1728.49
559.28	1679.33
559.47	1712.10
559.67	1859.56
559.86	1820.64
560.06	1763.30
560.26	1691.62
560.45	1791.97
560.65	1761.25
560.84	1837.03
561.04	1724.39
561.24	1820.64
561.43	1593.32
561.63	1863.65
561.82	1722.34
562.02	1767.40
562.22	1738.73
562.41	1675.24
562.61	1742.82
562.80	1699.81
563.00	1871.84
563.19	1730.53
563.39	1796.07
563.59	1746.92
563.78	1740.77
563.98	1583.08
564.17	1716.20
564.37	1632.23
564.56	1726.44
564.76	1683.43
564.96	1820.64
565.15	1781.73
565.35	1837.03
565.54	1730.53
565.74	1814.50
565.93	1785.83
566.13	1740.77
566.32	1896.42
566.52	1759.21
566.71	1740.77
566.91	1765.35
567.11	1777.64
567.30	1740.77
567.50	1804.26
567.69	1757.16
567.89	1732.58
568.08	1689.57
568.28	1691.62
568.47	1708.01
568.67	1669.09
568.86	1736.68
569.06	1763.30
569.25	1771.49
569.45	1697.77
569.64	1648.61
569.84	1726.44
570.04	1777.64
570.23	1742.82
570.43	1716.20
570.62	1834.98
570.82	1808.36
571.01	1718.25
571.21	1740.77
571.40	1665.00
571.60	1853.41
571.79	1740.77
571.99	1703.91
572.18	1720.29
572.38	1736.68
572.57	1765.35
572.77	1759.21
572.96	1867.75
573.16	1734.63
573.35	1701.86
573.55	1740.77
573.74	1728.49
573.94	1783.78
574.13	1708.01
574.33	1837.03
574.52	1847.27
574.71	1818.60
574.91	1822.69
575.10	1736.68
575.30	1681.38
575.49	1697.77
575.69	1720.29
575.88	1857.51
576.08	1734.63
576.27	1826.79
576.47	1777.64
576.66	1916.90
576.86	1773.54
577.05	1685.48
577.25	1853.41
577.44	1859.56
577.64	1802.21
577.83	1751.01
578.02	1734.63
578.22	1916.90
578.41	1857.51
578.61	1789.92
578.80	1654.76
579.00	1667.05
579.19	1791.97
579.39	1830.88
579.58	1763.30
579.77	1734.63
579.97	1802.21
580.16	1841.12
580.36	1867.75
580.55	1834.98
580.75	1851.36
580.94	1802.21
581.13	1861.60
581.33	1896.42
581.52	1757.16
581.72	1923.04
581.91	1972.19
582.11	1853.41
582.30	1837.03
582.49	1800.16
582.69	1945.57
582.88	1814.50
583.08	1787.88
583.27	1904.61
583.47	1808.36
583.66	1718.25
583.85	1779.68
584.05	1759.21
584.24	1841.12
584.44	1834.98
584.63	1849.32
584.82	1910.75
585.02	1906.66
585.21	1957.86
585.41	1918.95
585.60	1912.80
585.79	1961.95
585.99	1900.52
586.18	1918.95
586.37	2273.25
586.57	3348.43
586.76	9860.97
586.96	27014.76
587.15	41737.60
587.34	51340.53
587.54	57357.46
587.73	55524.53
587.93	39515.56
588.12	29617.72
588.31	23617.18
588.51	20453.06
588.70	18247.40
588.89	16903.93
589.09	15421.20
589.28	13594.42
589.47	11366.23
589.67	9478.00
589.86	7235.47
590.06	5474.22
590.25	4249.54
590.44	3237.84
590.64	2574.30
590.83	2303.96
591.02	2025.44
591.22	1902.56
591.41	1910.75
591.60	1820.64
591.80	1961.95
591.99	1767.40
592.18	1796.07
592.38	1906.66
592.57	1789.92
592.76	1824.74
592.96	1787.88
593.15	1855.46
593.34	1806.31
593.54	1791.97
593.73	1812.45
593.92	1789.92
594.12	1869.80
594.31	1808.36
594.50	1937.38
594.70	1869.80
594.89	1837.03
595.08	1775.59
595.28	1773.54
595.47	1949.67
595.66	1798.12
595.86	1718.25
596.05	1695.72
596.24	1748.97
596.43	1873.89
596.63	1927.14
596.82	1673.19
597.01	1759.21
597.21	1882.08
597.40	1828.84
597.59	1810.40
597.79	1677.29
597.98	1880.04
598.17	1806.31
598.36	1716.20
598.56	1818.60
598.75	1751.01
598.94	1757.16
599.14	1753.06
599.33	1765.35
599.52	1783.78
599.71	1736.68
599.91	1824.74
600.10	1820.64
600.29	1785.83
600.48	1843.17
600.68	1732.58
600.87	1730.53
601.06	1818.60
601.26	1738.73
601.45	1775.59
601.64	1771.49
601.83	1832.93
602.03	1679.33
602.22	1697.77
602.41	1855.46
602.60	1904.61
602.80	1779.68
602.99	1816.55
603.18	1822.69
603.37	1691.62
603.57	1796.07
603.76	1761.25
603.95	1796.07
604.14	1718.25
604.34	1628.14
604.53	1685.48
604.72	1798.12
604.91	1765.35
605.10	1781.73
605.30	1660.90
605.49	1861.60
605.68	1757.16
605.87	1757.16
606.07	1697.77
606.26	1693.67
606.45	1814.50
606.64	1763.30
606.84	1751.01
607.03	1736.68
607.22	1796.07
607.41	1695.72
607.60	1765.35
607.80	1787.88
607.99	1703.91
608.18	1734.63
608.37	1685.48
608.56	1701.86
608.76	1849.32
608.95	1929.19
609.14	1726.44
609.33	1949.67
609.52	1918.95
609.72	1791.97
609.91	1880.04
610.10	1777.64
610.29	1908.71
610.48	1877.99
610.68	1802.21
610.87	1755.11
611.06	1816.55
611.25	1783.78
611.44	1820.64
611.63	1808.36
611.83	1748.97
612.02	1673.19
612.21	1796.07
612.40	1626.09
612.59	1718.25
612.79	1705.96
612.98	1714.15
613.17	1781.73
613.36	1730.53
613.55	1923.04
613.74	1814.50
613.93	1810.40
614.13	1904.61
614.32	1931.23
614.51	1927.14
614.70	1820.64
614.89	1841.12
615.08	1847.27
615.28	2220.00
615.47	1632.23
615.66	1837.03
615.85	1818.60
616.04	1933.28
616.23	1810.40
616.42	1812.45
616.62	1810.40
616.81	1777.64
617.00	1767.40
617.19	1742.82
617.38	1757.16
617.57	1712.10
617.76	1843.17
617.95	1771.49
618.15	1771.49
618.34	1869.80
618.53	1722.34
618.72	1867.75
618.91	1841.12
619.10	1849.32
619.29	1771.49
619.48	1746.92
619.68	1734.63
619.87	1744.87
620.06	1640.42
620.25	1806.31
620.44	1734.63
620.63	1824.74
620.82	1785.83
621.01	1769.44
621.20	1720.29
621.39	1802.21
621.59	1769.44
621.78	1689.57
621.97	1705.96
622.16	1767.40
622.35	1802.21
622.54	1765.35
622.73	1826.79
622.92	1632.23
623.11	1798.12
623.30	1828.84
623.49	1791.97
623.68	1734.63
623.88	1812.45
624.07	1769.44
624.26	1685.48
624.45	1763.30
624.64	1697.77
624.83	1755.11
625.02	1767.40
625.21	1775.59
625.40	1765.35
625.59	1808.36
625.78	1724.39
625.97	1861.60
626.16	1877.99
626.35	1726.44
626.54	1826.79
626.74	1902.56
626.93	1818.60
627.12	1800.16
627.31	1908.71
627.50	1744.87
627.69	1859.56
627.88	1656.81
628.07	1781.73
628.26	1665.00
628.45	1687.53
628.64	1703.91
628.83	1765.35
629.02	1732.58
629.21	1726.44
629.40	1779.68
629.59	1681.38
629.78	1720.29
629.97	1734.63
630.16	1853.41
630.35	1751.01
630.54	1738.73
630.73	1755.11
630.92	1767.40
631.11	1630.18
631.30	1783.78
631.49	1847.27
631.68	1703.91
631.87	1763.30
632.06	1710.05
632.25	1834.98
632.44	1734.63
632.63	1849.32
632.82	1806.31
633.01	1753.06
633.20	1791.97
633.39	1814.50
633.58	1724.39
633.77	1773.54
633.96	1736.68
634.15	1751.01
634.34	1812.45
634.53	1726.44
634.72	1791.97
634.91	1611.75
635.10	1769.44
635.29	1857.51
635.48	1744.87
635.67	1701.86
635.86	1685.48
636.05	1798.12
636.24	1755.11
636.43	1826.79
636.62	1736.68
636.81	1525.74
637.00	1652.71
637.19	1757.16
637.38	1720.29
637.57	1689.57
637.76	1775.59
637.95	1857.51
638.14	1798.12
638.33	1939.43
638.52	1820.64
638.71	1722.34
638.89	1787.88
639.08	1923.04
639.27	1851.36
639.46	1781.73
639.65	2150.37
639.84	2273.25
640.03	2410.46
640.22	2293.72
640.41	2428.89
640.60	2090.98
640.79	2066.40
640.98	1927.14
641.17	1908.71
641.36	1916.90
641.55	1910.75
641.74	1779.68
641.92	1771.49
642.11	1771.49
642.30	1761.25
642.49	1669.09
642.68	1771.49
642.87	1730.53
643.06	1789.92
643.25	1703.91
643.44	1757.16
643.63	1613.80
643.82	1783.78
644.00	1652.71
644.19	1734.63
644.38	1675.24
644.57	1791.97
644.76	1701.86
644.95	1658.85
645.14	1820.64
645.33	1718.25
645.52	1681.38
645.71	1646.57
645.89	1728.49
646.08	1652.71
646.27	1748.97
646.46	1828.84
646.65	1697.77
646.84	1761.25
647.03	1665.00
647.22	1791.97
647.40	1767.40
647.59	1748.97
647.78	1607.66
647.97	1667.05
648.16	1695.72
648.35	1800.16
648.54	1777.64
648.73	1662.95
648.91	1763.30
649.10	1775.59
649.29	1699.81
649.48	1697.77
649.67	1781.73
649.86	1712.10
650.05	1759.21
650.23	1894.37
650.42	1759.21
650.61	1929.19
650.80	1961.95
650.99	1984.48
651.18	1851.36
651.36	1806.31
651.55	1705.96
651.74	1794.02
651.93	1697.77
652.12	1722.34
652.31	1748.97
652.49	1802.21
652.68	1654.76
652.87	1869.80
653.06	1806.31
653.25	1804.26
653.44	1742.82
653.62	1765.35
653.81	1726.44
654.00	1722.34
654.19	1802.21
654.38	1865.70
654.56	1716.20
654.75	1703.91
654.94	1763.30
655.13	1751.01
655.32	1748.97
655.51	1767.40
655.69	1634.28
655.88	1763.30
656.07	1734.63
656.26	1806.31
656.45	1669.09
656.63	1656.81
656.82	1767.40
657.01	1787.88
657.20	1689.57
657.38	1785.83
657.57	1654.76
657.76	1601.51
657.95	1755.11
658.14	1718.25
658.32	1652.71
658.51	1638.38
658.70	1757.16
658.89	1763.30
659.08	1728.49
659.26	1898.47
659.45	1710.05
659.64	1734.63
659.83	1695.72
660.01	1927.14
660.20	1783.78
660.39	1783.78
660.58	1609.70
660.76	1783.78
660.95	1589.22
661.14	1796.07
661.33	1648.61
661.51	1724.39
661.70	1703.91
661.89	1783.78
662.08	1769.44
662.26	1736.68
662.45	1669.09
662.64	1834.98
662.83	1773.54
663.01	1738.73
663.20	1748.97
663.39	1759.21
663.58	1763.30
663.76	1697.77
663.95	1783.78
664.14	1697.77
664.32	1714.15
664.51	1654.76
664.70	1662.95
664.89	1761.25
665.07	1658.85
665.26	1697.77
665.45	1615.85
665.64	1765.35
665.82	1755.11
666.01	1765.35
666.20	1697.77
666.38	1845.22
666.57	1837.03
666.76	2195.42
666.95	4571.07
667.13	11509.58
667.32	18267.88
667.51	22199.98
667.69	25171.58
667.88	25235.07
668.07	19439.32
668.25	14286.63
668.44	11726.67
668.63	9805.67
668.81	8404.86
669.00	7606.16
669.19	7030.68
669.38	6104.99
669.56	5410.73
669.75	4478.91
669.94	3870.66
670.12	3188.69
670.31	2672.60
670.50	2332.64
670.68	2152.42
670.87	1894.37
671.06	1791.97
671.24	1808.36
671.43	1906.66
671.62	1855.46
671.80	1736.68
671.99	1820.64
672.18	1720.29
672.36	1816.55
672.55	1753.06
672.74	1746.92
672.92	1705.96
673.11	1740.77
673.29	1687.53
673.48	1812.45
673.67	1748.97
673.85	1787.88
674.04	1699.81
674.23	1753.06
674.41	1794.02
674.60	1675.24
674.79	1671.14
674.97	1736.68
675.16	1826.79
675.34	1841.12
675.53	1746.92
675.72	1767.40
675.90	1757.16
676.09	1693.67
676.28	1732.58
676.46	1611.75
676.65	1759.21
676.83	1681.38
677.02	1791.97
677.21	1714.15
677.39	1710.05
677.58	1591.27
677.77	1714.15
677.95	1638.38
678.14	1728.49
678.32	1652.71
678.51	1673.19
678.70	1837.03
678.88	1710.05
679.07	1787.88
679.25	1755.11
679.44	1703.91
679.63	1716.20
679.81	1783.78
680.00	1783.78
680.18	1765.35
680.37	1683.43
680.55	1689.57
680.74	1675.24
680.93	1585.13
681.11	1732.58
681.30	1748.97
681.48	1669.09
681.67	1705.96
681.85	1660.90
682.04	1697.77
682.23	1740.77
682.41	1734.63
682.60	1683.43
682.78	1683.43
682.97	1718.25
683.15	1748.97
683.34	1710.05
683.53	1853.41
683.71	1585.13
683.90	1841.12
684.08	1781.73
684.27	1621.99
684.45	1671.14
684.64	1796.07
684.82	1701.86
685.01	1689.57
685.19	1699.81
685.38	1867.75
685.57	1738.73
685.75	1718.25
685.94	1644.52
686.12	1673.19
686.31	1658.85
686.49	1834.98
686.68	1626.09
686.86	1736.68
687.05	1732.58
687.23	1822.69
687.42	1726.44
687.60	1644.52
687.79	1734.63
687.97	1787.88
688.16	1779.68
688.34	1689.57
688.53	1681.38
688.71	1718.25
688.90	1814.50
689.08	1746.92
689.27	1646.57
689.45	1798.12
689.64	1814.50
689.82	1695.72
690.01	1746.92
690.19	1783.78
690.38	1728.49
690.56	1806.31
690.75	1724.39
690.93	1685.48
691.12	1665.00
691.30	1691.62
691.49	1679.33
691.67	1683.43
691.86	1789.92
692.04	1681.38
692.23	1796.07
692.41	1773.54
692.60	1886.18
692.78	1875.94
692.97	1812.45
693.15	1822.69
693.34	1871.84
693.52	1765.35
693.71	1689.57
693.89	1708.01
694.08	1740.77
694.26	1765.35
694.44	1759.21
694.63	1755.11
694.81	1697.77
695.00	1638.38
695.18	1787.88
695.37	1775.59
695.55	1703.91
695.74	1714.15
695.92	1705.96
696.10	1775.59
696.29	1660.90
696.47	1685.48
696.66	1654.76
696.84	1632.23
697.03	1642.47
697.21	1886.18
697.40	2371.55
697.58	1816.55
697.76	1617.90
697.95	1630.18
698.13	1667.05
698.32	1619.94
698.50	1757.16
698.68	1755.11
698.87	1748.97
699.05	1755.11
699.24	1685.48
699.42	1611.75
699.61	1767.40
699.79	1638.38
699.97	1708.01
700.16	1665.00
700.34	1718.25
700.53	1722.34
700.71	1736.68
700.89	1746.92
701.08	1699.81
701.26	1695.72
701.45	2174.94
701.63	1710.05
701.81	1755.11
702.00	1734.63
702.18	1769.44
702.37	1667.05
702.55	1816.55
702.73	1845.22
702.92	1832.93
703.10	1955.81
703.28	1959.91
703.47	1834.98
703.65	1884.13
703.84	1869.80
704.02	1779.68
704.20	1898.47
704.39	1802.21
704.57	1742.82
704.75	1914.85
704.94	1771.49
705.12	1798.12
705.30	1837.03
705.49	2529.24
705.67	5427.12
705.86	13043.51
706.04	19148.51
706.22	22363.82
706.41	24981.12
706.59	24465.03
706.77	18829.02
706.96	13561.65
707.14	11976.52
707.32	9996.14
707.51	8765.31
707.69	7731.08
707.87	6733.72
708.06	5541.80
708.24	4353.98
708.42	3303.37
708.61	2881.49
708.79	2183.13
708.97	2025.44
709.16	2023.39
709.34	1847.27
709.52	1771.49
709.71	1783.78
709.89	1810.40
710.07	1652.71
710.26	1728.49
710.44	1724.39
710.62	1767.40
710.80	1683.43
710.99	1697.77
711.17	1814.50
711.35	1693.67
711.54	1685.48
711.72	1732.58
711.90	1695.72
712.09	1712.10
712.27	1628.14
712.45	1781.73
712.63	1632.23
712.82	1753.06
713.00	1658.85
713.18	1773.54
713.37	1761.25
713.55	1648.61
713.73	1755.11
713.91	1724.39
714.10	1654.76
714.28	1701.86
714.46	1843.17
714.65	1738.73
714.83	1697.77
715.01	1701.86
715.19	1648.61
715.38	1626.09
715.56	1781.73
715.74	1716.20
715.92	1644.52
716.11	1812.45
716.29	1638.38
716.47	1773.54
716.65	1701.86
716.84	1587.18
717.02	1742.82
717.20	1665.00
717.38	1638.38
717.57	1771.49
717.75	1656.81
717.93	1710.05
718.11	1714.15
718.30	1613.80
718.48	1740.77
718.66	1775.59
718.84	1744.87
719.03	1677.29
719.21	1742.82
719.39	1837.03
719.57	1773.54
719.75	1701.86
719.94	1675.24
720.12	1667.05
720.30	1748.97
720.48	1824.74
720.67	1748.97
720.85	1724.39
721.03	1638.38
721.21	1722.34
721.39	1798.12
721.58	1738.73
721.76	1624.04
721.94	1785.83
722.12	1722.34
722.30	1837.03
722.49	1681.38
722.67	1681.38
722.85	1722.34
723.03	1648.61
723.21	1607.66
723.40	1761.25
723.58	1853.41
723.76	1845.22
723.94	1828.84
724.12	1714.15
724.30	1828.84
724.49	1882.08
724.67	1714.15
724.85	1771.49
725.03	1732.58
725.21	1830.88
725.40	1783.78
725.58	1777.64
725.76	1800.16
725.94	1685.48
726.12	1632.23
726.30	1669.09
726.49	1753.06
726.67	1634.28
726.85	1791.97
727.03	1789.92
727.21	2318.30
727.39	3444.68
727.57	4878.26
727.76	5609.39
727.94	6154.15
728.12	6238.11
728.30	5719.98
728.48	4433.85
728.66	3860.42
728.84	3581.90
729.03	3143.63
729.21	2840.53
729.39	2420.70
729.57	2088.93
729.75	2054.11
729.93	1959.91
730.11	1783.78
730.30	1763.30
730.48	1808.36
730.66	1849.32
730.84	1837.03
731.02	1761.25
731.20	1658.85
731.38	1679.33
731.56	1675.24
731.74	1683.43
731.93	1701.86
732.11	1742.82
732.29	1757.16
732.47	1763.30
732.65	1703.91
732.83	1808.36
733.01	1765.35
733.19	1654.76
733.37	1767.40
733.56	1693.67
733.74	1675.24
733.92	1794.02
734.10	1773.54
734.28	1755.11
734.46	1595.37
734.64	1621.99
734.82	1701.86
735.00	1640.42
735.18	1677.29
735.36	1771.49
735.54	1652.71
735.73	1675.24
735.91	1716.20
736.09	1775.59
736.27	1716.20
736.45	1802.21
736.63	1648.61
736.81	1716.20
736.99	1804.26
737.17	1798.12
737.35	1712.10
737.53	1669.09
737.71	1775.59
737.89	1857.51
738.07	1673.19
738.25	1683.43
738.43	1730.53
738.61	1656.81
738.80	1630.18
738.98	1640.42
739.16	1640.42
739.34	1638.38
739.52	1761.25
739.70	1669.09
739.88	1779.68
740.06	1765.35
740.24	1566.70
740.42	1724.39
740.60	1597.42
740.78	1665.00
740.96	1636.33
741.14	1656.81
741.32	1781.73
741.50	1593.32
741.68	1798.12
741.86	1753.06
742.04	1638.38
742.22	1658.85
742.40	1660.90
742.58	1701.86
742.76	1681.38
742.94	1751.01
743.12	1626.09
743.30	1712.10
743.48	1722.34
743.66	1738.73
743.84	1746.92
744.02	1687.53
744.20	1685.48
744.38	1646.57
744.56	1648.61
744.74	1761.25
744.92	1730.53
745.10	1839.08
745.28	1708.01
745.46	1789.92
745.64	1697.77
745.82	1804.26
746.00	1685.48
746.18	1755.11
746.36	1662.95
746.54	1695.72
746.72	1685.48
746.90	1632.23
747.08	1787.88
747.26	1710.05
747.44	1728.49
747.62	1781.73
747.80	1726.44
747.98	1796.07
748.15	1806.31
748.33	1800.16
748.51	1751.01
748.69	1769.44
748.87	1660.90
749.05	1697.77
749.23	1697.77
749.41	1685.48
749.59	1683.43
749.77	1722.34
749.95	1718.25
750.13	1728.49
750.31	1701.86
750.49	1705.96
750.67	1751.01
750.85	1755.11
751.03	1681.38
751.20	1789.92
751.38	1755.11
751.56	1683.43
751.74	1722.34
751.92	1679.33
752.10	1632.23
752.28	1816.55
752.46	1652.71
752.64	1703.91
752.82	1732.58
753.00	1775.59
753.18	1665.00
753.35	1734.63
753.53	1777.64
753.71	1716.20
753.89	1718.25
754.07	1814.50
754.25	1777.64
754.43	1761.25
754.61	1628.14
754.79	1648.61
754.97	1775.59
755.14	1746.92
755.32	1669.09
755.50	1753.06
755.68	1699.81
755.86	1681.38
756.04	1673.19
756.22	1589.22
756.40	1783.78
756.57	1765.35
756.75	1667.05
756.93	1740.77
757.11	1781.73
757.29	1617.90
757.47	1679.33
757.65	1632.23
757.82	1636.33
758.00	1693.67
758.18	1695.72
758.36	1667.05
758.54	1775.59
758.72	1626.09
758.90	1773.54
759.07	1730.53
759.25	1718.25
759.43	1697.77
759.61	1705.96
759.79	2217.95
759.97	1771.49
760.15	1753.06
760.32	1671.14
760.50	1738.73
760.68	1781.73
760.86	1648.61
761.04	1783.78
761.22	1779.68
761.39	1724.39
761.57	1746.92
761.75	1693.67
761.93	1755.11
762.11	1697.77
762.28	1796.07
762.46	1658.85
762.64	1802.21
762.82	1652.71
763.00	1714.15
763.18	1720.29
763.35	1595.37
763.53	1773.54
763.71	1751.01
763.89	1693.67
764.07	1675.24
764.24	1767.40
764.42	1769.44
764.60	1675.24
764.78	1699.81
764.96	1834.98
765.13	1685.48
765.31	1732.58
765.49	1785.83
765.67	1642.47
765.84	1726.44
766.02	1667.05
766.20	1613.80
766.38	1685.48
766.56	1714.15
766.73	1730.53
766.91	1658.85
767.09	1593.32
767.27	1767.40
767.44	1626.09
767.62	1691.62
767.80	1798.12
767.98	1705.96
768.15	1708.01
768.33	1736.68
768.51	1798.12
768.69	1734.63
768.87	1738.73
769.04	1738.73
769.22	1837.03
769.40	1816.55
769.58	1808.36
769.75	1691.62
769.93	1722.34
770.11	1705.96
770.28	1697.77
770.46	1748.97
770.64	1675.24
770.82	1714.15
770.99	1624.04
771.17	1734.63
771.35	1728.49
771.53	1769.44
771.70	1726.44
771.88	1777.64
772.06	1621.99
772.23	1669.09
772.41	1710.05
772.59	1689.57
772.77	1665.00
772.94	1624.04
773.12	1677.29
773.30	1642.47
773.47	1757.16
773.65	1675.24
773.83	1746.92
774.01	1693.67
774.18	1628.14
774.36	1691.62
774.54	1607.66
774.71	1746.92
774.89	1566.70
775.07	1669.09
775.24	1708.01
775.42	1730.53
775.60	1808.36
775.78	1685.48
775.95	1611.75
776.13	1589.22
776.31	1525.74
776.48	1636.33
776.66	1742.82
776.84	1669.09
777.01	1722.34
777.19	1720.29
777.37	1658.85
777.54	1742.82
777.72	1769.44
777.90	1658.85
778.07	1701.86
778.25	1920.99
778.43	1748.97
778.60	1607.66
778.78	1765.35
778.96	1775.59
779.13	1697.77
779.31	1732.58
779.49	1742.82
779.66	1748.97
779.84	1605.61
780.01	1720.29
780.19	1652.71
780.37	1730.53
780.54	1855.46
780.72	1617.90
780.90	1675.24
781.07	1650.66
781.25	1695.72
781.43	1734.63
781.60	1640.42
781.78	1753.06
781.95	1701.86
782.13	1654.76
782.31	1763.30
782.48	1558.50
782.66	1759.21
782.83	1716.20
783.01	1738.73
783.19	1722.34
783.36	1681.38
783.54	1679.33
783.72	1871.84
783.89	1644.52
784.07	1771.49
784.24	1716.20
784.42	1900.52
784.60	1697.77
784.77	1763.30
784.95	1595.37
785.12	1720.29
785.30	1736.68
785.47	1648.61
785.65	1705.96
785.83	1736.68
786.00	1619.94
786.18	1759.21
786.35	1638.38
786.53	1652.71
786.71	1730.53
786.88	1714.15
787.06	1708.01
787.23	1724.39
787.41	1648.61
787.58	1712.10
787.76	1667.05
787.94	1740.77
788.11	1740.77
788.29	1708.01
788.46	1660.90
788.64	1621.99
788.81	1695.72
788.99	1728.49
789.16	1710.05
789.34	1656.81
789.52	1619.94
789.69	1677.29
789.87	1529.83
790.04	1732.58
790.22	1656.81
790.39	1738.73
790.57	1619.94
790.74	1624.04
790.92	1744.87
791.09	1677.29
791.27	1679.33
791.44	1818.60
791.62	1720.29
791.79	1804.26
791.97	1738.73
792.15	1923.04
792.32	1748.97
792.50	1816.55
792.67	1839.08
792.85	1796.07
793.02	1628.14
793.20	1667.05
793.37	1693.67
793.55	1757.16
793.72	1611.75
793.90	1738.73
794.07	1742.82
794.25	1732.58
794.42	1716.20
794.60	1642.47
794.77	1806.31
794.95	1777.64
795.12	1771.49
795.30	1673.19
795.47	1716.20
795.65	1875.94
795.82	1740.77
796.00	1726.44
796.17	1703.91
796.34	1703.91
796.52	1808.36
796.69	1748.97
796.87	1771.49
797.04	1751.01
797.22	1759.21
797.39	1626.09
797.57	1777.64
797.74	1759.21
797.92	1769.44
798.09	1646.57
798.27	1845.22
798.44	1701.86
798.62	1748.97
798.79	1685.48
798.96	1632.23
799.14	1705.96
799.31	1861.60
799.49	1617.90
799.66	1658.85
799.84	1667.05
800.01	1648.61
800.19	1685.48
800.36	1591.27
800.53	1712.10
800.71	1767.40
800.88	1800.16
801.06	1681.38
801.23	1705.96
801.41	1701.86
801.58	1703.91
801.75	1667.05
801.93	1673.19
802.10	1722.34
802.28	1658.85
802.45	1693.67
802.63	1748.97
802.80	1755.11
802.97	1681.38
803.15	1703.91
803.32	1689.57
803.50	1662.95
803.67	1730.53
803.84	1671.14
804.02	1722.34
804.19	1695.72
804.37	1601.51
804.54	1615.85
804.71	1826.79
804.89	1773.54
805.06	1810.40
805.24	1665.00
805.41	1626.09
805.58	1697.77
805.76	1890.28
805.93	1705.96
806.10	1865.70
806.28	1632.23
806.45	1630.18
806.63	1679.33
806.80	1742.82
806.97	1640.42
807.15	1738.73
807.32	1650.66
807.49	1693.67
807.67	1597.42
807.84	1708.01
808.01	1576.94
808.19	1888.23
808.36	1834.98
808.54	1697.77
808.71	1732.58
808.88	1722.34
809.06	1857.51
809.23	1751.01
809.40	1697.77
809.58	1724.39
809.75	1701.86
809.92	1718.25
810.10	1837.03
810.27	1720.29
810.44	1730.53
810.62	1728.49
810.79	1744.87
810.96	1732.58
811.14	1648.61
811.31	1681.38
811.48	1755.11
811.66	1656.81
811.83	1724.39
812.00	1714.15
812.18	1734.63
812.35	1826.79
812.52	1742.82
812.69	1615.85
812.87	1726.44
813.04	1714.15
813.21	1712.10
813.39	1693.67
813.56	1705.96
813.73	1732.58
813.91	1642.47
814.08	1705.96
814.25	1718.25
814.42	1632.23
814.60	1669.09
814.77	1671.14
814.94	1714.15
815.12	1751.01
815.29	1736.68
815.46	1683.43
815.63	1742.82
815.81	1724.39
815.98	1646.57
816.15	1742.82
816.33	1646.57
816.50	1667.05
816.67	1722.34
816.84	1691.62
817.02	1703.91
817.19	1695.72
817.36	1708.01
817.53	1705.96
817.71	1624.04
817.88	1701.86
818.05	1705.96
818.22	1636.33
818.40	1791.97
818.57	1656.81
818.74	1746.92
818.91	1634.28
819.09	1689.57
819.26	1779.68
819.43	1568.74
819.60	1701.86
819.78	1716.20
819.95	1775.59
820.12	1572.84
820.29	1687.53
820.47	1751.01
820.64	1650.66
820.81	1628.14
820.98	1714.15
821.15	1703.91
821.33	1755.11
821.50	1662.95
821.67	1652.71
821.84	1652.71
822.02	1736.68
822.19	1738.73
822.36	1748.97
822.53	1755.11
822.70	1607.66
822.88	1679.33
823.05	1740.77
823.22	1779.68
823.39	1701.86
823.56	1683.43
823.74	1828.84
823.91	1677.29
824.08	1726.44
824.25	1728.49
824.42	1789.92
824.60	1595.37
824.77	1751.01
824.94	1675.24
825.11	1697.77
825.28	1611.75
825.45	1718.25
825.63	1767.40
825.80	1634.28
825.97	1791.97
826.14	1742.82
826.31	1617.90
826.48	1693.67
826.66	1660.90
826.83	1665.00
827.00	1677.29
827.17	1705.96
827.34	1701.86
827.51	1667.05
827.69	1716.20
827.86	1591.27
828.03	1751.01
828.20	1669.09
828.37	1714.15
828.54	1759.21
828.71	1705.96
828.89	1794.02
829.06	1777.64
829.23	1796.07
829.40	1675.24
829.57	1677.29
829.74	1693.67
829.91	1652.71
830.09	1665.00
830.26	1710.05
830.43	1769.44
830.60	1718.25
830.77	1714.15
830.94	1759.21
831.11	1740.77
831.28	1624.04
831.46	1718.25
831.63	1683.43
831.80	1775.59
831.97	1642.47
832.14	1695.72
832.31	1740.77
832.48	1718.25
832.65	1761.25
832.82	1669.09
832.99	1748.97
833.17	1650.66
833.34	1800.16
833.51	1703.91
833.68	1558.50
833.85	1757.16
834.02	1595.37
834.19	1650.66
834.36	1615.85
834.53	1691.62
834.70	1736.68
834.87	1761.25
835.04	1703.91
835.22	1650.66
835.39	1679.33
835.56	1660.90
835.73	1665.00
835.90	1806.31
836.07	1624.04
836.24	1748.97
836.41	1714.15
836.58	1691.62
836.75	1687.53
836.92	1730.53
837.09	1648.61
837.26	1837.03
837.43	1757.16
837.60	1781.73
837.77	1679.33
837.94	1705.96
838.12	1796.07
838.29	1732.58
838.46	1630.18
838.63	1669.09
838.80	1810.40
838.97	1812.45
839.14	1712.10
839.31	1630.18
839.48	1722.34
839.65	1636.33
839.82	1656.81
839.99	1685.48
840.16	1710.05
840.33	1724.39
840.50	1701.86
840.67	1705.96
840.84	1566.70
841.01	1769.44
841.18	1691.62
841.35	1771.49
841.52	1681.38
841.69	1763.30
841.86	1599.46
842.03	1775.59
842.20	1697.77
842.37	1624.04
842.54	1712.10
842.71	1710.05
842.88	1679.33
843.05	1708.01
843.22	1730.53
843.39	1710.05
843.56	1716.20
843.73	1705.96
843.90	1716.20
844.07	1673.19
844.24	1755.11
844.41	1816.55
844.58	1722.34
844.75	1710.05
844.92	1726.44
845.09	1736.68
845.26	1675.24
845.43	1728.49
845.60	1714.15
845.77	1746.92
845.94	1806.31
846.10	1744.87
846.27	1562.60
846.44	1642.47
846.61	1603.56
846.78	1662.95
846.95	1785.83
847.12	1751.01
847.29	1732.58
847.46	1599.46
847.63	1716.20
847.80	1632.23
847.97	1720.29
848.14	1812.45
848.31	1728.49
848.48	1630.18
848.65	1746.92
848.82	1619.94
848.98	1861.60
849.15	1748.97
849.32	1703.91
849.49	1773.54
849.66	1722.34
849.83	1765.35
850.00	1712.10
850.17	1681.38
850.34	1718.25
850.51	1701.86
850.68	1726.44
850.85	1861.60
851.01	1761.25
851.18	1701.86
851.35	1681.38
851.52	1732.58
851.69	1718.25
851.86	1726.44
852.03	1689.57
852.20	1810.40
852.37	1712.10
852.53	1626.09
852.70	1691.62
852.87	1660.90
853.04	1753.06
853.21	1701.86
853.38	1755.11
853.55	1755.11
853.72	1787.88
853.89	1621.99
854.05	1642.47
854.22	1759.21
854.39	1632.23
854.56	1775.59
854.73	1755.11
854.90	1703.91
855.07	1693.67
855.23	1646.57
855.40	1697.77
855.57	1654.76
855.74	1609.70
855.91	1837.03
856.08	1624.04
856.25	1603.56
856.41	1687.53
856.58	1705.96
856.75	1691.62
856.92	1603.56
857.09	1773.54
857.26	1632.23
857.42	1673.19
857.59	1777.64
857.76	1644.52
857.93	1683.43
858.10	1634.28
858.27	1665.00
858.43	1730.53
858.60	1687.53
858.77	1603.56
858.94	1677.29
859.11	1718.25
859.27	1765.35
859.44	1662.95
859.61	1785.83
859.78	1761.25
859.95	1644.52
860.12	1667.05
860.28	1804.26
860.45	1886.18
860.62	1779.68
860.79	1691.62
860.95	1679.33
861.12	1703.91
861.29	1660.90
861.46	1705.96
861.63	1628.14
861.79	1660.90
861.96	1683.43
862.13	1740.77
862.30	1787.88
862.47	1603.56
862.63	1619.94
862.80	1714.15
862.97	1759.21
863.14	1751.01
863.30	1703.91
863.47	1701.86
863.64	1789.92
863.81	1699.81
863.97	1691.62
864.14	1695.72
864.31	1718.25
864.48	1656.81
864.65	1656.81
864.81	1656.81
864.98	1740.77
865.15	1738.73
865.32	1734.63
865.48	1794.02
865.65	1810.40
865.82	1685.48
865.98	1718.25
866.15	1771.49
866.32	1744.87
866.49	1667.05
866.65	1828.84
866.82	1710.05
866.99	1734.63
867.16	1679.33
867.32	1574.89
867.49	1730.53
867.66	1759.21
867.83	1644.52
867.99	1662.95
868.16	1613.80
868.33	1669.09
868.49	1642.47
868.66	1650.66
868.83	1714.15
868.99	1742.82
869.16	1716.20
869.33	1781.73
869.50	1642.47
869.66	1562.60
869.83	1699.81
870.00	1572.84
870.16	1708.01
870.33	1716.20
870.50	1714.15
870.66	1779.68
870.83	1789.92
871.00	1687.53
871.17	1783.78
871.33	1732.58
871.50	1685.48
871.67	1673.19
871.83	1638.38
872.00	1841.12
872.17	1626.09
872.33	1882.08
872.50	1748.97
872.67	1701.86
872.83	1671.14
873.00	1748.97
873.17	1726.44
873.33	1816.55
873.50	1724.39
873.67	1591.27
873.83	1734.63
874.00	1660.90
874.16	1773.54
874.33	1761.25
874.50	1605.61
874.66	1693.67
874.83	1748.97
875.00	1806.31
875.16	1777.64
875.33	1779.68
875.50	1615.85
875.66	1619.94
875.83	1714.15
875.99	1779.68
876.16	1732.58
876.33	1654.76
876.49	1685.48
876.66	1703.91
876.83	1679.33
876.99	1619.94
877.16	1667.05
877.32	1646.57
877.49	1693.67
877.66	1697.77
877.82	1728.49
877.99	1755.11
878.15	1693.67
878.32	1691.62
878.49	1761.25
878.65	1710.05
878.82	1830.88
878.98	1644.52
879.15	1787.88
879.32	1767.40
879.48	1779.68
879.65	1718.25
879.81	1626.09
879.98	1718.25
880.15	1691.62
880.31	1773.54
880.48	1652.71
880.64	1724.39
880.81	1773.54
880.97	1753.06
881.14	1767.40
881.31	1644.52
881.47	1830.88
881.64	1628.14
881.80	1699.81
881.97	1726.44
882.13	1755.11
882.30	1648.61
882.47	1693.67
882.63	1662.95
882.80	1660.90
882.96	1660.90
883.13	1789.92
883.29	1665.00
883.46	1669.09
883.62	1769.44
883.79	1730.53
883.95	1726.44
884.12	1697.77
884.29	1802.21
884.45	1773.54
884.62	1804.26
884.78	1581.03
884.95	1855.46
885.11	1712.10
885.28	1753.06
885.44	1597.42
885.61	1687.53
885.77	1712.10
885.94	1800.16
886.10	1669.09
886.27	1679.33
886.43	1767.40
886.60	1714.15
886.76	1685.48
886.93	1640.42
887.09	1673.19
887.26	1671.14
887.42	1746.92
887.59	1744.87
887.75	1877.99
887.92	1683.43
888.08	1757.16
888.25	1800.16
888.41	1689.57
888.58	1718.25
888.74	1689.57
888.91	1683.43
>>>>>End Processed Spectral Data<<<<<
