SpectraSuite Data File
++++++++++++++++++++++++++++++++++++
Date: Wed May 04 18:44:01 CEST 2016
User: root
Dark Spectrum Present: No
Reference Spectrum Present: No
Number of Sampled Component Spectra: 1
Spectrometers: USB4C02835
Integration Time (usec): 100000 (USB4C02835)
Spectra Averaged: 1 (USB4C02835)
Boxcar Smoothing: 0 (USB4C02835)
Correct for Electrical Dark: No (USB4C02835)
Strobe/Lamp Enabled: No (USB4C02835)
Correct for Detector Non-linearity: No (USB4C02835)
Correct for Stray Light: No (USB4C02835)
Number of Pixels in Processed Spectrum: 3648
>>>>>Begin Processed Spectral Data<<<<<
177.47	1433.58
177.69	1433.58
177.91	1433.58
178.13	1468.39
178.36	1458.15
178.58	1609.70
178.80	1761.25
179.02	1671.14
179.24	1695.72
179.46	1712.10
179.68	1722.34
179.90	1701.86
180.13	1751.01
180.35	1656.81
180.57	1740.77
180.79	1791.97
181.01	1716.20
181.23	1744.87
181.45	1787.88
181.67	1738.73
181.90	1710.05
182.12	1640.42
182.34	1630.18
182.56	1691.62
182.78	1687.53
183.00	1757.16
183.22	1718.25
183.44	1615.85
183.66	1869.80
183.89	1710.05
184.11	1751.01
184.33	1693.67
184.55	1716.20
184.77	1726.44
184.99	1611.75
185.21	1718.25
185.43	1832.93
185.65	1658.85
185.87	1708.01
186.10	1791.97
186.32	1796.07
186.54	1753.06
186.76	1773.54
186.98	1755.11
187.20	1699.81
187.42	1665.00
187.64	1734.63
187.86	1710.05
188.08	1802.21
188.30	1734.63
188.52	1757.16
188.75	1718.25
188.97	1804.26
189.19	1722.34
189.41	1689.57
189.63	1771.49
189.85	1722.34
190.07	1640.42
190.29	1650.66
190.51	1701.86
190.73	1697.77
190.95	1753.06
191.17	1656.81
191.39	1624.04
191.61	1691.62
191.84	1638.38
192.06	1710.05
192.28	1607.66
192.50	1828.84
192.72	1728.49
192.94	1658.85
193.16	1683.43
193.38	1679.33
193.60	1626.09
193.82	1675.24
194.04	1777.64
194.26	1697.77
194.48	1757.16
194.70	1632.23
194.92	1736.68
195.14	1759.21
195.36	1689.57
195.58	1755.11
195.80	1644.52
196.02	1718.25
196.24	1769.44
196.46	1718.25
196.69	1738.73
196.91	1779.68
197.13	1708.01
197.35	1650.66
197.57	1767.40
197.79	1738.73
198.01	1751.01
198.23	1634.28
198.45	1763.30
198.67	1640.42
198.89	1703.91
199.11	1746.92
199.33	1665.00
199.55	1583.08
199.77	1691.62
199.99	1677.29
200.21	1646.57
200.43	1730.53
200.65	1611.75
200.87	1677.29
201.09	1720.29
201.31	1689.57
201.53	1726.44
201.75	1771.49
201.97	1662.95
202.19	1689.57
202.41	1716.20
202.63	1787.88
202.85	1685.48
203.07	1712.10
203.29	1673.19
203.51	1632.23
203.73	1613.80
203.95	1841.12
204.17	1734.63
204.39	1675.24
204.61	1757.16
204.83	1722.34
205.05	1779.68
205.27	1851.36
205.49	1810.40
205.71	1699.81
205.93	1603.56
206.15	1714.15
206.37	1751.01
206.59	1695.72
206.81	1619.94
207.03	1640.42
207.25	1640.42
207.47	1755.11
207.69	1685.48
207.91	1779.68
208.13	1757.16
208.34	1587.18
208.56	1642.47
208.78	1728.49
209.00	1693.67
209.22	1626.09
209.44	1695.72
209.66	1712.10
209.88	1728.49
210.10	1703.91
210.32	1695.72
210.54	1808.36
210.76	1742.82
210.98	1771.49
211.20	1589.22
211.42	1794.02
211.64	1771.49
211.86	1777.64
212.08	1726.44
212.30	1759.21
212.52	1734.63
212.74	1804.26
212.96	1640.42
213.17	1773.54
213.39	1687.53
213.61	1800.16
213.83	1761.25
214.05	1644.52
214.27	1791.97
214.49	1695.72
214.71	1599.46
214.93	1804.26
215.15	1742.82
215.37	1818.60
215.59	1638.38
215.81	1781.73
216.03	1832.93
216.24	1665.00
216.46	1669.09
216.68	1738.73
216.90	1763.30
217.12	1771.49
217.34	1701.86
217.56	1703.91
217.78	1826.79
218.00	1665.00
218.22	1714.15
218.44	1685.48
218.66	1714.15
218.87	1804.26
219.09	1662.95
219.31	1654.76
219.53	1705.96
219.75	1757.16
219.97	1667.05
220.19	1808.36
220.41	1675.24
220.63	1781.73
220.85	1673.19
221.06	1738.73
221.28	1751.01
221.50	1742.82
221.72	1761.25
221.94	1703.91
222.16	1652.71
222.38	1843.17
222.60	1726.44
222.82	1689.57
223.03	1808.36
223.25	1615.85
223.47	1779.68
223.69	1843.17
223.91	1710.05
224.13	1718.25
224.35	1669.09
224.57	1712.10
224.78	1728.49
225.00	1697.77
225.22	1669.09
225.44	1683.43
225.66	1798.12
225.88	1759.21
226.10	1703.91
226.32	1734.63
226.53	1892.32
226.75	1714.15
226.97	1691.62
227.19	1689.57
227.41	1779.68
227.63	1710.05
227.85	1730.53
228.06	1787.88
228.28	1695.72
228.50	1693.67
228.72	1726.44
228.94	1701.86
229.16	1638.38
229.37	1652.71
229.59	1646.57
229.81	1701.86
230.03	1677.29
230.25	1650.66
230.47	1681.38
230.69	1636.33
230.90	1751.01
231.12	1689.57
231.34	1658.85
231.56	1763.30
231.78	1566.70
232.00	1771.49
232.21	1701.86
232.43	1693.67
232.65	1591.27
232.87	1671.14
233.09	1724.39
233.30	1681.38
233.52	1777.64
233.74	1683.43
233.96	1826.79
234.18	1673.19
234.40	1691.62
234.61	1779.68
234.83	1597.42
235.05	1619.94
235.27	1771.49
235.49	1732.58
235.70	1705.96
235.92	1765.35
236.14	1675.24
236.36	1896.42
236.58	1671.14
236.79	1712.10
237.01	1742.82
237.23	1675.24
237.45	1873.89
237.67	1652.71
237.88	1744.87
238.10	1796.07
238.32	1673.19
238.54	1746.92
238.76	1710.05
238.97	1757.16
239.19	1656.81
239.41	1767.40
239.63	1818.60
239.85	1685.48
240.06	1748.97
240.28	1759.21
240.50	1773.54
240.72	1705.96
240.93	1658.85
241.15	1742.82
241.37	1720.29
241.59	1822.69
241.81	1742.82
242.02	1691.62
242.24	1775.59
242.46	1716.20
242.68	1656.81
242.89	1718.25
243.11	1816.55
243.33	1669.09
243.55	1710.05
243.76	1714.15
243.98	1695.72
244.20	1689.57
244.42	1695.72
244.64	1767.40
244.85	1570.79
245.07	1691.62
245.29	1712.10
245.51	1765.35
245.72	1662.95
245.94	1761.25
246.16	1640.42
246.38	1726.44
246.59	1621.99
246.81	1705.96
247.03	1658.85
247.24	1613.80
247.46	1656.81
247.68	1728.49
247.90	1654.76
248.11	1644.52
248.33	1697.77
248.55	1648.61
248.77	1703.91
248.98	1726.44
249.20	1775.59
249.42	1701.86
249.64	1783.78
249.85	1738.73
250.07	1728.49
250.29	1763.30
250.50	1718.25
250.72	1642.47
250.94	1734.63
251.16	1814.50
251.37	1728.49
251.59	1714.15
251.81	1773.54
252.02	1818.60
252.24	1646.57
252.46	1720.29
252.68	1667.05
252.89	1665.00
253.11	1576.94
253.33	1802.21
253.54	1757.16
253.76	1669.09
253.98	1685.48
254.20	1714.15
254.41	1732.58
254.63	1669.09
254.85	1587.18
255.06	1677.29
255.28	1660.90
255.50	1699.81
255.71	1720.29
255.93	1609.70
256.15	1703.91
256.36	1783.78
256.58	1763.30
256.80	1779.68
257.02	1701.86
257.23	1677.29
257.45	1673.19
257.67	1775.59
257.88	1652.71
258.10	1775.59
258.32	1710.05
258.53	1728.49
258.75	1751.01
258.97	1642.47
259.18	1712.10
259.40	1757.16
259.62	1773.54
259.83	1820.64
260.05	1787.88
260.27	1933.28
260.48	1785.83
260.70	1605.61
260.92	1755.11
261.13	1673.19
261.35	1665.00
261.57	1771.49
261.78	1669.09
262.00	1689.57
262.22	1748.97
262.43	1714.15
262.65	1656.81
262.86	1656.81
263.08	1859.56
263.30	1705.96
263.51	1599.46
263.73	1603.56
263.95	1738.73
264.16	1660.90
264.38	1710.05
264.60	1685.48
264.81	1728.49
265.03	1722.34
265.25	1767.40
265.46	1675.24
265.68	1716.20
265.89	1755.11
266.11	1669.09
266.33	1796.07
266.54	1740.77
266.76	1761.25
266.98	1693.67
267.19	1767.40
267.41	1685.48
267.62	1685.48
267.84	1703.91
268.06	1771.49
268.27	1718.25
268.49	1808.36
268.70	1744.87
268.92	1687.53
269.14	1624.04
269.35	1646.57
269.57	1693.67
269.79	1718.25
270.00	1695.72
270.22	1826.79
270.43	1658.85
270.65	1546.22
270.87	1685.48
271.08	1816.55
271.30	1796.07
271.51	1648.61
271.73	1701.86
271.95	1839.08
272.16	1738.73
272.38	1648.61
272.59	1656.81
272.81	1701.86
273.02	1687.53
273.24	1767.40
273.46	1728.49
273.67	1720.29
273.89	1658.85
274.10	1720.29
274.32	1726.44
274.54	1757.16
274.75	1703.91
274.97	1656.81
275.18	1740.77
275.40	1730.53
275.61	1708.01
275.83	1708.01
276.05	1660.90
276.26	1722.34
276.48	1695.72
276.69	1644.52
276.91	1654.76
277.12	1837.03
277.34	1720.29
277.55	1791.97
277.77	1755.11
277.99	1685.48
278.20	1677.29
278.42	1665.00
278.63	1603.56
278.85	1693.67
279.06	1681.38
279.28	1724.39
279.49	1769.44
279.71	1783.78
279.93	1763.30
280.14	1748.97
280.36	1705.96
280.57	1740.77
280.79	1779.68
281.00	1669.09
281.22	1779.68
281.43	1748.97
281.65	1585.13
281.86	1648.61
282.08	1757.16
282.29	1798.12
282.51	1669.09
282.73	1693.67
282.94	1617.90
283.16	1722.34
283.37	1834.98
283.59	1757.16
283.80	1728.49
284.02	1681.38
284.23	1769.44
284.45	1697.77
284.66	1642.47
284.88	1695.72
285.09	1779.68
285.31	1738.73
285.52	1761.25
285.74	1599.46
285.95	1759.21
286.17	1775.59
286.38	1769.44
286.60	1728.49
286.81	1699.81
287.03	1665.00
287.24	1710.05
287.46	1783.78
287.67	1730.53
287.89	1791.97
288.10	1796.07
288.32	1677.29
288.53	1765.35
288.75	1716.20
288.96	1763.30
289.18	1634.28
289.39	1697.77
289.61	1755.11
289.82	1822.69
290.04	1757.16
290.25	1605.61
290.47	1738.73
290.68	1667.05
290.90	1705.96
291.11	1615.85
291.33	1822.69
291.54	1640.42
291.76	1619.94
291.97	1718.25
292.18	1765.35
292.40	1675.24
292.61	1687.53
292.83	1787.88
293.04	1703.91
293.26	1746.92
293.47	1628.14
293.69	1662.95
293.90	1755.11
294.12	1804.26
294.33	1751.01
294.55	1746.92
294.76	1730.53
294.97	1818.60
295.19	1777.64
295.40	1771.49
295.62	1697.77
295.83	1744.87
296.05	1681.38
296.26	1800.16
296.48	1695.72
296.69	1703.91
296.90	1726.44
297.12	1816.55
297.33	1730.53
297.55	1726.44
297.76	1708.01
297.98	1722.34
298.19	1697.77
298.41	1689.57
298.62	1607.66
298.83	1740.77
299.05	1714.15
299.26	1701.86
299.48	1665.00
299.69	1771.49
299.90	1755.11
300.12	1656.81
300.33	1722.34
300.55	1775.59
300.76	1703.91
300.98	1675.24
301.19	1765.35
301.40	1601.51
301.62	1701.86
301.83	1699.81
302.05	1724.39
302.26	1693.67
302.47	1779.68
302.69	1667.05
302.90	1785.83
303.12	1669.09
303.33	1687.53
303.54	1742.82
303.76	1685.48
303.97	1724.39
304.19	1804.26
304.40	1597.42
304.61	1726.44
304.83	1837.03
305.04	1771.49
305.26	1701.86
305.47	1667.05
305.68	1667.05
305.90	1673.19
306.11	1738.73
306.33	1665.00
306.54	1720.29
306.75	1665.00
306.97	1632.23
307.18	1656.81
307.39	1609.70
307.61	1722.34
307.82	1665.00
308.04	1718.25
308.25	1671.14
308.46	1777.64
308.68	1744.87
308.89	1796.07
309.10	1744.87
309.32	1722.34
309.53	1636.33
309.74	1716.20
309.96	1755.11
310.17	1789.92
310.39	1748.97
310.60	1718.25
310.81	1753.06
311.03	1576.94
311.24	1804.26
311.45	1753.06
311.67	1798.12
311.88	1789.92
312.09	1634.28
312.31	1660.90
312.52	1746.92
312.73	1650.66
312.95	1617.90
313.16	1671.14
313.37	1796.07
313.59	1740.77
313.80	1787.88
314.01	1812.45
314.23	1712.10
314.44	1691.62
314.65	1624.04
314.87	1640.42
315.08	1656.81
315.29	1669.09
315.51	1599.46
315.72	1695.72
315.93	1773.54
316.15	1757.16
316.36	1654.76
316.57	1714.15
316.79	1828.84
317.00	1753.06
317.21	1705.96
317.43	1728.49
317.64	1689.57
317.85	1728.49
318.07	1738.73
318.28	1763.30
318.49	1824.74
318.70	1945.57
318.92	1859.56
319.13	1961.95
319.34	1894.37
319.56	1849.32
319.77	1867.75
319.98	1882.08
320.20	1798.12
320.41	1777.64
320.62	1724.39
320.83	1716.20
321.05	1810.40
321.26	1720.29
321.47	1671.14
321.69	1796.07
321.90	1607.66
322.11	1687.53
322.32	1710.05
322.54	1767.40
322.75	1681.38
322.96	1832.93
323.18	1667.05
323.39	1648.61
323.60	1722.34
323.81	1794.02
324.03	1718.25
324.24	1732.58
324.45	1652.71
324.66	1656.81
324.88	1748.97
325.09	1867.75
325.30	1683.43
325.52	1736.68
325.73	1697.77
325.94	1656.81
326.15	1621.99
326.37	1714.15
326.58	1730.53
326.79	1802.21
327.00	1714.15
327.22	1689.57
327.43	1642.47
327.64	1630.18
327.85	1777.64
328.07	1757.16
328.28	1675.24
328.49	1638.38
328.70	1718.25
328.92	1701.86
329.13	1689.57
329.34	1722.34
329.55	1828.84
329.76	1757.16
329.98	1687.53
330.19	1769.44
330.40	1791.97
330.61	1697.77
330.83	1644.52
331.04	1624.04
331.25	1753.06
331.46	1667.05
331.68	1615.85
331.89	1759.21
332.10	1662.95
332.31	1605.61
332.52	1740.77
332.74	1732.58
332.95	1634.28
333.16	1654.76
333.37	1777.64
333.58	1648.61
333.80	1650.66
334.01	1693.67
334.22	1722.34
334.43	1687.53
334.64	1607.66
334.86	1687.53
335.07	1665.00
335.28	1826.79
335.49	1632.23
335.70	1681.38
335.92	1724.39
336.13	1834.98
336.34	1757.16
336.55	1771.49
336.76	1738.73
336.98	1585.13
337.19	1748.97
337.40	1722.34
337.61	1857.51
337.82	1667.05
338.04	1812.45
338.25	1640.42
338.46	1755.11
338.67	1687.53
338.88	1703.91
339.09	1595.37
339.31	1615.85
339.52	1619.94
339.73	1630.18
339.94	1677.29
340.15	1800.16
340.36	1652.71
340.58	1736.68
340.79	1673.19
341.00	1697.77
341.21	1617.90
341.42	1808.36
341.63	1699.81
341.85	1736.68
342.06	1800.16
342.27	1654.76
342.48	1787.88
342.69	1632.23
342.90	1775.59
343.12	1763.30
343.33	1626.09
343.54	1699.81
343.75	1783.78
343.96	1638.38
344.17	1652.71
344.38	1734.63
344.60	1628.14
344.81	1595.37
345.02	1740.77
345.23	1800.16
345.44	1880.04
345.65	1759.21
345.86	1746.92
346.07	1687.53
346.29	1665.00
346.50	1761.25
346.71	1695.72
346.92	1714.15
347.13	1779.68
347.34	1705.96
347.55	1687.53
347.76	1710.05
347.98	1636.33
348.19	1665.00
348.40	1863.65
348.61	1679.33
348.82	1765.35
349.03	1689.57
349.24	1648.61
349.45	1861.60
349.66	1558.50
349.88	1726.44
350.09	1650.66
350.30	1781.73
350.51	1730.53
350.72	1685.48
350.93	1708.01
351.14	1720.29
351.35	1714.15
351.56	1691.62
351.77	1695.72
351.99	1771.49
352.20	1800.16
352.41	1783.78
352.62	1550.31
352.83	1685.48
353.04	1648.61
353.25	1671.14
353.46	1763.30
353.67	1744.87
353.88	1572.84
354.09	1734.63
354.30	1644.52
354.52	1775.59
354.73	1701.86
354.94	1783.78
355.15	1693.67
355.36	1812.45
355.57	1658.85
355.78	1726.44
355.99	1644.52
356.20	1671.14
356.41	1761.25
356.62	1695.72
356.83	1755.11
357.04	1865.70
357.25	1660.90
357.46	1716.20
357.68	1634.28
357.89	1685.48
358.10	1710.05
358.31	1716.20
358.52	1634.28
358.73	1591.27
358.94	1642.47
359.15	1658.85
359.36	1810.40
359.57	1648.61
359.78	1607.66
359.99	1718.25
360.20	1724.39
360.41	1681.38
360.62	1677.29
360.83	1681.38
361.04	1697.77
361.25	1777.64
361.46	1757.16
361.67	1701.86
361.88	1783.78
362.09	1855.46
362.30	1679.33
362.51	1662.95
362.72	1779.68
362.93	1689.57
363.14	1693.67
363.35	1722.34
363.56	1693.67
363.78	1787.88
363.99	1724.39
364.20	1660.90
364.41	1732.58
364.62	1816.55
364.83	1755.11
365.04	1669.09
365.25	1691.62
365.46	1865.70
365.67	1689.57
365.88	1665.00
366.09	1701.86
366.30	1744.87
366.51	1716.20
366.72	1605.61
366.93	1658.85
367.14	1755.11
367.35	1777.64
367.56	1738.73
367.77	1834.98
367.98	1689.57
368.18	1783.78
368.39	1763.30
368.60	1632.23
368.81	1712.10
369.02	1744.87
369.23	1755.11
369.44	1687.53
369.65	1693.67
369.86	1763.30
370.07	1718.25
370.28	1656.81
370.49	1757.16
370.70	1724.39
370.91	1685.48
371.12	1632.23
371.33	1687.53
371.54	1654.76
371.75	1806.31
371.96	1607.66
372.17	1681.38
372.38	1695.72
372.59	1679.33
372.80	1632.23
373.01	1714.15
373.22	1732.58
373.43	1755.11
373.64	1685.48
373.85	1800.16
374.06	1748.97
374.26	1755.11
374.47	1746.92
374.68	1845.22
374.89	1761.25
375.10	1769.44
375.31	1794.02
375.52	1718.25
375.73	1716.20
375.94	1724.39
376.15	1779.68
376.36	1615.85
376.57	1646.57
376.78	1615.85
376.99	1748.97
377.20	1734.63
377.40	1642.47
377.61	1863.65
377.82	1615.85
378.03	1751.01
378.24	1744.87
378.45	1697.77
378.66	1714.15
378.87	1681.38
379.08	1658.85
379.29	1763.30
379.50	1765.35
379.71	1714.15
379.91	1804.26
380.12	1720.29
380.33	1660.90
380.54	1738.73
380.75	1767.40
380.96	1640.42
381.17	1679.33
381.38	1748.97
381.59	1687.53
381.80	1777.64
382.00	1837.03
382.21	1796.07
382.42	1849.32
382.63	1904.61
382.84	1751.01
383.05	1832.93
383.26	1798.12
383.47	1748.97
383.68	1816.55
383.88	1763.30
384.09	1767.40
384.30	1783.78
384.51	1775.59
384.72	1728.49
384.93	1714.15
385.14	1804.26
385.35	1787.88
385.55	1652.71
385.76	1769.44
385.97	1794.02
386.18	1695.72
386.39	1673.19
386.60	1705.96
386.81	1644.52
387.02	1718.25
387.22	1693.67
387.43	1734.63
387.64	1779.68
387.85	1927.14
388.06	2146.27
388.27	4751.29
388.48	9004.92
388.68	11595.60
388.89	13424.44
389.10	14059.31
389.31	11904.84
389.52	9693.04
389.73	8509.31
389.93	7833.48
390.14	7305.10
390.35	6600.60
390.56	5951.40
390.77	5027.76
390.98	3934.15
391.18	3098.58
391.39	2383.84
391.60	1968.10
391.81	1865.70
392.02	1722.34
392.23	1916.90
392.43	1714.15
392.64	1781.73
392.85	1765.35
393.06	1789.92
393.27	1685.48
393.47	1683.43
393.68	1693.67
393.89	1712.10
394.10	1822.69
394.31	1695.72
394.52	1593.32
394.72	1650.66
394.93	1798.12
395.14	1665.00
395.35	1710.05
395.56	1695.72
395.76	1699.81
395.97	1748.97
396.18	1867.75
396.39	1931.23
396.60	2144.22
396.80	1939.43
397.01	1898.47
397.22	1837.03
397.43	1912.80
397.64	1779.68
397.84	1853.41
398.05	1908.71
398.26	1757.16
398.47	1865.70
398.67	1779.68
398.88	1722.34
399.09	1763.30
399.30	1632.23
399.51	1863.65
399.71	1636.33
399.92	1697.77
400.13	1734.63
400.34	1728.49
400.54	1673.19
400.75	1880.04
400.96	1738.73
401.17	1849.32
401.37	1677.29
401.58	1675.24
401.79	1691.62
402.00	1847.27
402.21	2086.88
402.41	2111.46
402.62	2148.32
402.83	2170.85
403.04	2095.07
403.24	2127.84
403.45	1877.99
403.66	2004.96
403.87	1888.23
404.07	1943.52
404.28	1972.19
404.49	1888.23
404.70	1861.60
404.90	1853.41
405.11	1716.20
405.32	1767.40
405.52	1681.38
405.73	1699.81
405.94	1720.29
406.15	1736.68
406.35	1783.78
406.56	1779.68
406.77	1695.72
406.98	1755.11
407.18	1697.77
407.39	1843.17
407.60	1632.23
407.80	1710.05
408.01	1646.57
408.22	1722.34
408.43	1734.63
408.63	1736.68
408.84	1714.15
409.05	1732.58
409.25	1744.87
409.46	1572.84
409.67	1683.43
409.88	1697.77
410.08	1718.25
410.29	1640.42
410.50	1708.01
410.70	1748.97
410.91	1685.48
411.12	1755.11
411.32	1675.24
411.53	1728.49
411.74	1773.54
411.95	1779.68
412.15	1806.31
412.36	1843.17
412.57	1765.35
412.77	1800.16
412.98	1757.16
413.19	1773.54
413.39	1771.49
413.60	1767.40
413.81	1828.84
414.01	1755.11
414.22	1779.68
414.43	1761.25
414.63	1695.72
414.84	1759.21
415.05	1728.49
415.25	1624.04
415.46	1800.16
415.67	1679.33
415.87	1742.82
416.08	1724.39
416.29	1693.67
416.49	1748.97
416.70	1687.53
416.91	1695.72
417.11	1718.25
417.32	1787.88
417.53	1746.92
417.73	1755.11
417.94	1710.05
418.15	1779.68
418.35	1779.68
418.56	1673.19
418.77	1814.50
418.97	1746.92
419.18	1738.73
419.38	1638.38
419.59	1687.53
419.80	1771.49
420.00	1665.00
420.21	1712.10
420.42	1822.69
420.62	1757.16
420.83	1755.11
421.04	1699.81
421.24	1740.77
421.45	1738.73
421.65	1753.06
421.86	1685.48
422.07	1746.92
422.27	1785.83
422.48	1763.30
422.69	1712.10
422.89	1652.71
423.10	1755.11
423.30	1634.28
423.51	1730.53
423.72	1701.86
423.92	1669.09
424.13	1591.27
424.33	1714.15
424.54	1763.30
424.75	1705.96
424.95	1820.64
425.16	1722.34
425.36	1679.33
425.57	1759.21
425.78	1742.82
425.98	1771.49
426.19	1675.24
426.39	1646.57
426.60	1785.83
426.81	1880.04
427.01	1697.77
427.22	1642.47
427.42	1585.13
427.63	1675.24
427.83	1740.77
428.04	1847.27
428.25	1757.16
428.45	1685.48
428.66	1714.15
428.86	1710.05
429.07	1748.97
429.28	1734.63
429.48	1724.39
429.69	1724.39
429.89	1703.91
430.10	1632.23
430.30	1734.63
430.51	1765.35
430.71	1644.52
430.92	1732.58
431.13	1746.92
431.33	1789.92
431.54	1738.73
431.74	1806.31
431.95	1902.56
432.15	1679.33
432.36	1716.20
432.56	1751.01
432.77	1818.60
432.98	1857.51
433.18	1779.68
433.39	1665.00
433.59	1677.29
433.80	1834.98
434.00	1812.45
434.21	1732.58
434.41	1683.43
434.62	1806.31
434.82	1687.53
435.03	1665.00
435.23	1705.96
435.44	1640.42
435.64	1656.81
435.85	1697.77
436.06	1806.31
436.26	1826.79
436.47	1669.09
436.67	1650.66
436.88	1697.77
437.08	1808.36
437.29	1789.92
437.49	1755.11
437.70	1777.64
437.90	1748.97
438.11	1802.21
438.31	1822.69
438.52	1888.23
438.72	1912.80
438.93	1898.47
439.13	1730.53
439.34	1857.51
439.54	1708.01
439.75	1849.32
439.95	1773.54
440.16	1806.31
440.36	1796.07
440.57	1757.16
440.77	1748.97
440.98	1740.77
441.18	1796.07
441.39	1708.01
441.59	1638.38
441.80	1847.27
442.00	1667.05
442.21	1812.45
442.41	1677.29
442.62	1761.25
442.82	1691.62
443.02	1742.82
443.23	1777.64
443.43	1703.91
443.64	1812.45
443.84	1740.77
444.05	1822.69
444.25	1683.43
444.46	1683.43
444.66	1839.08
444.87	1759.21
445.07	1650.66
445.28	1728.49
445.48	1816.55
445.69	1796.07
445.89	1898.47
446.09	1648.61
446.30	1992.67
446.50	2609.11
446.71	4165.57
446.91	5005.24
447.12	5818.28
447.32	5982.12
447.53	5298.10
447.73	4474.81
447.93	3885.00
448.14	3692.49
448.34	3418.06
448.55	3133.39
448.75	3043.28
448.96	2918.36
449.16	2602.97
449.36	2363.36
449.57	2086.88
449.77	2013.15
449.98	1791.97
450.18	1818.60
450.39	1837.03
450.59	1826.79
450.79	1742.82
451.00	1779.68
451.20	1775.59
451.41	1755.11
451.61	1683.43
451.81	1708.01
452.02	1630.18
452.22	1693.67
452.43	1738.73
452.63	1675.24
452.84	1759.21
453.04	1753.06
453.24	1767.40
453.45	1689.57
453.65	1767.40
453.86	1755.11
454.06	1783.78
454.26	1769.44
454.47	1658.85
454.67	1814.50
454.87	1791.97
455.08	1742.82
455.28	1894.37
455.49	1681.38
455.69	1781.73
455.89	1906.66
456.10	1794.02
456.30	1755.11
456.51	1808.36
456.71	1808.36
456.91	1839.08
457.12	1746.92
457.32	1787.88
457.52	1658.85
457.73	1775.59
457.93	1808.36
458.14	1730.53
458.34	1677.29
458.54	1708.01
458.75	1646.57
458.95	1689.57
459.15	1718.25
459.36	1884.13
459.56	1757.16
459.76	1798.12
459.97	1751.01
460.17	1667.05
460.37	1761.25
460.58	1650.66
460.78	1751.01
460.99	1761.25
461.19	1652.71
461.39	1697.77
461.60	1662.95
461.80	1783.78
462.00	1611.75
462.21	1673.19
462.41	1644.52
462.61	1652.71
462.82	1617.90
463.02	1853.41
463.22	1662.95
463.43	1785.83
463.63	1785.83
463.83	1746.92
464.04	1710.05
464.24	1695.72
464.44	1734.63
464.64	1767.40
464.85	1751.01
465.05	1806.31
465.25	1761.25
465.46	1640.42
465.66	1742.82
465.86	1820.64
466.07	1812.45
466.27	1730.53
466.47	1595.37
466.68	1658.85
466.88	1886.18
467.08	1800.16
467.29	1826.79
467.49	1757.16
467.69	1716.20
467.89	1714.15
468.10	1654.76
468.30	1728.49
468.50	1798.12
468.71	1779.68
468.91	1673.19
469.11	1820.64
469.31	1687.53
469.52	1720.29
469.72	1882.08
469.92	1824.74
470.13	1650.66
470.33	1697.77
470.53	1826.79
470.73	2197.47
470.94	2551.77
471.14	2779.09
471.34	2869.20
471.54	2901.97
471.75	2666.46
471.95	2387.93
472.15	2199.52
472.36	2199.52
472.56	2156.51
472.76	2146.27
472.96	2222.05
473.17	2037.73
473.37	1951.71
473.57	1892.32
473.77	1806.31
473.98	1804.26
474.18	1656.81
474.38	1882.08
474.58	1705.96
474.79	1673.19
474.99	1789.92
475.19	1822.69
475.39	1689.57
475.60	1798.12
475.80	1751.01
476.00	1742.82
476.20	1687.53
476.41	1736.68
476.61	1773.54
476.81	1794.02
477.01	1697.77
477.21	1822.69
477.42	1763.30
477.62	1734.63
477.82	1761.25
478.02	1734.63
478.23	1714.15
478.43	1652.71
478.63	1722.34
478.83	1712.10
479.03	1753.06
479.24	1781.73
479.44	1888.23
479.64	1681.38
479.84	1593.32
480.04	1677.29
480.25	1742.82
480.45	1705.96
480.65	1708.01
480.85	1800.16
481.06	1724.39
481.26	1765.35
481.46	1775.59
481.66	1685.48
481.86	1742.82
482.06	1820.64
482.27	1708.01
482.47	1652.71
482.67	1658.85
482.87	1703.91
483.07	1785.83
483.28	1632.23
483.48	1685.48
483.68	1742.82
483.88	1720.29
484.08	1632.23
484.29	1648.61
484.49	1683.43
484.69	1673.19
484.89	1736.68
485.09	1832.93
485.29	1703.91
485.50	1761.25
485.70	1722.34
485.90	1812.45
486.10	1689.57
486.30	1789.92
486.50	1740.77
486.71	1691.62
486.91	1814.50
487.11	1726.44
487.31	1605.61
487.51	1671.14
487.71	1689.57
487.91	1644.52
488.12	1701.86
488.32	1583.08
488.52	1720.29
488.72	1587.18
488.92	1695.72
489.12	1771.49
489.32	1804.26
489.53	1755.11
489.73	1652.71
489.93	1810.40
490.13	1660.90
490.33	1660.90
490.53	1755.11
490.73	1814.50
490.94	1650.66
491.14	1751.01
491.34	1886.18
491.54	2029.54
491.74	2721.75
491.94	3233.74
492.14	3520.46
492.34	3614.66
492.54	3203.02
492.75	2713.56
492.95	2654.17
493.15	2451.42
493.35	2408.41
493.55	2281.44
493.75	2201.57
493.95	2119.65
494.15	2097.12
494.35	1986.53
494.56	1865.70
494.76	1822.69
494.96	1820.64
495.16	1781.73
495.36	1730.53
495.56	1771.49
495.76	1755.11
495.96	1712.10
496.16	1654.76
496.36	1771.49
496.56	1705.96
496.77	1785.83
496.97	1699.81
497.17	1718.25
497.37	1591.27
497.57	1730.53
497.77	1771.49
497.97	1716.20
498.17	1746.92
498.37	1714.15
498.57	1802.21
498.77	1609.70
498.97	1791.97
499.17	1877.99
499.38	1720.29
499.58	1722.34
499.78	1738.73
499.98	1847.27
500.18	1720.29
500.38	1705.96
500.58	1857.51
500.78	2430.94
500.98	4571.07
501.18	6672.28
501.38	7927.69
501.58	8988.53
501.78	8710.01
501.98	6864.79
502.18	5830.57
502.38	4995.00
502.58	4595.64
502.78	4024.26
502.98	3979.20
503.18	3870.66
503.38	3585.99
503.59	3176.40
503.79	2953.17
503.99	2666.46
504.19	2353.12
504.39	2334.68
504.59	2445.27
504.79	2299.87
504.99	2258.91
505.19	2107.36
505.39	2021.35
505.59	2043.87
505.79	1937.38
505.99	1927.14
506.19	1851.36
506.39	1937.38
506.59	1791.97
506.79	1810.40
506.99	1857.51
507.19	1773.54
507.39	1728.49
507.59	1681.38
507.79	1714.15
507.99	1718.25
508.19	1701.86
508.39	1712.10
508.59	1775.59
508.79	1816.55
508.99	1818.60
509.19	1695.72
509.39	1787.88
509.59	1685.48
509.79	1748.97
509.99	1689.57
510.19	1779.68
510.39	1777.64
510.59	1691.62
510.79	1665.00
510.99	1656.81
511.19	1708.01
511.39	1859.56
511.59	1734.63
511.79	1804.26
511.99	1671.14
512.19	1816.55
512.38	1746.92
512.58	1724.39
512.78	1757.16
512.98	1779.68
513.18	1757.16
513.38	1726.44
513.58	1742.82
513.78	1697.77
513.98	1742.82
514.18	1699.81
514.38	1773.54
514.58	1808.36
514.78	1691.62
514.98	1665.00
515.18	1714.15
515.38	1703.91
515.58	1814.50
515.78	1755.11
515.98	1681.38
516.18	1763.30
516.38	1658.85
516.57	1716.20
516.77	1708.01
516.97	1736.68
517.17	1697.77
517.37	1587.18
517.57	1824.74
517.77	1714.15
517.97	1644.52
518.17	1755.11
518.37	1691.62
518.57	1720.29
518.77	1681.38
518.97	1734.63
519.16	1798.12
519.36	1767.40
519.56	1708.01
519.76	1718.25
519.96	1771.49
520.16	1843.17
520.36	1691.62
520.56	1775.59
520.76	1646.57
520.96	1738.73
521.16	1791.97
521.35	1832.93
521.55	1804.26
521.75	1751.01
521.95	1699.81
522.15	1732.58
522.35	1662.95
522.55	1703.91
522.75	1767.40
522.95	1755.11
523.14	1732.58
523.34	1675.24
523.54	1755.11
523.74	1785.83
523.94	1746.92
524.14	1628.14
524.34	1781.73
524.54	1845.22
524.73	1808.36
524.93	1742.82
525.13	1779.68
525.33	1687.53
525.53	1877.99
525.73	1767.40
525.93	1787.88
526.13	1787.88
526.32	1779.68
526.52	1767.40
526.72	1843.17
526.92	1720.29
527.12	1687.53
527.32	1687.53
527.52	1783.78
527.71	1808.36
527.91	1699.81
528.11	1718.25
528.31	1716.20
528.51	1675.24
528.71	1765.35
528.90	1726.44
529.10	1779.68
529.30	1791.97
529.50	1611.75
529.70	1736.68
529.90	1703.91
530.09	1744.87
530.29	1660.90
530.49	1689.57
530.69	1910.75
530.89	1736.68
531.09	1787.88
531.28	1712.10
531.48	1763.30
531.68	1673.19
531.88	1759.21
532.08	1730.53
532.28	1716.20
532.47	1779.68
532.67	1839.08
532.87	1751.01
533.07	1748.97
533.27	1798.12
533.46	1732.58
533.66	1796.07
533.86	1744.87
534.06	1712.10
534.26	1722.34
534.45	1765.35
534.65	1771.49
534.85	1834.98
535.05	1742.82
535.25	1806.31
535.44	1777.64
535.64	1755.11
535.84	1708.01
536.04	1716.20
536.24	1697.77
536.43	1650.66
536.63	1839.08
536.83	1738.73
537.03	1751.01
537.22	1701.86
537.42	1607.66
537.62	1763.30
537.82	1634.28
538.02	1789.92
538.21	1841.12
538.41	1910.75
538.61	1812.45
538.81	1703.91
539.00	1812.45
539.20	1699.81
539.40	1730.53
539.60	1796.07
539.79	1822.69
539.99	1714.15
540.19	1689.57
540.39	1712.10
540.58	1720.29
540.78	1779.68
540.98	1837.03
541.18	1798.12
541.37	1806.31
541.57	1687.53
541.77	1744.87
541.97	1708.01
542.16	1626.09
542.36	1644.52
542.56	1785.83
542.76	1853.41
542.95	1681.38
543.15	1789.92
543.35	1771.49
543.54	1748.97
543.74	1710.05
543.94	1820.64
544.14	1697.77
544.33	1822.69
544.53	1710.05
544.73	1763.30
544.93	1781.73
545.12	1697.77
545.32	1740.77
545.52	1773.54
545.71	1681.38
545.91	1697.77
546.11	1751.01
546.30	1619.94
546.50	1751.01
546.70	1740.77
546.90	1730.53
547.09	1646.57
547.29	1740.77
547.49	1683.43
547.68	1730.53
547.88	1675.24
548.08	1781.73
548.27	2115.55
548.47	1726.44
548.67	1716.20
548.87	1665.00
549.06	1767.40
549.26	1765.35
549.46	1646.57
549.65	1722.34
549.85	1769.44
550.05	1732.58
550.24	1689.57
550.44	1748.97
550.64	1726.44
550.83	1748.97
551.03	1722.34
551.23	1746.92
551.42	1806.31
551.62	1695.72
551.82	1722.34
552.01	1746.92
552.21	1832.93
552.41	1779.68
552.60	1783.78
552.80	1773.54
553.00	1675.24
553.19	1779.68
553.39	1785.83
553.59	1656.81
553.78	1640.42
553.98	1732.58
554.17	1640.42
554.37	1705.96
554.57	1794.02
554.76	1665.00
554.96	1691.62
555.16	1755.11
555.35	1761.25
555.55	1728.49
555.75	1775.59
555.94	1800.16
556.14	1675.24
556.33	1732.58
556.53	1671.14
556.73	1730.53
556.92	1755.11
557.12	1822.69
557.32	1834.98
557.51	1834.98
557.71	1769.44
557.90	1775.59
558.10	1812.45
558.30	1763.30
558.49	1779.68
558.69	1769.44
558.88	1779.68
559.08	1679.33
559.28	1781.73
559.47	1740.77
559.67	1828.84
559.86	1841.12
560.06	1773.54
560.26	1757.16
560.45	1718.25
560.65	1738.73
560.84	1769.44
561.04	1767.40
561.24	1652.71
561.43	1746.92
561.63	1847.27
561.82	1742.82
562.02	1773.54
562.22	1658.85
562.41	1683.43
562.61	1748.97
562.80	1697.77
563.00	1798.12
563.19	1771.49
563.39	1800.16
563.59	1755.11
563.78	1701.86
563.98	1646.57
564.17	1667.05
564.37	1621.99
564.56	1765.35
564.76	1703.91
564.96	1789.92
565.15	1785.83
565.35	1841.12
565.54	1724.39
565.74	1769.44
565.93	1712.10
566.13	1722.34
566.32	1779.68
566.52	1751.01
566.71	1751.01
566.91	1783.78
567.11	1753.06
567.30	1593.32
567.50	1708.01
567.69	1783.78
567.89	1703.91
568.08	1619.94
568.28	1755.11
568.47	1570.79
568.67	1798.12
568.86	1681.38
569.06	1722.34
569.25	1746.92
569.45	1736.68
569.64	1712.10
569.84	1701.86
570.04	1818.60
570.23	1693.67
570.43	1656.81
570.62	1796.07
570.82	1828.84
571.01	1789.92
571.21	1724.39
571.40	1751.01
571.60	1806.31
571.79	1767.40
571.99	1779.68
572.18	1642.47
572.38	1769.44
572.57	1677.29
572.77	1695.72
572.96	1904.61
573.16	1699.81
573.35	1789.92
573.55	1900.52
573.74	1783.78
573.94	1761.25
574.13	1693.67
574.33	1865.70
574.52	1812.45
574.71	1820.64
574.91	1853.41
575.10	1669.09
575.30	1779.68
575.49	1685.48
575.69	1730.53
575.88	1787.88
576.08	1681.38
576.27	1832.93
576.47	1791.97
576.66	1910.75
576.86	1861.60
577.05	1787.88
577.25	1824.74
577.44	1920.99
577.64	1728.49
577.83	1822.69
578.02	1804.26
578.22	1888.23
578.41	1837.03
578.61	1775.59
578.80	1656.81
579.00	1783.78
579.19	1714.15
579.39	1855.46
579.58	1843.17
579.77	1736.68
579.97	1828.84
580.16	1880.04
580.36	1834.98
580.55	1816.55
580.75	1796.07
580.94	1783.78
581.13	1863.65
581.33	1839.08
581.52	1746.92
581.72	1882.08
581.91	1935.33
582.11	1718.25
582.30	1818.60
582.49	1861.60
582.69	1855.46
582.88	1773.54
583.08	1751.01
583.27	1871.84
583.47	1763.30
583.66	1755.11
583.85	1685.48
584.05	1701.86
584.24	1769.44
584.44	1837.03
584.63	1816.55
584.82	1925.09
585.02	1877.99
585.21	1925.09
585.41	1957.86
585.60	1877.99
585.79	2054.11
585.99	1970.15
586.18	1886.18
586.37	2224.09
586.57	3334.09
586.76	9811.82
586.96	27260.51
587.15	41776.51
587.34	51600.62
587.54	57978.00
587.73	55864.49
587.93	40218.01
588.12	29447.74
588.31	23561.88
588.51	20463.30
588.70	18736.87
588.89	17209.08
589.09	15433.49
589.28	13766.45
589.47	11300.69
589.67	9287.54
589.86	7395.22
590.06	5365.68
590.25	4126.66
590.44	3182.54
590.64	2664.41
590.83	2351.07
591.02	1998.82
591.22	2000.87
591.41	1935.33
591.60	1798.12
591.80	1953.76
591.99	1779.68
592.18	1783.78
592.38	1828.84
592.57	1732.58
592.76	1759.21
592.96	1755.11
593.15	1824.74
593.34	1847.27
593.54	1755.11
593.73	1877.99
593.92	1832.93
594.12	1830.88
594.31	1877.99
594.50	1867.75
594.70	1859.56
594.89	1918.95
595.08	1746.92
595.28	1765.35
595.47	1941.47
595.66	1841.12
595.86	1652.71
596.05	1689.57
596.24	1851.36
596.43	1912.80
596.63	1828.84
596.82	1775.59
597.01	1826.79
597.21	1855.46
597.40	1861.60
597.59	1695.72
597.79	1767.40
597.98	1771.49
598.17	1810.40
598.36	1769.44
598.56	1775.59
598.75	1716.20
598.94	1806.31
599.14	1765.35
599.33	1783.78
599.52	1853.41
599.71	1687.53
599.91	1832.93
600.10	1796.07
600.29	1687.53
600.48	1789.92
600.68	1677.29
600.87	1849.32
601.06	1640.42
601.26	1767.40
601.45	1757.16
601.64	1757.16
601.83	1732.58
602.03	1796.07
602.22	1640.42
602.41	1783.78
602.60	1923.04
602.80	1740.77
602.99	1734.63
603.18	1832.93
603.37	1724.39
603.57	1689.57
603.76	1882.08
603.95	1755.11
604.14	1640.42
604.34	1626.09
604.53	1699.81
604.72	1794.02
604.91	1888.23
605.10	1857.51
605.30	1705.96
605.49	1820.64
605.68	1730.53
605.87	1820.64
606.07	1683.43
606.26	1742.82
606.45	1783.78
606.64	1773.54
606.84	1755.11
607.03	1785.83
607.22	1847.27
607.41	1802.21
607.60	1800.16
607.80	1826.79
607.99	1796.07
608.18	1796.07
608.37	1740.77
608.56	1742.82
608.76	1820.64
608.95	1832.93
609.14	1783.78
609.33	1918.95
609.52	1822.69
609.72	1908.71
609.91	1906.66
610.10	1806.31
610.29	1855.46
610.48	1832.93
610.68	1804.26
610.87	1804.26
611.06	1806.31
611.25	1738.73
611.44	1871.84
611.63	1720.29
611.83	1765.35
612.02	1705.96
612.21	1863.65
612.40	1628.14
612.59	1744.87
612.79	1605.61
612.98	1665.00
613.17	1787.88
613.36	1730.53
613.55	1929.19
613.74	1828.84
613.93	1925.09
614.13	1884.13
614.32	1931.23
614.51	1964.00
614.70	1867.75
614.89	1814.50
615.08	1910.75
615.28	2166.75
615.47	1724.39
615.66	1787.88
615.85	1802.21
616.04	1906.66
616.23	1779.68
616.42	1732.58
616.62	1818.60
616.81	1832.93
617.00	1787.88
617.19	1769.44
617.38	1728.49
617.57	1710.05
617.76	1738.73
617.95	1765.35
618.15	1781.73
618.34	1920.99
618.53	1718.25
618.72	1787.88
618.91	1816.55
619.10	1841.12
619.29	1697.77
619.48	1736.68
619.68	1718.25
619.87	1689.57
620.06	1636.33
620.25	1757.16
620.44	1699.81
620.63	1763.30
620.82	1724.39
621.01	1781.73
621.20	1720.29
621.39	1787.88
621.59	1734.63
621.78	1744.87
621.97	1720.29
622.16	1810.40
622.35	1726.44
622.54	1757.16
622.73	1763.30
622.92	1654.76
623.11	1781.73
623.30	1722.34
623.49	1791.97
623.68	1652.71
623.88	1751.01
624.07	1763.30
624.26	1763.30
624.45	1693.67
624.64	1693.67
624.83	1742.82
625.02	1728.49
625.21	1728.49
625.40	1730.53
625.59	1761.25
625.78	1734.63
625.97	1820.64
626.16	1863.65
626.35	1859.56
626.54	1748.97
626.74	1904.61
626.93	1822.69
627.12	1779.68
627.31	1845.22
627.50	1834.98
627.69	1791.97
627.88	1722.34
628.07	1757.16
628.26	1796.07
628.45	1708.01
628.64	1730.53
628.83	1789.92
629.02	1658.85
629.21	1800.16
629.40	1767.40
629.59	1720.29
629.78	1738.73
629.97	1767.40
630.16	1777.64
630.35	1734.63
630.54	1820.64
630.73	1730.53
630.92	1761.25
631.11	1660.90
631.30	1740.77
631.49	1794.02
631.68	1796.07
631.87	1634.28
632.06	1697.77
632.25	1902.56
632.44	1820.64
632.63	1818.60
632.82	1761.25
633.01	1769.44
633.20	1867.75
633.39	1789.92
633.58	1755.11
633.77	1820.64
633.96	1800.16
634.15	1877.99
634.34	1855.46
634.53	1800.16
634.72	1736.68
634.91	1705.96
635.10	1748.97
635.29	1697.77
635.48	1753.06
635.67	1658.85
635.86	1611.75
636.05	1703.91
636.24	1724.39
636.43	1742.82
636.62	1728.49
636.81	1546.22
637.00	1675.24
637.19	1744.87
637.38	1726.44
637.57	1712.10
637.76	1751.01
637.95	1890.28
638.14	1853.41
638.33	1857.51
638.52	1830.88
638.71	1710.05
638.89	1689.57
639.08	1970.15
639.27	1837.03
639.46	1875.94
639.65	2133.98
639.84	2240.48
640.03	2430.94
640.22	2273.25
640.41	2439.13
640.60	2078.69
640.79	2037.73
640.98	1918.95
641.17	1955.81
641.36	1853.41
641.55	1939.43
641.74	1753.06
641.92	1800.16
642.11	1740.77
642.30	1687.53
642.49	1767.40
642.68	1699.81
642.87	1779.68
643.06	1763.30
643.25	1671.14
643.44	1632.23
643.63	1767.40
643.82	1779.68
644.00	1683.43
644.19	1748.97
644.38	1734.63
644.57	1775.59
644.76	1746.92
644.95	1697.77
645.14	1697.77
645.33	1753.06
645.52	1699.81
645.71	1744.87
645.89	1662.95
646.08	1687.53
646.27	1734.63
646.46	1865.70
646.65	1656.81
646.84	1726.44
647.03	1656.81
647.22	1718.25
647.40	1740.77
647.59	1730.53
647.78	1624.04
647.97	1753.06
648.16	1619.94
648.35	1734.63
648.54	1720.29
648.73	1771.49
648.91	1767.40
649.10	1742.82
649.29	1642.47
649.48	1730.53
649.67	1810.40
649.86	1816.55
650.05	1755.11
650.23	1986.53
650.42	1837.03
650.61	1898.47
650.80	1959.91
650.99	2000.87
651.18	1966.05
651.36	1834.98
651.55	1757.16
651.74	1796.07
651.93	1746.92
652.12	1716.20
652.31	1730.53
652.49	1703.91
652.68	1675.24
652.87	1812.45
653.06	1767.40
653.25	1810.40
653.44	1718.25
653.62	1865.70
653.81	1730.53
654.00	1726.44
654.19	1724.39
654.38	1816.55
654.56	1722.34
654.75	1701.86
654.94	1712.10
655.13	1724.39
655.32	1781.73
655.51	1824.74
655.69	1705.96
655.88	1802.21
656.07	1644.52
656.26	1742.82
656.45	1640.42
656.63	1718.25
656.82	1785.83
657.01	1705.96
657.20	1712.10
657.38	1767.40
657.57	1636.33
657.76	1597.42
657.95	1744.87
658.14	1746.92
658.32	1744.87
658.51	1652.71
658.70	1677.29
658.89	1710.05
659.08	1681.38
659.26	1890.28
659.45	1646.57
659.64	1812.45
659.83	1755.11
660.01	1968.10
660.20	1789.92
660.39	1816.55
660.58	1609.70
660.76	1746.92
660.95	1589.22
661.14	1699.81
661.33	1701.86
661.51	1767.40
661.70	1794.02
661.89	1783.78
662.08	1728.49
662.26	1632.23
662.45	1703.91
662.64	1871.84
662.83	1705.96
663.01	1701.86
663.20	1675.24
663.39	1898.47
663.58	1671.14
663.76	1812.45
663.95	1734.63
664.14	1763.30
664.32	1667.05
664.51	1615.85
664.70	1650.66
664.89	1759.21
665.07	1626.09
665.26	1769.44
665.45	1671.14
665.64	1804.26
665.82	1685.48
666.01	1783.78
666.20	1677.29
666.38	1765.35
666.57	1855.46
666.76	2342.88
666.95	4589.50
667.13	11495.25
667.32	18560.74
667.51	22185.65
667.69	25118.34
667.88	25548.41
668.07	19525.33
668.25	14427.94
668.44	11851.60
668.63	9762.67
668.81	8554.37
669.00	7759.75
669.19	6950.81
669.38	6272.93
669.56	5316.53
669.75	4501.44
669.94	3772.36
670.12	3180.50
670.31	2635.74
670.50	2402.27
670.68	2146.27
670.87	1908.71
671.06	1884.13
671.24	1869.80
671.43	1880.04
671.62	1892.32
671.80	1839.08
671.99	1855.46
672.18	1767.40
672.36	1851.36
672.55	1841.12
672.74	1724.39
672.92	1730.53
673.11	1785.83
673.29	1699.81
673.48	1738.73
673.67	1703.91
673.85	1802.21
674.04	1748.97
674.23	1787.88
674.41	1849.32
674.60	1691.62
674.79	1665.00
674.97	1683.43
675.16	1732.58
675.34	1777.64
675.53	1734.63
675.72	1732.58
675.90	1822.69
676.09	1660.90
676.28	1673.19
676.46	1716.20
676.65	1703.91
676.83	1667.05
677.02	1751.01
677.21	1759.21
677.39	1677.29
677.58	1652.71
677.77	1701.86
677.95	1777.64
678.14	1740.77
678.32	1740.77
678.51	1724.39
678.70	1822.69
678.88	1742.82
679.07	1695.72
679.25	1667.05
679.44	1738.73
679.63	1712.10
679.81	1734.63
680.00	1785.83
680.18	1789.92
680.37	1818.60
680.55	1759.21
680.74	1626.09
680.93	1652.71
681.11	1777.64
681.30	1708.01
681.48	1683.43
681.67	1689.57
681.85	1677.29
682.04	1675.24
682.23	1730.53
682.41	1732.58
682.60	1699.81
682.78	1738.73
682.97	1638.38
683.15	1767.40
683.34	1687.53
683.53	1769.44
683.71	1695.72
683.90	1830.88
684.08	1839.08
684.27	1783.78
684.45	1697.77
684.64	1726.44
684.82	1730.53
685.01	1787.88
685.19	1718.25
685.38	1822.69
685.57	1722.34
685.75	1697.77
685.94	1744.87
686.12	1667.05
686.31	1640.42
686.49	1837.03
686.68	1607.66
686.86	1751.01
687.05	1695.72
687.23	1781.73
687.42	1722.34
687.60	1609.70
687.79	1757.16
687.97	1791.97
688.16	1775.59
688.34	1779.68
688.53	1673.19
688.71	1708.01
688.90	1826.79
689.08	1789.92
689.27	1669.09
689.45	1697.77
689.64	1740.77
689.82	1757.16
690.01	1671.14
690.19	1726.44
690.38	1714.15
690.56	1818.60
690.75	1771.49
690.93	1716.20
691.12	1673.19
691.30	1687.53
691.49	1722.34
691.67	1796.07
691.86	1832.93
692.04	1669.09
692.23	1634.28
692.41	1736.68
692.60	1837.03
692.78	1902.56
692.97	1843.17
693.15	1746.92
693.34	1929.19
693.52	1794.02
693.71	1740.77
693.89	1730.53
694.08	1765.35
694.26	1712.10
694.44	1791.97
694.63	1802.21
694.81	1679.33
695.00	1738.73
695.18	1734.63
695.37	1839.08
695.55	1712.10
695.74	1613.80
695.92	1609.70
696.10	1753.06
696.29	1650.66
696.47	1695.72
696.66	1605.61
696.84	1714.15
697.03	1607.66
697.21	1841.12
697.40	2250.72
697.58	1734.63
697.76	1718.25
697.95	1710.05
698.13	1697.77
698.32	1619.94
698.50	1714.15
698.68	1839.08
698.87	1757.16
699.05	1798.12
699.24	1679.33
699.42	1683.43
699.61	1787.88
699.79	1798.12
699.97	1769.44
700.16	1644.52
700.34	1615.85
700.53	1759.21
700.71	1826.79
700.89	1757.16
701.08	1765.35
701.26	1802.21
701.45	2162.66
701.63	1615.85
701.81	1773.54
702.00	1722.34
702.18	1708.01
702.37	1736.68
702.55	1935.33
702.73	1900.52
702.92	1892.32
703.10	1974.24
703.28	1970.15
703.47	1884.13
703.65	1966.05
703.84	1867.75
704.02	1812.45
704.20	1785.83
704.39	1746.92
704.57	1763.30
704.75	1802.21
704.94	1789.92
705.12	1748.97
705.30	1877.99
705.49	2443.23
705.67	5410.73
705.86	13254.45
706.04	19318.49
706.22	22748.84
706.41	25241.21
706.59	24540.81
706.77	19156.70
706.96	14102.31
707.14	11994.95
707.32	10190.69
707.51	8867.70
707.69	7950.21
707.87	6756.25
708.06	5562.28
708.24	4388.80
708.42	3418.06
708.61	2815.96
708.79	2263.01
708.97	2058.21
709.16	1935.33
709.34	1863.65
709.52	1814.50
709.71	1837.03
709.89	1769.44
710.07	1716.20
710.26	1689.57
710.44	1732.58
710.62	1738.73
710.80	1771.49
710.99	1839.08
711.17	1824.74
711.35	1708.01
711.54	1779.68
711.72	1812.45
711.90	1720.29
712.09	1681.38
712.27	1697.77
712.45	1777.64
712.63	1626.09
712.82	1751.01
713.00	1710.05
713.18	1689.57
713.37	1732.58
713.55	1777.64
713.73	1718.25
713.91	1816.55
714.10	1738.73
714.28	1683.43
714.46	1734.63
714.65	1742.82
714.83	1705.96
715.01	1796.07
715.19	1718.25
715.38	1650.66
715.56	1759.21
715.74	1667.05
715.92	1693.67
716.11	1779.68
716.29	1593.32
716.47	1798.12
716.65	1677.29
716.84	1628.14
717.02	1755.11
717.20	1535.98
717.38	1742.82
717.57	1777.64
717.75	1681.38
717.93	1677.29
718.11	1791.97
718.30	1714.15
718.48	1808.36
718.66	1736.68
718.84	1734.63
719.03	1732.58
719.21	1632.23
719.39	1853.41
719.57	1734.63
719.75	1763.30
719.94	1710.05
720.12	1683.43
720.30	1601.51
720.48	1759.21
720.67	1716.20
720.85	1714.15
721.03	1685.48
721.21	1636.33
721.39	1822.69
721.58	1757.16
721.76	1722.34
721.94	1705.96
722.12	1708.01
722.30	1834.98
722.49	1724.39
722.67	1753.06
722.85	1765.35
723.03	1662.95
723.21	1617.90
723.40	1767.40
723.58	1804.26
723.76	1734.63
723.94	1773.54
724.12	1796.07
724.30	1841.12
724.49	1859.56
724.67	1689.57
724.85	1865.70
725.03	1650.66
725.21	1738.73
725.40	1763.30
725.58	1648.61
725.76	1759.21
725.94	1742.82
726.12	1667.05
726.30	1691.62
726.49	1691.62
726.67	1648.61
726.85	1730.53
727.03	1816.55
727.21	2287.58
727.39	3461.07
727.57	4976.56
727.76	5654.44
727.94	6336.42
728.12	6379.42
728.30	5599.15
728.48	4554.68
728.66	3950.53
728.84	3594.19
729.03	3221.45
729.21	2955.22
729.39	2461.66
729.57	2144.22
729.75	1986.53
729.93	1871.84
730.11	1820.64
730.30	1765.35
730.48	1673.19
730.66	1826.79
730.84	1816.55
731.02	1802.21
731.20	1681.38
731.38	1746.92
731.56	1646.57
731.74	1669.09
731.93	1734.63
732.11	1701.86
732.29	1673.19
732.47	1794.02
732.65	1734.63
732.83	1726.44
733.01	1724.39
733.19	1640.42
733.37	1718.25
733.56	1716.20
733.74	1624.04
733.92	1759.21
734.10	1728.49
734.28	1687.53
734.46	1626.09
734.64	1748.97
734.82	1665.00
735.00	1652.71
735.18	1677.29
735.36	1744.87
735.54	1714.15
735.73	1730.53
735.91	1681.38
736.09	1783.78
736.27	1615.85
736.45	1777.64
736.63	1603.56
736.81	1656.81
736.99	1730.53
737.17	1820.64
737.35	1652.71
737.53	1736.68
737.71	1751.01
737.89	1773.54
738.07	1683.43
738.25	1642.47
738.43	1652.71
738.61	1685.48
738.80	1669.09
738.98	1581.03
739.16	1640.42
739.34	1669.09
739.52	1783.78
739.70	1738.73
739.88	1734.63
740.06	1742.82
740.24	1628.14
740.42	1826.79
740.60	1636.33
740.78	1708.01
740.96	1689.57
741.14	1705.96
741.32	1677.29
741.50	1724.39
741.68	1765.35
741.86	1695.72
742.04	1642.47
742.22	1634.28
742.40	1683.43
742.58	1720.29
742.76	1765.35
742.94	1767.40
743.12	1583.08
743.30	1744.87
743.48	1748.97
743.66	1705.96
743.84	1673.19
744.02	1632.23
744.20	1765.35
744.38	1609.70
744.56	1624.04
744.74	1861.60
744.92	1720.29
745.10	1777.64
745.28	1814.50
745.46	1839.08
745.64	1667.05
745.82	1773.54
746.00	1755.11
746.18	1751.01
746.36	1617.90
746.54	1693.67
746.72	1736.68
746.90	1681.38
747.08	1720.29
747.26	1667.05
747.44	1779.68
747.62	1783.78
747.80	1769.44
747.98	1791.97
748.15	1683.43
748.33	1787.88
748.51	1708.01
748.69	1822.69
748.87	1738.73
749.05	1740.77
749.23	1701.86
749.41	1748.97
749.59	1677.29
749.77	1695.72
749.95	1738.73
750.13	1667.05
750.31	1697.77
750.49	1624.04
750.67	1708.01
750.85	1757.16
751.03	1734.63
751.20	1826.79
751.38	1710.05
751.56	1687.53
751.74	1693.67
751.92	1730.53
752.10	1652.71
752.28	1824.74
752.46	1697.77
752.64	1695.72
752.82	1791.97
753.00	1724.39
753.18	1683.43
753.35	1763.30
753.53	1691.62
753.71	1701.86
753.89	1773.54
754.07	1675.24
754.25	1757.16
754.43	1789.92
754.61	1660.90
754.79	1736.68
754.97	1730.53
755.14	1834.98
755.32	1718.25
755.50	1660.90
755.68	1728.49
755.86	1636.33
756.04	1742.82
756.22	1658.85
756.40	1769.44
756.57	1902.56
756.75	1693.67
756.93	1763.30
757.11	1761.25
757.29	1542.12
757.47	1689.57
757.65	1693.67
757.82	1640.42
758.00	1689.57
758.18	1693.67
758.36	1791.97
758.54	1800.16
758.72	1648.61
758.90	1832.93
759.07	1773.54
759.25	1613.80
759.43	1701.86
759.61	1646.57
759.79	2166.75
759.97	1824.74
760.15	1820.64
760.32	1675.24
760.50	1667.05
760.68	1740.77
760.86	1624.04
761.04	1748.97
761.22	1748.97
761.39	1699.81
761.57	1808.36
761.75	1693.67
761.93	1822.69
762.11	1691.62
762.28	1779.68
762.46	1597.42
762.64	1769.44
762.82	1652.71
763.00	1767.40
763.18	1794.02
763.35	1662.95
763.53	1746.92
763.71	1669.09
763.89	1755.11
764.07	1763.30
764.24	1722.34
764.42	1740.77
764.60	1701.86
764.78	1751.01
764.96	1763.30
765.13	1718.25
765.31	1621.99
765.49	1771.49
765.67	1632.23
765.84	1660.90
766.02	1626.09
766.20	1617.90
766.38	1710.05
766.56	1769.44
766.73	1773.54
766.91	1705.96
767.09	1665.00
767.27	1724.39
767.44	1656.81
767.62	1781.73
767.80	1703.91
767.98	1624.04
768.15	1710.05
768.33	1748.97
768.51	1730.53
768.69	1718.25
768.87	1726.44
769.04	1667.05
769.22	1828.84
769.40	1849.32
769.58	1847.27
769.75	1740.77
769.93	1796.07
770.11	1734.63
770.28	1581.03
770.46	1800.16
770.64	1794.02
770.82	1701.86
770.99	1683.43
771.17	1816.55
771.35	1740.77
771.53	1583.08
771.70	1763.30
771.88	1652.71
772.06	1693.67
772.23	1656.81
772.41	1712.10
772.59	1685.48
772.77	1611.75
772.94	1658.85
773.12	1667.05
773.30	1765.35
773.47	1703.91
773.65	1732.58
773.83	1789.92
774.01	1669.09
774.18	1576.94
774.36	1656.81
774.54	1566.70
774.71	1710.05
774.89	1636.33
775.07	1578.98
775.24	1679.33
775.42	1697.77
775.60	1798.12
775.78	1662.95
775.95	1621.99
776.13	1597.42
776.31	1576.94
776.48	1667.05
776.66	1716.20
776.84	1589.22
777.01	1701.86
777.19	1646.57
777.37	1695.72
777.54	1769.44
777.72	1730.53
777.90	1691.62
778.07	1734.63
778.25	1865.70
778.43	1724.39
778.60	1632.23
778.78	1712.10
778.96	1742.82
779.13	1734.63
779.31	1734.63
779.49	1761.25
779.66	1714.15
779.84	1673.19
780.01	1708.01
780.19	1693.67
780.37	1818.60
780.54	1724.39
780.72	1540.07
780.90	1697.77
781.07	1677.29
781.25	1654.76
781.43	1777.64
781.60	1697.77
781.78	1804.26
781.95	1724.39
782.13	1689.57
782.31	1730.53
782.48	1632.23
782.66	1562.60
782.83	1779.68
783.01	1740.77
783.19	1710.05
783.36	1710.05
783.54	1693.67
783.72	1708.01
783.89	1611.75
784.07	1755.11
784.24	1714.15
784.42	1804.26
784.60	1779.68
784.77	1742.82
784.95	1642.47
785.12	1669.09
785.30	1722.34
785.47	1703.91
785.65	1689.57
785.83	1587.18
786.00	1730.53
786.18	1748.97
786.35	1619.94
786.53	1687.53
786.71	1724.39
786.88	1701.86
787.06	1742.82
787.23	1708.01
787.41	1636.33
787.58	1753.06
787.76	1683.43
787.94	1705.96
788.11	1724.39
788.29	1615.85
788.46	1722.34
788.64	1628.14
788.81	1728.49
788.99	1665.00
789.16	1599.46
789.34	1705.96
789.52	1738.73
789.69	1648.61
789.87	1576.94
790.04	1675.24
790.22	1681.38
790.39	1787.88
790.57	1654.76
790.74	1683.43
790.92	1751.01
791.09	1578.98
791.27	1703.91
791.44	1800.16
791.62	1716.20
791.79	1736.68
791.97	1720.29
792.15	1853.41
792.32	1656.81
792.50	1734.63
792.67	1791.97
792.85	1759.21
793.02	1626.09
793.20	1675.24
793.37	1591.27
793.55	1683.43
793.72	1599.46
793.90	1775.59
794.07	1583.08
794.25	1636.33
794.42	1718.25
794.60	1687.53
794.77	1775.59
794.95	1816.55
795.12	1744.87
795.30	1734.63
795.47	1570.79
795.65	1820.64
795.82	1683.43
796.00	1718.25
796.17	1681.38
796.34	1619.94
796.52	1710.05
796.69	1769.44
796.87	1779.68
797.04	1716.20
797.22	1763.30
797.39	1724.39
797.57	1683.43
797.74	1632.23
797.92	1718.25
798.09	1642.47
798.27	1779.68
798.44	1673.19
798.62	1646.57
798.79	1822.69
798.96	1728.49
799.14	1648.61
799.31	1769.44
799.49	1732.58
799.66	1689.57
799.84	1689.57
800.01	1656.81
800.19	1722.34
800.36	1601.51
800.53	1744.87
800.71	1701.86
800.88	1746.92
801.06	1771.49
801.23	1646.57
801.41	1730.53
801.58	1677.29
801.75	1695.72
801.93	1738.73
802.10	1697.77
802.28	1695.72
802.45	1658.85
802.63	1652.71
802.80	1753.06
802.97	1632.23
803.15	1761.25
803.32	1695.72
803.50	1595.37
803.67	1624.04
803.84	1591.27
804.02	1697.77
804.19	1660.90
804.37	1570.79
804.54	1630.18
804.71	1705.96
804.89	1687.53
805.06	1662.95
805.24	1673.19
805.41	1640.42
805.58	1708.01
805.76	1869.80
805.93	1777.64
806.10	1851.36
806.28	1755.11
806.45	1660.90
806.63	1681.38
806.80	1771.49
806.97	1695.72
807.15	1681.38
807.32	1662.95
807.49	1730.53
807.67	1632.23
807.84	1691.62
808.01	1679.33
808.19	1705.96
808.36	1834.98
808.54	1621.99
808.71	1628.14
808.88	1738.73
809.06	1705.96
809.23	1845.22
809.40	1673.19
809.58	1769.44
809.75	1685.48
809.92	1683.43
810.10	1837.03
810.27	1652.71
810.44	1769.44
810.62	1740.77
810.79	1796.07
810.96	1607.66
811.14	1705.96
811.31	1726.44
811.48	1675.24
811.66	1800.16
811.83	1689.57
812.00	1730.53
812.18	1726.44
812.35	1802.21
812.52	1814.50
812.69	1724.39
812.87	1712.10
813.04	1710.05
813.21	1798.12
813.39	1675.24
813.56	1699.81
813.73	1746.92
813.91	1615.85
814.08	1673.19
814.25	1634.28
814.42	1669.09
814.60	1716.20
814.77	1740.77
814.94	1669.09
815.12	1804.26
815.29	1818.60
815.46	1613.80
815.63	1718.25
815.81	1695.72
815.98	1716.20
816.15	1791.97
816.33	1724.39
816.50	1712.10
816.67	1683.43
816.84	1726.44
817.02	1722.34
817.19	1734.63
817.36	1726.44
817.53	1779.68
817.71	1660.90
817.88	1816.55
818.05	1654.76
818.22	1667.05
818.40	1828.84
818.57	1708.01
818.74	1759.21
818.91	1609.70
819.09	1812.45
819.26	1779.68
819.43	1714.15
819.60	1621.99
819.78	1755.11
819.95	1824.74
820.12	1697.77
820.29	1839.08
820.47	1771.49
820.64	1697.77
820.81	1658.85
820.98	1632.23
821.15	1691.62
821.33	1730.53
821.50	1593.32
821.67	1693.67
821.84	1691.62
822.02	1757.16
822.19	1832.93
822.36	1685.48
822.53	1679.33
822.70	1617.90
822.88	1665.00
823.05	1822.69
823.22	1718.25
823.39	1667.05
823.56	1740.77
823.74	1779.68
823.91	1658.85
824.08	1636.33
824.25	1619.94
824.42	1839.08
824.60	1677.29
824.77	1695.72
824.94	1654.76
825.11	1710.05
825.28	1628.14
825.45	1693.67
825.63	1769.44
825.80	1685.48
825.97	1730.53
826.14	1779.68
826.31	1632.23
826.48	1640.42
826.66	1708.01
826.83	1683.43
827.00	1746.92
827.17	1705.96
827.34	1638.38
827.51	1697.77
827.69	1701.86
827.86	1648.61
828.03	1718.25
828.20	1683.43
828.37	1677.29
828.54	1732.58
828.71	1689.57
828.89	1738.73
829.06	1712.10
829.23	1775.59
829.40	1605.61
829.57	1687.53
829.74	1712.10
829.91	1667.05
830.09	1726.44
830.26	1808.36
830.43	1804.26
830.60	1693.67
830.77	1767.40
830.94	1832.93
831.11	1814.50
831.28	1675.24
831.46	1857.51
831.63	1626.09
831.80	1779.68
831.97	1683.43
832.14	1648.61
832.31	1740.77
832.48	1669.09
832.65	1761.25
832.82	1675.24
832.99	1697.77
833.17	1589.22
833.34	1751.01
833.51	1732.58
833.68	1554.41
833.85	1767.40
834.02	1650.66
834.19	1669.09
834.36	1654.76
834.53	1724.39
834.70	1738.73
834.87	1748.97
835.04	1681.38
835.22	1652.71
835.39	1677.29
835.56	1748.97
835.73	1732.58
835.90	1748.97
836.07	1644.52
836.24	1722.34
836.41	1652.71
836.58	1650.66
836.75	1751.01
836.92	1724.39
837.09	1697.77
837.26	1736.68
837.43	1624.04
837.60	1703.91
837.77	1642.47
837.94	1697.77
838.12	1824.74
838.29	1769.44
838.46	1673.19
838.63	1685.48
838.80	1798.12
838.97	1769.44
839.14	1665.00
839.31	1701.86
839.48	1748.97
839.65	1697.77
839.82	1820.64
839.99	1714.15
840.16	1679.33
840.33	1673.19
840.50	1796.07
840.67	1632.23
840.84	1568.74
841.01	1669.09
841.18	1615.85
841.35	1638.38
841.52	1732.58
841.69	1847.27
841.86	1683.43
842.03	1685.48
842.20	1771.49
842.37	1671.14
842.54	1716.20
842.71	1720.29
842.88	1619.94
843.05	1753.06
843.22	1665.00
843.39	1841.12
843.56	1634.28
843.73	1763.30
843.90	1779.68
844.07	1658.85
844.24	1773.54
844.41	1665.00
844.58	1621.99
844.75	1720.29
844.92	1761.25
845.09	1675.24
845.26	1638.38
845.43	1734.63
845.60	1777.64
845.77	1789.92
845.94	1570.79
846.10	1714.15
846.27	1648.61
846.44	1619.94
846.61	1658.85
846.78	1720.29
846.95	1787.88
847.12	1697.77
847.29	1761.25
847.46	1671.14
847.63	1714.15
847.80	1656.81
847.97	1724.39
848.14	1857.51
848.31	1740.77
848.48	1550.31
848.65	1656.81
848.82	1687.53
848.98	1802.21
849.15	1740.77
849.32	1791.97
849.49	1740.77
849.66	1673.19
849.83	1662.95
850.00	1628.14
850.17	1732.58
850.34	1642.47
850.51	1611.75
850.68	1689.57
850.85	1826.79
851.01	1775.59
851.18	1669.09
851.35	1730.53
851.52	1697.77
851.69	1769.44
851.86	1695.72
852.03	1718.25
852.20	1720.29
852.37	1730.53
852.53	1734.63
852.70	1705.96
852.87	1740.77
853.04	1705.96
853.21	1669.09
853.38	1683.43
853.55	1791.97
853.72	1804.26
853.89	1646.57
854.05	1650.66
854.22	1714.15
854.39	1660.90
854.56	1759.21
854.73	1730.53
854.90	1656.81
855.07	1759.21
855.23	1634.28
855.40	1716.20
855.57	1705.96
855.74	1619.94
855.91	1890.28
856.08	1658.85
856.25	1695.72
856.41	1681.38
856.58	1648.61
856.75	1740.77
856.92	1603.56
857.09	1767.40
857.26	1617.90
857.42	1685.48
857.59	1685.48
857.76	1703.91
857.93	1785.83
858.10	1740.77
858.27	1603.56
858.43	1753.06
858.60	1689.57
858.77	1601.51
858.94	1753.06
859.11	1685.48
859.27	1720.29
859.44	1712.10
859.61	1904.61
859.78	1697.77
859.95	1708.01
860.12	1650.66
860.28	1810.40
860.45	1806.31
860.62	1665.00
860.79	1726.44
860.95	1640.42
861.12	1701.86
861.29	1720.29
861.46	1658.85
861.63	1744.87
861.79	1681.38
861.96	1677.29
862.13	1658.85
862.30	1796.07
862.47	1691.62
862.63	1675.24
862.80	1724.39
862.97	1779.68
863.14	1748.97
863.30	1720.29
863.47	1683.43
863.64	1800.16
863.81	1669.09
863.97	1712.10
864.14	1755.11
864.31	1675.24
864.48	1718.25
864.65	1759.21
864.81	1722.34
864.98	1679.33
865.15	1732.58
865.32	1798.12
865.48	1777.64
865.65	1769.44
865.82	1710.05
865.98	1757.16
866.15	1751.01
866.32	1738.73
866.49	1621.99
866.65	1810.40
866.82	1689.57
866.99	1701.86
867.16	1695.72
867.32	1689.57
867.49	1701.86
867.66	1761.25
867.83	1591.27
867.99	1718.25
868.16	1732.58
868.33	1607.66
868.49	1699.81
868.66	1699.81
868.83	1732.58
868.99	1720.29
869.16	1781.73
869.33	1746.92
869.50	1722.34
869.66	1669.09
869.83	1740.77
870.00	1650.66
870.16	1777.64
870.33	1746.92
870.50	1757.16
870.66	1624.04
870.83	1779.68
871.00	1759.21
871.17	1695.72
871.33	1722.34
871.50	1689.57
871.67	1744.87
871.83	1654.76
872.00	1781.73
872.17	1681.38
872.33	1701.86
872.50	1773.54
872.67	1669.09
872.83	1609.70
873.00	1720.29
873.17	1718.25
873.33	1689.57
873.50	1665.00
873.67	1646.57
873.83	1628.14
874.00	1716.20
874.16	1779.68
874.33	1656.81
874.50	1689.57
874.66	1710.05
874.83	1703.91
875.00	1671.14
875.16	1791.97
875.33	1796.07
875.50	1634.28
875.66	1708.01
875.83	1669.09
875.99	1818.60
876.16	1642.47
876.33	1599.46
876.49	1742.82
876.66	1730.53
876.83	1681.38
876.99	1570.79
877.16	1693.67
877.32	1697.77
877.49	1632.23
877.66	1701.86
877.82	1732.58
877.99	1703.91
878.15	1761.25
878.32	1693.67
878.49	1779.68
878.65	1718.25
878.82	1767.40
878.98	1609.70
879.15	1820.64
879.32	1746.92
879.48	1689.57
879.65	1746.92
879.81	1697.77
879.98	1681.38
880.15	1644.52
880.31	1734.63
880.48	1730.53
880.64	1746.92
880.81	1744.87
880.97	1679.33
881.14	1755.11
881.31	1646.57
881.47	1814.50
881.64	1681.38
881.80	1613.80
881.97	1693.67
882.13	1796.07
882.30	1593.32
882.47	1767.40
882.63	1685.48
882.80	1683.43
882.96	1646.57
883.13	1796.07
883.29	1716.20
883.46	1712.10
883.62	1800.16
883.79	1708.01
883.95	1816.55
884.12	1671.14
884.29	1761.25
884.45	1736.68
884.62	1699.81
884.78	1621.99
884.95	1822.69
885.11	1660.90
885.28	1726.44
885.44	1703.91
885.61	1718.25
885.77	1730.53
885.94	1767.40
886.10	1753.06
886.27	1751.01
886.43	1818.60
886.60	1726.44
886.76	1667.05
886.93	1675.24
887.09	1755.11
887.26	1597.42
887.42	1705.96
887.59	1722.34
887.75	1775.59
887.92	1847.27
888.08	1705.96
888.25	1853.41
888.41	1738.73
888.58	1710.05
888.74	1691.62
888.91	1638.38
>>>>>End Processed Spectral Data<<<<<
