SpectraSuite Data File
++++++++++++++++++++++++++++++++++++
Date: Wed May 04 18:44:08 CEST 2016
User: root
Dark Spectrum Present: No
Reference Spectrum Present: No
Number of Sampled Component Spectra: 1
Spectrometers: USB4C02835
Integration Time (usec): 100000 (USB4C02835)
Spectra Averaged: 1 (USB4C02835)
Boxcar Smoothing: 0 (USB4C02835)
Correct for Electrical Dark: No (USB4C02835)
Strobe/Lamp Enabled: No (USB4C02835)
Correct for Detector Non-linearity: No (USB4C02835)
Correct for Stray Light: No (USB4C02835)
Number of Pixels in Processed Spectrum: 3648
>>>>>Begin Processed Spectral Data<<<<<
177.47	1529.83
177.69	1529.83
177.91	1529.83
178.13	1402.86
178.36	1478.63
178.58	1648.61
178.80	1787.88
179.02	1595.37
179.24	1626.09
179.46	1644.52
179.68	1716.20
179.90	1652.71
180.13	1726.44
180.35	1646.57
180.57	1716.20
180.79	1771.49
181.01	1675.24
181.23	1732.58
181.45	1796.07
181.67	1806.31
181.90	1699.81
182.12	1679.33
182.34	1648.61
182.56	1744.87
182.78	1771.49
183.00	1730.53
183.22	1812.45
183.44	1601.51
183.66	1841.12
183.89	1779.68
184.11	1714.15
184.33	1746.92
184.55	1701.86
184.77	1722.34
184.99	1740.77
185.21	1755.11
185.43	1781.73
185.65	1652.71
185.87	1773.54
186.10	1851.36
186.32	1767.40
186.54	1708.01
186.76	1730.53
186.98	1757.16
187.20	1695.72
187.42	1671.14
187.64	1814.50
187.86	1765.35
188.08	1724.39
188.30	1716.20
188.52	1675.24
188.75	1777.64
188.97	1812.45
189.19	1677.29
189.41	1687.53
189.63	1771.49
189.85	1732.58
190.07	1617.90
190.29	1665.00
190.51	1705.96
190.73	1669.09
190.95	1777.64
191.17	1685.48
191.39	1691.62
191.61	1665.00
191.84	1603.56
192.06	1738.73
192.28	1576.94
192.50	1902.56
192.72	1744.87
192.94	1656.81
193.16	1785.83
193.38	1652.71
193.60	1671.14
193.82	1636.33
194.04	1769.44
194.26	1665.00
194.48	1726.44
194.70	1679.33
194.92	1699.81
195.14	1736.68
195.36	1660.90
195.58	1705.96
195.80	1662.95
196.02	1701.86
196.24	1812.45
196.46	1705.96
196.69	1654.76
196.91	1839.08
197.13	1673.19
197.35	1652.71
197.57	1712.10
197.79	1681.38
198.01	1761.25
198.23	1708.01
198.45	1726.44
198.67	1695.72
198.89	1714.15
199.11	1634.28
199.33	1691.62
199.55	1587.18
199.77	1656.81
199.99	1705.96
200.21	1701.86
200.43	1720.29
200.65	1628.14
200.87	1621.99
201.09	1718.25
201.31	1662.95
201.53	1808.36
201.75	1759.21
201.97	1671.14
202.19	1724.39
202.41	1730.53
202.63	1841.12
202.85	1746.92
203.07	1751.01
203.29	1757.16
203.51	1665.00
203.73	1628.14
203.95	1841.12
204.17	1769.44
204.39	1712.10
204.61	1695.72
204.83	1665.00
205.05	1746.92
205.27	1742.82
205.49	1871.84
205.71	1665.00
205.93	1685.48
206.15	1697.77
206.37	1683.43
206.59	1683.43
206.81	1658.85
207.03	1619.94
207.25	1632.23
207.47	1806.31
207.69	1710.05
207.91	1763.30
208.13	1769.44
208.34	1572.84
208.56	1728.49
208.78	1708.01
209.00	1718.25
209.22	1681.38
209.44	1648.61
209.66	1650.66
209.88	1724.39
210.10	1718.25
210.32	1681.38
210.54	1820.64
210.76	1742.82
210.98	1695.72
211.20	1548.26
211.42	1757.16
211.64	1806.31
211.86	1718.25
212.08	1748.97
212.30	1648.61
212.52	1646.57
212.74	1746.92
212.96	1734.63
213.17	1679.33
213.39	1748.97
213.61	1773.54
213.83	1751.01
214.05	1691.62
214.27	1765.35
214.49	1624.04
214.71	1650.66
214.93	1781.73
215.15	1667.05
215.37	1763.30
215.59	1710.05
215.81	1705.96
216.03	1724.39
216.24	1689.57
216.46	1636.33
216.68	1703.91
216.90	1744.87
217.12	1744.87
217.34	1665.00
217.56	1751.01
217.78	1701.86
218.00	1726.44
218.22	1771.49
218.44	1796.07
218.66	1724.39
218.87	1751.01
219.09	1701.86
219.31	1755.11
219.53	1648.61
219.75	1689.57
219.97	1720.29
220.19	1796.07
220.41	1671.14
220.63	1779.68
220.85	1759.21
221.06	1605.61
221.28	1816.55
221.50	1736.68
221.72	1720.29
221.94	1757.16
222.16	1693.67
222.38	1746.92
222.60	1775.59
222.82	1630.18
223.03	1814.50
223.25	1603.56
223.47	1746.92
223.69	1886.18
223.91	1753.06
224.13	1705.96
224.35	1603.56
224.57	1787.88
224.78	1710.05
225.00	1599.46
225.22	1732.58
225.44	1716.20
225.66	1796.07
225.88	1640.42
226.10	1744.87
226.32	1710.05
226.53	1779.68
226.75	1714.15
226.97	1724.39
227.19	1730.53
227.41	1691.62
227.63	1724.39
227.85	1624.04
228.06	1722.34
228.28	1703.91
228.50	1703.91
228.72	1658.85
228.94	1728.49
229.16	1642.47
229.37	1665.00
229.59	1583.08
229.81	1726.44
230.03	1621.99
230.25	1576.94
230.47	1611.75
230.69	1646.57
230.90	1763.30
231.12	1681.38
231.34	1691.62
231.56	1728.49
231.78	1642.47
232.00	1722.34
232.21	1648.61
232.43	1648.61
232.65	1572.84
232.87	1810.40
233.09	1652.71
233.30	1695.72
233.52	1738.73
233.74	1689.57
233.96	1644.52
234.18	1732.58
234.40	1650.66
234.61	1873.89
234.83	1619.94
235.05	1652.71
235.27	1834.98
235.49	1730.53
235.70	1640.42
235.92	1775.59
236.14	1798.12
236.36	1896.42
236.58	1697.77
236.79	1748.97
237.01	1628.14
237.23	1673.19
237.45	1826.79
237.67	1638.38
237.88	1703.91
238.10	1812.45
238.32	1599.46
238.54	1714.15
238.76	1705.96
238.97	1757.16
239.19	1683.43
239.41	1802.21
239.63	1757.16
239.85	1669.09
240.06	1710.05
240.28	1646.57
240.50	1773.54
240.72	1767.40
240.93	1619.94
241.15	1794.02
241.37	1738.73
241.59	1724.39
241.81	1703.91
242.02	1742.82
242.24	1744.87
242.46	1736.68
242.68	1701.86
242.89	1832.93
243.11	1714.15
243.33	1746.92
243.55	1640.42
243.76	1740.77
243.98	1683.43
244.20	1771.49
244.42	1695.72
244.64	1818.60
244.85	1660.90
245.07	1722.34
245.29	1744.87
245.51	1695.72
245.72	1671.14
245.94	1746.92
246.16	1734.63
246.38	1730.53
246.59	1728.49
246.81	1701.86
247.03	1640.42
247.24	1626.09
247.46	1667.05
247.68	1718.25
247.90	1675.24
248.11	1603.56
248.33	1781.73
248.55	1708.01
248.77	1648.61
248.98	1742.82
249.20	1806.31
249.42	1689.57
249.64	1746.92
249.85	1644.52
250.07	1759.21
250.29	1738.73
250.50	1746.92
250.72	1564.65
250.94	1679.33
251.16	1802.21
251.37	1757.16
251.59	1708.01
251.81	1755.11
252.02	1732.58
252.24	1615.85
252.46	1746.92
252.68	1677.29
252.89	1632.23
253.11	1638.38
253.33	1767.40
253.54	1787.88
253.76	1615.85
253.98	1634.28
254.20	1697.77
254.41	1603.56
254.63	1748.97
254.85	1675.24
255.06	1681.38
255.28	1787.88
255.50	1648.61
255.71	1648.61
255.93	1669.09
256.15	1751.01
256.36	1673.19
256.58	1746.92
256.80	1738.73
257.02	1675.24
257.23	1691.62
257.45	1720.29
257.67	1697.77
257.88	1609.70
258.10	1771.49
258.32	1732.58
258.53	1718.25
258.75	1845.22
258.97	1669.09
259.18	1820.64
259.40	1724.39
259.62	1763.30
259.83	1789.92
260.05	1781.73
260.27	1972.19
260.48	1787.88
260.70	1652.71
260.92	1701.86
261.13	1742.82
261.35	1658.85
261.57	1791.97
261.78	1615.85
262.00	1632.23
262.22	1732.58
262.43	1648.61
262.65	1662.95
262.86	1748.97
263.08	1785.83
263.30	1748.97
263.51	1638.38
263.73	1603.56
263.95	1693.67
264.16	1648.61
264.38	1681.38
264.60	1728.49
264.81	1654.76
265.03	1775.59
265.25	1755.11
265.46	1757.16
265.68	1736.68
265.89	1755.11
266.11	1617.90
266.33	1781.73
266.54	1765.35
266.76	1716.20
266.98	1757.16
267.19	1816.55
267.41	1771.49
267.62	1730.53
267.84	1574.89
268.06	1740.77
268.27	1671.14
268.49	1765.35
268.70	1699.81
268.92	1710.05
269.14	1671.14
269.35	1671.14
269.57	1714.15
269.79	1765.35
270.00	1636.33
270.22	1837.03
270.43	1720.29
270.65	1578.98
270.87	1751.01
271.08	1775.59
271.30	1781.73
271.51	1656.81
271.73	1763.30
271.95	1777.64
272.16	1744.87
272.38	1712.10
272.59	1714.15
272.81	1691.62
273.02	1771.49
273.24	1712.10
273.46	1734.63
273.67	1634.28
273.89	1716.20
274.10	1615.85
274.32	1777.64
274.54	1675.24
274.75	1769.44
274.97	1701.86
275.18	1738.73
275.40	1734.63
275.61	1644.52
275.83	1695.72
276.05	1656.81
276.26	1701.86
276.48	1716.20
276.69	1656.81
276.91	1626.09
277.12	1697.77
277.34	1763.30
277.55	1771.49
277.77	1708.01
277.99	1796.07
278.20	1695.72
278.42	1628.14
278.63	1658.85
278.85	1681.38
279.06	1660.90
279.28	1660.90
279.49	1765.35
279.71	1699.81
279.93	1710.05
280.14	1695.72
280.36	1648.61
280.57	1746.92
280.79	1730.53
281.00	1624.04
281.22	1636.33
281.43	1791.97
281.65	1628.14
281.86	1640.42
282.08	1718.25
282.29	1746.92
282.51	1667.05
282.73	1638.38
282.94	1632.23
283.16	1716.20
283.37	1808.36
283.59	1705.96
283.80	1693.67
284.02	1755.11
284.23	1703.91
284.45	1630.18
284.66	1644.52
284.88	1632.23
285.09	1751.01
285.31	1701.86
285.52	1722.34
285.74	1640.42
285.95	1773.54
286.17	1761.25
286.38	1726.44
286.60	1640.42
286.81	1665.00
287.03	1722.34
287.24	1624.04
287.46	1681.38
287.67	1744.87
287.89	1818.60
288.10	1665.00
288.32	1705.96
288.53	1738.73
288.75	1669.09
288.96	1791.97
289.18	1675.24
289.39	1730.53
289.61	1726.44
289.82	1837.03
290.04	1789.92
290.25	1689.57
290.47	1650.66
290.68	1677.29
290.90	1804.26
291.11	1574.89
291.33	1755.11
291.54	1632.23
291.76	1701.86
291.97	1738.73
292.18	1791.97
292.40	1630.18
292.61	1667.05
292.83	1742.82
293.04	1861.60
293.26	1744.87
293.47	1767.40
293.69	1691.62
293.90	1699.81
294.12	1796.07
294.33	1642.47
294.55	1732.58
294.76	1796.07
294.97	1796.07
295.19	1841.12
295.40	1744.87
295.62	1626.09
295.83	1789.92
296.05	1685.48
296.26	1718.25
296.48	1679.33
296.69	1697.77
296.90	1644.52
297.12	1701.86
297.33	1751.01
297.55	1783.78
297.76	1740.77
297.98	1820.64
298.19	1724.39
298.41	1681.38
298.62	1648.61
298.83	1740.77
299.05	1734.63
299.26	1658.85
299.48	1665.00
299.69	1806.31
299.90	1738.73
300.12	1701.86
300.33	1781.73
300.55	1720.29
300.76	1841.12
300.98	1589.22
301.19	1685.48
301.40	1605.61
301.62	1689.57
301.83	1789.92
302.05	1714.15
302.26	1673.19
302.47	1673.19
302.69	1652.71
302.90	1771.49
303.12	1609.70
303.33	1794.02
303.54	1802.21
303.76	1681.38
303.97	1800.16
304.19	1796.07
304.40	1654.76
304.61	1724.39
304.83	1726.44
305.04	1744.87
305.26	1675.24
305.47	1636.33
305.68	1648.61
305.90	1675.24
306.11	1742.82
306.33	1681.38
306.54	1630.18
306.75	1658.85
306.97	1554.41
307.18	1640.42
307.39	1687.53
307.61	1734.63
307.82	1675.24
308.04	1730.53
308.25	1695.72
308.46	1636.33
308.68	1759.21
308.89	1656.81
309.10	1720.29
309.32	1753.06
309.53	1689.57
309.74	1748.97
309.96	1662.95
310.17	1789.92
310.39	1689.57
310.60	1613.80
310.81	1730.53
311.03	1671.14
311.24	1714.15
311.45	1755.11
311.67	1828.84
311.88	1769.44
312.09	1671.14
312.31	1718.25
312.52	1722.34
312.73	1662.95
312.95	1628.14
313.16	1669.09
313.37	1826.79
313.59	1783.78
313.80	1728.49
314.01	1812.45
314.23	1740.77
314.44	1730.53
314.65	1566.70
314.87	1716.20
315.08	1662.95
315.29	1701.86
315.51	1701.86
315.72	1656.81
315.93	1708.01
316.15	1748.97
316.36	1746.92
316.57	1644.52
316.79	1802.21
317.00	1699.81
317.21	1773.54
317.43	1656.81
317.64	1722.34
317.85	1636.33
318.07	1644.52
318.28	1785.83
318.49	1920.99
318.70	1976.29
318.92	1927.14
319.13	1914.85
319.34	1939.43
319.56	1794.02
319.77	1869.80
319.98	1798.12
320.20	1759.21
320.41	1724.39
320.62	1851.36
320.83	1656.81
321.05	1912.80
321.26	1761.25
321.47	1701.86
321.69	1742.82
321.90	1609.70
322.11	1636.33
322.32	1693.67
322.54	1681.38
322.75	1652.71
322.96	1867.75
323.18	1638.38
323.39	1624.04
323.60	1722.34
323.81	1769.44
324.03	1656.81
324.24	1708.01
324.45	1640.42
324.66	1667.05
324.88	1832.93
325.09	1798.12
325.30	1724.39
325.52	1722.34
325.73	1789.92
325.94	1701.86
326.15	1581.03
326.37	1654.76
326.58	1818.60
326.79	1859.56
327.00	1673.19
327.22	1728.49
327.43	1716.20
327.64	1753.06
327.85	1755.11
328.07	1679.33
328.28	1783.78
328.49	1693.67
328.70	1767.40
328.92	1751.01
329.13	1660.90
329.34	1800.16
329.55	1816.55
329.76	1808.36
329.98	1703.91
330.19	1796.07
330.40	1734.63
330.61	1783.78
330.83	1740.77
331.04	1658.85
331.25	1667.05
331.46	1691.62
331.68	1683.43
331.89	1705.96
332.10	1656.81
332.31	1689.57
332.52	1703.91
332.74	1722.34
332.95	1607.66
333.16	1716.20
333.37	1777.64
333.58	1722.34
333.80	1783.78
334.01	1609.70
334.22	1630.18
334.43	1624.04
334.64	1710.05
334.86	1589.22
335.07	1683.43
335.28	1763.30
335.49	1578.98
335.70	1695.72
335.92	1753.06
336.13	1810.40
336.34	1722.34
336.55	1783.78
336.76	1734.63
336.98	1673.19
337.19	1701.86
337.40	1683.43
337.61	1804.26
337.82	1746.92
338.04	1703.91
338.25	1554.41
338.46	1724.39
338.67	1751.01
338.88	1638.38
339.09	1626.09
339.31	1685.48
339.52	1642.47
339.73	1609.70
339.94	1718.25
340.15	1730.53
340.36	1656.81
340.58	1716.20
340.79	1617.90
341.00	1742.82
341.21	1656.81
341.42	1818.60
341.63	1685.48
341.85	1742.82
342.06	1705.96
342.27	1695.72
342.48	1763.30
342.69	1601.51
342.90	1716.20
343.12	1753.06
343.33	1673.19
343.54	1777.64
343.75	1828.84
343.96	1650.66
344.17	1716.20
344.38	1595.37
344.60	1644.52
344.81	1658.85
345.02	1679.33
345.23	1775.59
345.44	1841.12
345.65	1771.49
345.86	1755.11
346.07	1732.58
346.29	1716.20
346.50	1748.97
346.71	1695.72
346.92	1830.88
347.13	1767.40
347.34	1656.81
347.55	1634.28
347.76	1730.53
347.98	1617.90
348.19	1730.53
348.40	1771.49
348.61	1740.77
348.82	1824.74
349.03	1732.58
349.24	1675.24
349.45	1769.44
349.66	1648.61
349.88	1695.72
350.09	1671.14
350.30	1802.21
350.51	1794.02
350.72	1753.06
350.93	1742.82
351.14	1671.14
351.35	1748.97
351.56	1619.94
351.77	1744.87
351.99	1693.67
352.20	1839.08
352.41	1796.07
352.62	1644.52
352.83	1638.38
353.04	1730.53
353.25	1767.40
353.46	1779.68
353.67	1800.16
353.88	1617.90
354.09	1714.15
354.30	1769.44
354.52	1742.82
354.73	1722.34
354.94	1681.38
355.15	1773.54
355.36	1841.12
355.57	1671.14
355.78	1722.34
355.99	1624.04
356.20	1679.33
356.41	1775.59
356.62	1800.16
356.83	1677.29
357.04	1771.49
357.25	1540.07
357.46	1619.94
357.68	1636.33
357.89	1683.43
358.10	1802.21
358.31	1726.44
358.52	1640.42
358.73	1624.04
358.94	1583.08
359.15	1607.66
359.36	1791.97
359.57	1738.73
359.78	1675.24
359.99	1746.92
360.20	1720.29
360.41	1773.54
360.62	1744.87
360.83	1673.19
361.04	1746.92
361.25	1757.16
361.46	1755.11
361.67	1751.01
361.88	1738.73
362.09	1851.36
362.30	1777.64
362.51	1685.48
362.72	1720.29
362.93	1755.11
363.14	1748.97
363.35	1736.68
363.56	1689.57
363.78	1714.15
363.99	1728.49
364.20	1667.05
364.41	1769.44
364.62	1802.21
364.83	1785.83
365.04	1720.29
365.25	1740.77
365.46	1789.92
365.67	1603.56
365.88	1693.67
366.09	1679.33
366.30	1710.05
366.51	1683.43
366.72	1730.53
366.93	1701.86
367.14	1705.96
367.35	1736.68
367.56	1832.93
367.77	1779.68
367.98	1712.10
368.18	1746.92
368.39	1751.01
368.60	1722.34
368.81	1746.92
369.02	1746.92
369.23	1677.29
369.44	1638.38
369.65	1673.19
369.86	1785.83
370.07	1679.33
370.28	1636.33
370.49	1761.25
370.70	1775.59
370.91	1681.38
371.12	1632.23
371.33	1732.58
371.54	1636.33
371.75	1761.25
371.96	1607.66
372.17	1769.44
372.38	1722.34
372.59	1781.73
372.80	1677.29
373.01	1697.77
373.22	1740.77
373.43	1695.72
373.64	1644.52
373.85	1804.26
374.06	1779.68
374.26	1777.64
374.47	1767.40
374.68	1773.54
374.89	1701.86
375.10	1779.68
375.31	1724.39
375.52	1681.38
375.73	1716.20
375.94	1628.14
376.15	1816.55
376.36	1677.29
376.57	1689.57
376.78	1640.42
376.99	1822.69
377.20	1820.64
377.40	1642.47
377.61	1871.84
377.82	1685.48
378.03	1751.01
378.24	1683.43
378.45	1675.24
378.66	1642.47
378.87	1613.80
379.08	1542.12
379.29	1650.66
379.50	1744.87
379.71	1720.29
379.91	1753.06
380.12	1677.29
380.33	1738.73
380.54	1734.63
380.75	1681.38
380.96	1746.92
381.17	1714.15
381.38	1681.38
381.59	1767.40
381.80	1777.64
382.00	1865.70
382.21	1845.22
382.42	1880.04
382.63	1925.09
382.84	1726.44
383.05	1847.27
383.26	1837.03
383.47	1697.77
383.68	1849.32
383.88	1769.44
384.09	1787.88
384.30	1851.36
384.51	1720.29
384.72	1740.77
384.93	1642.47
385.14	1751.01
385.35	1843.17
385.55	1648.61
385.76	1806.31
385.97	1710.05
386.18	1652.71
386.39	1665.00
386.60	1744.87
386.81	1687.53
387.02	1691.62
387.22	1685.48
387.43	1744.87
387.64	1779.68
387.85	1877.99
388.06	2176.99
388.27	4921.27
388.48	9150.32
388.68	11837.26
388.89	13524.79
389.10	14231.33
389.31	12013.38
389.52	9756.52
389.73	8705.92
389.93	7935.88
390.14	7188.37
390.35	6684.57
390.56	6027.17
390.77	5126.07
390.98	3887.04
391.18	3155.92
391.39	2379.74
391.60	1951.71
391.81	1849.32
392.02	1714.15
392.23	1832.93
392.43	1718.25
392.64	1824.74
392.85	1785.83
393.06	1814.50
393.27	1724.39
393.47	1650.66
393.68	1728.49
393.89	1730.53
394.10	1771.49
394.31	1689.57
394.52	1603.56
394.72	1652.71
394.93	1763.30
395.14	1695.72
395.35	1712.10
395.56	1695.72
395.76	1714.15
395.97	1796.07
396.18	1918.95
396.39	1871.84
396.60	2047.97
396.80	2004.96
397.01	1916.90
397.22	1927.14
397.43	1841.12
397.64	1832.93
397.84	1916.90
398.05	1865.70
398.26	1777.64
398.47	1734.63
398.67	1806.31
398.88	1681.38
399.09	1693.67
399.30	1761.25
399.51	1732.58
399.71	1714.15
399.92	1687.53
400.13	1761.25
400.34	1665.00
400.54	1689.57
400.75	1861.60
400.96	1748.97
401.17	1869.80
401.37	1728.49
401.58	1640.42
401.79	1779.68
402.00	1818.60
402.21	2121.70
402.41	2125.79
402.62	2127.84
402.83	2224.09
403.04	2086.88
403.24	2117.60
403.45	1861.60
403.66	1939.43
403.87	1898.47
404.07	1986.53
404.28	1918.95
404.49	1937.38
404.70	1834.98
404.90	1828.84
405.11	1804.26
405.32	1808.36
405.52	1671.14
405.73	1626.09
405.94	1685.48
406.15	1685.48
406.35	1748.97
406.56	1783.78
406.77	1775.59
406.98	1720.29
407.18	1722.34
407.39	1796.07
407.60	1699.81
407.80	1755.11
408.01	1654.76
408.22	1679.33
408.43	1583.08
408.63	1718.25
408.84	1714.15
409.05	1820.64
409.25	1738.73
409.46	1689.57
409.67	1718.25
409.88	1708.01
410.08	1656.81
410.29	1724.39
410.50	1738.73
410.70	1705.96
410.91	1630.18
411.12	1742.82
411.32	1695.72
411.53	1726.44
411.74	1880.04
411.95	1777.64
412.15	1853.41
412.36	1808.36
412.57	1734.63
412.77	1837.03
412.98	1685.48
413.19	1697.77
413.39	1818.60
413.60	1820.64
413.81	1783.78
414.01	1638.38
414.22	1726.44
414.43	1800.16
414.63	1726.44
414.84	1816.55
415.05	1796.07
415.25	1648.61
415.46	1785.83
415.67	1642.47
415.87	1718.25
416.08	1708.01
416.29	1681.38
416.49	1783.78
416.70	1658.85
416.91	1689.57
417.11	1675.24
417.32	1820.64
417.53	1755.11
417.73	1843.17
417.94	1687.53
418.15	1720.29
418.35	1785.83
418.56	1753.06
418.77	1886.18
418.97	1599.46
419.18	1689.57
419.38	1607.66
419.59	1740.77
419.80	1732.58
420.00	1675.24
420.21	1714.15
420.42	1783.78
420.62	1771.49
420.83	1654.76
421.04	1669.09
421.24	1716.20
421.45	1775.59
421.65	1832.93
421.86	1675.24
422.07	1796.07
422.27	1662.95
422.48	1724.39
422.69	1591.27
422.89	1736.68
423.10	1759.21
423.30	1650.66
423.51	1701.86
423.72	1667.05
423.92	1685.48
424.13	1703.91
424.33	1705.96
424.54	1736.68
424.75	1705.96
424.95	1787.88
425.16	1746.92
425.36	1677.29
425.57	1791.97
425.78	1669.09
425.98	1748.97
426.19	1665.00
426.39	1767.40
426.60	1710.05
426.81	1818.60
427.01	1675.24
427.22	1632.23
427.42	1683.43
427.63	1656.81
427.83	1738.73
428.04	1798.12
428.25	1755.11
428.45	1771.49
428.66	1722.34
428.86	1740.77
429.07	1681.38
429.28	1656.81
429.48	1716.20
429.69	1740.77
429.89	1751.01
430.10	1691.62
430.30	1720.29
430.51	1761.25
430.71	1656.81
430.92	1738.73
431.13	1660.90
431.33	1767.40
431.54	1753.06
431.74	1763.30
431.95	1800.16
432.15	1656.81
432.36	1679.33
432.56	1685.48
432.77	1751.01
432.98	1863.65
433.18	1802.21
433.39	1730.53
433.59	1757.16
433.80	1886.18
434.00	1949.67
434.21	1626.09
434.41	1753.06
434.62	1873.89
434.82	1650.66
435.03	1665.00
435.23	1777.64
435.44	1599.46
435.64	1732.58
435.85	1759.21
436.06	1728.49
436.26	1783.78
436.47	1665.00
436.67	1673.19
436.88	1669.09
437.08	1779.68
437.29	1861.60
437.49	1699.81
437.70	1802.21
437.90	1710.05
438.11	1898.47
438.31	1826.79
438.52	1900.52
438.72	1865.70
438.93	1951.71
439.13	1877.99
439.34	1841.12
439.54	1732.58
439.75	1861.60
439.95	1853.41
440.16	1714.15
440.36	1714.15
440.57	1751.01
440.77	1746.92
440.98	1875.94
441.18	1759.21
441.39	1759.21
441.59	1679.33
441.80	1804.26
442.00	1732.58
442.21	1808.36
442.41	1656.81
442.62	1832.93
442.82	1695.72
443.02	1685.48
443.23	1722.34
443.43	1781.73
443.64	1826.79
443.84	1679.33
444.05	1839.08
444.25	1693.67
444.46	1755.11
444.66	1767.40
444.87	1814.50
445.07	1607.66
445.28	1705.96
445.48	1830.88
445.69	1834.98
445.89	1861.60
446.09	1720.29
446.30	1970.15
446.50	2596.82
446.71	4243.39
446.91	5404.59
447.12	5748.65
447.32	6148.00
447.53	5396.40
447.73	4394.94
447.93	4046.79
448.14	3637.19
448.34	3555.27
448.55	3135.44
448.75	3139.54
448.96	2936.79
449.16	2607.06
449.36	2404.32
449.57	2172.89
449.77	1966.05
449.98	1804.26
450.18	1804.26
450.39	1847.27
450.59	1775.59
450.79	1732.58
451.00	1738.73
451.20	1824.74
451.41	1744.87
451.61	1728.49
451.81	1785.83
452.02	1789.92
452.22	1724.39
452.43	1689.57
452.63	1595.37
452.84	1781.73
453.04	1714.15
453.24	1673.19
453.45	1705.96
453.65	1724.39
453.86	1738.73
454.06	1742.82
454.26	1697.77
454.47	1699.81
454.67	1882.08
454.87	1701.86
455.08	1726.44
455.28	1847.27
455.49	1773.54
455.69	1708.01
455.89	1828.84
456.10	1781.73
456.30	1757.16
456.51	1748.97
456.71	1783.78
456.91	1771.49
457.12	1689.57
457.32	1789.92
457.52	1689.57
457.73	1781.73
457.93	1730.53
458.14	1675.24
458.34	1562.60
458.54	1736.68
458.75	1722.34
458.95	1738.73
459.15	1843.17
459.36	1689.57
459.56	1810.40
459.76	1841.12
459.97	1710.05
460.17	1648.61
460.37	1802.21
460.58	1646.57
460.78	1755.11
460.99	1675.24
461.19	1748.97
461.39	1775.59
461.60	1781.73
461.80	1789.92
462.00	1681.38
462.21	1716.20
462.41	1662.95
462.61	1677.29
462.82	1638.38
463.02	1744.87
463.22	1693.67
463.43	1748.97
463.63	1748.97
463.83	1787.88
464.04	1757.16
464.24	1646.57
464.44	1648.61
464.64	1761.25
464.85	1730.53
465.05	1730.53
465.25	1703.91
465.46	1738.73
465.66	1767.40
465.86	1783.78
466.07	1738.73
466.27	1708.01
466.47	1658.85
466.68	1673.19
466.88	1880.04
467.08	1720.29
467.29	1742.82
467.49	1689.57
467.69	1693.67
467.89	1724.39
468.10	1757.16
468.30	1755.11
468.50	1767.40
468.71	1746.92
468.91	1644.52
469.11	1783.78
469.31	1685.48
469.52	1714.15
469.72	1880.04
469.92	1841.12
470.13	1710.05
470.33	1693.67
470.53	1822.69
470.73	2125.79
470.94	2572.25
471.14	2762.71
471.34	2916.31
471.54	2924.50
471.75	2480.09
471.95	2297.82
472.15	2269.15
472.36	2127.84
472.56	2160.61
472.76	2158.56
472.96	2113.50
473.17	2045.92
473.37	2013.15
473.57	1894.37
473.77	1816.55
473.98	1755.11
474.18	1611.75
474.38	1896.42
474.58	1763.30
474.79	1650.66
474.99	1685.48
475.19	1791.97
475.39	1656.81
475.60	1697.77
475.80	1746.92
476.00	1722.34
476.20	1716.20
476.41	1716.20
476.61	1845.22
476.81	1777.64
477.01	1660.90
477.21	1779.68
477.42	1828.84
477.62	1669.09
477.82	1781.73
478.02	1724.39
478.23	1703.91
478.43	1652.71
478.63	1646.57
478.83	1724.39
479.03	1761.25
479.24	1794.02
479.44	1892.32
479.64	1626.09
479.84	1544.17
480.04	1691.62
480.25	1834.98
480.45	1683.43
480.65	1755.11
480.85	1787.88
481.06	1624.04
481.26	1791.97
481.46	1734.63
481.66	1714.15
481.86	1617.90
482.06	1828.84
482.27	1751.01
482.47	1751.01
482.67	1832.93
482.87	1646.57
483.07	1734.63
483.28	1695.72
483.48	1691.62
483.68	1757.16
483.88	1701.86
484.08	1673.19
484.29	1681.38
484.49	1691.62
484.69	1697.77
484.89	1722.34
485.09	1849.32
485.29	1710.05
485.50	1689.57
485.70	1701.86
485.90	1796.07
486.10	1710.05
486.30	1728.49
486.50	1798.12
486.71	1742.82
486.91	1734.63
487.11	1816.55
487.31	1628.14
487.51	1736.68
487.71	1755.11
487.91	1650.66
488.12	1656.81
488.32	1583.08
488.52	1671.14
488.72	1632.23
488.92	1736.68
489.12	1738.73
489.32	1794.02
489.53	1726.44
489.73	1581.03
489.93	1869.80
490.13	1662.95
490.33	1607.66
490.53	1687.53
490.73	1777.64
490.94	1601.51
491.14	1781.73
491.34	1820.64
491.54	2060.26
491.74	2791.38
491.94	3315.66
492.14	3502.03
492.34	3538.89
492.54	3104.72
492.75	2754.52
492.95	2613.21
493.15	2463.71
493.35	2377.69
493.55	2324.44
493.75	2281.44
493.95	2236.38
494.15	1998.82
494.35	2050.02
494.56	1916.90
494.76	1789.92
494.96	1794.02
495.16	1849.32
495.36	1697.77
495.56	1794.02
495.76	1759.21
495.96	1742.82
496.16	1736.68
496.36	1820.64
496.56	1740.77
496.77	1773.54
496.97	1738.73
497.17	1841.12
497.37	1673.19
497.57	1816.55
497.77	1654.76
497.97	1779.68
498.17	1673.19
498.37	1726.44
498.57	1787.88
498.77	1730.53
498.97	1791.97
499.17	1832.93
499.38	1732.58
499.58	1781.73
499.78	1873.89
499.98	1818.60
500.18	1718.25
500.38	1634.28
500.58	1855.46
500.78	2467.80
500.98	4683.70
501.18	6645.66
501.38	8341.38
501.58	9172.85
501.78	8955.77
501.98	6956.95
502.18	5881.77
502.38	4984.76
502.58	4538.30
502.78	4089.79
502.98	3981.25
503.18	3909.57
503.38	3522.51
503.59	3160.02
503.79	2992.08
503.99	2590.68
504.19	2357.21
504.39	2357.21
504.59	2377.69
504.79	2363.36
504.99	2287.58
505.19	2066.40
505.39	1943.52
505.59	2088.93
505.79	1961.95
505.99	1914.85
506.19	1906.66
506.39	1947.62
506.59	1714.15
506.79	1757.16
506.99	1859.56
507.19	1742.82
507.39	1781.73
507.59	1687.53
507.79	1652.71
507.99	1748.97
508.19	1724.39
508.39	1714.15
508.59	1787.88
508.79	1863.65
508.99	1912.80
509.19	1691.62
509.39	1769.44
509.59	1656.81
509.79	1705.96
509.99	1726.44
510.19	1837.03
510.39	1783.78
510.59	1736.68
510.79	1732.58
510.99	1699.81
511.19	1742.82
511.39	1781.73
511.59	1820.64
511.79	1834.98
511.99	1730.53
512.19	1832.93
512.38	1708.01
512.58	1689.57
512.78	1740.77
512.98	1783.78
513.18	1820.64
513.38	1644.52
513.58	1781.73
513.78	1744.87
513.98	1710.05
514.18	1763.30
514.38	1714.15
514.58	1703.91
514.78	1744.87
514.98	1724.39
515.18	1724.39
515.38	1703.91
515.58	1857.51
515.78	1724.39
515.98	1757.16
516.18	1804.26
516.38	1693.67
516.57	1671.14
516.77	1705.96
516.97	1738.73
517.17	1662.95
517.37	1689.57
517.57	1771.49
517.77	1771.49
517.97	1722.34
518.17	1830.88
518.37	1689.57
518.57	1763.30
518.77	1697.77
518.97	1775.59
519.16	1781.73
519.36	1818.60
519.56	1730.53
519.76	1724.39
519.96	1751.01
520.16	1837.03
520.36	1722.34
520.56	1869.80
520.76	1669.09
520.96	1667.05
521.16	1759.21
521.35	1812.45
521.55	1804.26
521.75	1779.68
521.95	1751.01
522.15	1679.33
522.35	1697.77
522.55	1652.71
522.75	1849.32
522.95	1699.81
523.14	1705.96
523.34	1740.77
523.54	1656.81
523.74	1796.07
523.94	1732.58
524.14	1699.81
524.34	1689.57
524.54	1839.08
524.73	1718.25
524.93	1783.78
525.13	1765.35
525.33	1693.67
525.53	1947.62
525.73	1814.50
525.93	1710.05
526.13	1728.49
526.32	1769.44
526.52	1845.22
526.72	1845.22
526.92	1751.01
527.12	1640.42
527.32	1650.66
527.52	1761.25
527.71	1732.58
527.91	1665.00
528.11	1726.44
528.31	1689.57
528.51	1679.33
528.71	1763.30
528.90	1779.68
529.10	1759.21
529.30	1755.11
529.50	1585.13
529.70	1814.50
529.90	1724.39
530.09	1781.73
530.29	1710.05
530.49	1695.72
530.69	1828.84
530.89	1675.24
531.09	1705.96
531.28	1738.73
531.48	1806.31
531.68	1808.36
531.88	1734.63
532.08	1783.78
532.28	1730.53
532.47	1767.40
532.67	1814.50
532.87	1757.16
533.07	1681.38
533.27	1781.73
533.46	1724.39
533.66	1845.22
533.86	1736.68
534.06	1728.49
534.26	1771.49
534.45	1726.44
534.65	1847.27
534.85	1800.16
535.05	1738.73
535.25	1785.83
535.44	1691.62
535.64	1800.16
535.84	1781.73
536.04	1794.02
536.24	1689.57
536.43	1689.57
536.63	1710.05
536.83	1753.06
537.03	1726.44
537.22	1726.44
537.42	1652.71
537.62	1765.35
537.82	1662.95
538.02	1781.73
538.21	1818.60
538.41	1945.57
538.61	1789.92
538.81	1634.28
539.00	1787.88
539.20	1595.37
539.40	1740.77
539.60	1796.07
539.79	1816.55
539.99	1751.01
540.19	1693.67
540.39	1716.20
540.58	1755.11
540.78	1775.59
540.98	1726.44
541.18	1761.25
541.37	1771.49
541.57	1654.76
541.77	1791.97
541.97	1638.38
542.16	1695.72
542.36	1804.26
542.56	1753.06
542.76	1877.99
542.95	1759.21
543.15	1699.81
543.35	1712.10
543.54	1675.24
543.74	1718.25
543.94	1800.16
544.14	1712.10
544.33	1806.31
544.53	1757.16
544.73	1734.63
544.93	1757.16
545.12	1679.33
545.32	1701.86
545.52	1638.38
545.71	1710.05
545.91	1773.54
546.11	1767.40
546.30	1667.05
546.50	1746.92
546.70	1728.49
546.90	1738.73
547.09	1626.09
547.29	1746.92
547.49	1818.60
547.68	1730.53
547.88	1722.34
548.08	1753.06
548.27	2181.09
548.47	1740.77
548.67	1665.00
548.87	1751.01
549.06	1724.39
549.26	1755.11
549.46	1740.77
549.65	1761.25
549.85	1771.49
550.05	1718.25
550.24	1667.05
550.44	1755.11
550.64	1677.29
550.83	1703.91
551.03	1808.36
551.23	1787.88
551.42	1751.01
551.62	1730.53
551.82	1746.92
552.01	1675.24
552.21	1779.68
552.41	1796.07
552.60	1783.78
552.80	1781.73
553.00	1628.14
553.19	1763.30
553.39	1738.73
553.59	1697.77
553.78	1765.35
553.98	1718.25
554.17	1701.86
554.37	1736.68
554.57	1759.21
554.76	1640.42
554.96	1722.34
555.16	1718.25
555.35	1783.78
555.55	1716.20
555.75	1751.01
555.94	1775.59
556.14	1662.95
556.33	1845.22
556.53	1730.53
556.73	1757.16
556.92	1755.11
557.12	1796.07
557.32	1783.78
557.51	1730.53
557.71	1714.15
557.90	1859.56
558.10	1791.97
558.30	1677.29
558.49	1718.25
558.69	1726.44
558.88	1738.73
559.08	1796.07
559.28	1714.15
559.47	1701.86
559.67	1787.88
559.86	1861.60
560.06	1767.40
560.26	1683.43
560.45	1832.93
560.65	1779.68
560.84	1865.70
561.04	1757.16
561.24	1738.73
561.43	1726.44
561.63	1873.89
561.82	1734.63
562.02	1804.26
562.22	1748.97
562.41	1681.38
562.61	1669.09
562.80	1617.90
563.00	1925.09
563.19	1755.11
563.39	1757.16
563.59	1748.97
563.78	1677.29
563.98	1697.77
564.17	1636.33
564.37	1660.90
564.56	1751.01
564.76	1681.38
564.96	1822.69
565.15	1751.01
565.35	1851.36
565.54	1681.38
565.74	1710.05
565.93	1734.63
566.13	1695.72
566.32	1738.73
566.52	1681.38
566.71	1814.50
566.91	1822.69
567.11	1722.34
567.30	1640.42
567.50	1730.53
567.69	1787.88
567.89	1683.43
568.08	1751.01
568.28	1783.78
568.47	1714.15
568.67	1757.16
568.86	1669.09
569.06	1839.08
569.25	1703.91
569.45	1755.11
569.64	1648.61
569.84	1726.44
570.04	1714.15
570.23	1673.19
570.43	1675.24
570.62	1808.36
570.82	1826.79
571.01	1681.38
571.21	1800.16
571.40	1740.77
571.60	1751.01
571.79	1808.36
571.99	1742.82
572.18	1611.75
572.38	1787.88
572.57	1705.96
572.77	1841.12
572.96	1818.60
573.16	1681.38
573.35	1763.30
573.55	1841.12
573.74	1759.21
573.94	1730.53
574.13	1732.58
574.33	1757.16
574.52	1798.12
574.71	1787.88
574.91	1761.25
575.10	1726.44
575.30	1691.62
575.49	1736.68
575.69	1691.62
575.88	1820.64
576.08	1771.49
576.27	1923.04
576.47	1802.21
576.66	1884.13
576.86	1857.51
577.05	1724.39
577.25	1841.12
577.44	1904.61
577.64	1675.24
577.83	1855.46
578.02	1785.83
578.22	1841.12
578.41	1855.46
578.61	1767.40
578.80	1667.05
579.00	1845.22
579.19	1798.12
579.39	1791.97
579.58	1761.25
579.77	1812.45
579.97	1859.56
580.16	1812.45
580.36	1830.88
580.55	1826.79
580.75	1787.88
580.94	1779.68
581.13	1892.32
581.33	1828.84
581.52	1802.21
581.72	1900.52
581.91	2004.96
582.11	1820.64
582.30	1798.12
582.49	1757.16
582.69	1845.22
582.88	1816.55
583.08	1796.07
583.27	1845.22
583.47	1800.16
583.66	1742.82
583.85	1744.87
584.05	1730.53
584.24	1849.32
584.44	1775.59
584.63	1802.21
584.82	1945.57
585.02	1918.95
585.21	1912.80
585.41	1949.67
585.60	1970.15
585.79	2023.39
585.99	1955.81
586.18	1931.23
586.37	2267.10
586.57	3428.30
586.76	9924.46
586.96	27731.54
587.15	42204.54
587.34	52182.24
587.54	58643.59
587.73	56450.21
587.93	40328.60
588.12	30060.09
588.31	23809.68
588.51	20762.31
588.70	18845.41
588.89	17354.49
589.09	15560.47
589.28	13643.57
589.47	11710.29
589.67	9496.43
589.86	7423.89
590.06	5457.84
590.25	4179.90
590.44	3237.84
590.64	2619.35
590.83	2279.39
591.02	2088.93
591.22	1943.52
591.41	1937.38
591.60	1890.28
591.80	1959.91
591.99	1779.68
592.18	1763.30
592.38	1861.60
592.57	1771.49
592.76	1812.45
592.96	1816.55
593.15	1818.60
593.34	1802.21
593.54	1726.44
593.73	1808.36
593.92	1777.64
594.12	1804.26
594.31	1851.36
594.50	1884.13
594.70	1869.80
594.89	1933.28
595.08	1744.87
595.28	1843.17
595.47	1896.42
595.66	1810.40
595.86	1685.48
596.05	1675.24
596.24	1775.59
596.43	1787.88
596.63	1832.93
596.82	1769.44
597.01	1763.30
597.21	1859.56
597.40	1822.69
597.59	1843.17
597.79	1742.82
597.98	1796.07
598.17	1712.10
598.36	1808.36
598.56	1834.98
598.75	1746.92
598.94	1822.69
599.14	1775.59
599.33	1718.25
599.52	1808.36
599.71	1783.78
599.91	1837.03
600.10	1718.25
600.29	1714.15
600.48	1810.40
600.68	1693.67
600.87	1748.97
601.06	1714.15
601.26	1714.15
601.45	1757.16
601.64	1761.25
601.83	1767.40
602.03	1705.96
602.22	1642.47
602.41	1808.36
602.60	1900.52
602.80	1845.22
602.99	1734.63
603.18	1724.39
603.37	1773.54
603.57	1802.21
603.76	1791.97
603.95	1753.06
604.14	1720.29
604.34	1734.63
604.53	1740.77
604.72	1742.82
604.91	1798.12
605.10	1757.16
605.30	1621.99
605.49	1820.64
605.68	1791.97
605.87	1738.73
606.07	1734.63
606.26	1841.12
606.45	1714.15
606.64	1769.44
606.84	1689.57
607.03	1673.19
607.22	1896.42
607.41	1761.25
607.60	1771.49
607.80	1826.79
607.99	1753.06
608.18	1769.44
608.37	1736.68
608.56	1677.29
608.76	1920.99
608.95	1873.89
609.14	1800.16
609.33	1837.03
609.52	1886.18
609.72	1816.55
609.91	1783.78
610.10	1822.69
610.29	1855.46
610.48	1820.64
610.68	1755.11
610.87	1789.92
611.06	1822.69
611.25	1746.92
611.44	1769.44
611.63	1726.44
611.83	1755.11
612.02	1613.80
612.21	1779.68
612.40	1681.38
612.59	1673.19
612.79	1746.92
612.98	1738.73
613.17	1820.64
613.36	1724.39
613.55	1853.41
613.74	1824.74
613.93	1873.89
614.13	1918.95
614.32	1941.47
614.51	1990.63
614.70	1845.22
614.89	1816.55
615.08	1828.84
615.28	2222.05
615.47	1693.67
615.66	1851.36
615.85	1769.44
616.04	1867.75
616.23	1787.88
616.42	1847.27
616.62	1839.08
616.81	1832.93
617.00	1765.35
617.19	1757.16
617.38	1689.57
617.57	1751.01
617.76	1746.92
617.95	1742.82
618.15	1814.50
618.34	1789.92
618.53	1675.24
618.72	1873.89
618.91	1746.92
619.10	1804.26
619.29	1798.12
619.48	1701.86
619.68	1716.20
619.87	1796.07
620.06	1722.34
620.25	1796.07
620.44	1759.21
620.63	1722.34
620.82	1820.64
621.01	1804.26
621.20	1724.39
621.39	1816.55
621.59	1744.87
621.78	1691.62
621.97	1716.20
622.16	1716.20
622.35	1753.06
622.54	1787.88
622.73	1761.25
622.92	1593.32
623.11	1789.92
623.30	1746.92
623.49	1908.71
623.68	1634.28
623.88	1794.02
624.07	1759.21
624.26	1708.01
624.45	1722.34
624.64	1708.01
624.83	1726.44
625.02	1791.97
625.21	1705.96
625.40	1769.44
625.59	1804.26
625.78	1740.77
625.97	1796.07
626.16	1800.16
626.35	1869.80
626.54	1804.26
626.74	1951.71
626.93	1796.07
627.12	1787.88
627.31	1839.08
627.50	1769.44
627.69	1779.68
627.88	1726.44
628.07	1699.81
628.26	1718.25
628.45	1685.48
628.64	1677.29
628.83	1736.68
629.02	1708.01
629.21	1667.05
629.40	1751.01
629.59	1755.11
629.78	1757.16
629.97	1808.36
630.16	1818.60
630.35	1773.54
630.54	1732.58
630.73	1751.01
630.92	1701.86
631.11	1708.01
631.30	1734.63
631.49	1746.92
631.68	1826.79
631.87	1787.88
632.06	1691.62
632.25	1810.40
632.44	1843.17
632.63	1738.73
632.82	1822.69
633.01	1824.74
633.20	1890.28
633.39	1781.73
633.58	1722.34
633.77	1748.97
633.96	1814.50
634.15	1832.93
634.34	1765.35
634.53	1775.59
634.72	1693.67
634.91	1681.38
635.10	1734.63
635.29	1785.83
635.48	1732.58
635.67	1728.49
635.86	1601.51
636.05	1794.02
636.24	1689.57
636.43	1683.43
636.62	1767.40
636.81	1648.61
637.00	1765.35
637.19	1791.97
637.38	1697.77
637.57	1732.58
637.76	1746.92
637.95	1845.22
638.14	1853.41
638.33	1863.65
638.52	1767.40
638.71	1724.39
638.89	1740.77
639.08	1929.19
639.27	1929.19
639.46	1857.51
639.65	2254.81
639.84	2279.39
640.03	2383.84
640.22	2349.02
640.41	2312.16
640.60	2052.06
640.79	2011.11
640.98	1892.32
641.17	1957.86
641.36	1933.28
641.55	1951.71
641.74	1722.34
641.92	1834.98
642.11	1697.77
642.30	1736.68
642.49	1640.42
642.68	1677.29
642.87	1828.84
643.06	1806.31
643.25	1720.29
643.44	1689.57
643.63	1708.01
643.82	1798.12
644.00	1732.58
644.19	1734.63
644.38	1701.86
644.57	1755.11
644.76	1755.11
644.95	1687.53
645.14	1728.49
645.33	1662.95
645.52	1695.72
645.71	1646.57
645.89	1673.19
646.08	1722.34
646.27	1677.29
646.46	1859.56
646.65	1648.61
646.84	1771.49
647.03	1720.29
647.22	1812.45
647.40	1742.82
647.59	1691.62
647.78	1689.57
647.97	1683.43
648.16	1703.91
648.35	1867.75
648.54	1826.79
648.73	1712.10
648.91	1816.55
649.10	1765.35
649.29	1703.91
649.48	1681.38
649.67	1679.33
649.86	1755.11
650.05	1816.55
650.23	1923.04
650.42	1816.55
650.61	2015.20
650.80	1933.28
650.99	1931.23
651.18	1841.12
651.36	1843.17
651.55	1720.29
651.74	1759.21
651.93	1742.82
652.12	1718.25
652.31	1765.35
652.49	1751.01
652.68	1751.01
652.87	1773.54
653.06	1785.83
653.25	1888.23
653.44	1888.23
653.62	1859.56
653.81	1769.44
654.00	1703.91
654.19	1787.88
654.38	1916.90
654.56	1710.05
654.75	1730.53
654.94	1830.88
655.13	1771.49
655.32	1679.33
655.51	1722.34
655.69	1660.90
655.88	1736.68
656.07	1720.29
656.26	1765.35
656.45	1734.63
656.63	1724.39
656.82	1736.68
657.01	1802.21
657.20	1693.67
657.38	1810.40
657.57	1703.91
657.76	1691.62
657.95	1794.02
658.14	1617.90
658.32	1617.90
658.51	1671.14
658.70	1660.90
658.89	1753.06
659.08	1748.97
659.26	1820.64
659.45	1718.25
659.64	1812.45
659.83	1757.16
660.01	1912.80
660.20	1746.92
660.39	1853.41
660.58	1638.38
660.76	1761.25
660.95	1705.96
661.14	1705.96
661.33	1617.90
661.51	1705.96
661.70	1691.62
661.89	1779.68
662.08	1708.01
662.26	1687.53
662.45	1695.72
662.64	1855.46
662.83	1796.07
663.01	1654.76
663.20	1671.14
663.39	1722.34
663.58	1732.58
663.76	1718.25
663.95	1798.12
664.14	1716.20
664.32	1710.05
664.51	1675.24
664.70	1685.48
664.89	1748.97
665.07	1652.71
665.26	1818.60
665.45	1669.09
665.64	1734.63
665.82	1798.12
666.01	1763.30
666.20	1683.43
666.38	1820.64
666.57	1925.09
666.76	2318.30
666.95	4706.23
667.13	11679.57
667.32	18538.21
667.51	22613.67
667.69	25278.08
667.88	25702.01
668.07	19959.50
668.25	14419.75
668.44	12060.49
668.63	10020.71
668.81	8624.00
669.00	7708.55
669.19	6969.24
669.38	6338.46
669.56	5437.36
669.75	4624.31
669.94	3852.23
670.12	3004.37
670.31	2625.50
670.50	2344.92
670.68	2172.89
670.87	1986.53
671.06	1834.98
671.24	1853.41
671.43	1834.98
671.62	1904.61
671.80	1785.83
671.99	1824.74
672.18	1781.73
672.36	1779.68
672.55	1712.10
672.74	1734.63
672.92	1689.57
673.11	1810.40
673.29	1621.99
673.48	1779.68
673.67	1724.39
673.85	1789.92
674.04	1636.33
674.23	1798.12
674.41	1843.17
674.60	1736.68
674.79	1660.90
674.97	1697.77
675.16	1744.87
675.34	1783.78
675.53	1744.87
675.72	1728.49
675.90	1857.51
676.09	1689.57
676.28	1773.54
676.46	1650.66
676.65	1771.49
676.83	1636.33
677.02	1830.88
677.21	1685.48
677.39	1757.16
677.58	1740.77
677.77	1685.48
677.95	1775.59
678.14	1619.94
678.32	1630.18
678.51	1701.86
678.70	1839.08
678.88	1724.39
679.07	1785.83
679.25	1724.39
679.44	1712.10
679.63	1746.92
679.81	1705.96
680.00	1781.73
680.18	1765.35
680.37	1816.55
680.55	1753.06
680.74	1587.18
680.93	1597.42
681.11	1753.06
681.30	1728.49
681.48	1714.15
681.67	1722.34
681.85	1740.77
682.04	1699.81
682.23	1656.81
682.41	1755.11
682.60	1736.68
682.78	1736.68
682.97	1675.24
683.15	1705.96
683.34	1681.38
683.53	1806.31
683.71	1626.09
683.90	1798.12
684.08	1800.16
684.27	1650.66
684.45	1722.34
684.64	1791.97
684.82	1742.82
685.01	1712.10
685.19	1708.01
685.38	1812.45
685.57	1724.39
685.75	1677.29
685.94	1634.28
686.12	1767.40
686.31	1757.16
686.49	1783.78
686.68	1656.81
686.86	1785.83
687.05	1675.24
687.23	1810.40
687.42	1601.51
687.60	1562.60
687.79	1687.53
687.97	1824.74
688.16	1800.16
688.34	1787.88
688.53	1589.22
688.71	1732.58
688.90	1724.39
689.08	1730.53
689.27	1599.46
689.45	1798.12
689.64	1693.67
689.82	1748.97
690.01	1658.85
690.19	1697.77
690.38	1738.73
690.56	1701.86
690.75	1650.66
690.93	1726.44
691.12	1671.14
691.30	1701.86
691.49	1677.29
691.67	1683.43
691.86	1810.40
692.04	1697.77
692.23	1701.86
692.41	1740.77
692.60	1933.28
692.78	1796.07
692.97	1777.64
693.15	1871.84
693.34	1869.80
693.52	1777.64
693.71	1708.01
693.89	1716.20
694.08	1681.38
694.26	1763.30
694.44	1761.25
694.63	1757.16
694.81	1593.32
695.00	1677.29
695.18	1781.73
695.37	1748.97
695.55	1771.49
695.74	1718.25
695.92	1652.71
696.10	1839.08
696.29	1705.96
696.47	1665.00
696.66	1531.88
696.84	1640.42
697.03	1708.01
697.21	1853.41
697.40	2314.20
697.58	1820.64
697.76	1708.01
697.95	1681.38
698.13	1699.81
698.32	1667.05
698.50	1720.29
698.68	1763.30
698.87	1730.53
699.05	1787.88
699.24	1740.77
699.42	1642.47
699.61	1738.73
699.79	1683.43
699.97	1728.49
700.16	1673.19
700.34	1699.81
700.53	1726.44
700.71	1783.78
700.89	1734.63
701.08	1703.91
701.26	1730.53
701.45	2131.94
701.63	1673.19
701.81	1773.54
702.00	1751.01
702.18	1740.77
702.37	1689.57
702.55	1837.03
702.73	1853.41
702.92	1906.66
703.10	1970.15
703.28	2015.20
703.47	1847.27
703.65	1955.81
703.84	1812.45
704.02	1820.64
704.20	1918.95
704.39	1728.49
704.57	1779.68
704.75	1773.54
704.94	1789.92
705.12	1824.74
705.30	1880.04
705.49	2512.86
705.67	5492.65
705.86	13334.32
706.04	19511.00
706.22	23058.08
706.41	25460.35
706.59	25017.99
706.77	19496.66
706.96	13985.58
707.14	12060.49
707.32	10317.67
707.51	8996.73
707.69	7901.06
707.87	6772.63
708.06	5695.40
708.24	4372.41
708.42	3428.30
708.61	2854.87
708.79	2281.44
708.97	2047.97
709.16	1943.52
709.34	1796.07
709.52	1794.02
709.71	1794.02
709.89	1759.21
710.07	1796.07
710.26	1708.01
710.44	1789.92
710.62	1837.03
710.80	1757.16
710.99	1828.84
711.17	1832.93
711.35	1675.24
711.54	1716.20
711.72	1828.84
711.90	1832.93
712.09	1746.92
712.27	1660.90
712.45	1669.09
712.63	1667.05
712.82	1705.96
713.00	1773.54
713.18	1812.45
713.37	1791.97
713.55	1777.64
713.73	1722.34
713.91	1777.64
714.10	1691.62
714.28	1703.91
714.46	1812.45
714.65	1710.05
714.83	1675.24
715.01	1716.20
715.19	1724.39
715.38	1736.68
715.56	1753.06
715.74	1695.72
715.92	1720.29
716.11	1771.49
716.29	1662.95
716.47	1708.01
716.65	1685.48
716.84	1630.18
717.02	1800.16
717.20	1574.89
717.38	1716.20
717.57	1703.91
717.75	1746.92
717.93	1603.56
718.11	1720.29
718.30	1634.28
718.48	1632.23
718.66	1716.20
718.84	1710.05
719.03	1703.91
719.21	1621.99
719.39	1845.22
719.57	1685.48
719.75	1810.40
719.94	1656.81
720.12	1800.16
720.30	1675.24
720.48	1767.40
720.67	1665.00
720.85	1697.77
721.03	1624.04
721.21	1695.72
721.39	1783.78
721.58	1751.01
721.76	1701.86
721.94	1685.48
722.12	1742.82
722.30	1841.12
722.49	1712.10
722.67	1742.82
722.85	1695.72
723.03	1695.72
723.21	1699.81
723.40	1757.16
723.58	1755.11
723.76	1722.34
723.94	1820.64
724.12	1769.44
724.30	1871.84
724.49	1847.27
724.67	1697.77
724.85	1845.22
725.03	1687.53
725.21	1746.92
725.40	1816.55
725.58	1691.62
725.76	1863.65
725.94	1818.60
726.12	1667.05
726.30	1710.05
726.49	1691.62
726.67	1654.76
726.85	1783.78
727.03	1806.31
727.21	2322.40
727.39	3526.60
727.57	4919.22
727.76	5826.47
727.94	6266.78
728.12	6336.42
728.30	5775.27
728.48	4546.49
728.66	4054.98
728.84	3702.73
729.03	3241.93
729.21	2834.39
729.39	2555.86
729.57	2154.46
729.75	2015.20
729.93	1898.47
730.11	1820.64
730.30	1804.26
730.48	1712.10
730.66	1763.30
730.84	1791.97
731.02	1687.53
731.20	1691.62
731.38	1714.15
731.56	1748.97
731.74	1568.74
731.93	1761.25
732.11	1728.49
732.29	1734.63
732.47	1740.77
732.65	1740.77
732.83	1796.07
733.01	1724.39
733.19	1619.94
733.37	1742.82
733.56	1746.92
733.74	1665.00
733.92	1791.97
734.10	1716.20
734.28	1748.97
734.46	1671.14
734.64	1681.38
734.82	1728.49
735.00	1689.57
735.18	1681.38
735.36	1673.19
735.54	1714.15
735.73	1705.96
735.91	1736.68
736.09	1832.93
736.27	1746.92
736.45	1734.63
736.63	1542.12
736.81	1746.92
736.99	1787.88
737.17	1734.63
737.35	1689.57
737.53	1769.44
737.71	1722.34
737.89	1730.53
738.07	1699.81
738.25	1617.90
738.43	1632.23
738.61	1665.00
738.80	1642.47
738.98	1583.08
739.16	1736.68
739.34	1640.42
739.52	1757.16
739.70	1640.42
739.88	1744.87
740.06	1712.10
740.24	1607.66
740.42	1816.55
740.60	1613.80
740.78	1699.81
740.96	1701.86
741.14	1695.72
741.32	1718.25
741.50	1671.14
741.68	1818.60
741.86	1767.40
742.04	1648.61
742.22	1689.57
742.40	1728.49
742.58	1742.82
742.76	1726.44
742.94	1781.73
743.12	1679.33
743.30	1724.39
743.48	1685.48
743.66	1667.05
743.84	1720.29
744.02	1736.68
744.20	1675.24
744.38	1646.57
744.56	1587.18
744.74	1783.78
744.92	1708.01
745.10	1777.64
745.28	1740.77
745.46	1759.21
745.64	1642.47
745.82	1761.25
746.00	1732.58
746.18	1652.71
746.36	1718.25
746.54	1738.73
746.72	1757.16
746.90	1660.90
747.08	1806.31
747.26	1644.52
747.44	1781.73
747.62	1685.48
747.80	1720.29
747.98	1816.55
748.15	1804.26
748.33	1824.74
748.51	1757.16
748.69	1673.19
748.87	1740.77
749.05	1759.21
749.23	1730.53
749.41	1847.27
749.59	1724.39
749.77	1791.97
749.95	1621.99
750.13	1660.90
750.31	1751.01
750.49	1714.15
750.67	1736.68
750.85	1779.68
751.03	1738.73
751.20	1746.92
751.38	1685.48
751.56	1624.04
751.74	1699.81
751.92	1689.57
752.10	1669.09
752.28	1759.21
752.46	1710.05
752.64	1685.48
752.82	1662.95
753.00	1734.63
753.18	1650.66
753.35	1748.97
753.53	1755.11
753.71	1697.77
753.89	1832.93
754.07	1712.10
754.25	1804.26
754.43	1673.19
754.61	1673.19
754.79	1720.29
754.97	1695.72
755.14	1804.26
755.32	1683.43
755.50	1755.11
755.68	1689.57
755.86	1607.66
756.04	1658.85
756.22	1615.85
756.40	1697.77
756.57	1880.04
756.75	1683.43
756.93	1802.21
757.11	1748.97
757.29	1603.56
757.47	1681.38
757.65	1609.70
757.82	1585.13
758.00	1634.28
758.18	1722.34
758.36	1603.56
758.54	1808.36
758.72	1669.09
758.90	1703.91
759.07	1687.53
759.25	1578.98
759.43	1761.25
759.61	1615.85
759.79	2203.61
759.97	1791.97
760.15	1714.15
760.32	1634.28
760.50	1755.11
760.68	1755.11
760.86	1636.33
761.04	1791.97
761.22	1736.68
761.39	1673.19
761.57	1677.29
761.75	1658.85
761.93	1742.82
762.11	1761.25
762.28	1767.40
762.46	1648.61
762.64	1779.68
762.82	1527.78
763.00	1716.20
763.18	1705.96
763.35	1724.39
763.53	1781.73
763.71	1726.44
763.89	1726.44
764.07	1744.87
764.24	1675.24
764.42	1746.92
764.60	1697.77
764.78	1722.34
764.96	1769.44
765.13	1755.11
765.31	1710.05
765.49	1859.56
765.67	1603.56
765.84	1720.29
766.02	1613.80
766.20	1632.23
766.38	1720.29
766.56	1751.01
766.73	1798.12
766.91	1667.05
767.09	1634.28
767.27	1718.25
767.44	1636.33
767.62	1687.53
767.80	1751.01
767.98	1656.81
768.15	1708.01
768.33	1730.53
768.51	1773.54
768.69	1767.40
768.87	1822.69
769.04	1658.85
769.22	1880.04
769.40	1794.02
769.58	1851.36
769.75	1728.49
769.93	1697.77
770.11	1681.38
770.28	1673.19
770.46	1800.16
770.64	1726.44
770.82	1642.47
770.99	1640.42
771.17	1693.67
771.35	1761.25
771.53	1697.77
771.70	1644.52
771.88	1800.16
772.06	1705.96
772.23	1748.97
772.41	1685.48
772.59	1759.21
772.77	1644.52
772.94	1746.92
773.12	1726.44
773.30	1681.38
773.47	1714.15
773.65	1632.23
773.83	1722.34
774.01	1673.19
774.18	1593.32
774.36	1767.40
774.54	1658.85
774.71	1722.34
774.89	1617.90
775.07	1671.14
775.24	1728.49
775.42	1689.57
775.60	1781.73
775.78	1681.38
775.95	1621.99
776.13	1701.86
776.31	1601.51
776.48	1693.67
776.66	1748.97
776.84	1730.53
777.01	1689.57
777.19	1787.88
777.37	1685.48
777.54	1681.38
777.72	1828.84
777.90	1703.91
778.07	1804.26
778.25	1869.80
778.43	1746.92
778.60	1720.29
778.78	1736.68
778.96	1796.07
779.13	1640.42
779.31	1804.26
779.49	1662.95
779.66	1687.53
779.84	1757.16
780.01	1669.09
780.19	1646.57
780.37	1828.84
780.54	1730.53
780.72	1654.76
780.90	1671.14
781.07	1669.09
781.25	1705.96
781.43	1763.30
781.60	1667.05
781.78	1810.40
781.95	1656.81
782.13	1687.53
782.31	1746.92
782.48	1621.99
782.66	1714.15
782.83	1826.79
783.01	1759.21
783.19	1820.64
783.36	1683.43
783.54	1679.33
783.72	1705.96
783.89	1708.01
784.07	1650.66
784.24	1701.86
784.42	1773.54
784.60	1724.39
784.77	1822.69
784.95	1591.27
785.12	1636.33
785.30	1699.81
785.47	1673.19
785.65	1695.72
785.83	1732.58
786.00	1591.27
786.18	1699.81
786.35	1724.39
786.53	1681.38
786.71	1794.02
786.88	1708.01
787.06	1742.82
787.23	1720.29
787.41	1632.23
787.58	1697.77
787.76	1691.62
787.94	1730.53
788.11	1689.57
788.29	1613.80
788.46	1671.14
788.64	1617.90
788.81	1679.33
788.99	1695.72
789.16	1681.38
789.34	1652.71
789.52	1712.10
789.69	1693.67
789.87	1617.90
790.04	1656.81
790.22	1638.38
790.39	1814.50
790.57	1644.52
790.74	1660.90
790.92	1751.01
791.09	1568.74
791.27	1697.77
791.44	1851.36
791.62	1724.39
791.79	1755.11
791.97	1777.64
792.15	1910.75
792.32	1708.01
792.50	1699.81
792.67	1806.31
792.85	1816.55
793.02	1634.28
793.20	1558.50
793.37	1654.76
793.55	1777.64
793.72	1644.52
793.90	1740.77
794.07	1630.18
794.25	1632.23
794.42	1746.92
794.60	1712.10
794.77	1714.15
794.95	1736.68
795.12	1789.92
795.30	1687.53
795.47	1642.47
795.65	1929.19
795.82	1753.06
796.00	1656.81
796.17	1675.24
796.34	1685.48
796.52	1753.06
796.69	1701.86
796.87	1740.77
797.04	1708.01
797.22	1720.29
797.39	1720.29
797.57	1759.21
797.74	1703.91
797.92	1650.66
798.09	1619.94
798.27	1734.63
798.44	1726.44
798.62	1642.47
798.79	1665.00
798.96	1708.01
799.14	1732.58
799.31	1806.31
799.49	1642.47
799.66	1640.42
799.84	1658.85
800.01	1624.04
800.19	1669.09
800.36	1601.51
800.53	1734.63
800.71	1755.11
800.88	1843.17
801.06	1599.46
801.23	1738.73
801.41	1806.31
801.58	1673.19
801.75	1595.37
801.93	1816.55
802.10	1767.40
802.28	1683.43
802.45	1722.34
802.63	1732.58
802.80	1804.26
802.97	1681.38
803.15	1724.39
803.32	1689.57
803.50	1644.52
803.67	1683.43
803.84	1595.37
804.02	1761.25
804.19	1701.86
804.37	1587.18
804.54	1648.61
804.71	1724.39
804.89	1755.11
805.06	1611.75
805.24	1701.86
805.41	1648.61
805.58	1660.90
805.76	1812.45
805.93	1724.39
806.10	1796.07
806.28	1728.49
806.45	1665.00
806.63	1738.73
806.80	1710.05
806.97	1730.53
807.15	1687.53
807.32	1710.05
807.49	1710.05
807.67	1644.52
807.84	1705.96
808.01	1568.74
808.19	1822.69
808.36	1865.70
808.54	1693.67
808.71	1753.06
808.88	1789.92
809.06	1748.97
809.23	1851.36
809.40	1691.62
809.58	1791.97
809.75	1693.67
809.92	1671.14
810.10	1791.97
810.27	1738.73
810.44	1732.58
810.62	1730.53
810.79	1722.34
810.96	1595.37
811.14	1669.09
811.31	1767.40
811.48	1761.25
811.66	1705.96
811.83	1787.88
812.00	1738.73
812.18	1685.48
812.35	1839.08
812.52	1669.09
812.69	1763.30
812.87	1703.91
813.04	1665.00
813.21	1599.46
813.39	1650.66
813.56	1710.05
813.73	1701.86
813.91	1634.28
814.08	1761.25
814.25	1740.77
814.42	1650.66
814.60	1667.05
814.77	1755.11
814.94	1742.82
815.12	1748.97
815.29	1726.44
815.46	1644.52
815.63	1726.44
815.81	1714.15
815.98	1712.10
816.15	1759.21
816.33	1671.14
816.50	1650.66
816.67	1681.38
816.84	1703.91
817.02	1630.18
817.19	1675.24
817.36	1724.39
817.53	1689.57
817.71	1701.86
817.88	1650.66
818.05	1712.10
818.22	1699.81
818.40	1810.40
818.57	1685.48
818.74	1716.20
818.91	1720.29
819.09	1763.30
819.26	1820.64
819.43	1652.71
819.60	1677.29
819.78	1753.06
819.95	1748.97
820.12	1665.00
820.29	1798.12
820.47	1804.26
820.64	1648.61
820.81	1687.53
820.98	1724.39
821.15	1679.33
821.33	1785.83
821.50	1665.00
821.67	1624.04
821.84	1675.24
822.02	1806.31
822.19	1734.63
822.36	1759.21
822.53	1669.09
822.70	1658.85
822.88	1617.90
823.05	1730.53
823.22	1738.73
823.39	1779.68
823.56	1759.21
823.74	1744.87
823.91	1648.61
824.08	1710.05
824.25	1656.81
824.42	1830.88
824.60	1607.66
824.77	1765.35
824.94	1634.28
825.11	1716.20
825.28	1636.33
825.45	1724.39
825.63	1812.45
825.80	1597.42
825.97	1812.45
826.14	1687.53
826.31	1611.75
826.48	1744.87
826.66	1697.77
826.83	1697.77
827.00	1689.57
827.17	1638.38
827.34	1699.81
827.51	1650.66
827.69	1697.77
827.86	1669.09
828.03	1710.05
828.20	1753.06
828.37	1675.24
828.54	1738.73
828.71	1689.57
828.89	1841.12
829.06	1656.81
829.23	1716.20
829.40	1660.90
829.57	1695.72
829.74	1746.92
829.91	1624.04
830.09	1697.77
830.26	1673.19
830.43	1789.92
830.60	1710.05
830.77	1724.39
830.94	1771.49
831.11	1748.97
831.28	1710.05
831.46	1810.40
831.63	1634.28
831.80	1781.73
831.97	1673.19
832.14	1746.92
832.31	1679.33
832.48	1640.42
832.65	1777.64
832.82	1677.29
832.99	1705.96
833.17	1613.80
833.34	1726.44
833.51	1800.16
833.68	1671.14
833.85	1769.44
834.02	1683.43
834.19	1685.48
834.36	1656.81
834.53	1687.53
834.70	1751.01
834.87	1703.91
835.04	1646.57
835.22	1585.13
835.39	1669.09
835.56	1658.85
835.73	1652.71
835.90	1732.58
836.07	1738.73
836.24	1740.77
836.41	1726.44
836.58	1650.66
836.75	1718.25
836.92	1761.25
837.09	1660.90
837.26	1718.25
837.43	1730.53
837.60	1744.87
837.77	1787.88
837.94	1781.73
838.12	1826.79
838.29	1703.91
838.46	1558.50
838.63	1644.52
838.80	1755.11
838.97	1802.21
839.14	1736.68
839.31	1683.43
839.48	1697.77
839.65	1726.44
839.82	1728.49
839.99	1665.00
840.16	1697.77
840.33	1574.89
840.50	1726.44
840.67	1652.71
840.84	1609.70
841.01	1822.69
841.18	1722.34
841.35	1714.15
841.52	1703.91
841.69	1808.36
841.86	1716.20
842.03	1751.01
842.20	1744.87
842.37	1652.71
842.54	1755.11
842.71	1683.43
842.88	1687.53
843.05	1775.59
843.22	1689.57
843.39	1783.78
843.56	1693.67
843.73	1683.43
843.90	1640.42
844.07	1757.16
844.24	1738.73
844.41	1699.81
844.58	1757.16
844.75	1671.14
844.92	1619.94
845.09	1691.62
845.26	1667.05
845.43	1767.40
845.60	1636.33
845.77	1779.68
845.94	1748.97
846.10	1693.67
846.27	1595.37
846.44	1599.46
846.61	1624.04
846.78	1701.86
846.95	1759.21
847.12	1742.82
847.29	1665.00
847.46	1703.91
847.63	1761.25
847.80	1691.62
847.97	1746.92
848.14	1798.12
848.31	1740.77
848.48	1656.81
848.65	1783.78
848.82	1681.38
848.98	1816.55
849.15	1691.62
849.32	1757.16
849.49	1726.44
849.66	1718.25
849.83	1718.25
850.00	1746.92
850.17	1753.06
850.34	1718.25
850.51	1658.85
850.68	1732.58
850.85	1859.56
851.01	1736.68
851.18	1718.25
851.35	1742.82
851.52	1695.72
851.69	1796.07
851.86	1710.05
852.03	1765.35
852.20	1785.83
852.37	1718.25
852.53	1603.56
852.70	1687.53
852.87	1701.86
853.04	1669.09
853.21	1714.15
853.38	1701.86
853.55	1800.16
853.72	1712.10
853.89	1705.96
854.05	1673.19
854.22	1665.00
854.39	1714.15
854.56	1759.21
854.73	1738.73
854.90	1716.20
855.07	1765.35
855.23	1701.86
855.40	1683.43
855.57	1642.47
855.74	1591.27
855.91	1828.84
856.08	1689.57
856.25	1667.05
856.41	1683.43
856.58	1673.19
856.75	1728.49
856.92	1552.36
857.09	1755.11
857.26	1619.94
857.42	1689.57
857.59	1722.34
857.76	1681.38
857.93	1699.81
858.10	1699.81
858.27	1636.33
858.43	1740.77
858.60	1650.66
858.77	1656.81
858.94	1740.77
859.11	1841.12
859.27	1669.09
859.44	1665.00
859.61	1736.68
859.78	1685.48
859.95	1710.05
860.12	1708.01
860.28	1830.88
860.45	1753.06
860.62	1656.81
860.79	1660.90
860.95	1748.97
861.12	1685.48
861.29	1685.48
861.46	1644.52
861.63	1738.73
861.79	1789.92
861.96	1642.47
862.13	1673.19
862.30	1851.36
862.47	1689.57
862.63	1748.97
862.80	1767.40
862.97	1740.77
863.14	1732.58
863.30	1708.01
863.47	1669.09
863.64	1812.45
863.81	1658.85
863.97	1626.09
864.14	1757.16
864.31	1677.29
864.48	1718.25
864.65	1777.64
864.81	1763.30
864.98	1765.35
865.15	1812.45
865.32	1712.10
865.48	1767.40
865.65	1687.53
865.82	1705.96
865.98	1695.72
866.15	1794.02
866.32	1669.09
866.49	1642.47
866.65	1742.82
866.82	1697.77
866.99	1658.85
867.16	1689.57
867.32	1781.73
867.49	1630.18
867.66	1667.05
867.83	1648.61
867.99	1652.71
868.16	1683.43
868.33	1628.14
868.49	1681.38
868.66	1593.32
868.83	1824.74
868.99	1759.21
869.16	1656.81
869.33	1740.77
869.50	1740.77
869.66	1667.05
869.83	1658.85
870.00	1632.23
870.16	1718.25
870.33	1656.81
870.50	1734.63
870.66	1685.48
870.83	1834.98
871.00	1642.47
871.17	1791.97
871.33	1718.25
871.50	1701.86
871.67	1669.09
871.83	1554.41
872.00	1763.30
872.17	1660.90
872.33	1798.12
872.50	1697.77
872.67	1636.33
872.83	1681.38
873.00	1810.40
873.17	1724.39
873.33	1734.63
873.50	1765.35
873.67	1642.47
873.83	1683.43
874.00	1689.57
874.16	1738.73
874.33	1718.25
874.50	1697.77
874.66	1720.29
874.83	1703.91
875.00	1763.30
875.16	1732.58
875.33	1736.68
875.50	1671.14
875.66	1652.71
875.83	1703.91
875.99	1742.82
876.16	1718.25
876.33	1677.29
876.49	1748.97
876.66	1693.67
876.83	1736.68
876.99	1669.09
877.16	1714.15
877.32	1648.61
877.49	1660.90
877.66	1681.38
877.82	1769.44
877.99	1675.24
878.15	1755.11
878.32	1679.33
878.49	1755.11
878.65	1708.01
878.82	1824.74
878.98	1669.09
879.15	1865.70
879.32	1712.10
879.48	1673.19
879.65	1673.19
879.81	1673.19
879.98	1634.28
880.15	1734.63
880.31	1738.73
880.48	1652.71
880.64	1812.45
880.81	1763.30
880.97	1769.44
881.14	1744.87
881.31	1699.81
881.47	1796.07
881.64	1675.24
881.80	1628.14
881.97	1644.52
882.13	1703.91
882.30	1607.66
882.47	1652.71
882.63	1710.05
882.80	1734.63
882.96	1710.05
883.13	1787.88
883.29	1683.43
883.46	1734.63
883.62	1859.56
883.79	1724.39
883.95	1751.01
884.12	1667.05
884.29	1744.87
884.45	1699.81
884.62	1769.44
884.78	1767.40
884.95	1767.40
885.11	1687.53
885.28	1771.49
885.44	1636.33
885.61	1810.40
885.77	1726.44
885.94	1740.77
886.10	1656.81
886.27	1724.39
886.43	1785.83
886.60	1806.31
886.76	1681.38
886.93	1667.05
887.09	1757.16
887.26	1607.66
887.42	1683.43
887.59	1742.82
887.75	1873.89
887.92	1767.40
888.08	1681.38
888.25	1808.36
888.41	1791.97
888.58	1681.38
888.74	1677.29
888.91	1716.20
>>>>>End Processed Spectral Data<<<<<
