SpectraSuite Data File
++++++++++++++++++++++++++++++++++++
Date: Wed May 04 18:44:55 CEST 2016
User: root
Dark Spectrum Present: No
Reference Spectrum Present: No
Number of Sampled Component Spectra: 1
Spectrometers: USB4C02835
Integration Time (usec): 100000 (USB4C02835)
Spectra Averaged: 1 (USB4C02835)
Boxcar Smoothing: 0 (USB4C02835)
Correct for Electrical Dark: No (USB4C02835)
Strobe/Lamp Enabled: No (USB4C02835)
Correct for Detector Non-linearity: No (USB4C02835)
Correct for Stray Light: No (USB4C02835)
Number of Pixels in Processed Spectrum: 3648
>>>>>Begin Processed Spectral Data<<<<<
177.47	1507.30
177.69	1507.30
177.91	1507.30
178.13	1472.49
178.36	1468.39
178.58	1624.04
178.80	1720.29
179.02	1574.89
179.24	1626.09
179.46	1751.01
179.68	1755.11
179.90	1710.05
180.13	1732.58
180.35	1714.15
180.57	1691.62
180.79	1722.34
181.01	1701.86
181.23	1814.50
181.45	1708.01
181.67	1703.91
181.90	1693.67
182.12	1591.27
182.34	1605.61
182.56	1726.44
182.78	1734.63
183.00	1726.44
183.22	1701.86
183.44	1599.46
183.66	1888.23
183.89	1783.78
184.11	1728.49
184.33	1708.01
184.55	1769.44
184.77	1730.53
184.99	1720.29
185.21	1638.38
185.43	1779.68
185.65	1697.77
185.87	1656.81
186.10	1851.36
186.32	1798.12
186.54	1681.38
186.76	1724.39
186.98	1726.44
187.20	1744.87
187.42	1648.61
187.64	1746.92
187.86	1683.43
188.08	1730.53
188.30	1695.72
188.52	1738.73
188.75	1769.44
188.97	1808.36
189.19	1644.52
189.41	1650.66
189.63	1806.31
189.85	1705.96
190.07	1638.38
190.29	1646.57
190.51	1785.83
190.73	1710.05
190.95	1755.11
191.17	1712.10
191.39	1560.55
191.61	1683.43
191.84	1621.99
192.06	1691.62
192.28	1570.79
192.50	1863.65
192.72	1677.29
192.94	1652.71
193.16	1796.07
193.38	1757.16
193.60	1632.23
193.82	1593.32
194.04	1716.20
194.26	1673.19
194.48	1630.18
194.70	1636.33
194.92	1654.76
195.14	1710.05
195.36	1638.38
195.58	1740.77
195.80	1673.19
196.02	1630.18
196.24	1708.01
196.46	1705.96
196.69	1722.34
196.91	1826.79
197.13	1658.85
197.35	1644.52
197.57	1816.55
197.79	1742.82
198.01	1716.20
198.23	1736.68
198.45	1736.68
198.67	1689.57
198.89	1632.23
199.11	1730.53
199.33	1730.53
199.55	1593.32
199.77	1667.05
199.99	1761.25
200.21	1718.25
200.43	1699.81
200.65	1621.99
200.87	1597.42
201.09	1697.77
201.31	1726.44
201.53	1734.63
201.75	1716.20
201.97	1744.87
202.19	1734.63
202.41	1748.97
202.63	1714.15
202.85	1845.22
203.07	1759.21
203.29	1681.38
203.51	1691.62
203.73	1673.19
203.95	1798.12
204.17	1769.44
204.39	1699.81
204.61	1718.25
204.83	1695.72
205.05	1716.20
205.27	1683.43
205.49	1877.99
205.71	1738.73
205.93	1609.70
206.15	1716.20
206.37	1677.29
206.59	1640.42
206.81	1658.85
207.03	1630.18
207.25	1703.91
207.47	1742.82
207.69	1611.75
207.91	1744.87
208.13	1808.36
208.34	1679.33
208.56	1720.29
208.78	1794.02
209.00	1597.42
209.22	1708.01
209.44	1576.94
209.66	1662.95
209.88	1693.67
210.10	1640.42
210.32	1712.10
210.54	1828.84
210.76	1689.57
210.98	1765.35
211.20	1560.55
211.42	1677.29
211.64	1796.07
211.86	1845.22
212.08	1767.40
212.30	1738.73
212.52	1732.58
212.74	1734.63
212.96	1691.62
213.17	1689.57
213.39	1771.49
213.61	1800.16
213.83	1816.55
214.05	1648.61
214.27	1740.77
214.49	1648.61
214.71	1603.56
214.93	1777.64
215.15	1732.58
215.37	1724.39
215.59	1652.71
215.81	1703.91
216.03	1734.63
216.24	1685.48
216.46	1679.33
216.68	1777.64
216.90	1736.68
217.12	1738.73
217.34	1818.60
217.56	1736.68
217.78	1767.40
218.00	1730.53
218.22	1746.92
218.44	1689.57
218.66	1691.62
218.87	1757.16
219.09	1703.91
219.31	1730.53
219.53	1789.92
219.75	1644.52
219.97	1710.05
220.19	1763.30
220.41	1656.81
220.63	1773.54
220.85	1779.68
221.06	1748.97
221.28	1779.68
221.50	1712.10
221.72	1695.72
221.94	1712.10
222.16	1712.10
222.38	1839.08
222.60	1734.63
222.82	1695.72
223.03	1712.10
223.25	1665.00
223.47	1718.25
223.69	1892.32
223.91	1724.39
224.13	1683.43
224.35	1703.91
224.57	1744.87
224.78	1722.34
225.00	1675.24
225.22	1718.25
225.44	1628.14
225.66	1722.34
225.88	1656.81
226.10	1779.68
226.32	1691.62
226.53	1714.15
226.75	1679.33
226.97	1691.62
227.19	1652.71
227.41	1660.90
227.63	1619.94
227.85	1650.66
228.06	1718.25
228.28	1683.43
228.50	1771.49
228.72	1605.61
228.94	1789.92
229.16	1689.57
229.37	1646.57
229.59	1656.81
229.81	1787.88
230.03	1652.71
230.25	1589.22
230.47	1691.62
230.69	1761.25
230.90	1753.06
231.12	1679.33
231.34	1691.62
231.56	1740.77
231.78	1669.09
232.00	1708.01
232.21	1640.42
232.43	1705.96
232.65	1599.46
232.87	1697.77
233.09	1619.94
233.30	1677.29
233.52	1800.16
233.74	1656.81
233.96	1652.71
234.18	1677.29
234.40	1662.95
234.61	1808.36
234.83	1613.80
235.05	1689.57
235.27	1826.79
235.49	1765.35
235.70	1665.00
235.92	1769.44
236.14	1828.84
236.36	1855.46
236.58	1634.28
236.79	1802.21
237.01	1673.19
237.23	1685.48
237.45	1767.40
237.67	1662.95
237.88	1806.31
238.10	1847.27
238.32	1693.67
238.54	1738.73
238.76	1673.19
238.97	1708.01
239.19	1705.96
239.41	1791.97
239.63	1730.53
239.85	1728.49
240.06	1681.38
240.28	1658.85
240.50	1677.29
240.72	1785.83
240.93	1701.86
241.15	1853.41
241.37	1712.10
241.59	1783.78
241.81	1710.05
242.02	1662.95
242.24	1728.49
242.46	1716.20
242.68	1650.66
242.89	1751.01
243.11	1791.97
243.33	1720.29
243.55	1708.01
243.76	1787.88
243.98	1660.90
244.20	1675.24
244.42	1722.34
244.64	1730.53
244.85	1687.53
245.07	1701.86
245.29	1771.49
245.51	1716.20
245.72	1767.40
245.94	1757.16
246.16	1761.25
246.38	1683.43
246.59	1642.47
246.81	1681.38
247.03	1679.33
247.24	1705.96
247.46	1710.05
247.68	1656.81
247.90	1621.99
248.11	1714.15
248.33	1759.21
248.55	1675.24
248.77	1705.96
248.98	1660.90
249.20	1802.21
249.42	1742.82
249.64	1722.34
249.85	1650.66
250.07	1744.87
250.29	1763.30
250.50	1714.15
250.72	1652.71
250.94	1781.73
251.16	1841.12
251.37	1757.16
251.59	1740.77
251.81	1746.92
252.02	1765.35
252.24	1722.34
252.46	1757.16
252.68	1703.91
252.89	1726.44
253.11	1540.07
253.33	1820.64
253.54	1806.31
253.76	1656.81
253.98	1681.38
254.20	1703.91
254.41	1656.81
254.63	1673.19
254.85	1558.50
255.06	1652.71
255.28	1730.53
255.50	1638.38
255.71	1640.42
255.93	1644.52
256.15	1679.33
256.36	1785.83
256.58	1724.39
256.80	1746.92
257.02	1687.53
257.23	1617.90
257.45	1755.11
257.67	1773.54
257.88	1699.81
258.10	1671.14
258.32	1701.86
258.53	1708.01
258.75	1828.84
258.97	1667.05
259.18	1712.10
259.40	1705.96
259.62	1824.74
259.83	1834.98
260.05	1705.96
260.27	1996.77
260.48	1787.88
260.70	1675.24
260.92	1701.86
261.13	1751.01
261.35	1710.05
261.57	1705.96
261.78	1652.71
262.00	1656.81
262.22	1624.04
262.43	1685.48
262.65	1736.68
262.86	1710.05
263.08	1853.41
263.30	1722.34
263.51	1660.90
263.73	1599.46
263.95	1728.49
264.16	1632.23
264.38	1677.29
264.60	1701.86
264.81	1775.59
265.03	1716.20
265.25	1800.16
265.46	1710.05
265.68	1755.11
265.89	1734.63
266.11	1650.66
266.33	1753.06
266.54	1800.16
266.76	1724.39
266.98	1765.35
267.19	1740.77
267.41	1826.79
267.62	1673.19
267.84	1669.09
268.06	1724.39
268.27	1679.33
268.49	1763.30
268.70	1677.29
268.92	1701.86
269.14	1740.77
269.35	1648.61
269.57	1742.82
269.79	1796.07
270.00	1634.28
270.22	1785.83
270.43	1638.38
270.65	1632.23
270.87	1697.77
271.08	1701.86
271.30	1755.11
271.51	1685.48
271.73	1720.29
271.95	1708.01
272.16	1712.10
272.38	1716.20
272.59	1642.47
272.81	1796.07
273.02	1701.86
273.24	1761.25
273.46	1808.36
273.67	1642.47
273.89	1687.53
274.10	1738.73
274.32	1802.21
274.54	1734.63
274.75	1730.53
274.97	1755.11
275.18	1742.82
275.40	1787.88
275.61	1746.92
275.83	1753.06
276.05	1595.37
276.26	1624.04
276.48	1714.15
276.69	1689.57
276.91	1683.43
277.12	1859.56
277.34	1751.01
277.55	1687.53
277.77	1765.35
277.99	1710.05
278.20	1624.04
278.42	1669.09
278.63	1646.57
278.85	1621.99
279.06	1626.09
279.28	1779.68
279.49	1816.55
279.71	1732.58
279.93	1699.81
280.14	1656.81
280.36	1683.43
280.57	1730.53
280.79	1789.92
281.00	1665.00
281.22	1642.47
281.43	1847.27
281.65	1628.14
281.86	1644.52
282.08	1775.59
282.29	1808.36
282.51	1648.61
282.73	1640.42
282.94	1648.61
283.16	1730.53
283.37	1796.07
283.59	1673.19
283.80	1744.87
284.02	1724.39
284.23	1730.53
284.45	1671.14
284.66	1667.05
284.88	1693.67
285.09	1697.77
285.31	1773.54
285.52	1710.05
285.74	1533.93
285.95	1755.11
286.17	1683.43
286.38	1777.64
286.60	1615.85
286.81	1716.20
287.03	1689.57
287.24	1708.01
287.46	1740.77
287.67	1730.53
287.89	1804.26
288.10	1714.15
288.32	1712.10
288.53	1816.55
288.75	1744.87
288.96	1798.12
289.18	1658.85
289.39	1685.48
289.61	1728.49
289.82	1804.26
290.04	1863.65
290.25	1669.09
290.47	1675.24
290.68	1724.39
290.90	1779.68
291.11	1660.90
291.33	1710.05
291.54	1628.14
291.76	1705.96
291.97	1718.25
292.18	1812.45
292.40	1730.53
292.61	1724.39
292.83	1884.13
293.04	1691.62
293.26	1642.47
293.47	1628.14
293.69	1619.94
293.90	1767.40
294.12	1822.69
294.33	1783.78
294.55	1679.33
294.76	1800.16
294.97	1726.44
295.19	1841.12
295.40	1708.01
295.62	1742.82
295.83	1767.40
296.05	1699.81
296.26	1769.44
296.48	1632.23
296.69	1671.14
296.90	1742.82
297.12	1751.01
297.33	1751.01
297.55	1744.87
297.76	1716.20
297.98	1820.64
298.19	1759.21
298.41	1816.55
298.62	1636.33
298.83	1757.16
299.05	1695.72
299.26	1685.48
299.48	1583.08
299.69	1697.77
299.90	1765.35
300.12	1658.85
300.33	1724.39
300.55	1742.82
300.76	1730.53
300.98	1603.56
301.19	1753.06
301.40	1693.67
301.62	1691.62
301.83	1746.92
302.05	1632.23
302.26	1679.33
302.47	1675.24
302.69	1677.29
302.90	1705.96
303.12	1560.55
303.33	1808.36
303.54	1802.21
303.76	1708.01
303.97	1683.43
304.19	1798.12
304.40	1554.41
304.61	1730.53
304.83	1890.28
305.04	1763.30
305.26	1730.53
305.47	1763.30
305.68	1656.81
305.90	1656.81
306.11	1654.76
306.33	1732.58
306.54	1656.81
306.75	1679.33
306.97	1656.81
307.18	1640.42
307.39	1630.18
307.61	1685.48
307.82	1642.47
308.04	1701.86
308.25	1656.81
308.46	1687.53
308.68	1693.67
308.89	1703.91
309.10	1828.84
309.32	1783.78
309.53	1728.49
309.74	1705.96
309.96	1634.28
310.17	1757.16
310.39	1673.19
310.60	1761.25
310.81	1705.96
311.03	1650.66
311.24	1791.97
311.45	1714.15
311.67	1843.17
311.88	1658.85
312.09	1703.91
312.31	1697.77
312.52	1683.43
312.73	1685.48
312.95	1642.47
313.16	1665.00
313.37	1740.77
313.59	1783.78
313.80	1751.01
314.01	1839.08
314.23	1708.01
314.44	1638.38
314.65	1695.72
314.87	1648.61
315.08	1660.90
315.29	1613.80
315.51	1648.61
315.72	1601.51
315.93	1796.07
316.15	1814.50
316.36	1646.57
316.57	1673.19
316.79	1738.73
317.00	1718.25
317.21	1738.73
317.43	1646.57
317.64	1703.91
317.85	1708.01
318.07	1740.77
318.28	1812.45
318.49	1904.61
318.70	1935.33
318.92	1828.84
319.13	1898.47
319.34	1896.42
319.56	1789.92
319.77	1914.85
319.98	1771.49
320.20	1781.73
320.41	1777.64
320.62	1738.73
320.83	1687.53
321.05	1886.18
321.26	1673.19
321.47	1787.88
321.69	1773.54
321.90	1632.23
322.11	1658.85
322.32	1798.12
322.54	1779.68
322.75	1679.33
322.96	1796.07
323.18	1626.09
323.39	1611.75
323.60	1654.76
323.81	1812.45
324.03	1683.43
324.24	1738.73
324.45	1701.86
324.66	1644.52
324.88	1753.06
325.09	1779.68
325.30	1736.68
325.52	1724.39
325.73	1630.18
325.94	1681.38
326.15	1591.27
326.37	1675.24
326.58	1728.49
326.79	1794.02
327.00	1701.86
327.22	1771.49
327.43	1701.86
327.64	1648.61
327.85	1732.58
328.07	1679.33
328.28	1777.64
328.49	1677.29
328.70	1718.25
328.92	1693.67
329.13	1654.76
329.34	1781.73
329.55	1816.55
329.76	1757.16
329.98	1710.05
330.19	1812.45
330.40	1822.69
330.61	1636.33
330.83	1751.01
331.04	1636.33
331.25	1689.57
331.46	1697.77
331.68	1683.43
331.89	1837.03
332.10	1652.71
332.31	1642.47
332.52	1689.57
332.74	1746.92
332.95	1652.71
333.16	1726.44
333.37	1789.92
333.58	1693.67
333.80	1767.40
334.01	1646.57
334.22	1675.24
334.43	1699.81
334.64	1697.77
334.86	1626.09
335.07	1767.40
335.28	1755.11
335.49	1652.71
335.70	1757.16
335.92	1748.97
336.13	1804.26
336.34	1787.88
336.55	1722.34
336.76	1724.39
336.98	1687.53
337.19	1714.15
337.40	1816.55
337.61	1814.50
337.82	1640.42
338.04	1843.17
338.25	1644.52
338.46	1685.48
338.67	1673.19
338.88	1679.33
339.09	1636.33
339.31	1638.38
339.52	1665.00
339.73	1658.85
339.94	1746.92
340.15	1705.96
340.36	1697.77
340.58	1718.25
340.79	1699.81
341.00	1763.30
341.21	1632.23
341.42	1820.64
341.63	1683.43
341.85	1771.49
342.06	1693.67
342.27	1621.99
342.48	1830.88
342.69	1683.43
342.90	1656.81
343.12	1796.07
343.33	1636.33
343.54	1769.44
343.75	1857.51
343.96	1677.29
344.17	1722.34
344.38	1695.72
344.60	1689.57
344.81	1712.10
345.02	1681.38
345.23	1771.49
345.44	1824.74
345.65	1787.88
345.86	1722.34
346.07	1720.29
346.29	1650.66
346.50	1767.40
346.71	1742.82
346.92	1755.11
347.13	1837.03
347.34	1730.53
347.55	1697.77
347.76	1748.97
347.98	1652.71
348.19	1783.78
348.40	1785.83
348.61	1687.53
348.82	1814.50
349.03	1712.10
349.24	1730.53
349.45	1755.11
349.66	1660.90
349.88	1744.87
350.09	1681.38
350.30	1810.40
350.51	1816.55
350.72	1710.05
350.93	1734.63
351.14	1632.23
351.35	1724.39
351.56	1712.10
351.77	1730.53
351.99	1710.05
352.20	1845.22
352.41	1830.88
352.62	1673.19
352.83	1689.57
353.04	1710.05
353.25	1691.62
353.46	1757.16
353.67	1771.49
353.88	1599.46
354.09	1722.34
354.30	1738.73
354.52	1660.90
354.73	1669.09
354.94	1677.29
355.15	1708.01
355.36	1841.12
355.57	1654.76
355.78	1718.25
355.99	1703.91
356.20	1683.43
356.41	1738.73
356.62	1738.73
356.83	1753.06
357.04	1765.35
357.25	1675.24
357.46	1683.43
357.68	1583.08
357.89	1677.29
358.10	1656.81
358.31	1636.33
358.52	1779.68
358.73	1621.99
358.94	1685.48
359.15	1691.62
359.36	1738.73
359.57	1660.90
359.78	1656.81
359.99	1685.48
360.20	1644.52
360.41	1677.29
360.62	1730.53
360.83	1775.59
361.04	1671.14
361.25	1755.11
361.46	1804.26
361.67	1738.73
361.88	1730.53
362.09	1755.11
362.30	1685.48
362.51	1640.42
362.72	1703.91
362.93	1701.86
363.14	1714.15
363.35	1689.57
363.56	1632.23
363.78	1834.98
363.99	1775.59
364.20	1679.33
364.41	1699.81
364.62	1765.35
364.83	1656.81
365.04	1738.73
365.25	1671.14
365.46	1810.40
365.67	1617.90
365.88	1677.29
366.09	1683.43
366.30	1738.73
366.51	1734.63
366.72	1621.99
366.93	1673.19
367.14	1748.97
367.35	1753.06
367.56	1701.86
367.77	1757.16
367.98	1732.58
368.18	1759.21
368.39	1683.43
368.60	1654.76
368.81	1720.29
369.02	1662.95
369.23	1710.05
369.44	1591.27
369.65	1656.81
369.86	1730.53
370.07	1689.57
370.28	1667.05
370.49	1695.72
370.70	1671.14
370.91	1652.71
371.12	1566.70
371.33	1673.19
371.54	1728.49
371.75	1820.64
371.96	1607.66
372.17	1722.34
372.38	1609.70
372.59	1748.97
372.80	1652.71
373.01	1669.09
373.22	1720.29
373.43	1726.44
373.64	1697.77
373.85	1699.81
374.06	1828.84
374.26	1730.53
374.47	1701.86
374.68	1810.40
374.89	1677.29
375.10	1689.57
375.31	1748.97
375.52	1757.16
375.73	1689.57
375.94	1638.38
376.15	1785.83
376.36	1757.16
376.57	1658.85
376.78	1665.00
376.99	1742.82
377.20	1761.25
377.40	1689.57
377.61	1859.56
377.82	1665.00
378.03	1875.94
378.24	1705.96
378.45	1734.63
378.66	1665.00
378.87	1617.90
379.08	1640.42
379.29	1675.24
379.50	1859.56
379.71	1716.20
379.91	1681.38
380.12	1748.97
380.33	1716.20
380.54	1791.97
380.75	1708.01
380.96	1669.09
381.17	1732.58
381.38	1738.73
381.59	1800.16
381.80	1759.21
382.00	1818.60
382.21	1820.64
382.42	1882.08
382.63	1923.04
382.84	1787.88
383.05	1789.92
383.26	1802.21
383.47	1701.86
383.68	1839.08
383.88	1759.21
384.09	1755.11
384.30	1855.46
384.51	1771.49
384.72	1693.67
384.93	1640.42
385.14	1703.91
385.35	1830.88
385.55	1615.85
385.76	1734.63
385.97	1646.57
386.18	1667.05
386.39	1609.70
386.60	1693.67
386.81	1701.86
387.02	1654.76
387.22	1736.68
387.43	1822.69
387.64	1794.02
387.85	1892.32
388.06	2209.76
388.27	4753.34
388.48	9127.80
388.68	11521.87
388.89	13442.87
389.10	14034.73
389.31	11978.57
389.52	9785.19
389.73	8681.34
389.93	7731.08
390.14	7317.39
390.35	6477.73
390.56	5963.68
390.77	5060.53
390.98	3805.13
391.18	3033.04
391.39	2396.12
391.60	1914.85
391.81	1923.04
392.02	1673.19
392.23	1849.32
392.43	1724.39
392.64	1753.06
392.85	1724.39
393.06	1816.55
393.27	1662.95
393.47	1646.57
393.68	1728.49
393.89	1730.53
394.10	1675.24
394.31	1712.10
394.52	1720.29
394.72	1652.71
394.93	1804.26
395.14	1695.72
395.35	1753.06
395.56	1658.85
395.76	1800.16
395.97	1791.97
396.18	1800.16
396.39	1902.56
396.60	2062.30
396.80	1943.52
397.01	1972.19
397.22	1851.36
397.43	1869.80
397.64	1755.11
397.84	1851.36
398.05	1834.98
398.26	1705.96
398.47	1888.23
398.67	1697.77
398.88	1744.87
399.09	1699.81
399.30	1640.42
399.51	1787.88
399.71	1714.15
399.92	1691.62
400.13	1708.01
400.34	1718.25
400.54	1730.53
400.75	1816.55
400.96	1699.81
401.17	1816.55
401.37	1701.86
401.58	1718.25
401.79	1796.07
402.00	1918.95
402.21	2047.97
402.41	1978.34
402.62	2131.94
402.83	2215.90
403.04	2123.74
403.24	2172.89
403.45	1896.42
403.66	1943.52
403.87	1898.47
404.07	1966.05
404.28	1955.81
404.49	1906.66
404.70	1783.78
404.90	1814.50
405.11	1738.73
405.32	1744.87
405.52	1675.24
405.73	1693.67
405.94	1658.85
406.15	1669.09
406.35	1732.58
406.56	1730.53
406.77	1775.59
406.98	1738.73
407.18	1716.20
407.39	1771.49
407.60	1603.56
407.80	1734.63
408.01	1691.62
408.22	1716.20
408.43	1697.77
408.63	1804.26
408.84	1775.59
409.05	1734.63
409.25	1714.15
409.46	1648.61
409.67	1679.33
409.88	1671.14
410.08	1677.29
410.29	1632.23
410.50	1714.15
410.70	1734.63
410.91	1581.03
411.12	1677.29
411.32	1708.01
411.53	1714.15
411.74	1808.36
411.95	1796.07
412.15	1757.16
412.36	1832.93
412.57	1761.25
412.77	1859.56
412.98	1714.15
413.19	1724.39
413.39	1744.87
413.60	1779.68
413.81	1744.87
414.01	1689.57
414.22	1794.02
414.43	1794.02
414.63	1714.15
414.84	1789.92
415.05	1703.91
415.25	1660.90
415.46	1763.30
415.67	1720.29
415.87	1673.19
416.08	1742.82
416.29	1601.51
416.49	1775.59
416.70	1693.67
416.91	1767.40
417.11	1642.47
417.32	1808.36
417.53	1746.92
417.73	1730.53
417.94	1732.58
418.15	1773.54
418.35	1652.71
418.56	1621.99
418.77	1845.22
418.97	1732.58
419.18	1685.48
419.38	1601.51
419.59	1755.11
419.80	1869.80
420.00	1712.10
420.21	1734.63
420.42	1804.26
420.62	1746.92
420.83	1726.44
421.04	1697.77
421.24	1685.48
421.45	1859.56
421.65	1695.72
421.86	1724.39
422.07	1787.88
422.27	1703.91
422.48	1699.81
422.69	1648.61
422.89	1697.77
423.10	1677.29
423.30	1611.75
423.51	1722.34
423.72	1726.44
423.92	1765.35
424.13	1675.24
424.33	1726.44
424.54	1753.06
424.75	1755.11
424.95	1832.93
425.16	1759.21
425.36	1730.53
425.57	1734.63
425.78	1730.53
425.98	1843.17
426.19	1697.77
426.39	1697.77
426.60	1728.49
426.81	1787.88
427.01	1626.09
427.22	1665.00
427.42	1624.04
427.63	1679.33
427.83	1802.21
428.04	1837.03
428.25	1730.53
428.45	1841.12
428.66	1765.35
428.86	1599.46
429.07	1705.96
429.28	1722.34
429.48	1669.09
429.69	1697.77
429.89	1751.01
430.10	1726.44
430.30	1734.63
430.51	1773.54
430.71	1648.61
430.92	1677.29
431.13	1646.57
431.33	1722.34
431.54	1787.88
431.74	1806.31
431.95	1882.08
432.15	1683.43
432.36	1738.73
432.56	1726.44
432.77	1841.12
432.98	1734.63
433.18	1716.20
433.39	1791.97
433.59	1695.72
433.80	1765.35
434.00	1771.49
434.21	1681.38
434.41	1660.90
434.62	1791.97
434.82	1712.10
435.03	1673.19
435.23	1677.29
435.44	1576.94
435.64	1691.62
435.85	1722.34
436.06	1814.50
436.26	1820.64
436.47	1642.47
436.67	1642.47
436.88	1691.62
437.08	1757.16
437.29	1773.54
437.49	1771.49
437.70	1767.40
437.90	1726.44
438.11	1894.37
438.31	1720.29
438.52	1871.84
438.72	1935.33
438.93	2002.91
439.13	1849.32
439.34	1841.12
439.54	1787.88
439.75	1853.41
439.95	1738.73
440.16	1775.59
440.36	1753.06
440.57	1775.59
440.77	1720.29
440.98	1714.15
441.18	1820.64
441.39	1615.85
441.59	1716.20
441.80	1724.39
442.00	1765.35
442.21	1808.36
442.41	1648.61
442.62	1734.63
442.82	1697.77
443.02	1695.72
443.23	1791.97
443.43	1755.11
443.64	1781.73
443.84	1724.39
444.05	1892.32
444.25	1675.24
444.46	1660.90
444.66	1751.01
444.87	1810.40
445.07	1693.67
445.28	1728.49
445.48	1863.65
445.69	1769.44
445.89	1863.65
446.09	1728.49
446.30	2072.54
446.50	2586.58
446.71	4095.94
446.91	5040.05
447.12	5724.07
447.32	6061.99
447.53	5281.71
447.73	4349.89
447.93	3966.92
448.14	3696.58
448.34	3497.93
448.55	3211.22
448.75	3030.99
448.96	2990.03
449.16	2717.65
449.36	2449.37
449.57	2072.54
449.77	2015.20
449.98	1703.91
450.18	1796.07
450.39	1832.93
450.59	1812.45
450.79	1677.29
451.00	1689.57
451.20	1771.49
451.41	1763.30
451.61	1779.68
451.81	1767.40
452.02	1656.81
452.22	1683.43
452.43	1710.05
452.63	1701.86
452.84	1683.43
453.04	1718.25
453.24	1779.68
453.45	1693.67
453.65	1673.19
453.86	1775.59
454.06	1720.29
454.26	1705.96
454.47	1687.53
454.67	1877.99
454.87	1759.21
455.08	1734.63
455.28	1783.78
455.49	1834.98
455.69	1740.77
455.89	1857.51
456.10	1691.62
456.30	1726.44
456.51	1732.58
456.71	1804.26
456.91	1742.82
457.12	1822.69
457.32	1765.35
457.52	1708.01
457.73	1730.53
457.93	1677.29
458.14	1632.23
458.34	1732.58
458.54	1681.38
458.75	1695.72
458.95	1810.40
459.15	1777.64
459.36	1720.29
459.56	1783.78
459.76	1877.99
459.97	1720.29
460.17	1718.25
460.37	1757.16
460.58	1763.30
460.78	1820.64
460.99	1779.68
461.19	1716.20
461.39	1742.82
461.60	1730.53
461.80	1785.83
462.00	1619.94
462.21	1722.34
462.41	1722.34
462.61	1683.43
462.82	1746.92
463.02	1718.25
463.22	1687.53
463.43	1751.01
463.63	1822.69
463.83	1796.07
464.04	1800.16
464.24	1746.92
464.44	1718.25
464.64	1761.25
464.85	1822.69
465.05	1781.73
465.25	1748.97
465.46	1699.81
465.66	1763.30
465.86	1701.86
466.07	1753.06
466.27	1701.86
466.47	1669.09
466.68	1677.29
466.88	1824.74
467.08	1808.36
467.29	1740.77
467.49	1742.82
467.69	1714.15
467.89	1718.25
468.10	1736.68
468.30	1748.97
468.50	1787.88
468.71	1865.70
468.91	1660.90
469.11	1783.78
469.31	1804.26
469.52	1632.23
469.72	1837.03
469.92	1822.69
470.13	1751.01
470.33	1773.54
470.53	1892.32
470.73	2109.41
470.94	2500.57
471.14	2648.02
471.34	2987.99
471.54	2938.84
471.75	2598.87
471.95	2441.18
472.15	2269.15
472.36	2240.48
472.56	2256.86
472.76	2158.56
472.96	2082.78
473.17	1992.67
473.37	1951.71
473.57	1886.18
473.77	1871.84
473.98	1755.11
474.18	1703.91
474.38	1873.89
474.58	1771.49
474.79	1691.62
474.99	1818.60
475.19	1785.83
475.39	1687.53
475.60	1716.20
475.80	1667.05
476.00	1746.92
476.20	1701.86
476.41	1767.40
476.61	1806.31
476.81	1775.59
477.01	1697.77
477.21	1875.94
477.42	1777.64
477.62	1658.85
477.82	1773.54
478.02	1695.72
478.23	1726.44
478.43	1673.19
478.63	1708.01
478.83	1693.67
479.03	1783.78
479.24	1814.50
479.44	1796.07
479.64	1662.95
479.84	1634.28
480.04	1675.24
480.25	1798.12
480.45	1634.28
480.65	1730.53
480.85	1761.25
481.06	1767.40
481.26	1693.67
481.46	1718.25
481.66	1767.40
481.86	1652.71
482.06	1867.75
482.27	1705.96
482.47	1759.21
482.67	1687.53
482.87	1730.53
483.07	1804.26
483.28	1699.81
483.48	1691.62
483.68	1738.73
483.88	1658.85
484.08	1650.66
484.29	1667.05
484.49	1656.81
484.69	1638.38
484.89	1810.40
485.09	1730.53
485.29	1734.63
485.50	1806.31
485.70	1742.82
485.90	1800.16
486.10	1724.39
486.30	1720.29
486.50	1781.73
486.71	1677.29
486.91	1759.21
487.11	1791.97
487.31	1621.99
487.51	1665.00
487.71	1720.29
487.91	1677.29
488.12	1603.56
488.32	1578.98
488.52	1722.34
488.72	1566.70
488.92	1763.30
489.12	1759.21
489.32	1757.16
489.53	1779.68
489.73	1621.99
489.93	1753.06
490.13	1652.71
490.33	1691.62
490.53	1802.21
490.73	1814.50
490.94	1644.52
491.14	1816.55
491.34	1824.74
491.54	2181.09
491.74	2750.42
491.94	3176.40
492.14	3485.64
492.34	3522.51
492.54	3194.83
492.75	2711.51
492.95	2731.99
493.15	2459.61
493.35	2394.08
493.55	2303.96
493.75	2299.87
493.95	2193.37
494.15	2127.84
494.35	2015.20
494.56	1916.90
494.76	1767.40
494.96	1824.74
495.16	1708.01
495.36	1759.21
495.56	1755.11
495.76	1755.11
495.96	1712.10
496.16	1775.59
496.36	1761.25
496.56	1775.59
496.77	1665.00
496.97	1767.40
497.17	1812.45
497.37	1730.53
497.57	1763.30
497.77	1701.86
497.97	1673.19
498.17	1734.63
498.37	1626.09
498.57	1781.73
498.77	1677.29
498.97	1810.40
499.17	1771.49
499.38	1724.39
499.58	1699.81
499.78	1861.60
499.98	1787.88
500.18	1701.86
500.38	1701.86
500.58	1923.04
500.78	2404.32
500.98	4583.35
501.18	6666.14
501.38	8077.19
501.58	9123.70
501.78	8824.70
501.98	6852.50
502.18	5699.50
502.38	4962.23
502.58	4493.24
502.78	4177.86
502.98	3925.96
503.18	3854.28
503.38	3508.17
503.59	3127.25
503.79	2928.60
503.99	2547.67
504.19	2414.56
504.39	2432.99
504.59	2394.08
504.79	2260.96
504.99	2185.18
505.19	2000.87
505.39	2041.82
505.59	2078.69
505.79	1914.85
505.99	1939.43
506.19	1867.75
506.39	1939.43
506.59	1759.21
506.79	1767.40
506.99	1767.40
507.19	1789.92
507.39	1781.73
507.59	1671.14
507.79	1791.97
507.99	1705.96
508.19	1726.44
508.39	1716.20
508.59	1740.77
508.79	1857.51
508.99	1906.66
509.19	1714.15
509.39	1763.30
509.59	1697.77
509.79	1671.14
509.99	1798.12
510.19	1742.82
510.39	1712.10
510.59	1742.82
510.79	1699.81
510.99	1652.71
511.19	1742.82
511.39	1920.99
511.59	1814.50
511.79	1810.40
511.99	1695.72
512.19	1828.84
512.38	1781.73
512.58	1665.00
512.78	1763.30
512.98	1804.26
513.18	1841.12
513.38	1675.24
513.58	1869.80
513.78	1681.38
513.98	1718.25
514.18	1755.11
514.38	1783.78
514.58	1812.45
514.78	1650.66
514.98	1697.77
515.18	1685.48
515.38	1699.81
515.58	1906.66
515.78	1720.29
515.98	1810.40
516.18	1724.39
516.38	1740.77
516.57	1734.63
516.77	1687.53
516.97	1726.44
517.17	1708.01
517.37	1669.09
517.57	1755.11
517.77	1779.68
517.97	1746.92
518.17	1744.87
518.37	1732.58
518.57	1769.44
518.77	1708.01
518.97	1695.72
519.16	1746.92
519.36	1871.84
519.56	1689.57
519.76	1730.53
519.96	1779.68
520.16	1734.63
520.36	1697.77
520.56	1759.21
520.76	1708.01
520.96	1693.67
521.16	1806.31
521.35	1724.39
521.55	1828.84
521.75	1763.30
521.95	1687.53
522.15	1685.48
522.35	1658.85
522.55	1763.30
522.75	1796.07
522.95	1742.82
523.14	1697.77
523.34	1736.68
523.54	1718.25
523.74	1794.02
523.94	1742.82
524.14	1695.72
524.34	1767.40
524.54	1880.04
524.73	1669.09
524.93	1759.21
525.13	1683.43
525.33	1683.43
525.53	1931.23
525.73	1822.69
525.93	1718.25
526.13	1767.40
526.32	1765.35
526.52	1806.31
526.72	1738.73
526.92	1746.92
527.12	1738.73
527.32	1636.33
527.52	1753.06
527.71	1746.92
527.91	1673.19
528.11	1710.05
528.31	1722.34
528.51	1611.75
528.71	1832.93
528.90	1687.53
529.10	1791.97
529.30	1791.97
529.50	1572.84
529.70	1740.77
529.90	1736.68
530.09	1751.01
530.29	1695.72
530.49	1675.24
530.69	1898.47
530.89	1804.26
531.09	1802.21
531.28	1777.64
531.48	1759.21
531.68	1726.44
531.88	1785.83
532.08	1798.12
532.28	1675.24
532.47	1734.63
532.67	1785.83
532.87	1828.84
533.07	1703.91
533.27	1685.48
533.46	1812.45
533.66	1734.63
533.86	1763.30
534.06	1837.03
534.26	1746.92
534.45	1701.86
534.65	1759.21
534.85	1812.45
535.05	1701.86
535.25	1779.68
535.44	1691.62
535.64	1791.97
535.84	1783.78
536.04	1687.53
536.24	1734.63
536.43	1669.09
536.63	1746.92
536.83	1761.25
537.03	1740.77
537.22	1716.20
537.42	1671.14
537.62	1802.21
537.82	1705.96
538.02	1857.51
538.21	1771.49
538.41	1894.37
538.61	1742.82
538.81	1708.01
539.00	1789.92
539.20	1738.73
539.40	1714.15
539.60	1746.92
539.79	1722.34
539.99	1767.40
540.19	1722.34
540.39	1652.71
540.58	1753.06
540.78	1769.44
540.98	1763.30
541.18	1806.31
541.37	1746.92
541.57	1726.44
541.77	1726.44
541.97	1714.15
542.16	1697.77
542.36	1734.63
542.56	1675.24
542.76	1886.18
542.95	1816.55
543.15	1753.06
543.35	1783.78
543.54	1683.43
543.74	1693.67
543.94	1830.88
544.14	1679.33
544.33	1781.73
544.53	1730.53
544.73	1667.05
544.93	1677.29
545.12	1671.14
545.32	1732.58
545.52	1705.96
545.71	1611.75
545.91	1691.62
546.11	1771.49
546.30	1638.38
546.50	1673.19
546.70	1720.29
546.90	1765.35
547.09	1722.34
547.29	1761.25
547.49	1757.16
547.68	1720.29
547.88	1714.15
548.08	1804.26
548.27	2191.33
548.47	1708.01
548.67	1673.19
548.87	1714.15
549.06	1693.67
549.26	1689.57
549.46	1763.30
549.65	1710.05
549.85	1730.53
550.05	1847.27
550.24	1638.38
550.44	1734.63
550.64	1712.10
550.83	1738.73
551.03	1828.84
551.23	1841.12
551.42	1837.03
551.62	1720.29
551.82	1683.43
552.01	1693.67
552.21	1759.21
552.41	1767.40
552.60	1785.83
552.80	1785.83
553.00	1738.73
553.19	1705.96
553.39	1824.74
553.59	1775.59
553.78	1718.25
553.98	1732.58
554.17	1699.81
554.37	1748.97
554.57	1785.83
554.76	1650.66
554.96	1738.73
555.16	1763.30
555.35	1796.07
555.55	1708.01
555.75	1726.44
555.94	1779.68
556.14	1714.15
556.33	1716.20
556.53	1787.88
556.73	1718.25
556.92	1765.35
557.12	1751.01
557.32	1834.98
557.51	1810.40
557.71	1757.16
557.90	1769.44
558.10	1851.36
558.30	1724.39
558.49	1689.57
558.69	1738.73
558.88	1722.34
559.08	1736.68
559.28	1656.81
559.47	1755.11
559.67	1814.50
559.86	1787.88
560.06	1755.11
560.26	1710.05
560.45	1740.77
560.65	1691.62
560.84	1744.87
561.04	1673.19
561.24	1753.06
561.43	1730.53
561.63	1806.31
561.82	1753.06
562.02	1804.26
562.22	1669.09
562.41	1652.71
562.61	1710.05
562.80	1785.83
563.00	1865.70
563.19	1615.85
563.39	1839.08
563.59	1781.73
563.78	1759.21
563.98	1708.01
564.17	1738.73
564.37	1640.42
564.56	1736.68
564.76	1646.57
564.96	1816.55
565.15	1763.30
565.35	1818.60
565.54	1755.11
565.74	1757.16
565.93	1748.97
566.13	1761.25
566.32	1767.40
566.52	1837.03
566.71	1755.11
566.91	1730.53
567.11	1742.82
567.30	1658.85
567.50	1761.25
567.69	1757.16
567.89	1648.61
568.08	1660.90
568.28	1794.02
568.47	1644.52
568.67	1751.01
568.86	1652.71
569.06	1783.78
569.25	1814.50
569.45	1718.25
569.64	1753.06
569.84	1691.62
570.04	1773.54
570.23	1708.01
570.43	1689.57
570.62	1789.92
570.82	1804.26
571.01	1699.81
571.21	1714.15
571.40	1726.44
571.60	1847.27
571.79	1779.68
571.99	1855.46
572.18	1638.38
572.38	1718.25
572.57	1710.05
572.77	1751.01
572.96	1880.04
573.16	1738.73
573.35	1689.57
573.55	1798.12
573.74	1693.67
573.94	1675.24
574.13	1701.86
574.33	1779.68
574.52	1867.75
574.71	1769.44
574.91	1728.49
575.10	1673.19
575.30	1746.92
575.49	1742.82
575.69	1689.57
575.88	1832.93
576.08	1740.77
576.27	1804.26
576.47	1806.31
576.66	1894.37
576.86	1812.45
577.05	1820.64
577.25	1832.93
577.44	1849.32
577.64	1742.82
577.83	1814.50
578.02	1742.82
578.22	1783.78
578.41	1816.55
578.61	1812.45
578.80	1658.85
579.00	1808.36
579.19	1736.68
579.39	1806.31
579.58	1775.59
579.77	1771.49
579.97	1800.16
580.16	1796.07
580.36	1861.60
580.55	1871.84
580.75	1826.79
580.94	1742.82
581.13	1826.79
581.33	1845.22
581.52	1763.30
581.72	1865.70
581.91	1808.36
582.11	1796.07
582.30	1845.22
582.49	1787.88
582.69	1882.08
582.88	1812.45
583.08	1867.75
583.27	1849.32
583.47	1753.06
583.66	1728.49
583.85	1773.54
584.05	1724.39
584.24	1808.36
584.44	1796.07
584.63	1847.27
584.82	1947.62
585.02	1910.75
585.21	1898.47
585.41	1964.00
585.60	1834.98
585.79	1992.67
585.99	1968.10
586.18	1867.75
586.37	2236.38
586.57	3284.94
586.76	9906.02
586.96	26824.29
587.15	42048.89
587.34	51854.57
587.54	58240.14
587.73	55338.16
587.93	40320.41
588.12	29523.52
588.31	23897.75
588.51	20305.61
588.70	18540.26
588.89	17026.81
589.09	15384.34
589.28	13549.36
589.47	11505.49
589.67	9385.84
589.86	7542.67
590.06	5480.36
590.25	4239.30
590.44	3227.60
590.64	2566.10
590.83	2252.77
591.02	2082.78
591.22	2031.58
591.41	1900.52
591.60	1857.51
591.80	2029.54
591.99	1705.96
592.18	1759.21
592.38	1738.73
592.57	1728.49
592.76	1773.54
592.96	1763.30
593.15	1736.68
593.34	1826.79
593.54	1734.63
593.73	1742.82
593.92	1771.49
594.12	1751.01
594.31	1886.18
594.50	1867.75
594.70	1834.98
594.89	1873.89
595.08	1656.81
595.28	1841.12
595.47	1980.39
595.66	1787.88
595.86	1791.97
596.05	1767.40
596.24	1785.83
596.43	1873.89
596.63	1851.36
596.82	1783.78
597.01	1824.74
597.21	1937.38
597.40	1757.16
597.59	1787.88
597.79	1748.97
597.98	1837.03
598.17	1810.40
598.36	1742.82
598.56	1820.64
598.75	1712.10
598.94	1734.63
599.14	1732.58
599.33	1773.54
599.52	1880.04
599.71	1798.12
599.91	1763.30
600.10	1841.12
600.29	1773.54
600.48	1808.36
600.68	1791.97
600.87	1744.87
601.06	1746.92
601.26	1746.92
601.45	1777.64
601.64	1818.60
601.83	1742.82
602.03	1716.20
602.22	1662.95
602.41	1757.16
602.60	1871.84
602.80	1812.45
602.99	1796.07
603.18	1791.97
603.37	1800.16
603.57	1796.07
603.76	1783.78
603.95	1814.50
604.14	1732.58
604.34	1755.11
604.53	1736.68
604.72	1847.27
604.91	1755.11
605.10	1855.46
605.30	1781.73
605.49	1767.40
605.68	1755.11
605.87	1714.15
606.07	1665.00
606.26	1742.82
606.45	1808.36
606.64	1800.16
606.84	1699.81
607.03	1738.73
607.22	1767.40
607.41	1755.11
607.60	1738.73
607.80	1796.07
607.99	1744.87
608.18	1722.34
608.37	1736.68
608.56	1691.62
608.76	1777.64
608.95	1871.84
609.14	1796.07
609.33	1826.79
609.52	1918.95
609.72	1824.74
609.91	1804.26
610.10	1783.78
610.29	1806.31
610.48	1773.54
610.68	1812.45
610.87	1761.25
611.06	1767.40
611.25	1759.21
611.44	1863.65
611.63	1769.44
611.83	1822.69
612.02	1644.52
612.21	1828.84
612.40	1636.33
612.59	1669.09
612.79	1650.66
612.98	1794.02
613.17	1865.70
613.36	1660.90
613.55	1839.08
613.74	1824.74
613.93	1771.49
614.13	1920.99
614.32	2000.87
614.51	1914.85
614.70	1880.04
614.89	1855.46
615.08	1880.04
615.28	2093.02
615.47	1722.34
615.66	1927.14
615.85	1779.68
616.04	1855.46
616.23	1794.02
616.42	1773.54
616.62	1834.98
616.81	1796.07
617.00	1746.92
617.19	1734.63
617.38	1708.01
617.57	1753.06
617.76	1812.45
617.95	1775.59
618.15	1748.97
618.34	1861.60
618.53	1746.92
618.72	1808.36
618.91	1832.93
619.10	1839.08
619.29	1738.73
619.48	1734.63
619.68	1621.99
619.87	1691.62
620.06	1630.18
620.25	1775.59
620.44	1718.25
620.63	1738.73
620.82	1724.39
621.01	1732.58
621.20	1773.54
621.39	1761.25
621.59	1755.11
621.78	1714.15
621.97	1761.25
622.16	1757.16
622.35	1798.12
622.54	1736.68
622.73	1753.06
622.92	1673.19
623.11	1814.50
623.30	1744.87
623.49	1785.83
623.68	1650.66
623.88	1791.97
624.07	1779.68
624.26	1732.58
624.45	1683.43
624.64	1652.71
624.83	1738.73
625.02	1716.20
625.21	1701.86
625.40	1740.77
625.59	1806.31
625.78	1710.05
625.97	1826.79
626.16	1849.32
626.35	1820.64
626.54	1787.88
626.74	1968.10
626.93	1757.16
627.12	1828.84
627.31	1880.04
627.50	1787.88
627.69	1767.40
627.88	1708.01
628.07	1763.30
628.26	1648.61
628.45	1646.57
628.64	1671.14
628.83	1834.98
629.02	1660.90
629.21	1681.38
629.40	1744.87
629.59	1759.21
629.78	1683.43
629.97	1695.72
630.16	1783.78
630.35	1679.33
630.54	1783.78
630.73	1759.21
630.92	1804.26
631.11	1705.96
631.30	1687.53
631.49	1808.36
631.68	1708.01
631.87	1783.78
632.06	1660.90
632.25	1789.92
632.44	1810.40
632.63	1746.92
632.82	1765.35
633.01	1732.58
633.20	1800.16
633.39	1783.78
633.58	1808.36
633.77	1869.80
633.96	1845.22
634.15	1822.69
634.34	1755.11
634.53	1759.21
634.72	1759.21
634.91	1677.29
635.10	1806.31
635.29	1761.25
635.48	1722.34
635.67	1679.33
635.86	1621.99
636.05	1843.17
636.24	1695.72
636.43	1703.91
636.62	1734.63
636.81	1583.08
637.00	1759.21
637.19	1798.12
637.38	1787.88
637.57	1798.12
637.76	1695.72
637.95	1857.51
638.14	1757.16
638.33	1855.46
638.52	1837.03
638.71	1736.68
638.89	1677.29
639.08	1857.51
639.27	1869.80
639.46	1904.61
639.65	2287.58
639.84	2254.81
640.03	2371.55
640.22	2306.01
640.41	2371.55
640.60	2111.46
640.79	1976.29
640.98	1972.19
641.17	1927.14
641.36	1894.37
641.55	1867.75
641.74	1769.44
641.92	1783.78
642.11	1771.49
642.30	1781.73
642.49	1775.59
642.68	1744.87
642.87	1701.86
643.06	1736.68
643.25	1767.40
643.44	1630.18
643.63	1722.34
643.82	1757.16
644.00	1687.53
644.19	1787.88
644.38	1626.09
644.57	1751.01
644.76	1740.77
644.95	1718.25
645.14	1683.43
645.33	1691.62
645.52	1736.68
645.71	1658.85
645.89	1660.90
646.08	1710.05
646.27	1730.53
646.46	1853.41
646.65	1617.90
646.84	1722.34
647.03	1738.73
647.22	1808.36
647.40	1736.68
647.59	1679.33
647.78	1660.90
647.97	1673.19
648.16	1634.28
648.35	1828.84
648.54	1808.36
648.73	1712.10
648.91	1777.64
649.10	1746.92
649.29	1738.73
649.48	1759.21
649.67	1748.97
649.86	1755.11
650.05	1802.21
650.23	1912.80
650.42	1826.79
650.61	1992.67
650.80	1916.90
650.99	1933.28
651.18	1859.56
651.36	1832.93
651.55	1841.12
651.74	1757.16
651.93	1732.58
652.12	1708.01
652.31	1769.44
652.49	1773.54
652.68	1693.67
652.87	1796.07
653.06	1765.35
653.25	1832.93
653.44	1767.40
653.62	1798.12
653.81	1703.91
654.00	1757.16
654.19	1847.27
654.38	1896.42
654.56	1767.40
654.75	1673.19
654.94	1791.97
655.13	1734.63
655.32	1730.53
655.51	1779.68
655.69	1722.34
655.88	1787.88
656.07	1679.33
656.26	1794.02
656.45	1687.53
656.63	1630.18
656.82	1742.82
657.01	1755.11
657.20	1646.57
657.38	1826.79
657.57	1675.24
657.76	1576.94
657.95	1714.15
658.14	1628.14
658.32	1724.39
658.51	1640.42
658.70	1716.20
658.89	1755.11
659.08	1705.96
659.26	1882.08
659.45	1736.68
659.64	1779.68
659.83	1671.14
660.01	1904.61
660.20	1759.21
660.39	1855.46
660.58	1581.03
660.76	1765.35
660.95	1632.23
661.14	1783.78
661.33	1650.66
661.51	1656.81
661.70	1716.20
661.89	1705.96
662.08	1650.66
662.26	1697.77
662.45	1646.57
662.64	1820.64
662.83	1767.40
663.01	1587.18
663.20	1683.43
663.39	1855.46
663.58	1732.58
663.76	1705.96
663.95	1757.16
664.14	1730.53
664.32	1636.33
664.51	1677.29
664.70	1646.57
664.89	1746.92
665.07	1638.38
665.26	1806.31
665.45	1714.15
665.64	1812.45
665.82	1759.21
666.01	1796.07
666.20	1763.30
666.38	1783.78
666.57	1857.51
666.76	2201.57
666.95	4493.24
667.13	11341.65
667.32	18398.95
667.51	21956.27
667.69	24653.45
667.88	25212.54
668.07	19570.39
668.25	14206.76
668.44	11788.11
668.63	9840.49
668.81	8693.63
669.00	7583.63
669.19	6852.50
669.38	6178.72
669.56	5423.02
669.75	4521.92
669.94	3788.74
670.12	3084.24
670.31	2619.35
670.50	2371.55
670.68	2168.80
670.87	2004.96
671.06	1798.12
671.24	1851.36
671.43	1837.03
671.62	1810.40
671.80	1761.25
671.99	1832.93
672.18	1759.21
672.36	1796.07
672.55	1769.44
672.74	1726.44
672.92	1759.21
673.11	1787.88
673.29	1650.66
673.48	1730.53
673.67	1712.10
673.85	1783.78
674.04	1738.73
674.23	1714.15
674.41	1925.09
674.60	1681.38
674.79	1634.28
674.97	1744.87
675.16	1757.16
675.34	1771.49
675.53	1710.05
675.72	1726.44
675.90	1892.32
676.09	1763.30
676.28	1660.90
676.46	1652.71
676.65	1777.64
676.83	1650.66
677.02	1718.25
677.21	1681.38
677.39	1697.77
677.58	1656.81
677.77	1701.86
677.95	1728.49
678.14	1744.87
678.32	1703.91
678.51	1658.85
678.70	1867.75
678.88	1726.44
679.07	1738.73
679.25	1783.78
679.44	1677.29
679.63	1695.72
679.81	1691.62
680.00	1720.29
680.18	1742.82
680.37	1787.88
680.55	1775.59
680.74	1546.22
680.93	1609.70
681.11	1712.10
681.30	1775.59
681.48	1769.44
681.67	1736.68
681.85	1720.29
682.04	1660.90
682.23	1689.57
682.41	1708.01
682.60	1742.82
682.78	1665.00
682.97	1669.09
683.15	1755.11
683.34	1714.15
683.53	1798.12
683.71	1669.09
683.90	1796.07
684.08	1837.03
684.27	1687.53
684.45	1769.44
684.64	1740.77
684.82	1699.81
685.01	1724.39
685.19	1693.67
685.38	1771.49
685.57	1691.62
685.75	1681.38
685.94	1681.38
686.12	1675.24
686.31	1683.43
686.49	1882.08
686.68	1552.36
686.86	1695.72
687.05	1695.72
687.23	1740.77
687.42	1646.57
687.60	1673.19
687.79	1785.83
687.97	1826.79
688.16	1810.40
688.34	1845.22
688.53	1650.66
688.71	1681.38
688.90	1794.02
689.08	1746.92
689.27	1591.27
689.45	1736.68
689.64	1779.68
689.82	1763.30
690.01	1742.82
690.19	1755.11
690.38	1767.40
690.56	1789.92
690.75	1658.85
690.93	1658.85
691.12	1652.71
691.30	1744.87
691.49	1656.81
691.67	1718.25
691.86	1814.50
692.04	1712.10
692.23	1726.44
692.41	1802.21
692.60	1904.61
692.78	1875.94
692.97	1771.49
693.15	1839.08
693.34	1867.75
693.52	1861.60
693.71	1783.78
693.89	1753.06
694.08	1626.09
694.26	1865.70
694.44	1785.83
694.63	1746.92
694.81	1726.44
695.00	1669.09
695.18	1802.21
695.37	1918.95
695.55	1738.73
695.74	1732.58
695.92	1621.99
696.10	1798.12
696.29	1607.66
696.47	1701.86
696.66	1609.70
696.84	1689.57
697.03	1685.48
697.21	1849.32
697.40	2346.97
697.58	1787.88
697.76	1652.71
697.95	1607.66
698.13	1683.43
698.32	1656.81
698.50	1673.19
698.68	1722.34
698.87	1701.86
699.05	1775.59
699.24	1669.09
699.42	1691.62
699.61	1787.88
699.79	1677.29
699.97	1693.67
700.16	1669.09
700.34	1689.57
700.53	1763.30
700.71	1802.21
700.89	1757.16
701.08	1769.44
701.26	1716.20
701.45	2105.31
701.63	1658.85
701.81	1703.91
702.00	1687.53
702.18	1683.43
702.37	1675.24
702.55	1832.93
702.73	2013.15
702.92	1849.32
703.10	2041.82
703.28	1966.05
703.47	1898.47
703.65	1865.70
703.84	1869.80
704.02	1767.40
704.20	1943.52
704.39	1808.36
704.57	1781.73
704.75	1839.08
704.94	1791.97
705.12	1701.86
705.30	1877.99
705.49	2463.71
705.67	5500.84
705.86	13141.82
706.04	18884.32
706.22	22718.12
706.41	24581.77
706.59	24665.74
706.77	18939.62
706.96	13512.50
707.14	11779.92
707.32	10018.66
707.51	8963.96
707.69	7890.82
707.87	6627.23
708.06	5392.30
708.24	4278.21
708.42	3266.51
708.61	2746.33
708.79	2201.57
708.97	2111.46
709.16	1947.62
709.34	1837.03
709.52	1775.59
709.71	1722.34
709.89	1837.03
710.07	1636.33
710.26	1673.19
710.44	1730.53
710.62	1789.92
710.80	1738.73
710.99	1802.21
711.17	1734.63
711.35	1640.42
711.54	1695.72
711.72	1796.07
711.90	1746.92
712.09	1808.36
712.27	1650.66
712.45	1828.84
712.63	1683.43
712.82	1703.91
713.00	1687.53
713.18	1785.83
713.37	1734.63
713.55	1796.07
713.73	1712.10
713.91	1767.40
714.10	1728.49
714.28	1746.92
714.46	1824.74
714.65	1716.20
714.83	1722.34
715.01	1703.91
715.19	1677.29
715.38	1673.19
715.56	1763.30
715.74	1705.96
715.92	1757.16
716.11	1746.92
716.29	1626.09
716.47	1671.14
716.65	1781.73
716.84	1587.18
717.02	1849.32
717.20	1564.65
717.38	1722.34
717.57	1722.34
717.75	1777.64
717.93	1685.48
718.11	1746.92
718.30	1667.05
718.48	1714.15
718.66	1787.88
718.84	1804.26
719.03	1669.09
719.21	1617.90
719.39	1847.27
719.57	1791.97
719.75	1742.82
719.94	1687.53
720.12	1734.63
720.30	1708.01
720.48	1751.01
720.67	1638.38
720.85	1660.90
721.03	1656.81
721.21	1757.16
721.39	1837.03
721.58	1671.14
721.76	1722.34
721.94	1740.77
722.12	1740.77
722.30	1681.38
722.49	1683.43
722.67	1720.29
722.85	1751.01
723.03	1667.05
723.21	1728.49
723.40	1669.09
723.58	1751.01
723.76	1773.54
723.94	1812.45
724.12	1834.98
724.30	1884.13
724.49	1832.93
724.67	1787.88
724.85	1843.17
725.03	1648.61
725.21	1763.30
725.40	1839.08
725.58	1640.42
725.76	1712.10
725.94	1728.49
726.12	1626.09
726.30	1779.68
726.49	1771.49
726.67	1669.09
726.85	1697.77
727.03	1785.83
727.21	2293.72
727.39	3411.92
727.57	4937.65
727.76	5476.27
727.94	6031.27
728.12	6182.82
728.30	5638.06
728.48	4560.83
728.66	3938.24
728.84	3620.81
729.03	3299.28
729.21	2811.86
729.39	2439.13
729.57	2172.89
729.75	1888.23
729.93	1849.32
730.11	1806.31
730.30	1800.16
730.48	1716.20
730.66	1837.03
730.84	1796.07
731.02	1708.01
731.20	1708.01
731.38	1691.62
731.56	1667.05
731.74	1648.61
731.93	1697.77
732.11	1660.90
732.29	1728.49
732.47	1697.77
732.65	1785.83
732.83	1804.26
733.01	1765.35
733.19	1648.61
733.37	1697.77
733.56	1734.63
733.74	1714.15
733.92	1730.53
734.10	1705.96
734.28	1812.45
734.46	1628.14
734.64	1683.43
734.82	1757.16
735.00	1701.86
735.18	1710.05
735.36	1716.20
735.54	1726.44
735.73	1693.67
735.91	1683.43
736.09	1667.05
736.27	1720.29
736.45	1718.25
736.63	1673.19
736.81	1689.57
736.99	1783.78
737.17	1824.74
737.35	1691.62
737.53	1742.82
737.71	1732.58
737.89	1828.84
738.07	1693.67
738.25	1683.43
738.43	1576.94
738.61	1730.53
738.80	1599.46
738.98	1662.95
739.16	1644.52
739.34	1667.05
739.52	1816.55
739.70	1677.29
739.88	1742.82
740.06	1818.60
740.24	1568.74
740.42	1763.30
740.60	1660.90
740.78	1605.61
740.96	1665.00
741.14	1708.01
741.32	1755.11
741.50	1617.90
741.68	1775.59
741.86	1787.88
742.04	1728.49
742.22	1703.91
742.40	1662.95
742.58	1687.53
742.76	1673.19
742.94	1679.33
743.12	1601.51
743.30	1642.47
743.48	1748.97
743.66	1685.48
743.84	1796.07
744.02	1689.57
744.20	1701.86
744.38	1683.43
744.56	1691.62
744.74	1724.39
744.92	1746.92
745.10	1781.73
745.28	1875.94
745.46	1738.73
745.64	1689.57
745.82	1802.21
746.00	1703.91
746.18	1757.16
746.36	1703.91
746.54	1681.38
746.72	1757.16
746.90	1728.49
747.08	1748.97
747.26	1685.48
747.44	1740.77
747.62	1767.40
747.80	1665.00
747.98	1761.25
748.15	1722.34
748.33	1851.36
748.51	1753.06
748.69	1761.25
748.87	1640.42
749.05	1636.33
749.23	1769.44
749.41	1732.58
749.59	1705.96
749.77	1779.68
749.95	1724.39
750.13	1638.38
750.31	1730.53
750.49	1699.81
750.67	1816.55
750.85	1796.07
751.03	1724.39
751.20	1789.92
751.38	1783.78
751.56	1693.67
751.74	1714.15
751.92	1783.78
752.10	1685.48
752.28	1781.73
752.46	1624.04
752.64	1761.25
752.82	1609.70
753.00	1830.88
753.18	1665.00
753.35	1708.01
753.53	1693.67
753.71	1767.40
753.89	1673.19
754.07	1742.82
754.25	1798.12
754.43	1734.63
754.61	1636.33
754.79	1765.35
754.97	1722.34
755.14	1832.93
755.32	1710.05
755.50	1652.71
755.68	1587.18
755.86	1667.05
756.04	1652.71
756.22	1570.79
756.40	1826.79
756.57	1804.26
756.75	1628.14
756.93	1869.80
757.11	1716.20
757.29	1636.33
757.47	1601.51
757.65	1574.89
757.82	1609.70
758.00	1665.00
758.18	1673.19
758.36	1738.73
758.54	1791.97
758.72	1613.80
758.90	1724.39
759.07	1779.68
759.25	1642.47
759.43	1740.77
759.61	1669.09
759.79	2123.74
759.97	1769.44
760.15	1701.86
760.32	1746.92
760.50	1691.62
760.68	1832.93
760.86	1560.55
761.04	1808.36
761.22	1726.44
761.39	1697.77
761.57	1673.19
761.75	1697.77
761.93	1765.35
762.11	1601.51
762.28	1669.09
762.46	1650.66
762.64	1746.92
762.82	1638.38
763.00	1656.81
763.18	1765.35
763.35	1687.53
763.53	1806.31
763.71	1687.53
763.89	1789.92
764.07	1759.21
764.24	1705.96
764.42	1712.10
764.60	1652.71
764.78	1808.36
764.96	1759.21
765.13	1763.30
765.31	1744.87
765.49	1734.63
765.67	1665.00
765.84	1746.92
766.02	1708.01
766.20	1626.09
766.38	1767.40
766.56	1736.68
766.73	1746.92
766.91	1767.40
767.09	1634.28
767.27	1730.53
767.44	1662.95
767.62	1761.25
767.80	1783.78
767.98	1603.56
768.15	1642.47
768.33	1775.59
768.51	1816.55
768.69	1740.77
768.87	1787.88
769.04	1689.57
769.22	1890.28
769.40	1716.20
769.58	1877.99
769.75	1759.21
769.93	1767.40
770.11	1697.77
770.28	1730.53
770.46	1693.67
770.64	1726.44
770.82	1691.62
770.99	1714.15
771.17	1736.68
771.35	1748.97
771.53	1761.25
771.70	1660.90
771.88	1738.73
772.06	1714.15
772.23	1642.47
772.41	1744.87
772.59	1619.94
772.77	1673.19
772.94	1693.67
773.12	1701.86
773.30	1730.53
773.47	1742.82
773.65	1652.71
773.83	1738.73
774.01	1701.86
774.18	1624.04
774.36	1683.43
774.54	1646.57
774.71	1718.25
774.89	1617.90
775.07	1628.14
775.24	1705.96
775.42	1685.48
775.60	1765.35
775.78	1626.09
775.95	1638.38
776.13	1654.76
776.31	1593.32
776.48	1720.29
776.66	1765.35
776.84	1656.81
777.01	1673.19
777.19	1681.38
777.37	1671.14
777.54	1763.30
777.72	1845.22
777.90	1746.92
778.07	1662.95
778.25	1859.56
778.43	1701.86
778.60	1640.42
778.78	1714.15
778.96	1843.17
779.13	1619.94
779.31	1718.25
779.49	1722.34
779.66	1736.68
779.84	1708.01
780.01	1748.97
780.19	1679.33
780.37	1691.62
780.54	1720.29
780.72	1703.91
780.90	1697.77
781.07	1671.14
781.25	1626.09
781.43	1775.59
781.60	1675.24
781.78	1761.25
781.95	1699.81
782.13	1638.38
782.31	1683.43
782.48	1599.46
782.66	1722.34
782.83	1783.78
783.01	1818.60
783.19	1742.82
783.36	1665.00
783.54	1695.72
783.72	1779.68
783.89	1712.10
784.07	1751.01
784.24	1753.06
784.42	1732.58
784.60	1574.89
784.77	1732.58
784.95	1585.13
785.12	1703.91
785.30	1728.49
785.47	1605.61
785.65	1703.91
785.83	1705.96
786.00	1718.25
786.18	1746.92
786.35	1681.38
786.53	1660.90
786.71	1720.29
786.88	1763.30
787.06	1699.81
787.23	1697.77
787.41	1574.89
787.58	1652.71
787.76	1675.24
787.94	1662.95
788.11	1656.81
788.29	1675.24
788.46	1718.25
788.64	1619.94
788.81	1710.05
788.99	1626.09
789.16	1662.95
789.34	1714.15
789.52	1685.48
789.69	1675.24
789.87	1628.14
790.04	1681.38
790.22	1701.86
790.39	1853.41
790.57	1669.09
790.74	1640.42
790.92	1644.52
791.09	1564.65
791.27	1677.29
791.44	1781.73
791.62	1669.09
791.79	1820.64
791.97	1742.82
792.15	1880.04
792.32	1679.33
792.50	1761.25
792.67	1806.31
792.85	1728.49
793.02	1716.20
793.20	1710.05
793.37	1660.90
793.55	1781.73
793.72	1638.38
793.90	1738.73
794.07	1648.61
794.25	1693.67
794.42	1814.50
794.60	1650.66
794.77	1779.68
794.95	1757.16
795.12	1701.86
795.30	1730.53
795.47	1554.41
795.65	1800.16
795.82	1685.48
796.00	1630.18
796.17	1681.38
796.34	1722.34
796.52	1724.39
796.69	1773.54
796.87	1775.59
797.04	1802.21
797.22	1728.49
797.39	1671.14
797.57	1728.49
797.74	1757.16
797.92	1781.73
798.09	1734.63
798.27	1755.11
798.44	1740.77
798.62	1705.96
798.79	1738.73
798.96	1748.97
799.14	1650.66
799.31	1800.16
799.49	1714.15
799.66	1652.71
799.84	1744.87
800.01	1624.04
800.19	1785.83
800.36	1628.14
800.53	1767.40
800.71	1710.05
800.88	1806.31
801.06	1566.70
801.23	1683.43
801.41	1773.54
801.58	1648.61
801.75	1652.71
801.93	1726.44
802.10	1751.01
802.28	1714.15
802.45	1689.57
802.63	1701.86
802.80	1816.55
802.97	1710.05
803.15	1644.52
803.32	1716.20
803.50	1644.52
803.67	1693.67
803.84	1552.36
804.02	1691.62
804.19	1603.56
804.37	1572.84
804.54	1697.77
804.71	1640.42
804.89	1636.33
805.06	1652.71
805.24	1642.47
805.41	1615.85
805.58	1671.14
805.76	1824.74
805.93	1724.39
806.10	1804.26
806.28	1761.25
806.45	1765.35
806.63	1701.86
806.80	1675.24
806.97	1722.34
807.15	1732.58
807.32	1658.85
807.49	1685.48
807.67	1642.47
807.84	1748.97
808.01	1654.76
808.19	1863.65
808.36	1834.98
808.54	1687.53
808.71	1615.85
808.88	1667.05
809.06	1701.86
809.23	1765.35
809.40	1720.29
809.58	1671.14
809.75	1720.29
809.92	1665.00
810.10	1818.60
810.27	1632.23
810.44	1722.34
810.62	1759.21
810.79	1726.44
810.96	1751.01
811.14	1689.57
811.31	1689.57
811.48	1781.73
811.66	1732.58
811.83	1730.53
812.00	1787.88
812.18	1738.73
812.35	1845.22
812.52	1681.38
812.69	1673.19
812.87	1650.66
813.04	1550.31
813.21	1679.33
813.39	1738.73
813.56	1662.95
813.73	1777.64
813.91	1611.75
814.08	1740.77
814.25	1757.16
814.42	1619.94
814.60	1671.14
814.77	1722.34
814.94	1712.10
815.12	1679.33
815.29	1800.16
815.46	1691.62
815.63	1687.53
815.81	1687.53
815.98	1681.38
816.15	1746.92
816.33	1650.66
816.50	1617.90
816.67	1669.09
816.84	1765.35
817.02	1679.33
817.19	1679.33
817.36	1746.92
817.53	1806.31
817.71	1673.19
817.88	1710.05
818.05	1757.16
818.22	1671.14
818.40	1800.16
818.57	1716.20
818.74	1705.96
818.91	1677.29
819.09	1763.30
819.26	1791.97
819.43	1714.15
819.60	1691.62
819.78	1765.35
819.95	1787.88
820.12	1644.52
820.29	1744.87
820.47	1685.48
820.64	1619.94
820.81	1621.99
820.98	1626.09
821.15	1742.82
821.33	1705.96
821.50	1667.05
821.67	1822.69
821.84	1687.53
822.02	1773.54
822.19	1751.01
822.36	1681.38
822.53	1691.62
822.70	1632.23
822.88	1673.19
823.05	1765.35
823.22	1691.62
823.39	1742.82
823.56	1693.67
823.74	1791.97
823.91	1650.66
824.08	1654.76
824.25	1665.00
824.42	1757.16
824.60	1562.60
824.77	1685.48
824.94	1628.14
825.11	1654.76
825.28	1638.38
825.45	1740.77
825.63	1705.96
825.80	1638.38
825.97	1646.57
826.14	1718.25
826.31	1607.66
826.48	1781.73
826.66	1689.57
826.83	1714.15
827.00	1703.91
827.17	1648.61
827.34	1658.85
827.51	1599.46
827.69	1703.91
827.86	1638.38
828.03	1722.34
828.20	1722.34
828.37	1660.90
828.54	1736.68
828.71	1710.05
828.89	1744.87
829.06	1689.57
829.23	1763.30
829.40	1681.38
829.57	1714.15
829.74	1767.40
829.91	1599.46
830.09	1705.96
830.26	1757.16
830.43	1746.92
830.60	1699.81
830.77	1771.49
830.94	1765.35
831.11	1726.44
831.28	1705.96
831.46	1753.06
831.63	1751.01
831.80	1722.34
831.97	1693.67
832.14	1636.33
832.31	1783.78
832.48	1685.48
832.65	1736.68
832.82	1693.67
832.99	1656.81
833.17	1654.76
833.34	1771.49
833.51	1724.39
833.68	1591.27
833.85	1691.62
834.02	1617.90
834.19	1722.34
834.36	1714.15
834.53	1705.96
834.70	1839.08
834.87	1738.73
835.04	1677.29
835.22	1607.66
835.39	1593.32
835.56	1669.09
835.73	1671.14
835.90	1796.07
836.07	1591.27
836.24	1751.01
836.41	1591.27
836.58	1714.15
836.75	1673.19
836.92	1714.15
837.09	1699.81
837.26	1718.25
837.43	1714.15
837.60	1736.68
837.77	1779.68
837.94	1763.30
838.12	1796.07
838.29	1697.77
838.46	1611.75
838.63	1679.33
838.80	1794.02
838.97	1763.30
839.14	1669.09
839.31	1710.05
839.48	1779.68
839.65	1703.91
839.82	1769.44
839.99	1640.42
840.16	1705.96
840.33	1675.24
840.50	1738.73
840.67	1679.33
840.84	1593.32
841.01	1736.68
841.18	1675.24
841.35	1615.85
841.52	1763.30
841.69	1748.97
841.86	1683.43
842.03	1732.58
842.20	1755.11
842.37	1761.25
842.54	1697.77
842.71	1724.39
842.88	1720.29
843.05	1800.16
843.22	1759.21
843.39	1757.16
843.56	1626.09
843.73	1767.40
843.90	1771.49
844.07	1681.38
844.24	1767.40
844.41	1675.24
844.58	1714.15
844.75	1693.67
844.92	1746.92
845.09	1742.82
845.26	1695.72
845.43	1636.33
845.60	1646.57
845.77	1755.11
845.94	1701.86
846.10	1738.73
846.27	1636.33
846.44	1669.09
846.61	1673.19
846.78	1722.34
846.95	1738.73
847.12	1669.09
847.29	1654.76
847.46	1656.81
847.63	1703.91
847.80	1685.48
847.97	1691.62
848.14	1839.08
848.31	1658.85
848.48	1636.33
848.65	1708.01
848.82	1712.10
848.98	1884.13
849.15	1738.73
849.32	1861.60
849.49	1810.40
849.66	1607.66
849.83	1693.67
850.00	1597.42
850.17	1746.92
850.34	1669.09
850.51	1697.77
850.68	1667.05
850.85	1918.95
851.01	1677.29
851.18	1763.30
851.35	1722.34
851.52	1765.35
851.69	1738.73
851.86	1644.52
852.03	1677.29
852.20	1771.49
852.37	1640.42
852.53	1597.42
852.70	1662.95
852.87	1847.27
853.04	1710.05
853.21	1718.25
853.38	1734.63
853.55	1769.44
853.72	1841.12
853.89	1683.43
854.05	1597.42
854.22	1683.43
854.39	1697.77
854.56	1718.25
854.73	1771.49
854.90	1703.91
855.07	1708.01
855.23	1693.67
855.40	1738.73
855.57	1654.76
855.74	1589.22
855.91	1859.56
856.08	1613.80
856.25	1642.47
856.41	1734.63
856.58	1724.39
856.75	1701.86
856.92	1603.56
857.09	1783.78
857.26	1630.18
857.42	1669.09
857.59	1785.83
857.76	1665.00
857.93	1740.77
858.10	1693.67
858.27	1599.46
858.43	1685.48
858.60	1632.23
858.77	1628.14
858.94	1708.01
859.11	1728.49
859.27	1632.23
859.44	1728.49
859.61	1910.75
859.78	1718.25
859.95	1746.92
860.12	1673.19
860.28	1808.36
860.45	1769.44
860.62	1617.90
860.79	1728.49
860.95	1632.23
861.12	1628.14
861.29	1660.90
861.46	1714.15
861.63	1716.20
861.79	1691.62
861.96	1726.44
862.13	1677.29
862.30	1757.16
862.47	1656.81
862.63	1617.90
862.80	1781.73
862.97	1736.68
863.14	1777.64
863.30	1734.63
863.47	1669.09
863.64	1730.53
863.81	1771.49
863.97	1675.24
864.14	1654.76
864.31	1648.61
864.48	1689.57
864.65	1714.15
864.81	1751.01
864.98	1726.44
865.15	1746.92
865.32	1730.53
865.48	1742.82
865.65	1787.88
865.82	1636.33
865.98	1699.81
866.15	1894.37
866.32	1693.67
866.49	1724.39
866.65	1730.53
866.82	1632.23
866.99	1724.39
867.16	1714.15
867.32	1710.05
867.49	1726.44
867.66	1773.54
867.83	1689.57
867.99	1630.18
868.16	1697.77
868.33	1644.52
868.49	1708.01
868.66	1669.09
868.83	1796.07
868.99	1802.21
869.16	1642.47
869.33	1712.10
869.50	1800.16
869.66	1769.44
869.83	1691.62
870.00	1716.20
870.16	1773.54
870.33	1671.14
870.50	1771.49
870.66	1714.15
870.83	1865.70
871.00	1732.58
871.17	1718.25
871.33	1636.33
871.50	1720.29
871.67	1599.46
871.83	1642.47
872.00	1755.11
872.17	1675.24
872.33	1773.54
872.50	1804.26
872.67	1724.39
872.83	1673.19
873.00	1677.29
873.17	1716.20
873.33	1777.64
873.50	1681.38
873.67	1665.00
873.83	1734.63
874.00	1667.05
874.16	1789.92
874.33	1683.43
874.50	1568.74
874.66	1755.11
874.83	1671.14
875.00	1718.25
875.16	1804.26
875.33	1736.68
875.50	1617.90
875.66	1634.28
875.83	1730.53
875.99	1771.49
876.16	1621.99
876.33	1634.28
876.49	1763.30
876.66	1693.67
876.83	1693.67
876.99	1667.05
877.16	1658.85
877.32	1693.67
877.49	1658.85
877.66	1665.00
877.82	1767.40
877.99	1685.48
878.15	1789.92
878.32	1757.16
878.49	1671.14
878.65	1638.38
878.82	1740.77
878.98	1628.14
879.15	1763.30
879.32	1759.21
879.48	1724.39
879.65	1669.09
879.81	1587.18
879.98	1716.20
880.15	1654.76
880.31	1755.11
880.48	1685.48
880.64	1753.06
880.81	1824.74
880.97	1796.07
881.14	1779.68
881.31	1677.29
881.47	1886.18
881.64	1644.52
881.80	1595.37
881.97	1722.34
882.13	1759.21
882.30	1662.95
882.47	1683.43
882.63	1695.72
882.80	1679.33
882.96	1691.62
883.13	1830.88
883.29	1683.43
883.46	1763.30
883.62	1771.49
883.79	1683.43
883.95	1748.97
884.12	1679.33
884.29	1783.78
884.45	1673.19
884.62	1681.38
884.78	1636.33
884.95	1777.64
885.11	1681.38
885.28	1755.11
885.44	1689.57
885.61	1779.68
885.77	1697.77
885.94	1744.87
886.10	1742.82
886.27	1708.01
886.43	1789.92
886.60	1763.30
886.76	1644.52
886.93	1658.85
887.09	1695.72
887.26	1538.02
887.42	1677.29
887.59	1701.86
887.75	1785.83
887.92	1804.26
888.08	1755.11
888.25	1822.69
888.41	1679.33
888.58	1771.49
888.74	1609.70
888.91	1632.23
>>>>>End Processed Spectral Data<<<<<
