SpectraSuite Data File
++++++++++++++++++++++++++++++++++++
Date: Wed May 04 18:44:30 CEST 2016
User: root
Dark Spectrum Present: No
Reference Spectrum Present: No
Number of Sampled Component Spectra: 1
Spectrometers: USB4C02835
Integration Time (usec): 100000 (USB4C02835)
Spectra Averaged: 1 (USB4C02835)
Boxcar Smoothing: 0 (USB4C02835)
Correct for Electrical Dark: No (USB4C02835)
Strobe/Lamp Enabled: No (USB4C02835)
Correct for Detector Non-linearity: No (USB4C02835)
Correct for Stray Light: No (USB4C02835)
Number of Pixels in Processed Spectrum: 3648
>>>>>Begin Processed Spectral Data<<<<<
177.47	1425.39
177.69	1425.39
177.91	1425.39
178.13	1492.97
178.36	1413.10
178.58	1740.77
178.80	1716.20
179.02	1578.98
179.24	1660.90
179.46	1683.43
179.68	1740.77
179.90	1658.85
180.13	1765.35
180.35	1624.04
180.57	1785.83
180.79	1761.25
181.01	1673.19
181.23	1861.60
181.45	1791.97
181.67	1726.44
181.90	1757.16
182.12	1665.00
182.34	1617.90
182.56	1689.57
182.78	1781.73
183.00	1679.33
183.22	1718.25
183.44	1603.56
183.66	1837.03
183.89	1767.40
184.11	1765.35
184.33	1667.05
184.55	1736.68
184.77	1714.15
184.99	1730.53
185.21	1716.20
185.43	1796.07
185.65	1701.86
185.87	1755.11
186.10	1877.99
186.32	1818.60
186.54	1761.25
186.76	1726.44
186.98	1785.83
187.20	1708.01
187.42	1734.63
187.64	1701.86
187.86	1777.64
188.08	1728.49
188.30	1726.44
188.52	1617.90
188.75	1804.26
188.97	1732.58
189.19	1697.77
189.41	1646.57
189.63	1763.30
189.85	1722.34
190.07	1593.32
190.29	1640.42
190.51	1730.53
190.73	1621.99
190.95	1771.49
191.17	1693.67
191.39	1583.08
191.61	1677.29
191.84	1691.62
192.06	1763.30
192.28	1554.41
192.50	1890.28
192.72	1724.39
192.94	1615.85
193.16	1658.85
193.38	1789.92
193.60	1619.94
193.82	1640.42
194.04	1800.16
194.26	1726.44
194.48	1701.86
194.70	1718.25
194.92	1648.61
195.14	1703.91
195.36	1654.76
195.58	1691.62
195.80	1642.47
196.02	1648.61
196.24	1638.38
196.46	1746.92
196.69	1648.61
196.91	1865.70
197.13	1742.82
197.35	1683.43
197.57	1763.30
197.79	1712.10
198.01	1705.96
198.23	1677.29
198.45	1712.10
198.67	1652.71
198.89	1656.81
199.11	1677.29
199.33	1648.61
199.55	1597.42
199.77	1669.09
199.99	1787.88
200.21	1736.68
200.43	1767.40
200.65	1763.30
200.87	1609.70
201.09	1738.73
201.31	1665.00
201.53	1753.06
201.75	1730.53
201.97	1718.25
202.19	1724.39
202.41	1693.67
202.63	1900.52
202.85	1767.40
203.07	1789.92
203.29	1607.66
203.51	1714.15
203.73	1630.18
203.95	1855.46
204.17	1673.19
204.39	1708.01
204.61	1662.95
204.83	1681.38
205.05	1722.34
205.27	1705.96
205.49	1849.32
205.71	1681.38
205.93	1636.33
206.15	1665.00
206.37	1697.77
206.59	1677.29
206.81	1703.91
207.03	1665.00
207.25	1626.09
207.47	1796.07
207.69	1650.66
207.91	1822.69
208.13	1779.68
208.34	1679.33
208.56	1628.14
208.78	1787.88
209.00	1720.29
209.22	1675.24
209.44	1619.94
209.66	1695.72
209.88	1673.19
210.10	1783.78
210.32	1718.25
210.54	1791.97
210.76	1703.91
210.98	1724.39
211.20	1558.50
211.42	1783.78
211.64	1798.12
211.86	1695.72
212.08	1767.40
212.30	1742.82
212.52	1687.53
212.74	1714.15
212.96	1701.86
213.17	1763.30
213.39	1767.40
213.61	1761.25
213.83	1834.98
214.05	1736.68
214.27	1822.69
214.49	1576.94
214.71	1636.33
214.93	1779.68
215.15	1732.58
215.37	1703.91
215.59	1681.38
215.81	1814.50
216.03	1826.79
216.24	1732.58
216.46	1689.57
216.68	1748.97
216.90	1757.16
217.12	1730.53
217.34	1646.57
217.56	1726.44
217.78	1779.68
218.00	1781.73
218.22	1673.19
218.44	1748.97
218.66	1701.86
218.87	1820.64
219.09	1669.09
219.31	1695.72
219.53	1693.67
219.75	1705.96
219.97	1681.38
220.19	1681.38
220.41	1705.96
220.63	1775.59
220.85	1656.81
221.06	1650.66
221.28	1742.82
221.50	1683.43
221.72	1751.01
221.94	1722.34
222.16	1742.82
222.38	1751.01
222.60	1712.10
222.82	1693.67
223.03	1699.81
223.25	1652.71
223.47	1718.25
223.69	1849.32
223.91	1777.64
224.13	1685.48
224.35	1638.38
224.57	1818.60
224.78	1785.83
225.00	1662.95
225.22	1597.42
225.44	1736.68
225.66	1746.92
225.88	1712.10
226.10	1851.36
226.32	1812.45
226.53	1814.50
226.75	1695.72
226.97	1665.00
227.19	1744.87
227.41	1689.57
227.63	1697.77
227.85	1667.05
228.06	1712.10
228.28	1683.43
228.50	1775.59
228.72	1726.44
228.94	1679.33
229.16	1585.13
229.37	1648.61
229.59	1669.09
229.81	1886.18
230.03	1740.77
230.25	1624.04
230.47	1650.66
230.69	1652.71
230.90	1767.40
231.12	1720.29
231.34	1796.07
231.56	1740.77
231.78	1607.66
232.00	1705.96
232.21	1708.01
232.43	1703.91
232.65	1638.38
232.87	1701.86
233.09	1667.05
233.30	1677.29
233.52	1763.30
233.74	1689.57
233.96	1728.49
234.18	1732.58
234.40	1740.77
234.61	1869.80
234.83	1673.19
235.05	1617.90
235.27	1857.51
235.49	1787.88
235.70	1714.15
235.92	1755.11
236.14	1763.30
236.36	1806.31
236.58	1628.14
236.79	1753.06
237.01	1640.42
237.23	1734.63
237.45	1787.88
237.67	1648.61
237.88	1791.97
238.10	1742.82
238.32	1695.72
238.54	1732.58
238.76	1728.49
238.97	1675.24
239.19	1660.90
239.41	1746.92
239.63	1832.93
239.85	1662.95
240.06	1677.29
240.28	1769.44
240.50	1769.44
240.72	1765.35
240.93	1691.62
241.15	1714.15
241.37	1642.47
241.59	1736.68
241.81	1681.38
242.02	1708.01
242.24	1734.63
242.46	1728.49
242.68	1638.38
242.89	1701.86
243.11	1740.77
243.33	1648.61
243.55	1787.88
243.76	1736.68
243.98	1660.90
244.20	1689.57
244.42	1685.48
244.64	1712.10
244.85	1640.42
245.07	1740.77
245.29	1650.66
245.51	1677.29
245.72	1667.05
245.94	1728.49
246.16	1732.58
246.38	1738.73
246.59	1718.25
246.81	1742.82
247.03	1761.25
247.24	1613.80
247.46	1675.24
247.68	1716.20
247.90	1718.25
248.11	1699.81
248.33	1742.82
248.55	1650.66
248.77	1671.14
248.98	1751.01
249.20	1800.16
249.42	1648.61
249.64	1777.64
249.85	1642.47
250.07	1705.96
250.29	1738.73
250.50	1773.54
250.72	1624.04
250.94	1775.59
251.16	1824.74
251.37	1734.63
251.59	1798.12
251.81	1662.95
252.02	1761.25
252.24	1716.20
252.46	1757.16
252.68	1742.82
252.89	1697.77
253.11	1662.95
253.33	1802.21
253.54	1755.11
253.76	1617.90
253.98	1681.38
254.20	1751.01
254.41	1652.71
254.63	1689.57
254.85	1576.94
255.06	1738.73
255.28	1746.92
255.50	1703.91
255.71	1632.23
255.93	1609.70
256.15	1718.25
256.36	1789.92
256.58	1685.48
256.80	1689.57
257.02	1636.33
257.23	1771.49
257.45	1732.58
257.67	1726.44
257.88	1544.17
258.10	1732.58
258.32	1701.86
258.53	1714.15
258.75	1814.50
258.97	1699.81
259.18	1714.15
259.40	1740.77
259.62	1732.58
259.83	1810.40
260.05	1783.78
260.27	1914.85
260.48	1753.06
260.70	1726.44
260.92	1677.29
261.13	1724.39
261.35	1716.20
261.57	1718.25
261.78	1636.33
262.00	1693.67
262.22	1720.29
262.43	1677.29
262.65	1636.33
262.86	1667.05
263.08	1828.84
263.30	1763.30
263.51	1591.27
263.73	1650.66
263.95	1832.93
264.16	1718.25
264.38	1677.29
264.60	1714.15
264.81	1703.91
265.03	1736.68
265.25	1701.86
265.46	1703.91
265.68	1773.54
265.89	1675.24
266.11	1634.28
266.33	1755.11
266.54	1761.25
266.76	1716.20
266.98	1697.77
267.19	1712.10
267.41	1796.07
267.62	1685.48
267.84	1611.75
268.06	1767.40
268.27	1665.00
268.49	1738.73
268.70	1767.40
268.92	1695.72
269.14	1628.14
269.35	1597.42
269.57	1705.96
269.79	1710.05
270.00	1710.05
270.22	1728.49
270.43	1650.66
270.65	1556.46
270.87	1730.53
271.08	1769.44
271.30	1720.29
271.51	1738.73
271.73	1714.15
271.95	1789.92
272.16	1732.58
272.38	1767.40
272.59	1677.29
272.81	1763.30
273.02	1787.88
273.24	1730.53
273.46	1783.78
273.67	1644.52
273.89	1632.23
274.10	1599.46
274.32	1791.97
274.54	1665.00
274.75	1759.21
274.97	1720.29
275.18	1699.81
275.40	1808.36
275.61	1656.81
275.83	1769.44
276.05	1646.57
276.26	1748.97
276.48	1759.21
276.69	1734.63
276.91	1658.85
277.12	1834.98
277.34	1806.31
277.55	1808.36
277.77	1650.66
277.99	1714.15
278.20	1589.22
278.42	1644.52
278.63	1687.53
278.85	1636.33
279.06	1652.71
279.28	1705.96
279.49	1746.92
279.71	1755.11
279.93	1665.00
280.14	1683.43
280.36	1673.19
280.57	1800.16
280.79	1677.29
281.00	1726.44
281.22	1669.09
281.43	1757.16
281.65	1605.61
281.86	1658.85
282.08	1777.64
282.29	1877.99
282.51	1609.70
282.73	1689.57
282.94	1574.89
283.16	1751.01
283.37	1800.16
283.59	1714.15
283.80	1689.57
284.02	1685.48
284.23	1748.97
284.45	1665.00
284.66	1685.48
284.88	1638.38
285.09	1701.86
285.31	1806.31
285.52	1726.44
285.74	1708.01
285.95	1814.50
286.17	1781.73
286.38	1746.92
286.60	1771.49
286.81	1689.57
287.03	1748.97
287.24	1714.15
287.46	1654.76
287.67	1748.97
287.89	1822.69
288.10	1675.24
288.32	1736.68
288.53	1804.26
288.75	1683.43
288.96	1740.77
289.18	1701.86
289.39	1722.34
289.61	1740.77
289.82	1800.16
290.04	1781.73
290.25	1701.86
290.47	1703.91
290.68	1726.44
290.90	1765.35
291.11	1705.96
291.33	1796.07
291.54	1675.24
291.76	1660.90
291.97	1718.25
292.18	1714.15
292.40	1669.09
292.61	1683.43
292.83	1781.73
293.04	1783.78
293.26	1751.01
293.47	1671.14
293.69	1644.52
293.90	1691.62
294.12	1732.58
294.33	1761.25
294.55	1665.00
294.76	1824.74
294.97	1794.02
295.19	1816.55
295.40	1695.72
295.62	1724.39
295.83	1730.53
296.05	1654.76
296.26	1796.07
296.48	1644.52
296.69	1705.96
296.90	1705.96
297.12	1796.07
297.33	1734.63
297.55	1720.29
297.76	1648.61
297.98	1781.73
298.19	1734.63
298.41	1699.81
298.62	1683.43
298.83	1800.16
299.05	1724.39
299.26	1708.01
299.48	1693.67
299.69	1763.30
299.90	1705.96
300.12	1751.01
300.33	1724.39
300.55	1742.82
300.76	1722.34
300.98	1691.62
301.19	1785.83
301.40	1734.63
301.62	1652.71
301.83	1763.30
302.05	1726.44
302.26	1751.01
302.47	1730.53
302.69	1642.47
302.90	1673.19
303.12	1568.74
303.33	1755.11
303.54	1826.79
303.76	1667.05
303.97	1681.38
304.19	1818.60
304.40	1671.14
304.61	1732.58
304.83	1820.64
305.04	1740.77
305.26	1703.91
305.47	1685.48
305.68	1712.10
305.90	1626.09
306.11	1726.44
306.33	1775.59
306.54	1697.77
306.75	1613.80
306.97	1662.95
307.18	1789.92
307.39	1673.19
307.61	1781.73
307.82	1660.90
308.04	1748.97
308.25	1652.71
308.46	1714.15
308.68	1746.92
308.89	1701.86
309.10	1761.25
309.32	1802.21
309.53	1693.67
309.74	1718.25
309.96	1755.11
310.17	1742.82
310.39	1656.81
310.60	1708.01
310.81	1619.94
311.03	1607.66
311.24	1710.05
311.45	1697.77
311.67	1753.06
311.88	1654.76
312.09	1691.62
312.31	1681.38
312.52	1728.49
312.73	1738.73
312.95	1632.23
313.16	1699.81
313.37	1734.63
313.59	1662.95
313.80	1755.11
314.01	1785.83
314.23	1695.72
314.44	1705.96
314.65	1568.74
314.87	1722.34
315.08	1675.24
315.29	1710.05
315.51	1732.58
315.72	1656.81
315.93	1855.46
316.15	1742.82
316.36	1681.38
316.57	1726.44
316.79	1736.68
317.00	1697.77
317.21	1705.96
317.43	1681.38
317.64	1714.15
317.85	1771.49
318.07	1695.72
318.28	1837.03
318.49	1847.27
318.70	1949.67
318.92	1914.85
319.13	1882.08
319.34	1886.18
319.56	1857.51
319.77	1841.12
319.98	1861.60
320.20	1794.02
320.41	1742.82
320.62	1791.97
320.83	1697.77
321.05	1800.16
321.26	1712.10
321.47	1652.71
321.69	1708.01
321.90	1644.52
322.11	1736.68
322.32	1730.53
322.54	1730.53
322.75	1583.08
322.96	1843.17
323.18	1718.25
323.39	1617.90
323.60	1617.90
323.81	1744.87
324.03	1650.66
324.24	1724.39
324.45	1675.24
324.66	1689.57
324.88	1736.68
325.09	1839.08
325.30	1767.40
325.52	1744.87
325.73	1697.77
325.94	1583.08
326.15	1581.03
326.37	1734.63
326.58	1732.58
326.79	1814.50
327.00	1611.75
327.22	1714.15
327.43	1656.81
327.64	1628.14
327.85	1769.44
328.07	1675.24
328.28	1761.25
328.49	1667.05
328.70	1669.09
328.92	1669.09
329.13	1660.90
329.34	1763.30
329.55	1847.27
329.76	1689.57
329.98	1705.96
330.19	1736.68
330.40	1710.05
330.61	1802.21
330.83	1810.40
331.04	1660.90
331.25	1712.10
331.46	1615.85
331.68	1609.70
331.89	1763.30
332.10	1697.77
332.31	1587.18
332.52	1732.58
332.74	1826.79
332.95	1550.31
333.16	1703.91
333.37	1730.53
333.58	1701.86
333.80	1728.49
334.01	1617.90
334.22	1701.86
334.43	1667.05
334.64	1697.77
334.86	1644.52
335.07	1720.29
335.28	1837.03
335.49	1656.81
335.70	1763.30
335.92	1744.87
336.13	1804.26
336.34	1781.73
336.55	1732.58
336.76	1744.87
336.98	1658.85
337.19	1724.39
337.40	1794.02
337.61	1853.41
337.82	1671.14
338.04	1769.44
338.25	1601.51
338.46	1644.52
338.67	1769.44
338.88	1646.57
339.09	1677.29
339.31	1693.67
339.52	1646.57
339.73	1652.71
339.94	1781.73
340.15	1769.44
340.36	1665.00
340.58	1683.43
340.79	1624.04
341.00	1658.85
341.21	1675.24
341.42	1781.73
341.63	1693.67
341.85	1722.34
342.06	1689.57
342.27	1701.86
342.48	1810.40
342.69	1597.42
342.90	1718.25
343.12	1748.97
343.33	1675.24
343.54	1650.66
343.75	1785.83
343.96	1695.72
344.17	1660.90
344.38	1740.77
344.60	1671.14
344.81	1665.00
345.02	1679.33
345.23	1722.34
345.44	1837.03
345.65	1732.58
345.86	1757.16
346.07	1695.72
346.29	1613.80
346.50	1748.97
346.71	1701.86
346.92	1753.06
347.13	1929.19
347.34	1687.53
347.55	1685.48
347.76	1726.44
347.98	1662.95
348.19	1714.15
348.40	1779.68
348.61	1636.33
348.82	1781.73
349.03	1740.77
349.24	1626.09
349.45	1849.32
349.66	1556.46
349.88	1671.14
350.09	1718.25
350.30	1824.74
350.51	1828.84
350.72	1734.63
350.93	1640.42
351.14	1679.33
351.35	1701.86
351.56	1683.43
351.77	1695.72
351.99	1769.44
352.20	1800.16
352.41	1710.05
352.62	1648.61
352.83	1740.77
353.04	1703.91
353.25	1626.09
353.46	1894.37
353.67	1744.87
353.88	1662.95
354.09	1681.38
354.30	1699.81
354.52	1787.88
354.73	1695.72
354.94	1703.91
355.15	1728.49
355.36	1804.26
355.57	1685.48
355.78	1720.29
355.99	1697.77
356.20	1665.00
356.41	1746.92
356.62	1695.72
356.83	1736.68
357.04	1857.51
357.25	1685.48
357.46	1703.91
357.68	1576.94
357.89	1669.09
358.10	1683.43
358.31	1736.68
358.52	1734.63
358.73	1683.43
358.94	1673.19
359.15	1697.77
359.36	1773.54
359.57	1732.58
359.78	1742.82
359.99	1720.29
360.20	1685.48
360.41	1642.47
360.62	1751.01
360.83	1714.15
361.04	1695.72
361.25	1757.16
361.46	1777.64
361.67	1755.11
361.88	1755.11
362.09	1822.69
362.30	1761.25
362.51	1753.06
362.72	1701.86
362.93	1712.10
363.14	1771.49
363.35	1697.77
363.56	1738.73
363.78	1722.34
363.99	1746.92
364.20	1658.85
364.41	1738.73
364.62	1767.40
364.83	1753.06
365.04	1736.68
365.25	1769.44
365.46	1886.18
365.67	1615.85
365.88	1697.77
366.09	1732.58
366.30	1673.19
366.51	1757.16
366.72	1675.24
366.93	1695.72
367.14	1734.63
367.35	1816.55
367.56	1757.16
367.77	1808.36
367.98	1689.57
368.18	1697.77
368.39	1794.02
368.60	1701.86
368.81	1789.92
369.02	1722.34
369.23	1689.57
369.44	1665.00
369.65	1718.25
369.86	1675.24
370.07	1697.77
370.28	1689.57
370.49	1783.78
370.70	1724.39
370.91	1673.19
371.12	1624.04
371.33	1714.15
371.54	1712.10
371.75	1826.79
371.96	1505.26
372.17	1730.53
372.38	1671.14
372.59	1724.39
372.80	1740.77
373.01	1728.49
373.22	1753.06
373.43	1812.45
373.64	1660.90
373.85	1804.26
374.06	1705.96
374.26	1667.05
374.47	1761.25
374.68	1789.92
374.89	1763.30
375.10	1742.82
375.31	1796.07
375.52	1716.20
375.73	1691.62
375.94	1626.09
376.15	1787.88
376.36	1650.66
376.57	1665.00
376.78	1732.58
376.99	1755.11
377.20	1787.88
377.40	1697.77
377.61	1781.73
377.82	1644.52
378.03	1771.49
378.24	1751.01
378.45	1720.29
378.66	1820.64
378.87	1621.99
379.08	1640.42
379.29	1796.07
379.50	1732.58
379.71	1728.49
379.91	1748.97
380.12	1654.76
380.33	1701.86
380.54	1712.10
380.75	1695.72
380.96	1736.68
381.17	1767.40
381.38	1751.01
381.59	1679.33
381.80	1787.88
382.00	1869.80
382.21	1785.83
382.42	1779.68
382.63	1939.43
382.84	1708.01
383.05	1667.05
383.26	1843.17
383.47	1726.44
383.68	1730.53
383.88	1751.01
384.09	1765.35
384.30	1834.98
384.51	1703.91
384.72	1669.09
384.93	1662.95
385.14	1712.10
385.35	1771.49
385.55	1626.09
385.76	1761.25
385.97	1697.77
386.18	1656.81
386.39	1687.53
386.60	1753.06
386.81	1691.62
387.02	1624.04
387.22	1759.21
387.43	1861.60
387.64	1791.97
387.85	1894.37
388.06	2213.85
388.27	4757.43
388.48	8947.58
388.68	11523.92
388.89	13502.26
389.10	14079.79
389.31	12019.53
389.52	9531.25
389.73	8460.16
389.93	7751.56
390.14	7165.84
390.35	6545.31
390.56	6006.69
390.77	4896.69
390.98	3848.13
391.18	3020.75
391.39	2453.47
391.60	2031.58
391.81	1916.90
392.02	1769.44
392.23	1859.56
392.43	1757.16
392.64	1828.84
392.85	1765.35
393.06	1832.93
393.27	1730.53
393.47	1695.72
393.68	1728.49
393.89	1669.09
394.10	1791.97
394.31	1636.33
394.52	1673.19
394.72	1638.38
394.93	1837.03
395.14	1640.42
395.35	1736.68
395.56	1640.42
395.76	1738.73
395.97	1810.40
396.18	1843.17
396.39	1920.99
396.60	2090.98
396.80	1964.00
397.01	1853.41
397.22	1822.69
397.43	1894.37
397.64	1767.40
397.84	1763.30
398.05	1964.00
398.26	1798.12
398.47	1791.97
398.67	1767.40
398.88	1714.15
399.09	1738.73
399.30	1683.43
399.51	1771.49
399.71	1644.52
399.92	1697.77
400.13	1712.10
400.34	1740.77
400.54	1798.12
400.75	1808.36
400.96	1800.16
401.17	1867.75
401.37	1718.25
401.58	1716.20
401.79	1748.97
402.00	1918.95
402.21	2060.26
402.41	2029.54
402.62	2125.79
402.83	2138.08
403.04	2050.02
403.24	2191.33
403.45	1931.23
403.66	1986.53
403.87	1918.95
404.07	1966.05
404.28	1937.38
404.49	1992.67
404.70	1824.74
404.90	1863.65
405.11	1761.25
405.32	1761.25
405.52	1724.39
405.73	1652.71
405.94	1658.85
406.15	1746.92
406.35	1687.53
406.56	1783.78
406.77	1697.77
406.98	1798.12
407.18	1714.15
407.39	1794.02
407.60	1775.59
407.80	1718.25
408.01	1718.25
408.22	1746.92
408.43	1660.90
408.63	1732.58
408.84	1697.77
409.05	1738.73
409.25	1695.72
409.46	1673.19
409.67	1677.29
409.88	1691.62
410.08	1759.21
410.29	1697.77
410.50	1701.86
410.70	1722.34
410.91	1695.72
411.12	1783.78
411.32	1716.20
411.53	1691.62
411.74	1755.11
411.95	1804.26
412.15	1738.73
412.36	1861.60
412.57	1802.21
412.77	1806.31
412.98	1730.53
413.19	1734.63
413.39	1769.44
413.60	1791.97
413.81	1796.07
414.01	1720.29
414.22	1796.07
414.43	1748.97
414.63	1701.86
414.84	1716.20
415.05	1728.49
415.25	1722.34
415.46	1726.44
415.67	1714.15
415.87	1783.78
416.08	1771.49
416.29	1675.24
416.49	1740.77
416.70	1718.25
416.91	1650.66
417.11	1695.72
417.32	1746.92
417.53	1787.88
417.73	1777.64
417.94	1744.87
418.15	1720.29
418.35	1646.57
418.56	1697.77
418.77	1802.21
418.97	1757.16
419.18	1804.26
419.38	1617.90
419.59	1724.39
419.80	1800.16
420.00	1708.01
420.21	1683.43
420.42	1767.40
420.62	1765.35
420.83	1738.73
421.04	1697.77
421.24	1658.85
421.45	1779.68
421.65	1738.73
421.86	1667.05
422.07	1708.01
422.27	1783.78
422.48	1730.53
422.69	1626.09
422.89	1699.81
423.10	1691.62
423.30	1697.77
423.51	1687.53
423.72	1701.86
423.92	1767.40
424.13	1591.27
424.33	1761.25
424.54	1730.53
424.75	1726.44
424.95	1781.73
425.16	1722.34
425.36	1697.77
425.57	1740.77
425.78	1691.62
425.98	1712.10
426.19	1646.57
426.39	1636.33
426.60	1759.21
426.81	1822.69
427.01	1738.73
427.22	1611.75
427.42	1613.80
427.63	1681.38
427.83	1779.68
428.04	1802.21
428.25	1751.01
428.45	1767.40
428.66	1794.02
428.86	1658.85
429.07	1669.09
429.28	1718.25
429.48	1734.63
429.69	1626.09
429.89	1695.72
430.10	1609.70
430.30	1697.77
430.51	1775.59
430.71	1710.05
430.92	1730.53
431.13	1753.06
431.33	1765.35
431.54	1695.72
431.74	1884.13
431.95	1820.64
432.15	1648.61
432.36	1681.38
432.56	1718.25
432.77	1841.12
432.98	1849.32
433.18	1701.86
433.39	1718.25
433.59	1695.72
433.80	1845.22
434.00	1855.46
434.21	1636.33
434.41	1656.81
434.62	1773.54
434.82	1708.01
435.03	1578.98
435.23	1697.77
435.44	1652.71
435.64	1638.38
435.85	1716.20
436.06	1753.06
436.26	1751.01
436.47	1654.76
436.67	1644.52
436.88	1769.44
437.08	1732.58
437.29	1828.84
437.49	1763.30
437.70	1830.88
437.90	1742.82
438.11	1882.08
438.31	1771.49
438.52	1884.13
438.72	1861.60
438.93	2009.06
439.13	1771.49
439.34	1828.84
439.54	1746.92
439.75	1812.45
439.95	1877.99
440.16	1710.05
440.36	1761.25
440.57	1822.69
440.77	1800.16
440.98	1796.07
441.18	1765.35
441.39	1679.33
441.59	1632.23
441.80	1830.88
442.00	1697.77
442.21	1796.07
442.41	1685.48
442.62	1800.16
442.82	1619.94
443.02	1759.21
443.23	1726.44
443.43	1746.92
443.64	1804.26
443.84	1718.25
444.05	1787.88
444.25	1703.91
444.46	1660.90
444.66	1849.32
444.87	1816.55
445.07	1701.86
445.28	1708.01
445.48	1820.64
445.69	1794.02
445.89	1830.88
446.09	1726.44
446.30	2045.92
446.50	2652.12
446.71	4149.18
446.91	5038.00
447.12	5736.36
447.32	6148.00
447.53	5300.14
447.73	4401.08
447.93	4069.31
448.14	3706.82
448.34	3440.59
448.55	3024.85
448.75	3084.24
448.96	2850.77
449.16	2645.98
449.36	2523.10
449.57	2152.42
449.77	2019.30
449.98	1861.60
450.18	1834.98
450.39	1890.28
450.59	1834.98
450.79	1714.15
451.00	1738.73
451.20	1732.58
451.41	1697.77
451.61	1732.58
451.81	1796.07
452.02	1677.29
452.22	1724.39
452.43	1726.44
452.63	1630.18
452.84	1744.87
453.04	1667.05
453.24	1763.30
453.45	1751.01
453.65	1738.73
453.86	1681.38
454.06	1789.92
454.26	1728.49
454.47	1746.92
454.67	1755.11
454.87	1742.82
455.08	1783.78
455.28	1896.42
455.49	1734.63
455.69	1718.25
455.89	1812.45
456.10	1877.99
456.30	1712.10
456.51	1775.59
456.71	1767.40
456.91	1755.11
457.12	1712.10
457.32	1742.82
457.52	1673.19
457.73	1773.54
457.93	1871.84
458.14	1738.73
458.34	1640.42
458.54	1695.72
458.75	1665.00
458.95	1755.11
459.15	1632.23
459.36	1638.38
459.56	1820.64
459.76	1888.23
459.97	1751.01
460.17	1722.34
460.37	1751.01
460.58	1675.24
460.78	1742.82
460.99	1656.81
461.19	1751.01
461.39	1701.86
461.60	1712.10
461.80	1837.03
462.00	1701.86
462.21	1701.86
462.41	1730.53
462.61	1691.62
462.82	1673.19
463.02	1697.77
463.22	1703.91
463.43	1849.32
463.63	1732.58
463.83	1837.03
464.04	1787.88
464.24	1830.88
464.44	1728.49
464.64	1738.73
464.85	1701.86
465.05	1783.78
465.25	1736.68
465.46	1669.09
465.66	1755.11
465.86	1736.68
466.07	1746.92
466.27	1781.73
466.47	1697.77
466.68	1685.48
466.88	1804.26
467.08	1736.68
467.29	1753.06
467.49	1736.68
467.69	1761.25
467.89	1759.21
468.10	1710.05
468.30	1699.81
468.50	1820.64
468.71	1798.12
468.91	1671.14
469.11	1925.09
469.31	1748.97
469.52	1667.05
469.72	1812.45
469.92	1863.65
470.13	1683.43
470.33	1728.49
470.53	1818.60
470.73	2269.15
470.94	2482.14
471.14	2721.75
471.34	2992.08
471.54	2887.64
471.75	2514.91
471.95	2381.79
472.15	2215.90
472.36	2170.85
472.56	2263.01
472.76	2093.02
472.96	2099.17
473.17	2054.11
473.37	2011.11
473.57	1873.89
473.77	1851.36
473.98	1806.31
474.18	1708.01
474.38	1939.43
474.58	1779.68
474.79	1650.66
474.99	1837.03
475.19	1839.08
475.39	1710.05
475.60	1695.72
475.80	1722.34
476.00	1712.10
476.20	1722.34
476.41	1812.45
476.61	1843.17
476.81	1724.39
477.01	1699.81
477.21	1789.92
477.42	1847.27
477.62	1665.00
477.82	1740.77
478.02	1732.58
478.23	1736.68
478.43	1626.09
478.63	1648.61
478.83	1796.07
479.03	1693.67
479.24	1746.92
479.44	1918.95
479.64	1650.66
479.84	1621.99
480.04	1738.73
480.25	1791.97
480.45	1701.86
480.65	1732.58
480.85	1857.51
481.06	1667.05
481.26	1748.97
481.46	1708.01
481.66	1763.30
481.86	1697.77
482.06	1785.83
482.27	1785.83
482.47	1716.20
482.67	1759.21
482.87	1671.14
483.07	1855.46
483.28	1697.77
483.48	1585.13
483.68	1689.57
483.88	1712.10
484.08	1667.05
484.29	1681.38
484.49	1710.05
484.69	1656.81
484.89	1837.03
485.09	1740.77
485.29	1804.26
485.50	1826.79
485.70	1710.05
485.90	1843.17
486.10	1714.15
486.30	1812.45
486.50	1808.36
486.71	1658.85
486.91	1767.40
487.11	1779.68
487.31	1587.18
487.51	1775.59
487.71	1621.99
487.91	1609.70
488.12	1626.09
488.32	1689.57
488.52	1689.57
488.72	1624.04
488.92	1736.68
489.12	1734.63
489.32	1796.07
489.53	1722.34
489.73	1640.42
489.93	1873.89
490.13	1742.82
490.33	1689.57
490.53	1746.92
490.73	1779.68
490.94	1638.38
491.14	1712.10
491.34	1767.40
491.54	2088.93
491.74	2711.51
491.94	3067.86
492.14	3454.92
492.34	3549.13
492.54	3139.54
492.75	2734.04
492.95	2705.37
493.15	2449.37
493.35	2340.83
493.55	2246.62
493.75	2189.28
493.95	2240.48
494.15	2062.30
494.35	1896.42
494.56	1875.94
494.76	1775.59
494.96	1900.52
495.16	1771.49
495.36	1763.30
495.56	1757.16
495.76	1708.01
495.96	1765.35
496.16	1716.20
496.36	1837.03
496.56	1734.63
496.77	1798.12
496.97	1716.20
497.17	1748.97
497.37	1673.19
497.57	1779.68
497.77	1705.96
497.97	1681.38
498.17	1699.81
498.37	1675.24
498.57	1767.40
498.77	1644.52
498.97	1867.75
499.17	1875.94
499.38	1755.11
499.58	1708.01
499.78	1787.88
499.98	1798.12
500.18	1718.25
500.38	1683.43
500.58	1886.18
500.78	2410.46
500.98	4556.73
501.18	6502.30
501.38	8064.90
501.58	9082.74
501.78	8650.62
501.98	6754.20
502.18	5748.65
502.38	5023.67
502.58	4489.15
502.78	4147.14
502.98	3885.00
503.18	3925.96
503.38	3583.95
503.59	3104.72
503.79	2828.24
503.99	2582.49
504.19	2416.60
504.39	2312.16
504.59	2301.92
504.79	2310.11
504.99	2269.15
505.19	2068.45
505.39	1974.24
505.59	2011.11
505.79	1974.24
505.99	1990.63
506.19	1755.11
506.39	1818.60
506.59	1804.26
506.79	1834.98
506.99	1814.50
507.19	1710.05
507.39	1740.77
507.59	1691.62
507.79	1679.33
507.99	1724.39
508.19	1742.82
508.39	1759.21
508.59	1710.05
508.79	1791.97
508.99	1812.45
509.19	1738.73
509.39	1794.02
509.59	1724.39
509.79	1720.29
509.99	1640.42
510.19	1779.68
510.39	1804.26
510.59	1771.49
510.79	1736.68
510.99	1665.00
511.19	1642.47
511.39	1849.32
511.59	1759.21
511.79	1789.92
511.99	1746.92
512.19	1890.28
512.38	1734.63
512.58	1679.33
512.78	1734.63
512.98	1783.78
513.18	1773.54
513.38	1646.57
513.58	1808.36
513.78	1708.01
513.98	1736.68
514.18	1714.15
514.38	1671.14
514.58	1791.97
514.78	1673.19
514.98	1701.86
515.18	1685.48
515.38	1703.91
515.58	1818.60
515.78	1691.62
515.98	1755.11
516.18	1746.92
516.38	1724.39
516.57	1798.12
516.77	1685.48
516.97	1720.29
517.17	1716.20
517.37	1693.67
517.57	1808.36
517.77	1705.96
517.97	1673.19
518.17	1796.07
518.37	1646.57
518.57	1744.87
518.77	1732.58
518.97	1800.16
519.16	1777.64
519.36	1810.40
519.56	1642.47
519.76	1738.73
519.96	1740.77
520.16	1869.80
520.36	1677.29
520.56	1839.08
520.76	1736.68
520.96	1773.54
521.16	1820.64
521.35	1794.02
521.55	1812.45
521.75	1744.87
521.95	1701.86
522.15	1701.86
522.35	1646.57
522.55	1726.44
522.75	1740.77
522.95	1685.48
523.14	1683.43
523.34	1755.11
523.54	1787.88
523.74	1855.46
523.94	1740.77
524.14	1687.53
524.34	1751.01
524.54	1759.21
524.73	1718.25
524.93	1820.64
525.13	1769.44
525.33	1665.00
525.53	1890.28
525.73	1736.68
525.93	1695.72
526.13	1730.53
526.32	1724.39
526.52	1789.92
526.72	1738.73
526.92	1734.63
527.12	1660.90
527.32	1677.29
527.52	1695.72
527.71	1691.62
527.91	1757.16
528.11	1650.66
528.31	1703.91
528.51	1681.38
528.71	1695.72
528.90	1746.92
529.10	1726.44
529.30	1834.98
529.50	1638.38
529.70	1671.14
529.90	1746.92
530.09	1687.53
530.29	1703.91
530.49	1671.14
530.69	1822.69
530.89	1781.73
531.09	1791.97
531.28	1716.20
531.48	1722.34
531.68	1740.77
531.88	1720.29
532.08	1824.74
532.28	1714.15
532.47	1755.11
532.67	1798.12
532.87	1710.05
533.07	1665.00
533.27	1865.70
533.46	1796.07
533.66	1775.59
533.86	1667.05
534.06	1761.25
534.26	1802.21
534.45	1710.05
534.65	1738.73
534.85	1765.35
535.05	1722.34
535.25	1759.21
535.44	1640.42
535.64	1814.50
535.84	1671.14
536.04	1789.92
536.24	1634.28
536.43	1746.92
536.63	1730.53
536.83	1726.44
537.03	1726.44
537.22	1669.09
537.42	1671.14
537.62	1740.77
537.82	1656.81
538.02	1849.32
538.21	1818.60
538.41	1902.56
538.61	1654.76
538.81	1699.81
539.00	1798.12
539.20	1753.06
539.40	1650.66
539.60	1824.74
539.79	1693.67
539.99	1679.33
540.19	1658.85
540.39	1673.19
540.58	1812.45
540.78	1908.71
540.98	1781.73
541.18	1744.87
541.37	1767.40
541.57	1685.48
541.77	1744.87
541.97	1644.52
542.16	1640.42
542.36	1734.63
542.56	1800.16
542.76	1824.74
542.95	1804.26
543.15	1738.73
543.35	1689.57
543.54	1662.95
543.74	1673.19
543.94	1763.30
544.14	1669.09
544.33	1728.49
544.53	1775.59
544.73	1730.53
544.93	1656.81
545.12	1656.81
545.32	1712.10
545.52	1716.20
545.71	1626.09
545.91	1732.58
546.11	1751.01
546.30	1712.10
546.50	1794.02
546.70	1746.92
546.90	1697.77
547.09	1593.32
547.29	1849.32
547.49	1773.54
547.68	1845.22
547.88	1683.43
548.08	1748.97
548.27	2248.67
548.47	1755.11
548.67	1730.53
548.87	1787.88
549.06	1720.29
549.26	1771.49
549.46	1724.39
549.65	1679.33
549.85	1781.73
550.05	1753.06
550.24	1693.67
550.44	1789.92
550.64	1699.81
550.83	1667.05
551.03	1826.79
551.23	1851.36
551.42	1722.34
551.62	1753.06
551.82	1708.01
552.01	1705.96
552.21	1775.59
552.41	1728.49
552.60	1814.50
552.80	1730.53
553.00	1777.64
553.19	1669.09
553.39	1904.61
553.59	1738.73
553.78	1742.82
553.98	1822.69
554.17	1708.01
554.37	1761.25
554.57	1814.50
554.76	1628.14
554.96	1648.61
555.16	1837.03
555.35	1744.87
555.55	1689.57
555.75	1800.16
555.94	1794.02
556.14	1603.56
556.33	1765.35
556.53	1691.62
556.73	1644.52
556.92	1728.49
557.12	1871.84
557.32	1814.50
557.51	1869.80
557.71	1841.12
557.90	1865.70
558.10	1822.69
558.30	1681.38
558.49	1755.11
558.69	1779.68
558.88	1769.44
559.08	1783.78
559.28	1677.29
559.47	1691.62
559.67	1796.07
559.86	1841.12
560.06	1748.97
560.26	1644.52
560.45	1785.83
560.65	1726.44
560.84	1798.12
561.04	1708.01
561.24	1755.11
561.43	1691.62
561.63	1781.73
561.82	1845.22
562.02	1787.88
562.22	1730.53
562.41	1669.09
562.61	1705.96
562.80	1777.64
563.00	1902.56
563.19	1763.30
563.39	1738.73
563.59	1804.26
563.78	1677.29
563.98	1685.48
564.17	1642.47
564.37	1615.85
564.56	1708.01
564.76	1718.25
564.96	1869.80
565.15	1685.48
565.35	1863.65
565.54	1738.73
565.74	1761.25
565.93	1787.88
566.13	1804.26
566.32	1757.16
566.52	1718.25
566.71	1781.73
566.91	1736.68
567.11	1722.34
567.30	1703.91
567.50	1755.11
567.69	1705.96
567.89	1798.12
568.08	1671.14
568.28	1761.25
568.47	1695.72
568.67	1796.07
568.86	1730.53
569.06	1773.54
569.25	1765.35
569.45	1716.20
569.64	1746.92
569.84	1697.77
570.04	1769.44
570.23	1765.35
570.43	1769.44
570.62	1746.92
570.82	1806.31
571.01	1722.34
571.21	1681.38
571.40	1675.24
571.60	1839.08
571.79	1785.83
571.99	1767.40
572.18	1726.44
572.38	1697.77
572.57	1671.14
572.77	1886.18
572.96	1886.18
573.16	1662.95
573.35	1744.87
573.55	1896.42
573.74	1767.40
573.94	1742.82
574.13	1693.67
574.33	1748.97
574.52	1789.92
574.71	1748.97
574.91	1822.69
575.10	1718.25
575.30	1738.73
575.49	1767.40
575.69	1708.01
575.88	1738.73
576.08	1705.96
576.27	1847.27
576.47	1857.51
576.66	1828.84
576.86	1849.32
577.05	1757.16
577.25	1851.36
577.44	1822.69
577.64	1732.58
577.83	1863.65
578.02	1736.68
578.22	1755.11
578.41	1908.71
578.61	1718.25
578.80	1724.39
579.00	1773.54
579.19	1812.45
579.39	1787.88
579.58	1814.50
579.77	1757.16
579.97	1877.99
580.16	1882.08
580.36	1818.60
580.55	1816.55
580.75	1744.87
580.94	1740.77
581.13	1877.99
581.33	1812.45
581.52	1806.31
581.72	1910.75
581.91	1824.74
582.11	1808.36
582.30	1765.35
582.49	1826.79
582.69	1832.93
582.88	1816.55
583.08	1742.82
583.27	1808.36
583.47	1748.97
583.66	1732.58
583.85	1791.97
584.05	1804.26
584.24	1861.60
584.44	1816.55
584.63	1814.50
584.82	1935.33
585.02	1902.56
585.21	1970.15
585.41	1837.03
585.60	1896.42
585.79	1986.53
585.99	1998.82
586.18	1888.23
586.37	2258.91
586.57	3360.72
586.76	9805.67
586.96	27149.92
587.15	41958.78
587.34	51883.24
587.54	57693.33
587.73	55334.07
587.93	39810.46
588.12	29771.32
588.31	23733.91
588.51	20358.86
588.70	18288.36
588.89	17006.33
589.09	15464.21
589.28	13553.46
589.47	11413.33
589.67	9461.62
589.86	7339.92
590.06	5586.86
590.25	4192.19
590.44	3301.33
590.64	2656.22
590.83	2312.16
591.02	2037.73
591.22	1908.71
591.41	1908.71
591.60	1841.12
591.80	1990.63
591.99	1779.68
592.18	1763.30
592.38	1834.98
592.57	1824.74
592.76	1767.40
592.96	1751.01
593.15	1794.02
593.34	1820.64
593.54	1791.97
593.73	1841.12
593.92	1781.73
594.12	1796.07
594.31	1814.50
594.50	1865.70
594.70	1875.94
594.89	1970.15
595.08	1820.64
595.28	1837.03
595.47	1966.05
595.66	1882.08
595.86	1693.67
596.05	1804.26
596.24	1740.77
596.43	1804.26
596.63	1800.16
596.82	1767.40
597.01	1822.69
597.21	1861.60
597.40	1828.84
597.59	1849.32
597.79	1873.89
597.98	1800.16
598.17	1812.45
598.36	1783.78
598.56	1798.12
598.75	1710.05
598.94	1798.12
599.14	1734.63
599.33	1740.77
599.52	1730.53
599.71	1759.21
599.91	1841.12
600.10	1789.92
600.29	1761.25
600.48	1759.21
600.68	1732.58
600.87	1839.08
601.06	1722.34
601.26	1748.97
601.45	1820.64
601.64	1755.11
601.83	1789.92
602.03	1724.39
602.22	1644.52
602.41	1783.78
602.60	1900.52
602.80	1775.59
602.99	1785.83
603.18	1724.39
603.37	1751.01
603.57	1757.16
603.76	1703.91
603.95	1728.49
604.14	1693.67
604.34	1724.39
604.53	1740.77
604.72	1781.73
604.91	1804.26
605.10	1779.68
605.30	1714.15
605.49	1863.65
605.68	1740.77
605.87	1808.36
606.07	1773.54
606.26	1802.21
606.45	1728.49
606.64	1828.84
606.84	1779.68
607.03	1742.82
607.22	1880.04
607.41	1714.15
607.60	1744.87
607.80	1843.17
607.99	1656.81
608.18	1693.67
608.37	1794.02
608.56	1621.99
608.76	1892.32
608.95	1867.75
609.14	1830.88
609.33	1794.02
609.52	1875.94
609.72	1849.32
609.91	1923.04
610.10	1744.87
610.29	1859.56
610.48	1802.21
610.68	1720.29
610.87	1683.43
611.06	1822.69
611.25	1824.74
611.44	1789.92
611.63	1722.34
611.83	1832.93
612.02	1667.05
612.21	1941.47
612.40	1642.47
612.59	1677.29
612.79	1683.43
612.98	1783.78
613.17	1828.84
613.36	1716.20
613.55	1867.75
613.74	1886.18
613.93	1832.93
614.13	1894.37
614.32	1992.67
614.51	1976.29
614.70	1804.26
614.89	1880.04
615.08	1845.22
615.28	2133.98
615.47	1800.16
615.66	1779.68
615.85	1890.28
616.04	1918.95
616.23	1820.64
616.42	1787.88
616.62	1720.29
616.81	1773.54
617.00	1759.21
617.19	1730.53
617.38	1759.21
617.57	1777.64
617.76	1808.36
617.95	1771.49
618.15	1882.08
618.34	1865.70
618.53	1730.53
618.72	1757.16
618.91	1777.64
619.10	1816.55
619.29	1822.69
619.48	1771.49
619.68	1660.90
619.87	1732.58
620.06	1671.14
620.25	1753.06
620.44	1681.38
620.63	1710.05
620.82	1791.97
621.01	1710.05
621.20	1724.39
621.39	1738.73
621.59	1728.49
621.78	1738.73
621.97	1800.16
622.16	1759.21
622.35	1751.01
622.54	1826.79
622.73	1849.32
622.92	1783.78
623.11	1830.88
623.30	1718.25
623.49	1683.43
623.68	1722.34
623.88	1837.03
624.07	1789.92
624.26	1753.06
624.45	1646.57
624.64	1738.73
624.83	1714.15
625.02	1722.34
625.21	1689.57
625.40	1738.73
625.59	1820.64
625.78	1710.05
625.97	1773.54
626.16	1802.21
626.35	1802.21
626.54	1781.73
626.74	1918.95
626.93	1808.36
627.12	1710.05
627.31	1867.75
627.50	1714.15
627.69	1771.49
627.88	1687.53
628.07	1703.91
628.26	1665.00
628.45	1687.53
628.64	1689.57
628.83	1720.29
629.02	1662.95
629.21	1759.21
629.40	1710.05
629.59	1656.81
629.78	1724.39
629.97	1761.25
630.16	1822.69
630.35	1697.77
630.54	1769.44
630.73	1785.83
630.92	1708.01
631.11	1796.07
631.30	1732.58
631.49	1767.40
631.68	1716.20
631.87	1773.54
632.06	1685.48
632.25	1880.04
632.44	1798.12
632.63	1785.83
632.82	1798.12
633.01	1742.82
633.20	1828.84
633.39	1855.46
633.58	1724.39
633.77	1785.83
633.96	1773.54
634.15	1886.18
634.34	1773.54
634.53	1804.26
634.72	1781.73
634.91	1617.90
635.10	1755.11
635.29	1765.35
635.48	1763.30
635.67	1734.63
635.86	1568.74
636.05	1794.02
636.24	1718.25
636.43	1787.88
636.62	1697.77
636.81	1583.08
637.00	1751.01
637.19	1693.67
637.38	1769.44
637.57	1667.05
637.76	1771.49
637.95	1832.93
638.14	1816.55
638.33	1796.07
638.52	1808.36
638.71	1798.12
638.89	1755.11
639.08	1853.41
639.27	1802.21
639.46	1890.28
639.65	2222.05
639.84	2271.20
640.03	2406.36
640.22	2297.82
640.41	2377.69
640.60	2090.98
640.79	1988.58
640.98	1845.22
641.17	1959.91
641.36	1826.79
641.55	1902.56
641.74	1767.40
641.92	1773.54
642.11	1796.07
642.30	1722.34
642.49	1755.11
642.68	1773.54
642.87	1820.64
643.06	1730.53
643.25	1691.62
643.44	1650.66
643.63	1726.44
643.82	1779.68
644.00	1648.61
644.19	1722.34
644.38	1691.62
644.57	1802.21
644.76	1755.11
644.95	1652.71
645.14	1722.34
645.33	1736.68
645.52	1654.76
645.71	1685.48
645.89	1730.53
646.08	1665.00
646.27	1798.12
646.46	1853.41
646.65	1603.56
646.84	1738.73
647.03	1685.48
647.22	1785.83
647.40	1757.16
647.59	1773.54
647.78	1585.13
647.97	1665.00
648.16	1656.81
648.35	1812.45
648.54	1722.34
648.73	1716.20
648.91	1798.12
649.10	1716.20
649.29	1636.33
649.48	1710.05
649.67	1683.43
649.86	1679.33
650.05	1837.03
650.23	1871.84
650.42	1800.16
650.61	1873.89
650.80	1902.56
650.99	1947.62
651.18	1851.36
651.36	1816.55
651.55	1789.92
651.74	1732.58
651.93	1708.01
652.12	1705.96
652.31	1724.39
652.49	1714.15
652.68	1767.40
652.87	1794.02
653.06	1800.16
653.25	1916.90
653.44	1769.44
653.62	1798.12
653.81	1767.40
654.00	1751.01
654.19	1794.02
654.38	1882.08
654.56	1716.20
654.75	1763.30
654.94	1769.44
655.13	1726.44
655.32	1714.15
655.51	1804.26
655.69	1710.05
655.88	1669.09
656.07	1687.53
656.26	1720.29
656.45	1662.95
656.63	1714.15
656.82	1730.53
657.01	1675.24
657.20	1677.29
657.38	1832.93
657.57	1822.69
657.76	1671.14
657.95	1791.97
658.14	1658.85
658.32	1761.25
658.51	1693.67
658.70	1736.68
658.89	1693.67
659.08	1738.73
659.26	1796.07
659.45	1638.38
659.64	1742.82
659.83	1742.82
660.01	1947.62
660.20	1828.84
660.39	1808.36
660.58	1718.25
660.76	1748.97
660.95	1693.67
661.14	1787.88
661.33	1658.85
661.51	1716.20
661.70	1675.24
661.89	1726.44
662.08	1724.39
662.26	1658.85
662.45	1681.38
662.64	1804.26
662.83	1773.54
663.01	1619.94
663.20	1740.77
663.39	1814.50
663.58	1710.05
663.76	1650.66
663.95	1789.92
664.14	1621.99
664.32	1685.48
664.51	1644.52
664.70	1644.52
664.89	1744.87
665.07	1634.28
665.26	1714.15
665.45	1665.00
665.64	1800.16
665.82	1751.01
666.01	1818.60
666.20	1660.90
666.38	1828.84
666.57	1871.84
666.76	2263.01
666.95	4476.86
667.13	11384.66
667.32	18282.22
667.51	21993.14
667.69	24772.23
667.88	24860.29
668.07	19527.38
668.25	14110.50
668.44	11906.89
668.63	9572.21
668.81	8511.36
669.00	7634.83
669.19	6948.76
669.38	6051.75
669.56	5334.96
669.75	4491.20
669.94	3807.17
670.12	3037.14
670.31	2652.12
670.50	2428.89
670.68	2138.08
670.87	1920.99
671.06	1880.04
671.24	1843.17
671.43	1890.28
671.62	1873.89
671.80	1755.11
671.99	1853.41
672.18	1796.07
672.36	1808.36
672.55	1759.21
672.74	1787.88
672.92	1665.00
673.11	1806.31
673.29	1730.53
673.48	1767.40
673.67	1742.82
673.85	1773.54
674.04	1722.34
674.23	1751.01
674.41	1824.74
674.60	1652.71
674.79	1574.89
674.97	1708.01
675.16	1730.53
675.34	1779.68
675.53	1669.09
675.72	1789.92
675.90	1839.08
676.09	1755.11
676.28	1667.05
676.46	1613.80
676.65	1728.49
676.83	1673.19
677.02	1660.90
677.21	1714.15
677.39	1740.77
677.58	1673.19
677.77	1628.14
677.95	1753.06
678.14	1701.86
678.32	1699.81
678.51	1677.29
678.70	1789.92
678.88	1652.71
679.07	1781.73
679.25	1640.42
679.44	1687.53
679.63	1648.61
679.81	1812.45
680.00	1767.40
680.18	1714.15
680.37	1814.50
680.55	1751.01
680.74	1675.24
680.93	1595.37
681.11	1716.20
681.30	1695.72
681.48	1716.20
681.67	1716.20
681.85	1705.96
682.04	1714.15
682.23	1701.86
682.41	1615.85
682.60	1632.23
682.78	1679.33
682.97	1597.42
683.15	1765.35
683.34	1671.14
683.53	1818.60
683.71	1703.91
683.90	1834.98
684.08	1789.92
684.27	1673.19
684.45	1742.82
684.64	1787.88
684.82	1736.68
685.01	1753.06
685.19	1695.72
685.38	1800.16
685.57	1753.06
685.75	1675.24
685.94	1710.05
686.12	1703.91
686.31	1726.44
686.49	1822.69
686.68	1609.70
686.86	1697.77
687.05	1701.86
687.23	1726.44
687.42	1734.63
687.60	1601.51
687.79	1742.82
687.97	1843.17
688.16	1720.29
688.34	1789.92
688.53	1617.90
688.71	1757.16
688.90	1871.84
689.08	1697.77
689.27	1624.04
689.45	1804.26
689.64	1763.30
689.82	1794.02
690.01	1720.29
690.19	1757.16
690.38	1708.01
690.56	1779.68
690.75	1658.85
690.93	1679.33
691.12	1675.24
691.30	1740.77
691.49	1712.10
691.67	1687.53
691.86	1853.41
692.04	1734.63
692.23	1767.40
692.41	1751.01
692.60	1877.99
692.78	1867.75
692.97	1810.40
693.15	1824.74
693.34	1839.08
693.52	1816.55
693.71	1753.06
693.89	1771.49
694.08	1652.71
694.26	1724.39
694.44	1822.69
694.63	1892.32
694.81	1660.90
695.00	1665.00
695.18	1722.34
695.37	1830.88
695.55	1691.62
695.74	1665.00
695.92	1669.09
696.10	1779.68
696.29	1603.56
696.47	1724.39
696.66	1714.15
696.84	1677.29
697.03	1734.63
697.21	1787.88
697.40	2353.12
697.58	1806.31
697.76	1722.34
697.95	1730.53
698.13	1636.33
698.32	1701.86
698.50	1708.01
698.68	1787.88
698.87	1718.25
699.05	1851.36
699.24	1769.44
699.42	1685.48
699.61	1683.43
699.79	1687.53
699.97	1759.21
700.16	1677.29
700.34	1693.67
700.53	1738.73
700.71	1880.04
700.89	1767.40
701.08	1703.91
701.26	1744.87
701.45	2121.70
701.63	1742.82
701.81	1734.63
702.00	1759.21
702.18	1699.81
702.37	1726.44
702.55	1920.99
702.73	1886.18
702.92	1873.89
703.10	2004.96
703.28	1970.15
703.47	1904.61
703.65	1845.22
703.84	1890.28
704.02	1716.20
704.20	1830.88
704.39	1785.83
704.57	1789.92
704.75	1853.41
704.94	1751.01
705.12	1753.06
705.30	1873.89
705.49	2512.86
705.67	5439.40
705.86	13285.17
706.04	18863.84
706.22	22470.31
706.41	24735.37
706.59	24544.91
706.77	18939.62
706.96	13780.78
707.14	11595.60
707.32	10049.38
707.51	8818.55
707.69	7886.73
707.87	6655.90
708.06	5435.31
708.24	4229.06
708.42	3395.53
708.61	2842.58
708.79	2244.57
708.97	2017.25
709.16	1980.39
709.34	1902.56
709.52	1767.40
709.71	1822.69
709.89	1695.72
710.07	1665.00
710.26	1714.15
710.44	1718.25
710.62	1808.36
710.80	1732.58
710.99	1810.40
711.17	1791.97
711.35	1642.47
711.54	1695.72
711.72	1757.16
711.90	1785.83
712.09	1691.62
712.27	1683.43
712.45	1705.96
712.63	1669.09
712.82	1722.34
713.00	1689.57
713.18	1763.30
713.37	1753.06
713.55	1720.29
713.73	1755.11
713.91	1728.49
714.10	1705.96
714.28	1722.34
714.46	1730.53
714.65	1748.97
714.83	1740.77
715.01	1732.58
715.19	1775.59
715.38	1656.81
715.56	1773.54
715.74	1708.01
715.92	1730.53
716.11	1806.31
716.29	1562.60
716.47	1716.20
716.65	1658.85
716.84	1665.00
717.02	1775.59
717.20	1695.72
717.38	1609.70
717.57	1740.77
717.75	1783.78
717.93	1722.34
718.11	1673.19
718.30	1691.62
718.48	1769.44
718.66	1800.16
718.84	1828.84
719.03	1751.01
719.21	1628.14
719.39	1814.50
719.57	1783.78
719.75	1806.31
719.94	1679.33
720.12	1757.16
720.30	1685.48
720.48	1767.40
720.67	1691.62
720.85	1644.52
721.03	1669.09
721.21	1656.81
721.39	1779.68
721.58	1716.20
721.76	1738.73
721.94	1736.68
722.12	1734.63
722.30	1746.92
722.49	1765.35
722.67	1740.77
722.85	1744.87
723.03	1714.15
723.21	1636.33
723.40	1767.40
723.58	1751.01
723.76	1755.11
723.94	1800.16
724.12	1789.92
724.30	1855.46
724.49	1773.54
724.67	1665.00
724.85	1851.36
725.03	1732.58
725.21	1828.84
725.40	1796.07
725.58	1603.56
725.76	1781.73
725.94	1689.57
726.12	1716.20
726.30	1716.20
726.49	1742.82
726.67	1734.63
726.85	1763.30
727.03	1859.56
727.21	2299.87
727.39	3405.77
727.57	4777.91
727.76	5638.06
727.94	6131.62
728.12	6363.04
728.30	5543.85
728.48	4409.28
728.66	3954.63
728.84	3555.27
729.03	3139.54
729.21	2830.29
729.39	2494.43
729.57	2144.22
729.75	2013.15
729.93	1906.66
730.11	1775.59
730.30	1656.81
730.48	1730.53
730.66	1816.55
730.84	1746.92
731.02	1705.96
731.20	1744.87
731.38	1703.91
731.56	1695.72
731.74	1724.39
731.93	1775.59
732.11	1685.48
732.29	1710.05
732.47	1791.97
732.65	1751.01
732.83	1783.78
733.01	1775.59
733.19	1683.43
733.37	1777.64
733.56	1779.68
733.74	1665.00
733.92	1781.73
734.10	1751.01
734.28	1716.20
734.46	1644.52
734.64	1746.92
734.82	1748.97
735.00	1699.81
735.18	1640.42
735.36	1689.57
735.54	1632.23
735.73	1660.90
735.91	1679.33
736.09	1685.48
736.27	1695.72
736.45	1771.49
736.63	1654.76
736.81	1611.75
736.99	1705.96
737.17	1818.60
737.35	1681.38
737.53	1740.77
737.71	1718.25
737.89	1812.45
738.07	1691.62
738.25	1689.57
738.43	1697.77
738.61	1718.25
738.80	1689.57
738.98	1726.44
739.16	1753.06
739.34	1681.38
739.52	1804.26
739.70	1720.29
739.88	1736.68
740.06	1748.97
740.24	1624.04
740.42	1851.36
740.60	1630.18
740.78	1654.76
740.96	1576.94
741.14	1667.05
741.32	1720.29
741.50	1624.04
741.68	1882.08
741.86	1765.35
742.04	1648.61
742.22	1656.81
742.40	1789.92
742.58	1746.92
742.76	1695.72
742.94	1646.57
743.12	1687.53
743.30	1744.87
743.48	1689.57
743.66	1695.72
743.84	1736.68
744.02	1767.40
744.20	1652.71
744.38	1656.81
744.56	1671.14
744.74	1837.03
744.92	1714.15
745.10	1763.30
745.28	1775.59
745.46	1787.88
745.64	1656.81
745.82	1810.40
746.00	1677.29
746.18	1763.30
746.36	1634.28
746.54	1703.91
746.72	1710.05
746.90	1630.18
747.08	1820.64
747.26	1730.53
747.44	1740.77
747.62	1722.34
747.80	1705.96
747.98	1734.63
748.15	1648.61
748.33	1812.45
748.51	1660.90
748.69	1730.53
748.87	1761.25
749.05	1736.68
749.23	1785.83
749.41	1755.11
749.59	1693.67
749.77	1771.49
749.95	1656.81
750.13	1615.85
750.31	1804.26
750.49	1683.43
750.67	1695.72
750.85	1834.98
751.03	1730.53
751.20	1806.31
751.38	1748.97
751.56	1710.05
751.74	1748.97
751.92	1677.29
752.10	1621.99
752.28	1757.16
752.46	1648.61
752.64	1636.33
752.82	1785.83
753.00	1808.36
753.18	1675.24
753.35	1697.77
753.53	1730.53
753.71	1724.39
753.89	1775.59
754.07	1765.35
754.25	1773.54
754.43	1777.64
754.61	1613.80
754.79	1759.21
754.97	1742.82
755.14	1871.84
755.32	1617.90
755.50	1730.53
755.68	1751.01
755.86	1730.53
756.04	1681.38
756.22	1607.66
756.40	1712.10
756.57	1875.94
756.75	1755.11
756.93	1779.68
757.11	1800.16
757.29	1695.72
757.47	1636.33
757.65	1591.27
757.82	1578.98
758.00	1681.38
758.18	1642.47
758.36	1677.29
758.54	1726.44
758.72	1636.33
758.90	1830.88
759.07	1703.91
759.25	1640.42
759.43	1679.33
759.61	1705.96
759.79	2152.42
759.97	1703.91
760.15	1740.77
760.32	1699.81
760.50	1697.77
760.68	1769.44
760.86	1626.09
761.04	1808.36
761.22	1767.40
761.39	1736.68
761.57	1761.25
761.75	1689.57
761.93	1660.90
762.11	1708.01
762.28	1716.20
762.46	1718.25
762.64	1761.25
762.82	1613.80
763.00	1658.85
763.18	1779.68
763.35	1634.28
763.53	1757.16
763.71	1699.81
763.89	1691.62
764.07	1791.97
764.24	1726.44
764.42	1789.92
764.60	1697.77
764.78	1773.54
764.96	1791.97
765.13	1724.39
765.31	1689.57
765.49	1775.59
765.67	1605.61
765.84	1691.62
766.02	1746.92
766.20	1632.23
766.38	1808.36
766.56	1761.25
766.73	1742.82
766.91	1703.91
767.09	1699.81
767.27	1765.35
767.44	1626.09
767.62	1785.83
767.80	1738.73
767.98	1705.96
768.15	1769.44
768.33	1765.35
768.51	1791.97
768.69	1751.01
768.87	1734.63
769.04	1730.53
769.22	1796.07
769.40	1746.92
769.58	1873.89
769.75	1685.48
769.93	1837.03
770.11	1697.77
770.28	1705.96
770.46	1736.68
770.64	1746.92
770.82	1691.62
770.99	1677.29
771.17	1662.95
771.35	1675.24
771.53	1728.49
771.70	1724.39
771.88	1746.92
772.06	1705.96
772.23	1683.43
772.41	1755.11
772.59	1646.57
772.77	1640.42
772.94	1734.63
773.12	1763.30
773.30	1673.19
773.47	1714.15
773.65	1673.19
773.83	1763.30
774.01	1753.06
774.18	1679.33
774.36	1646.57
774.54	1683.43
774.71	1755.11
774.89	1685.48
775.07	1689.57
775.24	1624.04
775.42	1656.81
775.60	1787.88
775.78	1652.71
775.95	1689.57
776.13	1560.55
776.31	1593.32
776.48	1742.82
776.66	1812.45
776.84	1705.96
777.01	1669.09
777.19	1679.33
777.37	1671.14
777.54	1730.53
777.72	1863.65
777.90	1759.21
778.07	1660.90
778.25	1822.69
778.43	1742.82
778.60	1648.61
778.78	1804.26
778.96	1738.73
779.13	1609.70
779.31	1810.40
779.49	1710.05
779.66	1751.01
779.84	1710.05
780.01	1800.16
780.19	1685.48
780.37	1779.68
780.54	1757.16
780.72	1660.90
780.90	1673.19
781.07	1695.72
781.25	1732.58
781.43	1791.97
781.60	1660.90
781.78	1839.08
781.95	1789.92
782.13	1677.29
782.31	1675.24
782.48	1603.56
782.66	1744.87
782.83	1841.12
783.01	1689.57
783.19	1785.83
783.36	1675.24
783.54	1593.32
783.72	1761.25
783.89	1757.16
784.07	1699.81
784.24	1775.59
784.42	1826.79
784.60	1703.91
784.77	1720.29
784.95	1615.85
785.12	1626.09
785.30	1877.99
785.47	1636.33
785.65	1630.18
785.83	1769.44
786.00	1720.29
786.18	1617.90
786.35	1650.66
786.53	1667.05
786.71	1777.64
786.88	1742.82
787.06	1800.16
787.23	1636.33
787.41	1687.53
787.58	1687.53
787.76	1662.95
787.94	1656.81
788.11	1724.39
788.29	1656.81
788.46	1665.00
788.64	1632.23
788.81	1720.29
788.99	1667.05
789.16	1695.72
789.34	1667.05
789.52	1685.48
789.69	1644.52
789.87	1646.57
790.04	1677.29
790.22	1732.58
790.39	1724.39
790.57	1652.71
790.74	1591.27
790.92	1761.25
791.09	1654.76
791.27	1716.20
791.44	1779.68
791.62	1710.05
791.79	1781.73
791.97	1701.86
792.15	1978.34
792.32	1718.25
792.50	1714.15
792.67	1777.64
792.85	1759.21
793.02	1716.20
793.20	1609.70
793.37	1636.33
793.55	1667.05
793.72	1656.81
793.90	1740.77
794.07	1617.90
794.25	1656.81
794.42	1683.43
794.60	1671.14
794.77	1697.77
794.95	1787.88
795.12	1796.07
795.30	1703.91
795.47	1624.04
795.65	1902.56
795.82	1710.05
796.00	1644.52
796.17	1630.18
796.34	1679.33
796.52	1681.38
796.69	1730.53
796.87	1765.35
797.04	1738.73
797.22	1705.96
797.39	1673.19
797.57	1746.92
797.74	1730.53
797.92	1726.44
798.09	1671.14
798.27	1746.92
798.44	1705.96
798.62	1716.20
798.79	1775.59
798.96	1761.25
799.14	1619.94
799.31	1847.27
799.49	1697.77
799.66	1669.09
799.84	1708.01
800.01	1632.23
800.19	1783.78
800.36	1576.94
800.53	1699.81
800.71	1693.67
800.88	1779.68
801.06	1681.38
801.23	1708.01
801.41	1720.29
801.58	1710.05
801.75	1660.90
801.93	1681.38
802.10	1785.83
802.28	1748.97
802.45	1687.53
802.63	1726.44
802.80	1810.40
802.97	1763.30
803.15	1716.20
803.32	1738.73
803.50	1726.44
803.67	1644.52
803.84	1656.81
804.02	1699.81
804.19	1628.14
804.37	1640.42
804.54	1630.18
804.71	1689.57
804.89	1673.19
805.06	1640.42
805.24	1712.10
805.41	1759.21
805.58	1652.71
805.76	1857.51
805.93	1714.15
806.10	1742.82
806.28	1718.25
806.45	1783.78
806.63	1683.43
806.80	1787.88
806.97	1658.85
807.15	1751.01
807.32	1708.01
807.49	1665.00
807.67	1667.05
807.84	1789.92
808.01	1585.13
808.19	1777.64
808.36	1767.40
808.54	1728.49
808.71	1644.52
808.88	1722.34
809.06	1759.21
809.23	1746.92
809.40	1710.05
809.58	1748.97
809.75	1751.01
809.92	1689.57
810.10	1785.83
810.27	1679.33
810.44	1714.15
810.62	1701.86
810.79	1746.92
810.96	1603.56
811.14	1624.04
811.31	1691.62
811.48	1738.73
811.66	1689.57
811.83	1714.15
812.00	1789.92
812.18	1751.01
812.35	1771.49
812.52	1632.23
812.69	1712.10
812.87	1667.05
813.04	1646.57
813.21	1695.72
813.39	1800.16
813.56	1644.52
813.73	1734.63
813.91	1617.90
814.08	1718.25
814.25	1695.72
814.42	1603.56
814.60	1675.24
814.77	1718.25
814.94	1689.57
815.12	1767.40
815.29	1785.83
815.46	1636.33
815.63	1677.29
815.81	1732.58
815.98	1736.68
816.15	1638.38
816.33	1669.09
816.50	1791.97
816.67	1652.71
816.84	1685.48
817.02	1621.99
817.19	1691.62
817.36	1701.86
817.53	1751.01
817.71	1617.90
817.88	1734.63
818.05	1710.05
818.22	1726.44
818.40	1771.49
818.57	1665.00
818.74	1791.97
818.91	1824.74
819.09	1791.97
819.26	1744.87
819.43	1708.01
819.60	1656.81
819.78	1777.64
819.95	1769.44
820.12	1703.91
820.29	1683.43
820.47	1708.01
820.64	1613.80
820.81	1587.18
820.98	1613.80
821.15	1740.77
821.33	1683.43
821.50	1560.55
821.67	1751.01
821.84	1759.21
822.02	1759.21
822.19	1820.64
822.36	1716.20
822.53	1724.39
822.70	1695.72
822.88	1634.28
823.05	1777.64
823.22	1705.96
823.39	1816.55
823.56	1640.42
823.74	1845.22
823.91	1665.00
824.08	1652.71
824.25	1675.24
824.42	1765.35
824.60	1669.09
824.77	1671.14
824.94	1665.00
825.11	1644.52
825.28	1581.03
825.45	1595.37
825.63	1691.62
825.80	1650.66
825.97	1718.25
826.14	1634.28
826.31	1591.27
826.48	1689.57
826.66	1648.61
826.83	1771.49
827.00	1658.85
827.17	1740.77
827.34	1673.19
827.51	1693.67
827.69	1775.59
827.86	1665.00
828.03	1736.68
828.20	1775.59
828.37	1683.43
828.54	1753.06
828.71	1736.68
828.89	1787.88
829.06	1724.39
829.23	1820.64
829.40	1697.77
829.57	1714.15
829.74	1648.61
829.91	1703.91
830.09	1701.86
830.26	1732.58
830.43	1779.68
830.60	1783.78
830.77	1708.01
830.94	1701.86
831.11	1669.09
831.28	1683.43
831.46	1814.50
831.63	1703.91
831.80	1808.36
831.97	1617.90
832.14	1656.81
832.31	1716.20
832.48	1705.96
832.65	1824.74
832.82	1675.24
832.99	1765.35
833.17	1601.51
833.34	1742.82
833.51	1699.81
833.68	1691.62
833.85	1689.57
834.02	1679.33
834.19	1628.14
834.36	1654.76
834.53	1716.20
834.70	1775.59
834.87	1816.55
835.04	1685.48
835.22	1691.62
835.39	1732.58
835.56	1640.42
835.73	1714.15
835.90	1730.53
836.07	1665.00
836.24	1740.77
836.41	1671.14
836.58	1667.05
836.75	1783.78
836.92	1701.86
837.09	1710.05
837.26	1771.49
837.43	1705.96
837.60	1769.44
837.77	1697.77
837.94	1681.38
838.12	1869.80
838.29	1710.05
838.46	1703.91
838.63	1636.33
838.80	1779.68
838.97	1794.02
839.14	1662.95
839.31	1710.05
839.48	1708.01
839.65	1665.00
839.82	1738.73
839.99	1730.53
840.16	1787.88
840.33	1685.48
840.50	1699.81
840.67	1683.43
840.84	1585.13
841.01	1691.62
841.18	1646.57
841.35	1689.57
841.52	1724.39
841.69	1851.36
841.86	1695.72
842.03	1712.10
842.20	1681.38
842.37	1712.10
842.54	1642.47
842.71	1775.59
842.88	1644.52
843.05	1775.59
843.22	1656.81
843.39	1742.82
843.56	1607.66
843.73	1675.24
843.90	1685.48
844.07	1679.33
844.24	1783.78
844.41	1724.39
844.58	1699.81
844.75	1677.29
844.92	1798.12
845.09	1703.91
845.26	1677.29
845.43	1759.21
845.60	1697.77
845.77	1851.36
845.94	1738.73
846.10	1722.34
846.27	1550.31
846.44	1599.46
846.61	1615.85
846.78	1771.49
846.95	1888.23
847.12	1699.81
847.29	1738.73
847.46	1705.96
847.63	1705.96
847.80	1720.29
847.97	1644.52
848.14	1804.26
848.31	1648.61
848.48	1681.38
848.65	1742.82
848.82	1685.48
848.98	1877.99
849.15	1681.38
849.32	1806.31
849.49	1736.68
849.66	1783.78
849.83	1736.68
850.00	1587.18
850.17	1718.25
850.34	1671.14
850.51	1673.19
850.68	1621.99
850.85	1806.31
851.01	1703.91
851.18	1814.50
851.35	1708.01
851.52	1701.86
851.69	1757.16
851.86	1650.66
852.03	1705.96
852.20	1712.10
852.37	1675.24
852.53	1695.72
852.70	1683.43
852.87	1769.44
853.04	1693.67
853.21	1736.68
853.38	1755.11
853.55	1757.16
853.72	1755.11
853.89	1677.29
854.05	1638.38
854.22	1734.63
854.39	1630.18
854.56	1748.97
854.73	1746.92
854.90	1658.85
855.07	1691.62
855.23	1697.77
855.40	1681.38
855.57	1619.94
855.74	1636.33
855.91	1861.60
856.08	1597.42
856.25	1669.09
856.41	1683.43
856.58	1753.06
856.75	1705.96
856.92	1624.04
857.09	1761.25
857.26	1648.61
857.42	1708.01
857.59	1726.44
857.76	1650.66
857.93	1757.16
858.10	1779.68
858.27	1718.25
858.43	1746.92
858.60	1615.85
858.77	1609.70
858.94	1734.63
859.11	1806.31
859.27	1716.20
859.44	1687.53
859.61	1785.83
859.78	1691.62
859.95	1691.62
860.12	1673.19
860.28	1789.92
860.45	1863.65
860.62	1710.05
860.79	1787.88
860.95	1660.90
861.12	1650.66
861.29	1701.86
861.46	1667.05
861.63	1730.53
861.79	1677.29
861.96	1738.73
862.13	1640.42
862.30	1787.88
862.47	1642.47
862.63	1628.14
862.80	1708.01
862.97	1744.87
863.14	1714.15
863.30	1748.97
863.47	1624.04
863.64	1845.22
863.81	1716.20
863.97	1712.10
864.14	1697.77
864.31	1736.68
864.48	1755.11
864.65	1689.57
864.81	1767.40
864.98	1728.49
865.15	1771.49
865.32	1697.77
865.48	1773.54
865.65	1730.53
865.82	1656.81
865.98	1708.01
866.15	1730.53
866.32	1660.90
866.49	1687.53
866.65	1744.87
866.82	1667.05
866.99	1763.30
867.16	1677.29
867.32	1746.92
867.49	1691.62
867.66	1679.33
867.83	1701.86
867.99	1560.55
868.16	1667.05
868.33	1683.43
868.49	1720.29
868.66	1673.19
868.83	1789.92
868.99	1785.83
869.16	1757.16
869.33	1853.41
869.50	1732.58
869.66	1701.86
869.83	1751.01
870.00	1611.75
870.16	1720.29
870.33	1669.09
870.50	1691.62
870.66	1677.29
870.83	1841.12
871.00	1716.20
871.17	1671.14
871.33	1748.97
871.50	1724.39
871.67	1673.19
871.83	1634.28
872.00	1826.79
872.17	1628.14
872.33	1789.92
872.50	1789.92
872.67	1632.23
872.83	1617.90
873.00	1673.19
873.17	1667.05
873.33	1677.29
873.50	1716.20
873.67	1648.61
873.83	1595.37
874.00	1699.81
874.16	1742.82
874.33	1693.67
874.50	1652.71
874.66	1802.21
874.83	1677.29
875.00	1765.35
875.16	1777.64
875.33	1802.21
875.50	1658.85
875.66	1634.28
875.83	1673.19
875.99	1759.21
876.16	1701.86
876.33	1662.95
876.49	1665.00
876.66	1726.44
876.83	1701.86
876.99	1550.31
877.16	1728.49
877.32	1644.52
877.49	1705.96
877.66	1691.62
877.82	1716.20
877.99	1757.16
878.15	1796.07
878.32	1736.68
878.49	1773.54
878.65	1697.77
878.82	1779.68
878.98	1689.57
879.15	1798.12
879.32	1789.92
879.48	1742.82
879.65	1724.39
879.81	1732.58
879.98	1691.62
880.15	1654.76
880.31	1816.55
880.48	1679.33
880.64	1734.63
880.81	1695.72
880.97	1875.94
881.14	1839.08
881.31	1638.38
881.47	1841.12
881.64	1761.25
881.80	1626.09
881.97	1642.47
882.13	1714.15
882.30	1624.04
882.47	1685.48
882.63	1656.81
882.80	1658.85
882.96	1656.81
883.13	1755.11
883.29	1718.25
883.46	1722.34
883.62	1808.36
883.79	1705.96
883.95	1787.88
884.12	1732.58
884.29	1724.39
884.45	1638.38
884.62	1708.01
884.78	1753.06
884.95	1802.21
885.11	1603.56
885.28	1802.21
885.44	1634.28
885.61	1761.25
885.77	1699.81
885.94	1705.96
886.10	1656.81
886.27	1724.39
886.43	1763.30
886.60	1798.12
886.76	1736.68
886.93	1705.96
887.09	1726.44
887.26	1644.52
887.42	1681.38
887.59	1761.25
887.75	1847.27
887.92	1777.64
888.08	1722.34
888.25	1814.50
888.41	1730.53
888.58	1701.86
888.74	1640.42
888.91	1699.81
>>>>>End Processed Spectral Data<<<<<
