SpectraSuite Data File
++++++++++++++++++++++++++++++++++++
Date: Wed May 04 18:44:36 CEST 2016
User: root
Dark Spectrum Present: No
Reference Spectrum Present: No
Number of Sampled Component Spectra: 1
Spectrometers: USB4C02835
Integration Time (usec): 100000 (USB4C02835)
Spectra Averaged: 1 (USB4C02835)
Boxcar Smoothing: 0 (USB4C02835)
Correct for Electrical Dark: No (USB4C02835)
Strobe/Lamp Enabled: No (USB4C02835)
Correct for Detector Non-linearity: No (USB4C02835)
Correct for Stray Light: No (USB4C02835)
Number of Pixels in Processed Spectrum: 3648
>>>>>Begin Processed Spectral Data<<<<<
177.47	1474.54
177.69	1474.54
177.91	1474.54
178.13	1427.43
178.36	1505.26
178.58	1617.90
178.80	1757.16
179.02	1599.46
179.24	1697.77
179.46	1695.72
179.68	1763.30
179.90	1617.90
180.13	1787.88
180.35	1675.24
180.57	1626.09
180.79	1730.53
181.01	1765.35
181.23	1810.40
181.45	1712.10
181.67	1722.34
181.90	1712.10
182.12	1716.20
182.34	1638.38
182.56	1718.25
182.78	1763.30
183.00	1679.33
183.22	1722.34
183.44	1652.71
183.66	1820.64
183.89	1779.68
184.11	1669.09
184.33	1785.83
184.55	1746.92
184.77	1675.24
184.99	1652.71
185.21	1662.95
185.43	1871.84
185.65	1761.25
185.87	1705.96
186.10	1730.53
186.32	1830.88
186.54	1777.64
186.76	1730.53
186.98	1710.05
187.20	1710.05
187.42	1634.28
187.64	1714.15
187.86	1757.16
188.08	1826.79
188.30	1683.43
188.52	1742.82
188.75	1740.77
188.97	1740.77
189.19	1689.57
189.41	1652.71
189.63	1736.68
189.85	1601.51
190.07	1570.79
190.29	1628.14
190.51	1789.92
190.73	1712.10
190.95	1779.68
191.17	1712.10
191.39	1695.72
191.61	1667.05
191.84	1685.48
192.06	1726.44
192.28	1662.95
192.50	1898.47
192.72	1724.39
192.94	1693.67
193.16	1779.68
193.38	1759.21
193.60	1654.76
193.82	1697.77
194.04	1787.88
194.26	1681.38
194.48	1753.06
194.70	1589.22
194.92	1695.72
195.14	1722.34
195.36	1665.00
195.58	1703.91
195.80	1697.77
196.02	1677.29
196.24	1691.62
196.46	1728.49
196.69	1566.70
196.91	1789.92
197.13	1650.66
197.35	1665.00
197.57	1802.21
197.79	1777.64
198.01	1726.44
198.23	1748.97
198.45	1771.49
198.67	1636.33
198.89	1779.68
199.11	1757.16
199.33	1703.91
199.55	1533.93
199.77	1683.43
199.99	1759.21
200.21	1683.43
200.43	1761.25
200.65	1662.95
200.87	1624.04
201.09	1718.25
201.31	1732.58
201.53	1724.39
201.75	1751.01
201.97	1712.10
202.19	1699.81
202.41	1804.26
202.63	1806.31
202.85	1753.06
203.07	1742.82
203.29	1667.05
203.51	1665.00
203.73	1699.81
203.95	1830.88
204.17	1828.84
204.39	1753.06
204.61	1697.77
204.83	1679.33
205.05	1705.96
205.27	1726.44
205.49	1851.36
205.71	1634.28
205.93	1654.76
206.15	1656.81
206.37	1648.61
206.59	1763.30
206.81	1624.04
207.03	1654.76
207.25	1574.89
207.47	1689.57
207.69	1691.62
207.91	1785.83
208.13	1791.97
208.34	1681.38
208.56	1650.66
208.78	1834.98
209.00	1665.00
209.22	1673.19
209.44	1728.49
209.66	1734.63
209.88	1712.10
210.10	1650.66
210.32	1714.15
210.54	1816.55
210.76	1701.86
210.98	1710.05
211.20	1638.38
211.42	1767.40
211.64	1744.87
211.86	1759.21
212.08	1689.57
212.30	1722.34
212.52	1708.01
212.74	1781.73
212.96	1718.25
213.17	1832.93
213.39	1744.87
213.61	1816.55
213.83	1791.97
214.05	1718.25
214.27	1779.68
214.49	1687.53
214.71	1642.47
214.93	1695.72
215.15	1675.24
215.37	1748.97
215.59	1636.33
215.81	1771.49
216.03	1773.54
216.24	1767.40
216.46	1710.05
216.68	1722.34
216.90	1724.39
217.12	1753.06
217.34	1720.29
217.56	1816.55
217.78	1781.73
218.00	1716.20
218.22	1669.09
218.44	1757.16
218.66	1697.77
218.87	1804.26
219.09	1675.24
219.31	1738.73
219.53	1703.91
219.75	1744.87
219.97	1685.48
220.19	1699.81
220.41	1671.14
220.63	1853.41
220.85	1824.74
221.06	1714.15
221.28	1744.87
221.50	1724.39
221.72	1734.63
221.94	1634.28
222.16	1697.77
222.38	1759.21
222.60	1705.96
222.82	1658.85
223.03	1699.81
223.25	1574.89
223.47	1787.88
223.69	1865.70
223.91	1732.58
224.13	1685.48
224.35	1705.96
224.57	1748.97
224.78	1640.42
225.00	1634.28
225.22	1703.91
225.44	1699.81
225.66	1777.64
225.88	1714.15
226.10	1736.68
226.32	1656.81
226.53	1757.16
226.75	1710.05
226.97	1734.63
227.19	1671.14
227.41	1650.66
227.63	1650.66
227.85	1593.32
228.06	1771.49
228.28	1726.44
228.50	1691.62
228.72	1601.51
228.94	1656.81
229.16	1613.80
229.37	1695.72
229.59	1685.48
229.81	1767.40
230.03	1673.19
230.25	1593.32
230.47	1632.23
230.69	1662.95
230.90	1740.77
231.12	1636.33
231.34	1783.78
231.56	1755.11
231.78	1652.71
232.00	1751.01
232.21	1710.05
232.43	1757.16
232.65	1558.50
232.87	1699.81
233.09	1677.29
233.30	1703.91
233.52	1736.68
233.74	1679.33
233.96	1703.91
234.18	1699.81
234.40	1716.20
234.61	1832.93
234.83	1624.04
235.05	1593.32
235.27	1884.13
235.49	1781.73
235.70	1679.33
235.92	1753.06
236.14	1757.16
236.36	1877.99
236.58	1681.38
236.79	1734.63
237.01	1654.76
237.23	1691.62
237.45	1816.55
237.67	1718.25
237.88	1710.05
238.10	1839.08
238.32	1671.14
238.54	1691.62
238.76	1796.07
238.97	1630.18
239.19	1662.95
239.41	1757.16
239.63	1734.63
239.85	1712.10
240.06	1617.90
240.28	1724.39
240.50	1705.96
240.72	1755.11
240.93	1667.05
241.15	1753.06
241.37	1640.42
241.59	1804.26
241.81	1724.39
242.02	1695.72
242.24	1761.25
242.46	1753.06
242.68	1662.95
242.89	1665.00
243.11	1734.63
243.33	1732.58
243.55	1681.38
243.76	1789.92
243.98	1685.48
244.20	1755.11
244.42	1699.81
244.64	1806.31
244.85	1701.86
245.07	1728.49
245.29	1705.96
245.51	1714.15
245.72	1681.38
245.94	1730.53
246.16	1554.41
246.38	1728.49
246.59	1712.10
246.81	1738.73
247.03	1648.61
247.24	1558.50
247.46	1617.90
247.68	1673.19
247.90	1609.70
248.11	1669.09
248.33	1744.87
248.55	1632.23
248.77	1720.29
248.98	1791.97
249.20	1818.60
249.42	1708.01
249.64	1748.97
249.85	1785.83
250.07	1665.00
250.29	1697.77
250.50	1816.55
250.72	1581.03
250.94	1708.01
251.16	1814.50
251.37	1804.26
251.59	1662.95
251.81	1687.53
252.02	1789.92
252.24	1675.24
252.46	1689.57
252.68	1662.95
252.89	1613.80
253.11	1634.28
253.33	1806.31
253.54	1873.89
253.76	1665.00
253.98	1662.95
254.20	1718.25
254.41	1675.24
254.63	1718.25
254.85	1701.86
255.06	1714.15
255.28	1697.77
255.50	1687.53
255.71	1693.67
255.93	1615.85
256.15	1685.48
256.36	1746.92
256.58	1751.01
256.80	1734.63
257.02	1646.57
257.23	1734.63
257.45	1671.14
257.67	1738.73
257.88	1646.57
258.10	1755.11
258.32	1740.77
258.53	1763.30
258.75	1791.97
258.97	1607.66
259.18	1691.62
259.40	1763.30
259.62	1730.53
259.83	1820.64
260.05	1742.82
260.27	1992.67
260.48	1839.08
260.70	1626.09
260.92	1689.57
261.13	1669.09
261.35	1667.05
261.57	1673.19
261.78	1591.27
262.00	1634.28
262.22	1693.67
262.43	1630.18
262.65	1695.72
262.86	1712.10
263.08	1763.30
263.30	1691.62
263.51	1613.80
263.73	1570.79
263.95	1779.68
264.16	1681.38
264.38	1726.44
264.60	1726.44
264.81	1673.19
265.03	1746.92
265.25	1761.25
265.46	1677.29
265.68	1693.67
265.89	1744.87
266.11	1695.72
266.33	1695.72
266.54	1716.20
266.76	1705.96
266.98	1753.06
267.19	1853.41
267.41	1763.30
267.62	1675.24
267.84	1648.61
268.06	1679.33
268.27	1703.91
268.49	1771.49
268.70	1710.05
268.92	1675.24
269.14	1681.38
269.35	1642.47
269.57	1687.53
269.79	1732.58
270.00	1716.20
270.22	1787.88
270.43	1650.66
270.65	1587.18
270.87	1779.68
271.08	1755.11
271.30	1775.59
271.51	1712.10
271.73	1751.01
271.95	1787.88
272.16	1699.81
272.38	1765.35
272.59	1662.95
272.81	1753.06
273.02	1781.73
273.24	1695.72
273.46	1751.01
273.67	1746.92
273.89	1671.14
274.10	1640.42
274.32	1855.46
274.54	1746.92
274.75	1695.72
274.97	1640.42
275.18	1730.53
275.40	1751.01
275.61	1646.57
275.83	1746.92
276.05	1603.56
276.26	1746.92
276.48	1710.05
276.69	1652.71
276.91	1595.37
277.12	1767.40
277.34	1755.11
277.55	1822.69
277.77	1673.19
277.99	1720.29
278.20	1648.61
278.42	1615.85
278.63	1761.25
278.85	1626.09
279.06	1665.00
279.28	1755.11
279.49	1671.14
279.71	1701.86
279.93	1722.34
280.14	1718.25
280.36	1695.72
280.57	1730.53
280.79	1789.92
281.00	1689.57
281.22	1669.09
281.43	1822.69
281.65	1501.16
281.86	1662.95
282.08	1746.92
282.29	1767.40
282.51	1650.66
282.73	1689.57
282.94	1566.70
283.16	1773.54
283.37	1796.07
283.59	1775.59
283.80	1740.77
284.02	1726.44
284.23	1726.44
284.45	1683.43
284.66	1689.57
284.88	1697.77
285.09	1742.82
285.31	1771.49
285.52	1757.16
285.74	1673.19
285.95	1677.29
286.17	1695.72
286.38	1818.60
286.60	1648.61
286.81	1722.34
287.03	1703.91
287.24	1667.05
287.46	1632.23
287.67	1681.38
287.89	1796.07
288.10	1751.01
288.32	1816.55
288.53	1771.49
288.75	1759.21
288.96	1820.64
289.18	1699.81
289.39	1644.52
289.61	1732.58
289.82	1865.70
290.04	1738.73
290.25	1634.28
290.47	1662.95
290.68	1687.53
290.90	1722.34
291.11	1654.76
291.33	1796.07
291.54	1665.00
291.76	1587.18
291.97	1708.01
292.18	1714.15
292.40	1693.67
292.61	1603.56
292.83	1871.84
293.04	1761.25
293.26	1761.25
293.47	1708.01
293.69	1687.53
293.90	1685.48
294.12	1757.16
294.33	1703.91
294.55	1685.48
294.76	1689.57
294.97	1738.73
295.19	1847.27
295.40	1699.81
295.62	1734.63
295.83	1740.77
296.05	1632.23
296.26	1802.21
296.48	1683.43
296.69	1724.39
296.90	1650.66
297.12	1791.97
297.33	1824.74
297.55	1683.43
297.76	1798.12
297.98	1714.15
298.19	1720.29
298.41	1730.53
298.62	1652.71
298.83	1824.74
299.05	1751.01
299.26	1675.24
299.48	1628.14
299.69	1775.59
299.90	1665.00
300.12	1679.33
300.33	1802.21
300.55	1683.43
300.76	1806.31
300.98	1632.23
301.19	1763.30
301.40	1734.63
301.62	1765.35
301.83	1687.53
302.05	1662.95
302.26	1755.11
302.47	1646.57
302.69	1597.42
302.90	1740.77
303.12	1603.56
303.33	1767.40
303.54	1830.88
303.76	1705.96
303.97	1648.61
304.19	1787.88
304.40	1712.10
304.61	1691.62
304.83	1787.88
305.04	1841.12
305.26	1746.92
305.47	1738.73
305.68	1755.11
305.90	1613.80
306.11	1808.36
306.33	1714.15
306.54	1679.33
306.75	1630.18
306.97	1644.52
307.18	1685.48
307.39	1746.92
307.61	1769.44
307.82	1693.67
308.04	1755.11
308.25	1740.77
308.46	1771.49
308.68	1701.86
308.89	1712.10
309.10	1789.92
309.32	1761.25
309.53	1777.64
309.74	1751.01
309.96	1693.67
310.17	1824.74
310.39	1628.14
310.60	1701.86
310.81	1712.10
311.03	1613.80
311.24	1712.10
311.45	1667.05
311.67	1849.32
311.88	1777.64
312.09	1665.00
312.31	1691.62
312.52	1759.21
312.73	1665.00
312.95	1619.94
313.16	1607.66
313.37	1890.28
313.59	1681.38
313.80	1748.97
314.01	1789.92
314.23	1656.81
314.44	1671.14
314.65	1605.61
314.87	1681.38
315.08	1628.14
315.29	1691.62
315.51	1632.23
315.72	1630.18
315.93	1791.97
316.15	1783.78
316.36	1658.85
316.57	1712.10
316.79	1714.15
317.00	1640.42
317.21	1771.49
317.43	1638.38
317.64	1767.40
317.85	1679.33
318.07	1636.33
318.28	1767.40
318.49	1890.28
318.70	1984.48
318.92	1832.93
319.13	1964.00
319.34	1945.57
319.56	1818.60
319.77	1800.16
319.98	1761.25
320.20	1839.08
320.41	1845.22
320.62	1796.07
320.83	1648.61
321.05	1853.41
321.26	1730.53
321.47	1710.05
321.69	1748.97
321.90	1695.72
322.11	1677.29
322.32	1601.51
322.54	1769.44
322.75	1652.71
322.96	1804.26
323.18	1644.52
323.39	1644.52
323.60	1677.29
323.81	1691.62
324.03	1718.25
324.24	1802.21
324.45	1708.01
324.66	1671.14
324.88	1716.20
325.09	1697.77
325.30	1703.91
325.52	1689.57
325.73	1728.49
325.94	1630.18
326.15	1632.23
326.37	1656.81
326.58	1763.30
326.79	1800.16
327.00	1667.05
327.22	1763.30
327.43	1722.34
327.64	1673.19
327.85	1746.92
328.07	1699.81
328.28	1818.60
328.49	1708.01
328.70	1669.09
328.92	1677.29
329.13	1662.95
329.34	1671.14
329.55	1787.88
329.76	1734.63
329.98	1720.29
330.19	1769.44
330.40	1734.63
330.61	1720.29
330.83	1789.92
331.04	1697.77
331.25	1728.49
331.46	1718.25
331.68	1689.57
331.89	1732.58
332.10	1628.14
332.31	1615.85
332.52	1732.58
332.74	1777.64
332.95	1695.72
333.16	1611.75
333.37	1730.53
333.58	1773.54
333.80	1677.29
334.01	1611.75
334.22	1726.44
334.43	1673.19
334.64	1640.42
334.86	1550.31
335.07	1644.52
335.28	1757.16
335.49	1665.00
335.70	1791.97
335.92	1791.97
336.13	1820.64
336.34	1755.11
336.55	1720.29
336.76	1681.38
336.98	1624.04
337.19	1691.62
337.40	1759.21
337.61	1779.68
337.82	1705.96
338.04	1822.69
338.25	1652.71
338.46	1683.43
338.67	1632.23
338.88	1675.24
339.09	1601.51
339.31	1671.14
339.52	1697.77
339.73	1640.42
339.94	1683.43
340.15	1730.53
340.36	1617.90
340.58	1695.72
340.79	1732.58
341.00	1730.53
341.21	1703.91
341.42	1767.40
341.63	1681.38
341.85	1720.29
342.06	1763.30
342.27	1679.33
342.48	1779.68
342.69	1665.00
342.90	1736.68
343.12	1794.02
343.33	1665.00
343.54	1771.49
343.75	1761.25
343.96	1714.15
344.17	1626.09
344.38	1681.38
344.60	1585.13
344.81	1646.57
345.02	1726.44
345.23	1775.59
345.44	1837.03
345.65	1771.49
345.86	1691.62
346.07	1693.67
346.29	1691.62
346.50	1705.96
346.71	1759.21
346.92	1755.11
347.13	1810.40
347.34	1759.21
347.55	1673.19
347.76	1724.39
347.98	1640.42
348.19	1679.33
348.40	1775.59
348.61	1740.77
348.82	1869.80
349.03	1773.54
349.24	1634.28
349.45	1822.69
349.66	1544.17
349.88	1730.53
350.09	1726.44
350.30	1806.31
350.51	1789.92
350.72	1744.87
350.93	1687.53
351.14	1685.48
351.35	1697.77
351.56	1730.53
351.77	1701.86
351.99	1783.78
352.20	1767.40
352.41	1773.54
352.62	1576.94
352.83	1724.39
353.04	1734.63
353.25	1654.76
353.46	1802.21
353.67	1759.21
353.88	1691.62
354.09	1800.16
354.30	1644.52
354.52	1722.34
354.73	1751.01
354.94	1640.42
355.15	1699.81
355.36	1847.27
355.57	1628.14
355.78	1691.62
355.99	1705.96
356.20	1724.39
356.41	1771.49
356.62	1746.92
356.83	1769.44
357.04	1822.69
357.25	1558.50
357.46	1673.19
357.68	1628.14
357.89	1621.99
358.10	1705.96
358.31	1681.38
358.52	1794.02
358.73	1654.76
358.94	1591.27
359.15	1644.52
359.36	1791.97
359.57	1730.53
359.78	1718.25
359.99	1751.01
360.20	1660.90
360.41	1736.68
360.62	1767.40
360.83	1708.01
361.04	1716.20
361.25	1677.29
361.46	1740.77
361.67	1734.63
361.88	1820.64
362.09	1777.64
362.30	1728.49
362.51	1593.32
362.72	1683.43
362.93	1757.16
363.14	1755.11
363.35	1693.67
363.56	1687.53
363.78	1742.82
363.99	1785.83
364.20	1636.33
364.41	1693.67
364.62	1804.26
364.83	1681.38
365.04	1683.43
365.25	1730.53
365.46	1785.83
365.67	1632.23
365.88	1773.54
366.09	1712.10
366.30	1650.66
366.51	1701.86
366.72	1542.12
366.93	1699.81
367.14	1705.96
367.35	1855.46
367.56	1701.86
367.77	1759.21
367.98	1769.44
368.18	1734.63
368.39	1712.10
368.60	1662.95
368.81	1759.21
369.02	1708.01
369.23	1710.05
369.44	1617.90
369.65	1755.11
369.86	1753.06
370.07	1740.77
370.28	1665.00
370.49	1730.53
370.70	1767.40
370.91	1697.77
371.12	1744.87
371.33	1845.22
371.54	1769.44
371.75	1830.88
371.96	1605.61
372.17	1716.20
372.38	1718.25
372.59	1710.05
372.80	1667.05
373.01	1636.33
373.22	1736.68
373.43	1763.30
373.64	1621.99
373.85	1849.32
374.06	1873.89
374.26	1744.87
374.47	1755.11
374.68	1740.77
374.89	1671.14
375.10	1708.01
375.31	1826.79
375.52	1732.58
375.73	1722.34
375.94	1621.99
376.15	1804.26
376.36	1667.05
376.57	1724.39
376.78	1744.87
376.99	1687.53
377.20	1812.45
377.40	1640.42
377.61	1841.12
377.82	1699.81
378.03	1839.08
378.24	1720.29
378.45	1710.05
378.66	1718.25
378.87	1595.37
379.08	1644.52
379.29	1642.47
379.50	1804.26
379.71	1685.48
379.91	1730.53
380.12	1665.00
380.33	1718.25
380.54	1820.64
380.75	1718.25
380.96	1703.91
381.17	1738.73
381.38	1714.15
381.59	1779.68
381.80	1726.44
382.00	1837.03
382.21	1757.16
382.42	1861.60
382.63	1898.47
382.84	1820.64
383.05	1800.16
383.26	1775.59
383.47	1779.68
383.68	1675.24
383.88	1824.74
384.09	1738.73
384.30	1863.65
384.51	1710.05
384.72	1669.09
384.93	1656.81
385.14	1714.15
385.35	1787.88
385.55	1710.05
385.76	1832.93
385.97	1695.72
386.18	1730.53
386.39	1765.35
386.60	1718.25
386.81	1759.21
387.02	1681.38
387.22	1640.42
387.43	1863.65
387.64	1802.21
387.85	1904.61
388.06	2193.37
388.27	4704.18
388.48	9299.83
388.68	11607.89
388.89	13481.78
389.10	14165.80
389.31	12078.92
389.52	9912.17
389.73	8605.56
389.93	7792.52
390.14	7323.54
390.35	6610.84
390.56	5894.05
390.77	5033.91
390.98	3909.57
391.18	3166.16
391.39	2398.17
391.60	1935.33
391.81	1898.47
392.02	1742.82
392.23	1886.18
392.43	1779.68
392.64	1828.84
392.85	1746.92
393.06	1755.11
393.27	1771.49
393.47	1732.58
393.68	1746.92
393.89	1656.81
394.10	1742.82
394.31	1695.72
394.52	1714.15
394.72	1701.86
394.93	1744.87
395.14	1609.70
395.35	1705.96
395.56	1675.24
395.76	1742.82
395.97	1849.32
396.18	1826.79
396.39	1882.08
396.60	2080.74
396.80	1920.99
397.01	1894.37
397.22	1861.60
397.43	1898.47
397.64	1800.16
397.84	1818.60
398.05	1892.32
398.26	1748.97
398.47	1832.93
398.67	1796.07
398.88	1732.58
399.09	1804.26
399.30	1662.95
399.51	1740.77
399.71	1734.63
399.92	1695.72
400.13	1724.39
400.34	1755.11
400.54	1781.73
400.75	1839.08
400.96	1712.10
401.17	1742.82
401.37	1714.15
401.58	1654.76
401.79	1740.77
402.00	1898.47
402.21	2068.45
402.41	2105.31
402.62	2172.89
402.83	2115.55
403.04	2121.70
403.24	2101.22
403.45	1898.47
403.66	2029.54
403.87	1918.95
404.07	1968.10
404.28	2004.96
404.49	1955.81
404.70	1761.25
404.90	1828.84
405.11	1789.92
405.32	1755.11
405.52	1683.43
405.73	1701.86
405.94	1642.47
406.15	1660.90
406.35	1800.16
406.56	1763.30
406.77	1724.39
406.98	1751.01
407.18	1642.47
407.39	1834.98
407.60	1753.06
407.80	1710.05
408.01	1740.77
408.22	1765.35
408.43	1665.00
408.63	1687.53
408.84	1710.05
409.05	1734.63
409.25	1703.91
409.46	1740.77
409.67	1662.95
409.88	1712.10
410.08	1685.48
410.29	1619.94
410.50	1765.35
410.70	1779.68
410.91	1718.25
411.12	1718.25
411.32	1693.67
411.53	1714.15
411.74	1896.42
411.95	1834.98
412.15	1845.22
412.36	1839.08
412.57	1796.07
412.77	1832.93
412.98	1720.29
413.19	1753.06
413.39	1779.68
413.60	1775.59
413.81	1765.35
414.01	1718.25
414.22	1716.20
414.43	1812.45
414.63	1699.81
414.84	1759.21
415.05	1755.11
415.25	1677.29
415.46	1767.40
415.67	1708.01
415.87	1734.63
416.08	1748.97
416.29	1742.82
416.49	1720.29
416.70	1769.44
416.91	1703.91
417.11	1642.47
417.32	1785.83
417.53	1816.55
417.73	1781.73
417.94	1730.53
418.15	1767.40
418.35	1738.73
418.56	1642.47
418.77	1789.92
418.97	1714.15
419.18	1744.87
419.38	1546.22
419.59	1742.82
419.80	1785.83
420.00	1677.29
420.21	1787.88
420.42	1812.45
420.62	1886.18
420.83	1609.70
421.04	1722.34
421.24	1718.25
421.45	1779.68
421.65	1736.68
421.86	1673.19
422.07	1714.15
422.27	1746.92
422.48	1720.29
422.69	1718.25
422.89	1746.92
423.10	1726.44
423.30	1656.81
423.51	1728.49
423.72	1667.05
423.92	1736.68
424.13	1632.23
424.33	1718.25
424.54	1769.44
424.75	1681.38
424.95	1798.12
425.16	1716.20
425.36	1695.72
425.57	1726.44
425.78	1751.01
425.98	1806.31
426.19	1662.95
426.39	1701.86
426.60	1771.49
426.81	1796.07
427.01	1712.10
427.22	1675.24
427.42	1644.52
427.63	1667.05
427.83	1767.40
428.04	1781.73
428.25	1796.07
428.45	1787.88
428.66	1779.68
428.86	1714.15
429.07	1710.05
429.28	1738.73
429.48	1687.53
429.69	1679.33
429.89	1689.57
430.10	1656.81
430.30	1708.01
430.51	1724.39
430.71	1726.44
430.92	1714.15
431.13	1703.91
431.33	1675.24
431.54	1757.16
431.74	1802.21
431.95	1791.97
432.15	1593.32
432.36	1665.00
432.56	1830.88
432.77	1755.11
432.98	1894.37
433.18	1722.34
433.39	1671.14
433.59	1646.57
433.80	1775.59
434.00	1843.17
434.21	1675.24
434.41	1708.01
434.62	1796.07
434.82	1687.53
435.03	1679.33
435.23	1748.97
435.44	1658.85
435.64	1689.57
435.85	1775.59
436.06	1724.39
436.26	1738.73
436.47	1800.16
436.67	1665.00
436.88	1732.58
437.08	1777.64
437.29	1781.73
437.49	1763.30
437.70	1730.53
437.90	1619.94
438.11	1755.11
438.31	1822.69
438.52	1882.08
438.72	1841.12
438.93	1877.99
439.13	1804.26
439.34	1828.84
439.54	1767.40
439.75	1796.07
439.95	1781.73
440.16	1716.20
440.36	1828.84
440.57	1742.82
440.77	1703.91
440.98	1703.91
441.18	1697.77
441.39	1656.81
441.59	1681.38
441.80	1820.64
442.00	1785.83
442.21	1812.45
442.41	1652.71
442.62	1773.54
442.82	1753.06
443.02	1753.06
443.23	1781.73
443.43	1619.94
443.64	1767.40
443.84	1681.38
444.05	1775.59
444.25	1646.57
444.46	1665.00
444.66	1734.63
444.87	1822.69
445.07	1640.42
445.28	1849.32
445.48	1810.40
445.69	1826.79
445.89	1890.28
446.09	1773.54
446.30	1988.58
446.50	2533.34
446.71	4130.75
446.91	5185.46
447.12	5750.70
447.32	6082.47
447.53	5423.02
447.73	4403.13
447.93	4022.21
448.14	3641.29
448.34	3502.03
448.55	3123.15
448.75	3127.25
448.96	3004.37
449.16	2635.74
449.36	2453.47
449.57	2215.90
449.77	1931.23
449.98	1779.68
450.18	1808.36
450.39	1832.93
450.59	1853.41
450.79	1751.01
451.00	1695.72
451.20	1730.53
451.41	1738.73
451.61	1783.78
451.81	1736.68
452.02	1665.00
452.22	1669.09
452.43	1691.62
452.63	1691.62
452.84	1779.68
453.04	1763.30
453.24	1757.16
453.45	1687.53
453.65	1808.36
453.86	1722.34
454.06	1740.77
454.26	1714.15
454.47	1712.10
454.67	1845.22
454.87	1728.49
455.08	1779.68
455.28	1837.03
455.49	1738.73
455.69	1697.77
455.89	1773.54
456.10	1716.20
456.30	1691.62
456.51	1791.97
456.71	1718.25
456.91	1759.21
457.12	1712.10
457.32	1744.87
457.52	1693.67
457.73	1734.63
457.93	1742.82
458.14	1775.59
458.34	1644.52
458.54	1667.05
458.75	1699.81
458.95	1765.35
459.15	1722.34
459.36	1810.40
459.56	1763.30
459.76	1839.08
459.97	1691.62
460.17	1716.20
460.37	1816.55
460.58	1726.44
460.78	1695.72
460.99	1740.77
461.19	1646.57
461.39	1660.90
461.60	1748.97
461.80	1736.68
462.00	1656.81
462.21	1744.87
462.41	1677.29
462.61	1640.42
462.82	1642.47
463.02	1728.49
463.22	1648.61
463.43	1863.65
463.63	1693.67
463.83	1761.25
464.04	1740.77
464.24	1777.64
464.44	1746.92
464.64	1689.57
464.85	1675.24
465.05	1751.01
465.25	1773.54
465.46	1646.57
465.66	1765.35
465.86	1714.15
466.07	1800.16
466.27	1736.68
466.47	1617.90
466.68	1626.09
466.88	1869.80
467.08	1781.73
467.29	1779.68
467.49	1837.03
467.69	1718.25
467.89	1744.87
468.10	1693.67
468.30	1740.77
468.50	1763.30
468.71	1826.79
468.91	1673.19
469.11	1896.42
469.31	1730.53
469.52	1697.77
469.72	1800.16
469.92	1800.16
470.13	1714.15
470.33	1791.97
470.53	1820.64
470.73	2103.26
470.94	2602.97
471.14	2680.79
471.34	2949.08
471.54	2877.40
471.75	2521.05
471.95	2373.60
472.15	2179.04
472.36	2156.51
472.56	2215.90
472.76	2207.71
472.96	2082.78
473.17	2021.35
473.37	1933.28
473.57	1820.64
473.77	1853.41
473.98	1787.88
474.18	1677.29
474.38	1918.95
474.58	1759.21
474.79	1753.06
474.99	1763.30
475.19	1791.97
475.39	1667.05
475.60	1765.35
475.80	1724.39
476.00	1746.92
476.20	1753.06
476.41	1703.91
476.61	1816.55
476.81	1732.58
477.01	1708.01
477.21	1949.67
477.42	1746.92
477.62	1703.91
477.82	1728.49
478.02	1751.01
478.23	1736.68
478.43	1595.37
478.63	1673.19
478.83	1699.81
479.03	1710.05
479.24	1765.35
479.44	1888.23
479.64	1734.63
479.84	1599.46
480.04	1636.33
480.25	1769.44
480.45	1593.32
480.65	1804.26
480.85	1812.45
481.06	1763.30
481.26	1794.02
481.46	1675.24
481.66	1710.05
481.86	1740.77
482.06	1718.25
482.27	1701.86
482.47	1669.09
482.67	1726.44
482.87	1681.38
483.07	1853.41
483.28	1656.81
483.48	1681.38
483.68	1712.10
483.88	1679.33
484.08	1597.42
484.29	1665.00
484.49	1751.01
484.69	1675.24
484.89	1822.69
485.09	1722.34
485.29	1787.88
485.50	1765.35
485.70	1708.01
485.90	1898.47
486.10	1701.86
486.30	1751.01
486.50	1830.88
486.71	1714.15
486.91	1777.64
487.11	1751.01
487.31	1636.33
487.51	1662.95
487.71	1665.00
487.91	1738.73
488.12	1667.05
488.32	1599.46
488.52	1652.71
488.72	1599.46
488.92	1699.81
489.12	1755.11
489.32	1771.49
489.53	1769.44
489.73	1673.19
489.93	1771.49
490.13	1718.25
490.33	1570.79
490.53	1767.40
490.73	1765.35
490.94	1679.33
491.14	1816.55
491.34	1802.21
491.54	2086.88
491.74	2740.18
491.94	3164.11
492.14	3459.02
492.34	3608.52
492.54	3268.56
492.75	2764.76
492.95	2680.79
493.15	2424.80
493.35	2299.87
493.55	2324.44
493.75	2230.24
493.95	2279.39
494.15	2105.31
494.35	1918.95
494.56	1935.33
494.76	1824.74
494.96	1818.60
495.16	1800.16
495.36	1779.68
495.56	1701.86
495.76	1652.71
495.96	1748.97
496.16	1710.05
496.36	1886.18
496.56	1720.29
496.77	1710.05
496.97	1765.35
497.17	1759.21
497.37	1769.44
497.57	1755.11
497.77	1759.21
497.97	1679.33
498.17	1789.92
498.37	1732.58
498.57	1722.34
498.77	1730.53
498.97	1779.68
499.17	1804.26
499.38	1712.10
499.58	1800.16
499.78	1771.49
499.98	1699.81
500.18	1785.83
500.38	1738.73
500.58	1896.42
500.78	2465.75
500.98	4650.94
501.18	6584.22
501.38	7960.45
501.58	9072.50
501.78	8841.08
501.98	6815.64
502.18	5834.66
502.38	4966.32
502.58	4648.89
502.78	4091.84
502.98	3930.05
503.18	3784.65
503.38	3555.27
503.59	3180.50
503.79	2895.83
503.99	2686.94
504.19	2396.12
504.39	2320.35
504.59	2365.40
504.79	2330.59
504.99	2232.29
505.19	2031.58
505.39	1984.48
505.59	2105.31
505.79	1959.91
505.99	1894.37
506.19	1875.94
506.39	1906.66
506.59	1869.80
506.79	1718.25
506.99	1873.89
507.19	1812.45
507.39	1751.01
507.59	1619.94
507.79	1677.29
507.99	1765.35
508.19	1757.16
508.39	1705.96
508.59	1777.64
508.79	1853.41
508.99	1865.70
509.19	1640.42
509.39	1685.48
509.59	1671.14
509.79	1665.00
509.99	1738.73
510.19	1763.30
510.39	1677.29
510.59	1720.29
510.79	1708.01
510.99	1669.09
511.19	1753.06
511.39	1787.88
511.59	1744.87
511.79	1863.65
511.99	1779.68
512.19	1794.02
512.38	1701.86
512.58	1728.49
512.78	1757.16
512.98	1822.69
513.18	1787.88
513.38	1636.33
513.58	1798.12
513.78	1687.53
513.98	1710.05
514.18	1767.40
514.38	1785.83
514.58	1767.40
514.78	1650.66
514.98	1724.39
515.18	1718.25
515.38	1744.87
515.58	1818.60
515.78	1634.28
515.98	1767.40
516.18	1681.38
516.38	1703.91
516.57	1736.68
516.77	1675.24
516.97	1791.97
517.17	1677.29
517.37	1716.20
517.57	1828.84
517.77	1724.39
517.97	1665.00
518.17	1849.32
518.37	1738.73
518.57	1759.21
518.77	1681.38
518.97	1681.38
519.16	1779.68
519.36	1820.64
519.56	1650.66
519.76	1683.43
519.96	1755.11
520.16	1806.31
520.36	1728.49
520.56	1839.08
520.76	1599.46
520.96	1732.58
521.16	1798.12
521.35	1812.45
521.55	1830.88
521.75	1724.39
521.95	1681.38
522.15	1765.35
522.35	1691.62
522.55	1728.49
522.75	1826.79
522.95	1660.90
523.14	1705.96
523.34	1828.84
523.54	1726.44
523.74	1798.12
523.94	1828.84
524.14	1603.56
524.34	1873.89
524.54	1841.12
524.73	1730.53
524.93	1728.49
525.13	1787.88
525.33	1640.42
525.53	1855.46
525.73	1785.83
525.93	1689.57
526.13	1746.92
526.32	1759.21
526.52	1742.82
526.72	1849.32
526.92	1685.48
527.12	1730.53
527.32	1671.14
527.52	1720.29
527.71	1789.92
527.91	1830.88
528.11	1744.87
528.31	1785.83
528.51	1656.81
528.71	1806.31
528.90	1853.41
529.10	1775.59
529.30	1779.68
529.50	1675.24
529.70	1632.23
529.90	1687.53
530.09	1769.44
530.29	1716.20
530.49	1722.34
530.69	1918.95
530.89	1673.19
531.09	1779.68
531.28	1650.66
531.48	1816.55
531.68	1753.06
531.88	1843.17
532.08	1787.88
532.28	1712.10
532.47	1779.68
532.67	1828.84
532.87	1816.55
533.07	1691.62
533.27	1828.84
533.46	1771.49
533.66	1771.49
533.86	1757.16
534.06	1794.02
534.26	1820.64
534.45	1665.00
534.65	1781.73
534.85	1738.73
535.05	1730.53
535.25	1841.12
535.44	1624.04
535.64	1748.97
535.84	1779.68
536.04	1726.44
536.24	1720.29
536.43	1689.57
536.63	1736.68
536.83	1732.58
537.03	1734.63
537.22	1708.01
537.42	1583.08
537.62	1669.09
537.82	1732.58
538.02	1804.26
538.21	1783.78
538.41	1873.89
538.61	1834.98
538.81	1822.69
539.00	1787.88
539.20	1712.10
539.40	1798.12
539.60	1748.97
539.79	1800.16
539.99	1599.46
540.19	1691.62
540.39	1818.60
540.58	1705.96
540.78	1755.11
540.98	1732.58
541.18	1843.17
541.37	1822.69
541.57	1673.19
541.77	1691.62
541.97	1656.81
542.16	1697.77
542.36	1755.11
542.56	1742.82
542.76	1875.94
542.95	1822.69
543.15	1767.40
543.35	1810.40
543.54	1693.67
543.74	1665.00
543.94	1802.21
544.14	1699.81
544.33	1834.98
544.53	1708.01
544.73	1759.21
544.93	1732.58
545.12	1763.30
545.32	1687.53
545.52	1748.97
545.71	1667.05
545.91	1701.86
546.11	1701.86
546.30	1691.62
546.50	1744.87
546.70	1763.30
546.90	1740.77
547.09	1554.41
547.29	1673.19
547.49	1791.97
547.68	1724.39
547.88	1738.73
548.08	1673.19
548.27	2158.56
548.47	1677.29
548.67	1755.11
548.87	1791.97
549.06	1683.43
549.26	1779.68
549.46	1767.40
549.65	1689.57
549.85	1767.40
550.05	1779.68
550.24	1689.57
550.44	1820.64
550.64	1738.73
550.83	1830.88
551.03	1802.21
551.23	1843.17
551.42	1757.16
551.62	1730.53
551.82	1748.97
552.01	1726.44
552.21	1777.64
552.41	1759.21
552.60	1853.41
552.80	1732.58
553.00	1732.58
553.19	1767.40
553.39	1757.16
553.59	1683.43
553.78	1734.63
553.98	1791.97
554.17	1683.43
554.37	1732.58
554.57	1779.68
554.76	1738.73
554.96	1695.72
555.16	1761.25
555.35	1796.07
555.55	1722.34
555.75	1699.81
555.94	1812.45
556.14	1665.00
556.33	1716.20
556.53	1785.83
556.73	1671.14
556.92	1828.84
557.12	1867.75
557.32	1773.54
557.51	1929.19
557.71	1806.31
557.90	1830.88
558.10	1826.79
558.30	1740.77
558.49	1777.64
558.69	1675.24
558.88	1779.68
559.08	1763.30
559.28	1701.86
559.47	1787.88
559.67	1785.83
559.86	1871.84
560.06	1767.40
560.26	1748.97
560.45	1705.96
560.65	1753.06
560.84	1699.81
561.04	1677.29
561.24	1802.21
561.43	1650.66
561.63	1791.97
561.82	1845.22
562.02	1781.73
562.22	1722.34
562.41	1658.85
562.61	1695.72
562.80	1734.63
563.00	1818.60
563.19	1716.20
563.39	1738.73
563.59	1730.53
563.78	1673.19
563.98	1595.37
564.17	1665.00
564.37	1632.23
564.56	1751.01
564.76	1660.90
564.96	1779.68
565.15	1726.44
565.35	1800.16
565.54	1744.87
565.74	1822.69
565.93	1730.53
566.13	1705.96
566.32	1812.45
566.52	1765.35
566.71	1763.30
566.91	1855.46
567.11	1722.34
567.30	1632.23
567.50	1845.22
567.69	1789.92
567.89	1773.54
568.08	1724.39
568.28	1744.87
568.47	1634.28
568.67	1757.16
568.86	1636.33
569.06	1777.64
569.25	1775.59
569.45	1710.05
569.64	1646.57
569.84	1759.21
570.04	1714.15
570.23	1705.96
570.43	1722.34
570.62	1673.19
570.82	1828.84
571.01	1703.91
571.21	1714.15
571.40	1746.92
571.60	1798.12
571.79	1736.68
571.99	1712.10
572.18	1646.57
572.38	1740.77
572.57	1746.92
572.77	1794.02
572.96	1859.56
573.16	1847.27
573.35	1755.11
573.55	1808.36
573.74	1777.64
573.94	1748.97
574.13	1734.63
574.33	1763.30
574.52	1796.07
574.71	1724.39
574.91	1771.49
575.10	1652.71
575.30	1716.20
575.49	1726.44
575.69	1667.05
575.88	1808.36
576.08	1757.16
576.27	1906.66
576.47	1867.75
576.66	1886.18
576.86	1845.22
577.05	1746.92
577.25	1789.92
577.44	1939.43
577.64	1685.48
577.83	1804.26
578.02	1734.63
578.22	1822.69
578.41	1845.22
578.61	1689.57
578.80	1722.34
579.00	1755.11
579.19	1667.05
579.39	1804.26
579.58	1798.12
579.77	1855.46
579.97	1865.70
580.16	1845.22
580.36	1832.93
580.55	1902.56
580.75	1730.53
580.94	1834.98
581.13	1884.13
581.33	1814.50
581.52	1873.89
581.72	1914.85
581.91	1863.65
582.11	1791.97
582.30	1828.84
582.49	1812.45
582.69	1812.45
582.88	1771.49
583.08	1755.11
583.27	1851.36
583.47	1775.59
583.66	1763.30
583.85	1710.05
584.05	1734.63
584.24	1837.03
584.44	1886.18
584.63	1794.02
584.82	1861.60
585.02	1851.36
585.21	1849.32
585.41	1918.95
585.60	1863.65
585.79	2000.87
585.99	1945.57
586.18	2009.06
586.37	2230.24
586.57	3362.76
586.76	9770.86
586.96	27076.19
587.15	42106.24
587.34	52094.18
587.54	57613.46
587.73	56177.83
587.93	40496.53
588.12	29713.98
588.31	23840.40
588.51	20438.73
588.70	18392.81
588.89	17078.01
589.09	15755.02
589.28	13618.99
589.47	11665.23
589.67	9588.59
589.86	7462.80
590.06	5492.65
590.25	4214.72
590.44	3274.70
590.64	2590.68
590.83	2195.42
591.02	2115.55
591.22	1986.53
591.41	1880.04
591.60	1910.75
591.80	1912.80
591.99	1714.15
592.18	1828.84
592.38	1824.74
592.57	1697.77
592.76	1853.41
592.96	1771.49
593.15	1877.99
593.34	1896.42
593.54	1740.77
593.73	1806.31
593.92	1798.12
594.12	1763.30
594.31	1918.95
594.50	1894.37
594.70	1898.47
594.89	1904.61
595.08	1771.49
595.28	1865.70
595.47	1968.10
595.66	1759.21
595.86	1654.76
596.05	1771.49
596.24	1703.91
596.43	1886.18
596.63	1828.84
596.82	1820.64
597.01	1800.16
597.21	1949.67
597.40	1748.97
597.59	1783.78
597.79	1734.63
597.98	1798.12
598.17	1728.49
598.36	1751.01
598.56	1757.16
598.75	1728.49
598.94	1775.59
599.14	1841.12
599.33	1718.25
599.52	1689.57
599.71	1783.78
599.91	1816.55
600.10	1789.92
600.29	1759.21
600.48	1847.27
600.68	1841.12
600.87	1775.59
601.06	1656.81
601.26	1775.59
601.45	1779.68
601.64	1732.58
601.83	1816.55
602.03	1726.44
602.22	1665.00
602.41	1845.22
602.60	1914.85
602.80	1828.84
602.99	1746.92
603.18	1722.34
603.37	1751.01
603.57	1806.31
603.76	1828.84
603.95	1794.02
604.14	1722.34
604.34	1732.58
604.53	1732.58
604.72	1759.21
604.91	1820.64
605.10	1740.77
605.30	1601.51
605.49	1796.07
605.68	1828.84
605.87	1843.17
606.07	1634.28
606.26	1748.97
606.45	1716.20
606.64	1746.92
606.84	1783.78
607.03	1783.78
607.22	1820.64
607.41	1812.45
607.60	1855.46
607.80	1810.40
607.99	1703.91
608.18	1863.65
608.37	1871.84
608.56	1783.78
608.76	1863.65
608.95	1851.36
609.14	1853.41
609.33	1904.61
609.52	1789.92
609.72	1908.71
609.91	1896.42
610.10	1830.88
610.29	1771.49
610.48	1818.60
610.68	1722.34
610.87	1701.86
611.06	1812.45
611.25	1691.62
611.44	1877.99
611.63	1683.43
611.83	1759.21
612.02	1607.66
612.21	1810.40
612.40	1693.67
612.59	1656.81
612.79	1656.81
612.98	1757.16
613.17	1871.84
613.36	1712.10
613.55	1871.84
613.74	1834.98
613.93	1851.36
614.13	1914.85
614.32	1935.33
614.51	1931.23
614.70	1880.04
614.89	1761.25
615.08	1798.12
615.28	2088.93
615.47	1779.68
615.66	1837.03
615.85	1789.92
616.04	1898.47
616.23	1773.54
616.42	1814.50
616.62	1796.07
616.81	1824.74
617.00	1734.63
617.19	1742.82
617.38	1736.68
617.57	1785.83
617.76	1761.25
617.95	1783.78
618.15	1839.08
618.34	1894.37
618.53	1648.61
618.72	1718.25
618.91	1791.97
619.10	1796.07
619.29	1701.86
619.48	1722.34
619.68	1644.52
619.87	1722.34
620.06	1632.23
620.25	1806.31
620.44	1724.39
620.63	1667.05
620.82	1824.74
621.01	1779.68
621.20	1804.26
621.39	1843.17
621.59	1755.11
621.78	1802.21
621.97	1716.20
622.16	1710.05
622.35	1785.83
622.54	1857.51
622.73	1794.02
622.92	1705.96
623.11	1804.26
623.30	1689.57
623.49	1732.58
623.68	1732.58
623.88	1843.17
624.07	1691.62
624.26	1718.25
624.45	1767.40
624.64	1724.39
624.83	1714.15
625.02	1679.33
625.21	1730.53
625.40	1746.92
625.59	1800.16
625.78	1683.43
625.97	1830.88
626.16	1830.88
626.35	1880.04
626.54	1775.59
626.74	1828.84
626.93	1744.87
627.12	1763.30
627.31	1873.89
627.50	1822.69
627.69	1794.02
627.88	1773.54
628.07	1675.24
628.26	1654.76
628.45	1722.34
628.64	1728.49
628.83	1796.07
629.02	1644.52
629.21	1800.16
629.40	1734.63
629.59	1626.09
629.78	1763.30
629.97	1763.30
630.16	1865.70
630.35	1753.06
630.54	1691.62
630.73	1681.38
630.92	1789.92
631.11	1720.29
631.30	1736.68
631.49	1718.25
631.68	1757.16
631.87	1763.30
632.06	1652.71
632.25	1804.26
632.44	1740.77
632.63	1787.88
632.82	1755.11
633.01	1779.68
633.20	1773.54
633.39	1738.73
633.58	1791.97
633.77	1894.37
633.96	1812.45
634.15	1845.22
634.34	1779.68
634.53	1757.16
634.72	1791.97
634.91	1636.33
635.10	1693.67
635.29	1720.29
635.48	1763.30
635.67	1730.53
635.86	1667.05
636.05	1837.03
636.24	1699.81
636.43	1726.44
636.62	1656.81
636.81	1599.46
637.00	1697.77
637.19	1771.49
637.38	1722.34
637.57	1738.73
637.76	1746.92
637.95	1804.26
638.14	1781.73
638.33	1832.93
638.52	1828.84
638.71	1767.40
638.89	1665.00
639.08	1853.41
639.27	1804.26
639.46	1904.61
639.65	2256.86
639.84	2267.10
640.03	2404.32
640.22	2336.73
640.41	2394.08
640.60	2090.98
640.79	2080.74
640.98	1863.65
641.17	1935.33
641.36	1908.71
641.55	1839.08
641.74	1748.97
641.92	1781.73
642.11	1742.82
642.30	1720.29
642.49	1728.49
642.68	1798.12
642.87	1781.73
643.06	1714.15
643.25	1736.68
643.44	1640.42
643.63	1712.10
643.82	1771.49
644.00	1718.25
644.19	1791.97
644.38	1638.38
644.57	1734.63
644.76	1720.29
644.95	1656.81
645.14	1763.30
645.33	1681.38
645.52	1742.82
645.71	1703.91
645.89	1695.72
646.08	1701.86
646.27	1771.49
646.46	1810.40
646.65	1724.39
646.84	1646.57
647.03	1730.53
647.22	1667.05
647.40	1632.23
647.59	1738.73
647.78	1667.05
647.97	1685.48
648.16	1646.57
648.35	1822.69
648.54	1724.39
648.73	1712.10
648.91	1832.93
649.10	1703.91
649.29	1759.21
649.48	1634.28
649.67	1697.77
649.86	1775.59
650.05	1816.55
650.23	1923.04
650.42	1802.21
650.61	2000.87
650.80	1916.90
650.99	1984.48
651.18	1875.94
651.36	1834.98
651.55	1757.16
651.74	1775.59
651.93	1742.82
652.12	1730.53
652.31	1687.53
652.49	1708.01
652.68	1822.69
652.87	1759.21
653.06	1689.57
653.25	1892.32
653.44	1769.44
653.62	1830.88
653.81	1718.25
654.00	1728.49
654.19	1787.88
654.38	1826.79
654.56	1691.62
654.75	1759.21
654.94	1779.68
655.13	1769.44
655.32	1705.96
655.51	1710.05
655.69	1738.73
655.88	1751.01
656.07	1730.53
656.26	1771.49
656.45	1679.33
656.63	1734.63
656.82	1777.64
657.01	1744.87
657.20	1658.85
657.38	1763.30
657.57	1757.16
657.76	1617.90
657.95	1730.53
658.14	1740.77
658.32	1771.49
658.51	1665.00
658.70	1720.29
658.89	1744.87
659.08	1761.25
659.26	1861.60
659.45	1669.09
659.64	1728.49
659.83	1693.67
660.01	1980.39
660.20	1777.64
660.39	1828.84
660.58	1734.63
660.76	1841.12
660.95	1576.94
661.14	1712.10
661.33	1724.39
661.51	1648.61
661.70	1724.39
661.89	1779.68
662.08	1697.77
662.26	1679.33
662.45	1665.00
662.64	1839.08
662.83	1775.59
663.01	1634.28
663.20	1648.61
663.39	1757.16
663.58	1689.57
663.76	1714.15
663.95	1738.73
664.14	1779.68
664.32	1689.57
664.51	1748.97
664.70	1624.04
664.89	1691.62
665.07	1685.48
665.26	1794.02
665.45	1683.43
665.64	1765.35
665.82	1701.86
666.01	1740.77
666.20	1685.48
666.38	1841.12
666.57	1843.17
666.76	2258.91
666.95	4603.83
667.13	11691.85
667.32	18284.26
667.51	22468.27
667.69	25323.13
667.88	25558.65
668.07	19832.53
668.25	14532.39
668.44	11622.22
668.63	9756.52
668.81	8658.81
669.00	7726.99
669.19	6918.04
669.38	6154.15
669.56	5269.42
669.75	4550.59
669.94	3848.13
670.12	3043.28
670.31	2676.70
670.50	2371.55
670.68	2058.21
670.87	2043.87
671.06	1841.12
671.24	1820.64
671.43	1894.37
671.62	1800.16
671.80	1787.88
671.99	1816.55
672.18	1816.55
672.36	1732.58
672.55	1726.44
672.74	1761.25
672.92	1708.01
673.11	1818.60
673.29	1660.90
673.48	1730.53
673.67	1697.77
673.85	1798.12
674.04	1718.25
674.23	1744.87
674.41	1820.64
674.60	1693.67
674.79	1679.33
674.97	1726.44
675.16	1818.60
675.34	1830.88
675.53	1626.09
675.72	1697.77
675.90	1849.32
676.09	1705.96
676.28	1818.60
676.46	1640.42
676.65	1796.07
676.83	1665.00
677.02	1744.87
677.21	1783.78
677.39	1751.01
677.58	1605.61
677.77	1730.53
677.95	1689.57
678.14	1716.20
678.32	1728.49
678.51	1691.62
678.70	1890.28
678.88	1730.53
679.07	1783.78
679.25	1724.39
679.44	1687.53
679.63	1675.24
679.81	1677.29
680.00	1722.34
680.18	1746.92
680.37	1765.35
680.55	1703.91
680.74	1640.42
680.93	1636.33
681.11	1665.00
681.30	1759.21
681.48	1705.96
681.67	1802.21
681.85	1837.03
682.04	1619.94
682.23	1783.78
682.41	1708.01
682.60	1701.86
682.78	1626.09
682.97	1626.09
683.15	1738.73
683.34	1722.34
683.53	1820.64
683.71	1648.61
683.90	1841.12
684.08	1779.68
684.27	1726.44
684.45	1724.39
684.64	1826.79
684.82	1681.38
685.01	1730.53
685.19	1705.96
685.38	1728.49
685.57	1695.72
685.75	1714.15
685.94	1755.11
686.12	1755.11
686.31	1660.90
686.49	1855.46
686.68	1585.13
686.86	1687.53
687.05	1701.86
687.23	1800.16
687.42	1699.81
687.60	1601.51
687.79	1781.73
687.97	1779.68
688.16	1730.53
688.34	1726.44
688.53	1636.33
688.71	1710.05
688.90	1728.49
689.08	1751.01
689.27	1650.66
689.45	1755.11
689.64	1748.97
689.82	1755.11
690.01	1728.49
690.19	1777.64
690.38	1693.67
690.56	1751.01
690.75	1658.85
690.93	1660.90
691.12	1738.73
691.30	1738.73
691.49	1701.86
691.67	1673.19
691.86	1818.60
692.04	1689.57
692.23	1769.44
692.41	1763.30
692.60	1880.04
692.78	1832.93
692.97	1740.77
693.15	1818.60
693.34	1855.46
693.52	1779.68
693.71	1730.53
693.89	1773.54
694.08	1673.19
694.26	1816.55
694.44	1808.36
694.63	1710.05
694.81	1644.52
695.00	1716.20
695.18	1875.94
695.37	1837.03
695.55	1767.40
695.74	1691.62
695.92	1683.43
696.10	1763.30
696.29	1632.23
696.47	1660.90
696.66	1695.72
696.84	1646.57
697.03	1714.15
697.21	1839.08
697.40	2285.53
697.58	1730.53
697.76	1724.39
697.95	1708.01
698.13	1656.81
698.32	1746.92
698.50	1720.29
698.68	1751.01
698.87	1638.38
699.05	1777.64
699.24	1751.01
699.42	1689.57
699.61	1820.64
699.79	1714.15
699.97	1769.44
700.16	1673.19
700.34	1665.00
700.53	1763.30
700.71	1826.79
700.89	1759.21
701.08	1718.25
701.26	1769.44
701.45	2105.31
701.63	1669.09
701.81	1716.20
702.00	1724.39
702.18	1693.67
702.37	1667.05
702.55	1812.45
702.73	1896.42
702.92	1808.36
703.10	2123.74
703.28	1996.77
703.47	1882.08
703.65	1871.84
703.84	1892.32
704.02	1806.31
704.20	1822.69
704.39	1775.59
704.57	1716.20
704.75	1785.83
704.94	1871.84
705.12	1773.54
705.30	1869.80
705.49	2521.05
705.67	5441.45
705.86	13268.79
706.04	19291.87
706.22	22818.47
706.41	25144.96
706.59	24987.27
706.77	19123.93
706.96	13700.91
707.14	11800.40
707.32	10274.66
707.51	9181.04
707.69	7810.95
707.87	6801.30
708.06	5537.71
708.24	4458.43
708.42	3332.05
708.61	2781.14
708.79	2236.38
708.97	2086.88
709.16	1882.08
709.34	1812.45
709.52	1773.54
709.71	1712.10
709.89	1865.70
710.07	1681.38
710.26	1656.81
710.44	1759.21
710.62	1740.77
710.80	1765.35
710.99	1701.86
711.17	1767.40
711.35	1621.99
711.54	1667.05
711.72	1785.83
711.90	1697.77
712.09	1755.11
712.27	1720.29
712.45	1818.60
712.63	1669.09
712.82	1771.49
713.00	1720.29
713.18	1808.36
713.37	1818.60
713.55	1746.92
713.73	1789.92
713.91	1755.11
714.10	1665.00
714.28	1669.09
714.46	1734.63
714.65	1703.91
714.83	1673.19
715.01	1634.28
715.19	1757.16
715.38	1677.29
715.56	1714.15
715.74	1597.42
715.92	1720.29
716.11	1677.29
716.29	1654.76
716.47	1718.25
716.65	1701.86
716.84	1642.47
717.02	1777.64
717.20	1619.94
717.38	1687.53
717.57	1742.82
717.75	1761.25
717.93	1675.24
718.11	1818.60
718.30	1632.23
718.48	1779.68
718.66	1777.64
718.84	1808.36
719.03	1687.53
719.21	1689.57
719.39	1828.84
719.57	1740.77
719.75	1828.84
719.94	1654.76
720.12	1693.67
720.30	1705.96
720.48	1759.21
720.67	1755.11
720.85	1656.81
721.03	1738.73
721.21	1662.95
721.39	1787.88
721.58	1714.15
721.76	1771.49
721.94	1794.02
722.12	1742.82
722.30	1849.32
722.49	1650.66
722.67	1724.39
722.85	1769.44
723.03	1644.52
723.21	1693.67
723.40	1759.21
723.58	1832.93
723.76	1832.93
723.94	1794.02
724.12	1718.25
724.30	1822.69
724.49	1814.50
724.67	1699.81
724.85	1832.93
725.03	1732.58
725.21	1777.64
725.40	1818.60
725.58	1734.63
725.76	1798.12
725.94	1740.77
726.12	1634.28
726.30	1705.96
726.49	1755.11
726.67	1720.29
726.85	1687.53
727.03	1816.55
727.21	2308.06
727.39	3401.68
727.57	4880.31
727.76	5547.95
727.94	6217.63
728.12	6391.71
728.30	5631.91
728.48	4407.23
728.66	3993.54
728.84	3622.86
729.03	3112.91
729.21	2865.11
729.39	2523.10
729.57	2148.32
729.75	1910.75
729.93	1861.60
730.11	1767.40
730.30	1718.25
730.48	1751.01
730.66	1775.59
730.84	1857.51
731.02	1720.29
731.20	1748.97
731.38	1740.77
731.56	1640.42
731.74	1675.24
731.93	1742.82
732.11	1701.86
732.29	1705.96
732.47	1710.05
732.65	1677.29
732.83	1773.54
733.01	1746.92
733.19	1646.57
733.37	1710.05
733.56	1781.73
733.74	1722.34
733.92	1794.02
734.10	1685.48
734.28	1728.49
734.46	1650.66
734.64	1705.96
734.82	1675.24
735.00	1705.96
735.18	1724.39
735.36	1744.87
735.54	1753.06
735.73	1753.06
735.91	1720.29
736.09	1796.07
736.27	1679.33
736.45	1779.68
736.63	1652.71
736.81	1662.95
736.99	1740.77
737.17	1812.45
737.35	1757.16
737.53	1753.06
737.71	1683.43
737.89	1732.58
738.07	1665.00
738.25	1615.85
738.43	1591.27
738.61	1665.00
738.80	1712.10
738.98	1669.09
739.16	1712.10
739.34	1699.81
739.52	1818.60
739.70	1746.92
739.88	1773.54
740.06	1751.01
740.24	1603.56
740.42	1812.45
740.60	1615.85
740.78	1701.86
740.96	1607.66
741.14	1718.25
741.32	1654.76
741.50	1628.14
741.68	1818.60
741.86	1730.53
742.04	1607.66
742.22	1705.96
742.40	1818.60
742.58	1705.96
742.76	1615.85
742.94	1791.97
743.12	1667.05
743.30	1650.66
743.48	1693.67
743.66	1732.58
743.84	1783.78
744.02	1687.53
744.20	1767.40
744.38	1697.77
744.56	1699.81
744.74	1769.44
744.92	1748.97
745.10	1751.01
745.28	1775.59
745.46	1751.01
745.64	1726.44
745.82	1716.20
746.00	1665.00
746.18	1718.25
746.36	1705.96
746.54	1742.82
746.72	1695.72
746.90	1705.96
747.08	1759.21
747.26	1761.25
747.44	1751.01
747.62	1789.92
747.80	1720.29
747.98	1744.87
748.15	1689.57
748.33	1685.48
748.51	1753.06
748.69	1779.68
748.87	1730.53
749.05	1712.10
749.23	1783.78
749.41	1751.01
749.59	1705.96
749.77	1794.02
749.95	1665.00
750.13	1650.66
750.31	1798.12
750.49	1720.29
750.67	1785.83
750.85	1744.87
751.03	1746.92
751.20	1851.36
751.38	1732.58
751.56	1685.48
751.74	1701.86
751.92	1669.09
752.10	1646.57
752.28	1675.24
752.46	1656.81
752.64	1740.77
752.82	1718.25
753.00	1665.00
753.18	1660.90
753.35	1673.19
753.53	1705.96
753.71	1687.53
753.89	1736.68
754.07	1736.68
754.25	1744.87
754.43	1748.97
754.61	1648.61
754.79	1824.74
754.97	1755.11
755.14	1818.60
755.32	1679.33
755.50	1718.25
755.68	1832.93
755.86	1671.14
756.04	1691.62
756.22	1564.65
756.40	1787.88
756.57	1867.75
756.75	1660.90
756.93	1798.12
757.11	1841.12
757.29	1658.85
757.47	1701.86
757.65	1615.85
757.82	1542.12
758.00	1628.14
758.18	1687.53
758.36	1656.81
758.54	1679.33
758.72	1652.71
758.90	1732.58
759.07	1732.58
759.25	1619.94
759.43	1734.63
759.61	1695.72
759.79	2222.05
759.97	1742.82
760.15	1650.66
760.32	1648.61
760.50	1689.57
760.68	1824.74
760.86	1630.18
761.04	1767.40
761.22	1683.43
761.39	1695.72
761.57	1767.40
761.75	1736.68
761.93	1791.97
762.11	1679.33
762.28	1693.67
762.46	1773.54
762.64	1744.87
762.82	1656.81
763.00	1701.86
763.18	1732.58
763.35	1720.29
763.53	1808.36
763.71	1740.77
763.89	1742.82
764.07	1675.24
764.24	1726.44
764.42	1703.91
764.60	1652.71
764.78	1705.96
764.96	1771.49
765.13	1691.62
765.31	1658.85
765.49	1683.43
765.67	1591.27
765.84	1648.61
766.02	1763.30
766.20	1644.52
766.38	1794.02
766.56	1734.63
766.73	1759.21
766.91	1665.00
767.09	1775.59
767.27	1769.44
767.44	1648.61
767.62	1744.87
767.80	1708.01
767.98	1683.43
768.15	1697.77
768.33	1796.07
768.51	1779.68
768.69	1818.60
768.87	1714.15
769.04	1738.73
769.22	1834.98
769.40	1769.44
769.58	1890.28
769.75	1714.15
769.93	1816.55
770.11	1630.18
770.28	1660.90
770.46	1710.05
770.64	1708.01
770.82	1681.38
770.99	1669.09
771.17	1751.01
771.35	1671.14
771.53	1708.01
771.70	1693.67
771.88	1757.16
772.06	1654.76
772.23	1669.09
772.41	1734.63
772.59	1705.96
772.77	1638.38
772.94	1710.05
773.12	1714.15
773.30	1691.62
773.47	1783.78
773.65	1683.43
773.83	1812.45
774.01	1697.77
774.18	1570.79
774.36	1738.73
774.54	1652.71
774.71	1646.57
774.89	1654.76
775.07	1673.19
775.24	1748.97
775.42	1628.14
775.60	1769.44
775.78	1650.66
775.95	1609.70
776.13	1671.14
776.31	1595.37
776.48	1712.10
776.66	1722.34
776.84	1740.77
777.01	1656.81
777.19	1697.77
777.37	1712.10
777.54	1791.97
777.72	1812.45
777.90	1748.97
778.07	1630.18
778.25	1853.41
778.43	1693.67
778.60	1658.85
778.78	1742.82
778.96	1757.16
779.13	1648.61
779.31	1724.39
779.49	1712.10
779.66	1658.85
779.84	1703.91
780.01	1656.81
780.19	1685.48
780.37	1771.49
780.54	1714.15
780.72	1689.57
780.90	1730.53
781.07	1654.76
781.25	1624.04
781.43	1724.39
781.60	1681.38
781.78	1771.49
781.95	1740.77
782.13	1687.53
782.31	1697.77
782.48	1644.52
782.66	1757.16
782.83	1812.45
783.01	1677.29
783.19	1763.30
783.36	1753.06
783.54	1636.33
783.72	1802.21
783.89	1703.91
784.07	1730.53
784.24	1724.39
784.42	1818.60
784.60	1779.68
784.77	1720.29
784.95	1642.47
785.12	1652.71
785.30	1673.19
785.47	1742.82
785.65	1685.48
785.83	1681.38
786.00	1673.19
786.18	1701.86
786.35	1621.99
786.53	1677.29
786.71	1677.29
786.88	1634.28
787.06	1689.57
787.23	1775.59
787.41	1642.47
787.58	1621.99
787.76	1621.99
787.94	1687.53
788.11	1705.96
788.29	1689.57
788.46	1681.38
788.64	1597.42
788.81	1669.09
788.99	1683.43
789.16	1607.66
789.34	1705.96
789.52	1644.52
789.69	1695.72
789.87	1638.38
790.04	1697.77
790.22	1648.61
790.39	1863.65
790.57	1650.66
790.74	1576.94
790.92	1730.53
791.09	1578.98
791.27	1759.21
791.44	1783.78
791.62	1724.39
791.79	1726.44
791.97	1759.21
792.15	1890.28
792.32	1744.87
792.50	1740.77
792.67	1781.73
792.85	1789.92
793.02	1621.99
793.20	1665.00
793.37	1583.08
793.55	1671.14
793.72	1650.66
793.90	1753.06
794.07	1660.90
794.25	1658.85
794.42	1794.02
794.60	1705.96
794.77	1751.01
794.95	1734.63
795.12	1728.49
795.30	1703.91
795.47	1583.08
795.65	1810.40
795.82	1794.02
796.00	1619.94
796.17	1665.00
796.34	1703.91
796.52	1646.57
796.69	1751.01
796.87	1744.87
797.04	1794.02
797.22	1757.16
797.39	1724.39
797.57	1740.77
797.74	1656.81
797.92	1734.63
798.09	1705.96
798.27	1796.07
798.44	1765.35
798.62	1619.94
798.79	1759.21
798.96	1705.96
799.14	1673.19
799.31	1865.70
799.49	1718.25
799.66	1705.96
799.84	1669.09
800.01	1581.03
800.19	1738.73
800.36	1630.18
800.53	1769.44
800.71	1710.05
800.88	1818.60
801.06	1685.48
801.23	1677.29
801.41	1638.38
801.58	1714.15
801.75	1642.47
801.93	1677.29
802.10	1744.87
802.28	1685.48
802.45	1728.49
802.63	1767.40
802.80	1845.22
802.97	1656.81
803.15	1687.53
803.32	1720.29
803.50	1660.90
803.67	1652.71
803.84	1636.33
804.02	1718.25
804.19	1640.42
804.37	1587.18
804.54	1636.33
804.71	1757.16
804.89	1703.91
805.06	1630.18
805.24	1734.63
805.41	1671.14
805.58	1658.85
805.76	1818.60
805.93	1699.81
806.10	1820.64
806.28	1724.39
806.45	1662.95
806.63	1718.25
806.80	1732.58
806.97	1759.21
807.15	1708.01
807.32	1671.14
807.49	1650.66
807.67	1691.62
807.84	1794.02
808.01	1691.62
808.19	1832.93
808.36	1830.88
808.54	1665.00
808.71	1701.86
808.88	1683.43
809.06	1785.83
809.23	1789.92
809.40	1611.75
809.58	1730.53
809.75	1683.43
809.92	1611.75
810.10	1837.03
810.27	1748.97
810.44	1673.19
810.62	1703.91
810.79	1658.85
810.96	1773.54
811.14	1732.58
811.31	1736.68
811.48	1751.01
811.66	1685.48
811.83	1738.73
812.00	1802.21
812.18	1665.00
812.35	1820.64
812.52	1716.20
812.69	1710.05
812.87	1650.66
813.04	1669.09
813.21	1722.34
813.39	1703.91
813.56	1679.33
813.73	1724.39
813.91	1621.99
814.08	1683.43
814.25	1755.11
814.42	1628.14
814.60	1722.34
814.77	1701.86
814.94	1699.81
815.12	1703.91
815.29	1781.73
815.46	1644.52
815.63	1681.38
815.81	1734.63
815.98	1734.63
816.15	1710.05
816.33	1757.16
816.50	1697.77
816.67	1697.77
816.84	1681.38
817.02	1644.52
817.19	1677.29
817.36	1628.14
817.53	1665.00
817.71	1677.29
817.88	1837.03
818.05	1693.67
818.22	1589.22
818.40	1843.17
818.57	1681.38
818.74	1757.16
818.91	1673.19
819.09	1744.87
819.26	1757.16
819.43	1691.62
819.60	1626.09
819.78	1710.05
819.95	1765.35
820.12	1701.86
820.29	1736.68
820.47	1705.96
820.64	1685.48
820.81	1617.90
820.98	1660.90
821.15	1738.73
821.33	1773.54
821.50	1636.33
821.67	1798.12
821.84	1603.56
822.02	1701.86
822.19	1824.74
822.36	1589.22
822.53	1669.09
822.70	1652.71
822.88	1621.99
823.05	1775.59
823.22	1710.05
823.39	1705.96
823.56	1693.67
823.74	1781.73
823.91	1652.71
824.08	1681.38
824.25	1603.56
824.42	1746.92
824.60	1710.05
824.77	1697.77
824.94	1828.84
825.11	1738.73
825.28	1665.00
825.45	1753.06
825.63	1738.73
825.80	1681.38
825.97	1761.25
826.14	1660.90
826.31	1599.46
826.48	1755.11
826.66	1656.81
826.83	1677.29
827.00	1732.58
827.17	1708.01
827.34	1720.29
827.51	1648.61
827.69	1753.06
827.86	1669.09
828.03	1738.73
828.20	1685.48
828.37	1681.38
828.54	1681.38
828.71	1636.33
828.89	1724.39
829.06	1685.48
829.23	1814.50
829.40	1679.33
829.57	1685.48
829.74	1771.49
829.91	1634.28
830.09	1628.14
830.26	1699.81
830.43	1767.40
830.60	1632.23
830.77	1708.01
830.94	1869.80
831.11	1759.21
831.28	1689.57
831.46	1751.01
831.63	1665.00
831.80	1697.77
831.97	1693.67
832.14	1738.73
832.31	1689.57
832.48	1757.16
832.65	1703.91
832.82	1644.52
832.99	1619.94
833.17	1572.84
833.34	1814.50
833.51	1806.31
833.68	1624.04
833.85	1724.39
834.02	1640.42
834.19	1681.38
834.36	1636.33
834.53	1703.91
834.70	1755.11
834.87	1728.49
835.04	1640.42
835.22	1691.62
835.39	1669.09
835.56	1667.05
835.73	1726.44
835.90	1738.73
836.07	1669.09
836.24	1855.46
836.41	1591.27
836.58	1595.37
836.75	1761.25
836.92	1787.88
837.09	1642.47
837.26	1730.53
837.43	1714.15
837.60	1730.53
837.77	1609.70
837.94	1714.15
838.12	1757.16
838.29	1718.25
838.46	1667.05
838.63	1673.19
838.80	1798.12
838.97	1826.79
839.14	1722.34
839.31	1640.42
839.48	1642.47
839.65	1710.05
839.82	1726.44
839.99	1777.64
840.16	1650.66
840.33	1669.09
840.50	1695.72
840.67	1636.33
840.84	1617.90
841.01	1720.29
841.18	1591.27
841.35	1669.09
841.52	1802.21
841.69	1800.16
841.86	1648.61
842.03	1636.33
842.20	1722.34
842.37	1679.33
842.54	1693.67
842.71	1751.01
842.88	1679.33
843.05	1716.20
843.22	1718.25
843.39	1726.44
843.56	1685.48
843.73	1652.71
843.90	1773.54
844.07	1724.39
844.24	1736.68
844.41	1734.63
844.58	1722.34
844.75	1746.92
844.92	1685.48
845.09	1656.81
845.26	1718.25
845.43	1648.61
845.60	1677.29
845.77	1826.79
845.94	1718.25
846.10	1738.73
846.27	1675.24
846.44	1574.89
846.61	1597.42
846.78	1779.68
846.95	1736.68
847.12	1675.24
847.29	1679.33
847.46	1660.90
847.63	1777.64
847.80	1621.99
847.97	1681.38
848.14	1800.16
848.31	1658.85
848.48	1689.57
848.65	1740.77
848.82	1697.77
848.98	1730.53
849.15	1734.63
849.32	1783.78
849.49	1794.02
849.66	1763.30
849.83	1689.57
850.00	1652.71
850.17	1746.92
850.34	1722.34
850.51	1648.61
850.68	1689.57
850.85	1804.26
851.01	1773.54
851.18	1673.19
851.35	1673.19
851.52	1751.01
851.69	1837.03
851.86	1624.04
852.03	1673.19
852.20	1724.39
852.37	1673.19
852.53	1617.90
852.70	1693.67
852.87	1748.97
853.04	1736.68
853.21	1732.58
853.38	1703.91
853.55	1820.64
853.72	1757.16
853.89	1710.05
854.05	1578.98
854.22	1636.33
854.39	1648.61
854.56	1716.20
854.73	1777.64
854.90	1644.52
855.07	1728.49
855.23	1652.71
855.40	1667.05
855.57	1693.67
855.74	1581.03
855.91	1904.61
856.08	1595.37
856.25	1650.66
856.41	1658.85
856.58	1728.49
856.75	1617.90
856.92	1738.73
857.09	1763.30
857.26	1636.33
857.42	1644.52
857.59	1746.92
857.76	1718.25
857.93	1738.73
858.10	1710.05
858.27	1638.38
858.43	1720.29
858.60	1671.14
858.77	1615.85
858.94	1607.66
859.11	1779.68
859.27	1665.00
859.44	1773.54
859.61	1820.64
859.78	1757.16
859.95	1673.19
860.12	1695.72
860.28	1804.26
860.45	1832.93
860.62	1708.01
860.79	1800.16
860.95	1669.09
861.12	1607.66
861.29	1683.43
861.46	1624.04
861.63	1656.81
861.79	1773.54
861.96	1681.38
862.13	1640.42
862.30	1771.49
862.47	1716.20
862.63	1607.66
862.80	1816.55
862.97	1677.29
863.14	1671.14
863.30	1697.77
863.47	1667.05
863.64	1820.64
863.81	1767.40
863.97	1738.73
864.14	1681.38
864.31	1726.44
864.48	1703.91
864.65	1708.01
864.81	1771.49
864.98	1773.54
865.15	1712.10
865.32	1757.16
865.48	1740.77
865.65	1806.31
865.82	1669.09
865.98	1748.97
866.15	1798.12
866.32	1681.38
866.49	1710.05
866.65	1765.35
866.82	1662.95
866.99	1726.44
867.16	1646.57
867.32	1683.43
867.49	1638.38
867.66	1630.18
867.83	1611.75
867.99	1591.27
868.16	1708.01
868.33	1638.38
868.49	1642.47
868.66	1748.97
868.83	1773.54
868.99	1767.40
869.16	1697.77
869.33	1763.30
869.50	1705.96
869.66	1619.94
869.83	1695.72
870.00	1656.81
870.16	1705.96
870.33	1650.66
870.50	1812.45
870.66	1658.85
870.83	1800.16
871.00	1734.63
871.17	1714.15
871.33	1689.57
871.50	1615.85
871.67	1720.29
871.83	1589.22
872.00	1806.31
872.17	1708.01
872.33	1873.89
872.50	1738.73
872.67	1716.20
872.83	1746.92
873.00	1740.77
873.17	1673.19
873.33	1763.30
873.50	1734.63
873.67	1619.94
873.83	1669.09
874.00	1722.34
874.16	1800.16
874.33	1693.67
874.50	1615.85
874.66	1679.33
874.83	1748.97
875.00	1771.49
875.16	1787.88
875.33	1730.53
875.50	1636.33
875.66	1724.39
875.83	1667.05
875.99	1689.57
876.16	1632.23
876.33	1681.38
876.49	1648.61
876.66	1705.96
876.83	1650.66
876.99	1558.50
877.16	1714.15
877.32	1691.62
877.49	1699.81
877.66	1734.63
877.82	1722.34
877.99	1736.68
878.15	1724.39
878.32	1699.81
878.49	1660.90
878.65	1732.58
878.82	1728.49
878.98	1640.42
879.15	1771.49
879.32	1695.72
879.48	1726.44
879.65	1638.38
879.81	1681.38
879.98	1632.23
880.15	1677.29
880.31	1730.53
880.48	1701.86
880.64	1773.54
880.81	1806.31
880.97	1755.11
881.14	1732.58
881.31	1613.80
881.47	1820.64
881.64	1712.10
881.80	1660.90
881.97	1785.83
882.13	1732.58
882.30	1730.53
882.47	1619.94
882.63	1687.53
882.80	1648.61
882.96	1716.20
883.13	1759.21
883.29	1630.18
883.46	1689.57
883.62	1849.32
883.79	1724.39
883.95	1712.10
884.12	1699.81
884.29	1746.92
884.45	1697.77
884.62	1765.35
884.78	1658.85
884.95	1744.87
885.11	1689.57
885.28	1730.53
885.44	1726.44
885.61	1773.54
885.77	1855.46
885.94	1671.14
886.10	1773.54
886.27	1773.54
886.43	1828.84
886.60	1828.84
886.76	1681.38
886.93	1712.10
887.09	1693.67
887.26	1681.38
887.42	1636.33
887.59	1783.78
887.75	1814.50
887.92	1847.27
888.08	1703.91
888.25	1779.68
888.41	1818.60
888.58	1744.87
888.74	1705.96
888.91	1634.28
>>>>>End Processed Spectral Data<<<<<
