SpectraSuite Data File
++++++++++++++++++++++++++++++++++++
Date: Wed May 04 18:44:31 CEST 2016
User: root
Dark Spectrum Present: No
Reference Spectrum Present: No
Number of Sampled Component Spectra: 1
Spectrometers: USB4C02835
Integration Time (usec): 100000 (USB4C02835)
Spectra Averaged: 1 (USB4C02835)
Boxcar Smoothing: 0 (USB4C02835)
Correct for Electrical Dark: No (USB4C02835)
Strobe/Lamp Enabled: No (USB4C02835)
Correct for Detector Non-linearity: No (USB4C02835)
Correct for Stray Light: No (USB4C02835)
Number of Pixels in Processed Spectrum: 3648
>>>>>Begin Processed Spectral Data<<<<<
177.47	1492.97
177.69	1492.97
177.91	1492.97
178.13	1458.15
178.36	1521.64
178.58	1665.00
178.80	1667.05
179.02	1621.99
179.24	1611.75
179.46	1697.77
179.68	1783.78
179.90	1718.25
180.13	1759.21
180.35	1722.34
180.57	1603.56
180.79	1781.73
181.01	1722.34
181.23	1757.16
181.45	1724.39
181.67	1740.77
181.90	1814.50
182.12	1617.90
182.34	1699.81
182.56	1814.50
182.78	1693.67
183.00	1785.83
183.22	1683.43
183.44	1644.52
183.66	1882.08
183.89	1832.93
184.11	1781.73
184.33	1761.25
184.55	1730.53
184.77	1746.92
184.99	1714.15
185.21	1722.34
185.43	1824.74
185.65	1677.29
185.87	1712.10
186.10	1767.40
186.32	1877.99
186.54	1734.63
186.76	1720.29
186.98	1734.63
187.20	1695.72
187.42	1634.28
187.64	1650.66
187.86	1726.44
188.08	1748.97
188.30	1712.10
188.52	1746.92
188.75	1751.01
188.97	1759.21
189.19	1710.05
189.41	1699.81
189.63	1681.38
189.85	1615.85
190.07	1624.04
190.29	1660.90
190.51	1667.05
190.73	1595.37
190.95	1759.21
191.17	1679.33
191.39	1619.94
191.61	1734.63
191.84	1740.77
192.06	1730.53
192.28	1675.24
192.50	1933.28
192.72	1722.34
192.94	1693.67
193.16	1671.14
193.38	1746.92
193.60	1626.09
193.82	1675.24
194.04	1818.60
194.26	1714.15
194.48	1759.21
194.70	1658.85
194.92	1693.67
195.14	1738.73
195.36	1722.34
195.58	1722.34
195.80	1687.53
196.02	1701.86
196.24	1714.15
196.46	1705.96
196.69	1712.10
196.91	1877.99
197.13	1665.00
197.35	1652.71
197.57	1871.84
197.79	1771.49
198.01	1714.15
198.23	1761.25
198.45	1691.62
198.67	1658.85
198.89	1689.57
199.11	1783.78
199.33	1630.18
199.55	1591.27
199.77	1732.58
199.99	1789.92
200.21	1742.82
200.43	1746.92
200.65	1611.75
200.87	1587.18
201.09	1710.05
201.31	1724.39
201.53	1755.11
201.75	1777.64
201.97	1626.09
202.19	1675.24
202.41	1701.86
202.63	1771.49
202.85	1757.16
203.07	1775.59
203.29	1738.73
203.51	1646.57
203.73	1673.19
203.95	1906.66
204.17	1693.67
204.39	1759.21
204.61	1714.15
204.83	1720.29
205.05	1701.86
205.27	1765.35
205.49	1861.60
205.71	1669.09
205.93	1646.57
206.15	1634.28
206.37	1687.53
206.59	1691.62
206.81	1656.81
207.03	1603.56
207.25	1662.95
207.47	1740.77
207.69	1714.15
207.91	1834.98
208.13	1779.68
208.34	1650.66
208.56	1683.43
208.78	1695.72
209.00	1695.72
209.22	1630.18
209.44	1660.90
209.66	1714.15
209.88	1718.25
210.10	1679.33
210.32	1609.70
210.54	1767.40
210.76	1681.38
210.98	1757.16
211.20	1730.53
211.42	1724.39
211.64	1853.41
211.86	1789.92
212.08	1755.11
212.30	1759.21
212.52	1673.19
212.74	1763.30
212.96	1669.09
213.17	1746.92
213.39	1753.06
213.61	1767.40
213.83	1697.77
214.05	1689.57
214.27	1748.97
214.49	1699.81
214.71	1624.04
214.93	1812.45
215.15	1730.53
215.37	1796.07
215.59	1587.18
215.81	1716.20
216.03	1740.77
216.24	1728.49
216.46	1728.49
216.68	1701.86
216.90	1789.92
217.12	1785.83
217.34	1660.90
217.56	1736.68
217.78	1722.34
218.00	1669.09
218.22	1740.77
218.44	1634.28
218.66	1730.53
218.87	1857.51
219.09	1662.95
219.31	1714.15
219.53	1705.96
219.75	1654.76
219.97	1705.96
220.19	1677.29
220.41	1720.29
220.63	1777.64
220.85	1794.02
221.06	1712.10
221.28	1796.07
221.50	1740.77
221.72	1654.76
221.94	1724.39
222.16	1751.01
222.38	1769.44
222.60	1726.44
222.82	1734.63
223.03	1814.50
223.25	1658.85
223.47	1787.88
223.69	1841.12
223.91	1767.40
224.13	1742.82
224.35	1697.77
224.57	1794.02
224.78	1744.87
225.00	1626.09
225.22	1665.00
225.44	1697.77
225.66	1769.44
225.88	1636.33
226.10	1777.64
226.32	1738.73
226.53	1808.36
226.75	1632.23
226.97	1728.49
227.19	1656.81
227.41	1644.52
227.63	1679.33
227.85	1630.18
228.06	1705.96
228.28	1671.14
228.50	1755.11
228.72	1611.75
228.94	1660.90
229.16	1599.46
229.37	1705.96
229.59	1644.52
229.81	1730.53
230.03	1740.77
230.25	1609.70
230.47	1726.44
230.69	1617.90
230.90	1746.92
231.12	1710.05
231.34	1708.01
231.56	1787.88
231.78	1621.99
232.00	1701.86
232.21	1628.14
232.43	1736.68
232.65	1574.89
232.87	1732.58
233.09	1746.92
233.30	1619.94
233.52	1714.15
233.74	1658.85
233.96	1685.48
234.18	1732.58
234.40	1712.10
234.61	1804.26
234.83	1578.98
235.05	1609.70
235.27	1800.16
235.49	1753.06
235.70	1665.00
235.92	1822.69
236.14	1697.77
236.36	1791.97
236.58	1550.31
236.79	1761.25
237.01	1800.16
237.23	1714.15
237.45	1830.88
237.67	1689.57
237.88	1730.53
238.10	1791.97
238.32	1660.90
238.54	1759.21
238.76	1621.99
238.97	1624.04
239.19	1718.25
239.41	1742.82
239.63	1720.29
239.85	1716.20
240.06	1632.23
240.28	1712.10
240.50	1757.16
240.72	1724.39
240.93	1763.30
241.15	1871.84
241.37	1722.34
241.59	1826.79
241.81	1771.49
242.02	1597.42
242.24	1755.11
242.46	1767.40
242.68	1652.71
242.89	1812.45
243.11	1757.16
243.33	1691.62
243.55	1726.44
243.76	1794.02
243.98	1660.90
244.20	1718.25
244.42	1724.39
244.64	1773.54
244.85	1675.24
245.07	1744.87
245.29	1800.16
245.51	1738.73
245.72	1699.81
245.94	1824.74
246.16	1718.25
246.38	1759.21
246.59	1675.24
246.81	1697.77
247.03	1683.43
247.24	1609.70
247.46	1728.49
247.68	1695.72
247.90	1669.09
248.11	1746.92
248.33	1730.53
248.55	1708.01
248.77	1687.53
248.98	1744.87
249.20	1886.18
249.42	1650.66
249.64	1710.05
249.85	1689.57
250.07	1667.05
250.29	1787.88
250.50	1759.21
250.72	1642.47
250.94	1765.35
251.16	1724.39
251.37	1759.21
251.59	1771.49
251.81	1710.05
252.02	1796.07
252.24	1757.16
252.46	1742.82
252.68	1710.05
252.89	1687.53
253.11	1626.09
253.33	1877.99
253.54	1843.17
253.76	1634.28
253.98	1634.28
254.20	1720.29
254.41	1619.94
254.63	1722.34
254.85	1675.24
255.06	1716.20
255.28	1677.29
255.50	1708.01
255.71	1689.57
255.93	1654.76
256.15	1695.72
256.36	1734.63
256.58	1601.51
256.80	1681.38
257.02	1628.14
257.23	1695.72
257.45	1714.15
257.67	1699.81
257.88	1626.09
258.10	1734.63
258.32	1744.87
258.53	1724.39
258.75	1890.28
258.97	1695.72
259.18	1667.05
259.40	1791.97
259.62	1742.82
259.83	1806.31
260.05	1728.49
260.27	1953.76
260.48	1748.97
260.70	1650.66
260.92	1753.06
261.13	1720.29
261.35	1789.92
261.57	1783.78
261.78	1628.14
262.00	1693.67
262.22	1716.20
262.43	1701.86
262.65	1699.81
262.86	1744.87
263.08	1882.08
263.30	1714.15
263.51	1632.23
263.73	1624.04
263.95	1843.17
264.16	1691.62
264.38	1751.01
264.60	1730.53
264.81	1703.91
265.03	1714.15
265.25	1787.88
265.46	1646.57
265.68	1763.30
265.89	1802.21
266.11	1642.47
266.33	1753.06
266.54	1769.44
266.76	1748.97
266.98	1673.19
267.19	1728.49
267.41	1812.45
267.62	1728.49
267.84	1685.48
268.06	1759.21
268.27	1669.09
268.49	1794.02
268.70	1767.40
268.92	1699.81
269.14	1632.23
269.35	1638.38
269.57	1738.73
269.79	1734.63
270.00	1683.43
270.22	1791.97
270.43	1660.90
270.65	1550.31
270.87	1646.57
271.08	1781.73
271.30	1740.77
271.51	1726.44
271.73	1742.82
271.95	1742.82
272.16	1718.25
272.38	1708.01
272.59	1660.90
272.81	1796.07
273.02	1689.57
273.24	1748.97
273.46	1783.78
273.67	1648.61
273.89	1656.81
274.10	1634.28
274.32	1771.49
274.54	1710.05
274.75	1787.88
274.97	1744.87
275.18	1722.34
275.40	1714.15
275.61	1734.63
275.83	1773.54
276.05	1685.48
276.26	1703.91
276.48	1677.29
276.69	1697.77
276.91	1703.91
277.12	1765.35
277.34	1751.01
277.55	1814.50
277.77	1701.86
277.99	1703.91
278.20	1667.05
278.42	1662.95
278.63	1656.81
278.85	1685.48
279.06	1634.28
279.28	1755.11
279.49	1767.40
279.71	1712.10
279.93	1775.59
280.14	1744.87
280.36	1679.33
280.57	1789.92
280.79	1751.01
281.00	1751.01
281.22	1679.33
281.43	1765.35
281.65	1595.37
281.86	1662.95
282.08	1746.92
282.29	1832.93
282.51	1613.80
282.73	1648.61
282.94	1685.48
283.16	1761.25
283.37	1740.77
283.59	1753.06
283.80	1724.39
284.02	1689.57
284.23	1771.49
284.45	1708.01
284.66	1636.33
284.88	1648.61
285.09	1765.35
285.31	1724.39
285.52	1740.77
285.74	1632.23
285.95	1755.11
286.17	1732.58
286.38	1771.49
286.60	1736.68
286.81	1660.90
287.03	1662.95
287.24	1708.01
287.46	1718.25
287.67	1691.62
287.89	1875.94
288.10	1656.81
288.32	1755.11
288.53	1759.21
288.75	1689.57
288.96	1808.36
289.18	1697.77
289.39	1767.40
289.61	1759.21
289.82	1859.56
290.04	1888.23
290.25	1673.19
290.47	1642.47
290.68	1660.90
290.90	1773.54
291.11	1640.42
291.33	1726.44
291.54	1687.53
291.76	1665.00
291.97	1759.21
292.18	1845.22
292.40	1699.81
292.61	1734.63
292.83	1816.55
293.04	1724.39
293.26	1687.53
293.47	1710.05
293.69	1693.67
293.90	1718.25
294.12	1722.34
294.33	1648.61
294.55	1638.38
294.76	1683.43
294.97	1724.39
295.19	1847.27
295.40	1705.96
295.62	1773.54
295.83	1708.01
296.05	1611.75
296.26	1775.59
296.48	1699.81
296.69	1658.85
296.90	1734.63
297.12	1789.92
297.33	1716.20
297.55	1720.29
297.76	1779.68
297.98	1767.40
298.19	1697.77
298.41	1730.53
298.62	1710.05
298.83	1783.78
299.05	1683.43
299.26	1705.96
299.48	1748.97
299.69	1679.33
299.90	1597.42
300.12	1677.29
300.33	1751.01
300.55	1714.15
300.76	1650.66
300.98	1701.86
301.19	1845.22
301.40	1701.86
301.62	1619.94
301.83	1691.62
302.05	1701.86
302.26	1716.20
302.47	1652.71
302.69	1724.39
302.90	1699.81
303.12	1624.04
303.33	1718.25
303.54	1800.16
303.76	1683.43
303.97	1757.16
304.19	1775.59
304.40	1679.33
304.61	1753.06
304.83	1767.40
305.04	1798.12
305.26	1757.16
305.47	1667.05
305.68	1705.96
305.90	1703.91
306.11	1732.58
306.33	1730.53
306.54	1693.67
306.75	1734.63
306.97	1607.66
307.18	1722.34
307.39	1673.19
307.61	1781.73
307.82	1734.63
308.04	1791.97
308.25	1708.01
308.46	1726.44
308.68	1734.63
308.89	1769.44
309.10	1755.11
309.32	1714.15
309.53	1710.05
309.74	1751.01
309.96	1632.23
310.17	1851.36
310.39	1658.85
310.60	1779.68
310.81	1765.35
311.03	1677.29
311.24	1777.64
311.45	1685.48
311.67	1808.36
311.88	1822.69
312.09	1710.05
312.31	1730.53
312.52	1722.34
312.73	1634.28
312.95	1636.33
313.16	1642.47
313.37	1794.02
313.59	1656.81
313.80	1712.10
314.01	1773.54
314.23	1658.85
314.44	1615.85
314.65	1621.99
314.87	1652.71
315.08	1722.34
315.29	1705.96
315.51	1644.52
315.72	1619.94
315.93	1796.07
316.15	1783.78
316.36	1679.33
316.57	1701.86
316.79	1755.11
317.00	1644.52
317.21	1748.97
317.43	1683.43
317.64	1662.95
317.85	1632.23
318.07	1669.09
318.28	1816.55
318.49	1867.75
318.70	1918.95
318.92	1935.33
319.13	1898.47
319.34	1902.56
319.56	1818.60
319.77	1857.51
319.98	1728.49
320.20	1820.64
320.41	1839.08
320.62	1742.82
320.83	1630.18
321.05	1867.75
321.26	1781.73
321.47	1740.77
321.69	1742.82
321.90	1605.61
322.11	1699.81
322.32	1744.87
322.54	1787.88
322.75	1701.86
322.96	1859.56
323.18	1624.04
323.39	1626.09
323.60	1759.21
323.81	1808.36
324.03	1714.15
324.24	1695.72
324.45	1697.77
324.66	1642.47
324.88	1720.29
325.09	1830.88
325.30	1714.15
325.52	1722.34
325.73	1708.01
325.94	1648.61
326.15	1632.23
326.37	1583.08
326.58	1705.96
326.79	1812.45
327.00	1695.72
327.22	1753.06
327.43	1722.34
327.64	1669.09
327.85	1744.87
328.07	1705.96
328.28	1796.07
328.49	1693.67
328.70	1669.09
328.92	1677.29
329.13	1695.72
329.34	1767.40
329.55	1851.36
329.76	1837.03
329.98	1710.05
330.19	1804.26
330.40	1736.68
330.61	1693.67
330.83	1705.96
331.04	1665.00
331.25	1636.33
331.46	1736.68
331.68	1669.09
331.89	1724.39
332.10	1697.77
332.31	1642.47
332.52	1687.53
332.74	1667.05
332.95	1581.03
333.16	1624.04
333.37	1689.57
333.58	1687.53
333.80	1724.39
334.01	1583.08
334.22	1775.59
334.43	1677.29
334.64	1673.19
334.86	1665.00
335.07	1683.43
335.28	1779.68
335.49	1695.72
335.70	1722.34
335.92	1865.70
336.13	1875.94
336.34	1736.68
336.55	1816.55
336.76	1675.24
336.98	1581.03
337.19	1732.58
337.40	1837.03
337.61	1822.69
337.82	1806.31
338.04	1767.40
338.25	1626.09
338.46	1767.40
338.67	1724.39
338.88	1712.10
339.09	1589.22
339.31	1687.53
339.52	1679.33
339.73	1665.00
339.94	1687.53
340.15	1746.92
340.36	1701.86
340.58	1683.43
340.79	1697.77
341.00	1705.96
341.21	1613.80
341.42	1828.84
341.63	1687.53
341.85	1748.97
342.06	1693.67
342.27	1738.73
342.48	1789.92
342.69	1615.85
342.90	1748.97
343.12	1773.54
343.33	1716.20
343.54	1738.73
343.75	1812.45
343.96	1675.24
344.17	1689.57
344.38	1751.01
344.60	1667.05
344.81	1630.18
345.02	1671.14
345.23	1716.20
345.44	1886.18
345.65	1732.58
345.86	1746.92
346.07	1632.23
346.29	1742.82
346.50	1761.25
346.71	1794.02
346.92	1781.73
347.13	1796.07
347.34	1718.25
347.55	1718.25
347.76	1751.01
347.98	1632.23
348.19	1683.43
348.40	1753.06
348.61	1740.77
348.82	1726.44
349.03	1689.57
349.24	1652.71
349.45	1824.74
349.66	1576.94
349.88	1656.81
350.09	1640.42
350.30	1734.63
350.51	1753.06
350.72	1718.25
350.93	1732.58
351.14	1691.62
351.35	1710.05
351.56	1660.90
351.77	1619.94
351.99	1703.91
352.20	1861.60
352.41	1787.88
352.62	1574.89
352.83	1667.05
353.04	1718.25
353.25	1675.24
353.46	1783.78
353.67	1779.68
353.88	1630.18
354.09	1720.29
354.30	1650.66
354.52	1767.40
354.73	1714.15
354.94	1656.81
355.15	1734.63
355.36	1816.55
355.57	1736.68
355.78	1705.96
355.99	1693.67
356.20	1718.25
356.41	1814.50
356.62	1767.40
356.83	1714.15
357.04	1851.36
357.25	1628.14
357.46	1779.68
357.68	1652.71
357.89	1685.48
358.10	1720.29
358.31	1734.63
358.52	1701.86
358.73	1636.33
358.94	1683.43
359.15	1736.68
359.36	1691.62
359.57	1742.82
359.78	1726.44
359.99	1746.92
360.20	1671.14
360.41	1734.63
360.62	1697.77
360.83	1679.33
361.04	1726.44
361.25	1665.00
361.46	1773.54
361.67	1841.12
361.88	1771.49
362.09	1748.97
362.30	1802.21
362.51	1734.63
362.72	1751.01
362.93	1742.82
363.14	1693.67
363.35	1748.97
363.56	1626.09
363.78	1824.74
363.99	1708.01
364.20	1665.00
364.41	1783.78
364.62	1830.88
364.83	1769.44
365.04	1746.92
365.25	1738.73
365.46	1845.22
365.67	1693.67
365.88	1730.53
366.09	1714.15
366.30	1671.14
366.51	1712.10
366.72	1640.42
366.93	1703.91
367.14	1671.14
367.35	1736.68
367.56	1722.34
367.77	1724.39
367.98	1718.25
368.18	1699.81
368.39	1669.09
368.60	1669.09
368.81	1796.07
369.02	1746.92
369.23	1640.42
369.44	1640.42
369.65	1611.75
369.86	1779.68
370.07	1839.08
370.28	1722.34
370.49	1730.53
370.70	1658.85
370.91	1726.44
371.12	1630.18
371.33	1712.10
371.54	1679.33
371.75	1800.16
371.96	1642.47
372.17	1777.64
372.38	1738.73
372.59	1718.25
372.80	1630.18
373.01	1722.34
373.22	1765.35
373.43	1697.77
373.64	1650.66
373.85	1761.25
374.06	1779.68
374.26	1767.40
374.47	1773.54
374.68	1763.30
374.89	1730.53
375.10	1720.29
375.31	1769.44
375.52	1781.73
375.73	1669.09
375.94	1648.61
376.15	1722.34
376.36	1646.57
376.57	1720.29
376.78	1726.44
376.99	1742.82
377.20	1767.40
377.40	1728.49
377.61	1791.97
377.82	1705.96
378.03	1705.96
378.24	1744.87
378.45	1654.76
378.66	1716.20
378.87	1632.23
379.08	1646.57
379.29	1654.76
379.50	1736.68
379.71	1734.63
379.91	1748.97
380.12	1697.77
380.33	1765.35
380.54	1685.48
380.75	1681.38
380.96	1712.10
381.17	1746.92
381.38	1798.12
381.59	1810.40
381.80	1818.60
382.00	1839.08
382.21	1841.12
382.42	1884.13
382.63	1970.15
382.84	1736.68
383.05	1734.63
383.26	1802.21
383.47	1714.15
383.68	1787.88
383.88	1757.16
384.09	1722.34
384.30	1787.88
384.51	1699.81
384.72	1683.43
384.93	1669.09
385.14	1677.29
385.35	1716.20
385.55	1593.32
385.76	1832.93
385.97	1708.01
386.18	1710.05
386.39	1720.29
386.60	1619.94
386.81	1777.64
387.02	1650.66
387.22	1744.87
387.43	1765.35
387.64	1781.73
387.85	1873.89
388.06	2275.29
388.27	4716.47
388.48	8984.44
388.68	11319.12
388.89	13104.95
389.10	13987.63
389.31	11843.40
389.52	9596.78
389.73	8372.10
389.93	7661.45
390.14	7280.53
390.35	6612.89
390.56	6084.52
390.77	5074.87
390.98	3796.93
391.18	3114.96
391.39	2385.88
391.60	1914.85
391.81	1882.08
392.02	1777.64
392.23	1834.98
392.43	1781.73
392.64	1800.16
392.85	1714.15
393.06	1775.59
393.27	1767.40
393.47	1705.96
393.68	1794.02
393.89	1748.97
394.10	1839.08
394.31	1712.10
394.52	1642.47
394.72	1742.82
394.93	1796.07
395.14	1669.09
395.35	1748.97
395.56	1701.86
395.76	1708.01
395.97	1824.74
396.18	1865.70
396.39	1892.32
396.60	2107.36
396.80	1957.86
397.01	1845.22
397.22	1925.09
397.43	1867.75
397.64	1765.35
397.84	1783.78
398.05	1806.31
398.26	1820.64
398.47	1763.30
398.67	1742.82
398.88	1810.40
399.09	1777.64
399.30	1710.05
399.51	1730.53
399.71	1671.14
399.92	1783.78
400.13	1738.73
400.34	1656.81
400.54	1667.05
400.75	1832.93
400.96	1794.02
401.17	1687.53
401.37	1740.77
401.58	1644.52
401.79	1787.88
402.00	1900.52
402.21	2142.18
402.41	2013.15
402.62	2107.36
402.83	2185.18
403.04	2105.31
403.24	2123.74
403.45	1974.24
403.66	1955.81
403.87	1929.19
404.07	1974.24
404.28	2017.25
404.49	1873.89
404.70	1869.80
404.90	1791.97
405.11	1761.25
405.32	1759.21
405.52	1714.15
405.73	1597.42
405.94	1748.97
406.15	1677.29
406.35	1783.78
406.56	1779.68
406.77	1748.97
406.98	1771.49
407.18	1685.48
407.39	1822.69
407.60	1640.42
407.80	1763.30
408.01	1632.23
408.22	1730.53
408.43	1714.15
408.63	1759.21
408.84	1773.54
409.05	1845.22
409.25	1744.87
409.46	1681.38
409.67	1652.71
409.88	1652.71
410.08	1679.33
410.29	1744.87
410.50	1781.73
410.70	1742.82
410.91	1687.53
411.12	1695.72
411.32	1683.43
411.53	1667.05
411.74	1804.26
411.95	1787.88
412.15	1810.40
412.36	1746.92
412.57	1726.44
412.77	1884.13
412.98	1753.06
413.19	1740.77
413.39	1775.59
413.60	1789.92
413.81	1843.17
414.01	1681.38
414.22	1755.11
414.43	1789.92
414.63	1787.88
414.84	1759.21
415.05	1765.35
415.25	1638.38
415.46	1705.96
415.67	1720.29
415.87	1761.25
416.08	1705.96
416.29	1699.81
416.49	1765.35
416.70	1695.72
416.91	1738.73
417.11	1769.44
417.32	1761.25
417.53	1771.49
417.73	1771.49
417.94	1744.87
418.15	1726.44
418.35	1669.09
418.56	1683.43
418.77	1775.59
418.97	1722.34
419.18	1712.10
419.38	1583.08
419.59	1689.57
419.80	1761.25
420.00	1693.67
420.21	1665.00
420.42	1800.16
420.62	1740.77
420.83	1646.57
421.04	1759.21
421.24	1783.78
421.45	1660.90
421.65	1787.88
421.86	1693.67
422.07	1839.08
422.27	1730.53
422.48	1697.77
422.69	1667.05
422.89	1736.68
423.10	1681.38
423.30	1685.48
423.51	1744.87
423.72	1755.11
423.92	1767.40
424.13	1607.66
424.33	1714.15
424.54	1738.73
424.75	1697.77
424.95	1800.16
425.16	1748.97
425.36	1718.25
425.57	1798.12
425.78	1746.92
425.98	1740.77
426.19	1710.05
426.39	1607.66
426.60	1656.81
426.81	1810.40
427.01	1773.54
427.22	1607.66
427.42	1632.23
427.63	1566.70
427.83	1693.67
428.04	1873.89
428.25	1828.84
428.45	1757.16
428.66	1781.73
428.86	1722.34
429.07	1695.72
429.28	1722.34
429.48	1605.61
429.69	1718.25
429.89	1742.82
430.10	1697.77
430.30	1763.30
430.51	1789.92
430.71	1720.29
430.92	1712.10
431.13	1681.38
431.33	1763.30
431.54	1761.25
431.74	1824.74
431.95	1900.52
432.15	1646.57
432.36	1681.38
432.56	1718.25
432.77	1789.92
432.98	1787.88
433.18	1744.87
433.39	1714.15
433.59	1742.82
433.80	1742.82
434.00	1810.40
434.21	1673.19
434.41	1677.29
434.62	1826.79
434.82	1671.14
435.03	1693.67
435.23	1730.53
435.44	1699.81
435.64	1673.19
435.85	1695.72
436.06	1796.07
436.26	1855.46
436.47	1744.87
436.67	1665.00
436.88	1716.20
437.08	1826.79
437.29	1814.50
437.49	1730.53
437.70	1771.49
437.90	1646.57
438.11	1775.59
438.31	1726.44
438.52	1857.51
438.72	1896.42
438.93	1908.71
439.13	1822.69
439.34	1863.65
439.54	1738.73
439.75	1896.42
439.95	1789.92
440.16	1683.43
440.36	1759.21
440.57	1761.25
440.77	1742.82
440.98	1757.16
441.18	1691.62
441.39	1683.43
441.59	1640.42
441.80	1861.60
442.00	1681.38
442.21	1804.26
442.41	1685.48
442.62	1789.92
442.82	1681.38
443.02	1708.01
443.23	1804.26
443.43	1701.86
443.64	1740.77
443.84	1726.44
444.05	1839.08
444.25	1718.25
444.46	1705.96
444.66	1738.73
444.87	1814.50
445.07	1710.05
445.28	1722.34
445.48	1832.93
445.69	1791.97
445.89	1935.33
446.09	1728.49
446.30	1964.00
446.50	2490.33
446.71	4169.66
446.91	5074.87
447.12	5869.48
447.32	5908.39
447.53	5171.12
447.73	4485.05
447.93	3852.23
448.14	3618.76
448.34	3422.16
448.55	2994.13
448.75	3110.86
448.96	3010.51
449.16	2654.17
449.36	2418.65
449.57	2185.18
449.77	1980.39
449.98	1765.35
450.18	1783.78
450.39	1906.66
450.59	1789.92
450.79	1742.82
451.00	1626.09
451.20	1826.79
451.41	1744.87
451.61	1748.97
451.81	1681.38
452.02	1785.83
452.22	1757.16
452.43	1679.33
452.63	1687.53
452.84	1742.82
453.04	1736.68
453.24	1683.43
453.45	1675.24
453.65	1675.24
453.86	1804.26
454.06	1699.81
454.26	1722.34
454.47	1638.38
454.67	1820.64
454.87	1710.05
455.08	1691.62
455.28	1761.25
455.49	1802.21
455.69	1699.81
455.89	1748.97
456.10	1808.36
456.30	1734.63
456.51	1775.59
456.71	1722.34
456.91	1720.29
457.12	1843.17
457.32	1757.16
457.52	1669.09
457.73	1673.19
457.93	1767.40
458.14	1677.29
458.34	1732.58
458.54	1689.57
458.75	1751.01
458.95	1808.36
459.15	1843.17
459.36	1763.30
459.56	1724.39
459.76	1804.26
459.97	1787.88
460.17	1736.68
460.37	1746.92
460.58	1697.77
460.78	1701.86
460.99	1722.34
461.19	1699.81
461.39	1705.96
461.60	1804.26
461.80	1691.62
462.00	1652.71
462.21	1781.73
462.41	1656.81
462.61	1665.00
462.82	1705.96
463.02	1767.40
463.22	1708.01
463.43	1742.82
463.63	1736.68
463.83	1847.27
464.04	1755.11
464.24	1767.40
464.44	1755.11
464.64	1658.85
464.85	1771.49
465.05	1869.80
465.25	1761.25
465.46	1626.09
465.66	1783.78
465.86	1832.93
466.07	1705.96
466.27	1667.05
466.47	1705.96
466.68	1636.33
466.88	1812.45
467.08	1798.12
467.29	1765.35
467.49	1814.50
467.69	1630.18
467.89	1712.10
468.10	1724.39
468.30	1802.21
468.50	1806.31
468.71	1736.68
468.91	1667.05
469.11	1877.99
469.31	1730.53
469.52	1630.18
469.72	1865.70
469.92	1814.50
470.13	1708.01
470.33	1689.57
470.53	1765.35
470.73	2201.57
470.94	2555.86
471.14	2650.07
471.34	3051.47
471.54	2824.15
471.75	2609.11
471.95	2340.83
472.15	2170.85
472.36	2312.16
472.56	2142.18
472.76	2093.02
472.96	2117.60
473.17	2007.01
473.37	1964.00
473.57	1820.64
473.77	1904.61
473.98	1794.02
474.18	1685.48
474.38	1955.81
474.58	1802.21
474.79	1701.86
474.99	1738.73
475.19	1777.64
475.39	1613.80
475.60	1724.39
475.80	1763.30
476.00	1748.97
476.20	1689.57
476.41	1679.33
476.61	1789.92
476.81	1832.93
477.01	1740.77
477.21	1787.88
477.42	1796.07
477.62	1667.05
477.82	1677.29
478.02	1656.81
478.23	1808.36
478.43	1558.50
478.63	1777.64
478.83	1722.34
479.03	1722.34
479.24	1826.79
479.44	1849.32
479.64	1673.19
479.84	1619.94
480.04	1621.99
480.25	1705.96
480.45	1626.09
480.65	1761.25
480.85	1808.36
481.06	1665.00
481.26	1722.34
481.46	1761.25
481.66	1732.58
481.86	1695.72
482.06	1767.40
482.27	1697.77
482.47	1673.19
482.67	1732.58
482.87	1699.81
483.07	1845.22
483.28	1619.94
483.48	1687.53
483.68	1697.77
483.88	1703.91
484.08	1613.80
484.29	1732.58
484.49	1701.86
484.69	1710.05
484.89	1804.26
485.09	1826.79
485.29	1777.64
485.50	1718.25
485.70	1683.43
485.90	1804.26
486.10	1740.77
486.30	1753.06
486.50	1779.68
486.71	1832.93
486.91	1787.88
487.11	1748.97
487.31	1642.47
487.51	1748.97
487.71	1638.38
487.91	1705.96
488.12	1736.68
488.32	1599.46
488.52	1677.29
488.72	1669.09
488.92	1718.25
489.12	1896.42
489.32	1759.21
489.53	1751.01
489.73	1626.09
489.93	1818.60
490.13	1718.25
490.33	1685.48
490.53	1755.11
490.73	1869.80
490.94	1652.71
491.14	1802.21
491.34	1820.64
491.54	2093.02
491.74	2693.08
491.94	3235.79
492.14	3387.34
492.34	3495.88
492.54	3127.25
492.75	2738.13
492.95	2641.88
493.15	2455.51
493.35	2349.02
493.55	2279.39
493.75	2242.53
493.95	2269.15
494.15	2041.82
494.35	1890.28
494.56	1886.18
494.76	1787.88
494.96	1798.12
495.16	1832.93
495.36	1779.68
495.56	1798.12
495.76	1763.30
495.96	1720.29
496.16	1712.10
496.36	1828.84
496.56	1765.35
496.77	1779.68
496.97	1705.96
497.17	1890.28
497.37	1656.81
497.57	1732.58
497.77	1681.38
497.97	1730.53
498.17	1787.88
498.37	1726.44
498.57	1695.72
498.77	1812.45
498.97	1824.74
499.17	1816.55
499.38	1738.73
499.58	1787.88
499.78	1849.32
499.98	1818.60
500.18	1695.72
500.38	1744.87
500.58	1910.75
500.78	2355.16
500.98	4722.62
501.18	6535.07
501.38	8275.84
501.58	8959.86
501.78	8900.47
501.98	6897.56
502.18	5883.81
502.38	5105.59
502.58	4429.76
502.78	4192.19
502.98	3903.43
503.18	3700.68
503.38	3504.07
503.59	3076.05
503.79	2906.07
503.99	2664.41
504.19	2363.36
504.39	2355.16
504.59	2369.50
504.79	2242.53
504.99	2277.34
505.19	2115.55
505.39	1923.04
505.59	1982.43
505.79	2015.20
505.99	1945.57
506.19	1822.69
506.39	1925.09
506.59	1787.88
506.79	1853.41
506.99	1910.75
507.19	1730.53
507.39	1808.36
507.59	1673.19
507.79	1710.05
507.99	1658.85
508.19	1798.12
508.39	1718.25
508.59	1673.19
508.79	1841.12
508.99	1880.04
509.19	1691.62
509.39	1761.25
509.59	1685.48
509.79	1732.58
509.99	1728.49
510.19	1900.52
510.39	1765.35
510.59	1732.58
510.79	1675.24
510.99	1716.20
511.19	1738.73
511.39	1767.40
511.59	1761.25
511.79	1769.44
511.99	1699.81
512.19	1871.84
512.38	1714.15
512.58	1662.95
512.78	1726.44
512.98	1718.25
513.18	1820.64
513.38	1648.61
513.58	1839.08
513.78	1763.30
513.98	1660.90
514.18	1697.77
514.38	1746.92
514.58	1773.54
514.78	1660.90
514.98	1699.81
515.18	1732.58
515.38	1673.19
515.58	1875.94
515.78	1728.49
515.98	1722.34
516.18	1773.54
516.38	1689.57
516.57	1736.68
516.77	1710.05
516.97	1767.40
517.17	1746.92
517.37	1685.48
517.57	1802.21
517.77	1650.66
517.97	1656.81
518.17	1773.54
518.37	1722.34
518.57	1695.72
518.77	1710.05
518.97	1724.39
519.16	1763.30
519.36	1744.87
519.56	1730.53
519.76	1732.58
519.96	1765.35
520.16	1714.15
520.36	1648.61
520.56	1814.50
520.76	1683.43
520.96	1710.05
521.16	1818.60
521.35	1763.30
521.55	1882.08
521.75	1757.16
521.95	1658.85
522.15	1716.20
522.35	1685.48
522.55	1738.73
522.75	1697.77
522.95	1665.00
523.14	1699.81
523.34	1671.14
523.54	1671.14
523.74	1804.26
523.94	1753.06
524.14	1671.14
524.34	1701.86
524.54	1802.21
524.73	1701.86
524.93	1763.30
525.13	1691.62
525.33	1740.77
525.53	1873.89
525.73	1798.12
525.93	1820.64
526.13	1710.05
526.32	1697.77
526.52	1804.26
526.72	1820.64
526.92	1718.25
527.12	1771.49
527.32	1658.85
527.52	1736.68
527.71	1806.31
527.91	1705.96
528.11	1710.05
528.31	1740.77
528.51	1660.90
528.71	1736.68
528.90	1779.68
529.10	1783.78
529.30	1888.23
529.50	1667.05
529.70	1748.97
529.90	1771.49
530.09	1769.44
530.29	1697.77
530.49	1736.68
530.69	1869.80
530.89	1779.68
531.09	1775.59
531.28	1720.29
531.48	1804.26
531.68	1765.35
531.88	1771.49
532.08	1832.93
532.28	1724.39
532.47	1767.40
532.67	1738.73
532.87	1791.97
533.07	1665.00
533.27	1791.97
533.46	1775.59
533.66	1859.56
533.86	1755.11
534.06	1787.88
534.26	1845.22
534.45	1882.08
534.65	1867.75
534.85	1759.21
535.05	1642.47
535.25	1791.97
535.44	1744.87
535.64	1785.83
535.84	1718.25
536.04	1730.53
536.24	1759.21
536.43	1710.05
536.63	1763.30
536.83	1701.86
537.03	1677.29
537.22	1652.71
537.42	1656.81
537.62	1703.91
537.82	1691.62
538.02	1812.45
538.21	1767.40
538.41	1910.75
538.61	1740.77
538.81	1763.30
539.00	1783.78
539.20	1648.61
539.40	1796.07
539.60	1710.05
539.79	1794.02
539.99	1730.53
540.19	1656.81
540.39	1718.25
540.58	1796.07
540.78	1820.64
540.98	1779.68
541.18	1736.68
541.37	1804.26
541.57	1769.44
541.77	1787.88
541.97	1656.81
542.16	1726.44
542.36	1705.96
542.56	1820.64
542.76	1841.12
542.95	1755.11
543.15	1724.39
543.35	1761.25
543.54	1728.49
543.74	1738.73
543.94	1751.01
544.14	1773.54
544.33	1791.97
544.53	1624.04
544.73	1769.44
544.93	1671.14
545.12	1796.07
545.32	1736.68
545.52	1710.05
545.71	1679.33
545.91	1794.02
546.11	1734.63
546.30	1603.56
546.50	1744.87
546.70	1775.59
546.90	1783.78
547.09	1642.47
547.29	1763.30
547.49	1794.02
547.68	1767.40
547.88	1650.66
548.08	1769.44
548.27	2209.76
548.47	1677.29
548.67	1755.11
548.87	1759.21
549.06	1705.96
549.26	1746.92
549.46	1710.05
549.65	1746.92
549.85	1730.53
550.05	1718.25
550.24	1669.09
550.44	1675.24
550.64	1744.87
550.83	1757.16
551.03	1779.68
551.23	1798.12
551.42	1726.44
551.62	1830.88
551.82	1718.25
552.01	1662.95
552.21	1826.79
552.41	1800.16
552.60	1834.98
552.80	1705.96
553.00	1732.58
553.19	1740.77
553.39	1798.12
553.59	1595.37
553.78	1730.53
553.98	1718.25
554.17	1638.38
554.37	1722.34
554.57	1732.58
554.76	1607.66
554.96	1689.57
555.16	1810.40
555.35	1718.25
555.55	1736.68
555.75	1779.68
555.94	1857.51
556.14	1697.77
556.33	1685.48
556.53	1732.58
556.73	1787.88
556.92	1812.45
557.12	1851.36
557.32	1779.68
557.51	1738.73
557.71	1808.36
557.90	1812.45
558.10	1812.45
558.30	1656.81
558.49	1675.24
558.69	1763.30
558.88	1718.25
559.08	1773.54
559.28	1689.57
559.47	1751.01
559.67	1828.84
559.86	1896.42
560.06	1804.26
560.26	1675.24
560.45	1740.77
560.65	1759.21
560.84	1781.73
561.04	1726.44
561.24	1787.88
561.43	1732.58
561.63	1804.26
561.82	1738.73
562.02	1746.92
562.22	1716.20
562.41	1574.89
562.61	1705.96
562.80	1638.38
563.00	1886.18
563.19	1740.77
563.39	1732.58
563.59	1763.30
563.78	1746.92
563.98	1708.01
564.17	1732.58
564.37	1636.33
564.56	1734.63
564.76	1689.57
564.96	1865.70
565.15	1800.16
565.35	1904.61
565.54	1710.05
565.74	1740.77
565.93	1787.88
566.13	1730.53
566.32	1746.92
566.52	1693.67
566.71	1800.16
566.91	1748.97
567.11	1703.91
567.30	1728.49
567.50	1779.68
567.69	1779.68
567.89	1771.49
568.08	1656.81
568.28	1738.73
568.47	1687.53
568.67	1767.40
568.86	1757.16
569.06	1755.11
569.25	1757.16
569.45	1648.61
569.64	1798.12
569.84	1689.57
570.04	1705.96
570.23	1701.86
570.43	1722.34
570.62	1744.87
570.82	1849.32
571.01	1677.29
571.21	1742.82
571.40	1714.15
571.60	1730.53
571.79	1810.40
571.99	1722.34
572.18	1679.33
572.38	1722.34
572.57	1765.35
572.77	1785.83
572.96	1869.80
573.16	1781.73
573.35	1695.72
573.55	1886.18
573.74	1744.87
573.94	1777.64
574.13	1728.49
574.33	1824.74
574.52	1847.27
574.71	1789.92
574.91	1810.40
575.10	1683.43
575.30	1730.53
575.49	1701.86
575.69	1673.19
575.88	1771.49
576.08	1763.30
576.27	1888.23
576.47	1796.07
576.66	1947.62
576.86	1806.31
577.05	1818.60
577.25	1804.26
577.44	1906.66
577.64	1757.16
577.83	1810.40
578.02	1767.40
578.22	1822.69
578.41	1855.46
578.61	1759.21
578.80	1685.48
579.00	1732.58
579.19	1759.21
579.39	1777.64
579.58	1779.68
579.77	1740.77
579.97	1808.36
580.16	1837.03
580.36	1886.18
580.55	1832.93
580.75	1785.83
580.94	1796.07
581.13	1869.80
581.33	1896.42
581.52	1751.01
581.72	1935.33
581.91	1886.18
582.11	1767.40
582.30	1873.89
582.49	1775.59
582.69	1812.45
582.88	1828.84
583.08	1865.70
583.27	1865.70
583.47	1714.15
583.66	1814.50
583.85	1734.63
584.05	1769.44
584.24	1787.88
584.44	1841.12
584.63	1857.51
584.82	1902.56
585.02	1845.22
585.21	1892.32
585.41	1943.52
585.60	1857.51
585.79	1908.71
585.99	2000.87
586.18	1943.52
586.37	2240.48
586.57	3370.96
586.76	9647.98
586.96	26859.11
587.15	41414.02
587.34	50994.42
587.54	57330.84
587.73	54987.96
587.93	39835.04
588.12	29335.10
588.31	23459.48
588.51	20192.97
588.70	18355.94
588.89	16963.33
589.09	15370.01
589.28	13469.49
589.47	11251.54
589.67	9344.88
589.86	7358.35
590.06	5306.29
590.25	4145.09
590.44	3168.21
590.64	2703.32
590.83	2248.67
591.02	2107.36
591.22	1984.48
591.41	1912.80
591.60	1882.08
591.80	1929.19
591.99	1808.36
592.18	1783.78
592.38	1847.27
592.57	1748.97
592.76	1791.97
592.96	1779.68
593.15	1865.70
593.34	1855.46
593.54	1843.17
593.73	1892.32
593.92	1734.63
594.12	1798.12
594.31	1820.64
594.50	1828.84
594.70	1884.13
594.89	1941.47
595.08	1708.01
595.28	1880.04
595.47	1984.48
595.66	1847.27
595.86	1751.01
596.05	1621.99
596.24	1777.64
596.43	1834.98
596.63	1822.69
596.82	1814.50
597.01	1806.31
597.21	1904.61
597.40	1828.84
597.59	1751.01
597.79	1736.68
597.98	1789.92
598.17	1785.83
598.36	1806.31
598.56	1800.16
598.75	1730.53
598.94	1773.54
599.14	1785.83
599.33	1740.77
599.52	1705.96
599.71	1761.25
599.91	1859.56
600.10	1818.60
600.29	1718.25
600.48	1753.06
600.68	1816.55
600.87	1765.35
601.06	1740.77
601.26	1759.21
601.45	1781.73
601.64	1730.53
601.83	1761.25
602.03	1691.62
602.22	1667.05
602.41	1808.36
602.60	1920.99
602.80	1855.46
602.99	1785.83
603.18	1679.33
603.37	1753.06
603.57	1804.26
603.76	1775.59
603.95	1783.78
604.14	1751.01
604.34	1671.14
604.53	1691.62
604.72	1791.97
604.91	1757.16
605.10	1744.87
605.30	1673.19
605.49	1865.70
605.68	1812.45
605.87	1695.72
606.07	1673.19
606.26	1734.63
606.45	1738.73
606.64	1728.49
606.84	1765.35
607.03	1779.68
607.22	1855.46
607.41	1740.77
607.60	1708.01
607.80	1791.97
607.99	1703.91
608.18	1751.01
608.37	1679.33
608.56	1718.25
608.76	1785.83
608.95	1898.47
609.14	1834.98
609.33	1910.75
609.52	1886.18
609.72	1908.71
609.91	1890.28
610.10	1808.36
610.29	1906.66
610.48	1769.44
610.68	1855.46
610.87	1705.96
611.06	1808.36
611.25	1720.29
611.44	1832.93
611.63	1734.63
611.83	1882.08
612.02	1636.33
612.21	1834.98
612.40	1689.57
612.59	1714.15
612.79	1673.19
612.98	1834.98
613.17	1787.88
613.36	1708.01
613.55	1861.60
613.74	1877.99
613.93	1837.03
614.13	1910.75
614.32	1951.71
614.51	1990.63
614.70	1822.69
614.89	1802.21
615.08	1832.93
615.28	2105.31
615.47	1769.44
615.66	1763.30
615.85	1851.36
616.04	1861.60
616.23	1816.55
616.42	1796.07
616.62	1771.49
616.81	1871.84
617.00	1695.72
617.19	1806.31
617.38	1714.15
617.57	1810.40
617.76	1759.21
617.95	1773.54
618.15	1757.16
618.34	1748.97
618.53	1650.66
618.72	1791.97
618.91	1800.16
619.10	1777.64
619.29	1748.97
619.48	1710.05
619.68	1660.90
619.87	1734.63
620.06	1648.61
620.25	1824.74
620.44	1701.86
620.63	1718.25
620.82	1716.20
621.01	1718.25
621.20	1753.06
621.39	1740.77
621.59	1775.59
621.78	1710.05
621.97	1693.67
622.16	1738.73
622.35	1773.54
622.54	1724.39
622.73	1841.12
622.92	1624.04
623.11	1771.49
623.30	1779.68
623.49	1779.68
623.68	1685.48
623.88	1738.73
624.07	1822.69
624.26	1673.19
624.45	1783.78
624.64	1708.01
624.83	1802.21
625.02	1734.63
625.21	1734.63
625.40	1720.29
625.59	1791.97
625.78	1695.72
625.97	1822.69
626.16	1849.32
626.35	1847.27
626.54	1816.55
626.74	1871.84
626.93	1816.55
627.12	1800.16
627.31	1861.60
627.50	1751.01
627.69	1677.29
627.88	1800.16
628.07	1763.30
628.26	1669.09
628.45	1751.01
628.64	1671.14
628.83	1781.73
629.02	1708.01
629.21	1736.68
629.40	1781.73
629.59	1720.29
629.78	1753.06
629.97	1667.05
630.16	1689.57
630.35	1689.57
630.54	1794.02
630.73	1757.16
630.92	1734.63
631.11	1564.65
631.30	1644.52
631.49	1730.53
631.68	1732.58
631.87	1740.77
632.06	1628.14
632.25	1828.84
632.44	1767.40
632.63	1761.25
632.82	1791.97
633.01	1746.92
633.20	1849.32
633.39	1859.56
633.58	1812.45
633.77	1791.97
633.96	1828.84
634.15	1763.30
634.34	1824.74
634.53	1775.59
634.72	1779.68
634.91	1730.53
635.10	1742.82
635.29	1808.36
635.48	1716.20
635.67	1677.29
635.86	1781.73
636.05	1800.16
636.24	1693.67
636.43	1787.88
636.62	1738.73
636.81	1658.85
637.00	1765.35
637.19	1775.59
637.38	1703.91
637.57	1644.52
637.76	1777.64
637.95	1853.41
638.14	1816.55
638.33	1839.08
638.52	1757.16
638.71	1751.01
638.89	1628.14
639.08	1871.84
639.27	1871.84
639.46	1927.14
639.65	2203.61
639.84	2228.19
640.03	2373.60
640.22	2365.40
640.41	2269.15
640.60	2033.63
640.79	1990.63
640.98	1871.84
641.17	1959.91
641.36	1937.38
641.55	2019.30
641.74	1810.40
641.92	1834.98
642.11	1736.68
642.30	1800.16
642.49	1738.73
642.68	1755.11
642.87	1802.21
643.06	1837.03
643.25	1757.16
643.44	1681.38
643.63	1648.61
643.82	1796.07
644.00	1636.33
644.19	1755.11
644.38	1669.09
644.57	1798.12
644.76	1656.81
644.95	1722.34
645.14	1798.12
645.33	1636.33
645.52	1736.68
645.71	1656.81
645.89	1626.09
646.08	1730.53
646.27	1662.95
646.46	1839.08
646.65	1615.85
646.84	1771.49
647.03	1605.61
647.22	1822.69
647.40	1751.01
647.59	1718.25
647.78	1652.71
647.97	1695.72
648.16	1630.18
648.35	1812.45
648.54	1791.97
648.73	1685.48
648.91	1769.44
649.10	1755.11
649.29	1667.05
649.48	1691.62
649.67	1697.77
649.86	1783.78
650.05	1834.98
650.23	1927.14
650.42	1806.31
650.61	1896.42
650.80	2013.15
650.99	1994.72
651.18	1818.60
651.36	1832.93
651.55	1701.86
651.74	1820.64
651.93	1734.63
652.12	1708.01
652.31	1705.96
652.49	1746.92
652.68	1748.97
652.87	1804.26
653.06	1775.59
653.25	1837.03
653.44	1746.92
653.62	1865.70
653.81	1716.20
654.00	1730.53
654.19	1759.21
654.38	1841.12
654.56	1755.11
654.75	1662.95
654.94	1830.88
655.13	1789.92
655.32	1667.05
655.51	1826.79
655.69	1689.57
655.88	1789.92
656.07	1701.86
656.26	1658.85
656.45	1669.09
656.63	1746.92
656.82	1724.39
657.01	1773.54
657.20	1736.68
657.38	1837.03
657.57	1777.64
657.76	1644.52
657.95	1689.57
658.14	1671.14
658.32	1763.30
658.51	1685.48
658.70	1730.53
658.89	1783.78
659.08	1783.78
659.26	1800.16
659.45	1685.48
659.64	1816.55
659.83	1746.92
660.01	1980.39
660.20	1710.05
660.39	1851.36
660.58	1648.61
660.76	1726.44
660.95	1732.58
661.14	1699.81
661.33	1693.67
661.51	1734.63
661.70	1718.25
661.89	1728.49
662.08	1763.30
662.26	1740.77
662.45	1589.22
662.64	1787.88
662.83	1777.64
663.01	1671.14
663.20	1718.25
663.39	1794.02
663.58	1740.77
663.76	1685.48
663.95	1734.63
664.14	1697.77
664.32	1724.39
664.51	1742.82
664.70	1628.14
664.89	1742.82
665.07	1669.09
665.26	1828.84
665.45	1677.29
665.64	1738.73
665.82	1832.93
666.01	1798.12
666.20	1677.29
666.38	1800.16
666.57	1849.32
666.76	2193.37
666.95	4405.18
667.13	11417.43
667.32	18274.03
667.51	21989.04
667.69	24565.39
667.88	25142.91
668.07	19607.25
668.25	14352.16
668.44	11759.44
668.63	9858.92
668.81	8562.56
669.00	7522.19
669.19	6979.48
669.38	6000.55
669.56	5322.67
669.75	4448.19
669.94	3854.28
670.12	3000.27
670.31	2734.04
670.50	2285.53
670.68	2127.84
670.87	1918.95
671.06	1816.55
671.24	1834.98
671.43	1912.80
671.62	1765.35
671.80	1800.16
671.99	1738.73
672.18	1759.21
672.36	1832.93
672.55	1804.26
672.74	1748.97
672.92	1738.73
673.11	1742.82
673.29	1736.68
673.48	1753.06
673.67	1693.67
673.85	1783.78
674.04	1695.72
674.23	1759.21
674.41	1806.31
674.60	1689.57
674.79	1640.42
674.97	1656.81
675.16	1771.49
675.34	1757.16
675.53	1738.73
675.72	1755.11
675.90	1751.01
676.09	1714.15
676.28	1734.63
676.46	1648.61
676.65	1763.30
676.83	1652.71
677.02	1779.68
677.21	1689.57
677.39	1736.68
677.58	1593.32
677.77	1683.43
677.95	1673.19
678.14	1681.38
678.32	1742.82
678.51	1660.90
678.70	1845.22
678.88	1699.81
679.07	1802.21
679.25	1757.16
679.44	1751.01
679.63	1630.18
679.81	1734.63
680.00	1755.11
680.18	1716.20
680.37	1720.29
680.55	1738.73
680.74	1710.05
680.93	1716.20
681.11	1708.01
681.30	1673.19
681.48	1716.20
681.67	1712.10
681.85	1705.96
682.04	1708.01
682.23	1791.97
682.41	1798.12
682.60	1722.34
682.78	1753.06
682.97	1681.38
683.15	1693.67
683.34	1791.97
683.53	1804.26
683.71	1714.15
683.90	1837.03
684.08	1767.40
684.27	1687.53
684.45	1689.57
684.64	1761.25
684.82	1681.38
685.01	1734.63
685.19	1712.10
685.38	1783.78
685.57	1724.39
685.75	1685.48
685.94	1701.86
686.12	1605.61
686.31	1642.47
686.49	1816.55
686.68	1662.95
686.86	1718.25
687.05	1730.53
687.23	1869.80
687.42	1718.25
687.60	1677.29
687.79	1744.87
687.97	1798.12
688.16	1859.56
688.34	1751.01
688.53	1566.70
688.71	1755.11
688.90	1773.54
689.08	1660.90
689.27	1568.74
689.45	1785.83
689.64	1699.81
689.82	1726.44
690.01	1697.77
690.19	1773.54
690.38	1697.77
690.56	1761.25
690.75	1660.90
690.93	1738.73
691.12	1656.81
691.30	1665.00
691.49	1708.01
691.67	1632.23
691.86	1814.50
692.04	1630.18
692.23	1695.72
692.41	1716.20
692.60	1957.86
692.78	1798.12
692.97	1787.88
693.15	1804.26
693.34	1871.84
693.52	1820.64
693.71	1724.39
693.89	1683.43
694.08	1677.29
694.26	1783.78
694.44	1808.36
694.63	1759.21
694.81	1746.92
695.00	1632.23
695.18	1755.11
695.37	1857.51
695.55	1722.34
695.74	1736.68
695.92	1673.19
696.10	1763.30
696.29	1628.14
696.47	1687.53
696.66	1667.05
696.84	1599.46
697.03	1710.05
697.21	1828.84
697.40	2351.07
697.58	1742.82
697.76	1703.91
697.95	1681.38
698.13	1685.48
698.32	1687.53
698.50	1710.05
698.68	1765.35
698.87	1775.59
699.05	1869.80
699.24	1757.16
699.42	1669.09
699.61	1691.62
699.79	1738.73
699.97	1673.19
700.16	1736.68
700.34	1669.09
700.53	1742.82
700.71	1869.80
700.89	1816.55
701.08	1781.73
701.26	1812.45
701.45	2101.22
701.63	1679.33
701.81	1746.92
702.00	1665.00
702.18	1716.20
702.37	1742.82
702.55	1794.02
702.73	1918.95
702.92	1812.45
703.10	2011.11
703.28	1908.71
703.47	1847.27
703.65	1945.57
703.84	1873.89
704.02	1773.54
704.20	1896.42
704.39	1742.82
704.57	1841.12
704.75	1802.21
704.94	1800.16
705.12	1791.97
705.30	1855.46
705.49	2465.75
705.67	5377.97
705.86	13084.47
706.04	19060.45
706.22	22754.98
706.41	24649.35
706.59	24415.88
706.77	18888.42
706.96	13504.31
707.14	11888.46
707.32	10073.96
707.51	9039.73
707.69	7776.14
707.87	6750.10
708.06	5525.42
708.24	4343.74
708.42	3323.85
708.61	2838.48
708.79	2275.29
708.97	2068.45
709.16	1992.67
709.34	1863.65
709.52	1771.49
709.71	1736.68
709.89	1783.78
710.07	1683.43
710.26	1689.57
710.44	1703.91
710.62	1789.92
710.80	1708.01
710.99	1673.19
711.17	1771.49
711.35	1673.19
711.54	1724.39
711.72	1791.97
711.90	1687.53
712.09	1822.69
712.27	1708.01
712.45	1824.74
712.63	1687.53
712.82	1701.86
713.00	1681.38
713.18	1769.44
713.37	1812.45
713.55	1785.83
713.73	1845.22
713.91	1658.85
714.10	1740.77
714.28	1683.43
714.46	1783.78
714.65	1761.25
714.83	1736.68
715.01	1804.26
715.19	1691.62
715.38	1660.90
715.56	1773.54
715.74	1697.77
715.92	1691.62
716.11	1802.21
716.29	1710.05
716.47	1734.63
716.65	1642.47
716.84	1593.32
717.02	1824.74
717.20	1609.70
717.38	1720.29
717.57	1722.34
717.75	1736.68
717.93	1730.53
718.11	1742.82
718.30	1689.57
718.48	1781.73
718.66	1761.25
718.84	1789.92
719.03	1673.19
719.21	1683.43
719.39	1751.01
719.57	1820.64
719.75	1740.77
719.94	1611.75
720.12	1693.67
720.30	1748.97
720.48	1767.40
720.67	1650.66
720.85	1689.57
721.03	1681.38
721.21	1705.96
721.39	1804.26
721.58	1757.16
721.76	1808.36
721.94	1718.25
722.12	1775.59
722.30	1771.49
722.49	1681.38
722.67	1722.34
722.85	1755.11
723.03	1636.33
723.21	1607.66
723.40	1718.25
723.58	1806.31
723.76	1753.06
723.94	1789.92
724.12	1841.12
724.30	1855.46
724.49	1832.93
724.67	1697.77
724.85	1820.64
725.03	1714.15
725.21	1785.83
725.40	1855.46
725.58	1726.44
725.76	1824.74
725.94	1800.16
726.12	1703.91
726.30	1730.53
726.49	1669.09
726.67	1701.86
726.85	1724.39
727.03	1796.07
727.21	2322.40
727.39	3418.06
727.57	4851.64
727.76	5527.47
727.94	6207.39
728.12	6315.94
728.30	5593.00
728.48	4415.42
728.66	4011.97
728.84	3669.96
729.03	3213.26
729.21	2840.53
729.39	2473.95
729.57	2148.32
729.75	1943.52
729.93	1925.09
730.11	1861.60
730.30	1783.78
730.48	1718.25
730.66	1822.69
730.84	1755.11
731.02	1744.87
731.20	1767.40
731.38	1642.47
731.56	1691.62
731.74	1634.28
731.93	1728.49
732.11	1753.06
732.29	1714.15
732.47	1675.24
732.65	1691.62
732.83	1849.32
733.01	1753.06
733.19	1634.28
733.37	1796.07
733.56	1708.01
733.74	1656.81
733.92	1755.11
734.10	1726.44
734.28	1736.68
734.46	1611.75
734.64	1726.44
734.82	1703.91
735.00	1697.77
735.18	1673.19
735.36	1615.85
735.54	1738.73
735.73	1738.73
735.91	1679.33
736.09	1710.05
736.27	1669.09
736.45	1796.07
736.63	1609.70
736.81	1689.57
736.99	1794.02
737.17	1724.39
737.35	1693.67
737.53	1660.90
737.71	1722.34
737.89	1771.49
738.07	1689.57
738.25	1685.48
738.43	1562.60
738.61	1658.85
738.80	1640.42
738.98	1677.29
739.16	1738.73
739.34	1759.21
739.52	1740.77
739.70	1771.49
739.88	1742.82
740.06	1851.36
740.24	1603.56
740.42	1759.21
740.60	1648.61
740.78	1636.33
740.96	1632.23
741.14	1732.58
741.32	1689.57
741.50	1689.57
741.68	1765.35
741.86	1730.53
742.04	1638.38
742.22	1642.47
742.40	1701.86
742.58	1765.35
742.76	1683.43
742.94	1781.73
743.12	1691.62
743.30	1814.50
743.48	1763.30
743.66	1591.27
743.84	1701.86
744.02	1714.15
744.20	1656.81
744.38	1689.57
744.56	1677.29
744.74	1814.50
744.92	1722.34
745.10	1845.22
745.28	1777.64
745.46	1826.79
745.64	1697.77
745.82	1812.45
746.00	1654.76
746.18	1720.29
746.36	1677.29
746.54	1724.39
746.72	1746.92
746.90	1691.62
747.08	1748.97
747.26	1677.29
747.44	1757.16
747.62	1732.58
747.80	1656.81
747.98	1787.88
748.15	1642.47
748.33	1845.22
748.51	1746.92
748.69	1798.12
748.87	1779.68
749.05	1732.58
749.23	1697.77
749.41	1753.06
749.59	1746.92
749.77	1759.21
749.95	1712.10
750.13	1634.28
750.31	1693.67
750.49	1710.05
750.67	1685.48
750.85	1787.88
751.03	1730.53
751.20	1775.59
751.38	1720.29
751.56	1714.15
751.74	1681.38
751.92	1687.53
752.10	1595.37
752.28	1800.16
752.46	1640.42
752.64	1724.39
752.82	1648.61
753.00	1830.88
753.18	1701.86
753.35	1751.01
753.53	1683.43
753.71	1736.68
753.89	1724.39
754.07	1687.53
754.25	1820.64
754.43	1730.53
754.61	1611.75
754.79	1775.59
754.97	1658.85
755.14	1857.51
755.32	1703.91
755.50	1787.88
755.68	1759.21
755.86	1697.77
756.04	1646.57
756.22	1521.64
756.40	1697.77
756.57	1824.74
756.75	1748.97
756.93	1816.55
757.11	1771.49
757.29	1738.73
757.47	1714.15
757.65	1626.09
757.82	1662.95
758.00	1695.72
758.18	1636.33
758.36	1677.29
758.54	1761.25
758.72	1665.00
758.90	1796.07
759.07	1759.21
759.25	1656.81
759.43	1710.05
759.61	1603.56
759.79	2129.89
759.97	1710.05
760.15	1761.25
760.32	1687.53
760.50	1773.54
760.68	1783.78
760.86	1607.66
761.04	1847.27
761.22	1724.39
761.39	1761.25
761.57	1726.44
761.75	1728.49
761.93	1703.91
762.11	1685.48
762.28	1724.39
762.46	1650.66
762.64	1710.05
762.82	1617.90
763.00	1619.94
763.18	1759.21
763.35	1646.57
763.53	1763.30
763.71	1712.10
763.89	1679.33
764.07	1695.72
764.24	1728.49
764.42	1714.15
764.60	1665.00
764.78	1708.01
764.96	1708.01
765.13	1705.96
765.31	1751.01
765.49	1757.16
765.67	1683.43
765.84	1671.14
766.02	1656.81
766.20	1732.58
766.38	1767.40
766.56	1765.35
766.73	1734.63
766.91	1697.77
767.09	1738.73
767.27	1753.06
767.44	1722.34
767.62	1689.57
767.80	1642.47
767.98	1654.76
768.15	1710.05
768.33	1705.96
768.51	1720.29
768.69	1730.53
768.87	1773.54
769.04	1693.67
769.22	1855.46
769.40	1767.40
769.58	1843.17
769.75	1687.53
769.93	1773.54
770.11	1736.68
770.28	1765.35
770.46	1738.73
770.64	1720.29
770.82	1644.52
770.99	1718.25
771.17	1744.87
771.35	1697.77
771.53	1687.53
771.70	1673.19
771.88	1722.34
772.06	1708.01
772.23	1679.33
772.41	1693.67
772.59	1687.53
772.77	1619.94
772.94	1703.91
773.12	1705.96
773.30	1685.48
773.47	1673.19
773.65	1638.38
773.83	1779.68
774.01	1710.05
774.18	1617.90
774.36	1669.09
774.54	1648.61
774.71	1734.63
774.89	1581.03
775.07	1636.33
775.24	1642.47
775.42	1687.53
775.60	1863.65
775.78	1726.44
775.95	1642.47
776.13	1644.52
776.31	1611.75
776.48	1693.67
776.66	1767.40
776.84	1638.38
777.01	1687.53
777.19	1660.90
777.37	1728.49
777.54	1705.96
777.72	1798.12
777.90	1708.01
778.07	1619.94
778.25	1880.04
778.43	1746.92
778.60	1652.71
778.78	1738.73
778.96	1748.97
779.13	1665.00
779.31	1769.44
779.49	1708.01
779.66	1687.53
779.84	1810.40
780.01	1728.49
780.19	1757.16
780.37	1671.14
780.54	1697.77
780.72	1726.44
780.90	1687.53
781.07	1667.05
781.25	1691.62
781.43	1753.06
781.60	1667.05
781.78	1820.64
781.95	1724.39
782.13	1689.57
782.31	1726.44
782.48	1671.14
782.66	1705.96
782.83	1824.74
783.01	1732.58
783.19	1714.15
783.36	1693.67
783.54	1656.81
783.72	1826.79
783.89	1755.11
784.07	1697.77
784.24	1705.96
784.42	1767.40
784.60	1748.97
784.77	1748.97
784.95	1660.90
785.12	1632.23
785.30	1722.34
785.47	1722.34
785.65	1708.01
785.83	1753.06
786.00	1605.61
786.18	1718.25
786.35	1619.94
786.53	1681.38
786.71	1714.15
786.88	1757.16
787.06	1763.30
787.23	1691.62
787.41	1626.09
787.58	1734.63
787.76	1667.05
787.94	1710.05
788.11	1816.55
788.29	1693.67
788.46	1591.27
788.64	1673.19
788.81	1683.43
788.99	1656.81
789.16	1679.33
789.34	1763.30
789.52	1677.29
789.69	1683.43
789.87	1597.42
790.04	1703.91
790.22	1724.39
790.39	1798.12
790.57	1687.53
790.74	1662.95
790.92	1734.63
791.09	1632.23
791.27	1689.57
791.44	1820.64
791.62	1687.53
791.79	1755.11
791.97	1599.46
792.15	1894.37
792.32	1802.21
792.50	1753.06
792.67	1816.55
792.85	1789.92
793.02	1744.87
793.20	1738.73
793.37	1630.18
793.55	1705.96
793.72	1710.05
793.90	1734.63
794.07	1705.96
794.25	1583.08
794.42	1665.00
794.60	1677.29
794.77	1705.96
794.95	1767.40
795.12	1779.68
795.30	1779.68
795.47	1646.57
795.65	1888.23
795.82	1603.56
796.00	1642.47
796.17	1746.92
796.34	1722.34
796.52	1693.67
796.69	1708.01
796.87	1810.40
797.04	1855.46
797.22	1710.05
797.39	1710.05
797.57	1804.26
797.74	1634.28
797.92	1736.68
798.09	1683.43
798.27	1771.49
798.44	1708.01
798.62	1699.81
798.79	1689.57
798.96	1722.34
799.14	1687.53
799.31	1738.73
799.49	1763.30
799.66	1624.04
799.84	1714.15
800.01	1544.17
800.19	1789.92
800.36	1652.71
800.53	1732.58
800.71	1769.44
800.88	1734.63
801.06	1621.99
801.23	1638.38
801.41	1660.90
801.58	1689.57
801.75	1652.71
801.93	1695.72
802.10	1746.92
802.28	1699.81
802.45	1679.33
802.63	1722.34
802.80	1869.80
802.97	1699.81
803.15	1705.96
803.32	1744.87
803.50	1730.53
803.67	1669.09
803.84	1658.85
804.02	1742.82
804.19	1568.74
804.37	1560.55
804.54	1603.56
804.71	1712.10
804.89	1714.15
805.06	1599.46
805.24	1611.75
805.41	1636.33
805.58	1685.48
805.76	1767.40
805.93	1697.77
806.10	1787.88
806.28	1742.82
806.45	1724.39
806.63	1765.35
806.80	1744.87
806.97	1800.16
807.15	1701.86
807.32	1695.72
807.49	1718.25
807.67	1695.72
807.84	1748.97
808.01	1691.62
808.19	1812.45
808.36	1892.32
808.54	1632.23
808.71	1650.66
808.88	1628.14
809.06	1753.06
809.23	1812.45
809.40	1671.14
809.58	1783.78
809.75	1726.44
809.92	1683.43
810.10	1816.55
810.27	1757.16
810.44	1740.77
810.62	1699.81
810.79	1665.00
810.96	1724.39
811.14	1669.09
811.31	1720.29
811.48	1693.67
811.66	1724.39
811.83	1691.62
812.00	1710.05
812.18	1730.53
812.35	1787.88
812.52	1724.39
812.69	1640.42
812.87	1650.66
813.04	1689.57
813.21	1763.30
813.39	1603.56
813.56	1693.67
813.73	1730.53
813.91	1628.14
814.08	1644.52
814.25	1763.30
814.42	1685.48
814.60	1759.21
814.77	1660.90
814.94	1724.39
815.12	1796.07
815.29	1853.41
815.46	1634.28
815.63	1679.33
815.81	1646.57
815.98	1712.10
816.15	1642.47
816.33	1691.62
816.50	1693.67
816.67	1640.42
816.84	1695.72
817.02	1679.33
817.19	1691.62
817.36	1720.29
817.53	1746.92
817.71	1718.25
817.88	1808.36
818.05	1636.33
818.22	1689.57
818.40	1851.36
818.57	1628.14
818.74	1712.10
818.91	1638.38
819.09	1656.81
819.26	1689.57
819.43	1669.09
819.60	1601.51
819.78	1712.10
819.95	1779.68
820.12	1669.09
820.29	1787.88
820.47	1824.74
820.64	1597.42
820.81	1603.56
820.98	1642.47
821.15	1656.81
821.33	1751.01
821.50	1638.38
821.67	1753.06
821.84	1746.92
822.02	1755.11
822.19	1718.25
822.36	1724.39
822.53	1740.77
822.70	1654.76
822.88	1628.14
823.05	1779.68
823.22	1755.11
823.39	1695.72
823.56	1710.05
823.74	1789.92
823.91	1638.38
824.08	1632.23
824.25	1634.28
824.42	1800.16
824.60	1671.14
824.77	1728.49
824.94	1630.18
825.11	1771.49
825.28	1689.57
825.45	1703.91
825.63	1705.96
825.80	1634.28
825.97	1773.54
826.14	1728.49
826.31	1669.09
826.48	1779.68
826.66	1648.61
826.83	1665.00
827.00	1718.25
827.17	1677.29
827.34	1740.77
827.51	1628.14
827.69	1626.09
827.86	1607.66
828.03	1656.81
828.20	1703.91
828.37	1697.77
828.54	1716.20
828.71	1662.95
828.89	1834.98
829.06	1703.91
829.23	1734.63
829.40	1656.81
829.57	1740.77
829.74	1712.10
829.91	1691.62
830.09	1650.66
830.26	1800.16
830.43	1802.21
830.60	1652.71
830.77	1769.44
830.94	1820.64
831.11	1767.40
831.28	1665.00
831.46	1710.05
831.63	1714.15
831.80	1714.15
831.97	1652.71
832.14	1722.34
832.31	1705.96
832.48	1632.23
832.65	1769.44
832.82	1759.21
832.99	1708.01
833.17	1705.96
833.34	1773.54
833.51	1685.48
833.68	1585.13
833.85	1734.63
834.02	1705.96
834.19	1634.28
834.36	1689.57
834.53	1691.62
834.70	1660.90
834.87	1783.78
835.04	1697.77
835.22	1583.08
835.39	1685.48
835.56	1640.42
835.73	1763.30
835.90	1779.68
836.07	1642.47
836.24	1736.68
836.41	1671.14
836.58	1595.37
836.75	1732.58
836.92	1734.63
837.09	1673.19
837.26	1740.77
837.43	1730.53
837.60	1773.54
837.77	1773.54
837.94	1736.68
838.12	1804.26
838.29	1724.39
838.46	1626.09
838.63	1611.75
838.80	1800.16
838.97	1763.30
839.14	1724.39
839.31	1671.14
839.48	1730.53
839.65	1714.15
839.82	1775.59
839.99	1761.25
840.16	1771.49
840.33	1710.05
840.50	1691.62
840.67	1673.19
840.84	1636.33
841.01	1701.86
841.18	1755.11
841.35	1728.49
841.52	1744.87
841.69	1767.40
841.86	1767.40
842.03	1744.87
842.20	1816.55
842.37	1759.21
842.54	1708.01
842.71	1726.44
842.88	1554.41
843.05	1761.25
843.22	1644.52
843.39	1691.62
843.56	1675.24
843.73	1705.96
843.90	1769.44
844.07	1732.58
844.24	1642.47
844.41	1705.96
844.58	1669.09
844.75	1755.11
844.92	1677.29
845.09	1779.68
845.26	1675.24
845.43	1748.97
845.60	1708.01
845.77	1759.21
845.94	1671.14
846.10	1812.45
846.27	1710.05
846.44	1648.61
846.61	1683.43
846.78	1736.68
846.95	1775.59
847.12	1724.39
847.29	1708.01
847.46	1615.85
847.63	1822.69
847.80	1722.34
847.97	1705.96
848.14	1910.75
848.31	1755.11
848.48	1701.86
848.65	1712.10
848.82	1691.62
848.98	1851.36
849.15	1726.44
849.32	1783.78
849.49	1753.06
849.66	1673.19
849.83	1722.34
850.00	1748.97
850.17	1669.09
850.34	1738.73
850.51	1626.09
850.68	1689.57
850.85	1845.22
851.01	1714.15
851.18	1730.53
851.35	1730.53
851.52	1660.90
851.69	1734.63
851.86	1669.09
852.03	1599.46
852.20	1705.96
852.37	1763.30
852.53	1669.09
852.70	1689.57
852.87	1724.39
853.04	1847.27
853.21	1660.90
853.38	1759.21
853.55	1773.54
853.72	1734.63
853.89	1626.09
854.05	1683.43
854.22	1683.43
854.39	1665.00
854.56	1740.77
854.73	1843.17
854.90	1685.48
855.07	1658.85
855.23	1673.19
855.40	1712.10
855.57	1714.15
855.74	1597.42
855.91	1894.37
856.08	1669.09
856.25	1683.43
856.41	1728.49
856.58	1603.56
856.75	1724.39
856.92	1669.09
857.09	1685.48
857.26	1662.95
857.42	1769.44
857.59	1791.97
857.76	1683.43
857.93	1724.39
858.10	1705.96
858.27	1654.76
858.43	1718.25
858.60	1640.42
858.77	1681.38
858.94	1654.76
859.11	1716.20
859.27	1658.85
859.44	1613.80
859.61	1796.07
859.78	1746.92
859.95	1724.39
860.12	1675.24
860.28	1828.84
860.45	1810.40
860.62	1628.14
860.79	1767.40
860.95	1667.05
861.12	1681.38
861.29	1687.53
861.46	1667.05
861.63	1722.34
861.79	1689.57
861.96	1679.33
862.13	1693.67
862.30	1794.02
862.47	1699.81
862.63	1689.57
862.80	1742.82
862.97	1738.73
863.14	1751.01
863.30	1779.68
863.47	1681.38
863.64	1804.26
863.81	1746.92
863.97	1697.77
864.14	1681.38
864.31	1710.05
864.48	1699.81
864.65	1722.34
864.81	1738.73
864.98	1716.20
865.15	1777.64
865.32	1763.30
865.48	1751.01
865.65	1738.73
865.82	1669.09
865.98	1656.81
866.15	1736.68
866.32	1738.73
866.49	1695.72
866.65	1728.49
866.82	1652.71
866.99	1665.00
867.16	1640.42
867.32	1683.43
867.49	1642.47
867.66	1740.77
867.83	1621.99
867.99	1589.22
868.16	1593.32
868.33	1656.81
868.49	1722.34
868.66	1660.90
868.83	1773.54
868.99	1695.72
869.16	1738.73
869.33	1796.07
869.50	1744.87
869.66	1632.23
869.83	1800.16
870.00	1630.18
870.16	1722.34
870.33	1650.66
870.50	1691.62
870.66	1665.00
870.83	1755.11
871.00	1689.57
871.17	1718.25
871.33	1783.78
871.50	1716.20
871.67	1689.57
871.83	1660.90
872.00	1761.25
872.17	1699.81
872.33	1839.08
872.50	1812.45
872.67	1644.52
872.83	1638.38
873.00	1683.43
873.17	1746.92
873.33	1714.15
873.50	1724.39
873.67	1656.81
873.83	1708.01
874.00	1722.34
874.16	1812.45
874.33	1734.63
874.50	1603.56
874.66	1708.01
874.83	1740.77
875.00	1724.39
875.16	1841.12
875.33	1761.25
875.50	1562.60
875.66	1646.57
875.83	1738.73
875.99	1736.68
876.16	1689.57
876.33	1595.37
876.49	1763.30
876.66	1740.77
876.83	1726.44
876.99	1585.13
877.16	1714.15
877.32	1716.20
877.49	1638.38
877.66	1701.86
877.82	1824.74
877.99	1763.30
878.15	1806.31
878.32	1796.07
878.49	1722.34
878.65	1730.53
878.82	1861.60
878.98	1591.27
879.15	1775.59
879.32	1861.60
879.48	1755.11
879.65	1660.90
879.81	1714.15
879.98	1722.34
880.15	1755.11
880.31	1683.43
880.48	1599.46
880.64	1753.06
880.81	1714.15
880.97	1771.49
881.14	1714.15
881.31	1699.81
881.47	1861.60
881.64	1632.23
881.80	1656.81
881.97	1777.64
882.13	1806.31
882.30	1689.57
882.47	1624.04
882.63	1705.96
882.80	1675.24
882.96	1710.05
883.13	1751.01
883.29	1683.43
883.46	1796.07
883.62	1800.16
883.79	1691.62
883.95	1787.88
884.12	1714.15
884.29	1693.67
884.45	1665.00
884.62	1734.63
884.78	1658.85
884.95	1791.97
885.11	1673.19
885.28	1761.25
885.44	1665.00
885.61	1679.33
885.77	1820.64
885.94	1732.58
886.10	1630.18
886.27	1685.48
886.43	1806.31
886.60	1777.64
886.76	1638.38
886.93	1679.33
887.09	1701.86
887.26	1662.95
887.42	1781.73
887.59	1773.54
887.75	1816.55
887.92	1714.15
888.08	1736.68
888.25	1847.27
888.41	1712.10
888.58	1683.43
888.74	1640.42
888.91	1619.94
>>>>>End Processed Spectral Data<<<<<
