SpectraSuite Data File
++++++++++++++++++++++++++++++++++++
Date: Wed May 04 18:44:04 CEST 2016
User: root
Dark Spectrum Present: No
Reference Spectrum Present: No
Number of Sampled Component Spectra: 1
Spectrometers: USB4C02835
Integration Time (usec): 100000 (USB4C02835)
Spectra Averaged: 1 (USB4C02835)
Boxcar Smoothing: 0 (USB4C02835)
Correct for Electrical Dark: No (USB4C02835)
Strobe/Lamp Enabled: No (USB4C02835)
Correct for Detector Non-linearity: No (USB4C02835)
Correct for Stray Light: No (USB4C02835)
Number of Pixels in Processed Spectrum: 3648
>>>>>Begin Processed Spectral Data<<<<<
177.47	1427.43
177.69	1427.43
177.91	1427.43
178.13	1511.40
178.36	1468.39
178.58	1630.18
178.80	1708.01
179.02	1685.48
179.24	1652.71
179.46	1716.20
179.68	1773.54
179.90	1634.28
180.13	1712.10
180.35	1611.75
180.57	1744.87
180.79	1716.20
181.01	1738.73
181.23	1691.62
181.45	1748.97
181.67	1748.97
181.90	1703.91
182.12	1689.57
182.34	1611.75
182.56	1705.96
182.78	1691.62
183.00	1695.72
183.22	1757.16
183.44	1566.70
183.66	1824.74
183.89	1789.92
184.11	1765.35
184.33	1732.58
184.55	1779.68
184.77	1712.10
184.99	1769.44
185.21	1703.91
185.43	1857.51
185.65	1740.77
185.87	1742.82
186.10	1832.93
186.32	1787.88
186.54	1716.20
186.76	1714.15
186.98	1837.03
187.20	1724.39
187.42	1648.61
187.64	1677.29
187.86	1691.62
188.08	1730.53
188.30	1695.72
188.52	1726.44
188.75	1830.88
188.97	1777.64
189.19	1636.33
189.41	1732.58
189.63	1773.54
189.85	1751.01
190.07	1605.61
190.29	1638.38
190.51	1773.54
190.73	1621.99
190.95	1839.08
191.17	1740.77
191.39	1632.23
191.61	1738.73
191.84	1695.72
192.06	1738.73
192.28	1556.46
192.50	1918.95
192.72	1669.09
192.94	1710.05
193.16	1759.21
193.38	1710.05
193.60	1656.81
193.82	1634.28
194.04	1767.40
194.26	1716.20
194.48	1765.35
194.70	1613.80
194.92	1755.11
195.14	1675.24
195.36	1685.48
195.58	1701.86
195.80	1742.82
196.02	1665.00
196.24	1660.90
196.46	1771.49
196.69	1609.70
196.91	1884.13
197.13	1675.24
197.35	1681.38
197.57	1781.73
197.79	1785.83
198.01	1742.82
198.23	1816.55
198.45	1791.97
198.67	1705.96
198.89	1736.68
199.11	1734.63
199.33	1660.90
199.55	1589.22
199.77	1679.33
199.99	1742.82
200.21	1660.90
200.43	1802.21
200.65	1658.85
200.87	1601.51
201.09	1669.09
201.31	1650.66
201.53	1730.53
201.75	1787.88
201.97	1728.49
202.19	1787.88
202.41	1736.68
202.63	1871.84
202.85	1675.24
203.07	1722.34
203.29	1599.46
203.51	1685.48
203.73	1644.52
203.95	1814.50
204.17	1718.25
204.39	1685.48
204.61	1703.91
204.83	1673.19
205.05	1808.36
205.27	1732.58
205.49	1873.89
205.71	1632.23
205.93	1665.00
206.15	1681.38
206.37	1732.58
206.59	1761.25
206.81	1578.98
207.03	1615.85
207.25	1724.39
207.47	1753.06
207.69	1665.00
207.91	1771.49
208.13	1759.21
208.34	1648.61
208.56	1632.23
208.78	1732.58
209.00	1650.66
209.22	1673.19
209.44	1593.32
209.66	1687.53
209.88	1732.58
210.10	1671.14
210.32	1730.53
210.54	1724.39
210.76	1710.05
210.98	1767.40
211.20	1527.78
211.42	1689.57
211.64	1761.25
211.86	1753.06
212.08	1681.38
212.30	1742.82
212.52	1693.67
212.74	1748.97
212.96	1726.44
213.17	1736.68
213.39	1753.06
213.61	1818.60
213.83	1763.30
214.05	1644.52
214.27	1734.63
214.49	1671.14
214.71	1611.75
214.93	1779.68
215.15	1667.05
215.37	1873.89
215.59	1689.57
215.81	1755.11
216.03	1736.68
216.24	1712.10
216.46	1652.71
216.68	1751.01
216.90	1779.68
217.12	1777.64
217.34	1755.11
217.56	1695.72
217.78	1800.16
218.00	1712.10
218.22	1677.29
218.44	1746.92
218.66	1718.25
218.87	1796.07
219.09	1628.14
219.31	1755.11
219.53	1757.16
219.75	1683.43
219.97	1656.81
220.19	1679.33
220.41	1632.23
220.63	1808.36
220.85	1773.54
221.06	1712.10
221.28	1736.68
221.50	1775.59
221.72	1759.21
221.94	1695.72
222.16	1722.34
222.38	1701.86
222.60	1816.55
222.82	1705.96
223.03	1722.34
223.25	1640.42
223.47	1802.21
223.69	1810.40
223.91	1714.15
224.13	1738.73
224.35	1628.14
224.57	1787.88
224.78	1697.77
225.00	1617.90
225.22	1705.96
225.44	1751.01
225.66	1712.10
225.88	1632.23
226.10	1703.91
226.32	1718.25
226.53	1779.68
226.75	1738.73
226.97	1705.96
227.19	1714.15
227.41	1669.09
227.63	1677.29
227.85	1597.42
228.06	1699.81
228.28	1617.90
228.50	1787.88
228.72	1683.43
228.94	1695.72
229.16	1658.85
229.37	1578.98
229.59	1693.67
229.81	1814.50
230.03	1740.77
230.25	1675.24
230.47	1714.15
230.69	1703.91
230.90	1699.81
231.12	1714.15
231.34	1759.21
231.56	1697.77
231.78	1603.56
232.00	1730.53
232.21	1695.72
232.43	1683.43
232.65	1626.09
232.87	1728.49
233.09	1681.38
233.30	1662.95
233.52	1759.21
233.74	1716.20
233.96	1687.53
234.18	1728.49
234.40	1724.39
234.61	1857.51
234.83	1679.33
235.05	1613.80
235.27	1830.88
235.49	1753.06
235.70	1738.73
235.92	1841.12
236.14	1773.54
236.36	1791.97
236.58	1660.90
236.79	1705.96
237.01	1685.48
237.23	1673.19
237.45	1843.17
237.67	1724.39
237.88	1710.05
238.10	1775.59
238.32	1624.04
238.54	1716.20
238.76	1697.77
238.97	1605.61
239.19	1628.14
239.41	1687.53
239.63	1789.92
239.85	1646.57
240.06	1714.15
240.28	1720.29
240.50	1757.16
240.72	1734.63
240.93	1687.53
241.15	1742.82
241.37	1716.20
241.59	1800.16
241.81	1695.72
242.02	1718.25
242.24	1724.39
242.46	1734.63
242.68	1646.57
242.89	1703.91
243.11	1697.77
243.33	1699.81
243.55	1703.91
243.76	1699.81
243.98	1724.39
244.20	1714.15
244.42	1691.62
244.64	1691.62
244.85	1662.95
245.07	1691.62
245.29	1697.77
245.51	1624.04
245.72	1718.25
245.94	1783.78
246.16	1744.87
246.38	1724.39
246.59	1669.09
246.81	1671.14
247.03	1742.82
247.24	1630.18
247.46	1732.58
247.68	1720.29
247.90	1662.95
248.11	1738.73
248.33	1759.21
248.55	1746.92
248.77	1695.72
248.98	1787.88
249.20	1720.29
249.42	1726.44
249.64	1763.30
249.85	1683.43
250.07	1626.09
250.29	1771.49
250.50	1705.96
250.72	1634.28
250.94	1720.29
251.16	1732.58
251.37	1728.49
251.59	1708.01
251.81	1726.44
252.02	1828.84
252.24	1632.23
252.46	1722.34
252.68	1685.48
252.89	1656.81
253.11	1632.23
253.33	1775.59
253.54	1861.60
253.76	1638.38
253.98	1644.52
254.20	1720.29
254.41	1656.81
254.63	1738.73
254.85	1624.04
255.06	1703.91
255.28	1724.39
255.50	1656.81
255.71	1673.19
255.93	1667.05
256.15	1722.34
256.36	1738.73
256.58	1607.66
256.80	1685.48
257.02	1710.05
257.23	1658.85
257.45	1771.49
257.67	1751.01
257.88	1603.56
258.10	1689.57
258.32	1705.96
258.53	1730.53
258.75	1824.74
258.97	1689.57
259.18	1701.86
259.40	1693.67
259.62	1791.97
259.83	1767.40
260.05	1730.53
260.27	1988.58
260.48	1785.83
260.70	1642.47
260.92	1789.92
261.13	1710.05
261.35	1673.19
261.57	1685.48
261.78	1581.03
262.00	1677.29
262.22	1808.36
262.43	1628.14
262.65	1658.85
262.86	1591.27
263.08	1830.88
263.30	1683.43
263.51	1656.81
263.73	1656.81
263.95	1738.73
264.16	1701.86
264.38	1701.86
264.60	1695.72
264.81	1671.14
265.03	1816.55
265.25	1730.53
265.46	1716.20
265.68	1771.49
265.89	1736.68
266.11	1574.89
266.33	1689.57
266.54	1855.46
266.76	1787.88
266.98	1736.68
267.19	1863.65
267.41	1671.14
267.62	1628.14
267.84	1599.46
268.06	1720.29
268.27	1677.29
268.49	1845.22
268.70	1806.31
268.92	1703.91
269.14	1642.47
269.35	1621.99
269.57	1693.67
269.79	1724.39
270.00	1701.86
270.22	1726.44
270.43	1693.67
270.65	1603.56
270.87	1740.77
271.08	1777.64
271.30	1701.86
271.51	1736.68
271.73	1751.01
271.95	1761.25
272.16	1740.77
272.38	1757.16
272.59	1724.39
272.81	1693.67
273.02	1708.01
273.24	1673.19
273.46	1738.73
273.67	1609.70
273.89	1632.23
274.10	1621.99
274.32	1771.49
274.54	1724.39
274.75	1689.57
274.97	1687.53
275.18	1761.25
275.40	1746.92
275.61	1742.82
275.83	1738.73
276.05	1730.53
276.26	1773.54
276.48	1736.68
276.69	1662.95
276.91	1630.18
277.12	1781.73
277.34	1761.25
277.55	1783.78
277.77	1701.86
277.99	1634.28
278.20	1667.05
278.42	1632.23
278.63	1601.51
278.85	1572.84
279.06	1601.51
279.28	1679.33
279.49	1771.49
279.71	1714.15
279.93	1757.16
280.14	1814.50
280.36	1658.85
280.57	1615.85
280.79	1753.06
281.00	1662.95
281.22	1673.19
281.43	1710.05
281.65	1691.62
281.86	1693.67
282.08	1728.49
282.29	1800.16
282.51	1630.18
282.73	1669.09
282.94	1636.33
283.16	1761.25
283.37	1777.64
283.59	1763.30
283.80	1730.53
284.02	1726.44
284.23	1681.38
284.45	1656.81
284.66	1697.77
284.88	1591.27
285.09	1724.39
285.31	1804.26
285.52	1761.25
285.74	1652.71
285.95	1791.97
286.17	1730.53
286.38	1738.73
286.60	1665.00
286.81	1697.77
287.03	1691.62
287.24	1710.05
287.46	1775.59
287.67	1726.44
287.89	1830.88
288.10	1665.00
288.32	1738.73
288.53	1787.88
288.75	1718.25
288.96	1669.09
289.18	1689.57
289.39	1695.72
289.61	1755.11
289.82	1767.40
290.04	1830.88
290.25	1665.00
290.47	1705.96
290.68	1689.57
290.90	1765.35
291.11	1624.04
291.33	1677.29
291.54	1673.19
291.76	1652.71
291.97	1722.34
292.18	1730.53
292.40	1685.48
292.61	1591.27
292.83	1857.51
293.04	1718.25
293.26	1712.10
293.47	1673.19
293.69	1677.29
293.90	1712.10
294.12	1726.44
294.33	1740.77
294.55	1712.10
294.76	1787.88
294.97	1751.01
295.19	1847.27
295.40	1685.48
295.62	1759.21
295.83	1701.86
296.05	1710.05
296.26	1759.21
296.48	1626.09
296.69	1726.44
296.90	1775.59
297.12	1777.64
297.33	1814.50
297.55	1781.73
297.76	1675.24
297.98	1740.77
298.19	1687.53
298.41	1689.57
298.62	1634.28
298.83	1773.54
299.05	1839.08
299.26	1685.48
299.48	1624.04
299.69	1677.29
299.90	1730.53
300.12	1621.99
300.33	1720.29
300.55	1738.73
300.76	1757.16
300.98	1642.47
301.19	1763.30
301.40	1712.10
301.62	1679.33
301.83	1681.38
302.05	1748.97
302.26	1753.06
302.47	1736.68
302.69	1685.48
302.90	1781.73
303.12	1585.13
303.33	1730.53
303.54	1789.92
303.76	1665.00
303.97	1669.09
304.19	1875.94
304.40	1681.38
304.61	1695.72
304.83	1820.64
305.04	1810.40
305.26	1755.11
305.47	1687.53
305.68	1685.48
305.90	1665.00
306.11	1783.78
306.33	1656.81
306.54	1656.81
306.75	1685.48
306.97	1566.70
307.18	1578.98
307.39	1732.58
307.61	1734.63
307.82	1697.77
308.04	1656.81
308.25	1683.43
308.46	1746.92
308.68	1701.86
308.89	1632.23
309.10	1710.05
309.32	1738.73
309.53	1716.20
309.74	1710.05
309.96	1722.34
310.17	1787.88
310.39	1697.77
310.60	1796.07
310.81	1705.96
311.03	1634.28
311.24	1789.92
311.45	1740.77
311.67	1814.50
311.88	1732.58
312.09	1697.77
312.31	1662.95
312.52	1724.39
312.73	1734.63
312.95	1628.14
313.16	1591.27
313.37	1746.92
313.59	1617.90
313.80	1718.25
314.01	1814.50
314.23	1667.05
314.44	1671.14
314.65	1626.09
314.87	1689.57
315.08	1693.67
315.29	1656.81
315.51	1603.56
315.72	1656.81
315.93	1777.64
316.15	1742.82
316.36	1636.33
316.57	1734.63
316.79	1757.16
317.00	1757.16
317.21	1722.34
317.43	1681.38
317.64	1759.21
317.85	1724.39
318.07	1730.53
318.28	1822.69
318.49	1865.70
318.70	1992.67
318.92	1898.47
319.13	1888.23
319.34	1939.43
319.56	1845.22
319.77	1851.36
319.98	1816.55
320.20	1824.74
320.41	1757.16
320.62	1755.11
320.83	1726.44
321.05	1890.28
321.26	1660.90
321.47	1679.33
321.69	1755.11
321.90	1716.20
322.11	1708.01
322.32	1744.87
322.54	1783.78
322.75	1724.39
322.96	1867.75
323.18	1581.03
323.39	1585.13
323.60	1675.24
323.81	1779.68
324.03	1648.61
324.24	1767.40
324.45	1660.90
324.66	1677.29
324.88	1759.21
325.09	1773.54
325.30	1718.25
325.52	1753.06
325.73	1697.77
325.94	1605.61
326.15	1624.04
326.37	1724.39
326.58	1699.81
326.79	1787.88
327.00	1638.38
327.22	1755.11
327.43	1662.95
327.64	1636.33
327.85	1759.21
328.07	1695.72
328.28	1814.50
328.49	1687.53
328.70	1697.77
328.92	1603.56
329.13	1703.91
329.34	1769.44
329.55	1796.07
329.76	1773.54
329.98	1767.40
330.19	1751.01
330.40	1759.21
330.61	1740.77
330.83	1722.34
331.04	1638.38
331.25	1789.92
331.46	1667.05
331.68	1624.04
331.89	1761.25
332.10	1689.57
332.31	1619.94
332.52	1669.09
332.74	1714.15
332.95	1644.52
333.16	1710.05
333.37	1773.54
333.58	1687.53
333.80	1714.15
334.01	1509.35
334.22	1687.53
334.43	1671.14
334.64	1611.75
334.86	1599.46
335.07	1648.61
335.28	1771.49
335.49	1710.05
335.70	1740.77
335.92	1734.63
336.13	1798.12
336.34	1726.44
336.55	1705.96
336.76	1705.96
336.98	1628.14
337.19	1701.86
337.40	1859.56
337.61	1828.84
337.82	1720.29
338.04	1763.30
338.25	1628.14
338.46	1730.53
338.67	1687.53
338.88	1677.29
339.09	1652.71
339.31	1671.14
339.52	1611.75
339.73	1728.49
339.94	1681.38
340.15	1757.16
340.36	1738.73
340.58	1642.47
340.79	1654.76
341.00	1757.16
341.21	1634.28
341.42	1808.36
341.63	1699.81
341.85	1767.40
342.06	1718.25
342.27	1677.29
342.48	1771.49
342.69	1662.95
342.90	1675.24
343.12	1705.96
343.33	1685.48
343.54	1779.68
343.75	1703.91
343.96	1748.97
344.17	1697.77
344.38	1658.85
344.60	1722.34
344.81	1695.72
345.02	1685.48
345.23	1658.85
345.44	1832.93
345.65	1810.40
345.86	1695.72
346.07	1710.05
346.29	1675.24
346.50	1673.19
346.71	1755.11
346.92	1742.82
347.13	1843.17
347.34	1660.90
347.55	1607.66
347.76	1742.82
347.98	1636.33
348.19	1640.42
348.40	1775.59
348.61	1665.00
348.82	1791.97
349.03	1703.91
349.24	1695.72
349.45	1861.60
349.66	1576.94
349.88	1748.97
350.09	1773.54
350.30	1789.92
350.51	1751.01
350.72	1759.21
350.93	1681.38
351.14	1671.14
351.35	1822.69
351.56	1753.06
351.77	1673.19
351.99	1734.63
352.20	1810.40
352.41	1832.93
352.62	1605.61
352.83	1722.34
353.04	1667.05
353.25	1738.73
353.46	1744.87
353.67	1783.78
353.88	1581.03
354.09	1785.83
354.30	1648.61
354.52	1783.78
354.73	1689.57
354.94	1671.14
355.15	1673.19
355.36	1714.15
355.57	1656.81
355.78	1703.91
355.99	1738.73
356.20	1652.71
356.41	1685.48
356.62	1681.38
356.83	1783.78
357.04	1847.27
357.25	1648.61
357.46	1730.53
357.68	1644.52
357.89	1628.14
358.10	1699.81
358.31	1716.20
358.52	1708.01
358.73	1656.81
358.94	1630.18
359.15	1697.77
359.36	1800.16
359.57	1677.29
359.78	1712.10
359.99	1744.87
360.20	1650.66
360.41	1650.66
360.62	1708.01
360.83	1699.81
361.04	1812.45
361.25	1732.58
361.46	1826.79
361.67	1808.36
361.88	1787.88
362.09	1730.53
362.30	1759.21
362.51	1671.14
362.72	1720.29
362.93	1728.49
363.14	1755.11
363.35	1710.05
363.56	1714.15
363.78	1759.21
363.99	1773.54
364.20	1634.28
364.41	1736.68
364.62	1818.60
364.83	1712.10
365.04	1765.35
365.25	1683.43
365.46	1781.73
365.67	1574.89
365.88	1740.77
366.09	1685.48
366.30	1679.33
366.51	1757.16
366.72	1673.19
366.93	1656.81
367.14	1699.81
367.35	1783.78
367.56	1701.86
367.77	1834.98
367.98	1648.61
368.18	1728.49
368.39	1646.57
368.60	1632.23
368.81	1828.84
369.02	1673.19
369.23	1705.96
369.44	1566.70
369.65	1642.47
369.86	1759.21
370.07	1697.77
370.28	1695.72
370.49	1775.59
370.70	1730.53
370.91	1581.03
371.12	1630.18
371.33	1751.01
371.54	1701.86
371.75	1800.16
371.96	1638.38
372.17	1755.11
372.38	1691.62
372.59	1718.25
372.80	1693.67
373.01	1675.24
373.22	1732.58
373.43	1695.72
373.64	1665.00
373.85	1791.97
374.06	1839.08
374.26	1738.73
374.47	1665.00
374.68	1814.50
374.89	1748.97
375.10	1656.81
375.31	1734.63
375.52	1687.53
375.73	1656.81
375.94	1693.67
376.15	1796.07
376.36	1662.95
376.57	1654.76
376.78	1740.77
376.99	1714.15
377.20	1806.31
377.40	1763.30
377.61	1822.69
377.82	1714.15
378.03	1822.69
378.24	1796.07
378.45	1730.53
378.66	1791.97
378.87	1656.81
379.08	1652.71
379.29	1769.44
379.50	1769.44
379.71	1638.38
379.91	1867.75
380.12	1794.02
380.33	1798.12
380.54	1679.33
380.75	1683.43
380.96	1701.86
381.17	1789.92
381.38	1800.16
381.59	1681.38
381.80	1746.92
382.00	1947.62
382.21	1775.59
382.42	1791.97
382.63	1937.38
382.84	1708.01
383.05	1728.49
383.26	1804.26
383.47	1841.12
383.68	1779.68
383.88	1771.49
384.09	1759.21
384.30	1843.17
384.51	1705.96
384.72	1703.91
384.93	1660.90
385.14	1689.57
385.35	1779.68
385.55	1591.27
385.76	1755.11
385.97	1689.57
386.18	1640.42
386.39	1656.81
386.60	1693.67
386.81	1736.68
387.02	1718.25
387.22	1597.42
387.43	1794.02
387.64	1808.36
387.85	1886.18
388.06	2209.76
388.27	4734.90
388.48	9219.96
388.68	11876.17
388.89	13586.22
389.10	14180.14
389.31	11859.79
389.52	10078.05
389.73	8771.45
389.93	7847.82
390.14	7298.96
390.35	6723.48
390.56	5980.07
390.77	4988.85
390.98	3893.19
391.18	3037.14
391.39	2373.60
391.60	1912.80
391.81	1841.12
392.02	1714.15
392.23	1822.69
392.43	1761.25
392.64	1814.50
392.85	1742.82
393.06	1791.97
393.27	1669.09
393.47	1689.57
393.68	1746.92
393.89	1708.01
394.10	1785.83
394.31	1712.10
394.52	1748.97
394.72	1665.00
394.93	1785.83
395.14	1705.96
395.35	1751.01
395.56	1642.47
395.76	1738.73
395.97	1753.06
396.18	1837.03
396.39	1869.80
396.60	2117.60
396.80	1964.00
397.01	1908.71
397.22	1939.43
397.43	1791.97
397.64	1677.29
397.84	1800.16
398.05	1873.89
398.26	1740.77
398.47	1824.74
398.67	1816.55
398.88	1753.06
399.09	1697.77
399.30	1689.57
399.51	1822.69
399.71	1656.81
399.92	1734.63
400.13	1728.49
400.34	1652.71
400.54	1738.73
400.75	1753.06
400.96	1617.90
401.17	1777.64
401.37	1748.97
401.58	1791.97
401.79	1775.59
402.00	1914.85
402.21	2009.06
402.41	2187.23
402.62	2019.30
402.83	2160.61
403.04	2113.50
403.24	2183.13
403.45	1898.47
403.66	2015.20
403.87	1865.70
404.07	1904.61
404.28	2002.91
404.49	1867.75
404.70	1832.93
404.90	1839.08
405.11	1718.25
405.32	1767.40
405.52	1634.28
405.73	1675.24
405.94	1675.24
406.15	1759.21
406.35	1771.49
406.56	1736.68
406.77	1744.87
406.98	1726.44
407.18	1714.15
407.39	1841.12
407.60	1742.82
407.80	1742.82
408.01	1777.64
408.22	1730.53
408.43	1669.09
408.63	1804.26
408.84	1712.10
409.05	1814.50
409.25	1660.90
409.46	1681.38
409.67	1710.05
409.88	1710.05
410.08	1712.10
410.29	1763.30
410.50	1775.59
410.70	1820.64
410.91	1652.71
411.12	1751.01
411.32	1634.28
411.53	1695.72
411.74	1890.28
411.95	1800.16
412.15	1744.87
412.36	1849.32
412.57	1757.16
412.77	1834.98
412.98	1789.92
413.19	1746.92
413.39	1744.87
413.60	1765.35
413.81	1804.26
414.01	1716.20
414.22	1785.83
414.43	1767.40
414.63	1681.38
414.84	1755.11
415.05	1751.01
415.25	1591.27
415.46	1722.34
415.67	1701.86
415.87	1834.98
416.08	1654.76
416.29	1726.44
416.49	1806.31
416.70	1722.34
416.91	1665.00
417.11	1693.67
417.32	1724.39
417.53	1724.39
417.73	1695.72
417.94	1677.29
418.15	1734.63
418.35	1791.97
418.56	1755.11
418.77	1877.99
418.97	1720.29
419.18	1687.53
419.38	1589.22
419.59	1712.10
419.80	1853.41
420.00	1718.25
420.21	1710.05
420.42	1845.22
420.62	1687.53
420.83	1761.25
421.04	1681.38
421.24	1642.47
421.45	1800.16
421.65	1757.16
421.86	1648.61
422.07	1742.82
422.27	1781.73
422.48	1644.52
422.69	1630.18
422.89	1705.96
423.10	1710.05
423.30	1681.38
423.51	1658.85
423.72	1665.00
423.92	1730.53
424.13	1681.38
424.33	1734.63
424.54	1800.16
424.75	1650.66
424.95	1785.83
425.16	1853.41
425.36	1675.24
425.57	1785.83
425.78	1759.21
425.98	1798.12
426.19	1677.29
426.39	1619.94
426.60	1771.49
426.81	1783.78
427.01	1759.21
427.22	1685.48
427.42	1624.04
427.63	1730.53
427.83	1767.40
428.04	1837.03
428.25	1806.31
428.45	1697.77
428.66	1781.73
428.86	1765.35
429.07	1730.53
429.28	1744.87
429.48	1726.44
429.69	1656.81
429.89	1681.38
430.10	1718.25
430.30	1683.43
430.51	1773.54
430.71	1746.92
430.92	1685.48
431.13	1693.67
431.33	1742.82
431.54	1736.68
431.74	1773.54
431.95	1802.21
432.15	1628.14
432.36	1753.06
432.56	1769.44
432.77	1853.41
432.98	1796.07
433.18	1730.53
433.39	1699.81
433.59	1724.39
433.80	1742.82
434.00	1789.92
434.21	1740.77
434.41	1746.92
434.62	1865.70
434.82	1683.43
435.03	1669.09
435.23	1693.67
435.44	1626.09
435.64	1791.97
435.85	1718.25
436.06	1783.78
436.26	1755.11
436.47	1791.97
436.67	1685.48
436.88	1703.91
437.08	1802.21
437.29	1818.60
437.49	1773.54
437.70	1771.49
437.90	1757.16
438.11	1826.79
438.31	1765.35
438.52	1943.52
438.72	1859.56
438.93	1916.90
439.13	1804.26
439.34	1859.56
439.54	1751.01
439.75	1796.07
439.95	1804.26
440.16	1732.58
440.36	1740.77
440.57	1748.97
440.77	1746.92
440.98	1751.01
441.18	1853.41
441.39	1685.48
441.59	1736.68
441.80	1880.04
442.00	1738.73
442.21	1708.01
442.41	1644.52
442.62	1818.60
442.82	1763.30
443.02	1638.38
443.23	1765.35
443.43	1755.11
443.64	1789.92
443.84	1681.38
444.05	1820.64
444.25	1638.38
444.46	1722.34
444.66	1748.97
444.87	1853.41
445.07	1662.95
445.28	1740.77
445.48	1800.16
445.69	1794.02
445.89	1849.32
446.09	1769.44
446.30	1974.24
446.50	2576.34
446.71	4057.03
446.91	5060.53
447.12	5908.39
447.32	6037.41
447.53	5334.96
447.73	4433.85
447.93	4036.55
448.14	3583.95
448.34	3426.25
448.55	3139.54
448.75	3059.67
448.96	2994.13
449.16	2643.93
449.36	2465.75
449.57	2136.03
449.77	1947.62
449.98	1804.26
450.18	1796.07
450.39	1806.31
450.59	1757.16
450.79	1736.68
451.00	1695.72
451.20	1769.44
451.41	1761.25
451.61	1763.30
451.81	1746.92
452.02	1669.09
452.22	1748.97
452.43	1656.81
452.63	1697.77
452.84	1722.34
453.04	1740.77
453.24	1789.92
453.45	1722.34
453.65	1759.21
453.86	1769.44
454.06	1796.07
454.26	1712.10
454.47	1630.18
454.67	1798.12
454.87	1791.97
455.08	1710.05
455.28	1853.41
455.49	1751.01
455.69	1697.77
455.89	1888.23
456.10	1794.02
456.30	1703.91
456.51	1837.03
456.71	1724.39
456.91	1812.45
457.12	1667.05
457.32	1804.26
457.52	1710.05
457.73	1695.72
457.93	1787.88
458.14	1718.25
458.34	1685.48
458.54	1722.34
458.75	1681.38
458.95	1765.35
459.15	1781.73
459.36	1755.11
459.56	1816.55
459.76	1816.55
459.97	1718.25
460.17	1716.20
460.37	1771.49
460.58	1724.39
460.78	1816.55
460.99	1705.96
461.19	1701.86
461.39	1736.68
461.60	1734.63
461.80	1757.16
462.00	1642.47
462.21	1777.64
462.41	1714.15
462.61	1695.72
462.82	1648.61
463.02	1777.64
463.22	1716.20
463.43	1781.73
463.63	1728.49
463.83	1820.64
464.04	1740.77
464.24	1734.63
464.44	1642.47
464.64	1757.16
464.85	1757.16
465.05	1824.74
465.25	1759.21
465.46	1679.33
465.66	1748.97
465.86	1734.63
466.07	1720.29
466.27	1669.09
466.47	1556.46
466.68	1701.86
466.88	1787.88
467.08	1761.25
467.29	1777.64
467.49	1769.44
467.69	1769.44
467.89	1748.97
468.10	1681.38
468.30	1730.53
468.50	1800.16
468.71	1734.63
468.91	1671.14
469.11	1867.75
469.31	1746.92
469.52	1685.48
469.72	1806.31
469.92	1867.75
470.13	1748.97
470.33	1728.49
470.53	1853.41
470.73	2191.33
470.94	2545.63
471.14	2752.47
471.34	3024.85
471.54	2807.77
471.75	2625.50
471.95	2340.83
472.15	2205.66
472.36	2291.68
472.56	2199.52
472.76	2148.32
472.96	2017.25
473.17	2074.59
473.37	1996.77
473.57	1865.70
473.77	1863.65
473.98	1744.87
474.18	1665.00
474.38	1972.19
474.58	1738.73
474.79	1638.38
474.99	1828.84
475.19	1742.82
475.39	1665.00
475.60	1736.68
475.80	1697.77
476.00	1794.02
476.20	1656.81
476.41	1781.73
476.61	1812.45
476.81	1824.74
477.01	1619.94
477.21	1873.89
477.42	1808.36
477.62	1665.00
477.82	1751.01
478.02	1710.05
478.23	1746.92
478.43	1648.61
478.63	1742.82
478.83	1734.63
479.03	1771.49
479.24	1787.88
479.44	1787.88
479.64	1624.04
479.84	1611.75
480.04	1714.15
480.25	1779.68
480.45	1712.10
480.65	1712.10
480.85	1714.15
481.06	1769.44
481.26	1722.34
481.46	1796.07
481.66	1740.77
481.86	1658.85
482.06	1761.25
482.27	1689.57
482.47	1748.97
482.67	1712.10
482.87	1720.29
483.07	1816.55
483.28	1703.91
483.48	1689.57
483.68	1697.77
483.88	1652.71
484.08	1667.05
484.29	1648.61
484.49	1779.68
484.69	1665.00
484.89	1814.50
485.09	1732.58
485.29	1791.97
485.50	1740.77
485.70	1628.14
485.90	1767.40
486.10	1740.77
486.30	1761.25
486.50	1777.64
486.71	1722.34
486.91	1802.21
487.11	1738.73
487.31	1632.23
487.51	1722.34
487.71	1722.34
487.91	1708.01
488.12	1669.09
488.32	1626.09
488.52	1720.29
488.72	1587.18
488.92	1746.92
489.12	1789.92
489.32	1781.73
489.53	1634.28
489.73	1624.04
489.93	1828.84
490.13	1722.34
490.33	1611.75
490.53	1777.64
490.73	1798.12
490.94	1656.81
491.14	1755.11
491.34	1845.22
491.54	2123.74
491.74	2752.47
491.94	3143.63
492.14	3491.79
492.34	3446.73
492.54	3262.41
492.75	2709.46
492.95	2619.35
493.15	2461.66
493.35	2353.12
493.55	2256.86
493.75	2174.94
493.95	2246.62
494.15	2168.80
494.35	1937.38
494.56	1900.52
494.76	1822.69
494.96	1748.97
495.16	1849.32
495.36	1689.57
495.56	1771.49
495.76	1705.96
495.96	1757.16
496.16	1748.97
496.36	1791.97
496.56	1636.33
496.77	1765.35
496.97	1695.72
497.17	1763.30
497.37	1648.61
497.57	1798.12
497.77	1705.96
497.97	1669.09
498.17	1691.62
498.37	1736.68
498.57	1744.87
498.77	1656.81
498.97	1671.14
499.17	1802.21
499.38	1673.19
499.58	1845.22
499.78	1798.12
499.98	1738.73
500.18	1689.57
500.38	1730.53
500.58	1937.38
500.78	2463.71
500.98	4591.55
501.18	6645.66
501.38	8351.62
501.58	9353.07
501.78	8857.46
501.98	6934.42
502.18	5857.19
502.38	5064.63
502.58	4677.56
502.78	4167.62
502.98	3954.63
503.18	3811.27
503.38	3540.94
503.59	3123.15
503.79	2842.58
503.99	2605.02
504.19	2408.41
504.39	2295.77
504.59	2369.50
504.79	2349.02
504.99	2193.37
505.19	2127.84
505.39	2037.73
505.59	2025.44
505.79	1953.76
505.99	1873.89
506.19	1925.09
506.39	1865.70
506.59	1726.44
506.79	1748.97
506.99	1783.78
507.19	1767.40
507.39	1728.49
507.59	1720.29
507.79	1757.16
507.99	1662.95
508.19	1722.34
508.39	1787.88
508.59	1736.68
508.79	1783.78
508.99	1794.02
509.19	1742.82
509.39	1753.06
509.59	1705.96
509.79	1673.19
509.99	1742.82
510.19	1742.82
510.39	1710.05
510.59	1699.81
510.79	1738.73
510.99	1677.29
511.19	1722.34
511.39	1820.64
511.59	1832.93
511.79	1869.80
511.99	1734.63
512.19	1832.93
512.38	1708.01
512.58	1695.72
512.78	1710.05
512.98	1763.30
513.18	1814.50
513.38	1697.77
513.58	1834.98
513.78	1718.25
513.98	1783.78
514.18	1607.66
514.38	1722.34
514.58	1714.15
514.78	1671.14
514.98	1705.96
515.18	1734.63
515.38	1656.81
515.58	1837.03
515.78	1728.49
515.98	1746.92
516.18	1787.88
516.38	1732.58
516.57	1705.96
516.77	1705.96
516.97	1751.01
517.17	1767.40
517.37	1671.14
517.57	1837.03
517.77	1669.09
517.97	1624.04
518.17	1855.46
518.37	1671.14
518.57	1787.88
518.77	1818.60
518.97	1675.24
519.16	1716.20
519.36	1806.31
519.56	1693.67
519.76	1779.68
519.96	1683.43
520.16	1843.17
520.36	1615.85
520.56	1855.46
520.76	1689.57
520.96	1675.24
521.16	1763.30
521.35	1759.21
521.55	1814.50
521.75	1720.29
521.95	1777.64
522.15	1691.62
522.35	1605.61
522.55	1742.82
522.75	1755.11
522.95	1669.09
523.14	1595.37
523.34	1746.92
523.54	1685.48
523.74	1777.64
523.94	1812.45
524.14	1658.85
524.34	1673.19
524.54	1824.74
524.73	1705.96
524.93	1794.02
525.13	1851.36
525.33	1646.57
525.53	1832.93
525.73	1769.44
525.93	1755.11
526.13	1691.62
526.32	1695.72
526.52	1804.26
526.72	1814.50
526.92	1748.97
527.12	1734.63
527.32	1638.38
527.52	1681.38
527.71	1744.87
527.91	1783.78
528.11	1728.49
528.31	1730.53
528.51	1636.33
528.71	1814.50
528.90	1708.01
529.10	1804.26
529.30	1816.55
529.50	1654.76
529.70	1714.15
529.90	1726.44
530.09	1712.10
530.29	1720.29
530.49	1658.85
530.69	1890.28
530.89	1755.11
531.09	1767.40
531.28	1617.90
531.48	1843.17
531.68	1720.29
531.88	1769.44
532.08	1738.73
532.28	1744.87
532.47	1765.35
532.67	1869.80
532.87	1746.92
533.07	1705.96
533.27	1761.25
533.46	1824.74
533.66	1824.74
533.86	1685.48
534.06	1798.12
534.26	1720.29
534.45	1726.44
534.65	1834.98
534.85	1734.63
535.05	1714.15
535.25	1738.73
535.44	1660.90
535.64	1796.07
535.84	1738.73
536.04	1742.82
536.24	1650.66
536.43	1705.96
536.63	1832.93
536.83	1703.91
537.03	1687.53
537.22	1671.14
537.42	1695.72
537.62	1675.24
537.82	1593.32
538.02	1800.16
538.21	1804.26
538.41	1906.66
538.61	1820.64
538.81	1740.77
539.00	1820.64
539.20	1636.33
539.40	1685.48
539.60	1687.53
539.79	1798.12
539.99	1724.39
540.19	1761.25
540.39	1665.00
540.58	1814.50
540.78	1728.49
540.98	1781.73
541.18	1820.64
541.37	1796.07
541.57	1771.49
541.77	1779.68
541.97	1722.34
542.16	1662.95
542.36	1634.28
542.56	1791.97
542.76	1871.84
542.95	1781.73
543.15	1826.79
543.35	1834.98
543.54	1638.38
543.74	1685.48
543.94	1779.68
544.14	1714.15
544.33	1730.53
544.53	1732.58
544.73	1681.38
544.93	1671.14
545.12	1703.91
545.32	1730.53
545.52	1787.88
545.71	1644.52
545.91	1705.96
546.11	1730.53
546.30	1701.86
546.50	1753.06
546.70	1753.06
546.90	1816.55
547.09	1683.43
547.29	1781.73
547.49	1638.38
547.68	1677.29
547.88	1701.86
548.08	1720.29
548.27	2183.13
548.47	1683.43
548.67	1767.40
548.87	1814.50
549.06	1759.21
549.26	1757.16
549.46	1767.40
549.65	1697.77
549.85	1730.53
550.05	1845.22
550.24	1703.91
550.44	1753.06
550.64	1665.00
550.83	1732.58
551.03	1757.16
551.23	1738.73
551.42	1814.50
551.62	1730.53
551.82	1773.54
552.01	1650.66
552.21	1853.41
552.41	1785.83
552.60	1851.36
552.80	1720.29
553.00	1763.30
553.19	1767.40
553.39	1834.98
553.59	1679.33
553.78	1832.93
553.98	1687.53
554.17	1701.86
554.37	1720.29
554.57	1751.01
554.76	1710.05
554.96	1759.21
555.16	1779.68
555.35	1675.24
555.55	1763.30
555.75	1705.96
555.94	1763.30
556.14	1607.66
556.33	1685.48
556.53	1789.92
556.73	1746.92
556.92	1695.72
557.12	1832.93
557.32	1751.01
557.51	1794.02
557.71	1734.63
557.90	1839.08
558.10	1828.84
558.30	1662.95
558.49	1724.39
558.69	1736.68
558.88	1718.25
559.08	1753.06
559.28	1726.44
559.47	1767.40
559.67	1765.35
559.86	1841.12
560.06	1761.25
560.26	1783.78
560.45	1763.30
560.65	1705.96
560.84	1740.77
561.04	1705.96
561.24	1775.59
561.43	1681.38
561.63	1851.36
561.82	1789.92
562.02	1794.02
562.22	1615.85
562.41	1761.25
562.61	1740.77
562.80	1689.57
563.00	1902.56
563.19	1810.40
563.39	1789.92
563.59	1783.78
563.78	1697.77
563.98	1654.76
564.17	1691.62
564.37	1648.61
564.56	1759.21
564.76	1667.05
564.96	1701.86
565.15	1808.36
565.35	1855.46
565.54	1769.44
565.74	1755.11
565.93	1777.64
566.13	1781.73
566.32	1785.83
566.52	1773.54
566.71	1746.92
566.91	1738.73
567.11	1730.53
567.30	1765.35
567.50	1757.16
567.69	1724.39
567.89	1736.68
568.08	1748.97
568.28	1736.68
568.47	1681.38
568.67	1779.68
568.86	1705.96
569.06	1802.21
569.25	1687.53
569.45	1703.91
569.64	1757.16
569.84	1730.53
570.04	1736.68
570.23	1701.86
570.43	1734.63
570.62	1759.21
570.82	1861.60
571.01	1708.01
571.21	1701.86
571.40	1724.39
571.60	1736.68
571.79	1722.34
571.99	1677.29
572.18	1660.90
572.38	1818.60
572.57	1744.87
572.77	1783.78
572.96	1767.40
573.16	1765.35
573.35	1728.49
573.55	1761.25
573.74	1748.97
573.94	1765.35
574.13	1832.93
574.33	1783.78
574.52	1812.45
574.71	1744.87
574.91	1759.21
575.10	1708.01
575.30	1683.43
575.49	1642.47
575.69	1669.09
575.88	1810.40
576.08	1777.64
576.27	1923.04
576.47	1814.50
576.66	1853.41
576.86	1863.65
577.05	1882.08
577.25	1781.73
577.44	1892.32
577.64	1779.68
577.83	1791.97
578.02	1722.34
578.22	1853.41
578.41	1859.56
578.61	1757.16
578.80	1671.14
579.00	1839.08
579.19	1800.16
579.39	1769.44
579.58	1791.97
579.77	1812.45
579.97	1849.32
580.16	1802.21
580.36	1812.45
580.55	1839.08
580.75	1847.27
580.94	1882.08
581.13	1890.28
581.33	1804.26
581.52	1777.64
581.72	1961.95
581.91	1941.47
582.11	1759.21
582.30	1744.87
582.49	1877.99
582.69	1871.84
582.88	1783.78
583.08	1814.50
583.27	1757.16
583.47	1742.82
583.66	1683.43
583.85	1701.86
584.05	1740.77
584.24	1755.11
584.44	1869.80
584.63	1882.08
584.82	1851.36
585.02	1970.15
585.21	1906.66
585.41	1953.76
585.60	1945.57
585.79	2054.11
585.99	1980.39
586.18	1964.00
586.37	2269.15
586.57	3366.86
586.76	10135.40
586.96	27641.43
587.15	42098.05
587.34	52161.76
587.54	58760.32
587.73	55921.83
587.93	40355.22
588.12	29820.47
588.31	23903.89
588.51	20432.58
588.70	18710.24
588.89	17383.16
589.09	15539.99
589.28	13506.35
589.47	11564.88
589.67	9469.81
589.86	7458.70
590.06	5472.17
590.25	4288.45
590.44	3262.41
590.64	2627.54
590.83	2211.81
591.02	2078.69
591.22	1933.28
591.41	1845.22
591.60	1851.36
591.80	1959.91
591.99	1693.67
592.18	1773.54
592.38	1853.41
592.57	1742.82
592.76	1822.69
592.96	1820.64
593.15	1773.54
593.34	1791.97
593.54	1755.11
593.73	1861.60
593.92	1804.26
594.12	1863.65
594.31	1867.75
594.50	1886.18
594.70	1810.40
594.89	1918.95
595.08	1716.20
595.28	1806.31
595.47	1992.67
595.66	1785.83
595.86	1705.96
596.05	1851.36
596.24	1763.30
596.43	1847.27
596.63	1779.68
596.82	1746.92
597.01	1800.16
597.21	1839.08
597.40	1841.12
597.59	1791.97
597.79	1832.93
597.98	1744.87
598.17	1787.88
598.36	1767.40
598.56	1904.61
598.75	1660.90
598.94	1787.88
599.14	1765.35
599.33	1722.34
599.52	1765.35
599.71	1691.62
599.91	1828.84
600.10	1712.10
600.29	1705.96
600.48	1781.73
600.68	1873.89
600.87	1728.49
601.06	1789.92
601.26	1791.97
601.45	1695.72
601.64	1724.39
601.83	1802.21
602.03	1769.44
602.22	1626.09
602.41	1824.74
602.60	1877.99
602.80	1867.75
602.99	1798.12
603.18	1734.63
603.37	1785.83
603.57	1748.97
603.76	1798.12
603.95	1826.79
604.14	1671.14
604.34	1710.05
604.53	1710.05
604.72	1734.63
604.91	1765.35
605.10	1759.21
605.30	1681.38
605.49	1720.29
605.68	1781.73
605.87	1845.22
606.07	1736.68
606.26	1726.44
606.45	1738.73
606.64	1808.36
606.84	1773.54
607.03	1800.16
607.22	1855.46
607.41	1751.01
607.60	1775.59
607.80	1857.51
607.99	1798.12
608.18	1658.85
608.37	1773.54
608.56	1748.97
608.76	1841.12
608.95	1941.47
609.14	1812.45
609.33	1826.79
609.52	1875.94
609.72	1824.74
609.91	1847.27
610.10	1761.25
610.29	1882.08
610.48	1769.44
610.68	1791.97
610.87	1708.01
611.06	1843.17
611.25	1691.62
611.44	1832.93
611.63	1679.33
611.83	1832.93
612.02	1685.48
612.21	1791.97
612.40	1671.14
612.59	1724.39
612.79	1640.42
612.98	1734.63
613.17	1861.60
613.36	1718.25
613.55	1882.08
613.74	1808.36
613.93	1906.66
614.13	1931.23
614.32	2004.96
614.51	1978.34
614.70	1800.16
614.89	1853.41
615.08	1849.32
615.28	2138.08
615.47	1767.40
615.66	1855.46
615.85	1808.36
616.04	1880.04
616.23	1808.36
616.42	1800.16
616.62	1800.16
616.81	1693.67
617.00	1785.83
617.19	1771.49
617.38	1701.86
617.57	1802.21
617.76	1794.02
617.95	1853.41
618.15	1789.92
618.34	1863.65
618.53	1687.53
618.72	1796.07
618.91	1783.78
619.10	1773.54
619.29	1691.62
619.48	1773.54
619.68	1644.52
619.87	1759.21
620.06	1667.05
620.25	1787.88
620.44	1665.00
620.63	1675.24
620.82	1742.82
621.01	1791.97
621.20	1744.87
621.39	1761.25
621.59	1787.88
621.78	1632.23
621.97	1708.01
622.16	1736.68
622.35	1736.68
622.54	1763.30
622.73	1787.88
622.92	1621.99
623.11	1714.15
623.30	1703.91
623.49	1769.44
623.68	1646.57
623.88	1810.40
624.07	1757.16
624.26	1773.54
624.45	1732.58
624.64	1724.39
624.83	1757.16
625.02	1763.30
625.21	1642.47
625.40	1716.20
625.59	1855.46
625.78	1734.63
625.97	1794.02
626.16	1867.75
626.35	1867.75
626.54	1804.26
626.74	1910.75
626.93	1748.97
627.12	1849.32
627.31	1791.97
627.50	1777.64
627.69	1759.21
627.88	1691.62
628.07	1751.01
628.26	1675.24
628.45	1705.96
628.64	1839.08
628.83	1740.77
629.02	1703.91
629.21	1714.15
629.40	1697.77
629.59	1662.95
629.78	1738.73
629.97	1816.55
630.16	1755.11
630.35	1751.01
630.54	1705.96
630.73	1671.14
630.92	1740.77
631.11	1683.43
631.30	1734.63
631.49	1798.12
631.68	1759.21
631.87	1781.73
632.06	1679.33
632.25	1863.65
632.44	1753.06
632.63	1748.97
632.82	1769.44
633.01	1832.93
633.20	1767.40
633.39	1742.82
633.58	1740.77
633.77	1744.87
633.96	1845.22
634.15	1806.31
634.34	1802.21
634.53	1779.68
634.72	1714.15
634.91	1714.15
635.10	1802.21
635.29	1769.44
635.48	1789.92
635.67	1773.54
635.86	1685.48
636.05	1791.97
636.24	1738.73
636.43	1710.05
636.62	1691.62
636.81	1626.09
637.00	1746.92
637.19	1808.36
637.38	1665.00
637.57	1716.20
637.76	1759.21
637.95	1847.27
638.14	1808.36
638.33	1779.68
638.52	1814.50
638.71	1714.15
638.89	1710.05
639.08	2000.87
639.27	1906.66
639.46	1877.99
639.65	2160.61
639.84	2256.86
640.03	2512.86
640.22	2381.79
640.41	2473.95
640.60	2078.69
640.79	2086.88
640.98	1947.62
641.17	1927.14
641.36	1900.52
641.55	1871.84
641.74	1775.59
641.92	1757.16
642.11	1683.43
642.30	1771.49
642.49	1740.77
642.68	1716.20
642.87	1767.40
643.06	1779.68
643.25	1695.72
643.44	1740.77
643.63	1826.79
643.82	1824.74
644.00	1746.92
644.19	1701.86
644.38	1648.61
644.57	1828.84
644.76	1802.21
644.95	1759.21
645.14	1769.44
645.33	1736.68
645.52	1734.63
645.71	1658.85
645.89	1689.57
646.08	1738.73
646.27	1771.49
646.46	1869.80
646.65	1697.77
646.84	1738.73
647.03	1734.63
647.22	1791.97
647.40	1744.87
647.59	1708.01
647.78	1613.80
647.97	1691.62
648.16	1650.66
648.35	1763.30
648.54	1808.36
648.73	1636.33
648.91	1740.77
649.10	1718.25
649.29	1691.62
649.48	1609.70
649.67	1794.02
649.86	1703.91
650.05	1734.63
650.23	1972.19
650.42	1814.50
650.61	1869.80
650.80	1888.23
650.99	1927.14
651.18	1800.16
651.36	1865.70
651.55	1763.30
651.74	1828.84
651.93	1718.25
652.12	1773.54
652.31	1753.06
652.49	1714.15
652.68	1740.77
652.87	1759.21
653.06	1744.87
653.25	1859.56
653.44	1683.43
653.62	1859.56
653.81	1693.67
654.00	1791.97
654.19	1746.92
654.38	1851.36
654.56	1755.11
654.75	1693.67
654.94	1785.83
655.13	1708.01
655.32	1748.97
655.51	1779.68
655.69	1759.21
655.88	1765.35
656.07	1708.01
656.26	1712.10
656.45	1693.67
656.63	1718.25
656.82	1738.73
657.01	1863.65
657.20	1693.67
657.38	1710.05
657.57	1724.39
657.76	1667.05
657.95	1771.49
658.14	1697.77
658.32	1685.48
658.51	1687.53
658.70	1703.91
658.89	1705.96
659.08	1708.01
659.26	1892.32
659.45	1708.01
659.64	1849.32
659.83	1779.68
660.01	2035.68
660.20	1753.06
660.39	1810.40
660.58	1644.52
660.76	1787.88
660.95	1718.25
661.14	1763.30
661.33	1695.72
661.51	1763.30
661.70	1701.86
661.89	1820.64
662.08	1683.43
662.26	1660.90
662.45	1740.77
662.64	1828.84
662.83	1781.73
663.01	1636.33
663.20	1685.48
663.39	1830.88
663.58	1617.90
663.76	1689.57
663.95	1712.10
664.14	1685.48
664.32	1636.33
664.51	1742.82
664.70	1644.52
664.89	1794.02
665.07	1714.15
665.26	1837.03
665.45	1660.90
665.64	1744.87
665.82	1783.78
666.01	1740.77
666.20	1648.61
666.38	1855.46
666.57	1808.36
666.76	2220.00
666.95	4591.55
667.13	11765.58
667.32	18609.89
667.51	22445.74
667.69	25355.90
667.88	25675.38
668.07	19984.08
668.25	14597.92
668.44	12048.20
668.63	10004.33
668.81	8583.04
669.00	7608.20
669.19	7155.60
669.38	6119.33
669.56	5437.36
669.75	4548.54
669.94	3915.72
670.12	3125.20
670.31	2654.17
670.50	2340.83
670.68	2060.26
670.87	1998.82
671.06	1845.22
671.24	1873.89
671.43	1834.98
671.62	1845.22
671.80	1826.79
671.99	1855.46
672.18	1767.40
672.36	1763.30
672.55	1755.11
672.74	1804.26
672.92	1783.78
673.11	1767.40
673.29	1746.92
673.48	1873.89
673.67	1693.67
673.85	1724.39
674.04	1738.73
674.23	1751.01
674.41	1724.39
674.60	1609.70
674.79	1576.94
674.97	1728.49
675.16	1783.78
675.34	1800.16
675.53	1654.76
675.72	1697.77
675.90	1845.22
676.09	1660.90
676.28	1687.53
676.46	1607.66
676.65	1648.61
676.83	1720.29
677.02	1652.71
677.21	1765.35
677.39	1660.90
677.58	1634.28
677.77	1699.81
677.95	1687.53
678.14	1740.77
678.32	1740.77
678.51	1705.96
678.70	1882.08
678.88	1693.67
679.07	1763.30
679.25	1658.85
679.44	1718.25
679.63	1718.25
679.81	1710.05
680.00	1761.25
680.18	1777.64
680.37	1734.63
680.55	1697.77
680.74	1693.67
680.93	1646.57
681.11	1755.11
681.30	1718.25
681.48	1662.95
681.67	1691.62
681.85	1726.44
682.04	1708.01
682.23	1730.53
682.41	1771.49
682.60	1716.20
682.78	1726.44
682.97	1710.05
683.15	1722.34
683.34	1712.10
683.53	1763.30
683.71	1632.23
683.90	1705.96
684.08	1763.30
684.27	1718.25
684.45	1789.92
684.64	1691.62
684.82	1699.81
685.01	1705.96
685.19	1683.43
685.38	1875.94
685.57	1718.25
685.75	1648.61
685.94	1738.73
686.12	1662.95
686.31	1697.77
686.49	1828.84
686.68	1601.51
686.86	1771.49
687.05	1742.82
687.23	1855.46
687.42	1705.96
687.60	1611.75
687.79	1751.01
687.97	1830.88
688.16	1722.34
688.34	1839.08
688.53	1638.38
688.71	1779.68
688.90	1732.58
689.08	1730.53
689.27	1693.67
689.45	1796.07
689.64	1648.61
689.82	1773.54
690.01	1775.59
690.19	1697.77
690.38	1687.53
690.56	1892.32
690.75	1638.38
690.93	1632.23
691.12	1595.37
691.30	1683.43
691.49	1705.96
691.67	1751.01
691.86	1820.64
692.04	1642.47
692.23	1740.77
692.41	1814.50
692.60	1898.47
692.78	1777.64
692.97	1769.44
693.15	1779.68
693.34	1853.41
693.52	1865.70
693.71	1708.01
693.89	1691.62
694.08	1667.05
694.26	1794.02
694.44	1726.44
694.63	1699.81
694.81	1621.99
695.00	1644.52
695.18	1761.25
695.37	1828.84
695.55	1757.16
695.74	1701.86
695.92	1716.20
696.10	1849.32
696.29	1624.04
696.47	1640.42
696.66	1665.00
696.84	1665.00
697.03	1738.73
697.21	1841.12
697.40	2285.53
697.58	1820.64
697.76	1767.40
697.95	1665.00
698.13	1742.82
698.32	1665.00
698.50	1742.82
698.68	1738.73
698.87	1720.29
699.05	1888.23
699.24	1812.45
699.42	1644.52
699.61	1658.85
699.79	1699.81
699.97	1751.01
700.16	1732.58
700.34	1679.33
700.53	1683.43
700.71	1855.46
700.89	1839.08
701.08	1744.87
701.26	1812.45
701.45	2201.57
701.63	1697.77
701.81	1665.00
702.00	1699.81
702.18	1755.11
702.37	1761.25
702.55	1787.88
702.73	1892.32
702.92	1886.18
703.10	2009.06
703.28	1906.66
703.47	1867.75
703.65	1873.89
703.84	1892.32
704.02	1861.60
704.20	1861.60
704.39	1718.25
704.57	1779.68
704.75	1818.60
704.94	1834.98
705.12	1847.27
705.30	1914.85
705.49	2529.24
705.67	5470.12
705.86	13291.32
706.04	19625.68
706.22	23131.81
706.41	25562.75
706.59	25042.56
706.77	19111.64
706.96	14079.79
707.14	11935.56
707.32	10237.80
707.51	9076.60
707.69	7950.21
707.87	6713.24
708.06	5515.18
708.24	4413.37
708.42	3440.59
708.61	2820.05
708.79	2267.10
708.97	2062.30
709.16	1894.37
709.34	1855.46
709.52	1832.93
709.71	1822.69
709.89	1744.87
710.07	1679.33
710.26	1654.76
710.44	1724.39
710.62	1783.78
710.80	1726.44
710.99	1796.07
711.17	1724.39
711.35	1605.61
711.54	1669.09
711.72	1767.40
711.90	1800.16
712.09	1812.45
712.27	1656.81
712.45	1822.69
712.63	1650.66
712.82	1693.67
713.00	1728.49
713.18	1662.95
713.37	1636.33
713.55	1763.30
713.73	1693.67
713.91	1720.29
714.10	1660.90
714.28	1769.44
714.46	1726.44
714.65	1746.92
714.83	1757.16
715.01	1740.77
715.19	1757.16
715.38	1630.18
715.56	1751.01
715.74	1675.24
715.92	1626.09
716.11	1751.01
716.29	1595.37
716.47	1658.85
716.65	1699.81
716.84	1648.61
717.02	1808.36
717.20	1644.52
717.38	1667.05
717.57	1820.64
717.75	1683.43
717.93	1712.10
718.11	1705.96
718.30	1609.70
718.48	1722.34
718.66	1810.40
718.84	1714.15
719.03	1746.92
719.21	1685.48
719.39	1779.68
719.57	1765.35
719.75	1777.64
719.94	1615.85
720.12	1712.10
720.30	1691.62
720.48	1763.30
720.67	1642.47
720.85	1621.99
721.03	1667.05
721.21	1667.05
721.39	1830.88
721.58	1773.54
721.76	1708.01
721.94	1763.30
722.12	1841.12
722.30	1769.44
722.49	1708.01
722.67	1748.97
722.85	1744.87
723.03	1636.33
723.21	1716.20
723.40	1695.72
723.58	1820.64
723.76	1822.69
723.94	1798.12
724.12	1800.16
724.30	1830.88
724.49	1877.99
724.67	1730.53
724.85	1796.07
725.03	1712.10
725.21	1812.45
725.40	1857.51
725.58	1724.39
725.76	1761.25
725.94	1708.01
726.12	1636.33
726.30	1740.77
726.49	1767.40
726.67	1722.34
726.85	1673.19
727.03	1857.51
727.21	2297.82
727.39	3377.10
727.57	4913.08
727.76	5695.40
727.94	6240.16
728.12	6436.77
728.30	5756.84
728.48	4474.81
728.66	3905.48
728.84	3651.53
729.03	3225.55
729.21	2850.77
729.39	2475.99
729.57	2166.75
729.75	2000.87
729.93	1931.23
730.11	1775.59
730.30	1732.58
730.48	1806.31
730.66	1773.54
730.84	1791.97
731.02	1748.97
731.20	1681.38
731.38	1660.90
731.56	1648.61
731.74	1665.00
731.93	1710.05
732.11	1732.58
732.29	1703.91
732.47	1761.25
732.65	1681.38
732.83	1830.88
733.01	1748.97
733.19	1677.29
733.37	1755.11
733.56	1759.21
733.74	1683.43
733.92	1765.35
734.10	1746.92
734.28	1783.78
734.46	1632.23
734.64	1673.19
734.82	1673.19
735.00	1695.72
735.18	1669.09
735.36	1687.53
735.54	1703.91
735.73	1652.71
735.91	1673.19
736.09	1755.11
736.27	1673.19
736.45	1755.11
736.63	1529.83
736.81	1628.14
736.99	1683.43
737.17	1761.25
737.35	1642.47
737.53	1730.53
737.71	1740.77
737.89	1796.07
738.07	1658.85
738.25	1658.85
738.43	1607.66
738.61	1746.92
738.80	1697.77
738.98	1636.33
739.16	1677.29
739.34	1800.16
739.52	1843.17
739.70	1753.06
739.88	1806.31
740.06	1701.86
740.24	1665.00
740.42	1812.45
740.60	1673.19
740.78	1726.44
740.96	1632.23
741.14	1675.24
741.32	1742.82
741.50	1662.95
741.68	1849.32
741.86	1824.74
742.04	1630.18
742.22	1605.61
742.40	1689.57
742.58	1740.77
742.76	1652.71
742.94	1845.22
743.12	1636.33
743.30	1732.58
743.48	1705.96
743.66	1732.58
743.84	1718.25
744.02	1726.44
744.20	1648.61
744.38	1681.38
744.56	1697.77
744.74	1783.78
744.92	1736.68
745.10	1767.40
745.28	1763.30
745.46	1839.08
745.64	1685.48
745.82	1847.27
746.00	1730.53
746.18	1703.91
746.36	1681.38
746.54	1648.61
746.72	1699.81
746.90	1607.66
747.08	1837.03
747.26	1740.77
747.44	1738.73
747.62	1751.01
747.80	1703.91
747.98	1769.44
748.15	1699.81
748.33	1814.50
748.51	1738.73
748.69	1732.58
748.87	1691.62
749.05	1621.99
749.23	1683.43
749.41	1771.49
749.59	1722.34
749.77	1810.40
749.95	1646.57
750.13	1691.62
750.31	1746.92
750.49	1728.49
750.67	1757.16
750.85	1814.50
751.03	1708.01
751.20	1761.25
751.38	1787.88
751.56	1656.81
751.74	1796.07
751.92	1675.24
752.10	1626.09
752.28	1804.26
752.46	1679.33
752.64	1705.96
752.82	1767.40
753.00	1773.54
753.18	1665.00
753.35	1660.90
753.53	1742.82
753.71	1673.19
753.89	1816.55
754.07	1728.49
754.25	1800.16
754.43	1781.73
754.61	1712.10
754.79	1708.01
754.97	1656.81
755.14	1812.45
755.32	1660.90
755.50	1669.09
755.68	1691.62
755.86	1636.33
756.04	1636.33
756.22	1650.66
756.40	1757.16
756.57	1837.03
756.75	1728.49
756.93	1796.07
757.11	1746.92
757.29	1689.57
757.47	1675.24
757.65	1613.80
757.82	1617.90
758.00	1634.28
758.18	1710.05
758.36	1771.49
758.54	1779.68
758.72	1656.81
758.90	1816.55
759.07	1705.96
759.25	1636.33
759.43	1671.14
759.61	1650.66
759.79	2191.33
759.97	1734.63
760.15	1763.30
760.32	1708.01
760.50	1679.33
760.68	1785.83
760.86	1619.94
761.04	1742.82
761.22	1740.77
761.39	1695.72
761.57	1652.71
761.75	1691.62
761.93	1736.68
762.11	1732.58
762.28	1685.48
762.46	1650.66
762.64	1730.53
762.82	1667.05
763.00	1726.44
763.18	1814.50
763.35	1689.57
763.53	1794.02
763.71	1675.24
763.89	1722.34
764.07	1646.57
764.24	1699.81
764.42	1791.97
764.60	1697.77
764.78	1726.44
764.96	1787.88
765.13	1748.97
765.31	1775.59
765.49	1781.73
765.67	1636.33
765.84	1636.33
766.02	1667.05
766.20	1583.08
766.38	1757.16
766.56	1732.58
766.73	1755.11
766.91	1705.96
767.09	1705.96
767.27	1708.01
767.44	1683.43
767.62	1734.63
767.80	1771.49
767.98	1724.39
768.15	1669.09
768.33	1716.20
768.51	1757.16
768.69	1755.11
768.87	1775.59
769.04	1681.38
769.22	1873.89
769.40	1843.17
769.58	1843.17
769.75	1658.85
769.93	1705.96
770.11	1619.94
770.28	1648.61
770.46	1751.01
770.64	1662.95
770.82	1695.72
770.99	1765.35
771.17	1726.44
771.35	1685.48
771.53	1791.97
771.70	1693.67
771.88	1652.71
772.06	1630.18
772.23	1726.44
772.41	1787.88
772.59	1691.62
772.77	1648.61
772.94	1687.53
773.12	1726.44
773.30	1699.81
773.47	1708.01
773.65	1636.33
773.83	1738.73
774.01	1761.25
774.18	1642.47
774.36	1695.72
774.54	1646.57
774.71	1783.78
774.89	1656.81
775.07	1656.81
775.24	1665.00
775.42	1654.76
775.60	1771.49
775.78	1742.82
775.95	1619.94
776.13	1585.13
776.31	1581.03
776.48	1712.10
776.66	1757.16
776.84	1730.53
777.01	1624.04
777.19	1665.00
777.37	1607.66
777.54	1806.31
777.72	1857.51
777.90	1679.33
778.07	1673.19
778.25	1830.88
778.43	1779.68
778.60	1716.20
778.78	1812.45
778.96	1816.55
779.13	1683.43
779.31	1740.77
779.49	1609.70
779.66	1689.57
779.84	1726.44
780.01	1679.33
780.19	1662.95
780.37	1777.64
780.54	1757.16
780.72	1712.10
780.90	1714.15
781.07	1683.43
781.25	1726.44
781.43	1767.40
781.60	1724.39
781.78	1748.97
781.95	1685.48
782.13	1691.62
782.31	1681.38
782.48	1593.32
782.66	1701.86
782.83	1814.50
783.01	1708.01
783.19	1669.09
783.36	1724.39
783.54	1640.42
783.72	1740.77
783.89	1656.81
784.07	1712.10
784.24	1624.04
784.42	1775.59
784.60	1685.48
784.77	1722.34
784.95	1626.09
785.12	1699.81
785.30	1705.96
785.47	1681.38
785.65	1558.50
785.83	1744.87
786.00	1632.23
786.18	1740.77
786.35	1685.48
786.53	1699.81
786.71	1738.73
786.88	1798.12
787.06	1722.34
787.23	1740.77
787.41	1640.42
787.58	1665.00
787.76	1662.95
787.94	1830.88
788.11	1746.92
788.29	1683.43
788.46	1695.72
788.64	1654.76
788.81	1640.42
788.99	1697.77
789.16	1667.05
789.34	1728.49
789.52	1615.85
789.69	1683.43
789.87	1609.70
790.04	1654.76
790.22	1769.44
790.39	1822.69
790.57	1605.61
790.74	1691.62
790.92	1742.82
791.09	1658.85
791.27	1634.28
791.44	1755.11
791.62	1654.76
791.79	1759.21
791.97	1757.16
792.15	1877.99
792.32	1699.81
792.50	1828.84
792.67	1794.02
792.85	1810.40
793.02	1742.82
793.20	1613.80
793.37	1650.66
793.55	1777.64
793.72	1628.14
793.90	1738.73
794.07	1679.33
794.25	1619.94
794.42	1730.53
794.60	1691.62
794.77	1763.30
794.95	1767.40
795.12	1728.49
795.30	1722.34
795.47	1564.65
795.65	1871.84
795.82	1705.96
796.00	1644.52
796.17	1652.71
796.34	1734.63
796.52	1738.73
796.69	1703.91
796.87	1802.21
797.04	1724.39
797.22	1728.49
797.39	1703.91
797.57	1753.06
797.74	1685.48
797.92	1800.16
798.09	1644.52
798.27	1863.65
798.44	1660.90
798.62	1710.05
798.79	1773.54
798.96	1632.23
799.14	1712.10
799.31	1861.60
799.49	1689.57
799.66	1712.10
799.84	1720.29
800.01	1607.66
800.19	1740.77
800.36	1660.90
800.53	1742.82
800.71	1779.68
800.88	1763.30
801.06	1699.81
801.23	1687.53
801.41	1609.70
801.58	1660.90
801.75	1587.18
801.93	1738.73
802.10	1720.29
802.28	1732.58
802.45	1732.58
802.63	1753.06
802.80	1724.39
802.97	1730.53
803.15	1730.53
803.32	1701.86
803.50	1697.77
803.67	1689.57
803.84	1607.66
804.02	1708.01
804.19	1656.81
804.37	1652.71
804.54	1570.79
804.71	1681.38
804.89	1705.96
805.06	1650.66
805.24	1615.85
805.41	1638.38
805.58	1683.43
805.76	1789.92
805.93	1753.06
806.10	1857.51
806.28	1794.02
806.45	1710.05
806.63	1730.53
806.80	1683.43
806.97	1771.49
807.15	1642.47
807.32	1728.49
807.49	1730.53
807.67	1652.71
807.84	1767.40
808.01	1648.61
808.19	1828.84
808.36	1826.79
808.54	1718.25
808.71	1621.99
808.88	1748.97
809.06	1740.77
809.23	1740.77
809.40	1691.62
809.58	1785.83
809.75	1695.72
809.92	1644.52
810.10	1863.65
810.27	1685.48
810.44	1703.91
810.62	1755.11
810.79	1763.30
810.96	1685.48
811.14	1673.19
811.31	1753.06
811.48	1726.44
811.66	1716.20
811.83	1757.16
812.00	1675.24
812.18	1705.96
812.35	1939.43
812.52	1742.82
812.69	1742.82
812.87	1734.63
813.04	1660.90
813.21	1691.62
813.39	1673.19
813.56	1646.57
813.73	1804.26
813.91	1535.98
814.08	1673.19
814.25	1703.91
814.42	1574.89
814.60	1703.91
814.77	1669.09
814.94	1722.34
815.12	1712.10
815.29	1767.40
815.46	1671.14
815.63	1632.23
815.81	1681.38
815.98	1689.57
816.15	1714.15
816.33	1724.39
816.50	1708.01
816.67	1691.62
816.84	1671.14
817.02	1671.14
817.19	1746.92
817.36	1714.15
817.53	1730.53
817.71	1619.94
817.88	1791.97
818.05	1740.77
818.22	1685.48
818.40	1800.16
818.57	1685.48
818.74	1728.49
818.91	1722.34
819.09	1701.86
819.26	1830.88
819.43	1675.24
819.60	1767.40
819.78	1787.88
819.95	1812.45
820.12	1570.79
820.29	1851.36
820.47	1742.82
820.64	1650.66
820.81	1615.85
820.98	1742.82
821.15	1687.53
821.33	1730.53
821.50	1673.19
821.67	1785.83
821.84	1734.63
822.02	1736.68
822.19	1771.49
822.36	1648.61
822.53	1691.62
822.70	1710.05
822.88	1662.95
823.05	1753.06
823.22	1691.62
823.39	1740.77
823.56	1648.61
823.74	1779.68
823.91	1667.05
824.08	1644.52
824.25	1628.14
824.42	1814.50
824.60	1652.71
824.77	1724.39
824.94	1648.61
825.11	1722.34
825.28	1632.23
825.45	1722.34
825.63	1798.12
825.80	1624.04
825.97	1617.90
826.14	1722.34
826.31	1652.71
826.48	1761.25
826.66	1654.76
826.83	1644.52
827.00	1718.25
827.17	1705.96
827.34	1724.39
827.51	1679.33
827.69	1757.16
827.86	1648.61
828.03	1710.05
828.20	1691.62
828.37	1681.38
828.54	1716.20
828.71	1697.77
828.89	1806.31
829.06	1714.15
829.23	1779.68
829.40	1714.15
829.57	1734.63
829.74	1677.29
829.91	1708.01
830.09	1566.70
830.26	1705.96
830.43	1804.26
830.60	1681.38
830.77	1779.68
830.94	1761.25
831.11	1728.49
831.28	1720.29
831.46	1753.06
831.63	1634.28
831.80	1753.06
831.97	1710.05
832.14	1689.57
832.31	1703.91
832.48	1687.53
832.65	1783.78
832.82	1740.77
832.99	1738.73
833.17	1718.25
833.34	1740.77
833.51	1748.97
833.68	1558.50
833.85	1759.21
834.02	1624.04
834.19	1660.90
834.36	1628.14
834.53	1697.77
834.70	1708.01
834.87	1767.40
835.04	1693.67
835.22	1685.48
835.39	1695.72
835.56	1552.36
835.73	1665.00
835.90	1691.62
836.07	1753.06
836.24	1810.40
836.41	1630.18
836.58	1712.10
836.75	1712.10
836.92	1681.38
837.09	1681.38
837.26	1769.44
837.43	1695.72
837.60	1763.30
837.77	1632.23
837.94	1742.82
838.12	1884.13
838.29	1777.64
838.46	1587.18
838.63	1593.32
838.80	1798.12
838.97	1798.12
839.14	1726.44
839.31	1732.58
839.48	1724.39
839.65	1675.24
839.82	1695.72
839.99	1654.76
840.16	1757.16
840.33	1714.15
840.50	1708.01
840.67	1607.66
840.84	1568.74
841.01	1681.38
841.18	1636.33
841.35	1703.91
841.52	1763.30
841.69	1853.41
841.86	1685.48
842.03	1669.09
842.20	1798.12
842.37	1669.09
842.54	1634.28
842.71	1759.21
842.88	1642.47
843.05	1746.92
843.22	1675.24
843.39	1708.01
843.56	1677.29
843.73	1708.01
843.90	1626.09
844.07	1697.77
844.24	1775.59
844.41	1738.73
844.58	1624.04
844.75	1691.62
844.92	1767.40
845.09	1685.48
845.26	1626.09
845.43	1714.15
845.60	1673.19
845.77	1775.59
845.94	1654.76
846.10	1767.40
846.27	1611.75
846.44	1683.43
846.61	1689.57
846.78	1697.77
846.95	1767.40
847.12	1673.19
847.29	1673.19
847.46	1718.25
847.63	1703.91
847.80	1550.31
847.97	1683.43
848.14	1806.31
848.31	1683.43
848.48	1660.90
848.65	1675.24
848.82	1615.85
848.98	1771.49
849.15	1761.25
849.32	1740.77
849.49	1773.54
849.66	1652.71
849.83	1773.54
850.00	1613.80
850.17	1757.16
850.34	1701.86
850.51	1718.25
850.68	1689.57
850.85	1855.46
851.01	1746.92
851.18	1808.36
851.35	1656.81
851.52	1738.73
851.69	1777.64
851.86	1685.48
852.03	1677.29
852.20	1716.20
852.37	1720.29
852.53	1607.66
852.70	1697.77
852.87	1718.25
853.04	1755.11
853.21	1693.67
853.38	1771.49
853.55	1785.83
853.72	1753.06
853.89	1583.08
854.05	1650.66
854.22	1712.10
854.39	1683.43
854.56	1742.82
854.73	1757.16
854.90	1646.57
855.07	1755.11
855.23	1617.90
855.40	1656.81
855.57	1734.63
855.74	1656.81
855.91	1933.28
856.08	1705.96
856.25	1658.85
856.41	1730.53
856.58	1685.48
856.75	1708.01
856.92	1617.90
857.09	1746.92
857.26	1578.98
857.42	1652.71
857.59	1718.25
857.76	1724.39
857.93	1732.58
858.10	1742.82
858.27	1617.90
858.43	1687.53
858.60	1667.05
858.77	1701.86
858.94	1705.96
859.11	1779.68
859.27	1636.33
859.44	1714.15
859.61	1822.69
859.78	1804.26
859.95	1681.38
860.12	1650.66
860.28	1779.68
860.45	1853.41
860.62	1701.86
860.79	1675.24
860.95	1636.33
861.12	1652.71
861.29	1693.67
861.46	1697.77
861.63	1759.21
861.79	1740.77
861.96	1687.53
862.13	1626.09
862.30	1732.58
862.47	1624.04
862.63	1701.86
862.80	1701.86
862.97	1755.11
863.14	1757.16
863.30	1740.77
863.47	1671.14
863.64	1781.73
863.81	1677.29
863.97	1656.81
864.14	1710.05
864.31	1640.42
864.48	1705.96
864.65	1765.35
864.81	1818.60
864.98	1777.64
865.15	1841.12
865.32	1789.92
865.48	1806.31
865.65	1783.78
865.82	1677.29
865.98	1720.29
866.15	1744.87
866.32	1705.96
866.49	1628.14
866.65	1804.26
866.82	1656.81
866.99	1671.14
867.16	1640.42
867.32	1642.47
867.49	1626.09
867.66	1740.77
867.83	1734.63
867.99	1634.28
868.16	1705.96
868.33	1628.14
868.49	1695.72
868.66	1611.75
868.83	1677.29
868.99	1740.77
869.16	1730.53
869.33	1701.86
869.50	1689.57
869.66	1736.68
869.83	1724.39
870.00	1583.08
870.16	1699.81
870.33	1781.73
870.50	1751.01
870.66	1746.92
870.83	1855.46
871.00	1650.66
871.17	1748.97
871.33	1753.06
871.50	1673.19
871.67	1697.77
871.83	1603.56
872.00	1726.44
872.17	1697.77
872.33	1769.44
872.50	1740.77
872.67	1671.14
872.83	1716.20
873.00	1646.57
873.17	1673.19
873.33	1808.36
873.50	1738.73
873.67	1656.81
873.83	1638.38
874.00	1689.57
874.16	1732.58
874.33	1785.83
874.50	1611.75
874.66	1738.73
874.83	1591.27
875.00	1744.87
875.16	1812.45
875.33	1724.39
875.50	1572.84
875.66	1703.91
875.83	1744.87
875.99	1742.82
876.16	1675.24
876.33	1617.90
876.49	1775.59
876.66	1722.34
876.83	1695.72
876.99	1691.62
877.16	1658.85
877.32	1701.86
877.49	1669.09
877.66	1654.76
877.82	1787.88
877.99	1818.60
878.15	1748.97
878.32	1703.91
878.49	1734.63
878.65	1705.96
878.82	1722.34
878.98	1763.30
879.15	1732.58
879.32	1740.77
879.48	1705.96
879.65	1699.81
879.81	1644.52
879.98	1638.38
880.15	1757.16
880.31	1744.87
880.48	1570.79
880.64	1843.17
880.81	1789.92
880.97	1777.64
881.14	1828.84
881.31	1619.94
881.47	1853.41
881.64	1716.20
881.80	1660.90
881.97	1720.29
882.13	1718.25
882.30	1671.14
882.47	1689.57
882.63	1658.85
882.80	1636.33
882.96	1673.19
883.13	1771.49
883.29	1601.51
883.46	1775.59
883.62	1808.36
883.79	1724.39
883.95	1722.34
884.12	1669.09
884.29	1783.78
884.45	1705.96
884.62	1751.01
884.78	1581.03
884.95	1705.96
885.11	1697.77
885.28	1673.19
885.44	1685.48
885.61	1824.74
885.77	1781.73
885.94	1759.21
886.10	1638.38
886.27	1708.01
886.43	1759.21
886.60	1761.25
886.76	1687.53
886.93	1636.33
887.09	1675.24
887.26	1656.81
887.42	1669.09
887.59	1767.40
887.75	1787.88
887.92	1775.59
888.08	1736.68
888.25	1880.04
888.41	1697.77
888.58	1701.86
888.74	1671.14
888.91	1650.66
>>>>>End Processed Spectral Data<<<<<
