SpectraSuite Data File
++++++++++++++++++++++++++++++++++++
Date: Wed May 04 18:44:35 CEST 2016
User: root
Dark Spectrum Present: No
Reference Spectrum Present: No
Number of Sampled Component Spectra: 1
Spectrometers: USB4C02835
Integration Time (usec): 100000 (USB4C02835)
Spectra Averaged: 1 (USB4C02835)
Boxcar Smoothing: 0 (USB4C02835)
Correct for Electrical Dark: No (USB4C02835)
Strobe/Lamp Enabled: No (USB4C02835)
Correct for Detector Non-linearity: No (USB4C02835)
Correct for Stray Light: No (USB4C02835)
Number of Pixels in Processed Spectrum: 3648
>>>>>Begin Processed Spectral Data<<<<<
177.47	1396.71
177.69	1396.71
177.91	1396.71
178.13	1456.11
178.36	1472.49
178.58	1673.19
178.80	1697.77
179.02	1714.15
179.24	1656.81
179.46	1697.77
179.68	1757.16
179.90	1726.44
180.13	1732.58
180.35	1624.04
180.57	1619.94
180.79	1769.44
181.01	1619.94
181.23	1720.29
181.45	1816.55
181.67	1695.72
181.90	1714.15
182.12	1662.95
182.34	1599.46
182.56	1732.58
182.78	1738.73
183.00	1662.95
183.22	1794.02
183.44	1603.56
183.66	1859.56
183.89	1845.22
184.11	1650.66
184.33	1671.14
184.55	1720.29
184.77	1695.72
184.99	1746.92
185.21	1681.38
185.43	1918.95
185.65	1669.09
185.87	1685.48
186.10	1755.11
186.32	1828.84
186.54	1763.30
186.76	1669.09
186.98	1753.06
187.20	1722.34
187.42	1677.29
187.64	1785.83
187.86	1689.57
188.08	1746.92
188.30	1611.75
188.52	1679.33
188.75	1767.40
188.97	1779.68
189.19	1648.61
189.41	1681.38
189.63	1720.29
189.85	1656.81
190.07	1593.32
190.29	1591.27
190.51	1765.35
190.73	1691.62
190.95	1771.49
191.17	1773.54
191.39	1613.80
191.61	1660.90
191.84	1665.00
192.06	1812.45
192.28	1660.90
192.50	1894.37
192.72	1753.06
192.94	1775.59
193.16	1794.02
193.38	1716.20
193.60	1611.75
193.82	1667.05
194.04	1769.44
194.26	1740.77
194.48	1734.63
194.70	1695.72
194.92	1699.81
195.14	1667.05
195.36	1636.33
195.58	1708.01
195.80	1730.53
196.02	1654.76
196.24	1742.82
196.46	1691.62
196.69	1720.29
196.91	1763.30
197.13	1673.19
197.35	1660.90
197.57	1789.92
197.79	1763.30
198.01	1681.38
198.23	1738.73
198.45	1705.96
198.67	1607.66
198.89	1705.96
199.11	1603.56
199.33	1654.76
199.55	1572.84
199.77	1673.19
199.99	1746.92
200.21	1652.71
200.43	1697.77
200.65	1599.46
200.87	1621.99
201.09	1753.06
201.31	1613.80
201.53	1712.10
201.75	1724.39
201.97	1714.15
202.19	1718.25
202.41	1722.34
202.63	1755.11
202.85	1769.44
203.07	1726.44
203.29	1570.79
203.51	1679.33
203.73	1640.42
203.95	1853.41
204.17	1779.68
204.39	1708.01
204.61	1734.63
204.83	1644.52
205.05	1789.92
205.27	1810.40
205.49	1763.30
205.71	1695.72
205.93	1658.85
206.15	1748.97
206.37	1665.00
206.59	1734.63
206.81	1636.33
207.03	1634.28
207.25	1587.18
207.47	1767.40
207.69	1656.81
207.91	1738.73
208.13	1773.54
208.34	1617.90
208.56	1638.38
208.78	1716.20
209.00	1685.48
209.22	1714.15
209.44	1712.10
209.66	1669.09
209.88	1693.67
210.10	1722.34
210.32	1683.43
210.54	1742.82
210.76	1628.14
210.98	1804.26
211.20	1652.71
211.42	1755.11
211.64	1810.40
211.86	1687.53
212.08	1716.20
212.30	1691.62
212.52	1695.72
212.74	1708.01
212.96	1718.25
213.17	1738.73
213.39	1675.24
213.61	1771.49
213.83	1710.05
214.05	1722.34
214.27	1818.60
214.49	1671.14
214.71	1697.77
214.93	1744.87
215.15	1759.21
215.37	1824.74
215.59	1685.48
215.81	1677.29
216.03	1765.35
216.24	1691.62
216.46	1683.43
216.68	1720.29
216.90	1755.11
217.12	1783.78
217.34	1691.62
217.56	1691.62
217.78	1763.30
218.00	1718.25
218.22	1654.76
218.44	1665.00
218.66	1726.44
218.87	1753.06
219.09	1736.68
219.31	1683.43
219.53	1771.49
219.75	1734.63
219.97	1722.34
220.19	1746.92
220.41	1740.77
220.63	1804.26
220.85	1800.16
221.06	1699.81
221.28	1755.11
221.50	1687.53
221.72	1742.82
221.94	1693.67
222.16	1648.61
222.38	1757.16
222.60	1763.30
222.82	1703.91
223.03	1736.68
223.25	1669.09
223.47	1748.97
223.69	1853.41
223.91	1779.68
224.13	1705.96
224.35	1693.67
224.57	1771.49
224.78	1718.25
225.00	1714.15
225.22	1634.28
225.44	1681.38
225.66	1699.81
225.88	1667.05
226.10	1755.11
226.32	1667.05
226.53	1892.32
226.75	1705.96
226.97	1771.49
227.19	1759.21
227.41	1656.81
227.63	1675.24
227.85	1646.57
228.06	1701.86
228.28	1728.49
228.50	1765.35
228.72	1673.19
228.94	1763.30
229.16	1595.37
229.37	1675.24
229.59	1628.14
229.81	1761.25
230.03	1671.14
230.25	1632.23
230.47	1644.52
230.69	1632.23
230.90	1728.49
231.12	1697.77
231.34	1775.59
231.56	1834.98
231.78	1619.94
232.00	1744.87
232.21	1732.58
232.43	1703.91
232.65	1624.04
232.87	1644.52
233.09	1646.57
233.30	1669.09
233.52	1796.07
233.74	1689.57
233.96	1689.57
234.18	1746.92
234.40	1669.09
234.61	1818.60
234.83	1615.85
235.05	1628.14
235.27	1855.46
235.49	1812.45
235.70	1683.43
235.92	1798.12
236.14	1763.30
236.36	1890.28
236.58	1601.51
236.79	1808.36
237.01	1751.01
237.23	1636.33
237.45	1843.17
237.67	1613.80
237.88	1722.34
238.10	1796.07
238.32	1736.68
238.54	1619.94
238.76	1691.62
238.97	1613.80
239.19	1710.05
239.41	1695.72
239.63	1787.88
239.85	1683.43
240.06	1724.39
240.28	1759.21
240.50	1761.25
240.72	1734.63
240.93	1695.72
241.15	1759.21
241.37	1617.90
241.59	1804.26
241.81	1634.28
242.02	1636.33
242.24	1718.25
242.46	1701.86
242.68	1687.53
242.89	1744.87
243.11	1767.40
243.33	1732.58
243.55	1714.15
243.76	1837.03
243.98	1613.80
244.20	1689.57
244.42	1648.61
244.64	1720.29
244.85	1642.47
245.07	1587.18
245.29	1691.62
245.51	1697.77
245.72	1656.81
245.94	1724.39
246.16	1685.48
246.38	1814.50
246.59	1677.29
246.81	1671.14
247.03	1679.33
247.24	1611.75
247.46	1665.00
247.68	1757.16
247.90	1724.39
248.11	1669.09
248.33	1757.16
248.55	1671.14
248.77	1748.97
248.98	1746.92
249.20	1839.08
249.42	1681.38
249.64	1691.62
249.85	1716.20
250.07	1619.94
250.29	1763.30
250.50	1746.92
250.72	1628.14
250.94	1742.82
251.16	1761.25
251.37	1753.06
251.59	1675.24
251.81	1736.68
252.02	1767.40
252.24	1581.03
252.46	1751.01
252.68	1683.43
252.89	1632.23
253.11	1665.00
253.33	1804.26
253.54	1755.11
253.76	1640.42
253.98	1746.92
254.20	1687.53
254.41	1632.23
254.63	1654.76
254.85	1671.14
255.06	1669.09
255.28	1712.10
255.50	1669.09
255.71	1656.81
255.93	1673.19
256.15	1710.05
256.36	1609.70
256.58	1685.48
256.80	1681.38
257.02	1714.15
257.23	1697.77
257.45	1693.67
257.67	1814.50
257.88	1636.33
258.10	1779.68
258.32	1804.26
258.53	1675.24
258.75	1802.21
258.97	1662.95
259.18	1665.00
259.40	1730.53
259.62	1808.36
259.83	1828.84
260.05	1683.43
260.27	1976.29
260.48	1730.53
260.70	1652.71
260.92	1726.44
261.13	1755.11
261.35	1634.28
261.57	1744.87
261.78	1603.56
262.00	1642.47
262.22	1734.63
262.43	1611.75
262.65	1718.25
262.86	1677.29
263.08	1804.26
263.30	1734.63
263.51	1525.74
263.73	1703.91
263.95	1753.06
264.16	1677.29
264.38	1685.48
264.60	1714.15
264.81	1708.01
265.03	1791.97
265.25	1691.62
265.46	1753.06
265.68	1791.97
265.89	1746.92
266.11	1615.85
266.33	1724.39
266.54	1759.21
266.76	1701.86
266.98	1654.76
267.19	1861.60
267.41	1839.08
267.62	1710.05
267.84	1624.04
268.06	1824.74
268.27	1775.59
268.49	1775.59
268.70	1734.63
268.92	1775.59
269.14	1677.29
269.35	1632.23
269.57	1759.21
269.79	1779.68
270.00	1701.86
270.22	1808.36
270.43	1687.53
270.65	1617.90
270.87	1781.73
271.08	1708.01
271.30	1767.40
271.51	1689.57
271.73	1812.45
271.95	1744.87
272.16	1726.44
272.38	1775.59
272.59	1669.09
272.81	1742.82
273.02	1726.44
273.24	1685.48
273.46	1791.97
273.67	1660.90
273.89	1693.67
274.10	1638.38
274.32	1808.36
274.54	1708.01
274.75	1765.35
274.97	1689.57
275.18	1732.58
275.40	1697.77
275.61	1689.57
275.83	1765.35
276.05	1726.44
276.26	1757.16
276.48	1726.44
276.69	1634.28
276.91	1660.90
277.12	1771.49
277.34	1720.29
277.55	1771.49
277.77	1716.20
277.99	1607.66
278.20	1675.24
278.42	1654.76
278.63	1619.94
278.85	1656.81
279.06	1615.85
279.28	1726.44
279.49	1726.44
279.71	1751.01
279.93	1781.73
280.14	1771.49
280.36	1650.66
280.57	1806.31
280.79	1771.49
281.00	1697.77
281.22	1699.81
281.43	1742.82
281.65	1554.41
281.86	1640.42
282.08	1701.86
282.29	1820.64
282.51	1665.00
282.73	1722.34
282.94	1607.66
283.16	1785.83
283.37	1726.44
283.59	1736.68
283.80	1716.20
284.02	1628.14
284.23	1693.67
284.45	1732.58
284.66	1697.77
284.88	1724.39
285.09	1732.58
285.31	1710.05
285.52	1736.68
285.74	1675.24
285.95	1800.16
286.17	1730.53
286.38	1730.53
286.60	1724.39
286.81	1628.14
287.03	1685.48
287.24	1738.73
287.46	1738.73
287.67	1718.25
287.89	1800.16
288.10	1712.10
288.32	1718.25
288.53	1753.06
288.75	1718.25
288.96	1732.58
289.18	1665.00
289.39	1746.92
289.61	1742.82
289.82	1781.73
290.04	1828.84
290.25	1591.27
290.47	1718.25
290.68	1638.38
290.90	1771.49
291.11	1628.14
291.33	1710.05
291.54	1677.29
291.76	1646.57
291.97	1783.78
292.18	1648.61
292.40	1652.71
292.61	1652.71
292.83	1853.41
293.04	1712.10
293.26	1742.82
293.47	1710.05
293.69	1648.61
293.90	1697.77
294.12	1800.16
294.33	1763.30
294.55	1654.76
294.76	1697.77
294.97	1787.88
295.19	1867.75
295.40	1681.38
295.62	1738.73
295.83	1800.16
296.05	1712.10
296.26	1775.59
296.48	1685.48
296.69	1687.53
296.90	1710.05
297.12	1728.49
297.33	1730.53
297.55	1699.81
297.76	1726.44
297.98	1685.48
298.19	1677.29
298.41	1730.53
298.62	1638.38
298.83	1787.88
299.05	1701.86
299.26	1689.57
299.48	1683.43
299.69	1734.63
299.90	1757.16
300.12	1609.70
300.33	1796.07
300.55	1777.64
300.76	1763.30
300.98	1630.18
301.19	1773.54
301.40	1644.52
301.62	1755.11
301.83	1767.40
302.05	1816.55
302.26	1689.57
302.47	1714.15
302.69	1615.85
302.90	1705.96
303.12	1605.61
303.33	1755.11
303.54	1732.58
303.76	1693.67
303.97	1738.73
304.19	1837.03
304.40	1728.49
304.61	1689.57
304.83	1779.68
305.04	1755.11
305.26	1742.82
305.47	1671.14
305.68	1630.18
305.90	1640.42
306.11	1714.15
306.33	1732.58
306.54	1665.00
306.75	1693.67
306.97	1605.61
307.18	1650.66
307.39	1669.09
307.61	1748.97
307.82	1710.05
308.04	1718.25
308.25	1693.67
308.46	1722.34
308.68	1837.03
308.89	1724.39
309.10	1834.98
309.32	1761.25
309.53	1703.91
309.74	1736.68
309.96	1771.49
310.17	1804.26
310.39	1697.77
310.60	1708.01
310.81	1748.97
311.03	1568.74
311.24	1730.53
311.45	1687.53
311.67	1816.55
311.88	1753.06
312.09	1734.63
312.31	1691.62
312.52	1722.34
312.73	1730.53
312.95	1628.14
313.16	1603.56
313.37	1802.21
313.59	1689.57
313.80	1783.78
314.01	1730.53
314.23	1708.01
314.44	1689.57
314.65	1640.42
314.87	1746.92
315.08	1683.43
315.29	1722.34
315.51	1675.24
315.72	1658.85
315.93	1808.36
316.15	1734.63
316.36	1697.77
316.57	1736.68
316.79	1779.68
317.00	1675.24
317.21	1755.11
317.43	1595.37
317.64	1726.44
317.85	1644.52
318.07	1683.43
318.28	1751.01
318.49	1808.36
318.70	2029.54
318.92	1888.23
319.13	1857.51
319.34	1914.85
319.56	1777.64
319.77	1837.03
319.98	1773.54
320.20	1832.93
320.41	1755.11
320.62	1777.64
320.83	1624.04
321.05	1853.41
321.26	1742.82
321.47	1736.68
321.69	1744.87
321.90	1640.42
322.11	1665.00
322.32	1714.15
322.54	1845.22
322.75	1613.80
322.96	1771.49
323.18	1619.94
323.39	1535.98
323.60	1638.38
323.81	1751.01
324.03	1697.77
324.24	1708.01
324.45	1757.16
324.66	1771.49
324.88	1748.97
325.09	1845.22
325.30	1728.49
325.52	1755.11
325.73	1691.62
325.94	1699.81
326.15	1621.99
326.37	1736.68
326.58	1755.11
326.79	1783.78
327.00	1646.57
327.22	1771.49
327.43	1689.57
327.64	1597.42
327.85	1642.47
328.07	1628.14
328.28	1775.59
328.49	1687.53
328.70	1722.34
328.92	1751.01
329.13	1695.72
329.34	1742.82
329.55	1763.30
329.76	1808.36
329.98	1662.95
330.19	1798.12
330.40	1771.49
330.61	1726.44
330.83	1869.80
331.04	1665.00
331.25	1748.97
331.46	1705.96
331.68	1607.66
331.89	1832.93
332.10	1644.52
332.31	1597.42
332.52	1751.01
332.74	1802.21
332.95	1603.56
333.16	1662.95
333.37	1722.34
333.58	1685.48
333.80	1720.29
334.01	1566.70
334.22	1720.29
334.43	1683.43
334.64	1591.27
334.86	1681.38
335.07	1626.09
335.28	1783.78
335.49	1593.32
335.70	1728.49
335.92	1722.34
336.13	1828.84
336.34	1689.57
336.55	1669.09
336.76	1710.05
336.98	1544.17
337.19	1748.97
337.40	1863.65
337.61	1765.35
337.82	1671.14
338.04	1816.55
338.25	1640.42
338.46	1679.33
338.67	1742.82
338.88	1693.67
339.09	1761.25
339.31	1617.90
339.52	1665.00
339.73	1669.09
339.94	1671.14
340.15	1673.19
340.36	1640.42
340.58	1677.29
340.79	1644.52
341.00	1656.81
341.21	1574.89
341.42	1798.12
341.63	1708.01
341.85	1701.86
342.06	1701.86
342.27	1712.10
342.48	1724.39
342.69	1636.33
342.90	1736.68
343.12	1718.25
343.33	1689.57
343.54	1748.97
343.75	1794.02
343.96	1734.63
344.17	1648.61
344.38	1708.01
344.60	1662.95
344.81	1650.66
345.02	1650.66
345.23	1775.59
345.44	1857.51
345.65	1800.16
345.86	1738.73
346.07	1685.48
346.29	1695.72
346.50	1730.53
346.71	1755.11
346.92	1765.35
347.13	1839.08
347.34	1724.39
347.55	1673.19
347.76	1656.81
347.98	1652.71
348.19	1644.52
348.40	1796.07
348.61	1650.66
348.82	1787.88
349.03	1773.54
349.24	1691.62
349.45	1841.12
349.66	1599.46
349.88	1728.49
350.09	1726.44
350.30	1730.53
350.51	1722.34
350.72	1791.97
350.93	1779.68
351.14	1640.42
351.35	1775.59
351.56	1722.34
351.77	1693.67
351.99	1755.11
352.20	1679.33
352.41	1789.92
352.62	1669.09
352.83	1646.57
353.04	1720.29
353.25	1689.57
353.46	1716.20
353.67	1746.92
353.88	1630.18
354.09	1705.96
354.30	1742.82
354.52	1824.74
354.73	1687.53
354.94	1724.39
355.15	1751.01
355.36	1816.55
355.57	1576.94
355.78	1742.82
355.99	1683.43
356.20	1779.68
356.41	1771.49
356.62	1701.86
356.83	1658.85
357.04	1787.88
357.25	1634.28
357.46	1746.92
357.68	1671.14
357.89	1671.14
358.10	1708.01
358.31	1734.63
358.52	1636.33
358.73	1681.38
358.94	1734.63
359.15	1718.25
359.36	1765.35
359.57	1759.21
359.78	1675.24
359.99	1738.73
360.20	1591.27
360.41	1673.19
360.62	1730.53
360.83	1732.58
361.04	1722.34
361.25	1728.49
361.46	1806.31
361.67	1769.44
361.88	1771.49
362.09	1806.31
362.30	1724.39
362.51	1591.27
362.72	1673.19
362.93	1791.97
363.14	1720.29
363.35	1693.67
363.56	1656.81
363.78	1734.63
363.99	1701.86
364.20	1669.09
364.41	1759.21
364.62	1800.16
364.83	1712.10
365.04	1658.85
365.25	1685.48
365.46	1789.92
365.67	1720.29
365.88	1699.81
366.09	1724.39
366.30	1712.10
366.51	1720.29
366.72	1665.00
366.93	1732.58
367.14	1740.77
367.35	1759.21
367.56	1771.49
367.77	1751.01
367.98	1669.09
368.18	1708.01
368.39	1699.81
368.60	1689.57
368.81	1755.11
369.02	1826.79
369.23	1689.57
369.44	1673.19
369.65	1646.57
369.86	1789.92
370.07	1814.50
370.28	1677.29
370.49	1628.14
370.70	1806.31
370.91	1640.42
371.12	1638.38
371.33	1765.35
371.54	1685.48
371.75	1791.97
371.96	1607.66
372.17	1755.11
372.38	1617.90
372.59	1806.31
372.80	1693.67
373.01	1660.90
373.22	1742.82
373.43	1777.64
373.64	1667.05
373.85	1773.54
374.06	1818.60
374.26	1671.14
374.47	1759.21
374.68	1732.58
374.89	1665.00
375.10	1697.77
375.31	1744.87
375.52	1742.82
375.73	1738.73
375.94	1669.09
376.15	1726.44
376.36	1738.73
376.57	1697.77
376.78	1669.09
376.99	1687.53
377.20	1834.98
377.40	1677.29
377.61	1875.94
377.82	1691.62
378.03	1834.98
378.24	1734.63
378.45	1740.77
378.66	1740.77
378.87	1650.66
379.08	1726.44
379.29	1636.33
379.50	1746.92
379.71	1718.25
379.91	1767.40
380.12	1660.90
380.33	1738.73
380.54	1675.24
380.75	1693.67
380.96	1769.44
381.17	1791.97
381.38	1685.48
381.59	1767.40
381.80	1808.36
382.00	1970.15
382.21	1800.16
382.42	1947.62
382.63	1906.66
382.84	1800.16
383.05	1828.84
383.26	1853.41
383.47	1751.01
383.68	1806.31
383.88	1789.92
384.09	1812.45
384.30	1894.37
384.51	1751.01
384.72	1708.01
384.93	1591.27
385.14	1654.76
385.35	1822.69
385.55	1701.86
385.76	1785.83
385.97	1673.19
386.18	1597.42
386.39	1701.86
386.60	1689.57
386.81	1755.11
387.02	1708.01
387.22	1695.72
387.43	1914.85
387.64	1800.16
387.85	1890.28
388.06	2195.42
388.27	4562.87
388.48	8970.10
388.68	11654.99
388.89	13610.80
389.10	14163.75
389.31	11982.67
389.52	9955.18
389.73	8519.55
389.93	7735.18
390.14	7133.08
390.35	6559.64
390.56	5951.40
390.77	5076.91
390.98	3952.58
391.18	3117.01
391.39	2408.41
391.60	2025.44
391.81	1865.70
392.02	1802.21
392.23	1873.89
392.43	1732.58
392.64	1812.45
392.85	1763.30
393.06	1740.77
393.27	1695.72
393.47	1669.09
393.68	1689.57
393.89	1632.23
394.10	1804.26
394.31	1710.05
394.52	1658.85
394.72	1701.86
394.93	1814.50
395.14	1695.72
395.35	1697.77
395.56	1740.77
395.76	1730.53
395.97	1828.84
396.18	1865.70
396.39	1898.47
396.60	2076.64
396.80	1982.43
397.01	1900.52
397.22	1867.75
397.43	1898.47
397.64	1730.53
397.84	1785.83
398.05	1894.37
398.26	1771.49
398.47	1787.88
398.67	1830.88
398.88	1736.68
399.09	1746.92
399.30	1767.40
399.51	1839.08
399.71	1626.09
399.92	1701.86
400.13	1761.25
400.34	1681.38
400.54	1701.86
400.75	1812.45
400.96	1753.06
401.17	1781.73
401.37	1693.67
401.58	1683.43
401.79	1673.19
402.00	1867.75
402.21	2125.79
402.41	2115.55
402.62	2084.83
402.83	2168.80
403.04	2068.45
403.24	2160.61
403.45	1933.28
403.66	1955.81
403.87	1906.66
404.07	1914.85
404.28	2029.54
404.49	1908.71
404.70	1810.40
404.90	1839.08
405.11	1791.97
405.32	1791.97
405.52	1679.33
405.73	1710.05
405.94	1685.48
406.15	1714.15
406.35	1710.05
406.56	1746.92
406.77	1757.16
406.98	1699.81
407.18	1660.90
407.39	1785.83
407.60	1708.01
407.80	1728.49
408.01	1640.42
408.22	1701.86
408.43	1658.85
408.63	1824.74
408.84	1765.35
409.05	1708.01
409.25	1697.77
409.46	1681.38
409.67	1703.91
409.88	1751.01
410.08	1748.97
410.29	1658.85
410.50	1755.11
410.70	1728.49
410.91	1685.48
411.12	1779.68
411.32	1662.95
411.53	1751.01
411.74	1853.41
411.95	1830.88
412.15	1828.84
412.36	1787.88
412.57	1746.92
412.77	1867.75
412.98	1667.05
413.19	1669.09
413.39	1761.25
413.60	1824.74
413.81	1777.64
414.01	1691.62
414.22	1761.25
414.43	1755.11
414.63	1722.34
414.84	1740.77
415.05	1712.10
415.25	1648.61
415.46	1662.95
415.67	1697.77
415.87	1791.97
416.08	1660.90
416.29	1748.97
416.49	1773.54
416.70	1691.62
416.91	1677.29
417.11	1675.24
417.32	1787.88
417.53	1751.01
417.73	1734.63
417.94	1746.92
418.15	1730.53
418.35	1781.73
418.56	1738.73
418.77	1834.98
418.97	1767.40
419.18	1777.64
419.38	1646.57
419.59	1697.77
419.80	1816.55
420.00	1652.71
420.21	1720.29
420.42	1775.59
420.62	1724.39
420.83	1667.05
421.04	1683.43
421.24	1728.49
421.45	1761.25
421.65	1783.78
421.86	1722.34
422.07	1738.73
422.27	1665.00
422.48	1665.00
422.69	1650.66
422.89	1687.53
423.10	1660.90
423.30	1662.95
423.51	1689.57
423.72	1687.53
423.92	1673.19
424.13	1648.61
424.33	1634.28
424.54	1812.45
424.75	1695.72
424.95	1857.51
425.16	1681.38
425.36	1683.43
425.57	1761.25
425.78	1697.77
425.98	1804.26
426.19	1683.43
426.39	1665.00
426.60	1753.06
426.81	1791.97
427.01	1734.63
427.22	1656.81
427.42	1638.38
427.63	1708.01
427.83	1748.97
428.04	1789.92
428.25	1761.25
428.45	1828.84
428.66	1738.73
428.86	1740.77
429.07	1683.43
429.28	1705.96
429.48	1642.47
429.69	1650.66
429.89	1777.64
430.10	1658.85
430.30	1730.53
430.51	1775.59
430.71	1658.85
430.92	1746.92
431.13	1677.29
431.33	1755.11
431.54	1718.25
431.74	1847.27
431.95	1830.88
432.15	1613.80
432.36	1771.49
432.56	1779.68
432.77	1859.56
432.98	1886.18
433.18	1687.53
433.39	1697.77
433.59	1753.06
433.80	1837.03
434.00	1818.60
434.21	1671.14
434.41	1746.92
434.62	1832.93
434.82	1671.14
435.03	1656.81
435.23	1675.24
435.44	1621.99
435.64	1718.25
435.85	1714.15
436.06	1798.12
436.26	1701.86
436.47	1779.68
436.67	1691.62
436.88	1617.90
437.08	1773.54
437.29	1822.69
437.49	1744.87
437.70	1767.40
437.90	1695.72
438.11	1884.13
438.31	1781.73
438.52	1837.03
438.72	1949.67
438.93	2041.82
439.13	1796.07
439.34	1843.17
439.54	1730.53
439.75	1794.02
439.95	1830.88
440.16	1714.15
440.36	1783.78
440.57	1753.06
440.77	1806.31
440.98	1710.05
441.18	1695.72
441.39	1695.72
441.59	1671.14
441.80	1791.97
442.00	1626.09
442.21	1748.97
442.41	1677.29
442.62	1751.01
442.82	1662.95
443.02	1757.16
443.23	1816.55
443.43	1730.53
443.64	1839.08
443.84	1753.06
444.05	1828.84
444.25	1738.73
444.46	1763.30
444.66	1703.91
444.87	1800.16
445.07	1591.27
445.28	1726.44
445.48	1789.92
445.69	1705.96
445.89	1857.51
446.09	1826.79
446.30	1935.33
446.50	2594.78
446.71	4163.52
446.91	5072.82
447.12	5949.35
447.32	6043.56
447.53	5521.32
447.73	4417.47
447.93	4061.12
448.14	3731.40
448.34	3461.07
448.55	3149.78
448.75	3106.77
448.96	2936.79
449.16	2621.40
449.36	2416.60
449.57	2205.66
449.77	1966.05
449.98	1808.36
450.18	1826.79
450.39	1820.64
450.59	1806.31
450.79	1714.15
451.00	1658.85
451.20	1796.07
451.41	1800.16
451.61	1767.40
451.81	1732.58
452.02	1740.77
452.22	1771.49
452.43	1697.77
452.63	1800.16
452.84	1794.02
453.04	1640.42
453.24	1759.21
453.45	1648.61
453.65	1689.57
453.86	1789.92
454.06	1775.59
454.26	1710.05
454.47	1658.85
454.67	1789.92
454.87	1804.26
455.08	1748.97
455.28	1828.84
455.49	1800.16
455.69	1724.39
455.89	1892.32
456.10	1806.31
456.30	1757.16
456.51	1843.17
456.71	1683.43
456.91	1808.36
457.12	1730.53
457.32	1796.07
457.52	1703.91
457.73	1759.21
457.93	1789.92
458.14	1779.68
458.34	1644.52
458.54	1726.44
458.75	1675.24
458.95	1779.68
459.15	1785.83
459.36	1804.26
459.56	1759.21
459.76	1873.89
459.97	1728.49
460.17	1738.73
460.37	1742.82
460.58	1685.48
460.78	1796.07
460.99	1632.23
461.19	1710.05
461.39	1712.10
461.60	1759.21
461.80	1744.87
462.00	1714.15
462.21	1687.53
462.41	1599.46
462.61	1697.77
462.82	1611.75
463.02	1757.16
463.22	1734.63
463.43	1759.21
463.63	1796.07
463.83	1804.26
464.04	1785.83
464.24	1767.40
464.44	1667.05
464.64	1650.66
464.85	1771.49
465.05	1867.75
465.25	1771.49
465.46	1693.67
465.66	1863.65
465.86	1748.97
466.07	1703.91
466.27	1748.97
466.47	1617.90
466.68	1640.42
466.88	1841.12
467.08	1730.53
467.29	1808.36
467.49	1757.16
467.69	1685.48
467.89	1789.92
468.10	1718.25
468.30	1777.64
468.50	1779.68
468.71	1730.53
468.91	1669.09
469.11	1859.56
469.31	1695.72
469.52	1654.76
469.72	1884.13
469.92	1906.66
470.13	1646.57
470.33	1751.01
470.53	1822.69
470.73	2133.98
470.94	2533.34
471.14	2674.65
471.34	3004.37
471.54	2830.29
471.75	2611.16
471.95	2295.77
472.15	2277.34
472.36	2306.01
472.56	2181.09
472.76	2166.75
472.96	2105.31
473.17	1964.00
473.37	1996.77
473.57	1845.22
473.77	1869.80
473.98	1695.72
474.18	1744.87
474.38	1820.64
474.58	1687.53
474.79	1609.70
474.99	1740.77
475.19	1818.60
475.39	1701.86
475.60	1761.25
475.80	1765.35
476.00	1761.25
476.20	1697.77
476.41	1751.01
476.61	1777.64
476.81	1830.88
477.01	1683.43
477.21	1812.45
477.42	1800.16
477.62	1624.04
477.82	1771.49
478.02	1742.82
478.23	1703.91
478.43	1679.33
478.63	1687.53
478.83	1724.39
479.03	1730.53
479.24	1796.07
479.44	1761.25
479.64	1734.63
479.84	1632.23
480.04	1636.33
480.25	1736.68
480.45	1708.01
480.65	1765.35
480.85	1791.97
481.06	1763.30
481.26	1693.67
481.46	1755.11
481.66	1683.43
481.86	1732.58
482.06	1798.12
482.27	1755.11
482.47	1636.33
482.67	1681.38
482.87	1775.59
483.07	1722.34
483.28	1640.42
483.48	1712.10
483.68	1656.81
483.88	1638.38
484.08	1599.46
484.29	1615.85
484.49	1775.59
484.69	1685.48
484.89	1765.35
485.09	1742.82
485.29	1812.45
485.50	1746.92
485.70	1755.11
485.90	1726.44
486.10	1677.29
486.30	1720.29
486.50	1802.21
486.71	1730.53
486.91	1837.03
487.11	1740.77
487.31	1613.80
487.51	1675.24
487.71	1634.28
487.91	1687.53
488.12	1628.14
488.32	1587.18
488.52	1691.62
488.72	1617.90
488.92	1744.87
489.12	1798.12
489.32	1748.97
489.53	1785.83
489.73	1689.57
489.93	1740.77
490.13	1693.67
490.33	1630.18
490.53	1773.54
490.73	1781.73
490.94	1615.85
491.14	1787.88
491.34	1759.21
491.54	2133.98
491.74	2711.51
491.94	3119.06
492.14	3534.79
492.34	3596.23
492.54	3166.16
492.75	2775.00
492.95	2584.54
493.15	2469.85
493.35	2283.49
493.55	2283.49
493.75	2164.70
493.95	2224.09
494.15	2070.50
494.35	1865.70
494.56	1882.08
494.76	1820.64
494.96	1785.83
495.16	1771.49
495.36	1771.49
495.56	1759.21
495.76	1697.77
495.96	1828.84
496.16	1724.39
496.36	1839.08
496.56	1738.73
496.77	1751.01
496.97	1734.63
497.17	1714.15
497.37	1677.29
497.57	1726.44
497.77	1777.64
497.97	1755.11
498.17	1667.05
498.37	1652.71
498.57	1867.75
498.77	1689.57
498.97	1765.35
499.17	1826.79
499.38	1697.77
499.58	1726.44
499.78	1839.08
499.98	1810.40
500.18	1730.53
500.38	1748.97
500.58	1871.84
500.78	2422.75
500.98	4517.82
501.18	6694.81
501.38	8230.79
501.58	9080.69
501.78	8697.72
501.98	6967.19
502.18	5863.33
502.38	5146.55
502.58	4521.92
502.78	4093.89
502.98	3817.41
503.18	3743.69
503.38	3516.36
503.59	3147.73
503.79	2906.07
503.99	2562.01
504.19	2344.92
504.39	2246.62
504.59	2306.01
504.79	2346.97
504.99	2232.29
505.19	2068.45
505.39	1908.71
505.59	1929.19
505.79	1982.43
505.99	1925.09
506.19	1839.08
506.39	1914.85
506.59	1746.92
506.79	1730.53
506.99	1812.45
507.19	1808.36
507.39	1763.30
507.59	1744.87
507.79	1650.66
507.99	1751.01
508.19	1669.09
508.39	1705.96
508.59	1763.30
508.79	1796.07
508.99	1802.21
509.19	1728.49
509.39	1714.15
509.59	1648.61
509.79	1665.00
509.99	1687.53
510.19	1789.92
510.39	1816.55
510.59	1759.21
510.79	1691.62
510.99	1689.57
511.19	1777.64
511.39	1851.36
511.59	1773.54
511.79	1761.25
511.99	1822.69
512.19	1812.45
512.38	1769.44
512.58	1708.01
512.78	1699.81
512.98	1800.16
513.18	1767.40
513.38	1654.76
513.58	1845.22
513.78	1802.21
513.98	1779.68
514.18	1722.34
514.38	1703.91
514.58	1740.77
514.78	1615.85
514.98	1732.58
515.18	1740.77
515.38	1652.71
515.58	1880.04
515.78	1716.20
515.98	1783.78
516.18	1710.05
516.38	1724.39
516.57	1726.44
516.77	1658.85
516.97	1812.45
517.17	1726.44
517.37	1630.18
517.57	1767.40
517.77	1687.53
517.97	1804.26
518.17	1896.42
518.37	1703.91
518.57	1693.67
518.77	1751.01
518.97	1718.25
519.16	1746.92
519.36	1804.26
519.56	1777.64
519.76	1740.77
519.96	1708.01
520.16	1849.32
520.36	1738.73
520.56	1888.23
520.76	1697.77
520.96	1714.15
521.16	1769.44
521.35	1822.69
521.55	1877.99
521.75	1701.86
521.95	1648.61
522.15	1736.68
522.35	1656.81
522.55	1638.38
522.75	1798.12
522.95	1738.73
523.14	1757.16
523.34	1712.10
523.54	1626.09
523.74	1781.73
523.94	1777.64
524.14	1628.14
524.34	1759.21
524.54	1802.21
524.73	1734.63
524.93	1775.59
525.13	1753.06
525.33	1669.09
525.53	1884.13
525.73	1789.92
525.93	1748.97
526.13	1722.34
526.32	1712.10
526.52	1859.56
526.72	1693.67
526.92	1681.38
527.12	1693.67
527.32	1646.57
527.52	1710.05
527.71	1746.92
527.91	1771.49
528.11	1687.53
528.31	1710.05
528.51	1683.43
528.71	1791.97
528.90	1763.30
529.10	1773.54
529.30	1845.22
529.50	1646.57
529.70	1730.53
529.90	1701.86
530.09	1712.10
530.29	1662.95
530.49	1613.80
530.69	1877.99
530.89	1771.49
531.09	1753.06
531.28	1705.96
531.48	1822.69
531.68	1800.16
531.88	1738.73
532.08	1800.16
532.28	1660.90
532.47	1771.49
532.67	1789.92
532.87	1824.74
533.07	1724.39
533.27	1796.07
533.46	1796.07
533.66	1759.21
533.86	1771.49
534.06	1757.16
534.26	1847.27
534.45	1724.39
534.65	1785.83
534.85	1722.34
535.05	1716.20
535.25	1699.81
535.44	1677.29
535.64	1812.45
535.84	1763.30
536.04	1773.54
536.24	1689.57
536.43	1673.19
536.63	1791.97
536.83	1751.01
537.03	1773.54
537.22	1640.42
537.42	1703.91
537.62	1693.67
537.82	1738.73
538.02	1877.99
538.21	1816.55
538.41	1886.18
538.61	1720.29
538.81	1644.52
539.00	1839.08
539.20	1738.73
539.40	1720.29
539.60	1771.49
539.79	1796.07
539.99	1691.62
540.19	1767.40
540.39	1691.62
540.58	1705.96
540.78	1777.64
540.98	1724.39
541.18	1791.97
541.37	1695.72
541.57	1701.86
541.77	1632.23
541.97	1677.29
542.16	1634.28
542.36	1708.01
542.56	1726.44
542.76	1791.97
542.95	1804.26
543.15	1718.25
543.35	1808.36
543.54	1748.97
543.74	1669.09
543.94	1787.88
544.14	1744.87
544.33	1787.88
544.53	1734.63
544.73	1773.54
544.93	1695.72
545.12	1755.11
545.32	1738.73
545.52	1697.77
545.71	1599.46
545.91	1730.53
546.11	1736.68
546.30	1703.91
546.50	1716.20
546.70	1757.16
546.90	1730.53
547.09	1679.33
547.29	1714.15
547.49	1765.35
547.68	1808.36
547.88	1660.90
548.08	1783.78
548.27	2220.00
548.47	1669.09
548.67	1683.43
548.87	1728.49
549.06	1724.39
549.26	1755.11
549.46	1767.40
549.65	1722.34
549.85	1843.17
550.05	1714.15
550.24	1624.04
550.44	1740.77
550.64	1742.82
550.83	1810.40
551.03	1765.35
551.23	1808.36
551.42	1808.36
551.62	1710.05
551.82	1767.40
552.01	1691.62
552.21	1781.73
552.41	1714.15
552.60	1787.88
552.80	1685.48
553.00	1742.82
553.19	1722.34
553.39	1888.23
553.59	1708.01
553.78	1808.36
553.98	1710.05
554.17	1722.34
554.37	1798.12
554.57	1759.21
554.76	1632.23
554.96	1712.10
555.16	1781.73
555.35	1740.77
555.55	1716.20
555.75	1787.88
555.94	1787.88
556.14	1660.90
556.33	1753.06
556.53	1712.10
556.73	1677.29
556.92	1814.50
557.12	1791.97
557.32	1796.07
557.51	1853.41
557.71	1718.25
557.90	1863.65
558.10	1884.13
558.30	1755.11
558.49	1759.21
558.69	1665.00
558.88	1769.44
559.08	1769.44
559.28	1673.19
559.47	1730.53
559.67	1689.57
559.86	1896.42
560.06	1755.11
560.26	1708.01
560.45	1773.54
560.65	1734.63
560.84	1886.18
561.04	1701.86
561.24	1720.29
561.43	1748.97
561.63	1798.12
561.82	1798.12
562.02	1695.72
562.22	1695.72
562.41	1753.06
562.61	1665.00
562.80	1652.71
563.00	1888.23
563.19	1779.68
563.39	1806.31
563.59	1789.92
563.78	1738.73
563.98	1605.61
564.17	1671.14
564.37	1697.77
564.56	1761.25
564.76	1695.72
564.96	1822.69
565.15	1716.20
565.35	1869.80
565.54	1812.45
565.74	1806.31
565.93	1742.82
566.13	1716.20
566.32	1781.73
566.52	1703.91
566.71	1742.82
566.91	1683.43
567.11	1705.96
567.30	1669.09
567.50	1791.97
567.69	1761.25
567.89	1728.49
568.08	1642.47
568.28	1769.44
568.47	1757.16
568.67	1714.15
568.86	1746.92
569.06	1800.16
569.25	1697.77
569.45	1722.34
569.64	1656.81
569.84	1728.49
570.04	1871.84
570.23	1765.35
570.43	1800.16
570.62	1812.45
570.82	1847.27
571.01	1724.39
571.21	1759.21
571.40	1732.58
571.60	1722.34
571.79	1726.44
571.99	1714.15
572.18	1662.95
572.38	1828.84
572.57	1701.86
572.77	1693.67
572.96	1880.04
573.16	1736.68
573.35	1734.63
573.55	1816.55
573.74	1806.31
573.94	1740.77
574.13	1769.44
574.33	1847.27
574.52	1837.03
574.71	1806.31
574.91	1759.21
575.10	1675.24
575.30	1681.38
575.49	1667.05
575.69	1722.34
575.88	1818.60
576.08	1765.35
576.27	1886.18
576.47	1771.49
576.66	1851.36
576.86	1877.99
577.05	1853.41
577.25	1814.50
577.44	1877.99
577.64	1683.43
577.83	1767.40
578.02	1736.68
578.22	1796.07
578.41	1843.17
578.61	1734.63
578.80	1693.67
579.00	1755.11
579.19	1759.21
579.39	1781.73
579.58	1918.95
579.77	1804.26
579.97	1808.36
580.16	1806.31
580.36	1832.93
580.55	1857.51
580.75	1800.16
580.94	1818.60
581.13	1834.98
581.33	1865.70
581.52	1716.20
581.72	1863.65
581.91	1931.23
582.11	1738.73
582.30	1810.40
582.49	1802.21
582.69	1898.47
582.88	1789.92
583.08	1865.70
583.27	1880.04
583.47	1787.88
583.66	1812.45
583.85	1755.11
584.05	1832.93
584.24	1789.92
584.44	1830.88
584.63	1824.74
584.82	1900.52
585.02	1837.03
585.21	1912.80
585.41	1882.08
585.60	1804.26
585.79	2015.20
585.99	1955.81
586.18	1996.77
586.37	2263.01
586.57	3387.34
586.76	9856.87
586.96	27412.06
587.15	41981.31
587.34	51574.00
587.54	58231.94
587.73	55917.74
587.93	40512.92
588.12	29808.19
588.31	23899.80
588.51	20354.76
588.70	18433.77
588.89	17278.71
589.09	15669.01
589.28	13610.80
589.47	11650.89
589.67	9375.60
589.86	7448.46
590.06	5408.69
590.25	4196.29
590.44	3227.60
590.64	2631.64
590.83	2293.72
591.02	2199.52
591.22	1920.99
591.41	1937.38
591.60	1804.26
591.80	1959.91
591.99	1736.68
592.18	1763.30
592.38	1802.21
592.57	1759.21
592.76	1880.04
592.96	1771.49
593.15	1824.74
593.34	1814.50
593.54	1761.25
593.73	1861.60
593.92	1767.40
594.12	1783.78
594.31	1843.17
594.50	1943.52
594.70	1822.69
594.89	1910.75
595.08	1693.67
595.28	1843.17
595.47	1951.71
595.66	1787.88
595.86	1695.72
596.05	1769.44
596.24	1751.01
596.43	1873.89
596.63	1808.36
596.82	1742.82
597.01	1724.39
597.21	1804.26
597.40	1734.63
597.59	1816.55
597.79	1716.20
597.98	1826.79
598.17	1695.72
598.36	1767.40
598.56	1802.21
598.75	1818.60
598.94	1820.64
599.14	1767.40
599.33	1734.63
599.52	1787.88
599.71	1748.97
599.91	1865.70
600.10	1759.21
600.29	1775.59
600.48	1763.30
600.68	1822.69
600.87	1816.55
601.06	1730.53
601.26	1642.47
601.45	1802.21
601.64	1710.05
601.83	1806.31
602.03	1699.81
602.22	1712.10
602.41	1880.04
602.60	1931.23
602.80	1806.31
602.99	1763.30
603.18	1742.82
603.37	1837.03
603.57	1800.16
603.76	1796.07
603.95	1822.69
604.14	1589.22
604.34	1681.38
604.53	1730.53
604.72	1726.44
604.91	1828.84
605.10	1806.31
605.30	1705.96
605.49	1855.46
605.68	1771.49
605.87	1804.26
606.07	1785.83
606.26	1712.10
606.45	1675.24
606.64	1681.38
606.84	1763.30
607.03	1839.08
607.22	1828.84
607.41	1738.73
607.60	1794.02
607.80	1847.27
607.99	1779.68
608.18	1701.86
608.37	1810.40
608.56	1804.26
608.76	1845.22
608.95	1865.70
609.14	1914.85
609.33	1839.08
609.52	1927.14
609.72	1843.17
609.91	1920.99
610.10	1800.16
610.29	1812.45
610.48	1765.35
610.68	1791.97
610.87	1767.40
611.06	1757.16
611.25	1796.07
611.44	1794.02
611.63	1658.85
611.83	1865.70
612.02	1669.09
612.21	1779.68
612.40	1646.57
612.59	1560.55
612.79	1650.66
612.98	1734.63
613.17	1777.64
613.36	1796.07
613.55	1937.38
613.74	1818.60
613.93	1882.08
614.13	2037.73
614.32	2009.06
614.51	1980.39
614.70	1877.99
614.89	1783.78
615.08	1863.65
615.28	2230.24
615.47	1667.05
615.66	1791.97
615.85	1828.84
616.04	1882.08
616.23	1841.12
616.42	1771.49
616.62	1908.71
616.81	1771.49
617.00	1724.39
617.19	1828.84
617.38	1689.57
617.57	1781.73
617.76	1804.26
617.95	1783.78
618.15	1824.74
618.34	1789.92
618.53	1658.85
618.72	1763.30
618.91	1843.17
619.10	1847.27
619.29	1736.68
619.48	1785.83
619.68	1712.10
619.87	1771.49
620.06	1650.66
620.25	1773.54
620.44	1714.15
620.63	1708.01
620.82	1769.44
621.01	1753.06
621.20	1681.38
621.39	1789.92
621.59	1761.25
621.78	1777.64
621.97	1742.82
622.16	1777.64
622.35	1736.68
622.54	1783.78
622.73	1808.36
622.92	1703.91
623.11	1812.45
623.30	1740.77
623.49	1755.11
623.68	1658.85
623.88	1849.32
624.07	1763.30
624.26	1695.72
624.45	1765.35
624.64	1728.49
624.83	1771.49
625.02	1683.43
625.21	1683.43
625.40	1683.43
625.59	1777.64
625.78	1804.26
625.97	1771.49
626.16	1871.84
626.35	1783.78
626.54	1775.59
626.74	1871.84
626.93	1783.78
627.12	1728.49
627.31	1839.08
627.50	1826.79
627.69	1771.49
627.88	1796.07
628.07	1751.01
628.26	1701.86
628.45	1697.77
628.64	1652.71
628.83	1761.25
629.02	1716.20
629.21	1816.55
629.40	1816.55
629.59	1681.38
629.78	1689.57
629.97	1751.01
630.16	1681.38
630.35	1761.25
630.54	1746.92
630.73	1705.96
630.92	1765.35
631.11	1742.82
631.30	1789.92
631.49	1810.40
631.68	1683.43
631.87	1781.73
632.06	1693.67
632.25	1853.41
632.44	1779.68
632.63	1775.59
632.82	1724.39
633.01	1800.16
633.20	1855.46
633.39	1798.12
633.58	1773.54
633.77	1837.03
633.96	1820.64
634.15	1787.88
634.34	1789.92
634.53	1812.45
634.72	1722.34
634.91	1714.15
635.10	1751.01
635.29	1779.68
635.48	1728.49
635.67	1662.95
635.86	1673.19
636.05	1832.93
636.24	1742.82
636.43	1751.01
636.62	1826.79
636.81	1626.09
637.00	1773.54
637.19	1806.31
637.38	1753.06
637.57	1683.43
637.76	1832.93
637.95	1857.51
638.14	1839.08
638.33	1771.49
638.52	1787.88
638.71	1738.73
638.89	1728.49
639.08	1964.00
639.27	1767.40
639.46	1830.88
639.65	2164.70
639.84	2168.80
640.03	2389.98
640.22	2351.07
640.41	2416.60
640.60	2033.63
640.79	2033.63
640.98	1951.71
641.17	1968.10
641.36	1880.04
641.55	1894.37
641.74	1757.16
641.92	1810.40
642.11	1804.26
642.30	1826.79
642.49	1724.39
642.68	1757.16
642.87	1726.44
643.06	1748.97
643.25	1654.76
643.44	1691.62
643.63	1802.21
643.82	1765.35
644.00	1695.72
644.19	1738.73
644.38	1728.49
644.57	1767.40
644.76	1730.53
644.95	1681.38
645.14	1714.15
645.33	1673.19
645.52	1703.91
645.71	1736.68
645.89	1560.55
646.08	1724.39
646.27	1763.30
646.46	1802.21
646.65	1654.76
646.84	1726.44
647.03	1681.38
647.22	1744.87
647.40	1777.64
647.59	1693.67
647.78	1689.57
647.97	1703.91
648.16	1732.58
648.35	1880.04
648.54	1843.17
648.73	1712.10
648.91	1746.92
649.10	1763.30
649.29	1726.44
649.48	1699.81
649.67	1712.10
649.86	1662.95
650.05	1771.49
650.23	1900.52
650.42	1851.36
650.61	1916.90
650.80	1904.61
650.99	1920.99
651.18	1789.92
651.36	1853.41
651.55	1683.43
651.74	1830.88
651.93	1708.01
652.12	1763.30
652.31	1775.59
652.49	1759.21
652.68	1765.35
652.87	1779.68
653.06	1810.40
653.25	1824.74
653.44	1771.49
653.62	1830.88
653.81	1705.96
654.00	1730.53
654.19	1787.88
654.38	1877.99
654.56	1806.31
654.75	1720.29
654.94	1800.16
655.13	1808.36
655.32	1689.57
655.51	1738.73
655.69	1677.29
655.88	1757.16
656.07	1658.85
656.26	1816.55
656.45	1738.73
656.63	1710.05
656.82	1742.82
657.01	1820.64
657.20	1677.29
657.38	1748.97
657.57	1687.53
657.76	1634.28
657.95	1757.16
658.14	1703.91
658.32	1699.81
658.51	1681.38
658.70	1722.34
658.89	1634.28
659.08	1710.05
659.26	1816.55
659.45	1611.75
659.64	1810.40
659.83	1665.00
660.01	1988.58
660.20	1710.05
660.39	1812.45
660.58	1701.86
660.76	1685.48
660.95	1720.29
661.14	1761.25
661.33	1638.38
661.51	1726.44
661.70	1744.87
661.89	1748.97
662.08	1710.05
662.26	1624.04
662.45	1744.87
662.64	1771.49
662.83	1708.01
663.01	1675.24
663.20	1755.11
663.39	1834.98
663.58	1699.81
663.76	1705.96
663.95	1771.49
664.14	1740.77
664.32	1740.77
664.51	1665.00
664.70	1683.43
664.89	1787.88
665.07	1669.09
665.26	1755.11
665.45	1638.38
665.64	1699.81
665.82	1724.39
666.01	1765.35
666.20	1726.44
666.38	1820.64
666.57	1902.56
666.76	2226.14
666.95	4616.12
667.13	11351.89
667.32	18798.31
667.51	22482.60
667.69	25249.41
667.88	25437.82
668.07	19699.41
668.25	14407.46
668.44	11786.06
668.63	9813.87
668.81	8699.77
669.00	7571.34
669.19	6881.18
669.38	6125.47
669.56	5332.91
669.75	4499.39
669.94	3831.75
670.12	3106.77
670.31	2813.91
670.50	2367.45
670.68	2121.70
670.87	2037.73
671.06	1794.02
671.24	1769.44
671.43	1933.28
671.62	1820.64
671.80	1742.82
671.99	1837.03
672.18	1736.68
672.36	1812.45
672.55	1773.54
672.74	1753.06
672.92	1718.25
673.11	1824.74
673.29	1779.68
673.48	1753.06
673.67	1767.40
673.85	1755.11
674.04	1742.82
674.23	1734.63
674.41	1826.79
674.60	1683.43
674.79	1695.72
674.97	1728.49
675.16	1779.68
675.34	1744.87
675.53	1714.15
675.72	1710.05
675.90	1779.68
676.09	1687.53
676.28	1720.29
676.46	1689.57
676.65	1759.21
676.83	1687.53
677.02	1726.44
677.21	1757.16
677.39	1759.21
677.58	1726.44
677.77	1701.86
677.95	1607.66
678.14	1751.01
678.32	1757.16
678.51	1665.00
678.70	1834.98
678.88	1671.14
679.07	1759.21
679.25	1667.05
679.44	1746.92
679.63	1691.62
679.81	1705.96
680.00	1736.68
680.18	1757.16
680.37	1830.88
680.55	1744.87
680.74	1656.81
680.93	1662.95
681.11	1771.49
681.30	1634.28
681.48	1808.36
681.67	1679.33
681.85	1767.40
682.04	1753.06
682.23	1755.11
682.41	1726.44
682.60	1673.19
682.78	1691.62
682.97	1665.00
683.15	1685.48
683.34	1794.02
683.53	1761.25
683.71	1701.86
683.90	1777.64
684.08	1794.02
684.27	1691.62
684.45	1748.97
684.64	1800.16
684.82	1701.86
685.01	1791.97
685.19	1742.82
685.38	1763.30
685.57	1697.77
685.75	1722.34
685.94	1730.53
686.12	1691.62
686.31	1677.29
686.49	1732.58
686.68	1619.94
686.86	1781.73
687.05	1675.24
687.23	1808.36
687.42	1742.82
687.60	1613.80
687.79	1685.48
687.97	1796.07
688.16	1757.16
688.34	1718.25
688.53	1669.09
688.71	1810.40
688.90	1722.34
689.08	1697.77
689.27	1619.94
689.45	1669.09
689.64	1816.55
689.82	1691.62
690.01	1730.53
690.19	1779.68
690.38	1708.01
690.56	1828.84
690.75	1695.72
690.93	1701.86
691.12	1638.38
691.30	1738.73
691.49	1673.19
691.67	1710.05
691.86	1857.51
692.04	1767.40
692.23	1705.96
692.41	1722.34
692.60	1908.71
692.78	1820.64
692.97	1818.60
693.15	1806.31
693.34	1806.31
693.52	1841.12
693.71	1697.77
693.89	1681.38
694.08	1650.66
694.26	1773.54
694.44	1796.07
694.63	1662.95
694.81	1599.46
695.00	1665.00
695.18	1794.02
695.37	1822.69
695.55	1773.54
695.74	1683.43
695.92	1583.08
696.10	1822.69
696.29	1662.95
696.47	1718.25
696.66	1681.38
696.84	1689.57
697.03	1732.58
697.21	1873.89
697.40	2326.49
697.58	1841.12
697.76	1730.53
697.95	1675.24
698.13	1667.05
698.32	1671.14
698.50	1685.48
698.68	1755.11
698.87	1730.53
699.05	1851.36
699.24	1720.29
699.42	1654.76
699.61	1746.92
699.79	1777.64
699.97	1791.97
700.16	1656.81
700.34	1665.00
700.53	1687.53
700.71	1761.25
700.89	1712.10
701.08	1701.86
701.26	1679.33
701.45	2109.41
701.63	1683.43
701.81	1710.05
702.00	1720.29
702.18	1677.29
702.37	1591.27
702.55	1873.89
702.73	1890.28
702.92	1796.07
703.10	2000.87
703.28	1955.81
703.47	1845.22
703.65	1841.12
703.84	1920.99
704.02	1738.73
704.20	1863.65
704.39	1767.40
704.57	1837.03
704.75	1841.12
704.94	1894.37
705.12	1822.69
705.30	1898.47
705.49	2437.08
705.67	5396.40
705.86	13319.99
706.04	18988.77
706.22	22718.12
706.41	25169.54
706.59	24723.08
706.77	19066.59
706.96	13860.65
707.14	11810.64
707.32	10104.68
707.51	8753.02
707.69	7815.05
707.87	6748.06
708.06	5525.42
708.24	4216.77
708.42	3219.41
708.61	2787.29
708.79	2176.99
708.97	2064.35
709.16	1992.67
709.34	1951.71
709.52	1798.12
709.71	1802.21
709.89	1787.88
710.07	1708.01
710.26	1617.90
710.44	1751.01
710.62	1769.44
710.80	1816.55
710.99	1787.88
711.17	1773.54
711.35	1720.29
711.54	1716.20
711.72	1703.91
711.90	1798.12
712.09	1757.16
712.27	1705.96
712.45	1716.20
712.63	1648.61
712.82	1738.73
713.00	1703.91
713.18	1777.64
713.37	1697.77
713.55	1744.87
713.73	1669.09
713.91	1789.92
714.10	1820.64
714.28	1771.49
714.46	1783.78
714.65	1773.54
714.83	1767.40
715.01	1759.21
715.19	1789.92
715.38	1689.57
715.56	1681.38
715.74	1691.62
715.92	1675.24
716.11	1798.12
716.29	1683.43
716.47	1710.05
716.65	1656.81
716.84	1607.66
717.02	1796.07
717.20	1636.33
717.38	1673.19
717.57	1705.96
717.75	1685.48
717.93	1667.05
718.11	1679.33
718.30	1677.29
718.48	1701.86
718.66	1656.81
718.84	1771.49
719.03	1775.59
719.21	1681.38
719.39	1771.49
719.57	1746.92
719.75	1726.44
719.94	1665.00
720.12	1689.57
720.30	1675.24
720.48	1736.68
720.67	1681.38
720.85	1683.43
721.03	1607.66
721.21	1675.24
721.39	1785.83
721.58	1773.54
721.76	1720.29
721.94	1775.59
722.12	1757.16
722.30	1769.44
722.49	1746.92
722.67	1744.87
722.85	1730.53
723.03	1650.66
723.21	1720.29
723.40	1736.68
723.58	1742.82
723.76	1796.07
723.94	1845.22
724.12	1773.54
724.30	1798.12
724.49	1861.60
724.67	1718.25
724.85	1798.12
725.03	1630.18
725.21	1798.12
725.40	1783.78
725.58	1742.82
725.76	1812.45
725.94	1761.25
726.12	1652.71
726.30	1785.83
726.49	1728.49
726.67	1636.33
726.85	1804.26
727.03	1767.40
727.21	2287.58
727.39	3303.37
727.57	4995.00
727.76	5654.44
727.94	6205.35
728.12	6416.29
728.30	5631.91
728.48	4425.66
728.66	3942.34
728.84	3540.94
729.03	3205.07
729.21	2926.55
729.39	2473.95
729.57	2115.55
729.75	2047.97
729.93	1908.71
730.11	1753.06
730.30	1767.40
730.48	1773.54
730.66	1834.98
730.84	1761.25
731.02	1730.53
731.20	1722.34
731.38	1697.77
731.56	1617.90
731.74	1705.96
731.93	1679.33
732.11	1710.05
732.29	1708.01
732.47	1738.73
732.65	1730.53
732.83	1720.29
733.01	1785.83
733.19	1687.53
733.37	1783.78
733.56	1701.86
733.74	1624.04
733.92	1794.02
734.10	1675.24
734.28	1755.11
734.46	1681.38
734.64	1671.14
734.82	1628.14
735.00	1689.57
735.18	1669.09
735.36	1609.70
735.54	1693.67
735.73	1652.71
735.91	1697.77
736.09	1775.59
736.27	1751.01
736.45	1724.39
736.63	1648.61
736.81	1695.72
736.99	1761.25
737.17	1789.92
737.35	1751.01
737.53	1718.25
737.71	1708.01
737.89	1796.07
738.07	1662.95
738.25	1744.87
738.43	1630.18
738.61	1648.61
738.80	1615.85
738.98	1701.86
739.16	1695.72
739.34	1697.77
739.52	1771.49
739.70	1628.14
739.88	1708.01
740.06	1794.02
740.24	1583.08
740.42	1738.73
740.60	1617.90
740.78	1714.15
740.96	1662.95
741.14	1714.15
741.32	1765.35
741.50	1626.09
741.68	1820.64
741.86	1783.78
742.04	1671.14
742.22	1681.38
742.40	1738.73
742.58	1648.61
742.76	1640.42
742.94	1761.25
743.12	1675.24
743.30	1693.67
743.48	1724.39
743.66	1699.81
743.84	1730.53
744.02	1695.72
744.20	1699.81
744.38	1705.96
744.56	1718.25
744.74	1812.45
744.92	1753.06
745.10	1806.31
745.28	1812.45
745.46	1808.36
745.64	1689.57
745.82	1714.15
746.00	1777.64
746.18	1679.33
746.36	1710.05
746.54	1755.11
746.72	1675.24
746.90	1669.09
747.08	1857.51
747.26	1705.96
747.44	1753.06
747.62	1824.74
747.80	1621.99
747.98	1662.95
748.15	1759.21
748.33	1761.25
748.51	1767.40
748.69	1853.41
748.87	1746.92
749.05	1673.19
749.23	1673.19
749.41	1804.26
749.59	1751.01
749.77	1789.92
749.95	1683.43
750.13	1685.48
750.31	1673.19
750.49	1632.23
750.67	1712.10
750.85	1765.35
751.03	1681.38
751.20	1812.45
751.38	1652.71
751.56	1675.24
751.74	1689.57
751.92	1689.57
752.10	1687.53
752.28	1822.69
752.46	1693.67
752.64	1654.76
752.82	1755.11
753.00	1728.49
753.18	1716.20
753.35	1640.42
753.53	1691.62
753.71	1658.85
753.89	1769.44
754.07	1630.18
754.25	1767.40
754.43	1777.64
754.61	1681.38
754.79	1724.39
754.97	1718.25
755.14	1849.32
755.32	1648.61
755.50	1716.20
755.68	1732.58
755.86	1675.24
756.04	1744.87
756.22	1566.70
756.40	1779.68
756.57	1849.32
756.75	1697.77
756.93	1734.63
757.11	1759.21
757.29	1589.22
757.47	1669.09
757.65	1599.46
757.82	1615.85
758.00	1714.15
758.18	1658.85
758.36	1685.48
758.54	1791.97
758.72	1634.28
758.90	1728.49
759.07	1736.68
759.25	1599.46
759.43	1732.58
759.61	1693.67
759.79	2172.89
759.97	1777.64
760.15	1681.38
760.32	1685.48
760.50	1699.81
760.68	1802.21
760.86	1599.46
761.04	1738.73
761.22	1738.73
761.39	1712.10
761.57	1693.67
761.75	1740.77
761.93	1665.00
762.11	1634.28
762.28	1605.61
762.46	1691.62
762.64	1701.86
762.82	1650.66
763.00	1601.51
763.18	1753.06
763.35	1685.48
763.53	1748.97
763.71	1705.96
763.89	1759.21
764.07	1744.87
764.24	1710.05
764.42	1751.01
764.60	1730.53
764.78	1806.31
764.96	1748.97
765.13	1757.16
765.31	1660.90
765.49	1710.05
765.67	1662.95
765.84	1683.43
766.02	1720.29
766.20	1642.47
766.38	1705.96
766.56	1734.63
766.73	1689.57
766.91	1714.15
767.09	1691.62
767.27	1687.53
767.44	1734.63
767.62	1720.29
767.80	1808.36
767.98	1701.86
768.15	1769.44
768.33	1720.29
768.51	1773.54
768.69	1689.57
768.87	1761.25
769.04	1722.34
769.22	1882.08
769.40	1734.63
769.58	1871.84
769.75	1726.44
769.93	1796.07
770.11	1728.49
770.28	1718.25
770.46	1718.25
770.64	1753.06
770.82	1593.32
770.99	1671.14
771.17	1818.60
771.35	1685.48
771.53	1675.24
771.70	1687.53
771.88	1810.40
772.06	1769.44
772.23	1751.01
772.41	1660.90
772.59	1665.00
772.77	1685.48
772.94	1656.81
773.12	1755.11
773.30	1667.05
773.47	1697.77
773.65	1630.18
773.83	1828.84
774.01	1796.07
774.18	1583.08
774.36	1695.72
774.54	1624.04
774.71	1705.96
774.89	1648.61
775.07	1701.86
775.24	1667.05
775.42	1703.91
775.60	1816.55
775.78	1636.33
775.95	1576.94
776.13	1587.18
776.31	1591.27
776.48	1791.97
776.66	1804.26
776.84	1632.23
777.01	1656.81
777.19	1628.14
777.37	1722.34
777.54	1800.16
777.72	1746.92
777.90	1767.40
778.07	1605.61
778.25	1906.66
778.43	1814.50
778.60	1673.19
778.78	1763.30
778.96	1779.68
779.13	1763.30
779.31	1787.88
779.49	1687.53
779.66	1728.49
779.84	1673.19
780.01	1767.40
780.19	1638.38
780.37	1816.55
780.54	1755.11
780.72	1683.43
780.90	1667.05
781.07	1732.58
781.25	1671.14
781.43	1779.68
781.60	1720.29
781.78	1742.82
781.95	1708.01
782.13	1699.81
782.31	1675.24
782.48	1621.99
782.66	1787.88
782.83	1796.07
783.01	1699.81
783.19	1718.25
783.36	1615.85
783.54	1599.46
783.72	1748.97
783.89	1722.34
784.07	1683.43
784.24	1615.85
784.42	1794.02
784.60	1703.91
784.77	1773.54
784.95	1624.04
785.12	1695.72
785.30	1650.66
785.47	1650.66
785.65	1685.48
785.83	1701.86
786.00	1751.01
786.18	1685.48
786.35	1621.99
786.53	1669.09
786.71	1800.16
786.88	1673.19
787.06	1703.91
787.23	1656.81
787.41	1650.66
787.58	1718.25
787.76	1632.23
787.94	1689.57
788.11	1824.74
788.29	1685.48
788.46	1724.39
788.64	1628.14
788.81	1726.44
788.99	1675.24
789.16	1679.33
789.34	1687.53
789.52	1685.48
789.69	1652.71
789.87	1568.74
790.04	1665.00
790.22	1720.29
790.39	1845.22
790.57	1695.72
790.74	1669.09
790.92	1669.09
791.09	1634.28
791.27	1708.01
791.44	1755.11
791.62	1730.53
791.79	1832.93
791.97	1687.53
792.15	1886.18
792.32	1751.01
792.50	1734.63
792.67	1744.87
792.85	1781.73
793.02	1673.19
793.20	1632.23
793.37	1648.61
793.55	1669.09
793.72	1632.23
793.90	1732.58
794.07	1714.15
794.25	1705.96
794.42	1734.63
794.60	1705.96
794.77	1800.16
794.95	1740.77
795.12	1791.97
795.30	1726.44
795.47	1716.20
795.65	1880.04
795.82	1794.02
796.00	1628.14
796.17	1705.96
796.34	1644.52
796.52	1652.71
796.69	1675.24
796.87	1755.11
797.04	1791.97
797.22	1714.15
797.39	1677.29
797.57	1687.53
797.74	1705.96
797.92	1794.02
798.09	1632.23
798.27	1718.25
798.44	1669.09
798.62	1642.47
798.79	1746.92
798.96	1687.53
799.14	1767.40
799.31	1912.80
799.49	1718.25
799.66	1665.00
799.84	1714.15
800.01	1667.05
800.19	1701.86
800.36	1644.52
800.53	1775.59
800.71	1828.84
800.88	1755.11
801.06	1646.57
801.23	1652.71
801.41	1703.91
801.58	1710.05
801.75	1683.43
801.93	1669.09
802.10	1730.53
802.28	1732.58
802.45	1675.24
802.63	1787.88
802.80	1800.16
802.97	1699.81
803.15	1703.91
803.32	1697.77
803.50	1677.29
803.67	1615.85
803.84	1601.51
804.02	1699.81
804.19	1699.81
804.37	1525.74
804.54	1701.86
804.71	1687.53
804.89	1648.61
805.06	1683.43
805.24	1628.14
805.41	1601.51
805.58	1656.81
805.76	1761.25
805.93	1710.05
806.10	1851.36
806.28	1689.57
806.45	1761.25
806.63	1720.29
806.80	1767.40
806.97	1759.21
807.15	1710.05
807.32	1716.20
807.49	1730.53
807.67	1667.05
807.84	1701.86
808.01	1601.51
808.19	1841.12
808.36	1800.16
808.54	1665.00
808.71	1718.25
808.88	1744.87
809.06	1761.25
809.23	1791.97
809.40	1650.66
809.58	1728.49
809.75	1609.70
809.92	1597.42
810.10	1853.41
810.27	1722.34
810.44	1683.43
810.62	1791.97
810.79	1761.25
810.96	1710.05
811.14	1644.52
811.31	1730.53
811.48	1751.01
811.66	1681.38
811.83	1740.77
812.00	1775.59
812.18	1703.91
812.35	1824.74
812.52	1697.77
812.69	1689.57
812.87	1724.39
813.04	1691.62
813.21	1665.00
813.39	1791.97
813.56	1675.24
813.73	1789.92
813.91	1650.66
814.08	1775.59
814.25	1724.39
814.42	1632.23
814.60	1789.92
814.77	1712.10
814.94	1740.77
815.12	1718.25
815.29	1773.54
815.46	1722.34
815.63	1740.77
815.81	1654.76
815.98	1701.86
816.15	1761.25
816.33	1748.97
816.50	1697.77
816.67	1748.97
816.84	1687.53
817.02	1658.85
817.19	1755.11
817.36	1748.97
817.53	1687.53
817.71	1671.14
817.88	1824.74
818.05	1640.42
818.22	1689.57
818.40	1816.55
818.57	1691.62
818.74	1787.88
818.91	1730.53
819.09	1736.68
819.26	1759.21
819.43	1687.53
819.60	1624.04
819.78	1738.73
819.95	1751.01
820.12	1662.95
820.29	1728.49
820.47	1779.68
820.64	1656.81
820.81	1671.14
820.98	1673.19
821.15	1708.01
821.33	1757.16
821.50	1652.71
821.67	1697.77
821.84	1705.96
822.02	1734.63
822.19	1767.40
822.36	1787.88
822.53	1669.09
822.70	1648.61
822.88	1691.62
823.05	1763.30
823.22	1716.20
823.39	1730.53
823.56	1693.67
823.74	1890.28
823.91	1640.42
824.08	1656.81
824.25	1634.28
824.42	1796.07
824.60	1591.27
824.77	1798.12
824.94	1646.57
825.11	1650.66
825.28	1642.47
825.45	1730.53
825.63	1689.57
825.80	1607.66
825.97	1730.53
826.14	1673.19
826.31	1662.95
826.48	1828.84
826.66	1617.90
826.83	1654.76
827.00	1693.67
827.17	1673.19
827.34	1726.44
827.51	1624.04
827.69	1621.99
827.86	1695.72
828.03	1734.63
828.20	1691.62
828.37	1685.48
828.54	1734.63
828.71	1693.67
828.89	1841.12
829.06	1718.25
829.23	1800.16
829.40	1685.48
829.57	1742.82
829.74	1705.96
829.91	1677.29
830.09	1619.94
830.26	1718.25
830.43	1892.32
830.60	1611.75
830.77	1757.16
830.94	1714.15
831.11	1685.48
831.28	1738.73
831.46	1796.07
831.63	1624.04
831.80	1808.36
831.97	1722.34
832.14	1705.96
832.31	1757.16
832.48	1712.10
832.65	1708.01
832.82	1693.67
832.99	1740.77
833.17	1654.76
833.34	1722.34
833.51	1812.45
833.68	1585.13
833.85	1794.02
834.02	1644.52
834.19	1615.85
834.36	1650.66
834.53	1708.01
834.70	1789.92
834.87	1718.25
835.04	1673.19
835.22	1675.24
835.39	1656.81
835.56	1593.32
835.73	1740.77
835.90	1753.06
836.07	1665.00
836.24	1789.92
836.41	1624.04
836.58	1605.61
836.75	1779.68
836.92	1744.87
837.09	1718.25
837.26	1773.54
837.43	1736.68
837.60	1808.36
837.77	1716.20
837.94	1767.40
838.12	1740.77
838.29	1751.01
838.46	1677.29
838.63	1607.66
838.80	1783.78
838.97	1755.11
839.14	1763.30
839.31	1808.36
839.48	1779.68
839.65	1589.22
839.82	1658.85
839.99	1726.44
840.16	1638.38
840.33	1740.77
840.50	1728.49
840.67	1679.33
840.84	1640.42
841.01	1699.81
841.18	1585.13
841.35	1714.15
841.52	1716.20
841.69	1794.02
841.86	1689.57
842.03	1728.49
842.20	1779.68
842.37	1734.63
842.54	1705.96
842.71	1734.63
842.88	1656.81
843.05	1699.81
843.22	1685.48
843.39	1722.34
843.56	1697.77
843.73	1761.25
843.90	1722.34
844.07	1732.58
844.24	1654.76
844.41	1734.63
844.58	1708.01
844.75	1634.28
844.92	1757.16
845.09	1654.76
845.26	1650.66
845.43	1718.25
845.60	1628.14
845.77	1787.88
845.94	1716.20
846.10	1738.73
846.27	1703.91
846.44	1644.52
846.61	1710.05
846.78	1665.00
846.95	1689.57
847.12	1763.30
847.29	1648.61
847.46	1644.52
847.63	1779.68
847.80	1675.24
847.97	1599.46
848.14	1791.97
848.31	1648.61
848.48	1638.38
848.65	1783.78
848.82	1648.61
848.98	1849.32
849.15	1785.83
849.32	1806.31
849.49	1802.21
849.66	1656.81
849.83	1675.24
850.00	1665.00
850.17	1730.53
850.34	1660.90
850.51	1712.10
850.68	1648.61
850.85	1837.03
851.01	1697.77
851.18	1679.33
851.35	1689.57
851.52	1701.86
851.69	1718.25
851.86	1593.32
852.03	1621.99
852.20	1730.53
852.37	1769.44
852.53	1648.61
852.70	1765.35
852.87	1648.61
853.04	1718.25
853.21	1697.77
853.38	1722.34
853.55	1738.73
853.72	1810.40
853.89	1626.09
854.05	1617.90
854.22	1679.33
854.39	1773.54
854.56	1736.68
854.73	1794.02
854.90	1728.49
855.07	1742.82
855.23	1691.62
855.40	1703.91
855.57	1722.34
855.74	1556.46
855.91	1853.41
856.08	1644.52
856.25	1617.90
856.41	1714.15
856.58	1699.81
856.75	1771.49
856.92	1615.85
857.09	1794.02
857.26	1695.72
857.42	1751.01
857.59	1740.77
857.76	1634.28
857.93	1753.06
858.10	1687.53
858.27	1583.08
858.43	1751.01
858.60	1681.38
858.77	1652.71
858.94	1685.48
859.11	1683.43
859.27	1681.38
859.44	1650.66
859.61	1744.87
859.78	1705.96
859.95	1660.90
860.12	1628.14
860.28	1757.16
860.45	1832.93
860.62	1660.90
860.79	1748.97
860.95	1697.77
861.12	1669.09
861.29	1736.68
861.46	1634.28
861.63	1628.14
861.79	1744.87
861.96	1703.91
862.13	1660.90
862.30	1769.44
862.47	1658.85
862.63	1667.05
862.80	1755.11
862.97	1779.68
863.14	1699.81
863.30	1732.58
863.47	1755.11
863.64	1859.56
863.81	1773.54
863.97	1748.97
864.14	1724.39
864.31	1699.81
864.48	1726.44
864.65	1683.43
864.81	1746.92
864.98	1787.88
865.15	1761.25
865.32	1720.29
865.48	1765.35
865.65	1779.68
865.82	1697.77
865.98	1708.01
866.15	1810.40
866.32	1726.44
866.49	1761.25
866.65	1677.29
866.82	1621.99
866.99	1701.86
867.16	1615.85
867.32	1638.38
867.49	1693.67
867.66	1656.81
867.83	1634.28
867.99	1566.70
868.16	1656.81
868.33	1650.66
868.49	1634.28
868.66	1632.23
868.83	1779.68
868.99	1681.38
869.16	1660.90
869.33	1751.01
869.50	1751.01
869.66	1722.34
869.83	1708.01
870.00	1619.94
870.16	1667.05
870.33	1646.57
870.50	1798.12
870.66	1705.96
870.83	1820.64
871.00	1716.20
871.17	1734.63
871.33	1730.53
871.50	1710.05
871.67	1742.82
871.83	1558.50
872.00	1744.87
872.17	1685.48
872.33	1710.05
872.50	1753.06
872.67	1677.29
872.83	1626.09
873.00	1712.10
873.17	1757.16
873.33	1814.50
873.50	1693.67
873.67	1710.05
873.83	1669.09
874.00	1634.28
874.16	1708.01
874.33	1742.82
874.50	1640.42
874.66	1787.88
874.83	1683.43
875.00	1761.25
875.16	1693.67
875.33	1802.21
875.50	1529.83
875.66	1646.57
875.83	1691.62
875.99	1689.57
876.16	1726.44
876.33	1597.42
876.49	1675.24
876.66	1689.57
876.83	1681.38
876.99	1587.18
877.16	1699.81
877.32	1648.61
877.49	1597.42
877.66	1689.57
877.82	1777.64
877.99	1779.68
878.15	1748.97
878.32	1710.05
878.49	1714.15
878.65	1683.43
878.82	1812.45
878.98	1654.76
879.15	1769.44
879.32	1744.87
879.48	1718.25
879.65	1718.25
879.81	1652.71
879.98	1697.77
880.15	1607.66
880.31	1779.68
880.48	1667.05
880.64	1714.15
880.81	1761.25
880.97	1761.25
881.14	1808.36
881.31	1703.91
881.47	1828.84
881.64	1742.82
881.80	1644.52
881.97	1794.02
882.13	1777.64
882.30	1568.74
882.47	1673.19
882.63	1644.52
882.80	1691.62
882.96	1654.76
883.13	1757.16
883.29	1765.35
883.46	1759.21
883.62	1851.36
883.79	1660.90
883.95	1748.97
884.12	1695.72
884.29	1763.30
884.45	1787.88
884.62	1773.54
884.78	1646.57
884.95	1802.21
885.11	1681.38
885.28	1730.53
885.44	1660.90
885.61	1710.05
885.77	1861.60
885.94	1773.54
886.10	1644.52
886.27	1693.67
886.43	1763.30
886.60	1753.06
886.76	1624.04
886.93	1708.01
887.09	1753.06
887.26	1609.70
887.42	1685.48
887.59	1808.36
887.75	1816.55
887.92	1787.88
888.08	1785.83
888.25	1779.68
888.41	1699.81
888.58	1681.38
888.74	1648.61
888.91	1646.57
>>>>>End Processed Spectral Data<<<<<
