SpectraSuite Data File
++++++++++++++++++++++++++++++++++++
Date: Wed May 04 18:44:27 CEST 2016
User: root
Dark Spectrum Present: No
Reference Spectrum Present: No
Number of Sampled Component Spectra: 1
Spectrometers: USB4C02835
Integration Time (usec): 100000 (USB4C02835)
Spectra Averaged: 1 (USB4C02835)
Boxcar Smoothing: 0 (USB4C02835)
Correct for Electrical Dark: No (USB4C02835)
Strobe/Lamp Enabled: No (USB4C02835)
Correct for Detector Non-linearity: No (USB4C02835)
Correct for Stray Light: No (USB4C02835)
Number of Pixels in Processed Spectrum: 3648
>>>>>Begin Processed Spectral Data<<<<<
177.47	1460.20
177.69	1460.20
177.91	1460.20
178.13	1488.87
178.36	1476.59
178.58	1673.19
178.80	1679.33
179.02	1718.25
179.24	1726.44
179.46	1726.44
179.68	1783.78
179.90	1654.76
180.13	1734.63
180.35	1638.38
180.57	1746.92
180.79	1722.34
181.01	1712.10
181.23	1781.73
181.45	1804.26
181.67	1718.25
181.90	1718.25
182.12	1705.96
182.34	1710.05
182.56	1748.97
182.78	1697.77
183.00	1705.96
183.22	1724.39
183.44	1484.78
183.66	1900.52
183.89	1808.36
184.11	1689.57
184.33	1710.05
184.55	1763.30
184.77	1683.43
184.99	1736.68
185.21	1734.63
185.43	1851.36
185.65	1667.05
185.87	1736.68
186.10	1810.40
186.32	1832.93
186.54	1730.53
186.76	1728.49
186.98	1767.40
187.20	1755.11
187.42	1646.57
187.64	1699.81
187.86	1718.25
188.08	1789.92
188.30	1636.33
188.52	1765.35
188.75	1720.29
188.97	1724.39
189.19	1703.91
189.41	1697.77
189.63	1777.64
189.85	1687.53
190.07	1619.94
190.29	1574.89
190.51	1710.05
190.73	1687.53
190.95	1775.59
191.17	1621.99
191.39	1658.85
191.61	1685.48
191.84	1662.95
192.06	1699.81
192.28	1538.02
192.50	1931.23
192.72	1720.29
192.94	1605.61
193.16	1714.15
193.38	1751.01
193.60	1607.66
193.82	1634.28
194.04	1822.69
194.26	1730.53
194.48	1744.87
194.70	1673.19
194.92	1675.24
195.14	1755.11
195.36	1665.00
195.58	1724.39
195.80	1691.62
196.02	1624.04
196.24	1634.28
196.46	1769.44
196.69	1695.72
196.91	1822.69
197.13	1628.14
197.35	1642.47
197.57	1871.84
197.79	1751.01
198.01	1765.35
198.23	1724.39
198.45	1718.25
198.67	1644.52
198.89	1673.19
199.11	1654.76
199.33	1763.30
199.55	1683.43
199.77	1714.15
199.99	1808.36
200.21	1695.72
200.43	1742.82
200.65	1652.71
200.87	1589.22
201.09	1732.58
201.31	1595.37
201.53	1773.54
201.75	1763.30
201.97	1710.05
202.19	1724.39
202.41	1710.05
202.63	1943.52
202.85	1710.05
203.07	1724.39
203.29	1722.34
203.51	1634.28
203.73	1679.33
203.95	1781.73
204.17	1714.15
204.39	1689.57
204.61	1656.81
204.83	1695.72
205.05	1726.44
205.27	1859.56
205.49	1787.88
205.71	1687.53
205.93	1677.29
206.15	1652.71
206.37	1701.86
206.59	1687.53
206.81	1689.57
207.03	1642.47
207.25	1642.47
207.47	1742.82
207.69	1691.62
207.91	1748.97
208.13	1882.08
208.34	1667.05
208.56	1689.57
208.78	1736.68
209.00	1718.25
209.22	1714.15
209.44	1748.97
209.66	1691.62
209.88	1697.77
210.10	1677.29
210.32	1667.05
210.54	1824.74
210.76	1712.10
210.98	1751.01
211.20	1615.85
211.42	1705.96
211.64	1828.84
211.86	1697.77
212.08	1755.11
212.30	1675.24
212.52	1765.35
212.74	1724.39
212.96	1675.24
213.17	1841.12
213.39	1701.86
213.61	1865.70
213.83	1753.06
214.05	1742.82
214.27	1746.92
214.49	1679.33
214.71	1624.04
214.93	1734.63
215.15	1740.77
215.37	1771.49
215.59	1603.56
215.81	1703.91
216.03	1843.17
216.24	1724.39
216.46	1710.05
216.68	1683.43
216.90	1791.97
217.12	1755.11
217.34	1722.34
217.56	1746.92
217.78	1812.45
218.00	1773.54
218.22	1740.77
218.44	1738.73
218.66	1703.91
218.87	1806.31
219.09	1691.62
219.31	1785.83
219.53	1701.86
219.75	1665.00
219.97	1701.86
220.19	1642.47
220.41	1740.77
220.63	1699.81
220.85	1714.15
221.06	1638.38
221.28	1757.16
221.50	1812.45
221.72	1587.18
221.94	1677.29
222.16	1660.90
222.38	1736.68
222.60	1777.64
222.82	1710.05
223.03	1697.77
223.25	1685.48
223.47	1755.11
223.69	1837.03
223.91	1665.00
224.13	1720.29
224.35	1611.75
224.57	1798.12
224.78	1740.77
225.00	1644.52
225.22	1638.38
225.44	1734.63
225.66	1671.14
225.88	1685.48
226.10	1722.34
226.32	1708.01
226.53	1841.12
226.75	1669.09
226.97	1701.86
227.19	1757.16
227.41	1701.86
227.63	1705.96
227.85	1646.57
228.06	1652.71
228.28	1697.77
228.50	1769.44
228.72	1626.09
228.94	1640.42
229.16	1667.05
229.37	1669.09
229.59	1722.34
229.81	1685.48
230.03	1730.53
230.25	1632.23
230.47	1736.68
230.69	1599.46
230.90	1714.15
231.12	1683.43
231.34	1689.57
231.56	1763.30
231.78	1583.08
232.00	1671.14
232.21	1757.16
232.43	1634.28
232.65	1550.31
232.87	1771.49
233.09	1644.52
233.30	1849.32
233.52	1773.54
233.74	1710.05
233.96	1691.62
234.18	1714.15
234.40	1640.42
234.61	1828.84
234.83	1681.38
235.05	1669.09
235.27	1820.64
235.49	1810.40
235.70	1675.24
235.92	1779.68
236.14	1724.39
236.36	1800.16
236.58	1599.46
236.79	1681.38
237.01	1767.40
237.23	1708.01
237.45	1769.44
237.67	1687.53
237.88	1652.71
238.10	1871.84
238.32	1703.91
238.54	1730.53
238.76	1640.42
238.97	1673.19
239.19	1634.28
239.41	1724.39
239.63	1798.12
239.85	1718.25
240.06	1710.05
240.28	1566.70
240.50	1720.29
240.72	1732.58
240.93	1662.95
241.15	1843.17
241.37	1705.96
241.59	1847.27
241.81	1724.39
242.02	1701.86
242.24	1656.81
242.46	1787.88
242.68	1701.86
242.89	1812.45
243.11	1767.40
243.33	1708.01
243.55	1761.25
243.76	1781.73
243.98	1705.96
244.20	1722.34
244.42	1753.06
244.64	1748.97
244.85	1617.90
245.07	1691.62
245.29	1806.31
245.51	1601.51
245.72	1775.59
245.94	1802.21
246.16	1720.29
246.38	1767.40
246.59	1693.67
246.81	1708.01
247.03	1662.95
247.24	1695.72
247.46	1720.29
247.68	1699.81
247.90	1677.29
248.11	1640.42
248.33	1753.06
248.55	1693.67
248.77	1746.92
248.98	1837.03
249.20	1779.68
249.42	1705.96
249.64	1751.01
249.85	1789.92
250.07	1746.92
250.29	1683.43
250.50	1748.97
250.72	1738.73
250.94	1759.21
251.16	1814.50
251.37	1773.54
251.59	1736.68
251.81	1724.39
252.02	1746.92
252.24	1738.73
252.46	1769.44
252.68	1632.23
252.89	1697.77
253.11	1640.42
253.33	1791.97
253.54	1810.40
253.76	1574.89
253.98	1722.34
254.20	1675.24
254.41	1652.71
254.63	1665.00
254.85	1646.57
255.06	1681.38
255.28	1746.92
255.50	1673.19
255.71	1701.86
255.93	1630.18
256.15	1724.39
256.36	1722.34
256.58	1683.43
256.80	1695.72
257.02	1662.95
257.23	1714.15
257.45	1742.82
257.67	1712.10
257.88	1712.10
258.10	1732.58
258.32	1761.25
258.53	1765.35
258.75	1773.54
258.97	1589.22
259.18	1576.94
259.40	1689.57
259.62	1730.53
259.83	1763.30
260.05	1714.15
260.27	1984.48
260.48	1738.73
260.70	1650.66
260.92	1718.25
261.13	1761.25
261.35	1738.73
261.57	1691.62
261.78	1673.19
262.00	1714.15
262.22	1673.19
262.43	1716.20
262.65	1724.39
262.86	1777.64
263.08	1767.40
263.30	1652.71
263.51	1572.84
263.73	1677.29
263.95	1787.88
264.16	1585.13
264.38	1703.91
264.60	1765.35
264.81	1658.85
265.03	1832.93
265.25	1691.62
265.46	1677.29
265.68	1757.16
265.89	1722.34
266.11	1636.33
266.33	1765.35
266.54	1763.30
266.76	1763.30
266.98	1834.98
267.19	1746.92
267.41	1757.16
267.62	1732.58
267.84	1689.57
268.06	1697.77
268.27	1681.38
268.49	1763.30
268.70	1738.73
268.92	1640.42
269.14	1572.84
269.35	1587.18
269.57	1691.62
269.79	1806.31
270.00	1669.09
270.22	1837.03
270.43	1679.33
270.65	1597.42
270.87	1769.44
271.08	1748.97
271.30	1757.16
271.51	1665.00
271.73	1701.86
271.95	1785.83
272.16	1708.01
272.38	1726.44
272.59	1624.04
272.81	1685.48
273.02	1681.38
273.24	1736.68
273.46	1746.92
273.67	1650.66
273.89	1595.37
274.10	1669.09
274.32	1781.73
274.54	1783.78
274.75	1740.77
274.97	1679.33
275.18	1742.82
275.40	1759.21
275.61	1722.34
275.83	1697.77
276.05	1683.43
276.26	1716.20
276.48	1726.44
276.69	1683.43
276.91	1636.33
277.12	1789.92
277.34	1753.06
277.55	1732.58
277.77	1677.29
277.99	1685.48
278.20	1656.81
278.42	1642.47
278.63	1599.46
278.85	1685.48
279.06	1665.00
279.28	1718.25
279.49	1761.25
279.71	1800.16
279.93	1708.01
280.14	1724.39
280.36	1697.77
280.57	1708.01
280.79	1767.40
281.00	1656.81
281.22	1621.99
281.43	1779.68
281.65	1615.85
281.86	1671.14
282.08	1806.31
282.29	1783.78
282.51	1601.51
282.73	1673.19
282.94	1607.66
283.16	1777.64
283.37	1791.97
283.59	1763.30
283.80	1738.73
284.02	1769.44
284.23	1748.97
284.45	1718.25
284.66	1648.61
284.88	1726.44
285.09	1708.01
285.31	1796.07
285.52	1740.77
285.74	1656.81
285.95	1744.87
286.17	1748.97
286.38	1730.53
286.60	1685.48
286.81	1697.77
287.03	1712.10
287.24	1730.53
287.46	1736.68
287.67	1718.25
287.89	1814.50
288.10	1714.15
288.32	1773.54
288.53	1826.79
288.75	1718.25
288.96	1693.67
289.18	1687.53
289.39	1714.15
289.61	1796.07
289.82	1847.27
290.04	1837.03
290.25	1591.27
290.47	1716.20
290.68	1697.77
290.90	1804.26
291.11	1638.38
291.33	1783.78
291.54	1581.03
291.76	1714.15
291.97	1689.57
292.18	1722.34
292.40	1720.29
292.61	1665.00
292.83	1818.60
293.04	1716.20
293.26	1751.01
293.47	1662.95
293.69	1726.44
293.90	1685.48
294.12	1808.36
294.33	1693.67
294.55	1675.24
294.76	1771.49
294.97	1816.55
295.19	1873.89
295.40	1619.94
295.62	1746.92
295.83	1816.55
296.05	1742.82
296.26	1716.20
296.48	1708.01
296.69	1734.63
296.90	1619.94
297.12	1800.16
297.33	1804.26
297.55	1705.96
297.76	1691.62
297.98	1740.77
298.19	1755.11
298.41	1785.83
298.62	1648.61
298.83	1808.36
299.05	1755.11
299.26	1634.28
299.48	1701.86
299.69	1742.82
299.90	1695.72
300.12	1589.22
300.33	1746.92
300.55	1736.68
300.76	1718.25
300.98	1681.38
301.19	1748.97
301.40	1716.20
301.62	1763.30
301.83	1765.35
302.05	1708.01
302.26	1685.48
302.47	1724.39
302.69	1648.61
302.90	1748.97
303.12	1607.66
303.33	1665.00
303.54	1894.37
303.76	1738.73
303.97	1708.01
304.19	1863.65
304.40	1679.33
304.61	1798.12
304.83	1818.60
305.04	1691.62
305.26	1654.76
305.47	1587.18
305.68	1695.72
305.90	1656.81
306.11	1789.92
306.33	1697.77
306.54	1615.85
306.75	1679.33
306.97	1544.17
307.18	1628.14
307.39	1679.33
307.61	1771.49
307.82	1716.20
308.04	1691.62
308.25	1660.90
308.46	1736.68
308.68	1638.38
308.89	1748.97
309.10	1824.74
309.32	1738.73
309.53	1687.53
309.74	1693.67
309.96	1701.86
310.17	1751.01
310.39	1650.66
310.60	1728.49
310.81	1671.14
311.03	1656.81
311.24	1705.96
311.45	1734.63
311.67	1804.26
311.88	1701.86
312.09	1714.15
312.31	1685.48
312.52	1677.29
312.73	1744.87
312.95	1609.70
313.16	1644.52
313.37	1800.16
313.59	1685.48
313.80	1814.50
314.01	1828.84
314.23	1746.92
314.44	1681.38
314.65	1667.05
314.87	1671.14
315.08	1636.33
315.29	1697.77
315.51	1673.19
315.72	1619.94
315.93	1787.88
316.15	1753.06
316.36	1679.33
316.57	1726.44
316.79	1798.12
317.00	1667.05
317.21	1773.54
317.43	1730.53
317.64	1742.82
317.85	1632.23
318.07	1669.09
318.28	1757.16
318.49	1882.08
318.70	1988.58
318.92	1912.80
319.13	1935.33
319.34	1941.47
319.56	1849.32
319.77	1808.36
319.98	1849.32
320.20	1849.32
320.41	1699.81
320.62	1789.92
320.83	1703.91
321.05	1875.94
321.26	1689.57
321.47	1677.29
321.69	1673.19
321.90	1673.19
322.11	1796.07
322.32	1718.25
322.54	1810.40
322.75	1667.05
322.96	1898.47
323.18	1589.22
323.39	1638.38
323.60	1660.90
323.81	1789.92
324.03	1705.96
324.24	1720.29
324.45	1769.44
324.66	1681.38
324.88	1775.59
325.09	1810.40
325.30	1695.72
325.52	1716.20
325.73	1724.39
325.94	1687.53
326.15	1665.00
326.37	1685.48
326.58	1712.10
326.79	1808.36
327.00	1738.73
327.22	1732.58
327.43	1644.52
327.64	1652.71
327.85	1681.38
328.07	1736.68
328.28	1841.12
328.49	1658.85
328.70	1708.01
328.92	1673.19
329.13	1675.24
329.34	1771.49
329.55	1869.80
329.76	1826.79
329.98	1658.85
330.19	1705.96
330.40	1726.44
330.61	1763.30
330.83	1804.26
331.04	1656.81
331.25	1728.49
331.46	1687.53
331.68	1660.90
331.89	1751.01
332.10	1617.90
332.31	1669.09
332.52	1742.82
332.74	1767.40
332.95	1665.00
333.16	1703.91
333.37	1665.00
333.58	1705.96
333.80	1714.15
334.01	1601.51
334.22	1679.33
334.43	1617.90
334.64	1718.25
334.86	1644.52
335.07	1632.23
335.28	1767.40
335.49	1644.52
335.70	1779.68
335.92	1746.92
336.13	1777.64
336.34	1759.21
336.55	1722.34
336.76	1757.16
336.98	1619.94
337.19	1798.12
337.40	1791.97
337.61	1812.45
337.82	1699.81
338.04	1736.68
338.25	1593.32
338.46	1638.38
338.67	1656.81
338.88	1640.42
339.09	1738.73
339.31	1714.15
339.52	1648.61
339.73	1613.80
339.94	1781.73
340.15	1796.07
340.36	1658.85
340.58	1703.91
340.79	1617.90
341.00	1812.45
341.21	1701.86
341.42	1828.84
341.63	1673.19
341.85	1726.44
342.06	1744.87
342.27	1650.66
342.48	1736.68
342.69	1656.81
342.90	1693.67
343.12	1675.24
343.33	1685.48
343.54	1738.73
343.75	1814.50
343.96	1701.86
344.17	1646.57
344.38	1681.38
344.60	1624.04
344.81	1718.25
345.02	1708.01
345.23	1712.10
345.44	1853.41
345.65	1759.21
345.86	1722.34
346.07	1705.96
346.29	1746.92
346.50	1736.68
346.71	1738.73
346.92	1789.92
347.13	1824.74
347.34	1701.86
347.55	1703.91
347.76	1802.21
347.98	1601.51
348.19	1712.10
348.40	1855.46
348.61	1724.39
348.82	1806.31
349.03	1757.16
349.24	1677.29
349.45	1845.22
349.66	1624.04
349.88	1648.61
350.09	1681.38
350.30	1716.20
350.51	1789.92
350.72	1777.64
350.93	1726.44
351.14	1746.92
351.35	1722.34
351.56	1716.20
351.77	1703.91
351.99	1798.12
352.20	1761.25
352.41	1769.44
352.62	1660.90
352.83	1714.15
353.04	1775.59
353.25	1652.71
353.46	1701.86
353.67	1785.83
353.88	1656.81
354.09	1789.92
354.30	1748.97
354.52	1734.63
354.73	1710.05
354.94	1738.73
355.15	1712.10
355.36	1742.82
355.57	1687.53
355.78	1669.09
355.99	1689.57
356.20	1648.61
356.41	1726.44
356.62	1794.02
356.83	1703.91
357.04	1892.32
357.25	1652.71
357.46	1714.15
357.68	1605.61
357.89	1642.47
358.10	1734.63
358.31	1738.73
358.52	1708.01
358.73	1660.90
358.94	1630.18
359.15	1640.42
359.36	1861.60
359.57	1699.81
359.78	1673.19
359.99	1718.25
360.20	1677.29
360.41	1820.64
360.62	1738.73
360.83	1681.38
361.04	1783.78
361.25	1705.96
361.46	1888.23
361.67	1740.77
361.88	1828.84
362.09	1718.25
362.30	1738.73
362.51	1585.13
362.72	1632.23
362.93	1699.81
363.14	1843.17
363.35	1689.57
363.56	1677.29
363.78	1810.40
363.99	1892.32
364.20	1699.81
364.41	1732.58
364.62	1787.88
364.83	1714.15
365.04	1738.73
365.25	1634.28
365.46	1785.83
365.67	1654.76
365.88	1746.92
366.09	1734.63
366.30	1718.25
366.51	1703.91
366.72	1665.00
366.93	1677.29
367.14	1675.24
367.35	1753.06
367.56	1738.73
367.77	1808.36
367.98	1662.95
368.18	1761.25
368.39	1804.26
368.60	1624.04
368.81	1775.59
369.02	1757.16
369.23	1763.30
369.44	1613.80
369.65	1708.01
369.86	1699.81
370.07	1755.11
370.28	1689.57
370.49	1761.25
370.70	1718.25
370.91	1671.14
371.12	1703.91
371.33	1736.68
371.54	1693.67
371.75	1814.50
371.96	1611.75
372.17	1767.40
372.38	1759.21
372.59	1728.49
372.80	1679.33
373.01	1730.53
373.22	1751.01
373.43	1654.76
373.64	1697.77
373.85	1726.44
374.06	1886.18
374.26	1761.25
374.47	1771.49
374.68	1812.45
374.89	1789.92
375.10	1701.86
375.31	1834.98
375.52	1742.82
375.73	1724.39
375.94	1714.15
376.15	1834.98
376.36	1615.85
376.57	1665.00
376.78	1765.35
376.99	1748.97
377.20	1777.64
377.40	1714.15
377.61	1808.36
377.82	1656.81
378.03	1765.35
378.24	1677.29
378.45	1714.15
378.66	1644.52
378.87	1638.38
379.08	1679.33
379.29	1718.25
379.50	1757.16
379.71	1665.00
379.91	1767.40
380.12	1710.05
380.33	1779.68
380.54	1742.82
380.75	1736.68
380.96	1665.00
381.17	1779.68
381.38	1697.77
381.59	1654.76
381.80	1701.86
382.00	1902.56
382.21	1877.99
382.42	1794.02
382.63	1877.99
382.84	1681.38
383.05	1783.78
383.26	1810.40
383.47	1796.07
383.68	1761.25
383.88	1742.82
384.09	1763.30
384.30	1742.82
384.51	1761.25
384.72	1732.58
384.93	1621.99
385.14	1730.53
385.35	1806.31
385.55	1710.05
385.76	1695.72
385.97	1726.44
386.18	1679.33
386.39	1705.96
386.60	1652.71
386.81	1753.06
387.02	1802.21
387.22	1626.09
387.43	1777.64
387.64	1820.64
387.85	1945.57
388.06	2267.10
388.27	4636.60
388.48	9162.61
388.68	11859.79
388.89	13387.57
389.10	14096.17
389.31	12033.86
389.52	9623.41
389.73	8619.90
389.93	7813.00
390.14	7305.10
390.35	6588.32
390.56	5910.44
390.77	5044.15
390.98	3837.89
391.18	3047.38
391.39	2324.44
391.60	1990.63
391.81	1861.60
392.02	1789.92
392.23	1900.52
392.43	1714.15
392.64	1818.60
392.85	1724.39
393.06	1804.26
393.27	1714.15
393.47	1701.86
393.68	1712.10
393.89	1691.62
394.10	1882.08
394.31	1607.66
394.52	1683.43
394.72	1691.62
394.93	1773.54
395.14	1744.87
395.35	1732.58
395.56	1669.09
395.76	1736.68
395.97	1828.84
396.18	1937.38
396.39	1964.00
396.60	2047.97
396.80	1939.43
397.01	1888.23
397.22	1832.93
397.43	1914.85
397.64	1732.58
397.84	1861.60
398.05	1976.29
398.26	1763.30
398.47	1875.94
398.67	1757.16
398.88	1683.43
399.09	1710.05
399.30	1669.09
399.51	1830.88
399.71	1640.42
399.92	1708.01
400.13	1691.62
400.34	1691.62
400.54	1751.01
400.75	1834.98
400.96	1732.58
401.17	1812.45
401.37	1812.45
401.58	1718.25
401.79	1738.73
402.00	1779.68
402.21	2107.36
402.41	2117.60
402.62	2154.46
402.83	2181.09
403.04	2105.31
403.24	2093.02
403.45	1832.93
403.66	1986.53
403.87	1996.77
404.07	1923.04
404.28	1925.09
404.49	2009.06
404.70	1781.73
404.90	1775.59
405.11	1785.83
405.32	1771.49
405.52	1699.81
405.73	1697.77
405.94	1724.39
406.15	1734.63
406.35	1779.68
406.56	1755.11
406.77	1785.83
406.98	1757.16
407.18	1722.34
407.39	1751.01
407.60	1626.09
407.80	1746.92
408.01	1671.14
408.22	1710.05
408.43	1695.72
408.63	1767.40
408.84	1744.87
409.05	1738.73
409.25	1652.71
409.46	1738.73
409.67	1671.14
409.88	1738.73
410.08	1728.49
410.29	1738.73
410.50	1708.01
410.70	1689.57
410.91	1767.40
411.12	1701.86
411.32	1757.16
411.53	1710.05
411.74	1863.65
411.95	1773.54
412.15	1830.88
412.36	1820.64
412.57	1738.73
412.77	1828.84
412.98	1755.11
413.19	1734.63
413.39	1806.31
413.60	1767.40
413.81	1777.64
414.01	1636.33
414.22	1742.82
414.43	1841.12
414.63	1722.34
414.84	1761.25
415.05	1689.57
415.25	1673.19
415.46	1757.16
415.67	1703.91
415.87	1761.25
416.08	1640.42
416.29	1726.44
416.49	1751.01
416.70	1724.39
416.91	1722.34
417.11	1730.53
417.32	1716.20
417.53	1755.11
417.73	1773.54
417.94	1652.71
418.15	1701.86
418.35	1708.01
418.56	1697.77
418.77	1873.89
418.97	1755.11
419.18	1724.39
419.38	1599.46
419.59	1658.85
419.80	1814.50
420.00	1646.57
420.21	1796.07
420.42	1734.63
420.62	1742.82
420.83	1621.99
421.04	1705.96
421.24	1730.53
421.45	1730.53
421.65	1736.68
421.86	1640.42
422.07	1736.68
422.27	1722.34
422.48	1708.01
422.69	1710.05
422.89	1808.36
423.10	1755.11
423.30	1607.66
423.51	1728.49
423.72	1771.49
423.92	1781.73
424.13	1697.77
424.33	1755.11
424.54	1683.43
424.75	1771.49
424.95	1767.40
425.16	1685.48
425.36	1751.01
425.57	1785.83
425.78	1806.31
425.98	1757.16
426.19	1644.52
426.39	1671.14
426.60	1800.16
426.81	1755.11
427.01	1732.58
427.22	1779.68
427.42	1621.99
427.63	1718.25
427.83	1785.83
428.04	1781.73
428.25	1769.44
428.45	1742.82
428.66	1798.12
428.86	1730.53
429.07	1746.92
429.28	1695.72
429.48	1644.52
429.69	1714.15
429.89	1724.39
430.10	1693.67
430.30	1695.72
430.51	1822.69
430.71	1621.99
430.92	1685.48
431.13	1796.07
431.33	1804.26
431.54	1742.82
431.74	1841.12
431.95	1820.64
432.15	1646.57
432.36	1769.44
432.56	1802.21
432.77	1789.92
432.98	1808.36
433.18	1736.68
433.39	1724.39
433.59	1632.23
433.80	1849.32
434.00	1794.02
434.21	1652.71
434.41	1642.47
434.62	1875.94
434.82	1658.85
435.03	1662.95
435.23	1662.95
435.44	1589.22
435.64	1691.62
435.85	1712.10
436.06	1738.73
436.26	1791.97
436.47	1689.57
436.67	1648.61
436.88	1701.86
437.08	1785.83
437.29	1734.63
437.49	1726.44
437.70	1789.92
437.90	1708.01
438.11	1855.46
438.31	1841.12
438.52	1843.17
438.72	1914.85
438.93	2017.25
439.13	1830.88
439.34	1845.22
439.54	1841.12
439.75	1802.21
439.95	1812.45
440.16	1685.48
440.36	1820.64
440.57	1832.93
440.77	1779.68
440.98	1738.73
441.18	1720.29
441.39	1699.81
441.59	1751.01
441.80	1802.21
442.00	1726.44
442.21	1779.68
442.41	1632.23
442.62	1755.11
442.82	1652.71
443.02	1738.73
443.23	1748.97
443.43	1822.69
443.64	1800.16
443.84	1724.39
444.05	1806.31
444.25	1761.25
444.46	1730.53
444.66	1777.64
444.87	1822.69
445.07	1677.29
445.28	1732.58
445.48	1880.04
445.69	1781.73
445.89	1882.08
446.09	1777.64
446.30	1990.63
446.50	2627.54
446.71	4063.17
446.91	5199.79
447.12	5699.50
447.32	6057.89
447.53	5318.57
447.73	4519.87
447.93	3991.49
448.14	3602.38
448.34	3475.40
448.55	3223.50
448.75	3069.91
448.96	2932.69
449.16	2627.54
449.36	2492.38
449.57	2209.76
449.77	1837.03
449.98	1783.78
450.18	1810.40
450.39	1718.25
450.59	1785.83
450.79	1748.97
451.00	1685.48
451.20	1775.59
451.41	1667.05
451.61	1779.68
451.81	1701.86
452.02	1773.54
452.22	1781.73
452.43	1744.87
452.63	1705.96
452.84	1708.01
453.04	1691.62
453.24	1755.11
453.45	1720.29
453.65	1724.39
453.86	1800.16
454.06	1812.45
454.26	1736.68
454.47	1613.80
454.67	1806.31
454.87	1701.86
455.08	1769.44
455.28	1824.74
455.49	1806.31
455.69	1677.29
455.89	1812.45
456.10	1732.58
456.30	1730.53
456.51	1777.64
456.71	1708.01
456.91	1814.50
457.12	1751.01
457.32	1677.29
457.52	1726.44
457.73	1798.12
457.93	1771.49
458.14	1785.83
458.34	1667.05
458.54	1800.16
458.75	1685.48
458.95	1824.74
459.15	1726.44
459.36	1781.73
459.56	1771.49
459.76	1855.46
459.97	1695.72
460.17	1738.73
460.37	1822.69
460.58	1708.01
460.78	1761.25
460.99	1665.00
461.19	1648.61
461.39	1687.53
461.60	1710.05
461.80	1804.26
462.00	1636.33
462.21	1714.15
462.41	1699.81
462.61	1662.95
462.82	1626.09
463.02	1667.05
463.22	1689.57
463.43	1748.97
463.63	1695.72
463.83	1822.69
464.04	1769.44
464.24	1667.05
464.44	1708.01
464.64	1789.92
464.85	1765.35
465.05	1857.51
465.25	1744.87
465.46	1638.38
465.66	1753.06
465.86	1748.97
466.07	1724.39
466.27	1718.25
466.47	1691.62
466.68	1603.56
466.88	1818.60
467.08	1738.73
467.29	1785.83
467.49	1771.49
467.69	1665.00
467.89	1832.93
468.10	1710.05
468.30	1685.48
468.50	1830.88
468.71	1785.83
468.91	1708.01
469.11	1800.16
469.31	1759.21
469.52	1636.33
469.72	1779.68
469.92	1947.62
470.13	1720.29
470.33	1718.25
470.53	1773.54
470.73	2222.05
470.94	2533.34
471.14	2688.98
471.34	3008.47
471.54	2904.02
471.75	2594.78
471.95	2392.03
472.15	2189.28
472.36	2236.38
472.56	2213.85
472.76	2166.75
472.96	2082.78
473.17	2050.02
473.37	1988.58
473.57	1812.45
473.77	1882.08
473.98	1771.49
474.18	1712.10
474.38	1877.99
474.58	1695.72
474.79	1669.09
474.99	1738.73
475.19	1714.15
475.39	1687.53
475.60	1820.64
475.80	1718.25
476.00	1763.30
476.20	1708.01
476.41	1775.59
476.61	1708.01
476.81	1857.51
477.01	1671.14
477.21	1796.07
477.42	1746.92
477.62	1718.25
477.82	1783.78
478.02	1742.82
478.23	1691.62
478.43	1689.57
478.63	1644.52
478.83	1722.34
479.03	1736.68
479.24	1857.51
479.44	1851.36
479.64	1667.05
479.84	1609.70
480.04	1710.05
480.25	1804.26
480.45	1730.53
480.65	1660.90
480.85	1781.73
481.06	1693.67
481.26	1730.53
481.46	1658.85
481.66	1759.21
481.86	1722.34
482.06	1769.44
482.27	1718.25
482.47	1769.44
482.67	1777.64
482.87	1714.15
483.07	1751.01
483.28	1773.54
483.48	1697.77
483.68	1705.96
483.88	1697.77
484.08	1615.85
484.29	1665.00
484.49	1742.82
484.69	1691.62
484.89	1753.06
485.09	1865.70
485.29	1761.25
485.50	1734.63
485.70	1662.95
485.90	1732.58
486.10	1734.63
486.30	1802.21
486.50	1837.03
486.71	1761.25
486.91	1781.73
487.11	1796.07
487.31	1724.39
487.51	1710.05
487.71	1669.09
487.91	1728.49
488.12	1613.80
488.32	1665.00
488.52	1759.21
488.72	1595.37
488.92	1767.40
489.12	1751.01
489.32	1826.79
489.53	1794.02
489.73	1583.08
489.93	1740.77
490.13	1748.97
490.33	1562.60
490.53	1642.47
490.73	1828.84
490.94	1636.33
491.14	1730.53
491.34	1767.40
491.54	2095.07
491.74	2740.18
491.94	3254.22
492.14	3334.09
492.34	3563.47
492.54	3131.34
492.75	2734.04
492.95	2621.40
493.15	2418.65
493.35	2338.78
493.55	2297.82
493.75	2144.22
493.95	2254.81
494.15	2191.33
494.35	1947.62
494.56	1933.28
494.76	1859.56
494.96	1751.01
495.16	1769.44
495.36	1791.97
495.56	1722.34
495.76	1673.19
495.96	1722.34
496.16	1730.53
496.36	1875.94
496.56	1732.58
496.77	1691.62
496.97	1671.14
497.17	1769.44
497.37	1718.25
497.57	1796.07
497.77	1730.53
497.97	1697.77
498.17	1755.11
498.37	1697.77
498.57	1734.63
498.77	1685.48
498.97	1746.92
499.17	1871.84
499.38	1728.49
499.58	1798.12
499.78	1746.92
499.98	1845.22
500.18	1710.05
500.38	1718.25
500.58	1908.71
500.78	2453.47
500.98	4552.63
501.18	6778.78
501.38	8226.69
501.58	9049.97
501.78	8742.78
501.98	7026.58
502.18	5791.66
502.38	4954.04
502.58	4523.96
502.78	4138.94
502.98	3946.44
503.18	3778.50
503.38	3530.70
503.59	3082.19
503.79	2908.12
503.99	2652.12
504.19	2338.78
504.39	2324.44
504.59	2336.73
504.79	2336.73
504.99	2287.58
505.19	2107.36
505.39	2004.96
505.59	2058.21
505.79	1916.90
505.99	1970.15
506.19	1861.60
506.39	1904.61
506.59	1843.17
506.79	1691.62
506.99	1884.13
507.19	1757.16
507.39	1810.40
507.59	1665.00
507.79	1708.01
507.99	1787.88
508.19	1718.25
508.39	1697.77
508.59	1662.95
508.79	1882.08
508.99	1843.17
509.19	1748.97
509.39	1740.77
509.59	1699.81
509.79	1740.77
509.99	1691.62
510.19	1814.50
510.39	1806.31
510.59	1718.25
510.79	1701.86
510.99	1665.00
511.19	1726.44
511.39	1845.22
511.59	1814.50
511.79	1837.03
511.99	1665.00
512.19	1898.47
512.38	1779.68
512.58	1734.63
512.78	1705.96
512.98	1787.88
513.18	1818.60
513.38	1601.51
513.58	1789.92
513.78	1716.20
513.98	1697.77
514.18	1699.81
514.38	1751.01
514.58	1722.34
514.78	1689.57
514.98	1638.38
515.18	1687.53
515.38	1650.66
515.58	1871.84
515.78	1767.40
515.98	1806.31
516.18	1720.29
516.38	1642.47
516.57	1718.25
516.77	1718.25
516.97	1834.98
517.17	1746.92
517.37	1667.05
517.57	1773.54
517.77	1685.48
517.97	1689.57
518.17	1808.36
518.37	1683.43
518.57	1646.57
518.77	1669.09
518.97	1732.58
519.16	1744.87
519.36	1781.73
519.56	1730.53
519.76	1714.15
519.96	1708.01
520.16	1791.97
520.36	1789.92
520.56	1769.44
520.76	1722.34
520.96	1652.71
521.16	1736.68
521.35	1759.21
521.55	1888.23
521.75	1718.25
521.95	1710.05
522.15	1695.72
522.35	1644.52
522.55	1644.52
522.75	1816.55
522.95	1708.01
523.14	1683.43
523.34	1697.77
523.54	1777.64
523.74	1738.73
523.94	1742.82
524.14	1697.77
524.34	1746.92
524.54	1814.50
524.73	1738.73
524.93	1712.10
525.13	1714.15
525.33	1693.67
525.53	1847.27
525.73	1824.74
525.93	1783.78
526.13	1693.67
526.32	1630.18
526.52	1812.45
526.72	1843.17
526.92	1753.06
527.12	1761.25
527.32	1665.00
527.52	1734.63
527.71	1820.64
527.91	1757.16
528.11	1712.10
528.31	1728.49
528.51	1753.06
528.71	1822.69
528.90	1746.92
529.10	1761.25
529.30	1873.89
529.50	1654.76
529.70	1767.40
529.90	1687.53
530.09	1746.92
530.29	1638.38
530.49	1722.34
530.69	1869.80
530.89	1724.39
531.09	1855.46
531.28	1759.21
531.48	1855.46
531.68	1771.49
531.88	1744.87
532.08	1818.60
532.28	1791.97
532.47	1769.44
532.67	1902.56
532.87	1800.16
533.07	1732.58
533.27	1841.12
533.46	1738.73
533.66	1779.68
533.86	1751.01
534.06	1802.21
534.26	1847.27
534.45	1705.96
534.65	1814.50
534.85	1755.11
535.05	1681.38
535.25	1783.78
535.44	1675.24
535.64	1751.01
535.84	1724.39
536.04	1726.44
536.24	1738.73
536.43	1687.53
536.63	1738.73
536.83	1789.92
537.03	1830.88
537.22	1681.38
537.42	1644.52
537.62	1748.97
537.82	1669.09
538.02	1839.08
538.21	1810.40
538.41	1873.89
538.61	1779.68
538.81	1669.09
539.00	1865.70
539.20	1685.48
539.40	1732.58
539.60	1736.68
539.79	1736.68
539.99	1667.05
540.19	1634.28
540.39	1697.77
540.58	1773.54
540.78	1818.60
540.98	1763.30
541.18	1693.67
541.37	1837.03
541.57	1767.40
541.77	1744.87
541.97	1755.11
542.16	1656.81
542.36	1708.01
542.56	1839.08
542.76	1976.29
542.95	1798.12
543.15	1802.21
543.35	1808.36
543.54	1726.44
543.74	1703.91
543.94	1794.02
544.14	1705.96
544.33	1800.16
544.53	1701.86
544.73	1718.25
544.93	1779.68
545.12	1789.92
545.32	1701.86
545.52	1738.73
545.71	1763.30
545.91	1714.15
546.11	1748.97
546.30	1708.01
546.50	1701.86
546.70	1777.64
546.90	1839.08
547.09	1630.18
547.29	1654.76
547.49	1810.40
547.68	1769.44
547.88	1720.29
548.08	1779.68
548.27	2248.67
548.47	1753.06
548.67	1736.68
548.87	1837.03
549.06	1681.38
549.26	1714.15
549.46	1753.06
549.65	1726.44
549.85	1800.16
550.05	1796.07
550.24	1632.23
550.44	1736.68
550.64	1738.73
550.83	1773.54
551.03	1759.21
551.23	1759.21
551.42	1714.15
551.62	1701.86
551.82	1714.15
552.01	1634.28
552.21	1808.36
552.41	1771.49
552.60	1796.07
552.80	1759.21
553.00	1652.71
553.19	1742.82
553.39	1814.50
553.59	1621.99
553.78	1761.25
553.98	1746.92
554.17	1591.27
554.37	1714.15
554.57	1832.93
554.76	1691.62
554.96	1673.19
555.16	1763.30
555.35	1658.85
555.55	1798.12
555.75	1683.43
555.94	1812.45
556.14	1675.24
556.33	1783.78
556.53	1755.11
556.73	1681.38
556.92	1781.73
557.12	1859.56
557.32	1892.32
557.51	1834.98
557.71	1744.87
557.90	1816.55
558.10	1816.55
558.30	1705.96
558.49	1687.53
558.69	1748.97
558.88	1816.55
559.08	1798.12
559.28	1748.97
559.47	1787.88
559.67	1771.49
559.86	1875.94
560.06	1701.86
560.26	1734.63
560.45	1759.21
560.65	1732.58
560.84	1742.82
561.04	1714.15
561.24	1834.98
561.43	1693.67
561.63	1894.37
561.82	1722.34
562.02	1820.64
562.22	1687.53
562.41	1791.97
562.61	1757.16
562.80	1753.06
563.00	1918.95
563.19	1841.12
563.39	1705.96
563.59	1697.77
563.78	1708.01
563.98	1634.28
564.17	1705.96
564.37	1658.85
564.56	1748.97
564.76	1648.61
564.96	1849.32
565.15	1771.49
565.35	1857.51
565.54	1669.09
565.74	1834.98
565.93	1693.67
566.13	1720.29
566.32	1791.97
566.52	1718.25
566.71	1714.15
566.91	1767.40
567.11	1800.16
567.30	1697.77
567.50	1771.49
567.69	1787.88
567.89	1769.44
568.08	1677.29
568.28	1853.41
568.47	1638.38
568.67	1755.11
568.86	1695.72
569.06	1839.08
569.25	1716.20
569.45	1798.12
569.64	1677.29
569.84	1755.11
570.04	1857.51
570.23	1755.11
570.43	1691.62
570.62	1753.06
570.82	1820.64
571.01	1660.90
571.21	1740.77
571.40	1677.29
571.60	1808.36
571.79	1748.97
571.99	1798.12
572.18	1695.72
572.38	1742.82
572.57	1718.25
572.77	1742.82
572.96	1923.04
573.16	1785.83
573.35	1708.01
573.55	1884.13
573.74	1806.31
573.94	1722.34
574.13	1748.97
574.33	1791.97
574.52	1830.88
574.71	1791.97
574.91	1708.01
575.10	1660.90
575.30	1748.97
575.49	1751.01
575.69	1732.58
575.88	1757.16
576.08	1800.16
576.27	1820.64
576.47	1767.40
576.66	1896.42
576.86	1849.32
577.05	1826.79
577.25	1871.84
577.44	1804.26
577.64	1712.10
577.83	1773.54
578.02	1753.06
578.22	1839.08
578.41	1880.04
578.61	1691.62
578.80	1689.57
579.00	1783.78
579.19	1734.63
579.39	1869.80
579.58	1746.92
579.77	1697.77
579.97	1894.37
580.16	1804.26
580.36	1796.07
580.55	1902.56
580.75	1753.06
580.94	1785.83
581.13	1843.17
581.33	1859.56
581.52	1841.12
581.72	1880.04
581.91	1890.28
582.11	1785.83
582.30	1791.97
582.49	1798.12
582.69	1841.12
582.88	1816.55
583.08	1902.56
583.27	1900.52
583.47	1820.64
583.66	1656.81
583.85	1738.73
584.05	1732.58
584.24	1816.55
584.44	1841.12
584.63	1855.46
584.82	1867.75
585.02	1828.84
585.21	1953.76
585.41	1927.14
585.60	1802.21
585.79	1978.34
585.99	1990.63
586.18	1951.71
586.37	2226.14
586.57	3379.15
586.76	9981.80
586.96	27065.96
587.15	41987.46
587.34	51891.43
587.54	57875.60
587.73	56147.11
587.93	40002.97
588.12	29650.49
588.31	23934.61
588.51	20700.87
588.70	18415.34
588.89	17067.77
589.09	15490.84
589.28	13758.25
589.47	11411.28
589.67	9162.61
589.86	7335.82
590.06	5570.48
590.25	4155.33
590.44	3280.85
590.64	2719.70
590.83	2306.01
591.02	2101.22
591.22	2000.87
591.41	1892.32
591.60	1775.59
591.80	2002.91
591.99	1748.97
592.18	1798.12
592.38	1775.59
592.57	1802.21
592.76	1814.50
592.96	1818.60
593.15	1880.04
593.34	1865.70
593.54	1708.01
593.73	1787.88
593.92	1755.11
594.12	1869.80
594.31	1783.78
594.50	1914.85
594.70	1755.11
594.89	1900.52
595.08	1701.86
595.28	1859.56
595.47	1980.39
595.66	1869.80
595.86	1767.40
596.05	1808.36
596.24	1757.16
596.43	1877.99
596.63	1871.84
596.82	1728.49
597.01	1810.40
597.21	1863.65
597.40	1791.97
597.59	1800.16
597.79	1757.16
597.98	1837.03
598.17	1746.92
598.36	1740.77
598.56	1748.97
598.75	1687.53
598.94	1714.15
599.14	1804.26
599.33	1722.34
599.52	1822.69
599.71	1761.25
599.91	1839.08
600.10	1830.88
600.29	1818.60
600.48	1800.16
600.68	1802.21
600.87	1767.40
601.06	1722.34
601.26	1675.24
601.45	1724.39
601.64	1769.44
601.83	1830.88
602.03	1759.21
602.22	1679.33
602.41	1806.31
602.60	1857.51
602.80	1877.99
602.99	1753.06
603.18	1693.67
603.37	1705.96
603.57	1800.16
603.76	1808.36
603.95	1691.62
604.14	1720.29
604.34	1656.81
604.53	1691.62
604.72	1761.25
604.91	1812.45
605.10	1814.50
605.30	1746.92
605.49	1918.95
605.68	1781.73
605.87	1787.88
606.07	1722.34
606.26	1757.16
606.45	1820.64
606.64	1789.92
606.84	1804.26
607.03	1699.81
607.22	1818.60
607.41	1810.40
607.60	1798.12
607.80	1861.60
607.99	1755.11
608.18	1791.97
608.37	1791.97
608.56	1759.21
608.76	1847.27
608.95	1865.70
609.14	1832.93
609.33	1847.27
609.52	1884.13
609.72	1904.61
609.91	1824.74
610.10	1767.40
610.29	1779.68
610.48	1789.92
610.68	1789.92
610.87	1791.97
611.06	1847.27
611.25	1722.34
611.44	1732.58
611.63	1687.53
611.83	1855.46
612.02	1697.77
612.21	1796.07
612.40	1652.71
612.59	1685.48
612.79	1628.14
612.98	1673.19
613.17	1843.17
613.36	1714.15
613.55	1808.36
613.74	1771.49
613.93	1859.56
614.13	1959.91
614.32	1931.23
614.51	1982.43
614.70	1875.94
614.89	1806.31
615.08	1902.56
615.28	2101.22
615.47	1767.40
615.66	1759.21
615.85	1882.08
616.04	1896.42
616.23	1877.99
616.42	1861.60
616.62	1834.98
616.81	1810.40
617.00	1763.30
617.19	1808.36
617.38	1640.42
617.57	1824.74
617.76	1757.16
617.95	1800.16
618.15	1759.21
618.34	1875.94
618.53	1712.10
618.72	1855.46
618.91	1767.40
619.10	1826.79
619.29	1732.58
619.48	1710.05
619.68	1724.39
619.87	1705.96
620.06	1683.43
620.25	1757.16
620.44	1751.01
620.63	1736.68
620.82	1691.62
621.01	1746.92
621.20	1765.35
621.39	1689.57
621.59	1785.83
621.78	1755.11
621.97	1798.12
622.16	1728.49
622.35	1804.26
622.54	1796.07
622.73	1804.26
622.92	1619.94
623.11	1802.21
623.30	1677.29
623.49	1759.21
623.68	1667.05
623.88	1828.84
624.07	1669.09
624.26	1691.62
624.45	1738.73
624.64	1703.91
624.83	1779.68
625.02	1718.25
625.21	1724.39
625.40	1775.59
625.59	1816.55
625.78	1693.67
625.97	1849.32
626.16	1882.08
626.35	1820.64
626.54	1865.70
626.74	1896.42
626.93	1794.02
627.12	1794.02
627.31	1765.35
627.50	1775.59
627.69	1808.36
627.88	1732.58
628.07	1730.53
628.26	1751.01
628.45	1675.24
628.64	1757.16
628.83	1738.73
629.02	1705.96
629.21	1724.39
629.40	1763.30
629.59	1734.63
629.78	1656.81
629.97	1761.25
630.16	1765.35
630.35	1771.49
630.54	1730.53
630.73	1732.58
630.92	1691.62
631.11	1746.92
631.30	1806.31
631.49	1708.01
631.68	1705.96
631.87	1789.92
632.06	1753.06
632.25	1814.50
632.44	1763.30
632.63	1789.92
632.82	1841.12
633.01	1751.01
633.20	1816.55
633.39	1826.79
633.58	1769.44
633.77	1812.45
633.96	1800.16
634.15	1804.26
634.34	1816.55
634.53	1746.92
634.72	1718.25
634.91	1581.03
635.10	1759.21
635.29	1767.40
635.48	1822.69
635.67	1720.29
635.86	1708.01
636.05	1873.89
636.24	1757.16
636.43	1699.81
636.62	1740.77
636.81	1583.08
637.00	1714.15
637.19	1740.77
637.38	1673.19
637.57	1708.01
637.76	1757.16
637.95	1839.08
638.14	1804.26
638.33	1800.16
638.52	1863.65
638.71	1691.62
638.89	1751.01
639.08	1884.13
639.27	1789.92
639.46	1970.15
639.65	2179.04
639.84	2232.29
640.03	2385.88
640.22	2416.60
640.41	2406.36
640.60	2019.30
640.79	1996.77
640.98	1886.18
641.17	1955.81
641.36	1923.04
641.55	1947.62
641.74	1773.54
641.92	1812.45
642.11	1710.05
642.30	1785.83
642.49	1699.81
642.68	1685.48
642.87	1759.21
643.06	1798.12
643.25	1705.96
643.44	1736.68
643.63	1755.11
643.82	1755.11
644.00	1648.61
644.19	1738.73
644.38	1787.88
644.57	1757.16
644.76	1667.05
644.95	1726.44
645.14	1726.44
645.33	1697.77
645.52	1775.59
645.71	1703.91
645.89	1656.81
646.08	1779.68
646.27	1695.72
646.46	1818.60
646.65	1630.18
646.84	1755.11
647.03	1710.05
647.22	1771.49
647.40	1742.82
647.59	1714.15
647.78	1546.22
647.97	1689.57
648.16	1695.72
648.35	1765.35
648.54	1810.40
648.73	1712.10
648.91	1794.02
649.10	1730.53
649.29	1738.73
649.48	1705.96
649.67	1753.06
649.86	1738.73
650.05	1839.08
650.23	1888.23
650.42	1755.11
650.61	1900.52
650.80	1884.13
650.99	2017.25
651.18	1847.27
651.36	1761.25
651.55	1656.81
651.74	1804.26
651.93	1667.05
652.12	1685.48
652.31	1691.62
652.49	1759.21
652.68	1693.67
652.87	1824.74
653.06	1759.21
653.25	1814.50
653.44	1812.45
653.62	1871.84
653.81	1722.34
654.00	1730.53
654.19	1791.97
654.38	1832.93
654.56	1791.97
654.75	1732.58
654.94	1785.83
655.13	1712.10
655.32	1779.68
655.51	1763.30
655.69	1691.62
655.88	1765.35
656.07	1652.71
656.26	1800.16
656.45	1619.94
656.63	1720.29
656.82	1742.82
657.01	1757.16
657.20	1691.62
657.38	1828.84
657.57	1669.09
657.76	1673.19
657.95	1800.16
658.14	1691.62
658.32	1808.36
658.51	1646.57
658.70	1746.92
658.89	1800.16
659.08	1736.68
659.26	1834.98
659.45	1710.05
659.64	1816.55
659.83	1742.82
660.01	2033.63
660.20	1742.82
660.39	1841.12
660.58	1619.94
660.76	1783.78
660.95	1632.23
661.14	1720.29
661.33	1691.62
661.51	1732.58
661.70	1669.09
661.89	1681.38
662.08	1742.82
662.26	1630.18
662.45	1689.57
662.64	1789.92
662.83	1777.64
663.01	1658.85
663.20	1705.96
663.39	1843.17
663.58	1808.36
663.76	1787.88
663.95	1837.03
664.14	1683.43
664.32	1648.61
664.51	1685.48
664.70	1671.14
664.89	1738.73
665.07	1656.81
665.26	1771.49
665.45	1648.61
665.64	1732.58
665.82	1769.44
666.01	1863.65
666.20	1648.61
666.38	1777.64
666.57	1828.84
666.76	2248.67
666.95	4640.70
667.13	11575.12
667.32	18458.34
667.51	22279.85
667.69	25202.30
667.88	25288.32
668.07	19773.14
668.25	14329.64
668.44	11700.05
668.63	9795.43
668.81	8580.99
669.00	7698.31
669.19	7014.29
669.38	5978.02
669.56	5463.98
669.75	4444.09
669.94	3798.98
670.12	3088.34
670.31	2676.70
670.50	2381.79
670.68	2086.88
670.87	1935.33
671.06	1822.69
671.24	1869.80
671.43	1873.89
671.62	1798.12
671.80	1818.60
671.99	1806.31
672.18	1728.49
672.36	1798.12
672.55	1722.34
672.74	1724.39
672.92	1679.33
673.11	1689.57
673.29	1660.90
673.48	1820.64
673.67	1683.43
673.85	1777.64
674.04	1705.96
674.23	1802.21
674.41	1841.12
674.60	1644.52
674.79	1578.98
674.97	1681.38
675.16	1787.88
675.34	1757.16
675.53	1679.33
675.72	1744.87
675.90	1800.16
676.09	1660.90
676.28	1720.29
676.46	1624.04
676.65	1703.91
676.83	1783.78
677.02	1722.34
677.21	1724.39
677.39	1708.01
677.58	1652.71
677.77	1648.61
677.95	1660.90
678.14	1679.33
678.32	1726.44
678.51	1597.42
678.70	1859.56
678.88	1740.77
679.07	1744.87
679.25	1683.43
679.44	1701.86
679.63	1611.75
679.81	1771.49
680.00	1769.44
680.18	1757.16
680.37	1779.68
680.55	1759.21
680.74	1581.03
680.93	1636.33
681.11	1705.96
681.30	1720.29
681.48	1742.82
681.67	1667.05
681.85	1728.49
682.04	1669.09
682.23	1757.16
682.41	1736.68
682.60	1587.18
682.78	1722.34
682.97	1640.42
683.15	1787.88
683.34	1683.43
683.53	1710.05
683.71	1667.05
683.90	1822.69
684.08	1779.68
684.27	1665.00
684.45	1775.59
684.64	1787.88
684.82	1703.91
685.01	1726.44
685.19	1775.59
685.38	1732.58
685.57	1789.92
685.75	1699.81
685.94	1718.25
686.12	1650.66
686.31	1665.00
686.49	1791.97
686.68	1673.19
686.86	1771.49
687.05	1697.77
687.23	1767.40
687.42	1669.09
687.60	1617.90
687.79	1810.40
687.97	1798.12
688.16	1753.06
688.34	1810.40
688.53	1632.23
688.71	1662.95
688.90	1759.21
689.08	1699.81
689.27	1730.53
689.45	1781.73
689.64	1755.11
689.82	1746.92
690.01	1705.96
690.19	1699.81
690.38	1742.82
690.56	1785.83
690.75	1648.61
690.93	1662.95
691.12	1648.61
691.30	1724.39
691.49	1658.85
691.67	1765.35
691.86	1871.84
692.04	1783.78
692.23	1765.35
692.41	1787.88
692.60	1906.66
692.78	1822.69
692.97	1740.77
693.15	1779.68
693.34	1849.32
693.52	1853.41
693.71	1779.68
693.89	1701.86
694.08	1601.51
694.26	1763.30
694.44	1744.87
694.63	1779.68
694.81	1693.67
695.00	1712.10
695.18	1820.64
695.37	1898.47
695.55	1724.39
695.74	1736.68
695.92	1634.28
696.10	1791.97
696.29	1626.09
696.47	1648.61
696.66	1613.80
696.84	1593.32
697.03	1751.01
697.21	1816.55
697.40	2281.44
697.58	1794.02
697.76	1716.20
697.95	1630.18
698.13	1744.87
698.32	1677.29
698.50	1804.26
698.68	1726.44
698.87	1722.34
699.05	1753.06
699.24	1763.30
699.42	1662.95
699.61	1693.67
699.79	1730.53
699.97	1685.48
700.16	1722.34
700.34	1650.66
700.53	1738.73
700.71	1837.03
700.89	1820.64
701.08	1705.96
701.26	1689.57
701.45	2093.02
701.63	1710.05
701.81	1726.44
702.00	1708.01
702.18	1751.01
702.37	1765.35
702.55	1910.75
702.73	1884.13
702.92	1824.74
703.10	2021.35
703.28	1966.05
703.47	1843.17
703.65	1927.14
703.84	1828.84
704.02	1761.25
704.20	1900.52
704.39	1828.84
704.57	1853.41
704.75	1861.60
704.94	1740.77
705.12	1726.44
705.30	1839.08
705.49	2500.57
705.67	5564.33
705.86	13231.93
706.04	19310.30
706.22	22488.74
706.41	24999.55
706.59	24821.38
706.77	19140.32
706.96	14094.12
707.14	11980.62
707.32	10200.93
707.51	8976.25
707.69	7651.21
707.87	6758.30
708.06	5625.77
708.24	4448.19
708.42	3403.72
708.61	2805.72
708.79	2213.85
708.97	2033.63
709.16	1943.52
709.34	1906.66
709.52	1765.35
709.71	1751.01
709.89	1828.84
710.07	1658.85
710.26	1708.01
710.44	1751.01
710.62	1791.97
710.80	1669.09
710.99	1841.12
711.17	1753.06
711.35	1748.97
711.54	1720.29
711.72	1796.07
711.90	1671.14
712.09	1757.16
712.27	1748.97
712.45	1767.40
712.63	1734.63
712.82	1722.34
713.00	1724.39
713.18	1751.01
713.37	1781.73
713.55	1712.10
713.73	1732.58
713.91	1783.78
714.10	1662.95
714.28	1693.67
714.46	1753.06
714.65	1779.68
714.83	1775.59
715.01	1718.25
715.19	1689.57
715.38	1611.75
715.56	1712.10
715.74	1632.23
715.92	1708.01
716.11	1767.40
716.29	1576.94
716.47	1763.30
716.65	1757.16
716.84	1591.27
717.02	1783.78
717.20	1662.95
717.38	1708.01
717.57	1773.54
717.75	1730.53
717.93	1638.38
718.11	1734.63
718.30	1638.38
718.48	1714.15
718.66	1771.49
718.84	1748.97
719.03	1753.06
719.21	1648.61
719.39	1820.64
719.57	1742.82
719.75	1806.31
719.94	1669.09
720.12	1693.67
720.30	1724.39
720.48	1800.16
720.67	1726.44
720.85	1740.77
721.03	1693.67
721.21	1695.72
721.39	1746.92
721.58	1742.82
721.76	1673.19
721.94	1755.11
722.12	1705.96
722.30	1751.01
722.49	1730.53
722.67	1761.25
722.85	1818.60
723.03	1660.90
723.21	1617.90
723.40	1671.14
723.58	1787.88
723.76	1802.21
723.94	1810.40
724.12	1775.59
724.30	1910.75
724.49	1806.31
724.67	1710.05
724.85	1810.40
725.03	1665.00
725.21	1789.92
725.40	1820.64
725.58	1669.09
725.76	1824.74
725.94	1728.49
726.12	1617.90
726.30	1755.11
726.49	1816.55
726.67	1699.81
726.85	1791.97
727.03	1837.03
727.21	2310.11
727.39	3456.97
727.57	4974.52
727.76	5693.35
727.94	6080.42
728.12	6299.55
728.30	5687.21
728.48	4548.54
728.66	4001.73
728.84	3667.91
729.03	3211.22
729.21	2832.34
729.39	2475.99
729.57	2125.79
729.75	1961.95
729.93	1918.95
730.11	1744.87
730.30	1738.73
730.48	1691.62
730.66	1824.74
730.84	1783.78
731.02	1755.11
731.20	1695.72
731.38	1626.09
731.56	1673.19
731.74	1712.10
731.93	1781.73
732.11	1722.34
732.29	1675.24
732.47	1783.78
732.65	1718.25
732.83	1728.49
733.01	1671.14
733.19	1669.09
733.37	1740.77
733.56	1693.67
733.74	1638.38
733.92	1796.07
734.10	1673.19
734.28	1722.34
734.46	1578.98
734.64	1740.77
734.82	1669.09
735.00	1710.05
735.18	1724.39
735.36	1683.43
735.54	1710.05
735.73	1781.73
735.91	1740.77
736.09	1771.49
736.27	1687.53
736.45	1761.25
736.63	1679.33
736.81	1665.00
736.99	1701.86
737.17	1818.60
737.35	1636.33
737.53	1724.39
737.71	1701.86
737.89	1761.25
738.07	1685.48
738.25	1667.05
738.43	1576.94
738.61	1705.96
738.80	1755.11
738.98	1660.90
739.16	1671.14
739.34	1665.00
739.52	1798.12
739.70	1671.14
739.88	1740.77
740.06	1699.81
740.24	1660.90
740.42	1849.32
740.60	1574.89
740.78	1675.24
740.96	1550.31
741.14	1681.38
741.32	1730.53
741.50	1617.90
741.68	1845.22
741.86	1810.40
742.04	1613.80
742.22	1665.00
742.40	1685.48
742.58	1779.68
742.76	1703.91
742.94	1714.15
743.12	1615.85
743.30	1757.16
743.48	1720.29
743.66	1705.96
743.84	1728.49
744.02	1769.44
744.20	1726.44
744.38	1677.29
744.56	1654.76
744.74	1763.30
744.92	1619.94
745.10	1873.89
745.28	1738.73
745.46	1839.08
745.64	1720.29
745.82	1787.88
746.00	1718.25
746.18	1785.83
746.36	1677.29
746.54	1658.85
746.72	1734.63
746.90	1599.46
747.08	1777.64
747.26	1654.76
747.44	1822.69
747.62	1669.09
747.80	1761.25
747.98	1789.92
748.15	1726.44
748.33	1789.92
748.51	1759.21
748.69	1726.44
748.87	1683.43
749.05	1714.15
749.23	1679.33
749.41	1652.71
749.59	1751.01
749.77	1744.87
749.95	1587.18
750.13	1673.19
750.31	1665.00
750.49	1687.53
750.67	1791.97
750.85	1781.73
751.03	1761.25
751.20	1849.32
751.38	1712.10
751.56	1681.38
751.74	1603.56
751.92	1726.44
752.10	1712.10
752.28	1787.88
752.46	1638.38
752.64	1689.57
752.82	1759.21
753.00	1751.01
753.18	1701.86
753.35	1697.77
753.53	1708.01
753.71	1732.58
753.89	1763.30
754.07	1742.82
754.25	1701.86
754.43	1771.49
754.61	1669.09
754.79	1679.33
754.97	1716.20
755.14	1800.16
755.32	1695.72
755.50	1677.29
755.68	1712.10
755.86	1654.76
756.04	1681.38
756.22	1591.27
756.40	1767.40
756.57	1859.56
756.75	1703.91
756.93	1773.54
757.11	1808.36
757.29	1736.68
757.47	1798.12
757.65	1548.26
757.82	1626.09
758.00	1636.33
758.18	1691.62
758.36	1613.80
758.54	1808.36
758.72	1689.57
758.90	1820.64
759.07	1724.39
759.25	1689.57
759.43	1775.59
759.61	1603.56
759.79	2181.09
759.97	1767.40
760.15	1710.05
760.32	1705.96
760.50	1685.48
760.68	1771.49
760.86	1689.57
761.04	1781.73
761.22	1744.87
761.39	1742.82
761.57	1773.54
761.75	1675.24
761.93	1734.63
762.11	1732.58
762.28	1685.48
762.46	1667.05
762.64	1734.63
762.82	1628.14
763.00	1714.15
763.18	1755.11
763.35	1628.14
763.53	1740.77
763.71	1716.20
763.89	1718.25
764.07	1732.58
764.24	1697.77
764.42	1738.73
764.60	1724.39
764.78	1660.90
764.96	1804.26
765.13	1767.40
765.31	1779.68
765.49	1808.36
765.67	1611.75
765.84	1677.29
766.02	1632.23
766.20	1642.47
766.38	1728.49
766.56	1771.49
766.73	1751.01
766.91	1624.04
767.09	1701.86
767.27	1769.44
767.44	1650.66
767.62	1699.81
767.80	1716.20
767.98	1660.90
768.15	1732.58
768.33	1677.29
768.51	1740.77
768.69	1759.21
768.87	1748.97
769.04	1767.40
769.22	1730.53
769.40	1742.82
769.58	1787.88
769.75	1734.63
769.93	1828.84
770.11	1701.86
770.28	1681.38
770.46	1775.59
770.64	1777.64
770.82	1648.61
770.99	1718.25
771.17	1718.25
771.35	1662.95
771.53	1722.34
771.70	1732.58
771.88	1837.03
772.06	1660.90
772.23	1746.92
772.41	1765.35
772.59	1689.57
772.77	1603.56
772.94	1587.18
773.12	1726.44
773.30	1710.05
773.47	1714.15
773.65	1701.86
773.83	1832.93
774.01	1677.29
774.18	1576.94
774.36	1726.44
774.54	1632.23
774.71	1714.15
774.89	1667.05
775.07	1677.29
775.24	1779.68
775.42	1638.38
775.60	1832.93
775.78	1660.90
775.95	1685.48
776.13	1578.98
776.31	1558.50
776.48	1669.09
776.66	1843.17
776.84	1685.48
777.01	1644.52
777.19	1675.24
777.37	1703.91
777.54	1773.54
777.72	1755.11
777.90	1812.45
778.07	1667.05
778.25	1931.23
778.43	1804.26
778.60	1646.57
778.78	1691.62
778.96	1773.54
779.13	1699.81
779.31	1746.92
779.49	1781.73
779.66	1712.10
779.84	1665.00
780.01	1699.81
780.19	1718.25
780.37	1812.45
780.54	1665.00
780.72	1662.95
780.90	1771.49
781.07	1656.81
781.25	1693.67
781.43	1730.53
781.60	1681.38
781.78	1800.16
781.95	1779.68
782.13	1681.38
782.31	1669.09
782.48	1591.27
782.66	1697.77
782.83	1779.68
783.01	1755.11
783.19	1802.21
783.36	1669.09
783.54	1681.38
783.72	1724.39
783.89	1679.33
784.07	1730.53
784.24	1771.49
784.42	1816.55
784.60	1640.42
784.77	1765.35
784.95	1542.12
785.12	1716.20
785.30	1640.42
785.47	1624.04
785.65	1701.86
785.83	1746.92
786.00	1642.47
786.18	1740.77
786.35	1634.28
786.53	1714.15
786.71	1781.73
786.88	1720.29
787.06	1726.44
787.23	1593.32
787.41	1677.29
787.58	1777.64
787.76	1632.23
787.94	1683.43
788.11	1685.48
788.29	1640.42
788.46	1648.61
788.64	1570.79
788.81	1712.10
788.99	1669.09
789.16	1656.81
789.34	1665.00
789.52	1771.49
789.69	1673.19
789.87	1617.90
790.04	1783.78
790.22	1718.25
790.39	1787.88
790.57	1648.61
790.74	1619.94
790.92	1626.09
791.09	1648.61
791.27	1732.58
791.44	1748.97
791.62	1675.24
791.79	1796.07
791.97	1705.96
792.15	1849.32
792.32	1740.77
792.50	1755.11
792.67	1767.40
792.85	1761.25
793.02	1685.48
793.20	1671.14
793.37	1656.81
793.55	1697.77
793.72	1648.61
793.90	1730.53
794.07	1701.86
794.25	1650.66
794.42	1710.05
794.60	1699.81
794.77	1712.10
794.95	1734.63
795.12	1775.59
795.30	1699.81
795.47	1599.46
795.65	1832.93
795.82	1658.85
796.00	1722.34
796.17	1691.62
796.34	1611.75
796.52	1691.62
796.69	1693.67
796.87	1779.68
797.04	1710.05
797.22	1761.25
797.39	1689.57
797.57	1757.16
797.74	1714.15
797.92	1740.77
798.09	1742.82
798.27	1759.21
798.44	1648.61
798.62	1720.29
798.79	1699.81
798.96	1687.53
799.14	1691.62
799.31	1814.50
799.49	1697.77
799.66	1697.77
799.84	1615.85
800.01	1599.46
800.19	1665.00
800.36	1589.22
800.53	1783.78
800.71	1652.71
800.88	1796.07
801.06	1675.24
801.23	1701.86
801.41	1785.83
801.58	1710.05
801.75	1730.53
801.93	1701.86
802.10	1667.05
802.28	1712.10
802.45	1726.44
802.63	1732.58
802.80	1734.63
802.97	1734.63
803.15	1755.11
803.32	1734.63
803.50	1609.70
803.67	1665.00
803.84	1693.67
804.02	1640.42
804.19	1734.63
804.37	1525.74
804.54	1640.42
804.71	1685.48
804.89	1748.97
805.06	1654.76
805.24	1693.67
805.41	1646.57
805.58	1640.42
805.76	1816.55
805.93	1681.38
806.10	1853.41
806.28	1734.63
806.45	1685.48
806.63	1679.33
806.80	1708.01
806.97	1720.29
807.15	1728.49
807.32	1691.62
807.49	1761.25
807.67	1748.97
807.84	1708.01
808.01	1630.18
808.19	1816.55
808.36	1832.93
808.54	1685.48
808.71	1687.53
808.88	1716.20
809.06	1722.34
809.23	1716.20
809.40	1675.24
809.58	1724.39
809.75	1691.62
809.92	1712.10
810.10	1816.55
810.27	1744.87
810.44	1783.78
810.62	1744.87
810.79	1738.73
810.96	1656.81
811.14	1699.81
811.31	1763.30
811.48	1718.25
811.66	1759.21
811.83	1726.44
812.00	1689.57
812.18	1667.05
812.35	1820.64
812.52	1755.11
812.69	1685.48
812.87	1677.29
813.04	1640.42
813.21	1679.33
813.39	1714.15
813.56	1593.32
813.73	1808.36
813.91	1605.61
814.08	1789.92
814.25	1644.52
814.42	1681.38
814.60	1642.47
814.77	1738.73
814.94	1714.15
815.12	1699.81
815.29	1722.34
815.46	1615.85
815.63	1699.81
815.81	1693.67
815.98	1648.61
816.15	1656.81
816.33	1705.96
816.50	1695.72
816.67	1644.52
816.84	1718.25
817.02	1687.53
817.19	1667.05
817.36	1734.63
817.53	1769.44
817.71	1603.56
817.88	1781.73
818.05	1724.39
818.22	1697.77
818.40	1791.97
818.57	1681.38
818.74	1742.82
818.91	1658.85
819.09	1740.77
819.26	1740.77
819.43	1621.99
819.60	1593.32
819.78	1818.60
819.95	1697.77
820.12	1617.90
820.29	1843.17
820.47	1818.60
820.64	1662.95
820.81	1611.75
820.98	1712.10
821.15	1712.10
821.33	1708.01
821.50	1587.18
821.67	1761.25
821.84	1697.77
822.02	1732.58
822.19	1791.97
822.36	1626.09
822.53	1671.14
822.70	1609.70
822.88	1591.27
823.05	1802.21
823.22	1679.33
823.39	1695.72
823.56	1656.81
823.74	1845.22
823.91	1632.23
824.08	1652.71
824.25	1665.00
824.42	1677.29
824.60	1636.33
824.77	1708.01
824.94	1705.96
825.11	1757.16
825.28	1613.80
825.45	1757.16
825.63	1796.07
825.80	1636.33
825.97	1726.44
826.14	1681.38
826.31	1630.18
826.48	1734.63
826.66	1609.70
826.83	1615.85
827.00	1736.68
827.17	1630.18
827.34	1701.86
827.51	1626.09
827.69	1675.24
827.86	1654.76
828.03	1718.25
828.20	1732.58
828.37	1722.34
828.54	1742.82
828.71	1654.76
828.89	1789.92
829.06	1718.25
829.23	1767.40
829.40	1636.33
829.57	1732.58
829.74	1726.44
829.91	1607.66
830.09	1662.95
830.26	1771.49
830.43	1796.07
830.60	1720.29
830.77	1726.44
830.94	1804.26
831.11	1730.53
831.28	1665.00
831.46	1787.88
831.63	1693.67
831.80	1761.25
831.97	1617.90
832.14	1687.53
832.31	1708.01
832.48	1738.73
832.65	1751.01
832.82	1712.10
832.99	1779.68
833.17	1638.38
833.34	1800.16
833.51	1710.05
833.68	1523.69
833.85	1775.59
834.02	1697.77
834.19	1566.70
834.36	1615.85
834.53	1761.25
834.70	1724.39
834.87	1742.82
835.04	1773.54
835.22	1650.66
835.39	1693.67
835.56	1585.13
835.73	1697.77
835.90	1808.36
836.07	1581.03
836.24	1691.62
836.41	1656.81
836.58	1621.99
836.75	1763.30
836.92	1775.59
837.09	1703.91
837.26	1669.09
837.43	1748.97
837.60	1769.44
837.77	1789.92
837.94	1757.16
838.12	1689.57
838.29	1699.81
838.46	1675.24
838.63	1630.18
838.80	1787.88
838.97	1832.93
839.14	1726.44
839.31	1710.05
839.48	1724.39
839.65	1621.99
839.82	1796.07
839.99	1769.44
840.16	1697.77
840.33	1621.99
840.50	1710.05
840.67	1689.57
840.84	1589.22
841.01	1761.25
841.18	1669.09
841.35	1656.81
841.52	1730.53
841.69	1794.02
841.86	1658.85
842.03	1716.20
842.20	1734.63
842.37	1712.10
842.54	1720.29
842.71	1689.57
842.88	1607.66
843.05	1742.82
843.22	1699.81
843.39	1794.02
843.56	1671.14
843.73	1730.53
843.90	1720.29
844.07	1726.44
844.24	1771.49
844.41	1701.86
844.58	1677.29
844.75	1767.40
844.92	1636.33
845.09	1689.57
845.26	1695.72
845.43	1683.43
845.60	1787.88
845.77	1767.40
845.94	1738.73
846.10	1714.15
846.27	1558.50
846.44	1642.47
846.61	1683.43
846.78	1714.15
846.95	1722.34
847.12	1681.38
847.29	1724.39
847.46	1701.86
847.63	1701.86
847.80	1630.18
847.97	1685.48
848.14	1834.98
848.31	1683.43
848.48	1677.29
848.65	1675.24
848.82	1718.25
848.98	1798.12
849.15	1714.15
849.32	1779.68
849.49	1796.07
849.66	1714.15
849.83	1787.88
850.00	1703.91
850.17	1783.78
850.34	1695.72
850.51	1638.38
850.68	1650.66
850.85	1794.02
851.01	1734.63
851.18	1660.90
851.35	1736.68
851.52	1701.86
851.69	1763.30
851.86	1699.81
852.03	1679.33
852.20	1728.49
852.37	1722.34
852.53	1554.41
852.70	1748.97
852.87	1677.29
853.04	1822.69
853.21	1708.01
853.38	1710.05
853.55	1841.12
853.72	1789.92
853.89	1646.57
854.05	1718.25
854.22	1671.14
854.39	1728.49
854.56	1665.00
854.73	1759.21
854.90	1654.76
855.07	1679.33
855.23	1671.14
855.40	1720.29
855.57	1773.54
855.74	1605.61
855.91	1914.85
856.08	1658.85
856.25	1642.47
856.41	1648.61
856.58	1708.01
856.75	1677.29
856.92	1667.05
857.09	1873.89
857.26	1624.04
857.42	1650.66
857.59	1683.43
857.76	1683.43
857.93	1669.09
858.10	1695.72
858.27	1636.33
858.43	1699.81
858.60	1630.18
858.77	1626.09
858.94	1693.67
859.11	1828.84
859.27	1783.78
859.44	1665.00
859.61	1834.98
859.78	1757.16
859.95	1644.52
860.12	1681.38
860.28	1789.92
860.45	1816.55
860.62	1675.24
860.79	1687.53
860.95	1632.23
861.12	1714.15
861.29	1720.29
861.46	1593.32
861.63	1640.42
861.79	1708.01
861.96	1685.48
862.13	1689.57
862.30	1748.97
862.47	1734.63
862.63	1599.46
862.80	1820.64
862.97	1689.57
863.14	1822.69
863.30	1759.21
863.47	1613.80
863.64	1757.16
863.81	1671.14
863.97	1607.66
864.14	1710.05
864.31	1710.05
864.48	1656.81
864.65	1697.77
864.81	1693.67
864.98	1710.05
865.15	1738.73
865.32	1785.83
865.48	1777.64
865.65	1783.78
865.82	1705.96
865.98	1720.29
866.15	1732.58
866.32	1667.05
866.49	1652.71
866.65	1710.05
866.82	1591.27
866.99	1599.46
867.16	1689.57
867.32	1724.39
867.49	1597.42
867.66	1648.61
867.83	1669.09
867.99	1669.09
868.16	1671.14
868.33	1626.09
868.49	1691.62
868.66	1726.44
868.83	1773.54
868.99	1705.96
869.16	1716.20
869.33	1826.79
869.50	1779.68
869.66	1691.62
869.83	1681.38
870.00	1685.48
870.16	1734.63
870.33	1689.57
870.50	1685.48
870.66	1775.59
870.83	1746.92
871.00	1642.47
871.17	1748.97
871.33	1689.57
871.50	1716.20
871.67	1722.34
871.83	1546.22
872.00	1771.49
872.17	1740.77
872.33	1724.39
872.50	1767.40
872.67	1759.21
872.83	1675.24
873.00	1746.92
873.17	1662.95
873.33	1730.53
873.50	1675.24
873.67	1673.19
873.83	1613.80
874.00	1716.20
874.16	1742.82
874.33	1767.40
874.50	1701.86
874.66	1755.11
874.83	1685.48
875.00	1791.97
875.16	1775.59
875.33	1697.77
875.50	1621.99
875.66	1746.92
875.83	1689.57
875.99	1748.97
876.16	1705.96
876.33	1687.53
876.49	1656.81
876.66	1716.20
876.83	1632.23
876.99	1626.09
877.16	1677.29
877.32	1712.10
877.49	1736.68
877.66	1755.11
877.82	1775.59
877.99	1746.92
878.15	1724.39
878.32	1728.49
878.49	1714.15
878.65	1669.09
878.82	1710.05
878.98	1724.39
879.15	1738.73
879.32	1687.53
879.48	1738.73
879.65	1712.10
879.81	1665.00
879.98	1724.39
880.15	1712.10
880.31	1705.96
880.48	1703.91
880.64	1779.68
880.81	1697.77
880.97	1859.56
881.14	1751.01
881.31	1689.57
881.47	1796.07
881.64	1650.66
881.80	1632.23
881.97	1736.68
882.13	1753.06
882.30	1720.29
882.47	1675.24
882.63	1720.29
882.80	1693.67
882.96	1656.81
883.13	1779.68
883.29	1685.48
883.46	1693.67
883.62	1869.80
883.79	1718.25
883.95	1751.01
884.12	1734.63
884.29	1662.95
884.45	1632.23
884.62	1740.77
884.78	1597.42
884.95	1775.59
885.11	1699.81
885.28	1722.34
885.44	1714.15
885.61	1718.25
885.77	1722.34
885.94	1787.88
886.10	1691.62
886.27	1710.05
886.43	1796.07
886.60	1781.73
886.76	1693.67
886.93	1671.14
887.09	1710.05
887.26	1609.70
887.42	1779.68
887.59	1746.92
887.75	1744.87
887.92	1716.20
888.08	1705.96
888.25	1800.16
888.41	1738.73
888.58	1683.43
888.74	1636.33
888.91	1673.19
>>>>>End Processed Spectral Data<<<<<
