SpectraSuite Data File
++++++++++++++++++++++++++++++++++++
Date: Wed May 04 18:44:37 CEST 2016
User: root
Dark Spectrum Present: No
Reference Spectrum Present: No
Number of Sampled Component Spectra: 1
Spectrometers: USB4C02835
Integration Time (usec): 100000 (USB4C02835)
Spectra Averaged: 1 (USB4C02835)
Boxcar Smoothing: 0 (USB4C02835)
Correct for Electrical Dark: No (USB4C02835)
Strobe/Lamp Enabled: No (USB4C02835)
Correct for Detector Non-linearity: No (USB4C02835)
Correct for Stray Light: No (USB4C02835)
Number of Pixels in Processed Spectrum: 3648
>>>>>Begin Processed Spectral Data<<<<<
177.47	1445.87
177.69	1445.87
177.91	1445.87
178.13	1509.35
178.36	1480.68
178.58	1755.11
178.80	1742.82
179.02	1621.99
179.24	1572.84
179.46	1710.05
179.68	1740.77
179.90	1708.01
180.13	1665.00
180.35	1675.24
180.57	1703.91
180.79	1767.40
181.01	1705.96
181.23	1826.79
181.45	1804.26
181.67	1726.44
181.90	1748.97
182.12	1796.07
182.34	1601.51
182.56	1748.97
182.78	1746.92
183.00	1765.35
183.22	1726.44
183.44	1669.09
183.66	1845.22
183.89	1771.49
184.11	1734.63
184.33	1720.29
184.55	1808.36
184.77	1785.83
184.99	1740.77
185.21	1656.81
185.43	1814.50
185.65	1636.33
185.87	1720.29
186.10	1777.64
186.32	1849.32
186.54	1763.30
186.76	1667.05
186.98	1755.11
187.20	1718.25
187.42	1669.09
187.64	1701.86
187.86	1699.81
188.08	1730.53
188.30	1683.43
188.52	1748.97
188.75	1847.27
188.97	1779.68
189.19	1710.05
189.41	1642.47
189.63	1671.14
189.85	1714.15
190.07	1599.46
190.29	1609.70
190.51	1724.39
190.73	1656.81
190.95	1771.49
191.17	1656.81
191.39	1738.73
191.61	1662.95
191.84	1644.52
192.06	1740.77
192.28	1585.13
192.50	1869.80
192.72	1769.44
192.94	1720.29
193.16	1787.88
193.38	1740.77
193.60	1716.20
193.82	1724.39
194.04	1726.44
194.26	1703.91
194.48	1699.81
194.70	1759.21
194.92	1644.52
195.14	1755.11
195.36	1652.71
195.58	1738.73
195.80	1714.15
196.02	1662.95
196.24	1730.53
196.46	1689.57
196.69	1683.43
196.91	1845.22
197.13	1638.38
197.35	1583.08
197.57	1742.82
197.79	1744.87
198.01	1775.59
198.23	1755.11
198.45	1730.53
198.67	1662.95
198.89	1708.01
199.11	1656.81
199.33	1738.73
199.55	1572.84
199.77	1697.77
199.99	1806.31
200.21	1722.34
200.43	1710.05
200.65	1589.22
200.87	1546.22
201.09	1728.49
201.31	1681.38
201.53	1789.92
201.75	1726.44
201.97	1712.10
202.19	1667.05
202.41	1712.10
202.63	1748.97
202.85	1757.16
203.07	1632.23
203.29	1632.23
203.51	1632.23
203.73	1624.04
203.95	1830.88
204.17	1669.09
204.39	1710.05
204.61	1753.06
204.83	1705.96
205.05	1722.34
205.27	1759.21
205.49	1789.92
205.71	1775.59
205.93	1599.46
206.15	1748.97
206.37	1759.21
206.59	1701.86
206.81	1669.09
207.03	1779.68
207.25	1691.62
207.47	1677.29
207.69	1669.09
207.91	1763.30
208.13	1765.35
208.34	1734.63
208.56	1662.95
208.78	1777.64
209.00	1701.86
209.22	1714.15
209.44	1734.63
209.66	1689.57
209.88	1693.67
210.10	1710.05
210.32	1712.10
210.54	1814.50
210.76	1685.48
210.98	1708.01
211.20	1570.79
211.42	1781.73
211.64	1742.82
211.86	1705.96
212.08	1746.92
212.30	1683.43
212.52	1734.63
212.74	1726.44
212.96	1773.54
213.17	1697.77
213.39	1755.11
213.61	1777.64
213.83	1753.06
214.05	1718.25
214.27	1679.33
214.49	1638.38
214.71	1658.85
214.93	1830.88
215.15	1720.29
215.37	1730.53
215.59	1658.85
215.81	1718.25
216.03	1806.31
216.24	1783.78
216.46	1701.86
216.68	1669.09
216.90	1730.53
217.12	1759.21
217.34	1695.72
217.56	1718.25
217.78	1853.41
218.00	1724.39
218.22	1744.87
218.44	1783.78
218.66	1710.05
218.87	1791.97
219.09	1546.22
219.31	1667.05
219.53	1767.40
219.75	1591.27
219.97	1732.58
220.19	1722.34
220.41	1757.16
220.63	1689.57
220.85	1701.86
221.06	1675.24
221.28	1755.11
221.50	1689.57
221.72	1673.19
221.94	1683.43
222.16	1656.81
222.38	1757.16
222.60	1720.29
222.82	1691.62
223.03	1755.11
223.25	1652.71
223.47	1728.49
223.69	1859.56
223.91	1742.82
224.13	1771.49
224.35	1724.39
224.57	1753.06
224.78	1730.53
225.00	1673.19
225.22	1705.96
225.44	1755.11
225.66	1775.59
225.88	1658.85
226.10	1755.11
226.32	1748.97
226.53	1800.16
226.75	1634.28
226.97	1767.40
227.19	1699.81
227.41	1708.01
227.63	1679.33
227.85	1603.56
228.06	1681.38
228.28	1699.81
228.50	1695.72
228.72	1654.76
228.94	1685.48
229.16	1665.00
229.37	1605.61
229.59	1636.33
229.81	1761.25
230.03	1808.36
230.25	1630.18
230.47	1617.90
230.69	1675.24
230.90	1767.40
231.12	1652.71
231.34	1710.05
231.56	1769.44
231.78	1648.61
232.00	1753.06
232.21	1710.05
232.43	1683.43
232.65	1525.74
232.87	1654.76
233.09	1638.38
233.30	1683.43
233.52	1775.59
233.74	1665.00
233.96	1660.90
234.18	1771.49
234.40	1646.57
234.61	1794.02
234.83	1644.52
235.05	1681.38
235.27	1869.80
235.49	1822.69
235.70	1712.10
235.92	1787.88
236.14	1705.96
236.36	1849.32
236.58	1638.38
236.79	1798.12
237.01	1687.53
237.23	1693.67
237.45	1841.12
237.67	1714.15
237.88	1730.53
238.10	1783.78
238.32	1656.81
238.54	1640.42
238.76	1736.68
238.97	1718.25
239.19	1732.58
239.41	1765.35
239.63	1769.44
239.85	1687.53
240.06	1683.43
240.28	1619.94
240.50	1777.64
240.72	1716.20
240.93	1665.00
241.15	1794.02
241.37	1765.35
241.59	1771.49
241.81	1726.44
242.02	1722.34
242.24	1708.01
242.46	1705.96
242.68	1705.96
242.89	1712.10
243.11	1746.92
243.33	1718.25
243.55	1722.34
243.76	1734.63
243.98	1701.86
244.20	1683.43
244.42	1665.00
244.64	1675.24
244.85	1718.25
245.07	1671.14
245.29	1705.96
245.51	1757.16
245.72	1773.54
245.94	1724.39
246.16	1689.57
246.38	1808.36
246.59	1722.34
246.81	1763.30
247.03	1714.15
247.24	1607.66
247.46	1710.05
247.68	1703.91
247.90	1654.76
248.11	1681.38
248.33	1710.05
248.55	1722.34
248.77	1654.76
248.98	1822.69
249.20	1734.63
249.42	1685.48
249.64	1753.06
249.85	1714.15
250.07	1748.97
250.29	1769.44
250.50	1738.73
250.72	1714.15
250.94	1751.01
251.16	1783.78
251.37	1716.20
251.59	1724.39
251.81	1753.06
252.02	1820.64
252.24	1611.75
252.46	1775.59
252.68	1697.77
252.89	1699.81
253.11	1640.42
253.33	1771.49
253.54	1804.26
253.76	1667.05
253.98	1730.53
254.20	1701.86
254.41	1681.38
254.63	1640.42
254.85	1632.23
255.06	1724.39
255.28	1693.67
255.50	1708.01
255.71	1642.47
255.93	1591.27
256.15	1714.15
256.36	1705.96
256.58	1714.15
256.80	1708.01
257.02	1611.75
257.23	1669.09
257.45	1646.57
257.67	1753.06
257.88	1722.34
258.10	1679.33
258.32	1794.02
258.53	1701.86
258.75	1748.97
258.97	1667.05
259.18	1660.90
259.40	1669.09
259.62	1761.25
259.83	1751.01
260.05	1730.53
260.27	2023.39
260.48	1761.25
260.70	1675.24
260.92	1699.81
261.13	1810.40
261.35	1683.43
261.57	1710.05
261.78	1654.76
262.00	1759.21
262.22	1736.68
262.43	1576.94
262.65	1662.95
262.86	1689.57
263.08	1873.89
263.30	1730.53
263.51	1636.33
263.73	1658.85
263.95	1791.97
264.16	1677.29
264.38	1748.97
264.60	1769.44
264.81	1685.48
265.03	1787.88
265.25	1861.60
265.46	1691.62
265.68	1740.77
265.89	1787.88
266.11	1665.00
266.33	1732.58
266.54	1759.21
266.76	1779.68
266.98	1802.21
267.19	1757.16
267.41	1705.96
267.62	1658.85
267.84	1669.09
268.06	1783.78
268.27	1714.15
268.49	1728.49
268.70	1740.77
268.92	1738.73
269.14	1636.33
269.35	1648.61
269.57	1691.62
269.79	1740.77
270.00	1652.71
270.22	1759.21
270.43	1673.19
270.65	1578.98
270.87	1724.39
271.08	1755.11
271.30	1748.97
271.51	1736.68
271.73	1773.54
271.95	1783.78
272.16	1675.24
272.38	1775.59
272.59	1671.14
272.81	1697.77
273.02	1791.97
273.24	1753.06
273.46	1794.02
273.67	1685.48
273.89	1667.05
274.10	1638.38
274.32	1701.86
274.54	1705.96
274.75	1699.81
274.97	1673.19
275.18	1791.97
275.40	1736.68
275.61	1767.40
275.83	1722.34
276.05	1681.38
276.26	1748.97
276.48	1699.81
276.69	1759.21
276.91	1701.86
277.12	1824.74
277.34	1789.92
277.55	1798.12
277.77	1699.81
277.99	1746.92
278.20	1652.71
278.42	1652.71
278.63	1652.71
278.85	1669.09
279.06	1630.18
279.28	1689.57
279.49	1759.21
279.71	1748.97
279.93	1744.87
280.14	1732.58
280.36	1712.10
280.57	1814.50
280.79	1787.88
281.00	1755.11
281.22	1748.97
281.43	1849.32
281.65	1650.66
281.86	1644.52
282.08	1697.77
282.29	1751.01
282.51	1642.47
282.73	1687.53
282.94	1626.09
283.16	1693.67
283.37	1820.64
283.59	1751.01
283.80	1738.73
284.02	1691.62
284.23	1796.07
284.45	1667.05
284.66	1660.90
284.88	1652.71
285.09	1734.63
285.31	1765.35
285.52	1697.77
285.74	1601.51
285.95	1812.45
286.17	1718.25
286.38	1746.92
286.60	1761.25
286.81	1667.05
287.03	1630.18
287.24	1689.57
287.46	1765.35
287.67	1673.19
287.89	1861.60
288.10	1701.86
288.32	1710.05
288.53	1751.01
288.75	1734.63
288.96	1710.05
289.18	1712.10
289.39	1667.05
289.61	1757.16
289.82	1798.12
290.04	1740.77
290.25	1669.09
290.47	1677.29
290.68	1660.90
290.90	1726.44
291.11	1609.70
291.33	1814.50
291.54	1619.94
291.76	1681.38
291.97	1740.77
292.18	1677.29
292.40	1701.86
292.61	1677.29
292.83	1837.03
293.04	1755.11
293.26	1691.62
293.47	1710.05
293.69	1665.00
293.90	1687.53
294.12	1824.74
294.33	1697.77
294.55	1693.67
294.76	1773.54
294.97	1849.32
295.19	1818.60
295.40	1695.72
295.62	1701.86
295.83	1755.11
296.05	1589.22
296.26	1804.26
296.48	1736.68
296.69	1667.05
296.90	1689.57
297.12	1789.92
297.33	1828.84
297.55	1691.62
297.76	1738.73
297.98	1744.87
298.19	1679.33
298.41	1763.30
298.62	1626.09
298.83	1746.92
299.05	1736.68
299.26	1703.91
299.48	1656.81
299.69	1769.44
299.90	1804.26
300.12	1619.94
300.33	1812.45
300.55	1724.39
300.76	1755.11
300.98	1617.90
301.19	1775.59
301.40	1652.71
301.62	1681.38
301.83	1816.55
302.05	1669.09
302.26	1751.01
302.47	1673.19
302.69	1640.42
302.90	1687.53
303.12	1599.46
303.33	1773.54
303.54	1808.36
303.76	1685.48
303.97	1677.29
304.19	1804.26
304.40	1628.14
304.61	1761.25
304.83	1769.44
305.04	1820.64
305.26	1716.20
305.47	1753.06
305.68	1683.43
305.90	1644.52
306.11	1701.86
306.33	1650.66
306.54	1726.44
306.75	1634.28
306.97	1601.51
307.18	1617.90
307.39	1677.29
307.61	1759.21
307.82	1710.05
308.04	1734.63
308.25	1681.38
308.46	1699.81
308.68	1650.66
308.89	1699.81
309.10	1746.92
309.32	1701.86
309.53	1656.81
309.74	1705.96
309.96	1714.15
310.17	1759.21
310.39	1650.66
310.60	1720.29
310.81	1705.96
311.03	1677.29
311.24	1816.55
311.45	1681.38
311.67	1806.31
311.88	1679.33
312.09	1722.34
312.31	1755.11
312.52	1732.58
312.73	1777.64
312.95	1658.85
313.16	1669.09
313.37	1755.11
313.59	1699.81
313.80	1748.97
314.01	1877.99
314.23	1679.33
314.44	1685.48
314.65	1699.81
314.87	1671.14
315.08	1816.55
315.29	1646.57
315.51	1593.32
315.72	1689.57
315.93	1757.16
316.15	1734.63
316.36	1624.04
316.57	1720.29
316.79	1744.87
317.00	1726.44
317.21	1738.73
317.43	1650.66
317.64	1765.35
317.85	1656.81
318.07	1718.25
318.28	1675.24
318.49	1873.89
318.70	1951.71
318.92	1910.75
319.13	1882.08
319.34	1898.47
319.56	1812.45
319.77	1906.66
319.98	1769.44
320.20	1800.16
320.41	1839.08
320.62	1834.98
320.83	1671.14
321.05	1865.70
321.26	1730.53
321.47	1691.62
321.69	1826.79
321.90	1601.51
322.11	1634.28
322.32	1685.48
322.54	1767.40
322.75	1708.01
322.96	1816.55
323.18	1642.47
323.39	1552.36
323.60	1642.47
323.81	1765.35
324.03	1650.66
324.24	1810.40
324.45	1705.96
324.66	1658.85
324.88	1757.16
325.09	1789.92
325.30	1726.44
325.52	1691.62
325.73	1681.38
325.94	1652.71
326.15	1607.66
326.37	1665.00
326.58	1732.58
326.79	1777.64
327.00	1755.11
327.22	1763.30
327.43	1695.72
327.64	1658.85
327.85	1757.16
328.07	1681.38
328.28	1865.70
328.49	1681.38
328.70	1685.48
328.92	1648.61
329.13	1714.15
329.34	1695.72
329.55	1810.40
329.76	1744.87
329.98	1689.57
330.19	1757.16
330.40	1794.02
330.61	1724.39
330.83	1730.53
331.04	1728.49
331.25	1730.53
331.46	1765.35
331.68	1632.23
331.89	1742.82
332.10	1685.48
332.31	1578.98
332.52	1671.14
332.74	1828.84
332.95	1656.81
333.16	1708.01
333.37	1845.22
333.58	1714.15
333.80	1730.53
334.01	1546.22
334.22	1710.05
334.43	1699.81
334.64	1644.52
334.86	1644.52
335.07	1566.70
335.28	1722.34
335.49	1621.99
335.70	1699.81
335.92	1783.78
336.13	1834.98
336.34	1675.24
336.55	1679.33
336.76	1652.71
336.98	1609.70
337.19	1728.49
337.40	1865.70
337.61	1769.44
337.82	1701.86
338.04	1837.03
338.25	1576.94
338.46	1640.42
338.67	1738.73
338.88	1699.81
339.09	1683.43
339.31	1689.57
339.52	1714.15
339.73	1746.92
339.94	1712.10
340.15	1759.21
340.36	1685.48
340.58	1701.86
340.79	1560.55
341.00	1781.73
341.21	1660.90
341.42	1753.06
341.63	1697.77
341.85	1783.78
342.06	1785.83
342.27	1679.33
342.48	1757.16
342.69	1632.23
342.90	1765.35
343.12	1767.40
343.33	1777.64
343.54	1767.40
343.75	1773.54
343.96	1816.55
344.17	1617.90
344.38	1609.70
344.60	1677.29
344.81	1636.33
345.02	1746.92
345.23	1808.36
345.44	1830.88
345.65	1765.35
345.86	1812.45
346.07	1697.77
346.29	1714.15
346.50	1695.72
346.71	1695.72
346.92	1779.68
347.13	1802.21
347.34	1658.85
347.55	1689.57
347.76	1705.96
347.98	1636.33
348.19	1726.44
348.40	1751.01
348.61	1652.71
348.82	1820.64
349.03	1796.07
349.24	1632.23
349.45	1824.74
349.66	1583.08
349.88	1759.21
350.09	1667.05
350.30	1769.44
350.51	1660.90
350.72	1685.48
350.93	1775.59
351.14	1656.81
351.35	1767.40
351.56	1685.48
351.77	1716.20
351.99	1742.82
352.20	1839.08
352.41	1763.30
352.62	1576.94
352.83	1665.00
353.04	1701.86
353.25	1611.75
353.46	1787.88
353.67	1804.26
353.88	1710.05
354.09	1648.61
354.30	1740.77
354.52	1763.30
354.73	1734.63
354.94	1671.14
355.15	1671.14
355.36	1865.70
355.57	1718.25
355.78	1755.11
355.99	1730.53
356.20	1671.14
356.41	1769.44
356.62	1742.82
356.83	1658.85
357.04	1824.74
357.25	1587.18
357.46	1654.76
357.68	1671.14
357.89	1652.71
358.10	1662.95
358.31	1683.43
358.52	1701.86
358.73	1644.52
358.94	1630.18
359.15	1673.19
359.36	1730.53
359.57	1710.05
359.78	1714.15
359.99	1769.44
360.20	1638.38
360.41	1695.72
360.62	1685.48
360.83	1705.96
361.04	1691.62
361.25	1714.15
361.46	1841.12
361.67	1669.09
361.88	1728.49
362.09	1689.57
362.30	1677.29
362.51	1724.39
362.72	1751.01
362.93	1751.01
363.14	1730.53
363.35	1755.11
363.56	1730.53
363.78	1761.25
363.99	1812.45
364.20	1638.38
364.41	1726.44
364.62	1794.02
364.83	1746.92
365.04	1730.53
365.25	1648.61
365.46	1787.88
365.67	1652.71
365.88	1699.81
366.09	1732.58
366.30	1710.05
366.51	1677.29
366.72	1689.57
366.93	1705.96
367.14	1660.90
367.35	1734.63
367.56	1693.67
367.77	1777.64
367.98	1695.72
368.18	1783.78
368.39	1751.01
368.60	1699.81
368.81	1787.88
369.02	1693.67
369.23	1693.67
369.44	1640.42
369.65	1572.84
369.86	1703.91
370.07	1804.26
370.28	1714.15
370.49	1744.87
370.70	1720.29
370.91	1660.90
371.12	1652.71
371.33	1732.58
371.54	1677.29
371.75	1787.88
371.96	1587.18
372.17	1755.11
372.38	1722.34
372.59	1812.45
372.80	1683.43
373.01	1683.43
373.22	1673.19
373.43	1705.96
373.64	1636.33
373.85	1834.98
374.06	1763.30
374.26	1834.98
374.47	1748.97
374.68	1771.49
374.89	1751.01
375.10	1689.57
375.31	1779.68
375.52	1658.85
375.73	1722.34
375.94	1662.95
376.15	1757.16
376.36	1607.66
376.57	1654.76
376.78	1660.90
376.99	1693.67
377.20	1753.06
377.40	1677.29
377.61	1794.02
377.82	1656.81
378.03	1742.82
378.24	1771.49
378.45	1751.01
378.66	1753.06
378.87	1552.36
379.08	1587.18
379.29	1638.38
379.50	1767.40
379.71	1701.86
379.91	1650.66
380.12	1687.53
380.33	1675.24
380.54	1730.53
380.75	1746.92
380.96	1703.91
381.17	1789.92
381.38	1691.62
381.59	1812.45
381.80	1726.44
382.00	1935.33
382.21	1718.25
382.42	1830.88
382.63	1898.47
382.84	1808.36
383.05	1763.30
383.26	1806.31
383.47	1705.96
383.68	1746.92
383.88	1742.82
384.09	1753.06
384.30	1791.97
384.51	1716.20
384.72	1630.18
384.93	1660.90
385.14	1757.16
385.35	1671.14
385.55	1599.46
385.76	1689.57
385.97	1697.77
386.18	1611.75
386.39	1730.53
386.60	1730.53
386.81	1726.44
387.02	1693.67
387.22	1679.33
387.43	1730.53
387.64	1806.31
387.85	1890.28
388.06	2263.01
388.27	4536.25
388.48	9142.13
388.68	11642.70
388.89	13473.59
389.10	14087.98
389.31	11761.48
389.52	9637.74
389.73	8554.37
389.93	7817.10
390.14	7298.96
390.35	6635.42
390.56	5894.05
390.77	4880.31
390.98	3919.81
391.18	2985.94
391.39	2349.02
391.60	1955.81
391.81	1916.90
392.02	1767.40
392.23	1902.56
392.43	1791.97
392.64	1771.49
392.85	1763.30
393.06	1822.69
393.27	1716.20
393.47	1669.09
393.68	1701.86
393.89	1656.81
394.10	1796.07
394.31	1570.79
394.52	1703.91
394.72	1669.09
394.93	1785.83
395.14	1654.76
395.35	1826.79
395.56	1712.10
395.76	1798.12
395.97	1796.07
396.18	1951.71
396.39	1814.50
396.60	2090.98
396.80	1906.66
397.01	1880.04
397.22	1834.98
397.43	1851.36
397.64	1728.49
397.84	1810.40
398.05	1902.56
398.26	1722.34
398.47	1828.84
398.67	1732.58
398.88	1751.01
399.09	1751.01
399.30	1755.11
399.51	1769.44
399.71	1671.14
399.92	1708.01
400.13	1755.11
400.34	1732.58
400.54	1654.76
400.75	1873.89
400.96	1732.58
401.17	1716.20
401.37	1730.53
401.58	1640.42
401.79	1771.49
402.00	1916.90
402.21	2097.12
402.41	2056.16
402.62	2127.84
402.83	2125.79
403.04	2031.58
403.24	2121.70
403.45	1880.04
403.66	2050.02
403.87	1931.23
404.07	1902.56
404.28	1939.43
404.49	1964.00
404.70	1796.07
404.90	1804.26
405.11	1787.88
405.32	1763.30
405.52	1722.34
405.73	1759.21
405.94	1619.94
406.15	1703.91
406.35	1648.61
406.56	1787.88
406.77	1701.86
406.98	1771.49
407.18	1667.05
407.39	1855.46
407.60	1681.38
407.80	1740.77
408.01	1701.86
408.22	1730.53
408.43	1685.48
408.63	1736.68
408.84	1746.92
409.05	1771.49
409.25	1732.58
409.46	1640.42
409.67	1669.09
409.88	1679.33
410.08	1722.34
410.29	1681.38
410.50	1804.26
410.70	1744.87
410.91	1695.72
411.12	1736.68
411.32	1673.19
411.53	1726.44
411.74	1771.49
411.95	1845.22
412.15	1742.82
412.36	1834.98
412.57	1771.49
412.77	1937.38
412.98	1769.44
413.19	1703.91
413.39	1820.64
413.60	1738.73
413.81	1812.45
414.01	1673.19
414.22	1759.21
414.43	1828.84
414.63	1734.63
414.84	1789.92
415.05	1675.24
415.25	1679.33
415.46	1683.43
415.67	1632.23
415.87	1771.49
416.08	1716.20
416.29	1708.01
416.49	1697.77
416.70	1677.29
416.91	1685.48
417.11	1685.48
417.32	1849.32
417.53	1806.31
417.73	1716.20
417.94	1646.57
418.15	1665.00
418.35	1771.49
418.56	1728.49
418.77	1869.80
418.97	1671.14
419.18	1652.71
419.38	1556.46
419.59	1675.24
419.80	1777.64
420.00	1673.19
420.21	1748.97
420.42	1777.64
420.62	1755.11
420.83	1679.33
421.04	1708.01
421.24	1728.49
421.45	1730.53
421.65	1783.78
421.86	1773.54
422.07	1748.97
422.27	1716.20
422.48	1683.43
422.69	1656.81
422.89	1665.00
423.10	1708.01
423.30	1689.57
423.51	1730.53
423.72	1656.81
423.92	1716.20
424.13	1632.23
424.33	1734.63
424.54	1820.64
424.75	1675.24
424.95	1882.08
425.16	1648.61
425.36	1699.81
425.57	1783.78
425.78	1791.97
425.98	1759.21
426.19	1703.91
426.39	1630.18
426.60	1753.06
426.81	1751.01
427.01	1769.44
427.22	1660.90
427.42	1589.22
427.63	1718.25
427.83	1851.36
428.04	1882.08
428.25	1779.68
428.45	1816.55
428.66	1740.77
428.86	1744.87
429.07	1665.00
429.28	1730.53
429.48	1708.01
429.69	1669.09
429.89	1759.21
430.10	1679.33
430.30	1769.44
430.51	1730.53
430.71	1728.49
430.92	1710.05
431.13	1724.39
431.33	1773.54
431.54	1746.92
431.74	1796.07
431.95	1808.36
432.15	1697.77
432.36	1673.19
432.56	1738.73
432.77	1855.46
432.98	1714.15
433.18	1681.38
433.39	1722.34
433.59	1697.77
433.80	1826.79
434.00	1880.04
434.21	1726.44
434.41	1755.11
434.62	1767.40
434.82	1603.56
435.03	1673.19
435.23	1771.49
435.44	1644.52
435.64	1697.77
435.85	1644.52
436.06	1751.01
436.26	1794.02
436.47	1685.48
436.67	1714.15
436.88	1738.73
437.08	1841.12
437.29	1751.01
437.49	1757.16
437.70	1777.64
437.90	1722.34
438.11	1841.12
438.31	1787.88
438.52	1890.28
438.72	1865.70
438.93	2060.26
439.13	1898.47
439.34	1843.17
439.54	1742.82
439.75	1810.40
439.95	1824.74
440.16	1708.01
440.36	1773.54
440.57	1755.11
440.77	1785.83
440.98	1722.34
441.18	1789.92
441.39	1712.10
441.59	1695.72
441.80	1800.16
442.00	1740.77
442.21	1871.84
442.41	1652.71
442.62	1726.44
442.82	1642.47
443.02	1746.92
443.23	1789.92
443.43	1736.68
443.64	1820.64
443.84	1654.76
444.05	1861.60
444.25	1748.97
444.46	1656.81
444.66	1738.73
444.87	1781.73
445.07	1656.81
445.28	1746.92
445.48	1794.02
445.69	1804.26
445.89	1927.14
446.09	1808.36
446.30	2039.78
446.50	2590.68
446.71	4034.50
446.91	5185.46
447.12	5779.37
447.32	6043.56
447.53	5238.70
447.73	4456.38
447.93	3860.42
448.14	3692.49
448.34	3446.73
448.55	3061.71
448.75	3125.20
448.96	3004.37
449.16	2684.89
449.36	2394.08
449.57	2226.14
449.77	1984.48
449.98	1785.83
450.18	1804.26
450.39	1820.64
450.59	1826.79
450.79	1769.44
451.00	1619.94
451.20	1775.59
451.41	1812.45
451.61	1703.91
451.81	1800.16
452.02	1689.57
452.22	1771.49
452.43	1671.14
452.63	1697.77
452.84	1748.97
453.04	1728.49
453.24	1738.73
453.45	1710.05
453.65	1683.43
453.86	1734.63
454.06	1683.43
454.26	1767.40
454.47	1755.11
454.67	1761.25
454.87	1808.36
455.08	1646.57
455.28	1804.26
455.49	1734.63
455.69	1742.82
455.89	1861.60
456.10	1763.30
456.30	1718.25
456.51	1738.73
456.71	1740.77
456.91	1755.11
457.12	1826.79
457.32	1814.50
457.52	1730.53
457.73	1789.92
457.93	1757.16
458.14	1671.14
458.34	1648.61
458.54	1779.68
458.75	1705.96
458.95	1777.64
459.15	1767.40
459.36	1779.68
459.56	1746.92
459.76	1798.12
459.97	1789.92
460.17	1757.16
460.37	1816.55
460.58	1716.20
460.78	1755.11
460.99	1705.96
461.19	1687.53
461.39	1650.66
461.60	1759.21
461.80	1794.02
462.00	1720.29
462.21	1734.63
462.41	1667.05
462.61	1705.96
462.82	1632.23
463.02	1812.45
463.22	1738.73
463.43	1751.01
463.63	1769.44
463.83	1828.84
464.04	1732.58
464.24	1769.44
464.44	1660.90
464.64	1746.92
464.85	1779.68
465.05	1742.82
465.25	1732.58
465.46	1701.86
465.66	1724.39
465.86	1722.34
466.07	1728.49
466.27	1730.53
466.47	1617.90
466.68	1640.42
466.88	1744.87
467.08	1757.16
467.29	1787.88
467.49	1640.42
467.69	1748.97
467.89	1736.68
468.10	1738.73
468.30	1757.16
468.50	1796.07
468.71	1832.93
468.91	1632.23
469.11	1800.16
469.31	1773.54
469.52	1669.09
469.72	1824.74
469.92	1931.23
470.13	1730.53
470.33	1710.05
470.53	1771.49
470.73	2123.74
470.94	2523.10
471.14	2701.27
471.34	2992.08
471.54	2899.92
471.75	2625.50
471.95	2361.31
472.15	2248.67
472.36	2195.42
472.56	2260.96
472.76	2207.71
472.96	2162.66
473.17	2101.22
473.37	2007.01
473.57	1869.80
473.77	1880.04
473.98	1736.68
474.18	1669.09
474.38	1822.69
474.58	1693.67
474.79	1718.25
474.99	1796.07
475.19	1738.73
475.39	1699.81
475.60	1726.44
475.80	1728.49
476.00	1669.09
476.20	1658.85
476.41	1746.92
476.61	1871.84
476.81	1771.49
477.01	1656.81
477.21	1849.32
477.42	1824.74
477.62	1787.88
477.82	1728.49
478.02	1652.71
478.23	1726.44
478.43	1716.20
478.63	1751.01
478.83	1751.01
479.03	1681.38
479.24	1742.82
479.44	1861.60
479.64	1642.47
479.84	1675.24
480.04	1695.72
480.25	1761.25
480.45	1646.57
480.65	1751.01
480.85	1787.88
481.06	1650.66
481.26	1738.73
481.46	1851.36
481.66	1763.30
481.86	1722.34
482.06	1777.64
482.27	1660.90
482.47	1724.39
482.67	1755.11
482.87	1662.95
483.07	1738.73
483.28	1728.49
483.48	1681.38
483.68	1644.52
483.88	1636.33
484.08	1630.18
484.29	1681.38
484.49	1652.71
484.69	1646.57
484.89	1783.78
485.09	1789.92
485.29	1660.90
485.50	1705.96
485.70	1744.87
485.90	1837.03
486.10	1681.38
486.30	1771.49
486.50	1853.41
486.71	1742.82
486.91	1730.53
487.11	1771.49
487.31	1691.62
487.51	1773.54
487.71	1693.67
487.91	1646.57
488.12	1730.53
488.32	1587.18
488.52	1730.53
488.72	1562.60
488.92	1753.06
489.12	1781.73
489.32	1730.53
489.53	1738.73
489.73	1595.37
489.93	1763.30
490.13	1773.54
490.33	1591.27
490.53	1765.35
490.73	1843.17
490.94	1697.77
491.14	1748.97
491.34	1832.93
491.54	2004.96
491.74	2740.18
491.94	3229.65
492.14	3424.20
492.34	3579.85
492.54	3112.91
492.75	2744.28
492.95	2629.59
493.15	2475.99
493.35	2338.78
493.55	2238.43
493.75	2181.09
493.95	2164.70
494.15	2162.66
494.35	2062.30
494.56	1863.65
494.76	1757.16
494.96	1757.16
495.16	1767.40
495.36	1685.48
495.56	1710.05
495.76	1738.73
495.96	1708.01
496.16	1718.25
496.36	1820.64
496.56	1812.45
496.77	1775.59
496.97	1662.95
497.17	1769.44
497.37	1611.75
497.57	1771.49
497.77	1769.44
497.97	1683.43
498.17	1738.73
498.37	1734.63
498.57	1800.16
498.77	1748.97
498.97	1751.01
499.17	1785.83
499.38	1751.01
499.58	1730.53
499.78	1818.60
499.98	1853.41
500.18	1703.91
500.38	1714.15
500.58	1861.60
500.78	2414.56
500.98	4435.90
501.18	6825.88
501.38	8054.66
501.58	8974.20
501.78	8669.05
501.98	6756.25
502.18	5814.18
502.38	4927.41
502.58	4571.07
502.78	4128.70
502.98	4048.83
503.18	3629.00
503.38	3528.65
503.59	3153.87
503.79	2775.00
503.99	2602.97
504.19	2424.80
504.39	2322.40
504.59	2375.64
504.79	2336.73
504.99	2248.67
505.19	2058.21
505.39	1994.72
505.59	2019.30
505.79	1976.29
505.99	1841.12
506.19	1814.50
506.39	1955.81
506.59	1824.74
506.79	1724.39
506.99	1898.47
507.19	1828.84
507.39	1718.25
507.59	1677.29
507.79	1677.29
507.99	1800.16
508.19	1771.49
508.39	1716.20
508.59	1734.63
508.79	1744.87
508.99	1779.68
509.19	1740.77
509.39	1820.64
509.59	1701.86
509.79	1740.77
509.99	1687.53
510.19	1798.12
510.39	1812.45
510.59	1724.39
510.79	1673.19
510.99	1726.44
511.19	1777.64
511.39	1818.60
511.59	1796.07
511.79	1794.02
511.99	1779.68
512.19	1843.17
512.38	1806.31
512.58	1740.77
512.78	1781.73
512.98	1755.11
513.18	1849.32
513.38	1656.81
513.58	1755.11
513.78	1718.25
513.98	1763.30
514.18	1775.59
514.38	1695.72
514.58	1726.44
514.78	1705.96
514.98	1759.21
515.18	1697.77
515.38	1644.52
515.58	1861.60
515.78	1720.29
515.98	1724.39
516.18	1722.34
516.38	1734.63
516.57	1728.49
516.77	1615.85
516.97	1759.21
517.17	1724.39
517.37	1642.47
517.57	1789.92
517.77	1712.10
517.97	1572.84
518.17	1781.73
518.37	1746.92
518.57	1720.29
518.77	1638.38
518.97	1728.49
519.16	1755.11
519.36	1785.83
519.56	1736.68
519.76	1708.01
519.96	1718.25
520.16	1890.28
520.36	1673.19
520.56	1748.97
520.76	1683.43
520.96	1804.26
521.16	1818.60
521.35	1773.54
521.55	1861.60
521.75	1763.30
521.95	1691.62
522.15	1759.21
522.35	1693.67
522.55	1697.77
522.75	1779.68
522.95	1705.96
523.14	1710.05
523.34	1720.29
523.54	1755.11
523.74	1701.86
523.94	1843.17
524.14	1695.72
524.34	1669.09
524.54	1918.95
524.73	1738.73
524.93	1734.63
525.13	1777.64
525.33	1681.38
525.53	1896.42
525.73	1820.64
525.93	1798.12
526.13	1703.91
526.32	1703.91
526.52	1791.97
526.72	1785.83
526.92	1697.77
527.12	1667.05
527.32	1671.14
527.52	1757.16
527.71	1763.30
527.91	1730.53
528.11	1681.38
528.31	1789.92
528.51	1681.38
528.71	1763.30
528.90	1740.77
529.10	1732.58
529.30	1796.07
529.50	1605.61
529.70	1828.84
529.90	1736.68
530.09	1701.86
530.29	1634.28
530.49	1753.06
530.69	1910.75
530.89	1816.55
531.09	1785.83
531.28	1652.71
531.48	1751.01
531.68	1720.29
531.88	1746.92
532.08	1789.92
532.28	1685.48
532.47	1800.16
532.67	1880.04
532.87	1777.64
533.07	1703.91
533.27	1744.87
533.46	1769.44
533.66	1742.82
533.86	1759.21
534.06	1726.44
534.26	1767.40
534.45	1820.64
534.65	1771.49
534.85	1841.12
535.05	1773.54
535.25	1791.97
535.44	1677.29
535.64	1773.54
535.84	1646.57
536.04	1689.57
536.24	1685.48
536.43	1691.62
536.63	1710.05
536.83	1808.36
537.03	1712.10
537.22	1650.66
537.42	1617.90
537.62	1734.63
537.82	1667.05
538.02	1804.26
538.21	1830.88
538.41	1855.46
538.61	1810.40
538.81	1695.72
539.00	1849.32
539.20	1656.81
539.40	1753.06
539.60	1718.25
539.79	1751.01
539.99	1812.45
540.19	1632.23
540.39	1683.43
540.58	1718.25
540.78	1763.30
540.98	1761.25
541.18	1769.44
541.37	1763.30
541.57	1660.90
541.77	1738.73
541.97	1685.48
542.16	1662.95
542.36	1705.96
542.56	1693.67
542.76	1894.37
542.95	1818.60
543.15	1777.64
543.35	1751.01
543.54	1753.06
543.74	1675.24
543.94	1777.64
544.14	1718.25
544.33	1769.44
544.53	1667.05
544.73	1744.87
544.93	1716.20
545.12	1681.38
545.32	1724.39
545.52	1767.40
545.71	1796.07
545.91	1759.21
546.11	1722.34
546.30	1699.81
546.50	1722.34
546.70	1775.59
546.90	1777.64
547.09	1621.99
547.29	1689.57
547.49	1804.26
547.68	1718.25
547.88	1708.01
548.08	1787.88
548.27	2246.62
548.47	1701.86
548.67	1648.61
548.87	1734.63
549.06	1753.06
549.26	1679.33
549.46	1726.44
549.65	1724.39
549.85	1763.30
550.05	1787.88
550.24	1699.81
550.44	1718.25
550.64	1746.92
550.83	1656.81
551.03	1746.92
551.23	1779.68
551.42	1767.40
551.62	1701.86
551.82	1718.25
552.01	1712.10
552.21	1787.88
552.41	1755.11
552.60	1751.01
552.80	1742.82
553.00	1699.81
553.19	1789.92
553.39	1851.36
553.59	1677.29
553.78	1779.68
553.98	1759.21
554.17	1716.20
554.37	1753.06
554.57	1738.73
554.76	1710.05
554.96	1665.00
555.16	1789.92
555.35	1787.88
555.55	1816.55
555.75	1732.58
555.94	1765.35
556.14	1626.09
556.33	1779.68
556.53	1736.68
556.73	1771.49
556.92	1763.30
557.12	1943.52
557.32	1863.65
557.51	1806.31
557.71	1787.88
557.90	1910.75
558.10	1877.99
558.30	1705.96
558.49	1720.29
558.69	1728.49
558.88	1734.63
559.08	1755.11
559.28	1656.81
559.47	1814.50
559.67	1814.50
559.86	1820.64
560.06	1718.25
560.26	1718.25
560.45	1640.42
560.65	1710.05
560.84	1800.16
561.04	1791.97
561.24	1802.21
561.43	1660.90
561.63	1837.03
561.82	1826.79
562.02	1779.68
562.22	1701.86
562.41	1734.63
562.61	1699.81
562.80	1675.24
563.00	1896.42
563.19	1751.01
563.39	1837.03
563.59	1732.58
563.78	1701.86
563.98	1646.57
564.17	1804.26
564.37	1662.95
564.56	1667.05
564.76	1665.00
564.96	1904.61
565.15	1816.55
565.35	1880.04
565.54	1740.77
565.74	1726.44
565.93	1800.16
566.13	1705.96
566.32	1804.26
566.52	1769.44
566.71	1837.03
566.91	1789.92
567.11	1730.53
567.30	1675.24
567.50	1769.44
567.69	1818.60
567.89	1812.45
568.08	1720.29
568.28	1755.11
568.47	1689.57
568.67	1800.16
568.86	1708.01
569.06	1746.92
569.25	1736.68
569.45	1654.76
569.64	1691.62
569.84	1636.33
570.04	1759.21
570.23	1671.14
570.43	1656.81
570.62	1734.63
570.82	1796.07
571.01	1599.46
571.21	1771.49
571.40	1607.66
571.60	1785.83
571.79	1771.49
571.99	1773.54
572.18	1736.68
572.38	1773.54
572.57	1753.06
572.77	1714.15
572.96	1839.08
573.16	1730.53
573.35	1730.53
573.55	1783.78
573.74	1732.58
573.94	1736.68
574.13	1767.40
574.33	1804.26
574.52	1767.40
574.71	1705.96
574.91	1742.82
575.10	1748.97
575.30	1710.05
575.49	1740.77
575.69	1695.72
575.88	1806.31
576.08	1730.53
576.27	1751.01
576.47	1748.97
576.66	1906.66
576.86	1859.56
577.05	1705.96
577.25	1812.45
577.44	1968.10
577.64	1712.10
577.83	1886.18
578.02	1748.97
578.22	1896.42
578.41	1857.51
578.61	1753.06
578.80	1644.52
579.00	1783.78
579.19	1794.02
579.39	1818.60
579.58	1816.55
579.77	1828.84
579.97	1810.40
580.16	1818.60
580.36	1789.92
580.55	1804.26
580.75	1841.12
580.94	1816.55
581.13	1849.32
581.33	1857.51
581.52	1796.07
581.72	1859.56
581.91	1937.38
582.11	1800.16
582.30	1828.84
582.49	1732.58
582.69	1890.28
582.88	1800.16
583.08	1857.51
583.27	1818.60
583.47	1759.21
583.66	1697.77
583.85	1665.00
584.05	1820.64
584.24	1808.36
584.44	1822.69
584.63	1783.78
584.82	1861.60
585.02	1920.99
585.21	1853.41
585.41	1988.58
585.60	1875.94
585.79	1974.24
585.99	1951.71
586.18	1957.86
586.37	2265.05
586.57	3352.52
586.76	9865.07
586.96	27182.69
587.15	41934.21
587.34	51031.29
587.54	57967.76
587.73	55817.39
587.93	40209.82
588.12	29525.57
588.31	23830.16
588.51	20391.62
588.70	18507.49
588.89	17123.07
589.09	15417.11
589.28	13500.21
589.47	11286.36
589.67	9420.66
589.86	7235.47
590.06	5363.63
590.25	4116.42
590.44	3229.65
590.64	2590.68
590.83	2252.77
591.02	2101.22
591.22	1959.91
591.41	1857.51
591.60	1853.41
591.80	1920.99
591.99	1777.64
592.18	1828.84
592.38	1789.92
592.57	1767.40
592.76	1734.63
592.96	1841.12
593.15	1757.16
593.34	1886.18
593.54	1775.59
593.73	1875.94
593.92	1847.27
594.12	1896.42
594.31	1808.36
594.50	1896.42
594.70	1920.99
594.89	1998.82
595.08	1697.77
595.28	1773.54
595.47	1976.29
595.66	1751.01
595.86	1751.01
596.05	1740.77
596.24	1693.67
596.43	1826.79
596.63	1849.32
596.82	1789.92
597.01	1798.12
597.21	1877.99
597.40	1828.84
597.59	1746.92
597.79	1757.16
597.98	1837.03
598.17	1761.25
598.36	1699.81
598.56	1822.69
598.75	1708.01
598.94	1816.55
599.14	1738.73
599.33	1718.25
599.52	1861.60
599.71	1746.92
599.91	1855.46
600.10	1730.53
600.29	1718.25
600.48	1775.59
600.68	1777.64
600.87	1763.30
601.06	1679.33
601.26	1755.11
601.45	1779.68
601.64	1724.39
601.83	1789.92
602.03	1742.82
602.22	1665.00
602.41	1857.51
602.60	1896.42
602.80	1837.03
602.99	1806.31
603.18	1726.44
603.37	1816.55
603.57	1814.50
603.76	1779.68
603.95	1843.17
604.14	1718.25
604.34	1730.53
604.53	1781.73
604.72	1738.73
604.91	1877.99
605.10	1742.82
605.30	1687.53
605.49	1808.36
605.68	1763.30
605.87	1730.53
606.07	1662.95
606.26	1779.68
606.45	1798.12
606.64	1751.01
606.84	1732.58
607.03	1794.02
607.22	1896.42
607.41	1804.26
607.60	1822.69
607.80	1867.75
607.99	1785.83
608.18	1804.26
608.37	1720.29
608.56	1708.01
608.76	1783.78
608.95	1925.09
609.14	1775.59
609.33	1900.52
609.52	1871.84
609.72	1769.44
609.91	1943.52
610.10	1757.16
610.29	1843.17
610.48	1761.25
610.68	1847.27
610.87	1773.54
611.06	1806.31
611.25	1748.97
611.44	1816.55
611.63	1632.23
611.83	1894.37
612.02	1689.57
612.21	1814.50
612.40	1675.24
612.59	1716.20
612.79	1685.48
612.98	1777.64
613.17	1773.54
613.36	1730.53
613.55	1820.64
613.74	1810.40
613.93	1865.70
614.13	1863.65
614.32	1990.63
614.51	1888.23
614.70	1865.70
614.89	1767.40
615.08	1875.94
615.28	2058.21
615.47	1791.97
615.66	1794.02
615.85	1789.92
616.04	1867.75
616.23	1824.74
616.42	1771.49
616.62	1845.22
616.81	1882.08
617.00	1685.48
617.19	1818.60
617.38	1734.63
617.57	1718.25
617.76	1828.84
617.95	1740.77
618.15	1767.40
618.34	1802.21
618.53	1701.86
618.72	1857.51
618.91	1765.35
619.10	1853.41
619.29	1748.97
619.48	1738.73
619.68	1730.53
619.87	1675.24
620.06	1648.61
620.25	1732.58
620.44	1791.97
620.63	1697.77
620.82	1734.63
621.01	1751.01
621.20	1787.88
621.39	1812.45
621.59	1796.07
621.78	1800.16
621.97	1783.78
622.16	1886.18
622.35	1796.07
622.54	1744.87
622.73	1773.54
622.92	1705.96
623.11	1906.66
623.30	1718.25
623.49	1748.97
623.68	1630.18
623.88	1806.31
624.07	1738.73
624.26	1765.35
624.45	1779.68
624.64	1658.85
624.83	1654.76
625.02	1646.57
625.21	1714.15
625.40	1722.34
625.59	1812.45
625.78	1765.35
625.97	1896.42
626.16	1839.08
626.35	1871.84
626.54	1812.45
626.74	1890.28
626.93	1808.36
627.12	1771.49
627.31	1771.49
627.50	1779.68
627.69	1806.31
627.88	1658.85
628.07	1699.81
628.26	1734.63
628.45	1665.00
628.64	1673.19
628.83	1769.44
629.02	1712.10
629.21	1773.54
629.40	1787.88
629.59	1697.77
629.78	1677.29
629.97	1755.11
630.16	1810.40
630.35	1728.49
630.54	1728.49
630.73	1658.85
630.92	1701.86
631.11	1673.19
631.30	1742.82
631.49	1798.12
631.68	1740.77
631.87	1726.44
632.06	1732.58
632.25	1865.70
632.44	1757.16
632.63	1812.45
632.82	1720.29
633.01	1761.25
633.20	1912.80
633.39	1787.88
633.58	1705.96
633.77	1781.73
633.96	1853.41
634.15	1832.93
634.34	1779.68
634.53	1810.40
634.72	1658.85
634.91	1746.92
635.10	1705.96
635.29	1779.68
635.48	1687.53
635.67	1705.96
635.86	1648.61
636.05	1812.45
636.24	1771.49
636.43	1746.92
636.62	1751.01
636.81	1550.31
637.00	1763.30
637.19	1775.59
637.38	1722.34
637.57	1800.16
637.76	1742.82
637.95	1798.12
638.14	1822.69
638.33	1818.60
638.52	1785.83
638.71	1708.01
638.89	1691.62
639.08	1853.41
639.27	1755.11
639.46	1890.28
639.65	2148.32
639.84	2230.24
640.03	2342.88
640.22	2287.58
640.41	2432.99
640.60	1972.19
640.79	2017.25
640.98	1957.86
641.17	1890.28
641.36	1912.80
641.55	1910.75
641.74	1742.82
641.92	1861.60
642.11	1814.50
642.30	1753.06
642.49	1796.07
642.68	1705.96
642.87	1726.44
643.06	1753.06
643.25	1716.20
643.44	1697.77
643.63	1767.40
643.82	1877.99
644.00	1708.01
644.19	1677.29
644.38	1662.95
644.57	1789.92
644.76	1751.01
644.95	1759.21
645.14	1773.54
645.33	1662.95
645.52	1742.82
645.71	1642.47
645.89	1648.61
646.08	1673.19
646.27	1683.43
646.46	1802.21
646.65	1656.81
646.84	1763.30
647.03	1621.99
647.22	1771.49
647.40	1751.01
647.59	1677.29
647.78	1638.38
647.97	1681.38
648.16	1589.22
648.35	1804.26
648.54	1851.36
648.73	1767.40
648.91	1714.15
649.10	1734.63
649.29	1638.38
649.48	1726.44
649.67	1740.77
649.86	1742.82
650.05	1783.78
650.23	1914.85
650.42	1851.36
650.61	1970.15
650.80	1880.04
650.99	1873.89
651.18	1822.69
651.36	1832.93
651.55	1722.34
651.74	1765.35
651.93	1720.29
652.12	1730.53
652.31	1681.38
652.49	1769.44
652.68	1705.96
652.87	1834.98
653.06	1798.12
653.25	1886.18
653.44	1814.50
653.62	1783.78
653.81	1746.92
654.00	1679.33
654.19	1796.07
654.38	1839.08
654.56	1755.11
654.75	1710.05
654.94	1843.17
655.13	1746.92
655.32	1783.78
655.51	1843.17
655.69	1642.47
655.88	1808.36
656.07	1613.80
656.26	1820.64
656.45	1687.53
656.63	1740.77
656.82	1757.16
657.01	1695.72
657.20	1708.01
657.38	1771.49
657.57	1656.81
657.76	1675.24
657.95	1847.27
658.14	1654.76
658.32	1740.77
658.51	1751.01
658.70	1779.68
658.89	1742.82
659.08	1716.20
659.26	1845.22
659.45	1757.16
659.64	1806.31
659.83	1720.29
660.01	1976.29
660.20	1759.21
660.39	1855.46
660.58	1624.04
660.76	1701.86
660.95	1728.49
661.14	1806.31
661.33	1605.61
661.51	1775.59
661.70	1681.38
661.89	1689.57
662.08	1701.86
662.26	1650.66
662.45	1683.43
662.64	1785.83
662.83	1802.21
663.01	1689.57
663.20	1679.33
663.39	1839.08
663.58	1726.44
663.76	1753.06
663.95	1779.68
664.14	1644.52
664.32	1746.92
664.51	1642.47
664.70	1691.62
664.89	1714.15
665.07	1689.57
665.26	1783.78
665.45	1675.24
665.64	1746.92
665.82	1791.97
666.01	1796.07
666.20	1724.39
666.38	1845.22
666.57	1816.55
666.76	2234.33
666.95	4483.00
667.13	11380.56
667.32	18446.05
667.51	22023.86
667.69	24811.14
667.88	25419.39
668.07	19603.16
668.25	14350.12
668.44	11669.33
668.63	9783.15
668.81	8595.32
669.00	7681.93
669.19	7055.25
669.38	6188.96
669.56	5187.50
669.75	4485.05
669.94	3786.69
670.12	3074.00
670.31	2648.02
670.50	2414.56
670.68	2105.31
670.87	1949.67
671.06	1845.22
671.24	1896.42
671.43	1851.36
671.62	1843.17
671.80	1816.55
671.99	1763.30
672.18	1744.87
672.36	1814.50
672.55	1818.60
672.74	1746.92
672.92	1771.49
673.11	1691.62
673.29	1658.85
673.48	1808.36
673.67	1693.67
673.85	1765.35
674.04	1765.35
674.23	1701.86
674.41	1857.51
674.60	1667.05
674.79	1695.72
674.97	1710.05
675.16	1648.61
675.34	1785.83
675.53	1744.87
675.72	1734.63
675.90	1828.84
676.09	1730.53
676.28	1699.81
676.46	1632.23
676.65	1726.44
676.83	1685.48
677.02	1730.53
677.21	1722.34
677.39	1710.05
677.58	1685.48
677.77	1611.75
677.95	1632.23
678.14	1742.82
678.32	1693.67
678.51	1701.86
678.70	1841.12
678.88	1673.19
679.07	1771.49
679.25	1720.29
679.44	1720.29
679.63	1669.09
679.81	1699.81
680.00	1826.79
680.18	1773.54
680.37	1894.37
680.55	1677.29
680.74	1601.51
680.93	1671.14
681.11	1755.11
681.30	1734.63
681.48	1677.29
681.67	1781.73
681.85	1734.63
682.04	1615.85
682.23	1736.68
682.41	1718.25
682.60	1632.23
682.78	1738.73
682.97	1638.38
683.15	1720.29
683.34	1677.29
683.53	1773.54
683.71	1650.66
683.90	1851.36
684.08	1785.83
684.27	1703.91
684.45	1767.40
684.64	1675.24
684.82	1691.62
685.01	1693.67
685.19	1728.49
685.38	1798.12
685.57	1648.61
685.75	1636.33
685.94	1718.25
686.12	1736.68
686.31	1724.39
686.49	1830.88
686.68	1699.81
686.86	1746.92
687.05	1679.33
687.23	1847.27
687.42	1611.75
687.60	1646.57
687.79	1777.64
687.97	1849.32
688.16	1789.92
688.34	1816.55
688.53	1611.75
688.71	1769.44
688.90	1777.64
689.08	1691.62
689.27	1669.09
689.45	1691.62
689.64	1787.88
689.82	1730.53
690.01	1685.48
690.19	1781.73
690.38	1726.44
690.56	1748.97
690.75	1679.33
690.93	1656.81
691.12	1730.53
691.30	1730.53
691.49	1683.43
691.67	1791.97
691.86	1787.88
692.04	1722.34
692.23	1689.57
692.41	1765.35
692.60	1904.61
692.78	1886.18
692.97	1769.44
693.15	1806.31
693.34	1904.61
693.52	1761.25
693.71	1726.44
693.89	1722.34
694.08	1669.09
694.26	1777.64
694.44	1806.31
694.63	1865.70
694.81	1718.25
695.00	1683.43
695.18	1777.64
695.37	1941.47
695.55	1726.44
695.74	1675.24
695.92	1665.00
696.10	1837.03
696.29	1644.52
696.47	1714.15
696.66	1669.09
696.84	1675.24
697.03	1685.48
697.21	1841.12
697.40	2318.30
697.58	1740.77
697.76	1689.57
697.95	1708.01
698.13	1632.23
698.32	1748.97
698.50	1759.21
698.68	1763.30
698.87	1748.97
699.05	1849.32
699.24	1710.05
699.42	1677.29
699.61	1675.24
699.79	1755.11
699.97	1699.81
700.16	1667.05
700.34	1648.61
700.53	1751.01
700.71	1767.40
700.89	1765.35
701.08	1734.63
701.26	1679.33
701.45	2152.42
701.63	1703.91
701.81	1697.77
702.00	1705.96
702.18	1759.21
702.37	1796.07
702.55	1804.26
702.73	1884.13
702.92	1880.04
703.10	1984.48
703.28	1970.15
703.47	1853.41
703.65	1918.95
703.84	1955.81
704.02	1796.07
704.20	1873.89
704.39	1761.25
704.57	1802.21
704.75	1820.64
704.94	1871.84
705.12	1738.73
705.30	1896.42
705.49	2461.66
705.67	5498.80
705.86	13147.96
706.04	19113.69
706.22	22570.66
706.41	25177.73
706.59	24360.59
706.77	19070.68
706.96	13571.89
707.14	11870.03
707.32	10012.52
707.51	9060.21
707.69	7864.20
707.87	6666.14
708.06	5396.40
708.24	4327.36
708.42	3272.65
708.61	2834.39
708.79	2168.80
708.97	2052.06
709.16	1984.48
709.34	1822.69
709.52	1785.83
709.71	1714.15
709.89	1787.88
710.07	1669.09
710.26	1654.76
710.44	1757.16
710.62	1753.06
710.80	1777.64
710.99	1783.78
711.17	1791.97
711.35	1681.38
711.54	1710.05
711.72	1787.88
711.90	1796.07
712.09	1714.15
712.27	1660.90
712.45	1791.97
712.63	1665.00
712.82	1783.78
713.00	1802.21
713.18	1773.54
713.37	1775.59
713.55	1757.16
713.73	1751.01
713.91	1675.24
714.10	1716.20
714.28	1722.34
714.46	1761.25
714.65	1716.20
714.83	1734.63
715.01	1728.49
715.19	1675.24
715.38	1748.97
715.56	1665.00
715.74	1667.05
715.92	1619.94
716.11	1816.55
716.29	1558.50
716.47	1650.66
716.65	1671.14
716.84	1662.95
717.02	1779.68
717.20	1572.84
717.38	1681.38
717.57	1716.20
717.75	1695.72
717.93	1607.66
718.11	1718.25
718.30	1687.53
718.48	1773.54
718.66	1753.06
718.84	1781.73
719.03	1738.73
719.21	1644.52
719.39	1769.44
719.57	1689.57
719.75	1853.41
719.94	1626.09
720.12	1574.89
720.30	1804.26
720.48	1687.53
720.67	1650.66
720.85	1728.49
721.03	1779.68
721.21	1673.19
721.39	1798.12
721.58	1763.30
721.76	1671.14
721.94	1732.58
722.12	1785.83
722.30	1773.54
722.49	1748.97
722.67	1728.49
722.85	1716.20
723.03	1687.53
723.21	1685.48
723.40	1753.06
723.58	1732.58
723.76	1806.31
723.94	1822.69
724.12	1728.49
724.30	1892.32
724.49	1789.92
724.67	1685.48
724.85	1828.84
725.03	1710.05
725.21	1804.26
725.40	1841.12
725.58	1667.05
725.76	1781.73
725.94	1753.06
726.12	1728.49
726.30	1687.53
726.49	1667.05
726.67	1656.81
726.85	1736.68
727.03	1804.26
727.21	2367.45
727.39	3407.82
727.57	4831.16
727.76	5590.95
727.94	6240.16
728.12	6268.83
728.30	5535.66
728.48	4511.68
728.66	3932.10
728.84	3497.93
729.03	3170.26
729.21	2854.87
729.39	2480.09
729.57	2050.02
729.75	1968.10
729.93	1794.02
730.11	1787.88
730.30	1781.73
730.48	1693.67
730.66	1812.45
730.84	1810.40
731.02	1763.30
731.20	1669.09
731.38	1685.48
731.56	1705.96
731.74	1570.79
731.93	1755.11
732.11	1753.06
732.29	1701.86
732.47	1718.25
732.65	1656.81
732.83	1812.45
733.01	1802.21
733.19	1732.58
733.37	1703.91
733.56	1736.68
733.74	1712.10
733.92	1748.97
734.10	1660.90
734.28	1695.72
734.46	1714.15
734.64	1660.90
734.82	1675.24
735.00	1665.00
735.18	1732.58
735.36	1724.39
735.54	1673.19
735.73	1705.96
735.91	1800.16
736.09	1773.54
736.27	1787.88
736.45	1703.91
736.63	1609.70
736.81	1656.81
736.99	1753.06
737.17	1841.12
737.35	1642.47
737.53	1681.38
737.71	1701.86
737.89	1820.64
738.07	1714.15
738.25	1724.39
738.43	1708.01
738.61	1665.00
738.80	1665.00
738.98	1662.95
739.16	1634.28
739.34	1695.72
739.52	1738.73
739.70	1669.09
739.88	1685.48
740.06	1789.92
740.24	1654.76
740.42	1710.05
740.60	1703.91
740.78	1660.90
740.96	1599.46
741.14	1699.81
741.32	1683.43
741.50	1648.61
741.68	1763.30
741.86	1771.49
742.04	1656.81
742.22	1652.71
742.40	1689.57
742.58	1742.82
742.76	1648.61
742.94	1746.92
743.12	1679.33
743.30	1734.63
743.48	1765.35
743.66	1740.77
743.84	1722.34
744.02	1765.35
744.20	1783.78
744.38	1634.28
744.56	1699.81
744.74	1804.26
744.92	1761.25
745.10	1746.92
745.28	1673.19
745.46	1771.49
745.64	1701.86
745.82	1728.49
746.00	1722.34
746.18	1748.97
746.36	1697.77
746.54	1755.11
746.72	1685.48
746.90	1679.33
747.08	1771.49
747.26	1689.57
747.44	1742.82
747.62	1832.93
747.80	1687.53
747.98	1824.74
748.15	1677.29
748.33	1839.08
748.51	1746.92
748.69	1771.49
748.87	1662.95
749.05	1724.39
749.23	1658.85
749.41	1763.30
749.59	1656.81
749.77	1765.35
749.95	1767.40
750.13	1703.91
750.31	1751.01
750.49	1648.61
750.67	1785.83
750.85	1779.68
751.03	1646.57
751.20	1853.41
751.38	1796.07
751.56	1693.67
751.74	1734.63
751.92	1740.77
752.10	1619.94
752.28	1748.97
752.46	1677.29
752.64	1705.96
752.82	1699.81
753.00	1705.96
753.18	1689.57
753.35	1677.29
753.53	1730.53
753.71	1660.90
753.89	1839.08
754.07	1728.49
754.25	1736.68
754.43	1816.55
754.61	1697.77
754.79	1699.81
754.97	1722.34
755.14	1748.97
755.32	1644.52
755.50	1730.53
755.68	1722.34
755.86	1640.42
756.04	1689.57
756.22	1581.03
756.40	1820.64
756.57	1787.88
756.75	1628.14
756.93	1759.21
757.11	1691.62
757.29	1648.61
757.47	1753.06
757.65	1587.18
757.82	1581.03
758.00	1693.67
758.18	1597.42
758.36	1667.05
758.54	1771.49
758.72	1648.61
758.90	1705.96
759.07	1724.39
759.25	1662.95
759.43	1720.29
759.61	1667.05
759.79	2234.33
759.97	1751.01
760.15	1669.09
760.32	1757.16
760.50	1730.53
760.68	1734.63
760.86	1740.77
761.04	1771.49
761.22	1769.44
761.39	1789.92
761.57	1671.14
761.75	1660.90
761.93	1703.91
762.11	1644.52
762.28	1720.29
762.46	1613.80
762.64	1761.25
762.82	1679.33
763.00	1621.99
763.18	1738.73
763.35	1685.48
763.53	1730.53
763.71	1681.38
763.89	1771.49
764.07	1730.53
764.24	1746.92
764.42	1812.45
764.60	1675.24
764.78	1794.02
764.96	1804.26
765.13	1796.07
765.31	1669.09
765.49	1794.02
765.67	1562.60
765.84	1648.61
766.02	1714.15
766.20	1628.14
766.38	1714.15
766.56	1767.40
766.73	1757.16
766.91	1701.86
767.09	1751.01
767.27	1839.08
767.44	1691.62
767.62	1755.11
767.80	1710.05
767.98	1636.33
768.15	1624.04
768.33	1757.16
768.51	1798.12
768.69	1746.92
768.87	1705.96
769.04	1677.29
769.22	1787.88
769.40	1777.64
769.58	1886.18
769.75	1753.06
769.93	1849.32
770.11	1740.77
770.28	1708.01
770.46	1726.44
770.64	1767.40
770.82	1683.43
770.99	1662.95
771.17	1701.86
771.35	1703.91
771.53	1722.34
771.70	1675.24
771.88	1744.87
772.06	1687.53
772.23	1636.33
772.41	1697.77
772.59	1769.44
772.77	1644.52
772.94	1697.77
773.12	1755.11
773.30	1626.09
773.47	1736.68
773.65	1669.09
773.83	1796.07
774.01	1660.90
774.18	1617.90
774.36	1675.24
774.54	1665.00
774.71	1794.02
774.89	1562.60
775.07	1689.57
775.24	1636.33
775.42	1675.24
775.60	1845.22
775.78	1748.97
775.95	1665.00
776.13	1593.32
776.31	1636.33
776.48	1763.30
776.66	1798.12
776.84	1675.24
777.01	1652.71
777.19	1701.86
777.37	1675.24
777.54	1751.01
777.72	1841.12
777.90	1697.77
778.07	1718.25
778.25	1949.67
778.43	1798.12
778.60	1689.57
778.78	1789.92
778.96	1777.64
779.13	1708.01
779.31	1724.39
779.49	1650.66
779.66	1732.58
779.84	1673.19
780.01	1740.77
780.19	1656.81
780.37	1742.82
780.54	1714.15
780.72	1685.48
780.90	1615.85
781.07	1714.15
781.25	1673.19
781.43	1783.78
781.60	1732.58
781.78	1820.64
781.95	1755.11
782.13	1626.09
782.31	1695.72
782.48	1652.71
782.66	1675.24
782.83	1810.40
783.01	1744.87
783.19	1779.68
783.36	1722.34
783.54	1656.81
783.72	1679.33
783.89	1701.86
784.07	1701.86
784.24	1773.54
784.42	1781.73
784.60	1759.21
784.77	1718.25
784.95	1595.37
785.12	1642.47
785.30	1660.90
785.47	1619.94
785.65	1687.53
785.83	1685.48
786.00	1703.91
786.18	1701.86
786.35	1667.05
786.53	1644.52
786.71	1767.40
786.88	1789.92
787.06	1800.16
787.23	1728.49
787.41	1593.32
787.58	1705.96
787.76	1679.33
787.94	1759.21
788.11	1705.96
788.29	1656.81
788.46	1697.77
788.64	1660.90
788.81	1628.14
788.99	1660.90
789.16	1683.43
789.34	1708.01
789.52	1681.38
789.69	1675.24
789.87	1583.08
790.04	1648.61
790.22	1626.09
790.39	1865.70
790.57	1673.19
790.74	1669.09
790.92	1732.58
791.09	1634.28
791.27	1679.33
791.44	1763.30
791.62	1751.01
791.79	1728.49
791.97	1665.00
792.15	1873.89
792.32	1726.44
792.50	1718.25
792.67	1699.81
792.85	1820.64
793.02	1699.81
793.20	1650.66
793.37	1701.86
793.55	1662.95
793.72	1646.57
793.90	1740.77
794.07	1685.48
794.25	1671.14
794.42	1779.68
794.60	1705.96
794.77	1755.11
794.95	1740.77
795.12	1755.11
795.30	1677.29
795.47	1574.89
795.65	1882.08
795.82	1746.92
796.00	1615.85
796.17	1708.01
796.34	1675.24
796.52	1773.54
796.69	1763.30
796.87	1769.44
797.04	1787.88
797.22	1783.78
797.39	1665.00
797.57	1744.87
797.74	1681.38
797.92	1791.97
798.09	1699.81
798.27	1779.68
798.44	1714.15
798.62	1660.90
798.79	1718.25
798.96	1763.30
799.14	1730.53
799.31	1814.50
799.49	1667.05
799.66	1738.73
799.84	1718.25
800.01	1624.04
800.19	1689.57
800.36	1587.18
800.53	1693.67
800.71	1703.91
800.88	1800.16
801.06	1751.01
801.23	1628.14
801.41	1701.86
801.58	1665.00
801.75	1646.57
801.93	1697.77
802.10	1759.21
802.28	1773.54
802.45	1746.92
802.63	1714.15
802.80	1841.12
802.97	1703.91
803.15	1634.28
803.32	1746.92
803.50	1685.48
803.67	1701.86
803.84	1644.52
804.02	1736.68
804.19	1640.42
804.37	1607.66
804.54	1714.15
804.71	1693.67
804.89	1769.44
805.06	1677.29
805.24	1681.38
805.41	1650.66
805.58	1617.90
805.76	1720.29
805.93	1746.92
806.10	1830.88
806.28	1697.77
806.45	1712.10
806.63	1718.25
806.80	1724.39
806.97	1705.96
807.15	1783.78
807.32	1679.33
807.49	1738.73
807.67	1648.61
807.84	1667.05
808.01	1527.78
808.19	1822.69
808.36	1837.03
808.54	1708.01
808.71	1632.23
808.88	1742.82
809.06	1787.88
809.23	1738.73
809.40	1673.19
809.58	1769.44
809.75	1689.57
809.92	1658.85
810.10	1884.13
810.27	1730.53
810.44	1753.06
810.62	1757.16
810.79	1665.00
810.96	1691.62
811.14	1656.81
811.31	1755.11
811.48	1695.72
811.66	1630.18
811.83	1828.84
812.00	1724.39
812.18	1808.36
812.35	1771.49
812.52	1697.77
812.69	1658.85
812.87	1685.48
813.04	1699.81
813.21	1683.43
813.39	1738.73
813.56	1675.24
813.73	1767.40
813.91	1640.42
814.08	1746.92
814.25	1783.78
814.42	1658.85
814.60	1673.19
814.77	1671.14
814.94	1669.09
815.12	1697.77
815.29	1818.60
815.46	1689.57
815.63	1705.96
815.81	1697.77
815.98	1669.09
816.15	1681.38
816.33	1644.52
816.50	1714.15
816.67	1681.38
816.84	1679.33
817.02	1605.61
817.19	1716.20
817.36	1710.05
817.53	1775.59
817.71	1603.56
817.88	1738.73
818.05	1718.25
818.22	1660.90
818.40	1837.03
818.57	1665.00
818.74	1746.92
818.91	1671.14
819.09	1748.97
819.26	1755.11
819.43	1667.05
819.60	1689.57
819.78	1642.47
819.95	1804.26
820.12	1671.14
820.29	1796.07
820.47	1667.05
820.64	1648.61
820.81	1685.48
820.98	1673.19
821.15	1624.04
821.33	1685.48
821.50	1583.08
821.67	1714.15
821.84	1710.05
822.02	1773.54
822.19	1732.58
822.36	1660.90
822.53	1685.48
822.70	1611.75
822.88	1630.18
823.05	1755.11
823.22	1718.25
823.39	1759.21
823.56	1722.34
823.74	1796.07
823.91	1669.09
824.08	1705.96
824.25	1624.04
824.42	1812.45
824.60	1652.71
824.77	1755.11
824.94	1728.49
825.11	1763.30
825.28	1636.33
825.45	1781.73
825.63	1646.57
825.80	1697.77
825.97	1681.38
826.14	1685.48
826.31	1675.24
826.48	1714.15
826.66	1693.67
826.83	1685.48
827.00	1656.81
827.17	1673.19
827.34	1679.33
827.51	1748.97
827.69	1726.44
827.86	1558.50
828.03	1763.30
828.20	1730.53
828.37	1665.00
828.54	1636.33
828.71	1662.95
828.89	1763.30
829.06	1667.05
829.23	1771.49
829.40	1685.48
829.57	1720.29
829.74	1656.81
829.91	1734.63
830.09	1669.09
830.26	1849.32
830.43	1767.40
830.60	1644.52
830.77	1755.11
830.94	1687.53
831.11	1712.10
831.28	1771.49
831.46	1746.92
831.63	1658.85
831.80	1800.16
831.97	1697.77
832.14	1687.53
832.31	1699.81
832.48	1761.25
832.65	1751.01
832.82	1654.76
832.99	1687.53
833.17	1710.05
833.34	1757.16
833.51	1667.05
833.68	1656.81
833.85	1810.40
834.02	1675.24
834.19	1644.52
834.36	1693.67
834.53	1748.97
834.70	1759.21
834.87	1800.16
835.04	1689.57
835.22	1652.71
835.39	1654.76
835.56	1669.09
835.73	1665.00
835.90	1757.16
836.07	1712.10
836.24	1804.26
836.41	1656.81
836.58	1652.71
836.75	1804.26
836.92	1734.63
837.09	1675.24
837.26	1734.63
837.43	1673.19
837.60	1814.50
837.77	1710.05
837.94	1712.10
838.12	1789.92
838.29	1738.73
838.46	1601.51
838.63	1677.29
838.80	1802.21
838.97	1763.30
839.14	1652.71
839.31	1703.91
839.48	1785.83
839.65	1726.44
839.82	1710.05
839.99	1669.09
840.16	1681.38
840.33	1736.68
840.50	1736.68
840.67	1619.94
840.84	1552.36
841.01	1697.77
841.18	1660.90
841.35	1636.33
841.52	1755.11
841.69	1796.07
841.86	1759.21
842.03	1679.33
842.20	1726.44
842.37	1703.91
842.54	1660.90
842.71	1730.53
842.88	1691.62
843.05	1746.92
843.22	1681.38
843.39	1683.43
843.56	1708.01
843.73	1685.48
843.90	1736.68
844.07	1601.51
844.24	1826.79
844.41	1736.68
844.58	1685.48
844.75	1679.33
844.92	1767.40
845.09	1654.76
845.26	1705.96
845.43	1736.68
845.60	1662.95
845.77	1787.88
845.94	1771.49
846.10	1673.19
846.27	1691.62
846.44	1691.62
846.61	1685.48
846.78	1820.64
846.95	1708.01
847.12	1648.61
847.29	1712.10
847.46	1665.00
847.63	1834.98
847.80	1685.48
847.97	1656.81
848.14	1820.64
848.31	1642.47
848.48	1572.84
848.65	1636.33
848.82	1742.82
848.98	1845.22
849.15	1722.34
849.32	1804.26
849.49	1740.77
849.66	1695.72
849.83	1742.82
850.00	1746.92
850.17	1814.50
850.34	1701.86
850.51	1701.86
850.68	1685.48
850.85	1828.84
851.01	1740.77
851.18	1755.11
851.35	1681.38
851.52	1691.62
851.69	1703.91
851.86	1607.66
852.03	1718.25
852.20	1753.06
852.37	1681.38
852.53	1585.13
852.70	1689.57
852.87	1687.53
853.04	1732.58
853.21	1683.43
853.38	1751.01
853.55	1759.21
853.72	1746.92
853.89	1705.96
854.05	1652.71
854.22	1652.71
854.39	1665.00
854.56	1677.29
854.73	1796.07
854.90	1656.81
855.07	1681.38
855.23	1630.18
855.40	1687.53
855.57	1660.90
855.74	1599.46
855.91	1902.56
856.08	1585.13
856.25	1714.15
856.41	1648.61
856.58	1683.43
856.75	1644.52
856.92	1583.08
857.09	1763.30
857.26	1630.18
857.42	1708.01
857.59	1775.59
857.76	1685.48
857.93	1736.68
858.10	1607.66
858.27	1621.99
858.43	1675.24
858.60	1679.33
858.77	1652.71
858.94	1648.61
859.11	1751.01
859.27	1738.73
859.44	1751.01
859.61	1822.69
859.78	1705.96
859.95	1716.20
860.12	1624.04
860.28	1734.63
860.45	1740.77
860.62	1675.24
860.79	1662.95
860.95	1732.58
861.12	1675.24
861.29	1685.48
861.46	1705.96
861.63	1730.53
861.79	1746.92
861.96	1691.62
862.13	1656.81
862.30	1722.34
862.47	1656.81
862.63	1624.04
862.80	1785.83
862.97	1794.02
863.14	1779.68
863.30	1683.43
863.47	1685.48
863.64	1722.34
863.81	1675.24
863.97	1710.05
864.14	1757.16
864.31	1677.29
864.48	1720.29
864.65	1652.71
864.81	1755.11
864.98	1730.53
865.15	1744.87
865.32	1796.07
865.48	1804.26
865.65	1808.36
865.82	1605.61
865.98	1685.48
866.15	1726.44
866.32	1712.10
866.49	1728.49
866.65	1771.49
866.82	1665.00
866.99	1732.58
867.16	1669.09
867.32	1642.47
867.49	1701.86
867.66	1769.44
867.83	1630.18
867.99	1660.90
868.16	1652.71
868.33	1636.33
868.49	1644.52
868.66	1730.53
868.83	1769.44
868.99	1800.16
869.16	1746.92
869.33	1767.40
869.50	1751.01
869.66	1615.85
869.83	1650.66
870.00	1617.90
870.16	1744.87
870.33	1720.29
870.50	1693.67
870.66	1697.77
870.83	1800.16
871.00	1708.01
871.17	1671.14
871.33	1722.34
871.50	1746.92
871.67	1687.53
871.83	1603.56
872.00	1716.20
872.17	1593.32
872.33	1763.30
872.50	1785.83
872.67	1712.10
872.83	1716.20
873.00	1734.63
873.17	1683.43
873.33	1779.68
873.50	1734.63
873.67	1679.33
873.83	1710.05
874.00	1689.57
874.16	1794.02
874.33	1671.14
874.50	1652.71
874.66	1751.01
874.83	1742.82
875.00	1826.79
875.16	1679.33
875.33	1673.19
875.50	1593.32
875.66	1632.23
875.83	1695.72
875.99	1812.45
876.16	1718.25
876.33	1617.90
876.49	1746.92
876.66	1718.25
876.83	1712.10
876.99	1595.37
877.16	1753.06
877.32	1667.05
877.49	1742.82
877.66	1742.82
877.82	1787.88
877.99	1751.01
878.15	1763.30
878.32	1652.71
878.49	1738.73
878.65	1701.86
878.82	1746.92
878.98	1619.94
879.15	1841.12
879.32	1781.73
879.48	1710.05
879.65	1703.91
879.81	1701.86
879.98	1734.63
880.15	1619.94
880.31	1765.35
880.48	1654.76
880.64	1771.49
880.81	1697.77
880.97	1798.12
881.14	1736.68
881.31	1634.28
881.47	1828.84
881.64	1636.33
881.80	1619.94
881.97	1730.53
882.13	1755.11
882.30	1693.67
882.47	1730.53
882.63	1673.19
882.80	1738.73
882.96	1617.90
883.13	1791.97
883.29	1644.52
883.46	1665.00
883.62	1779.68
883.79	1738.73
883.95	1730.53
884.12	1705.96
884.29	1697.77
884.45	1712.10
884.62	1781.73
884.78	1656.81
884.95	1699.81
885.11	1710.05
885.28	1628.14
885.44	1636.33
885.61	1728.49
885.77	1779.68
885.94	1685.48
886.10	1697.77
886.27	1746.92
886.43	1767.40
886.60	1771.49
886.76	1626.09
886.93	1701.86
887.09	1701.86
887.26	1615.85
887.42	1634.28
887.59	1771.49
887.75	1751.01
887.92	1816.55
888.08	1779.68
888.25	1804.26
888.41	1665.00
888.58	1665.00
888.74	1642.47
888.91	1683.43
>>>>>End Processed Spectral Data<<<<<
