SpectraSuite Data File
++++++++++++++++++++++++++++++++++++
Date: Wed May 04 18:44:45 CEST 2016
User: root
Dark Spectrum Present: No
Reference Spectrum Present: No
Number of Sampled Component Spectra: 1
Spectrometers: USB4C02835
Integration Time (usec): 100000 (USB4C02835)
Spectra Averaged: 1 (USB4C02835)
Boxcar Smoothing: 0 (USB4C02835)
Correct for Electrical Dark: No (USB4C02835)
Strobe/Lamp Enabled: No (USB4C02835)
Correct for Detector Non-linearity: No (USB4C02835)
Correct for Stray Light: No (USB4C02835)
Number of Pixels in Processed Spectrum: 3648
>>>>>Begin Processed Spectral Data<<<<<
177.47	1456.11
177.69	1456.11
177.91	1456.11
178.13	1503.21
178.36	1419.24
178.58	1638.38
178.80	1773.54
179.02	1597.42
179.24	1714.15
179.46	1667.05
179.68	1660.90
179.90	1722.34
180.13	1683.43
180.35	1724.39
180.57	1767.40
180.79	1724.39
181.01	1693.67
181.23	1779.68
181.45	1787.88
181.67	1759.21
181.90	1724.39
182.12	1589.22
182.34	1630.18
182.56	1673.19
182.78	1748.97
183.00	1732.58
183.22	1722.34
183.44	1566.70
183.66	1820.64
183.89	1800.16
184.11	1779.68
184.33	1695.72
184.55	1812.45
184.77	1779.68
184.99	1681.38
185.21	1695.72
185.43	1755.11
185.65	1755.11
185.87	1705.96
186.10	1875.94
186.32	1720.29
186.54	1685.48
186.76	1714.15
186.98	1775.59
187.20	1599.46
187.42	1685.48
187.64	1644.52
187.86	1689.57
188.08	1785.83
188.30	1644.52
188.52	1732.58
188.75	1730.53
188.97	1765.35
189.19	1658.85
189.41	1720.29
189.63	1724.39
189.85	1671.14
190.07	1560.55
190.29	1566.70
190.51	1748.97
190.73	1642.47
190.95	1761.25
191.17	1705.96
191.39	1591.27
191.61	1701.86
191.84	1650.66
192.06	1693.67
192.28	1648.61
192.50	1843.17
192.72	1777.64
192.94	1755.11
193.16	1808.36
193.38	1757.16
193.60	1656.81
193.82	1667.05
194.04	1765.35
194.26	1755.11
194.48	1746.92
194.70	1624.04
194.92	1712.10
195.14	1691.62
195.36	1615.85
195.58	1736.68
195.80	1673.19
196.02	1665.00
196.24	1660.90
196.46	1619.94
196.69	1685.48
196.91	1806.31
197.13	1640.42
197.35	1705.96
197.57	1763.30
197.79	1773.54
198.01	1738.73
198.23	1732.58
198.45	1775.59
198.67	1660.90
198.89	1726.44
199.11	1722.34
199.33	1677.29
199.55	1660.90
199.77	1667.05
199.99	1689.57
200.21	1742.82
200.43	1693.67
200.65	1632.23
200.87	1642.47
201.09	1783.78
201.31	1740.77
201.53	1767.40
201.75	1685.48
201.97	1761.25
202.19	1685.48
202.41	1744.87
202.63	1769.44
202.85	1724.39
203.07	1665.00
203.29	1740.77
203.51	1705.96
203.73	1665.00
203.95	1834.98
204.17	1761.25
204.39	1765.35
204.61	1699.81
204.83	1710.05
205.05	1816.55
205.27	1728.49
205.49	1822.69
205.71	1763.30
205.93	1603.56
206.15	1658.85
206.37	1669.09
206.59	1689.57
206.81	1646.57
207.03	1621.99
207.25	1669.09
207.47	1738.73
207.69	1691.62
207.91	1736.68
208.13	1742.82
208.34	1810.40
208.56	1552.36
208.78	1689.57
209.00	1675.24
209.22	1644.52
209.44	1742.82
209.66	1695.72
209.88	1734.63
210.10	1708.01
210.32	1703.91
210.54	1832.93
210.76	1753.06
210.98	1705.96
211.20	1617.90
211.42	1757.16
211.64	1861.60
211.86	1714.15
212.08	1708.01
212.30	1722.34
212.52	1746.92
212.74	1691.62
212.96	1730.53
213.17	1789.92
213.39	1665.00
213.61	1812.45
213.83	1798.12
214.05	1796.07
214.27	1746.92
214.49	1581.03
214.71	1677.29
214.93	1726.44
215.15	1679.33
215.37	1783.78
215.59	1634.28
215.81	1693.67
216.03	1734.63
216.24	1748.97
216.46	1714.15
216.68	1667.05
216.90	1724.39
217.12	1765.35
217.34	1683.43
217.56	1779.68
217.78	1769.44
218.00	1777.64
218.22	1771.49
218.44	1804.26
218.66	1751.01
218.87	1822.69
219.09	1701.86
219.31	1681.38
219.53	1714.15
219.75	1656.81
219.97	1671.14
220.19	1679.33
220.41	1687.53
220.63	1818.60
220.85	1791.97
221.06	1660.90
221.28	1798.12
221.50	1734.63
221.72	1728.49
221.94	1718.25
222.16	1697.77
222.38	1730.53
222.60	1746.92
222.82	1626.09
223.03	1751.01
223.25	1728.49
223.47	1777.64
223.69	1865.70
223.91	1728.49
224.13	1681.38
224.35	1630.18
224.57	1800.16
224.78	1798.12
225.00	1656.81
225.22	1673.19
225.44	1759.21
225.66	1746.92
225.88	1658.85
226.10	1761.25
226.32	1685.48
226.53	1820.64
226.75	1667.05
226.97	1720.29
227.19	1730.53
227.41	1642.47
227.63	1632.23
227.85	1646.57
228.06	1777.64
228.28	1734.63
228.50	1763.30
228.72	1650.66
228.94	1693.67
229.16	1638.38
229.37	1632.23
229.59	1708.01
229.81	1753.06
230.03	1673.19
230.25	1601.51
230.47	1628.14
230.69	1619.94
230.90	1722.34
231.12	1693.67
231.34	1646.57
231.56	1710.05
231.78	1667.05
232.00	1683.43
232.21	1611.75
232.43	1703.91
232.65	1630.18
232.87	1804.26
233.09	1695.72
233.30	1675.24
233.52	1736.68
233.74	1718.25
233.96	1673.19
234.18	1755.11
234.40	1697.77
234.61	1845.22
234.83	1675.24
235.05	1697.77
235.27	1812.45
235.49	1804.26
235.70	1712.10
235.92	1779.68
236.14	1679.33
236.36	1787.88
236.58	1619.94
236.79	1705.96
237.01	1669.09
237.23	1736.68
237.45	1845.22
237.67	1738.73
237.88	1689.57
238.10	1824.74
238.32	1671.14
238.54	1726.44
238.76	1681.38
238.97	1617.90
239.19	1624.04
239.41	1746.92
239.63	1806.31
239.85	1703.91
240.06	1753.06
240.28	1662.95
240.50	1759.21
240.72	1755.11
240.93	1701.86
241.15	1804.26
241.37	1787.88
241.59	1808.36
241.81	1683.43
242.02	1710.05
242.24	1685.48
242.46	1720.29
242.68	1597.42
242.89	1771.49
243.11	1761.25
243.33	1662.95
243.55	1773.54
243.76	1714.15
243.98	1632.23
244.20	1644.52
244.42	1765.35
244.64	1773.54
244.85	1648.61
245.07	1734.63
245.29	1773.54
245.51	1710.05
245.72	1751.01
245.94	1738.73
246.16	1642.47
246.38	1751.01
246.59	1648.61
246.81	1646.57
247.03	1593.32
247.24	1634.28
247.46	1710.05
247.68	1634.28
247.90	1677.29
248.11	1722.34
248.33	1773.54
248.55	1791.97
248.77	1740.77
248.98	1787.88
249.20	1857.51
249.42	1667.05
249.64	1757.16
249.85	1708.01
250.07	1646.57
250.29	1695.72
250.50	1701.86
250.72	1667.05
250.94	1728.49
251.16	1785.83
251.37	1738.73
251.59	1740.77
251.81	1660.90
252.02	1777.64
252.24	1662.95
252.46	1753.06
252.68	1638.38
252.89	1642.47
253.11	1611.75
253.33	1732.58
253.54	1775.59
253.76	1648.61
253.98	1742.82
254.20	1669.09
254.41	1630.18
254.63	1734.63
254.85	1628.14
255.06	1609.70
255.28	1671.14
255.50	1710.05
255.71	1662.95
255.93	1675.24
256.15	1669.09
256.36	1722.34
256.58	1671.14
256.80	1699.81
257.02	1634.28
257.23	1689.57
257.45	1771.49
257.67	1730.53
257.88	1644.52
258.10	1720.29
258.32	1746.92
258.53	1699.81
258.75	1789.92
258.97	1607.66
259.18	1726.44
259.40	1753.06
259.62	1802.21
259.83	1791.97
260.05	1728.49
260.27	1918.95
260.48	1695.72
260.70	1619.94
260.92	1701.86
261.13	1677.29
261.35	1658.85
261.57	1716.20
261.78	1576.94
262.00	1638.38
262.22	1787.88
262.43	1634.28
262.65	1687.53
262.86	1656.81
263.08	1806.31
263.30	1701.86
263.51	1646.57
263.73	1640.42
263.95	1714.15
264.16	1660.90
264.38	1607.66
264.60	1689.57
264.81	1683.43
265.03	1845.22
265.25	1814.50
265.46	1757.16
265.68	1744.87
265.89	1710.05
266.11	1638.38
266.33	1755.11
266.54	1722.34
266.76	1789.92
266.98	1738.73
267.19	1814.50
267.41	1675.24
267.62	1697.77
267.84	1597.42
268.06	1714.15
268.27	1708.01
268.49	1785.83
268.70	1701.86
268.92	1665.00
269.14	1597.42
269.35	1642.47
269.57	1699.81
269.79	1779.68
270.00	1675.24
270.22	1781.73
270.43	1722.34
270.65	1581.03
270.87	1712.10
271.08	1763.30
271.30	1714.15
271.51	1656.81
271.73	1757.16
271.95	1765.35
272.16	1738.73
272.38	1738.73
272.59	1640.42
272.81	1691.62
273.02	1808.36
273.24	1726.44
273.46	1794.02
273.67	1638.38
273.89	1611.75
274.10	1658.85
274.32	1753.06
274.54	1781.73
274.75	1783.78
274.97	1673.19
275.18	1699.81
275.40	1722.34
275.61	1757.16
275.83	1722.34
276.05	1603.56
276.26	1681.38
276.48	1708.01
276.69	1679.33
276.91	1724.39
277.12	1701.86
277.34	1800.16
277.55	1701.86
277.77	1667.05
277.99	1683.43
278.20	1652.71
278.42	1603.56
278.63	1619.94
278.85	1648.61
279.06	1540.07
279.28	1708.01
279.49	1740.77
279.71	1730.53
279.93	1742.82
280.14	1748.97
280.36	1654.76
280.57	1763.30
280.79	1802.21
281.00	1636.33
281.22	1650.66
281.43	1802.21
281.65	1624.04
281.86	1718.25
282.08	1726.44
282.29	1826.79
282.51	1615.85
282.73	1628.14
282.94	1578.98
283.16	1701.86
283.37	1771.49
283.59	1634.28
283.80	1718.25
284.02	1738.73
284.23	1695.72
284.45	1699.81
284.66	1548.26
284.88	1634.28
285.09	1753.06
285.31	1738.73
285.52	1759.21
285.74	1583.08
285.95	1724.39
286.17	1675.24
286.38	1722.34
286.60	1632.23
286.81	1644.52
287.03	1667.05
287.24	1720.29
287.46	1777.64
287.67	1775.59
287.89	1861.60
288.10	1660.90
288.32	1757.16
288.53	1828.84
288.75	1728.49
288.96	1738.73
289.18	1587.18
289.39	1730.53
289.61	1673.19
289.82	1746.92
290.04	1798.12
290.25	1626.09
290.47	1685.48
290.68	1695.72
290.90	1810.40
291.11	1681.38
291.33	1783.78
291.54	1695.72
291.76	1642.47
291.97	1748.97
292.18	1732.58
292.40	1669.09
292.61	1658.85
292.83	1839.08
293.04	1785.83
293.26	1755.11
293.47	1730.53
293.69	1681.38
293.90	1757.16
294.12	1818.60
294.33	1728.49
294.55	1677.29
294.76	1804.26
294.97	1845.22
295.19	1808.36
295.40	1742.82
295.62	1628.14
295.83	1712.10
296.05	1654.76
296.26	1685.48
296.48	1669.09
296.69	1665.00
296.90	1695.72
297.12	1787.88
297.33	1787.88
297.55	1724.39
297.76	1787.88
297.98	1722.34
298.19	1757.16
298.41	1742.82
298.62	1705.96
298.83	1755.11
299.05	1734.63
299.26	1589.22
299.48	1652.71
299.69	1730.53
299.90	1681.38
300.12	1628.14
300.33	1746.92
300.55	1691.62
300.76	1716.20
300.98	1644.52
301.19	1714.15
301.40	1669.09
301.62	1650.66
301.83	1775.59
302.05	1697.77
302.26	1716.20
302.47	1794.02
302.69	1652.71
302.90	1683.43
303.12	1560.55
303.33	1845.22
303.54	1845.22
303.76	1695.72
303.97	1751.01
304.19	1802.21
304.40	1671.14
304.61	1736.68
304.83	1863.65
305.04	1757.16
305.26	1687.53
305.47	1697.77
305.68	1712.10
305.90	1642.47
306.11	1855.46
306.33	1720.29
306.54	1720.29
306.75	1636.33
306.97	1615.85
307.18	1597.42
307.39	1626.09
307.61	1767.40
307.82	1720.29
308.04	1722.34
308.25	1624.04
308.46	1601.51
308.68	1693.67
308.89	1753.06
309.10	1720.29
309.32	1751.01
309.53	1734.63
309.74	1720.29
309.96	1724.39
310.17	1802.21
310.39	1669.09
310.60	1779.68
310.81	1722.34
311.03	1665.00
311.24	1822.69
311.45	1697.77
311.67	1798.12
311.88	1691.62
312.09	1701.86
312.31	1673.19
312.52	1703.91
312.73	1744.87
312.95	1646.57
313.16	1679.33
313.37	1771.49
313.59	1798.12
313.80	1763.30
314.01	1732.58
314.23	1714.15
314.44	1599.46
314.65	1656.81
314.87	1691.62
315.08	1679.33
315.29	1720.29
315.51	1619.94
315.72	1697.77
315.93	1818.60
316.15	1787.88
316.36	1708.01
316.57	1714.15
316.79	1832.93
317.00	1583.08
317.21	1783.78
317.43	1701.86
317.64	1746.92
317.85	1681.38
318.07	1640.42
318.28	1742.82
318.49	1845.22
318.70	2023.39
318.92	1908.71
319.13	1923.04
319.34	1880.04
319.56	1804.26
319.77	1808.36
319.98	1826.79
320.20	1849.32
320.41	1757.16
320.62	1845.22
320.83	1693.67
321.05	1880.04
321.26	1665.00
321.47	1722.34
321.69	1771.49
321.90	1656.81
322.11	1710.05
322.32	1705.96
322.54	1779.68
322.75	1679.33
322.96	1800.16
323.18	1617.90
323.39	1599.46
323.60	1642.47
323.81	1708.01
324.03	1638.38
324.24	1695.72
324.45	1732.58
324.66	1697.77
324.88	1804.26
325.09	1826.79
325.30	1658.85
325.52	1746.92
325.73	1744.87
325.94	1705.96
326.15	1617.90
326.37	1701.86
326.58	1736.68
326.79	1751.01
327.00	1611.75
327.22	1742.82
327.43	1710.05
327.64	1687.53
327.85	1742.82
328.07	1759.21
328.28	1787.88
328.49	1650.66
328.70	1646.57
328.92	1689.57
329.13	1722.34
329.34	1742.82
329.55	1845.22
329.76	1718.25
329.98	1738.73
330.19	1804.26
330.40	1730.53
330.61	1736.68
330.83	1710.05
331.04	1675.24
331.25	1681.38
331.46	1687.53
331.68	1650.66
331.89	1720.29
332.10	1734.63
332.31	1636.33
332.52	1681.38
332.74	1802.21
332.95	1566.70
333.16	1689.57
333.37	1726.44
333.58	1724.39
333.80	1738.73
334.01	1646.57
334.22	1673.19
334.43	1665.00
334.64	1656.81
334.86	1572.84
335.07	1697.77
335.28	1773.54
335.49	1628.14
335.70	1718.25
335.92	1783.78
336.13	1722.34
336.34	1810.40
336.55	1718.25
336.76	1789.92
336.98	1636.33
337.19	1646.57
337.40	1845.22
337.61	1910.75
337.82	1724.39
338.04	1796.07
338.25	1656.81
338.46	1683.43
338.67	1732.58
338.88	1617.90
339.09	1619.94
339.31	1730.53
339.52	1675.24
339.73	1650.66
339.94	1726.44
340.15	1781.73
340.36	1671.14
340.58	1753.06
340.79	1673.19
341.00	1681.38
341.21	1650.66
341.42	1839.08
341.63	1673.19
341.85	1714.15
342.06	1779.68
342.27	1671.14
342.48	1716.20
342.69	1615.85
342.90	1667.05
343.12	1705.96
343.33	1697.77
343.54	1716.20
343.75	1783.78
343.96	1710.05
344.17	1710.05
344.38	1695.72
344.60	1634.28
344.81	1701.86
345.02	1771.49
345.23	1775.59
345.44	1828.84
345.65	1746.92
345.86	1755.11
346.07	1705.96
346.29	1708.01
346.50	1802.21
346.71	1765.35
346.92	1763.30
347.13	1814.50
347.34	1660.90
347.55	1732.58
347.76	1679.33
347.98	1624.04
348.19	1665.00
348.40	1796.07
348.61	1679.33
348.82	1818.60
349.03	1726.44
349.24	1673.19
349.45	1820.64
349.66	1671.14
349.88	1697.77
350.09	1753.06
350.30	1787.88
350.51	1779.68
350.72	1771.49
350.93	1689.57
351.14	1689.57
351.35	1751.01
351.56	1773.54
351.77	1673.19
351.99	1802.21
352.20	1861.60
352.41	1779.68
352.62	1673.19
352.83	1712.10
353.04	1781.73
353.25	1667.05
353.46	1779.68
353.67	1767.40
353.88	1656.81
354.09	1775.59
354.30	1736.68
354.52	1779.68
354.73	1673.19
354.94	1632.23
355.15	1755.11
355.36	1726.44
355.57	1675.24
355.78	1742.82
355.99	1716.20
356.20	1673.19
356.41	1785.83
356.62	1642.47
356.83	1738.73
357.04	1824.74
357.25	1683.43
357.46	1697.77
357.68	1638.38
357.89	1669.09
358.10	1681.38
358.31	1755.11
358.52	1667.05
358.73	1665.00
358.94	1648.61
359.15	1687.53
359.36	1759.21
359.57	1701.86
359.78	1751.01
359.99	1718.25
360.20	1740.77
360.41	1658.85
360.62	1761.25
360.83	1751.01
361.04	1791.97
361.25	1734.63
361.46	1832.93
361.67	1734.63
361.88	1712.10
362.09	1751.01
362.30	1755.11
362.51	1736.68
362.72	1757.16
362.93	1734.63
363.14	1742.82
363.35	1722.34
363.56	1722.34
363.78	1742.82
363.99	1718.25
364.20	1703.91
364.41	1669.09
364.62	1812.45
364.83	1718.25
365.04	1742.82
365.25	1687.53
365.46	1816.55
365.67	1658.85
365.88	1675.24
366.09	1714.15
366.30	1710.05
366.51	1751.01
366.72	1665.00
366.93	1726.44
367.14	1638.38
367.35	1771.49
367.56	1669.09
367.77	1763.30
367.98	1802.21
368.18	1746.92
368.39	1791.97
368.60	1701.86
368.81	1789.92
369.02	1722.34
369.23	1701.86
369.44	1576.94
369.65	1779.68
369.86	1699.81
370.07	1751.01
370.28	1652.71
370.49	1705.96
370.70	1761.25
370.91	1710.05
371.12	1646.57
371.33	1769.44
371.54	1728.49
371.75	1839.08
371.96	1632.23
372.17	1740.77
372.38	1662.95
372.59	1791.97
372.80	1642.47
373.01	1630.18
373.22	1673.19
373.43	1763.30
373.64	1601.51
373.85	1818.60
374.06	1841.12
374.26	1834.98
374.47	1767.40
374.68	1759.21
374.89	1687.53
375.10	1701.86
375.31	1724.39
375.52	1685.48
375.73	1667.05
375.94	1626.09
376.15	1785.83
376.36	1701.86
376.57	1644.52
376.78	1683.43
376.99	1650.66
377.20	1822.69
377.40	1716.20
377.61	1855.46
377.82	1658.85
378.03	1865.70
378.24	1675.24
378.45	1687.53
378.66	1722.34
378.87	1601.51
379.08	1646.57
379.29	1669.09
379.50	1753.06
379.71	1660.90
379.91	1787.88
380.12	1705.96
380.33	1755.11
380.54	1753.06
380.75	1744.87
380.96	1658.85
381.17	1812.45
381.38	1748.97
381.59	1748.97
381.80	1775.59
382.00	1904.61
382.21	1812.45
382.42	1855.46
382.63	1888.23
382.84	1748.97
383.05	1798.12
383.26	1816.55
383.47	1722.34
383.68	1789.92
383.88	1767.40
384.09	1716.20
384.30	1814.50
384.51	1734.63
384.72	1697.77
384.93	1669.09
385.14	1722.34
385.35	1785.83
385.55	1665.00
385.76	1763.30
385.97	1671.14
386.18	1644.52
386.39	1636.33
386.60	1708.01
386.81	1773.54
387.02	1601.51
387.22	1689.57
387.43	1789.92
387.64	1890.28
387.85	1873.89
388.06	2234.33
388.27	4712.38
388.48	9066.36
388.68	11728.72
388.89	13418.29
389.10	14274.34
389.31	11949.90
389.52	9594.73
389.73	8474.49
389.93	7837.58
390.14	7229.33
390.35	6655.90
390.56	6057.89
390.77	4812.73
390.98	3850.18
391.18	3117.01
391.39	2338.78
391.60	1976.29
391.81	1925.09
392.02	1781.73
392.23	1822.69
392.43	1771.49
392.64	1751.01
392.85	1714.15
393.06	1757.16
393.27	1650.66
393.47	1611.75
393.68	1726.44
393.89	1697.77
394.10	1779.68
394.31	1599.46
394.52	1726.44
394.72	1724.39
394.93	1853.41
395.14	1697.77
395.35	1732.58
395.56	1638.38
395.76	1730.53
395.97	1886.18
396.18	1877.99
396.39	1884.13
396.60	2093.02
396.80	1982.43
397.01	1847.27
397.22	1843.17
397.43	1843.17
397.64	1759.21
397.84	1802.21
398.05	1923.04
398.26	1755.11
398.47	1796.07
398.67	1812.45
398.88	1744.87
399.09	1714.15
399.30	1714.15
399.51	1714.15
399.71	1636.33
399.92	1632.23
400.13	1728.49
400.34	1687.53
400.54	1687.53
400.75	1861.60
400.96	1714.15
401.17	1843.17
401.37	1796.07
401.58	1757.16
401.79	1771.49
402.00	1826.79
402.21	2056.16
402.41	2095.07
402.62	2101.22
402.83	2179.04
403.04	2093.02
403.24	2156.51
403.45	1927.14
403.66	1978.34
403.87	1941.47
404.07	1869.80
404.28	1914.85
404.49	1980.39
404.70	1843.17
404.90	1751.01
405.11	1763.30
405.32	1763.30
405.52	1701.86
405.73	1683.43
405.94	1759.21
406.15	1730.53
406.35	1800.16
406.56	1794.02
406.77	1718.25
406.98	1734.63
407.18	1628.14
407.39	1808.36
407.60	1699.81
407.80	1742.82
408.01	1617.90
408.22	1665.00
408.43	1718.25
408.63	1708.01
408.84	1744.87
409.05	1728.49
409.25	1601.51
409.46	1669.09
409.67	1640.42
409.88	1650.66
410.08	1751.01
410.29	1695.72
410.50	1763.30
410.70	1738.73
410.91	1660.90
411.12	1695.72
411.32	1744.87
411.53	1693.67
411.74	1785.83
411.95	1857.51
412.15	1734.63
412.36	1802.21
412.57	1775.59
412.77	1834.98
412.98	1751.01
413.19	1730.53
413.39	1738.73
413.60	1771.49
413.81	1804.26
414.01	1626.09
414.22	1765.35
414.43	1751.01
414.63	1761.25
414.84	1767.40
415.05	1705.96
415.25	1630.18
415.46	1753.06
415.67	1708.01
415.87	1650.66
416.08	1697.77
416.29	1718.25
416.49	1767.40
416.70	1691.62
416.91	1767.40
417.11	1705.96
417.32	1781.73
417.53	1755.11
417.73	1759.21
417.94	1716.20
418.15	1703.91
418.35	1701.86
418.56	1742.82
418.77	1691.62
418.97	1753.06
419.18	1665.00
419.38	1568.74
419.59	1662.95
419.80	1787.88
420.00	1671.14
420.21	1687.53
420.42	1759.21
420.62	1708.01
420.83	1687.53
421.04	1689.57
421.24	1708.01
421.45	1734.63
421.65	1765.35
421.86	1687.53
422.07	1708.01
422.27	1705.96
422.48	1708.01
422.69	1626.09
422.89	1734.63
423.10	1697.77
423.30	1669.09
423.51	1648.61
423.72	1751.01
423.92	1730.53
424.13	1667.05
424.33	1697.77
424.54	1771.49
424.75	1679.33
424.95	1877.99
425.16	1691.62
425.36	1744.87
425.57	1841.12
425.78	1763.30
425.98	1738.73
426.19	1642.47
426.39	1624.04
426.60	1826.79
426.81	1828.84
427.01	1734.63
427.22	1667.05
427.42	1630.18
427.63	1765.35
427.83	1761.25
428.04	1814.50
428.25	1822.69
428.45	1751.01
428.66	1820.64
428.86	1652.71
429.07	1656.81
429.28	1755.11
429.48	1716.20
429.69	1710.05
429.89	1753.06
430.10	1652.71
430.30	1781.73
430.51	1767.40
430.71	1736.68
430.92	1697.77
431.13	1636.33
431.33	1738.73
431.54	1638.38
431.74	1777.64
431.95	1800.16
432.15	1636.33
432.36	1757.16
432.56	1783.78
432.77	1824.74
432.98	1787.88
433.18	1726.44
433.39	1724.39
433.59	1720.29
433.80	1818.60
434.00	1861.60
434.21	1691.62
434.41	1667.05
434.62	1808.36
434.82	1646.57
435.03	1578.98
435.23	1736.68
435.44	1642.47
435.64	1716.20
435.85	1718.25
436.06	1791.97
436.26	1718.25
436.47	1675.24
436.67	1644.52
436.88	1634.28
437.08	1755.11
437.29	1849.32
437.49	1798.12
437.70	1748.97
437.90	1742.82
438.11	1806.31
438.31	1847.27
438.52	1898.47
438.72	1933.28
438.93	1972.19
439.13	1863.65
439.34	1841.12
439.54	1744.87
439.75	1880.04
439.95	1771.49
440.16	1703.91
440.36	1794.02
440.57	1783.78
440.77	1753.06
440.98	1798.12
441.18	1794.02
441.39	1671.14
441.59	1687.53
441.80	1826.79
442.00	1681.38
442.21	1816.55
442.41	1705.96
442.62	1791.97
442.82	1714.15
443.02	1814.50
443.23	1714.15
443.43	1677.29
443.64	1798.12
443.84	1679.33
444.05	1775.59
444.25	1798.12
444.46	1728.49
444.66	1742.82
444.87	1787.88
445.07	1603.56
445.28	1738.73
445.48	1794.02
445.69	1796.07
445.89	1918.95
446.09	1712.10
446.30	2015.20
446.50	2650.07
446.71	4177.86
446.91	5046.20
447.12	5896.10
447.32	5955.49
447.53	5316.53
447.73	4382.65
447.93	3979.20
448.14	3602.38
448.34	3385.29
448.55	3100.62
448.75	2967.51
448.96	3030.99
449.16	2625.50
449.36	2441.18
449.57	2136.03
449.77	1853.41
449.98	1820.64
450.18	1841.12
450.39	1808.36
450.59	1832.93
450.79	1755.11
451.00	1716.20
451.20	1812.45
451.41	1810.40
451.61	1722.34
451.81	1658.85
452.02	1724.39
452.22	1695.72
452.43	1744.87
452.63	1685.48
452.84	1783.78
453.04	1728.49
453.24	1787.88
453.45	1703.91
453.65	1771.49
453.86	1759.21
454.06	1740.77
454.26	1740.77
454.47	1679.33
454.67	1832.93
454.87	1787.88
455.08	1746.92
455.28	1771.49
455.49	1669.09
455.69	1734.63
455.89	1802.21
456.10	1824.74
456.30	1685.48
456.51	1771.49
456.71	1742.82
456.91	1767.40
457.12	1753.06
457.32	1816.55
457.52	1683.43
457.73	1720.29
457.93	1896.42
458.14	1669.09
458.34	1619.94
458.54	1755.11
458.75	1691.62
458.95	1730.53
459.15	1806.31
459.36	1748.97
459.56	1808.36
459.76	1890.28
459.97	1732.58
460.17	1812.45
460.37	1740.77
460.58	1671.14
460.78	1724.39
460.99	1712.10
461.19	1789.92
461.39	1703.91
461.60	1703.91
461.80	1751.01
462.00	1675.24
462.21	1693.67
462.41	1665.00
462.61	1654.76
462.82	1695.72
463.02	1820.64
463.22	1634.28
463.43	1787.88
463.63	1761.25
463.83	1841.12
464.04	1769.44
464.24	1701.86
464.44	1697.77
464.64	1734.63
464.85	1765.35
465.05	1841.12
465.25	1783.78
465.46	1718.25
465.66	1800.16
465.86	1703.91
466.07	1730.53
466.27	1718.25
466.47	1587.18
466.68	1677.29
466.88	1882.08
467.08	1734.63
467.29	1757.16
467.49	1738.73
467.69	1740.77
467.89	1722.34
468.10	1708.01
468.30	1775.59
468.50	1834.98
468.71	1810.40
468.91	1681.38
469.11	1849.32
469.31	1753.06
469.52	1728.49
469.72	1759.21
469.92	1818.60
470.13	1824.74
470.33	1753.06
470.53	1832.93
470.73	2172.89
470.94	2574.30
471.14	2705.37
471.34	2965.46
471.54	2889.68
471.75	2574.30
471.95	2338.78
472.15	2279.39
472.36	2250.72
472.56	2230.24
472.76	2195.42
472.96	2088.93
473.17	2072.54
473.37	2045.92
473.57	1910.75
473.77	1837.03
473.98	1751.01
474.18	1701.86
474.38	1880.04
474.58	1624.04
474.79	1701.86
474.99	1759.21
475.19	1763.30
475.39	1675.24
475.60	1748.97
475.80	1785.83
476.00	1714.15
476.20	1720.29
476.41	1732.58
476.61	1814.50
476.81	1742.82
477.01	1703.91
477.21	1822.69
477.42	1744.87
477.62	1644.52
477.82	1732.58
478.02	1740.77
478.23	1800.16
478.43	1679.33
478.63	1710.05
478.83	1708.01
479.03	1751.01
479.24	1773.54
479.44	1849.32
479.64	1636.33
479.84	1632.23
480.04	1726.44
480.25	1679.33
480.45	1644.52
480.65	1701.86
480.85	1781.73
481.06	1753.06
481.26	1716.20
481.46	1781.73
481.66	1681.38
481.86	1697.77
482.06	1757.16
482.27	1730.53
482.47	1660.90
482.67	1738.73
482.87	1673.19
483.07	1818.60
483.28	1720.29
483.48	1611.75
483.68	1726.44
483.88	1665.00
484.08	1646.57
484.29	1583.08
484.49	1615.85
484.69	1677.29
484.89	1789.92
485.09	1832.93
485.29	1742.82
485.50	1740.77
485.70	1701.86
485.90	1787.88
486.10	1695.72
486.30	1834.98
486.50	1785.83
486.71	1740.77
486.91	1705.96
487.11	1779.68
487.31	1628.14
487.51	1701.86
487.71	1705.96
487.91	1697.77
488.12	1593.32
488.32	1574.89
488.52	1740.77
488.72	1656.81
488.92	1744.87
489.12	1748.97
489.32	1775.59
489.53	1708.01
489.73	1558.50
489.93	1759.21
490.13	1683.43
490.33	1574.89
490.53	1705.96
490.73	1777.64
490.94	1621.99
491.14	1753.06
491.34	1826.79
491.54	2179.04
491.74	2656.22
491.94	3192.78
492.14	3471.31
492.34	3534.79
492.54	3188.69
492.75	2740.18
492.95	2623.45
493.15	2369.50
493.35	2295.77
493.55	2359.26
493.75	2213.85
493.95	2226.14
494.15	2131.94
494.35	1951.71
494.56	1916.90
494.76	1837.03
494.96	1794.02
495.16	1818.60
495.36	1791.97
495.56	1720.29
495.76	1751.01
495.96	1673.19
496.16	1712.10
496.36	1834.98
496.56	1703.91
496.77	1658.85
496.97	1716.20
497.17	1808.36
497.37	1640.42
497.57	1800.16
497.77	1712.10
497.97	1691.62
498.17	1783.78
498.37	1599.46
498.57	1673.19
498.77	1779.68
498.97	1714.15
499.17	1853.41
499.38	1720.29
499.58	1861.60
499.78	1824.74
499.98	1841.12
500.18	1787.88
500.38	1703.91
500.58	1998.82
500.78	2410.46
500.98	4655.03
501.18	6557.60
501.38	8302.47
501.58	9109.36
501.78	8771.45
501.98	6877.08
502.18	5769.13
502.38	4868.02
502.58	4609.98
502.78	4184.00
502.98	3923.91
503.18	3815.37
503.38	3557.32
503.59	3121.10
503.79	2854.87
503.99	2584.54
504.19	2365.40
504.39	2373.60
504.59	2285.53
504.79	2312.16
504.99	2297.82
505.19	2045.92
505.39	2000.87
505.59	1992.67
505.79	1937.38
505.99	1892.32
506.19	1931.23
506.39	1888.23
506.59	1767.40
506.79	1783.78
506.99	1892.32
507.19	1753.06
507.39	1798.12
507.59	1689.57
507.79	1677.29
507.99	1722.34
508.19	1814.50
508.39	1642.47
508.59	1753.06
508.79	1789.92
508.99	1877.99
509.19	1705.96
509.39	1753.06
509.59	1710.05
509.79	1734.63
509.99	1789.92
510.19	1798.12
510.39	1767.40
510.59	1759.21
510.79	1681.38
510.99	1648.61
511.19	1818.60
511.39	1865.70
511.59	1777.64
511.79	1781.73
511.99	1734.63
512.19	1843.17
512.38	1763.30
512.58	1685.48
512.78	1785.83
512.98	1769.44
513.18	1839.08
513.38	1693.67
513.58	1800.16
513.78	1685.48
513.98	1744.87
514.18	1632.23
514.38	1724.39
514.58	1748.97
514.78	1718.25
514.98	1681.38
515.18	1742.82
515.38	1683.43
515.58	1845.22
515.78	1669.09
515.98	1724.39
516.18	1751.01
516.38	1701.86
516.57	1839.08
516.77	1677.29
516.97	1841.12
517.17	1712.10
517.37	1648.61
517.57	1769.44
517.77	1834.98
517.97	1695.72
518.17	1796.07
518.37	1619.94
518.57	1769.44
518.77	1714.15
518.97	1746.92
519.16	1740.77
519.36	1798.12
519.56	1755.11
519.76	1757.16
519.96	1699.81
520.16	1812.45
520.36	1765.35
520.56	1802.21
520.76	1677.29
520.96	1802.21
521.16	1789.92
521.35	1767.40
521.55	1822.69
521.75	1667.05
521.95	1695.72
522.15	1589.22
522.35	1693.67
522.55	1638.38
522.75	1726.44
522.95	1714.15
523.14	1609.70
523.34	1748.97
523.54	1677.29
523.74	1775.59
523.94	1771.49
524.14	1712.10
524.34	1732.58
524.54	1843.17
524.73	1701.86
524.93	1771.49
525.13	1738.73
525.33	1613.80
525.53	1837.03
525.73	1781.73
525.93	1759.21
526.13	1693.67
526.32	1724.39
526.52	1830.88
526.72	1802.21
526.92	1718.25
527.12	1740.77
527.32	1611.75
527.52	1685.48
527.71	1708.01
527.91	1724.39
528.11	1677.29
528.31	1722.34
528.51	1701.86
528.71	1837.03
528.90	1740.77
529.10	1830.88
529.30	1765.35
529.50	1638.38
529.70	1730.53
529.90	1767.40
530.09	1781.73
530.29	1673.19
530.49	1775.59
530.69	1935.33
530.89	1800.16
531.09	1726.44
531.28	1638.38
531.48	1814.50
531.68	1779.68
531.88	1736.68
532.08	1773.54
532.28	1667.05
532.47	1785.83
532.67	1900.52
532.87	1808.36
533.07	1691.62
533.27	1785.83
533.46	1787.88
533.66	1748.97
533.86	1791.97
534.06	1777.64
534.26	1808.36
534.45	1718.25
534.65	1816.55
534.85	1761.25
535.05	1732.58
535.25	1736.68
535.44	1701.86
535.64	1808.36
535.84	1708.01
536.04	1714.15
536.24	1642.47
536.43	1681.38
536.63	1736.68
536.83	1726.44
537.03	1738.73
537.22	1681.38
537.42	1638.38
537.62	1673.19
537.82	1701.86
538.02	1832.93
538.21	1814.50
538.41	1892.32
538.61	1744.87
538.81	1761.25
539.00	1800.16
539.20	1687.53
539.40	1746.92
539.60	1775.59
539.79	1730.53
539.99	1708.01
540.19	1699.81
540.39	1693.67
540.58	1714.15
540.78	1834.98
540.98	1701.86
541.18	1859.56
541.37	1777.64
541.57	1708.01
541.77	1740.77
541.97	1605.61
542.16	1708.01
542.36	1759.21
542.56	1773.54
542.76	1763.30
542.95	1691.62
543.15	1769.44
543.35	1734.63
543.54	1769.44
543.74	1732.58
543.94	1814.50
544.14	1726.44
544.33	1765.35
544.53	1812.45
544.73	1607.66
544.93	1753.06
545.12	1763.30
545.32	1699.81
545.52	1744.87
545.71	1697.77
545.91	1734.63
546.11	1724.39
546.30	1742.82
546.50	1687.53
546.70	1785.83
546.90	1755.11
547.09	1574.89
547.29	1720.29
547.49	1818.60
547.68	1697.77
547.88	1660.90
548.08	1720.29
548.27	2158.56
548.47	1781.73
548.67	1701.86
548.87	1773.54
549.06	1675.24
549.26	1769.44
549.46	1753.06
549.65	1751.01
549.85	1714.15
550.05	1796.07
550.24	1695.72
550.44	1767.40
550.64	1687.53
550.83	1703.91
551.03	1773.54
551.23	1822.69
551.42	1841.12
551.62	1689.57
551.82	1740.77
552.01	1767.40
552.21	1748.97
552.41	1849.32
552.60	1796.07
552.80	1697.77
553.00	1703.91
553.19	1736.68
553.39	1708.01
553.59	1673.19
553.78	1748.97
553.98	1718.25
554.17	1728.49
554.37	1841.12
554.57	1791.97
554.76	1617.90
554.96	1621.99
555.16	1687.53
555.35	1708.01
555.55	1812.45
555.75	1736.68
555.94	1751.01
556.14	1669.09
556.33	1738.73
556.53	1685.48
556.73	1681.38
556.92	1738.73
557.12	1701.86
557.32	1746.92
557.51	1785.83
557.71	1701.86
557.90	1828.84
558.10	1865.70
558.30	1644.52
558.49	1763.30
558.69	1697.77
558.88	1767.40
559.08	1705.96
559.28	1775.59
559.47	1736.68
559.67	1804.26
559.86	1800.16
560.06	1679.33
560.26	1742.82
560.45	1802.21
560.65	1736.68
560.84	1869.80
561.04	1740.77
561.24	1837.03
561.43	1658.85
561.63	1816.55
561.82	1693.67
562.02	1744.87
562.22	1695.72
562.41	1679.33
562.61	1667.05
562.80	1585.13
563.00	1888.23
563.19	1683.43
563.39	1753.06
563.59	1755.11
563.78	1667.05
563.98	1712.10
564.17	1667.05
564.37	1699.81
564.56	1779.68
564.76	1667.05
564.96	1810.40
565.15	1697.77
565.35	1906.66
565.54	1675.24
565.74	1824.74
565.93	1748.97
566.13	1673.19
566.32	1794.02
566.52	1841.12
566.71	1728.49
566.91	1773.54
567.11	1701.86
567.30	1695.72
567.50	1738.73
567.69	1775.59
567.89	1722.34
568.08	1738.73
568.28	1834.98
568.47	1673.19
568.67	1787.88
568.86	1748.97
569.06	1773.54
569.25	1779.68
569.45	1710.05
569.64	1753.06
569.84	1728.49
570.04	1802.21
570.23	1660.90
570.43	1691.62
570.62	1765.35
570.82	1855.46
571.01	1732.58
571.21	1732.58
571.40	1722.34
571.60	1751.01
571.79	1714.15
571.99	1789.92
572.18	1716.20
572.38	1849.32
572.57	1671.14
572.77	1798.12
572.96	1920.99
573.16	1736.68
573.35	1744.87
573.55	1849.32
573.74	1853.41
573.94	1716.20
574.13	1662.95
574.33	1794.02
574.52	1814.50
574.71	1728.49
574.91	1769.44
575.10	1736.68
575.30	1761.25
575.49	1691.62
575.69	1708.01
575.88	1867.75
576.08	1789.92
576.27	1851.36
576.47	1812.45
576.66	1812.45
576.86	1839.08
577.05	1800.16
577.25	1830.88
577.44	1882.08
577.64	1665.00
577.83	1853.41
578.02	1757.16
578.22	1822.69
578.41	1871.84
578.61	1791.97
578.80	1662.95
579.00	1759.21
579.19	1798.12
579.39	1773.54
579.58	1822.69
579.77	1798.12
579.97	1834.98
580.16	1902.56
580.36	1869.80
580.55	1877.99
580.75	1820.64
580.94	1742.82
581.13	1898.47
581.33	1884.13
581.52	1818.60
581.72	1918.95
581.91	1900.52
582.11	1824.74
582.30	1794.02
582.49	1824.74
582.69	1830.88
582.88	1783.78
583.08	1693.67
583.27	1781.73
583.47	1740.77
583.66	1705.96
583.85	1740.77
584.05	1777.64
584.24	1853.41
584.44	1738.73
584.63	1851.36
584.82	1910.75
585.02	1912.80
585.21	1927.14
585.41	1863.65
585.60	1865.70
585.79	2019.30
585.99	1964.00
586.18	1978.34
586.37	2238.43
586.57	3346.38
586.76	9953.13
586.96	27252.32
587.15	41983.36
587.34	51997.93
587.54	57934.99
587.73	55819.44
587.93	40256.92
588.12	29507.13
588.31	23824.02
588.51	20264.65
588.70	18624.23
588.89	17192.70
589.09	15488.79
589.28	13506.35
589.47	11611.98
589.67	9439.09
589.86	7448.46
590.06	5595.05
590.25	4196.29
590.44	3235.79
590.64	2693.08
590.83	2238.43
591.02	2133.98
591.22	1941.47
591.41	1927.14
591.60	1877.99
591.80	1953.76
591.99	1810.40
592.18	1773.54
592.38	1824.74
592.57	1796.07
592.76	1802.21
592.96	1773.54
593.15	1740.77
593.34	1863.65
593.54	1757.16
593.73	1796.07
593.92	1773.54
594.12	1755.11
594.31	1791.97
594.50	1867.75
594.70	1861.60
594.89	1892.32
595.08	1701.86
595.28	1787.88
595.47	1927.14
595.66	1824.74
595.86	1683.43
596.05	1726.44
596.24	1785.83
596.43	1816.55
596.63	1800.16
596.82	1830.88
597.01	1800.16
597.21	1816.55
597.40	1814.50
597.59	1751.01
597.79	1744.87
597.98	1789.92
598.17	1849.32
598.36	1722.34
598.56	1804.26
598.75	1716.20
598.94	1794.02
599.14	1712.10
599.33	1757.16
599.52	1798.12
599.71	1826.79
599.91	1826.79
600.10	1726.44
600.29	1703.91
600.48	1748.97
600.68	1787.88
600.87	1697.77
601.06	1656.81
601.26	1818.60
601.45	1714.15
601.64	1693.67
601.83	1826.79
602.03	1689.57
602.22	1738.73
602.41	1785.83
602.60	1871.84
602.80	1783.78
602.99	1679.33
603.18	1726.44
603.37	1765.35
603.57	1779.68
603.76	1800.16
603.95	1755.11
604.14	1726.44
604.34	1669.09
604.53	1771.49
604.72	1763.30
604.91	1791.97
605.10	1753.06
605.30	1677.29
605.49	1884.13
605.68	1779.68
605.87	1779.68
606.07	1695.72
606.26	1742.82
606.45	1736.68
606.64	1744.87
606.84	1734.63
607.03	1818.60
607.22	1773.54
607.41	1773.54
607.60	1730.53
607.80	1761.25
607.99	1716.20
608.18	1734.63
608.37	1802.21
608.56	1705.96
608.76	1816.55
608.95	1853.41
609.14	1843.17
609.33	1884.13
609.52	1964.00
609.72	1812.45
609.91	1849.32
610.10	1787.88
610.29	1894.37
610.48	1759.21
610.68	1767.40
610.87	1800.16
611.06	1814.50
611.25	1763.30
611.44	1773.54
611.63	1732.58
611.83	1810.40
612.02	1699.81
612.21	1812.45
612.40	1689.57
612.59	1673.19
612.79	1703.91
612.98	1730.53
613.17	1861.60
613.36	1712.10
613.55	1841.12
613.74	1867.75
613.93	1970.15
614.13	1976.29
614.32	1931.23
614.51	2027.49
614.70	1800.16
614.89	1753.06
615.08	1869.80
615.28	2185.18
615.47	1730.53
615.66	1845.22
615.85	1812.45
616.04	1914.85
616.23	1787.88
616.42	1724.39
616.62	1814.50
616.81	1877.99
617.00	1779.68
617.19	1771.49
617.38	1751.01
617.57	1818.60
617.76	1832.93
617.95	1806.31
618.15	1822.69
618.34	1783.78
618.53	1714.15
618.72	1804.26
618.91	1851.36
619.10	1859.56
619.29	1748.97
619.48	1781.73
619.68	1734.63
619.87	1802.21
620.06	1683.43
620.25	1837.03
620.44	1734.63
620.63	1685.48
620.82	1767.40
621.01	1791.97
621.20	1693.67
621.39	1769.44
621.59	1726.44
621.78	1730.53
621.97	1714.15
622.16	1765.35
622.35	1689.57
622.54	1796.07
622.73	1814.50
622.92	1603.56
623.11	1791.97
623.30	1703.91
623.49	1740.77
623.68	1708.01
623.88	1710.05
624.07	1705.96
624.26	1669.09
624.45	1748.97
624.64	1693.67
624.83	1730.53
625.02	1712.10
625.21	1796.07
625.40	1789.92
625.59	1861.60
625.78	1710.05
625.97	1755.11
626.16	1855.46
626.35	1812.45
626.54	1816.55
626.74	1947.62
626.93	1794.02
627.12	1800.16
627.31	1886.18
627.50	1806.31
627.69	1832.93
627.88	1691.62
628.07	1708.01
628.26	1587.18
628.45	1730.53
628.64	1714.15
628.83	1710.05
629.02	1710.05
629.21	1726.44
629.40	1708.01
629.59	1644.52
629.78	1779.68
629.97	1738.73
630.16	1730.53
630.35	1697.77
630.54	1765.35
630.73	1763.30
630.92	1757.16
631.11	1599.46
631.30	1751.01
631.49	1712.10
631.68	1736.68
631.87	1761.25
632.06	1632.23
632.25	1845.22
632.44	1769.44
632.63	1742.82
632.82	1804.26
633.01	1791.97
633.20	1882.08
633.39	1777.64
633.58	1703.91
633.77	1800.16
633.96	1767.40
634.15	1765.35
634.34	1814.50
634.53	1769.44
634.72	1744.87
634.91	1660.90
635.10	1812.45
635.29	1875.94
635.48	1753.06
635.67	1710.05
635.86	1703.91
636.05	1832.93
636.24	1699.81
636.43	1738.73
636.62	1804.26
636.81	1576.94
637.00	1669.09
637.19	1757.16
637.38	1730.53
637.57	1714.15
637.76	1828.84
637.95	1920.99
638.14	1753.06
638.33	1851.36
638.52	1804.26
638.71	1783.78
638.89	1693.67
639.08	1923.04
639.27	1830.88
639.46	1841.12
639.65	2168.80
639.84	2254.81
640.03	2404.32
640.22	2287.58
640.41	2418.65
640.60	2115.55
640.79	2095.07
640.98	1849.32
641.17	1898.47
641.36	1935.33
641.55	1955.81
641.74	1714.15
641.92	1779.68
642.11	1693.67
642.30	1763.30
642.49	1615.85
642.68	1775.59
642.87	1710.05
643.06	1746.92
643.25	1695.72
643.44	1646.57
643.63	1728.49
643.82	1753.06
644.00	1712.10
644.19	1662.95
644.38	1656.81
644.57	1634.28
644.76	1693.67
644.95	1679.33
645.14	1613.80
645.33	1693.67
645.52	1744.87
645.71	1673.19
645.89	1658.85
646.08	1699.81
646.27	1789.92
646.46	1820.64
646.65	1632.23
646.84	1734.63
647.03	1740.77
647.22	1800.16
647.40	1714.15
647.59	1726.44
647.78	1642.47
647.97	1724.39
648.16	1630.18
648.35	1779.68
648.54	1734.63
648.73	1681.38
648.91	1818.60
649.10	1771.49
649.29	1660.90
649.48	1804.26
649.67	1789.92
649.86	1787.88
650.05	1722.34
650.23	1867.75
650.42	1791.97
650.61	1910.75
650.80	1892.32
650.99	1896.42
651.18	1808.36
651.36	1806.31
651.55	1757.16
651.74	1720.29
651.93	1771.49
652.12	1791.97
652.31	1738.73
652.49	1656.81
652.68	1791.97
652.87	1806.31
653.06	1820.64
653.25	1798.12
653.44	1806.31
653.62	1820.64
653.81	1794.02
654.00	1820.64
654.19	1816.55
654.38	1837.03
654.56	1693.67
654.75	1722.34
654.94	1775.59
655.13	1761.25
655.32	1806.31
655.51	1804.26
655.69	1685.48
655.88	1767.40
656.07	1724.39
656.26	1716.20
656.45	1619.94
656.63	1712.10
656.82	1728.49
657.01	1773.54
657.20	1697.77
657.38	1791.97
657.57	1714.15
657.76	1638.38
657.95	1781.73
658.14	1722.34
658.32	1791.97
658.51	1665.00
658.70	1667.05
658.89	1746.92
659.08	1767.40
659.26	1804.26
659.45	1662.95
659.64	1855.46
659.83	1826.79
660.01	1912.80
660.20	1765.35
660.39	1689.57
660.58	1638.38
660.76	1777.64
660.95	1662.95
661.14	1734.63
661.33	1703.91
661.51	1798.12
661.70	1701.86
661.89	1818.60
662.08	1710.05
662.26	1703.91
662.45	1615.85
662.64	1888.23
662.83	1691.62
663.01	1681.38
663.20	1689.57
663.39	1834.98
663.58	1736.68
663.76	1726.44
663.95	1708.01
664.14	1683.43
664.32	1738.73
664.51	1722.34
664.70	1662.95
664.89	1689.57
665.07	1640.42
665.26	1783.78
665.45	1638.38
665.64	1748.97
665.82	1677.29
666.01	1712.10
666.20	1705.96
666.38	1796.07
666.57	1789.92
666.76	2213.85
666.95	4503.48
667.13	11358.03
667.32	18527.97
667.51	22218.41
667.69	24897.16
667.88	25331.33
668.07	19705.56
668.25	14327.59
668.44	11859.79
668.63	9854.83
668.81	8671.10
669.00	7784.33
669.19	7063.44
669.38	6092.71
669.56	5318.57
669.75	4511.68
669.94	3833.80
670.12	3114.96
670.31	2701.27
670.50	2410.46
670.68	2179.04
670.87	1959.91
671.06	1931.23
671.24	1853.41
671.43	1845.22
671.62	1794.02
671.80	1742.82
671.99	1855.46
672.18	1775.59
672.36	1791.97
672.55	1767.40
672.74	1730.53
672.92	1755.11
673.11	1783.78
673.29	1611.75
673.48	1834.98
673.67	1742.82
673.85	1787.88
674.04	1673.19
674.23	1740.77
674.41	1873.89
674.60	1687.53
674.79	1658.85
674.97	1671.14
675.16	1830.88
675.34	1771.49
675.53	1783.78
675.72	1730.53
675.90	1837.03
676.09	1650.66
676.28	1644.52
676.46	1710.05
676.65	1751.01
676.83	1730.53
677.02	1689.57
677.21	1691.62
677.39	1728.49
677.58	1689.57
677.77	1720.29
677.95	1712.10
678.14	1699.81
678.32	1658.85
678.51	1665.00
678.70	1828.84
678.88	1683.43
679.07	1689.57
679.25	1621.99
679.44	1644.52
679.63	1650.66
679.81	1734.63
680.00	1759.21
680.18	1804.26
680.37	1769.44
680.55	1771.49
680.74	1662.95
680.93	1626.09
681.11	1763.30
681.30	1757.16
681.48	1759.21
681.67	1703.91
681.85	1724.39
682.04	1607.66
682.23	1730.53
682.41	1781.73
682.60	1716.20
682.78	1705.96
682.97	1658.85
683.15	1708.01
683.34	1689.57
683.53	1859.56
683.71	1630.18
683.90	1808.36
684.08	1832.93
684.27	1648.61
684.45	1714.15
684.64	1714.15
684.82	1753.06
685.01	1767.40
685.19	1791.97
685.38	1705.96
685.57	1681.38
685.75	1640.42
685.94	1703.91
686.12	1720.29
686.31	1691.62
686.49	1824.74
686.68	1636.33
686.86	1732.58
687.05	1730.53
687.23	1779.68
687.42	1701.86
687.60	1607.66
687.79	1683.43
687.97	1818.60
688.16	1767.40
688.34	1806.31
688.53	1646.57
688.71	1683.43
688.90	1853.41
689.08	1736.68
689.27	1624.04
689.45	1724.39
689.64	1777.64
689.82	1693.67
690.01	1693.67
690.19	1656.81
690.38	1658.85
690.56	1753.06
690.75	1640.42
690.93	1746.92
691.12	1722.34
691.30	1748.97
691.49	1726.44
691.67	1640.42
691.86	1769.44
692.04	1726.44
692.23	1656.81
692.41	1755.11
692.60	1929.19
692.78	1845.22
692.97	1742.82
693.15	1718.25
693.34	1873.89
693.52	1759.21
693.71	1683.43
693.89	1677.29
694.08	1718.25
694.26	1789.92
694.44	1734.63
694.63	1771.49
694.81	1687.53
695.00	1626.09
695.18	1804.26
695.37	1822.69
695.55	1779.68
695.74	1728.49
695.92	1630.18
696.10	1802.21
696.29	1671.14
696.47	1726.44
696.66	1599.46
696.84	1513.45
697.03	1783.78
697.21	1826.79
697.40	2320.35
697.58	1761.25
697.76	1728.49
697.95	1695.72
698.13	1705.96
698.32	1714.15
698.50	1689.57
698.68	1689.57
698.87	1740.77
699.05	1826.79
699.24	1716.20
699.42	1681.38
699.61	1705.96
699.79	1681.38
699.97	1640.42
700.16	1638.38
700.34	1619.94
700.53	1677.29
700.71	1849.32
700.89	1796.07
701.08	1701.86
701.26	1777.64
701.45	2039.78
701.63	1701.86
701.81	1724.39
702.00	1683.43
702.18	1771.49
702.37	1755.11
702.55	1853.41
702.73	1941.47
702.92	1834.98
703.10	1961.95
703.28	1949.67
703.47	1841.12
703.65	1920.99
703.84	1880.04
704.02	1804.26
704.20	1910.75
704.39	1718.25
704.57	1714.15
704.75	1800.16
704.94	1826.79
705.12	1798.12
705.30	1859.56
705.49	2498.52
705.67	5410.73
705.86	13115.19
706.04	19058.40
706.22	22533.80
706.41	25388.67
706.59	24864.39
706.77	18745.06
706.96	13737.77
707.14	11794.25
707.32	10143.59
707.51	8873.85
707.69	7899.02
707.87	6700.95
708.06	5486.51
708.24	4409.28
708.42	3301.33
708.61	2770.90
708.79	2353.12
708.97	2101.22
709.16	1943.52
709.34	1847.27
709.52	1841.12
709.71	1771.49
709.89	1716.20
710.07	1705.96
710.26	1718.25
710.44	1705.96
710.62	1816.55
710.80	1773.54
710.99	1703.91
711.17	1789.92
711.35	1689.57
711.54	1699.81
711.72	1791.97
711.90	1736.68
712.09	1771.49
712.27	1673.19
712.45	1730.53
712.63	1665.00
712.82	1705.96
713.00	1714.15
713.18	1773.54
713.37	1785.83
713.55	1763.30
713.73	1712.10
713.91	1769.44
714.10	1648.61
714.28	1699.81
714.46	1687.53
714.65	1777.64
714.83	1794.02
715.01	1734.63
715.19	1714.15
715.38	1679.33
715.56	1796.07
715.74	1662.95
715.92	1583.08
716.11	1890.28
716.29	1572.84
716.47	1724.39
716.65	1660.90
716.84	1603.56
717.02	1800.16
717.20	1597.42
717.38	1722.34
717.57	1757.16
717.75	1761.25
717.93	1662.95
718.11	1755.11
718.30	1556.46
718.48	1732.58
718.66	1816.55
718.84	1816.55
719.03	1730.53
719.21	1697.77
719.39	1777.64
719.57	1789.92
719.75	1785.83
719.94	1716.20
720.12	1738.73
720.30	1722.34
720.48	1693.67
720.67	1634.28
720.85	1660.90
721.03	1705.96
721.21	1673.19
721.39	1753.06
721.58	1810.40
721.76	1679.33
721.94	1761.25
722.12	1656.81
722.30	1724.39
722.49	1691.62
722.67	1726.44
722.85	1669.09
723.03	1671.14
723.21	1673.19
723.40	1734.63
723.58	1771.49
723.76	1744.87
723.94	1894.37
724.12	1828.84
724.30	1859.56
724.49	1812.45
724.67	1746.92
724.85	1816.55
725.03	1621.99
725.21	1789.92
725.40	1841.12
725.58	1724.39
725.76	1757.16
725.94	1755.11
726.12	1730.53
726.30	1722.34
726.49	1759.21
726.67	1697.77
726.85	1677.29
727.03	1705.96
727.21	2297.82
727.39	3475.40
727.57	4898.74
727.76	5785.51
727.94	6201.25
728.12	6332.32
728.30	5550.00
728.48	4429.76
728.66	3880.90
728.84	3585.99
729.03	3213.26
729.21	2775.00
729.39	2443.23
729.57	2115.55
729.75	2025.44
729.93	1847.27
730.11	1781.73
730.30	1695.72
730.48	1748.97
730.66	1761.25
730.84	1787.88
731.02	1665.00
731.20	1693.67
731.38	1732.58
731.56	1632.23
731.74	1632.23
731.93	1763.30
732.11	1728.49
732.29	1681.38
732.47	1812.45
732.65	1703.91
732.83	1728.49
733.01	1716.20
733.19	1624.04
733.37	1708.01
733.56	1695.72
733.74	1744.87
733.92	1789.92
734.10	1658.85
734.28	1724.39
734.46	1611.75
734.64	1708.01
734.82	1757.16
735.00	1673.19
735.18	1703.91
735.36	1681.38
735.54	1716.20
735.73	1777.64
735.91	1640.42
736.09	1724.39
736.27	1726.44
736.45	1796.07
736.63	1601.51
736.81	1673.19
736.99	1765.35
737.17	1779.68
737.35	1638.38
737.53	1796.07
737.71	1716.20
737.89	1740.77
738.07	1693.67
738.25	1660.90
738.43	1714.15
738.61	1669.09
738.80	1660.90
738.98	1646.57
739.16	1724.39
739.34	1681.38
739.52	1753.06
739.70	1716.20
739.88	1697.77
740.06	1761.25
740.24	1546.22
740.42	1761.25
740.60	1691.62
740.78	1740.77
740.96	1638.38
741.14	1708.01
741.32	1744.87
741.50	1660.90
741.68	1927.14
741.86	1849.32
742.04	1621.99
742.22	1644.52
742.40	1691.62
742.58	1691.62
742.76	1665.00
742.94	1660.90
743.12	1685.48
743.30	1748.97
743.48	1720.29
743.66	1626.09
743.84	1673.19
744.02	1710.05
744.20	1628.14
744.38	1667.05
744.56	1669.09
744.74	1826.79
744.92	1763.30
745.10	1738.73
745.28	1755.11
745.46	1796.07
745.64	1703.91
745.82	1732.58
746.00	1732.58
746.18	1695.72
746.36	1685.48
746.54	1724.39
746.72	1716.20
746.90	1683.43
747.08	1775.59
747.26	1671.14
747.44	1751.01
747.62	1746.92
747.80	1710.05
747.98	1748.97
748.15	1585.13
748.33	1804.26
748.51	1683.43
748.69	1804.26
748.87	1605.61
749.05	1763.30
749.23	1667.05
749.41	1796.07
749.59	1730.53
749.77	1738.73
749.95	1630.18
750.13	1611.75
750.31	1757.16
750.49	1755.11
750.67	1755.11
750.85	1742.82
751.03	1802.21
751.20	1785.83
751.38	1689.57
751.56	1646.57
751.74	1730.53
751.92	1611.75
752.10	1673.19
752.28	1820.64
752.46	1701.86
752.64	1683.43
752.82	1732.58
753.00	1816.55
753.18	1677.29
753.35	1695.72
753.53	1710.05
753.71	1769.44
753.89	1744.87
754.07	1710.05
754.25	1746.92
754.43	1767.40
754.61	1660.90
754.79	1697.77
754.97	1685.48
755.14	1687.53
755.32	1640.42
755.50	1730.53
755.68	1759.21
755.86	1660.90
756.04	1701.86
756.22	1673.19
756.40	1804.26
756.57	1816.55
756.75	1619.94
756.93	1728.49
757.11	1726.44
757.29	1658.85
757.47	1587.18
757.65	1564.65
757.82	1632.23
758.00	1640.42
758.18	1652.71
758.36	1650.66
758.54	1816.55
758.72	1624.04
758.90	1724.39
759.07	1742.82
759.25	1673.19
759.43	1732.58
759.61	1662.95
759.79	2136.03
759.97	1794.02
760.15	1695.72
760.32	1736.68
760.50	1732.58
760.68	1804.26
760.86	1619.94
761.04	1724.39
761.22	1734.63
761.39	1732.58
761.57	1748.97
761.75	1671.14
761.93	1640.42
762.11	1654.76
762.28	1712.10
762.46	1703.91
762.64	1787.88
762.82	1689.57
763.00	1687.53
763.18	1777.64
763.35	1683.43
763.53	1824.74
763.71	1755.11
763.89	1744.87
764.07	1785.83
764.24	1726.44
764.42	1791.97
764.60	1656.81
764.78	1755.11
764.96	1751.01
765.13	1804.26
765.31	1695.72
765.49	1683.43
765.67	1654.76
765.84	1667.05
766.02	1673.19
766.20	1568.74
766.38	1714.15
766.56	1714.15
766.73	1708.01
766.91	1720.29
767.09	1693.67
767.27	1740.77
767.44	1671.14
767.62	1804.26
767.80	1746.92
767.98	1665.00
768.15	1685.48
768.33	1701.86
768.51	1726.44
768.69	1714.15
768.87	1744.87
769.04	1693.67
769.22	1875.94
769.40	1736.68
769.58	1796.07
769.75	1775.59
769.93	1732.58
770.11	1681.38
770.28	1681.38
770.46	1712.10
770.64	1728.49
770.82	1681.38
770.99	1769.44
771.17	1724.39
771.35	1681.38
771.53	1748.97
771.70	1687.53
771.88	1757.16
772.06	1691.62
772.23	1658.85
772.41	1759.21
772.59	1681.38
772.77	1712.10
772.94	1683.43
773.12	1785.83
773.30	1613.80
773.47	1720.29
773.65	1654.76
773.83	1806.31
774.01	1712.10
774.18	1589.22
774.36	1669.09
774.54	1705.96
774.71	1689.57
774.89	1630.18
775.07	1767.40
775.24	1667.05
775.42	1712.10
775.60	1785.83
775.78	1656.81
775.95	1636.33
776.13	1644.52
776.31	1611.75
776.48	1730.53
776.66	1798.12
776.84	1630.18
777.01	1617.90
777.19	1634.28
777.37	1585.13
777.54	1763.30
777.72	1744.87
777.90	1665.00
778.07	1603.56
778.25	1923.04
778.43	1751.01
778.60	1662.95
778.78	1779.68
778.96	1746.92
779.13	1662.95
779.31	1791.97
779.49	1675.24
779.66	1724.39
779.84	1652.71
780.01	1705.96
780.19	1673.19
780.37	1845.22
780.54	1722.34
780.72	1609.70
780.90	1718.25
781.07	1693.67
781.25	1656.81
781.43	1746.92
781.60	1691.62
781.78	1736.68
781.95	1697.77
782.13	1634.28
782.31	1781.73
782.48	1615.85
782.66	1681.38
782.83	1830.88
783.01	1751.01
783.19	1671.14
783.36	1656.81
783.54	1624.04
783.72	1814.50
783.89	1671.14
784.07	1724.39
784.24	1710.05
784.42	1820.64
784.60	1701.86
784.77	1708.01
784.95	1646.57
785.12	1746.92
785.30	1775.59
785.47	1615.85
785.65	1667.05
785.83	1751.01
786.00	1718.25
786.18	1699.81
786.35	1642.47
786.53	1699.81
786.71	1791.97
786.88	1732.58
787.06	1796.07
787.23	1736.68
787.41	1609.70
787.58	1644.52
787.76	1738.73
787.94	1777.64
788.11	1660.90
788.29	1693.67
788.46	1671.14
788.64	1595.37
788.81	1687.53
788.99	1689.57
789.16	1746.92
789.34	1720.29
789.52	1619.94
789.69	1697.77
789.87	1613.80
790.04	1742.82
790.22	1681.38
790.39	1787.88
790.57	1656.81
790.74	1671.14
790.92	1738.73
791.09	1548.26
791.27	1677.29
791.44	1796.07
791.62	1677.29
791.79	1753.06
791.97	1779.68
792.15	1957.86
792.32	1755.11
792.50	1753.06
792.67	1826.79
792.85	1771.49
793.02	1611.75
793.20	1771.49
793.37	1607.66
793.55	1673.19
793.72	1665.00
793.90	1744.87
794.07	1611.75
794.25	1624.04
794.42	1662.95
794.60	1681.38
794.77	1755.11
794.95	1697.77
795.12	1785.83
795.30	1751.01
795.47	1638.38
795.65	1781.73
795.82	1722.34
796.00	1673.19
796.17	1658.85
796.34	1630.18
796.52	1705.96
796.69	1783.78
796.87	1773.54
797.04	1785.83
797.22	1753.06
797.39	1832.93
797.57	1769.44
797.74	1710.05
797.92	1787.88
798.09	1667.05
798.27	1751.01
798.44	1671.14
798.62	1689.57
798.79	1679.33
798.96	1619.94
799.14	1689.57
799.31	1910.75
799.49	1685.48
799.66	1683.43
799.84	1656.81
800.01	1681.38
800.19	1763.30
800.36	1607.66
800.53	1691.62
800.71	1738.73
800.88	1855.46
801.06	1675.24
801.23	1632.23
801.41	1681.38
801.58	1681.38
801.75	1576.94
801.93	1628.14
802.10	1632.23
802.28	1695.72
802.45	1652.71
802.63	1775.59
802.80	1718.25
802.97	1656.81
803.15	1701.86
803.32	1695.72
803.50	1650.66
803.67	1626.09
803.84	1585.13
804.02	1789.92
804.19	1701.86
804.37	1576.94
804.54	1632.23
804.71	1671.14
804.89	1726.44
805.06	1634.28
805.24	1673.19
805.41	1660.90
805.58	1669.09
805.76	1810.40
805.93	1742.82
806.10	1779.68
806.28	1775.59
806.45	1660.90
806.63	1734.63
806.80	1746.92
806.97	1738.73
807.15	1748.97
807.32	1669.09
807.49	1746.92
807.67	1642.47
807.84	1761.25
808.01	1630.18
808.19	1787.88
808.36	1843.17
808.54	1755.11
808.71	1646.57
808.88	1734.63
809.06	1708.01
809.23	1779.68
809.40	1621.99
809.58	1785.83
809.75	1712.10
809.92	1667.05
810.10	1802.21
810.27	1714.15
810.44	1736.68
810.62	1748.97
810.79	1650.66
810.96	1581.03
811.14	1667.05
811.31	1669.09
811.48	1769.44
811.66	1730.53
811.83	1740.77
812.00	1796.07
812.18	1665.00
812.35	1755.11
812.52	1697.77
812.69	1673.19
812.87	1675.24
813.04	1734.63
813.21	1726.44
813.39	1687.53
813.56	1728.49
813.73	1714.15
813.91	1576.94
814.08	1746.92
814.25	1757.16
814.42	1650.66
814.60	1703.91
814.77	1722.34
814.94	1644.52
815.12	1728.49
815.29	1763.30
815.46	1640.42
815.63	1695.72
815.81	1634.28
815.98	1648.61
816.15	1689.57
816.33	1695.72
816.50	1703.91
816.67	1763.30
816.84	1710.05
817.02	1607.66
817.19	1722.34
817.36	1744.87
817.53	1787.88
817.71	1681.38
817.88	1761.25
818.05	1710.05
818.22	1703.91
818.40	1812.45
818.57	1726.44
818.74	1728.49
818.91	1648.61
819.09	1697.77
819.26	1800.16
819.43	1650.66
819.60	1746.92
819.78	1765.35
819.95	1812.45
820.12	1628.14
820.29	1841.12
820.47	1724.39
820.64	1695.72
820.81	1617.90
820.98	1607.66
821.15	1615.85
821.33	1728.49
821.50	1587.18
821.67	1783.78
821.84	1665.00
822.02	1683.43
822.19	1785.83
822.36	1693.67
822.53	1689.57
822.70	1576.94
822.88	1708.01
823.05	1734.63
823.22	1767.40
823.39	1738.73
823.56	1683.43
823.74	1830.88
823.91	1685.48
824.08	1648.61
824.25	1679.33
824.42	1732.58
824.60	1611.75
824.77	1755.11
824.94	1679.33
825.11	1730.53
825.28	1648.61
825.45	1667.05
825.63	1697.77
825.80	1689.57
825.97	1677.29
826.14	1705.96
826.31	1679.33
826.48	1787.88
826.66	1687.53
826.83	1671.14
827.00	1640.42
827.17	1671.14
827.34	1652.71
827.51	1699.81
827.69	1665.00
827.86	1693.67
828.03	1695.72
828.20	1695.72
828.37	1695.72
828.54	1753.06
828.71	1767.40
828.89	1789.92
829.06	1689.57
829.23	1761.25
829.40	1621.99
829.57	1677.29
829.74	1689.57
829.91	1710.05
830.09	1726.44
830.26	1742.82
830.43	1791.97
830.60	1636.33
830.77	1783.78
830.94	1726.44
831.11	1705.96
831.28	1755.11
831.46	1773.54
831.63	1734.63
831.80	1679.33
831.97	1730.53
832.14	1665.00
832.31	1720.29
832.48	1650.66
832.65	1751.01
832.82	1667.05
832.99	1767.40
833.17	1648.61
833.34	1820.64
833.51	1689.57
833.68	1576.94
833.85	1740.77
834.02	1656.81
834.19	1638.38
834.36	1662.95
834.53	1730.53
834.70	1751.01
834.87	1697.77
835.04	1730.53
835.22	1677.29
835.39	1667.05
835.56	1613.80
835.73	1665.00
835.90	1742.82
836.07	1667.05
836.24	1736.68
836.41	1658.85
836.58	1662.95
836.75	1757.16
836.92	1716.20
837.09	1689.57
837.26	1769.44
837.43	1697.77
837.60	1677.29
837.77	1691.62
837.94	1734.63
838.12	1716.20
838.29	1705.96
838.46	1644.52
838.63	1691.62
838.80	1814.50
838.97	1683.43
839.14	1738.73
839.31	1673.19
839.48	1751.01
839.65	1660.90
839.82	1744.87
839.99	1714.15
840.16	1687.53
840.33	1712.10
840.50	1746.92
840.67	1624.04
840.84	1562.60
841.01	1787.88
841.18	1677.29
841.35	1734.63
841.52	1818.60
841.69	1808.36
841.86	1679.33
842.03	1708.01
842.20	1732.58
842.37	1697.77
842.54	1673.19
842.71	1785.83
842.88	1638.38
843.05	1822.69
843.22	1632.23
843.39	1742.82
843.56	1667.05
843.73	1726.44
843.90	1775.59
844.07	1673.19
844.24	1697.77
844.41	1765.35
844.58	1701.86
844.75	1712.10
844.92	1767.40
845.09	1654.76
845.26	1671.14
845.43	1785.83
845.60	1689.57
845.77	1728.49
845.94	1751.01
846.10	1722.34
846.27	1648.61
846.44	1691.62
846.61	1662.95
846.78	1742.82
846.95	1771.49
847.12	1644.52
847.29	1638.38
847.46	1648.61
847.63	1857.51
847.80	1617.90
847.97	1732.58
848.14	1832.93
848.31	1755.11
848.48	1697.77
848.65	1705.96
848.82	1681.38
848.98	1849.32
849.15	1796.07
849.32	1816.55
849.49	1734.63
849.66	1720.29
849.83	1697.77
850.00	1662.95
850.17	1787.88
850.34	1685.48
850.51	1640.42
850.68	1716.20
850.85	1847.27
851.01	1744.87
851.18	1701.86
851.35	1681.38
851.52	1728.49
851.69	1804.26
851.86	1648.61
852.03	1714.15
852.20	1732.58
852.37	1701.86
852.53	1624.04
852.70	1755.11
852.87	1777.64
853.04	1787.88
853.21	1718.25
853.38	1718.25
853.55	1832.93
853.72	1814.50
853.89	1632.23
854.05	1701.86
854.22	1708.01
854.39	1728.49
854.56	1759.21
854.73	1746.92
854.90	1658.85
855.07	1708.01
855.23	1732.58
855.40	1691.62
855.57	1742.82
855.74	1599.46
855.91	1906.66
856.08	1675.24
856.25	1638.38
856.41	1724.39
856.58	1744.87
856.75	1718.25
856.92	1542.12
857.09	1710.05
857.26	1605.61
857.42	1710.05
857.59	1738.73
857.76	1634.28
857.93	1675.24
858.10	1773.54
858.27	1656.81
858.43	1640.42
858.60	1640.42
858.77	1583.08
858.94	1687.53
859.11	1755.11
859.27	1640.42
859.44	1677.29
859.61	1902.56
859.78	1712.10
859.95	1542.12
860.12	1638.38
860.28	1783.78
860.45	1746.92
860.62	1667.05
860.79	1710.05
860.95	1730.53
861.12	1642.47
861.29	1701.86
861.46	1722.34
861.63	1701.86
861.79	1771.49
861.96	1681.38
862.13	1746.92
862.30	1796.07
862.47	1628.14
862.63	1665.00
862.80	1746.92
862.97	1726.44
863.14	1771.49
863.30	1730.53
863.47	1667.05
863.64	1802.21
863.81	1656.81
863.97	1679.33
864.14	1738.73
864.31	1665.00
864.48	1701.86
864.65	1683.43
864.81	1740.77
864.98	1708.01
865.15	1771.49
865.32	1746.92
865.48	1794.02
865.65	1802.21
865.82	1708.01
865.98	1728.49
866.15	1798.12
866.32	1689.57
866.49	1718.25
866.65	1742.82
866.82	1675.24
866.99	1685.48
867.16	1699.81
867.32	1662.95
867.49	1734.63
867.66	1726.44
867.83	1705.96
867.99	1581.03
868.16	1673.19
868.33	1697.77
868.49	1675.24
868.66	1624.04
868.83	1751.01
868.99	1730.53
869.16	1773.54
869.33	1710.05
869.50	1736.68
869.66	1695.72
869.83	1693.67
870.00	1642.47
870.16	1822.69
870.33	1751.01
870.50	1757.16
870.66	1636.33
870.83	1800.16
871.00	1695.72
871.17	1759.21
871.33	1740.77
871.50	1730.53
871.67	1734.63
871.83	1673.19
872.00	1847.27
872.17	1644.52
872.33	1753.06
872.50	1759.21
872.67	1734.63
872.83	1648.61
873.00	1716.20
873.17	1701.86
873.33	1730.53
873.50	1673.19
873.67	1640.42
873.83	1593.32
874.00	1691.62
874.16	1816.55
874.33	1718.25
874.50	1613.80
874.66	1746.92
874.83	1718.25
875.00	1755.11
875.16	1773.54
875.33	1761.25
875.50	1605.61
875.66	1714.15
875.83	1720.29
875.99	1710.05
876.16	1710.05
876.33	1591.27
876.49	1671.14
876.66	1701.86
876.83	1652.71
876.99	1646.57
877.16	1755.11
877.32	1673.19
877.49	1675.24
877.66	1720.29
877.82	1763.30
877.99	1685.48
878.15	1763.30
878.32	1654.76
878.49	1644.52
878.65	1621.99
878.82	1898.47
878.98	1726.44
879.15	1804.26
879.32	1673.19
879.48	1832.93
879.65	1757.16
879.81	1675.24
879.98	1665.00
880.15	1638.38
880.31	1802.21
880.48	1650.66
880.64	1736.68
880.81	1744.87
880.97	1791.97
881.14	1714.15
881.31	1681.38
881.47	1863.65
881.64	1716.20
881.80	1607.66
881.97	1734.63
882.13	1740.77
882.30	1681.38
882.47	1693.67
882.63	1658.85
882.80	1646.57
882.96	1697.77
883.13	1839.08
883.29	1779.68
883.46	1605.61
883.62	1734.63
883.79	1761.25
883.95	1675.24
884.12	1699.81
884.29	1714.15
884.45	1777.64
884.62	1759.21
884.78	1656.81
884.95	1837.03
885.11	1681.38
885.28	1742.82
885.44	1730.53
885.61	1812.45
885.77	1763.30
885.94	1693.67
886.10	1681.38
886.27	1712.10
886.43	1746.92
886.60	1841.12
886.76	1669.09
886.93	1691.62
887.09	1681.38
887.26	1611.75
887.42	1665.00
887.59	1691.62
887.75	1830.88
887.92	1769.44
888.08	1746.92
888.25	1845.22
888.41	1765.35
888.58	1703.91
888.74	1634.28
888.91	1662.95
>>>>>End Processed Spectral Data<<<<<
