SpectraSuite Data File
++++++++++++++++++++++++++++++++++++
Date: Wed May 04 18:44:43 CEST 2016
User: root
Dark Spectrum Present: No
Reference Spectrum Present: No
Number of Sampled Component Spectra: 1
Spectrometers: USB4C02835
Integration Time (usec): 100000 (USB4C02835)
Spectra Averaged: 1 (USB4C02835)
Boxcar Smoothing: 0 (USB4C02835)
Correct for Electrical Dark: No (USB4C02835)
Strobe/Lamp Enabled: No (USB4C02835)
Correct for Detector Non-linearity: No (USB4C02835)
Correct for Stray Light: No (USB4C02835)
Number of Pixels in Processed Spectrum: 3648
>>>>>Begin Processed Spectral Data<<<<<
177.47	1456.11
177.69	1456.11
177.91	1456.11
178.13	1464.30
178.36	1425.39
178.58	1697.77
178.80	1722.34
179.02	1632.23
179.24	1642.47
179.46	1603.56
179.68	1755.11
179.90	1736.68
180.13	1693.67
180.35	1654.76
180.57	1646.57
180.79	1726.44
181.01	1708.01
181.23	1759.21
181.45	1705.96
181.67	1673.19
181.90	1681.38
182.12	1644.52
182.34	1585.13
182.56	1777.64
182.78	1699.81
183.00	1681.38
183.22	1777.64
183.44	1615.85
183.66	1806.31
183.89	1728.49
184.11	1669.09
184.33	1759.21
184.55	1828.84
184.77	1665.00
184.99	1673.19
185.21	1671.14
185.43	1818.60
185.65	1671.14
185.87	1689.57
186.10	1757.16
186.32	1847.27
186.54	1761.25
186.76	1767.40
186.98	1765.35
187.20	1693.67
187.42	1722.34
187.64	1753.06
187.86	1673.19
188.08	1720.29
188.30	1722.34
188.52	1761.25
188.75	1796.07
188.97	1845.22
189.19	1710.05
189.41	1744.87
189.63	1820.64
189.85	1665.00
190.07	1644.52
190.29	1689.57
190.51	1697.77
190.73	1681.38
190.95	1783.78
191.17	1681.38
191.39	1599.46
191.61	1677.29
191.84	1615.85
192.06	1714.15
192.28	1628.14
192.50	1896.42
192.72	1748.97
192.94	1710.05
193.16	1789.92
193.38	1763.30
193.60	1650.66
193.82	1724.39
194.04	1818.60
194.26	1759.21
194.48	1767.40
194.70	1697.77
194.92	1617.90
195.14	1761.25
195.36	1726.44
195.58	1693.67
195.80	1701.86
196.02	1617.90
196.24	1632.23
196.46	1642.47
196.69	1693.67
196.91	1828.84
197.13	1689.57
197.35	1699.81
197.57	1824.74
197.79	1650.66
198.01	1705.96
198.23	1748.97
198.45	1738.73
198.67	1626.09
198.89	1712.10
199.11	1755.11
199.33	1646.57
199.55	1617.90
199.77	1699.81
199.99	1798.12
200.21	1714.15
200.43	1675.24
200.65	1607.66
200.87	1531.88
201.09	1640.42
201.31	1658.85
201.53	1689.57
201.75	1724.39
201.97	1718.25
202.19	1761.25
202.41	1742.82
202.63	1738.73
202.85	1708.01
203.07	1732.58
203.29	1701.86
203.51	1650.66
203.73	1703.91
203.95	1837.03
204.17	1775.59
204.39	1755.11
204.61	1775.59
204.83	1613.80
205.05	1730.53
205.27	1765.35
205.49	1828.84
205.71	1740.77
205.93	1611.75
206.15	1681.38
206.37	1710.05
206.59	1701.86
206.81	1671.14
207.03	1691.62
207.25	1617.90
207.47	1765.35
207.69	1669.09
207.91	1804.26
208.13	1853.41
208.34	1667.05
208.56	1671.14
208.78	1820.64
209.00	1677.29
209.22	1642.47
209.44	1662.95
209.66	1701.86
209.88	1695.72
210.10	1699.81
210.32	1662.95
210.54	1824.74
210.76	1695.72
210.98	1734.63
211.20	1578.98
211.42	1789.92
211.64	1744.87
211.86	1695.72
212.08	1798.12
212.30	1771.49
212.52	1708.01
212.74	1716.20
212.96	1712.10
213.17	1716.20
213.39	1691.62
213.61	1822.69
213.83	1787.88
214.05	1718.25
214.27	1800.16
214.49	1665.00
214.71	1728.49
214.93	1736.68
215.15	1697.77
215.37	1763.30
215.59	1611.75
215.81	1791.97
216.03	1796.07
216.24	1652.71
216.46	1701.86
216.68	1751.01
216.90	1769.44
217.12	1716.20
217.34	1665.00
217.56	1720.29
217.78	1822.69
218.00	1710.05
218.22	1712.10
218.44	1779.68
218.66	1681.38
218.87	1841.12
219.09	1681.38
219.31	1714.15
219.53	1722.34
219.75	1718.25
219.97	1687.53
220.19	1751.01
220.41	1738.73
220.63	1753.06
220.85	1689.57
221.06	1636.33
221.28	1826.79
221.50	1796.07
221.72	1757.16
221.94	1744.87
222.16	1738.73
222.38	1808.36
222.60	1791.97
222.82	1718.25
223.03	1699.81
223.25	1650.66
223.47	1691.62
223.69	1828.84
223.91	1775.59
224.13	1726.44
224.35	1720.29
224.57	1783.78
224.78	1796.07
225.00	1683.43
225.22	1701.86
225.44	1730.53
225.66	1740.77
225.88	1681.38
226.10	1769.44
226.32	1789.92
226.53	1720.29
226.75	1687.53
226.97	1716.20
227.19	1701.86
227.41	1679.33
227.63	1660.90
227.85	1648.61
228.06	1699.81
228.28	1701.86
228.50	1734.63
228.72	1677.29
228.94	1724.39
229.16	1597.42
229.37	1642.47
229.59	1619.94
229.81	1832.93
230.03	1662.95
230.25	1597.42
230.47	1722.34
230.69	1671.14
230.90	1740.77
231.12	1673.19
231.34	1699.81
231.56	1806.31
231.78	1576.94
232.00	1691.62
232.21	1728.49
232.43	1638.38
232.65	1570.79
232.87	1806.31
233.09	1636.33
233.30	1675.24
233.52	1724.39
233.74	1665.00
233.96	1671.14
234.18	1691.62
234.40	1687.53
234.61	1794.02
234.83	1667.05
235.05	1646.57
235.27	1871.84
235.49	1753.06
235.70	1697.77
235.92	1822.69
236.14	1771.49
236.36	1820.64
236.58	1671.14
236.79	1724.39
237.01	1718.25
237.23	1691.62
237.45	1810.40
237.67	1693.67
237.88	1753.06
238.10	1791.97
238.32	1675.24
238.54	1714.15
238.76	1748.97
238.97	1632.23
239.19	1730.53
239.41	1804.26
239.63	1751.01
239.85	1673.19
240.06	1660.90
240.28	1708.01
240.50	1689.57
240.72	1703.91
240.93	1734.63
241.15	1871.84
241.37	1730.53
241.59	1759.21
241.81	1708.01
242.02	1687.53
242.24	1687.53
242.46	1751.01
242.68	1632.23
242.89	1689.57
243.11	1722.34
243.33	1697.77
243.55	1794.02
243.76	1791.97
243.98	1630.18
244.20	1804.26
244.42	1738.73
244.64	1767.40
244.85	1669.09
245.07	1708.01
245.29	1757.16
245.51	1763.30
245.72	1693.67
245.94	1791.97
246.16	1656.81
246.38	1708.01
246.59	1685.48
246.81	1685.48
247.03	1693.67
247.24	1654.76
247.46	1710.05
247.68	1763.30
247.90	1648.61
248.11	1759.21
248.33	1800.16
248.55	1716.20
248.77	1642.47
248.98	1751.01
249.20	1863.65
249.42	1693.67
249.64	1798.12
249.85	1748.97
250.07	1648.61
250.29	1761.25
250.50	1705.96
250.72	1611.75
250.94	1714.15
251.16	1855.46
251.37	1818.60
251.59	1642.47
251.81	1689.57
252.02	1789.92
252.24	1650.66
252.46	1841.12
252.68	1720.29
252.89	1632.23
253.11	1591.27
253.33	1839.08
253.54	1765.35
253.76	1677.29
253.98	1748.97
254.20	1626.09
254.41	1679.33
254.63	1681.38
254.85	1662.95
255.06	1675.24
255.28	1658.85
255.50	1677.29
255.71	1628.14
255.93	1667.05
256.15	1650.66
256.36	1740.77
256.58	1656.81
256.80	1763.30
257.02	1673.19
257.23	1599.46
257.45	1689.57
257.67	1806.31
257.88	1630.18
258.10	1771.49
258.32	1710.05
258.53	1671.14
258.75	1783.78
258.97	1648.61
259.18	1673.19
259.40	1697.77
259.62	1820.64
259.83	1765.35
260.05	1695.72
260.27	2009.06
260.48	1718.25
260.70	1728.49
260.92	1679.33
261.13	1802.21
261.35	1744.87
261.57	1771.49
261.78	1665.00
262.00	1624.04
262.22	1798.12
262.43	1656.81
262.65	1638.38
262.86	1753.06
263.08	1787.88
263.30	1714.15
263.51	1597.42
263.73	1642.47
263.95	1832.93
264.16	1697.77
264.38	1732.58
264.60	1714.15
264.81	1710.05
265.03	1695.72
265.25	1794.02
265.46	1677.29
265.68	1800.16
265.89	1806.31
266.11	1646.57
266.33	1738.73
266.54	1744.87
266.76	1759.21
266.98	1701.86
267.19	1755.11
267.41	1718.25
267.62	1722.34
267.84	1644.52
268.06	1705.96
268.27	1738.73
268.49	1732.58
268.70	1673.19
268.92	1716.20
269.14	1677.29
269.35	1638.38
269.57	1726.44
269.79	1687.53
270.00	1679.33
270.22	1804.26
270.43	1638.38
270.65	1591.27
270.87	1734.63
271.08	1800.16
271.30	1703.91
271.51	1708.01
271.73	1785.83
271.95	1775.59
272.16	1753.06
272.38	1742.82
272.59	1675.24
272.81	1722.34
273.02	1662.95
273.24	1775.59
273.46	1779.68
273.67	1624.04
273.89	1695.72
274.10	1656.81
274.32	1693.67
274.54	1742.82
274.75	1671.14
274.97	1726.44
275.18	1720.29
275.40	1708.01
275.61	1685.48
275.83	1830.88
276.05	1646.57
276.26	1695.72
276.48	1724.39
276.69	1638.38
276.91	1646.57
277.12	1751.01
277.34	1726.44
277.55	1695.72
277.77	1703.91
277.99	1703.91
278.20	1587.18
278.42	1615.85
278.63	1640.42
278.85	1621.99
279.06	1636.33
279.28	1769.44
279.49	1746.92
279.71	1708.01
279.93	1744.87
280.14	1617.90
280.36	1693.67
280.57	1759.21
280.79	1714.15
281.00	1638.38
281.22	1656.81
281.43	1763.30
281.65	1636.33
281.86	1646.57
282.08	1712.10
282.29	1767.40
282.51	1685.48
282.73	1669.09
282.94	1642.47
283.16	1751.01
283.37	1787.88
283.59	1751.01
283.80	1722.34
284.02	1695.72
284.23	1736.68
284.45	1742.82
284.66	1675.24
284.88	1705.96
285.09	1720.29
285.31	1755.11
285.52	1757.16
285.74	1517.54
285.95	1789.92
286.17	1748.97
286.38	1746.92
286.60	1722.34
286.81	1656.81
287.03	1669.09
287.24	1677.29
287.46	1712.10
287.67	1687.53
287.89	1804.26
288.10	1699.81
288.32	1712.10
288.53	1765.35
288.75	1687.53
288.96	1767.40
289.18	1591.27
289.39	1708.01
289.61	1734.63
289.82	1810.40
290.04	1834.98
290.25	1595.37
290.47	1720.29
290.68	1619.94
290.90	1755.11
291.11	1581.03
291.33	1763.30
291.54	1671.14
291.76	1656.81
291.97	1738.73
292.18	1667.05
292.40	1687.53
292.61	1718.25
292.83	1855.46
293.04	1740.77
293.26	1699.81
293.47	1683.43
293.69	1652.71
293.90	1720.29
294.12	1691.62
294.33	1771.49
294.55	1648.61
294.76	1761.25
294.97	1738.73
295.19	1849.32
295.40	1656.81
295.62	1699.81
295.83	1761.25
296.05	1603.56
296.26	1705.96
296.48	1656.81
296.69	1726.44
296.90	1689.57
297.12	1771.49
297.33	1708.01
297.55	1642.47
297.76	1710.05
297.98	1732.58
298.19	1658.85
298.41	1734.63
298.62	1691.62
298.83	1847.27
299.05	1708.01
299.26	1615.85
299.48	1656.81
299.69	1785.83
299.90	1751.01
300.12	1589.22
300.33	1765.35
300.55	1697.77
300.76	1675.24
300.98	1630.18
301.19	1763.30
301.40	1665.00
301.62	1730.53
301.83	1714.15
302.05	1714.15
302.26	1703.91
302.47	1720.29
302.69	1720.29
302.90	1763.30
303.12	1619.94
303.33	1736.68
303.54	1777.64
303.76	1705.96
303.97	1732.58
304.19	1816.55
304.40	1652.71
304.61	1667.05
304.83	1779.68
305.04	1748.97
305.26	1755.11
305.47	1701.86
305.68	1716.20
305.90	1669.09
306.11	1843.17
306.33	1781.73
306.54	1671.14
306.75	1703.91
306.97	1644.52
307.18	1685.48
307.39	1621.99
307.61	1753.06
307.82	1615.85
308.04	1763.30
308.25	1632.23
308.46	1732.58
308.68	1667.05
308.89	1765.35
309.10	1794.02
309.32	1703.91
309.53	1714.15
309.74	1695.72
309.96	1720.29
310.17	1773.54
310.39	1673.19
310.60	1736.68
310.81	1761.25
311.03	1660.90
311.24	1763.30
311.45	1695.72
311.67	1753.06
311.88	1775.59
312.09	1728.49
312.31	1718.25
312.52	1615.85
312.73	1665.00
312.95	1636.33
313.16	1708.01
313.37	1783.78
313.59	1740.77
313.80	1693.67
314.01	1798.12
314.23	1736.68
314.44	1656.81
314.65	1673.19
314.87	1591.27
315.08	1742.82
315.29	1734.63
315.51	1652.71
315.72	1644.52
315.93	1744.87
316.15	1779.68
316.36	1675.24
316.57	1742.82
316.79	1738.73
317.00	1753.06
317.21	1722.34
317.43	1701.86
317.64	1722.34
317.85	1595.37
318.07	1652.71
318.28	1728.49
318.49	1851.36
318.70	1959.91
318.92	1933.28
319.13	1886.18
319.34	1853.41
319.56	1820.64
319.77	1845.22
319.98	1802.21
320.20	1880.04
320.41	1742.82
320.62	1728.49
320.83	1697.77
321.05	1863.65
321.26	1705.96
321.47	1648.61
321.69	1751.01
321.90	1642.47
322.11	1701.86
322.32	1656.81
322.54	1775.59
322.75	1687.53
322.96	1902.56
323.18	1665.00
323.39	1556.46
323.60	1687.53
323.81	1689.57
324.03	1660.90
324.24	1675.24
324.45	1656.81
324.66	1724.39
324.88	1791.97
325.09	1771.49
325.30	1720.29
325.52	1720.29
325.73	1771.49
325.94	1716.20
326.15	1581.03
326.37	1624.04
326.58	1708.01
326.79	1751.01
327.00	1617.90
327.22	1773.54
327.43	1751.01
327.64	1632.23
327.85	1757.16
328.07	1703.91
328.28	1810.40
328.49	1708.01
328.70	1712.10
328.92	1619.94
329.13	1708.01
329.34	1705.96
329.55	1808.36
329.76	1724.39
329.98	1691.62
330.19	1787.88
330.40	1716.20
330.61	1746.92
330.83	1701.86
331.04	1578.98
331.25	1681.38
331.46	1697.77
331.68	1648.61
331.89	1759.21
332.10	1726.44
332.31	1642.47
332.52	1746.92
332.74	1748.97
332.95	1714.15
333.16	1675.24
333.37	1691.62
333.58	1671.14
333.80	1701.86
334.01	1677.29
334.22	1738.73
334.43	1626.09
334.64	1636.33
334.86	1695.72
335.07	1687.53
335.28	1820.64
335.49	1669.09
335.70	1718.25
335.92	1794.02
336.13	1816.55
336.34	1785.83
336.55	1759.21
336.76	1777.64
336.98	1669.09
337.19	1785.83
337.40	1757.16
337.61	1894.37
337.82	1593.32
338.04	1767.40
338.25	1611.75
338.46	1701.86
338.67	1683.43
338.88	1628.14
339.09	1644.52
339.31	1654.76
339.52	1681.38
339.73	1589.22
339.94	1689.57
340.15	1726.44
340.36	1691.62
340.58	1687.53
340.79	1595.37
341.00	1789.92
341.21	1603.56
341.42	1816.55
341.63	1636.33
341.85	1748.97
342.06	1728.49
342.27	1621.99
342.48	1738.73
342.69	1566.70
342.90	1804.26
343.12	1665.00
343.33	1720.29
343.54	1763.30
343.75	1787.88
343.96	1738.73
344.17	1636.33
344.38	1726.44
344.60	1697.77
344.81	1671.14
345.02	1656.81
345.23	1787.88
345.44	1781.73
345.65	1714.15
345.86	1630.18
346.07	1703.91
346.29	1615.85
346.50	1665.00
346.71	1800.16
346.92	1699.81
347.13	1882.08
347.34	1601.51
347.55	1699.81
347.76	1697.77
347.98	1554.41
348.19	1708.01
348.40	1771.49
348.61	1671.14
348.82	1714.15
349.03	1744.87
349.24	1675.24
349.45	1794.02
349.66	1669.09
349.88	1708.01
350.09	1648.61
350.30	1777.64
350.51	1812.45
350.72	1738.73
350.93	1712.10
351.14	1626.09
351.35	1837.03
351.56	1634.28
351.77	1720.29
351.99	1699.81
352.20	1732.58
352.41	1759.21
352.62	1587.18
352.83	1681.38
353.04	1753.06
353.25	1660.90
353.46	1804.26
353.67	1763.30
353.88	1529.83
354.09	1765.35
354.30	1746.92
354.52	1787.88
354.73	1699.81
354.94	1691.62
355.15	1730.53
355.36	1748.97
355.57	1755.11
355.78	1703.91
355.99	1628.14
356.20	1691.62
356.41	1759.21
356.62	1724.39
356.83	1669.09
357.04	1865.70
357.25	1591.27
357.46	1759.21
357.68	1585.13
357.89	1583.08
358.10	1695.72
358.31	1812.45
358.52	1681.38
358.73	1665.00
358.94	1699.81
359.15	1687.53
359.36	1732.58
359.57	1728.49
359.78	1683.43
359.99	1744.87
360.20	1730.53
360.41	1697.77
360.62	1708.01
360.83	1779.68
361.04	1755.11
361.25	1767.40
361.46	1798.12
361.67	1746.92
361.88	1710.05
362.09	1755.11
362.30	1683.43
362.51	1601.51
362.72	1599.46
362.93	1748.97
363.14	1724.39
363.35	1689.57
363.56	1685.48
363.78	1824.74
363.99	1775.59
364.20	1677.29
364.41	1671.14
364.62	1783.78
364.83	1744.87
365.04	1734.63
365.25	1710.05
365.46	1802.21
365.67	1605.61
365.88	1695.72
366.09	1712.10
366.30	1628.14
366.51	1689.57
366.72	1619.94
366.93	1689.57
367.14	1722.34
367.35	1740.77
367.56	1693.67
367.77	1775.59
367.98	1763.30
368.18	1687.53
368.39	1748.97
368.60	1675.24
368.81	1685.48
369.02	1726.44
369.23	1603.56
369.44	1615.85
369.65	1671.14
369.86	1681.38
370.07	1759.21
370.28	1599.46
370.49	1824.74
370.70	1724.39
370.91	1683.43
371.12	1671.14
371.33	1832.93
371.54	1705.96
371.75	1765.35
371.96	1462.25
372.17	1757.16
372.38	1652.71
372.59	1734.63
372.80	1671.14
373.01	1701.86
373.22	1689.57
373.43	1718.25
373.64	1685.48
373.85	1738.73
374.06	1865.70
374.26	1873.89
374.47	1714.15
374.68	1763.30
374.89	1748.97
375.10	1726.44
375.31	1814.50
375.52	1736.68
375.73	1744.87
375.94	1611.75
376.15	1839.08
376.36	1607.66
376.57	1738.73
376.78	1658.85
376.99	1767.40
377.20	1761.25
377.40	1677.29
377.61	1828.84
377.82	1593.32
378.03	1765.35
378.24	1759.21
378.45	1779.68
378.66	1744.87
378.87	1607.66
379.08	1640.42
379.29	1662.95
379.50	1724.39
379.71	1705.96
379.91	1771.49
380.12	1665.00
380.33	1763.30
380.54	1746.92
380.75	1714.15
380.96	1775.59
381.17	1777.64
381.38	1708.01
381.59	1724.39
381.80	1779.68
382.00	1865.70
382.21	1769.44
382.42	1877.99
382.63	2015.20
382.84	1824.74
383.05	1777.64
383.26	1857.51
383.47	1689.57
383.68	1826.79
383.88	1712.10
384.09	1689.57
384.30	1796.07
384.51	1732.58
384.72	1777.64
384.93	1683.43
385.14	1714.15
385.35	1771.49
385.55	1714.15
385.76	1806.31
385.97	1701.86
386.18	1656.81
386.39	1675.24
386.60	1685.48
386.81	1720.29
387.02	1652.71
387.22	1658.85
387.43	1851.36
387.64	1837.03
387.85	1877.99
388.06	2273.25
388.27	4736.95
388.48	9154.42
388.68	11568.98
388.89	13567.79
389.10	14057.26
389.31	11994.95
389.52	9754.48
389.73	8486.78
389.93	7911.30
390.14	7126.93
390.35	6733.72
390.56	5982.12
390.77	4906.93
390.98	3968.96
391.18	3045.33
391.39	2375.64
391.60	1832.93
391.81	1834.98
392.02	1826.79
392.23	1861.60
392.43	1791.97
392.64	1918.95
392.85	1734.63
393.06	1787.88
393.27	1742.82
393.47	1658.85
393.68	1720.29
393.89	1636.33
394.10	1724.39
394.31	1679.33
394.52	1701.86
394.72	1718.25
394.93	1794.02
395.14	1636.33
395.35	1853.41
395.56	1689.57
395.76	1757.16
395.97	1820.64
396.18	1908.71
396.39	1857.51
396.60	2041.82
396.80	2013.15
397.01	1918.95
397.22	1859.56
397.43	1869.80
397.64	1789.92
397.84	1826.79
398.05	1875.94
398.26	1738.73
398.47	1808.36
398.67	1804.26
398.88	1785.83
399.09	1824.74
399.30	1798.12
399.51	1789.92
399.71	1667.05
399.92	1740.77
400.13	1724.39
400.34	1746.92
400.54	1710.05
400.75	1781.73
400.96	1767.40
401.17	1810.40
401.37	1697.77
401.58	1738.73
401.79	1652.71
402.00	1959.91
402.21	2056.16
402.41	1994.72
402.62	2127.84
402.83	2156.51
403.04	2078.69
403.24	2140.13
403.45	1914.85
403.66	1927.14
403.87	1902.56
404.07	1886.18
404.28	1976.29
404.49	1945.57
404.70	1794.02
404.90	1806.31
405.11	1781.73
405.32	1808.36
405.52	1730.53
405.73	1714.15
405.94	1662.95
406.15	1742.82
406.35	1691.62
406.56	1798.12
406.77	1691.62
406.98	1748.97
407.18	1591.27
407.39	1877.99
407.60	1716.20
407.80	1714.15
408.01	1771.49
408.22	1701.86
408.43	1638.38
408.63	1705.96
408.84	1753.06
409.05	1787.88
409.25	1687.53
409.46	1640.42
409.67	1689.57
409.88	1744.87
410.08	1730.53
410.29	1665.00
410.50	1765.35
410.70	1714.15
410.91	1624.04
411.12	1787.88
411.32	1746.92
411.53	1714.15
411.74	1802.21
411.95	1787.88
412.15	1853.41
412.36	1787.88
412.57	1806.31
412.77	1894.37
412.98	1757.16
413.19	1773.54
413.39	1785.83
413.60	1789.92
413.81	1804.26
414.01	1728.49
414.22	1763.30
414.43	1730.53
414.63	1693.67
414.84	1806.31
415.05	1720.29
415.25	1638.38
415.46	1755.11
415.67	1720.29
415.87	1753.06
416.08	1718.25
416.29	1662.95
416.49	1714.15
416.70	1732.58
416.91	1722.34
417.11	1726.44
417.32	1746.92
417.53	1734.63
417.73	1751.01
417.94	1613.80
418.15	1705.96
418.35	1738.73
418.56	1652.71
418.77	1824.74
418.97	1667.05
419.18	1662.95
419.38	1646.57
419.59	1693.67
419.80	1787.88
420.00	1671.14
420.21	1787.88
420.42	1855.46
420.62	1744.87
420.83	1685.48
421.04	1755.11
421.24	1648.61
421.45	1710.05
421.65	1716.20
421.86	1708.01
422.07	1699.81
422.27	1710.05
422.48	1662.95
422.69	1662.95
422.89	1677.29
423.10	1767.40
423.30	1601.51
423.51	1644.52
423.72	1683.43
423.92	1724.39
424.13	1718.25
424.33	1671.14
424.54	1800.16
424.75	1736.68
424.95	1839.08
425.16	1718.25
425.36	1697.77
425.57	1769.44
425.78	1783.78
425.98	1777.64
426.19	1726.44
426.39	1640.42
426.60	1785.83
426.81	1763.30
427.01	1712.10
427.22	1632.23
427.42	1599.46
427.63	1722.34
427.83	1791.97
428.04	1804.26
428.25	1755.11
428.45	1765.35
428.66	1787.88
428.86	1693.67
429.07	1624.04
429.28	1779.68
429.48	1746.92
429.69	1679.33
429.89	1755.11
430.10	1687.53
430.30	1714.15
430.51	1773.54
430.71	1724.39
430.92	1742.82
431.13	1699.81
431.33	1720.29
431.54	1744.87
431.74	1834.98
431.95	1845.22
432.15	1662.95
432.36	1703.91
432.56	1736.68
432.77	1791.97
432.98	1767.40
433.18	1714.15
433.39	1718.25
433.59	1689.57
433.80	1832.93
434.00	1810.40
434.21	1669.09
434.41	1662.95
434.62	1902.56
434.82	1650.66
435.03	1744.87
435.23	1794.02
435.44	1611.75
435.64	1701.86
435.85	1728.49
436.06	1781.73
436.26	1687.53
436.47	1697.77
436.67	1611.75
436.88	1744.87
437.08	1802.21
437.29	1812.45
437.49	1808.36
437.70	1771.49
437.90	1734.63
438.11	1740.77
438.31	1859.56
438.52	1968.10
438.72	1865.70
438.93	1957.86
439.13	1861.60
439.34	1880.04
439.54	1787.88
439.75	1837.03
439.95	1705.96
440.16	1773.54
440.36	1720.29
440.57	1751.01
440.77	1818.60
440.98	1732.58
441.18	1734.63
441.39	1658.85
441.59	1765.35
441.80	1802.21
442.00	1798.12
442.21	1839.08
442.41	1722.34
442.62	1865.70
442.82	1662.95
443.02	1751.01
443.23	1730.53
443.43	1619.94
443.64	1857.51
443.84	1658.85
444.05	1771.49
444.25	1685.48
444.46	1712.10
444.66	1724.39
444.87	1794.02
445.07	1710.05
445.28	1708.01
445.48	1753.06
445.69	1771.49
445.89	1828.84
446.09	1746.92
446.30	2025.44
446.50	2600.92
446.71	4130.75
446.91	5138.35
447.12	5773.22
447.32	5971.88
447.53	5451.69
447.73	4378.56
447.93	3983.30
448.14	3700.68
448.34	3467.21
448.55	3098.58
448.75	3117.01
448.96	2947.03
449.16	2670.55
449.36	2480.09
449.57	2064.35
449.77	1992.67
449.98	1742.82
450.18	1804.26
450.39	1796.07
450.59	1742.82
450.79	1677.29
451.00	1710.05
451.20	1783.78
451.41	1746.92
451.61	1742.82
451.81	1736.68
452.02	1673.19
452.22	1759.21
452.43	1730.53
452.63	1681.38
452.84	1779.68
453.04	1615.85
453.24	1738.73
453.45	1689.57
453.65	1742.82
453.86	1648.61
454.06	1761.25
454.26	1740.77
454.47	1640.42
454.67	1804.26
454.87	1767.40
455.08	1652.71
455.28	1796.07
455.49	1689.57
455.69	1716.20
455.89	1816.55
456.10	1841.12
456.30	1677.29
456.51	1765.35
456.71	1732.58
456.91	1785.83
457.12	1812.45
457.32	1714.15
457.52	1689.57
457.73	1783.78
457.93	1724.39
458.14	1685.48
458.34	1640.42
458.54	1718.25
458.75	1820.64
458.95	1748.97
459.15	1728.49
459.36	1699.81
459.56	1791.97
459.76	1861.60
459.97	1732.58
460.17	1777.64
460.37	1830.88
460.58	1744.87
460.78	1798.12
460.99	1781.73
461.19	1683.43
461.39	1689.57
461.60	1689.57
461.80	1773.54
462.00	1665.00
462.21	1660.90
462.41	1728.49
462.61	1712.10
462.82	1650.66
463.02	1783.78
463.22	1740.77
463.43	1861.60
463.63	1658.85
463.83	1785.83
464.04	1779.68
464.24	1722.34
464.44	1693.67
464.64	1779.68
464.85	1751.01
465.05	1734.63
465.25	1798.12
465.46	1695.72
465.66	1767.40
465.86	1759.21
466.07	1742.82
466.27	1757.16
466.47	1687.53
466.68	1708.01
466.88	1855.46
467.08	1791.97
467.29	1828.84
467.49	1787.88
467.69	1738.73
467.89	1783.78
468.10	1732.58
468.30	1773.54
468.50	1787.88
468.71	1804.26
468.91	1658.85
469.11	1798.12
469.31	1814.50
469.52	1681.38
469.72	1791.97
469.92	1867.75
470.13	1746.92
470.33	1738.73
470.53	1828.84
470.73	2088.93
470.94	2525.15
471.14	2711.51
471.34	2973.65
471.54	2869.20
471.75	2545.63
471.95	2351.07
472.15	2279.39
472.36	2324.44
472.56	2195.42
472.76	2113.50
472.96	2070.50
473.17	2047.97
473.37	2000.87
473.57	1918.95
473.77	1925.09
473.98	1814.50
474.18	1673.19
474.38	1945.57
474.58	1769.44
474.79	1648.61
474.99	1726.44
475.19	1845.22
475.39	1675.24
475.60	1824.74
475.80	1724.39
476.00	1695.72
476.20	1703.91
476.41	1757.16
476.61	1800.16
476.81	1751.01
477.01	1705.96
477.21	1779.68
477.42	1763.30
477.62	1660.90
477.82	1796.07
478.02	1675.24
478.23	1701.86
478.43	1710.05
478.63	1716.20
478.83	1701.86
479.03	1732.58
479.24	1781.73
479.44	1859.56
479.64	1640.42
479.84	1611.75
480.04	1648.61
480.25	1765.35
480.45	1693.67
480.65	1740.77
480.85	1789.92
481.06	1677.29
481.26	1744.87
481.46	1802.21
481.66	1691.62
481.86	1669.09
482.06	1789.92
482.27	1695.72
482.47	1646.57
482.67	1720.29
482.87	1724.39
483.07	1771.49
483.28	1671.14
483.48	1644.52
483.68	1742.82
483.88	1636.33
484.08	1599.46
484.29	1705.96
484.49	1744.87
484.69	1746.92
484.89	1804.26
485.09	1771.49
485.29	1789.92
485.50	1693.67
485.70	1708.01
485.90	1753.06
486.10	1630.18
486.30	1779.68
486.50	1685.48
486.71	1681.38
486.91	1810.40
487.11	1757.16
487.31	1671.14
487.51	1781.73
487.71	1693.67
487.91	1726.44
488.12	1705.96
488.32	1568.74
488.52	1738.73
488.72	1587.18
488.92	1679.33
489.12	1806.31
489.32	1791.97
489.53	1726.44
489.73	1644.52
489.93	1746.92
490.13	1716.20
490.33	1583.08
490.53	1740.77
490.73	1785.83
490.94	1703.91
491.14	1804.26
491.34	1771.49
491.54	2131.94
491.74	2715.61
491.94	3141.58
492.14	3448.78
492.34	3528.65
492.54	3219.41
492.75	2721.75
492.95	2678.74
493.15	2365.40
493.35	2326.49
493.55	2351.07
493.75	2226.14
493.95	2271.20
494.15	2054.11
494.35	1943.52
494.56	1865.70
494.76	1849.32
494.96	1800.16
495.16	1777.64
495.36	1675.24
495.56	1798.12
495.76	1746.92
495.96	1755.11
496.16	1638.38
496.36	1789.92
496.56	1718.25
496.77	1771.49
496.97	1751.01
497.17	1751.01
497.37	1658.85
497.57	1705.96
497.77	1787.88
497.97	1708.01
498.17	1734.63
498.37	1720.29
498.57	1779.68
498.77	1681.38
498.97	1748.97
499.17	1783.78
499.38	1703.91
499.58	1832.93
499.78	1787.88
499.98	1841.12
500.18	1732.58
500.38	1691.62
500.58	1931.23
500.78	2461.66
500.98	4704.18
501.18	6793.11
501.38	8150.92
501.58	9033.59
501.78	8890.23
501.98	6780.82
502.18	5726.12
502.38	5033.91
502.58	4493.24
502.78	4149.18
502.98	3979.20
503.18	3760.07
503.38	3512.27
503.59	3166.16
503.79	2883.54
503.99	2695.13
504.19	2410.46
504.39	2336.73
504.59	2338.78
504.79	2332.64
504.99	2232.29
505.19	2011.11
505.39	1964.00
505.59	2072.54
505.79	1970.15
505.99	1927.14
506.19	1851.36
506.39	1896.42
506.59	1722.34
506.79	1763.30
506.99	1810.40
507.19	1765.35
507.39	1808.36
507.59	1662.95
507.79	1751.01
507.99	1736.68
508.19	1779.68
508.39	1695.72
508.59	1773.54
508.79	1857.51
508.99	1812.45
509.19	1746.92
509.39	1710.05
509.59	1714.15
509.79	1671.14
509.99	1806.31
510.19	1753.06
510.39	1746.92
510.59	1769.44
510.79	1695.72
510.99	1689.57
511.19	1714.15
511.39	1816.55
511.59	1720.29
511.79	1753.06
511.99	1816.55
512.19	1808.36
512.38	1794.02
512.58	1701.86
512.78	1716.20
512.98	1855.46
513.18	1888.23
513.38	1695.72
513.58	1757.16
513.78	1732.58
513.98	1671.14
514.18	1722.34
514.38	1624.04
514.58	1777.64
514.78	1716.20
514.98	1726.44
515.18	1753.06
515.38	1583.08
515.58	1900.52
515.78	1669.09
515.98	1732.58
516.18	1744.87
516.38	1753.06
516.57	1660.90
516.77	1705.96
516.97	1798.12
517.17	1724.39
517.37	1701.86
517.57	1800.16
517.77	1654.76
517.97	1630.18
518.17	1775.59
518.37	1662.95
518.57	1617.90
518.77	1685.48
518.97	1732.58
519.16	1800.16
519.36	1855.46
519.56	1656.81
519.76	1734.63
519.96	1722.34
520.16	1853.41
520.36	1628.14
520.56	1812.45
520.76	1687.53
520.96	1683.43
521.16	1755.11
521.35	1808.36
521.55	1787.88
521.75	1660.90
521.95	1636.33
522.15	1761.25
522.35	1734.63
522.55	1654.76
522.75	1761.25
522.95	1710.05
523.14	1675.24
523.34	1765.35
523.54	1691.62
523.74	1744.87
523.94	1744.87
524.14	1611.75
524.34	1685.48
524.54	1824.74
524.73	1697.77
524.93	1726.44
525.13	1736.68
525.33	1640.42
525.53	1834.98
525.73	1765.35
525.93	1761.25
526.13	1648.61
526.32	1662.95
526.52	1757.16
526.72	1779.68
526.92	1648.61
527.12	1714.15
527.32	1660.90
527.52	1744.87
527.71	1738.73
527.91	1775.59
528.11	1697.77
528.31	1748.97
528.51	1683.43
528.71	1708.01
528.90	1773.54
529.10	1847.27
529.30	1855.46
529.50	1662.95
529.70	1714.15
529.90	1732.58
530.09	1693.67
530.29	1652.71
530.49	1722.34
530.69	1771.49
530.89	1759.21
531.09	1777.64
531.28	1767.40
531.48	1851.36
531.68	1761.25
531.88	1789.92
532.08	1785.83
532.28	1705.96
532.47	1857.51
532.67	1728.49
532.87	1771.49
533.07	1685.48
533.27	1699.81
533.46	1796.07
533.66	1697.77
533.86	1787.88
534.06	1726.44
534.26	1767.40
534.45	1730.53
534.65	1888.23
534.85	1851.36
535.05	1755.11
535.25	1902.56
535.44	1619.94
535.64	1746.92
535.84	1726.44
536.04	1748.97
536.24	1679.33
536.43	1705.96
536.63	1767.40
536.83	1796.07
537.03	1691.62
537.22	1671.14
537.42	1638.38
537.62	1712.10
537.82	1683.43
538.02	1812.45
538.21	1857.51
538.41	1920.99
538.61	1744.87
538.81	1767.40
539.00	1806.31
539.20	1732.58
539.40	1724.39
539.60	1716.20
539.79	1804.26
539.99	1714.15
540.19	1714.15
540.39	1798.12
540.58	1697.77
540.78	1837.03
540.98	1710.05
541.18	1730.53
541.37	1796.07
541.57	1759.21
541.77	1689.57
541.97	1662.95
542.16	1624.04
542.36	1699.81
542.56	1765.35
542.76	1822.69
542.95	1826.79
543.15	1695.72
543.35	1773.54
543.54	1640.42
543.74	1730.53
543.94	1810.40
544.14	1683.43
544.33	1796.07
544.53	1765.35
544.73	1740.77
544.93	1710.05
545.12	1705.96
545.32	1732.58
545.52	1765.35
545.71	1630.18
545.91	1742.82
546.11	1691.62
546.30	1644.52
546.50	1738.73
546.70	1755.11
546.90	1714.15
547.09	1710.05
547.29	1710.05
547.49	1716.20
547.68	1673.19
547.88	1669.09
548.08	1769.44
548.27	2176.99
548.47	1697.77
548.67	1685.48
548.87	1757.16
549.06	1714.15
549.26	1751.01
549.46	1771.49
549.65	1656.81
549.85	1789.92
550.05	1746.92
550.24	1673.19
550.44	1746.92
550.64	1703.91
550.83	1771.49
551.03	1755.11
551.23	1816.55
551.42	1812.45
551.62	1656.81
551.82	1783.78
552.01	1734.63
552.21	1798.12
552.41	1738.73
552.60	1796.07
552.80	1732.58
553.00	1597.42
553.19	1732.58
553.39	1820.64
553.59	1642.47
553.78	1667.05
553.98	1701.86
554.17	1658.85
554.37	1781.73
554.57	1767.40
554.76	1699.81
554.96	1783.78
555.16	1816.55
555.35	1765.35
555.55	1722.34
555.75	1826.79
555.94	1837.03
556.14	1673.19
556.33	1794.02
556.53	1785.83
556.73	1712.10
556.92	1761.25
557.12	1716.20
557.32	1851.36
557.51	1826.79
557.71	1744.87
557.90	1853.41
558.10	1863.65
558.30	1730.53
558.49	1675.24
558.69	1718.25
558.88	1785.83
559.08	1777.64
559.28	1818.60
559.47	1714.15
559.67	1775.59
559.86	1886.18
560.06	1716.20
560.26	1714.15
560.45	1675.24
560.65	1763.30
560.84	1814.50
561.04	1724.39
561.24	1691.62
561.43	1646.57
561.63	1847.27
561.82	1755.11
562.02	1800.16
562.22	1699.81
562.41	1675.24
562.61	1644.52
562.80	1665.00
563.00	1882.08
563.19	1771.49
563.39	1722.34
563.59	1724.39
563.78	1769.44
563.98	1695.72
564.17	1708.01
564.37	1646.57
564.56	1748.97
564.76	1644.52
564.96	1800.16
565.15	1777.64
565.35	1820.64
565.54	1714.15
565.74	1759.21
565.93	1638.38
566.13	1734.63
566.32	1789.92
566.52	1742.82
566.71	1779.68
566.91	1730.53
567.11	1654.76
567.30	1708.01
567.50	1734.63
567.69	1787.88
567.89	1759.21
568.08	1714.15
568.28	1775.59
568.47	1689.57
568.67	1785.83
568.86	1742.82
569.06	1697.77
569.25	1724.39
569.45	1687.53
569.64	1689.57
569.84	1656.81
570.04	1771.49
570.23	1769.44
570.43	1748.97
570.62	1748.97
570.82	1787.88
571.01	1708.01
571.21	1748.97
571.40	1617.90
571.60	1810.40
571.79	1722.34
571.99	1757.16
572.18	1648.61
572.38	1714.15
572.57	1695.72
572.77	1720.29
572.96	1900.52
573.16	1800.16
573.35	1779.68
573.55	1828.84
573.74	1826.79
573.94	1759.21
574.13	1693.67
574.33	1861.60
574.52	1777.64
574.71	1751.01
574.91	1804.26
575.10	1689.57
575.30	1798.12
575.49	1708.01
575.69	1671.14
575.88	1837.03
576.08	1783.78
576.27	1898.47
576.47	1763.30
576.66	1867.75
576.86	1867.75
577.05	1806.31
577.25	1765.35
577.44	1886.18
577.64	1677.29
577.83	1869.80
578.02	1744.87
578.22	1865.70
578.41	1824.74
578.61	1738.73
578.80	1687.53
579.00	1730.53
579.19	1757.16
579.39	1800.16
579.58	1773.54
579.77	1814.50
579.97	1910.75
580.16	1880.04
580.36	1763.30
580.55	1853.41
580.75	1816.55
580.94	1804.26
581.13	1849.32
581.33	1845.22
581.52	1742.82
581.72	1863.65
581.91	1877.99
582.11	1708.01
582.30	1865.70
582.49	1771.49
582.69	1894.37
582.88	1751.01
583.08	1789.92
583.27	1830.88
583.47	1865.70
583.66	1789.92
583.85	1708.01
584.05	1759.21
584.24	1755.11
584.44	1787.88
584.63	1865.70
584.82	1800.16
585.02	1959.91
585.21	1914.85
585.41	1920.99
585.60	1945.57
585.79	1923.04
585.99	1990.63
586.18	1929.19
586.37	2303.96
586.57	3278.80
586.76	9805.67
586.96	27121.25
587.15	42112.38
587.34	51770.60
587.54	58483.84
587.73	55948.46
587.93	40650.13
588.12	30012.98
588.31	23615.13
588.51	20268.75
588.70	18505.45
588.89	17096.44
589.09	15675.15
589.28	13414.20
589.47	11650.89
589.67	9607.02
589.86	7417.74
590.06	5445.55
590.25	4181.95
590.44	3239.89
590.64	2637.78
590.83	2322.40
591.02	2119.65
591.22	1982.43
591.41	1916.90
591.60	1890.28
591.80	1957.86
591.99	1693.67
592.18	1777.64
592.38	1837.03
592.57	1787.88
592.76	1755.11
592.96	1738.73
593.15	1783.78
593.34	1773.54
593.54	1769.44
593.73	1791.97
593.92	1847.27
594.12	1828.84
594.31	1798.12
594.50	1855.46
594.70	1906.66
594.89	1912.80
595.08	1669.09
595.28	1810.40
595.47	1896.42
595.66	1820.64
595.86	1812.45
596.05	1693.67
596.24	1828.84
596.43	1910.75
596.63	1841.12
596.82	1775.59
597.01	1837.03
597.21	1863.65
597.40	1832.93
597.59	1806.31
597.79	1824.74
597.98	1722.34
598.17	1808.36
598.36	1765.35
598.56	1794.02
598.75	1761.25
598.94	1759.21
599.14	1779.68
599.33	1671.14
599.52	1820.64
599.71	1787.88
599.91	1908.71
600.10	1832.93
600.29	1753.06
600.48	1837.03
600.68	1765.35
600.87	1796.07
601.06	1669.09
601.26	1796.07
601.45	1761.25
601.64	1712.10
601.83	1769.44
602.03	1679.33
602.22	1728.49
602.41	1771.49
602.60	1810.40
602.80	1855.46
602.99	1751.01
603.18	1763.30
603.37	1757.16
603.57	1857.51
603.76	1837.03
603.95	1773.54
604.14	1783.78
604.34	1701.86
604.53	1800.16
604.72	1658.85
604.91	1828.84
605.10	1769.44
605.30	1656.81
605.49	1918.95
605.68	1837.03
605.87	1763.30
606.07	1677.29
606.26	1738.73
606.45	1785.83
606.64	1642.47
606.84	1736.68
607.03	1708.01
607.22	1763.30
607.41	1802.21
607.60	1779.68
607.80	1830.88
607.99	1730.53
608.18	1734.63
608.37	1808.36
608.56	1673.19
608.76	1777.64
608.95	1888.23
609.14	1867.75
609.33	1927.14
609.52	1902.56
609.72	1898.47
609.91	1918.95
610.10	1828.84
610.29	1855.46
610.48	1837.03
610.68	1810.40
610.87	1783.78
611.06	1763.30
611.25	1746.92
611.44	1814.50
611.63	1699.81
611.83	1779.68
612.02	1724.39
612.21	1808.36
612.40	1683.43
612.59	1714.15
612.79	1617.90
612.98	1755.11
613.17	1826.79
613.36	1767.40
613.55	1925.09
613.74	1789.92
613.93	1837.03
614.13	1910.75
614.32	1996.77
614.51	1970.15
614.70	1808.36
614.89	1779.68
615.08	1941.47
615.28	2082.78
615.47	1730.53
615.66	1830.88
615.85	1837.03
616.04	1935.33
616.23	1818.60
616.42	1826.79
616.62	1751.01
616.81	1746.92
617.00	1705.96
617.19	1775.59
617.38	1734.63
617.57	1777.64
617.76	1755.11
617.95	1748.97
618.15	1765.35
618.34	1724.39
618.53	1654.76
618.72	1859.56
618.91	1871.84
619.10	1816.55
619.29	1716.20
619.48	1714.15
619.68	1660.90
619.87	1853.41
620.06	1687.53
620.25	1761.25
620.44	1638.38
620.63	1732.58
620.82	1703.91
621.01	1734.63
621.20	1736.68
621.39	1812.45
621.59	1746.92
621.78	1746.92
621.97	1763.30
622.16	1767.40
622.35	1705.96
622.54	1824.74
622.73	1783.78
622.92	1660.90
623.11	1746.92
623.30	1669.09
623.49	1810.40
623.68	1679.33
623.88	1755.11
624.07	1703.91
624.26	1724.39
624.45	1726.44
624.64	1695.72
624.83	1748.97
625.02	1753.06
625.21	1732.58
625.40	1798.12
625.59	1804.26
625.78	1802.21
625.97	1822.69
626.16	1830.88
626.35	1824.74
626.54	1730.53
626.74	1820.64
626.93	1812.45
627.12	1708.01
627.31	1865.70
627.50	1773.54
627.69	1716.20
627.88	1773.54
628.07	1699.81
628.26	1759.21
628.45	1652.71
628.64	1681.38
628.83	1748.97
629.02	1705.96
629.21	1808.36
629.40	1748.97
629.59	1755.11
629.78	1671.14
629.97	1796.07
630.16	1787.88
630.35	1744.87
630.54	1748.97
630.73	1710.05
630.92	1759.21
631.11	1656.81
631.30	1703.91
631.49	1779.68
631.68	1753.06
631.87	1689.57
632.06	1658.85
632.25	1810.40
632.44	1738.73
632.63	1820.64
632.82	1712.10
633.01	1822.69
633.20	1845.22
633.39	1814.50
633.58	1751.01
633.77	1800.16
633.96	1785.83
634.15	1736.68
634.34	1746.92
634.53	1689.57
634.72	1763.30
634.91	1650.66
635.10	1746.92
635.29	1787.88
635.48	1763.30
635.67	1693.67
635.86	1634.28
636.05	1783.78
636.24	1673.19
636.43	1791.97
636.62	1714.15
636.81	1599.46
637.00	1734.63
637.19	1718.25
637.38	1691.62
637.57	1718.25
637.76	1796.07
637.95	1859.56
638.14	1773.54
638.33	1832.93
638.52	1853.41
638.71	1730.53
638.89	1695.72
639.08	1839.08
639.27	1822.69
639.46	1890.28
639.65	2176.99
639.84	2240.48
640.03	2414.56
640.22	2363.36
640.41	2416.60
640.60	2160.61
640.79	2017.25
640.98	1912.80
641.17	1904.61
641.36	2017.25
641.55	1896.42
641.74	1787.88
641.92	1775.59
642.11	1814.50
642.30	1757.16
642.49	1783.78
642.68	1779.68
642.87	1759.21
643.06	1761.25
643.25	1656.81
643.44	1689.57
643.63	1685.48
643.82	1714.15
644.00	1691.62
644.19	1779.68
644.38	1714.15
644.57	1685.48
644.76	1777.64
644.95	1746.92
645.14	1773.54
645.33	1652.71
645.52	1742.82
645.71	1609.70
645.89	1642.47
646.08	1685.48
646.27	1718.25
646.46	1787.88
646.65	1570.79
646.84	1712.10
647.03	1695.72
647.22	1830.88
647.40	1734.63
647.59	1708.01
647.78	1720.29
647.97	1689.57
648.16	1632.23
648.35	1771.49
648.54	1830.88
648.73	1685.48
648.91	1787.88
649.10	1759.21
649.29	1730.53
649.48	1728.49
649.67	1748.97
649.86	1701.86
650.05	1802.21
650.23	1816.55
650.42	1775.59
650.61	1937.38
650.80	1908.71
650.99	2023.39
651.18	1841.12
651.36	1996.77
651.55	1726.44
651.74	1771.49
651.93	1748.97
652.12	1628.14
652.31	1804.26
652.49	1703.91
652.68	1773.54
652.87	1800.16
653.06	1810.40
653.25	1806.31
653.44	1718.25
653.62	1812.45
653.81	1634.28
654.00	1800.16
654.19	1777.64
654.38	1865.70
654.56	1791.97
654.75	1722.34
654.94	1783.78
655.13	1720.29
655.32	1728.49
655.51	1787.88
655.69	1638.38
655.88	1691.62
656.07	1697.77
656.26	1748.97
656.45	1615.85
656.63	1767.40
656.82	1673.19
657.01	1763.30
657.20	1730.53
657.38	1810.40
657.57	1746.92
657.76	1648.61
657.95	1753.06
658.14	1718.25
658.32	1763.30
658.51	1677.29
658.70	1656.81
658.89	1740.77
659.08	1726.44
659.26	1853.41
659.45	1695.72
659.64	1861.60
659.83	1781.73
660.01	1953.76
660.20	1834.98
660.39	1816.55
660.58	1617.90
660.76	1751.01
660.95	1673.19
661.14	1665.00
661.33	1675.24
661.51	1777.64
661.70	1732.58
661.89	1800.16
662.08	1669.09
662.26	1591.27
662.45	1695.72
662.64	1832.93
662.83	1757.16
663.01	1658.85
663.20	1736.68
663.39	1783.78
663.58	1646.57
663.76	1773.54
663.95	1748.97
664.14	1697.77
664.32	1685.48
664.51	1652.71
664.70	1673.19
664.89	1775.59
665.07	1673.19
665.26	1740.77
665.45	1662.95
665.64	1839.08
665.82	1722.34
666.01	1779.68
666.20	1734.63
666.38	1812.45
666.57	1789.92
666.76	2183.13
666.95	4718.52
667.13	11634.51
667.32	18446.05
667.51	22163.12
667.69	25153.15
667.88	25790.07
668.07	19625.68
668.25	14384.93
668.44	11806.54
668.63	9899.88
668.81	8386.43
669.00	7733.13
669.19	6973.33
669.38	6152.10
669.56	5222.32
669.75	4556.73
669.94	3811.27
670.12	3067.86
670.31	2736.09
670.50	2385.88
670.68	2078.69
670.87	2013.15
671.06	1869.80
671.24	1894.37
671.43	1853.41
671.62	1794.02
671.80	1718.25
671.99	1769.44
672.18	1820.64
672.36	1771.49
672.55	1816.55
672.74	1718.25
672.92	1761.25
673.11	1789.92
673.29	1646.57
673.48	1800.16
673.67	1765.35
673.85	1783.78
674.04	1746.92
674.23	1820.64
674.41	1910.75
674.60	1648.61
674.79	1648.61
674.97	1726.44
675.16	1763.30
675.34	1773.54
675.53	1683.43
675.72	1783.78
675.90	1832.93
676.09	1660.90
676.28	1746.92
676.46	1628.14
676.65	1681.38
676.83	1626.09
677.02	1705.96
677.21	1691.62
677.39	1767.40
677.58	1660.90
677.77	1646.57
677.95	1642.47
678.14	1710.05
678.32	1699.81
678.51	1660.90
678.70	1789.92
678.88	1763.30
679.07	1687.53
679.25	1718.25
679.44	1636.33
679.63	1710.05
679.81	1744.87
680.00	1742.82
680.18	1751.01
680.37	1712.10
680.55	1705.96
680.74	1562.60
680.93	1587.18
681.11	1777.64
681.30	1669.09
681.48	1738.73
681.67	1728.49
681.85	1714.15
682.04	1681.38
682.23	1777.64
682.41	1757.16
682.60	1685.48
682.78	1736.68
682.97	1642.47
683.15	1671.14
683.34	1716.20
683.53	1816.55
683.71	1595.37
683.90	1765.35
684.08	1789.92
684.27	1667.05
684.45	1732.58
684.64	1841.12
684.82	1681.38
685.01	1734.63
685.19	1710.05
685.38	1832.93
685.57	1691.62
685.75	1642.47
685.94	1742.82
686.12	1640.42
686.31	1722.34
686.49	1857.51
686.68	1697.77
686.86	1781.73
687.05	1775.59
687.23	1732.58
687.42	1742.82
687.60	1667.05
687.79	1824.74
687.97	1783.78
688.16	1834.98
688.34	1851.36
688.53	1705.96
688.71	1787.88
688.90	1884.13
689.08	1705.96
689.27	1665.00
689.45	1718.25
689.64	1767.40
689.82	1667.05
690.01	1759.21
690.19	1675.24
690.38	1753.06
690.56	1787.88
690.75	1648.61
690.93	1734.63
691.12	1665.00
691.30	1693.67
691.49	1683.43
691.67	1662.95
691.86	1837.03
692.04	1736.68
692.23	1751.01
692.41	1757.16
692.60	1951.71
692.78	1783.78
692.97	1773.54
693.15	1851.36
693.34	1843.17
693.52	1732.58
693.71	1785.83
693.89	1730.53
694.08	1607.66
694.26	1863.65
694.44	1824.74
694.63	1802.21
694.81	1621.99
695.00	1673.19
695.18	1824.74
695.37	1853.41
695.55	1720.29
695.74	1765.35
695.92	1710.05
696.10	1804.26
696.29	1689.57
696.47	1726.44
696.66	1658.85
696.84	1681.38
697.03	1710.05
697.21	1841.12
697.40	2324.44
697.58	1779.68
697.76	1679.33
697.95	1605.61
698.13	1785.83
698.32	1675.24
698.50	1718.25
698.68	1759.21
698.87	1771.49
699.05	1820.64
699.24	1675.24
699.42	1710.05
699.61	1730.53
699.79	1730.53
699.97	1765.35
700.16	1753.06
700.34	1757.16
700.53	1740.77
700.71	1783.78
700.89	1757.16
701.08	1718.25
701.26	1789.92
701.45	2082.78
701.63	1699.81
701.81	1685.48
702.00	1599.46
702.18	1705.96
702.37	1769.44
702.55	1902.56
702.73	1894.37
702.92	1925.09
703.10	1992.67
703.28	1972.19
703.47	1931.23
703.65	1886.18
703.84	1859.56
704.02	1787.88
704.20	1812.45
704.39	1771.49
704.57	1787.88
704.75	1847.27
704.94	1781.73
705.12	1736.68
705.30	1904.61
705.49	2465.75
705.67	5408.69
705.86	13084.47
706.04	19349.21
706.22	22797.99
706.41	25122.43
706.59	24682.12
706.77	19220.19
706.96	13608.75
707.14	11984.71
707.32	10282.85
707.51	8920.95
707.69	7643.02
707.87	6797.21
708.06	5574.57
708.24	4448.19
708.42	3313.61
708.61	2793.43
708.79	2248.67
708.97	2033.63
709.16	1978.34
709.34	1910.75
709.52	1746.92
709.71	1857.51
709.89	1789.92
710.07	1751.01
710.26	1677.29
710.44	1751.01
710.62	1796.07
710.80	1705.96
710.99	1794.02
711.17	1814.50
711.35	1646.57
711.54	1656.81
711.72	1738.73
711.90	1722.34
712.09	1705.96
712.27	1798.12
712.45	1691.62
712.63	1767.40
712.82	1654.76
713.00	1701.86
713.18	1773.54
713.37	1738.73
713.55	1697.77
713.73	1714.15
713.91	1683.43
714.10	1667.05
714.28	1734.63
714.46	1746.92
714.65	1779.68
714.83	1812.45
715.01	1746.92
715.19	1712.10
715.38	1671.14
715.56	1798.12
715.74	1660.90
715.92	1708.01
716.11	1785.83
716.29	1660.90
716.47	1724.39
716.65	1716.20
716.84	1708.01
717.02	1738.73
717.20	1662.95
717.38	1671.14
717.57	1781.73
717.75	1771.49
717.93	1699.81
718.11	1757.16
718.30	1636.33
718.48	1742.82
718.66	1697.77
718.84	1765.35
719.03	1783.78
719.21	1601.51
719.39	1763.30
719.57	1765.35
719.75	1812.45
719.94	1576.94
720.12	1646.57
720.30	1763.30
720.48	1755.11
720.67	1636.33
720.85	1662.95
721.03	1689.57
721.21	1671.14
721.39	1806.31
721.58	1734.63
721.76	1791.97
721.94	1724.39
722.12	1742.82
722.30	1724.39
722.49	1652.71
722.67	1789.92
722.85	1783.78
723.03	1611.75
723.21	1669.09
723.40	1673.19
723.58	1794.02
723.76	1757.16
723.94	1789.92
724.12	1775.59
724.30	1830.88
724.49	1824.74
724.67	1734.63
724.85	1794.02
725.03	1738.73
725.21	1771.49
725.40	1755.11
725.58	1722.34
725.76	1910.75
725.94	1742.82
726.12	1671.14
726.30	1722.34
726.49	1761.25
726.67	1726.44
726.85	1693.67
727.03	1779.68
727.21	2234.33
727.39	3434.44
727.57	4870.07
727.76	5670.83
727.94	6254.50
728.12	6262.69
728.30	5633.96
728.48	4353.98
728.66	3985.35
728.84	3508.17
729.03	3209.17
729.21	2818.00
729.39	2459.61
729.57	2115.55
729.75	2109.41
729.93	1886.18
730.11	1845.22
730.30	1802.21
730.48	1771.49
730.66	1806.31
730.84	1785.83
731.02	1773.54
731.20	1652.71
731.38	1744.87
731.56	1619.94
731.74	1615.85
731.93	1730.53
732.11	1652.71
732.29	1691.62
732.47	1751.01
732.65	1730.53
732.83	1787.88
733.01	1753.06
733.19	1687.53
733.37	1779.68
733.56	1791.97
733.74	1665.00
733.92	1828.84
734.10	1736.68
734.28	1769.44
734.46	1669.09
734.64	1660.90
734.82	1630.18
735.00	1640.42
735.18	1675.24
735.36	1751.01
735.54	1685.48
735.73	1812.45
735.91	1755.11
736.09	1759.21
736.27	1736.68
736.45	1744.87
736.63	1550.31
736.81	1665.00
736.99	1761.25
737.17	1800.16
737.35	1722.34
737.53	1759.21
737.71	1652.71
737.89	1701.86
738.07	1693.67
738.25	1722.34
738.43	1660.90
738.61	1746.92
738.80	1599.46
738.98	1662.95
739.16	1705.96
739.34	1632.23
739.52	1744.87
739.70	1742.82
739.88	1748.97
740.06	1714.15
740.24	1630.18
740.42	1886.18
740.60	1648.61
740.78	1632.23
740.96	1648.61
741.14	1677.29
741.32	1673.19
741.50	1617.90
741.68	1816.55
741.86	1828.84
742.04	1595.37
742.22	1611.75
742.40	1738.73
742.58	1714.15
742.76	1609.70
742.94	1742.82
743.12	1644.52
743.30	1738.73
743.48	1773.54
743.66	1648.61
743.84	1671.14
744.02	1736.68
744.20	1714.15
744.38	1644.52
744.56	1628.14
744.74	1843.17
744.92	1783.78
745.10	1812.45
745.28	1765.35
745.46	1798.12
745.64	1695.72
745.82	1753.06
746.00	1728.49
746.18	1775.59
746.36	1697.77
746.54	1718.25
746.72	1769.44
746.90	1609.70
747.08	1818.60
747.26	1716.20
747.44	1804.26
747.62	1718.25
747.80	1785.83
747.98	1738.73
748.15	1806.31
748.33	1810.40
748.51	1779.68
748.69	1800.16
748.87	1689.57
749.05	1769.44
749.23	1662.95
749.41	1781.73
749.59	1712.10
749.77	1779.68
749.95	1765.35
750.13	1669.09
750.31	1773.54
750.49	1652.71
750.67	1740.77
750.85	1779.68
751.03	1665.00
751.20	1767.40
751.38	1660.90
751.56	1681.38
751.74	1714.15
751.92	1654.76
752.10	1691.62
752.28	1783.78
752.46	1634.28
752.64	1691.62
752.82	1755.11
753.00	1722.34
753.18	1722.34
753.35	1714.15
753.53	1787.88
753.71	1722.34
753.89	1751.01
754.07	1730.53
754.25	1763.30
754.43	1728.49
754.61	1660.90
754.79	1742.82
754.97	1697.77
755.14	1859.56
755.32	1703.91
755.50	1732.58
755.68	1697.77
755.86	1665.00
756.04	1634.28
756.22	1630.18
756.40	1818.60
756.57	1804.26
756.75	1634.28
756.93	1744.87
757.11	1769.44
757.29	1675.24
757.47	1675.24
757.65	1628.14
757.82	1624.04
758.00	1681.38
758.18	1669.09
758.36	1644.52
758.54	1751.01
758.72	1665.00
758.90	1839.08
759.07	1759.21
759.25	1650.66
759.43	1726.44
759.61	1732.58
759.79	2217.95
759.97	1775.59
760.15	1689.57
760.32	1685.48
760.50	1763.30
760.68	1794.02
760.86	1619.94
761.04	1802.21
761.22	1728.49
761.39	1755.11
761.57	1808.36
761.75	1652.71
761.93	1779.68
762.11	1681.38
762.28	1660.90
762.46	1714.15
762.64	1787.88
762.82	1652.71
763.00	1714.15
763.18	1806.31
763.35	1722.34
763.53	1775.59
763.71	1697.77
763.89	1718.25
764.07	1701.86
764.24	1607.66
764.42	1751.01
764.60	1687.53
764.78	1681.38
764.96	1812.45
765.13	1775.59
765.31	1697.77
765.49	1781.73
765.67	1710.05
765.84	1658.85
766.02	1681.38
766.20	1634.28
766.38	1691.62
766.56	1800.16
766.73	1699.81
766.91	1626.09
767.09	1697.77
767.27	1734.63
767.44	1648.61
767.62	1767.40
767.80	1689.57
767.98	1681.38
768.15	1708.01
768.33	1787.88
768.51	1763.30
768.69	1726.44
768.87	1738.73
769.04	1681.38
769.22	1804.26
769.40	1746.92
769.58	1845.22
769.75	1712.10
769.93	1765.35
770.11	1708.01
770.28	1662.95
770.46	1794.02
770.64	1751.01
770.82	1736.68
770.99	1628.14
771.17	1644.52
771.35	1673.19
771.53	1691.62
771.70	1673.19
771.88	1751.01
772.06	1671.14
772.23	1652.71
772.41	1796.07
772.59	1648.61
772.77	1699.81
772.94	1675.24
773.12	1746.92
773.30	1673.19
773.47	1712.10
773.65	1650.66
773.83	1724.39
774.01	1685.48
774.18	1619.94
774.36	1769.44
774.54	1683.43
774.71	1769.44
774.89	1677.29
775.07	1687.53
775.24	1714.15
775.42	1687.53
775.60	1816.55
775.78	1656.81
775.95	1671.14
776.13	1595.37
776.31	1601.51
776.48	1724.39
776.66	1834.98
776.84	1728.49
777.01	1673.19
777.19	1617.90
777.37	1675.24
777.54	1814.50
777.72	1763.30
777.90	1773.54
778.07	1685.48
778.25	1925.09
778.43	1763.30
778.60	1695.72
778.78	1753.06
778.96	1697.77
779.13	1632.23
779.31	1765.35
779.49	1689.57
779.66	1763.30
779.84	1681.38
780.01	1697.77
780.19	1689.57
780.37	1785.83
780.54	1742.82
780.72	1673.19
780.90	1685.48
781.07	1767.40
781.25	1681.38
781.43	1759.21
781.60	1757.16
781.78	1794.02
781.95	1695.72
782.13	1632.23
782.31	1652.71
782.48	1624.04
782.66	1685.48
782.83	1882.08
783.01	1660.90
783.19	1824.74
783.36	1718.25
783.54	1730.53
783.72	1755.11
783.89	1691.62
784.07	1716.20
784.24	1673.19
784.42	1845.22
784.60	1689.57
784.77	1753.06
784.95	1630.18
785.12	1628.14
785.30	1677.29
785.47	1656.81
785.65	1646.57
785.83	1736.68
786.00	1652.71
786.18	1634.28
786.35	1607.66
786.53	1689.57
786.71	1755.11
786.88	1732.58
787.06	1726.44
787.23	1660.90
787.41	1632.23
787.58	1734.63
787.76	1617.90
787.94	1675.24
788.11	1753.06
788.29	1638.38
788.46	1734.63
788.64	1648.61
788.81	1685.48
788.99	1724.39
789.16	1585.13
789.34	1656.81
789.52	1654.76
789.69	1652.71
789.87	1603.56
790.04	1787.88
790.22	1742.82
790.39	1777.64
790.57	1646.57
790.74	1656.81
790.92	1785.83
791.09	1656.81
791.27	1669.09
791.44	1761.25
791.62	1691.62
791.79	1808.36
791.97	1658.85
792.15	1877.99
792.32	1789.92
792.50	1681.38
792.67	1787.88
792.85	1722.34
793.02	1759.21
793.20	1708.01
793.37	1640.42
793.55	1677.29
793.72	1640.42
793.90	1755.11
794.07	1621.99
794.25	1650.66
794.42	1660.90
794.60	1746.92
794.77	1796.07
794.95	1712.10
795.12	1714.15
795.30	1701.86
795.47	1621.99
795.65	1882.08
795.82	1751.01
796.00	1634.28
796.17	1718.25
796.34	1759.21
796.52	1681.38
796.69	1810.40
796.87	1791.97
797.04	1742.82
797.22	1767.40
797.39	1697.77
797.57	1832.93
797.74	1699.81
797.92	1730.53
798.09	1708.01
798.27	1753.06
798.44	1683.43
798.62	1638.38
798.79	1681.38
798.96	1675.24
799.14	1656.81
799.31	1859.56
799.49	1746.92
799.66	1705.96
799.84	1718.25
800.01	1621.99
800.19	1695.72
800.36	1685.48
800.53	1765.35
800.71	1746.92
800.88	1871.84
801.06	1699.81
801.23	1699.81
801.41	1689.57
801.58	1662.95
801.75	1730.53
801.93	1712.10
802.10	1691.62
802.28	1712.10
802.45	1660.90
802.63	1734.63
802.80	1777.64
802.97	1705.96
803.15	1693.67
803.32	1689.57
803.50	1632.23
803.67	1636.33
803.84	1658.85
804.02	1710.05
804.19	1716.20
804.37	1624.04
804.54	1671.14
804.71	1724.39
804.89	1785.83
805.06	1632.23
805.24	1662.95
805.41	1656.81
805.58	1683.43
805.76	1886.18
805.93	1724.39
806.10	1804.26
806.28	1681.38
806.45	1710.05
806.63	1755.11
806.80	1746.92
806.97	1656.81
807.15	1804.26
807.32	1718.25
807.49	1675.24
807.67	1691.62
807.84	1726.44
808.01	1652.71
808.19	1816.55
808.36	1781.73
808.54	1640.42
808.71	1654.76
808.88	1701.86
809.06	1851.36
809.23	1763.30
809.40	1669.09
809.58	1767.40
809.75	1673.19
809.92	1667.05
810.10	1785.83
810.27	1677.29
810.44	1769.44
810.62	1761.25
810.79	1714.15
810.96	1751.01
811.14	1740.77
811.31	1685.48
811.48	1753.06
811.66	1644.52
811.83	1798.12
812.00	1658.85
812.18	1759.21
812.35	1839.08
812.52	1685.48
812.69	1638.38
812.87	1638.38
813.04	1644.52
813.21	1671.14
813.39	1748.97
813.56	1687.53
813.73	1710.05
813.91	1599.46
814.08	1728.49
814.25	1751.01
814.42	1585.13
814.60	1636.33
814.77	1605.61
814.94	1689.57
815.12	1708.01
815.29	1742.82
815.46	1665.00
815.63	1708.01
815.81	1669.09
815.98	1656.81
816.15	1722.34
816.33	1714.15
816.50	1689.57
816.67	1689.57
816.84	1740.77
817.02	1626.09
817.19	1730.53
817.36	1796.07
817.53	1757.16
817.71	1697.77
817.88	1712.10
818.05	1662.95
818.22	1736.68
818.40	1806.31
818.57	1687.53
818.74	1740.77
818.91	1789.92
819.09	1703.91
819.26	1714.15
819.43	1624.04
819.60	1621.99
819.78	1712.10
819.95	1763.30
820.12	1705.96
820.29	1828.84
820.47	1718.25
820.64	1671.14
820.81	1675.24
820.98	1646.57
821.15	1736.68
821.33	1757.16
821.50	1630.18
821.67	1726.44
821.84	1708.01
822.02	1714.15
822.19	1767.40
822.36	1720.29
822.53	1734.63
822.70	1673.19
822.88	1671.14
823.05	1740.77
823.22	1660.90
823.39	1660.90
823.56	1671.14
823.74	1810.40
823.91	1679.33
824.08	1642.47
824.25	1650.66
824.42	1800.16
824.60	1603.56
824.77	1689.57
824.94	1697.77
825.11	1695.72
825.28	1609.70
825.45	1767.40
825.63	1773.54
825.80	1691.62
825.97	1728.49
826.14	1699.81
826.31	1652.71
826.48	1773.54
826.66	1628.14
826.83	1693.67
827.00	1662.95
827.17	1607.66
827.34	1685.48
827.51	1730.53
827.69	1640.42
827.86	1607.66
828.03	1716.20
828.20	1767.40
828.37	1671.14
828.54	1779.68
828.71	1644.52
828.89	1794.02
829.06	1767.40
829.23	1830.88
829.40	1636.33
829.57	1630.18
829.74	1703.91
829.91	1669.09
830.09	1595.37
830.26	1751.01
830.43	1822.69
830.60	1708.01
830.77	1781.73
830.94	1746.92
831.11	1638.38
831.28	1718.25
831.46	1718.25
831.63	1722.34
831.80	1740.77
831.97	1650.66
832.14	1751.01
832.31	1660.90
832.48	1615.85
832.65	1722.34
832.82	1742.82
832.99	1697.77
833.17	1660.90
833.34	1771.49
833.51	1712.10
833.68	1578.98
833.85	1777.64
834.02	1642.47
834.19	1671.14
834.36	1701.86
834.53	1716.20
834.70	1771.49
834.87	1810.40
835.04	1640.42
835.22	1656.81
835.39	1681.38
835.56	1626.09
835.73	1652.71
835.90	1708.01
836.07	1665.00
836.24	1753.06
836.41	1726.44
836.58	1619.94
836.75	1705.96
836.92	1654.76
837.09	1695.72
837.26	1677.29
837.43	1744.87
837.60	1746.92
837.77	1734.63
837.94	1679.33
838.12	1763.30
838.29	1746.92
838.46	1609.70
838.63	1624.04
838.80	1820.64
838.97	1697.77
839.14	1740.77
839.31	1701.86
839.48	1667.05
839.65	1638.38
839.82	1671.14
839.99	1656.81
840.16	1732.58
840.33	1648.61
840.50	1738.73
840.67	1613.80
840.84	1652.71
841.01	1804.26
841.18	1710.05
841.35	1703.91
841.52	1755.11
841.69	1720.29
841.86	1744.87
842.03	1689.57
842.20	1763.30
842.37	1669.09
842.54	1714.15
842.71	1681.38
842.88	1652.71
843.05	1738.73
843.22	1673.19
843.39	1746.92
843.56	1716.20
843.73	1720.29
843.90	1708.01
844.07	1708.01
844.24	1742.82
844.41	1775.59
844.58	1697.77
844.75	1644.52
844.92	1697.77
845.09	1683.43
845.26	1642.47
845.43	1667.05
845.60	1720.29
845.77	1728.49
845.94	1710.05
846.10	1769.44
846.27	1638.38
846.44	1648.61
846.61	1654.76
846.78	1732.58
846.95	1753.06
847.12	1621.99
847.29	1640.42
847.46	1718.25
847.63	1703.91
847.80	1611.75
847.97	1724.39
848.14	1740.77
848.31	1697.77
848.48	1685.48
848.65	1755.11
848.82	1658.85
848.98	1837.03
849.15	1652.71
849.32	1837.03
849.49	1814.50
849.66	1734.63
849.83	1753.06
850.00	1619.94
850.17	1699.81
850.34	1697.77
850.51	1701.86
850.68	1677.29
850.85	1824.74
851.01	1738.73
851.18	1732.58
851.35	1683.43
851.52	1722.34
851.69	1779.68
851.86	1632.23
852.03	1642.47
852.20	1763.30
852.37	1701.86
852.53	1605.61
852.70	1669.09
852.87	1689.57
853.04	1712.10
853.21	1675.24
853.38	1724.39
853.55	1738.73
853.72	1763.30
853.89	1685.48
854.05	1693.67
854.22	1626.09
854.39	1654.76
854.56	1755.11
854.73	1732.58
854.90	1691.62
855.07	1734.63
855.23	1650.66
855.40	1730.53
855.57	1712.10
855.74	1656.81
855.91	1830.88
856.08	1669.09
856.25	1665.00
856.41	1652.71
856.58	1708.01
856.75	1691.62
856.92	1556.46
857.09	1730.53
857.26	1626.09
857.42	1710.05
857.59	1677.29
857.76	1728.49
857.93	1697.77
858.10	1714.15
858.27	1638.38
858.43	1738.73
858.60	1669.09
858.77	1556.46
858.94	1650.66
859.11	1746.92
859.27	1654.76
859.44	1718.25
859.61	1816.55
859.78	1703.91
859.95	1753.06
860.12	1656.81
860.28	1744.87
860.45	1832.93
860.62	1753.06
860.79	1703.91
860.95	1693.67
861.12	1650.66
861.29	1712.10
861.46	1632.23
861.63	1703.91
861.79	1667.05
861.96	1615.85
862.13	1667.05
862.30	1751.01
862.47	1695.72
862.63	1642.47
862.80	1740.77
862.97	1730.53
863.14	1724.39
863.30	1771.49
863.47	1695.72
863.64	1761.25
863.81	1769.44
863.97	1658.85
864.14	1751.01
864.31	1712.10
864.48	1779.68
864.65	1705.96
864.81	1771.49
864.98	1773.54
865.15	1740.77
865.32	1708.01
865.48	1689.57
865.65	1820.64
865.82	1724.39
865.98	1730.53
866.15	1699.81
866.32	1720.29
866.49	1779.68
866.65	1794.02
866.82	1675.24
866.99	1744.87
867.16	1703.91
867.32	1697.77
867.49	1705.96
867.66	1785.83
867.83	1642.47
867.99	1687.53
868.16	1660.90
868.33	1609.70
868.49	1746.92
868.66	1683.43
868.83	1738.73
868.99	1693.67
869.16	1658.85
869.33	1732.58
869.50	1789.92
869.66	1722.34
869.83	1675.24
870.00	1533.93
870.16	1767.40
870.33	1648.61
870.50	1677.29
870.66	1695.72
870.83	1820.64
871.00	1757.16
871.17	1712.10
871.33	1677.29
871.50	1683.43
871.67	1654.76
871.83	1648.61
872.00	1787.88
872.17	1677.29
872.33	1736.68
872.50	1673.19
872.67	1665.00
872.83	1720.29
873.00	1753.06
873.17	1728.49
873.33	1822.69
873.50	1769.44
873.67	1716.20
873.83	1722.34
874.00	1699.81
874.16	1783.78
874.33	1753.06
874.50	1677.29
874.66	1697.77
874.83	1658.85
875.00	1800.16
875.16	1791.97
875.33	1732.58
875.50	1599.46
875.66	1673.19
875.83	1734.63
875.99	1712.10
876.16	1718.25
876.33	1640.42
876.49	1730.53
876.66	1761.25
876.83	1746.92
876.99	1593.32
877.16	1677.29
877.32	1634.28
877.49	1673.19
877.66	1710.05
877.82	1808.36
877.99	1644.52
878.15	1720.29
878.32	1677.29
878.49	1746.92
878.65	1718.25
878.82	1783.78
878.98	1695.72
879.15	1724.39
879.32	1738.73
879.48	1738.73
879.65	1738.73
879.81	1689.57
879.98	1738.73
880.15	1679.33
880.31	1738.73
880.48	1744.87
880.64	1736.68
880.81	1839.08
880.97	1804.26
881.14	1779.68
881.31	1630.18
881.47	1892.32
881.64	1617.90
881.80	1624.04
881.97	1681.38
882.13	1740.77
882.30	1576.94
882.47	1552.36
882.63	1693.67
882.80	1736.68
882.96	1685.48
883.13	1816.55
883.29	1746.92
883.46	1730.53
883.62	1818.60
883.79	1683.43
883.95	1687.53
884.12	1740.77
884.29	1730.53
884.45	1691.62
884.62	1722.34
884.78	1722.34
884.95	1810.40
885.11	1693.67
885.28	1767.40
885.44	1638.38
885.61	1732.58
885.77	1806.31
885.94	1798.12
886.10	1787.88
886.27	1773.54
886.43	1814.50
886.60	1728.49
886.76	1740.77
886.93	1638.38
887.09	1697.77
887.26	1642.47
887.42	1667.05
887.59	1773.54
887.75	1859.56
887.92	1748.97
888.08	1843.17
888.25	1773.54
888.41	1771.49
888.58	1722.34
888.74	1671.14
888.91	1701.86
>>>>>End Processed Spectral Data<<<<<
