SpectraSuite Data File
++++++++++++++++++++++++++++++++++++
Date: Wed May 04 18:44:53 CEST 2016
User: root
Dark Spectrum Present: No
Reference Spectrum Present: No
Number of Sampled Component Spectra: 1
Spectrometers: USB4C02835
Integration Time (usec): 100000 (USB4C02835)
Spectra Averaged: 1 (USB4C02835)
Boxcar Smoothing: 0 (USB4C02835)
Correct for Electrical Dark: No (USB4C02835)
Strobe/Lamp Enabled: No (USB4C02835)
Correct for Detector Non-linearity: No (USB4C02835)
Correct for Stray Light: No (USB4C02835)
Number of Pixels in Processed Spectrum: 3648
>>>>>Begin Processed Spectral Data<<<<<
177.47	1454.06
177.69	1454.06
177.91	1454.06
178.13	1538.02
178.36	1476.59
178.58	1570.79
178.80	1765.35
179.02	1638.38
179.24	1671.14
179.46	1675.24
179.68	1771.49
179.90	1691.62
180.13	1697.77
180.35	1658.85
180.57	1703.91
180.79	1785.83
181.01	1689.57
181.23	1769.44
181.45	1771.49
181.67	1691.62
181.90	1753.06
182.12	1689.57
182.34	1615.85
182.56	1730.53
182.78	1654.76
183.00	1718.25
183.22	1693.67
183.44	1527.78
183.66	1861.60
183.89	1796.07
184.11	1648.61
184.33	1675.24
184.55	1722.34
184.77	1687.53
184.99	1730.53
185.21	1708.01
185.43	1798.12
185.65	1699.81
185.87	1740.77
186.10	1859.56
186.32	1839.08
186.54	1824.74
186.76	1769.44
186.98	1787.88
187.20	1720.29
187.42	1726.44
187.64	1740.77
187.86	1679.33
188.08	1708.01
188.30	1701.86
188.52	1691.62
188.75	1818.60
188.97	1777.64
189.19	1646.57
189.41	1734.63
189.63	1767.40
189.85	1679.33
190.07	1630.18
190.29	1560.55
190.51	1744.87
190.73	1589.22
190.95	1845.22
191.17	1628.14
191.39	1648.61
191.61	1701.86
191.84	1751.01
192.06	1712.10
192.28	1601.51
192.50	1816.55
192.72	1794.02
192.94	1697.77
193.16	1783.78
193.38	1789.92
193.60	1734.63
193.82	1710.05
194.04	1746.92
194.26	1726.44
194.48	1677.29
194.70	1685.48
194.92	1660.90
195.14	1699.81
195.36	1755.11
195.58	1767.40
195.80	1662.95
196.02	1646.57
196.24	1665.00
196.46	1710.05
196.69	1726.44
196.91	1847.27
197.13	1730.53
197.35	1728.49
197.57	1845.22
197.79	1734.63
198.01	1734.63
198.23	1765.35
198.45	1746.92
198.67	1609.70
198.89	1636.33
199.11	1722.34
199.33	1640.42
199.55	1576.94
199.77	1667.05
199.99	1808.36
200.21	1638.38
200.43	1724.39
200.65	1595.37
200.87	1632.23
201.09	1683.43
201.31	1675.24
201.53	1710.05
201.75	1742.82
201.97	1726.44
202.19	1708.01
202.41	1714.15
202.63	1867.75
202.85	1726.44
203.07	1671.14
203.29	1630.18
203.51	1640.42
203.73	1673.19
203.95	1837.03
204.17	1714.15
204.39	1783.78
204.61	1728.49
204.83	1693.67
205.05	1755.11
205.27	1720.29
205.49	1843.17
205.71	1669.09
205.93	1626.09
206.15	1708.01
206.37	1740.77
206.59	1691.62
206.81	1593.32
207.03	1632.23
207.25	1617.90
207.47	1785.83
207.69	1744.87
207.91	1837.03
208.13	1720.29
208.34	1673.19
208.56	1648.61
208.78	1767.40
209.00	1716.20
209.22	1681.38
209.44	1693.67
209.66	1732.58
209.88	1703.91
210.10	1718.25
210.32	1617.90
210.54	1767.40
210.76	1660.90
210.98	1757.16
211.20	1665.00
211.42	1757.16
211.64	1740.77
211.86	1732.58
212.08	1701.86
212.30	1720.29
212.52	1673.19
212.74	1742.82
212.96	1638.38
213.17	1697.77
213.39	1734.63
213.61	1816.55
213.83	1767.40
214.05	1703.91
214.27	1744.87
214.49	1644.52
214.71	1621.99
214.93	1794.02
215.15	1757.16
215.37	1724.39
215.59	1718.25
215.81	1787.88
216.03	1785.83
216.24	1624.04
216.46	1671.14
216.68	1791.97
216.90	1769.44
217.12	1802.21
217.34	1679.33
217.56	1632.23
217.78	1734.63
218.00	1757.16
218.22	1716.20
218.44	1744.87
218.66	1683.43
218.87	1787.88
219.09	1669.09
219.31	1740.77
219.53	1724.39
219.75	1665.00
219.97	1652.71
220.19	1714.15
220.41	1687.53
220.63	1777.64
220.85	1718.25
221.06	1695.72
221.28	1734.63
221.50	1757.16
221.72	1646.57
221.94	1757.16
222.16	1746.92
222.38	1755.11
222.60	1767.40
222.82	1691.62
223.03	1800.16
223.25	1628.14
223.47	1710.05
223.69	1763.30
223.91	1773.54
224.13	1683.43
224.35	1726.44
224.57	1787.88
224.78	1691.62
225.00	1648.61
225.22	1691.62
225.44	1705.96
225.66	1761.25
225.88	1683.43
226.10	1781.73
226.32	1740.77
226.53	1783.78
226.75	1648.61
226.97	1751.01
227.19	1679.33
227.41	1652.71
227.63	1757.16
227.85	1621.99
228.06	1667.05
228.28	1732.58
228.50	1802.21
228.72	1677.29
228.94	1722.34
229.16	1544.17
229.37	1642.47
229.59	1632.23
229.81	1791.97
230.03	1675.24
230.25	1640.42
230.47	1560.55
230.69	1613.80
230.90	1726.44
231.12	1621.99
231.34	1748.97
231.56	1761.25
231.78	1675.24
232.00	1722.34
232.21	1665.00
232.43	1673.19
232.65	1607.66
232.87	1753.06
233.09	1689.57
233.30	1755.11
233.52	1722.34
233.74	1701.86
233.96	1665.00
234.18	1685.48
234.40	1777.64
234.61	1820.64
234.83	1636.33
235.05	1654.76
235.27	1824.74
235.49	1791.97
235.70	1738.73
235.92	1785.83
236.14	1816.55
236.36	1781.73
236.58	1615.85
236.79	1740.77
237.01	1701.86
237.23	1742.82
237.45	1775.59
237.67	1658.85
237.88	1699.81
238.10	1857.51
238.32	1691.62
238.54	1781.73
238.76	1697.77
238.97	1568.74
239.19	1662.95
239.41	1691.62
239.63	1736.68
239.85	1724.39
240.06	1748.97
240.28	1705.96
240.50	1791.97
240.72	1779.68
240.93	1703.91
241.15	1751.01
241.37	1693.67
241.59	1738.73
241.81	1658.85
242.02	1720.29
242.24	1783.78
242.46	1767.40
242.68	1716.20
242.89	1738.73
243.11	1722.34
243.33	1685.48
243.55	1701.86
243.76	1767.40
243.98	1671.14
244.20	1701.86
244.42	1683.43
244.64	1708.01
244.85	1597.42
245.07	1665.00
245.29	1734.63
245.51	1705.96
245.72	1761.25
245.94	1755.11
246.16	1701.86
246.38	1771.49
246.59	1751.01
246.81	1662.95
247.03	1683.43
247.24	1578.98
247.46	1748.97
247.68	1730.53
247.90	1697.77
248.11	1644.52
248.33	1824.74
248.55	1701.86
248.77	1705.96
248.98	1759.21
249.20	1753.06
249.42	1697.77
249.64	1691.62
249.85	1740.77
250.07	1703.91
250.29	1716.20
250.50	1738.73
250.72	1714.15
250.94	1695.72
251.16	1806.31
251.37	1757.16
251.59	1703.91
251.81	1769.44
252.02	1841.12
252.24	1613.80
252.46	1775.59
252.68	1687.53
252.89	1669.09
253.11	1667.05
253.33	1869.80
253.54	1730.53
253.76	1601.51
253.98	1665.00
254.20	1732.58
254.41	1642.47
254.63	1728.49
254.85	1677.29
255.06	1691.62
255.28	1693.67
255.50	1673.19
255.71	1691.62
255.93	1652.71
256.15	1736.68
256.36	1738.73
256.58	1697.77
256.80	1757.16
257.02	1640.42
257.23	1691.62
257.45	1777.64
257.67	1734.63
257.88	1748.97
258.10	1673.19
258.32	1691.62
258.53	1624.04
258.75	1638.38
258.97	1728.49
259.18	1693.67
259.40	1744.87
259.62	1834.98
259.83	1720.29
260.05	1773.54
260.27	2002.91
260.48	1789.92
260.70	1648.61
260.92	1718.25
261.13	1705.96
261.35	1722.34
261.57	1650.66
261.78	1626.09
262.00	1576.94
262.22	1724.39
262.43	1632.23
262.65	1791.97
262.86	1703.91
263.08	1834.98
263.30	1701.86
263.51	1578.98
263.73	1679.33
263.95	1863.65
264.16	1716.20
264.38	1691.62
264.60	1722.34
264.81	1677.29
265.03	1806.31
265.25	1701.86
265.46	1703.91
265.68	1767.40
265.89	1751.01
266.11	1665.00
266.33	1775.59
266.54	1736.68
266.76	1763.30
266.98	1757.16
267.19	1812.45
267.41	1757.16
267.62	1751.01
267.84	1673.19
268.06	1779.68
268.27	1753.06
268.49	1703.91
268.70	1796.07
268.92	1728.49
269.14	1697.77
269.35	1601.51
269.57	1722.34
269.79	1755.11
270.00	1669.09
270.22	1798.12
270.43	1646.57
270.65	1589.22
270.87	1757.16
271.08	1796.07
271.30	1712.10
271.51	1673.19
271.73	1734.63
271.95	1718.25
272.16	1759.21
272.38	1742.82
272.59	1652.71
272.81	1738.73
273.02	1712.10
273.24	1789.92
273.46	1781.73
273.67	1675.24
273.89	1697.77
274.10	1669.09
274.32	1687.53
274.54	1703.91
274.75	1785.83
274.97	1699.81
275.18	1761.25
275.40	1718.25
275.61	1761.25
275.83	1660.90
276.05	1611.75
276.26	1699.81
276.48	1763.30
276.69	1628.14
276.91	1716.20
277.12	1820.64
277.34	1763.30
277.55	1761.25
277.77	1632.23
277.99	1681.38
278.20	1626.09
278.42	1644.52
278.63	1718.25
278.85	1675.24
279.06	1642.47
279.28	1746.92
279.49	1794.02
279.71	1718.25
279.93	1638.38
280.14	1675.24
280.36	1712.10
280.57	1818.60
280.79	1769.44
281.00	1619.94
281.22	1705.96
281.43	1785.83
281.65	1492.97
281.86	1638.38
282.08	1708.01
282.29	1832.93
282.51	1736.68
282.73	1710.05
282.94	1548.26
283.16	1660.90
283.37	1802.21
283.59	1689.57
283.80	1734.63
284.02	1691.62
284.23	1738.73
284.45	1740.77
284.66	1677.29
284.88	1685.48
285.09	1757.16
285.31	1746.92
285.52	1667.05
285.74	1669.09
285.95	1720.29
286.17	1701.86
286.38	1783.78
286.60	1648.61
286.81	1615.85
287.03	1718.25
287.24	1722.34
287.46	1779.68
287.67	1732.58
287.89	1855.46
288.10	1761.25
288.32	1679.33
288.53	1816.55
288.75	1744.87
288.96	1791.97
289.18	1701.86
289.39	1673.19
289.61	1859.56
289.82	1865.70
290.04	1849.32
290.25	1669.09
290.47	1748.97
290.68	1621.99
290.90	1877.99
291.11	1603.56
291.33	1810.40
291.54	1687.53
291.76	1609.70
291.97	1740.77
292.18	1736.68
292.40	1763.30
292.61	1695.72
292.83	1902.56
293.04	1826.79
293.26	1619.94
293.47	1665.00
293.69	1685.48
293.90	1662.95
294.12	1742.82
294.33	1701.86
294.55	1681.38
294.76	1828.84
294.97	1726.44
295.19	1820.64
295.40	1660.90
295.62	1769.44
295.83	1808.36
296.05	1716.20
296.26	1775.59
296.48	1681.38
296.69	1689.57
296.90	1644.52
297.12	1769.44
297.33	1716.20
297.55	1785.83
297.76	1732.58
297.98	1765.35
298.19	1734.63
298.41	1662.95
298.62	1621.99
298.83	1763.30
299.05	1820.64
299.26	1646.57
299.48	1613.80
299.69	1656.81
299.90	1720.29
300.12	1644.52
300.33	1716.20
300.55	1705.96
300.76	1701.86
300.98	1759.21
301.19	1791.97
301.40	1744.87
301.62	1699.81
301.83	1701.86
302.05	1695.72
302.26	1685.48
302.47	1755.11
302.69	1601.51
302.90	1673.19
303.12	1480.68
303.33	1761.25
303.54	1806.31
303.76	1665.00
303.97	1673.19
304.19	1806.31
304.40	1585.13
304.61	1687.53
304.83	1822.69
305.04	1759.21
305.26	1681.38
305.47	1624.04
305.68	1656.81
305.90	1603.56
306.11	1791.97
306.33	1673.19
306.54	1642.47
306.75	1701.86
306.97	1722.34
307.18	1605.61
307.39	1669.09
307.61	1763.30
307.82	1673.19
308.04	1728.49
308.25	1693.67
308.46	1699.81
308.68	1679.33
308.89	1681.38
309.10	1796.07
309.32	1705.96
309.53	1669.09
309.74	1808.36
309.96	1712.10
310.17	1783.78
310.39	1744.87
310.60	1763.30
310.81	1648.61
311.03	1617.90
311.24	1736.68
311.45	1681.38
311.67	1767.40
311.88	1683.43
312.09	1583.08
312.31	1718.25
312.52	1638.38
312.73	1757.16
312.95	1605.61
313.16	1667.05
313.37	1771.49
313.59	1748.97
313.80	1687.53
314.01	1755.11
314.23	1669.09
314.44	1638.38
314.65	1660.90
314.87	1685.48
315.08	1675.24
315.29	1681.38
315.51	1650.66
315.72	1605.61
315.93	1822.69
316.15	1759.21
316.36	1693.67
316.57	1687.53
316.79	1759.21
317.00	1730.53
317.21	1712.10
317.43	1662.95
317.64	1650.66
317.85	1648.61
318.07	1685.48
318.28	1726.44
318.49	1925.09
318.70	1964.00
318.92	1837.03
319.13	1843.17
319.34	1902.56
319.56	1882.08
319.77	1761.25
319.98	1810.40
320.20	1677.29
320.41	1742.82
320.62	1826.79
320.83	1714.15
321.05	1912.80
321.26	1732.58
321.47	1734.63
321.69	1730.53
321.90	1587.18
322.11	1621.99
322.32	1665.00
322.54	1806.31
322.75	1716.20
322.96	1824.74
323.18	1617.90
323.39	1619.94
323.60	1742.82
323.81	1722.34
324.03	1665.00
324.24	1671.14
324.45	1718.25
324.66	1632.23
324.88	1742.82
325.09	1824.74
325.30	1728.49
325.52	1761.25
325.73	1714.15
325.94	1613.80
326.15	1576.94
326.37	1691.62
326.58	1712.10
326.79	1781.73
327.00	1669.09
327.22	1687.53
327.43	1718.25
327.64	1636.33
327.85	1759.21
328.07	1738.73
328.28	1810.40
328.49	1595.37
328.70	1751.01
328.92	1681.38
329.13	1697.77
329.34	1767.40
329.55	1796.07
329.76	1785.83
329.98	1691.62
330.19	1789.92
330.40	1681.38
330.61	1695.72
330.83	1740.77
331.04	1642.47
331.25	1722.34
331.46	1658.85
331.68	1695.72
331.89	1757.16
332.10	1730.53
332.31	1648.61
332.52	1761.25
332.74	1757.16
332.95	1640.42
333.16	1705.96
333.37	1757.16
333.58	1701.86
333.80	1789.92
334.01	1673.19
334.22	1667.05
334.43	1748.97
334.64	1755.11
334.86	1609.70
335.07	1708.01
335.28	1828.84
335.49	1683.43
335.70	1794.02
335.92	1744.87
336.13	1746.92
336.34	1787.88
336.55	1755.11
336.76	1751.01
336.98	1701.86
337.19	1665.00
337.40	1830.88
337.61	1814.50
337.82	1648.61
338.04	1789.92
338.25	1675.24
338.46	1681.38
338.67	1693.67
338.88	1712.10
339.09	1691.62
339.31	1658.85
339.52	1615.85
339.73	1603.56
339.94	1662.95
340.15	1730.53
340.36	1703.91
340.58	1714.15
340.79	1677.29
341.00	1773.54
341.21	1665.00
341.42	1841.12
341.63	1656.81
341.85	1736.68
342.06	1726.44
342.27	1634.28
342.48	1800.16
342.69	1626.09
342.90	1714.15
343.12	1720.29
343.33	1595.37
343.54	1710.05
343.75	1880.04
343.96	1669.09
344.17	1683.43
344.38	1695.72
344.60	1687.53
344.81	1650.66
345.02	1695.72
345.23	1779.68
345.44	1767.40
345.65	1710.05
345.86	1701.86
346.07	1800.16
346.29	1566.70
346.50	1757.16
346.71	1730.53
346.92	1701.86
347.13	1730.53
347.34	1712.10
347.55	1671.14
347.76	1744.87
347.98	1589.22
348.19	1710.05
348.40	1796.07
348.61	1816.55
348.82	1812.45
349.03	1763.30
349.24	1675.24
349.45	1861.60
349.66	1628.14
349.88	1646.57
350.09	1652.71
350.30	1794.02
350.51	1763.30
350.72	1748.97
350.93	1691.62
351.14	1599.46
351.35	1685.48
351.56	1714.15
351.77	1710.05
351.99	1785.83
352.20	1802.21
352.41	1728.49
352.62	1705.96
352.83	1695.72
353.04	1755.11
353.25	1636.33
353.46	1785.83
353.67	1722.34
353.88	1646.57
354.09	1650.66
354.30	1689.57
354.52	1722.34
354.73	1728.49
354.94	1630.18
355.15	1720.29
355.36	1841.12
355.57	1732.58
355.78	1724.39
355.99	1685.48
356.20	1703.91
356.41	1796.07
356.62	1724.39
356.83	1744.87
357.04	1783.78
357.25	1578.98
357.46	1683.43
357.68	1652.71
357.89	1687.53
358.10	1734.63
358.31	1716.20
358.52	1656.81
358.73	1597.42
358.94	1734.63
359.15	1753.06
359.36	1710.05
359.57	1736.68
359.78	1671.14
359.99	1744.87
360.20	1656.81
360.41	1675.24
360.62	1652.71
360.83	1753.06
361.04	1689.57
361.25	1779.68
361.46	1796.07
361.67	1763.30
361.88	1787.88
362.09	1759.21
362.30	1712.10
362.51	1656.81
362.72	1693.67
362.93	1757.16
363.14	1677.29
363.35	1730.53
363.56	1685.48
363.78	1736.68
363.99	1724.39
364.20	1689.57
364.41	1712.10
364.62	1814.50
364.83	1667.05
365.04	1677.29
365.25	1681.38
365.46	1849.32
365.67	1671.14
365.88	1667.05
366.09	1722.34
366.30	1718.25
366.51	1665.00
366.72	1613.80
366.93	1705.96
367.14	1714.15
367.35	1796.07
367.56	1716.20
367.77	1814.50
367.98	1716.20
368.18	1708.01
368.39	1718.25
368.60	1640.42
368.81	1710.05
369.02	1789.92
369.23	1681.38
369.44	1693.67
369.65	1654.76
369.86	1724.39
370.07	1736.68
370.28	1605.61
370.49	1785.83
370.70	1705.96
370.91	1658.85
371.12	1644.52
371.33	1841.12
371.54	1701.86
371.75	1816.55
371.96	1660.90
372.17	1748.97
372.38	1767.40
372.59	1783.78
372.80	1660.90
373.01	1742.82
373.22	1722.34
373.43	1669.09
373.64	1640.42
373.85	1771.49
374.06	1748.97
374.26	1710.05
374.47	1775.59
374.68	1837.03
374.89	1726.44
375.10	1697.77
375.31	1822.69
375.52	1734.63
375.73	1705.96
375.94	1581.03
376.15	1828.84
376.36	1679.33
376.57	1595.37
376.78	1693.67
376.99	1746.92
377.20	1759.21
377.40	1654.76
377.61	1855.46
377.82	1675.24
378.03	1722.34
378.24	1751.01
378.45	1701.86
378.66	1703.91
378.87	1638.38
379.08	1671.14
379.29	1683.43
379.50	1748.97
379.71	1685.48
379.91	1779.68
380.12	1656.81
380.33	1730.53
380.54	1763.30
380.75	1738.73
380.96	1667.05
381.17	1783.78
381.38	1740.77
381.59	1818.60
381.80	1730.53
382.00	1896.42
382.21	1802.21
382.42	1808.36
382.63	1880.04
382.84	1767.40
383.05	1808.36
383.26	1847.27
383.47	1740.77
383.68	1722.34
383.88	1748.97
384.09	1802.21
384.30	1861.60
384.51	1742.82
384.72	1624.04
384.93	1632.23
385.14	1726.44
385.35	1753.06
385.55	1638.38
385.76	1894.37
385.97	1722.34
386.18	1628.14
386.39	1708.01
386.60	1687.53
386.81	1734.63
387.02	1710.05
387.22	1646.57
387.43	1759.21
387.64	1804.26
387.85	1894.37
388.06	2285.53
388.27	4630.46
388.48	9244.53
388.68	11605.84
388.89	13391.67
389.10	14225.19
389.31	11919.18
389.52	9613.17
389.73	8589.18
389.93	7845.77
390.14	7372.69
390.35	6768.54
390.56	5871.53
390.77	4968.37
390.98	3860.42
391.18	3205.07
391.39	2371.55
391.60	1955.81
391.81	1849.32
392.02	1744.87
392.23	1746.92
392.43	1763.30
392.64	1796.07
392.85	1771.49
393.06	1916.90
393.27	1748.97
393.47	1699.81
393.68	1720.29
393.89	1677.29
394.10	1810.40
394.31	1708.01
394.52	1626.09
394.72	1650.66
394.93	1748.97
395.14	1673.19
395.35	1746.92
395.56	1646.57
395.76	1654.76
395.97	1765.35
396.18	1894.37
396.39	1931.23
396.60	2041.82
396.80	1896.42
397.01	1873.89
397.22	1814.50
397.43	1853.41
397.64	1722.34
397.84	1787.88
398.05	1828.84
398.26	1755.11
398.47	1804.26
398.67	1765.35
398.88	1710.05
399.09	1791.97
399.30	1697.77
399.51	1828.84
399.71	1771.49
399.92	1683.43
400.13	1843.17
400.34	1679.33
400.54	1683.43
400.75	1826.79
400.96	1755.11
401.17	1859.56
401.37	1718.25
401.58	1705.96
401.79	1669.09
402.00	1771.49
402.21	2074.59
402.41	1968.10
402.62	2136.03
402.83	2152.42
403.04	2136.03
403.24	2156.51
403.45	1890.28
403.66	1974.24
403.87	1875.94
404.07	1990.63
404.28	1937.38
404.49	1949.67
404.70	1789.92
404.90	1742.82
405.11	1822.69
405.32	1718.25
405.52	1685.48
405.73	1697.77
405.94	1679.33
406.15	1740.77
406.35	1773.54
406.56	1728.49
406.77	1738.73
406.98	1751.01
407.18	1650.66
407.39	1857.51
407.60	1697.77
407.80	1755.11
408.01	1716.20
408.22	1726.44
408.43	1695.72
408.63	1753.06
408.84	1701.86
409.05	1738.73
409.25	1656.81
409.46	1679.33
409.67	1638.38
409.88	1654.76
410.08	1830.88
410.29	1660.90
410.50	1781.73
410.70	1708.01
410.91	1656.81
411.12	1804.26
411.32	1648.61
411.53	1748.97
411.74	1796.07
411.95	1755.11
412.15	1865.70
412.36	1781.73
412.57	1802.21
412.77	1875.94
412.98	1722.34
413.19	1724.39
413.39	1775.59
413.60	1765.35
413.81	1863.65
414.01	1736.68
414.22	1699.81
414.43	1789.92
414.63	1763.30
414.84	1839.08
415.05	1669.09
415.25	1644.52
415.46	1818.60
415.67	1640.42
415.87	1806.31
416.08	1732.58
416.29	1597.42
416.49	1730.53
416.70	1638.38
416.91	1669.09
417.11	1689.57
417.32	1796.07
417.53	1845.22
417.73	1748.97
417.94	1710.05
418.15	1738.73
418.35	1787.88
418.56	1820.64
418.77	1884.13
418.97	1691.62
419.18	1753.06
419.38	1472.49
419.59	1734.63
419.80	1789.92
420.00	1703.91
420.21	1724.39
420.42	1808.36
420.62	1738.73
420.83	1650.66
421.04	1681.38
421.24	1697.77
421.45	1718.25
421.65	1718.25
421.86	1644.52
422.07	1802.21
422.27	1746.92
422.48	1832.93
422.69	1687.53
422.89	1773.54
423.10	1712.10
423.30	1681.38
423.51	1767.40
423.72	1732.58
423.92	1716.20
424.13	1736.68
424.33	1716.20
424.54	1744.87
424.75	1738.73
424.95	1779.68
425.16	1726.44
425.36	1742.82
425.57	1714.15
425.78	1746.92
425.98	1771.49
426.19	1779.68
426.39	1687.53
426.60	1718.25
426.81	1773.54
427.01	1724.39
427.22	1773.54
427.42	1673.19
427.63	1667.05
427.83	1726.44
428.04	1785.83
428.25	1746.92
428.45	1783.78
428.66	1794.02
428.86	1714.15
429.07	1703.91
429.28	1746.92
429.48	1701.86
429.69	1708.01
429.89	1689.57
430.10	1568.74
430.30	1775.59
430.51	1748.97
430.71	1667.05
430.92	1712.10
431.13	1689.57
431.33	1751.01
431.54	1740.77
431.74	1806.31
431.95	1851.36
432.15	1611.75
432.36	1708.01
432.56	1701.86
432.77	1839.08
432.98	1837.03
433.18	1712.10
433.39	1689.57
433.59	1710.05
433.80	1869.80
434.00	1798.12
434.21	1746.92
434.41	1798.12
434.62	1888.23
434.82	1648.61
435.03	1716.20
435.23	1712.10
435.44	1646.57
435.64	1740.77
435.85	1724.39
436.06	1783.78
436.26	1724.39
436.47	1697.77
436.67	1699.81
436.88	1708.01
437.08	1832.93
437.29	1920.99
437.49	1787.88
437.70	1804.26
437.90	1746.92
438.11	1816.55
438.31	1798.12
438.52	1955.81
438.72	1910.75
438.93	1898.47
439.13	1791.97
439.34	1804.26
439.54	1773.54
439.75	1748.97
439.95	1755.11
440.16	1665.00
440.36	1761.25
440.57	1781.73
440.77	1738.73
440.98	1787.88
441.18	1791.97
441.39	1605.61
441.59	1761.25
441.80	1769.44
442.00	1724.39
442.21	1734.63
442.41	1667.05
442.62	1755.11
442.82	1658.85
443.02	1755.11
443.23	1800.16
443.43	1757.16
443.64	1794.02
443.84	1722.34
444.05	1820.64
444.25	1802.21
444.46	1658.85
444.66	1720.29
444.87	1822.69
445.07	1689.57
445.28	1703.91
445.48	1783.78
445.69	1742.82
445.89	1945.57
446.09	1746.92
446.30	1982.43
446.50	2627.54
446.71	4165.57
446.91	5087.15
447.12	5674.92
447.32	6010.79
447.53	5343.15
447.73	4460.48
447.93	3921.86
448.14	3571.66
448.34	3405.77
448.55	3080.14
448.75	3102.67
448.96	2983.89
449.16	2723.80
449.36	2418.65
449.57	2131.94
449.77	1914.85
449.98	1720.29
450.18	1816.55
450.39	1794.02
450.59	1865.70
450.79	1718.25
451.00	1716.20
451.20	1800.16
451.41	1751.01
451.61	1724.39
451.81	1683.43
452.02	1701.86
452.22	1656.81
452.43	1730.53
452.63	1699.81
452.84	1769.44
453.04	1646.57
453.24	1769.44
453.45	1718.25
453.65	1691.62
453.86	1738.73
454.06	1837.03
454.26	1742.82
454.47	1691.62
454.67	1710.05
454.87	1847.27
455.08	1720.29
455.28	1789.92
455.49	1779.68
455.69	1673.19
455.89	1814.50
456.10	1714.15
456.30	1751.01
456.51	1740.77
456.71	1787.88
456.91	1796.07
457.12	1773.54
457.32	1748.97
457.52	1814.50
457.73	1673.19
457.93	1804.26
458.14	1630.18
458.34	1683.43
458.54	1755.11
458.75	1675.24
458.95	1871.84
459.15	1763.30
459.36	1798.12
459.56	1779.68
459.76	1839.08
459.97	1751.01
460.17	1769.44
460.37	1798.12
460.58	1769.44
460.78	1796.07
460.99	1621.99
461.19	1708.01
461.39	1732.58
461.60	1783.78
461.80	1796.07
462.00	1710.05
462.21	1738.73
462.41	1644.52
462.61	1642.47
462.82	1740.77
463.02	1757.16
463.22	1683.43
463.43	1875.94
463.63	1730.53
463.83	1822.69
464.04	1791.97
464.24	1763.30
464.44	1683.43
464.64	1810.40
464.85	1763.30
465.05	1728.49
465.25	1722.34
465.46	1724.39
465.66	1693.67
465.86	1726.44
466.07	1736.68
466.27	1742.82
466.47	1701.86
466.68	1638.38
466.88	1869.80
467.08	1736.68
467.29	1773.54
467.49	1800.16
467.69	1714.15
467.89	1791.97
468.10	1685.48
468.30	1724.39
468.50	1746.92
468.71	1812.45
468.91	1671.14
469.11	1769.44
469.31	1718.25
469.52	1652.71
469.72	1814.50
469.92	1812.45
470.13	1783.78
470.33	1839.08
470.53	1853.41
470.73	2062.30
470.94	2508.76
471.14	2613.21
471.34	2914.26
471.54	2791.38
471.75	2506.71
471.95	2293.72
472.15	2236.38
472.36	2306.01
472.56	2215.90
472.76	2222.05
472.96	2078.69
473.17	2074.59
473.37	1994.72
473.57	1851.36
473.77	1853.41
473.98	1759.21
474.18	1732.58
474.38	1871.84
474.58	1751.01
474.79	1685.48
474.99	1775.59
475.19	1753.06
475.39	1687.53
475.60	1767.40
475.80	1701.86
476.00	1724.39
476.20	1759.21
476.41	1759.21
476.61	1828.84
476.81	1796.07
477.01	1656.81
477.21	1826.79
477.42	1787.88
477.62	1730.53
477.82	1748.97
478.02	1718.25
478.23	1642.47
478.43	1673.19
478.63	1656.81
478.83	1705.96
479.03	1730.53
479.24	1843.17
479.44	1812.45
479.64	1753.06
479.84	1595.37
480.04	1621.99
480.25	1800.16
480.45	1693.67
480.65	1685.48
480.85	1798.12
481.06	1728.49
481.26	1708.01
481.46	1740.77
481.66	1734.63
481.86	1708.01
482.06	1802.21
482.27	1765.35
482.47	1708.01
482.67	1777.64
482.87	1781.73
483.07	1845.22
483.28	1656.81
483.48	1691.62
483.68	1689.57
483.88	1648.61
484.08	1650.66
484.29	1656.81
484.49	1660.90
484.69	1628.14
484.89	1712.10
485.09	1753.06
485.29	1767.40
485.50	1789.92
485.70	1728.49
485.90	1804.26
486.10	1738.73
486.30	1740.77
486.50	1738.73
486.71	1773.54
486.91	1796.07
487.11	1736.68
487.31	1609.70
487.51	1742.82
487.71	1767.40
487.91	1669.09
488.12	1732.58
488.32	1658.85
488.52	1673.19
488.72	1662.95
488.92	1744.87
489.12	1822.69
489.32	1818.60
489.53	1695.72
489.73	1697.77
489.93	1880.04
490.13	1665.00
490.33	1665.00
490.53	1736.68
490.73	1720.29
490.94	1597.42
491.14	1787.88
491.34	1875.94
491.54	2088.93
491.74	2719.70
491.94	3162.06
492.14	3436.49
492.34	3555.27
492.54	3137.49
492.75	2705.37
492.95	2654.17
493.15	2486.23
493.35	2400.22
493.55	2287.58
493.75	2226.14
493.95	2297.82
494.15	2070.50
494.35	1978.34
494.56	1990.63
494.76	1886.18
494.96	1755.11
495.16	1789.92
495.36	1734.63
495.56	1751.01
495.76	1767.40
495.96	1695.72
496.16	1662.95
496.36	1867.75
496.56	1744.87
496.77	1798.12
496.97	1808.36
497.17	1787.88
497.37	1634.28
497.57	1722.34
497.77	1712.10
497.97	1683.43
498.17	1683.43
498.37	1656.81
498.57	1726.44
498.77	1710.05
498.97	1828.84
499.17	1787.88
499.38	1818.60
499.58	1748.97
499.78	1796.07
499.98	1744.87
500.18	1697.77
500.38	1705.96
500.58	1908.71
500.78	2355.16
500.98	4706.23
501.18	6545.31
501.38	8144.77
501.58	9127.80
501.78	8886.14
501.98	6754.20
502.18	5769.13
502.38	4818.87
502.58	4558.78
502.78	4147.14
502.98	3932.10
503.18	3938.24
503.38	3524.55
503.59	3162.06
503.79	2869.20
503.99	2631.64
504.19	2318.30
504.39	2375.64
504.59	2400.22
504.79	2351.07
504.99	2209.76
505.19	2045.92
505.39	1933.28
505.59	2027.49
505.79	1951.71
505.99	1890.28
506.19	1847.27
506.39	1892.32
506.59	1834.98
506.79	1837.03
506.99	1810.40
507.19	1798.12
507.39	1769.44
507.59	1640.42
507.79	1683.43
507.99	1648.61
508.19	1779.68
508.39	1708.01
508.59	1710.05
508.79	1765.35
508.99	1820.64
509.19	1699.81
509.39	1773.54
509.59	1677.29
509.79	1701.86
509.99	1714.15
510.19	1828.84
510.39	1732.58
510.59	1699.81
510.79	1701.86
510.99	1644.52
511.19	1722.34
511.39	1822.69
511.59	1757.16
511.79	1837.03
511.99	1822.69
512.19	1783.78
512.38	1798.12
512.58	1712.10
512.78	1679.33
512.98	1798.12
513.18	1757.16
513.38	1624.04
513.58	1699.81
513.78	1699.81
513.98	1728.49
514.18	1751.01
514.38	1740.77
514.58	1794.02
514.78	1648.61
514.98	1673.19
515.18	1691.62
515.38	1687.53
515.58	1863.65
515.78	1740.77
515.98	1775.59
516.18	1785.83
516.38	1789.92
516.57	1730.53
516.77	1767.40
516.97	1730.53
517.17	1669.09
517.37	1601.51
517.57	1771.49
517.77	1626.09
517.97	1736.68
518.17	1767.40
518.37	1687.53
518.57	1693.67
518.77	1734.63
518.97	1746.92
519.16	1808.36
519.36	1794.02
519.56	1697.77
519.76	1751.01
519.96	1722.34
520.16	1857.51
520.36	1730.53
520.56	1736.68
520.76	1710.05
520.96	1714.15
521.16	1765.35
521.35	1746.92
521.55	1837.03
521.75	1730.53
521.95	1730.53
522.15	1748.97
522.35	1656.81
522.55	1742.82
522.75	1800.16
522.95	1617.90
523.14	1701.86
523.34	1648.61
523.54	1693.67
523.74	1808.36
523.94	1761.25
524.14	1685.48
524.34	1701.86
524.54	1794.02
524.73	1783.78
524.93	1765.35
525.13	1755.11
525.33	1640.42
525.53	1929.19
525.73	1746.92
525.93	1779.68
526.13	1726.44
526.32	1742.82
526.52	1785.83
526.72	1789.92
526.92	1728.49
527.12	1714.15
527.32	1669.09
527.52	1794.02
527.71	1705.96
527.91	1787.88
528.11	1771.49
528.31	1734.63
528.51	1724.39
528.71	1738.73
528.90	1755.11
529.10	1826.79
529.30	1886.18
529.50	1652.71
529.70	1755.11
529.90	1742.82
530.09	1789.92
530.29	1734.63
530.49	1732.58
530.69	1871.84
530.89	1808.36
531.09	1794.02
531.28	1673.19
531.48	1769.44
531.68	1777.64
531.88	1714.15
532.08	1740.77
532.28	1669.09
532.47	1812.45
532.67	1812.45
532.87	1734.63
533.07	1722.34
533.27	1765.35
533.46	1742.82
533.66	1779.68
533.86	1759.21
534.06	1789.92
534.26	1843.17
534.45	1763.30
534.65	1820.64
534.85	1771.49
535.05	1673.19
535.25	1824.74
535.44	1705.96
535.64	1794.02
535.84	1724.39
536.04	1728.49
536.24	1683.43
536.43	1703.91
536.63	1837.03
536.83	1677.29
537.03	1763.30
537.22	1675.24
537.42	1642.47
537.62	1744.87
537.82	1675.24
538.02	1808.36
538.21	1824.74
538.41	1818.60
538.61	1759.21
538.81	1726.44
539.00	1867.75
539.20	1644.52
539.40	1695.72
539.60	1720.29
539.79	1828.84
539.99	1712.10
540.19	1636.33
540.39	1712.10
540.58	1730.53
540.78	1759.21
540.98	1787.88
541.18	1744.87
541.37	1769.44
541.57	1701.86
541.77	1718.25
541.97	1662.95
542.16	1685.48
542.36	1718.25
542.56	1724.39
542.76	1908.71
542.95	1820.64
543.15	1765.35
543.35	1718.25
543.54	1667.05
543.74	1744.87
543.94	1830.88
544.14	1726.44
544.33	1791.97
544.53	1748.97
544.73	1738.73
544.93	1738.73
545.12	1701.86
545.32	1765.35
545.52	1712.10
545.71	1693.67
545.91	1800.16
546.11	1771.49
546.30	1693.67
546.50	1705.96
546.70	1761.25
546.90	1740.77
547.09	1611.75
547.29	1742.82
547.49	1798.12
547.68	1681.38
547.88	1660.90
548.08	1722.34
548.27	2174.94
548.47	1603.56
548.67	1693.67
548.87	1730.53
549.06	1677.29
549.26	1789.92
549.46	1839.08
549.65	1699.81
549.85	1753.06
550.05	1695.72
550.24	1652.71
550.44	1773.54
550.64	1703.91
550.83	1738.73
551.03	1800.16
551.23	1804.26
551.42	1755.11
551.62	1746.92
551.82	1781.73
552.01	1802.21
552.21	1802.21
552.41	1740.77
552.60	1794.02
552.80	1693.67
553.00	1714.15
553.19	1796.07
553.39	1834.98
553.59	1683.43
553.78	1738.73
553.98	1708.01
554.17	1685.48
554.37	1732.58
554.57	1734.63
554.76	1705.96
554.96	1660.90
555.16	1726.44
555.35	1732.58
555.55	1710.05
555.75	1767.40
555.94	1785.83
556.14	1689.57
556.33	1773.54
556.53	1697.77
556.73	1804.26
556.92	1765.35
557.12	1812.45
557.32	1851.36
557.51	1771.49
557.71	1718.25
557.90	1908.71
558.10	1820.64
558.30	1730.53
558.49	1671.14
558.69	1757.16
558.88	1763.30
559.08	1730.53
559.28	1748.97
559.47	1773.54
559.67	1804.26
559.86	1783.78
560.06	1802.21
560.26	1740.77
560.45	1841.12
560.65	1832.93
560.84	1832.93
561.04	1736.68
561.24	1726.44
561.43	1695.72
561.63	1886.18
561.82	1744.87
562.02	1845.22
562.22	1601.51
562.41	1658.85
562.61	1759.21
562.80	1724.39
563.00	1837.03
563.19	1748.97
563.39	1742.82
563.59	1755.11
563.78	1665.00
563.98	1658.85
564.17	1681.38
564.37	1626.09
564.56	1681.38
564.76	1703.91
564.96	1796.07
565.15	1710.05
565.35	1916.90
565.54	1687.53
565.74	1783.78
565.93	1783.78
566.13	1755.11
566.32	1810.40
566.52	1771.49
566.71	1679.33
566.91	1708.01
567.11	1685.48
567.30	1662.95
567.50	1748.97
567.69	1742.82
567.89	1794.02
568.08	1677.29
568.28	1763.30
568.47	1652.71
568.67	1755.11
568.86	1693.67
569.06	1837.03
569.25	1695.72
569.45	1703.91
569.64	1677.29
569.84	1746.92
570.04	1746.92
570.23	1716.20
570.43	1757.16
570.62	1828.84
570.82	1791.97
571.01	1667.05
571.21	1677.29
571.40	1677.29
571.60	1871.84
571.79	1755.11
571.99	1796.07
572.18	1705.96
572.38	1773.54
572.57	1705.96
572.77	1714.15
572.96	1886.18
573.16	1738.73
573.35	1789.92
573.55	1837.03
573.74	1789.92
573.94	1783.78
574.13	1722.34
574.33	1781.73
574.52	1847.27
574.71	1671.14
574.91	1779.68
575.10	1654.76
575.30	1769.44
575.49	1703.91
575.69	1787.88
575.88	1814.50
576.08	1751.01
576.27	1871.84
576.47	1761.25
576.66	1837.03
576.86	1914.85
577.05	1716.20
577.25	1847.27
577.44	1886.18
577.64	1769.44
577.83	1812.45
578.02	1681.38
578.22	1783.78
578.41	1898.47
578.61	1685.48
578.80	1693.67
579.00	1742.82
579.19	1710.05
579.39	1724.39
579.58	1783.78
579.77	1751.01
579.97	1800.16
580.16	1832.93
580.36	1814.50
580.55	1806.31
580.75	1746.92
580.94	1822.69
581.13	1779.68
581.33	1951.71
581.52	1730.53
581.72	1908.71
581.91	1927.14
582.11	1748.97
582.30	1888.23
582.49	1849.32
582.69	1794.02
582.88	1816.55
583.08	1761.25
583.27	1861.60
583.47	1740.77
583.66	1689.57
583.85	1755.11
584.05	1796.07
584.24	1865.70
584.44	1777.64
584.63	1863.65
584.82	1861.60
585.02	1865.70
585.21	1951.71
585.41	1812.45
585.60	1861.60
585.79	2074.59
585.99	2009.06
586.18	1877.99
586.37	2279.39
586.57	3352.52
586.76	9588.59
586.96	27252.32
587.15	41743.75
587.34	52094.18
587.54	57949.32
587.73	55651.50
587.93	40011.17
588.12	29818.42
588.31	23772.82
588.51	20475.59
588.70	18409.19
588.89	17106.68
589.09	15533.84
589.28	13522.74
589.47	11480.91
589.67	9502.58
589.86	7452.56
590.06	5636.01
590.25	4339.65
590.44	3143.63
590.64	2602.97
590.83	2299.87
591.02	2166.75
591.22	1937.38
591.41	1888.23
591.60	1783.78
591.80	1884.13
591.99	1755.11
592.18	1734.63
592.38	1794.02
592.57	1820.64
592.76	1785.83
592.96	1744.87
593.15	1753.06
593.34	1771.49
593.54	1753.06
593.73	1789.92
593.92	1703.91
594.12	1775.59
594.31	1800.16
594.50	1900.52
594.70	1882.08
594.89	1890.28
595.08	1757.16
595.28	1812.45
595.47	1953.76
595.66	1845.22
595.86	1708.01
596.05	1804.26
596.24	1806.31
596.43	1853.41
596.63	1722.34
596.82	1753.06
597.01	1802.21
597.21	1834.98
597.40	1773.54
597.59	1796.07
597.79	1759.21
597.98	1781.73
598.17	1789.92
598.36	1742.82
598.56	1787.88
598.75	1787.88
598.94	1738.73
599.14	1849.32
599.33	1738.73
599.52	1918.95
599.71	1744.87
599.91	1869.80
600.10	1800.16
600.29	1722.34
600.48	1779.68
600.68	1808.36
600.87	1779.68
601.06	1708.01
601.26	1695.72
601.45	1748.97
601.64	1724.39
601.83	1814.50
602.03	1728.49
602.22	1744.87
602.41	1861.60
602.60	1849.32
602.80	1703.91
602.99	1767.40
603.18	1746.92
603.37	1740.77
603.57	1787.88
603.76	1775.59
603.95	1832.93
604.14	1761.25
604.34	1693.67
604.53	1767.40
604.72	1789.92
604.91	1783.78
605.10	1738.73
605.30	1691.62
605.49	1820.64
605.68	1816.55
605.87	1751.01
606.07	1746.92
606.26	1652.71
606.45	1740.77
606.64	1800.16
606.84	1761.25
607.03	1841.12
607.22	1873.89
607.41	1730.53
607.60	1765.35
607.80	1873.89
607.99	1730.53
608.18	1722.34
608.37	1724.39
608.56	1675.24
608.76	1800.16
608.95	1849.32
609.14	1798.12
609.33	1898.47
609.52	1959.91
609.72	1882.08
609.91	1918.95
610.10	1779.68
610.29	1894.37
610.48	1880.04
610.68	1812.45
610.87	1775.59
611.06	1837.03
611.25	1779.68
611.44	1869.80
611.63	1785.83
611.83	1843.17
612.02	1677.29
612.21	1732.58
612.40	1673.19
612.59	1599.46
612.79	1691.62
612.98	1738.73
613.17	1859.56
613.36	1714.15
613.55	1869.80
613.74	1841.12
613.93	1910.75
614.13	1896.42
614.32	1859.56
614.51	1937.38
614.70	1822.69
614.89	1853.41
615.08	1857.51
615.28	2095.07
615.47	1742.82
615.66	1773.54
615.85	1828.84
616.04	1886.18
616.23	1834.98
616.42	1873.89
616.62	1818.60
616.81	1806.31
617.00	1736.68
617.19	1757.16
617.38	1730.53
617.57	1740.77
617.76	1761.25
617.95	1814.50
618.15	1783.78
618.34	1853.41
618.53	1667.05
618.72	1742.82
618.91	1869.80
619.10	1849.32
619.29	1775.59
619.48	1822.69
619.68	1630.18
619.87	1675.24
620.06	1710.05
620.25	1730.53
620.44	1789.92
620.63	1683.43
620.82	1736.68
621.01	1791.97
621.20	1767.40
621.39	1794.02
621.59	1796.07
621.78	1708.01
621.97	1808.36
622.16	1724.39
622.35	1818.60
622.54	1765.35
622.73	1806.31
622.92	1578.98
623.11	1837.03
623.30	1742.82
623.49	1736.68
623.68	1683.43
623.88	1798.12
624.07	1791.97
624.26	1759.21
624.45	1775.59
624.64	1779.68
624.83	1761.25
625.02	1681.38
625.21	1777.64
625.40	1740.77
625.59	1734.63
625.78	1712.10
625.97	1789.92
626.16	1834.98
626.35	1865.70
626.54	1822.69
626.74	1882.08
626.93	1808.36
627.12	1722.34
627.31	1812.45
627.50	1775.59
627.69	1720.29
627.88	1697.77
628.07	1662.95
628.26	1697.77
628.45	1697.77
628.64	1665.00
628.83	1736.68
629.02	1703.91
629.21	1849.32
629.40	1679.33
629.59	1732.58
629.78	1730.53
629.97	1767.40
630.16	1779.68
630.35	1722.34
630.54	1720.29
630.73	1650.66
630.92	1697.77
631.11	1638.38
631.30	1779.68
631.49	1861.60
631.68	1718.25
631.87	1800.16
632.06	1693.67
632.25	1861.60
632.44	1757.16
632.63	1755.11
632.82	1812.45
633.01	1783.78
633.20	1859.56
633.39	1748.97
633.58	1775.59
633.77	1738.73
633.96	1771.49
634.15	1781.73
634.34	1877.99
634.53	1751.01
634.72	1755.11
634.91	1732.58
635.10	1726.44
635.29	1730.53
635.48	1751.01
635.67	1703.91
635.86	1683.43
636.05	1808.36
636.24	1712.10
636.43	1761.25
636.62	1744.87
636.81	1603.56
637.00	1722.34
637.19	1738.73
637.38	1730.53
637.57	1714.15
637.76	1789.92
637.95	1824.74
638.14	1806.31
638.33	1834.98
638.52	1775.59
638.71	1697.77
638.89	1722.34
639.08	1892.32
639.27	1877.99
639.46	1855.46
639.65	2160.61
639.84	2269.15
640.03	2369.50
640.22	2344.92
640.41	2357.21
640.60	2043.87
640.79	1951.71
640.98	1875.94
641.17	1869.80
641.36	1912.80
641.55	1902.56
641.74	1824.74
641.92	1802.21
642.11	1759.21
642.30	1781.73
642.49	1734.63
642.68	1697.77
642.87	1755.11
643.06	1742.82
643.25	1697.77
643.44	1705.96
643.63	1783.78
643.82	1791.97
644.00	1609.70
644.19	1730.53
644.38	1652.71
644.57	1755.11
644.76	1730.53
644.95	1759.21
645.14	1691.62
645.33	1738.73
645.52	1693.67
645.71	1710.05
645.89	1695.72
646.08	1705.96
646.27	1832.93
646.46	1806.31
646.65	1570.79
646.84	1701.86
647.03	1732.58
647.22	1734.63
647.40	1726.44
647.59	1669.09
647.78	1708.01
647.97	1681.38
648.16	1697.77
648.35	1894.37
648.54	1802.21
648.73	1732.58
648.91	1800.16
649.10	1728.49
649.29	1662.95
649.48	1742.82
649.67	1769.44
649.86	1742.82
650.05	1693.67
650.23	1869.80
650.42	1781.73
650.61	1980.39
650.80	1888.23
650.99	1970.15
651.18	1859.56
651.36	1779.68
651.55	1714.15
651.74	1845.22
651.93	1726.44
652.12	1701.86
652.31	1771.49
652.49	1665.00
652.68	1732.58
652.87	1863.65
653.06	1732.58
653.25	1886.18
653.44	1787.88
653.62	1806.31
653.81	1736.68
654.00	1736.68
654.19	1783.78
654.38	1920.99
654.56	1716.20
654.75	1716.20
654.94	1791.97
655.13	1742.82
655.32	1761.25
655.51	1687.53
655.69	1718.25
655.88	1773.54
656.07	1736.68
656.26	1683.43
656.45	1693.67
656.63	1746.92
656.82	1708.01
657.01	1812.45
657.20	1691.62
657.38	1783.78
657.57	1687.53
657.76	1701.86
657.95	1773.54
658.14	1761.25
658.32	1744.87
658.51	1697.77
658.70	1685.48
658.89	1714.15
659.08	1730.53
659.26	1783.78
659.45	1759.21
659.64	1802.21
659.83	1748.97
660.01	1939.43
660.20	1791.97
660.39	1847.27
660.58	1652.71
660.76	1834.98
660.95	1660.90
661.14	1708.01
661.33	1669.09
661.51	1724.39
661.70	1703.91
661.89	1773.54
662.08	1697.77
662.26	1710.05
662.45	1665.00
662.64	1834.98
662.83	1744.87
663.01	1587.18
663.20	1710.05
663.39	1832.93
663.58	1777.64
663.76	1689.57
663.95	1839.08
664.14	1744.87
664.32	1697.77
664.51	1732.58
664.70	1677.29
664.89	1777.64
665.07	1624.04
665.26	1791.97
665.45	1646.57
665.64	1869.80
665.82	1738.73
666.01	1804.26
666.20	1687.53
666.38	1802.21
666.57	1828.84
666.76	2242.53
666.95	4566.97
667.13	11394.90
667.32	18423.53
667.51	22152.88
667.69	25058.95
667.88	25278.08
668.07	19482.33
668.25	14169.90
668.44	11597.65
668.63	9742.19
668.81	8542.08
669.00	7638.92
669.19	6838.17
669.38	6203.30
669.56	5351.34
669.75	4618.17
669.94	3819.46
670.12	3151.82
670.31	2643.93
670.50	2351.07
670.68	2142.18
670.87	2066.40
671.06	1888.23
671.24	1888.23
671.43	1867.75
671.62	1824.74
671.80	1800.16
671.99	1875.94
672.18	1771.49
672.36	1783.78
672.55	1763.30
672.74	1712.10
672.92	1673.19
673.11	1689.57
673.29	1656.81
673.48	1779.68
673.67	1701.86
673.85	1714.15
674.04	1742.82
674.23	1689.57
674.41	1826.79
674.60	1667.05
674.79	1683.43
674.97	1675.24
675.16	1802.21
675.34	1800.16
675.53	1673.19
675.72	1656.81
675.90	1769.44
676.09	1683.43
676.28	1734.63
676.46	1714.15
676.65	1755.11
676.83	1619.94
677.02	1732.58
677.21	1744.87
677.39	1722.34
677.58	1667.05
677.77	1611.75
677.95	1687.53
678.14	1730.53
678.32	1689.57
678.51	1724.39
678.70	1873.89
678.88	1730.53
679.07	1710.05
679.25	1679.33
679.44	1755.11
679.63	1716.20
679.81	1730.53
680.00	1714.15
680.18	1775.59
680.37	1808.36
680.55	1689.57
680.74	1599.46
680.93	1589.22
681.11	1720.29
681.30	1667.05
681.48	1773.54
681.67	1781.73
681.85	1665.00
682.04	1656.81
682.23	1748.97
682.41	1765.35
682.60	1679.33
682.78	1734.63
682.97	1703.91
683.15	1712.10
683.34	1703.91
683.53	1886.18
683.71	1646.57
683.90	1769.44
684.08	1746.92
684.27	1689.57
684.45	1812.45
684.64	1857.51
684.82	1660.90
685.01	1712.10
685.19	1771.49
685.38	1781.73
685.57	1769.44
685.75	1705.96
685.94	1740.77
686.12	1708.01
686.31	1652.71
686.49	1830.88
686.68	1665.00
686.86	1710.05
687.05	1683.43
687.23	1851.36
687.42	1669.09
687.60	1685.48
687.79	1718.25
687.97	1671.14
688.16	1820.64
688.34	1775.59
688.53	1615.85
688.71	1759.21
688.90	1726.44
689.08	1677.29
689.27	1615.85
689.45	1744.87
689.64	1740.77
689.82	1705.96
690.01	1738.73
690.19	1769.44
690.38	1730.53
690.56	1804.26
690.75	1605.61
690.93	1734.63
691.12	1789.92
691.30	1708.01
691.49	1677.29
691.67	1652.71
691.86	1796.07
692.04	1677.29
692.23	1714.15
692.41	1718.25
692.60	1935.33
692.78	1855.46
692.97	1800.16
693.15	1767.40
693.34	1800.16
693.52	1812.45
693.71	1726.44
693.89	1660.90
694.08	1642.47
694.26	1742.82
694.44	1755.11
694.63	1755.11
694.81	1619.94
695.00	1781.73
695.18	1794.02
695.37	1880.04
695.55	1738.73
695.74	1646.57
695.92	1726.44
696.10	1806.31
696.29	1644.52
696.47	1671.14
696.66	1642.47
696.84	1636.33
697.03	1693.67
697.21	1816.55
697.40	2367.45
697.58	1812.45
697.76	1658.85
697.95	1732.58
698.13	1710.05
698.32	1638.38
698.50	1708.01
698.68	1798.12
698.87	1718.25
699.05	1722.34
699.24	1646.57
699.42	1673.19
699.61	1818.60
699.79	1779.68
699.97	1654.76
700.16	1626.09
700.34	1679.33
700.53	1728.49
700.71	1843.17
700.89	1759.21
701.08	1734.63
701.26	1716.20
701.45	2133.98
701.63	1708.01
701.81	1669.09
702.00	1720.29
702.18	1771.49
702.37	1767.40
702.55	1826.79
702.73	1873.89
702.92	1871.84
703.10	1955.81
703.28	1986.53
703.47	1746.92
703.65	1861.60
703.84	1871.84
704.02	1787.88
704.20	1847.27
704.39	1798.12
704.57	1732.58
704.75	1927.14
704.94	1755.11
705.12	1841.12
705.30	1845.22
705.49	2549.72
705.67	5312.43
705.86	13029.18
706.04	18929.38
706.22	22587.05
706.41	25112.19
706.59	24479.37
706.77	19066.59
706.96	13580.08
707.14	11720.53
707.32	10147.69
707.51	8939.38
707.69	7735.18
707.87	6809.50
708.06	5463.98
708.24	4384.70
708.42	3344.33
708.61	2809.81
708.79	2213.85
708.97	2142.18
709.16	1929.19
709.34	1873.89
709.52	1722.34
709.71	1734.63
709.89	1834.98
710.07	1708.01
710.26	1644.52
710.44	1689.57
710.62	1748.97
710.80	1693.67
710.99	1732.58
711.17	1783.78
711.35	1744.87
711.54	1662.95
711.72	1800.16
711.90	1728.49
712.09	1755.11
712.27	1675.24
712.45	1775.59
712.63	1765.35
712.82	1728.49
713.00	1724.39
713.18	1781.73
713.37	1804.26
713.55	1791.97
713.73	1779.68
713.91	1722.34
714.10	1685.48
714.28	1791.97
714.46	1861.60
714.65	1722.34
714.83	1714.15
715.01	1722.34
715.19	1669.09
715.38	1730.53
715.56	1665.00
715.74	1677.29
715.92	1697.77
716.11	1751.01
716.29	1683.43
716.47	1656.81
716.65	1738.73
716.84	1624.04
717.02	1708.01
717.20	1640.42
717.38	1701.86
717.57	1712.10
717.75	1769.44
717.93	1703.91
718.11	1722.34
718.30	1642.47
718.48	1738.73
718.66	1775.59
718.84	1783.78
719.03	1708.01
719.21	1685.48
719.39	1818.60
719.57	1814.50
719.75	1728.49
719.94	1689.57
720.12	1734.63
720.30	1755.11
720.48	1804.26
720.67	1601.51
720.85	1640.42
721.03	1757.16
721.21	1587.18
721.39	1699.81
721.58	1705.96
721.76	1708.01
721.94	1744.87
722.12	1763.30
722.30	1808.36
722.49	1656.81
722.67	1755.11
722.85	1687.53
723.03	1624.04
723.21	1665.00
723.40	1757.16
723.58	1798.12
723.76	1728.49
723.94	1839.08
724.12	1832.93
724.30	1882.08
724.49	1804.26
724.67	1667.05
724.85	1800.16
725.03	1710.05
725.21	1847.27
725.40	1781.73
725.58	1714.15
725.76	1789.92
725.94	1806.31
726.12	1636.33
726.30	1728.49
726.49	1746.92
726.67	1705.96
726.85	1677.29
727.03	1830.88
727.21	2371.55
727.39	3434.44
727.57	4865.97
727.76	5648.30
727.94	6039.46
728.12	6260.64
728.30	5570.48
728.48	4448.19
728.66	3942.34
728.84	3551.18
729.03	3188.69
729.21	2881.49
729.39	2457.56
729.57	2131.94
729.75	1968.10
729.93	1890.28
730.11	1765.35
730.30	1724.39
730.48	1730.53
730.66	1818.60
730.84	1820.64
731.02	1697.77
731.20	1687.53
731.38	1775.59
731.56	1662.95
731.74	1724.39
731.93	1724.39
732.11	1730.53
732.29	1697.77
732.47	1755.11
732.65	1708.01
732.83	1863.65
733.01	1785.83
733.19	1687.53
733.37	1730.53
733.56	1642.47
733.74	1689.57
733.92	1742.82
734.10	1701.86
734.28	1732.58
734.46	1732.58
734.64	1773.54
734.82	1746.92
735.00	1644.52
735.18	1687.53
735.36	1714.15
735.54	1738.73
735.73	1718.25
735.91	1724.39
736.09	1734.63
736.27	1759.21
736.45	1796.07
736.63	1646.57
736.81	1650.66
736.99	1767.40
737.17	1849.32
737.35	1669.09
737.53	1708.01
737.71	1689.57
737.89	1732.58
738.07	1699.81
738.25	1685.48
738.43	1634.28
738.61	1677.29
738.80	1691.62
738.98	1665.00
739.16	1697.77
739.34	1597.42
739.52	1808.36
739.70	1693.67
739.88	1703.91
740.06	1787.88
740.24	1585.13
740.42	1763.30
740.60	1558.50
740.78	1685.48
740.96	1595.37
741.14	1699.81
741.32	1669.09
741.50	1671.14
741.68	1904.61
741.86	1720.29
742.04	1652.71
742.22	1615.85
742.40	1693.67
742.58	1673.19
742.76	1677.29
742.94	1789.92
743.12	1669.09
743.30	1650.66
743.48	1722.34
743.66	1740.77
743.84	1806.31
744.02	1671.14
744.20	1703.91
744.38	1703.91
744.56	1748.97
744.74	1849.32
744.92	1730.53
745.10	1759.21
745.28	1730.53
745.46	1802.21
745.64	1740.77
745.82	1736.68
746.00	1691.62
746.18	1789.92
746.36	1611.75
746.54	1794.02
746.72	1718.25
746.90	1746.92
747.08	1822.69
747.26	1701.86
747.44	1699.81
747.62	1689.57
747.80	1755.11
747.98	1748.97
748.15	1744.87
748.33	1730.53
748.51	1810.40
748.69	1798.12
748.87	1679.33
749.05	1673.19
749.23	1695.72
749.41	1759.21
749.59	1673.19
749.77	1714.15
749.95	1695.72
750.13	1624.04
750.31	1703.91
750.49	1677.29
750.67	1732.58
750.85	1757.16
751.03	1755.11
751.20	1853.41
751.38	1648.61
751.56	1718.25
751.74	1746.92
751.92	1658.85
752.10	1652.71
752.28	1738.73
752.46	1632.23
752.64	1748.97
752.82	1718.25
753.00	1781.73
753.18	1693.67
753.35	1787.88
753.53	1648.61
753.71	1755.11
753.89	1755.11
754.07	1806.31
754.25	1787.88
754.43	1724.39
754.61	1648.61
754.79	1708.01
754.97	1742.82
755.14	1734.63
755.32	1597.42
755.50	1660.90
755.68	1742.82
755.86	1697.77
756.04	1683.43
756.22	1626.09
756.40	1802.21
756.57	1910.75
756.75	1656.81
756.93	1718.25
757.11	1787.88
757.29	1679.33
757.47	1683.43
757.65	1626.09
757.82	1644.52
758.00	1617.90
758.18	1697.77
758.36	1638.38
758.54	1781.73
758.72	1712.10
758.90	1746.92
759.07	1710.05
759.25	1714.15
759.43	1822.69
759.61	1656.81
759.79	2164.70
759.97	1724.39
760.15	1673.19
760.32	1652.71
760.50	1710.05
760.68	1806.31
760.86	1617.90
761.04	1781.73
761.22	1748.97
761.39	1689.57
761.57	1761.25
761.75	1722.34
761.93	1679.33
762.11	1689.57
762.28	1638.38
762.46	1632.23
762.64	1726.44
762.82	1689.57
763.00	1742.82
763.18	1769.44
763.35	1619.94
763.53	1761.25
763.71	1732.58
763.89	1712.10
764.07	1744.87
764.24	1681.38
764.42	1705.96
764.60	1775.59
764.78	1783.78
764.96	1767.40
765.13	1771.49
765.31	1730.53
765.49	1757.16
765.67	1705.96
765.84	1699.81
766.02	1689.57
766.20	1646.57
766.38	1777.64
766.56	1730.53
766.73	1771.49
766.91	1757.16
767.09	1675.24
767.27	1781.73
767.44	1589.22
767.62	1767.40
767.80	1689.57
767.98	1775.59
768.15	1689.57
768.33	1757.16
768.51	1681.38
768.69	1751.01
768.87	1742.82
769.04	1689.57
769.22	1812.45
769.40	1849.32
769.58	1882.08
769.75	1679.33
769.93	1746.92
770.11	1714.15
770.28	1751.01
770.46	1726.44
770.64	1671.14
770.82	1720.29
770.99	1638.38
771.17	1693.67
771.35	1708.01
771.53	1708.01
771.70	1710.05
771.88	1732.58
772.06	1738.73
772.23	1644.52
772.41	1767.40
772.59	1656.81
772.77	1621.99
772.94	1710.05
773.12	1773.54
773.30	1714.15
773.47	1687.53
773.65	1677.29
773.83	1763.30
774.01	1697.77
774.18	1626.09
774.36	1609.70
774.54	1642.47
774.71	1720.29
774.89	1677.29
775.07	1677.29
775.24	1728.49
775.42	1724.39
775.60	1804.26
775.78	1718.25
775.95	1718.25
776.13	1630.18
776.31	1578.98
776.48	1720.29
776.66	1753.06
776.84	1642.47
777.01	1779.68
777.19	1667.05
777.37	1648.61
777.54	1751.01
777.72	1783.78
777.90	1716.20
778.07	1703.91
778.25	1867.75
778.43	1765.35
778.60	1665.00
778.78	1759.21
778.96	1751.01
779.13	1652.71
779.31	1730.53
779.49	1701.86
779.66	1730.53
779.84	1730.53
780.01	1761.25
780.19	1722.34
780.37	1736.68
780.54	1773.54
780.72	1677.29
780.90	1611.75
781.07	1619.94
781.25	1687.53
781.43	1755.11
781.60	1708.01
781.78	1787.88
781.95	1775.59
782.13	1638.38
782.31	1728.49
782.48	1574.89
782.66	1710.05
782.83	1777.64
783.01	1742.82
783.19	1738.73
783.36	1736.68
783.54	1703.91
783.72	1802.21
783.89	1705.96
784.07	1675.24
784.24	1769.44
784.42	1763.30
784.60	1775.59
784.77	1732.58
784.95	1574.89
785.12	1681.38
785.30	1630.18
785.47	1665.00
785.65	1728.49
785.83	1736.68
786.00	1679.33
786.18	1687.53
786.35	1587.18
786.53	1617.90
786.71	1779.68
786.88	1652.71
787.06	1837.03
787.23	1716.20
787.41	1650.66
787.58	1712.10
787.76	1701.86
787.94	1708.01
788.11	1677.29
788.29	1638.38
788.46	1691.62
788.64	1660.90
788.81	1701.86
788.99	1615.85
789.16	1615.85
789.34	1703.91
789.52	1665.00
789.69	1738.73
789.87	1621.99
790.04	1712.10
790.22	1689.57
790.39	1798.12
790.57	1593.32
790.74	1642.47
790.92	1693.67
791.09	1574.89
791.27	1728.49
791.44	1873.89
791.62	1687.53
791.79	1726.44
791.97	1677.29
792.15	1886.18
792.32	1732.58
792.50	1755.11
792.67	1781.73
792.85	1742.82
793.02	1726.44
793.20	1677.29
793.37	1617.90
793.55	1640.42
793.72	1636.33
793.90	1763.30
794.07	1601.51
794.25	1566.70
794.42	1710.05
794.60	1660.90
794.77	1751.01
794.95	1789.92
795.12	1785.83
795.30	1677.29
795.47	1568.74
795.65	1855.46
795.82	1685.48
796.00	1662.95
796.17	1748.97
796.34	1667.05
796.52	1628.14
796.69	1728.49
796.87	1773.54
797.04	1689.57
797.22	1695.72
797.39	1699.81
797.57	1755.11
797.74	1681.38
797.92	1755.11
798.09	1724.39
798.27	1771.49
798.44	1710.05
798.62	1685.48
798.79	1708.01
798.96	1740.77
799.14	1654.76
799.31	1828.84
799.49	1742.82
799.66	1742.82
799.84	1728.49
800.01	1662.95
800.19	1720.29
800.36	1603.56
800.53	1732.58
800.71	1728.49
800.88	1820.64
801.06	1642.47
801.23	1679.33
801.41	1759.21
801.58	1673.19
801.75	1603.56
801.93	1748.97
802.10	1734.63
802.28	1730.53
802.45	1646.57
802.63	1769.44
802.80	1832.93
802.97	1718.25
803.15	1626.09
803.32	1734.63
803.50	1619.94
803.67	1609.70
803.84	1677.29
804.02	1716.20
804.19	1701.86
804.37	1628.14
804.54	1603.56
804.71	1722.34
804.89	1675.24
805.06	1628.14
805.24	1638.38
805.41	1695.72
805.58	1669.09
805.76	1834.98
805.93	1644.52
806.10	1726.44
806.28	1685.48
806.45	1650.66
806.63	1693.67
806.80	1779.68
806.97	1705.96
807.15	1667.05
807.32	1718.25
807.49	1705.96
807.67	1607.66
807.84	1720.29
808.01	1685.48
808.19	1859.56
808.36	1877.99
808.54	1644.52
808.71	1738.73
808.88	1691.62
809.06	1800.16
809.23	1812.45
809.40	1708.01
809.58	1736.68
809.75	1748.97
809.92	1648.61
810.10	1824.74
810.27	1738.73
810.44	1722.34
810.62	1636.33
810.79	1699.81
810.96	1742.82
811.14	1636.33
811.31	1798.12
811.48	1771.49
811.66	1763.30
811.83	1759.21
812.00	1785.83
812.18	1716.20
812.35	1828.84
812.52	1621.99
812.69	1738.73
812.87	1757.16
813.04	1705.96
813.21	1763.30
813.39	1681.38
813.56	1636.33
813.73	1738.73
813.91	1646.57
814.08	1703.91
814.25	1804.26
814.42	1617.90
814.60	1703.91
814.77	1646.57
814.94	1693.67
815.12	1724.39
815.29	1777.64
815.46	1603.56
815.63	1787.88
815.81	1683.43
815.98	1624.04
816.15	1695.72
816.33	1740.77
816.50	1603.56
816.67	1708.01
816.84	1691.62
817.02	1626.09
817.19	1677.29
817.36	1701.86
817.53	1720.29
817.71	1746.92
817.88	1738.73
818.05	1683.43
818.22	1685.48
818.40	1789.92
818.57	1771.49
818.74	1748.97
818.91	1736.68
819.09	1738.73
819.26	1736.68
819.43	1720.29
819.60	1640.42
819.78	1732.58
819.95	1804.26
820.12	1648.61
820.29	1806.31
820.47	1783.78
820.64	1695.72
820.81	1589.22
820.98	1665.00
821.15	1716.20
821.33	1665.00
821.50	1652.71
821.67	1718.25
821.84	1697.77
822.02	1714.15
822.19	1734.63
822.36	1624.04
822.53	1599.46
822.70	1634.28
822.88	1648.61
823.05	1781.73
823.22	1632.23
823.39	1716.20
823.56	1736.68
823.74	1802.21
823.91	1681.38
824.08	1605.61
824.25	1638.38
824.42	1796.07
824.60	1644.52
824.77	1722.34
824.94	1730.53
825.11	1742.82
825.28	1548.26
825.45	1720.29
825.63	1767.40
825.80	1675.24
825.97	1703.91
826.14	1753.06
826.31	1648.61
826.48	1693.67
826.66	1587.18
826.83	1673.19
827.00	1662.95
827.17	1640.42
827.34	1658.85
827.51	1628.14
827.69	1632.23
827.86	1701.86
828.03	1687.53
828.20	1732.58
828.37	1648.61
828.54	1710.05
828.71	1656.81
828.89	1800.16
829.06	1673.19
829.23	1796.07
829.40	1652.71
829.57	1695.72
829.74	1689.57
829.91	1673.19
830.09	1673.19
830.26	1683.43
830.43	1812.45
830.60	1652.71
830.77	1689.57
830.94	1753.06
831.11	1710.05
831.28	1638.38
831.46	1742.82
831.63	1740.77
831.80	1779.68
831.97	1656.81
832.14	1626.09
832.31	1708.01
832.48	1687.53
832.65	1669.09
832.82	1724.39
832.99	1761.25
833.17	1730.53
833.34	1773.54
833.51	1662.95
833.68	1607.66
833.85	1765.35
834.02	1636.33
834.19	1699.81
834.36	1648.61
834.53	1777.64
834.70	1685.48
834.87	1705.96
835.04	1740.77
835.22	1683.43
835.39	1642.47
835.56	1705.96
835.73	1679.33
835.90	1775.59
836.07	1675.24
836.24	1765.35
836.41	1574.89
836.58	1679.33
836.75	1779.68
836.92	1681.38
837.09	1718.25
837.26	1746.92
837.43	1683.43
837.60	1753.06
837.77	1658.85
837.94	1740.77
838.12	1851.36
838.29	1693.67
838.46	1642.47
838.63	1632.23
838.80	1771.49
838.97	1773.54
839.14	1734.63
839.31	1734.63
839.48	1677.29
839.65	1699.81
839.82	1712.10
839.99	1691.62
840.16	1703.91
840.33	1673.19
840.50	1767.40
840.67	1658.85
840.84	1605.61
841.01	1671.14
841.18	1640.42
841.35	1679.33
841.52	1802.21
841.69	1837.03
841.86	1640.42
842.03	1730.53
842.20	1697.77
842.37	1755.11
842.54	1689.57
842.71	1667.05
842.88	1628.14
843.05	1685.48
843.22	1644.52
843.39	1771.49
843.56	1693.67
843.73	1718.25
843.90	1718.25
844.07	1744.87
844.24	1681.38
844.41	1740.77
844.58	1757.16
844.75	1658.85
844.92	1712.10
845.09	1689.57
845.26	1640.42
845.43	1732.58
845.60	1677.29
845.77	1800.16
845.94	1759.21
846.10	1816.55
846.27	1648.61
846.44	1636.33
846.61	1673.19
846.78	1714.15
846.95	1701.86
847.12	1654.76
847.29	1761.25
847.46	1658.85
847.63	1718.25
847.80	1744.87
847.97	1693.67
848.14	1837.03
848.31	1761.25
848.48	1595.37
848.65	1685.48
848.82	1648.61
848.98	1783.78
849.15	1732.58
849.32	1751.01
849.49	1691.62
849.66	1720.29
849.83	1660.90
850.00	1675.24
850.17	1734.63
850.34	1740.77
850.51	1675.24
850.68	1671.14
850.85	1832.93
851.01	1763.30
851.18	1681.38
851.35	1685.48
851.52	1755.11
851.69	1779.68
851.86	1673.19
852.03	1730.53
852.20	1724.39
852.37	1685.48
852.53	1611.75
852.70	1742.82
852.87	1714.15
853.04	1710.05
853.21	1710.05
853.38	1761.25
853.55	1736.68
853.72	1814.50
853.89	1572.84
854.05	1607.66
854.22	1671.14
854.39	1714.15
854.56	1746.92
854.73	1789.92
854.90	1679.33
855.07	1689.57
855.23	1652.71
855.40	1681.38
855.57	1652.71
855.74	1587.18
855.91	1880.04
856.08	1662.95
856.25	1601.51
856.41	1685.48
856.58	1638.38
856.75	1769.44
856.92	1607.66
857.09	1705.96
857.26	1634.28
857.42	1667.05
857.59	1726.44
857.76	1705.96
857.93	1718.25
858.10	1771.49
858.27	1654.76
858.43	1689.57
858.60	1683.43
858.77	1603.56
858.94	1632.23
859.11	1796.07
859.27	1665.00
859.44	1765.35
859.61	1804.26
859.78	1699.81
859.95	1697.77
860.12	1726.44
860.28	1800.16
860.45	1824.74
860.62	1685.48
860.79	1724.39
860.95	1734.63
861.12	1683.43
861.29	1673.19
861.46	1642.47
861.63	1759.21
861.79	1728.49
861.96	1675.24
862.13	1646.57
862.30	1658.85
862.47	1724.39
862.63	1687.53
862.80	1779.68
862.97	1695.72
863.14	1744.87
863.30	1736.68
863.47	1683.43
863.64	1839.08
863.81	1652.71
863.97	1630.18
864.14	1673.19
864.31	1703.91
864.48	1732.58
864.65	1728.49
864.81	1828.84
864.98	1732.58
865.15	1746.92
865.32	1742.82
865.48	1677.29
865.65	1767.40
865.82	1650.66
865.98	1751.01
866.15	1777.64
866.32	1703.91
866.49	1714.15
866.65	1751.01
866.82	1685.48
866.99	1646.57
867.16	1714.15
867.32	1665.00
867.49	1665.00
867.66	1708.01
867.83	1697.77
867.99	1619.94
868.16	1748.97
868.33	1689.57
868.49	1720.29
868.66	1685.48
868.83	1748.97
868.99	1755.11
869.16	1761.25
869.33	1669.09
869.50	1640.42
869.66	1753.06
869.83	1742.82
870.00	1621.99
870.16	1841.12
870.33	1662.95
870.50	1763.30
870.66	1675.24
870.83	1824.74
871.00	1671.14
871.17	1665.00
871.33	1734.63
871.50	1695.72
871.67	1667.05
871.83	1703.91
872.00	1783.78
872.17	1658.85
872.33	1773.54
872.50	1701.86
872.67	1701.86
872.83	1701.86
873.00	1705.96
873.17	1677.29
873.33	1744.87
873.50	1718.25
873.67	1660.90
873.83	1662.95
874.00	1712.10
874.16	1759.21
874.33	1718.25
874.50	1656.81
874.66	1736.68
874.83	1738.73
875.00	1794.02
875.16	1781.73
875.33	1710.05
875.50	1535.98
875.66	1693.67
875.83	1720.29
875.99	1738.73
876.16	1730.53
876.33	1710.05
876.49	1689.57
876.66	1689.57
876.83	1677.29
876.99	1589.22
877.16	1787.88
877.32	1742.82
877.49	1589.22
877.66	1691.62
877.82	1855.46
877.99	1720.29
878.15	1712.10
878.32	1628.14
878.49	1806.31
878.65	1691.62
878.82	1794.02
878.98	1662.95
879.15	1794.02
879.32	1714.15
879.48	1662.95
879.65	1755.11
879.81	1718.25
879.98	1634.28
880.15	1738.73
880.31	1757.16
880.48	1632.23
880.64	1751.01
880.81	1763.30
880.97	1845.22
881.14	1716.20
881.31	1601.51
881.47	1865.70
881.64	1581.03
881.80	1624.04
881.97	1726.44
882.13	1775.59
882.30	1593.32
882.47	1712.10
882.63	1701.86
882.80	1630.18
882.96	1705.96
883.13	1798.12
883.29	1726.44
883.46	1783.78
883.62	1761.25
883.79	1769.44
883.95	1765.35
884.12	1697.77
884.29	1751.01
884.45	1761.25
884.62	1800.16
884.78	1638.38
884.95	1826.79
885.11	1628.14
885.28	1783.78
885.44	1712.10
885.61	1759.21
885.77	1748.97
885.94	1652.71
886.10	1710.05
886.27	1722.34
886.43	1828.84
886.60	1773.54
886.76	1689.57
886.93	1626.09
887.09	1712.10
887.26	1683.43
887.42	1685.48
887.59	1742.82
887.75	1822.69
887.92	1828.84
888.08	1785.83
888.25	1818.60
888.41	1751.01
888.58	1675.24
888.74	1665.00
888.91	1716.20
>>>>>End Processed Spectral Data<<<<<
