SpectraSuite Data File
++++++++++++++++++++++++++++++++++++
Date: Wed May 04 18:44:16 CEST 2016
User: root
Dark Spectrum Present: No
Reference Spectrum Present: No
Number of Sampled Component Spectra: 1
Spectrometers: USB4C02835
Integration Time (usec): 100000 (USB4C02835)
Spectra Averaged: 1 (USB4C02835)
Boxcar Smoothing: 0 (USB4C02835)
Correct for Electrical Dark: No (USB4C02835)
Strobe/Lamp Enabled: No (USB4C02835)
Correct for Detector Non-linearity: No (USB4C02835)
Correct for Stray Light: No (USB4C02835)
Number of Pixels in Processed Spectrum: 3648
>>>>>Begin Processed Spectral Data<<<<<
177.47	1470.44
177.69	1470.44
177.91	1470.44
178.13	1441.77
178.36	1464.30
178.58	1660.90
178.80	1677.29
179.02	1675.24
179.24	1650.66
179.46	1693.67
179.68	1755.11
179.90	1644.52
180.13	1773.54
180.35	1685.48
180.57	1671.14
180.79	1724.39
181.01	1726.44
181.23	1720.29
181.45	1744.87
181.67	1701.86
181.90	1828.84
182.12	1589.22
182.34	1677.29
182.56	1759.21
182.78	1665.00
183.00	1693.67
183.22	1710.05
183.44	1578.98
183.66	1888.23
183.89	1820.64
184.11	1679.33
184.33	1757.16
184.55	1800.16
184.77	1687.53
184.99	1640.42
185.21	1665.00
185.43	1779.68
185.65	1697.77
185.87	1609.70
186.10	1796.07
186.32	1890.28
186.54	1701.86
186.76	1742.82
186.98	1671.14
187.20	1769.44
187.42	1609.70
187.64	1705.96
187.86	1730.53
188.08	1718.25
188.30	1748.97
188.52	1689.57
188.75	1824.74
188.97	1726.44
189.19	1705.96
189.41	1722.34
189.63	1759.21
189.85	1650.66
190.07	1630.18
190.29	1624.04
190.51	1763.30
190.73	1662.95
190.95	1775.59
191.17	1740.77
191.39	1681.38
191.61	1679.33
191.84	1693.67
192.06	1755.11
192.28	1576.94
192.50	1857.51
192.72	1726.44
192.94	1697.77
193.16	1751.01
193.38	1722.34
193.60	1650.66
193.82	1712.10
194.04	1726.44
194.26	1826.79
194.48	1675.24
194.70	1691.62
194.92	1716.20
195.14	1699.81
195.36	1613.80
195.58	1671.14
195.80	1689.57
196.02	1642.47
196.24	1662.95
196.46	1816.55
196.69	1734.63
196.91	1851.36
197.13	1732.58
197.35	1746.92
197.57	1812.45
197.79	1708.01
198.01	1753.06
198.23	1693.67
198.45	1708.01
198.67	1667.05
198.89	1697.77
199.11	1804.26
199.33	1718.25
199.55	1540.07
199.77	1718.25
199.99	1781.73
200.21	1779.68
200.43	1681.38
200.65	1593.32
200.87	1587.18
201.09	1734.63
201.31	1689.57
201.53	1757.16
201.75	1710.05
201.97	1755.11
202.19	1681.38
202.41	1794.02
202.63	1806.31
202.85	1798.12
203.07	1699.81
203.29	1669.09
203.51	1683.43
203.73	1685.48
203.95	1816.55
204.17	1710.05
204.39	1689.57
204.61	1675.24
204.83	1746.92
205.05	1636.33
205.27	1734.63
205.49	1800.16
205.71	1748.97
205.93	1624.04
206.15	1708.01
206.37	1705.96
206.59	1705.96
206.81	1621.99
207.03	1677.29
207.25	1689.57
207.47	1726.44
207.69	1652.71
207.91	1748.97
208.13	1726.44
208.34	1648.61
208.56	1681.38
208.78	1740.77
209.00	1738.73
209.22	1718.25
209.44	1697.77
209.66	1738.73
209.88	1722.34
210.10	1705.96
210.32	1621.99
210.54	1763.30
210.76	1753.06
210.98	1738.73
211.20	1585.13
211.42	1652.71
211.64	1816.55
211.86	1730.53
212.08	1742.82
212.30	1732.58
212.52	1654.76
212.74	1695.72
212.96	1701.86
213.17	1685.48
213.39	1763.30
213.61	1812.45
213.83	1699.81
214.05	1757.16
214.27	1806.31
214.49	1675.24
214.71	1646.57
214.93	1812.45
215.15	1695.72
215.37	1757.16
215.59	1738.73
215.81	1800.16
216.03	1703.91
216.24	1685.48
216.46	1740.77
216.68	1740.77
216.90	1710.05
217.12	1779.68
217.34	1724.39
217.56	1724.39
217.78	1865.70
218.00	1736.68
218.22	1673.19
218.44	1658.85
218.66	1662.95
218.87	1748.97
219.09	1650.66
219.31	1730.53
219.53	1705.96
219.75	1691.62
219.97	1748.97
220.19	1732.58
220.41	1679.33
220.63	1763.30
220.85	1712.10
221.06	1687.53
221.28	1787.88
221.50	1757.16
221.72	1751.01
221.94	1740.77
222.16	1728.49
222.38	1796.07
222.60	1705.96
222.82	1695.72
223.03	1724.39
223.25	1656.81
223.47	1738.73
223.69	1787.88
223.91	1765.35
224.13	1714.15
224.35	1644.52
224.57	1763.30
224.78	1804.26
225.00	1667.05
225.22	1681.38
225.44	1705.96
225.66	1785.83
225.88	1697.77
226.10	1771.49
226.32	1679.33
226.53	1789.92
226.75	1685.48
226.97	1693.67
227.19	1697.77
227.41	1685.48
227.63	1638.38
227.85	1673.19
228.06	1681.38
228.28	1685.48
228.50	1773.54
228.72	1775.59
228.94	1726.44
229.16	1603.56
229.37	1638.38
229.59	1642.47
229.81	1828.84
230.03	1669.09
230.25	1665.00
230.47	1714.15
230.69	1675.24
230.90	1755.11
231.12	1660.90
231.34	1656.81
231.56	1767.40
231.78	1607.66
232.00	1755.11
232.21	1730.53
232.43	1730.53
232.65	1546.22
232.87	1726.44
233.09	1634.28
233.30	1648.61
233.52	1701.86
233.74	1714.15
233.96	1697.77
234.18	1742.82
234.40	1689.57
234.61	1796.07
234.83	1642.47
235.05	1525.74
235.27	1820.64
235.49	1820.64
235.70	1728.49
235.92	1763.30
236.14	1697.77
236.36	1822.69
236.58	1619.94
236.79	1736.68
237.01	1722.34
237.23	1714.15
237.45	1806.31
237.67	1609.70
237.88	1728.49
238.10	1806.31
238.32	1712.10
238.54	1751.01
238.76	1708.01
238.97	1677.29
239.19	1599.46
239.41	1800.16
239.63	1710.05
239.85	1615.85
240.06	1746.92
240.28	1683.43
240.50	1761.25
240.72	1746.92
240.93	1716.20
241.15	1789.92
241.37	1726.44
241.59	1830.88
241.81	1746.92
242.02	1708.01
242.24	1767.40
242.46	1771.49
242.68	1658.85
242.89	1755.11
243.11	1699.81
243.33	1708.01
243.55	1763.30
243.76	1705.96
243.98	1697.77
244.20	1681.38
244.42	1648.61
244.64	1753.06
244.85	1611.75
245.07	1644.52
245.29	1748.97
245.51	1683.43
245.72	1728.49
245.94	1767.40
246.16	1718.25
246.38	1765.35
246.59	1716.20
246.81	1640.42
247.03	1638.38
247.24	1554.41
247.46	1728.49
247.68	1724.39
247.90	1673.19
248.11	1630.18
248.33	1763.30
248.55	1648.61
248.77	1675.24
248.98	1789.92
249.20	1800.16
249.42	1755.11
249.64	1685.48
249.85	1712.10
250.07	1712.10
250.29	1740.77
250.50	1824.74
250.72	1677.29
250.94	1726.44
251.16	1769.44
251.37	1843.17
251.59	1714.15
251.81	1638.38
252.02	1783.78
252.24	1636.33
252.46	1675.24
252.68	1742.82
252.89	1701.86
253.11	1701.86
253.33	1847.27
253.54	1742.82
253.76	1693.67
253.98	1742.82
254.20	1693.67
254.41	1638.38
254.63	1755.11
254.85	1675.24
255.06	1714.15
255.28	1769.44
255.50	1681.38
255.71	1679.33
255.93	1581.03
256.15	1660.90
256.36	1730.53
256.58	1722.34
256.80	1771.49
257.02	1644.52
257.23	1658.85
257.45	1701.86
257.67	1748.97
257.88	1660.90
258.10	1769.44
258.32	1720.29
258.53	1691.62
258.75	1781.73
258.97	1640.42
259.18	1703.91
259.40	1673.19
259.62	1820.64
259.83	1808.36
260.05	1744.87
260.27	1964.00
260.48	1683.43
260.70	1718.25
260.92	1693.67
261.13	1669.09
261.35	1730.53
261.57	1738.73
261.78	1640.42
262.00	1705.96
262.22	1806.31
262.43	1679.33
262.65	1634.28
262.86	1691.62
263.08	1779.68
263.30	1665.00
263.51	1603.56
263.73	1669.09
263.95	1757.16
264.16	1640.42
264.38	1566.70
264.60	1732.58
264.81	1703.91
265.03	1783.78
265.25	1748.97
265.46	1652.71
265.68	1787.88
265.89	1724.39
266.11	1558.50
266.33	1718.25
266.54	1738.73
266.76	1728.49
266.98	1773.54
267.19	1748.97
267.41	1751.01
267.62	1689.57
267.84	1607.66
268.06	1689.57
268.27	1677.29
268.49	1757.16
268.70	1730.53
268.92	1738.73
269.14	1621.99
269.35	1636.33
269.57	1681.38
269.79	1736.68
270.00	1644.52
270.22	1837.03
270.43	1626.09
270.65	1560.55
270.87	1705.96
271.08	1748.97
271.30	1738.73
271.51	1683.43
271.73	1697.77
271.95	1785.83
272.16	1681.38
272.38	1773.54
272.59	1738.73
272.81	1701.86
273.02	1693.67
273.24	1748.97
273.46	1736.68
273.67	1632.23
273.89	1632.23
274.10	1695.72
274.32	1814.50
274.54	1769.44
274.75	1787.88
274.97	1683.43
275.18	1724.39
275.40	1697.77
275.61	1658.85
275.83	1796.07
276.05	1705.96
276.26	1720.29
276.48	1705.96
276.69	1644.52
276.91	1708.01
277.12	1740.77
277.34	1738.73
277.55	1794.02
277.77	1769.44
277.99	1689.57
278.20	1687.53
278.42	1658.85
278.63	1646.57
278.85	1648.61
279.06	1691.62
279.28	1751.01
279.49	1826.79
279.71	1804.26
279.93	1726.44
280.14	1726.44
280.36	1705.96
280.57	1773.54
280.79	1802.21
281.00	1718.25
281.22	1716.20
281.43	1763.30
281.65	1566.70
281.86	1636.33
282.08	1656.81
282.29	1781.73
282.51	1726.44
282.73	1695.72
282.94	1658.85
283.16	1646.57
283.37	1814.50
283.59	1662.95
283.80	1734.63
284.02	1648.61
284.23	1736.68
284.45	1609.70
284.66	1634.28
284.88	1720.29
285.09	1757.16
285.31	1746.92
285.52	1710.05
285.74	1708.01
285.95	1724.39
286.17	1734.63
286.38	1759.21
286.60	1746.92
286.81	1669.09
287.03	1615.85
287.24	1744.87
287.46	1691.62
287.67	1703.91
287.89	1822.69
288.10	1683.43
288.32	1681.38
288.53	1853.41
288.75	1689.57
288.96	1703.91
289.18	1695.72
289.39	1679.33
289.61	1775.59
289.82	1812.45
290.04	1849.32
290.25	1683.43
290.47	1742.82
290.68	1683.43
290.90	1718.25
291.11	1654.76
291.33	1697.77
291.54	1656.81
291.76	1652.71
291.97	1595.37
292.18	1740.77
292.40	1703.91
292.61	1646.57
292.83	1871.84
293.04	1740.77
293.26	1763.30
293.47	1693.67
293.69	1687.53
293.90	1734.63
294.12	1740.77
294.33	1699.81
294.55	1712.10
294.76	1714.15
294.97	1789.92
295.19	1847.27
295.40	1673.19
295.62	1742.82
295.83	1738.73
296.05	1767.40
296.26	1765.35
296.48	1722.34
296.69	1705.96
296.90	1695.72
297.12	1800.16
297.33	1710.05
297.55	1730.53
297.76	1746.92
297.98	1703.91
298.19	1695.72
298.41	1767.40
298.62	1710.05
298.83	1779.68
299.05	1757.16
299.26	1677.29
299.48	1615.85
299.69	1748.97
299.90	1712.10
300.12	1732.58
300.33	1703.91
300.55	1693.67
300.76	1765.35
300.98	1658.85
301.19	1763.30
301.40	1708.01
301.62	1626.09
301.83	1677.29
302.05	1708.01
302.26	1665.00
302.47	1722.34
302.69	1644.52
302.90	1722.34
303.12	1583.08
303.33	1761.25
303.54	1804.26
303.76	1710.05
303.97	1730.53
304.19	1730.53
304.40	1636.33
304.61	1771.49
304.83	1773.54
305.04	1763.30
305.26	1775.59
305.47	1734.63
305.68	1705.96
305.90	1673.19
306.11	1791.97
306.33	1667.05
306.54	1712.10
306.75	1689.57
306.97	1656.81
307.18	1656.81
307.39	1656.81
307.61	1771.49
307.82	1744.87
308.04	1679.33
308.25	1656.81
308.46	1740.77
308.68	1730.53
308.89	1685.48
309.10	1716.20
309.32	1732.58
309.53	1640.42
309.74	1794.02
309.96	1732.58
310.17	1730.53
310.39	1705.96
310.60	1712.10
310.81	1714.15
311.03	1619.94
311.24	1796.07
311.45	1751.01
311.67	1808.36
311.88	1691.62
312.09	1720.29
312.31	1656.81
312.52	1712.10
312.73	1701.86
312.95	1701.86
313.16	1685.48
313.37	1796.07
313.59	1665.00
313.80	1853.41
314.01	1791.97
314.23	1673.19
314.44	1621.99
314.65	1705.96
314.87	1611.75
315.08	1658.85
315.29	1730.53
315.51	1626.09
315.72	1621.99
315.93	1751.01
316.15	1753.06
316.36	1691.62
316.57	1742.82
316.79	1757.16
317.00	1728.49
317.21	1740.77
317.43	1673.19
317.64	1716.20
317.85	1617.90
318.07	1654.76
318.28	1849.32
318.49	1781.73
318.70	1984.48
318.92	1918.95
319.13	1806.31
319.34	1945.57
319.56	1875.94
319.77	1861.60
319.98	1820.64
320.20	1736.68
320.41	1787.88
320.62	1837.03
320.83	1673.19
321.05	1839.08
321.26	1742.82
321.47	1693.67
321.69	1738.73
321.90	1576.94
322.11	1632.23
322.32	1736.68
322.54	1810.40
322.75	1675.24
322.96	1857.51
323.18	1593.32
323.39	1611.75
323.60	1732.58
323.81	1718.25
324.03	1736.68
324.24	1673.19
324.45	1650.66
324.66	1734.63
324.88	1820.64
325.09	1787.88
325.30	1738.73
325.52	1662.95
325.73	1785.83
325.94	1705.96
326.15	1630.18
326.37	1675.24
326.58	1689.57
326.79	1779.68
327.00	1673.19
327.22	1677.29
327.43	1671.14
327.64	1695.72
327.85	1757.16
328.07	1697.77
328.28	1767.40
328.49	1578.98
328.70	1734.63
328.92	1697.77
329.13	1693.67
329.34	1736.68
329.55	1818.60
329.76	1734.63
329.98	1650.66
330.19	1751.01
330.40	1697.77
330.61	1695.72
330.83	1751.01
331.04	1693.67
331.25	1660.90
331.46	1642.47
331.68	1632.23
331.89	1738.73
332.10	1789.92
332.31	1669.09
332.52	1728.49
332.74	1748.97
332.95	1687.53
333.16	1665.00
333.37	1755.11
333.58	1675.24
333.80	1834.98
334.01	1685.48
334.22	1607.66
334.43	1642.47
334.64	1693.67
334.86	1673.19
335.07	1646.57
335.28	1828.84
335.49	1652.71
335.70	1724.39
335.92	1722.34
336.13	1853.41
336.34	1767.40
336.55	1648.61
336.76	1736.68
336.98	1611.75
337.19	1662.95
337.40	1808.36
337.61	1847.27
337.82	1658.85
338.04	1744.87
338.25	1605.61
338.46	1697.77
338.67	1685.48
338.88	1648.61
339.09	1646.57
339.31	1714.15
339.52	1636.33
339.73	1646.57
339.94	1685.48
340.15	1742.82
340.36	1697.77
340.58	1748.97
340.79	1665.00
341.00	1716.20
341.21	1599.46
341.42	1828.84
341.63	1650.66
341.85	1652.71
342.06	1681.38
342.27	1669.09
342.48	1746.92
342.69	1705.96
342.90	1787.88
343.12	1695.72
343.33	1634.28
343.54	1755.11
343.75	1779.68
343.96	1652.71
344.17	1724.39
344.38	1632.23
344.60	1667.05
344.81	1759.21
345.02	1638.38
345.23	1814.50
345.44	1949.67
345.65	1718.25
345.86	1740.77
346.07	1677.29
346.29	1732.58
346.50	1748.97
346.71	1785.83
346.92	1814.50
347.13	1822.69
347.34	1726.44
347.55	1609.70
347.76	1669.09
347.98	1673.19
348.19	1769.44
348.40	1806.31
348.61	1677.29
348.82	1712.10
349.03	1736.68
349.24	1626.09
349.45	1810.40
349.66	1605.61
349.88	1697.77
350.09	1675.24
350.30	1869.80
350.51	1765.35
350.72	1765.35
350.93	1730.53
351.14	1656.81
351.35	1775.59
351.56	1691.62
351.77	1701.86
351.99	1771.49
352.20	1794.02
352.41	1759.21
352.62	1730.53
352.83	1687.53
353.04	1708.01
353.25	1701.86
353.46	1761.25
353.67	1789.92
353.88	1603.56
354.09	1710.05
354.30	1671.14
354.52	1753.06
354.73	1708.01
354.94	1640.42
355.15	1710.05
355.36	1757.16
355.57	1681.38
355.78	1742.82
355.99	1705.96
356.20	1681.38
356.41	1767.40
356.62	1726.44
356.83	1667.05
357.04	1834.98
357.25	1705.96
357.46	1697.77
357.68	1619.94
357.89	1619.94
358.10	1712.10
358.31	1716.20
358.52	1708.01
358.73	1662.95
358.94	1658.85
359.15	1701.86
359.36	1742.82
359.57	1751.01
359.78	1691.62
359.99	1722.34
360.20	1660.90
360.41	1728.49
360.62	1722.34
360.83	1681.38
361.04	1734.63
361.25	1685.48
361.46	1832.93
361.67	1712.10
361.88	1753.06
362.09	1757.16
362.30	1781.73
362.51	1611.75
362.72	1640.42
362.93	1703.91
363.14	1779.68
363.35	1724.39
363.56	1695.72
363.78	1783.78
363.99	1746.92
364.20	1624.04
364.41	1787.88
364.62	1753.06
364.83	1751.01
365.04	1740.77
365.25	1728.49
365.46	1839.08
365.67	1619.94
365.88	1761.25
366.09	1669.09
366.30	1654.76
366.51	1771.49
366.72	1740.77
366.93	1744.87
367.14	1654.76
367.35	1742.82
367.56	1742.82
367.77	1820.64
367.98	1703.91
368.18	1689.57
368.39	1689.57
368.60	1742.82
368.81	1730.53
369.02	1691.62
369.23	1697.77
369.44	1603.56
369.65	1693.67
369.86	1765.35
370.07	1757.16
370.28	1665.00
370.49	1806.31
370.70	1775.59
370.91	1675.24
371.12	1660.90
371.33	1732.58
371.54	1677.29
371.75	1816.55
371.96	1552.36
372.17	1771.49
372.38	1685.48
372.59	1695.72
372.80	1712.10
373.01	1685.48
373.22	1751.01
373.43	1681.38
373.64	1679.33
373.85	1847.27
374.06	1837.03
374.26	1798.12
374.47	1730.53
374.68	1820.64
374.89	1722.34
375.10	1681.38
375.31	1714.15
375.52	1634.28
375.73	1730.53
375.94	1638.38
376.15	1855.46
376.36	1695.72
376.57	1751.01
376.78	1679.33
376.99	1701.86
377.20	1775.59
377.40	1724.39
377.61	1828.84
377.82	1667.05
378.03	1853.41
378.24	1701.86
378.45	1708.01
378.66	1677.29
378.87	1540.07
379.08	1642.47
379.29	1722.34
379.50	1763.30
379.71	1718.25
379.91	1808.36
380.12	1783.78
380.33	1744.87
380.54	1738.73
380.75	1683.43
380.96	1734.63
381.17	1755.11
381.38	1679.33
381.59	1773.54
381.80	1740.77
382.00	1855.46
382.21	1800.16
382.42	1843.17
382.63	1882.08
382.84	1812.45
383.05	1820.64
383.26	1847.27
383.47	1703.91
383.68	1693.67
383.88	1800.16
384.09	1705.96
384.30	1730.53
384.51	1746.92
384.72	1654.76
384.93	1656.81
385.14	1720.29
385.35	1730.53
385.55	1562.60
385.76	1783.78
385.97	1736.68
386.18	1718.25
386.39	1658.85
386.60	1720.29
386.81	1669.09
387.02	1667.05
387.22	1689.57
387.43	1781.73
387.64	1810.40
387.85	1888.23
388.06	2170.85
388.27	4616.12
388.48	9203.57
388.68	11726.67
388.89	13625.14
389.10	13952.81
389.31	12003.14
389.52	9682.80
389.73	8511.36
389.93	7899.02
390.14	7171.99
390.35	6653.85
390.56	6076.32
390.77	4988.85
390.98	3876.80
391.18	3063.76
391.39	2310.11
391.60	1925.09
391.81	1923.04
392.02	1720.29
392.23	1902.56
392.43	1701.86
392.64	1837.03
392.85	1703.91
393.06	1828.84
393.27	1691.62
393.47	1667.05
393.68	1755.11
393.89	1728.49
394.10	1824.74
394.31	1753.06
394.52	1646.57
394.72	1675.24
394.93	1794.02
395.14	1609.70
395.35	1769.44
395.56	1720.29
395.76	1710.05
395.97	1806.31
396.18	1839.08
396.39	1875.94
396.60	2220.00
396.80	1998.82
397.01	1896.42
397.22	1894.37
397.43	1910.75
397.64	1779.68
397.84	1849.32
398.05	1894.37
398.26	1751.01
398.47	1877.99
398.67	1798.12
398.88	1697.77
399.09	1783.78
399.30	1671.14
399.51	1746.92
399.71	1634.28
399.92	1685.48
400.13	1703.91
400.34	1691.62
400.54	1728.49
400.75	1843.17
400.96	1695.72
401.17	1857.51
401.37	1755.11
401.58	1755.11
401.79	1718.25
402.00	1873.89
402.21	2086.88
402.41	2066.40
402.62	2076.64
402.83	2222.05
403.04	2086.88
403.24	2203.61
403.45	1910.75
403.66	1964.00
403.87	1912.80
404.07	1927.14
404.28	2021.35
404.49	1882.08
404.70	1834.98
404.90	1816.55
405.11	1658.85
405.32	1830.88
405.52	1611.75
405.73	1665.00
405.94	1599.46
406.15	1660.90
406.35	1806.31
406.56	1796.07
406.77	1759.21
406.98	1734.63
407.18	1599.46
407.39	1755.11
407.60	1732.58
407.80	1730.53
408.01	1693.67
408.22	1791.97
408.43	1705.96
408.63	1748.97
408.84	1742.82
409.05	1740.77
409.25	1626.09
409.46	1593.32
409.67	1722.34
409.88	1683.43
410.08	1751.01
410.29	1703.91
410.50	1726.44
410.70	1742.82
410.91	1697.77
411.12	1769.44
411.32	1708.01
411.53	1683.43
411.74	1857.51
411.95	1798.12
412.15	1796.07
412.36	1789.92
412.57	1781.73
412.77	1847.27
412.98	1732.58
413.19	1718.25
413.39	1851.36
413.60	1800.16
413.81	1783.78
414.01	1712.10
414.22	1740.77
414.43	1873.89
414.63	1767.40
414.84	1818.60
415.05	1761.25
415.25	1656.81
415.46	1703.91
415.67	1701.86
415.87	1753.06
416.08	1746.92
416.29	1695.72
416.49	1798.12
416.70	1658.85
416.91	1736.68
417.11	1728.49
417.32	1746.92
417.53	1759.21
417.73	1757.16
417.94	1755.11
418.15	1628.14
418.35	1716.20
418.56	1755.11
418.77	1800.16
418.97	1746.92
419.18	1777.64
419.38	1570.79
419.59	1669.09
419.80	1796.07
420.00	1634.28
420.21	1660.90
420.42	1781.73
420.62	1699.81
420.83	1681.38
421.04	1644.52
421.24	1705.96
421.45	1724.39
421.65	1773.54
421.86	1701.86
422.07	1722.34
422.27	1695.72
422.48	1755.11
422.69	1681.38
422.89	1673.19
423.10	1777.64
423.30	1687.53
423.51	1685.48
423.72	1685.48
423.92	1761.25
424.13	1599.46
424.33	1718.25
424.54	1796.07
424.75	1767.40
424.95	1837.03
425.16	1652.71
425.36	1734.63
425.57	1830.88
425.78	1685.48
425.98	1763.30
426.19	1615.85
426.39	1669.09
426.60	1683.43
426.81	1755.11
427.01	1740.77
427.22	1697.77
427.42	1656.81
427.63	1697.77
427.83	1791.97
428.04	1794.02
428.25	1783.78
428.45	1755.11
428.66	1787.88
428.86	1804.26
429.07	1677.29
429.28	1738.73
429.48	1658.85
429.69	1720.29
429.89	1791.97
430.10	1722.34
430.30	1748.97
430.51	1796.07
430.71	1693.67
430.92	1701.86
431.13	1669.09
431.33	1755.11
431.54	1773.54
431.74	1765.35
431.95	1806.31
432.15	1697.77
432.36	1736.68
432.56	1820.64
432.77	1775.59
432.98	1783.78
433.18	1708.01
433.39	1691.62
433.59	1697.77
433.80	1849.32
434.00	1822.69
434.21	1697.77
434.41	1691.62
434.62	1904.61
434.82	1708.01
435.03	1665.00
435.23	1751.01
435.44	1597.42
435.64	1646.57
435.85	1697.77
436.06	1781.73
436.26	1789.92
436.47	1677.29
436.67	1710.05
436.88	1755.11
437.08	1779.68
437.29	1808.36
437.49	1712.10
437.70	1804.26
437.90	1804.26
438.11	1820.64
438.31	1783.78
438.52	1865.70
438.72	1896.42
438.93	2002.91
439.13	1839.08
439.34	1871.84
439.54	1834.98
439.75	1867.75
439.95	1818.60
440.16	1677.29
440.36	1724.39
440.57	1738.73
440.77	1816.55
440.98	1755.11
441.18	1804.26
441.39	1732.58
441.59	1628.14
441.80	1847.27
442.00	1730.53
442.21	1775.59
442.41	1714.15
442.62	1732.58
442.82	1650.66
443.02	1726.44
443.23	1771.49
443.43	1722.34
443.64	1900.52
443.84	1742.82
444.05	1824.74
444.25	1787.88
444.46	1722.34
444.66	1802.21
444.87	1855.46
445.07	1658.85
445.28	1716.20
445.48	1843.17
445.69	1718.25
445.89	1880.04
446.09	1771.49
446.30	1988.58
446.50	2617.30
446.71	4151.23
446.91	5072.82
447.12	5683.11
447.32	6094.76
447.53	5324.72
447.73	4386.75
447.93	3942.34
448.14	3631.05
448.34	3542.99
448.55	3157.97
448.75	3203.02
448.96	3004.37
449.16	2619.35
449.36	2455.51
449.57	2228.19
449.77	1937.38
449.98	1853.41
450.18	1826.79
450.39	1853.41
450.59	1845.22
450.79	1718.25
451.00	1644.52
451.20	1744.87
451.41	1716.20
451.61	1738.73
451.81	1712.10
452.02	1732.58
452.22	1693.67
452.43	1681.38
452.63	1689.57
452.84	1732.58
453.04	1685.48
453.24	1779.68
453.45	1703.91
453.65	1648.61
453.86	1744.87
454.06	1845.22
454.26	1800.16
454.47	1710.05
454.67	1759.21
454.87	1730.53
455.08	1685.48
455.28	1884.13
455.49	1755.11
455.69	1648.61
455.89	1863.65
456.10	1757.16
456.30	1773.54
456.51	1785.83
456.71	1755.11
456.91	1798.12
457.12	1773.54
457.32	1765.35
457.52	1714.15
457.73	1738.73
457.93	1646.57
458.14	1701.86
458.34	1744.87
458.54	1724.39
458.75	1697.77
458.95	1783.78
459.15	1814.50
459.36	1708.01
459.56	1812.45
459.76	1900.52
459.97	1748.97
460.17	1693.67
460.37	1839.08
460.58	1714.15
460.78	1746.92
460.99	1751.01
461.19	1769.44
461.39	1697.77
461.60	1701.86
461.80	1730.53
462.00	1730.53
462.21	1693.67
462.41	1652.71
462.61	1654.76
462.82	1619.94
463.02	1779.68
463.22	1730.53
463.43	1742.82
463.63	1730.53
463.83	1722.34
464.04	1691.62
464.24	1765.35
464.44	1679.33
464.64	1724.39
464.85	1777.64
465.05	1841.12
465.25	1787.88
465.46	1730.53
465.66	1796.07
465.86	1708.01
466.07	1714.15
466.27	1705.96
466.47	1681.38
466.68	1662.95
466.88	1787.88
467.08	1789.92
467.29	1769.44
467.49	1767.40
467.69	1685.48
467.89	1665.00
468.10	1732.58
468.30	1767.40
468.50	1845.22
468.71	1779.68
468.91	1701.86
469.11	1904.61
469.31	1648.61
469.52	1705.96
469.72	1826.79
469.92	1791.97
470.13	1701.86
470.33	1689.57
470.53	1808.36
470.73	2222.05
470.94	2541.53
471.14	2789.33
471.34	3028.95
471.54	2836.44
471.75	2533.34
471.95	2328.54
472.15	2353.12
472.36	2252.77
472.56	2260.96
472.76	2306.01
472.96	2156.51
473.17	2021.35
473.37	1984.48
473.57	1910.75
473.77	1863.65
473.98	1812.45
474.18	1765.35
474.38	1947.62
474.58	1691.62
474.79	1652.71
474.99	1767.40
475.19	1759.21
475.39	1804.26
475.60	1742.82
475.80	1683.43
476.00	1732.58
476.20	1710.05
476.41	1720.29
476.61	1740.77
476.81	1710.05
477.01	1703.91
477.21	1796.07
477.42	1759.21
477.62	1638.38
477.82	1755.11
478.02	1701.86
478.23	1691.62
478.43	1673.19
478.63	1701.86
478.83	1693.67
479.03	1683.43
479.24	1740.77
479.44	1867.75
479.64	1726.44
479.84	1665.00
480.04	1724.39
480.25	1791.97
480.45	1638.38
480.65	1740.77
480.85	1804.26
481.06	1656.81
481.26	1740.77
481.46	1685.48
481.66	1701.86
481.86	1718.25
482.06	1755.11
482.27	1665.00
482.47	1744.87
482.67	1832.93
482.87	1687.53
483.07	1820.64
483.28	1665.00
483.48	1630.18
483.68	1800.16
483.88	1681.38
484.08	1691.62
484.29	1736.68
484.49	1689.57
484.69	1642.47
484.89	1806.31
485.09	1753.06
485.29	1787.88
485.50	1726.44
485.70	1742.82
485.90	1773.54
486.10	1630.18
486.30	1798.12
486.50	1736.68
486.71	1734.63
486.91	1802.21
487.11	1732.58
487.31	1683.43
487.51	1718.25
487.71	1662.95
487.91	1695.72
488.12	1638.38
488.32	1662.95
488.52	1726.44
488.72	1617.90
488.92	1738.73
489.12	1763.30
489.32	1771.49
489.53	1732.58
489.73	1691.62
489.93	1816.55
490.13	1646.57
490.33	1699.81
490.53	1753.06
490.73	1830.88
490.94	1675.24
491.14	1794.02
491.34	1884.13
491.54	2070.50
491.74	2770.90
491.94	3200.98
492.14	3491.79
492.34	3549.13
492.54	3151.82
492.75	2750.42
492.95	2639.83
493.15	2400.22
493.35	2416.60
493.55	2336.73
493.75	2232.29
493.95	2326.49
494.15	2105.31
494.35	2019.30
494.56	1869.80
494.76	1830.88
494.96	1798.12
495.16	1828.84
495.36	1699.81
495.56	1783.78
495.76	1691.62
495.96	1785.83
496.16	1648.61
496.36	1808.36
496.56	1755.11
496.77	1789.92
496.97	1718.25
497.17	1763.30
497.37	1703.91
497.57	1816.55
497.77	1720.29
497.97	1699.81
498.17	1724.39
498.37	1671.14
498.57	1705.96
498.77	1665.00
498.97	1712.10
499.17	1783.78
499.38	1705.96
499.58	1714.15
499.78	1822.69
499.98	1783.78
500.18	1777.64
500.38	1771.49
500.58	1888.23
500.78	2408.41
500.98	4679.61
501.18	6549.40
501.38	8148.87
501.58	9017.21
501.78	8955.77
501.98	6901.65
502.18	5894.05
502.38	4896.69
502.58	4499.39
502.78	4186.05
502.98	4028.35
503.18	3758.02
503.38	3559.37
503.59	3172.30
503.79	2928.60
503.99	2496.47
504.19	2351.07
504.39	2322.40
504.59	2351.07
504.79	2279.39
504.99	2279.39
505.19	2088.93
505.39	2033.63
505.59	2009.06
505.79	2019.30
505.99	1920.99
506.19	1898.47
506.39	1957.86
506.59	1808.36
506.79	1826.79
506.99	1902.56
507.19	1763.30
507.39	1810.40
507.59	1710.05
507.79	1738.73
507.99	1667.05
508.19	1714.15
508.39	1796.07
508.59	1753.06
508.79	1857.51
508.99	1888.23
509.19	1673.19
509.39	1783.78
509.59	1636.33
509.79	1685.48
509.99	1738.73
510.19	1771.49
510.39	1857.51
510.59	1740.77
510.79	1685.48
510.99	1675.24
511.19	1720.29
511.39	1814.50
511.59	1779.68
511.79	1830.88
511.99	1677.29
512.19	1851.36
512.38	1687.53
512.58	1716.20
512.78	1744.87
512.98	1791.97
513.18	1845.22
513.38	1748.97
513.58	1740.77
513.78	1648.61
513.98	1755.11
514.18	1722.34
514.38	1728.49
514.58	1773.54
514.78	1726.44
514.98	1732.58
515.18	1718.25
515.38	1685.48
515.58	1824.74
515.78	1751.01
515.98	1701.86
516.18	1738.73
516.38	1736.68
516.57	1662.95
516.77	1603.56
516.97	1748.97
517.17	1724.39
517.37	1578.98
517.57	1755.11
517.77	1763.30
517.97	1687.53
518.17	1751.01
518.37	1712.10
518.57	1720.29
518.77	1691.62
518.97	1728.49
519.16	1794.02
519.36	1824.74
519.56	1673.19
519.76	1746.92
519.96	1716.20
520.16	1849.32
520.36	1636.33
520.56	1849.32
520.76	1673.19
520.96	1695.72
521.16	1798.12
521.35	1822.69
521.55	1812.45
521.75	1722.34
521.95	1677.29
522.15	1695.72
522.35	1607.66
522.55	1689.57
522.75	1779.68
522.95	1732.58
523.14	1695.72
523.34	1712.10
523.54	1648.61
523.74	1826.79
523.94	1724.39
524.14	1685.48
524.34	1662.95
524.54	1822.69
524.73	1599.46
524.93	1746.92
525.13	1716.20
525.33	1667.05
525.53	1927.14
525.73	1773.54
525.93	1699.81
526.13	1802.21
526.32	1675.24
526.52	1746.92
526.72	1789.92
526.92	1732.58
527.12	1671.14
527.32	1681.38
527.52	1767.40
527.71	1728.49
527.91	1632.23
528.11	1681.38
528.31	1724.39
528.51	1607.66
528.71	1767.40
528.90	1724.39
529.10	1791.97
529.30	1806.31
529.50	1642.47
529.70	1736.68
529.90	1658.85
530.09	1693.67
530.29	1667.05
530.49	1726.44
530.69	1871.84
530.89	1705.96
531.09	1798.12
531.28	1714.15
531.48	1746.92
531.68	1757.16
531.88	1716.20
532.08	1714.15
532.28	1660.90
532.47	1810.40
532.67	1816.55
532.87	1687.53
533.07	1652.71
533.27	1818.60
533.46	1804.26
533.66	1816.55
533.86	1732.58
534.06	1769.44
534.26	1834.98
534.45	1767.40
534.65	1767.40
534.85	1708.01
535.05	1718.25
535.25	1736.68
535.44	1636.33
535.64	1796.07
535.84	1738.73
536.04	1761.25
536.24	1701.86
536.43	1740.77
536.63	1785.83
536.83	1615.85
537.03	1699.81
537.22	1673.19
537.42	1669.09
537.62	1777.64
537.82	1724.39
538.02	1753.06
538.21	1746.92
538.41	1947.62
538.61	1708.01
538.81	1744.87
539.00	1824.74
539.20	1671.14
539.40	1763.30
539.60	1730.53
539.79	1767.40
539.99	1578.98
540.19	1673.19
540.39	1746.92
540.58	1771.49
540.78	1769.44
540.98	1787.88
541.18	1763.30
541.37	1765.35
541.57	1722.34
541.77	1755.11
541.97	1646.57
542.16	1628.14
542.36	1710.05
542.56	1714.15
542.76	1914.85
542.95	1753.06
543.15	1769.44
543.35	1787.88
543.54	1656.81
543.74	1763.30
543.94	1759.21
544.14	1628.14
544.33	1802.21
544.53	1681.38
544.73	1730.53
544.93	1779.68
545.12	1769.44
545.32	1732.58
545.52	1755.11
545.71	1720.29
545.91	1632.23
546.11	1624.04
546.30	1681.38
546.50	1755.11
546.70	1775.59
546.90	1773.54
547.09	1642.47
547.29	1705.96
547.49	1775.59
547.68	1742.82
547.88	1646.57
548.08	1716.20
548.27	2119.65
548.47	1714.15
548.67	1636.33
548.87	1775.59
549.06	1685.48
549.26	1789.92
549.46	1787.88
549.65	1771.49
549.85	1675.24
550.05	1794.02
550.24	1699.81
550.44	1796.07
550.64	1714.15
550.83	1693.67
551.03	1779.68
551.23	1771.49
551.42	1818.60
551.62	1738.73
551.82	1708.01
552.01	1769.44
552.21	1804.26
552.41	1771.49
552.60	1794.02
552.80	1806.31
553.00	1660.90
553.19	1730.53
553.39	1847.27
553.59	1591.27
553.78	1775.59
553.98	1671.14
554.17	1701.86
554.37	1775.59
554.57	1820.64
554.76	1665.00
554.96	1724.39
555.16	1710.05
555.35	1734.63
555.55	1742.82
555.75	1765.35
555.94	1818.60
556.14	1718.25
556.33	1751.01
556.53	1685.48
556.73	1644.52
556.92	1830.88
557.12	1787.88
557.32	1859.56
557.51	1828.84
557.71	1837.03
557.90	1796.07
558.10	1867.75
558.30	1759.21
558.49	1705.96
558.69	1679.33
558.88	1744.87
559.08	1722.34
559.28	1773.54
559.47	1730.53
559.67	1734.63
559.86	1875.94
560.06	1767.40
560.26	1763.30
560.45	1738.73
560.65	1744.87
560.84	1783.78
561.04	1724.39
561.24	1773.54
561.43	1734.63
561.63	1783.78
561.82	1789.92
562.02	1730.53
562.22	1742.82
562.41	1712.10
562.61	1658.85
562.80	1667.05
563.00	1853.41
563.19	1777.64
563.39	1832.93
563.59	1800.16
563.78	1714.15
563.98	1632.23
564.17	1777.64
564.37	1656.81
564.56	1722.34
564.76	1683.43
564.96	1748.97
565.15	1746.92
565.35	1830.88
565.54	1699.81
565.74	1740.77
565.93	1767.40
566.13	1708.01
566.32	1789.92
566.52	1820.64
566.71	1751.01
566.91	1787.88
567.11	1677.29
567.30	1779.68
567.50	1773.54
567.69	1763.30
567.89	1697.77
568.08	1640.42
568.28	1742.82
568.47	1755.11
568.67	1718.25
568.86	1720.29
569.06	1826.79
569.25	1705.96
569.45	1710.05
569.64	1669.09
569.84	1783.78
570.04	1740.77
570.23	1714.15
570.43	1734.63
570.62	1718.25
570.82	1877.99
571.01	1617.90
571.21	1718.25
571.40	1773.54
571.60	1753.06
571.79	1783.78
571.99	1775.59
572.18	1667.05
572.38	1722.34
572.57	1796.07
572.77	1800.16
572.96	1785.83
573.16	1738.73
573.35	1710.05
573.55	1865.70
573.74	1800.16
573.94	1701.86
574.13	1765.35
574.33	1855.46
574.52	1828.84
574.71	1767.40
574.91	1818.60
575.10	1699.81
575.30	1734.63
575.49	1781.73
575.69	1740.77
575.88	1875.94
576.08	1771.49
576.27	1742.82
576.47	1841.12
576.66	1863.65
576.86	1849.32
577.05	1800.16
577.25	1787.88
577.44	1888.23
577.64	1740.77
577.83	1787.88
578.02	1708.01
578.22	1896.42
578.41	1841.12
578.61	1765.35
578.80	1693.67
579.00	1755.11
579.19	1730.53
579.39	1734.63
579.58	1755.11
579.77	1759.21
579.97	1861.60
580.16	1812.45
580.36	1789.92
580.55	1902.56
580.75	1798.12
580.94	1757.16
581.13	1884.13
581.33	1941.47
581.52	1775.59
581.72	1949.67
581.91	1918.95
582.11	1804.26
582.30	1816.55
582.49	1791.97
582.69	1861.60
582.88	1861.60
583.08	1787.88
583.27	1818.60
583.47	1763.30
583.66	1751.01
583.85	1667.05
584.05	1820.64
584.24	1802.21
584.44	1828.84
584.63	1869.80
584.82	1867.75
585.02	1892.32
585.21	1904.61
585.41	1910.75
585.60	1908.71
585.79	1957.86
585.99	2047.97
586.18	1951.71
586.37	2213.85
586.57	3190.74
586.76	9869.16
586.96	27348.57
587.15	42067.33
587.34	51799.27
587.54	57867.40
587.73	55872.68
587.93	40168.86
588.12	29838.90
588.31	23934.61
588.51	20420.30
588.70	18419.43
588.89	17186.55
589.09	15480.60
589.28	13698.86
589.47	11347.79
589.67	9422.70
589.86	7311.25
590.06	5506.99
590.25	4171.71
590.44	3164.11
590.64	2584.54
590.83	2332.64
591.02	2088.93
591.22	1972.19
591.41	1863.65
591.60	1789.92
591.80	2002.91
591.99	1781.73
592.18	1775.59
592.38	1900.52
592.57	1771.49
592.76	1769.44
592.96	1708.01
593.15	1738.73
593.34	1888.23
593.54	1726.44
593.73	1845.22
593.92	1851.36
594.12	1828.84
594.31	1814.50
594.50	1914.85
594.70	1845.22
594.89	1976.29
595.08	1791.97
595.28	1847.27
595.47	1920.99
595.66	1798.12
595.86	1710.05
596.05	1773.54
596.24	1716.20
596.43	1845.22
596.63	1859.56
596.82	1767.40
597.01	1816.55
597.21	1927.14
597.40	1779.68
597.59	1810.40
597.79	1759.21
597.98	1789.92
598.17	1853.41
598.36	1753.06
598.56	1787.88
598.75	1755.11
598.94	1746.92
599.14	1751.01
599.33	1734.63
599.52	1851.36
599.71	1746.92
599.91	1812.45
600.10	1787.88
600.29	1824.74
600.48	1789.92
600.68	1828.84
600.87	1796.07
601.06	1716.20
601.26	1722.34
601.45	1767.40
601.64	1738.73
601.83	1812.45
602.03	1748.97
602.22	1640.42
602.41	1818.60
602.60	1898.47
602.80	1863.65
602.99	1755.11
603.18	1755.11
603.37	1746.92
603.57	1679.33
603.76	1861.60
603.95	1779.68
604.14	1681.38
604.34	1712.10
604.53	1798.12
604.72	1691.62
604.91	1753.06
605.10	1880.04
605.30	1681.38
605.49	1757.16
605.68	1738.73
605.87	1748.97
606.07	1675.24
606.26	1759.21
606.45	1714.15
606.64	1746.92
606.84	1802.21
607.03	1759.21
607.22	1808.36
607.41	1773.54
607.60	1746.92
607.80	1839.08
607.99	1748.97
608.18	1796.07
608.37	1744.87
608.56	1683.43
608.76	1826.79
608.95	1865.70
609.14	1708.01
609.33	1877.99
609.52	1859.56
609.72	1785.83
609.91	1826.79
610.10	1755.11
610.29	1849.32
610.48	1816.55
610.68	1822.69
610.87	1746.92
611.06	1800.16
611.25	1705.96
611.44	1748.97
611.63	1687.53
611.83	1820.64
612.02	1710.05
612.21	1828.84
612.40	1650.66
612.59	1677.29
612.79	1619.94
612.98	1738.73
613.17	1873.89
613.36	1703.91
613.55	1947.62
613.74	1785.83
613.93	1906.66
614.13	1961.95
614.32	2017.25
614.51	2000.87
614.70	1806.31
614.89	1837.03
615.08	1830.88
615.28	2193.37
615.47	1714.15
615.66	1904.61
615.85	1800.16
616.04	1832.93
616.23	1800.16
616.42	1810.40
616.62	1773.54
616.81	1839.08
617.00	1728.49
617.19	1769.44
617.38	1732.58
617.57	1818.60
617.76	1804.26
617.95	1814.50
618.15	1828.84
618.34	1851.36
618.53	1648.61
618.72	1822.69
618.91	1832.93
619.10	1781.73
619.29	1712.10
619.48	1718.25
619.68	1701.86
619.87	1763.30
620.06	1669.09
620.25	1679.33
620.44	1677.29
620.63	1769.44
620.82	1796.07
621.01	1732.58
621.20	1769.44
621.39	1734.63
621.59	1746.92
621.78	1759.21
621.97	1732.58
622.16	1783.78
622.35	1744.87
622.54	1783.78
622.73	1767.40
622.92	1679.33
623.11	1787.88
623.30	1796.07
623.49	1781.73
623.68	1789.92
623.88	1691.62
624.07	1763.30
624.26	1701.86
624.45	1775.59
624.64	1765.35
624.83	1796.07
625.02	1675.24
625.21	1755.11
625.40	1759.21
625.59	1861.60
625.78	1718.25
625.97	1779.68
626.16	1834.98
626.35	1853.41
626.54	1828.84
626.74	1871.84
626.93	1806.31
627.12	1746.92
627.31	1845.22
627.50	1759.21
627.69	1779.68
627.88	1746.92
628.07	1665.00
628.26	1679.33
628.45	1765.35
628.64	1669.09
628.83	1753.06
629.02	1634.28
629.21	1796.07
629.40	1685.48
629.59	1746.92
629.78	1665.00
629.97	1718.25
630.16	1839.08
630.35	1673.19
630.54	1681.38
630.73	1730.53
630.92	1757.16
631.11	1763.30
631.30	1693.67
631.49	1779.68
631.68	1722.34
631.87	1779.68
632.06	1583.08
632.25	1869.80
632.44	1779.68
632.63	1779.68
632.82	1779.68
633.01	1746.92
633.20	1853.41
633.39	1800.16
633.58	1779.68
633.77	1742.82
633.96	1765.35
634.15	1755.11
634.34	1757.16
634.53	1779.68
634.72	1763.30
634.91	1697.77
635.10	1765.35
635.29	1812.45
635.48	1773.54
635.67	1673.19
635.86	1695.72
636.05	1697.77
636.24	1800.16
636.43	1740.77
636.62	1757.16
636.81	1533.93
637.00	1755.11
637.19	1720.29
637.38	1734.63
637.57	1691.62
637.76	1779.68
637.95	1849.32
638.14	1869.80
638.33	1830.88
638.52	1847.27
638.71	1748.97
638.89	1742.82
639.08	1912.80
639.27	1845.22
639.46	1812.45
639.65	2205.66
639.84	2326.49
640.03	2435.03
640.22	2437.08
640.41	2359.26
640.60	2060.26
640.79	1980.39
640.98	1931.23
641.17	2000.87
641.36	1871.84
641.55	1916.90
641.74	1853.41
641.92	1742.82
642.11	1767.40
642.30	1630.18
642.49	1798.12
642.68	1818.60
642.87	1824.74
643.06	1796.07
643.25	1689.57
643.44	1716.20
643.63	1753.06
643.82	1769.44
644.00	1710.05
644.19	1738.73
644.38	1730.53
644.57	1773.54
644.76	1753.06
644.95	1740.77
645.14	1753.06
645.33	1746.92
645.52	1771.49
645.71	1662.95
645.89	1628.14
646.08	1769.44
646.27	1693.67
646.46	1781.73
646.65	1677.29
646.84	1705.96
647.03	1712.10
647.22	1802.21
647.40	1710.05
647.59	1671.14
647.78	1634.28
647.97	1722.34
648.16	1695.72
648.35	1818.60
648.54	1828.84
648.73	1796.07
648.91	1771.49
649.10	1791.97
649.29	1665.00
649.48	1695.72
649.67	1701.86
649.86	1714.15
650.05	1796.07
650.23	1949.67
650.42	1824.74
650.61	1990.63
650.80	1957.86
650.99	1955.81
651.18	1902.56
651.36	1783.78
651.55	1681.38
651.74	1812.45
651.93	1714.15
652.12	1722.34
652.31	1751.01
652.49	1738.73
652.68	1683.43
652.87	1728.49
653.06	1851.36
653.25	1839.08
653.44	1755.11
653.62	1845.22
653.81	1646.57
654.00	1708.01
654.19	1738.73
654.38	1839.08
654.56	1751.01
654.75	1701.86
654.94	1742.82
655.13	1771.49
655.32	1759.21
655.51	1738.73
655.69	1699.81
655.88	1798.12
656.07	1636.33
656.26	1773.54
656.45	1730.53
656.63	1720.29
656.82	1734.63
657.01	1820.64
657.20	1599.46
657.38	1869.80
657.57	1751.01
657.76	1675.24
657.95	1775.59
658.14	1656.81
658.32	1765.35
658.51	1673.19
658.70	1630.18
658.89	1730.53
659.08	1759.21
659.26	1796.07
659.45	1722.34
659.64	1839.08
659.83	1730.53
660.01	1990.63
660.20	1779.68
660.39	1820.64
660.58	1581.03
660.76	1699.81
660.95	1679.33
661.14	1667.05
661.33	1648.61
661.51	1652.71
661.70	1726.44
661.89	1816.55
662.08	1699.81
662.26	1726.44
662.45	1716.20
662.64	1800.16
662.83	1708.01
663.01	1660.90
663.20	1665.00
663.39	1771.49
663.58	1697.77
663.76	1746.92
663.95	1777.64
664.14	1681.38
664.32	1656.81
664.51	1730.53
664.70	1642.47
664.89	1683.43
665.07	1718.25
665.26	1777.64
665.45	1570.79
665.64	1824.74
665.82	1757.16
666.01	1812.45
666.20	1791.97
666.38	1820.64
666.57	1920.99
666.76	2271.20
666.95	4577.21
667.13	11607.89
667.32	18585.32
667.51	22220.46
667.69	25261.69
667.88	25325.18
668.07	19750.61
668.25	14243.62
668.44	11890.51
668.63	9793.39
668.81	8521.60
669.00	7712.65
669.19	7141.27
669.38	6211.49
669.56	5441.45
669.75	4573.11
669.94	3790.79
670.12	3135.44
670.31	2643.93
670.50	2316.25
670.68	2150.37
670.87	1953.76
671.06	1906.66
671.24	1832.93
671.43	1888.23
671.62	1882.08
671.80	1761.25
671.99	1820.64
672.18	1669.09
672.36	1818.60
672.55	1757.16
672.74	1746.92
672.92	1701.86
673.11	1796.07
673.29	1669.09
673.48	1810.40
673.67	1697.77
673.85	1800.16
674.04	1662.95
674.23	1751.01
674.41	1853.41
674.60	1712.10
674.79	1689.57
674.97	1724.39
675.16	1740.77
675.34	1796.07
675.53	1732.58
675.72	1771.49
675.90	1828.84
676.09	1748.97
676.28	1689.57
676.46	1673.19
676.65	1751.01
676.83	1718.25
677.02	1738.73
677.21	1718.25
677.39	1767.40
677.58	1742.82
677.77	1738.73
677.95	1581.03
678.14	1755.11
678.32	1714.15
678.51	1693.67
678.70	1822.69
678.88	1677.29
679.07	1675.24
679.25	1787.88
679.44	1810.40
679.63	1695.72
679.81	1705.96
680.00	1794.02
680.18	1771.49
680.37	1824.74
680.55	1687.53
680.74	1599.46
680.93	1701.86
681.11	1718.25
681.30	1724.39
681.48	1677.29
681.67	1714.15
681.85	1791.97
682.04	1755.11
682.23	1771.49
682.41	1675.24
682.60	1648.61
682.78	1658.85
682.97	1718.25
683.15	1746.92
683.34	1771.49
683.53	1769.44
683.71	1642.47
683.90	1898.47
684.08	1826.79
684.27	1748.97
684.45	1669.09
684.64	1814.50
684.82	1748.97
685.01	1757.16
685.19	1667.05
685.38	1800.16
685.57	1714.15
685.75	1667.05
685.94	1689.57
686.12	1730.53
686.31	1687.53
686.49	1761.25
686.68	1570.79
686.86	1699.81
687.05	1736.68
687.23	1824.74
687.42	1705.96
687.60	1673.19
687.79	1761.25
687.97	1798.12
688.16	1773.54
688.34	1828.84
688.53	1638.38
688.71	1736.68
688.90	1783.78
689.08	1689.57
689.27	1615.85
689.45	1712.10
689.64	1757.16
689.82	1845.22
690.01	1787.88
690.19	1724.39
690.38	1687.53
690.56	1816.55
690.75	1642.47
690.93	1718.25
691.12	1679.33
691.30	1732.58
691.49	1660.90
691.67	1710.05
691.86	1789.92
692.04	1685.48
692.23	1724.39
692.41	1728.49
692.60	1890.28
692.78	1871.84
692.97	1863.65
693.15	1839.08
693.34	1791.97
693.52	1810.40
693.71	1759.21
693.89	1695.72
694.08	1693.67
694.26	1763.30
694.44	1769.44
694.63	1794.02
694.81	1642.47
695.00	1632.23
695.18	1767.40
695.37	1861.60
695.55	1689.57
695.74	1763.30
695.92	1597.42
696.10	1759.21
696.29	1673.19
696.47	1673.19
696.66	1658.85
696.84	1701.86
697.03	1751.01
697.21	1841.12
697.40	2322.40
697.58	1765.35
697.76	1759.21
697.95	1665.00
698.13	1658.85
698.32	1775.59
698.50	1742.82
698.68	1697.77
698.87	1763.30
699.05	1808.36
699.24	1677.29
699.42	1662.95
699.61	1775.59
699.79	1732.58
699.97	1744.87
700.16	1646.57
700.34	1667.05
700.53	1781.73
700.71	1839.08
700.89	1765.35
701.08	1677.29
701.26	1818.60
701.45	2168.80
701.63	1681.38
701.81	1669.09
702.00	1673.19
702.18	1689.57
702.37	1685.48
702.55	1843.17
702.73	1941.47
702.92	1896.42
703.10	2000.87
703.28	1927.14
703.47	1798.12
703.65	1890.28
703.84	1877.99
704.02	1847.27
704.20	1828.84
704.39	1697.77
704.57	1796.07
704.75	1816.55
704.94	1783.78
705.12	1767.40
705.30	1900.52
705.49	2463.71
705.67	5486.51
705.86	13121.34
706.04	19533.53
706.22	22879.91
706.41	25136.77
706.59	25058.95
706.77	19390.17
706.96	13807.41
707.14	12052.30
707.32	10332.00
707.51	9015.16
707.69	7933.83
707.87	6872.98
708.06	5453.74
708.24	4425.66
708.42	3352.52
708.61	2762.71
708.79	2209.76
708.97	2115.55
709.16	1990.63
709.34	1886.18
709.52	1755.11
709.71	1794.02
709.89	1767.40
710.07	1751.01
710.26	1732.58
710.44	1619.94
710.62	1802.21
710.80	1689.57
710.99	1759.21
711.17	1712.10
711.35	1662.95
711.54	1640.42
711.72	1791.97
711.90	1791.97
712.09	1740.77
712.27	1714.15
712.45	1716.20
712.63	1722.34
712.82	1681.38
713.00	1742.82
713.18	1759.21
713.37	1763.30
713.55	1681.38
713.73	1802.21
713.91	1826.79
714.10	1691.62
714.28	1738.73
714.46	1777.64
714.65	1683.43
714.83	1728.49
715.01	1630.18
715.19	1714.15
715.38	1636.33
715.56	1748.97
715.74	1644.52
715.92	1699.81
716.11	1746.92
716.29	1685.48
716.47	1722.34
716.65	1691.62
716.84	1708.01
717.02	1755.11
717.20	1658.85
717.38	1687.53
717.57	1789.92
717.75	1736.68
717.93	1730.53
718.11	1730.53
718.30	1667.05
718.48	1726.44
718.66	1783.78
718.84	1753.06
719.03	1718.25
719.21	1619.94
719.39	1789.92
719.57	1822.69
719.75	1794.02
719.94	1624.04
720.12	1640.42
720.30	1634.28
720.48	1679.33
720.67	1699.81
720.85	1722.34
721.03	1650.66
721.21	1748.97
721.39	1787.88
721.58	1732.58
721.76	1744.87
721.94	1644.52
722.12	1679.33
722.30	1734.63
722.49	1628.14
722.67	1660.90
722.85	1689.57
723.03	1585.13
723.21	1609.70
723.40	1802.21
723.58	1777.64
723.76	1773.54
723.94	1845.22
724.12	1796.07
724.30	1855.46
724.49	1894.37
724.67	1734.63
724.85	1820.64
725.03	1755.11
725.21	1794.02
725.40	1837.03
725.58	1744.87
725.76	1812.45
725.94	1734.63
726.12	1609.70
726.30	1687.53
726.49	1742.82
726.67	1677.29
726.85	1796.07
727.03	1804.26
727.21	2232.29
727.39	3461.07
727.57	4988.85
727.76	5490.60
727.94	6281.12
728.12	6223.78
728.30	5640.11
728.48	4536.25
728.66	4032.45
728.84	3514.31
729.03	3151.82
729.21	2799.57
729.39	2396.12
729.57	2052.06
729.75	1966.05
729.93	1957.86
730.11	1759.21
730.30	1775.59
730.48	1722.34
730.66	1931.23
730.84	1763.30
731.02	1683.43
731.20	1751.01
731.38	1802.21
731.56	1675.24
731.74	1724.39
731.93	1665.00
732.11	1785.83
732.29	1761.25
732.47	1830.88
732.65	1740.77
732.83	1779.68
733.01	1632.23
733.19	1679.33
733.37	1802.21
733.56	1722.34
733.74	1779.68
733.92	1789.92
734.10	1720.29
734.28	1728.49
734.46	1607.66
734.64	1691.62
734.82	1708.01
735.00	1665.00
735.18	1699.81
735.36	1718.25
735.54	1615.85
735.73	1693.67
735.91	1771.49
736.09	1705.96
736.27	1771.49
736.45	1708.01
736.63	1609.70
736.81	1724.39
736.99	1701.86
737.17	1804.26
737.35	1726.44
737.53	1705.96
737.71	1673.19
737.89	1714.15
738.07	1650.66
738.25	1632.23
738.43	1599.46
738.61	1665.00
738.80	1632.23
738.98	1656.81
739.16	1675.24
739.34	1599.46
739.52	1787.88
739.70	1726.44
739.88	1718.25
740.06	1732.58
740.24	1566.70
740.42	1771.49
740.60	1591.27
740.78	1757.16
740.96	1601.51
741.14	1726.44
741.32	1771.49
741.50	1683.43
741.68	1812.45
741.86	1779.68
742.04	1693.67
742.22	1650.66
742.40	1675.24
742.58	1732.58
742.76	1699.81
742.94	1810.40
743.12	1656.81
743.30	1697.77
743.48	1765.35
743.66	1681.38
743.84	1697.77
744.02	1693.67
744.20	1755.11
744.38	1683.43
744.56	1712.10
744.74	1882.08
744.92	1796.07
745.10	1789.92
745.28	1712.10
745.46	1839.08
745.64	1681.38
745.82	1714.15
746.00	1798.12
746.18	1789.92
746.36	1742.82
746.54	1693.67
746.72	1626.09
746.90	1759.21
747.08	1777.64
747.26	1671.14
747.44	1703.91
747.62	1728.49
747.80	1791.97
747.98	1804.26
748.15	1613.80
748.33	1773.54
748.51	1773.54
748.69	1726.44
748.87	1726.44
749.05	1726.44
749.23	1787.88
749.41	1728.49
749.59	1708.01
749.77	1697.77
749.95	1691.62
750.13	1665.00
750.31	1736.68
750.49	1703.91
750.67	1783.78
750.85	1812.45
751.03	1710.05
751.20	1820.64
751.38	1705.96
751.56	1681.38
751.74	1642.47
751.92	1652.71
752.10	1652.71
752.28	1798.12
752.46	1726.44
752.64	1720.29
752.82	1693.67
753.00	1796.07
753.18	1658.85
753.35	1646.57
753.53	1685.48
753.71	1656.81
753.89	1732.58
754.07	1697.77
754.25	1742.82
754.43	1775.59
754.61	1656.81
754.79	1746.92
754.97	1697.77
755.14	1767.40
755.32	1660.90
755.50	1660.90
755.68	1675.24
755.86	1708.01
756.04	1677.29
756.22	1576.94
756.40	1759.21
756.57	1816.55
756.75	1697.77
756.93	1834.98
757.11	1740.77
757.29	1652.71
757.47	1740.77
757.65	1660.90
757.82	1646.57
758.00	1615.85
758.18	1742.82
758.36	1673.19
758.54	1857.51
758.72	1597.42
758.90	1755.11
759.07	1796.07
759.25	1679.33
759.43	1812.45
759.61	1642.47
759.79	2254.81
759.97	1705.96
760.15	1712.10
760.32	1675.24
760.50	1736.68
760.68	1779.68
760.86	1675.24
761.04	1710.05
761.22	1742.82
761.39	1689.57
761.57	1738.73
761.75	1636.33
761.93	1693.67
762.11	1701.86
762.28	1734.63
762.46	1619.94
762.64	1857.51
762.82	1607.66
763.00	1761.25
763.18	1740.77
763.35	1648.61
763.53	1796.07
763.71	1630.18
763.89	1738.73
764.07	1763.30
764.24	1779.68
764.42	1761.25
764.60	1726.44
764.78	1687.53
764.96	1775.59
765.13	1775.59
765.31	1722.34
765.49	1808.36
765.67	1665.00
765.84	1650.66
766.02	1705.96
766.20	1585.13
766.38	1720.29
766.56	1720.29
766.73	1806.31
766.91	1689.57
767.09	1730.53
767.27	1697.77
767.44	1603.56
767.62	1787.88
767.80	1708.01
767.98	1634.28
768.15	1685.48
768.33	1755.11
768.51	1771.49
768.69	1705.96
768.87	1705.96
769.04	1783.78
769.22	1929.19
769.40	1728.49
769.58	1857.51
769.75	1705.96
769.93	1681.38
770.11	1691.62
770.28	1744.87
770.46	1812.45
770.64	1691.62
770.82	1665.00
770.99	1677.29
771.17	1746.92
771.35	1718.25
771.53	1734.63
771.70	1685.48
771.88	1722.34
772.06	1685.48
772.23	1759.21
772.41	1718.25
772.59	1726.44
772.77	1667.05
772.94	1708.01
773.12	1722.34
773.30	1640.42
773.47	1746.92
773.65	1669.09
773.83	1761.25
774.01	1654.76
774.18	1632.23
774.36	1642.47
774.54	1632.23
774.71	1726.44
774.89	1597.42
775.07	1646.57
775.24	1648.61
775.42	1626.09
775.60	1869.80
775.78	1685.48
775.95	1656.81
776.13	1671.14
776.31	1560.55
776.48	1685.48
776.66	1744.87
776.84	1632.23
777.01	1650.66
777.19	1679.33
777.37	1675.24
777.54	1742.82
777.72	1771.49
777.90	1718.25
778.07	1730.53
778.25	1863.65
778.43	1796.07
778.60	1738.73
778.78	1779.68
778.96	1771.49
779.13	1699.81
779.31	1798.12
779.49	1685.48
779.66	1720.29
779.84	1751.01
780.01	1746.92
780.19	1687.53
780.37	1789.92
780.54	1732.58
780.72	1660.90
780.90	1697.77
781.07	1730.53
781.25	1626.09
781.43	1777.64
781.60	1638.38
781.78	1785.83
781.95	1640.42
782.13	1705.96
782.31	1718.25
782.48	1632.23
782.66	1683.43
782.83	1830.88
783.01	1724.39
783.19	1697.77
783.36	1665.00
783.54	1683.43
783.72	1828.84
783.89	1642.47
784.07	1665.00
784.24	1738.73
784.42	1761.25
784.60	1699.81
784.77	1746.92
784.95	1638.38
785.12	1652.71
785.30	1716.20
785.47	1685.48
785.65	1683.43
785.83	1628.14
786.00	1697.77
786.18	1685.48
786.35	1665.00
786.53	1677.29
786.71	1783.78
786.88	1751.01
787.06	1734.63
787.23	1748.97
787.41	1683.43
787.58	1724.39
787.76	1683.43
787.94	1697.77
788.11	1732.58
788.29	1638.38
788.46	1632.23
788.64	1693.67
788.81	1603.56
788.99	1679.33
789.16	1693.67
789.34	1648.61
789.52	1734.63
789.69	1691.62
789.87	1589.22
790.04	1691.62
790.22	1679.33
790.39	1808.36
790.57	1724.39
790.74	1718.25
790.92	1691.62
791.09	1581.03
791.27	1781.73
791.44	1787.88
791.62	1648.61
791.79	1841.12
791.97	1656.81
792.15	1904.61
792.32	1728.49
792.50	1769.44
792.67	1798.12
792.85	1798.12
793.02	1738.73
793.20	1781.73
793.37	1638.38
793.55	1708.01
793.72	1673.19
793.90	1832.93
794.07	1628.14
794.25	1691.62
794.42	1794.02
794.60	1669.09
794.77	1687.53
794.95	1734.63
795.12	1751.01
795.30	1677.29
795.47	1648.61
795.65	1830.88
795.82	1693.67
796.00	1677.29
796.17	1673.19
796.34	1685.48
796.52	1689.57
796.69	1765.35
796.87	1791.97
797.04	1705.96
797.22	1738.73
797.39	1665.00
797.57	1763.30
797.74	1732.58
797.92	1701.86
798.09	1658.85
798.27	1683.43
798.44	1716.20
798.62	1695.72
798.79	1714.15
798.96	1708.01
799.14	1775.59
799.31	1830.88
799.49	1656.81
799.66	1677.29
799.84	1718.25
800.01	1656.81
800.19	1767.40
800.36	1642.47
800.53	1730.53
800.71	1716.20
800.88	1705.96
801.06	1628.14
801.23	1705.96
801.41	1693.67
801.58	1681.38
801.75	1671.14
801.93	1763.30
802.10	1746.92
802.28	1724.39
802.45	1755.11
802.63	1699.81
802.80	1746.92
802.97	1734.63
803.15	1650.66
803.32	1753.06
803.50	1619.94
803.67	1648.61
803.84	1568.74
804.02	1712.10
804.19	1671.14
804.37	1554.41
804.54	1683.43
804.71	1710.05
804.89	1732.58
805.06	1669.09
805.24	1646.57
805.41	1681.38
805.58	1650.66
805.76	1798.12
805.93	1806.31
806.10	1751.01
806.28	1742.82
806.45	1679.33
806.63	1759.21
806.80	1728.49
806.97	1681.38
807.15	1734.63
807.32	1767.40
807.49	1681.38
807.67	1677.29
807.84	1751.01
808.01	1669.09
808.19	1820.64
808.36	1847.27
808.54	1671.14
808.71	1617.90
808.88	1748.97
809.06	1765.35
809.23	1763.30
809.40	1724.39
809.58	1773.54
809.75	1759.21
809.92	1660.90
810.10	1783.78
810.27	1716.20
810.44	1746.92
810.62	1816.55
810.79	1691.62
810.96	1646.57
811.14	1665.00
811.31	1746.92
811.48	1763.30
811.66	1728.49
811.83	1818.60
812.00	1681.38
812.18	1742.82
812.35	1798.12
812.52	1751.01
812.69	1587.18
812.87	1726.44
813.04	1615.85
813.21	1628.14
813.39	1691.62
813.56	1646.57
813.73	1824.74
813.91	1640.42
814.08	1759.21
814.25	1667.05
814.42	1665.00
814.60	1699.81
814.77	1755.11
814.94	1724.39
815.12	1802.21
815.29	1703.91
815.46	1611.75
815.63	1775.59
815.81	1767.40
815.98	1695.72
816.15	1693.67
816.33	1714.15
816.50	1703.91
816.67	1769.44
816.84	1708.01
817.02	1617.90
817.19	1703.91
817.36	1697.77
817.53	1794.02
817.71	1740.77
817.88	1701.86
818.05	1708.01
818.22	1691.62
818.40	1773.54
818.57	1759.21
818.74	1781.73
818.91	1669.09
819.09	1773.54
819.26	1748.97
819.43	1574.89
819.60	1708.01
819.78	1748.97
819.95	1787.88
820.12	1632.23
820.29	1820.64
820.47	1808.36
820.64	1699.81
820.81	1640.42
820.98	1644.52
821.15	1660.90
821.33	1796.07
821.50	1630.18
821.67	1738.73
821.84	1642.47
822.02	1734.63
822.19	1763.30
822.36	1621.99
822.53	1724.39
822.70	1619.94
822.88	1697.77
823.05	1761.25
823.22	1714.15
823.39	1691.62
823.56	1736.68
823.74	1779.68
823.91	1705.96
824.08	1691.62
824.25	1560.55
824.42	1855.46
824.60	1583.08
824.77	1832.93
824.94	1638.38
825.11	1714.15
825.28	1652.71
825.45	1730.53
825.63	1763.30
825.80	1613.80
825.97	1665.00
826.14	1738.73
826.31	1718.25
826.48	1757.16
826.66	1615.85
826.83	1669.09
827.00	1720.29
827.17	1689.57
827.34	1744.87
827.51	1685.48
827.69	1703.91
827.86	1662.95
828.03	1751.01
828.20	1683.43
828.37	1611.75
828.54	1783.78
828.71	1583.08
828.89	1814.50
829.06	1705.96
829.23	1814.50
829.40	1708.01
829.57	1669.09
829.74	1785.83
829.91	1689.57
830.09	1630.18
830.26	1724.39
830.43	1781.73
830.60	1658.85
830.77	1755.11
830.94	1777.64
831.11	1771.49
831.28	1632.23
831.46	1675.24
831.63	1634.28
831.80	1738.73
831.97	1695.72
832.14	1742.82
832.31	1679.33
832.48	1660.90
832.65	1728.49
832.82	1693.67
832.99	1716.20
833.17	1646.57
833.34	1724.39
833.51	1714.15
833.68	1624.04
833.85	1724.39
834.02	1636.33
834.19	1636.33
834.36	1681.38
834.53	1740.77
834.70	1804.26
834.87	1734.63
835.04	1673.19
835.22	1695.72
835.39	1703.91
835.56	1677.29
835.73	1611.75
835.90	1705.96
836.07	1654.76
836.24	1865.70
836.41	1624.04
836.58	1693.67
836.75	1714.15
836.92	1708.01
837.09	1677.29
837.26	1761.25
837.43	1767.40
837.60	1763.30
837.77	1726.44
837.94	1740.77
838.12	1763.30
838.29	1765.35
838.46	1673.19
838.63	1601.51
838.80	1853.41
838.97	1724.39
839.14	1701.86
839.31	1724.39
839.48	1746.92
839.65	1714.15
839.82	1687.53
839.99	1748.97
840.16	1730.53
840.33	1585.13
840.50	1695.72
840.67	1691.62
840.84	1605.61
841.01	1648.61
841.18	1624.04
841.35	1681.38
841.52	1759.21
841.69	1832.93
841.86	1716.20
842.03	1716.20
842.20	1841.12
842.37	1667.05
842.54	1705.96
842.71	1667.05
842.88	1607.66
843.05	1665.00
843.22	1701.86
843.39	1734.63
843.56	1705.96
843.73	1716.20
843.90	1738.73
844.07	1634.28
844.24	1744.87
844.41	1761.25
844.58	1730.53
844.75	1697.77
844.92	1714.15
845.09	1714.15
845.26	1732.58
845.43	1714.15
845.60	1671.14
845.77	1753.06
845.94	1720.29
846.10	1740.77
846.27	1708.01
846.44	1652.71
846.61	1673.19
846.78	1693.67
846.95	1757.16
847.12	1667.05
847.29	1675.24
847.46	1671.14
847.63	1656.81
847.80	1583.08
847.97	1728.49
848.14	1800.16
848.31	1658.85
848.48	1648.61
848.65	1677.29
848.82	1669.09
848.98	1814.50
849.15	1724.39
849.32	1738.73
849.49	1761.25
849.66	1701.86
849.83	1765.35
850.00	1673.19
850.17	1771.49
850.34	1697.77
850.51	1716.20
850.68	1722.34
850.85	1839.08
851.01	1732.58
851.18	1677.29
851.35	1693.67
851.52	1617.90
851.69	1798.12
851.86	1662.95
852.03	1665.00
852.20	1820.64
852.37	1708.01
852.53	1517.54
852.70	1624.04
852.87	1708.01
853.04	1771.49
853.21	1677.29
853.38	1781.73
853.55	1753.06
853.72	1679.33
853.89	1642.47
854.05	1669.09
854.22	1665.00
854.39	1683.43
854.56	1748.97
854.73	1798.12
854.90	1570.79
855.07	1740.77
855.23	1714.15
855.40	1673.19
855.57	1615.85
855.74	1609.70
855.91	1916.90
856.08	1632.23
856.25	1714.15
856.41	1578.98
856.58	1681.38
856.75	1693.67
856.92	1669.09
857.09	1763.30
857.26	1611.75
857.42	1699.81
857.59	1644.52
857.76	1689.57
857.93	1628.14
858.10	1767.40
858.27	1685.48
858.43	1662.95
858.60	1769.44
858.77	1669.09
858.94	1660.90
859.11	1781.73
859.27	1621.99
859.44	1689.57
859.61	1849.32
859.78	1708.01
859.95	1728.49
860.12	1701.86
860.28	1857.51
860.45	1775.59
860.62	1644.52
860.79	1767.40
860.95	1665.00
861.12	1632.23
861.29	1652.71
861.46	1681.38
861.63	1718.25
861.79	1738.73
861.96	1669.09
862.13	1660.90
862.30	1810.40
862.47	1738.73
862.63	1734.63
862.80	1691.62
862.97	1771.49
863.14	1677.29
863.30	1660.90
863.47	1656.81
863.64	1779.68
863.81	1718.25
863.97	1671.14
864.14	1755.11
864.31	1681.38
864.48	1865.70
864.65	1630.18
864.81	1720.29
864.98	1710.05
865.15	1757.16
865.32	1759.21
865.48	1714.15
865.65	1773.54
865.82	1613.80
865.98	1728.49
866.15	1796.07
866.32	1744.87
866.49	1626.09
866.65	1726.44
866.82	1619.94
866.99	1773.54
867.16	1665.00
867.32	1681.38
867.49	1595.37
867.66	1714.15
867.83	1683.43
867.99	1660.90
868.16	1730.53
868.33	1619.94
868.49	1728.49
868.66	1710.05
868.83	1720.29
868.99	1708.01
869.16	1755.11
869.33	1783.78
869.50	1697.77
869.66	1685.48
869.83	1681.38
870.00	1599.46
870.16	1777.64
870.33	1714.15
870.50	1763.30
870.66	1681.38
870.83	1824.74
871.00	1722.34
871.17	1734.63
871.33	1624.04
871.50	1699.81
871.67	1718.25
871.83	1574.89
872.00	1740.77
872.17	1710.05
872.33	1837.03
872.50	1755.11
872.67	1716.20
872.83	1697.77
873.00	1775.59
873.17	1732.58
873.33	1814.50
873.50	1753.06
873.67	1703.91
873.83	1687.53
874.00	1607.66
874.16	1744.87
874.33	1693.67
874.50	1689.57
874.66	1787.88
874.83	1665.00
875.00	1763.30
875.16	1748.97
875.33	1794.02
875.50	1681.38
875.66	1689.57
875.83	1695.72
875.99	1781.73
876.16	1675.24
876.33	1613.80
876.49	1697.77
876.66	1716.20
876.83	1718.25
876.99	1677.29
877.16	1697.77
877.32	1693.67
877.49	1730.53
877.66	1654.76
877.82	1748.97
877.99	1734.63
878.15	1755.11
878.32	1732.58
878.49	1724.39
878.65	1636.33
878.82	1822.69
878.98	1712.10
879.15	1724.39
879.32	1746.92
879.48	1710.05
879.65	1644.52
879.81	1705.96
879.98	1681.38
880.15	1644.52
880.31	1804.26
880.48	1665.00
880.64	1804.26
880.81	1685.48
880.97	1863.65
881.14	1716.20
881.31	1679.33
881.47	1822.69
881.64	1710.05
881.80	1589.22
881.97	1671.14
882.13	1742.82
882.30	1689.57
882.47	1636.33
882.63	1572.84
882.80	1652.71
882.96	1732.58
883.13	1816.55
883.29	1742.82
883.46	1746.92
883.62	1806.31
883.79	1656.81
883.95	1837.03
884.12	1689.57
884.29	1781.73
884.45	1638.38
884.62	1734.63
884.78	1685.48
884.95	1802.21
885.11	1603.56
885.28	1738.73
885.44	1681.38
885.61	1683.43
885.77	1732.58
885.94	1759.21
886.10	1699.81
886.27	1744.87
886.43	1800.16
886.60	1722.34
886.76	1665.00
886.93	1652.71
887.09	1665.00
887.26	1609.70
887.42	1689.57
887.59	1757.16
887.75	1837.03
887.92	1804.26
888.08	1757.16
888.25	1757.16
888.41	1730.53
888.58	1677.29
888.74	1667.05
888.91	1693.67
>>>>>End Processed Spectral Data<<<<<
