SpectraSuite Data File
++++++++++++++++++++++++++++++++++++
Date: Wed May 04 18:44:02 CEST 2016
User: root
Dark Spectrum Present: No
Reference Spectrum Present: No
Number of Sampled Component Spectra: 1
Spectrometers: USB4C02835
Integration Time (usec): 100000 (USB4C02835)
Spectra Averaged: 1 (USB4C02835)
Boxcar Smoothing: 0 (USB4C02835)
Correct for Electrical Dark: No (USB4C02835)
Strobe/Lamp Enabled: No (USB4C02835)
Correct for Detector Non-linearity: No (USB4C02835)
Correct for Stray Light: No (USB4C02835)
Number of Pixels in Processed Spectrum: 3648
>>>>>Begin Processed Spectral Data<<<<<
177.47	1478.63
177.69	1478.63
177.91	1478.63
178.13	1443.82
178.36	1452.01
178.58	1679.33
178.80	1798.12
179.02	1687.53
179.24	1687.53
179.46	1691.62
179.68	1802.21
179.90	1710.05
180.13	1732.58
180.35	1693.67
180.57	1714.15
180.79	1748.97
181.01	1726.44
181.23	1830.88
181.45	1787.88
181.67	1751.01
181.90	1746.92
182.12	1683.43
182.34	1689.57
182.56	1685.48
182.78	1736.68
183.00	1646.57
183.22	1667.05
183.44	1638.38
183.66	1822.69
183.89	1757.16
184.11	1742.82
184.33	1751.01
184.55	1748.97
184.77	1742.82
184.99	1638.38
185.21	1779.68
185.43	1808.36
185.65	1656.81
185.87	1720.29
186.10	1751.01
186.32	1857.51
186.54	1695.72
186.76	1730.53
186.98	1744.87
187.20	1740.77
187.42	1665.00
187.64	1730.53
187.86	1718.25
188.08	1757.16
188.30	1642.47
188.52	1642.47
188.75	1742.82
188.97	1787.88
189.19	1679.33
189.41	1757.16
189.63	1705.96
189.85	1667.05
190.07	1636.33
190.29	1607.66
190.51	1730.53
190.73	1640.42
190.95	1789.92
191.17	1673.19
191.39	1578.98
191.61	1673.19
191.84	1644.52
192.06	1701.86
192.28	1636.33
192.50	1902.56
192.72	1671.14
192.94	1730.53
193.16	1736.68
193.38	1757.16
193.60	1636.33
193.82	1665.00
194.04	1683.43
194.26	1726.44
194.48	1701.86
194.70	1693.67
194.92	1708.01
195.14	1734.63
195.36	1619.94
195.58	1753.06
195.80	1755.11
196.02	1656.81
196.24	1677.29
196.46	1681.38
196.69	1624.04
196.91	1759.21
197.13	1716.20
197.35	1697.77
197.57	1773.54
197.79	1761.25
198.01	1665.00
198.23	1748.97
198.45	1691.62
198.67	1650.66
198.89	1648.61
199.11	1718.25
199.33	1632.23
199.55	1638.38
199.77	1652.71
199.99	1861.60
200.21	1691.62
200.43	1781.73
200.65	1722.34
200.87	1619.94
201.09	1675.24
201.31	1619.94
201.53	1771.49
201.75	1665.00
201.97	1716.20
202.19	1722.34
202.41	1683.43
202.63	1853.41
202.85	1744.87
203.07	1697.77
203.29	1734.63
203.51	1673.19
203.73	1601.51
203.95	1847.27
204.17	1736.68
204.39	1728.49
204.61	1669.09
204.83	1718.25
205.05	1714.15
205.27	1724.39
205.49	1789.92
205.71	1673.19
205.93	1628.14
206.15	1648.61
206.37	1703.91
206.59	1642.47
206.81	1609.70
207.03	1538.02
207.25	1677.29
207.47	1777.64
207.69	1728.49
207.91	1847.27
208.13	1820.64
208.34	1642.47
208.56	1697.77
208.78	1775.59
209.00	1718.25
209.22	1636.33
209.44	1701.86
209.66	1738.73
209.88	1646.57
210.10	1724.39
210.32	1679.33
210.54	1728.49
210.76	1783.78
210.98	1773.54
211.20	1550.31
211.42	1744.87
211.64	1708.01
211.86	1761.25
212.08	1748.97
212.30	1689.57
212.52	1621.99
212.74	1730.53
212.96	1714.15
213.17	1800.16
213.39	1728.49
213.61	1820.64
213.83	1806.31
214.05	1736.68
214.27	1800.16
214.49	1722.34
214.71	1714.15
214.93	1783.78
215.15	1654.76
215.37	1662.95
215.59	1650.66
215.81	1669.09
216.03	1722.34
216.24	1697.77
216.46	1701.86
216.68	1759.21
216.90	1675.24
217.12	1759.21
217.34	1755.11
217.56	1765.35
217.78	1740.77
218.00	1730.53
218.22	1736.68
218.44	1677.29
218.66	1718.25
218.87	1845.22
219.09	1699.81
219.31	1701.86
219.53	1742.82
219.75	1753.06
219.97	1798.12
220.19	1732.58
220.41	1785.83
220.63	1755.11
220.85	1699.81
221.06	1691.62
221.28	1757.16
221.50	1767.40
221.72	1736.68
221.94	1771.49
222.16	1705.96
222.38	1724.39
222.60	1726.44
222.82	1685.48
223.03	1787.88
223.25	1632.23
223.47	1744.87
223.69	1728.49
223.91	1800.16
224.13	1710.05
224.35	1673.19
224.57	1826.79
224.78	1734.63
225.00	1665.00
225.22	1718.25
225.44	1687.53
225.66	1820.64
225.88	1726.44
226.10	1687.53
226.32	1716.20
226.53	1791.97
226.75	1654.76
226.97	1703.91
227.19	1753.06
227.41	1675.24
227.63	1695.72
227.85	1601.51
228.06	1740.77
228.28	1718.25
228.50	1732.58
228.72	1673.19
228.94	1705.96
229.16	1669.09
229.37	1689.57
229.59	1630.18
229.81	1705.96
230.03	1730.53
230.25	1611.75
230.47	1603.56
230.69	1587.18
230.90	1820.64
231.12	1640.42
231.34	1767.40
231.56	1757.16
231.78	1626.09
232.00	1677.29
232.21	1687.53
232.43	1675.24
232.65	1685.48
232.87	1775.59
233.09	1595.37
233.30	1708.01
233.52	1763.30
233.74	1628.14
233.96	1665.00
234.18	1740.77
234.40	1648.61
234.61	1808.36
234.83	1595.37
235.05	1630.18
235.27	1818.60
235.49	1775.59
235.70	1720.29
235.92	1740.77
236.14	1732.58
236.36	1796.07
236.58	1624.04
236.79	1718.25
237.01	1701.86
237.23	1697.77
237.45	1779.68
237.67	1609.70
237.88	1697.77
238.10	1826.79
238.32	1638.38
238.54	1722.34
238.76	1734.63
238.97	1685.48
239.19	1638.38
239.41	1728.49
239.63	1736.68
239.85	1576.94
240.06	1693.67
240.28	1718.25
240.50	1769.44
240.72	1796.07
240.93	1712.10
241.15	1718.25
241.37	1738.73
241.59	1763.30
241.81	1636.33
242.02	1673.19
242.24	1697.77
242.46	1775.59
242.68	1708.01
242.89	1691.62
243.11	1738.73
243.33	1730.53
243.55	1665.00
243.76	1703.91
243.98	1685.48
244.20	1716.20
244.42	1751.01
244.64	1763.30
244.85	1642.47
245.07	1611.75
245.29	1726.44
245.51	1689.57
245.72	1703.91
245.94	1742.82
246.16	1710.05
246.38	1742.82
246.59	1736.68
246.81	1658.85
247.03	1673.19
247.24	1650.66
247.46	1685.48
247.68	1722.34
247.90	1748.97
248.11	1669.09
248.33	1783.78
248.55	1730.53
248.77	1740.77
248.98	1773.54
249.20	1796.07
249.42	1681.38
249.64	1669.09
249.85	1669.09
250.07	1667.05
250.29	1722.34
250.50	1785.83
250.72	1599.46
250.94	1802.21
251.16	1781.73
251.37	1757.16
251.59	1697.77
251.81	1683.43
252.02	1830.88
252.24	1673.19
252.46	1822.69
252.68	1681.38
252.89	1705.96
253.11	1665.00
253.33	1806.31
253.54	1849.32
253.76	1583.08
253.98	1683.43
254.20	1703.91
254.41	1613.80
254.63	1730.53
254.85	1595.37
255.06	1734.63
255.28	1742.82
255.50	1740.77
255.71	1652.71
255.93	1626.09
256.15	1701.86
256.36	1734.63
256.58	1574.89
256.80	1697.77
257.02	1691.62
257.23	1732.58
257.45	1673.19
257.67	1767.40
257.88	1595.37
258.10	1683.43
258.32	1675.24
258.53	1800.16
258.75	1759.21
258.97	1705.96
259.18	1701.86
259.40	1689.57
259.62	1744.87
259.83	1791.97
260.05	1794.02
260.27	2009.06
260.48	1724.39
260.70	1619.94
260.92	1736.68
261.13	1683.43
261.35	1703.91
261.57	1740.77
261.78	1568.74
262.00	1701.86
262.22	1759.21
262.43	1601.51
262.65	1652.71
262.86	1654.76
263.08	1873.89
263.30	1734.63
263.51	1714.15
263.73	1675.24
263.95	1738.73
264.16	1710.05
264.38	1636.33
264.60	1718.25
264.81	1699.81
265.03	1656.81
265.25	1691.62
265.46	1681.38
265.68	1738.73
265.89	1716.20
266.11	1648.61
266.33	1740.77
266.54	1751.01
266.76	1734.63
266.98	1726.44
267.19	1769.44
267.41	1789.92
267.62	1759.21
267.84	1665.00
268.06	1660.90
268.27	1726.44
268.49	1824.74
268.70	1671.14
268.92	1714.15
269.14	1650.66
269.35	1521.64
269.57	1652.71
269.79	1789.92
270.00	1644.52
270.22	1824.74
270.43	1597.42
270.65	1562.60
270.87	1701.86
271.08	1744.87
271.30	1761.25
271.51	1748.97
271.73	1781.73
271.95	1710.05
272.16	1806.31
272.38	1773.54
272.59	1689.57
272.81	1724.39
273.02	1693.67
273.24	1667.05
273.46	1677.29
273.67	1689.57
273.89	1744.87
274.10	1617.90
274.32	1808.36
274.54	1656.81
274.75	1755.11
274.97	1624.04
275.18	1701.86
275.40	1640.42
275.61	1726.44
275.83	1685.48
276.05	1619.94
276.26	1691.62
276.48	1787.88
276.69	1689.57
276.91	1716.20
277.12	1751.01
277.34	1783.78
277.55	1742.82
277.77	1734.63
277.99	1671.14
278.20	1617.90
278.42	1597.42
278.63	1619.94
278.85	1751.01
279.06	1607.66
279.28	1759.21
279.49	1763.30
279.71	1759.21
279.93	1658.85
280.14	1708.01
280.36	1701.86
280.57	1830.88
280.79	1734.63
281.00	1640.42
281.22	1701.86
281.43	1783.78
281.65	1550.31
281.86	1652.71
282.08	1744.87
282.29	1818.60
282.51	1648.61
282.73	1640.42
282.94	1581.03
283.16	1787.88
283.37	1824.74
283.59	1656.81
283.80	1701.86
284.02	1744.87
284.23	1751.01
284.45	1710.05
284.66	1699.81
284.88	1697.77
285.09	1755.11
285.31	1740.77
285.52	1751.01
285.74	1624.04
285.95	1746.92
286.17	1744.87
286.38	1847.27
286.60	1636.33
286.81	1658.85
287.03	1671.14
287.24	1695.72
287.46	1722.34
287.67	1708.01
287.89	1802.21
288.10	1695.72
288.32	1779.68
288.53	1734.63
288.75	1685.48
288.96	1759.21
289.18	1640.42
289.39	1656.81
289.61	1751.01
289.82	1779.68
290.04	1765.35
290.25	1595.37
290.47	1736.68
290.68	1728.49
290.90	1818.60
291.11	1619.94
291.33	1753.06
291.54	1695.72
291.76	1695.72
291.97	1791.97
292.18	1781.73
292.40	1644.52
292.61	1716.20
292.83	1810.40
293.04	1767.40
293.26	1769.44
293.47	1630.18
293.69	1626.09
293.90	1695.72
294.12	1751.01
294.33	1753.06
294.55	1740.77
294.76	1669.09
294.97	1677.29
295.19	1798.12
295.40	1716.20
295.62	1720.29
295.83	1757.16
296.05	1660.90
296.26	1724.39
296.48	1665.00
296.69	1720.29
296.90	1724.39
297.12	1773.54
297.33	1783.78
297.55	1703.91
297.76	1726.44
297.98	1794.02
298.19	1746.92
298.41	1685.48
298.62	1650.66
298.83	1769.44
299.05	1718.25
299.26	1693.67
299.48	1697.77
299.69	1726.44
299.90	1673.19
300.12	1642.47
300.33	1763.30
300.55	1781.73
300.76	1744.87
300.98	1609.70
301.19	1705.96
301.40	1691.62
301.62	1675.24
301.83	1730.53
302.05	1779.68
302.26	1667.05
302.47	1738.73
302.69	1699.81
302.90	1738.73
303.12	1589.22
303.33	1718.25
303.54	1744.87
303.76	1687.53
303.97	1759.21
304.19	1779.68
304.40	1671.14
304.61	1730.53
304.83	1828.84
305.04	1759.21
305.26	1777.64
305.47	1705.96
305.68	1667.05
305.90	1722.34
306.11	1865.70
306.33	1695.72
306.54	1660.90
306.75	1718.25
306.97	1662.95
307.18	1636.33
307.39	1734.63
307.61	1710.05
307.82	1710.05
308.04	1763.30
308.25	1644.52
308.46	1660.90
308.68	1679.33
308.89	1685.48
309.10	1834.98
309.32	1773.54
309.53	1746.92
309.74	1681.38
309.96	1665.00
310.17	1687.53
310.39	1742.82
310.60	1769.44
310.81	1732.58
311.03	1732.58
311.24	1796.07
311.45	1714.15
311.67	1757.16
311.88	1724.39
312.09	1736.68
312.31	1636.33
312.52	1712.10
312.73	1763.30
312.95	1624.04
313.16	1656.81
313.37	1826.79
313.59	1685.48
313.80	1744.87
314.01	1755.11
314.23	1697.77
314.44	1716.20
314.65	1675.24
314.87	1699.81
315.08	1746.92
315.29	1720.29
315.51	1646.57
315.72	1624.04
315.93	1882.08
316.15	1742.82
316.36	1730.53
316.57	1689.57
316.79	1759.21
317.00	1705.96
317.21	1734.63
317.43	1693.67
317.64	1789.92
317.85	1630.18
318.07	1673.19
318.28	1748.97
318.49	1824.74
318.70	2000.87
318.92	1882.08
319.13	1947.62
319.34	1892.32
319.56	1920.99
319.77	1892.32
319.98	1794.02
320.20	1890.28
320.41	1812.45
320.62	1769.44
320.83	1689.57
321.05	1886.18
321.26	1736.68
321.47	1783.78
321.69	1796.07
321.90	1656.81
322.11	1617.90
322.32	1732.58
322.54	1843.17
322.75	1726.44
322.96	1841.12
323.18	1642.47
323.39	1609.70
323.60	1701.86
323.81	1771.49
324.03	1556.46
324.24	1669.09
324.45	1681.38
324.66	1677.29
324.88	1710.05
325.09	1705.96
325.30	1738.73
325.52	1695.72
325.73	1732.58
325.94	1665.00
326.15	1650.66
326.37	1744.87
326.58	1773.54
326.79	1775.59
327.00	1689.57
327.22	1812.45
327.43	1656.81
327.64	1681.38
327.85	1675.24
328.07	1775.59
328.28	1843.17
328.49	1708.01
328.70	1673.19
328.92	1728.49
329.13	1650.66
329.34	1771.49
329.55	1798.12
329.76	1775.59
329.98	1710.05
330.19	1787.88
330.40	1740.77
330.61	1777.64
330.83	1724.39
331.04	1615.85
331.25	1705.96
331.46	1712.10
331.68	1699.81
331.89	1761.25
332.10	1669.09
332.31	1642.47
332.52	1660.90
332.74	1742.82
332.95	1632.23
333.16	1705.96
333.37	1742.82
333.58	1675.24
333.80	1691.62
334.01	1636.33
334.22	1714.15
334.43	1736.68
334.64	1765.35
334.86	1626.09
335.07	1681.38
335.28	1767.40
335.49	1683.43
335.70	1742.82
335.92	1771.49
336.13	1794.02
336.34	1732.58
336.55	1701.86
336.76	1753.06
336.98	1615.85
337.19	1695.72
337.40	1798.12
337.61	1902.56
337.82	1642.47
338.04	1773.54
338.25	1658.85
338.46	1683.43
338.67	1794.02
338.88	1681.38
339.09	1662.95
339.31	1734.63
339.52	1654.76
339.73	1644.52
339.94	1736.68
340.15	1765.35
340.36	1701.86
340.58	1724.39
340.79	1619.94
341.00	1777.64
341.21	1644.52
341.42	1712.10
341.63	1742.82
341.85	1673.19
342.06	1771.49
342.27	1697.77
342.48	1830.88
342.69	1665.00
342.90	1783.78
343.12	1667.05
343.33	1669.09
343.54	1693.67
343.75	1751.01
343.96	1730.53
344.17	1624.04
344.38	1716.20
344.60	1685.48
344.81	1701.86
345.02	1753.06
345.23	1708.01
345.44	1814.50
345.65	1773.54
345.86	1658.85
346.07	1673.19
346.29	1724.39
346.50	1763.30
346.71	1798.12
346.92	1724.39
347.13	1814.50
347.34	1681.38
347.55	1669.09
347.76	1800.16
347.98	1665.00
348.19	1699.81
348.40	1796.07
348.61	1703.91
348.82	1871.84
349.03	1720.29
349.24	1667.05
349.45	1849.32
349.66	1542.12
349.88	1757.16
350.09	1763.30
350.30	1746.92
350.51	1742.82
350.72	1722.34
350.93	1714.15
351.14	1759.21
351.35	1773.54
351.56	1701.86
351.77	1660.90
351.99	1785.83
352.20	1777.64
352.41	1826.79
352.62	1607.66
352.83	1726.44
353.04	1714.15
353.25	1714.15
353.46	1679.33
353.67	1738.73
353.88	1619.94
354.09	1771.49
354.30	1681.38
354.52	1740.77
354.73	1708.01
354.94	1628.14
355.15	1705.96
355.36	1779.68
355.57	1689.57
355.78	1734.63
355.99	1763.30
356.20	1662.95
356.41	1841.12
356.62	1710.05
356.83	1685.48
357.04	1761.25
357.25	1673.19
357.46	1660.90
357.68	1652.71
357.89	1646.57
358.10	1718.25
358.31	1738.73
358.52	1705.96
358.73	1669.09
358.94	1656.81
359.15	1755.11
359.36	1755.11
359.57	1689.57
359.78	1757.16
359.99	1714.15
360.20	1650.66
360.41	1697.77
360.62	1765.35
360.83	1722.34
361.04	1755.11
361.25	1701.86
361.46	1689.57
361.67	1708.01
361.88	1814.50
362.09	1800.16
362.30	1716.20
362.51	1673.19
362.72	1728.49
362.93	1722.34
363.14	1857.51
363.35	1722.34
363.56	1683.43
363.78	1699.81
363.99	1818.60
364.20	1667.05
364.41	1708.01
364.62	1771.49
364.83	1769.44
365.04	1685.48
365.25	1644.52
365.46	1746.92
365.67	1699.81
365.88	1730.53
366.09	1714.15
366.30	1779.68
366.51	1705.96
366.72	1613.80
366.93	1712.10
367.14	1703.91
367.35	1751.01
367.56	1787.88
367.77	1712.10
367.98	1701.86
368.18	1683.43
368.39	1767.40
368.60	1671.14
368.81	1767.40
369.02	1710.05
369.23	1759.21
369.44	1662.95
369.65	1689.57
369.86	1730.53
370.07	1669.09
370.28	1671.14
370.49	1734.63
370.70	1701.86
370.91	1652.71
371.12	1658.85
371.33	1744.87
371.54	1708.01
371.75	1763.30
371.96	1566.70
372.17	1701.86
372.38	1617.90
372.59	1693.67
372.80	1720.29
373.01	1738.73
373.22	1683.43
373.43	1677.29
373.64	1720.29
373.85	1765.35
374.06	1742.82
374.26	1693.67
374.47	1740.77
374.68	1669.09
374.89	1714.15
375.10	1748.97
375.31	1730.53
375.52	1755.11
375.73	1720.29
375.94	1617.90
376.15	1812.45
376.36	1767.40
376.57	1613.80
376.78	1705.96
376.99	1767.40
377.20	1779.68
377.40	1697.77
377.61	1869.80
377.82	1681.38
378.03	1775.59
378.24	1837.03
378.45	1738.73
378.66	1732.58
378.87	1517.54
379.08	1660.90
379.29	1667.05
379.50	1812.45
379.71	1738.73
379.91	1761.25
380.12	1695.72
380.33	1738.73
380.54	1761.25
380.75	1732.58
380.96	1730.53
381.17	1744.87
381.38	1787.88
381.59	1738.73
381.80	1751.01
382.00	1906.66
382.21	1759.21
382.42	1796.07
382.63	1918.95
382.84	1753.06
383.05	1736.68
383.26	1796.07
383.47	1726.44
383.68	1763.30
383.88	1771.49
384.09	1703.91
384.30	1791.97
384.51	1751.01
384.72	1638.38
384.93	1685.48
385.14	1751.01
385.35	1681.38
385.55	1658.85
385.76	1845.22
385.97	1714.15
386.18	1626.09
386.39	1681.38
386.60	1728.49
386.81	1693.67
387.02	1701.86
387.22	1716.20
387.43	1867.75
387.64	1761.25
387.85	1847.27
388.06	2201.57
388.27	4644.79
388.48	9203.57
388.68	11804.49
388.89	13342.52
389.10	14159.66
389.31	11886.41
389.52	9783.15
389.73	8574.85
389.93	7944.07
390.14	7270.29
390.35	6590.36
390.56	6070.18
390.77	4937.65
390.98	4067.27
391.18	3131.34
391.39	2332.64
391.60	1931.23
391.81	1892.32
392.02	1716.20
392.23	1810.40
392.43	1697.77
392.64	1787.88
392.85	1755.11
393.06	1775.59
393.27	1734.63
393.47	1652.71
393.68	1757.16
393.89	1720.29
394.10	1837.03
394.31	1675.24
394.52	1681.38
394.72	1671.14
394.93	1826.79
395.14	1710.05
395.35	1701.86
395.56	1714.15
395.76	1722.34
395.97	1841.12
396.18	1888.23
396.39	1859.56
396.60	2050.02
396.80	1900.52
397.01	1832.93
397.22	1837.03
397.43	1918.95
397.64	1708.01
397.84	1839.08
398.05	1865.70
398.26	1701.86
398.47	1806.31
398.67	1728.49
398.88	1689.57
399.09	1751.01
399.30	1683.43
399.51	1724.39
399.71	1689.57
399.92	1660.90
400.13	1773.54
400.34	1708.01
400.54	1728.49
400.75	1877.99
400.96	1761.25
401.17	1845.22
401.37	1720.29
401.58	1708.01
401.79	1669.09
402.00	1800.16
402.21	2086.88
402.41	2093.02
402.62	2209.76
402.83	2148.32
403.04	2150.37
403.24	2131.94
403.45	1859.56
403.66	1959.91
403.87	1912.80
404.07	1939.43
404.28	1937.38
404.49	2000.87
404.70	1812.45
404.90	1845.22
405.11	1757.16
405.32	1800.16
405.52	1748.97
405.73	1732.58
405.94	1685.48
406.15	1714.15
406.35	1730.53
406.56	1722.34
406.77	1705.96
406.98	1789.92
407.18	1603.56
407.39	1820.64
407.60	1753.06
407.80	1644.52
408.01	1693.67
408.22	1697.77
408.43	1697.77
408.63	1783.78
408.84	1734.63
409.05	1767.40
409.25	1746.92
409.46	1697.77
409.67	1716.20
409.88	1708.01
410.08	1705.96
410.29	1701.86
410.50	1759.21
410.70	1791.97
410.91	1658.85
411.12	1785.83
411.32	1722.34
411.53	1638.38
411.74	1865.70
411.95	1820.64
412.15	1806.31
412.36	1832.93
412.57	1791.97
412.77	1771.49
412.98	1777.64
413.19	1712.10
413.39	1796.07
413.60	1769.44
413.81	1755.11
414.01	1742.82
414.22	1830.88
414.43	1746.92
414.63	1697.77
414.84	1767.40
415.05	1746.92
415.25	1640.42
415.46	1765.35
415.67	1714.15
415.87	1693.67
416.08	1759.21
416.29	1732.58
416.49	1718.25
416.70	1742.82
416.91	1730.53
417.11	1703.91
417.32	1830.88
417.53	1806.31
417.73	1757.16
417.94	1722.34
418.15	1742.82
418.35	1787.88
418.56	1761.25
418.77	1857.51
418.97	1732.58
419.18	1730.53
419.38	1619.94
419.59	1701.86
419.80	1773.54
420.00	1691.62
420.21	1701.86
420.42	1712.10
420.62	1681.38
420.83	1634.28
421.04	1675.24
421.24	1685.48
421.45	1701.86
421.65	1773.54
421.86	1628.14
422.07	1714.15
422.27	1687.53
422.48	1697.77
422.69	1621.99
422.89	1699.81
423.10	1773.54
423.30	1648.61
423.51	1738.73
423.72	1683.43
423.92	1751.01
424.13	1650.66
424.33	1734.63
424.54	1724.39
424.75	1755.11
424.95	1857.51
425.16	1812.45
425.36	1724.39
425.57	1718.25
425.78	1687.53
425.98	1787.88
426.19	1779.68
426.39	1683.43
426.60	1703.91
426.81	1824.74
427.01	1738.73
427.22	1648.61
427.42	1607.66
427.63	1679.33
427.83	1714.15
428.04	1791.97
428.25	1755.11
428.45	1859.56
428.66	1744.87
428.86	1675.24
429.07	1679.33
429.28	1728.49
429.48	1751.01
429.69	1703.91
429.89	1781.73
430.10	1626.09
430.30	1693.67
430.51	1722.34
430.71	1710.05
430.92	1681.38
431.13	1691.62
431.33	1783.78
431.54	1785.83
431.74	1820.64
431.95	1826.79
432.15	1656.81
432.36	1787.88
432.56	1738.73
432.77	1800.16
432.98	1820.64
433.18	1677.29
433.39	1665.00
433.59	1726.44
433.80	1892.32
434.00	1869.80
434.21	1644.52
434.41	1769.44
434.62	1839.08
434.82	1656.81
435.03	1626.09
435.23	1730.53
435.44	1650.66
435.64	1669.09
435.85	1703.91
436.06	1767.40
436.26	1789.92
436.47	1746.92
436.67	1599.46
436.88	1783.78
437.08	1755.11
437.29	1777.64
437.49	1730.53
437.70	1804.26
437.90	1753.06
438.11	1880.04
438.31	1812.45
438.52	1871.84
438.72	1855.46
438.93	2002.91
439.13	1806.31
439.34	1849.32
439.54	1724.39
439.75	1808.36
439.95	1816.55
440.16	1736.68
440.36	1730.53
440.57	1722.34
440.77	1730.53
440.98	1662.95
441.18	1794.02
441.39	1703.91
441.59	1671.14
441.80	1865.70
442.00	1675.24
442.21	1818.60
442.41	1759.21
442.62	1783.78
442.82	1689.57
443.02	1742.82
443.23	1705.96
443.43	1769.44
443.64	1806.31
443.84	1683.43
444.05	1773.54
444.25	1728.49
444.46	1779.68
444.66	1708.01
444.87	1828.84
445.07	1601.51
445.28	1724.39
445.48	1791.97
445.69	1755.11
445.89	1832.93
446.09	1824.74
446.30	2072.54
446.50	2631.64
446.71	4284.35
446.91	5091.25
447.12	5846.95
447.32	5937.06
447.53	5330.86
447.73	4442.04
447.93	3966.92
448.14	3655.62
448.34	3573.71
448.55	3172.30
448.75	3153.87
448.96	3053.52
449.16	2668.50
449.36	2510.81
449.57	2131.94
449.77	1947.62
449.98	1861.60
450.18	1849.32
450.39	1791.97
450.59	1771.49
450.79	1816.55
451.00	1822.69
451.20	1837.03
451.41	1730.53
451.61	1837.03
451.81	1744.87
452.02	1755.11
452.22	1656.81
452.43	1720.29
452.63	1742.82
452.84	1681.38
453.04	1689.57
453.24	1767.40
453.45	1665.00
453.65	1665.00
453.86	1748.97
454.06	1751.01
454.26	1726.44
454.47	1687.53
454.67	1748.97
454.87	1732.58
455.08	1820.64
455.28	1789.92
455.49	1738.73
455.69	1685.48
455.89	1884.13
456.10	1734.63
456.30	1689.57
456.51	1705.96
456.71	1800.16
456.91	1683.43
457.12	1761.25
457.32	1877.99
457.52	1634.28
457.73	1853.41
457.93	1783.78
458.14	1785.83
458.34	1658.85
458.54	1634.28
458.75	1742.82
458.95	1755.11
459.15	1830.88
459.36	1761.25
459.56	1787.88
459.76	1818.60
459.97	1685.48
460.17	1740.77
460.37	1769.44
460.58	1689.57
460.78	1769.44
460.99	1726.44
461.19	1662.95
461.39	1685.48
461.60	1669.09
461.80	1845.22
462.00	1665.00
462.21	1689.57
462.41	1642.47
462.61	1658.85
462.82	1646.57
463.02	1783.78
463.22	1693.67
463.43	1828.84
463.63	1714.15
463.83	1845.22
464.04	1648.61
464.24	1771.49
464.44	1681.38
464.64	1841.12
464.85	1755.11
465.05	1769.44
465.25	1714.15
465.46	1734.63
465.66	1751.01
465.86	1775.59
466.07	1738.73
466.27	1755.11
466.47	1691.62
466.68	1607.66
466.88	1796.07
467.08	1812.45
467.29	1724.39
467.49	1785.83
467.69	1841.12
467.89	1771.49
468.10	1685.48
468.30	1751.01
468.50	1853.41
468.71	1783.78
468.91	1642.47
469.11	1832.93
469.31	1755.11
469.52	1740.77
469.72	1812.45
469.92	1820.64
470.13	1732.58
470.33	1791.97
470.53	1820.64
470.73	2193.37
470.94	2549.72
471.14	2713.56
471.34	3131.34
471.54	2893.78
471.75	2635.74
471.95	2369.50
472.15	2246.62
472.36	2168.80
472.56	2281.44
472.76	2228.19
472.96	2031.58
473.17	2009.06
473.37	1964.00
473.57	1855.46
473.77	1787.88
473.98	1775.59
474.18	1722.34
474.38	1834.98
474.58	1699.81
474.79	1712.10
474.99	1818.60
475.19	1779.68
475.39	1681.38
475.60	1736.68
475.80	1673.19
476.00	1640.42
476.20	1710.05
476.41	1693.67
476.61	1818.60
476.81	1845.22
477.01	1697.77
477.21	1820.64
477.42	1785.83
477.62	1636.33
477.82	1681.38
478.02	1648.61
478.23	1728.49
478.43	1742.82
478.63	1665.00
478.83	1675.24
479.03	1765.35
479.24	1796.07
479.44	1744.87
479.64	1591.27
479.84	1599.46
480.04	1683.43
480.25	1759.21
480.45	1773.54
480.65	1728.49
480.85	1818.60
481.06	1703.91
481.26	1718.25
481.46	1744.87
481.66	1730.53
481.86	1640.42
482.06	1808.36
482.27	1742.82
482.47	1726.44
482.67	1826.79
482.87	1740.77
483.07	1828.84
483.28	1687.53
483.48	1646.57
483.68	1746.92
483.88	1658.85
484.08	1628.14
484.29	1693.67
484.49	1742.82
484.69	1730.53
484.89	1746.92
485.09	1761.25
485.29	1787.88
485.50	1667.05
485.70	1705.96
485.90	1869.80
486.10	1685.48
486.30	1726.44
486.50	1746.92
486.71	1740.77
486.91	1826.79
487.11	1765.35
487.31	1628.14
487.51	1779.68
487.71	1671.14
487.91	1724.39
488.12	1636.33
488.32	1558.50
488.52	1644.52
488.72	1648.61
488.92	1755.11
489.12	1783.78
489.32	1781.73
489.53	1730.53
489.73	1640.42
489.93	1857.51
490.13	1671.14
490.33	1736.68
490.53	1732.58
490.73	1826.79
490.94	1552.36
491.14	1767.40
491.34	1785.83
491.54	2113.50
491.74	2691.03
491.94	3368.91
492.14	3448.78
492.34	3508.17
492.54	3231.69
492.75	2791.38
492.95	2519.00
493.15	2435.03
493.35	2316.25
493.55	2332.64
493.75	2332.64
493.95	2256.86
494.15	2058.21
494.35	2041.82
494.56	1935.33
494.76	1714.15
494.96	1787.88
495.16	1781.73
495.36	1808.36
495.56	1763.30
495.76	1744.87
495.96	1716.20
496.16	1609.70
496.36	1822.69
496.56	1687.53
496.77	1810.40
496.97	1648.61
497.17	1763.30
497.37	1708.01
497.57	1791.97
497.77	1703.91
497.97	1712.10
498.17	1712.10
498.37	1681.38
498.57	1787.88
498.77	1683.43
498.97	1771.49
499.17	1863.65
499.38	1716.20
499.58	1767.40
499.78	1857.51
499.98	1779.68
500.18	1724.39
500.38	1689.57
500.58	1828.84
500.78	2484.19
500.98	4728.76
501.18	6627.23
501.38	8314.75
501.58	9031.54
501.78	8834.94
501.98	7116.69
502.18	5834.66
502.38	4886.45
502.58	4491.20
502.78	4245.44
502.98	3979.20
503.18	3729.35
503.38	3506.12
503.59	3090.38
503.79	2928.60
503.99	2734.04
504.19	2447.32
504.39	2394.08
504.59	2373.60
504.79	2330.59
504.99	2314.20
505.19	2076.64
505.39	2015.20
505.59	2062.30
505.79	1984.48
505.99	1865.70
506.19	1837.03
506.39	1982.43
506.59	1816.55
506.79	1794.02
506.99	1843.17
507.19	1798.12
507.39	1718.25
507.59	1667.05
507.79	1724.39
507.99	1785.83
508.19	1734.63
508.39	1708.01
508.59	1681.38
508.79	1871.84
508.99	1865.70
509.19	1703.91
509.39	1808.36
509.59	1738.73
509.79	1626.09
509.99	1726.44
510.19	1845.22
510.39	1771.49
510.59	1632.23
510.79	1738.73
510.99	1662.95
511.19	1740.77
511.39	1867.75
511.59	1845.22
511.79	1828.84
511.99	1775.59
512.19	1886.18
512.38	1685.48
512.58	1734.63
512.78	1685.48
512.98	1828.84
513.18	1722.34
513.38	1634.28
513.58	1785.83
513.78	1675.24
513.98	1689.57
514.18	1775.59
514.38	1734.63
514.58	1689.57
514.78	1648.61
514.98	1685.48
515.18	1652.71
515.38	1685.48
515.58	1822.69
515.78	1708.01
515.98	1730.53
516.18	1689.57
516.38	1724.39
516.57	1728.49
516.77	1748.97
516.97	1736.68
517.17	1746.92
517.37	1720.29
517.57	1763.30
517.77	1722.34
517.97	1691.62
518.17	1724.39
518.37	1673.19
518.57	1701.86
518.77	1705.96
518.97	1726.44
519.16	1767.40
519.36	1779.68
519.56	1744.87
519.76	1775.59
519.96	1751.01
520.16	1830.88
520.36	1728.49
520.56	1769.44
520.76	1701.86
520.96	1705.96
521.16	1826.79
521.35	1804.26
521.55	1800.16
521.75	1667.05
521.95	1685.48
522.15	1705.96
522.35	1624.04
522.55	1669.09
522.75	1791.97
522.95	1755.11
523.14	1720.29
523.34	1734.63
523.54	1773.54
523.74	1759.21
523.94	1722.34
524.14	1751.01
524.34	1806.31
524.54	1781.73
524.73	1775.59
524.93	1738.73
525.13	1759.21
525.33	1613.80
525.53	1822.69
525.73	1761.25
525.93	1767.40
526.13	1681.38
526.32	1757.16
526.52	1857.51
526.72	1757.16
526.92	1769.44
527.12	1665.00
527.32	1687.53
527.52	1730.53
527.71	1824.74
527.91	1724.39
528.11	1757.16
528.31	1714.15
528.51	1710.05
528.71	1751.01
528.90	1740.77
529.10	1853.41
529.30	1771.49
529.50	1679.33
529.70	1677.29
529.90	1681.38
530.09	1728.49
530.29	1681.38
530.49	1638.38
530.69	1877.99
530.89	1695.72
531.09	1710.05
531.28	1648.61
531.48	1742.82
531.68	1744.87
531.88	1726.44
532.08	1791.97
532.28	1751.01
532.47	1775.59
532.67	1832.93
532.87	1798.12
533.07	1673.19
533.27	1824.74
533.46	1828.84
533.66	1804.26
533.86	1806.31
534.06	1718.25
534.26	1699.81
534.45	1736.68
534.65	1791.97
534.85	1802.21
535.05	1736.68
535.25	1826.79
535.44	1662.95
535.64	1695.72
535.84	1789.92
536.04	1656.81
536.24	1714.15
536.43	1687.53
536.63	1781.73
536.83	1783.78
537.03	1724.39
537.22	1726.44
537.42	1589.22
537.62	1734.63
537.82	1617.90
538.02	1847.27
538.21	1859.56
538.41	1939.43
538.61	1675.24
538.81	1695.72
539.00	1798.12
539.20	1669.09
539.40	1732.58
539.60	1767.40
539.79	1785.83
539.99	1730.53
540.19	1687.53
540.39	1773.54
540.58	1738.73
540.78	1775.59
540.98	1746.92
541.18	1765.35
541.37	1767.40
541.57	1763.30
541.77	1746.92
541.97	1695.72
542.16	1609.70
542.36	1693.67
542.56	1812.45
542.76	1853.41
542.95	1765.35
543.15	1753.06
543.35	1742.82
543.54	1650.66
543.74	1662.95
543.94	1714.15
544.14	1740.77
544.33	1736.68
544.53	1701.86
544.73	1755.11
544.93	1654.76
545.12	1744.87
545.32	1796.07
545.52	1712.10
545.71	1705.96
545.91	1705.96
546.11	1740.77
546.30	1660.90
546.50	1732.58
546.70	1785.83
546.90	1765.35
547.09	1640.42
547.29	1685.48
547.49	1857.51
547.68	1703.91
547.88	1710.05
548.08	1671.14
548.27	2197.47
548.47	1720.29
548.67	1701.86
548.87	1810.40
549.06	1687.53
549.26	1708.01
549.46	1650.66
549.65	1652.71
549.85	1679.33
550.05	1718.25
550.24	1722.34
550.44	1773.54
550.64	1744.87
550.83	1746.92
551.03	1816.55
551.23	1755.11
551.42	1775.59
551.62	1720.29
551.82	1705.96
552.01	1708.01
552.21	1791.97
552.41	1683.43
552.60	1927.14
552.80	1785.83
553.00	1693.67
553.19	1753.06
553.39	1837.03
553.59	1658.85
553.78	1832.93
553.98	1720.29
554.17	1667.05
554.37	1732.58
554.57	1714.15
554.76	1703.91
554.96	1724.39
555.16	1781.73
555.35	1734.63
555.55	1806.31
555.75	1767.40
555.94	1757.16
556.14	1665.00
556.33	1814.50
556.53	1734.63
556.73	1775.59
556.92	1759.21
557.12	1873.89
557.32	1794.02
557.51	1830.88
557.71	1791.97
557.90	1830.88
558.10	1841.12
558.30	1730.53
558.49	1736.68
558.69	1691.62
558.88	1761.25
559.08	1775.59
559.28	1677.29
559.47	1755.11
559.67	1746.92
559.86	1908.71
560.06	1734.63
560.26	1726.44
560.45	1759.21
560.65	1742.82
560.84	1773.54
561.04	1761.25
561.24	1857.51
561.43	1662.95
561.63	1849.32
561.82	1767.40
562.02	1841.12
562.22	1652.71
562.41	1599.46
562.61	1746.92
562.80	1656.81
563.00	1890.28
563.19	1777.64
563.39	1882.08
563.59	1742.82
563.78	1595.37
563.98	1654.76
564.17	1724.39
564.37	1662.95
564.56	1740.77
564.76	1652.71
564.96	1781.73
565.15	1814.50
565.35	1880.04
565.54	1755.11
565.74	1802.21
565.93	1734.63
566.13	1759.21
566.32	1798.12
566.52	1767.40
566.71	1812.45
566.91	1730.53
567.11	1697.77
567.30	1757.16
567.50	1765.35
567.69	1759.21
567.89	1658.85
568.08	1718.25
568.28	1722.34
568.47	1681.38
568.67	1710.05
568.86	1716.20
569.06	1755.11
569.25	1767.40
569.45	1568.74
569.64	1656.81
569.84	1759.21
570.04	1761.25
570.23	1650.66
570.43	1710.05
570.62	1748.97
570.82	1826.79
571.01	1718.25
571.21	1791.97
571.40	1671.14
571.60	1826.79
571.79	1796.07
571.99	1728.49
572.18	1671.14
572.38	1769.44
572.57	1757.16
572.77	1822.69
572.96	1949.67
573.16	1787.88
573.35	1777.64
573.55	1804.26
573.74	1753.06
573.94	1730.53
574.13	1710.05
574.33	1816.55
574.52	1818.60
574.71	1730.53
574.91	1759.21
575.10	1636.33
575.30	1751.01
575.49	1628.14
575.69	1773.54
575.88	1814.50
576.08	1724.39
576.27	1841.12
576.47	1834.98
576.66	1906.66
576.86	1824.74
577.05	1734.63
577.25	1759.21
577.44	1869.80
577.64	1847.27
577.83	1845.22
578.02	1714.15
578.22	1845.22
578.41	1828.84
578.61	1796.07
578.80	1624.04
579.00	1769.44
579.19	1740.77
579.39	1826.79
579.58	1857.51
579.77	1810.40
579.97	1853.41
580.16	1767.40
580.36	1736.68
580.55	1873.89
580.75	1746.92
580.94	1800.16
581.13	1873.89
581.33	1959.91
581.52	1779.68
581.72	1902.56
581.91	1832.93
582.11	1757.16
582.30	1855.46
582.49	1814.50
582.69	1843.17
582.88	1871.84
583.08	1826.79
583.27	1824.74
583.47	1816.55
583.66	1742.82
583.85	1716.20
584.05	1730.53
584.24	1890.28
584.44	1826.79
584.63	1765.35
584.82	1888.23
585.02	1871.84
585.21	1884.13
585.41	1865.70
585.60	1873.89
585.79	1978.34
585.99	2025.44
586.18	1978.34
586.37	2252.77
586.57	3381.20
586.76	9969.51
586.96	27182.69
587.15	41872.77
587.34	51973.35
587.54	57758.86
587.73	56013.99
587.93	39755.17
588.12	29613.63
588.31	23918.23
588.51	20293.32
588.70	18638.56
588.89	16926.46
589.09	15394.58
589.28	13551.41
589.47	11413.33
589.67	9580.40
589.86	7427.98
590.06	5484.46
590.25	4302.78
590.44	3303.37
590.64	2543.58
590.83	2287.58
591.02	2131.94
591.22	1867.75
591.41	1964.00
591.60	1810.40
591.80	1908.71
591.99	1798.12
592.18	1873.89
592.38	1873.89
592.57	1785.83
592.76	1828.84
592.96	1794.02
593.15	1705.96
593.34	1855.46
593.54	1816.55
593.73	1753.06
593.92	1806.31
594.12	1787.88
594.31	1771.49
594.50	1933.28
594.70	1828.84
594.89	1992.67
595.08	1748.97
595.28	1816.55
595.47	1925.09
595.66	1783.78
595.86	1736.68
596.05	1744.87
596.24	1796.07
596.43	1830.88
596.63	1886.18
596.82	1837.03
597.01	1726.44
597.21	1912.80
597.40	1806.31
597.59	1779.68
597.79	1791.97
597.98	1834.98
598.17	1738.73
598.36	1810.40
598.56	1830.88
598.75	1763.30
598.94	1763.30
599.14	1746.92
599.33	1744.87
599.52	1787.88
599.71	1763.30
599.91	1744.87
600.10	1773.54
600.29	1759.21
600.48	1832.93
600.68	1802.21
600.87	1751.01
601.06	1650.66
601.26	1806.31
601.45	1816.55
601.64	1753.06
601.83	1834.98
602.03	1689.57
602.22	1636.33
602.41	1783.78
602.60	1896.42
602.80	1871.84
602.99	1738.73
603.18	1718.25
603.37	1751.01
603.57	1781.73
603.76	1777.64
603.95	1839.08
604.14	1658.85
604.34	1693.67
604.53	1751.01
604.72	1748.97
604.91	1837.03
605.10	1853.41
605.30	1636.33
605.49	1851.36
605.68	1775.59
605.87	1796.07
606.07	1699.81
606.26	1699.81
606.45	1736.68
606.64	1773.54
606.84	1710.05
607.03	1724.39
607.22	1818.60
607.41	1732.58
607.60	1812.45
607.80	1857.51
607.99	1757.16
608.18	1738.73
608.37	1769.44
608.56	1611.75
608.76	1812.45
608.95	1877.99
609.14	1855.46
609.33	1847.27
609.52	1892.32
609.72	1898.47
609.91	1839.08
610.10	1775.59
610.29	1753.06
610.48	1796.07
610.68	1753.06
610.87	1732.58
611.06	1826.79
611.25	1777.64
611.44	1851.36
611.63	1771.49
611.83	1783.78
612.02	1646.57
612.21	1779.68
612.40	1687.53
612.59	1720.29
612.79	1689.57
612.98	1763.30
613.17	1882.08
613.36	1679.33
613.55	1818.60
613.74	1859.56
613.93	1877.99
614.13	1882.08
614.32	1873.89
614.51	1964.00
614.70	1826.79
614.89	1724.39
615.08	1834.98
615.28	2097.12
615.47	1779.68
615.66	1861.60
615.85	1900.52
616.04	1935.33
616.23	1783.78
616.42	1779.68
616.62	1785.83
616.81	1853.41
617.00	1771.49
617.19	1816.55
617.38	1773.54
617.57	1757.16
617.76	1769.44
617.95	1806.31
618.15	1740.77
618.34	1810.40
618.53	1693.67
618.72	1822.69
618.91	1775.59
619.10	1849.32
619.29	1781.73
619.48	1730.53
619.68	1644.52
619.87	1757.16
620.06	1703.91
620.25	1757.16
620.44	1718.25
620.63	1677.29
620.82	1798.12
621.01	1765.35
621.20	1742.82
621.39	1736.68
621.59	1802.21
621.78	1746.92
621.97	1796.07
622.16	1742.82
622.35	1787.88
622.54	1738.73
622.73	1800.16
622.92	1652.71
623.11	1771.49
623.30	1722.34
623.49	1716.20
623.68	1738.73
623.88	1832.93
624.07	1652.71
624.26	1738.73
624.45	1687.53
624.64	1740.77
624.83	1738.73
625.02	1726.44
625.21	1810.40
625.40	1714.15
625.59	1785.83
625.78	1751.01
625.97	1830.88
626.16	1873.89
626.35	1869.80
626.54	1841.12
626.74	1896.42
626.93	1806.31
627.12	1777.64
627.31	1869.80
627.50	1834.98
627.69	1763.30
627.88	1736.68
628.07	1785.83
628.26	1634.28
628.45	1734.63
628.64	1722.34
628.83	1773.54
629.02	1685.48
629.21	1783.78
629.40	1728.49
629.59	1701.86
629.78	1697.77
629.97	1755.11
630.16	1777.64
630.35	1734.63
630.54	1708.01
630.73	1732.58
630.92	1761.25
631.11	1603.56
631.30	1773.54
631.49	1732.58
631.68	1665.00
631.87	1783.78
632.06	1695.72
632.25	1851.36
632.44	1820.64
632.63	1728.49
632.82	1812.45
633.01	1812.45
633.20	1765.35
633.39	1837.03
633.58	1769.44
633.77	1847.27
633.96	1753.06
634.15	1832.93
634.34	1828.84
634.53	1771.49
634.72	1724.39
634.91	1634.28
635.10	1832.93
635.29	1800.16
635.48	1722.34
635.67	1669.09
635.86	1628.14
636.05	1824.74
636.24	1794.02
636.43	1710.05
636.62	1767.40
636.81	1591.27
637.00	1763.30
637.19	1759.21
637.38	1742.82
637.57	1736.68
637.76	1748.97
637.95	1845.22
638.14	1828.84
638.33	1857.51
638.52	1845.22
638.71	1736.68
638.89	1689.57
639.08	1955.81
639.27	1822.69
639.46	1904.61
639.65	2205.66
639.84	2367.45
640.03	2357.21
640.22	2324.44
640.41	2381.79
640.60	2058.21
640.79	2004.96
640.98	1943.52
641.17	1982.43
641.36	1880.04
641.55	1929.19
641.74	1740.77
641.92	1748.97
642.11	1730.53
642.30	1775.59
642.49	1703.91
642.68	1708.01
642.87	1724.39
643.06	1744.87
643.25	1744.87
643.44	1658.85
643.63	1701.86
643.82	1822.69
644.00	1619.94
644.19	1681.38
644.38	1640.42
644.57	1685.48
644.76	1675.24
644.95	1697.77
645.14	1791.97
645.33	1720.29
645.52	1734.63
645.71	1673.19
645.89	1656.81
646.08	1697.77
646.27	1689.57
646.46	1812.45
646.65	1703.91
646.84	1685.48
647.03	1632.23
647.22	1810.40
647.40	1683.43
647.59	1720.29
647.78	1603.56
647.97	1705.96
648.16	1642.47
648.35	1777.64
648.54	1785.83
648.73	1697.77
648.91	1789.92
649.10	1722.34
649.29	1761.25
649.48	1728.49
649.67	1673.19
649.86	1667.05
650.05	1779.68
650.23	1808.36
650.42	1828.84
650.61	1914.85
650.80	1910.75
650.99	1918.95
651.18	1886.18
651.36	1816.55
651.55	1748.97
651.74	1814.50
651.93	1777.64
652.12	1695.72
652.31	1734.63
652.49	1714.15
652.68	1671.14
652.87	1892.32
653.06	1757.16
653.25	1808.36
653.44	1769.44
653.62	1826.79
653.81	1658.85
654.00	1787.88
654.19	1773.54
654.38	1816.55
654.56	1742.82
654.75	1712.10
654.94	1787.88
655.13	1824.74
655.32	1718.25
655.51	1697.77
655.69	1757.16
655.88	1671.14
656.07	1703.91
656.26	1695.72
656.45	1673.19
656.63	1712.10
656.82	1744.87
657.01	1798.12
657.20	1669.09
657.38	1824.74
657.57	1732.58
657.76	1648.61
657.95	1769.44
658.14	1710.05
658.32	1787.88
658.51	1687.53
658.70	1804.26
658.89	1699.81
659.08	1734.63
659.26	1724.39
659.45	1763.30
659.64	1802.21
659.83	1771.49
660.01	1875.94
660.20	1855.46
660.39	1685.48
660.58	1591.27
660.76	1796.07
660.95	1628.14
661.14	1705.96
661.33	1648.61
661.51	1660.90
661.70	1689.57
661.89	1775.59
662.08	1662.95
662.26	1687.53
662.45	1695.72
662.64	1802.21
662.83	1718.25
663.01	1630.18
663.20	1730.53
663.39	1837.03
663.58	1712.10
663.76	1665.00
663.95	1730.53
664.14	1738.73
664.32	1695.72
664.51	1644.52
664.70	1648.61
664.89	1753.06
665.07	1703.91
665.26	1808.36
665.45	1714.15
665.64	1773.54
665.82	1708.01
666.01	1714.15
666.20	1726.44
666.38	1742.82
666.57	1834.98
666.76	2207.71
666.95	4556.73
667.13	11525.97
667.32	18648.80
667.51	22163.12
667.69	25044.61
667.88	25419.39
668.07	19850.96
668.25	14260.01
668.44	11949.90
668.63	9797.48
668.81	8558.46
669.00	7694.22
669.19	6936.47
669.38	6076.32
669.56	5474.22
669.75	4427.71
669.94	3833.80
670.12	3108.82
670.31	2688.98
670.50	2342.88
670.68	2144.22
670.87	1925.09
671.06	1822.69
671.24	1822.69
671.43	1910.75
671.62	1775.59
671.80	1800.16
671.99	1767.40
672.18	1728.49
672.36	1802.21
672.55	1730.53
672.74	1744.87
672.92	1656.81
673.11	1755.11
673.29	1648.61
673.48	1789.92
673.67	1730.53
673.85	1755.11
674.04	1697.77
674.23	1748.97
674.41	1828.84
674.60	1751.01
674.79	1562.60
674.97	1656.81
675.16	1730.53
675.34	1740.77
675.53	1677.29
675.72	1789.92
675.90	1880.04
676.09	1714.15
676.28	1740.77
676.46	1654.76
676.65	1710.05
676.83	1671.14
677.02	1736.68
677.21	1691.62
677.39	1771.49
677.58	1681.38
677.77	1718.25
677.95	1712.10
678.14	1677.29
678.32	1722.34
678.51	1656.81
678.70	1882.08
678.88	1658.85
679.07	1763.30
679.25	1626.09
679.44	1693.67
679.63	1613.80
679.81	1806.31
680.00	1730.53
680.18	1753.06
680.37	1751.01
680.55	1708.01
680.74	1648.61
680.93	1644.52
681.11	1734.63
681.30	1708.01
681.48	1636.33
681.67	1624.04
681.85	1740.77
682.04	1708.01
682.23	1787.88
682.41	1695.72
682.60	1761.25
682.78	1710.05
682.97	1652.71
683.15	1730.53
683.34	1767.40
683.53	1834.98
683.71	1675.24
683.90	1787.88
684.08	1746.92
684.27	1710.05
684.45	1730.53
684.64	1742.82
684.82	1742.82
685.01	1757.16
685.19	1644.52
685.38	1828.84
685.57	1662.95
685.75	1634.28
685.94	1685.48
686.12	1681.38
686.31	1677.29
686.49	1800.16
686.68	1640.42
686.86	1722.34
687.05	1718.25
687.23	1810.40
687.42	1673.19
687.60	1587.18
687.79	1746.92
687.97	1710.05
688.16	1714.15
688.34	1759.21
688.53	1669.09
688.71	1746.92
688.90	1722.34
689.08	1734.63
689.27	1667.05
689.45	1777.64
689.64	1818.60
689.82	1761.25
690.01	1773.54
690.19	1708.01
690.38	1701.86
690.56	1843.17
690.75	1624.04
690.93	1738.73
691.12	1724.39
691.30	1685.48
691.49	1656.81
691.67	1693.67
691.86	1853.41
692.04	1732.58
692.23	1728.49
692.41	1687.53
692.60	1918.95
692.78	1902.56
692.97	1726.44
693.15	1789.92
693.34	1861.60
693.52	1816.55
693.71	1746.92
693.89	1722.34
694.08	1630.18
694.26	1802.21
694.44	1771.49
694.63	1710.05
694.81	1669.09
695.00	1685.48
695.18	1681.38
695.37	1800.16
695.55	1777.64
695.74	1603.56
695.92	1669.09
696.10	1841.12
696.29	1638.38
696.47	1710.05
696.66	1677.29
696.84	1652.71
697.03	1722.34
697.21	1761.25
697.40	2373.60
697.58	1800.16
697.76	1693.67
697.95	1796.07
698.13	1759.21
698.32	1691.62
698.50	1734.63
698.68	1787.88
698.87	1703.91
699.05	1783.78
699.24	1744.87
699.42	1611.75
699.61	1677.29
699.79	1722.34
699.97	1761.25
700.16	1619.94
700.34	1744.87
700.53	1693.67
700.71	1800.16
700.89	1767.40
701.08	1646.57
701.26	1783.78
701.45	2166.75
701.63	1667.05
701.81	1716.20
702.00	1710.05
702.18	1712.10
702.37	1785.83
702.55	1871.84
702.73	1877.99
702.92	1869.80
703.10	2002.91
703.28	1920.99
703.47	1763.30
703.65	1888.23
703.84	1875.94
704.02	1742.82
704.20	1910.75
704.39	1794.02
704.57	1714.15
704.75	1834.98
704.94	1839.08
705.12	1810.40
705.30	1880.04
705.49	2441.18
705.67	5558.19
705.86	13250.36
706.04	19259.10
706.22	22486.70
706.41	25499.26
706.59	24823.43
706.77	19420.89
706.96	13721.39
707.14	11900.75
707.32	10311.52
707.51	9168.76
707.69	7921.54
707.87	6737.82
708.06	5590.95
708.24	4437.95
708.42	3340.24
708.61	2734.04
708.79	2291.68
708.97	2066.40
709.16	1896.42
709.34	1918.95
709.52	1773.54
709.71	1783.78
709.89	1798.12
710.07	1648.61
710.26	1685.48
710.44	1789.92
710.62	1759.21
710.80	1740.77
710.99	1800.16
711.17	1744.87
711.35	1691.62
711.54	1703.91
711.72	1802.21
711.90	1800.16
712.09	1671.14
712.27	1638.38
712.45	1722.34
712.63	1671.14
712.82	1742.82
713.00	1662.95
713.18	1771.49
713.37	1734.63
713.55	1771.49
713.73	1796.07
713.91	1804.26
714.10	1712.10
714.28	1679.33
714.46	1687.53
714.65	1697.77
714.83	1802.21
715.01	1728.49
715.19	1630.18
715.38	1726.44
715.56	1746.92
715.74	1638.38
715.92	1624.04
716.11	1789.92
716.29	1589.22
716.47	1710.05
716.65	1722.34
716.84	1652.71
717.02	1810.40
717.20	1642.47
717.38	1642.47
717.57	1726.44
717.75	1763.30
717.93	1705.96
718.11	1720.29
718.30	1724.39
718.48	1730.53
718.66	1841.12
718.84	1802.21
719.03	1671.14
719.21	1615.85
719.39	1865.70
719.57	1802.21
719.75	1794.02
719.94	1705.96
720.12	1718.25
720.30	1681.38
720.48	1753.06
720.67	1701.86
720.85	1683.43
721.03	1660.90
721.21	1669.09
721.39	1732.58
721.58	1755.11
721.76	1642.47
721.94	1640.42
722.12	1720.29
722.30	1759.21
722.49	1708.01
722.67	1617.90
722.85	1773.54
723.03	1619.94
723.21	1660.90
723.40	1712.10
723.58	1798.12
723.76	1832.93
723.94	1851.36
724.12	1722.34
724.30	1806.31
724.49	1896.42
724.67	1785.83
724.85	1781.73
725.03	1671.14
725.21	1722.34
725.40	1816.55
725.58	1628.14
725.76	1834.98
725.94	1697.77
726.12	1716.20
726.30	1679.33
726.49	1742.82
726.67	1708.01
726.85	1763.30
727.03	1767.40
727.21	2334.68
727.39	3446.73
727.57	5025.72
727.76	5867.43
727.94	6313.89
728.12	6317.98
728.30	5728.17
728.48	4569.02
728.66	3915.72
728.84	3585.99
729.03	3106.77
729.21	2881.49
729.39	2504.67
729.57	2093.02
729.75	2017.25
729.93	1820.64
730.11	1804.26
730.30	1761.25
730.48	1730.53
730.66	1873.89
730.84	1771.49
731.02	1746.92
731.20	1703.91
731.38	1697.77
731.56	1646.57
731.74	1658.85
731.93	1781.73
732.11	1701.86
732.29	1705.96
732.47	1748.97
732.65	1691.62
732.83	1775.59
733.01	1791.97
733.19	1669.09
733.37	1781.73
733.56	1714.15
733.74	1636.33
733.92	1787.88
734.10	1718.25
734.28	1769.44
734.46	1716.20
734.64	1638.38
734.82	1712.10
735.00	1630.18
735.18	1650.66
735.36	1665.00
735.54	1771.49
735.73	1748.97
735.91	1699.81
736.09	1769.44
736.27	1738.73
736.45	1652.71
736.63	1636.33
736.81	1621.99
736.99	1796.07
737.17	1826.79
737.35	1767.40
737.53	1781.73
737.71	1748.97
737.89	1740.77
738.07	1710.05
738.25	1689.57
738.43	1605.61
738.61	1675.24
738.80	1583.08
738.98	1648.61
739.16	1765.35
739.34	1607.66
739.52	1800.16
739.70	1718.25
739.88	1771.49
740.06	1902.56
740.24	1574.89
740.42	1765.35
740.60	1581.03
740.78	1712.10
740.96	1695.72
741.14	1667.05
741.32	1705.96
741.50	1693.67
741.68	1845.22
741.86	1753.06
742.04	1634.28
742.22	1699.81
742.40	1812.45
742.58	1757.16
742.76	1669.09
742.94	1748.97
743.12	1624.04
743.30	1744.87
743.48	1677.29
743.66	1599.46
743.84	1751.01
744.02	1703.91
744.20	1712.10
744.38	1679.33
744.56	1656.81
744.74	1751.01
744.92	1669.09
745.10	1755.11
745.28	1771.49
745.46	1818.60
745.64	1701.86
745.82	1802.21
746.00	1724.39
746.18	1734.63
746.36	1722.34
746.54	1675.24
746.72	1763.30
746.90	1574.89
747.08	1767.40
747.26	1730.53
747.44	1683.43
747.62	1703.91
747.80	1691.62
747.98	1662.95
748.15	1669.09
748.33	1794.02
748.51	1689.57
748.69	1701.86
748.87	1710.05
749.05	1716.20
749.23	1685.48
749.41	1746.92
749.59	1730.53
749.77	1757.16
749.95	1689.57
750.13	1599.46
750.31	1773.54
750.49	1734.63
750.67	1744.87
750.85	1734.63
751.03	1740.77
751.20	1828.84
751.38	1728.49
751.56	1751.01
751.74	1773.54
751.92	1716.20
752.10	1675.24
752.28	1791.97
752.46	1746.92
752.64	1791.97
752.82	1695.72
753.00	1701.86
753.18	1673.19
753.35	1675.24
753.53	1773.54
753.71	1761.25
753.89	1763.30
754.07	1796.07
754.25	1771.49
754.43	1791.97
754.61	1675.24
754.79	1685.48
754.97	1738.73
755.14	1796.07
755.32	1607.66
755.50	1753.06
755.68	1751.01
755.86	1621.99
756.04	1634.28
756.22	1619.94
756.40	1691.62
756.57	1853.41
756.75	1699.81
756.93	1716.20
757.11	1830.88
757.29	1656.81
757.47	1624.04
757.65	1593.32
757.82	1630.18
758.00	1638.38
758.18	1667.05
758.36	1665.00
758.54	1714.15
758.72	1607.66
758.90	1748.97
759.07	1732.58
759.25	1640.42
759.43	1736.68
759.61	1611.75
759.79	2215.90
759.97	1726.44
760.15	1716.20
760.32	1695.72
760.50	1755.11
760.68	1814.50
760.86	1619.94
761.04	1746.92
761.22	1765.35
761.39	1679.33
761.57	1796.07
761.75	1648.61
761.93	1701.86
762.11	1650.66
762.28	1705.96
762.46	1634.28
762.64	1769.44
762.82	1636.33
763.00	1665.00
763.18	1748.97
763.35	1685.48
763.53	1708.01
763.71	1687.53
763.89	1675.24
764.07	1755.11
764.24	1763.30
764.42	1757.16
764.60	1693.67
764.78	1703.91
764.96	1757.16
765.13	1722.34
765.31	1744.87
765.49	1789.92
765.67	1648.61
765.84	1751.01
766.02	1615.85
766.20	1546.22
766.38	1720.29
766.56	1732.58
766.73	1740.77
766.91	1695.72
767.09	1656.81
767.27	1675.24
767.44	1601.51
767.62	1708.01
767.80	1761.25
767.98	1744.87
768.15	1712.10
768.33	1773.54
768.51	1740.77
768.69	1757.16
768.87	1738.73
769.04	1757.16
769.22	1783.78
769.40	1834.98
769.58	1802.21
769.75	1726.44
769.93	1761.25
770.11	1779.68
770.28	1689.57
770.46	1759.21
770.64	1789.92
770.82	1738.73
770.99	1714.15
771.17	1726.44
771.35	1710.05
771.53	1722.34
771.70	1671.14
771.88	1798.12
772.06	1771.49
772.23	1626.09
772.41	1740.77
772.59	1665.00
772.77	1576.94
772.94	1673.19
773.12	1853.41
773.30	1683.43
773.47	1665.00
773.65	1675.24
773.83	1826.79
774.01	1681.38
774.18	1597.42
774.36	1652.71
774.54	1644.52
774.71	1695.72
774.89	1615.85
775.07	1550.31
775.24	1634.28
775.42	1716.20
775.60	1824.74
775.78	1640.42
775.95	1689.57
776.13	1611.75
776.31	1587.18
776.48	1808.36
776.66	1855.46
776.84	1675.24
777.01	1673.19
777.19	1671.14
777.37	1736.68
777.54	1697.77
777.72	1771.49
777.90	1736.68
778.07	1640.42
778.25	1867.75
778.43	1767.40
778.60	1673.19
778.78	1736.68
778.96	1806.31
779.13	1624.04
779.31	1791.97
779.49	1677.29
779.66	1691.62
779.84	1697.77
780.01	1716.20
780.19	1703.91
780.37	1785.83
780.54	1759.21
780.72	1650.66
780.90	1636.33
781.07	1722.34
781.25	1679.33
781.43	1759.21
781.60	1783.78
781.78	1800.16
781.95	1652.71
782.13	1685.48
782.31	1675.24
782.48	1599.46
782.66	1703.91
782.83	1812.45
783.01	1648.61
783.19	1716.20
783.36	1683.43
783.54	1642.47
783.72	1710.05
783.89	1720.29
784.07	1732.58
784.24	1767.40
784.42	1722.34
784.60	1738.73
784.77	1693.67
784.95	1562.60
785.12	1701.86
785.30	1712.10
785.47	1654.76
785.65	1640.42
785.83	1642.47
786.00	1650.66
786.18	1720.29
786.35	1611.75
786.53	1681.38
786.71	1783.78
786.88	1714.15
787.06	1839.08
787.23	1697.77
787.41	1687.53
787.58	1681.38
787.76	1675.24
787.94	1771.49
788.11	1640.42
788.29	1767.40
788.46	1720.29
788.64	1671.14
788.81	1662.95
788.99	1658.85
789.16	1671.14
789.34	1644.52
789.52	1652.71
789.69	1665.00
789.87	1591.27
790.04	1626.09
790.22	1669.09
790.39	1812.45
790.57	1665.00
790.74	1599.46
790.92	1785.83
791.09	1685.48
791.27	1687.53
791.44	1757.16
791.62	1683.43
791.79	1765.35
791.97	1662.95
792.15	1873.89
792.32	1806.31
792.50	1724.39
792.67	1748.97
792.85	1673.19
793.02	1691.62
793.20	1669.09
793.37	1718.25
793.55	1720.29
793.72	1568.74
793.90	1746.92
794.07	1734.63
794.25	1667.05
794.42	1748.97
794.60	1722.34
794.77	1794.02
794.95	1726.44
795.12	1767.40
795.30	1665.00
795.47	1572.84
795.65	1845.22
795.82	1712.10
796.00	1718.25
796.17	1675.24
796.34	1720.29
796.52	1677.29
796.69	1808.36
796.87	1777.64
797.04	1748.97
797.22	1753.06
797.39	1732.58
797.57	1746.92
797.74	1665.00
797.92	1708.01
798.09	1777.64
798.27	1744.87
798.44	1626.09
798.62	1712.10
798.79	1738.73
798.96	1732.58
799.14	1671.14
799.31	1806.31
799.49	1679.33
799.66	1613.80
799.84	1767.40
800.01	1640.42
800.19	1724.39
800.36	1693.67
800.53	1712.10
800.71	1761.25
800.88	1722.34
801.06	1695.72
801.23	1646.57
801.41	1734.63
801.58	1705.96
801.75	1689.57
801.93	1673.19
802.10	1685.48
802.28	1705.96
802.45	1722.34
802.63	1740.77
802.80	1777.64
802.97	1705.96
803.15	1699.81
803.32	1662.95
803.50	1671.14
803.67	1685.48
803.84	1634.28
804.02	1751.01
804.19	1681.38
804.37	1570.79
804.54	1683.43
804.71	1722.34
804.89	1699.81
805.06	1621.99
805.24	1609.70
805.41	1671.14
805.58	1595.37
805.76	1806.31
805.93	1716.20
806.10	1785.83
806.28	1761.25
806.45	1675.24
806.63	1718.25
806.80	1691.62
806.97	1699.81
807.15	1705.96
807.32	1742.82
807.49	1642.47
807.67	1648.61
807.84	1712.10
808.01	1613.80
808.19	1890.28
808.36	1925.09
808.54	1683.43
808.71	1652.71
808.88	1703.91
809.06	1800.16
809.23	1830.88
809.40	1617.90
809.58	1812.45
809.75	1677.29
809.92	1720.29
810.10	1812.45
810.27	1605.61
810.44	1701.86
810.62	1781.73
810.79	1720.29
810.96	1718.25
811.14	1662.95
811.31	1726.44
811.48	1753.06
811.66	1640.42
811.83	1753.06
812.00	1794.02
812.18	1738.73
812.35	1796.07
812.52	1708.01
812.69	1705.96
812.87	1726.44
813.04	1560.55
813.21	1630.18
813.39	1685.48
813.56	1644.52
813.73	1814.50
813.91	1597.42
814.08	1683.43
814.25	1662.95
814.42	1626.09
814.60	1630.18
814.77	1769.44
814.94	1714.15
815.12	1673.19
815.29	1765.35
815.46	1626.09
815.63	1683.43
815.81	1730.53
815.98	1607.66
816.15	1697.77
816.33	1685.48
816.50	1697.77
816.67	1714.15
816.84	1689.57
817.02	1658.85
817.19	1730.53
817.36	1669.09
817.53	1744.87
817.71	1650.66
817.88	1714.15
818.05	1644.52
818.22	1714.15
818.40	1787.88
818.57	1662.95
818.74	1716.20
818.91	1687.53
819.09	1767.40
819.26	1767.40
819.43	1673.19
819.60	1654.76
819.78	1703.91
819.95	1763.30
820.12	1626.09
820.29	1744.87
820.47	1724.39
820.64	1742.82
820.81	1658.85
820.98	1650.66
821.15	1701.86
821.33	1738.73
821.50	1607.66
821.67	1759.21
821.84	1648.61
822.02	1683.43
822.19	1789.92
822.36	1738.73
822.53	1671.14
822.70	1646.57
822.88	1671.14
823.05	1777.64
823.22	1685.48
823.39	1708.01
823.56	1701.86
823.74	1832.93
823.91	1662.95
824.08	1679.33
824.25	1669.09
824.42	1767.40
824.60	1630.18
824.77	1777.64
824.94	1708.01
825.11	1675.24
825.28	1650.66
825.45	1748.97
825.63	1746.92
825.80	1687.53
825.97	1691.62
826.14	1710.05
826.31	1617.90
826.48	1740.77
826.66	1617.90
826.83	1701.86
827.00	1738.73
827.17	1642.47
827.34	1654.76
827.51	1660.90
827.69	1701.86
827.86	1683.43
828.03	1693.67
828.20	1710.05
828.37	1699.81
828.54	1691.62
828.71	1708.01
828.89	1763.30
829.06	1687.53
829.23	1806.31
829.40	1630.18
829.57	1718.25
829.74	1845.22
829.91	1695.72
830.09	1613.80
830.26	1802.21
830.43	1880.04
830.60	1746.92
830.77	1746.92
830.94	1757.16
831.11	1818.60
831.28	1708.01
831.46	1849.32
831.63	1701.86
831.80	1714.15
831.97	1662.95
832.14	1712.10
832.31	1761.25
832.48	1669.09
832.65	1710.05
832.82	1763.30
832.99	1804.26
833.17	1693.67
833.34	1724.39
833.51	1687.53
833.68	1593.32
833.85	1742.82
834.02	1613.80
834.19	1648.61
834.36	1691.62
834.53	1710.05
834.70	1693.67
834.87	1712.10
835.04	1730.53
835.22	1691.62
835.39	1730.53
835.56	1751.01
835.73	1771.49
835.90	1716.20
836.07	1626.09
836.24	1701.86
836.41	1650.66
836.58	1740.77
836.75	1779.68
836.92	1806.31
837.09	1646.57
837.26	1779.68
837.43	1740.77
837.60	1705.96
837.77	1669.09
837.94	1769.44
838.12	1746.92
838.29	1775.59
838.46	1568.74
838.63	1646.57
838.80	1806.31
838.97	1845.22
839.14	1644.52
839.31	1701.86
839.48	1757.16
839.65	1714.15
839.82	1759.21
839.99	1662.95
840.16	1789.92
840.33	1742.82
840.50	1724.39
840.67	1640.42
840.84	1689.57
841.01	1646.57
841.18	1687.53
841.35	1669.09
841.52	1755.11
841.69	1796.07
841.86	1701.86
842.03	1724.39
842.20	1738.73
842.37	1693.67
842.54	1667.05
842.71	1728.49
842.88	1583.08
843.05	1744.87
843.22	1714.15
843.39	1789.92
843.56	1656.81
843.73	1701.86
843.90	1665.00
844.07	1660.90
844.24	1773.54
844.41	1712.10
844.58	1695.72
844.75	1710.05
844.92	1773.54
845.09	1716.20
845.26	1605.61
845.43	1693.67
845.60	1673.19
845.77	1728.49
845.94	1697.77
846.10	1775.59
846.27	1611.75
846.44	1699.81
846.61	1640.42
846.78	1783.78
846.95	1785.83
847.12	1714.15
847.29	1648.61
847.46	1656.81
847.63	1732.58
847.80	1662.95
847.97	1665.00
848.14	1843.17
848.31	1677.29
848.48	1716.20
848.65	1689.57
848.82	1628.14
848.98	1839.08
849.15	1691.62
849.32	1742.82
849.49	1763.30
849.66	1652.71
849.83	1767.40
850.00	1607.66
850.17	1757.16
850.34	1705.96
850.51	1632.23
850.68	1693.67
850.85	1863.65
851.01	1742.82
851.18	1746.92
851.35	1691.62
851.52	1724.39
851.69	1761.25
851.86	1642.47
852.03	1675.24
852.20	1736.68
852.37	1716.20
852.53	1626.09
852.70	1728.49
852.87	1722.34
853.04	1685.48
853.21	1710.05
853.38	1826.79
853.55	1763.30
853.72	1814.50
853.89	1624.04
854.05	1595.37
854.22	1626.09
854.39	1697.77
854.56	1728.49
854.73	1734.63
854.90	1656.81
855.07	1695.72
855.23	1628.14
855.40	1714.15
855.57	1669.09
855.74	1611.75
855.91	1847.27
856.08	1658.85
856.25	1691.62
856.41	1736.68
856.58	1742.82
856.75	1708.01
856.92	1617.90
857.09	1740.77
857.26	1605.61
857.42	1697.77
857.59	1787.88
857.76	1714.15
857.93	1660.90
858.10	1738.73
858.27	1677.29
858.43	1718.25
858.60	1611.75
858.77	1634.28
858.94	1636.33
859.11	1798.12
859.27	1648.61
859.44	1673.19
859.61	1859.56
859.78	1771.49
859.95	1660.90
860.12	1624.04
860.28	1828.84
860.45	1871.84
860.62	1632.23
860.79	1775.59
860.95	1656.81
861.12	1650.66
861.29	1695.72
861.46	1601.51
861.63	1654.76
861.79	1728.49
861.96	1597.42
862.13	1673.19
862.30	1757.16
862.47	1654.76
862.63	1708.01
862.80	1716.20
862.97	1748.97
863.14	1685.48
863.30	1779.68
863.47	1640.42
863.64	1818.60
863.81	1730.53
863.97	1640.42
864.14	1710.05
864.31	1630.18
864.48	1726.44
864.65	1695.72
864.81	1787.88
864.98	1693.67
865.15	1742.82
865.32	1685.48
865.48	1816.55
865.65	1869.80
865.82	1730.53
865.98	1673.19
866.15	1732.58
866.32	1718.25
866.49	1656.81
866.65	1814.50
866.82	1628.14
866.99	1800.16
867.16	1734.63
867.32	1693.67
867.49	1755.11
867.66	1720.29
867.83	1705.96
867.99	1648.61
868.16	1667.05
868.33	1619.94
868.49	1679.33
868.66	1751.01
868.83	1701.86
868.99	1662.95
869.16	1732.58
869.33	1789.92
869.50	1734.63
869.66	1699.81
869.83	1621.99
870.00	1683.43
870.16	1738.73
870.33	1636.33
870.50	1746.92
870.66	1732.58
870.83	1812.45
871.00	1755.11
871.17	1726.44
871.33	1748.97
871.50	1710.05
871.67	1699.81
871.83	1634.28
872.00	1806.31
872.17	1691.62
872.33	1751.01
872.50	1761.25
872.67	1689.57
872.83	1722.34
873.00	1804.26
873.17	1689.57
873.33	1697.77
873.50	1718.25
873.67	1636.33
873.83	1652.71
874.00	1667.05
874.16	1748.97
874.33	1652.71
874.50	1662.95
874.66	1740.77
874.83	1697.77
875.00	1800.16
875.16	1708.01
875.33	1708.01
875.50	1601.51
875.66	1646.57
875.83	1689.57
875.99	1763.30
876.16	1685.48
876.33	1628.14
876.49	1714.15
876.66	1730.53
876.83	1759.21
876.99	1646.57
877.16	1753.06
877.32	1665.00
877.49	1708.01
877.66	1683.43
877.82	1705.96
877.99	1720.29
878.15	1794.02
878.32	1759.21
878.49	1763.30
878.65	1634.28
878.82	1857.51
878.98	1685.48
879.15	1693.67
879.32	1753.06
879.48	1787.88
879.65	1652.71
879.81	1685.48
879.98	1753.06
880.15	1683.43
880.31	1730.53
880.48	1679.33
880.64	1773.54
880.81	1665.00
880.97	1785.83
881.14	1759.21
881.31	1738.73
881.47	1818.60
881.64	1679.33
881.80	1607.66
881.97	1769.44
882.13	1763.30
882.30	1708.01
882.47	1714.15
882.63	1611.75
882.80	1726.44
882.96	1730.53
883.13	1726.44
883.29	1658.85
883.46	1697.77
883.62	1789.92
883.79	1699.81
883.95	1701.86
884.12	1714.15
884.29	1714.15
884.45	1732.58
884.62	1714.15
884.78	1679.33
884.95	1732.58
885.11	1669.09
885.28	1771.49
885.44	1669.09
885.61	1693.67
885.77	1755.11
885.94	1726.44
886.10	1718.25
886.27	1656.81
886.43	1804.26
886.60	1791.97
886.76	1738.73
886.93	1716.20
887.09	1681.38
887.26	1558.50
887.42	1699.81
887.59	1732.58
887.75	1808.36
887.92	1726.44
888.08	1769.44
888.25	1744.87
888.41	1732.58
888.58	1730.53
888.74	1597.42
888.91	1720.29
>>>>>End Processed Spectral Data<<<<<
