SpectraSuite Data File
++++++++++++++++++++++++++++++++++++
Date: Wed May 04 18:44:17 CEST 2016
User: root
Dark Spectrum Present: No
Reference Spectrum Present: No
Number of Sampled Component Spectra: 1
Spectrometers: USB4C02835
Integration Time (usec): 100000 (USB4C02835)
Spectra Averaged: 1 (USB4C02835)
Boxcar Smoothing: 0 (USB4C02835)
Correct for Electrical Dark: No (USB4C02835)
Strobe/Lamp Enabled: No (USB4C02835)
Correct for Detector Non-linearity: No (USB4C02835)
Correct for Stray Light: No (USB4C02835)
Number of Pixels in Processed Spectrum: 3648
>>>>>Begin Processed Spectral Data<<<<<
177.47	1380.33
177.69	1380.33
177.91	1380.33
178.13	1497.07
178.36	1466.35
178.58	1646.57
178.80	1755.11
179.02	1634.28
179.24	1656.81
179.46	1705.96
179.68	1757.16
179.90	1720.29
180.13	1716.20
180.35	1578.98
180.57	1757.16
180.79	1617.90
181.01	1730.53
181.23	1800.16
181.45	1751.01
181.67	1677.29
181.90	1771.49
182.12	1646.57
182.34	1673.19
182.56	1746.92
182.78	1734.63
183.00	1773.54
183.22	1765.35
183.44	1599.46
183.66	1837.03
183.89	1849.32
184.11	1736.68
184.33	1671.14
184.55	1791.97
184.77	1740.77
184.99	1806.31
185.21	1757.16
185.43	1839.08
185.65	1734.63
185.87	1744.87
186.10	1777.64
186.32	1867.75
186.54	1769.44
186.76	1824.74
186.98	1724.39
187.20	1744.87
187.42	1669.09
187.64	1718.25
187.86	1757.16
188.08	1767.40
188.30	1673.19
188.52	1716.20
188.75	1742.82
188.97	1804.26
189.19	1722.34
189.41	1697.77
189.63	1789.92
189.85	1648.61
190.07	1642.47
190.29	1722.34
190.51	1687.53
190.73	1648.61
190.95	1771.49
191.17	1681.38
191.39	1669.09
191.61	1728.49
191.84	1644.52
192.06	1767.40
192.28	1654.76
192.50	1886.18
192.72	1787.88
192.94	1728.49
193.16	1732.58
193.38	1763.30
193.60	1658.85
193.82	1683.43
194.04	1796.07
194.26	1779.68
194.48	1708.01
194.70	1691.62
194.92	1753.06
195.14	1710.05
195.36	1679.33
195.58	1722.34
195.80	1748.97
196.02	1562.60
196.24	1691.62
196.46	1683.43
196.69	1734.63
196.91	1814.50
197.13	1609.70
197.35	1650.66
197.57	1779.68
197.79	1695.72
198.01	1802.21
198.23	1740.77
198.45	1730.53
198.67	1626.09
198.89	1667.05
199.11	1726.44
199.33	1628.14
199.55	1665.00
199.77	1732.58
199.99	1751.01
200.21	1714.15
200.43	1738.73
200.65	1677.29
200.87	1587.18
201.09	1613.80
201.31	1732.58
201.53	1746.92
201.75	1730.53
201.97	1697.77
202.19	1644.52
202.41	1642.47
202.63	1804.26
202.85	1736.68
203.07	1763.30
203.29	1683.43
203.51	1689.57
203.73	1642.47
203.95	1886.18
204.17	1787.88
204.39	1720.29
204.61	1683.43
204.83	1621.99
205.05	1775.59
205.27	1767.40
205.49	1832.93
205.71	1681.38
205.93	1640.42
206.15	1720.29
206.37	1693.67
206.59	1705.96
206.81	1644.52
207.03	1583.08
207.25	1640.42
207.47	1753.06
207.69	1693.67
207.91	1742.82
208.13	1767.40
208.34	1650.66
208.56	1669.09
208.78	1628.14
209.00	1710.05
209.22	1613.80
209.44	1658.85
209.66	1697.77
209.88	1640.42
210.10	1677.29
210.32	1675.24
210.54	1765.35
210.76	1658.85
210.98	1800.16
211.20	1642.47
211.42	1755.11
211.64	1808.36
211.86	1759.21
212.08	1755.11
212.30	1675.24
212.52	1712.10
212.74	1699.81
212.96	1753.06
213.17	1773.54
213.39	1753.06
213.61	1904.61
213.83	1755.11
214.05	1705.96
214.27	1767.40
214.49	1681.38
214.71	1628.14
214.93	1789.92
215.15	1773.54
215.37	1744.87
215.59	1656.81
215.81	1748.97
216.03	1796.07
216.24	1722.34
216.46	1705.96
216.68	1781.73
216.90	1843.17
217.12	1783.78
217.34	1732.58
217.56	1740.77
217.78	1845.22
218.00	1699.81
218.22	1589.22
218.44	1748.97
218.66	1761.25
218.87	1740.77
219.09	1654.76
219.31	1687.53
219.53	1724.39
219.75	1677.29
219.97	1652.71
220.19	1699.81
220.41	1617.90
220.63	1814.50
220.85	1712.10
221.06	1638.38
221.28	1841.12
221.50	1636.33
221.72	1722.34
221.94	1710.05
222.16	1755.11
222.38	1771.49
222.60	1695.72
222.82	1656.81
223.03	1746.92
223.25	1673.19
223.47	1767.40
223.69	1820.64
223.91	1722.34
224.13	1712.10
224.35	1677.29
224.57	1755.11
224.78	1781.73
225.00	1638.38
225.22	1761.25
225.44	1798.12
225.66	1783.78
225.88	1624.04
226.10	1779.68
226.32	1703.91
226.53	1771.49
226.75	1714.15
226.97	1714.15
227.19	1703.91
227.41	1611.75
227.63	1726.44
227.85	1607.66
228.06	1687.53
228.28	1705.96
228.50	1746.92
228.72	1662.95
228.94	1695.72
229.16	1603.56
229.37	1660.90
229.59	1624.04
229.81	1730.53
230.03	1703.91
230.25	1658.85
230.47	1710.05
230.69	1669.09
230.90	1773.54
231.12	1685.48
231.34	1730.53
231.56	1726.44
231.78	1648.61
232.00	1718.25
232.21	1751.01
232.43	1791.97
232.65	1626.09
232.87	1755.11
233.09	1697.77
233.30	1673.19
233.52	1767.40
233.74	1720.29
233.96	1712.10
234.18	1689.57
234.40	1640.42
234.61	1824.74
234.83	1574.89
235.05	1617.90
235.27	1796.07
235.49	1802.21
235.70	1740.77
235.92	1742.82
236.14	1699.81
236.36	1812.45
236.58	1628.14
236.79	1662.95
237.01	1691.62
237.23	1675.24
237.45	1830.88
237.67	1722.34
237.88	1648.61
238.10	1734.63
238.32	1617.90
238.54	1701.86
238.76	1722.34
238.97	1667.05
239.19	1646.57
239.41	1730.53
239.63	1734.63
239.85	1681.38
240.06	1683.43
240.28	1683.43
240.50	1798.12
240.72	1681.38
240.93	1697.77
241.15	1771.49
241.37	1689.57
241.59	1804.26
241.81	1720.29
242.02	1652.71
242.24	1818.60
242.46	1779.68
242.68	1691.62
242.89	1660.90
243.11	1701.86
243.33	1761.25
243.55	1779.68
243.76	1636.33
243.98	1624.04
244.20	1728.49
244.42	1751.01
244.64	1691.62
244.85	1564.65
245.07	1740.77
245.29	1718.25
245.51	1652.71
245.72	1757.16
245.94	1791.97
246.16	1783.78
246.38	1734.63
246.59	1632.23
246.81	1578.98
247.03	1605.61
247.24	1613.80
247.46	1638.38
247.68	1765.35
247.90	1685.48
248.11	1732.58
248.33	1785.83
248.55	1701.86
248.77	1710.05
248.98	1744.87
249.20	1824.74
249.42	1738.73
249.64	1691.62
249.85	1628.14
250.07	1646.57
250.29	1757.16
250.50	1761.25
250.72	1640.42
250.94	1824.74
251.16	1824.74
251.37	1722.34
251.59	1722.34
251.81	1748.97
252.02	1849.32
252.24	1695.72
252.46	1767.40
252.68	1673.19
252.89	1595.37
253.11	1650.66
253.33	1865.70
253.54	1771.49
253.76	1613.80
253.98	1712.10
254.20	1736.68
254.41	1619.94
254.63	1740.77
254.85	1630.18
255.06	1724.39
255.28	1755.11
255.50	1714.15
255.71	1697.77
255.93	1607.66
256.15	1675.24
256.36	1689.57
256.58	1755.11
256.80	1742.82
257.02	1677.29
257.23	1673.19
257.45	1685.48
257.67	1796.07
257.88	1687.53
258.10	1710.05
258.32	1693.67
258.53	1763.30
258.75	1796.07
258.97	1732.58
259.18	1724.39
259.40	1681.38
259.62	1775.59
259.83	1757.16
260.05	1855.46
260.27	1976.29
260.48	1802.21
260.70	1658.85
260.92	1669.09
261.13	1630.18
261.35	1720.29
261.57	1708.01
261.78	1624.04
262.00	1675.24
262.22	1718.25
262.43	1665.00
262.65	1740.77
262.86	1716.20
263.08	1855.46
263.30	1699.81
263.51	1646.57
263.73	1640.42
263.95	1820.64
264.16	1687.53
264.38	1679.33
264.60	1789.92
264.81	1687.53
265.03	1714.15
265.25	1746.92
265.46	1705.96
265.68	1812.45
265.89	1722.34
266.11	1662.95
266.33	1736.68
266.54	1769.44
266.76	1738.73
266.98	1767.40
267.19	1730.53
267.41	1716.20
267.62	1681.38
267.84	1669.09
268.06	1755.11
268.27	1693.67
268.49	1710.05
268.70	1699.81
268.92	1656.81
269.14	1576.94
269.35	1640.42
269.57	1705.96
269.79	1728.49
270.00	1652.71
270.22	1755.11
270.43	1583.08
270.65	1601.51
270.87	1681.38
271.08	1818.60
271.30	1728.49
271.51	1718.25
271.73	1722.34
271.95	1722.34
272.16	1687.53
272.38	1742.82
272.59	1701.86
272.81	1830.88
273.02	1736.68
273.24	1708.01
273.46	1734.63
273.67	1654.76
273.89	1730.53
274.10	1679.33
274.32	1775.59
274.54	1714.15
274.75	1708.01
274.97	1667.05
275.18	1753.06
275.40	1740.77
275.61	1658.85
275.83	1744.87
276.05	1626.09
276.26	1742.82
276.48	1738.73
276.69	1699.81
276.91	1695.72
277.12	1796.07
277.34	1755.11
277.55	1806.31
277.77	1718.25
277.99	1732.58
278.20	1691.62
278.42	1626.09
278.63	1652.71
278.85	1755.11
279.06	1675.24
279.28	1738.73
279.49	1841.12
279.71	1767.40
279.93	1644.52
280.14	1746.92
280.36	1685.48
280.57	1746.92
280.79	1740.77
281.00	1691.62
281.22	1626.09
281.43	1746.92
281.65	1615.85
281.86	1650.66
282.08	1775.59
282.29	1843.17
282.51	1621.99
282.73	1607.66
282.94	1640.42
283.16	1804.26
283.37	1820.64
283.59	1705.96
283.80	1695.72
284.02	1724.39
284.23	1757.16
284.45	1656.81
284.66	1669.09
284.88	1658.85
285.09	1705.96
285.31	1751.01
285.52	1644.52
285.74	1656.81
285.95	1808.36
286.17	1714.15
286.38	1759.21
286.60	1687.53
286.81	1689.57
287.03	1701.86
287.24	1605.61
287.46	1697.77
287.67	1716.20
287.89	1855.46
288.10	1642.47
288.32	1734.63
288.53	1675.24
288.75	1705.96
288.96	1748.97
289.18	1718.25
289.39	1697.77
289.61	1746.92
289.82	1832.93
290.04	1804.26
290.25	1652.71
290.47	1699.81
290.68	1675.24
290.90	1781.73
291.11	1701.86
291.33	1718.25
291.54	1742.82
291.76	1755.11
291.97	1705.96
292.18	1730.53
292.40	1644.52
292.61	1626.09
292.83	1859.56
293.04	1710.05
293.26	1671.14
293.47	1679.33
293.69	1603.56
293.90	1695.72
294.12	1767.40
294.33	1677.29
294.55	1812.45
294.76	1826.79
294.97	1746.92
295.19	1802.21
295.40	1738.73
295.62	1798.12
295.83	1736.68
296.05	1644.52
296.26	1759.21
296.48	1738.73
296.69	1794.02
296.90	1617.90
297.12	1669.09
297.33	1834.98
297.55	1724.39
297.76	1656.81
297.98	1697.77
298.19	1617.90
298.41	1722.34
298.62	1660.90
298.83	1794.02
299.05	1652.71
299.26	1679.33
299.48	1634.28
299.69	1730.53
299.90	1703.91
300.12	1665.00
300.33	1740.77
300.55	1687.53
300.76	1730.53
300.98	1677.29
301.19	1705.96
301.40	1705.96
301.62	1742.82
301.83	1746.92
302.05	1712.10
302.26	1652.71
302.47	1763.30
302.69	1642.47
302.90	1732.58
303.12	1632.23
303.33	1734.63
303.54	1806.31
303.76	1648.61
303.97	1773.54
304.19	1771.49
304.40	1730.53
304.61	1724.39
304.83	1769.44
305.04	1716.20
305.26	1705.96
305.47	1656.81
305.68	1691.62
305.90	1624.04
306.11	1712.10
306.33	1669.09
306.54	1624.04
306.75	1597.42
306.97	1624.04
307.18	1570.79
307.39	1642.47
307.61	1740.77
307.82	1685.48
308.04	1697.77
308.25	1687.53
308.46	1755.11
308.68	1667.05
308.89	1748.97
309.10	1746.92
309.32	1699.81
309.53	1685.48
309.74	1789.92
309.96	1736.68
310.17	1767.40
310.39	1601.51
310.60	1808.36
310.81	1763.30
311.03	1665.00
311.24	1675.24
311.45	1746.92
311.67	1800.16
311.88	1708.01
312.09	1669.09
312.31	1644.52
312.52	1712.10
312.73	1648.61
312.95	1671.14
313.16	1679.33
313.37	1687.53
313.59	1746.92
313.80	1755.11
314.01	1738.73
314.23	1681.38
314.44	1593.32
314.65	1642.47
314.87	1734.63
315.08	1710.05
315.29	1687.53
315.51	1640.42
315.72	1658.85
315.93	1771.49
316.15	1746.92
316.36	1669.09
316.57	1798.12
316.79	1687.53
317.00	1669.09
317.21	1699.81
317.43	1648.61
317.64	1648.61
317.85	1681.38
318.07	1759.21
318.28	1761.25
318.49	1794.02
318.70	1916.90
318.92	1863.65
319.13	1894.37
319.34	1875.94
319.56	1724.39
319.77	1859.56
319.98	1882.08
320.20	1931.23
320.41	1748.97
320.62	1746.92
320.83	1701.86
321.05	1904.61
321.26	1718.25
321.47	1726.44
321.69	1710.05
321.90	1669.09
322.11	1660.90
322.32	1732.58
322.54	1775.59
322.75	1730.53
322.96	1812.45
323.18	1605.61
323.39	1605.61
323.60	1640.42
323.81	1753.06
324.03	1730.53
324.24	1679.33
324.45	1697.77
324.66	1681.38
324.88	1814.50
325.09	1884.13
325.30	1728.49
325.52	1718.25
325.73	1714.15
325.94	1665.00
326.15	1658.85
326.37	1691.62
326.58	1701.86
326.79	1771.49
327.00	1628.14
327.22	1697.77
327.43	1677.29
327.64	1605.61
327.85	1730.53
328.07	1740.77
328.28	1800.16
328.49	1695.72
328.70	1701.86
328.92	1701.86
329.13	1744.87
329.34	1748.97
329.55	1834.98
329.76	1744.87
329.98	1689.57
330.19	1769.44
330.40	1712.10
330.61	1734.63
330.83	1736.68
331.04	1730.53
331.25	1613.80
331.46	1650.66
331.68	1601.51
331.89	1779.68
332.10	1701.86
332.31	1644.52
332.52	1710.05
332.74	1724.39
332.95	1636.33
333.16	1677.29
333.37	1781.73
333.58	1710.05
333.80	1736.68
334.01	1671.14
334.22	1726.44
334.43	1681.38
334.64	1759.21
334.86	1601.51
335.07	1611.75
335.28	1746.92
335.49	1679.33
335.70	1720.29
335.92	1671.14
336.13	1767.40
336.34	1787.88
336.55	1714.15
336.76	1714.15
336.98	1646.57
337.19	1693.67
337.40	1814.50
337.61	1865.70
337.82	1695.72
338.04	1773.54
338.25	1687.53
338.46	1646.57
338.67	1730.53
338.88	1671.14
339.09	1740.77
339.31	1693.67
339.52	1613.80
339.73	1650.66
339.94	1652.71
340.15	1798.12
340.36	1656.81
340.58	1781.73
340.79	1671.14
341.00	1781.73
341.21	1640.42
341.42	1783.78
341.63	1724.39
341.85	1695.72
342.06	1804.26
342.27	1679.33
342.48	1650.66
342.69	1658.85
342.90	1712.10
343.12	1746.92
343.33	1675.24
343.54	1744.87
343.75	1804.26
343.96	1712.10
344.17	1609.70
344.38	1726.44
344.60	1660.90
344.81	1695.72
345.02	1744.87
345.23	1757.16
345.44	1900.52
345.65	1730.53
345.86	1728.49
346.07	1744.87
346.29	1652.71
346.50	1753.06
346.71	1759.21
346.92	1730.53
347.13	1830.88
347.34	1705.96
347.55	1648.61
347.76	1714.15
347.98	1632.23
348.19	1695.72
348.40	1757.16
348.61	1701.86
348.82	1837.03
349.03	1759.21
349.24	1640.42
349.45	1800.16
349.66	1533.93
349.88	1724.39
350.09	1699.81
350.30	1798.12
350.51	1748.97
350.72	1720.29
350.93	1785.83
351.14	1646.57
351.35	1767.40
351.56	1697.77
351.77	1726.44
351.99	1742.82
352.20	1773.54
352.41	1744.87
352.62	1648.61
352.83	1687.53
353.04	1732.58
353.25	1732.58
353.46	1798.12
353.67	1755.11
353.88	1589.22
354.09	1671.14
354.30	1728.49
354.52	1791.97
354.73	1718.25
354.94	1716.20
355.15	1734.63
355.36	1779.68
355.57	1662.95
355.78	1701.86
355.99	1716.20
356.20	1701.86
356.41	1771.49
356.62	1712.10
356.83	1673.19
357.04	1736.68
357.25	1626.09
357.46	1695.72
357.68	1613.80
357.89	1609.70
358.10	1722.34
358.31	1693.67
358.52	1681.38
358.73	1658.85
358.94	1724.39
359.15	1712.10
359.36	1757.16
359.57	1730.53
359.78	1722.34
359.99	1650.66
360.20	1650.66
360.41	1640.42
360.62	1695.72
360.83	1722.34
361.04	1705.96
361.25	1783.78
361.46	1767.40
361.67	1804.26
361.88	1734.63
362.09	1761.25
362.30	1705.96
362.51	1660.90
362.72	1697.77
362.93	1757.16
363.14	1798.12
363.35	1730.53
363.56	1736.68
363.78	1734.63
363.99	1796.07
364.20	1632.23
364.41	1785.83
364.62	1841.12
364.83	1787.88
365.04	1730.53
365.25	1763.30
365.46	1834.98
365.67	1712.10
365.88	1728.49
366.09	1695.72
366.30	1685.48
366.51	1767.40
366.72	1648.61
366.93	1701.86
367.14	1683.43
367.35	1861.60
367.56	1636.33
367.77	1820.64
367.98	1765.35
368.18	1761.25
368.39	1812.45
368.60	1642.47
368.81	1693.67
369.02	1689.57
369.23	1710.05
369.44	1613.80
369.65	1675.24
369.86	1710.05
370.07	1732.58
370.28	1630.18
370.49	1669.09
370.70	1800.16
370.91	1634.28
371.12	1714.15
371.33	1734.63
371.54	1705.96
371.75	1826.79
371.96	1673.19
372.17	1724.39
372.38	1699.81
372.59	1734.63
372.80	1673.19
373.01	1654.76
373.22	1740.77
373.43	1703.91
373.64	1665.00
373.85	1773.54
374.06	1767.40
374.26	1720.29
374.47	1718.25
374.68	1765.35
374.89	1681.38
375.10	1652.71
375.31	1787.88
375.52	1697.77
375.73	1763.30
375.94	1695.72
376.15	1765.35
376.36	1644.52
376.57	1703.91
376.78	1667.05
376.99	1748.97
377.20	1830.88
377.40	1656.81
377.61	1779.68
377.82	1660.90
378.03	1808.36
378.24	1724.39
378.45	1724.39
378.66	1697.77
378.87	1648.61
379.08	1648.61
379.29	1673.19
379.50	1736.68
379.71	1736.68
379.91	1796.07
380.12	1675.24
380.33	1742.82
380.54	1714.15
380.75	1708.01
380.96	1679.33
381.17	1785.83
381.38	1738.73
381.59	1800.16
381.80	1777.64
382.00	1853.41
382.21	1771.49
382.42	1873.89
382.63	1959.91
382.84	1753.06
383.05	1806.31
383.26	1877.99
383.47	1730.53
383.68	1755.11
383.88	1765.35
384.09	1708.01
384.30	1832.93
384.51	1728.49
384.72	1685.48
384.93	1597.42
385.14	1781.73
385.35	1771.49
385.55	1642.47
385.76	1753.06
385.97	1728.49
386.18	1624.04
386.39	1689.57
386.60	1658.85
386.81	1712.10
387.02	1732.58
387.22	1748.97
387.43	1787.88
387.64	1818.60
387.85	1880.04
388.06	2285.53
388.27	4736.95
388.48	9060.21
388.68	11429.71
388.89	13383.48
389.10	13784.88
389.31	11761.48
389.52	9607.02
389.73	8435.58
389.93	7849.86
390.14	7075.73
390.35	6395.81
390.56	6080.42
390.77	4884.41
390.98	3942.34
391.18	3141.58
391.39	2365.40
391.60	1892.32
391.81	1834.98
392.02	1685.48
392.23	1810.40
392.43	1691.62
392.64	1826.79
392.85	1718.25
393.06	1849.32
393.27	1736.68
393.47	1687.53
393.68	1773.54
393.89	1691.62
394.10	1779.68
394.31	1681.38
394.52	1679.33
394.72	1650.66
394.93	1748.97
395.14	1699.81
395.35	1759.21
395.56	1669.09
395.76	1771.49
395.97	1753.06
396.18	1908.71
396.39	1859.56
396.60	2062.30
396.80	1986.53
397.01	1855.46
397.22	1746.92
397.43	1865.70
397.64	1755.11
397.84	1785.83
398.05	1814.50
398.26	1755.11
398.47	1798.12
398.67	1779.68
398.88	1675.24
399.09	1787.88
399.30	1712.10
399.51	1771.49
399.71	1730.53
399.92	1726.44
400.13	1730.53
400.34	1730.53
400.54	1667.05
400.75	1851.36
400.96	1724.39
401.17	1822.69
401.37	1738.73
401.58	1660.90
401.79	1697.77
402.00	1863.65
402.21	2009.06
402.41	2129.89
402.62	2105.31
402.83	2164.70
403.04	2136.03
403.24	2093.02
403.45	1855.46
403.66	2000.87
403.87	1920.99
404.07	1953.76
404.28	1929.19
404.49	1998.82
404.70	1800.16
404.90	1824.74
405.11	1791.97
405.32	1746.92
405.52	1722.34
405.73	1712.10
405.94	1734.63
406.15	1699.81
406.35	1755.11
406.56	1748.97
406.77	1789.92
406.98	1714.15
407.18	1648.61
407.39	1826.79
407.60	1687.53
407.80	1773.54
408.01	1628.14
408.22	1691.62
408.43	1617.90
408.63	1646.57
408.84	1806.31
409.05	1720.29
409.25	1658.85
409.46	1679.33
409.67	1648.61
409.88	1650.66
410.08	1753.06
410.29	1701.86
410.50	1748.97
410.70	1746.92
410.91	1642.47
411.12	1730.53
411.32	1701.86
411.53	1789.92
411.74	1775.59
411.95	1820.64
412.15	1755.11
412.36	1804.26
412.57	1794.02
412.77	1820.64
412.98	1748.97
413.19	1738.73
413.39	1798.12
413.60	1812.45
413.81	1839.08
414.01	1710.05
414.22	1773.54
414.43	1796.07
414.63	1755.11
414.84	1730.53
415.05	1796.07
415.25	1638.38
415.46	1751.01
415.67	1769.44
415.87	1796.07
416.08	1687.53
416.29	1705.96
416.49	1738.73
416.70	1669.09
416.91	1697.77
417.11	1691.62
417.32	1753.06
417.53	1824.74
417.73	1767.40
417.94	1701.86
418.15	1708.01
418.35	1767.40
418.56	1714.15
418.77	1886.18
418.97	1701.86
419.18	1734.63
419.38	1611.75
419.59	1746.92
419.80	1748.97
420.00	1701.86
420.21	1708.01
420.42	1837.03
420.62	1757.16
420.83	1714.15
421.04	1712.10
421.24	1761.25
421.45	1791.97
421.65	1812.45
421.86	1699.81
422.07	1824.74
422.27	1740.77
422.48	1615.85
422.69	1703.91
422.89	1691.62
423.10	1683.43
423.30	1658.85
423.51	1710.05
423.72	1718.25
423.92	1712.10
424.13	1695.72
424.33	1753.06
424.54	1734.63
424.75	1712.10
424.95	1783.78
425.16	1820.64
425.36	1720.29
425.57	1830.88
425.78	1740.77
425.98	1732.58
426.19	1632.23
426.39	1712.10
426.60	1679.33
426.81	1816.55
427.01	1742.82
427.22	1716.20
427.42	1595.37
427.63	1691.62
427.83	1728.49
428.04	1763.30
428.25	1783.78
428.45	1849.32
428.66	1791.97
428.86	1693.67
429.07	1726.44
429.28	1751.01
429.48	1662.95
429.69	1744.87
429.89	1665.00
430.10	1624.04
430.30	1703.91
430.51	1779.68
430.71	1679.33
430.92	1691.62
431.13	1669.09
431.33	1742.82
431.54	1742.82
431.74	1820.64
431.95	1804.26
432.15	1701.86
432.36	1699.81
432.56	1804.26
432.77	1779.68
432.98	1785.83
433.18	1699.81
433.39	1740.77
433.59	1722.34
433.80	1898.47
434.00	1830.88
434.21	1746.92
434.41	1667.05
434.62	1857.51
434.82	1656.81
435.03	1665.00
435.23	1751.01
435.44	1658.85
435.64	1732.58
435.85	1712.10
436.06	1777.64
436.26	1701.86
436.47	1695.72
436.67	1665.00
436.88	1699.81
437.08	1869.80
437.29	1775.59
437.49	1732.58
437.70	1787.88
437.90	1759.21
438.11	1845.22
438.31	1751.01
438.52	1865.70
438.72	1910.75
438.93	1939.43
439.13	1798.12
439.34	1816.55
439.54	1783.78
439.75	1806.31
439.95	1849.32
440.16	1693.67
440.36	1767.40
440.57	1757.16
440.77	1746.92
440.98	1765.35
441.18	1728.49
441.39	1681.38
441.59	1689.57
441.80	1806.31
442.00	1726.44
442.21	1744.87
442.41	1673.19
442.62	1755.11
442.82	1675.24
443.02	1761.25
443.23	1724.39
443.43	1683.43
443.64	1775.59
443.84	1695.72
444.05	1771.49
444.25	1841.12
444.46	1716.20
444.66	1783.78
444.87	1814.50
445.07	1615.85
445.28	1738.73
445.48	1802.21
445.69	1722.34
445.89	1865.70
446.09	1781.73
446.30	1972.19
446.50	2582.49
446.71	4065.22
446.91	5113.78
447.12	5732.26
447.32	6137.76
447.53	5324.72
447.73	4440.00
447.93	4077.51
448.14	3637.19
448.34	3424.20
448.55	3114.96
448.75	3061.71
448.96	2953.17
449.16	2723.80
449.36	2445.27
449.57	2084.83
449.77	1937.38
449.98	1820.64
450.18	1859.56
450.39	1834.98
450.59	1812.45
450.79	1740.77
451.00	1746.92
451.20	1775.59
451.41	1718.25
451.61	1683.43
451.81	1640.42
452.02	1705.96
452.22	1685.48
452.43	1710.05
452.63	1730.53
452.84	1720.29
453.04	1720.29
453.24	1689.57
453.45	1714.15
453.65	1718.25
453.86	1714.15
454.06	1804.26
454.26	1763.30
454.47	1740.77
454.67	1798.12
454.87	1685.48
455.08	1736.68
455.28	1808.36
455.49	1726.44
455.69	1652.71
455.89	1890.28
456.10	1814.50
456.30	1738.73
456.51	1703.91
456.71	1697.77
456.91	1800.16
457.12	1753.06
457.32	1748.97
457.52	1609.70
457.73	1796.07
457.93	1806.31
458.14	1728.49
458.34	1746.92
458.54	1691.62
458.75	1697.77
458.95	1720.29
459.15	1724.39
459.36	1816.55
459.56	1769.44
459.76	1802.21
459.97	1726.44
460.17	1728.49
460.37	1781.73
460.58	1722.34
460.78	1742.82
460.99	1818.60
461.19	1712.10
461.39	1720.29
461.60	1714.15
461.80	1724.39
462.00	1617.90
462.21	1710.05
462.41	1701.86
462.61	1658.85
462.82	1638.38
463.02	1744.87
463.22	1769.44
463.43	1791.97
463.63	1759.21
463.83	1812.45
464.04	1736.68
464.24	1740.77
464.44	1677.29
464.64	1714.15
464.85	1736.68
465.05	1667.05
465.25	1714.15
465.46	1683.43
465.66	1816.55
465.86	1759.21
466.07	1667.05
466.27	1757.16
466.47	1714.15
466.68	1607.66
466.88	1789.92
467.08	1767.40
467.29	1791.97
467.49	1751.01
467.69	1742.82
467.89	1701.86
468.10	1660.90
468.30	1730.53
468.50	1808.36
468.71	1796.07
468.91	1624.04
469.11	1853.41
469.31	1626.09
469.52	1763.30
469.72	1802.21
469.92	1804.26
470.13	1785.83
470.33	1738.73
470.53	1863.65
470.73	2133.98
470.94	2521.05
471.14	2674.65
471.34	2994.13
471.54	2926.55
471.75	2559.96
471.95	2338.78
472.15	2291.68
472.36	2250.72
472.56	2228.19
472.76	2207.71
472.96	2037.73
473.17	2105.31
473.37	2107.36
473.57	1804.26
473.77	1927.14
473.98	1816.55
474.18	1716.20
474.38	1951.71
474.58	1662.95
474.79	1740.77
474.99	1775.59
475.19	1777.64
475.39	1652.71
475.60	1718.25
475.80	1724.39
476.00	1740.77
476.20	1662.95
476.41	1730.53
476.61	1859.56
476.81	1791.97
477.01	1687.53
477.21	1787.88
477.42	1746.92
477.62	1636.33
477.82	1781.73
478.02	1724.39
478.23	1742.82
478.43	1642.47
478.63	1656.81
478.83	1710.05
479.03	1751.01
479.24	1726.44
479.44	1863.65
479.64	1718.25
479.84	1593.32
480.04	1705.96
480.25	1789.92
480.45	1630.18
480.65	1765.35
480.85	1828.84
481.06	1746.92
481.26	1789.92
481.46	1785.83
481.66	1767.40
481.86	1681.38
482.06	1746.92
482.27	1724.39
482.47	1722.34
482.67	1732.58
482.87	1716.20
483.07	1773.54
483.28	1644.52
483.48	1621.99
483.68	1757.16
483.88	1656.81
484.08	1652.71
484.29	1634.28
484.49	1691.62
484.69	1759.21
484.89	1718.25
485.09	1746.92
485.29	1781.73
485.50	1798.12
485.70	1673.19
485.90	1779.68
486.10	1691.62
486.30	1767.40
486.50	1755.11
486.71	1734.63
486.91	1812.45
487.11	1847.27
487.31	1671.14
487.51	1734.63
487.71	1644.52
487.91	1677.29
488.12	1667.05
488.32	1685.48
488.52	1728.49
488.72	1605.61
488.92	1755.11
489.12	1847.27
489.32	1753.06
489.53	1751.01
489.73	1689.57
489.93	1814.50
490.13	1724.39
490.33	1652.71
490.53	1783.78
490.73	1703.91
490.94	1656.81
491.14	1753.06
491.34	1837.03
491.54	2166.75
491.74	2703.32
491.94	3172.30
492.14	3395.53
492.34	3514.31
492.54	3080.14
492.75	2664.41
492.95	2590.68
493.15	2422.75
493.35	2420.70
493.55	2367.45
493.75	2211.81
493.95	2246.62
494.15	2119.65
494.35	1863.65
494.56	1902.56
494.76	1820.64
494.96	1824.74
495.16	1728.49
495.36	1767.40
495.56	1767.40
495.76	1720.29
495.96	1759.21
496.16	1751.01
496.36	1798.12
496.56	1759.21
496.77	1728.49
496.97	1722.34
497.17	1839.08
497.37	1701.86
497.57	1777.64
497.77	1652.71
497.97	1738.73
498.17	1730.53
498.37	1705.96
498.57	1734.63
498.77	1650.66
498.97	1759.21
499.17	1837.03
499.38	1701.86
499.58	1718.25
499.78	1781.73
499.98	1818.60
500.18	1699.81
500.38	1687.53
500.58	2031.58
500.78	2447.32
500.98	4628.41
501.18	6500.25
501.38	8187.78
501.58	9002.87
501.78	8814.46
501.98	6793.11
502.18	5750.70
502.38	4962.23
502.58	4444.09
502.78	4118.47
502.98	3932.10
503.18	3885.00
503.38	3510.22
503.59	3143.63
503.79	2889.68
503.99	2656.22
504.19	2349.02
504.39	2437.08
504.59	2340.83
504.79	2330.59
504.99	2342.88
505.19	2086.88
505.39	2031.58
505.59	2035.68
505.79	1976.29
505.99	1918.95
506.19	1847.27
506.39	1933.28
506.59	1779.68
506.79	1814.50
506.99	1816.55
507.19	1816.55
507.39	1773.54
507.59	1632.23
507.79	1728.49
507.99	1716.20
508.19	1773.54
508.39	1691.62
508.59	1767.40
508.79	1845.22
508.99	1896.42
509.19	1673.19
509.39	1816.55
509.59	1771.49
509.79	1720.29
509.99	1734.63
510.19	1816.55
510.39	1775.59
510.59	1699.81
510.79	1718.25
510.99	1705.96
511.19	1732.58
511.39	1886.18
511.59	1769.44
511.79	1724.39
511.99	1665.00
512.19	1828.84
512.38	1767.40
512.58	1689.57
512.78	1812.45
512.98	1781.73
513.18	1789.92
513.38	1626.09
513.58	1763.30
513.78	1728.49
513.98	1701.86
514.18	1714.15
514.38	1667.05
514.58	1759.21
514.78	1617.90
514.98	1716.20
515.18	1724.39
515.38	1646.57
515.58	1804.26
515.78	1753.06
515.98	1757.16
516.18	1781.73
516.38	1732.58
516.57	1730.53
516.77	1685.48
516.97	1761.25
517.17	1732.58
517.37	1685.48
517.57	1779.68
517.77	1794.02
517.97	1681.38
518.17	1753.06
518.37	1701.86
518.57	1703.91
518.77	1695.72
518.97	1716.20
519.16	1673.19
519.36	1812.45
519.56	1744.87
519.76	1771.49
519.96	1669.09
520.16	1828.84
520.36	1718.25
520.56	1830.88
520.76	1636.33
520.96	1789.92
521.16	1728.49
521.35	1834.98
521.55	1812.45
521.75	1779.68
521.95	1691.62
522.15	1746.92
522.35	1667.05
522.55	1708.01
522.75	1748.97
522.95	1763.30
523.14	1705.96
523.34	1814.50
523.54	1728.49
523.74	1845.22
523.94	1783.78
524.14	1665.00
524.34	1751.01
524.54	1791.97
524.73	1791.97
524.93	1779.68
525.13	1744.87
525.33	1640.42
525.53	1847.27
525.73	1806.31
525.93	1769.44
526.13	1714.15
526.32	1753.06
526.52	1781.73
526.72	1714.15
526.92	1697.77
527.12	1665.00
527.32	1697.77
527.52	1701.86
527.71	1757.16
527.91	1685.48
528.11	1765.35
528.31	1722.34
528.51	1654.76
528.71	1722.34
528.90	1767.40
529.10	1775.59
529.30	1816.55
529.50	1613.80
529.70	1759.21
529.90	1683.43
530.09	1775.59
530.29	1714.15
530.49	1685.48
530.69	1867.75
530.89	1746.92
531.09	1820.64
531.28	1718.25
531.48	1812.45
531.68	1744.87
531.88	1773.54
532.08	1777.64
532.28	1634.28
532.47	1736.68
532.67	1773.54
532.87	1769.44
533.07	1701.86
533.27	1898.47
533.46	1757.16
533.66	1724.39
533.86	1769.44
534.06	1761.25
534.26	1802.21
534.45	1755.11
534.65	1748.97
534.85	1771.49
535.05	1714.15
535.25	1757.16
535.44	1607.66
535.64	1761.25
535.84	1738.73
536.04	1726.44
536.24	1681.38
536.43	1718.25
536.63	1757.16
536.83	1736.68
537.03	1748.97
537.22	1681.38
537.42	1667.05
537.62	1779.68
537.82	1654.76
538.02	1804.26
538.21	1820.64
538.41	1865.70
538.61	1732.58
538.81	1701.86
539.00	1837.03
539.20	1675.24
539.40	1699.81
539.60	1736.68
539.79	1826.79
539.99	1726.44
540.19	1665.00
540.39	1667.05
540.58	1701.86
540.78	1794.02
540.98	1757.16
541.18	1738.73
541.37	1816.55
541.57	1738.73
541.77	1753.06
541.97	1757.16
542.16	1681.38
542.36	1691.62
542.56	1845.22
542.76	1863.65
542.95	1814.50
543.15	1728.49
543.35	1718.25
543.54	1687.53
543.74	1724.39
543.94	1771.49
544.14	1712.10
544.33	1796.07
544.53	1693.67
544.73	1669.09
544.93	1705.96
545.12	1728.49
545.32	1720.29
545.52	1740.77
545.71	1689.57
545.91	1681.38
546.11	1798.12
546.30	1677.29
546.50	1787.88
546.70	1757.16
546.90	1771.49
547.09	1697.77
547.29	1685.48
547.49	1755.11
547.68	1828.84
547.88	1675.24
548.08	1744.87
548.27	2138.08
548.47	1630.18
548.67	1671.14
548.87	1859.56
549.06	1732.58
549.26	1703.91
549.46	1834.98
549.65	1738.73
549.85	1757.16
550.05	1808.36
550.24	1652.71
550.44	1765.35
550.64	1697.77
550.83	1744.87
551.03	1755.11
551.23	1820.64
551.42	1857.51
551.62	1693.67
551.82	1736.68
552.01	1662.95
552.21	1767.40
552.41	1701.86
552.60	1845.22
552.80	1701.86
553.00	1656.81
553.19	1746.92
553.39	1812.45
553.59	1697.77
553.78	1730.53
553.98	1763.30
554.17	1677.29
554.37	1798.12
554.57	1834.98
554.76	1683.43
554.96	1816.55
555.16	1757.16
555.35	1775.59
555.55	1724.39
555.75	1810.40
555.94	1787.88
556.14	1677.29
556.33	1763.30
556.53	1761.25
556.73	1755.11
556.92	1851.36
557.12	1794.02
557.32	1951.71
557.51	1822.69
557.71	1779.68
557.90	1798.12
558.10	1787.88
558.30	1751.01
558.49	1712.10
558.69	1744.87
558.88	1720.29
559.08	1665.00
559.28	1710.05
559.47	1675.24
559.67	1791.97
559.86	1787.88
560.06	1789.92
560.26	1802.21
560.45	1816.55
560.65	1673.19
560.84	1783.78
561.04	1671.14
561.24	1763.30
561.43	1671.14
561.63	1871.84
561.82	1748.97
562.02	1767.40
562.22	1632.23
562.41	1730.53
562.61	1738.73
562.80	1705.96
563.00	1865.70
563.19	1769.44
563.39	1775.59
563.59	1796.07
563.78	1730.53
563.98	1658.85
564.17	1705.96
564.37	1603.56
564.56	1714.15
564.76	1632.23
564.96	1794.02
565.15	1804.26
565.35	1816.55
565.54	1660.90
565.74	1779.68
565.93	1734.63
566.13	1730.53
566.32	1769.44
566.52	1763.30
566.71	1820.64
566.91	1812.45
567.11	1738.73
567.30	1720.29
567.50	1757.16
567.69	1771.49
567.89	1691.62
568.08	1599.46
568.28	1689.57
568.47	1669.09
568.67	1746.92
568.86	1804.26
569.06	1857.51
569.25	1695.72
569.45	1732.58
569.64	1714.15
569.84	1710.05
570.04	1816.55
570.23	1658.85
570.43	1701.86
570.62	1701.86
570.82	1865.70
571.01	1630.18
571.21	1671.14
571.40	1697.77
571.60	1830.88
571.79	1806.31
571.99	1759.21
572.18	1701.86
572.38	1742.82
572.57	1734.63
572.77	1759.21
572.96	1839.08
573.16	1730.53
573.35	1714.15
573.55	1935.33
573.74	1724.39
573.94	1783.78
574.13	1753.06
574.33	1755.11
574.52	1822.69
574.71	1800.16
574.91	1710.05
575.10	1751.01
575.30	1734.63
575.49	1759.21
575.69	1748.97
575.88	1806.31
576.08	1800.16
576.27	1845.22
576.47	1765.35
576.66	1812.45
576.86	1849.32
577.05	1839.08
577.25	1816.55
577.44	1931.23
577.64	1724.39
577.83	1818.60
578.02	1751.01
578.22	1890.28
578.41	1875.94
578.61	1800.16
578.80	1660.90
579.00	1777.64
579.19	1748.97
579.39	1757.16
579.58	1767.40
579.77	1769.44
579.97	1880.04
580.16	1824.74
580.36	1816.55
580.55	1822.69
580.75	1849.32
580.94	1757.16
581.13	1845.22
581.33	1902.56
581.52	1769.44
581.72	1931.23
581.91	1937.38
582.11	1699.81
582.30	1873.89
582.49	1800.16
582.69	1839.08
582.88	1757.16
583.08	1865.70
583.27	1834.98
583.47	1730.53
583.66	1665.00
583.85	1755.11
584.05	1722.34
584.24	1800.16
584.44	1777.64
584.63	1892.32
584.82	1882.08
585.02	1908.71
585.21	1968.10
585.41	1920.99
585.60	1968.10
585.79	2013.15
585.99	1974.24
586.18	1961.95
586.37	2217.95
586.57	3416.01
586.76	9844.59
586.96	26855.01
587.15	41373.06
587.34	51219.70
587.54	57316.50
587.73	55012.54
587.93	39675.30
588.12	29234.75
588.31	23520.92
588.51	20332.23
588.70	18521.83
588.89	16852.73
589.09	15288.09
589.28	13575.98
589.47	11269.97
589.67	9394.03
589.86	7235.47
590.06	5486.51
590.25	4110.27
590.44	3176.40
590.64	2619.35
590.83	2242.53
591.02	2164.70
591.22	2035.68
591.41	1955.81
591.60	1832.93
591.80	1998.82
591.99	1771.49
592.18	1789.92
592.38	1880.04
592.57	1773.54
592.76	1787.88
592.96	1832.93
593.15	1732.58
593.34	1820.64
593.54	1789.92
593.73	1853.41
593.92	1816.55
594.12	1841.12
594.31	1820.64
594.50	1937.38
594.70	1820.64
594.89	1865.70
595.08	1697.77
595.28	1781.73
595.47	1894.37
595.66	1814.50
595.86	1708.01
596.05	1740.77
596.24	1816.55
596.43	1718.25
596.63	1861.60
596.82	1785.83
597.01	1839.08
597.21	1908.71
597.40	1867.75
597.59	1796.07
597.79	1746.92
597.98	1787.88
598.17	1794.02
598.36	1755.11
598.56	1794.02
598.75	1665.00
598.94	1742.82
599.14	1783.78
599.33	1685.48
599.52	1767.40
599.71	1800.16
599.91	1861.60
600.10	1734.63
600.29	1851.36
600.48	1849.32
600.68	1798.12
600.87	1787.88
601.06	1718.25
601.26	1841.12
601.45	1742.82
601.64	1710.05
601.83	1841.12
602.03	1703.91
602.22	1665.00
602.41	1832.93
602.60	1834.98
602.80	1828.84
602.99	1730.53
603.18	1728.49
603.37	1810.40
603.57	1798.12
603.76	1802.21
603.95	1822.69
604.14	1757.16
604.34	1683.43
604.53	1751.01
604.72	1783.78
604.91	1863.65
605.10	1763.30
605.30	1685.48
605.49	1837.03
605.68	1783.78
605.87	1769.44
606.07	1693.67
606.26	1777.64
606.45	1763.30
606.64	1734.63
606.84	1785.83
607.03	1800.16
607.22	1865.70
607.41	1814.50
607.60	1785.83
607.80	1779.68
607.99	1771.49
608.18	1777.64
608.37	1742.82
608.56	1691.62
608.76	1830.88
608.95	1884.13
609.14	1785.83
609.33	1902.56
609.52	1837.03
609.72	1826.79
609.91	1808.36
610.10	1816.55
610.29	1820.64
610.48	1791.97
610.68	1681.38
610.87	1761.25
611.06	1755.11
611.25	1808.36
611.44	1822.69
611.63	1701.86
611.83	1822.69
612.02	1644.52
612.21	1820.64
612.40	1640.42
612.59	1683.43
612.79	1720.29
612.98	1665.00
613.17	1839.08
613.36	1757.16
613.55	1781.73
613.74	1796.07
613.93	1892.32
614.13	1935.33
614.32	1990.63
614.51	1976.29
614.70	1873.89
614.89	1837.03
615.08	1886.18
615.28	2136.03
615.47	1767.40
615.66	1818.60
615.85	1888.23
616.04	1886.18
616.23	1787.88
616.42	1826.79
616.62	1826.79
616.81	1869.80
617.00	1783.78
617.19	1783.78
617.38	1726.44
617.57	1736.68
617.76	1834.98
617.95	1853.41
618.15	1763.30
618.34	1804.26
618.53	1746.92
618.72	1742.82
618.91	1824.74
619.10	1839.08
619.29	1767.40
619.48	1730.53
619.68	1732.58
619.87	1744.87
620.06	1634.28
620.25	1726.44
620.44	1687.53
620.63	1718.25
620.82	1771.49
621.01	1767.40
621.20	1714.15
621.39	1806.31
621.59	1677.29
621.78	1806.31
621.97	1791.97
622.16	1843.17
622.35	1753.06
622.54	1789.92
622.73	1759.21
622.92	1732.58
623.11	1789.92
623.30	1755.11
623.49	1794.02
623.68	1740.77
623.88	1742.82
624.07	1818.60
624.26	1683.43
624.45	1777.64
624.64	1683.43
624.83	1671.14
625.02	1734.63
625.21	1765.35
625.40	1722.34
625.59	1705.96
625.78	1701.86
625.97	1871.84
626.16	1834.98
626.35	1861.60
626.54	1843.17
626.74	1959.91
626.93	1802.21
627.12	1699.81
627.31	1822.69
627.50	1812.45
627.69	1855.46
627.88	1804.26
628.07	1736.68
628.26	1738.73
628.45	1640.42
628.64	1691.62
628.83	1769.44
629.02	1660.90
629.21	1820.64
629.40	1775.59
629.59	1753.06
629.78	1761.25
629.97	1751.01
630.16	1744.87
630.35	1683.43
630.54	1761.25
630.73	1712.10
630.92	1705.96
631.11	1683.43
631.30	1748.97
631.49	1781.73
631.68	1728.49
631.87	1771.49
632.06	1628.14
632.25	1863.65
632.44	1787.88
632.63	1861.60
632.82	1837.03
633.01	1771.49
633.20	1812.45
633.39	1773.54
633.58	1761.25
633.77	1845.22
633.96	1767.40
634.15	1787.88
634.34	1744.87
634.53	1773.54
634.72	1636.33
634.91	1636.33
635.10	1773.54
635.29	1804.26
635.48	1722.34
635.67	1673.19
635.86	1601.51
636.05	1781.73
636.24	1757.16
636.43	1771.49
636.62	1724.39
636.81	1593.32
637.00	1730.53
637.19	1714.15
637.38	1763.30
637.57	1728.49
637.76	1814.50
637.95	1849.32
638.14	1849.32
638.33	1812.45
638.52	1871.84
638.71	1695.72
638.89	1734.63
639.08	1923.04
639.27	1845.22
639.46	1808.36
639.65	2166.75
639.84	2265.05
640.03	2435.03
640.22	2306.01
640.41	2385.88
640.60	2107.36
640.79	1978.34
640.98	1853.41
641.17	2000.87
641.36	1902.56
641.55	1896.42
641.74	1806.31
641.92	1781.73
642.11	1781.73
642.30	1783.78
642.49	1738.73
642.68	1712.10
642.87	1783.78
643.06	1837.03
643.25	1759.21
643.44	1648.61
643.63	1781.73
643.82	1826.79
644.00	1736.68
644.19	1779.68
644.38	1660.90
644.57	1777.64
644.76	1695.72
644.95	1697.77
645.14	1755.11
645.33	1755.11
645.52	1763.30
645.71	1695.72
645.89	1656.81
646.08	1722.34
646.27	1660.90
646.46	1839.08
646.65	1607.66
646.84	1757.16
647.03	1687.53
647.22	1779.68
647.40	1763.30
647.59	1679.33
647.78	1644.52
647.97	1638.38
648.16	1646.57
648.35	1777.64
648.54	1685.48
648.73	1697.77
648.91	1718.25
649.10	1746.92
649.29	1677.29
649.48	1720.29
649.67	1832.93
649.86	1757.16
650.05	1789.92
650.23	1916.90
650.42	1804.26
650.61	1984.48
650.80	1988.58
650.99	1955.81
651.18	1892.32
651.36	1820.64
651.55	1679.33
651.74	1828.84
651.93	1787.88
652.12	1736.68
652.31	1765.35
652.49	1736.68
652.68	1687.53
652.87	1775.59
653.06	1775.59
653.25	1882.08
653.44	1839.08
653.62	1800.16
653.81	1765.35
654.00	1675.24
654.19	1794.02
654.38	1853.41
654.56	1769.44
654.75	1722.34
654.94	1765.35
655.13	1787.88
655.32	1746.92
655.51	1779.68
655.69	1646.57
655.88	1810.40
656.07	1669.09
656.26	1724.39
656.45	1630.18
656.63	1757.16
656.82	1712.10
657.01	1837.03
657.20	1746.92
657.38	1703.91
657.57	1691.62
657.76	1693.67
657.95	1759.21
658.14	1685.48
658.32	1808.36
658.51	1667.05
658.70	1767.40
658.89	1728.49
659.08	1759.21
659.26	1937.38
659.45	1683.43
659.64	1822.69
659.83	1769.44
660.01	1974.24
660.20	1738.73
660.39	1808.36
660.58	1613.80
660.76	1734.63
660.95	1695.72
661.14	1742.82
661.33	1714.15
661.51	1675.24
661.70	1703.91
661.89	1746.92
662.08	1802.21
662.26	1671.14
662.45	1683.43
662.64	1875.94
662.83	1738.73
663.01	1656.81
663.20	1720.29
663.39	1830.88
663.58	1695.72
663.76	1767.40
663.95	1826.79
664.14	1669.09
664.32	1734.63
664.51	1687.53
664.70	1669.09
664.89	1726.44
665.07	1654.76
665.26	1738.73
665.45	1689.57
665.64	1804.26
665.82	1736.68
666.01	1800.16
666.20	1751.01
666.38	1822.69
666.57	1871.84
666.76	2248.67
666.95	4677.56
667.13	11319.12
667.32	18126.57
667.51	22179.50
667.69	24645.26
667.88	25040.51
668.07	19740.37
668.25	14247.72
668.44	11644.75
668.63	9731.95
668.81	8540.03
669.00	7591.82
669.19	7028.63
669.38	6223.78
669.56	5392.30
669.75	4519.87
669.94	3747.78
670.12	3106.77
670.31	2686.94
670.50	2308.06
670.68	2086.88
670.87	2027.49
671.06	1908.71
671.24	1847.27
671.43	1888.23
671.62	1789.92
671.80	1701.86
671.99	1812.45
672.18	1761.25
672.36	1865.70
672.55	1718.25
672.74	1779.68
672.92	1718.25
673.11	1751.01
673.29	1699.81
673.48	1765.35
673.67	1740.77
673.85	1763.30
674.04	1767.40
674.23	1800.16
674.41	1822.69
674.60	1708.01
674.79	1628.14
674.97	1744.87
675.16	1734.63
675.34	1800.16
675.53	1640.42
675.72	1753.06
675.90	1923.04
676.09	1730.53
676.28	1771.49
676.46	1611.75
676.65	1734.63
676.83	1656.81
677.02	1765.35
677.21	1693.67
677.39	1665.00
677.58	1662.95
677.77	1677.29
677.95	1689.57
678.14	1693.67
678.32	1662.95
678.51	1714.15
678.70	1820.64
678.88	1708.01
679.07	1703.91
679.25	1796.07
679.44	1748.97
679.63	1714.15
679.81	1683.43
680.00	1796.07
680.18	1746.92
680.37	1810.40
680.55	1742.82
680.74	1656.81
680.93	1605.61
681.11	1736.68
681.30	1687.53
681.48	1757.16
681.67	1701.86
681.85	1724.39
682.04	1628.14
682.23	1695.72
682.41	1701.86
682.60	1767.40
682.78	1673.19
682.97	1730.53
683.15	1685.48
683.34	1705.96
683.53	1748.97
683.71	1677.29
683.90	1765.35
684.08	1748.97
684.27	1648.61
684.45	1783.78
684.64	1804.26
684.82	1679.33
685.01	1763.30
685.19	1798.12
685.38	1796.07
685.57	1804.26
685.75	1638.38
685.94	1687.53
686.12	1675.24
686.31	1644.52
686.49	1777.64
686.68	1574.89
686.86	1689.57
687.05	1689.57
687.23	1810.40
687.42	1626.09
687.60	1652.71
687.79	1783.78
687.97	1796.07
688.16	1783.78
688.34	1779.68
688.53	1630.18
688.71	1746.92
688.90	1824.74
689.08	1660.90
689.27	1642.47
689.45	1736.68
689.64	1859.56
689.82	1703.91
690.01	1755.11
690.19	1753.06
690.38	1638.38
690.56	1773.54
690.75	1667.05
690.93	1765.35
691.12	1724.39
691.30	1783.78
691.49	1697.77
691.67	1712.10
691.86	1779.68
692.04	1751.01
692.23	1685.48
692.41	1779.68
692.60	1808.36
692.78	2000.87
692.97	1708.01
693.15	1812.45
693.34	1890.28
693.52	1828.84
693.71	1697.77
693.89	1738.73
694.08	1632.23
694.26	1740.77
694.44	1800.16
694.63	1759.21
694.81	1685.48
695.00	1669.09
695.18	1849.32
695.37	1759.21
695.55	1748.97
695.74	1708.01
695.92	1730.53
696.10	1771.49
696.29	1638.38
696.47	1712.10
696.66	1718.25
696.84	1613.80
697.03	1675.24
697.21	1882.08
697.40	2269.15
697.58	1845.22
697.76	1650.66
697.95	1652.71
698.13	1658.85
698.32	1662.95
698.50	1748.97
698.68	1726.44
698.87	1746.92
699.05	1863.65
699.24	1773.54
699.42	1652.71
699.61	1730.53
699.79	1759.21
699.97	1796.07
700.16	1703.91
700.34	1671.14
700.53	1796.07
700.71	1845.22
700.89	1839.08
701.08	1779.68
701.26	1742.82
701.45	2222.05
701.63	1619.94
701.81	1669.09
702.00	1701.86
702.18	1710.05
702.37	1703.91
702.55	1953.76
702.73	1927.14
702.92	1892.32
703.10	1968.10
703.28	1957.86
703.47	1896.42
703.65	1959.91
703.84	1959.91
704.02	1765.35
704.20	1898.47
704.39	1771.49
704.57	1718.25
704.75	1859.56
704.94	1900.52
705.12	1789.92
705.30	1869.80
705.49	2385.88
705.67	5502.89
705.86	13029.18
706.04	18988.77
706.22	22410.92
706.41	24921.73
706.59	24514.19
706.77	18470.63
706.96	13553.46
707.14	11845.45
707.32	9883.50
707.51	8888.18
707.69	7657.36
707.87	6649.75
708.06	5488.56
708.24	4327.36
708.42	3286.99
708.61	2658.26
708.79	2263.01
708.97	2070.50
709.16	1974.24
709.34	1808.36
709.52	1820.64
709.71	1753.06
709.89	1794.02
710.07	1726.44
710.26	1644.52
710.44	1781.73
710.62	1773.54
710.80	1806.31
710.99	1808.36
711.17	1816.55
711.35	1681.38
711.54	1697.77
711.72	1705.96
711.90	1820.64
712.09	1720.29
712.27	1710.05
712.45	1818.60
712.63	1695.72
712.82	1710.05
713.00	1753.06
713.18	1677.29
713.37	1755.11
713.55	1771.49
713.73	1814.50
713.91	1697.77
714.10	1761.25
714.28	1748.97
714.46	1697.77
714.65	1800.16
714.83	1730.53
715.01	1779.68
715.19	1765.35
715.38	1693.67
715.56	1712.10
715.74	1705.96
715.92	1691.62
716.11	1843.17
716.29	1669.09
716.47	1697.77
716.65	1677.29
716.84	1683.43
717.02	1742.82
717.20	1644.52
717.38	1656.81
717.57	1771.49
717.75	1699.81
717.93	1740.77
718.11	1699.81
718.30	1712.10
718.48	1804.26
718.66	1841.12
718.84	1697.77
719.03	1693.67
719.21	1703.91
719.39	1771.49
719.57	1779.68
719.75	1744.87
719.94	1728.49
720.12	1681.38
720.30	1640.42
720.48	1843.17
720.67	1675.24
720.85	1746.92
721.03	1675.24
721.21	1665.00
721.39	1744.87
721.58	1695.72
721.76	1765.35
721.94	1794.02
722.12	1685.48
722.30	1834.98
722.49	1777.64
722.67	1748.97
722.85	1759.21
723.03	1603.56
723.21	1626.09
723.40	1769.44
723.58	1710.05
723.76	1724.39
723.94	1812.45
724.12	1751.01
724.30	1869.80
724.49	1830.88
724.67	1710.05
724.85	1851.36
725.03	1714.15
725.21	1791.97
725.40	1777.64
725.58	1636.33
725.76	1855.46
725.94	1755.11
726.12	1636.33
726.30	1720.29
726.49	1689.57
726.67	1701.86
726.85	1767.40
727.03	1773.54
727.21	2303.96
727.39	3387.34
727.57	4818.87
727.76	5590.95
727.94	6170.53
728.12	6297.50
728.30	5566.38
728.48	4501.44
728.66	3934.15
728.84	3573.71
729.03	3237.84
729.21	2764.76
729.39	2504.67
729.57	2068.45
729.75	1912.80
729.93	1912.80
730.11	1855.46
730.30	1710.05
730.48	1677.29
730.66	1863.65
730.84	1841.12
731.02	1738.73
731.20	1738.73
731.38	1742.82
731.56	1665.00
731.74	1585.13
731.93	1669.09
732.11	1755.11
732.29	1718.25
732.47	1771.49
732.65	1689.57
732.83	1800.16
733.01	1845.22
733.19	1751.01
733.37	1701.86
733.56	1751.01
733.74	1646.57
733.92	1740.77
734.10	1722.34
734.28	1800.16
734.46	1583.08
734.64	1689.57
734.82	1771.49
735.00	1628.14
735.18	1642.47
735.36	1718.25
735.54	1683.43
735.73	1691.62
735.91	1675.24
736.09	1791.97
736.27	1652.71
736.45	1712.10
736.63	1634.28
736.81	1718.25
736.99	1742.82
737.17	1861.60
737.35	1689.57
737.53	1691.62
737.71	1705.96
737.89	1853.41
738.07	1615.85
738.25	1691.62
738.43	1632.23
738.61	1656.81
738.80	1585.13
738.98	1638.38
739.16	1724.39
739.34	1679.33
739.52	1738.73
739.70	1714.15
739.88	1748.97
740.06	1779.68
740.24	1603.56
740.42	1734.63
740.60	1611.75
740.78	1691.62
740.96	1626.09
741.14	1665.00
741.32	1658.85
741.50	1589.22
741.68	1789.92
741.86	1806.31
742.04	1732.58
742.22	1679.33
742.40	1701.86
742.58	1773.54
742.76	1642.47
742.94	1763.30
743.12	1617.90
743.30	1740.77
743.48	1767.40
743.66	1665.00
743.84	1693.67
744.02	1677.29
744.20	1759.21
744.38	1728.49
744.56	1646.57
744.74	1834.98
744.92	1771.49
745.10	1748.97
745.28	1726.44
745.46	1769.44
745.64	1689.57
745.82	1701.86
746.00	1703.91
746.18	1708.01
746.36	1615.85
746.54	1603.56
746.72	1726.44
746.90	1634.28
747.08	1761.25
747.26	1669.09
747.44	1720.29
747.62	1718.25
747.80	1824.74
747.98	1689.57
748.15	1685.48
748.33	1767.40
748.51	1697.77
748.69	1769.44
748.87	1617.90
749.05	1710.05
749.23	1660.90
749.41	1714.15
749.59	1687.53
749.77	1816.55
749.95	1665.00
750.13	1677.29
750.31	1687.53
750.49	1617.90
750.67	1740.77
750.85	1785.83
751.03	1755.11
751.20	1832.93
751.38	1669.09
751.56	1701.86
751.74	1755.11
751.92	1648.61
752.10	1652.71
752.28	1761.25
752.46	1581.03
752.64	1710.05
752.82	1703.91
753.00	1714.15
753.18	1652.71
753.35	1740.77
753.53	1705.96
753.71	1693.67
753.89	1785.83
754.07	1771.49
754.25	1804.26
754.43	1732.58
754.61	1603.56
754.79	1744.87
754.97	1726.44
755.14	1816.55
755.32	1593.32
755.50	1677.29
755.68	1710.05
755.86	1726.44
756.04	1718.25
756.22	1603.56
756.40	1712.10
756.57	1871.84
756.75	1660.90
756.93	1738.73
757.11	1765.35
757.29	1677.29
757.47	1744.87
757.65	1615.85
757.82	1574.89
758.00	1689.57
758.18	1677.29
758.36	1689.57
758.54	1787.88
758.72	1656.81
758.90	1736.68
759.07	1763.30
759.25	1665.00
759.43	1714.15
759.61	1656.81
759.79	2170.85
759.97	1763.30
760.15	1671.14
760.32	1775.59
760.50	1626.09
760.68	1787.88
760.86	1642.47
761.04	1775.59
761.22	1730.53
761.39	1714.15
761.57	1746.92
761.75	1624.04
761.93	1660.90
762.11	1675.24
762.28	1716.20
762.46	1728.49
762.64	1742.82
762.82	1703.91
763.00	1710.05
763.18	1791.97
763.35	1562.60
763.53	1742.82
763.71	1755.11
763.89	1724.39
764.07	1683.43
764.24	1716.20
764.42	1744.87
764.60	1703.91
764.78	1767.40
764.96	1738.73
765.13	1769.44
765.31	1699.81
765.49	1771.49
765.67	1716.20
765.84	1638.38
766.02	1673.19
766.20	1662.95
766.38	1814.50
766.56	1724.39
766.73	1740.77
766.91	1726.44
767.09	1708.01
767.27	1734.63
767.44	1693.67
767.62	1742.82
767.80	1710.05
767.98	1673.19
768.15	1701.86
768.33	1769.44
768.51	1718.25
768.69	1728.49
768.87	1794.02
769.04	1656.81
769.22	1863.65
769.40	1810.40
769.58	1869.80
769.75	1724.39
769.93	1822.69
770.11	1673.19
770.28	1681.38
770.46	1767.40
770.64	1781.73
770.82	1755.11
770.99	1691.62
771.17	1808.36
771.35	1732.58
771.53	1679.33
771.70	1705.96
771.88	1724.39
772.06	1726.44
772.23	1703.91
772.41	1728.49
772.59	1683.43
772.77	1662.95
772.94	1669.09
773.12	1714.15
773.30	1691.62
773.47	1757.16
773.65	1589.22
773.83	1857.51
774.01	1675.24
774.18	1613.80
774.36	1669.09
774.54	1701.86
774.71	1687.53
774.89	1615.85
775.07	1677.29
775.24	1665.00
775.42	1638.38
775.60	1832.93
775.78	1697.77
775.95	1683.43
776.13	1646.57
776.31	1609.70
776.48	1710.05
776.66	1796.07
776.84	1615.85
777.01	1699.81
777.19	1705.96
777.37	1742.82
777.54	1730.53
777.72	1789.92
777.90	1730.53
778.07	1595.37
778.25	1845.22
778.43	1732.58
778.60	1687.53
778.78	1753.06
778.96	1746.92
779.13	1593.32
779.31	1716.20
779.49	1669.09
779.66	1710.05
779.84	1742.82
780.01	1677.29
780.19	1624.04
780.37	1724.39
780.54	1646.57
780.72	1630.18
780.90	1665.00
781.07	1703.91
781.25	1665.00
781.43	1714.15
781.60	1705.96
781.78	1818.60
781.95	1710.05
782.13	1660.90
782.31	1650.66
782.48	1626.09
782.66	1761.25
782.83	1794.02
783.01	1767.40
783.19	1753.06
783.36	1681.38
783.54	1656.81
783.72	1818.60
783.89	1683.43
784.07	1773.54
784.24	1722.34
784.42	1763.30
784.60	1734.63
784.77	1755.11
784.95	1603.56
785.12	1720.29
785.30	1679.33
785.47	1695.72
785.65	1730.53
785.83	1632.23
786.00	1705.96
786.18	1714.15
786.35	1662.95
786.53	1740.77
786.71	1736.68
786.88	1691.62
787.06	1683.43
787.23	1763.30
787.41	1607.66
787.58	1665.00
787.76	1804.26
787.94	1701.86
788.11	1695.72
788.29	1621.99
788.46	1673.19
788.64	1693.67
788.81	1744.87
788.99	1658.85
789.16	1673.19
789.34	1714.15
789.52	1710.05
789.69	1724.39
789.87	1562.60
790.04	1683.43
790.22	1646.57
790.39	1789.92
790.57	1638.38
790.74	1687.53
790.92	1722.34
791.09	1718.25
791.27	1679.33
791.44	1828.84
791.62	1701.86
791.79	1787.88
791.97	1708.01
792.15	1902.56
792.32	1742.82
792.50	1773.54
792.67	1753.06
792.85	1777.64
793.02	1783.78
793.20	1691.62
793.37	1615.85
793.55	1673.19
793.72	1683.43
793.90	1722.34
794.07	1611.75
794.25	1619.94
794.42	1724.39
794.60	1708.01
794.77	1757.16
794.95	1763.30
795.12	1748.97
795.30	1751.01
795.47	1595.37
795.65	1918.95
795.82	1712.10
796.00	1677.29
796.17	1634.28
796.34	1660.90
796.52	1665.00
796.69	1730.53
796.87	1789.92
797.04	1681.38
797.22	1669.09
797.39	1787.88
797.57	1728.49
797.74	1736.68
797.92	1730.53
798.09	1724.39
798.27	1775.59
798.44	1644.52
798.62	1724.39
798.79	1671.14
798.96	1710.05
799.14	1746.92
799.31	1912.80
799.49	1730.53
799.66	1699.81
799.84	1701.86
800.01	1609.70
800.19	1699.81
800.36	1652.71
800.53	1757.16
800.71	1718.25
800.88	1810.40
801.06	1605.61
801.23	1656.81
801.41	1755.11
801.58	1667.05
801.75	1697.77
801.93	1744.87
802.10	1726.44
802.28	1697.77
802.45	1689.57
802.63	1755.11
802.80	1779.68
802.97	1714.15
803.15	1708.01
803.32	1658.85
803.50	1609.70
803.67	1589.22
803.84	1650.66
804.02	1714.15
804.19	1628.14
804.37	1660.90
804.54	1718.25
804.71	1722.34
804.89	1634.28
805.06	1650.66
805.24	1677.29
805.41	1640.42
805.58	1677.29
805.76	1841.12
805.93	1726.44
806.10	1839.08
806.28	1691.62
806.45	1644.52
806.63	1660.90
806.80	1751.01
806.97	1734.63
807.15	1738.73
807.32	1751.01
807.49	1675.24
807.67	1636.33
807.84	1820.64
808.01	1662.95
808.19	1839.08
808.36	1812.45
808.54	1697.77
808.71	1673.19
808.88	1699.81
809.06	1783.78
809.23	1755.11
809.40	1693.67
809.58	1746.92
809.75	1697.77
809.92	1669.09
810.10	1867.75
810.27	1730.53
810.44	1658.85
810.62	1740.77
810.79	1705.96
810.96	1632.23
811.14	1718.25
811.31	1757.16
811.48	1679.33
811.66	1656.81
811.83	1777.64
812.00	1742.82
812.18	1820.64
812.35	1839.08
812.52	1722.34
812.69	1699.81
812.87	1665.00
813.04	1658.85
813.21	1753.06
813.39	1677.29
813.56	1697.77
813.73	1759.21
813.91	1652.71
814.08	1757.16
814.25	1654.76
814.42	1595.37
814.60	1748.97
814.77	1685.48
814.94	1767.40
815.12	1742.82
815.29	1787.88
815.46	1607.66
815.63	1722.34
815.81	1624.04
815.98	1675.24
816.15	1701.86
816.33	1738.73
816.50	1705.96
816.67	1714.15
816.84	1677.29
817.02	1595.37
817.19	1679.33
817.36	1681.38
817.53	1708.01
817.71	1775.59
817.88	1820.64
818.05	1740.77
818.22	1648.61
818.40	1785.83
818.57	1720.29
818.74	1714.15
818.91	1665.00
819.09	1748.97
819.26	1781.73
819.43	1587.18
819.60	1656.81
819.78	1687.53
819.95	1781.73
820.12	1714.15
820.29	1791.97
820.47	1732.58
820.64	1679.33
820.81	1669.09
820.98	1642.47
821.15	1652.71
821.33	1746.92
821.50	1568.74
821.67	1740.77
821.84	1677.29
822.02	1740.77
822.19	1759.21
822.36	1607.66
822.53	1673.19
822.70	1665.00
822.88	1695.72
823.05	1773.54
823.22	1732.58
823.39	1726.44
823.56	1732.58
823.74	1814.50
823.91	1675.24
824.08	1630.18
824.25	1671.14
824.42	1761.25
824.60	1605.61
824.77	1734.63
824.94	1648.61
825.11	1652.71
825.28	1619.94
825.45	1691.62
825.63	1712.10
825.80	1599.46
825.97	1703.91
826.14	1714.15
826.31	1603.56
826.48	1755.11
826.66	1718.25
826.83	1585.13
827.00	1716.20
827.17	1697.77
827.34	1746.92
827.51	1791.97
827.69	1660.90
827.86	1626.09
828.03	1662.95
828.20	1667.05
828.37	1736.68
828.54	1826.79
828.71	1689.57
828.89	1759.21
829.06	1705.96
829.23	1857.51
829.40	1775.59
829.57	1675.24
829.74	1783.78
829.91	1646.57
830.09	1722.34
830.26	1748.97
830.43	1800.16
830.60	1615.85
830.77	1738.73
830.94	1787.88
831.11	1673.19
831.28	1757.16
831.46	1734.63
831.63	1667.05
831.80	1777.64
831.97	1634.28
832.14	1687.53
832.31	1738.73
832.48	1683.43
832.65	1767.40
832.82	1742.82
832.99	1751.01
833.17	1658.85
833.34	1761.25
833.51	1720.29
833.68	1642.47
833.85	1798.12
834.02	1697.77
834.19	1636.33
834.36	1665.00
834.53	1716.20
834.70	1740.77
834.87	1843.17
835.04	1722.34
835.22	1695.72
835.39	1656.81
835.56	1611.75
835.73	1681.38
835.90	1810.40
836.07	1644.52
836.24	1763.30
836.41	1621.99
836.58	1697.77
836.75	1691.62
836.92	1689.57
837.09	1671.14
837.26	1718.25
837.43	1738.73
837.60	1730.53
837.77	1701.86
837.94	1763.30
838.12	1691.62
838.29	1722.34
838.46	1593.32
838.63	1617.90
838.80	1738.73
838.97	1656.81
839.14	1779.68
839.31	1662.95
839.48	1712.10
839.65	1683.43
839.82	1759.21
839.99	1683.43
840.16	1755.11
840.33	1656.81
840.50	1720.29
840.67	1667.05
840.84	1595.37
841.01	1787.88
841.18	1667.05
841.35	1591.27
841.52	1767.40
841.69	1828.84
841.86	1691.62
842.03	1703.91
842.20	1806.31
842.37	1763.30
842.54	1722.34
842.71	1628.14
842.88	1675.24
843.05	1767.40
843.22	1724.39
843.39	1714.15
843.56	1650.66
843.73	1648.61
843.90	1675.24
844.07	1740.77
844.24	1697.77
844.41	1767.40
844.58	1689.57
844.75	1722.34
844.92	1734.63
845.09	1740.77
845.26	1681.38
845.43	1689.57
845.60	1736.68
845.77	1730.53
845.94	1738.73
846.10	1761.25
846.27	1607.66
846.44	1632.23
846.61	1675.24
846.78	1705.96
846.95	1794.02
847.12	1626.09
847.29	1624.04
847.46	1607.66
847.63	1720.29
847.80	1667.05
847.97	1726.44
848.14	1877.99
848.31	1759.21
848.48	1644.52
848.65	1712.10
848.82	1710.05
848.98	1832.93
849.15	1722.34
849.32	1753.06
849.49	1773.54
849.66	1734.63
849.83	1726.44
850.00	1654.76
850.17	1785.83
850.34	1656.81
850.51	1701.86
850.68	1734.63
850.85	1796.07
851.01	1742.82
851.18	1767.40
851.35	1658.85
851.52	1777.64
851.69	1767.40
851.86	1595.37
852.03	1632.23
852.20	1742.82
852.37	1740.77
852.53	1648.61
852.70	1621.99
852.87	1644.52
853.04	1773.54
853.21	1755.11
853.38	1847.27
853.55	1734.63
853.72	1769.44
853.89	1720.29
854.05	1675.24
854.22	1634.28
854.39	1714.15
854.56	1753.06
854.73	1728.49
854.90	1583.08
855.07	1634.28
855.23	1687.53
855.40	1658.85
855.57	1703.91
855.74	1624.04
855.91	1886.18
856.08	1687.53
856.25	1624.04
856.41	1619.94
856.58	1730.53
856.75	1691.62
856.92	1652.71
857.09	1738.73
857.26	1583.08
857.42	1669.09
857.59	1783.78
857.76	1660.90
857.93	1675.24
858.10	1824.74
858.27	1705.96
858.43	1734.63
858.60	1675.24
858.77	1673.19
858.94	1734.63
859.11	1751.01
859.27	1697.77
859.44	1673.19
859.61	1822.69
859.78	1728.49
859.95	1675.24
860.12	1679.33
860.28	1820.64
860.45	1732.58
860.62	1597.42
860.79	1705.96
860.95	1656.81
861.12	1611.75
861.29	1646.57
861.46	1718.25
861.63	1673.19
861.79	1656.81
861.96	1640.42
862.13	1644.52
862.30	1824.74
862.47	1652.71
862.63	1705.96
862.80	1746.92
862.97	1785.83
863.14	1755.11
863.30	1759.21
863.47	1699.81
863.64	1753.06
863.81	1701.86
863.97	1675.24
864.14	1769.44
864.31	1722.34
864.48	1640.42
864.65	1656.81
864.81	1755.11
864.98	1775.59
865.15	1771.49
865.32	1787.88
865.48	1783.78
865.65	1804.26
865.82	1650.66
865.98	1679.33
866.15	1710.05
866.32	1673.19
866.49	1714.15
866.65	1822.69
866.82	1679.33
866.99	1716.20
867.16	1646.57
867.32	1609.70
867.49	1689.57
867.66	1658.85
867.83	1683.43
867.99	1624.04
868.16	1646.57
868.33	1611.75
868.49	1677.29
868.66	1697.77
868.83	1679.33
868.99	1736.68
869.16	1748.97
869.33	1765.35
869.50	1724.39
869.66	1636.33
869.83	1687.53
870.00	1630.18
870.16	1728.49
870.33	1617.90
870.50	1677.29
870.66	1724.39
870.83	1808.36
871.00	1646.57
871.17	1746.92
871.33	1693.67
871.50	1669.09
871.67	1662.95
871.83	1671.14
872.00	1843.17
872.17	1679.33
872.33	1841.12
872.50	1769.44
872.67	1570.79
872.83	1673.19
873.00	1783.78
873.17	1673.19
873.33	1787.88
873.50	1755.11
873.67	1669.09
873.83	1585.13
874.00	1683.43
874.16	1806.31
874.33	1738.73
874.50	1650.66
874.66	1730.53
874.83	1710.05
875.00	1763.30
875.16	1798.12
875.33	1785.83
875.50	1624.04
875.66	1644.52
875.83	1708.01
875.99	1755.11
876.16	1742.82
876.33	1687.53
876.49	1726.44
876.66	1738.73
876.83	1720.29
876.99	1626.09
877.16	1689.57
877.32	1640.42
877.49	1724.39
877.66	1681.38
877.82	1732.58
877.99	1695.72
878.15	1751.01
878.32	1703.91
878.49	1740.77
878.65	1693.67
878.82	1763.30
878.98	1632.23
879.15	1796.07
879.32	1689.57
879.48	1730.53
879.65	1695.72
879.81	1667.05
879.98	1640.42
880.15	1687.53
880.31	1726.44
880.48	1703.91
880.64	1767.40
880.81	1730.53
880.97	1847.27
881.14	1753.06
881.31	1728.49
881.47	1910.75
881.64	1644.52
881.80	1662.95
881.97	1769.44
882.13	1771.49
882.30	1624.04
882.47	1662.95
882.63	1636.33
882.80	1648.61
882.96	1722.34
883.13	1787.88
883.29	1646.57
883.46	1705.96
883.62	1871.84
883.79	1753.06
883.95	1775.59
884.12	1638.38
884.29	1769.44
884.45	1714.15
884.62	1748.97
884.78	1652.71
884.95	1767.40
885.11	1759.21
885.28	1695.72
885.44	1691.62
885.61	1730.53
885.77	1826.79
885.94	1665.00
886.10	1630.18
886.27	1599.46
886.43	1765.35
886.60	1787.88
886.76	1693.67
886.93	1671.14
887.09	1736.68
887.26	1640.42
887.42	1716.20
887.59	1736.68
887.75	1787.88
887.92	1832.93
888.08	1724.39
888.25	1744.87
888.41	1771.49
888.58	1654.76
888.74	1697.77
888.91	1628.14
>>>>>End Processed Spectral Data<<<<<
