SpectraSuite Data File
++++++++++++++++++++++++++++++++++++
Date: Wed May 04 18:44:19 CEST 2016
User: root
Dark Spectrum Present: No
Reference Spectrum Present: No
Number of Sampled Component Spectra: 1
Spectrometers: USB4C02835
Integration Time (usec): 100000 (USB4C02835)
Spectra Averaged: 1 (USB4C02835)
Boxcar Smoothing: 0 (USB4C02835)
Correct for Electrical Dark: No (USB4C02835)
Strobe/Lamp Enabled: No (USB4C02835)
Correct for Detector Non-linearity: No (USB4C02835)
Correct for Stray Light: No (USB4C02835)
Number of Pixels in Processed Spectrum: 3648
>>>>>Begin Processed Spectral Data<<<<<
177.47	1417.19
177.69	1417.19
177.91	1417.19
178.13	1454.06
178.36	1482.73
178.58	1644.52
178.80	1746.92
179.02	1699.81
179.24	1640.42
179.46	1769.44
179.68	1759.21
179.90	1728.49
180.13	1701.86
180.35	1607.66
180.57	1714.15
180.79	1724.39
181.01	1699.81
181.23	1826.79
181.45	1832.93
181.67	1738.73
181.90	1779.68
182.12	1726.44
182.34	1624.04
182.56	1740.77
182.78	1705.96
183.00	1734.63
183.22	1675.24
183.44	1566.70
183.66	1888.23
183.89	1744.87
184.11	1699.81
184.33	1751.01
184.55	1755.11
184.77	1718.25
184.99	1742.82
185.21	1652.71
185.43	1738.73
185.65	1697.77
185.87	1665.00
186.10	1816.55
186.32	1828.84
186.54	1705.96
186.76	1718.25
186.98	1775.59
187.20	1673.19
187.42	1710.05
187.64	1654.76
187.86	1658.85
188.08	1751.01
188.30	1720.29
188.52	1650.66
188.75	1687.53
188.97	1834.98
189.19	1665.00
189.41	1734.63
189.63	1761.25
189.85	1701.86
190.07	1660.90
190.29	1646.57
190.51	1771.49
190.73	1599.46
190.95	1779.68
191.17	1705.96
191.39	1611.75
191.61	1744.87
191.84	1681.38
192.06	1652.71
192.28	1611.75
192.50	1904.61
192.72	1703.91
192.94	1667.05
193.16	1785.83
193.38	1732.58
193.60	1699.81
193.82	1742.82
194.04	1849.32
194.26	1779.68
194.48	1718.25
194.70	1783.78
194.92	1648.61
195.14	1767.40
195.36	1683.43
195.58	1714.15
195.80	1632.23
196.02	1697.77
196.24	1720.29
196.46	1697.77
196.69	1638.38
196.91	1884.13
197.13	1712.10
197.35	1652.71
197.57	1855.46
197.79	1726.44
198.01	1726.44
198.23	1699.81
198.45	1710.05
198.67	1650.66
198.89	1753.06
199.11	1673.19
199.33	1683.43
199.55	1591.27
199.77	1705.96
199.99	1773.54
200.21	1685.48
200.43	1726.44
200.65	1595.37
200.87	1611.75
201.09	1724.39
201.31	1705.96
201.53	1751.01
201.75	1716.20
201.97	1697.77
202.19	1675.24
202.41	1755.11
202.63	1843.17
202.85	1781.73
203.07	1761.25
203.29	1624.04
203.51	1646.57
203.73	1603.56
203.95	1912.80
204.17	1730.53
204.39	1646.57
204.61	1736.68
204.83	1736.68
205.05	1794.02
205.27	1742.82
205.49	1822.69
205.71	1734.63
205.93	1636.33
206.15	1751.01
206.37	1744.87
206.59	1755.11
206.81	1607.66
207.03	1660.90
207.25	1728.49
207.47	1755.11
207.69	1669.09
207.91	1808.36
208.13	1716.20
208.34	1640.42
208.56	1714.15
208.78	1787.88
209.00	1681.38
209.22	1705.96
209.44	1673.19
209.66	1730.53
209.88	1677.29
210.10	1681.38
210.32	1779.68
210.54	1841.12
210.76	1671.14
210.98	1765.35
211.20	1599.46
211.42	1656.81
211.64	1767.40
211.86	1791.97
212.08	1701.86
212.30	1728.49
212.52	1718.25
212.74	1701.86
212.96	1722.34
213.17	1740.77
213.39	1681.38
213.61	1814.50
213.83	1763.30
214.05	1724.39
214.27	1802.21
214.49	1671.14
214.71	1673.19
214.93	1802.21
215.15	1701.86
215.37	1710.05
215.59	1652.71
215.81	1665.00
216.03	1751.01
216.24	1736.68
216.46	1665.00
216.68	1751.01
216.90	1718.25
217.12	1839.08
217.34	1691.62
217.56	1701.86
217.78	1759.21
218.00	1650.66
218.22	1652.71
218.44	1718.25
218.66	1726.44
218.87	1828.84
219.09	1687.53
219.31	1759.21
219.53	1722.34
219.75	1634.28
219.97	1691.62
220.19	1791.97
220.41	1681.38
220.63	1787.88
220.85	1751.01
221.06	1724.39
221.28	1767.40
221.50	1753.06
221.72	1755.11
221.94	1759.21
222.16	1765.35
222.38	1720.29
222.60	1742.82
222.82	1687.53
223.03	1753.06
223.25	1650.66
223.47	1783.78
223.69	1830.88
223.91	1716.20
224.13	1724.39
224.35	1687.53
224.57	1716.20
224.78	1748.97
225.00	1708.01
225.22	1638.38
225.44	1667.05
225.66	1761.25
225.88	1697.77
226.10	1794.02
226.32	1748.97
226.53	1767.40
226.75	1665.00
226.97	1671.14
227.19	1767.40
227.41	1708.01
227.63	1675.24
227.85	1597.42
228.06	1671.14
228.28	1714.15
228.50	1673.19
228.72	1548.26
228.94	1683.43
229.16	1574.89
229.37	1701.86
229.59	1656.81
229.81	1732.58
230.03	1732.58
230.25	1566.70
230.47	1632.23
230.69	1705.96
230.90	1746.92
231.12	1685.48
231.34	1716.20
231.56	1791.97
231.78	1689.57
232.00	1718.25
232.21	1734.63
232.43	1689.57
232.65	1644.52
232.87	1724.39
233.09	1638.38
233.30	1665.00
233.52	1781.73
233.74	1691.62
233.96	1640.42
234.18	1710.05
234.40	1703.91
234.61	1806.31
234.83	1681.38
235.05	1611.75
235.27	1828.84
235.49	1814.50
235.70	1708.01
235.92	1783.78
236.14	1685.48
236.36	1791.97
236.58	1722.34
236.79	1830.88
237.01	1660.90
237.23	1681.38
237.45	1777.64
237.67	1712.10
237.88	1665.00
238.10	1875.94
238.32	1705.96
238.54	1699.81
238.76	1675.24
238.97	1722.34
239.19	1691.62
239.41	1761.25
239.63	1703.91
239.85	1665.00
240.06	1712.10
240.28	1628.14
240.50	1785.83
240.72	1658.85
240.93	1628.14
241.15	1777.64
241.37	1769.44
241.59	1845.22
241.81	1726.44
242.02	1701.86
242.24	1732.58
242.46	1708.01
242.68	1644.52
242.89	1732.58
243.11	1744.87
243.33	1722.34
243.55	1673.19
243.76	1742.82
243.98	1705.96
244.20	1654.76
244.42	1732.58
244.64	1714.15
244.85	1607.66
245.07	1679.33
245.29	1755.11
245.51	1648.61
245.72	1693.67
245.94	1748.97
246.16	1681.38
246.38	1779.68
246.59	1732.58
246.81	1658.85
247.03	1695.72
247.24	1611.75
247.46	1669.09
247.68	1681.38
247.90	1740.77
248.11	1654.76
248.33	1701.86
248.55	1673.19
248.77	1781.73
248.98	1726.44
249.20	1746.92
249.42	1738.73
249.64	1755.11
249.85	1705.96
250.07	1585.13
250.29	1720.29
250.50	1755.11
250.72	1648.61
250.94	1722.34
251.16	1763.30
251.37	1787.88
251.59	1748.97
251.81	1697.77
252.02	1771.49
252.24	1662.95
252.46	1755.11
252.68	1578.98
252.89	1712.10
253.11	1640.42
253.33	1855.46
253.54	1724.39
253.76	1652.71
253.98	1736.68
254.20	1703.91
254.41	1687.53
254.63	1697.77
254.85	1712.10
255.06	1656.81
255.28	1781.73
255.50	1626.09
255.71	1712.10
255.93	1654.76
256.15	1714.15
256.36	1808.36
256.58	1703.91
256.80	1722.34
257.02	1691.62
257.23	1687.53
257.45	1742.82
257.67	1785.83
257.88	1693.67
258.10	1763.30
258.32	1693.67
258.53	1710.05
258.75	1798.12
258.97	1675.24
259.18	1681.38
259.40	1730.53
259.62	1787.88
259.83	1703.91
260.05	1726.44
260.27	1892.32
260.48	1728.49
260.70	1705.96
260.92	1718.25
261.13	1775.59
261.35	1761.25
261.57	1724.39
261.78	1687.53
262.00	1642.47
262.22	1837.03
262.43	1685.48
262.65	1714.15
262.86	1722.34
263.08	1812.45
263.30	1814.50
263.51	1556.46
263.73	1697.77
263.95	1767.40
264.16	1728.49
264.38	1767.40
264.60	1679.33
264.81	1705.96
265.03	1746.92
265.25	1769.44
265.46	1697.77
265.68	1732.58
265.89	1769.44
266.11	1581.03
266.33	1738.73
266.54	1751.01
266.76	1667.05
266.98	1728.49
267.19	1722.34
267.41	1837.03
267.62	1695.72
267.84	1673.19
268.06	1722.34
268.27	1646.57
268.49	1769.44
268.70	1781.73
268.92	1652.71
269.14	1585.13
269.35	1628.14
269.57	1714.15
269.79	1775.59
270.00	1687.53
270.22	1820.64
270.43	1626.09
270.65	1634.28
270.87	1751.01
271.08	1738.73
271.30	1810.40
271.51	1748.97
271.73	1742.82
271.95	1753.06
272.16	1728.49
272.38	1734.63
272.59	1697.77
272.81	1679.33
273.02	1763.30
273.24	1812.45
273.46	1740.77
273.67	1695.72
273.89	1683.43
274.10	1701.86
274.32	1800.16
274.54	1730.53
274.75	1728.49
274.97	1675.24
275.18	1791.97
275.40	1748.97
275.61	1753.06
275.83	1681.38
276.05	1705.96
276.26	1751.01
276.48	1722.34
276.69	1697.77
276.91	1673.19
277.12	1787.88
277.34	1697.77
277.55	1740.77
277.77	1685.48
277.99	1748.97
278.20	1626.09
278.42	1634.28
278.63	1644.52
278.85	1740.77
279.06	1650.66
279.28	1689.57
279.49	1781.73
279.71	1769.44
279.93	1701.86
280.14	1705.96
280.36	1609.70
280.57	1755.11
280.79	1730.53
281.00	1617.90
281.22	1724.39
281.43	1724.39
281.65	1587.18
281.86	1722.34
282.08	1773.54
282.29	1800.16
282.51	1613.80
282.73	1648.61
282.94	1730.53
283.16	1767.40
283.37	1890.28
283.59	1662.95
283.80	1720.29
284.02	1755.11
284.23	1736.68
284.45	1699.81
284.66	1640.42
284.88	1669.09
285.09	1734.63
285.31	1763.30
285.52	1730.53
285.74	1648.61
285.95	1640.42
286.17	1800.16
286.38	1753.06
286.60	1708.01
286.81	1697.77
287.03	1632.23
287.24	1662.95
287.46	1816.55
287.67	1720.29
287.89	1863.65
288.10	1642.47
288.32	1732.58
288.53	1839.08
288.75	1705.96
288.96	1742.82
289.18	1695.72
289.39	1648.61
289.61	1742.82
289.82	1775.59
290.04	1804.26
290.25	1689.57
290.47	1748.97
290.68	1693.67
290.90	1740.77
291.11	1632.23
291.33	1722.34
291.54	1665.00
291.76	1605.61
291.97	1767.40
292.18	1701.86
292.40	1781.73
292.61	1646.57
292.83	1841.12
293.04	1650.66
293.26	1757.16
293.47	1714.15
293.69	1693.67
293.90	1716.20
294.12	1744.87
294.33	1677.29
294.55	1753.06
294.76	1753.06
294.97	1791.97
295.19	1824.74
295.40	1720.29
295.62	1746.92
295.83	1802.21
296.05	1724.39
296.26	1783.78
296.48	1644.52
296.69	1695.72
296.90	1646.57
297.12	1716.20
297.33	1705.96
297.55	1701.86
297.76	1724.39
297.98	1789.92
298.19	1705.96
298.41	1705.96
298.62	1681.38
298.83	1808.36
299.05	1781.73
299.26	1720.29
299.48	1685.48
299.69	1726.44
299.90	1691.62
300.12	1677.29
300.33	1671.14
300.55	1746.92
300.76	1802.21
300.98	1607.66
301.19	1738.73
301.40	1658.85
301.62	1673.19
301.83	1742.82
302.05	1652.71
302.26	1689.57
302.47	1746.92
302.69	1632.23
302.90	1665.00
303.12	1546.22
303.33	1748.97
303.54	1769.44
303.76	1722.34
303.97	1726.44
304.19	1810.40
304.40	1689.57
304.61	1685.48
304.83	1857.51
305.04	1810.40
305.26	1718.25
305.47	1718.25
305.68	1728.49
305.90	1615.85
306.11	1781.73
306.33	1697.77
306.54	1730.53
306.75	1675.24
306.97	1671.14
307.18	1648.61
307.39	1624.04
307.61	1755.11
307.82	1615.85
308.04	1671.14
308.25	1601.51
308.46	1714.15
308.68	1740.77
308.89	1613.80
309.10	1794.02
309.32	1650.66
309.53	1757.16
309.74	1714.15
309.96	1716.20
310.17	1734.63
310.39	1583.08
310.60	1734.63
310.81	1744.87
311.03	1589.22
311.24	1730.53
311.45	1740.77
311.67	1761.25
311.88	1703.91
312.09	1679.33
312.31	1660.90
312.52	1689.57
312.73	1724.39
312.95	1603.56
313.16	1660.90
313.37	1775.59
313.59	1736.68
313.80	1785.83
314.01	1773.54
314.23	1665.00
314.44	1732.58
314.65	1681.38
314.87	1689.57
315.08	1703.91
315.29	1730.53
315.51	1720.29
315.72	1570.79
315.93	1824.74
316.15	1734.63
316.36	1699.81
316.57	1683.43
316.79	1744.87
317.00	1722.34
317.21	1755.11
317.43	1617.90
317.64	1726.44
317.85	1675.24
318.07	1673.19
318.28	1781.73
318.49	1912.80
318.70	1980.39
318.92	1910.75
319.13	1877.99
319.34	1880.04
319.56	1822.69
319.77	1861.60
319.98	1808.36
320.20	1787.88
320.41	1861.60
320.62	1834.98
320.83	1718.25
321.05	1751.01
321.26	1845.22
321.47	1662.95
321.69	1769.44
321.90	1566.70
322.11	1669.09
322.32	1753.06
322.54	1771.49
322.75	1687.53
322.96	1859.56
323.18	1652.71
323.39	1585.13
323.60	1677.29
323.81	1847.27
324.03	1626.09
324.24	1695.72
324.45	1644.52
324.66	1757.16
324.88	1716.20
325.09	1785.83
325.30	1673.19
325.52	1757.16
325.73	1662.95
325.94	1679.33
326.15	1636.33
326.37	1650.66
326.58	1781.73
326.79	1806.31
327.00	1636.33
327.22	1722.34
327.43	1730.53
327.64	1671.14
327.85	1830.88
328.07	1728.49
328.28	1810.40
328.49	1607.66
328.70	1667.05
328.92	1738.73
329.13	1730.53
329.34	1826.79
329.55	1841.12
329.76	1714.15
329.98	1738.73
330.19	1693.67
330.40	1687.53
330.61	1732.58
330.83	1759.21
331.04	1689.57
331.25	1736.68
331.46	1662.95
331.68	1619.94
331.89	1722.34
332.10	1722.34
332.31	1554.41
332.52	1654.76
332.74	1748.97
332.95	1564.65
333.16	1662.95
333.37	1775.59
333.58	1669.09
333.80	1759.21
334.01	1615.85
334.22	1724.39
334.43	1648.61
334.64	1693.67
334.86	1646.57
335.07	1656.81
335.28	1740.77
335.49	1621.99
335.70	1738.73
335.92	1648.61
336.13	1859.56
336.34	1726.44
336.55	1658.85
336.76	1734.63
336.98	1613.80
337.19	1736.68
337.40	1810.40
337.61	1812.45
337.82	1775.59
338.04	1722.34
338.25	1605.61
338.46	1726.44
338.67	1726.44
338.88	1644.52
339.09	1617.90
339.31	1658.85
339.52	1570.79
339.73	1708.01
339.94	1701.86
340.15	1693.67
340.36	1656.81
340.58	1687.53
340.79	1662.95
341.00	1718.25
341.21	1689.57
341.42	1761.25
341.63	1710.05
341.85	1705.96
342.06	1712.10
342.27	1722.34
342.48	1769.44
342.69	1658.85
342.90	1660.90
343.12	1804.26
343.33	1681.38
343.54	1751.01
343.75	1810.40
343.96	1722.34
344.17	1675.24
344.38	1693.67
344.60	1673.19
344.81	1685.48
345.02	1781.73
345.23	1794.02
345.44	1841.12
345.65	1724.39
345.86	1718.25
346.07	1683.43
346.29	1693.67
346.50	1767.40
346.71	1732.58
346.92	1816.55
347.13	1816.55
347.34	1730.53
347.55	1738.73
347.76	1759.21
347.98	1589.22
348.19	1673.19
348.40	1753.06
348.61	1687.53
348.82	1908.71
349.03	1796.07
349.24	1619.94
349.45	1851.36
349.66	1554.41
349.88	1714.15
350.09	1642.47
350.30	1816.55
350.51	1761.25
350.72	1712.10
350.93	1785.83
351.14	1714.15
351.35	1773.54
351.56	1726.44
351.77	1685.48
351.99	1732.58
352.20	1746.92
352.41	1796.07
352.62	1667.05
352.83	1691.62
353.04	1673.19
353.25	1656.81
353.46	1820.64
353.67	1804.26
353.88	1632.23
354.09	1783.78
354.30	1669.09
354.52	1742.82
354.73	1691.62
354.94	1683.43
355.15	1728.49
355.36	1834.98
355.57	1724.39
355.78	1742.82
355.99	1714.15
356.20	1685.48
356.41	1755.11
356.62	1734.63
356.83	1697.77
357.04	1824.74
357.25	1679.33
357.46	1646.57
357.68	1650.66
357.89	1624.04
358.10	1679.33
358.31	1712.10
358.52	1681.38
358.73	1658.85
358.94	1626.09
359.15	1607.66
359.36	1722.34
359.57	1759.21
359.78	1619.94
359.99	1705.96
360.20	1632.23
360.41	1720.29
360.62	1755.11
360.83	1759.21
361.04	1685.48
361.25	1724.39
361.46	1763.30
361.67	1779.68
361.88	1683.43
362.09	1722.34
362.30	1630.18
362.51	1705.96
362.72	1736.68
362.93	1710.05
363.14	1658.85
363.35	1714.15
363.56	1626.09
363.78	1710.05
363.99	1794.02
364.20	1660.90
364.41	1708.01
364.62	1816.55
364.83	1738.73
365.04	1753.06
365.25	1636.33
365.46	1806.31
365.67	1652.71
365.88	1626.09
366.09	1751.01
366.30	1685.48
366.51	1734.63
366.72	1624.04
366.93	1724.39
367.14	1679.33
367.35	1789.92
367.56	1781.73
367.77	1800.16
367.98	1671.14
368.18	1716.20
368.39	1708.01
368.60	1763.30
368.81	1800.16
369.02	1640.42
369.23	1705.96
369.44	1615.85
369.65	1703.91
369.86	1781.73
370.07	1787.88
370.28	1591.27
370.49	1757.16
370.70	1804.26
370.91	1613.80
371.12	1617.90
371.33	1646.57
371.54	1703.91
371.75	1826.79
371.96	1585.13
372.17	1699.81
372.38	1703.91
372.59	1656.81
372.80	1669.09
373.01	1703.91
373.22	1701.86
373.43	1710.05
373.64	1736.68
373.85	1779.68
374.06	1744.87
374.26	1714.15
374.47	1716.20
374.68	1802.21
374.89	1671.14
375.10	1718.25
375.31	1791.97
375.52	1769.44
375.73	1683.43
375.94	1675.24
376.15	1802.21
376.36	1617.90
376.57	1630.18
376.78	1667.05
376.99	1738.73
377.20	1771.49
377.40	1660.90
377.61	1826.79
377.82	1673.19
378.03	1751.01
378.24	1763.30
378.45	1665.00
378.66	1685.48
378.87	1611.75
379.08	1640.42
379.29	1681.38
379.50	1753.06
379.71	1648.61
379.91	1714.15
380.12	1693.67
380.33	1697.77
380.54	1724.39
380.75	1699.81
380.96	1665.00
381.17	1832.93
381.38	1708.01
381.59	1708.01
381.80	1765.35
382.00	1820.64
382.21	1724.39
382.42	1810.40
382.63	1863.65
382.84	1740.77
383.05	1763.30
383.26	1830.88
383.47	1785.83
383.68	1751.01
383.88	1748.97
384.09	1785.83
384.30	1794.02
384.51	1740.77
384.72	1667.05
384.93	1703.91
385.14	1685.48
385.35	1826.79
385.55	1689.57
385.76	1814.50
385.97	1726.44
386.18	1677.29
386.39	1656.81
386.60	1685.48
386.81	1734.63
387.02	1665.00
387.22	1630.18
387.43	1804.26
387.64	1796.07
387.85	1865.70
388.06	2240.48
388.27	4724.66
388.48	8961.91
388.68	11798.35
388.89	13573.94
389.10	14196.52
389.31	12009.29
389.52	9836.39
389.73	8570.75
389.93	7946.12
390.14	7223.19
390.35	6490.01
390.56	6043.56
390.77	5001.14
390.98	3911.62
391.18	3094.48
391.39	2451.42
391.60	1959.91
391.81	1880.04
392.02	1781.73
392.23	1880.04
392.43	1755.11
392.64	1830.88
392.85	1736.68
393.06	1802.21
393.27	1714.15
393.47	1697.77
393.68	1779.68
393.89	1640.42
394.10	1773.54
394.31	1728.49
394.52	1746.92
394.72	1710.05
394.93	1720.29
395.14	1697.77
395.35	1748.97
395.56	1732.58
395.76	1687.53
395.97	1828.84
396.18	1861.60
396.39	1886.18
396.60	2035.68
396.80	1935.33
397.01	1898.47
397.22	1904.61
397.43	1910.75
397.64	1753.06
397.84	1863.65
398.05	1853.41
398.26	1714.15
398.47	1802.21
398.67	1798.12
398.88	1759.21
399.09	1718.25
399.30	1699.81
399.51	1738.73
399.71	1665.00
399.92	1710.05
400.13	1767.40
400.34	1710.05
400.54	1771.49
400.75	1691.62
400.96	1681.38
401.17	1861.60
401.37	1726.44
401.58	1708.01
401.79	1701.86
402.00	1894.37
402.21	2066.40
402.41	2078.69
402.62	2070.50
402.83	2176.99
403.04	2162.66
403.24	2070.50
403.45	1888.23
403.66	1931.23
403.87	1898.47
404.07	1943.52
404.28	1935.33
404.49	1902.56
404.70	1757.16
404.90	1841.12
405.11	1751.01
405.32	1832.93
405.52	1710.05
405.73	1740.77
405.94	1665.00
406.15	1667.05
406.35	1730.53
406.56	1763.30
406.77	1681.38
406.98	1763.30
407.18	1714.15
407.39	1779.68
407.60	1751.01
407.80	1781.73
408.01	1679.33
408.22	1763.30
408.43	1699.81
408.63	1724.39
408.84	1720.29
409.05	1740.77
409.25	1693.67
409.46	1705.96
409.67	1619.94
409.88	1681.38
410.08	1773.54
410.29	1705.96
410.50	1712.10
410.70	1701.86
410.91	1677.29
411.12	1773.54
411.32	1730.53
411.53	1718.25
411.74	1779.68
411.95	1773.54
412.15	1875.94
412.36	1816.55
412.57	1736.68
412.77	1794.02
412.98	1783.78
413.19	1714.15
413.39	1710.05
413.60	1728.49
413.81	1857.51
414.01	1703.91
414.22	1767.40
414.43	1783.78
414.63	1738.73
414.84	1748.97
415.05	1693.67
415.25	1615.85
415.46	1765.35
415.67	1613.80
415.87	1681.38
416.08	1742.82
416.29	1703.91
416.49	1777.64
416.70	1748.97
416.91	1720.29
417.11	1699.81
417.32	1693.67
417.53	1679.33
417.73	1759.21
417.94	1695.72
418.15	1667.05
418.35	1804.26
418.56	1697.77
418.77	1828.84
418.97	1728.49
419.18	1677.29
419.38	1662.95
419.59	1691.62
419.80	1751.01
420.00	1679.33
420.21	1667.05
420.42	1785.83
420.62	1763.30
420.83	1652.71
421.04	1736.68
421.24	1714.15
421.45	1789.92
421.65	1730.53
421.86	1683.43
422.07	1710.05
422.27	1722.34
422.48	1720.29
422.69	1765.35
422.89	1662.95
423.10	1708.01
423.30	1656.81
423.51	1675.24
423.72	1716.20
423.92	1837.03
424.13	1632.23
424.33	1699.81
424.54	1798.12
424.75	1701.86
424.95	1865.70
425.16	1783.78
425.36	1660.90
425.57	1763.30
425.78	1701.86
425.98	1738.73
426.19	1726.44
426.39	1665.00
426.60	1718.25
426.81	1767.40
427.01	1648.61
427.22	1699.81
427.42	1613.80
427.63	1738.73
427.83	1728.49
428.04	1804.26
428.25	1822.69
428.45	1751.01
428.66	1730.53
428.86	1714.15
429.07	1703.91
429.28	1808.36
429.48	1644.52
429.69	1683.43
429.89	1710.05
430.10	1658.85
430.30	1701.86
430.51	1726.44
430.71	1693.67
430.92	1724.39
431.13	1677.29
431.33	1771.49
431.54	1671.14
431.74	1783.78
431.95	1773.54
432.15	1636.33
432.36	1718.25
432.56	1705.96
432.77	1818.60
432.98	1849.32
433.18	1759.21
433.39	1685.48
433.59	1730.53
433.80	1871.84
434.00	1869.80
434.21	1730.53
434.41	1724.39
434.62	1875.94
434.82	1701.86
435.03	1656.81
435.23	1796.07
435.44	1660.90
435.64	1724.39
435.85	1740.77
436.06	1730.53
436.26	1804.26
436.47	1769.44
436.67	1558.50
436.88	1693.67
437.08	1781.73
437.29	1904.61
437.49	1695.72
437.70	1785.83
437.90	1708.01
438.11	1828.84
438.31	1783.78
438.52	1937.38
438.72	1853.41
438.93	1900.52
439.13	1787.88
439.34	1828.84
439.54	1720.29
439.75	1701.86
439.95	1781.73
440.16	1736.68
440.36	1669.09
440.57	1847.27
440.77	1810.40
440.98	1689.57
441.18	1751.01
441.39	1673.19
441.59	1675.24
441.80	1814.50
442.00	1730.53
442.21	1800.16
442.41	1675.24
442.62	1775.59
442.82	1654.76
443.02	1718.25
443.23	1675.24
443.43	1734.63
443.64	1728.49
443.84	1755.11
444.05	1787.88
444.25	1701.86
444.46	1765.35
444.66	1722.34
444.87	1912.80
445.07	1583.08
445.28	1648.61
445.48	1783.78
445.69	1800.16
445.89	1888.23
446.09	1748.97
446.30	1949.67
446.50	2574.30
446.71	4120.51
446.91	5078.96
447.12	5992.36
447.32	6037.41
447.53	5330.86
447.73	4503.48
447.93	3913.67
448.14	3680.20
448.34	3456.97
448.55	3231.69
448.75	3053.52
448.96	2979.79
449.16	2652.12
449.36	2490.33
449.57	2086.88
449.77	1918.95
449.98	1763.30
450.18	1816.55
450.39	1857.51
450.59	1787.88
450.79	1724.39
451.00	1708.01
451.20	1794.02
451.41	1767.40
451.61	1824.74
451.81	1787.88
452.02	1759.21
452.22	1695.72
452.43	1724.39
452.63	1667.05
452.84	1757.16
453.04	1785.83
453.24	1665.00
453.45	1701.86
453.65	1730.53
453.86	1798.12
454.06	1781.73
454.26	1687.53
454.47	1658.85
454.67	1828.84
454.87	1722.34
455.08	1767.40
455.28	1744.87
455.49	1755.11
455.69	1640.42
455.89	1939.43
456.10	1855.46
456.30	1693.67
456.51	1820.64
456.71	1742.82
456.91	1830.88
457.12	1812.45
457.32	1808.36
457.52	1669.09
457.73	1720.29
457.93	1832.93
458.14	1693.67
458.34	1609.70
458.54	1773.54
458.75	1742.82
458.95	1783.78
459.15	1755.11
459.36	1834.98
459.56	1796.07
459.76	1959.91
459.97	1638.38
460.17	1695.72
460.37	1828.84
460.58	1730.53
460.78	1712.10
460.99	1712.10
461.19	1689.57
461.39	1681.38
461.60	1710.05
461.80	1740.77
462.00	1697.77
462.21	1697.77
462.41	1662.95
462.61	1638.38
462.82	1597.42
463.02	1746.92
463.22	1720.29
463.43	1812.45
463.63	1703.91
463.83	1861.60
464.04	1785.83
464.24	1701.86
464.44	1662.95
464.64	1748.97
464.85	1765.35
465.05	1734.63
465.25	1791.97
465.46	1755.11
465.66	1748.97
465.86	1828.84
466.07	1806.31
466.27	1687.53
466.47	1652.71
466.68	1712.10
466.88	1855.46
467.08	1730.53
467.29	1785.83
467.49	1748.97
467.69	1746.92
467.89	1816.55
468.10	1689.57
468.30	1699.81
468.50	1853.41
468.71	1804.26
468.91	1738.73
469.11	1855.46
469.31	1787.88
469.52	1685.48
469.72	1820.64
469.92	1949.67
470.13	1755.11
470.33	1757.16
470.53	1861.60
470.73	2176.99
470.94	2537.43
471.14	2736.09
471.34	2996.18
471.54	2887.64
471.75	2533.34
471.95	2377.69
472.15	2234.33
472.36	2164.70
472.56	2203.61
472.76	2150.37
472.96	2031.58
473.17	2025.44
473.37	2009.06
473.57	1794.02
473.77	1802.21
473.98	1789.92
474.18	1609.70
474.38	1943.52
474.58	1701.86
474.79	1726.44
474.99	1822.69
475.19	1791.97
475.39	1730.53
475.60	1853.41
475.80	1753.06
476.00	1718.25
476.20	1669.09
476.41	1712.10
476.61	1845.22
476.81	1791.97
477.01	1626.09
477.21	1802.21
477.42	1771.49
477.62	1650.66
477.82	1783.78
478.02	1753.06
478.23	1708.01
478.43	1669.09
478.63	1753.06
478.83	1691.62
479.03	1662.95
479.24	1775.59
479.44	1849.32
479.64	1695.72
479.84	1525.74
480.04	1691.62
480.25	1773.54
480.45	1716.20
480.65	1693.67
480.85	1746.92
481.06	1691.62
481.26	1710.05
481.46	1691.62
481.66	1683.43
481.86	1742.82
482.06	1783.78
482.27	1746.92
482.47	1738.73
482.67	1703.91
482.87	1673.19
483.07	1763.30
483.28	1658.85
483.48	1662.95
483.68	1687.53
483.88	1679.33
484.08	1642.47
484.29	1660.90
484.49	1640.42
484.69	1669.09
484.89	1818.60
485.09	1755.11
485.29	1677.29
485.50	1734.63
485.70	1714.15
485.90	1765.35
486.10	1705.96
486.30	1796.07
486.50	1712.10
486.71	1738.73
486.91	1712.10
487.11	1802.21
487.31	1603.56
487.51	1742.82
487.71	1665.00
487.91	1619.94
488.12	1785.83
488.32	1587.18
488.52	1720.29
488.72	1660.90
488.92	1779.68
489.12	1802.21
489.32	1816.55
489.53	1722.34
489.73	1599.46
489.93	1810.40
490.13	1742.82
490.33	1583.08
490.53	1738.73
490.73	1716.20
490.94	1613.80
491.14	1773.54
491.34	1822.69
491.54	2148.32
491.74	2775.00
491.94	3225.55
492.14	3588.04
492.34	3590.09
492.54	3211.22
492.75	2815.96
492.95	2619.35
493.15	2412.51
493.35	2424.80
493.55	2420.70
493.75	2226.14
493.95	2271.20
494.15	2088.93
494.35	1964.00
494.56	1812.45
494.76	1787.88
494.96	1832.93
495.16	1800.16
495.36	1757.16
495.56	1652.71
495.76	1742.82
495.96	1728.49
496.16	1654.76
496.36	1824.74
496.56	1748.97
496.77	1675.24
496.97	1742.82
497.17	1714.15
497.37	1701.86
497.57	1726.44
497.77	1683.43
497.97	1642.47
498.17	1794.02
498.37	1701.86
498.57	1812.45
498.77	1677.29
498.97	1810.40
499.17	1847.27
499.38	1669.09
499.58	1814.50
499.78	1869.80
499.98	1826.79
500.18	1755.11
500.38	1697.77
500.58	1871.84
500.78	2361.31
500.98	4616.12
501.18	6703.00
501.38	8380.29
501.58	9181.04
501.78	8976.25
501.98	7036.82
502.18	5892.01
502.38	5033.91
502.58	4628.41
502.78	4163.52
502.98	3971.01
503.18	3782.60
503.38	3520.46
503.59	3098.58
503.79	2748.37
503.99	2650.07
504.19	2471.90
504.39	2430.94
504.59	2367.45
504.79	2281.44
504.99	2234.33
505.19	2115.55
505.39	1974.24
505.59	2027.49
505.79	1978.34
505.99	1849.32
506.19	1943.52
506.39	1953.76
506.59	1826.79
506.79	1789.92
506.99	1880.04
507.19	1714.15
507.39	1742.82
507.59	1697.77
507.79	1757.16
507.99	1691.62
508.19	1755.11
508.39	1787.88
508.59	1716.20
508.79	1822.69
508.99	1759.21
509.19	1742.82
509.39	1765.35
509.59	1705.96
509.79	1712.10
509.99	1703.91
510.19	1800.16
510.39	1816.55
510.59	1775.59
510.79	1699.81
510.99	1775.59
511.19	1662.95
511.39	1843.17
511.59	1810.40
511.79	1808.36
511.99	1738.73
512.19	1796.07
512.38	1703.91
512.58	1724.39
512.78	1689.57
512.98	1800.16
513.18	1796.07
513.38	1673.19
513.58	1728.49
513.78	1716.20
513.98	1759.21
514.18	1687.53
514.38	1650.66
514.58	1789.92
514.78	1681.38
514.98	1621.99
515.18	1771.49
515.38	1701.86
515.58	1867.75
515.78	1757.16
515.98	1703.91
516.18	1927.14
516.38	1638.38
516.57	1716.20
516.77	1730.53
516.97	1834.98
517.17	1722.34
517.37	1662.95
517.57	1744.87
517.77	1800.16
517.97	1708.01
518.17	1783.78
518.37	1705.96
518.57	1660.90
518.77	1775.59
518.97	1755.11
519.16	1751.01
519.36	1812.45
519.56	1738.73
519.76	1755.11
519.96	1734.63
520.16	1822.69
520.36	1705.96
520.56	1834.98
520.76	1685.48
520.96	1718.25
521.16	1869.80
521.35	1767.40
521.55	1804.26
521.75	1714.15
521.95	1785.83
522.15	1693.67
522.35	1572.84
522.55	1658.85
522.75	1769.44
522.95	1759.21
523.14	1708.01
523.34	1753.06
523.54	1740.77
523.74	1734.63
523.94	1732.58
524.14	1621.99
524.34	1695.72
524.54	1843.17
524.73	1765.35
524.93	1755.11
525.13	1710.05
525.33	1718.25
525.53	1880.04
525.73	1726.44
525.93	1777.64
526.13	1679.33
526.32	1800.16
526.52	1816.55
526.72	1773.54
526.92	1736.68
527.12	1699.81
527.32	1642.47
527.52	1746.92
527.71	1769.44
527.91	1722.34
528.11	1732.58
528.31	1736.68
528.51	1671.14
528.71	1773.54
528.90	1759.21
529.10	1779.68
529.30	1697.77
529.50	1650.66
529.70	1689.57
529.90	1689.57
530.09	1751.01
530.29	1656.81
530.49	1748.97
530.69	1818.60
530.89	1781.73
531.09	1722.34
531.28	1691.62
531.48	1746.92
531.68	1740.77
531.88	1757.16
532.08	1755.11
532.28	1746.92
532.47	1726.44
532.67	1796.07
532.87	1763.30
533.07	1708.01
533.27	1796.07
533.46	1785.83
533.66	1810.40
533.86	1753.06
534.06	1783.78
534.26	1820.64
534.45	1728.49
534.65	1849.32
534.85	1818.60
535.05	1775.59
535.25	1816.55
535.44	1691.62
535.64	1812.45
535.84	1794.02
536.04	1701.86
536.24	1837.03
536.43	1710.05
536.63	1804.26
536.83	1730.53
537.03	1714.15
537.22	1654.76
537.42	1730.53
537.62	1679.33
537.82	1718.25
538.02	1789.92
538.21	1820.64
538.41	1951.71
538.61	1746.92
538.81	1806.31
539.00	1753.06
539.20	1669.09
539.40	1699.81
539.60	1794.02
539.79	1736.68
539.99	1728.49
540.19	1718.25
540.39	1755.11
540.58	1734.63
540.78	1759.21
540.98	1763.30
541.18	1767.40
541.37	1734.63
541.57	1714.15
541.77	1765.35
541.97	1632.23
542.16	1697.77
542.36	1701.86
542.56	1705.96
542.76	1816.55
542.95	1751.01
543.15	1751.01
543.35	1761.25
543.54	1726.44
543.74	1640.42
543.94	1808.36
544.14	1726.44
544.33	1746.92
544.53	1691.62
544.73	1613.80
544.93	1722.34
545.12	1773.54
545.32	1667.05
545.52	1730.53
545.71	1697.77
545.91	1765.35
546.11	1728.49
546.30	1701.86
546.50	1791.97
546.70	1765.35
546.90	1783.78
547.09	1642.47
547.29	1732.58
547.49	1759.21
547.68	1712.10
547.88	1753.06
548.08	1736.68
548.27	2283.49
548.47	1705.96
548.67	1730.53
548.87	1787.88
549.06	1718.25
549.26	1748.97
549.46	1763.30
549.65	1787.88
549.85	1734.63
550.05	1746.92
550.24	1624.04
550.44	1705.96
550.64	1683.43
550.83	1714.15
551.03	1751.01
551.23	1732.58
551.42	1802.21
551.62	1781.73
551.82	1769.44
552.01	1800.16
552.21	1753.06
552.41	1828.84
552.60	1791.97
552.80	1798.12
553.00	1681.38
553.19	1665.00
553.39	1765.35
553.59	1675.24
553.78	1763.30
553.98	1679.33
554.17	1699.81
554.37	1699.81
554.57	1740.77
554.76	1730.53
554.96	1689.57
555.16	1748.97
555.35	1730.53
555.55	1767.40
555.75	1767.40
555.94	1763.30
556.14	1671.14
556.33	1767.40
556.53	1746.92
556.73	1767.40
556.92	1859.56
557.12	1871.84
557.32	1800.16
557.51	1822.69
557.71	1781.73
557.90	1847.27
558.10	1865.70
558.30	1755.11
558.49	1691.62
558.69	1683.43
558.88	1765.35
559.08	1701.86
559.28	1773.54
559.47	1763.30
559.67	1779.68
559.86	1810.40
560.06	1763.30
560.26	1624.04
560.45	1718.25
560.65	1734.63
560.84	1796.07
561.04	1708.01
561.24	1763.30
561.43	1722.34
561.63	1853.41
561.82	1755.11
562.02	1806.31
562.22	1712.10
562.41	1695.72
562.61	1656.81
562.80	1687.53
563.00	1910.75
563.19	1785.83
563.39	1837.03
563.59	1789.92
563.78	1716.20
563.98	1675.24
564.17	1675.24
564.37	1683.43
564.56	1763.30
564.76	1728.49
564.96	1877.99
565.15	1720.29
565.35	1857.51
565.54	1716.20
565.74	1800.16
565.93	1755.11
566.13	1695.72
566.32	1728.49
566.52	1787.88
566.71	1755.11
566.91	1742.82
567.11	1740.77
567.30	1753.06
567.50	1732.58
567.69	1746.92
567.89	1673.19
568.08	1691.62
568.28	1667.05
568.47	1726.44
568.67	1791.97
568.86	1759.21
569.06	1873.89
569.25	1679.33
569.45	1730.53
569.64	1730.53
569.84	1687.53
570.04	1806.31
570.23	1636.33
570.43	1710.05
570.62	1808.36
570.82	1826.79
571.01	1667.05
571.21	1660.90
571.40	1638.38
571.60	1753.06
571.79	1775.59
571.99	1683.43
572.18	1714.15
572.38	1738.73
572.57	1787.88
572.77	1753.06
572.96	1869.80
573.16	1824.74
573.35	1726.44
573.55	1875.94
573.74	1832.93
573.94	1685.48
574.13	1654.76
574.33	1859.56
574.52	1861.60
574.71	1732.58
574.91	1755.11
575.10	1687.53
575.30	1769.44
575.49	1722.34
575.69	1701.86
575.88	1757.16
576.08	1714.15
576.27	1964.00
576.47	1775.59
576.66	1892.32
576.86	1861.60
577.05	1771.49
577.25	1816.55
577.44	1859.56
577.64	1804.26
577.83	1789.92
578.02	1701.86
578.22	1769.44
578.41	1775.59
578.61	1671.14
578.80	1712.10
579.00	1728.49
579.19	1843.17
579.39	1746.92
579.58	1847.27
579.77	1761.25
579.97	1812.45
580.16	1863.65
580.36	1736.68
580.55	1843.17
580.75	1738.73
580.94	1787.88
581.13	1839.08
581.33	1882.08
581.52	1742.82
581.72	1931.23
581.91	1873.89
582.11	1841.12
582.30	1875.94
582.49	1773.54
582.69	1888.23
582.88	1806.31
583.08	1808.36
583.27	1814.50
583.47	1800.16
583.66	1777.64
583.85	1722.34
584.05	1796.07
584.24	1771.49
584.44	1851.36
584.63	1914.85
584.82	1939.43
585.02	1914.85
585.21	2000.87
585.41	1972.19
585.60	1863.65
585.79	1959.91
585.99	1871.84
586.18	1925.09
586.37	2181.09
586.57	3383.24
586.76	9842.54
586.96	27768.41
587.15	42419.58
587.34	52456.67
587.54	58598.53
587.73	56028.33
587.93	40181.15
588.12	29902.39
588.31	23965.33
588.51	20543.17
588.70	18654.95
588.89	17280.76
589.09	15546.13
589.28	13713.20
589.47	11634.51
589.67	9697.13
589.86	7419.79
590.06	5371.82
590.25	4179.90
590.44	3270.61
590.64	2672.60
590.83	2154.46
591.02	2121.70
591.22	1951.71
591.41	1863.65
591.60	1914.85
591.80	2019.30
591.99	1726.44
592.18	1787.88
592.38	1826.79
592.57	1816.55
592.76	1779.68
592.96	1814.50
593.15	1736.68
593.34	1853.41
593.54	1794.02
593.73	1845.22
593.92	1839.08
594.12	1955.81
594.31	1816.55
594.50	1841.12
594.70	1806.31
594.89	1951.71
595.08	1757.16
595.28	1845.22
595.47	1968.10
595.66	1828.84
595.86	1638.38
596.05	1763.30
596.24	1714.15
596.43	1832.93
596.63	1828.84
596.82	1773.54
597.01	1826.79
597.21	1912.80
597.40	1814.50
597.59	1769.44
597.79	1769.44
597.98	1804.26
598.17	1736.68
598.36	1791.97
598.56	1744.87
598.75	1732.58
598.94	1832.93
599.14	1834.98
599.33	1740.77
599.52	1777.64
599.71	1730.53
599.91	1791.97
600.10	1804.26
600.29	1785.83
600.48	1759.21
600.68	1798.12
600.87	1689.57
601.06	1669.09
601.26	1771.49
601.45	1787.88
601.64	1751.01
601.83	1802.21
602.03	1744.87
602.22	1683.43
602.41	1783.78
602.60	1890.28
602.80	1794.02
602.99	1824.74
603.18	1720.29
603.37	1697.77
603.57	1794.02
603.76	1857.51
603.95	1865.70
604.14	1662.95
604.34	1710.05
604.53	1740.77
604.72	1779.68
604.91	1800.16
605.10	1800.16
605.30	1654.76
605.49	1918.95
605.68	1755.11
605.87	1812.45
606.07	1681.38
606.26	1755.11
606.45	1732.58
606.64	1720.29
606.84	1751.01
607.03	1800.16
607.22	1849.32
607.41	1755.11
607.60	1736.68
607.80	1861.60
607.99	1748.97
608.18	1738.73
608.37	1798.12
608.56	1724.39
608.76	1806.31
608.95	1906.66
609.14	1806.31
609.33	1873.89
609.52	1904.61
609.72	1804.26
609.91	1859.56
610.10	1845.22
610.29	1865.70
610.48	1841.12
610.68	1837.03
610.87	1710.05
611.06	1894.37
611.25	1785.83
611.44	1763.30
611.63	1726.44
611.83	1777.64
612.02	1681.38
612.21	1859.56
612.40	1658.85
612.59	1667.05
612.79	1724.39
612.98	1798.12
613.17	1816.55
613.36	1687.53
613.55	1968.10
613.74	1828.84
613.93	1853.41
614.13	1914.85
614.32	2009.06
614.51	1968.10
614.70	1849.32
614.89	1814.50
615.08	1832.93
615.28	2095.07
615.47	1708.01
615.66	1888.23
615.85	1755.11
616.04	1951.71
616.23	1794.02
616.42	1834.98
616.62	1757.16
616.81	1839.08
617.00	1787.88
617.19	1806.31
617.38	1798.12
617.57	1759.21
617.76	1806.31
617.95	1798.12
618.15	1748.97
618.34	1855.46
618.53	1646.57
618.72	1773.54
618.91	1794.02
619.10	1843.17
619.29	1777.64
619.48	1746.92
619.68	1628.14
619.87	1691.62
620.06	1689.57
620.25	1738.73
620.44	1740.77
620.63	1751.01
620.82	1763.30
621.01	1783.78
621.20	1691.62
621.39	1796.07
621.59	1775.59
621.78	1705.96
621.97	1742.82
622.16	1777.64
622.35	1857.51
622.54	1783.78
622.73	1847.27
622.92	1607.66
623.11	1767.40
623.30	1716.20
623.49	1742.82
623.68	1742.82
623.88	1787.88
624.07	1746.92
624.26	1791.97
624.45	1734.63
624.64	1656.81
624.83	1732.58
625.02	1654.76
625.21	1769.44
625.40	1714.15
625.59	1853.41
625.78	1720.29
625.97	1789.92
626.16	1812.45
626.35	1812.45
626.54	1806.31
626.74	1906.66
626.93	1806.31
627.12	1732.58
627.31	1884.13
627.50	1849.32
627.69	1777.64
627.88	1681.38
628.07	1679.33
628.26	1640.42
628.45	1687.53
628.64	1662.95
628.83	1660.90
629.02	1775.59
629.21	1791.97
629.40	1738.73
629.59	1703.91
629.78	1726.44
629.97	1755.11
630.16	1769.44
630.35	1746.92
630.54	1693.67
630.73	1675.24
630.92	1718.25
631.11	1638.38
631.30	1720.29
631.49	1812.45
631.68	1777.64
631.87	1757.16
632.06	1699.81
632.25	1890.28
632.44	1757.16
632.63	1746.92
632.82	1763.30
633.01	1718.25
633.20	1816.55
633.39	1804.26
633.58	1812.45
633.77	1783.78
633.96	1763.30
634.15	1816.55
634.34	1828.84
634.53	1712.10
634.72	1693.67
634.91	1646.57
635.10	1718.25
635.29	1808.36
635.48	1763.30
635.67	1722.34
635.86	1742.82
636.05	1798.12
636.24	1781.73
636.43	1738.73
636.62	1701.86
636.81	1691.62
637.00	1703.91
637.19	1728.49
637.38	1640.42
637.57	1640.42
637.76	1763.30
637.95	1869.80
638.14	1783.78
638.33	1871.84
638.52	1812.45
638.71	1767.40
638.89	1658.85
639.08	1855.46
639.27	1900.52
639.46	1931.23
639.65	2181.09
639.84	2252.77
640.03	2437.08
640.22	2361.31
640.41	2328.54
640.60	2047.97
640.79	1984.48
640.98	1951.71
641.17	1877.99
641.36	1914.85
641.55	1855.46
641.74	1845.22
641.92	1845.22
642.11	1785.83
642.30	1732.58
642.49	1703.91
642.68	1628.14
642.87	1777.64
643.06	1710.05
643.25	1701.86
643.44	1714.15
643.63	1660.90
643.82	1826.79
644.00	1724.39
644.19	1681.38
644.38	1689.57
644.57	1871.84
644.76	1693.67
644.95	1761.25
645.14	1808.36
645.33	1734.63
645.52	1771.49
645.71	1699.81
645.89	1634.28
646.08	1726.44
646.27	1695.72
646.46	1798.12
646.65	1708.01
646.84	1718.25
647.03	1665.00
647.22	1720.29
647.40	1742.82
647.59	1759.21
647.78	1638.38
647.97	1685.48
648.16	1677.29
648.35	1722.34
648.54	1730.53
648.73	1677.29
648.91	1812.45
649.10	1685.48
649.29	1759.21
649.48	1744.87
649.67	1738.73
649.86	1777.64
650.05	1777.64
650.23	1888.23
650.42	1843.17
650.61	1877.99
650.80	1992.67
650.99	1964.00
651.18	1845.22
651.36	1787.88
651.55	1787.88
651.74	1791.97
651.93	1656.81
652.12	1787.88
652.31	1734.63
652.49	1699.81
652.68	1789.92
652.87	1820.64
653.06	1779.68
653.25	1816.55
653.44	1746.92
653.62	1837.03
653.81	1773.54
654.00	1648.61
654.19	1718.25
654.38	1853.41
654.56	1734.63
654.75	1765.35
654.94	1738.73
655.13	1769.44
655.32	1730.53
655.51	1761.25
655.69	1648.61
655.88	1738.73
656.07	1687.53
656.26	1759.21
656.45	1589.22
656.63	1730.53
656.82	1726.44
657.01	1837.03
657.20	1705.96
657.38	1765.35
657.57	1763.30
657.76	1724.39
657.95	1806.31
658.14	1720.29
658.32	1814.50
658.51	1779.68
658.70	1712.10
658.89	1683.43
659.08	1701.86
659.26	1863.65
659.45	1636.33
659.64	1810.40
659.83	1718.25
660.01	1875.94
660.20	1753.06
660.39	1892.32
660.58	1642.47
660.76	1779.68
660.95	1714.15
661.14	1816.55
661.33	1722.34
661.51	1726.44
661.70	1708.01
661.89	1802.21
662.08	1759.21
662.26	1611.75
662.45	1708.01
662.64	1871.84
662.83	1726.44
663.01	1603.56
663.20	1699.81
663.39	1757.16
663.58	1687.53
663.76	1716.20
663.95	1773.54
664.14	1703.91
664.32	1738.73
664.51	1665.00
664.70	1615.85
664.89	1765.35
665.07	1728.49
665.26	1812.45
665.45	1742.82
665.64	1730.53
665.82	1691.62
666.01	1824.74
666.20	1683.43
666.38	1806.31
666.57	1810.40
666.76	2312.16
666.95	4618.17
667.13	11353.94
667.32	18566.88
667.51	22429.35
667.69	25022.08
667.88	25536.12
668.07	19900.11
668.25	14323.49
668.44	11753.29
668.63	9838.44
668.81	8533.89
669.00	7856.01
669.19	7184.27
669.38	6211.49
669.56	5468.08
669.75	4540.35
669.94	3817.41
670.12	3151.82
670.31	2678.74
670.50	2449.37
670.68	2109.41
670.87	1916.90
671.06	1920.99
671.24	1851.36
671.43	1910.75
671.62	1800.16
671.80	1804.26
671.99	1798.12
672.18	1759.21
672.36	1824.74
672.55	1759.21
672.74	1658.85
672.92	1638.38
673.11	1705.96
673.29	1755.11
673.48	1824.74
673.67	1683.43
673.85	1814.50
674.04	1716.20
674.23	1761.25
674.41	1845.22
674.60	1652.71
674.79	1597.42
674.97	1751.01
675.16	1730.53
675.34	1798.12
675.53	1718.25
675.72	1753.06
675.90	1857.51
676.09	1679.33
676.28	1769.44
676.46	1687.53
676.65	1744.87
676.83	1665.00
677.02	1695.72
677.21	1705.96
677.39	1716.20
677.58	1634.28
677.77	1681.38
677.95	1720.29
678.14	1794.02
678.32	1714.15
678.51	1650.66
678.70	1746.92
678.88	1621.99
679.07	1763.30
679.25	1789.92
679.44	1697.77
679.63	1656.81
679.81	1699.81
680.00	1734.63
680.18	1714.15
680.37	1783.78
680.55	1667.05
680.74	1619.94
680.93	1691.62
681.11	1724.39
681.30	1712.10
681.48	1812.45
681.67	1728.49
681.85	1730.53
682.04	1638.38
682.23	1734.63
682.41	1744.87
682.60	1665.00
682.78	1677.29
682.97	1677.29
683.15	1740.77
683.34	1742.82
683.53	1732.58
683.71	1671.14
683.90	1875.94
684.08	1771.49
684.27	1695.72
684.45	1671.14
684.64	1734.63
684.82	1699.81
685.01	1761.25
685.19	1712.10
685.38	1865.70
685.57	1718.25
685.75	1722.34
685.94	1794.02
686.12	1648.61
686.31	1701.86
686.49	1757.16
686.68	1693.67
686.86	1667.05
687.05	1763.30
687.23	1744.87
687.42	1685.48
687.60	1634.28
687.79	1738.73
687.97	1738.73
688.16	1738.73
688.34	1818.60
688.53	1658.85
688.71	1726.44
688.90	1759.21
689.08	1687.53
689.27	1646.57
689.45	1738.73
689.64	1744.87
689.82	1765.35
690.01	1710.05
690.19	1679.33
690.38	1710.05
690.56	1779.68
690.75	1650.66
690.93	1744.87
691.12	1662.95
691.30	1765.35
691.49	1671.14
691.67	1740.77
691.86	1765.35
692.04	1683.43
692.23	1667.05
692.41	1826.79
692.60	1884.13
692.78	1902.56
692.97	1736.68
693.15	1718.25
693.34	1875.94
693.52	1812.45
693.71	1738.73
693.89	1677.29
694.08	1621.99
694.26	1744.87
694.44	1798.12
694.63	1720.29
694.81	1679.33
695.00	1611.75
695.18	1736.68
695.37	1777.64
695.55	1697.77
695.74	1685.48
695.92	1656.81
696.10	1832.93
696.29	1617.90
696.47	1794.02
696.66	1667.05
696.84	1673.19
697.03	1742.82
697.21	1787.88
697.40	2349.02
697.58	1794.02
697.76	1681.38
697.95	1660.90
698.13	1628.14
698.32	1708.01
698.50	1714.15
698.68	1759.21
698.87	1755.11
699.05	1877.99
699.24	1683.43
699.42	1705.96
699.61	1689.57
699.79	1691.62
699.97	1765.35
700.16	1658.85
700.34	1615.85
700.53	1730.53
700.71	1798.12
700.89	1785.83
701.08	1644.52
701.26	1826.79
701.45	2150.37
701.63	1746.92
701.81	1779.68
702.00	1681.38
702.18	1759.21
702.37	1697.77
702.55	1853.41
702.73	1906.66
702.92	1814.50
703.10	2023.39
703.28	1986.53
703.47	1779.68
703.65	1918.95
703.84	1888.23
704.02	1722.34
704.20	1929.19
704.39	1785.83
704.57	1781.73
704.75	1789.92
704.94	1769.44
705.12	1771.49
705.30	1916.90
705.49	2494.43
705.67	5638.06
705.86	13303.60
706.04	19324.63
706.22	22943.39
706.41	25439.87
706.59	24837.76
706.77	19404.50
706.96	13643.57
707.14	12025.67
707.32	10194.79
707.51	9015.16
707.69	8077.19
707.87	6803.35
708.06	5513.13
708.24	4448.19
708.42	3319.76
708.61	2854.87
708.79	2189.28
708.97	1988.58
709.16	1988.58
709.34	1884.13
709.52	1761.25
709.71	1837.03
709.89	1808.36
710.07	1693.67
710.26	1695.72
710.44	1689.57
710.62	1791.97
710.80	1732.58
710.99	1767.40
711.17	1730.53
711.35	1679.33
711.54	1787.88
711.72	1785.83
711.90	1687.53
712.09	1665.00
712.27	1669.09
712.45	1767.40
712.63	1656.81
712.82	1665.00
713.00	1710.05
713.18	1787.88
713.37	1714.15
713.55	1705.96
713.73	1746.92
713.91	1828.84
714.10	1654.76
714.28	1689.57
714.46	1656.81
714.65	1783.78
714.83	1720.29
715.01	1697.77
715.19	1730.53
715.38	1671.14
715.56	1796.07
715.74	1644.52
715.92	1671.14
716.11	1748.97
716.29	1675.24
716.47	1656.81
716.65	1685.48
716.84	1681.38
717.02	1783.78
717.20	1658.85
717.38	1724.39
717.57	1755.11
717.75	1716.20
717.93	1642.47
718.11	1720.29
718.30	1681.38
718.48	1769.44
718.66	1726.44
718.84	1800.16
719.03	1703.91
719.21	1646.57
719.39	1841.12
719.57	1855.46
719.75	1724.39
719.94	1728.49
720.12	1705.96
720.30	1757.16
720.48	1804.26
720.67	1681.38
720.85	1654.76
721.03	1734.63
721.21	1673.19
721.39	1812.45
721.58	1687.53
721.76	1689.57
721.94	1705.96
722.12	1740.77
722.30	1810.40
722.49	1742.82
722.67	1720.29
722.85	1798.12
723.03	1605.61
723.21	1730.53
723.40	1765.35
723.58	1781.73
723.76	1712.10
723.94	1787.88
724.12	1791.97
724.30	1890.28
724.49	1748.97
724.67	1716.20
724.85	1826.79
725.03	1685.48
725.21	1730.53
725.40	1716.20
725.58	1621.99
725.76	1804.26
725.94	1791.97
726.12	1693.67
726.30	1720.29
726.49	1650.66
726.67	1601.51
726.85	1748.97
727.03	1818.60
727.21	2324.44
727.39	3461.07
727.57	4984.76
727.76	5722.02
727.94	6248.35
728.12	6354.85
728.30	5636.01
728.48	4458.43
728.66	3954.63
728.84	3540.94
729.03	3262.41
729.21	2834.39
729.39	2469.85
729.57	2117.60
729.75	1935.33
729.93	1968.10
730.11	1771.49
730.30	1767.40
730.48	1697.77
730.66	1804.26
730.84	1681.38
731.02	1687.53
731.20	1673.19
731.38	1679.33
731.56	1732.58
731.74	1656.81
731.93	1748.97
732.11	1748.97
732.29	1779.68
732.47	1742.82
732.65	1742.82
732.83	1839.08
733.01	1767.40
733.19	1687.53
733.37	1714.15
733.56	1716.20
733.74	1634.28
733.92	1748.97
734.10	1697.77
734.28	1720.29
734.46	1509.35
734.64	1665.00
734.82	1701.86
735.00	1710.05
735.18	1648.61
735.36	1652.71
735.54	1689.57
735.73	1714.15
735.91	1785.83
736.09	1718.25
736.27	1738.73
736.45	1712.10
736.63	1585.13
736.81	1679.33
736.99	1697.77
737.17	1808.36
737.35	1765.35
737.53	1619.94
737.71	1679.33
737.89	1755.11
738.07	1665.00
738.25	1699.81
738.43	1654.76
738.61	1636.33
738.80	1621.99
738.98	1652.71
739.16	1710.05
739.34	1685.48
739.52	1853.41
739.70	1716.20
739.88	1671.14
740.06	1714.15
740.24	1597.42
740.42	1771.49
740.60	1601.51
740.78	1669.09
740.96	1583.08
741.14	1714.15
741.32	1791.97
741.50	1605.61
741.68	1822.69
741.86	1785.83
742.04	1689.57
742.22	1650.66
742.40	1730.53
742.58	1781.73
742.76	1695.72
742.94	1847.27
743.12	1640.42
743.30	1751.01
743.48	1787.88
743.66	1640.42
743.84	1738.73
744.02	1718.25
744.20	1736.68
744.38	1697.77
744.56	1722.34
744.74	1798.12
744.92	1787.88
745.10	1765.35
745.28	1814.50
745.46	1877.99
745.64	1732.58
745.82	1748.97
746.00	1818.60
746.18	1656.81
746.36	1632.23
746.54	1759.21
746.72	1726.44
746.90	1699.81
747.08	1794.02
747.26	1699.81
747.44	1681.38
747.62	1744.87
747.80	1847.27
747.98	1728.49
748.15	1699.81
748.33	1875.94
748.51	1730.53
748.69	1742.82
748.87	1744.87
749.05	1552.36
749.23	1761.25
749.41	1826.79
749.59	1718.25
749.77	1763.30
749.95	1650.66
750.13	1644.52
750.31	1738.73
750.49	1718.25
750.67	1763.30
750.85	1783.78
751.03	1683.43
751.20	1884.13
751.38	1716.20
751.56	1716.20
751.74	1697.77
751.92	1773.54
752.10	1607.66
752.28	1755.11
752.46	1677.29
752.64	1646.57
752.82	1746.92
753.00	1812.45
753.18	1665.00
753.35	1689.57
753.53	1705.96
753.71	1716.20
753.89	1775.59
754.07	1742.82
754.25	1732.58
754.43	1697.77
754.61	1634.28
754.79	1712.10
754.97	1724.39
755.14	1796.07
755.32	1660.90
755.50	1697.77
755.68	1685.48
755.86	1681.38
756.04	1693.67
756.22	1646.57
756.40	1722.34
756.57	1902.56
756.75	1640.42
756.93	1773.54
757.11	1734.63
757.29	1619.94
757.47	1693.67
757.65	1652.71
757.82	1591.27
758.00	1648.61
758.18	1714.15
758.36	1673.19
758.54	1800.16
758.72	1652.71
758.90	1783.78
759.07	1734.63
759.25	1642.47
759.43	1714.15
759.61	1660.90
759.79	2174.94
759.97	1798.12
760.15	1642.47
760.32	1701.86
760.50	1796.07
760.68	1773.54
760.86	1667.05
761.04	1746.92
761.22	1714.15
761.39	1732.58
761.57	1761.25
761.75	1691.62
761.93	1724.39
762.11	1693.67
762.28	1695.72
762.46	1691.62
762.64	1802.21
762.82	1740.77
763.00	1767.40
763.18	1675.24
763.35	1562.60
763.53	1818.60
763.71	1662.95
763.89	1652.71
764.07	1621.99
764.24	1738.73
764.42	1804.26
764.60	1675.24
764.78	1761.25
764.96	1763.30
765.13	1736.68
765.31	1667.05
765.49	1724.39
765.67	1679.33
765.84	1689.57
766.02	1705.96
766.20	1632.23
766.38	1708.01
766.56	1763.30
766.73	1783.78
766.91	1691.62
767.09	1632.23
767.27	1794.02
767.44	1669.09
767.62	1834.98
767.80	1689.57
767.98	1769.44
768.15	1730.53
768.33	1726.44
768.51	1765.35
768.69	1710.05
768.87	1759.21
769.04	1697.77
769.22	1798.12
769.40	1834.98
769.58	1871.84
769.75	1728.49
769.93	1738.73
770.11	1693.67
770.28	1675.24
770.46	1753.06
770.64	1744.87
770.82	1748.97
770.99	1705.96
771.17	1695.72
771.35	1665.00
771.53	1689.57
771.70	1617.90
771.88	1832.93
772.06	1751.01
772.23	1656.81
772.41	1763.30
772.59	1763.30
772.77	1652.71
772.94	1675.24
773.12	1744.87
773.30	1703.91
773.47	1812.45
773.65	1669.09
773.83	1779.68
774.01	1783.78
774.18	1656.81
774.36	1720.29
774.54	1619.94
774.71	1660.90
774.89	1638.38
775.07	1644.52
775.24	1609.70
775.42	1603.56
775.60	1759.21
775.78	1695.72
775.95	1611.75
776.13	1650.66
776.31	1613.80
776.48	1699.81
776.66	1734.63
776.84	1613.80
777.01	1710.05
777.19	1667.05
777.37	1693.67
777.54	1802.21
777.72	1808.36
777.90	1757.16
778.07	1624.04
778.25	1841.12
778.43	1755.11
778.60	1654.76
778.78	1681.38
778.96	1785.83
779.13	1597.42
779.31	1761.25
779.49	1722.34
779.66	1712.10
779.84	1691.62
780.01	1638.38
780.19	1646.57
780.37	1734.63
780.54	1685.48
780.72	1624.04
780.90	1656.81
781.07	1675.24
781.25	1697.77
781.43	1830.88
781.60	1685.48
781.78	1767.40
781.95	1671.14
782.13	1675.24
782.31	1705.96
782.48	1624.04
782.66	1712.10
782.83	1779.68
783.01	1693.67
783.19	1748.97
783.36	1701.86
783.54	1652.71
783.72	1718.25
783.89	1662.95
784.07	1740.77
784.24	1716.20
784.42	1769.44
784.60	1681.38
784.77	1714.15
784.95	1581.03
785.12	1691.62
785.30	1742.82
785.47	1689.57
785.65	1671.14
785.83	1765.35
786.00	1728.49
786.18	1710.05
786.35	1656.81
786.53	1607.66
786.71	1755.11
786.88	1724.39
787.06	1759.21
787.23	1724.39
787.41	1708.01
787.58	1677.29
787.76	1607.66
787.94	1701.86
788.11	1777.64
788.29	1660.90
788.46	1699.81
788.64	1673.19
788.81	1669.09
788.99	1710.05
789.16	1613.80
789.34	1683.43
789.52	1656.81
789.69	1695.72
789.87	1572.84
790.04	1648.61
790.22	1769.44
790.39	1828.84
790.57	1617.90
790.74	1603.56
790.92	1796.07
791.09	1646.57
791.27	1759.21
791.44	1783.78
791.62	1744.87
791.79	1736.68
791.97	1697.77
792.15	1841.12
792.32	1730.53
792.50	1771.49
792.67	1687.53
792.85	1767.40
793.02	1730.53
793.20	1683.43
793.37	1662.95
793.55	1728.49
793.72	1628.14
793.90	1785.83
794.07	1720.29
794.25	1722.34
794.42	1712.10
794.60	1644.52
794.77	1685.48
794.95	1765.35
795.12	1705.96
795.30	1667.05
795.47	1648.61
795.65	1802.21
795.82	1689.57
796.00	1693.67
796.17	1708.01
796.34	1660.90
796.52	1716.20
796.69	1767.40
796.87	1724.39
797.04	1765.35
797.22	1755.11
797.39	1654.76
797.57	1771.49
797.74	1681.38
797.92	1714.15
798.09	1742.82
798.27	1753.06
798.44	1751.01
798.62	1675.24
798.79	1654.76
798.96	1705.96
799.14	1761.25
799.31	1789.92
799.49	1708.01
799.66	1720.29
799.84	1732.58
800.01	1648.61
800.19	1753.06
800.36	1617.90
800.53	1730.53
800.71	1720.29
800.88	1773.54
801.06	1638.38
801.23	1689.57
801.41	1611.75
801.58	1697.77
801.75	1675.24
801.93	1687.53
802.10	1716.20
802.28	1697.77
802.45	1665.00
802.63	1748.97
802.80	1765.35
802.97	1806.31
803.15	1660.90
803.32	1701.86
803.50	1599.46
803.67	1740.77
803.84	1603.56
804.02	1769.44
804.19	1728.49
804.37	1556.46
804.54	1734.63
804.71	1705.96
804.89	1720.29
805.06	1634.28
805.24	1656.81
805.41	1697.77
805.58	1632.23
805.76	1826.79
805.93	1734.63
806.10	1746.92
806.28	1665.00
806.45	1675.24
806.63	1763.30
806.80	1726.44
806.97	1714.15
807.15	1681.38
807.32	1662.95
807.49	1689.57
807.67	1656.81
807.84	1673.19
808.01	1669.09
808.19	1804.26
808.36	1826.79
808.54	1675.24
808.71	1621.99
808.88	1693.67
809.06	1718.25
809.23	1767.40
809.40	1665.00
809.58	1802.21
809.75	1781.73
809.92	1681.38
810.10	1808.36
810.27	1658.85
810.44	1693.67
810.62	1724.39
810.79	1724.39
810.96	1640.42
811.14	1716.20
811.31	1738.73
811.48	1759.21
811.66	1738.73
811.83	1726.44
812.00	1789.92
812.18	1689.57
812.35	1789.92
812.52	1656.81
812.69	1673.19
812.87	1708.01
813.04	1646.57
813.21	1679.33
813.39	1660.90
813.56	1642.47
813.73	1763.30
813.91	1556.46
814.08	1699.81
814.25	1617.90
814.42	1591.27
814.60	1714.15
814.77	1732.58
814.94	1665.00
815.12	1763.30
815.29	1734.63
815.46	1617.90
815.63	1671.14
815.81	1708.01
815.98	1730.53
816.15	1720.29
816.33	1736.68
816.50	1710.05
816.67	1720.29
816.84	1718.25
817.02	1642.47
817.19	1695.72
817.36	1705.96
817.53	1689.57
817.71	1718.25
817.88	1740.77
818.05	1781.73
818.22	1685.48
818.40	1789.92
818.57	1621.99
818.74	1726.44
818.91	1673.19
819.09	1724.39
819.26	1751.01
819.43	1726.44
819.60	1644.52
819.78	1779.68
819.95	1679.33
820.12	1673.19
820.29	1800.16
820.47	1730.53
820.64	1697.77
820.81	1615.85
820.98	1642.47
821.15	1685.48
821.33	1769.44
821.50	1738.73
821.67	1761.25
821.84	1656.81
822.02	1820.64
822.19	1837.03
822.36	1658.85
822.53	1757.16
822.70	1673.19
822.88	1656.81
823.05	1722.34
823.22	1693.67
823.39	1703.91
823.56	1687.53
823.74	1818.60
823.91	1669.09
824.08	1665.00
824.25	1669.09
824.42	1851.36
824.60	1652.71
824.77	1720.29
824.94	1714.15
825.11	1738.73
825.28	1587.18
825.45	1730.53
825.63	1705.96
825.80	1642.47
825.97	1759.21
826.14	1673.19
826.31	1587.18
826.48	1757.16
826.66	1679.33
826.83	1705.96
827.00	1656.81
827.17	1697.77
827.34	1671.14
827.51	1685.48
827.69	1701.86
827.86	1599.46
828.03	1691.62
828.20	1652.71
828.37	1632.23
828.54	1667.05
828.71	1738.73
828.89	1769.44
829.06	1734.63
829.23	1728.49
829.40	1746.92
829.57	1650.66
829.74	1714.15
829.91	1722.34
830.09	1726.44
830.26	1746.92
830.43	1757.16
830.60	1712.10
830.77	1755.11
830.94	1746.92
831.11	1740.77
831.28	1724.39
831.46	1738.73
831.63	1705.96
831.80	1800.16
831.97	1708.01
832.14	1746.92
832.31	1742.82
832.48	1658.85
832.65	1808.36
832.82	1710.05
832.99	1671.14
833.17	1673.19
833.34	1808.36
833.51	1665.00
833.68	1685.48
833.85	1763.30
834.02	1626.09
834.19	1681.38
834.36	1632.23
834.53	1736.68
834.70	1730.53
834.87	1685.48
835.04	1712.10
835.22	1740.77
835.39	1677.29
835.56	1617.90
835.73	1640.42
835.90	1808.36
836.07	1640.42
836.24	1693.67
836.41	1634.28
836.58	1652.71
836.75	1710.05
836.92	1751.01
837.09	1644.52
837.26	1757.16
837.43	1699.81
837.60	1734.63
837.77	1695.72
837.94	1796.07
838.12	1773.54
838.29	1716.20
838.46	1595.37
838.63	1710.05
838.80	1806.31
838.97	1720.29
839.14	1769.44
839.31	1677.29
839.48	1734.63
839.65	1722.34
839.82	1712.10
839.99	1693.67
840.16	1662.95
840.33	1701.86
840.50	1724.39
840.67	1644.52
840.84	1595.37
841.01	1728.49
841.18	1722.34
841.35	1703.91
841.52	1808.36
841.69	1798.12
841.86	1761.25
842.03	1673.19
842.20	1763.30
842.37	1730.53
842.54	1673.19
842.71	1665.00
842.88	1597.42
843.05	1820.64
843.22	1671.14
843.39	1669.09
843.56	1701.86
843.73	1654.76
843.90	1722.34
844.07	1701.86
844.24	1751.01
844.41	1767.40
844.58	1759.21
844.75	1693.67
844.92	1714.15
845.09	1624.04
845.26	1675.24
845.43	1701.86
845.60	1685.48
845.77	1802.21
845.94	1697.77
846.10	1751.01
846.27	1587.18
846.44	1667.05
846.61	1705.96
846.78	1667.05
846.95	1728.49
847.12	1671.14
847.29	1730.53
847.46	1638.38
847.63	1779.68
847.80	1621.99
847.97	1740.77
848.14	1800.16
848.31	1708.01
848.48	1523.69
848.65	1722.34
848.82	1695.72
848.98	1820.64
849.15	1748.97
849.32	1695.72
849.49	1777.64
849.66	1714.15
849.83	1763.30
850.00	1644.52
850.17	1785.83
850.34	1636.33
850.51	1708.01
850.68	1761.25
850.85	1734.63
851.01	1689.57
851.18	1718.25
851.35	1660.90
851.52	1742.82
851.69	1787.88
851.86	1615.85
852.03	1693.67
852.20	1779.68
852.37	1708.01
852.53	1619.94
852.70	1732.58
852.87	1701.86
853.04	1738.73
853.21	1763.30
853.38	1781.73
853.55	1808.36
853.72	1796.07
853.89	1609.70
854.05	1716.20
854.22	1687.53
854.39	1730.53
854.56	1775.59
854.73	1753.06
854.90	1691.62
855.07	1703.91
855.23	1654.76
855.40	1697.77
855.57	1736.68
855.74	1656.81
855.91	1861.60
856.08	1695.72
856.25	1607.66
856.41	1671.14
856.58	1640.42
856.75	1691.62
856.92	1718.25
857.09	1767.40
857.26	1624.04
857.42	1687.53
857.59	1740.77
857.76	1628.14
857.93	1718.25
858.10	1675.24
858.27	1652.71
858.43	1705.96
858.60	1656.81
858.77	1669.09
858.94	1669.09
859.11	1794.02
859.27	1673.19
859.44	1697.77
859.61	1738.73
859.78	1761.25
859.95	1671.14
860.12	1632.23
860.28	1861.60
860.45	1773.54
860.62	1671.14
860.79	1746.92
860.95	1726.44
861.12	1716.20
861.29	1671.14
861.46	1628.14
861.63	1718.25
861.79	1789.92
861.96	1615.85
862.13	1708.01
862.30	1724.39
862.47	1656.81
862.63	1609.70
862.80	1804.26
862.97	1798.12
863.14	1685.48
863.30	1775.59
863.47	1697.77
863.64	1740.77
863.81	1687.53
863.97	1720.29
864.14	1703.91
864.31	1728.49
864.48	1751.01
864.65	1716.20
864.81	1779.68
864.98	1759.21
865.15	1728.49
865.32	1726.44
865.48	1773.54
865.65	1824.74
865.82	1755.11
865.98	1632.23
866.15	1816.55
866.32	1771.49
866.49	1648.61
866.65	1746.92
866.82	1603.56
866.99	1611.75
867.16	1693.67
867.32	1613.80
867.49	1691.62
867.66	1636.33
867.83	1720.29
867.99	1679.33
868.16	1718.25
868.33	1593.32
868.49	1681.38
868.66	1726.44
868.83	1730.53
868.99	1703.91
869.16	1763.30
869.33	1671.14
869.50	1767.40
869.66	1654.76
869.83	1685.48
870.00	1693.67
870.16	1757.16
870.33	1710.05
870.50	1699.81
870.66	1732.58
870.83	1839.08
871.00	1740.77
871.17	1695.72
871.33	1722.34
871.50	1722.34
871.67	1699.81
871.83	1650.66
872.00	1826.79
872.17	1660.90
872.33	1759.21
872.50	1705.96
872.67	1654.76
872.83	1701.86
873.00	1671.14
873.17	1638.38
873.33	1796.07
873.50	1796.07
873.67	1656.81
873.83	1675.24
874.00	1626.09
874.16	1824.74
874.33	1708.01
874.50	1634.28
874.66	1783.78
874.83	1759.21
875.00	1728.49
875.16	1669.09
875.33	1808.36
875.50	1595.37
875.66	1714.15
875.83	1726.44
875.99	1679.33
876.16	1689.57
876.33	1673.19
876.49	1744.87
876.66	1734.63
876.83	1654.76
876.99	1589.22
877.16	1746.92
877.32	1662.95
877.49	1638.38
877.66	1654.76
877.82	1730.53
877.99	1746.92
878.15	1691.62
878.32	1748.97
878.49	1648.61
878.65	1710.05
878.82	1794.02
878.98	1667.05
879.15	1771.49
879.32	1716.20
879.48	1691.62
879.65	1767.40
879.81	1685.48
879.98	1640.42
880.15	1669.09
880.31	1744.87
880.48	1624.04
880.64	1810.40
880.81	1736.68
880.97	1705.96
881.14	1732.58
881.31	1759.21
881.47	1837.03
881.64	1677.29
881.80	1572.84
881.97	1710.05
882.13	1699.81
882.30	1630.18
882.47	1652.71
882.63	1685.48
882.80	1718.25
882.96	1677.29
883.13	1816.55
883.29	1699.81
883.46	1748.97
883.62	1834.98
883.79	1718.25
883.95	1675.24
884.12	1673.19
884.29	1710.05
884.45	1742.82
884.62	1732.58
884.78	1660.90
884.95	1789.92
885.11	1705.96
885.28	1791.97
885.44	1724.39
885.61	1695.72
885.77	1820.64
885.94	1720.29
886.10	1689.57
886.27	1656.81
886.43	1701.86
886.60	1785.83
886.76	1683.43
886.93	1595.37
887.09	1777.64
887.26	1640.42
887.42	1705.96
887.59	1746.92
887.75	1880.04
887.92	1705.96
888.08	1755.11
888.25	1740.77
888.41	1726.44
888.58	1712.10
888.74	1634.28
888.91	1693.67
>>>>>End Processed Spectral Data<<<<<
