SpectraSuite Data File
++++++++++++++++++++++++++++++++++++
Date: Wed May 04 18:44:54 CEST 2016
User: root
Dark Spectrum Present: No
Reference Spectrum Present: No
Number of Sampled Component Spectra: 1
Spectrometers: USB4C02835
Integration Time (usec): 100000 (USB4C02835)
Spectra Averaged: 1 (USB4C02835)
Boxcar Smoothing: 0 (USB4C02835)
Correct for Electrical Dark: No (USB4C02835)
Strobe/Lamp Enabled: No (USB4C02835)
Correct for Detector Non-linearity: No (USB4C02835)
Correct for Stray Light: No (USB4C02835)
Number of Pixels in Processed Spectrum: 3648
>>>>>Begin Processed Spectral Data<<<<<
177.47	1501.16
177.69	1501.16
177.91	1501.16
178.13	1472.49
178.36	1505.26
178.58	1654.76
178.80	1763.30
179.02	1613.80
179.24	1681.38
179.46	1705.96
179.68	1796.07
179.90	1669.09
180.13	1705.96
180.35	1689.57
180.57	1761.25
180.79	1710.05
181.01	1640.42
181.23	1830.88
181.45	1787.88
181.67	1687.53
181.90	1787.88
182.12	1634.28
182.34	1646.57
182.56	1718.25
182.78	1701.86
183.00	1722.34
183.22	1710.05
183.44	1632.23
183.66	1873.89
183.89	1822.69
184.11	1716.20
184.33	1826.79
184.55	1818.60
184.77	1789.92
184.99	1656.81
185.21	1710.05
185.43	1822.69
185.65	1630.18
185.87	1730.53
186.10	1873.89
186.32	1841.12
186.54	1710.05
186.76	1705.96
186.98	1751.01
187.20	1734.63
187.42	1646.57
187.64	1703.91
187.86	1695.72
188.08	1724.39
188.30	1744.87
188.52	1708.01
188.75	1800.16
188.97	1812.45
189.19	1683.43
189.41	1718.25
189.63	1761.25
189.85	1701.86
190.07	1652.71
190.29	1642.47
190.51	1732.58
190.73	1671.14
190.95	1775.59
191.17	1667.05
191.39	1658.85
191.61	1603.56
191.84	1681.38
192.06	1660.90
192.28	1593.32
192.50	1830.88
192.72	1753.06
192.94	1681.38
193.16	1783.78
193.38	1728.49
193.60	1677.29
193.82	1697.77
194.04	1763.30
194.26	1806.31
194.48	1681.38
194.70	1703.91
194.92	1728.49
195.14	1769.44
195.36	1667.05
195.58	1728.49
195.80	1724.39
196.02	1648.61
196.24	1685.48
196.46	1701.86
196.69	1712.10
196.91	1822.69
197.13	1621.99
197.35	1677.29
197.57	1804.26
197.79	1761.25
198.01	1785.83
198.23	1728.49
198.45	1769.44
198.67	1581.03
198.89	1695.72
199.11	1710.05
199.33	1671.14
199.55	1632.23
199.77	1689.57
199.99	1763.30
200.21	1714.15
200.43	1705.96
200.65	1755.11
200.87	1585.13
201.09	1687.53
201.31	1675.24
201.53	1814.50
201.75	1781.73
201.97	1734.63
202.19	1736.68
202.41	1654.76
202.63	1849.32
202.85	1783.78
203.07	1699.81
203.29	1728.49
203.51	1662.95
203.73	1695.72
203.95	1898.47
204.17	1787.88
204.39	1738.73
204.61	1656.81
204.83	1738.73
205.05	1761.25
205.27	1732.58
205.49	1863.65
205.71	1630.18
205.93	1654.76
206.15	1685.48
206.37	1714.15
206.59	1718.25
206.81	1636.33
207.03	1599.46
207.25	1677.29
207.47	1734.63
207.69	1732.58
207.91	1791.97
208.13	1810.40
208.34	1701.86
208.56	1642.47
208.78	1695.72
209.00	1681.38
209.22	1642.47
209.44	1644.52
209.66	1648.61
209.88	1658.85
210.10	1677.29
210.32	1714.15
210.54	1810.40
210.76	1677.29
210.98	1734.63
211.20	1572.84
211.42	1734.63
211.64	1802.21
211.86	1705.96
212.08	1726.44
212.30	1708.01
212.52	1708.01
212.74	1742.82
212.96	1675.24
213.17	1775.59
213.39	1683.43
213.61	1773.54
213.83	1751.01
214.05	1689.57
214.27	1755.11
214.49	1654.76
214.71	1650.66
214.93	1744.87
215.15	1716.20
215.37	1724.39
215.59	1603.56
215.81	1798.12
216.03	1789.92
216.24	1738.73
216.46	1689.57
216.68	1775.59
216.90	1771.49
217.12	1804.26
217.34	1726.44
217.56	1697.77
217.78	1855.46
218.00	1689.57
218.22	1724.39
218.44	1734.63
218.66	1726.44
218.87	1839.08
219.09	1738.73
219.31	1705.96
219.53	1703.91
219.75	1626.09
219.97	1648.61
220.19	1718.25
220.41	1726.44
220.63	1839.08
220.85	1724.39
221.06	1660.90
221.28	1828.84
221.50	1687.53
221.72	1746.92
221.94	1691.62
222.16	1708.01
222.38	1742.82
222.60	1724.39
222.82	1697.77
223.03	1746.92
223.25	1662.95
223.47	1748.97
223.69	1849.32
223.91	1705.96
224.13	1658.85
224.35	1624.04
224.57	1834.98
224.78	1691.62
225.00	1671.14
225.22	1705.96
225.44	1738.73
225.66	1816.55
225.88	1701.86
226.10	1779.68
226.32	1724.39
226.53	1808.36
226.75	1624.04
226.97	1769.44
227.19	1718.25
227.41	1712.10
227.63	1654.76
227.85	1693.67
228.06	1763.30
228.28	1751.01
228.50	1720.29
228.72	1695.72
228.94	1695.72
229.16	1705.96
229.37	1642.47
229.59	1650.66
229.81	1742.82
230.03	1669.09
230.25	1679.33
230.47	1652.71
230.69	1648.61
230.90	1687.53
231.12	1658.85
231.34	1679.33
231.56	1787.88
231.78	1687.53
232.00	1691.62
232.21	1732.58
232.43	1652.71
232.65	1630.18
232.87	1710.05
233.09	1646.57
233.30	1685.48
233.52	1736.68
233.74	1718.25
233.96	1669.09
234.18	1662.95
234.40	1640.42
234.61	1824.74
234.83	1728.49
235.05	1689.57
235.27	1849.32
235.49	1705.96
235.70	1693.67
235.92	1708.01
236.14	1705.96
236.36	1961.95
236.58	1677.29
236.79	1677.29
237.01	1685.48
237.23	1716.20
237.45	1810.40
237.67	1640.42
237.88	1751.01
238.10	1851.36
238.32	1609.70
238.54	1681.38
238.76	1708.01
238.97	1650.66
239.19	1695.72
239.41	1814.50
239.63	1761.25
239.85	1671.14
240.06	1708.01
240.28	1722.34
240.50	1722.34
240.72	1730.53
240.93	1708.01
241.15	1759.21
241.37	1726.44
241.59	1890.28
241.81	1730.53
242.02	1787.88
242.24	1783.78
242.46	1738.73
242.68	1630.18
242.89	1812.45
243.11	1800.16
243.33	1701.86
243.55	1701.86
243.76	1714.15
243.98	1673.19
244.20	1705.96
244.42	1742.82
244.64	1742.82
244.85	1585.13
245.07	1640.42
245.29	1699.81
245.51	1673.19
245.72	1824.74
245.94	1753.06
246.16	1716.20
246.38	1783.78
246.59	1687.53
246.81	1621.99
247.03	1636.33
247.24	1589.22
247.46	1685.48
247.68	1714.15
247.90	1648.61
248.11	1689.57
248.33	1665.00
248.55	1701.86
248.77	1697.77
248.98	1708.01
249.20	1785.83
249.42	1744.87
249.64	1767.40
249.85	1710.05
250.07	1677.29
250.29	1714.15
250.50	1763.30
250.72	1615.85
250.94	1753.06
251.16	1816.55
251.37	1763.30
251.59	1720.29
251.81	1720.29
252.02	1746.92
252.24	1628.14
252.46	1728.49
252.68	1634.28
252.89	1648.61
253.11	1597.42
253.33	1820.64
253.54	1738.73
253.76	1632.23
253.98	1613.80
254.20	1714.15
254.41	1630.18
254.63	1601.51
254.85	1705.96
255.06	1642.47
255.28	1669.09
255.50	1730.53
255.71	1701.86
255.93	1628.14
256.15	1699.81
256.36	1728.49
256.58	1679.33
256.80	1705.96
257.02	1759.21
257.23	1697.77
257.45	1675.24
257.67	1679.33
257.88	1673.19
258.10	1794.02
258.32	1591.27
258.53	1693.67
258.75	1777.64
258.97	1640.42
259.18	1697.77
259.40	1710.05
259.62	1816.55
259.83	1816.55
260.05	1720.29
260.27	1925.09
260.48	1837.03
260.70	1640.42
260.92	1703.91
261.13	1691.62
261.35	1691.62
261.57	1761.25
261.78	1640.42
262.00	1613.80
262.22	1630.18
262.43	1718.25
262.65	1738.73
262.86	1673.19
263.08	1869.80
263.30	1679.33
263.51	1656.81
263.73	1652.71
263.95	1830.88
264.16	1652.71
264.38	1648.61
264.60	1732.58
264.81	1763.30
265.03	1765.35
265.25	1798.12
265.46	1693.67
265.68	1810.40
265.89	1716.20
266.11	1583.08
266.33	1689.57
266.54	1755.11
266.76	1722.34
266.98	1730.53
267.19	1753.06
267.41	1710.05
267.62	1767.40
267.84	1624.04
268.06	1728.49
268.27	1656.81
268.49	1738.73
268.70	1695.72
268.92	1703.91
269.14	1667.05
269.35	1662.95
269.57	1705.96
269.79	1681.38
270.00	1734.63
270.22	1794.02
270.43	1660.90
270.65	1619.94
270.87	1791.97
271.08	1726.44
271.30	1695.72
271.51	1765.35
271.73	1693.67
271.95	1761.25
272.16	1794.02
272.38	1656.81
272.59	1748.97
272.81	1746.92
273.02	1681.38
273.24	1740.77
273.46	1751.01
273.67	1660.90
273.89	1638.38
274.10	1658.85
274.32	1830.88
274.54	1705.96
274.75	1660.90
274.97	1677.29
275.18	1730.53
275.40	1677.29
275.61	1748.97
275.83	1671.14
276.05	1665.00
276.26	1699.81
276.48	1812.45
276.69	1599.46
276.91	1615.85
277.12	1796.07
277.34	1714.15
277.55	1648.61
277.77	1728.49
277.99	1681.38
278.20	1617.90
278.42	1742.82
278.63	1628.14
278.85	1757.16
279.06	1699.81
279.28	1660.90
279.49	1667.05
279.71	1763.30
279.93	1705.96
280.14	1673.19
280.36	1705.96
280.57	1791.97
280.79	1751.01
281.00	1691.62
281.22	1558.50
281.43	1779.68
281.65	1624.04
281.86	1617.90
282.08	1755.11
282.29	1896.42
282.51	1656.81
282.73	1673.19
282.94	1652.71
283.16	1744.87
283.37	1898.47
283.59	1673.19
283.80	1748.97
284.02	1677.29
284.23	1710.05
284.45	1703.91
284.66	1665.00
284.88	1691.62
285.09	1746.92
285.31	1728.49
285.52	1763.30
285.74	1693.67
285.95	1751.01
286.17	1691.62
286.38	1724.39
286.60	1634.28
286.81	1683.43
287.03	1681.38
287.24	1683.43
287.46	1675.24
287.67	1775.59
287.89	1816.55
288.10	1736.68
288.32	1675.24
288.53	1806.31
288.75	1746.92
288.96	1791.97
289.18	1685.48
289.39	1699.81
289.61	1699.81
289.82	1931.23
290.04	1783.78
290.25	1605.61
290.47	1646.57
290.68	1675.24
290.90	1722.34
291.11	1714.15
291.33	1718.25
291.54	1718.25
291.76	1673.19
291.97	1693.67
292.18	1740.77
292.40	1681.38
292.61	1685.48
292.83	1859.56
293.04	1746.92
293.26	1734.63
293.47	1730.53
293.69	1644.52
293.90	1650.66
294.12	1808.36
294.33	1732.58
294.55	1734.63
294.76	1722.34
294.97	1806.31
295.19	1812.45
295.40	1691.62
295.62	1673.19
295.83	1828.84
296.05	1667.05
296.26	1771.49
296.48	1693.67
296.69	1722.34
296.90	1736.68
297.12	1787.88
297.33	1783.78
297.55	1726.44
297.76	1738.73
297.98	1724.39
298.19	1728.49
298.41	1701.86
298.62	1767.40
298.83	1779.68
299.05	1656.81
299.26	1671.14
299.48	1640.42
299.69	1761.25
299.90	1708.01
300.12	1697.77
300.33	1740.77
300.55	1771.49
300.76	1736.68
300.98	1650.66
301.19	1826.79
301.40	1701.86
301.62	1724.39
301.83	1691.62
302.05	1689.57
302.26	1656.81
302.47	1648.61
302.69	1609.70
302.90	1652.71
303.12	1626.09
303.33	1773.54
303.54	1875.94
303.76	1738.73
303.97	1724.39
304.19	1796.07
304.40	1634.28
304.61	1677.29
304.83	1834.98
305.04	1773.54
305.26	1744.87
305.47	1708.01
305.68	1710.05
305.90	1658.85
306.11	1755.11
306.33	1689.57
306.54	1669.09
306.75	1705.96
306.97	1683.43
307.18	1656.81
307.39	1621.99
307.61	1714.15
307.82	1640.42
308.04	1769.44
308.25	1693.67
308.46	1773.54
308.68	1708.01
308.89	1720.29
309.10	1736.68
309.32	1673.19
309.53	1669.09
309.74	1677.29
309.96	1748.97
310.17	1800.16
310.39	1693.67
310.60	1751.01
310.81	1722.34
311.03	1646.57
311.24	1650.66
311.45	1734.63
311.67	1796.07
311.88	1654.76
312.09	1701.86
312.31	1695.72
312.52	1712.10
312.73	1738.73
312.95	1648.61
313.16	1710.05
313.37	1794.02
313.59	1714.15
313.80	1794.02
314.01	1785.83
314.23	1613.80
314.44	1667.05
314.65	1613.80
314.87	1630.18
315.08	1705.96
315.29	1761.25
315.51	1607.66
315.72	1660.90
315.93	1839.08
316.15	1804.26
316.36	1646.57
316.57	1705.96
316.79	1742.82
317.00	1650.66
317.21	1701.86
317.43	1689.57
317.64	1746.92
317.85	1685.48
318.07	1744.87
318.28	1814.50
318.49	1951.71
318.70	1906.66
318.92	1851.36
319.13	1931.23
319.34	1916.90
319.56	1845.22
319.77	1806.31
319.98	1773.54
320.20	1820.64
320.41	1765.35
320.62	1742.82
320.83	1705.96
321.05	1869.80
321.26	1779.68
321.47	1734.63
321.69	1769.44
321.90	1656.81
322.11	1705.96
322.32	1746.92
322.54	1726.44
322.75	1734.63
322.96	1873.89
323.18	1673.19
323.39	1607.66
323.60	1644.52
323.81	1789.92
324.03	1681.38
324.24	1705.96
324.45	1726.44
324.66	1689.57
324.88	1794.02
325.09	1841.12
325.30	1652.71
325.52	1734.63
325.73	1738.73
325.94	1730.53
326.15	1576.94
326.37	1630.18
326.58	1775.59
326.79	1738.73
327.00	1667.05
327.22	1726.44
327.43	1701.86
327.64	1656.81
327.85	1708.01
328.07	1771.49
328.28	1736.68
328.49	1642.47
328.70	1787.88
328.92	1665.00
329.13	1669.09
329.34	1757.16
329.55	1748.97
329.76	1730.53
329.98	1634.28
330.19	1791.97
330.40	1730.53
330.61	1746.92
330.83	1767.40
331.04	1689.57
331.25	1732.58
331.46	1738.73
331.68	1636.33
331.89	1738.73
332.10	1646.57
332.31	1619.94
332.52	1683.43
332.74	1779.68
332.95	1646.57
333.16	1673.19
333.37	1714.15
333.58	1703.91
333.80	1652.71
334.01	1667.05
334.22	1679.33
334.43	1677.29
334.64	1701.86
334.86	1656.81
335.07	1656.81
335.28	1822.69
335.49	1603.56
335.70	1734.63
335.92	1789.92
336.13	1806.31
336.34	1771.49
336.55	1775.59
336.76	1761.25
336.98	1574.89
337.19	1685.48
337.40	1822.69
337.61	1908.71
337.82	1675.24
338.04	1781.73
338.25	1615.85
338.46	1626.09
338.67	1732.58
338.88	1687.53
339.09	1695.72
339.31	1650.66
339.52	1607.66
339.73	1609.70
339.94	1642.47
340.15	1824.74
340.36	1730.53
340.58	1765.35
340.79	1673.19
341.00	1705.96
341.21	1720.29
341.42	1775.59
341.63	1726.44
341.85	1699.81
342.06	1726.44
342.27	1662.95
342.48	1712.10
342.69	1632.23
342.90	1722.34
343.12	1771.49
343.33	1697.77
343.54	1779.68
343.75	1755.11
343.96	1748.97
344.17	1689.57
344.38	1658.85
344.60	1585.13
344.81	1665.00
345.02	1697.77
345.23	1820.64
345.44	1816.55
345.65	1746.92
345.86	1753.06
346.07	1755.11
346.29	1665.00
346.50	1742.82
346.71	1714.15
346.92	1710.05
347.13	1787.88
347.34	1761.25
347.55	1683.43
347.76	1683.43
347.98	1599.46
348.19	1677.29
348.40	1787.88
348.61	1710.05
348.82	1861.60
349.03	1685.48
349.24	1732.58
349.45	1806.31
349.66	1636.33
349.88	1767.40
350.09	1662.95
350.30	1755.11
350.51	1779.68
350.72	1701.86
350.93	1714.15
351.14	1648.61
351.35	1800.16
351.56	1650.66
351.77	1650.66
351.99	1691.62
352.20	1775.59
352.41	1714.15
352.62	1523.69
352.83	1726.44
353.04	1785.83
353.25	1665.00
353.46	1773.54
353.67	1710.05
353.88	1601.51
354.09	1726.44
354.30	1718.25
354.52	1759.21
354.73	1812.45
354.94	1644.52
355.15	1771.49
355.36	1816.55
355.57	1732.58
355.78	1740.77
355.99	1665.00
356.20	1687.53
356.41	1767.40
356.62	1736.68
356.83	1779.68
357.04	1742.82
357.25	1603.56
357.46	1673.19
357.68	1599.46
357.89	1636.33
358.10	1714.15
358.31	1705.96
358.52	1689.57
358.73	1718.25
358.94	1636.33
359.15	1728.49
359.36	1751.01
359.57	1636.33
359.78	1660.90
359.99	1742.82
360.20	1646.57
360.41	1673.19
360.62	1693.67
360.83	1740.77
361.04	1683.43
361.25	1785.83
361.46	1847.27
361.67	1791.97
361.88	1775.59
362.09	1781.73
362.30	1736.68
362.51	1595.37
362.72	1738.73
362.93	1738.73
363.14	1748.97
363.35	1767.40
363.56	1775.59
363.78	1812.45
363.99	1794.02
364.20	1738.73
364.41	1714.15
364.62	1781.73
364.83	1765.35
365.04	1736.68
365.25	1669.09
365.46	1845.22
365.67	1759.21
365.88	1714.15
366.09	1634.28
366.30	1738.73
366.51	1757.16
366.72	1642.47
366.93	1683.43
367.14	1808.36
367.35	1804.26
367.56	1761.25
367.77	1818.60
367.98	1712.10
368.18	1755.11
368.39	1681.38
368.60	1650.66
368.81	1652.71
369.02	1742.82
369.23	1681.38
369.44	1630.18
369.65	1732.58
369.86	1806.31
370.07	1699.81
370.28	1708.01
370.49	1787.88
370.70	1740.77
370.91	1644.52
371.12	1535.98
371.33	1742.82
371.54	1607.66
371.75	1802.21
371.96	1533.93
372.17	1755.11
372.38	1748.97
372.59	1800.16
372.80	1746.92
373.01	1775.59
373.22	1691.62
373.43	1746.92
373.64	1630.18
373.85	1855.46
374.06	1834.98
374.26	1658.85
374.47	1662.95
374.68	1759.21
374.89	1765.35
375.10	1665.00
375.31	1800.16
375.52	1652.71
375.73	1724.39
375.94	1632.23
376.15	1763.30
376.36	1615.85
376.57	1652.71
376.78	1621.99
376.99	1650.66
377.20	1867.75
377.40	1628.14
377.61	1824.74
377.82	1630.18
378.03	1798.12
378.24	1732.58
378.45	1665.00
378.66	1689.57
378.87	1617.90
379.08	1642.47
379.29	1712.10
379.50	1791.97
379.71	1642.47
379.91	1740.77
380.12	1689.57
380.33	1673.19
380.54	1689.57
380.75	1769.44
380.96	1705.96
381.17	1667.05
381.38	1720.29
381.59	1728.49
381.80	1705.96
382.00	1853.41
382.21	1779.68
382.42	1810.40
382.63	1898.47
382.84	1783.78
383.05	1832.93
383.26	1849.32
383.47	1816.55
383.68	1800.16
383.88	1763.30
384.09	1693.67
384.30	1822.69
384.51	1730.53
384.72	1665.00
384.93	1675.24
385.14	1732.58
385.35	1828.84
385.55	1613.80
385.76	1783.78
385.97	1671.14
386.18	1646.57
386.39	1697.77
386.60	1720.29
386.81	1816.55
387.02	1710.05
387.22	1640.42
387.43	1816.55
387.64	1845.22
387.85	1904.61
388.06	2209.76
388.27	4708.28
388.48	9207.67
388.68	11796.30
388.89	13285.17
389.10	14317.35
389.31	12166.98
389.52	9756.52
389.73	8716.16
389.93	7901.06
390.14	7106.45
390.35	6862.74
390.56	5943.21
390.77	5072.82
390.98	3921.86
391.18	3119.06
391.39	2418.65
391.60	1918.95
391.81	1896.42
392.02	1771.49
392.23	1847.27
392.43	1748.97
392.64	1855.46
392.85	1775.59
393.06	1886.18
393.27	1757.16
393.47	1695.72
393.68	1789.92
393.89	1691.62
394.10	1822.69
394.31	1665.00
394.52	1689.57
394.72	1636.33
394.93	1816.55
395.14	1665.00
395.35	1757.16
395.56	1679.33
395.76	1673.19
395.97	1849.32
396.18	1865.70
396.39	1888.23
396.60	2082.78
396.80	1978.34
397.01	1814.50
397.22	1890.28
397.43	1914.85
397.64	1789.92
397.84	1798.12
398.05	1853.41
398.26	1751.01
398.47	1779.68
398.67	1845.22
398.88	1695.72
399.09	1685.48
399.30	1654.76
399.51	1775.59
399.71	1681.38
399.92	1699.81
400.13	1748.97
400.34	1761.25
400.54	1718.25
400.75	1789.92
400.96	1753.06
401.17	1802.21
401.37	1732.58
401.58	1695.72
401.79	1638.38
402.00	1882.08
402.21	2131.94
402.41	2058.21
402.62	2220.00
402.83	2308.06
403.04	2031.58
403.24	2115.55
403.45	1959.91
403.66	1947.62
403.87	1976.29
404.07	1902.56
404.28	1943.52
404.49	1953.76
404.70	1798.12
404.90	1843.17
405.11	1802.21
405.32	1789.92
405.52	1701.86
405.73	1675.24
405.94	1734.63
406.15	1740.77
406.35	1789.92
406.56	1740.77
406.77	1759.21
406.98	1683.43
407.18	1681.38
407.39	1783.78
407.60	1703.91
407.80	1763.30
408.01	1677.29
408.22	1689.57
408.43	1658.85
408.63	1775.59
408.84	1787.88
409.05	1773.54
409.25	1689.57
409.46	1763.30
409.67	1710.05
409.88	1667.05
410.08	1675.24
410.29	1730.53
410.50	1755.11
410.70	1789.92
410.91	1730.53
411.12	1732.58
411.32	1701.86
411.53	1662.95
411.74	1818.60
411.95	1865.70
412.15	1812.45
412.36	1769.44
412.57	1843.17
412.77	1732.58
412.98	1781.73
413.19	1685.48
413.39	1753.06
413.60	1804.26
413.81	1802.21
414.01	1689.57
414.22	1828.84
414.43	1892.32
414.63	1720.29
414.84	1789.92
415.05	1669.09
415.25	1732.58
415.46	1796.07
415.67	1738.73
415.87	1775.59
416.08	1779.68
416.29	1691.62
416.49	1732.58
416.70	1732.58
416.91	1746.92
417.11	1669.09
417.32	1744.87
417.53	1669.09
417.73	1783.78
417.94	1763.30
418.15	1691.62
418.35	1687.53
418.56	1716.20
418.77	1939.43
418.97	1705.96
419.18	1781.73
419.38	1693.67
419.59	1658.85
419.80	1804.26
420.00	1724.39
420.21	1763.30
420.42	1714.15
420.62	1626.09
420.83	1691.62
421.04	1800.16
421.24	1644.52
421.45	1710.05
421.65	1759.21
421.86	1705.96
422.07	1722.34
422.27	1730.53
422.48	1824.74
422.69	1638.38
422.89	1759.21
423.10	1738.73
423.30	1662.95
423.51	1822.69
423.72	1720.29
423.92	1794.02
424.13	1636.33
424.33	1710.05
424.54	1742.82
424.75	1763.30
424.95	1785.83
425.16	1751.01
425.36	1755.11
425.57	1738.73
425.78	1718.25
425.98	1746.92
426.19	1658.85
426.39	1650.66
426.60	1716.20
426.81	1757.16
427.01	1755.11
427.22	1675.24
427.42	1671.14
427.63	1671.14
427.83	1642.47
428.04	1740.77
428.25	1787.88
428.45	1830.88
428.66	1736.68
428.86	1714.15
429.07	1742.82
429.28	1746.92
429.48	1714.15
429.69	1630.18
429.89	1740.77
430.10	1648.61
430.30	1800.16
430.51	1828.84
430.71	1710.05
430.92	1742.82
431.13	1669.09
431.33	1738.73
431.54	1669.09
431.74	1746.92
431.95	1763.30
432.15	1632.23
432.36	1726.44
432.56	1775.59
432.77	1810.40
432.98	1814.50
433.18	1718.25
433.39	1691.62
433.59	1701.86
433.80	1791.97
434.00	1826.79
434.21	1718.25
434.41	1650.66
434.62	1910.75
434.82	1703.91
435.03	1662.95
435.23	1720.29
435.44	1613.80
435.64	1716.20
435.85	1722.34
436.06	1708.01
436.26	1718.25
436.47	1701.86
436.67	1636.33
436.88	1738.73
437.08	1726.44
437.29	1730.53
437.49	1730.53
437.70	1759.21
437.90	1728.49
438.11	1787.88
438.31	1830.88
438.52	1912.80
438.72	1851.36
438.93	2037.73
439.13	1812.45
439.34	1898.47
439.54	1785.83
439.75	1742.82
439.95	1906.66
440.16	1798.12
440.36	1796.07
440.57	1775.59
440.77	1816.55
440.98	1742.82
441.18	1771.49
441.39	1748.97
441.59	1673.19
441.80	1841.12
442.00	1751.01
442.21	1787.88
442.41	1712.10
442.62	1753.06
442.82	1687.53
443.02	1652.71
443.23	1761.25
443.43	1730.53
443.64	1785.83
443.84	1724.39
444.05	1791.97
444.25	1732.58
444.46	1734.63
444.66	1728.49
444.87	1861.60
445.07	1675.24
445.28	1705.96
445.48	1814.50
445.69	1753.06
445.89	1953.76
446.09	1775.59
446.30	2025.44
446.50	2586.58
446.71	4128.70
446.91	5169.07
447.12	5898.15
447.32	5939.11
447.53	5308.34
447.73	4425.66
447.93	3942.34
448.14	3604.42
448.34	3459.02
448.55	3104.72
448.75	2996.18
448.96	2944.98
449.16	2674.65
449.36	2492.38
449.57	2209.76
449.77	1951.71
449.98	1785.83
450.18	1771.49
450.39	1863.65
450.59	1828.84
450.79	1800.16
451.00	1753.06
451.20	1730.53
451.41	1757.16
451.61	1718.25
451.81	1755.11
452.02	1683.43
452.22	1691.62
452.43	1658.85
452.63	1648.61
452.84	1742.82
453.04	1656.81
453.24	1767.40
453.45	1683.43
453.65	1753.06
453.86	1728.49
454.06	1775.59
454.26	1734.63
454.47	1781.73
454.67	1806.31
454.87	1730.53
455.08	1759.21
455.28	1882.08
455.49	1748.97
455.69	1755.11
455.89	1828.84
456.10	1769.44
456.30	1767.40
456.51	1728.49
456.71	1722.34
456.91	1791.97
457.12	1681.38
457.32	1746.92
457.52	1640.42
457.73	1751.01
457.93	1757.16
458.14	1714.15
458.34	1644.52
458.54	1751.01
458.75	1724.39
458.95	1802.21
459.15	1777.64
459.36	1761.25
459.56	1755.11
459.76	1916.90
459.97	1779.68
460.17	1697.77
460.37	1826.79
460.58	1736.68
460.78	1726.44
460.99	1757.16
461.19	1730.53
461.39	1726.44
461.60	1748.97
461.80	1769.44
462.00	1697.77
462.21	1685.48
462.41	1650.66
462.61	1755.11
462.82	1581.03
463.02	1769.44
463.22	1746.92
463.43	1775.59
463.63	1732.58
463.83	1794.02
464.04	1691.62
464.24	1718.25
464.44	1738.73
464.64	1746.92
464.85	1816.55
465.05	1845.22
465.25	1808.36
465.46	1685.48
465.66	1773.54
465.86	1738.73
466.07	1734.63
466.27	1708.01
466.47	1667.05
466.68	1710.05
466.88	1781.73
467.08	1767.40
467.29	1814.50
467.49	1693.67
467.69	1699.81
467.89	1718.25
468.10	1636.33
468.30	1697.77
468.50	1800.16
468.71	1845.22
468.91	1640.42
469.11	1787.88
469.31	1820.64
469.52	1714.15
469.72	1828.84
469.92	1800.16
470.13	1757.16
470.33	1798.12
470.53	1820.64
470.73	2217.95
470.94	2529.24
471.14	2672.60
471.34	2996.18
471.54	2854.87
471.75	2574.30
471.95	2426.84
472.15	2265.05
472.36	2299.87
472.56	2185.18
472.76	2148.32
472.96	2209.76
473.17	2142.18
473.37	1935.33
473.57	1953.76
473.77	1851.36
473.98	1781.73
474.18	1757.16
474.38	1902.56
474.58	1705.96
474.79	1662.95
474.99	1783.78
475.19	1804.26
475.39	1665.00
475.60	1767.40
475.80	1751.01
476.00	1699.81
476.20	1669.09
476.41	1687.53
476.61	1832.93
476.81	1781.73
477.01	1703.91
477.21	1832.93
477.42	1830.88
477.62	1673.19
477.82	1746.92
478.02	1705.96
478.23	1726.44
478.43	1599.46
478.63	1761.25
478.83	1779.68
479.03	1763.30
479.24	1871.84
479.44	1845.22
479.64	1626.09
479.84	1628.14
480.04	1689.57
480.25	1804.26
480.45	1617.90
480.65	1730.53
480.85	1802.21
481.06	1722.34
481.26	1767.40
481.46	1681.38
481.66	1837.03
481.86	1619.94
482.06	1781.73
482.27	1652.71
482.47	1634.28
482.67	1773.54
482.87	1771.49
483.07	1804.26
483.28	1669.09
483.48	1640.42
483.68	1710.05
483.88	1724.39
484.08	1593.32
484.29	1658.85
484.49	1726.44
484.69	1703.91
484.89	1738.73
485.09	1730.53
485.29	1753.06
485.50	1718.25
485.70	1818.60
485.90	1763.30
486.10	1732.58
486.30	1746.92
486.50	1822.69
486.71	1742.82
486.91	1771.49
487.11	1826.79
487.31	1669.09
487.51	1699.81
487.71	1720.29
487.91	1681.38
488.12	1660.90
488.32	1634.28
488.52	1685.48
488.72	1597.42
488.92	1673.19
489.12	1839.08
489.32	1806.31
489.53	1763.30
489.73	1607.66
489.93	1841.12
490.13	1650.66
490.33	1662.95
490.53	1761.25
490.73	1785.83
490.94	1689.57
491.14	1744.87
491.34	1851.36
491.54	2058.21
491.74	2701.27
491.94	3207.12
492.14	3461.07
492.34	3553.23
492.54	3209.17
492.75	2764.76
492.95	2559.96
493.15	2426.84
493.35	2402.27
493.55	2346.97
493.75	2254.81
493.95	2191.33
494.15	2064.35
494.35	1988.58
494.56	1906.66
494.76	1816.55
494.96	1771.49
495.16	1804.26
495.36	1712.10
495.56	1677.29
495.76	1652.71
495.96	1669.09
496.16	1681.38
496.36	1859.56
496.56	1748.97
496.77	1693.67
496.97	1796.07
497.17	1785.83
497.37	1624.04
497.57	1705.96
497.77	1744.87
497.97	1701.86
498.17	1804.26
498.37	1708.01
498.57	1761.25
498.77	1665.00
498.97	1679.33
499.17	1806.31
499.38	1769.44
499.58	1761.25
499.78	1904.61
499.98	1857.51
500.18	1763.30
500.38	1710.05
500.58	1898.47
500.78	2353.12
500.98	4589.50
501.18	6623.13
501.38	8064.90
501.58	9039.73
501.78	8730.49
501.98	6838.17
502.18	5693.35
502.38	4986.80
502.58	4521.92
502.78	4069.31
502.98	3999.68
503.18	3819.46
503.38	3614.66
503.59	3145.68
503.79	2883.54
503.99	2660.31
504.19	2453.47
504.39	2279.39
504.59	2373.60
504.79	2303.96
504.99	2275.29
505.19	2113.50
505.39	2027.49
505.59	1974.24
505.79	2004.96
505.99	1837.03
506.19	1843.17
506.39	1918.95
506.59	1853.41
506.79	1804.26
506.99	1812.45
507.19	1748.97
507.39	1800.16
507.59	1642.47
507.79	1669.09
507.99	1753.06
508.19	1724.39
508.39	1738.73
508.59	1765.35
508.79	1767.40
508.99	1884.13
509.19	1677.29
509.39	1789.92
509.59	1720.29
509.79	1675.24
509.99	1753.06
510.19	1791.97
510.39	1828.84
510.59	1722.34
510.79	1658.85
510.99	1665.00
511.19	1720.29
511.39	1884.13
511.59	1855.46
511.79	1804.26
511.99	1769.44
512.19	1841.12
512.38	1789.92
512.58	1742.82
512.78	1742.82
512.98	1769.44
513.18	1798.12
513.38	1710.05
513.58	1777.64
513.78	1781.73
513.98	1705.96
514.18	1660.90
514.38	1683.43
514.58	1763.30
514.78	1734.63
514.98	1789.92
515.18	1660.90
515.38	1644.52
515.58	1779.68
515.78	1722.34
515.98	1814.50
516.18	1812.45
516.38	1722.34
516.57	1687.53
516.77	1775.59
516.97	1832.93
517.17	1734.63
517.37	1617.90
517.57	1759.21
517.77	1736.68
517.97	1683.43
518.17	1845.22
518.37	1753.06
518.57	1705.96
518.77	1736.68
518.97	1718.25
519.16	1753.06
519.36	1753.06
519.56	1714.15
519.76	1701.86
519.96	1763.30
520.16	1869.80
520.36	1740.77
520.56	1837.03
520.76	1697.77
520.96	1714.15
521.16	1744.87
521.35	1781.73
521.55	1763.30
521.75	1722.34
521.95	1681.38
522.15	1732.58
522.35	1701.86
522.55	1736.68
522.75	1773.54
522.95	1794.02
523.14	1728.49
523.34	1705.96
523.54	1724.39
523.74	1710.05
523.94	1708.01
524.14	1710.05
524.34	1814.50
524.54	1787.88
524.73	1665.00
524.93	1746.92
525.13	1732.58
525.33	1648.61
525.53	1896.42
525.73	1832.93
525.93	1732.58
526.13	1730.53
526.32	1648.61
526.52	1800.16
526.72	1738.73
526.92	1699.81
527.12	1722.34
527.32	1581.03
527.52	1853.41
527.71	1800.16
527.91	1738.73
528.11	1681.38
528.31	1759.21
528.51	1628.14
528.71	1751.01
528.90	1697.77
529.10	1787.88
529.30	1816.55
529.50	1640.42
529.70	1683.43
529.90	1685.48
530.09	1665.00
530.29	1650.66
530.49	1683.43
530.69	1834.98
530.89	1740.77
531.09	1873.89
531.28	1738.73
531.48	1818.60
531.68	1748.97
531.88	1708.01
532.08	1810.40
532.28	1755.11
532.47	1812.45
532.67	1927.14
532.87	1748.97
533.07	1748.97
533.27	1724.39
533.46	1759.21
533.66	1773.54
533.86	1710.05
534.06	1681.38
534.26	1720.29
534.45	1669.09
534.65	1720.29
534.85	1720.29
535.05	1685.48
535.25	1822.69
535.44	1656.81
535.64	1818.60
535.84	1693.67
536.04	1695.72
536.24	1740.77
536.43	1724.39
536.63	1699.81
536.83	1734.63
537.03	1683.43
537.22	1646.57
537.42	1683.43
537.62	1742.82
537.82	1660.90
538.02	1845.22
538.21	1814.50
538.41	1886.18
538.61	1785.83
538.81	1728.49
539.00	1869.80
539.20	1640.42
539.40	1742.82
539.60	1777.64
539.79	1779.68
539.99	1669.09
540.19	1802.21
540.39	1726.44
540.58	1732.58
540.78	1746.92
540.98	1673.19
541.18	1755.11
541.37	1722.34
541.57	1761.25
541.77	1726.44
541.97	1656.81
542.16	1710.05
542.36	1675.24
542.56	1736.68
542.76	1857.51
542.95	1779.68
543.15	1775.59
543.35	1736.68
543.54	1742.82
543.74	1732.58
543.94	1877.99
544.14	1697.77
544.33	1800.16
544.53	1740.77
544.73	1761.25
544.93	1767.40
545.12	1722.34
545.32	1755.11
545.52	1771.49
545.71	1683.43
545.91	1640.42
546.11	1683.43
546.30	1656.81
546.50	1650.66
546.70	1841.12
546.90	1773.54
547.09	1669.09
547.29	1736.68
547.49	1861.60
547.68	1757.16
547.88	1658.85
548.08	1728.49
548.27	2152.42
548.47	1771.49
548.67	1681.38
548.87	1763.30
549.06	1755.11
549.26	1808.36
549.46	1736.68
549.65	1759.21
549.85	1761.25
550.05	1812.45
550.24	1718.25
550.44	1718.25
550.64	1796.07
550.83	1763.30
551.03	1808.36
551.23	1798.12
551.42	1708.01
551.62	1710.05
551.82	1751.01
552.01	1796.07
552.21	1857.51
552.41	1777.64
552.60	1751.01
552.80	1791.97
553.00	1705.96
553.19	1734.63
553.39	1730.53
553.59	1654.76
553.78	1767.40
553.98	1765.35
554.17	1675.24
554.37	1738.73
554.57	1806.31
554.76	1619.94
554.96	1759.21
555.16	1767.40
555.35	1699.81
555.55	1728.49
555.75	1789.92
555.94	1785.83
556.14	1615.85
556.33	1730.53
556.53	1765.35
556.73	1818.60
556.92	1755.11
557.12	1791.97
557.32	1861.60
557.51	1849.32
557.71	1806.31
557.90	1818.60
558.10	1771.49
558.30	1699.81
558.49	1685.48
558.69	1724.39
558.88	1787.88
559.08	1820.64
559.28	1671.14
559.47	1617.90
559.67	1722.34
559.86	1814.50
560.06	1814.50
560.26	1755.11
560.45	1712.10
560.65	1675.24
560.84	1824.74
561.04	1724.39
561.24	1744.87
561.43	1685.48
561.63	1849.32
561.82	1738.73
562.02	1787.88
562.22	1689.57
562.41	1693.67
562.61	1740.77
562.80	1794.02
563.00	1920.99
563.19	1738.73
563.39	1777.64
563.59	1779.68
563.78	1628.14
563.98	1652.71
564.17	1714.15
564.37	1619.94
564.56	1708.01
564.76	1712.10
564.96	1796.07
565.15	1845.22
565.35	1902.56
565.54	1665.00
565.74	1693.67
565.93	1728.49
566.13	1722.34
566.32	1714.15
566.52	1808.36
566.71	1722.34
566.91	1861.60
567.11	1767.40
567.30	1693.67
567.50	1703.91
567.69	1769.44
567.89	1681.38
568.08	1679.33
568.28	1705.96
568.47	1681.38
568.67	1771.49
568.86	1789.92
569.06	1761.25
569.25	1720.29
569.45	1671.14
569.64	1705.96
569.84	1720.29
570.04	1777.64
570.23	1697.77
570.43	1730.53
570.62	1767.40
570.82	1834.98
571.01	1628.14
571.21	1644.52
571.40	1665.00
571.60	1771.49
571.79	1710.05
571.99	1787.88
572.18	1683.43
572.38	1767.40
572.57	1740.77
572.77	1832.93
572.96	1884.13
573.16	1865.70
573.35	1748.97
573.55	1865.70
573.74	1748.97
573.94	1705.96
574.13	1777.64
574.33	1726.44
574.52	1767.40
574.71	1822.69
574.91	1740.77
575.10	1617.90
575.30	1708.01
575.49	1810.40
575.69	1734.63
575.88	1738.73
576.08	1732.58
576.27	1822.69
576.47	1875.94
576.66	1957.86
576.86	1890.28
577.05	1755.11
577.25	1820.64
577.44	1861.60
577.64	1734.63
577.83	1822.69
578.02	1779.68
578.22	1810.40
578.41	1871.84
578.61	1777.64
578.80	1720.29
579.00	1802.21
579.19	1769.44
579.39	1810.40
579.58	1880.04
579.77	1767.40
579.97	1824.74
580.16	1839.08
580.36	1746.92
580.55	1789.92
580.75	1761.25
580.94	1820.64
581.13	1923.04
581.33	1886.18
581.52	1740.77
581.72	1861.60
581.91	1847.27
582.11	1779.68
582.30	1828.84
582.49	1861.60
582.69	1865.70
582.88	1734.63
583.08	1816.55
583.27	1882.08
583.47	1732.58
583.66	1724.39
583.85	1755.11
584.05	1724.39
584.24	1806.31
584.44	1800.16
584.63	1853.41
584.82	1886.18
585.02	1927.14
585.21	1974.24
585.41	1947.62
585.60	1890.28
585.79	1966.05
585.99	1959.91
586.18	1943.52
586.37	2263.01
586.57	3401.68
586.76	10016.62
586.96	27608.67
587.15	42173.82
587.34	52085.99
587.54	58137.74
587.73	56054.95
587.93	40588.69
588.12	30053.94
588.31	24110.74
588.51	20637.38
588.70	18435.81
588.89	17305.34
589.09	15669.01
589.28	13750.06
589.47	11528.02
589.67	9414.51
589.86	7350.16
590.06	5408.69
590.25	4220.86
590.44	3274.70
590.64	2703.32
590.83	2365.40
591.02	2099.17
591.22	1935.33
591.41	1857.51
591.60	1771.49
591.80	1920.99
591.99	1742.82
592.18	1748.97
592.38	1863.65
592.57	1677.29
592.76	1818.60
592.96	1785.83
593.15	1769.44
593.34	1798.12
593.54	1728.49
593.73	1816.55
593.92	1859.56
594.12	1769.44
594.31	1785.83
594.50	1822.69
594.70	1847.27
594.89	1890.28
595.08	1746.92
595.28	1738.73
595.47	1890.28
595.66	1800.16
595.86	1767.40
596.05	1740.77
596.24	1732.58
596.43	1875.94
596.63	1855.46
596.82	1828.84
597.01	1808.36
597.21	1859.56
597.40	1796.07
597.59	1816.55
597.79	1710.05
597.98	1798.12
598.17	1787.88
598.36	1697.77
598.56	1787.88
598.75	1714.15
598.94	1810.40
599.14	1828.84
599.33	1722.34
599.52	1812.45
599.71	1755.11
599.91	1740.77
600.10	1828.84
600.29	1808.36
600.48	1724.39
600.68	1779.68
600.87	1718.25
601.06	1675.24
601.26	1832.93
601.45	1787.88
601.64	1724.39
601.83	1824.74
602.03	1761.25
602.22	1681.38
602.41	1859.56
602.60	1914.85
602.80	1736.68
602.99	1751.01
603.18	1701.86
603.37	1742.82
603.57	1837.03
603.76	1839.08
603.95	1689.57
604.14	1601.51
604.34	1742.82
604.53	1800.16
604.72	1791.97
604.91	1802.21
605.10	1746.92
605.30	1710.05
605.49	1849.32
605.68	1767.40
605.87	1787.88
606.07	1834.98
606.26	1708.01
606.45	1773.54
606.64	1740.77
606.84	1724.39
607.03	1718.25
607.22	1765.35
607.41	1755.11
607.60	1777.64
607.80	1808.36
607.99	1712.10
608.18	1775.59
608.37	1724.39
608.56	1722.34
608.76	1830.88
608.95	1943.52
609.14	1855.46
609.33	1884.13
609.52	1933.28
609.72	1861.60
609.91	1789.92
610.10	1841.12
610.29	1832.93
610.48	1794.02
610.68	1800.16
610.87	1757.16
611.06	1828.84
611.25	1800.16
611.44	1814.50
611.63	1697.77
611.83	1826.79
612.02	1646.57
612.21	1824.74
612.40	1615.85
612.59	1656.81
612.79	1732.58
612.98	1720.29
613.17	1830.88
613.36	1765.35
613.55	1880.04
613.74	1837.03
613.93	1888.23
614.13	1902.56
614.32	1937.38
614.51	1972.19
614.70	1812.45
614.89	1853.41
615.08	1826.79
615.28	2025.44
615.47	1675.24
615.66	1857.51
615.85	1812.45
616.04	1894.37
616.23	1767.40
616.42	1824.74
616.62	1759.21
616.81	1791.97
617.00	1748.97
617.19	1783.78
617.38	1773.54
617.57	1791.97
617.76	1726.44
617.95	1796.07
618.15	1810.40
618.34	1818.60
618.53	1630.18
618.72	1839.08
618.91	1841.12
619.10	1826.79
619.29	1722.34
619.48	1787.88
619.68	1630.18
619.87	1775.59
620.06	1695.72
620.25	1781.73
620.44	1667.05
620.63	1738.73
620.82	1693.67
621.01	1689.57
621.20	1648.61
621.39	1785.83
621.59	1720.29
621.78	1753.06
621.97	1755.11
622.16	1787.88
622.35	1808.36
622.54	1828.84
622.73	1767.40
622.92	1646.57
623.11	1763.30
623.30	1765.35
623.49	1791.97
623.68	1763.30
623.88	1767.40
624.07	1697.77
624.26	1771.49
624.45	1769.44
624.64	1746.92
624.83	1787.88
625.02	1748.97
625.21	1714.15
625.40	1689.57
625.59	1718.25
625.78	1751.01
625.97	1783.78
626.16	1853.41
626.35	1742.82
626.54	1794.02
626.74	1892.32
626.93	1708.01
627.12	1701.86
627.31	1902.56
627.50	1804.26
627.69	1820.64
627.88	1734.63
628.07	1638.38
628.26	1716.20
628.45	1738.73
628.64	1724.39
628.83	1759.21
629.02	1708.01
629.21	1796.07
629.40	1736.68
629.59	1689.57
629.78	1658.85
629.97	1693.67
630.16	1814.50
630.35	1652.71
630.54	1765.35
630.73	1740.77
630.92	1779.68
631.11	1710.05
631.30	1718.25
631.49	1822.69
631.68	1705.96
631.87	1755.11
632.06	1689.57
632.25	1871.84
632.44	1812.45
632.63	1751.01
632.82	1677.29
633.01	1796.07
633.20	1804.26
633.39	1816.55
633.58	1718.25
633.77	1802.21
633.96	1898.47
634.15	1785.83
634.34	1818.60
634.53	1701.86
634.72	1763.30
634.91	1599.46
635.10	1798.12
635.29	1779.68
635.48	1773.54
635.67	1681.38
635.86	1656.81
636.05	1857.51
636.24	1822.69
636.43	1769.44
636.62	1708.01
636.81	1568.74
637.00	1710.05
637.19	1761.25
637.38	1765.35
637.57	1693.67
637.76	1720.29
637.95	1808.36
638.14	1769.44
638.33	1828.84
638.52	1818.60
638.71	1787.88
638.89	1691.62
639.08	1918.95
639.27	1873.89
639.46	1945.57
639.65	2217.95
639.84	2176.99
640.03	2459.61
640.22	2367.45
640.41	2281.44
640.60	1998.82
640.79	1976.29
640.98	1880.04
641.17	1861.60
641.36	1877.99
641.55	1867.75
641.74	1783.78
641.92	1781.73
642.11	1785.83
642.30	1775.59
642.49	1662.95
642.68	1732.58
642.87	1791.97
643.06	1779.68
643.25	1689.57
643.44	1658.85
643.63	1712.10
643.82	1759.21
644.00	1683.43
644.19	1789.92
644.38	1665.00
644.57	1783.78
644.76	1775.59
644.95	1656.81
645.14	1802.21
645.33	1701.86
645.52	1660.90
645.71	1671.14
645.89	1605.61
646.08	1710.05
646.27	1697.77
646.46	1824.74
646.65	1669.09
646.84	1738.73
647.03	1681.38
647.22	1763.30
647.40	1814.50
647.59	1652.71
647.78	1638.38
647.97	1720.29
648.16	1654.76
648.35	1847.27
648.54	1814.50
648.73	1699.81
648.91	1781.73
649.10	1701.86
649.29	1660.90
649.48	1736.68
649.67	1757.16
649.86	1722.34
650.05	1767.40
650.23	1947.62
650.42	1789.92
650.61	1894.37
650.80	1882.08
650.99	1910.75
651.18	1880.04
651.36	1849.32
651.55	1820.64
651.74	1757.16
651.93	1783.78
652.12	1697.77
652.31	1755.11
652.49	1650.66
652.68	1701.86
652.87	1867.75
653.06	1730.53
653.25	1845.22
653.44	1726.44
653.62	1746.92
653.81	1714.15
654.00	1740.77
654.19	1720.29
654.38	1861.60
654.56	1744.87
654.75	1724.39
654.94	1791.97
655.13	1837.03
655.32	1714.15
655.51	1832.93
655.69	1722.34
655.88	1734.63
656.07	1624.04
656.26	1738.73
656.45	1656.81
656.63	1708.01
656.82	1718.25
657.01	1804.26
657.20	1658.85
657.38	1763.30
657.57	1665.00
657.76	1593.32
657.95	1732.58
658.14	1755.11
658.32	1757.16
658.51	1728.49
658.70	1716.20
658.89	1755.11
659.08	1759.21
659.26	1859.56
659.45	1742.82
659.64	1744.87
659.83	1753.06
660.01	1972.19
660.20	1765.35
660.39	1882.08
660.58	1683.43
660.76	1761.25
660.95	1640.42
661.14	1722.34
661.33	1681.38
661.51	1789.92
661.70	1708.01
661.89	1775.59
662.08	1757.16
662.26	1611.75
662.45	1656.81
662.64	1804.26
662.83	1769.44
663.01	1648.61
663.20	1658.85
663.39	1785.83
663.58	1685.48
663.76	1621.99
663.95	1759.21
664.14	1718.25
664.32	1660.90
664.51	1697.77
664.70	1652.71
664.89	1738.73
665.07	1697.77
665.26	1851.36
665.45	1658.85
665.64	1697.77
665.82	1757.16
666.01	1853.41
666.20	1660.90
666.38	1867.75
666.57	1845.22
666.76	2273.25
666.95	4632.51
667.13	11476.82
667.32	18710.24
667.51	22390.44
667.69	25372.28
667.88	25611.90
668.07	19656.40
668.25	14401.32
668.44	11708.24
668.63	9850.73
668.81	8619.90
669.00	7743.37
669.19	7094.16
669.38	6231.97
669.56	5408.69
669.75	4499.39
669.94	3864.52
670.12	3145.68
670.31	2717.65
670.50	2355.16
670.68	2033.63
670.87	1972.19
671.06	1861.60
671.24	1859.56
671.43	1912.80
671.62	1783.78
671.80	1832.93
671.99	1673.19
672.18	1845.22
672.36	1828.84
672.55	1740.77
672.74	1783.78
672.92	1730.53
673.11	1708.01
673.29	1656.81
673.48	1820.64
673.67	1703.91
673.85	1671.14
674.04	1693.67
674.23	1746.92
674.41	1877.99
674.60	1640.42
674.79	1683.43
674.97	1720.29
675.16	1783.78
675.34	1689.57
675.53	1673.19
675.72	1708.01
675.90	1777.64
676.09	1701.86
676.28	1773.54
676.46	1578.98
676.65	1730.53
676.83	1673.19
677.02	1728.49
677.21	1720.29
677.39	1708.01
677.58	1730.53
677.77	1771.49
677.95	1658.85
678.14	1701.86
678.32	1732.58
678.51	1699.81
678.70	1826.79
678.88	1679.33
679.07	1683.43
679.25	1806.31
679.44	1619.94
679.63	1675.24
679.81	1726.44
680.00	1820.64
680.18	1748.97
680.37	1746.92
680.55	1720.29
680.74	1644.52
680.93	1658.85
681.11	1681.38
681.30	1685.48
681.48	1732.58
681.67	1705.96
681.85	1705.96
682.04	1685.48
682.23	1732.58
682.41	1763.30
682.60	1718.25
682.78	1705.96
682.97	1665.00
683.15	1763.30
683.34	1744.87
683.53	1787.88
683.71	1589.22
683.90	1796.07
684.08	1810.40
684.27	1722.34
684.45	1650.66
684.64	1820.64
684.82	1726.44
685.01	1755.11
685.19	1669.09
685.38	1779.68
685.57	1734.63
685.75	1722.34
685.94	1679.33
686.12	1669.09
686.31	1677.29
686.49	1757.16
686.68	1529.83
686.86	1730.53
687.05	1714.15
687.23	1820.64
687.42	1724.39
687.60	1679.33
687.79	1718.25
687.97	1834.98
688.16	1818.60
688.34	1789.92
688.53	1615.85
688.71	1798.12
688.90	1720.29
689.08	1773.54
689.27	1652.71
689.45	1710.05
689.64	1773.54
689.82	1777.64
690.01	1671.14
690.19	1730.53
690.38	1665.00
690.56	1781.73
690.75	1716.20
690.93	1742.82
691.12	1640.42
691.30	1693.67
691.49	1640.42
691.67	1775.59
691.86	1843.17
692.04	1751.01
692.23	1708.01
692.41	1634.28
692.60	1902.56
692.78	1802.21
692.97	1767.40
693.15	1783.78
693.34	1818.60
693.52	1779.68
693.71	1753.06
693.89	1726.44
694.08	1628.14
694.26	1802.21
694.44	1812.45
694.63	1761.25
694.81	1726.44
695.00	1679.33
695.18	1822.69
695.37	1843.17
695.55	1695.72
695.74	1671.14
695.92	1652.71
696.10	1789.92
696.29	1636.33
696.47	1695.72
696.66	1621.99
696.84	1693.67
697.03	1693.67
697.21	1832.93
697.40	2295.77
697.58	1849.32
697.76	1665.00
697.95	1734.63
698.13	1685.48
698.32	1587.18
698.50	1697.77
698.68	1648.61
698.87	1738.73
699.05	1767.40
699.24	1675.24
699.42	1671.14
699.61	1763.30
699.79	1697.77
699.97	1740.77
700.16	1660.90
700.34	1650.66
700.53	1742.82
700.71	1847.27
700.89	1845.22
701.08	1779.68
701.26	1730.53
701.45	2117.60
701.63	1703.91
701.81	1767.40
702.00	1746.92
702.18	1718.25
702.37	1679.33
702.55	1953.76
702.73	1880.04
702.92	1882.08
703.10	2033.63
703.28	1974.24
703.47	1886.18
703.65	1918.95
703.84	1781.73
704.02	1763.30
704.20	1898.47
704.39	1751.01
704.57	1753.06
704.75	1802.21
704.94	1853.41
705.12	1724.39
705.30	1920.99
705.49	2521.05
705.67	5392.30
705.86	13262.65
706.04	19400.41
706.22	22656.68
706.41	25157.25
706.59	24811.14
706.77	19240.67
706.96	13895.47
707.14	11953.99
707.32	10129.25
707.51	9011.06
707.69	7962.50
707.87	6715.29
708.06	5451.69
708.24	4356.03
708.42	3323.85
708.61	2836.44
708.79	2232.29
708.97	2021.35
709.16	1914.85
709.34	1882.08
709.52	1796.07
709.71	1681.38
709.89	1726.44
710.07	1689.57
710.26	1695.72
710.44	1744.87
710.62	1769.44
710.80	1726.44
710.99	1818.60
711.17	1712.10
711.35	1642.47
711.54	1708.01
711.72	1787.88
711.90	1714.15
712.09	1718.25
712.27	1757.16
712.45	1689.57
712.63	1763.30
712.82	1683.43
713.00	1691.62
713.18	1810.40
713.37	1710.05
713.55	1785.83
713.73	1705.96
713.91	1765.35
714.10	1652.71
714.28	1732.58
714.46	1759.21
714.65	1677.29
714.83	1740.77
715.01	1802.21
715.19	1738.73
715.38	1695.72
715.56	1751.01
715.74	1687.53
715.92	1722.34
716.11	1781.73
716.29	1587.18
716.47	1679.33
716.65	1753.06
716.84	1542.12
717.02	1732.58
717.20	1660.90
717.38	1759.21
717.57	1748.97
717.75	1718.25
717.93	1644.52
718.11	1671.14
718.30	1619.94
718.48	1685.48
718.66	1738.73
718.84	1724.39
719.03	1699.81
719.21	1738.73
719.39	1765.35
719.57	1767.40
719.75	1687.53
719.94	1683.43
720.12	1746.92
720.30	1816.55
720.48	1751.01
720.67	1665.00
720.85	1642.47
721.03	1671.14
721.21	1607.66
721.39	1822.69
721.58	1730.53
721.76	1742.82
721.94	1681.38
722.12	1695.72
722.30	1675.24
722.49	1724.39
722.67	1738.73
722.85	1757.16
723.03	1628.14
723.21	1708.01
723.40	1744.87
723.58	1769.44
723.76	1728.49
723.94	1779.68
724.12	1855.46
724.30	1910.75
724.49	1898.47
724.67	1828.84
724.85	1781.73
725.03	1693.67
725.21	1789.92
725.40	1802.21
725.58	1693.67
725.76	1767.40
725.94	1658.85
726.12	1675.24
726.30	1648.61
726.49	1718.25
726.67	1789.92
726.85	1757.16
727.03	1882.08
727.21	2322.40
727.39	3504.07
727.57	5066.67
727.76	5570.48
727.94	6348.70
728.12	6539.16
728.30	5674.92
728.48	4499.39
728.66	3897.28
728.84	3585.99
729.03	3094.48
729.21	2785.24
729.39	2418.65
729.57	2101.22
729.75	1998.82
729.93	1896.42
730.11	1820.64
730.30	1761.25
730.48	1714.15
730.66	1826.79
730.84	1839.08
731.02	1710.05
731.20	1716.20
731.38	1763.30
731.56	1697.77
731.74	1675.24
731.93	1734.63
732.11	1675.24
732.29	1722.34
732.47	1773.54
732.65	1699.81
732.83	1744.87
733.01	1738.73
733.19	1673.19
733.37	1732.58
733.56	1705.96
733.74	1732.58
733.92	1783.78
734.10	1720.29
734.28	1814.50
734.46	1615.85
734.64	1667.05
734.82	1615.85
735.00	1628.14
735.18	1615.85
735.36	1800.16
735.54	1716.20
735.73	1716.20
735.91	1804.26
736.09	1705.96
736.27	1705.96
736.45	1738.73
736.63	1628.14
736.81	1671.14
736.99	1691.62
737.17	1796.07
737.35	1718.25
737.53	1662.95
737.71	1783.78
737.89	1712.10
738.07	1660.90
738.25	1656.81
738.43	1714.15
738.61	1675.24
738.80	1660.90
738.98	1593.32
739.16	1724.39
739.34	1722.34
739.52	1738.73
739.70	1687.53
739.88	1771.49
740.06	1791.97
740.24	1576.94
740.42	1826.79
740.60	1656.81
740.78	1632.23
740.96	1585.13
741.14	1751.01
741.32	1755.11
741.50	1624.04
741.68	1834.98
741.86	1800.16
742.04	1626.09
742.22	1734.63
742.40	1779.68
742.58	1763.30
742.76	1697.77
742.94	1730.53
743.12	1671.14
743.30	1673.19
743.48	1763.30
743.66	1697.77
743.84	1722.34
744.02	1771.49
744.20	1720.29
744.38	1701.86
744.56	1710.05
744.74	1931.23
744.92	1810.40
745.10	1830.88
745.28	1710.05
745.46	1742.82
745.64	1708.01
745.82	1824.74
746.00	1740.77
746.18	1767.40
746.36	1638.38
746.54	1746.92
746.72	1726.44
746.90	1720.29
747.08	1763.30
747.26	1712.10
747.44	1751.01
747.62	1671.14
747.80	1720.29
747.98	1796.07
748.15	1644.52
748.33	1798.12
748.51	1738.73
748.69	1808.36
748.87	1681.38
749.05	1703.91
749.23	1716.20
749.41	1759.21
749.59	1703.91
749.77	1806.31
749.95	1638.38
750.13	1638.38
750.31	1701.86
750.49	1677.29
750.67	1781.73
750.85	1839.08
751.03	1703.91
751.20	1763.30
751.38	1656.81
751.56	1785.83
751.74	1695.72
751.92	1736.68
752.10	1601.51
752.28	1738.73
752.46	1746.92
752.64	1675.24
752.82	1712.10
753.00	1781.73
753.18	1740.77
753.35	1660.90
753.53	1669.09
753.71	1716.20
753.89	1781.73
754.07	1753.06
754.25	1746.92
754.43	1740.77
754.61	1658.85
754.79	1742.82
754.97	1648.61
755.14	1771.49
755.32	1665.00
755.50	1748.97
755.68	1783.78
755.86	1603.56
756.04	1642.47
756.22	1552.36
756.40	1718.25
756.57	1812.45
756.75	1771.49
756.93	1714.15
757.11	1738.73
757.29	1671.14
757.47	1646.57
757.65	1632.23
757.82	1650.66
758.00	1585.13
758.18	1671.14
758.36	1669.09
758.54	1800.16
758.72	1628.14
758.90	1818.60
759.07	1701.86
759.25	1638.38
759.43	1730.53
759.61	1718.25
759.79	2195.42
759.97	1671.14
760.15	1648.61
760.32	1703.91
760.50	1759.21
760.68	1736.68
760.86	1613.80
761.04	1806.31
761.22	1740.77
761.39	1742.82
761.57	1642.47
761.75	1732.58
761.93	1738.73
762.11	1621.99
762.28	1646.57
762.46	1691.62
762.64	1748.97
762.82	1585.13
763.00	1675.24
763.18	1773.54
763.35	1613.80
763.53	1705.96
763.71	1693.67
763.89	1691.62
764.07	1734.63
764.24	1669.09
764.42	1732.58
764.60	1648.61
764.78	1822.69
764.96	1812.45
765.13	1767.40
765.31	1632.23
765.49	1716.20
765.67	1667.05
765.84	1740.77
766.02	1695.72
766.20	1640.42
766.38	1716.20
766.56	1755.11
766.73	1751.01
766.91	1708.01
767.09	1718.25
767.27	1714.15
767.44	1613.80
767.62	1699.81
767.80	1738.73
767.98	1705.96
768.15	1681.38
768.33	1740.77
768.51	1732.58
768.69	1646.57
768.87	1718.25
769.04	1667.05
769.22	1800.16
769.40	1798.12
769.58	1761.25
769.75	1746.92
769.93	1816.55
770.11	1677.29
770.28	1660.90
770.46	1767.40
770.64	1738.73
770.82	1691.62
770.99	1693.67
771.17	1718.25
771.35	1705.96
771.53	1679.33
771.70	1609.70
771.88	1726.44
772.06	1685.48
772.23	1771.49
772.41	1744.87
772.59	1689.57
772.77	1642.47
772.94	1660.90
773.12	1722.34
773.30	1644.52
773.47	1667.05
773.65	1603.56
773.83	1806.31
774.01	1660.90
774.18	1619.94
774.36	1710.05
774.54	1705.96
774.71	1779.68
774.89	1585.13
775.07	1701.86
775.24	1658.85
775.42	1619.94
775.60	1746.92
775.78	1681.38
775.95	1574.89
776.13	1556.46
776.31	1538.02
776.48	1679.33
776.66	1787.88
776.84	1648.61
777.01	1736.68
777.19	1587.18
777.37	1730.53
777.54	1773.54
777.72	1771.49
777.90	1820.64
778.07	1650.66
778.25	1828.84
778.43	1761.25
778.60	1640.42
778.78	1697.77
778.96	1781.73
779.13	1708.01
779.31	1765.35
779.49	1621.99
779.66	1710.05
779.84	1779.68
780.01	1687.53
780.19	1685.48
780.37	1779.68
780.54	1751.01
780.72	1679.33
780.90	1701.86
781.07	1716.20
781.25	1695.72
781.43	1753.06
781.60	1693.67
781.78	1738.73
781.95	1755.11
782.13	1701.86
782.31	1638.38
782.48	1642.47
782.66	1728.49
782.83	1847.27
783.01	1738.73
783.19	1728.49
783.36	1789.92
783.54	1681.38
783.72	1798.12
783.89	1685.48
784.07	1714.15
784.24	1710.05
784.42	1763.30
784.60	1726.44
784.77	1740.77
784.95	1591.27
785.12	1613.80
785.30	1751.01
785.47	1607.66
785.65	1660.90
785.83	1689.57
786.00	1679.33
786.18	1716.20
786.35	1621.99
786.53	1638.38
786.71	1716.20
786.88	1740.77
787.06	1722.34
787.23	1726.44
787.41	1533.93
787.58	1632.23
787.76	1615.85
787.94	1767.40
788.11	1708.01
788.29	1673.19
788.46	1660.90
788.64	1574.89
788.81	1617.90
788.99	1687.53
789.16	1650.66
789.34	1779.68
789.52	1697.77
789.69	1699.81
789.87	1558.50
790.04	1689.57
790.22	1665.00
790.39	1783.78
790.57	1624.04
790.74	1607.66
790.92	1722.34
791.09	1529.83
791.27	1685.48
791.44	1804.26
791.62	1671.14
791.79	1658.85
791.97	1710.05
792.15	1769.44
792.32	1724.39
792.50	1728.49
792.67	1787.88
792.85	1789.92
793.02	1718.25
793.20	1740.77
793.37	1634.28
793.55	1716.20
793.72	1667.05
793.90	1763.30
794.07	1679.33
794.25	1587.18
794.42	1665.00
794.60	1759.21
794.77	1757.16
794.95	1671.14
795.12	1685.48
795.30	1748.97
795.47	1630.18
795.65	1812.45
795.82	1699.81
796.00	1636.33
796.17	1665.00
796.34	1693.67
796.52	1677.29
796.69	1804.26
796.87	1738.73
797.04	1665.00
797.22	1794.02
797.39	1732.58
797.57	1773.54
797.74	1662.95
797.92	1687.53
798.09	1712.10
798.27	1775.59
798.44	1671.14
798.62	1636.33
798.79	1783.78
798.96	1677.29
799.14	1671.14
799.31	1751.01
799.49	1699.81
799.66	1656.81
799.84	1837.03
800.01	1677.29
800.19	1689.57
800.36	1697.77
800.53	1687.53
800.71	1703.91
800.88	1783.78
801.06	1644.52
801.23	1634.28
801.41	1681.38
801.58	1697.77
801.75	1744.87
801.93	1718.25
802.10	1769.44
802.28	1718.25
802.45	1656.81
802.63	1697.77
802.80	1763.30
802.97	1681.38
803.15	1746.92
803.32	1720.29
803.50	1695.72
803.67	1667.05
803.84	1599.46
804.02	1748.97
804.19	1677.29
804.37	1607.66
804.54	1640.42
804.71	1673.19
804.89	1716.20
805.06	1630.18
805.24	1624.04
805.41	1621.99
805.58	1669.09
805.76	1826.79
805.93	1724.39
806.10	1775.59
806.28	1783.78
806.45	1730.53
806.63	1693.67
806.80	1669.09
806.97	1714.15
807.15	1730.53
807.32	1787.88
807.49	1648.61
807.67	1673.19
807.84	1652.71
808.01	1630.18
808.19	1845.22
808.36	1865.70
808.54	1662.95
808.71	1646.57
808.88	1804.26
809.06	1755.11
809.23	1765.35
809.40	1607.66
809.58	1732.58
809.75	1718.25
809.92	1675.24
810.10	1816.55
810.27	1656.81
810.44	1656.81
810.62	1755.11
810.79	1699.81
810.96	1677.29
811.14	1705.96
811.31	1650.66
811.48	1785.83
811.66	1691.62
811.83	1781.73
812.00	1708.01
812.18	1671.14
812.35	1912.80
812.52	1691.62
812.69	1667.05
812.87	1665.00
813.04	1667.05
813.21	1705.96
813.39	1718.25
813.56	1691.62
813.73	1789.92
813.91	1687.53
814.08	1714.15
814.25	1691.62
814.42	1583.08
814.60	1714.15
814.77	1673.19
814.94	1787.88
815.12	1714.15
815.29	1732.58
815.46	1607.66
815.63	1726.44
815.81	1738.73
815.98	1660.90
816.15	1658.85
816.33	1626.09
816.50	1636.33
816.67	1656.81
816.84	1710.05
817.02	1601.51
817.19	1662.95
817.36	1767.40
817.53	1730.53
817.71	1667.05
817.88	1732.58
818.05	1710.05
818.22	1740.77
818.40	1826.79
818.57	1732.58
818.74	1720.29
818.91	1679.33
819.09	1710.05
819.26	1748.97
819.43	1617.90
819.60	1578.98
819.78	1769.44
819.95	1767.40
820.12	1738.73
820.29	1822.69
820.47	1720.29
820.64	1681.38
820.81	1605.61
820.98	1648.61
821.15	1685.48
821.33	1796.07
821.50	1603.56
821.67	1814.50
821.84	1669.09
822.02	1730.53
822.19	1718.25
822.36	1640.42
822.53	1689.57
822.70	1587.18
822.88	1695.72
823.05	1763.30
823.22	1689.57
823.39	1734.63
823.56	1710.05
823.74	1775.59
823.91	1697.77
824.08	1710.05
824.25	1644.52
824.42	1775.59
824.60	1656.81
824.77	1697.77
824.94	1695.72
825.11	1722.34
825.28	1611.75
825.45	1722.34
825.63	1767.40
825.80	1689.57
825.97	1714.15
826.14	1705.96
826.31	1626.09
826.48	1789.92
826.66	1665.00
826.83	1691.62
827.00	1716.20
827.17	1650.66
827.34	1744.87
827.51	1744.87
827.69	1757.16
827.86	1587.18
828.03	1779.68
828.20	1689.57
828.37	1650.66
828.54	1744.87
828.71	1638.38
828.89	1798.12
829.06	1759.21
829.23	1755.11
829.40	1648.61
829.57	1708.01
829.74	1744.87
829.91	1673.19
830.09	1695.72
830.26	1734.63
830.43	1781.73
830.60	1710.05
830.77	1734.63
830.94	1796.07
831.11	1808.36
831.28	1656.81
831.46	1794.02
831.63	1730.53
831.80	1759.21
831.97	1716.20
832.14	1585.13
832.31	1734.63
832.48	1726.44
832.65	1734.63
832.82	1720.29
832.99	1673.19
833.17	1665.00
833.34	1787.88
833.51	1837.03
833.68	1669.09
833.85	1773.54
834.02	1693.67
834.19	1728.49
834.36	1665.00
834.53	1800.16
834.70	1828.84
834.87	1769.44
835.04	1705.96
835.22	1642.47
835.39	1667.05
835.56	1652.71
835.73	1665.00
835.90	1779.68
836.07	1705.96
836.24	1802.21
836.41	1638.38
836.58	1658.85
836.75	1753.06
836.92	1701.86
837.09	1656.81
837.26	1710.05
837.43	1673.19
837.60	1728.49
837.77	1695.72
837.94	1726.44
838.12	1765.35
838.29	1753.06
838.46	1646.57
838.63	1615.85
838.80	1806.31
838.97	1734.63
839.14	1722.34
839.31	1699.81
839.48	1757.16
839.65	1705.96
839.82	1796.07
839.99	1689.57
840.16	1730.53
840.33	1660.90
840.50	1662.95
840.67	1669.09
840.84	1630.18
841.01	1689.57
841.18	1570.79
841.35	1734.63
841.52	1710.05
841.69	1783.78
841.86	1744.87
842.03	1738.73
842.20	1755.11
842.37	1697.77
842.54	1701.86
842.71	1705.96
842.88	1652.71
843.05	1789.92
843.22	1691.62
843.39	1738.73
843.56	1695.72
843.73	1685.48
843.90	1667.05
844.07	1687.53
844.24	1710.05
844.41	1755.11
844.58	1804.26
844.75	1716.20
844.92	1705.96
845.09	1773.54
845.26	1626.09
845.43	1773.54
845.60	1718.25
845.77	1726.44
845.94	1656.81
846.10	1738.73
846.27	1640.42
846.44	1607.66
846.61	1677.29
846.78	1695.72
846.95	1730.53
847.12	1662.95
847.29	1701.86
847.46	1665.00
847.63	1748.97
847.80	1632.23
847.97	1673.19
848.14	1855.46
848.31	1722.34
848.48	1599.46
848.65	1699.81
848.82	1705.96
848.98	1834.98
849.15	1734.63
849.32	1757.16
849.49	1779.68
849.66	1701.86
849.83	1708.01
850.00	1708.01
850.17	1761.25
850.34	1681.38
850.51	1730.53
850.68	1671.14
850.85	1794.02
851.01	1665.00
851.18	1642.47
851.35	1703.91
851.52	1742.82
851.69	1773.54
851.86	1578.98
852.03	1689.57
852.20	1720.29
852.37	1728.49
852.53	1611.75
852.70	1771.49
852.87	1656.81
853.04	1789.92
853.21	1660.90
853.38	1693.67
853.55	1824.74
853.72	1794.02
853.89	1632.23
854.05	1718.25
854.22	1705.96
854.39	1642.47
854.56	1773.54
854.73	1824.74
854.90	1648.61
855.07	1675.24
855.23	1683.43
855.40	1714.15
855.57	1738.73
855.74	1613.80
855.91	1863.65
856.08	1648.61
856.25	1638.38
856.41	1636.33
856.58	1642.47
856.75	1761.25
856.92	1658.85
857.09	1697.77
857.26	1574.89
857.42	1726.44
857.59	1640.42
857.76	1675.24
857.93	1810.40
858.10	1708.01
858.27	1693.67
858.43	1658.85
858.60	1624.04
858.77	1675.24
858.94	1734.63
859.11	1654.76
859.27	1658.85
859.44	1708.01
859.61	1767.40
859.78	1701.86
859.95	1640.42
860.12	1652.71
860.28	1779.68
860.45	1857.51
860.62	1656.81
860.79	1628.14
860.95	1669.09
861.12	1675.24
861.29	1726.44
861.46	1703.91
861.63	1634.28
861.79	1701.86
861.96	1689.57
862.13	1722.34
862.30	1757.16
862.47	1673.19
862.63	1716.20
862.80	1822.69
862.97	1787.88
863.14	1730.53
863.30	1699.81
863.47	1720.29
863.64	1810.40
863.81	1744.87
863.97	1636.33
864.14	1652.71
864.31	1724.39
864.48	1738.73
864.65	1701.86
864.81	1742.82
864.98	1712.10
865.15	1769.44
865.32	1730.53
865.48	1804.26
865.65	1753.06
865.82	1740.77
865.98	1730.53
866.15	1806.31
866.32	1652.71
866.49	1660.90
866.65	1722.34
866.82	1642.47
866.99	1705.96
867.16	1693.67
867.32	1695.72
867.49	1708.01
867.66	1714.15
867.83	1632.23
867.99	1585.13
868.16	1681.38
868.33	1550.31
868.49	1677.29
868.66	1755.11
868.83	1763.30
868.99	1722.34
869.16	1683.43
869.33	1818.60
869.50	1718.25
869.66	1648.61
869.83	1705.96
870.00	1701.86
870.16	1726.44
870.33	1642.47
870.50	1755.11
870.66	1673.19
870.83	1832.93
871.00	1777.64
871.17	1753.06
871.33	1728.49
871.50	1701.86
871.67	1769.44
871.83	1662.95
872.00	1802.21
872.17	1734.63
872.33	1783.78
872.50	1746.92
872.67	1681.38
872.83	1624.04
873.00	1769.44
873.17	1732.58
873.33	1777.64
873.50	1693.67
873.67	1720.29
873.83	1640.42
874.00	1746.92
874.16	1746.92
874.33	1736.68
874.50	1667.05
874.66	1730.53
874.83	1775.59
875.00	1751.01
875.16	1830.88
875.33	1781.73
875.50	1556.46
875.66	1669.09
875.83	1710.05
875.99	1761.25
876.16	1730.53
876.33	1621.99
876.49	1722.34
876.66	1716.20
876.83	1679.33
876.99	1650.66
877.16	1669.09
877.32	1644.52
877.49	1654.76
877.66	1710.05
877.82	1699.81
877.99	1728.49
878.15	1736.68
878.32	1695.72
878.49	1699.81
878.65	1669.09
878.82	1808.36
878.98	1730.53
879.15	1763.30
879.32	1736.68
879.48	1662.95
879.65	1722.34
879.81	1644.52
879.98	1759.21
880.15	1656.81
880.31	1775.59
880.48	1632.23
880.64	1777.64
880.81	1744.87
880.97	1830.88
881.14	1787.88
881.31	1648.61
881.47	1834.98
881.64	1638.38
881.80	1724.39
881.97	1742.82
882.13	1691.62
882.30	1619.94
882.47	1662.95
882.63	1630.18
882.80	1740.77
882.96	1644.52
883.13	1783.78
883.29	1697.77
883.46	1755.11
883.62	1845.22
883.79	1689.57
883.95	1705.96
884.12	1734.63
884.29	1816.55
884.45	1791.97
884.62	1742.82
884.78	1722.34
884.95	1779.68
885.11	1673.19
885.28	1771.49
885.44	1599.46
885.61	1789.92
885.77	1724.39
885.94	1708.01
886.10	1628.14
886.27	1738.73
886.43	1798.12
886.60	1822.69
886.76	1624.04
886.93	1757.16
887.09	1677.29
887.26	1665.00
887.42	1669.09
887.59	1730.53
887.75	1814.50
887.92	1761.25
888.08	1736.68
888.25	1757.16
888.41	1755.11
888.58	1687.53
888.74	1662.95
888.91	1685.48
>>>>>End Processed Spectral Data<<<<<
