SpectraSuite Data File
++++++++++++++++++++++++++++++++++++
Date: Wed May 04 18:44:18 CEST 2016
User: root
Dark Spectrum Present: No
Reference Spectrum Present: No
Number of Sampled Component Spectra: 1
Spectrometers: USB4C02835
Integration Time (usec): 100000 (USB4C02835)
Spectra Averaged: 1 (USB4C02835)
Boxcar Smoothing: 0 (USB4C02835)
Correct for Electrical Dark: No (USB4C02835)
Strobe/Lamp Enabled: No (USB4C02835)
Correct for Detector Non-linearity: No (USB4C02835)
Correct for Stray Light: No (USB4C02835)
Number of Pixels in Processed Spectrum: 3648
>>>>>Begin Processed Spectral Data<<<<<
177.47	1447.91
177.69	1447.91
177.91	1447.91
178.13	1558.50
178.36	1499.11
178.58	1665.00
178.80	1787.88
179.02	1587.18
179.24	1667.05
179.46	1679.33
179.68	1720.29
179.90	1679.33
180.13	1691.62
180.35	1656.81
180.57	1675.24
180.79	1695.72
181.01	1726.44
181.23	1783.78
181.45	1732.58
181.67	1675.24
181.90	1783.78
182.12	1662.95
182.34	1636.33
182.56	1812.45
182.78	1673.19
183.00	1744.87
183.22	1734.63
183.44	1591.27
183.66	1877.99
183.89	1849.32
184.11	1689.57
184.33	1656.81
184.55	1763.30
184.77	1742.82
184.99	1677.29
185.21	1681.38
185.43	1892.32
185.65	1603.56
185.87	1718.25
186.10	1847.27
186.32	1777.64
186.54	1685.48
186.76	1730.53
186.98	1779.68
187.20	1636.33
187.42	1667.05
187.64	1744.87
187.86	1728.49
188.08	1726.44
188.30	1677.29
188.52	1691.62
188.75	1822.69
188.97	1810.40
189.19	1679.33
189.41	1718.25
189.63	1748.97
189.85	1677.29
190.07	1646.57
190.29	1665.00
190.51	1759.21
190.73	1605.61
190.95	1824.74
191.17	1687.53
191.39	1603.56
191.61	1791.97
191.84	1708.01
192.06	1751.01
192.28	1578.98
192.50	1910.75
192.72	1740.77
192.94	1644.52
193.16	1791.97
193.38	1746.92
193.60	1708.01
193.82	1693.67
194.04	1775.59
194.26	1693.67
194.48	1716.20
194.70	1656.81
194.92	1654.76
195.14	1751.01
195.36	1687.53
195.58	1677.29
195.80	1757.16
196.02	1658.85
196.24	1628.14
196.46	1626.09
196.69	1691.62
196.91	1816.55
197.13	1710.05
197.35	1683.43
197.57	1693.67
197.79	1697.77
198.01	1740.77
198.23	1755.11
198.45	1734.63
198.67	1697.77
198.89	1710.05
199.11	1744.87
199.33	1669.09
199.55	1656.81
199.77	1705.96
199.99	1701.86
200.21	1656.81
200.43	1652.71
200.65	1624.04
200.87	1568.74
201.09	1662.95
201.31	1763.30
201.53	1738.73
201.75	1789.92
201.97	1703.91
202.19	1705.96
202.41	1767.40
202.63	1837.03
202.85	1751.01
203.07	1712.10
203.29	1685.48
203.51	1687.53
203.73	1648.61
203.95	1875.94
204.17	1695.72
204.39	1755.11
204.61	1714.15
204.83	1591.27
205.05	1761.25
205.27	1779.68
205.49	1779.68
205.71	1665.00
205.93	1679.33
206.15	1718.25
206.37	1683.43
206.59	1648.61
206.81	1679.33
207.03	1644.52
207.25	1675.24
207.47	1765.35
207.69	1658.85
207.91	1769.44
208.13	1720.29
208.34	1703.91
208.56	1736.68
208.78	1794.02
209.00	1716.20
209.22	1648.61
209.44	1708.01
209.66	1703.91
209.88	1705.96
210.10	1710.05
210.32	1667.05
210.54	1779.68
210.76	1685.48
210.98	1753.06
211.20	1613.80
211.42	1736.68
211.64	1712.10
211.86	1773.54
212.08	1808.36
212.30	1751.01
212.52	1794.02
212.74	1708.01
212.96	1730.53
213.17	1800.16
213.39	1771.49
213.61	1806.31
213.83	1841.12
214.05	1742.82
214.27	1759.21
214.49	1611.75
214.71	1660.90
214.93	1771.49
215.15	1740.77
215.37	1767.40
215.59	1593.32
215.81	1712.10
216.03	1710.05
216.24	1701.86
216.46	1722.34
216.68	1693.67
216.90	1673.19
217.12	1732.58
217.34	1705.96
217.56	1718.25
217.78	1796.07
218.00	1705.96
218.22	1687.53
218.44	1683.43
218.66	1834.98
218.87	1808.36
219.09	1712.10
219.31	1755.11
219.53	1701.86
219.75	1607.66
219.97	1697.77
220.19	1691.62
220.41	1701.86
220.63	1771.49
220.85	1701.86
221.06	1783.78
221.28	1757.16
221.50	1761.25
221.72	1687.53
221.94	1695.72
222.16	1701.86
222.38	1798.12
222.60	1652.71
222.82	1689.57
223.03	1728.49
223.25	1677.29
223.47	1814.50
223.69	1826.79
223.91	1701.86
224.13	1763.30
224.35	1734.63
224.57	1665.00
224.78	1746.92
225.00	1638.38
225.22	1628.14
225.44	1716.20
225.66	1738.73
225.88	1689.57
226.10	1716.20
226.32	1744.87
226.53	1740.77
226.75	1742.82
226.97	1662.95
227.19	1751.01
227.41	1650.66
227.63	1673.19
227.85	1605.61
228.06	1699.81
228.28	1665.00
228.50	1781.73
228.72	1669.09
228.94	1667.05
229.16	1585.13
229.37	1626.09
229.59	1656.81
229.81	1742.82
230.03	1671.14
230.25	1642.47
230.47	1540.07
230.69	1667.05
230.90	1773.54
231.12	1681.38
231.34	1695.72
231.56	1738.73
231.78	1718.25
232.00	1759.21
232.21	1703.91
232.43	1689.57
232.65	1568.74
232.87	1681.38
233.09	1628.14
233.30	1642.47
233.52	1818.60
233.74	1699.81
233.96	1636.33
234.18	1695.72
234.40	1726.44
234.61	1796.07
234.83	1597.42
235.05	1593.32
235.27	1773.54
235.49	1837.03
235.70	1839.08
235.92	1839.08
236.14	1669.09
236.36	1843.17
236.58	1634.28
236.79	1753.06
237.01	1781.73
237.23	1716.20
237.45	1755.11
237.67	1708.01
237.88	1736.68
238.10	1751.01
238.32	1701.86
238.54	1765.35
238.76	1738.73
238.97	1722.34
239.19	1693.67
239.41	1755.11
239.63	1724.39
239.85	1630.18
240.06	1665.00
240.28	1626.09
240.50	1732.58
240.72	1669.09
240.93	1667.05
241.15	1736.68
241.37	1650.66
241.59	1677.29
241.81	1740.77
242.02	1628.14
242.24	1654.76
242.46	1794.02
242.68	1652.71
242.89	1748.97
243.11	1771.49
243.33	1708.01
243.55	1751.01
243.76	1710.05
243.98	1728.49
244.20	1697.77
244.42	1703.91
244.64	1740.77
244.85	1617.90
245.07	1665.00
245.29	1748.97
245.51	1732.58
245.72	1761.25
245.94	1763.30
246.16	1775.59
246.38	1732.58
246.59	1646.57
246.81	1660.90
247.03	1746.92
247.24	1607.66
247.46	1693.67
247.68	1714.15
247.90	1613.80
248.11	1640.42
248.33	1798.12
248.55	1685.48
248.77	1697.77
248.98	1824.74
249.20	1734.63
249.42	1726.44
249.64	1673.19
249.85	1701.86
250.07	1662.95
250.29	1722.34
250.50	1796.07
250.72	1607.66
250.94	1712.10
251.16	1773.54
251.37	1753.06
251.59	1720.29
251.81	1781.73
252.02	1787.88
252.24	1654.76
252.46	1738.73
252.68	1607.66
252.89	1636.33
253.11	1585.13
253.33	1832.93
253.54	1781.73
253.76	1583.08
253.98	1640.42
254.20	1613.80
254.41	1712.10
254.63	1734.63
254.85	1660.90
255.06	1746.92
255.28	1771.49
255.50	1648.61
255.71	1628.14
255.93	1595.37
256.15	1720.29
256.36	1619.94
256.58	1724.39
256.80	1736.68
257.02	1732.58
257.23	1705.96
257.45	1650.66
257.67	1695.72
257.88	1693.67
258.10	1632.23
258.32	1669.09
258.53	1751.01
258.75	1759.21
258.97	1667.05
259.18	1693.67
259.40	1771.49
259.62	1830.88
259.83	1789.92
260.05	1746.92
260.27	1910.75
260.48	1705.96
260.70	1665.00
260.92	1585.13
261.13	1757.16
261.35	1843.17
261.57	1781.73
261.78	1550.31
262.00	1619.94
262.22	1724.39
262.43	1609.70
262.65	1595.37
262.86	1658.85
263.08	1892.32
263.30	1683.43
263.51	1695.72
263.73	1687.53
263.95	1814.50
264.16	1695.72
264.38	1615.85
264.60	1787.88
264.81	1687.53
265.03	1812.45
265.25	1728.49
265.46	1724.39
265.68	1789.92
265.89	1736.68
266.11	1617.90
266.33	1800.16
266.54	1746.92
266.76	1691.62
266.98	1695.72
267.19	1798.12
267.41	1800.16
267.62	1746.92
267.84	1585.13
268.06	1755.11
268.27	1791.97
268.49	1693.67
268.70	1763.30
268.92	1718.25
269.14	1613.80
269.35	1560.55
269.57	1714.15
269.79	1818.60
270.00	1722.34
270.22	1837.03
270.43	1693.67
270.65	1619.94
270.87	1753.06
271.08	1759.21
271.30	1701.86
271.51	1691.62
271.73	1775.59
271.95	1687.53
272.16	1693.67
272.38	1730.53
272.59	1714.15
272.81	1697.77
273.02	1679.33
273.24	1800.16
273.46	1759.21
273.67	1619.94
273.89	1742.82
274.10	1644.52
274.32	1806.31
274.54	1714.15
274.75	1810.40
274.97	1648.61
275.18	1724.39
275.40	1794.02
275.61	1783.78
275.83	1667.05
276.05	1669.09
276.26	1722.34
276.48	1726.44
276.69	1699.81
276.91	1636.33
277.12	1769.44
277.34	1734.63
277.55	1744.87
277.77	1687.53
277.99	1720.29
278.20	1654.76
278.42	1695.72
278.63	1570.79
278.85	1632.23
279.06	1593.32
279.28	1708.01
279.49	1800.16
279.71	1736.68
279.93	1671.14
280.14	1748.97
280.36	1599.46
280.57	1722.34
280.79	1732.58
281.00	1640.42
281.22	1728.49
281.43	1746.92
281.65	1634.28
281.86	1667.05
282.08	1705.96
282.29	1765.35
282.51	1638.38
282.73	1605.61
282.94	1671.14
283.16	1681.38
283.37	1748.97
283.59	1693.67
283.80	1705.96
284.02	1693.67
284.23	1767.40
284.45	1677.29
284.66	1568.74
284.88	1660.90
285.09	1652.71
285.31	1751.01
285.52	1757.16
285.74	1665.00
285.95	1724.39
286.17	1656.81
286.38	1765.35
286.60	1722.34
286.81	1648.61
287.03	1611.75
287.24	1681.38
287.46	1753.06
287.67	1787.88
287.89	1740.77
288.10	1746.92
288.32	1708.01
288.53	1726.44
288.75	1734.63
288.96	1648.61
289.18	1683.43
289.39	1703.91
289.61	1732.58
289.82	1861.60
290.04	1802.21
290.25	1638.38
290.47	1718.25
290.68	1701.86
290.90	1804.26
291.11	1630.18
291.33	1787.88
291.54	1675.24
291.76	1665.00
291.97	1681.38
292.18	1753.06
292.40	1636.33
292.61	1730.53
292.83	1826.79
293.04	1748.97
293.26	1673.19
293.47	1687.53
293.69	1638.38
293.90	1693.67
294.12	1730.53
294.33	1689.57
294.55	1671.14
294.76	1769.44
294.97	1753.06
295.19	1806.31
295.40	1642.47
295.62	1761.25
295.83	1773.54
296.05	1693.67
296.26	1734.63
296.48	1654.76
296.69	1669.09
296.90	1607.66
297.12	1712.10
297.33	1789.92
297.55	1748.97
297.76	1730.53
297.98	1779.68
298.19	1720.29
298.41	1746.92
298.62	1671.14
298.83	1771.49
299.05	1716.20
299.26	1705.96
299.48	1669.09
299.69	1767.40
299.90	1763.30
300.12	1652.71
300.33	1746.92
300.55	1732.58
300.76	1742.82
300.98	1552.36
301.19	1730.53
301.40	1705.96
301.62	1697.77
301.83	1697.77
302.05	1699.81
302.26	1683.43
302.47	1689.57
302.69	1673.19
302.90	1765.35
303.12	1703.91
303.33	1701.86
303.54	1816.55
303.76	1615.85
303.97	1755.11
304.19	1861.60
304.40	1581.03
304.61	1744.87
304.83	1755.11
305.04	1808.36
305.26	1785.83
305.47	1611.75
305.68	1699.81
305.90	1634.28
306.11	1761.25
306.33	1691.62
306.54	1644.52
306.75	1613.80
306.97	1617.90
307.18	1632.23
307.39	1636.33
307.61	1740.77
307.82	1695.72
308.04	1763.30
308.25	1626.09
308.46	1716.20
308.68	1673.19
308.89	1753.06
309.10	1751.01
309.32	1689.57
309.53	1697.77
309.74	1751.01
309.96	1716.20
310.17	1759.21
310.39	1667.05
310.60	1785.83
310.81	1685.48
311.03	1601.51
311.24	1757.16
311.45	1687.53
311.67	1806.31
311.88	1742.82
312.09	1613.80
312.31	1656.81
312.52	1689.57
312.73	1705.96
312.95	1636.33
313.16	1617.90
313.37	1794.02
313.59	1732.58
313.80	1705.96
314.01	1710.05
314.23	1726.44
314.44	1624.04
314.65	1630.18
314.87	1611.75
315.08	1656.81
315.29	1667.05
315.51	1609.70
315.72	1570.79
315.93	1830.88
316.15	1771.49
316.36	1632.23
316.57	1669.09
316.79	1714.15
317.00	1675.24
317.21	1703.91
317.43	1724.39
317.64	1779.68
317.85	1691.62
318.07	1689.57
318.28	1804.26
318.49	1818.60
318.70	2004.96
318.92	1994.72
319.13	1945.57
319.34	1943.52
319.56	1894.37
319.77	1832.93
319.98	1779.68
320.20	1787.88
320.41	1779.68
320.62	1753.06
320.83	1621.99
321.05	1869.80
321.26	1718.25
321.47	1673.19
321.69	1779.68
321.90	1685.48
322.11	1673.19
322.32	1691.62
322.54	1843.17
322.75	1662.95
322.96	1824.74
323.18	1638.38
323.39	1644.52
323.60	1636.33
323.81	1773.54
324.03	1572.84
324.24	1718.25
324.45	1771.49
324.66	1705.96
324.88	1746.92
325.09	1748.97
325.30	1710.05
325.52	1738.73
325.73	1685.48
325.94	1624.04
326.15	1613.80
326.37	1689.57
326.58	1722.34
326.79	1791.97
327.00	1675.24
327.22	1638.38
327.43	1693.67
327.64	1593.32
327.85	1705.96
328.07	1669.09
328.28	1804.26
328.49	1656.81
328.70	1716.20
328.92	1654.76
329.13	1644.52
329.34	1722.34
329.55	1781.73
329.76	1841.12
329.98	1716.20
330.19	1783.78
330.40	1740.77
330.61	1738.73
330.83	1767.40
331.04	1685.48
331.25	1722.34
331.46	1687.53
331.68	1593.32
331.89	1742.82
332.10	1718.25
332.31	1650.66
332.52	1681.38
332.74	1689.57
332.95	1712.10
333.16	1708.01
333.37	1730.53
333.58	1703.91
333.80	1785.83
334.01	1566.70
334.22	1685.48
334.43	1660.90
334.64	1734.63
334.86	1697.77
335.07	1619.94
335.28	1777.64
335.49	1714.15
335.70	1722.34
335.92	1771.49
336.13	1877.99
336.34	1728.49
336.55	1734.63
336.76	1699.81
336.98	1595.37
337.19	1746.92
337.40	1748.97
337.61	1828.84
337.82	1626.09
338.04	1781.73
338.25	1640.42
338.46	1687.53
338.67	1665.00
338.88	1658.85
339.09	1665.00
339.31	1671.14
339.52	1609.70
339.73	1673.19
339.94	1726.44
340.15	1794.02
340.36	1630.18
340.58	1777.64
340.79	1685.48
341.00	1748.97
341.21	1642.47
341.42	1744.87
341.63	1697.77
341.85	1794.02
342.06	1710.05
342.27	1732.58
342.48	1718.25
342.69	1613.80
342.90	1685.48
343.12	1689.57
343.33	1640.42
343.54	1744.87
343.75	1794.02
343.96	1701.86
344.17	1660.90
344.38	1718.25
344.60	1656.81
344.81	1619.94
345.02	1714.15
345.23	1742.82
345.44	1873.89
345.65	1824.74
345.86	1718.25
346.07	1689.57
346.29	1681.38
346.50	1804.26
346.71	1734.63
346.92	1808.36
347.13	1771.49
347.34	1689.57
347.55	1726.44
347.76	1736.68
347.98	1617.90
348.19	1701.86
348.40	1779.68
348.61	1667.05
348.82	1708.01
349.03	1740.77
349.24	1671.14
349.45	1789.92
349.66	1634.28
349.88	1652.71
350.09	1683.43
350.30	1810.40
350.51	1781.73
350.72	1718.25
350.93	1710.05
351.14	1699.81
351.35	1695.72
351.56	1775.59
351.77	1699.81
351.99	1755.11
352.20	1761.25
352.41	1759.21
352.62	1660.90
352.83	1710.05
353.04	1626.09
353.25	1648.61
353.46	1757.16
353.67	1693.67
353.88	1572.84
354.09	1769.44
354.30	1742.82
354.52	1783.78
354.73	1681.38
354.94	1673.19
355.15	1705.96
355.36	1826.79
355.57	1703.91
355.78	1724.39
355.99	1714.15
356.20	1695.72
356.41	1748.97
356.62	1681.38
356.83	1691.62
357.04	1783.78
357.25	1644.52
357.46	1781.73
357.68	1611.75
357.89	1607.66
358.10	1669.09
358.31	1787.88
358.52	1777.64
358.73	1687.53
358.94	1689.57
359.15	1732.58
359.36	1726.44
359.57	1708.01
359.78	1634.28
359.99	1767.40
360.20	1597.42
360.41	1689.57
360.62	1720.29
360.83	1738.73
361.04	1783.78
361.25	1751.01
361.46	1816.55
361.67	1787.88
361.88	1738.73
362.09	1822.69
362.30	1769.44
362.51	1603.56
362.72	1771.49
362.93	1730.53
363.14	1767.40
363.35	1849.32
363.56	1714.15
363.78	1740.77
363.99	1759.21
364.20	1671.14
364.41	1660.90
364.62	1857.51
364.83	1705.96
365.04	1728.49
365.25	1748.97
365.46	1746.92
365.67	1611.75
365.88	1767.40
366.09	1660.90
366.30	1644.52
366.51	1671.14
366.72	1726.44
366.93	1658.85
367.14	1650.66
367.35	1771.49
367.56	1691.62
367.77	1812.45
367.98	1732.58
368.18	1746.92
368.39	1771.49
368.60	1685.48
368.81	1724.39
369.02	1763.30
369.23	1722.34
369.44	1691.62
369.65	1689.57
369.86	1734.63
370.07	1699.81
370.28	1718.25
370.49	1703.91
370.70	1746.92
370.91	1691.62
371.12	1648.61
371.33	1738.73
371.54	1626.09
371.75	1847.27
371.96	1662.95
372.17	1675.24
372.38	1689.57
372.59	1681.38
372.80	1716.20
373.01	1705.96
373.22	1705.96
373.43	1730.53
373.64	1607.66
373.85	1771.49
374.06	1839.08
374.26	1736.68
374.47	1734.63
374.68	1816.55
374.89	1728.49
375.10	1628.14
375.31	1806.31
375.52	1740.77
375.73	1695.72
375.94	1718.25
376.15	1789.92
376.36	1718.25
376.57	1685.48
376.78	1671.14
376.99	1708.01
377.20	1789.92
377.40	1646.57
377.61	1810.40
377.82	1599.46
378.03	1757.16
378.24	1804.26
378.45	1701.86
378.66	1765.35
378.87	1609.70
379.08	1648.61
379.29	1665.00
379.50	1724.39
379.71	1662.95
379.91	1785.83
380.12	1734.63
380.33	1728.49
380.54	1675.24
380.75	1718.25
380.96	1673.19
381.17	1812.45
381.38	1751.01
381.59	1718.25
381.80	1769.44
382.00	1910.75
382.21	1861.60
382.42	1830.88
382.63	1873.89
382.84	1775.59
383.05	1744.87
383.26	1732.58
383.47	1748.97
383.68	1716.20
383.88	1781.73
384.09	1714.15
384.30	1757.16
384.51	1759.21
384.72	1710.05
384.93	1636.33
385.14	1724.39
385.35	1746.92
385.55	1638.38
385.76	1804.26
385.97	1644.52
386.18	1656.81
386.39	1613.80
386.60	1716.20
386.81	1787.88
387.02	1736.68
387.22	1576.94
387.43	1814.50
387.64	1816.55
387.85	1920.99
388.06	2338.78
388.27	4736.95
388.48	9185.14
388.68	11874.12
388.89	13565.74
389.10	14505.76
389.31	12162.89
389.52	9969.51
389.73	8650.62
389.93	8015.75
390.14	7292.82
390.35	6625.18
390.56	6061.99
390.77	5101.49
390.98	3979.20
391.18	3006.42
391.39	2416.60
391.60	1927.14
391.81	1898.47
392.02	1773.54
392.23	1869.80
392.43	1718.25
392.64	1820.64
392.85	1675.24
393.06	1800.16
393.27	1718.25
393.47	1703.91
393.68	1681.38
393.89	1705.96
394.10	1789.92
394.31	1687.53
394.52	1648.61
394.72	1648.61
394.93	1808.36
395.14	1636.33
395.35	1697.77
395.56	1673.19
395.76	1748.97
395.97	1845.22
396.18	1902.56
396.39	1980.39
396.60	2062.30
396.80	1853.41
397.01	1943.52
397.22	1865.70
397.43	1904.61
397.64	1720.29
397.84	1904.61
398.05	1863.65
398.26	1771.49
398.47	1798.12
398.67	1757.16
398.88	1771.49
399.09	1771.49
399.30	1673.19
399.51	1767.40
399.71	1683.43
399.92	1687.53
400.13	1798.12
400.34	1804.26
400.54	1693.67
400.75	1808.36
400.96	1796.07
401.17	1744.87
401.37	1689.57
401.58	1634.28
401.79	1712.10
402.00	1912.80
402.21	2097.12
402.41	2015.20
402.62	2095.07
402.83	2232.29
403.04	2090.98
403.24	2164.70
403.45	1933.28
403.66	1968.10
403.87	1935.33
404.07	1957.86
404.28	1908.71
404.49	1923.04
404.70	1781.73
404.90	1806.31
405.11	1736.68
405.32	1765.35
405.52	1732.58
405.73	1681.38
405.94	1656.81
406.15	1681.38
406.35	1755.11
406.56	1748.97
406.77	1726.44
406.98	1738.73
407.18	1695.72
407.39	1730.53
407.60	1687.53
407.80	1714.15
408.01	1703.91
408.22	1763.30
408.43	1693.67
408.63	1734.63
408.84	1769.44
409.05	1744.87
409.25	1720.29
409.46	1687.53
409.67	1693.67
409.88	1667.05
410.08	1769.44
410.29	1738.73
410.50	1744.87
410.70	1677.29
410.91	1716.20
411.12	1726.44
411.32	1689.57
411.53	1667.05
411.74	1853.41
411.95	1845.22
412.15	1687.53
412.36	1798.12
412.57	1861.60
412.77	1853.41
412.98	1705.96
413.19	1691.62
413.39	1736.68
413.60	1775.59
413.81	1906.66
414.01	1716.20
414.22	1816.55
414.43	1763.30
414.63	1789.92
414.84	1826.79
415.05	1656.81
415.25	1626.09
415.46	1724.39
415.67	1728.49
415.87	1722.34
416.08	1767.40
416.29	1738.73
416.49	1710.05
416.70	1736.68
416.91	1632.23
417.11	1785.83
417.32	1839.08
417.53	1724.39
417.73	1740.77
417.94	1742.82
418.15	1789.92
418.35	1708.01
418.56	1712.10
418.77	1824.74
418.97	1640.42
419.18	1695.72
419.38	1648.61
419.59	1660.90
419.80	1834.98
420.00	1669.09
420.21	1714.15
420.42	1738.73
420.62	1757.16
420.83	1697.77
421.04	1708.01
421.24	1703.91
421.45	1755.11
421.65	1753.06
421.86	1652.71
422.07	1744.87
422.27	1734.63
422.48	1646.57
422.69	1683.43
422.89	1724.39
423.10	1628.14
423.30	1632.23
423.51	1789.92
423.72	1705.96
423.92	1658.85
424.13	1671.14
424.33	1763.30
424.54	1722.34
424.75	1785.83
424.95	1785.83
425.16	1832.93
425.36	1718.25
425.57	1820.64
425.78	1767.40
425.98	1798.12
426.19	1695.72
426.39	1619.94
426.60	1773.54
426.81	1742.82
427.01	1693.67
427.22	1675.24
427.42	1605.61
427.63	1675.24
427.83	1714.15
428.04	1779.68
428.25	1834.98
428.45	1744.87
428.66	1787.88
428.86	1624.04
429.07	1683.43
429.28	1783.78
429.48	1685.48
429.69	1619.94
429.89	1726.44
430.10	1742.82
430.30	1710.05
430.51	1826.79
430.71	1671.14
430.92	1673.19
431.13	1699.81
431.33	1808.36
431.54	1751.01
431.74	1839.08
431.95	1777.64
432.15	1738.73
432.36	1763.30
432.56	1738.73
432.77	1824.74
432.98	1812.45
433.18	1753.06
433.39	1712.10
433.59	1701.86
433.80	1767.40
434.00	1818.60
434.21	1677.29
434.41	1619.94
434.62	1789.92
434.82	1685.48
435.03	1662.95
435.23	1802.21
435.44	1632.23
435.64	1771.49
435.85	1722.34
436.06	1791.97
436.26	1734.63
436.47	1751.01
436.67	1667.05
436.88	1773.54
437.08	1767.40
437.29	1841.12
437.49	1665.00
437.70	1759.21
437.90	1716.20
438.11	1820.64
438.31	1830.88
438.52	1912.80
438.72	1916.90
438.93	1996.77
439.13	1871.84
439.34	1869.80
439.54	1830.88
439.75	1787.88
439.95	1853.41
440.16	1714.15
440.36	1689.57
440.57	1757.16
440.77	1800.16
440.98	1759.21
441.18	1808.36
441.39	1681.38
441.59	1673.19
441.80	1851.36
442.00	1738.73
442.21	1777.64
442.41	1708.01
442.62	1755.11
442.82	1636.33
443.02	1710.05
443.23	1730.53
443.43	1736.68
443.64	1822.69
443.84	1685.48
444.05	1888.23
444.25	1736.68
444.46	1806.31
444.66	1740.77
444.87	1902.56
445.07	1677.29
445.28	1724.39
445.48	1859.56
445.69	1845.22
445.89	1832.93
446.09	1751.01
446.30	1929.19
446.50	2533.34
446.71	4091.84
446.91	5134.26
447.12	5812.14
447.32	6113.19
447.53	5291.95
447.73	4470.72
447.93	4024.26
448.14	3721.16
448.34	3553.23
448.55	3160.02
448.75	3170.26
448.96	2934.74
449.16	2584.54
449.36	2496.47
449.57	2082.78
449.77	1978.34
449.98	1777.64
450.18	1812.45
450.39	1810.40
450.59	1800.16
450.79	1718.25
451.00	1740.77
451.20	1832.93
451.41	1705.96
451.61	1769.44
451.81	1785.83
452.02	1714.15
452.22	1689.57
452.43	1734.63
452.63	1685.48
452.84	1779.68
453.04	1736.68
453.24	1785.83
453.45	1699.81
453.65	1759.21
453.86	1767.40
454.06	1746.92
454.26	1773.54
454.47	1640.42
454.67	1802.21
454.87	1730.53
455.08	1757.16
455.28	1794.02
455.49	1734.63
455.69	1759.21
455.89	1847.27
456.10	1869.80
456.30	1724.39
456.51	1753.06
456.71	1744.87
456.91	1658.85
457.12	1656.81
457.32	1800.16
457.52	1732.58
457.73	1775.59
457.93	1796.07
458.14	1693.67
458.34	1667.05
458.54	1755.11
458.75	1685.48
458.95	1798.12
459.15	1773.54
459.36	1748.97
459.56	1775.59
459.76	1894.37
459.97	1722.34
460.17	1683.43
460.37	1787.88
460.58	1779.68
460.78	1804.26
460.99	1660.90
461.19	1718.25
461.39	1685.48
461.60	1716.20
461.80	1746.92
462.00	1638.38
462.21	1730.53
462.41	1658.85
462.61	1656.81
462.82	1597.42
463.02	1714.15
463.22	1730.53
463.43	1746.92
463.63	1693.67
463.83	1816.55
464.04	1726.44
464.24	1781.73
464.44	1746.92
464.64	1669.09
464.85	1832.93
465.05	1779.68
465.25	1699.81
465.46	1734.63
465.66	1734.63
465.86	1767.40
466.07	1759.21
466.27	1744.87
466.47	1677.29
466.68	1708.01
466.88	1771.49
467.08	1769.44
467.29	1732.58
467.49	1812.45
467.69	1726.44
467.89	1699.81
468.10	1757.16
468.30	1712.10
468.50	1914.85
468.71	1751.01
468.91	1726.44
469.11	1841.12
469.31	1759.21
469.52	1685.48
469.72	1820.64
469.92	1929.19
470.13	1730.53
470.33	1744.87
470.53	1845.22
470.73	2197.47
470.94	2615.26
471.14	2693.08
471.34	2940.88
471.54	2818.00
471.75	2484.19
471.95	2373.60
472.15	2244.57
472.36	2256.86
472.56	2222.05
472.76	2230.24
472.96	2146.27
473.17	2060.26
473.37	2052.06
473.57	1869.80
473.77	1865.70
473.98	1751.01
474.18	1683.43
474.38	1869.80
474.58	1722.34
474.79	1628.14
474.99	1781.73
475.19	1791.97
475.39	1701.86
475.60	1777.64
475.80	1779.68
476.00	1712.10
476.20	1644.52
476.41	1710.05
476.61	1804.26
476.81	1785.83
477.01	1683.43
477.21	1761.25
477.42	1802.21
477.62	1671.14
477.82	1796.07
478.02	1662.95
478.23	1697.77
478.43	1687.53
478.63	1720.29
478.83	1742.82
479.03	1665.00
479.24	1810.40
479.44	1789.92
479.64	1621.99
479.84	1624.04
480.04	1724.39
480.25	1742.82
480.45	1683.43
480.65	1751.01
480.85	1808.36
481.06	1617.90
481.26	1763.30
481.46	1740.77
481.66	1740.77
481.86	1617.90
482.06	1763.30
482.27	1755.11
482.47	1693.67
482.67	1732.58
482.87	1699.81
483.07	1789.92
483.28	1736.68
483.48	1718.25
483.68	1685.48
483.88	1673.19
484.08	1599.46
484.29	1705.96
484.49	1722.34
484.69	1595.37
484.89	1722.34
485.09	1830.88
485.29	1744.87
485.50	1796.07
485.70	1769.44
485.90	1777.64
486.10	1705.96
486.30	1755.11
486.50	1841.12
486.71	1695.72
486.91	1665.00
487.11	1798.12
487.31	1662.95
487.51	1722.34
487.71	1714.15
487.91	1697.77
488.12	1703.91
488.32	1548.26
488.52	1671.14
488.72	1669.09
488.92	1714.15
489.12	1783.78
489.32	1763.30
489.53	1736.68
489.73	1632.23
489.93	1796.07
490.13	1669.09
490.33	1648.61
490.53	1753.06
490.73	1828.84
490.94	1656.81
491.14	1763.30
491.34	1779.68
491.54	2105.31
491.74	2787.29
491.94	3250.13
492.14	3518.41
492.34	3674.06
492.54	3139.54
492.75	2736.09
492.95	2621.40
493.15	2455.51
493.35	2445.27
493.55	2297.82
493.75	2213.85
493.95	2207.71
494.15	2078.69
494.35	1925.09
494.56	1986.53
494.76	1769.44
494.96	1789.92
495.16	1755.11
495.36	1710.05
495.56	1736.68
495.76	1818.60
495.96	1726.44
496.16	1671.14
496.36	1855.46
496.56	1744.87
496.77	1710.05
496.97	1757.16
497.17	1820.64
497.37	1718.25
497.57	1771.49
497.77	1722.34
497.97	1691.62
498.17	1656.81
498.37	1765.35
498.57	1761.25
498.77	1665.00
498.97	1800.16
499.17	1886.18
499.38	1746.92
499.58	1820.64
499.78	1734.63
499.98	1806.31
500.18	1791.97
500.38	1675.24
500.58	1857.51
500.78	2400.22
500.98	4593.59
501.18	6803.35
501.38	8253.31
501.58	8984.44
501.78	8961.91
501.98	6883.22
502.18	5920.68
502.38	4995.00
502.58	4655.03
502.78	4110.27
502.98	3995.59
503.18	3948.48
503.38	3581.90
503.59	3180.50
503.79	2883.54
503.99	2605.02
504.19	2336.73
504.39	2441.18
504.59	2332.64
504.79	2285.53
504.99	2263.01
505.19	2060.26
505.39	1949.67
505.59	2060.26
505.79	1906.66
505.99	1923.04
506.19	1867.75
506.39	1902.56
506.59	1736.68
506.79	1843.17
506.99	1871.84
507.19	1843.17
507.39	1787.88
507.59	1689.57
507.79	1677.29
507.99	1740.77
508.19	1826.79
508.39	1757.16
508.59	1718.25
508.79	1888.23
508.99	1802.21
509.19	1667.05
509.39	1806.31
509.59	1665.00
509.79	1667.05
509.99	1710.05
510.19	1822.69
510.39	1806.31
510.59	1748.97
510.79	1689.57
510.99	1648.61
511.19	1722.34
511.39	1867.75
511.59	1832.93
511.79	1746.92
511.99	1789.92
512.19	1880.04
512.38	1714.15
512.58	1734.63
512.78	1695.72
512.98	1877.99
513.18	1718.25
513.38	1689.57
513.58	1748.97
513.78	1742.82
513.98	1722.34
514.18	1708.01
514.38	1701.86
514.58	1773.54
514.78	1718.25
514.98	1691.62
515.18	1710.05
515.38	1687.53
515.58	1845.22
515.78	1642.47
515.98	1716.20
516.18	1808.36
516.38	1730.53
516.57	1720.29
516.77	1691.62
516.97	1734.63
517.17	1687.53
517.37	1650.66
517.57	1816.55
517.77	1705.96
517.97	1705.96
518.17	1865.70
518.37	1738.73
518.57	1697.77
518.77	1718.25
518.97	1712.10
519.16	1800.16
519.36	1802.21
519.56	1621.99
519.76	1775.59
519.96	1787.88
520.16	1775.59
520.36	1656.81
520.56	1857.51
520.76	1736.68
520.96	1640.42
521.16	1804.26
521.35	1841.12
521.55	1773.54
521.75	1775.59
521.95	1673.19
522.15	1662.95
522.35	1603.56
522.55	1779.68
522.75	1820.64
522.95	1701.86
523.14	1697.77
523.34	1699.81
523.54	1746.92
523.74	1746.92
523.94	1767.40
524.14	1638.38
524.34	1761.25
524.54	1798.12
524.73	1751.01
524.93	1746.92
525.13	1771.49
525.33	1681.38
525.53	1849.32
525.73	1781.73
525.93	1812.45
526.13	1685.48
526.32	1759.21
526.52	1871.84
526.72	1812.45
526.92	1730.53
527.12	1687.53
527.32	1722.34
527.52	1718.25
527.71	1744.87
527.91	1773.54
528.11	1652.71
528.31	1648.61
528.51	1662.95
528.71	1812.45
528.90	1736.68
529.10	1767.40
529.30	1767.40
529.50	1613.80
529.70	1759.21
529.90	1804.26
530.09	1730.53
530.29	1763.30
530.49	1695.72
530.69	1869.80
530.89	1775.59
531.09	1808.36
531.28	1656.81
531.48	1914.85
531.68	1781.73
531.88	1726.44
532.08	1779.68
532.28	1738.73
532.47	1714.15
532.67	1773.54
532.87	1822.69
533.07	1615.85
533.27	1812.45
533.46	1767.40
533.66	1757.16
533.86	1730.53
534.06	1689.57
534.26	1755.11
534.45	1777.64
534.65	1796.07
534.85	1771.49
535.05	1761.25
535.25	1873.89
535.44	1703.91
535.64	1849.32
535.84	1798.12
536.04	1722.34
536.24	1683.43
536.43	1705.96
536.63	1773.54
536.83	1726.44
537.03	1763.30
537.22	1675.24
537.42	1654.76
537.62	1679.33
537.82	1628.14
538.02	1875.94
538.21	1830.88
538.41	1902.56
538.61	1787.88
538.81	1734.63
539.00	1822.69
539.20	1671.14
539.40	1730.53
539.60	1708.01
539.79	1738.73
539.99	1771.49
540.19	1734.63
540.39	1703.91
540.58	1769.44
540.78	1779.68
540.98	1744.87
541.18	1806.31
541.37	1755.11
541.57	1714.15
541.77	1751.01
541.97	1710.05
542.16	1716.20
542.36	1691.62
542.56	1722.34
542.76	1828.84
542.95	1759.21
543.15	1759.21
543.35	1751.01
543.54	1656.81
543.74	1701.86
543.94	1800.16
544.14	1673.19
544.33	1763.30
544.53	1771.49
544.73	1718.25
544.93	1718.25
545.12	1712.10
545.32	1755.11
545.52	1677.29
545.71	1681.38
545.91	1714.15
546.11	1689.57
546.30	1703.91
546.50	1728.49
546.70	1710.05
546.90	1763.30
547.09	1712.10
547.29	1755.11
547.49	1822.69
547.68	1787.88
547.88	1662.95
548.08	1730.53
548.27	2226.14
548.47	1665.00
548.67	1738.73
548.87	1757.16
549.06	1683.43
549.26	1697.77
549.46	1728.49
549.65	1685.48
549.85	1699.81
550.05	1785.83
550.24	1691.62
550.44	1701.86
550.64	1658.85
550.83	1697.77
551.03	1742.82
551.23	1818.60
551.42	1738.73
551.62	1794.02
551.82	1679.33
552.01	1712.10
552.21	1857.51
552.41	1716.20
552.60	1800.16
552.80	1785.83
553.00	1699.81
553.19	1701.86
553.39	1812.45
553.59	1673.19
553.78	1681.38
553.98	1742.82
554.17	1716.20
554.37	1708.01
554.57	1660.90
554.76	1767.40
554.96	1699.81
555.16	1767.40
555.35	1804.26
555.55	1753.06
555.75	1703.91
555.94	1767.40
556.14	1589.22
556.33	1755.11
556.53	1763.30
556.73	1771.49
556.92	1757.16
557.12	1732.58
557.32	1861.60
557.51	1791.97
557.71	1748.97
557.90	1906.66
558.10	1837.03
558.30	1712.10
558.49	1802.21
558.69	1771.49
558.88	1716.20
559.08	1810.40
559.28	1671.14
559.47	1746.92
559.67	1716.20
559.86	1857.51
560.06	1710.05
560.26	1695.72
560.45	1798.12
560.65	1720.29
560.84	1832.93
561.04	1689.57
561.24	1757.16
561.43	1691.62
561.63	1863.65
561.82	1656.81
562.02	1800.16
562.22	1683.43
562.41	1673.19
562.61	1728.49
562.80	1705.96
563.00	1877.99
563.19	1757.16
563.39	1781.73
563.59	1753.06
563.78	1638.38
563.98	1656.81
564.17	1603.56
564.37	1685.48
564.56	1751.01
564.76	1646.57
564.96	1787.88
565.15	1775.59
565.35	1822.69
565.54	1746.92
565.74	1755.11
565.93	1742.82
566.13	1716.20
566.32	1763.30
566.52	1681.38
566.71	1669.09
566.91	1771.49
567.11	1736.68
567.30	1691.62
567.50	1708.01
567.69	1771.49
567.89	1798.12
568.08	1714.15
568.28	1820.64
568.47	1740.77
568.67	1781.73
568.86	1746.92
569.06	1744.87
569.25	1740.77
569.45	1662.95
569.64	1718.25
569.84	1738.73
570.04	1744.87
570.23	1718.25
570.43	1748.97
570.62	1724.39
570.82	1857.51
571.01	1681.38
571.21	1693.67
571.40	1673.19
571.60	1800.16
571.79	1726.44
571.99	1771.49
572.18	1740.77
572.38	1757.16
572.57	1736.68
572.77	1718.25
572.96	1826.79
573.16	1718.25
573.35	1718.25
573.55	1808.36
573.74	1787.88
573.94	1681.38
574.13	1712.10
574.33	1830.88
574.52	1804.26
574.71	1820.64
574.91	1734.63
575.10	1710.05
575.30	1716.20
575.49	1716.20
575.69	1732.58
575.88	1828.84
576.08	1789.92
576.27	1832.93
576.47	1822.69
576.66	1894.37
576.86	1923.04
577.05	1718.25
577.25	1816.55
577.44	1947.62
577.64	1761.25
577.83	1902.56
578.02	1748.97
578.22	1794.02
578.41	1834.98
578.61	1755.11
578.80	1720.29
579.00	1791.97
579.19	1791.97
579.39	1779.68
579.58	1800.16
579.77	1759.21
579.97	1882.08
580.16	1843.17
580.36	1712.10
580.55	1855.46
580.75	1759.21
580.94	1681.38
581.13	1892.32
581.33	1783.78
581.52	1779.68
581.72	1935.33
581.91	1871.84
582.11	1783.78
582.30	1828.84
582.49	1773.54
582.69	1898.47
582.88	1832.93
583.08	1804.26
583.27	1763.30
583.47	1722.34
583.66	1740.77
583.85	1744.87
584.05	1828.84
584.24	1837.03
584.44	1787.88
584.63	1841.12
584.82	1906.66
585.02	1939.43
585.21	1982.43
585.41	1955.81
585.60	1927.14
585.79	1925.09
585.99	1959.91
586.18	2025.44
586.37	2295.77
586.57	3366.86
586.76	9883.50
586.96	27151.97
587.15	42360.19
587.34	52145.38
587.54	58680.45
587.73	56493.22
587.93	40549.78
588.12	30049.85
588.31	23996.05
588.51	20506.31
588.70	18720.48
588.89	17436.41
589.09	15550.23
589.28	13668.14
589.47	11577.17
589.67	9551.73
589.86	7538.57
590.06	5392.30
590.25	4173.76
590.44	3246.03
590.64	2625.50
590.83	2314.20
591.02	2152.42
591.22	1943.52
591.41	1943.52
591.60	1875.94
591.80	1920.99
591.99	1730.53
592.18	1798.12
592.38	1773.54
592.57	1769.44
592.76	1746.92
592.96	1806.31
593.15	1710.05
593.34	1822.69
593.54	1822.69
593.73	1751.01
593.92	1841.12
594.12	1736.68
594.31	1800.16
594.50	1923.04
594.70	1828.84
594.89	1902.56
595.08	1716.20
595.28	1849.32
595.47	1986.53
595.66	1834.98
595.86	1716.20
596.05	1808.36
596.24	1742.82
596.43	1902.56
596.63	1871.84
596.82	1779.68
597.01	1734.63
597.21	1849.32
597.40	1744.87
597.59	1877.99
597.79	1767.40
597.98	1812.45
598.17	1830.88
598.36	1798.12
598.56	1791.97
598.75	1738.73
598.94	1828.84
599.14	1763.30
599.33	1689.57
599.52	1826.79
599.71	1734.63
599.91	1728.49
600.10	1728.49
600.29	1806.31
600.48	1837.03
600.68	1781.73
600.87	1720.29
601.06	1722.34
601.26	1720.29
601.45	1800.16
601.64	1748.97
601.83	1785.83
602.03	1681.38
602.22	1599.46
602.41	1814.50
602.60	1888.23
602.80	1841.12
602.99	1839.08
603.18	1785.83
603.37	1701.86
603.57	1765.35
603.76	1791.97
603.95	1800.16
604.14	1761.25
604.34	1765.35
604.53	1830.88
604.72	1726.44
604.91	1755.11
605.10	1789.92
605.30	1628.14
605.49	1847.27
605.68	1796.07
605.87	1742.82
606.07	1834.98
606.26	1767.40
606.45	1761.25
606.64	1763.30
606.84	1779.68
607.03	1695.72
607.22	1861.60
607.41	1791.97
607.60	1791.97
607.80	1812.45
607.99	1757.16
608.18	1748.97
608.37	1722.34
608.56	1732.58
608.76	1800.16
608.95	1877.99
609.14	1802.21
609.33	1761.25
609.52	1865.70
609.72	1841.12
609.91	1918.95
610.10	1781.73
610.29	1896.42
610.48	1734.63
610.68	1816.55
610.87	1695.72
611.06	1785.83
611.25	1746.92
611.44	1841.12
611.63	1685.48
611.83	1818.60
612.02	1648.61
612.21	1877.99
612.40	1683.43
612.59	1667.05
612.79	1732.58
612.98	1753.06
613.17	1810.40
613.36	1710.05
613.55	1955.81
613.74	1775.59
613.93	1929.19
614.13	1972.19
614.32	1914.85
614.51	1943.52
614.70	1910.75
614.89	1794.02
615.08	1822.69
615.28	2150.37
615.47	1675.24
615.66	1832.93
615.85	1839.08
616.04	1877.99
616.23	1802.21
616.42	1751.01
616.62	1771.49
616.81	1849.32
617.00	1779.68
617.19	1859.56
617.38	1787.88
617.57	1736.68
617.76	1763.30
617.95	1789.92
618.15	1820.64
618.34	1869.80
618.53	1677.29
618.72	1808.36
618.91	1763.30
619.10	1814.50
619.29	1794.02
619.48	1708.01
619.68	1681.38
619.87	1744.87
620.06	1667.05
620.25	1718.25
620.44	1761.25
620.63	1724.39
620.82	1740.77
621.01	1683.43
621.20	1736.68
621.39	1738.73
621.59	1814.50
621.78	1744.87
621.97	1734.63
622.16	1796.07
622.35	1763.30
622.54	1771.49
622.73	1808.36
622.92	1714.15
623.11	1791.97
623.30	1683.43
623.49	1789.92
623.68	1705.96
623.88	1873.89
624.07	1759.21
624.26	1753.06
624.45	1738.73
624.64	1660.90
624.83	1755.11
625.02	1710.05
625.21	1740.77
625.40	1787.88
625.59	1800.16
625.78	1763.30
625.97	1822.69
626.16	1882.08
626.35	1826.79
626.54	1783.78
626.74	1892.32
626.93	1785.83
627.12	1814.50
627.31	1849.32
627.50	1751.01
627.69	1814.50
627.88	1685.48
628.07	1751.01
628.26	1656.81
628.45	1695.72
628.64	1695.72
628.83	1779.68
629.02	1683.43
629.21	1736.68
629.40	1763.30
629.59	1740.77
629.78	1728.49
629.97	1720.29
630.16	1751.01
630.35	1812.45
630.54	1705.96
630.73	1718.25
630.92	1757.16
631.11	1722.34
631.30	1732.58
631.49	1794.02
631.68	1755.11
631.87	1726.44
632.06	1701.86
632.25	1806.31
632.44	1759.21
632.63	1802.21
632.82	1759.21
633.01	1804.26
633.20	1853.41
633.39	1763.30
633.58	1695.72
633.77	1808.36
633.96	1851.36
634.15	1818.60
634.34	1765.35
634.53	1736.68
634.72	1714.15
634.91	1714.15
635.10	1796.07
635.29	1732.58
635.48	1640.42
635.67	1705.96
635.86	1654.76
636.05	1849.32
636.24	1734.63
636.43	1667.05
636.62	1748.97
636.81	1675.24
637.00	1724.39
637.19	1759.21
637.38	1779.68
637.57	1755.11
637.76	1775.59
637.95	1787.88
638.14	1804.26
638.33	1771.49
638.52	1810.40
638.71	1701.86
638.89	1757.16
639.08	1861.60
639.27	1765.35
639.46	1912.80
639.65	2160.61
639.84	2279.39
640.03	2396.12
640.22	2373.60
640.41	2394.08
640.60	2113.50
640.79	2009.06
640.98	1914.85
641.17	2004.96
641.36	1904.61
641.55	1902.56
641.74	1855.46
641.92	1751.01
642.11	1753.06
642.30	1763.30
642.49	1751.01
642.68	1734.63
642.87	1787.88
643.06	1726.44
643.25	1687.53
643.44	1724.39
643.63	1716.20
643.82	1806.31
644.00	1703.91
644.19	1669.09
644.38	1683.43
644.57	1802.21
644.76	1708.01
644.95	1785.83
645.14	1699.81
645.33	1689.57
645.52	1708.01
645.71	1585.13
645.89	1611.75
646.08	1703.91
646.27	1660.90
646.46	1796.07
646.65	1689.57
646.84	1800.16
647.03	1705.96
647.22	1705.96
647.40	1794.02
647.59	1660.90
647.78	1642.47
647.97	1634.28
648.16	1648.61
648.35	1779.68
648.54	1779.68
648.73	1683.43
648.91	1693.67
649.10	1669.09
649.29	1718.25
649.48	1701.86
649.67	1662.95
649.86	1740.77
650.05	1822.69
650.23	1959.91
650.42	1734.63
650.61	1925.09
650.80	1931.23
650.99	1912.80
651.18	1794.02
651.36	1796.07
651.55	1759.21
651.74	1812.45
651.93	1785.83
652.12	1753.06
652.31	1791.97
652.49	1767.40
652.68	1759.21
652.87	1796.07
653.06	1689.57
653.25	1906.66
653.44	1771.49
653.62	1794.02
653.81	1726.44
654.00	1767.40
654.19	1695.72
654.38	1904.61
654.56	1740.77
654.75	1689.57
654.94	1796.07
655.13	1724.39
655.32	1654.76
655.51	1773.54
655.69	1648.61
655.88	1697.77
656.07	1617.90
656.26	1800.16
656.45	1615.85
656.63	1761.25
656.82	1802.21
657.01	1822.69
657.20	1673.19
657.38	1832.93
657.57	1683.43
657.76	1636.33
657.95	1783.78
658.14	1656.81
658.32	1761.25
658.51	1660.90
658.70	1734.63
658.89	1822.69
659.08	1683.43
659.26	1843.17
659.45	1677.29
659.64	1787.88
659.83	1732.58
660.01	2015.20
660.20	1730.53
660.39	1914.85
660.58	1650.66
660.76	1824.74
660.95	1740.77
661.14	1812.45
661.33	1744.87
661.51	1642.47
661.70	1708.01
661.89	1724.39
662.08	1689.57
662.26	1665.00
662.45	1685.48
662.64	1837.03
662.83	1787.88
663.01	1683.43
663.20	1742.82
663.39	1771.49
663.58	1609.70
663.76	1714.15
663.95	1751.01
664.14	1675.24
664.32	1724.39
664.51	1738.73
664.70	1677.29
664.89	1820.64
665.07	1693.67
665.26	1849.32
665.45	1673.19
665.64	1732.58
665.82	1673.19
666.01	1785.83
666.20	1667.05
666.38	1775.59
666.57	1820.64
666.76	2291.68
666.95	4562.87
667.13	11689.81
667.32	18478.82
667.51	22656.68
667.69	25185.92
667.88	25689.72
668.07	19941.07
668.25	14479.14
668.44	11839.31
668.63	9979.75
668.81	8632.19
669.00	7868.30
669.19	7124.88
669.38	6137.76
669.56	5533.61
669.75	4546.49
669.94	3801.03
670.12	3135.44
670.31	2654.17
670.50	2402.27
670.68	2107.36
670.87	1910.75
671.06	1832.93
671.24	1861.60
671.43	1937.38
671.62	1806.31
671.80	1761.25
671.99	1787.88
672.18	1720.29
672.36	1765.35
672.55	1722.34
672.74	1681.38
672.92	1714.15
673.11	1746.92
673.29	1665.00
673.48	1767.40
673.67	1691.62
673.85	1857.51
674.04	1628.14
674.23	1677.29
674.41	1837.03
674.60	1687.53
674.79	1613.80
674.97	1642.47
675.16	1765.35
675.34	1763.30
675.53	1701.86
675.72	1808.36
675.90	1843.17
676.09	1716.20
676.28	1677.29
676.46	1716.20
676.65	1744.87
676.83	1677.29
677.02	1822.69
677.21	1708.01
677.39	1753.06
677.58	1730.53
677.77	1671.14
677.95	1708.01
678.14	1779.68
678.32	1726.44
678.51	1689.57
678.70	1863.65
678.88	1767.40
679.07	1808.36
679.25	1730.53
679.44	1642.47
679.63	1621.99
679.81	1595.37
680.00	1832.93
680.18	1787.88
680.37	1822.69
680.55	1732.58
680.74	1642.47
680.93	1603.56
681.11	1720.29
681.30	1785.83
681.48	1728.49
681.67	1693.67
681.85	1669.09
682.04	1660.90
682.23	1720.29
682.41	1724.39
682.60	1728.49
682.78	1718.25
682.97	1685.48
683.15	1753.06
683.34	1701.86
683.53	1845.22
683.71	1665.00
683.90	1773.54
684.08	1759.21
684.27	1697.77
684.45	1740.77
684.64	1806.31
684.82	1665.00
685.01	1755.11
685.19	1665.00
685.38	1783.78
685.57	1744.87
685.75	1705.96
685.94	1693.67
686.12	1693.67
686.31	1658.85
686.49	1837.03
686.68	1662.95
686.86	1751.01
687.05	1683.43
687.23	1783.78
687.42	1648.61
687.60	1562.60
687.79	1787.88
687.97	1728.49
688.16	1841.12
688.34	1847.27
688.53	1650.66
688.71	1671.14
688.90	1748.97
689.08	1648.61
689.27	1597.42
689.45	1658.85
689.64	1763.30
689.82	1755.11
690.01	1658.85
690.19	1775.59
690.38	1671.14
690.56	1810.40
690.75	1615.85
690.93	1626.09
691.12	1755.11
691.30	1718.25
691.49	1656.81
691.67	1757.16
691.86	1820.64
692.04	1755.11
692.23	1701.86
692.41	1806.31
692.60	1908.71
692.78	1828.84
692.97	1812.45
693.15	1796.07
693.34	1916.90
693.52	1759.21
693.71	1693.67
693.89	1720.29
694.08	1656.81
694.26	1820.64
694.44	1781.73
694.63	1779.68
694.81	1632.23
695.00	1667.05
695.18	1802.21
695.37	1832.93
695.55	1734.63
695.74	1796.07
695.92	1675.24
696.10	1859.56
696.29	1621.99
696.47	1703.91
696.66	1566.70
696.84	1593.32
697.03	1636.33
697.21	1771.49
697.40	2246.62
697.58	1779.68
697.76	1679.33
697.95	1699.81
698.13	1607.66
698.32	1642.47
698.50	1681.38
698.68	1798.12
698.87	1701.86
699.05	1777.64
699.24	1755.11
699.42	1689.57
699.61	1730.53
699.79	1730.53
699.97	1669.09
700.16	1720.29
700.34	1640.42
700.53	1753.06
700.71	1763.30
700.89	1808.36
701.08	1705.96
701.26	1820.64
701.45	2160.61
701.63	1691.62
701.81	1701.86
702.00	1636.33
702.18	1687.53
702.37	1718.25
702.55	1892.32
702.73	1910.75
702.92	1869.80
703.10	2035.68
703.28	1988.58
703.47	1853.41
703.65	1910.75
703.84	1908.71
704.02	1818.60
704.20	1935.33
704.39	1744.87
704.57	1802.21
704.75	1814.50
704.94	1869.80
705.12	1798.12
705.30	1828.84
705.49	2486.23
705.67	5662.63
705.86	13297.46
706.04	19594.96
706.22	23047.84
706.41	25278.08
706.59	24927.88
706.77	19390.17
706.96	13760.30
707.14	12185.41
707.32	10245.99
707.51	9189.24
707.69	7995.27
707.87	6825.88
708.06	5506.99
708.24	4480.96
708.42	3411.92
708.61	2813.91
708.79	2238.43
708.97	2045.92
709.16	2000.87
709.34	1849.32
709.52	1855.46
709.71	1671.14
709.89	1744.87
710.07	1751.01
710.26	1722.34
710.44	1718.25
710.62	1802.21
710.80	1691.62
710.99	1777.64
711.17	1785.83
711.35	1738.73
711.54	1662.95
711.72	1763.30
711.90	1691.62
712.09	1673.19
712.27	1724.39
712.45	1810.40
712.63	1693.67
712.82	1769.44
713.00	1781.73
713.18	1720.29
713.37	1775.59
713.55	1812.45
713.73	1728.49
713.91	1783.78
714.10	1742.82
714.28	1673.19
714.46	1787.88
714.65	1714.15
714.83	1708.01
715.01	1685.48
715.19	1742.82
715.38	1693.67
715.56	1740.77
715.74	1683.43
715.92	1644.52
716.11	1785.83
716.29	1679.33
716.47	1628.14
716.65	1691.62
716.84	1636.33
717.02	1728.49
717.20	1652.71
717.38	1669.09
717.57	1785.83
717.75	1720.29
717.93	1697.77
718.11	1763.30
718.30	1603.56
718.48	1804.26
718.66	1716.20
718.84	1808.36
719.03	1771.49
719.21	1628.14
719.39	1771.49
719.57	1732.58
719.75	1789.92
719.94	1718.25
720.12	1636.33
720.30	1673.19
720.48	1783.78
720.67	1681.38
720.85	1689.57
721.03	1720.29
721.21	1675.24
721.39	1746.92
721.58	1628.14
721.76	1705.96
721.94	1748.97
722.12	1718.25
722.30	1837.03
722.49	1705.96
722.67	1726.44
722.85	1718.25
723.03	1671.14
723.21	1669.09
723.40	1714.15
723.58	1787.88
723.76	1779.68
723.94	1781.73
724.12	1781.73
724.30	1832.93
724.49	1890.28
724.67	1693.67
724.85	1839.08
725.03	1726.44
725.21	1794.02
725.40	1816.55
725.58	1708.01
725.76	1839.08
725.94	1808.36
726.12	1644.52
726.30	1736.68
726.49	1755.11
726.67	1669.09
726.85	1794.02
727.03	1783.78
727.21	2316.25
727.39	3391.44
727.57	4995.00
727.76	5717.93
727.94	6262.69
728.12	6444.96
728.30	5705.64
728.48	4489.15
728.66	3985.35
728.84	3540.94
729.03	3147.73
729.21	2807.77
729.39	2467.80
729.57	2103.26
729.75	1984.48
729.93	1890.28
730.11	1738.73
730.30	1765.35
730.48	1730.53
730.66	1761.25
730.84	1796.07
731.02	1705.96
731.20	1656.81
731.38	1728.49
731.56	1662.95
731.74	1681.38
731.93	1714.15
732.11	1726.44
732.29	1712.10
732.47	1728.49
732.65	1777.64
732.83	1794.02
733.01	1765.35
733.19	1677.29
733.37	1783.78
733.56	1634.28
733.74	1716.20
733.92	1732.58
734.10	1673.19
734.28	1714.15
734.46	1585.13
734.64	1626.09
734.82	1640.42
735.00	1689.57
735.18	1728.49
735.36	1679.33
735.54	1765.35
735.73	1714.15
735.91	1787.88
736.09	1761.25
736.27	1746.92
736.45	1814.50
736.63	1589.22
736.81	1660.90
736.99	1730.53
737.17	1738.73
737.35	1673.19
737.53	1673.19
737.71	1712.10
737.89	1791.97
738.07	1636.33
738.25	1718.25
738.43	1705.96
738.61	1665.00
738.80	1710.05
738.98	1665.00
739.16	1693.67
739.34	1644.52
739.52	1839.08
739.70	1687.53
739.88	1705.96
740.06	1779.68
740.24	1562.60
740.42	1722.34
740.60	1642.47
740.78	1708.01
740.96	1597.42
741.14	1712.10
741.32	1757.16
741.50	1634.28
741.68	1779.68
741.86	1806.31
742.04	1638.38
742.22	1673.19
742.40	1697.77
742.58	1718.25
742.76	1669.09
742.94	1767.40
743.12	1599.46
743.30	1738.73
743.48	1794.02
743.66	1755.11
743.84	1712.10
744.02	1738.73
744.20	1759.21
744.38	1716.20
744.56	1695.72
744.74	1744.87
744.92	1724.39
745.10	1773.54
745.28	1742.82
745.46	1716.20
745.64	1669.09
745.82	1781.73
746.00	1714.15
746.18	1726.44
746.36	1650.66
746.54	1730.53
746.72	1689.57
746.90	1673.19
747.08	1773.54
747.26	1703.91
747.44	1724.39
747.62	1697.77
747.80	1740.77
747.98	1724.39
748.15	1675.24
748.33	1867.75
748.51	1703.91
748.69	1746.92
748.87	1708.01
749.05	1675.24
749.23	1665.00
749.41	1753.06
749.59	1759.21
749.77	1789.92
749.95	1677.29
750.13	1708.01
750.31	1757.16
750.49	1738.73
750.67	1802.21
750.85	1759.21
751.03	1683.43
751.20	1789.92
751.38	1746.92
751.56	1599.46
751.74	1705.96
751.92	1712.10
752.10	1621.99
752.28	1798.12
752.46	1634.28
752.64	1695.72
752.82	1787.88
753.00	1796.07
753.18	1679.33
753.35	1673.19
753.53	1781.73
753.71	1703.91
753.89	1744.87
754.07	1665.00
754.25	1855.46
754.43	1730.53
754.61	1607.66
754.79	1724.39
754.97	1693.67
755.14	1716.20
755.32	1634.28
755.50	1746.92
755.68	1746.92
755.86	1611.75
756.04	1642.47
756.22	1630.18
756.40	1714.15
756.57	1898.47
756.75	1728.49
756.93	1783.78
757.11	1751.01
757.29	1601.51
757.47	1628.14
757.65	1607.66
757.82	1552.36
758.00	1634.28
758.18	1683.43
758.36	1617.90
758.54	1798.12
758.72	1570.79
758.90	1751.01
759.07	1718.25
759.25	1626.09
759.43	1722.34
759.61	1646.57
759.79	2211.81
759.97	1738.73
760.15	1669.09
760.32	1724.39
760.50	1751.01
760.68	1832.93
760.86	1642.47
761.04	1775.59
761.22	1787.88
761.39	1728.49
761.57	1662.95
761.75	1675.24
761.93	1652.71
762.11	1648.61
762.28	1705.96
762.46	1675.24
762.64	1679.33
762.82	1642.47
763.00	1660.90
763.18	1794.02
763.35	1593.32
763.53	1705.96
763.71	1693.67
763.89	1724.39
764.07	1671.14
764.24	1689.57
764.42	1703.91
764.60	1697.77
764.78	1683.43
764.96	1708.01
765.13	1800.16
765.31	1703.91
765.49	1677.29
765.67	1644.52
765.84	1660.90
766.02	1671.14
766.20	1640.42
766.38	1714.15
766.56	1732.58
766.73	1722.34
766.91	1667.05
767.09	1687.53
767.27	1759.21
767.44	1675.24
767.62	1693.67
767.80	1724.39
767.98	1673.19
768.15	1599.46
768.33	1697.77
768.51	1808.36
768.69	1724.39
768.87	1732.58
769.04	1673.19
769.22	1781.73
769.40	1824.74
769.58	1910.75
769.75	1714.15
769.93	1708.01
770.11	1667.05
770.28	1683.43
770.46	1695.72
770.64	1755.11
770.82	1718.25
770.99	1724.39
771.17	1755.11
771.35	1759.21
771.53	1675.24
771.70	1654.76
771.88	1779.68
772.06	1724.39
772.23	1742.82
772.41	1708.01
772.59	1695.72
772.77	1687.53
772.94	1761.25
773.12	1693.67
773.30	1703.91
773.47	1714.15
773.65	1689.57
773.83	1873.89
774.01	1644.52
774.18	1617.90
774.36	1728.49
774.54	1726.44
774.71	1613.80
774.89	1716.20
775.07	1671.14
775.24	1673.19
775.42	1687.53
775.60	1767.40
775.78	1673.19
775.95	1673.19
776.13	1601.51
776.31	1576.94
776.48	1660.90
776.66	1751.01
776.84	1699.81
777.01	1560.55
777.19	1718.25
777.37	1679.33
777.54	1785.83
777.72	1812.45
777.90	1724.39
778.07	1667.05
778.25	1904.61
778.43	1787.88
778.60	1683.43
778.78	1763.30
778.96	1775.59
779.13	1718.25
779.31	1769.44
779.49	1730.53
779.66	1751.01
779.84	1691.62
780.01	1765.35
780.19	1738.73
780.37	1794.02
780.54	1763.30
780.72	1732.58
780.90	1765.35
781.07	1687.53
781.25	1710.05
781.43	1703.91
781.60	1673.19
781.78	1779.68
781.95	1820.64
782.13	1665.00
782.31	1718.25
782.48	1601.51
782.66	1673.19
782.83	1818.60
783.01	1679.33
783.19	1812.45
783.36	1691.62
783.54	1658.85
783.72	1781.73
783.89	1718.25
784.07	1673.19
784.24	1753.06
784.42	1810.40
784.60	1738.73
784.77	1761.25
784.95	1599.46
785.12	1794.02
785.30	1701.86
785.47	1716.20
785.65	1701.86
785.83	1734.63
786.00	1658.85
786.18	1705.96
786.35	1628.14
786.53	1753.06
786.71	1734.63
786.88	1753.06
787.06	1777.64
787.23	1677.29
787.41	1683.43
787.58	1685.48
787.76	1617.90
787.94	1726.44
788.11	1746.92
788.29	1755.11
788.46	1585.13
788.64	1656.81
788.81	1669.09
788.99	1671.14
789.16	1658.85
789.34	1617.90
789.52	1669.09
789.69	1665.00
789.87	1548.26
790.04	1675.24
790.22	1708.01
790.39	1781.73
790.57	1677.29
790.74	1621.99
790.92	1677.29
791.09	1630.18
791.27	1779.68
791.44	1806.31
791.62	1755.11
791.79	1669.09
791.97	1658.85
792.15	1773.54
792.32	1765.35
792.50	1757.16
792.67	1781.73
792.85	1740.77
793.02	1669.09
793.20	1687.53
793.37	1660.90
793.55	1703.91
793.72	1654.76
793.90	1703.91
794.07	1648.61
794.25	1665.00
794.42	1757.16
794.60	1601.51
794.77	1765.35
794.95	1810.40
795.12	1714.15
795.30	1691.62
795.47	1638.38
795.65	1890.28
795.82	1705.96
796.00	1710.05
796.17	1681.38
796.34	1595.37
796.52	1746.92
796.69	1740.77
796.87	1841.12
797.04	1814.50
797.22	1740.77
797.39	1665.00
797.57	1693.67
797.74	1705.96
797.92	1671.14
798.09	1722.34
798.27	1685.48
798.44	1687.53
798.62	1685.48
798.79	1697.77
798.96	1720.29
799.14	1691.62
799.31	1832.93
799.49	1755.11
799.66	1624.04
799.84	1724.39
800.01	1605.61
800.19	1685.48
800.36	1619.94
800.53	1734.63
800.71	1736.68
800.88	1812.45
801.06	1687.53
801.23	1648.61
801.41	1581.03
801.58	1685.48
801.75	1607.66
801.93	1714.15
802.10	1705.96
802.28	1710.05
802.45	1644.52
802.63	1685.48
802.80	1744.87
802.97	1714.15
803.15	1693.67
803.32	1718.25
803.50	1714.15
803.67	1619.94
803.84	1615.85
804.02	1730.53
804.19	1681.38
804.37	1609.70
804.54	1701.86
804.71	1683.43
804.89	1628.14
805.06	1628.14
805.24	1658.85
805.41	1689.57
805.58	1650.66
805.76	1800.16
805.93	1767.40
806.10	1767.40
806.28	1732.58
806.45	1759.21
806.63	1787.88
806.80	1671.14
806.97	1734.63
807.15	1765.35
807.32	1738.73
807.49	1658.85
807.67	1628.14
807.84	1699.81
808.01	1695.72
808.19	1824.74
808.36	1834.98
808.54	1624.04
808.71	1683.43
808.88	1708.01
809.06	1794.02
809.23	1712.10
809.40	1673.19
809.58	1765.35
809.75	1722.34
809.92	1675.24
810.10	1812.45
810.27	1675.24
810.44	1738.73
810.62	1796.07
810.79	1683.43
810.96	1685.48
811.14	1611.75
811.31	1761.25
811.48	1761.25
811.66	1628.14
811.83	1787.88
812.00	1751.01
812.18	1710.05
812.35	1789.92
812.52	1746.92
812.69	1648.61
812.87	1730.53
813.04	1677.29
813.21	1710.05
813.39	1658.85
813.56	1644.52
813.73	1699.81
813.91	1619.94
814.08	1714.15
814.25	1712.10
814.42	1646.57
814.60	1624.04
814.77	1697.77
814.94	1716.20
815.12	1730.53
815.29	1828.84
815.46	1611.75
815.63	1675.24
815.81	1742.82
815.98	1626.09
816.15	1695.72
816.33	1699.81
816.50	1681.38
816.67	1650.66
816.84	1681.38
817.02	1568.74
817.19	1757.16
817.36	1736.68
817.53	1759.21
817.71	1642.47
817.88	1748.97
818.05	1652.71
818.22	1710.05
818.40	1832.93
818.57	1642.47
818.74	1722.34
818.91	1734.63
819.09	1748.97
819.26	1726.44
819.43	1665.00
819.60	1626.09
819.78	1730.53
819.95	1751.01
820.12	1648.61
820.29	1763.30
820.47	1703.91
820.64	1681.38
820.81	1648.61
820.98	1705.96
821.15	1755.11
821.33	1748.97
821.50	1710.05
821.67	1746.92
821.84	1679.33
822.02	1679.33
822.19	1687.53
822.36	1730.53
822.53	1652.71
822.70	1556.46
822.88	1691.62
823.05	1775.59
823.22	1714.15
823.39	1710.05
823.56	1757.16
823.74	1753.06
823.91	1634.28
824.08	1613.80
824.25	1669.09
824.42	1732.58
824.60	1619.94
824.77	1687.53
824.94	1699.81
825.11	1705.96
825.28	1601.51
825.45	1724.39
825.63	1689.57
825.80	1705.96
825.97	1720.29
826.14	1685.48
826.31	1662.95
826.48	1695.72
826.66	1703.91
826.83	1708.01
827.00	1646.57
827.17	1679.33
827.34	1701.86
827.51	1724.39
827.69	1679.33
827.86	1720.29
828.03	1744.87
828.20	1716.20
828.37	1685.48
828.54	1746.92
828.71	1687.53
828.89	1738.73
829.06	1742.82
829.23	1691.62
829.40	1628.14
829.57	1710.05
829.74	1818.60
829.91	1675.24
830.09	1652.71
830.26	1710.05
830.43	1785.83
830.60	1701.86
830.77	1671.14
830.94	1787.88
831.11	1755.11
831.28	1705.96
831.46	1716.20
831.63	1726.44
831.80	1685.48
831.97	1609.70
832.14	1697.77
832.31	1691.62
832.48	1748.97
832.65	1787.88
832.82	1705.96
832.99	1818.60
833.17	1613.80
833.34	1734.63
833.51	1708.01
833.68	1613.80
833.85	1773.54
834.02	1697.77
834.19	1619.94
834.36	1570.79
834.53	1634.28
834.70	1744.87
834.87	1841.12
835.04	1679.33
835.22	1673.19
835.39	1724.39
835.56	1652.71
835.73	1628.14
835.90	1767.40
836.07	1609.70
836.24	1726.44
836.41	1634.28
836.58	1669.09
836.75	1783.78
836.92	1720.29
837.09	1667.05
837.26	1810.40
837.43	1691.62
837.60	1718.25
837.77	1669.09
837.94	1662.95
838.12	1789.92
838.29	1632.23
838.46	1597.42
838.63	1677.29
838.80	1730.53
838.97	1732.58
839.14	1759.21
839.31	1740.77
839.48	1744.87
839.65	1665.00
839.82	1734.63
839.99	1718.25
840.16	1732.58
840.33	1662.95
840.50	1716.20
840.67	1570.79
840.84	1638.38
841.01	1728.49
841.18	1667.05
841.35	1720.29
841.52	1744.87
841.69	1800.16
841.86	1671.14
842.03	1697.77
842.20	1695.72
842.37	1714.15
842.54	1652.71
842.71	1683.43
842.88	1619.94
843.05	1744.87
843.22	1693.67
843.39	1779.68
843.56	1619.94
843.73	1746.92
843.90	1740.77
844.07	1617.90
844.24	1812.45
844.41	1644.52
844.58	1740.77
844.75	1710.05
844.92	1724.39
845.09	1753.06
845.26	1662.95
845.43	1775.59
845.60	1665.00
845.77	1849.32
845.94	1714.15
846.10	1726.44
846.27	1624.04
846.44	1626.09
846.61	1693.67
846.78	1708.01
846.95	1800.16
847.12	1615.85
847.29	1714.15
847.46	1728.49
847.63	1763.30
847.80	1597.42
847.97	1648.61
848.14	1777.64
848.31	1759.21
848.48	1646.57
848.65	1763.30
848.82	1638.38
848.98	1851.36
849.15	1769.44
849.32	1759.21
849.49	1830.88
849.66	1621.99
849.83	1658.85
850.00	1662.95
850.17	1646.57
850.34	1669.09
850.51	1716.20
850.68	1701.86
850.85	1791.97
851.01	1683.43
851.18	1714.15
851.35	1718.25
851.52	1763.30
851.69	1746.92
851.86	1576.94
852.03	1648.61
852.20	1718.25
852.37	1681.38
852.53	1726.44
852.70	1763.30
852.87	1736.68
853.04	1773.54
853.21	1693.67
853.38	1728.49
853.55	1740.77
853.72	1830.88
853.89	1673.19
854.05	1615.85
854.22	1650.66
854.39	1613.80
854.56	1783.78
854.73	1699.81
854.90	1603.56
855.07	1738.73
855.23	1677.29
855.40	1691.62
855.57	1703.91
855.74	1687.53
855.91	1822.69
856.08	1652.71
856.25	1665.00
856.41	1734.63
856.58	1642.47
856.75	1718.25
856.92	1640.42
857.09	1771.49
857.26	1624.04
857.42	1705.96
857.59	1679.33
857.76	1609.70
857.93	1765.35
858.10	1701.86
858.27	1632.23
858.43	1697.77
858.60	1654.76
858.77	1601.51
858.94	1765.35
859.11	1779.68
859.27	1732.58
859.44	1705.96
859.61	1767.40
859.78	1755.11
859.95	1665.00
860.12	1685.48
860.28	1837.03
860.45	1789.92
860.62	1593.32
860.79	1708.01
860.95	1716.20
861.12	1605.61
861.29	1632.23
861.46	1658.85
861.63	1714.15
861.79	1757.16
861.96	1718.25
862.13	1628.14
862.30	1691.62
862.47	1636.33
862.63	1705.96
862.80	1714.15
862.97	1818.60
863.14	1730.53
863.30	1773.54
863.47	1757.16
863.64	1759.21
863.81	1705.96
863.97	1689.57
864.14	1595.37
864.31	1742.82
864.48	1650.66
864.65	1687.53
864.81	1757.16
864.98	1705.96
865.15	1800.16
865.32	1720.29
865.48	1775.59
865.65	1718.25
865.82	1634.28
865.98	1685.48
866.15	1665.00
866.32	1693.67
866.49	1677.29
866.65	1775.59
866.82	1640.42
866.99	1740.77
867.16	1640.42
867.32	1599.46
867.49	1695.72
867.66	1681.38
867.83	1626.09
867.99	1644.52
868.16	1783.78
868.33	1689.57
868.49	1697.77
868.66	1681.38
868.83	1755.11
868.99	1685.48
869.16	1617.90
869.33	1761.25
869.50	1720.29
869.66	1767.40
869.83	1724.39
870.00	1671.14
870.16	1693.67
870.33	1613.80
870.50	1740.77
870.66	1722.34
870.83	1828.84
871.00	1779.68
871.17	1710.05
871.33	1656.81
871.50	1740.77
871.67	1652.71
871.83	1599.46
872.00	1734.63
872.17	1660.90
872.33	1812.45
872.50	1748.97
872.67	1683.43
872.83	1693.67
873.00	1761.25
873.17	1654.76
873.33	1730.53
873.50	1732.58
873.67	1673.19
873.83	1632.23
874.00	1675.24
874.16	1730.53
874.33	1804.26
874.50	1607.66
874.66	1746.92
874.83	1755.11
875.00	1785.83
875.16	1791.97
875.33	1814.50
875.50	1601.51
875.66	1677.29
875.83	1648.61
875.99	1765.35
876.16	1615.85
876.33	1570.79
876.49	1673.19
876.66	1742.82
876.83	1748.97
876.99	1621.99
877.16	1685.48
877.32	1728.49
877.49	1714.15
877.66	1791.97
877.82	1771.49
877.99	1658.85
878.15	1810.40
878.32	1697.77
878.49	1751.01
878.65	1763.30
878.82	1701.86
878.98	1693.67
879.15	1753.06
879.32	1701.86
879.48	1751.01
879.65	1644.52
879.81	1718.25
879.98	1656.81
880.15	1609.70
880.31	1787.88
880.48	1669.09
880.64	1849.32
880.81	1744.87
880.97	1820.64
881.14	1759.21
881.31	1636.33
881.47	1808.36
881.64	1730.53
881.80	1605.61
881.97	1773.54
882.13	1740.77
882.30	1722.34
882.47	1708.01
882.63	1617.90
882.80	1656.81
882.96	1648.61
883.13	1759.21
883.29	1613.80
883.46	1703.91
883.62	1781.73
883.79	1712.10
883.95	1736.68
884.12	1689.57
884.29	1730.53
884.45	1736.68
884.62	1722.34
884.78	1667.05
884.95	1724.39
885.11	1660.90
885.28	1748.97
885.44	1714.15
885.61	1769.44
885.77	1800.16
885.94	1808.36
886.10	1693.67
886.27	1800.16
886.43	1861.60
886.60	1834.98
886.76	1687.53
886.93	1722.34
887.09	1718.25
887.26	1574.89
887.42	1753.06
887.59	1771.49
887.75	1755.11
887.92	1789.92
888.08	1726.44
888.25	1828.84
888.41	1828.84
888.58	1693.67
888.74	1619.94
888.91	1648.61
>>>>>End Processed Spectral Data<<<<<
