SpectraSuite Data File
++++++++++++++++++++++++++++++++++++
Date: Wed May 04 18:44:52 CEST 2016
User: root
Dark Spectrum Present: No
Reference Spectrum Present: No
Number of Sampled Component Spectra: 1
Spectrometers: USB4C02835
Integration Time (usec): 100000 (USB4C02835)
Spectra Averaged: 1 (USB4C02835)
Boxcar Smoothing: 0 (USB4C02835)
Correct for Electrical Dark: No (USB4C02835)
Strobe/Lamp Enabled: No (USB4C02835)
Correct for Detector Non-linearity: No (USB4C02835)
Correct for Stray Light: No (USB4C02835)
Number of Pixels in Processed Spectrum: 3648
>>>>>Begin Processed Spectral Data<<<<<
177.47	1476.59
177.69	1476.59
177.91	1476.59
178.13	1462.25
178.36	1519.59
178.58	1673.19
178.80	1812.45
179.02	1628.14
179.24	1673.19
179.46	1675.24
179.68	1705.96
179.90	1693.67
180.13	1701.86
180.35	1671.14
180.57	1662.95
180.79	1736.68
181.01	1683.43
181.23	1775.59
181.45	1794.02
181.67	1748.97
181.90	1769.44
182.12	1654.76
182.34	1609.70
182.56	1787.88
182.78	1705.96
183.00	1742.82
183.22	1662.95
183.44	1634.28
183.66	1910.75
183.89	1867.75
184.11	1689.57
184.33	1798.12
184.55	1769.44
184.77	1787.88
184.99	1677.29
185.21	1703.91
185.43	1845.22
185.65	1673.19
185.87	1742.82
186.10	1761.25
186.32	1832.93
186.54	1730.53
186.76	1714.15
186.98	1787.88
187.20	1701.86
187.42	1662.95
187.64	1687.53
187.86	1763.30
188.08	1769.44
188.30	1665.00
188.52	1722.34
188.75	1787.88
188.97	1828.84
189.19	1658.85
189.41	1665.00
189.63	1683.43
189.85	1681.38
190.07	1640.42
190.29	1673.19
190.51	1761.25
190.73	1697.77
190.95	1775.59
191.17	1710.05
191.39	1699.81
191.61	1730.53
191.84	1705.96
192.06	1681.38
192.28	1562.60
192.50	1931.23
192.72	1736.68
192.94	1679.33
193.16	1763.30
193.38	1697.77
193.60	1720.29
193.82	1701.86
194.04	1769.44
194.26	1722.34
194.48	1697.77
194.70	1697.77
194.92	1669.09
195.14	1777.64
195.36	1693.67
195.58	1720.29
195.80	1763.30
196.02	1662.95
196.24	1720.29
196.46	1699.81
196.69	1648.61
196.91	1824.74
197.13	1785.83
197.35	1624.04
197.57	1781.73
197.79	1720.29
198.01	1742.82
198.23	1755.11
198.45	1685.48
198.67	1640.42
198.89	1708.01
199.11	1759.21
199.33	1613.80
199.55	1624.04
199.77	1665.00
199.99	1796.07
200.21	1716.20
200.43	1716.20
200.65	1695.72
200.87	1599.46
201.09	1681.38
201.31	1660.90
201.53	1765.35
201.75	1697.77
201.97	1791.97
202.19	1665.00
202.41	1705.96
202.63	1775.59
202.85	1812.45
203.07	1685.48
203.29	1685.48
203.51	1681.38
203.73	1607.66
203.95	1851.36
204.17	1740.77
204.39	1748.97
204.61	1691.62
204.83	1658.85
205.05	1761.25
205.27	1761.25
205.49	1951.71
205.71	1665.00
205.93	1585.13
206.15	1660.90
206.37	1689.57
206.59	1703.91
206.81	1685.48
207.03	1591.27
207.25	1738.73
207.47	1730.53
207.69	1738.73
207.91	1863.65
208.13	1794.02
208.34	1714.15
208.56	1611.75
208.78	1746.92
209.00	1683.43
209.22	1632.23
209.44	1679.33
209.66	1677.29
209.88	1636.33
210.10	1644.52
210.32	1669.09
210.54	1759.21
210.76	1693.67
210.98	1699.81
211.20	1548.26
211.42	1695.72
211.64	1683.43
211.86	1763.30
212.08	1701.86
212.30	1773.54
212.52	1699.81
212.74	1708.01
212.96	1710.05
213.17	1763.30
213.39	1746.92
213.61	1742.82
213.83	1767.40
214.05	1660.90
214.27	1765.35
214.49	1681.38
214.71	1699.81
214.93	1787.88
215.15	1695.72
215.37	1830.88
215.59	1675.24
215.81	1699.81
216.03	1771.49
216.24	1617.90
216.46	1767.40
216.68	1701.86
216.90	1665.00
217.12	1769.44
217.34	1693.67
217.56	1781.73
217.78	1826.79
218.00	1753.06
218.22	1671.14
218.44	1759.21
218.66	1705.96
218.87	1771.49
219.09	1693.67
219.31	1681.38
219.53	1667.05
219.75	1748.97
219.97	1718.25
220.19	1775.59
220.41	1638.38
220.63	1742.82
220.85	1701.86
221.06	1701.86
221.28	1826.79
221.50	1726.44
221.72	1654.76
221.94	1718.25
222.16	1677.29
222.38	1796.07
222.60	1769.44
222.82	1718.25
223.03	1769.44
223.25	1642.47
223.47	1720.29
223.69	1802.21
223.91	1703.91
224.13	1765.35
224.35	1628.14
224.57	1781.73
224.78	1746.92
225.00	1703.91
225.22	1744.87
225.44	1699.81
225.66	1701.86
225.88	1671.14
226.10	1734.63
226.32	1669.09
226.53	1810.40
226.75	1656.81
226.97	1751.01
227.19	1583.08
227.41	1615.85
227.63	1621.99
227.85	1677.29
228.06	1730.53
228.28	1718.25
228.50	1779.68
228.72	1683.43
228.94	1693.67
229.16	1589.22
229.37	1646.57
229.59	1691.62
229.81	1759.21
230.03	1662.95
230.25	1595.37
230.47	1599.46
230.69	1609.70
230.90	1828.84
231.12	1609.70
231.34	1728.49
231.56	1712.10
231.78	1660.90
232.00	1634.28
232.21	1734.63
232.43	1669.09
232.65	1609.70
232.87	1710.05
233.09	1660.90
233.30	1642.47
233.52	1718.25
233.74	1703.91
233.96	1730.53
234.18	1767.40
234.40	1691.62
234.61	1837.03
234.83	1730.53
235.05	1650.66
235.27	1718.25
235.49	1742.82
235.70	1708.01
235.92	1755.11
236.14	1718.25
236.36	1812.45
236.58	1695.72
236.79	1703.91
237.01	1804.26
237.23	1673.19
237.45	1845.22
237.67	1687.53
237.88	1740.77
238.10	1742.82
238.32	1687.53
238.54	1705.96
238.76	1654.76
238.97	1624.04
239.19	1699.81
239.41	1734.63
239.63	1769.44
239.85	1667.05
240.06	1720.29
240.28	1671.14
240.50	1802.21
240.72	1697.77
240.93	1703.91
241.15	1724.39
241.37	1689.57
241.59	1789.92
241.81	1636.33
242.02	1675.24
242.24	1681.38
242.46	1740.77
242.68	1652.71
242.89	1742.82
243.11	1718.25
243.33	1714.15
243.55	1763.30
243.76	1693.67
243.98	1632.23
244.20	1708.01
244.42	1667.05
244.64	1746.92
244.85	1665.00
245.07	1667.05
245.29	1732.58
245.51	1716.20
245.72	1771.49
245.94	1740.77
246.16	1681.38
246.38	1710.05
246.59	1714.15
246.81	1626.09
247.03	1699.81
247.24	1599.46
247.46	1640.42
247.68	1695.72
247.90	1605.61
248.11	1638.38
248.33	1744.87
248.55	1689.57
248.77	1738.73
248.98	1767.40
249.20	1794.02
249.42	1646.57
249.64	1822.69
249.85	1693.67
250.07	1675.24
250.29	1755.11
250.50	1753.06
250.72	1638.38
250.94	1724.39
251.16	1767.40
251.37	1718.25
251.59	1742.82
251.81	1736.68
252.02	1820.64
252.24	1685.48
252.46	1826.79
252.68	1726.44
252.89	1701.86
253.11	1595.37
253.33	1763.30
253.54	1728.49
253.76	1691.62
253.98	1662.95
254.20	1738.73
254.41	1570.79
254.63	1677.29
254.85	1683.43
255.06	1689.57
255.28	1705.96
255.50	1669.09
255.71	1630.18
255.93	1667.05
256.15	1796.07
256.36	1667.05
256.58	1697.77
256.80	1738.73
257.02	1662.95
257.23	1740.77
257.45	1732.58
257.67	1798.12
257.88	1724.39
258.10	1681.38
258.32	1787.88
258.53	1673.19
258.75	1765.35
258.97	1701.86
259.18	1683.43
259.40	1732.58
259.62	1781.73
259.83	1861.60
260.05	1751.01
260.27	2039.78
260.48	1753.06
260.70	1650.66
260.92	1681.38
261.13	1693.67
261.35	1626.09
261.57	1763.30
261.78	1675.24
262.00	1697.77
262.22	1742.82
262.43	1665.00
262.65	1644.52
262.86	1683.43
263.08	1804.26
263.30	1654.76
263.51	1558.50
263.73	1650.66
263.95	1814.50
264.16	1669.09
264.38	1673.19
264.60	1726.44
264.81	1730.53
265.03	1808.36
265.25	1816.55
265.46	1705.96
265.68	1796.07
265.89	1779.68
266.11	1628.14
266.33	1794.02
266.54	1779.68
266.76	1722.34
266.98	1687.53
267.19	1841.12
267.41	1755.11
267.62	1748.97
267.84	1646.57
268.06	1708.01
268.27	1640.42
268.49	1779.68
268.70	1777.64
268.92	1755.11
269.14	1601.51
269.35	1648.61
269.57	1687.53
269.79	1746.92
270.00	1669.09
270.22	1863.65
270.43	1632.23
270.65	1562.60
270.87	1689.57
271.08	1726.44
271.30	1734.63
271.51	1746.92
271.73	1710.05
271.95	1714.15
272.16	1753.06
272.38	1685.48
272.59	1687.53
272.81	1773.54
273.02	1724.39
273.24	1712.10
273.46	1757.16
273.67	1593.32
273.89	1658.85
274.10	1648.61
274.32	1834.98
274.54	1703.91
274.75	1632.23
274.97	1718.25
275.18	1785.83
275.40	1789.92
275.61	1714.15
275.83	1746.92
276.05	1683.43
276.26	1703.91
276.48	1755.11
276.69	1789.92
276.91	1665.00
277.12	1671.14
277.34	1710.05
277.55	1763.30
277.77	1640.42
277.99	1667.05
278.20	1736.68
278.42	1679.33
278.63	1726.44
278.85	1703.91
279.06	1685.48
279.28	1769.44
279.49	1748.97
279.71	1714.15
279.93	1636.33
280.14	1697.77
280.36	1652.71
280.57	1742.82
280.79	1796.07
281.00	1636.33
281.22	1691.62
281.43	1746.92
281.65	1572.84
281.86	1599.46
282.08	1744.87
282.29	1884.13
282.51	1621.99
282.73	1642.47
282.94	1583.08
283.16	1712.10
283.37	1779.68
283.59	1720.29
283.80	1742.82
284.02	1855.46
284.23	1718.25
284.45	1609.70
284.66	1714.15
284.88	1693.67
285.09	1734.63
285.31	1705.96
285.52	1730.53
285.74	1634.28
285.95	1800.16
286.17	1685.48
286.38	1722.34
286.60	1652.71
286.81	1691.62
287.03	1658.85
287.24	1679.33
287.46	1742.82
287.67	1710.05
287.89	1863.65
288.10	1753.06
288.32	1685.48
288.53	1812.45
288.75	1669.09
288.96	1798.12
289.18	1669.09
289.39	1648.61
289.61	1720.29
289.82	1834.98
290.04	1771.49
290.25	1601.51
290.47	1669.09
290.68	1630.18
290.90	1775.59
291.11	1652.71
291.33	1642.47
291.54	1611.75
291.76	1615.85
291.97	1697.77
292.18	1697.77
292.40	1730.53
292.61	1644.52
292.83	1816.55
293.04	1732.58
293.26	1738.73
293.47	1665.00
293.69	1611.75
293.90	1691.62
294.12	1781.73
294.33	1673.19
294.55	1718.25
294.76	1695.72
294.97	1796.07
295.19	1781.73
295.40	1667.05
295.62	1755.11
295.83	1701.86
296.05	1658.85
296.26	1722.34
296.48	1628.14
296.69	1615.85
296.90	1751.01
297.12	1773.54
297.33	1732.58
297.55	1722.34
297.76	1794.02
297.98	1748.97
298.19	1662.95
298.41	1716.20
298.62	1681.38
298.83	1832.93
299.05	1687.53
299.26	1693.67
299.48	1681.38
299.69	1730.53
299.90	1697.77
300.12	1701.86
300.33	1726.44
300.55	1689.57
300.76	1779.68
300.98	1671.14
301.19	1820.64
301.40	1691.62
301.62	1763.30
301.83	1763.30
302.05	1705.96
302.26	1710.05
302.47	1787.88
302.69	1621.99
302.90	1697.77
303.12	1583.08
303.33	1699.81
303.54	1857.51
303.76	1609.70
303.97	1751.01
304.19	1798.12
304.40	1712.10
304.61	1804.26
304.83	1763.30
305.04	1726.44
305.26	1789.92
305.47	1695.72
305.68	1759.21
305.90	1638.38
306.11	1730.53
306.33	1708.01
306.54	1650.66
306.75	1687.53
306.97	1568.74
307.18	1726.44
307.39	1697.77
307.61	1712.10
307.82	1650.66
308.04	1828.84
308.25	1708.01
308.46	1759.21
308.68	1689.57
308.89	1712.10
309.10	1773.54
309.32	1748.97
309.53	1763.30
309.74	1681.38
309.96	1789.92
310.17	1826.79
310.39	1646.57
310.60	1705.96
310.81	1617.90
311.03	1718.25
311.24	1736.68
311.45	1734.63
311.67	1787.88
311.88	1718.25
312.09	1628.14
312.31	1691.62
312.52	1767.40
312.73	1720.29
312.95	1701.86
313.16	1605.61
313.37	1744.87
313.59	1734.63
313.80	1824.74
314.01	1771.49
314.23	1708.01
314.44	1681.38
314.65	1714.15
314.87	1650.66
315.08	1716.20
315.29	1679.33
315.51	1675.24
315.72	1589.22
315.93	1796.07
316.15	1714.15
316.36	1691.62
316.57	1824.74
316.79	1794.02
317.00	1621.99
317.21	1791.97
317.43	1673.19
317.64	1810.40
317.85	1681.38
318.07	1681.38
318.28	1779.68
318.49	1900.52
318.70	1959.91
318.92	1867.75
319.13	1863.65
319.34	1873.89
319.56	1779.68
319.77	1814.50
319.98	1796.07
320.20	1695.72
320.41	1796.07
320.62	1693.67
320.83	1734.63
321.05	1837.03
321.26	1748.97
321.47	1804.26
321.69	1757.16
321.90	1689.57
322.11	1703.91
322.32	1806.31
322.54	1781.73
322.75	1607.66
322.96	1839.08
323.18	1589.22
323.39	1591.27
323.60	1662.95
323.81	1759.21
324.03	1624.04
324.24	1683.43
324.45	1753.06
324.66	1697.77
324.88	1777.64
325.09	1736.68
325.30	1744.87
325.52	1740.77
325.73	1677.29
325.94	1683.43
326.15	1613.80
326.37	1642.47
326.58	1738.73
326.79	1847.27
327.00	1644.52
327.22	1697.77
327.43	1701.86
327.64	1640.42
327.85	1695.72
328.07	1730.53
328.28	1800.16
328.49	1677.29
328.70	1728.49
328.92	1677.29
329.13	1662.95
329.34	1716.20
329.55	1851.36
329.76	1804.26
329.98	1769.44
330.19	1804.26
330.40	1710.05
330.61	1712.10
330.83	1812.45
331.04	1669.09
331.25	1675.24
331.46	1714.15
331.68	1669.09
331.89	1683.43
332.10	1654.76
332.31	1652.71
332.52	1712.10
332.74	1779.68
332.95	1667.05
333.16	1718.25
333.37	1755.11
333.58	1732.58
333.80	1714.15
334.01	1583.08
334.22	1714.15
334.43	1673.19
334.64	1751.01
334.86	1636.33
335.07	1652.71
335.28	1789.92
335.49	1597.42
335.70	1697.77
335.92	1708.01
336.13	1875.94
336.34	1679.33
336.55	1734.63
336.76	1794.02
336.98	1624.04
337.19	1665.00
337.40	1806.31
337.61	1841.12
337.82	1742.82
338.04	1769.44
338.25	1636.33
338.46	1677.29
338.67	1697.77
338.88	1640.42
339.09	1613.80
339.31	1654.76
339.52	1617.90
339.73	1632.23
339.94	1783.78
340.15	1744.87
340.36	1736.68
340.58	1617.90
340.79	1740.77
341.00	1683.43
341.21	1669.09
341.42	1834.98
341.63	1685.48
341.85	1847.27
342.06	1667.05
342.27	1685.48
342.48	1787.88
342.69	1558.50
342.90	1638.38
343.12	1767.40
343.33	1757.16
343.54	1775.59
343.75	1830.88
343.96	1667.05
344.17	1632.23
344.38	1689.57
344.60	1691.62
344.81	1701.86
345.02	1701.86
345.23	1685.48
345.44	1843.17
345.65	1710.05
345.86	1794.02
346.07	1722.34
346.29	1687.53
346.50	1771.49
346.71	1744.87
346.92	1746.92
347.13	1812.45
347.34	1652.71
347.55	1736.68
347.76	1697.77
347.98	1675.24
348.19	1712.10
348.40	1853.41
348.61	1681.38
348.82	1804.26
349.03	1734.63
349.24	1728.49
349.45	1787.88
349.66	1624.04
349.88	1769.44
350.09	1726.44
350.30	1806.31
350.51	1746.92
350.72	1712.10
350.93	1722.34
351.14	1730.53
351.35	1785.83
351.56	1634.28
351.77	1708.01
351.99	1742.82
352.20	1851.36
352.41	1748.97
352.62	1654.76
352.83	1621.99
353.04	1601.51
353.25	1628.14
353.46	1722.34
353.67	1673.19
353.88	1687.53
354.09	1716.20
354.30	1708.01
354.52	1714.15
354.73	1718.25
354.94	1720.29
355.15	1722.34
355.36	1759.21
355.57	1738.73
355.78	1757.16
355.99	1650.66
356.20	1621.99
356.41	1800.16
356.62	1679.33
356.83	1779.68
357.04	1843.17
357.25	1533.93
357.46	1697.77
357.68	1624.04
357.89	1662.95
358.10	1669.09
358.31	1679.33
358.52	1634.28
358.73	1714.15
358.94	1644.52
359.15	1720.29
359.36	1800.16
359.57	1794.02
359.78	1755.11
359.99	1693.67
360.20	1665.00
360.41	1722.34
360.62	1718.25
360.83	1691.62
361.04	1730.53
361.25	1748.97
361.46	1837.03
361.67	1744.87
361.88	1753.06
362.09	1718.25
362.30	1722.34
362.51	1658.85
362.72	1615.85
362.93	1779.68
363.14	1814.50
363.35	1722.34
363.56	1677.29
363.78	1763.30
363.99	1687.53
364.20	1669.09
364.41	1769.44
364.62	1865.70
364.83	1660.90
365.04	1716.20
365.25	1691.62
365.46	1871.84
365.67	1679.33
365.88	1646.57
366.09	1644.52
366.30	1734.63
366.51	1746.92
366.72	1716.20
366.93	1730.53
367.14	1710.05
367.35	1765.35
367.56	1710.05
367.77	1779.68
367.98	1695.72
368.18	1740.77
368.39	1730.53
368.60	1652.71
368.81	1771.49
369.02	1789.92
369.23	1689.57
369.44	1654.76
369.65	1705.96
369.86	1673.19
370.07	1730.53
370.28	1757.16
370.49	1728.49
370.70	1759.21
370.91	1601.51
371.12	1650.66
371.33	1751.01
371.54	1642.47
371.75	1853.41
371.96	1589.22
372.17	1716.20
372.38	1734.63
372.59	1751.01
372.80	1705.96
373.01	1687.53
373.22	1738.73
373.43	1740.77
373.64	1679.33
373.85	1765.35
374.06	1771.49
374.26	1687.53
374.47	1730.53
374.68	1785.83
374.89	1751.01
375.10	1732.58
375.31	1771.49
375.52	1761.25
375.73	1716.20
375.94	1634.28
376.15	1863.65
376.36	1669.09
376.57	1732.58
376.78	1683.43
376.99	1660.90
377.20	1740.77
377.40	1626.09
377.61	1806.31
377.82	1693.67
378.03	1777.64
378.24	1757.16
378.45	1734.63
378.66	1712.10
378.87	1619.94
379.08	1648.61
379.29	1718.25
379.50	1824.74
379.71	1701.86
379.91	1716.20
380.12	1759.21
380.33	1691.62
380.54	1708.01
380.75	1728.49
380.96	1691.62
381.17	1769.44
381.38	1753.06
381.59	1744.87
381.80	1753.06
382.00	1871.84
382.21	1837.03
382.42	1888.23
382.63	1892.32
382.84	1751.01
383.05	1771.49
383.26	1849.32
383.47	1730.53
383.68	1781.73
383.88	1740.77
384.09	1703.91
384.30	1841.12
384.51	1722.34
384.72	1732.58
384.93	1632.23
385.14	1742.82
385.35	1753.06
385.55	1660.90
385.76	1763.30
385.97	1742.82
386.18	1626.09
386.39	1748.97
386.60	1701.86
386.81	1687.53
387.02	1736.68
387.22	1648.61
387.43	1794.02
387.64	1740.77
387.85	1906.66
388.06	2240.48
388.27	4673.46
388.48	9058.17
388.68	11724.62
388.89	13393.72
389.10	14243.62
389.31	11824.97
389.52	9531.25
389.73	8509.31
389.93	7907.21
390.14	7221.14
390.35	6547.36
390.56	6002.60
390.77	5064.63
390.98	3852.23
391.18	3002.32
391.39	2312.16
391.60	1886.18
391.81	1857.51
392.02	1800.16
392.23	1855.46
392.43	1685.48
392.64	1830.88
392.85	1765.35
393.06	1798.12
393.27	1679.33
393.47	1669.09
393.68	1755.11
393.89	1687.53
394.10	1695.72
394.31	1679.33
394.52	1675.24
394.72	1675.24
394.93	1802.21
395.14	1679.33
395.35	1767.40
395.56	1621.99
395.76	1689.57
395.97	1814.50
396.18	1910.75
396.39	1853.41
396.60	2047.97
396.80	2033.63
397.01	1806.31
397.22	1845.22
397.43	1892.32
397.64	1734.63
397.84	1869.80
398.05	1873.89
398.26	1826.79
398.47	1804.26
398.67	1757.16
398.88	1716.20
399.09	1765.35
399.30	1677.29
399.51	1748.97
399.71	1660.90
399.92	1675.24
400.13	1720.29
400.34	1703.91
400.54	1755.11
400.75	1812.45
400.96	1775.59
401.17	1779.68
401.37	1761.25
401.58	1716.20
401.79	1703.91
402.00	1847.27
402.21	2019.30
402.41	2072.54
402.62	2125.79
402.83	2080.74
403.04	2068.45
403.24	2158.56
403.45	1902.56
403.66	1910.75
403.87	2000.87
404.07	1927.14
404.28	1959.91
404.49	1933.28
404.70	1759.21
404.90	1841.12
405.11	1763.30
405.32	1761.25
405.52	1642.47
405.73	1681.38
405.94	1681.38
406.15	1714.15
406.35	1787.88
406.56	1765.35
406.77	1611.75
406.98	1765.35
407.18	1689.57
407.39	1775.59
407.60	1669.09
407.80	1765.35
408.01	1667.05
408.22	1787.88
408.43	1720.29
408.63	1728.49
408.84	1744.87
409.05	1791.97
409.25	1630.18
409.46	1744.87
409.67	1638.38
409.88	1689.57
410.08	1718.25
410.29	1669.09
410.50	1812.45
410.70	1724.39
410.91	1601.51
411.12	1804.26
411.32	1771.49
411.53	1677.29
411.74	1828.84
411.95	1738.73
412.15	1775.59
412.36	1800.16
412.57	1810.40
412.77	1837.03
412.98	1687.53
413.19	1705.96
413.39	1810.40
413.60	1718.25
413.81	1775.59
414.01	1771.49
414.22	1767.40
414.43	1755.11
414.63	1660.90
414.84	1746.92
415.05	1697.77
415.25	1650.66
415.46	1812.45
415.67	1705.96
415.87	1759.21
416.08	1785.83
416.29	1732.58
416.49	1744.87
416.70	1777.64
416.91	1724.39
417.11	1624.04
417.32	1742.82
417.53	1773.54
417.73	1787.88
417.94	1710.05
418.15	1791.97
418.35	1726.44
418.56	1685.48
418.77	1841.12
418.97	1691.62
419.18	1665.00
419.38	1621.99
419.59	1697.77
419.80	1794.02
420.00	1624.04
420.21	1671.14
420.42	1703.91
420.62	1632.23
420.83	1751.01
421.04	1681.38
421.24	1695.72
421.45	1732.58
421.65	1693.67
421.86	1679.33
422.07	1763.30
422.27	1748.97
422.48	1710.05
422.69	1701.86
422.89	1769.44
423.10	1777.64
423.30	1599.46
423.51	1675.24
423.72	1708.01
423.92	1689.57
424.13	1583.08
424.33	1652.71
424.54	1783.78
424.75	1740.77
424.95	1810.40
425.16	1767.40
425.36	1746.92
425.57	1757.16
425.78	1746.92
425.98	1771.49
426.19	1638.38
426.39	1689.57
426.60	1642.47
426.81	1779.68
427.01	1665.00
427.22	1671.14
427.42	1609.70
427.63	1683.43
427.83	1777.64
428.04	1841.12
428.25	1738.73
428.45	1775.59
428.66	1804.26
428.86	1740.77
429.07	1660.90
429.28	1644.52
429.48	1636.33
429.69	1765.35
429.89	1761.25
430.10	1703.91
430.30	1685.48
430.51	1863.65
430.71	1687.53
430.92	1771.49
431.13	1673.19
431.33	1712.10
431.54	1714.15
431.74	1816.55
431.95	1845.22
432.15	1630.18
432.36	1755.11
432.56	1798.12
432.77	1804.26
432.98	1828.84
433.18	1722.34
433.39	1728.49
433.59	1720.29
433.80	1765.35
434.00	1834.98
434.21	1693.67
434.41	1701.86
434.62	1814.50
434.82	1697.77
435.03	1640.42
435.23	1736.68
435.44	1667.05
435.64	1734.63
435.85	1753.06
436.06	1746.92
436.26	1775.59
436.47	1689.57
436.67	1701.86
436.88	1708.01
437.08	1837.03
437.29	1769.44
437.49	1689.57
437.70	1791.97
437.90	1767.40
438.11	1816.55
438.31	1759.21
438.52	1820.64
438.72	1961.95
438.93	1937.38
439.13	1806.31
439.34	1808.36
439.54	1777.64
439.75	1843.17
439.95	1824.74
440.16	1687.53
440.36	1779.68
440.57	1779.68
440.77	1794.02
440.98	1763.30
441.18	1746.92
441.39	1693.67
441.59	1697.77
441.80	1828.84
442.00	1728.49
442.21	1779.68
442.41	1640.42
442.62	1734.63
442.82	1693.67
443.02	1751.01
443.23	1751.01
443.43	1753.06
443.64	1896.42
443.84	1652.71
444.05	1798.12
444.25	1701.86
444.46	1742.82
444.66	1796.07
444.87	1783.78
445.07	1621.99
445.28	1777.64
445.48	1800.16
445.69	1781.73
445.89	1914.85
446.09	1798.12
446.30	2004.96
446.50	2625.50
446.71	4081.60
446.91	5081.01
447.12	5771.18
447.32	6076.32
447.53	5339.05
447.73	4509.63
447.93	4093.89
448.14	3665.86
448.34	3440.59
448.55	3061.71
448.75	3110.86
448.96	2934.74
449.16	2664.41
449.36	2398.17
449.57	2117.60
449.77	1912.80
449.98	1814.50
450.18	1791.97
450.39	1845.22
450.59	1781.73
450.79	1751.01
451.00	1744.87
451.20	1806.31
451.41	1742.82
451.61	1740.77
451.81	1761.25
452.02	1654.76
452.22	1705.96
452.43	1697.77
452.63	1669.09
452.84	1746.92
453.04	1681.38
453.24	1722.34
453.45	1699.81
453.65	1789.92
453.86	1798.12
454.06	1730.53
454.26	1734.63
454.47	1667.05
454.67	1763.30
454.87	1654.76
455.08	1673.19
455.28	1806.31
455.49	1738.73
455.69	1716.20
455.89	1826.79
456.10	1785.83
456.30	1638.38
456.51	1781.73
456.71	1740.77
456.91	1794.02
457.12	1732.58
457.32	1759.21
457.52	1779.68
457.73	1738.73
457.93	1812.45
458.14	1763.30
458.34	1683.43
458.54	1585.13
458.75	1710.05
458.95	1761.25
459.15	1755.11
459.36	1769.44
459.56	1769.44
459.76	1861.60
459.97	1728.49
460.17	1779.68
460.37	1742.82
460.58	1683.43
460.78	1826.79
460.99	1689.57
461.19	1769.44
461.39	1779.68
461.60	1724.39
461.80	1699.81
462.00	1656.81
462.21	1701.86
462.41	1687.53
462.61	1722.34
462.82	1570.79
463.02	1753.06
463.22	1755.11
463.43	1779.68
463.63	1763.30
463.83	1755.11
464.04	1791.97
464.24	1771.49
464.44	1691.62
464.64	1714.15
464.85	1714.15
465.05	1697.77
465.25	1738.73
465.46	1671.14
465.66	1785.83
465.86	1767.40
466.07	1742.82
466.27	1695.72
466.47	1671.14
466.68	1660.90
466.88	1853.41
467.08	1689.57
467.29	1834.98
467.49	1769.44
467.69	1689.57
467.89	1820.64
468.10	1710.05
468.30	1724.39
468.50	1834.98
468.71	1808.36
468.91	1556.46
469.11	1751.01
469.31	1751.01
469.52	1771.49
469.72	1853.41
469.92	1851.36
470.13	1691.62
470.33	1828.84
470.53	1759.21
470.73	2185.18
470.94	2533.34
471.14	2699.22
471.34	2942.93
471.54	2936.79
471.75	2609.11
471.95	2275.29
472.15	2234.33
472.36	2197.47
472.56	2191.33
472.76	2117.60
472.96	2074.59
473.17	2115.55
473.37	2004.96
473.57	1798.12
473.77	1871.84
473.98	1710.05
474.18	1669.09
474.38	1884.13
474.58	1656.81
474.79	1626.09
474.99	1677.29
475.19	1779.68
475.39	1673.19
475.60	1730.53
475.80	1703.91
476.00	1679.33
476.20	1691.62
476.41	1757.16
476.61	1796.07
476.81	1773.54
477.01	1714.15
477.21	1808.36
477.42	1785.83
477.62	1638.38
477.82	1736.68
478.02	1724.39
478.23	1714.15
478.43	1611.75
478.63	1689.57
478.83	1679.33
479.03	1744.87
479.24	1814.50
479.44	1826.79
479.64	1687.53
479.84	1656.81
480.04	1617.90
480.25	1736.68
480.45	1669.09
480.65	1701.86
480.85	1855.46
481.06	1611.75
481.26	1710.05
481.46	1738.73
481.66	1765.35
481.86	1624.04
482.06	1791.97
482.27	1671.14
482.47	1798.12
482.67	1634.28
482.87	1652.71
483.07	1763.30
483.28	1775.59
483.48	1685.48
483.68	1697.77
483.88	1724.39
484.08	1595.37
484.29	1665.00
484.49	1726.44
484.69	1587.18
484.89	1810.40
485.09	1748.97
485.29	1753.06
485.50	1761.25
485.70	1724.39
485.90	1734.63
486.10	1695.72
486.30	1814.50
486.50	1808.36
486.71	1759.21
486.91	1658.85
487.11	1773.54
487.31	1638.38
487.51	1746.92
487.71	1630.18
487.91	1755.11
488.12	1667.05
488.32	1583.08
488.52	1648.61
488.72	1642.47
488.92	1687.53
489.12	1810.40
489.32	1853.41
489.53	1746.92
489.73	1652.71
489.93	1765.35
490.13	1712.10
490.33	1677.29
490.53	1734.63
490.73	1857.51
490.94	1730.53
491.14	1753.06
491.34	1808.36
491.54	2103.26
491.74	2891.73
491.94	3157.97
492.14	3444.68
492.34	3538.89
492.54	3221.45
492.75	2643.93
492.95	2607.06
493.15	2455.51
493.35	2453.47
493.55	2324.44
493.75	2287.58
493.95	2244.57
494.15	2109.41
494.35	2011.11
494.56	1894.37
494.76	1796.07
494.96	1777.64
495.16	1800.16
495.36	1710.05
495.56	1718.25
495.76	1697.77
495.96	1687.53
496.16	1677.29
496.36	1697.77
496.56	1697.77
496.77	1773.54
496.97	1650.66
497.17	1703.91
497.37	1673.19
497.57	1746.92
497.77	1775.59
497.97	1763.30
498.17	1634.28
498.37	1675.24
498.57	1748.97
498.77	1689.57
498.97	1759.21
499.17	1824.74
499.38	1714.15
499.58	1804.26
499.78	1796.07
499.98	1773.54
500.18	1687.53
500.38	1705.96
500.58	1845.22
500.78	2467.80
500.98	4601.79
501.18	6719.39
501.38	8236.93
501.58	9045.88
501.78	8822.65
501.98	6860.70
502.18	5877.67
502.38	5064.63
502.58	4454.33
502.78	4073.41
502.98	3946.44
503.18	3796.93
503.38	3504.07
503.59	3176.40
503.79	2936.79
503.99	2635.74
504.19	2357.21
504.39	2375.64
504.59	2332.64
504.79	2308.06
504.99	2314.20
505.19	2031.58
505.39	1990.63
505.59	2000.87
505.79	1957.86
505.99	1865.70
506.19	1763.30
506.39	1892.32
506.59	1775.59
506.79	1769.44
506.99	1849.32
507.19	1767.40
507.39	1808.36
507.59	1648.61
507.79	1697.77
507.99	1636.33
508.19	1691.62
508.39	1669.09
508.59	1763.30
508.79	1849.32
508.99	1853.41
509.19	1673.19
509.39	1705.96
509.59	1728.49
509.79	1718.25
509.99	1765.35
510.19	1779.68
510.39	1830.88
510.59	1722.34
510.79	1697.77
510.99	1744.87
511.19	1748.97
511.39	1771.49
511.59	1800.16
511.79	1785.83
511.99	1794.02
512.19	1806.31
512.38	1796.07
512.58	1728.49
512.78	1751.01
512.98	1810.40
513.18	1826.79
513.38	1632.23
513.58	1800.16
513.78	1675.24
513.98	1685.48
514.18	1710.05
514.38	1685.48
514.58	1677.29
514.78	1681.38
514.98	1701.86
515.18	1761.25
515.38	1689.57
515.58	1830.88
515.78	1742.82
515.98	1726.44
516.18	1775.59
516.38	1708.01
516.57	1679.33
516.77	1738.73
516.97	1751.01
517.17	1728.49
517.37	1652.71
517.57	1759.21
517.77	1724.39
517.97	1685.48
518.17	1742.82
518.37	1669.09
518.57	1697.77
518.77	1769.44
518.97	1726.44
519.16	1834.98
519.36	1804.26
519.56	1751.01
519.76	1748.97
519.96	1701.86
520.16	1843.17
520.36	1703.91
520.56	1798.12
520.76	1701.86
520.96	1671.14
521.16	1804.26
521.35	1796.07
521.55	1791.97
521.75	1767.40
521.95	1636.33
522.15	1669.09
522.35	1624.04
522.55	1742.82
522.75	1781.73
522.95	1671.14
523.14	1654.76
523.34	1720.29
523.54	1724.39
523.74	1791.97
523.94	1826.79
524.14	1656.81
524.34	1785.83
524.54	1806.31
524.73	1619.94
524.93	1816.55
525.13	1761.25
525.33	1669.09
525.53	2007.01
525.73	1742.82
525.93	1775.59
526.13	1662.95
526.32	1710.05
526.52	1898.47
526.72	1730.53
526.92	1658.85
527.12	1671.14
527.32	1728.49
527.52	1751.01
527.71	1771.49
527.91	1736.68
528.11	1767.40
528.31	1755.11
528.51	1724.39
528.71	1671.14
528.90	1734.63
529.10	1804.26
529.30	1794.02
529.50	1669.09
529.70	1689.57
529.90	1767.40
530.09	1716.20
530.29	1546.22
530.49	1628.14
530.69	1871.84
530.89	1726.44
531.09	1751.01
531.28	1744.87
531.48	1806.31
531.68	1689.57
531.88	1742.82
532.08	1769.44
532.28	1736.68
532.47	1853.41
532.67	1789.92
532.87	1732.58
533.07	1703.91
533.27	1802.21
533.46	1785.83
533.66	1789.92
533.86	1794.02
534.06	1748.97
534.26	1732.58
534.45	1705.96
534.65	1742.82
534.85	1708.01
535.05	1716.20
535.25	1796.07
535.44	1660.90
535.64	1789.92
535.84	1699.81
536.04	1644.52
536.24	1748.97
536.43	1740.77
536.63	1726.44
536.83	1742.82
537.03	1734.63
537.22	1630.18
537.42	1585.13
537.62	1710.05
537.82	1671.14
538.02	1744.87
538.21	1777.64
538.41	1904.61
538.61	1708.01
538.81	1761.25
539.00	1857.51
539.20	1673.19
539.40	1718.25
539.60	1775.59
539.79	1765.35
539.99	1765.35
540.19	1699.81
540.39	1695.72
540.58	1753.06
540.78	1740.77
540.98	1710.05
541.18	1794.02
541.37	1779.68
541.57	1687.53
541.77	1746.92
541.97	1755.11
542.16	1681.38
542.36	1730.53
542.56	1683.43
542.76	1789.92
542.95	1697.77
543.15	1796.07
543.35	1822.69
543.54	1726.44
543.74	1689.57
543.94	1798.12
544.14	1714.15
544.33	1812.45
544.53	1732.58
544.73	1759.21
544.93	1701.86
545.12	1628.14
545.32	1671.14
545.52	1728.49
545.71	1609.70
545.91	1767.40
546.11	1685.48
546.30	1669.09
546.50	1757.16
546.70	1847.27
546.90	1769.44
547.09	1660.90
547.29	1712.10
547.49	1673.19
547.68	1681.38
547.88	1685.48
548.08	1730.53
548.27	2242.53
548.47	1744.87
548.67	1703.91
548.87	1781.73
549.06	1705.96
549.26	1783.78
549.46	1722.34
549.65	1751.01
549.85	1732.58
550.05	1777.64
550.24	1613.80
550.44	1738.73
550.64	1718.25
550.83	1683.43
551.03	1826.79
551.23	1841.12
551.42	1779.68
551.62	1742.82
551.82	1826.79
552.01	1759.21
552.21	1851.36
552.41	1732.58
552.60	1808.36
552.80	1785.83
553.00	1720.29
553.19	1765.35
553.39	1830.88
553.59	1742.82
553.78	1708.01
553.98	1662.95
554.17	1699.81
554.37	1746.92
554.57	1775.59
554.76	1699.81
554.96	1693.67
555.16	1744.87
555.35	1802.21
555.55	1740.77
555.75	1691.62
555.94	1800.16
556.14	1693.67
556.33	1726.44
556.53	1667.05
556.73	1759.21
556.92	1796.07
557.12	1787.88
557.32	1865.70
557.51	1816.55
557.71	1800.16
557.90	1849.32
558.10	1800.16
558.30	1771.49
558.49	1648.61
558.69	1728.49
558.88	1761.25
559.08	1765.35
559.28	1701.86
559.47	1796.07
559.67	1746.92
559.86	1841.12
560.06	1783.78
560.26	1763.30
560.45	1728.49
560.65	1693.67
560.84	1798.12
561.04	1720.29
561.24	1789.92
561.43	1693.67
561.63	1806.31
561.82	1771.49
562.02	1757.16
562.22	1761.25
562.41	1656.81
562.61	1746.92
562.80	1712.10
563.00	1847.27
563.19	1732.58
563.39	1785.83
563.59	1748.97
563.78	1615.85
563.98	1609.70
564.17	1708.01
564.37	1654.76
564.56	1781.73
564.76	1660.90
564.96	1834.98
565.15	1767.40
565.35	1904.61
565.54	1730.53
565.74	1814.50
565.93	1759.21
566.13	1712.10
566.32	1808.36
566.52	1775.59
566.71	1701.86
566.91	1820.64
567.11	1679.33
567.30	1675.24
567.50	1800.16
567.69	1781.73
567.89	1796.07
568.08	1673.19
568.28	1697.77
568.47	1673.19
568.67	1777.64
568.86	1742.82
569.06	1832.93
569.25	1753.06
569.45	1708.01
569.64	1759.21
569.84	1701.86
570.04	1771.49
570.23	1619.94
570.43	1701.86
570.62	1746.92
570.82	1873.89
571.01	1689.57
571.21	1748.97
571.40	1693.67
571.60	1787.88
571.79	1742.82
571.99	1785.83
572.18	1628.14
572.38	1728.49
572.57	1708.01
572.77	1716.20
572.96	1935.33
573.16	1771.49
573.35	1759.21
573.55	1904.61
573.74	1796.07
573.94	1718.25
574.13	1693.67
574.33	1779.68
574.52	1898.47
574.71	1742.82
574.91	1720.29
575.10	1699.81
575.30	1796.07
575.49	1656.81
575.69	1716.20
575.88	1703.91
576.08	1777.64
576.27	1849.32
576.47	1730.53
576.66	1865.70
576.86	1851.36
577.05	1843.17
577.25	1849.32
577.44	1935.33
577.64	1746.92
577.83	1806.31
578.02	1728.49
578.22	1859.56
578.41	1888.23
578.61	1812.45
578.80	1687.53
579.00	1800.16
579.19	1712.10
579.39	1699.81
579.58	1736.68
579.77	1830.88
579.97	1884.13
580.16	1834.98
580.36	1773.54
580.55	1824.74
580.75	1769.44
580.94	1779.68
581.13	1787.88
581.33	1839.08
581.52	1742.82
581.72	1996.77
581.91	1931.23
582.11	1804.26
582.30	1837.03
582.49	1880.04
582.69	1837.03
582.88	1908.71
583.08	1779.68
583.27	1904.61
583.47	1705.96
583.66	1802.21
583.85	1744.87
584.05	1775.59
584.24	1857.51
584.44	1798.12
584.63	1875.94
584.82	1859.56
585.02	1896.42
585.21	1898.47
585.41	1855.46
585.60	1980.39
585.79	2047.97
585.99	2041.82
586.18	1951.71
586.37	2185.18
586.57	3272.65
586.76	9588.59
586.96	27160.16
587.15	42071.42
587.34	51576.04
587.54	57889.93
587.73	55581.87
587.93	40162.72
588.12	29621.82
588.31	23326.36
588.51	20401.86
588.70	18218.73
588.89	16897.79
589.09	15365.91
589.28	13750.06
589.47	11392.85
589.67	9394.03
589.86	7307.15
590.06	5593.00
590.25	4171.71
590.44	3139.54
590.64	2609.11
590.83	2308.06
591.02	2136.03
591.22	1984.48
591.41	1935.33
591.60	1791.97
591.80	1966.05
591.99	1720.29
592.18	1759.21
592.38	1804.26
592.57	1744.87
592.76	1834.98
592.96	1757.16
593.15	1789.92
593.34	1824.74
593.54	1705.96
593.73	1837.03
593.92	1769.44
594.12	1816.55
594.31	1783.78
594.50	1783.78
594.70	1794.02
594.89	1892.32
595.08	1705.96
595.28	1771.49
595.47	1937.38
595.66	1816.55
595.86	1677.29
596.05	1771.49
596.24	1736.68
596.43	1910.75
596.63	1828.84
596.82	1779.68
597.01	1828.84
597.21	1914.85
597.40	1781.73
597.59	1818.60
597.79	1714.15
597.98	1853.41
598.17	1814.50
598.36	1718.25
598.56	1734.63
598.75	1751.01
598.94	1775.59
599.14	1744.87
599.33	1679.33
599.52	1765.35
599.71	1775.59
599.91	1830.88
600.10	1759.21
600.29	1783.78
600.48	1748.97
600.68	1738.73
600.87	1722.34
601.06	1697.77
601.26	1769.44
601.45	1650.66
601.64	1697.77
601.83	1820.64
602.03	1675.24
602.22	1720.29
602.41	1755.11
602.60	1818.60
602.80	1837.03
602.99	1755.11
603.18	1691.62
603.37	1759.21
603.57	1820.64
603.76	1877.99
603.95	1830.88
604.14	1644.52
604.34	1726.44
604.53	1683.43
604.72	1681.38
604.91	1794.02
605.10	1755.11
605.30	1732.58
605.49	1849.32
605.68	1796.07
605.87	1712.10
606.07	1691.62
606.26	1710.05
606.45	1738.73
606.64	1740.77
606.84	1757.16
607.03	1726.44
607.22	1783.78
607.41	1724.39
607.60	1685.48
607.80	1822.69
607.99	1744.87
608.18	1808.36
608.37	1775.59
608.56	1703.91
608.76	1822.69
608.95	1873.89
609.14	1871.84
609.33	1865.70
609.52	2000.87
609.72	1894.37
609.91	1867.75
610.10	1781.73
610.29	1843.17
610.48	1759.21
610.68	1755.11
610.87	1728.49
611.06	1812.45
611.25	1697.77
611.44	1794.02
611.63	1730.53
611.83	1748.97
612.02	1644.52
612.21	1822.69
612.40	1615.85
612.59	1533.93
612.79	1638.38
612.98	1724.39
613.17	1751.01
613.36	1775.59
613.55	1875.94
613.74	1691.62
613.93	1808.36
614.13	1918.95
614.32	2064.35
614.51	1861.60
614.70	1814.50
614.89	1845.22
615.08	1900.52
615.28	2150.37
615.47	1748.97
615.66	1910.75
615.85	1759.21
616.04	2017.25
616.23	1775.59
616.42	1845.22
616.62	1837.03
616.81	1761.25
617.00	1812.45
617.19	1738.73
617.38	1689.57
617.57	1730.53
617.76	1759.21
617.95	1765.35
618.15	1761.25
618.34	1765.35
618.53	1667.05
618.72	1720.29
618.91	1802.21
619.10	1931.23
619.29	1789.92
619.48	1695.72
619.68	1763.30
619.87	1753.06
620.06	1566.70
620.25	1751.01
620.44	1644.52
620.63	1755.11
620.82	1744.87
621.01	1673.19
621.20	1791.97
621.39	1726.44
621.59	1828.84
621.78	1748.97
621.97	1796.07
622.16	1712.10
622.35	1742.82
622.54	1830.88
622.73	1802.21
622.92	1619.94
623.11	1800.16
623.30	1681.38
623.49	1826.79
623.68	1697.77
623.88	1822.69
624.07	1689.57
624.26	1722.34
624.45	1769.44
624.64	1656.81
624.83	1714.15
625.02	1642.47
625.21	1691.62
625.40	1781.73
625.59	1775.59
625.78	1759.21
625.97	1804.26
626.16	1794.02
626.35	1873.89
626.54	1841.12
626.74	1890.28
626.93	1736.68
627.12	1689.57
627.31	1808.36
627.50	1714.15
627.69	1771.49
627.88	1693.67
628.07	1789.92
628.26	1640.42
628.45	1656.81
628.64	1732.58
628.83	1720.29
629.02	1724.39
629.21	1808.36
629.40	1673.19
629.59	1724.39
629.78	1730.53
629.97	1794.02
630.16	1691.62
630.35	1724.39
630.54	1732.58
630.73	1767.40
630.92	1759.21
631.11	1710.05
631.30	1720.29
631.49	1828.84
631.68	1730.53
631.87	1728.49
632.06	1695.72
632.25	1841.12
632.44	1785.83
632.63	1757.16
632.82	1812.45
633.01	1755.11
633.20	1751.01
633.39	1806.31
633.58	1751.01
633.77	1779.68
633.96	1845.22
634.15	1787.88
634.34	1798.12
634.53	1779.68
634.72	1705.96
634.91	1693.67
635.10	1796.07
635.29	1769.44
635.48	1779.68
635.67	1734.63
635.86	1679.33
636.05	1800.16
636.24	1632.23
636.43	1669.09
636.62	1689.57
636.81	1529.83
637.00	1767.40
637.19	1771.49
637.38	1746.92
637.57	1703.91
637.76	1765.35
637.95	1865.70
638.14	1791.97
638.33	1828.84
638.52	1818.60
638.71	1705.96
638.89	1744.87
639.08	1857.51
639.27	1765.35
639.46	1972.19
639.65	2125.79
639.84	2205.66
640.03	2314.20
640.22	2244.57
640.41	2346.97
640.60	2058.21
640.79	2076.64
640.98	1959.91
641.17	1947.62
641.36	1947.62
641.55	1966.05
641.74	1830.88
641.92	1708.01
642.11	1734.63
642.30	1736.68
642.49	1798.12
642.68	1742.82
642.87	1841.12
643.06	1820.64
643.25	1724.39
643.44	1691.62
643.63	1607.66
643.82	1746.92
644.00	1693.67
644.19	1742.82
644.38	1677.29
644.57	1755.11
644.76	1722.34
644.95	1714.15
645.14	1689.57
645.33	1685.48
645.52	1699.81
645.71	1669.09
645.89	1601.51
646.08	1646.57
646.27	1671.14
646.46	1853.41
646.65	1660.90
646.84	1771.49
647.03	1697.77
647.22	1753.06
647.40	1724.39
647.59	1619.94
647.78	1662.95
647.97	1607.66
648.16	1658.85
648.35	1800.16
648.54	1787.88
648.73	1654.76
648.91	1722.34
649.10	1783.78
649.29	1730.53
649.48	1701.86
649.67	1708.01
649.86	1671.14
650.05	1775.59
650.23	1904.61
650.42	1824.74
650.61	1972.19
650.80	1923.04
650.99	1951.71
651.18	1875.94
651.36	1841.12
651.55	1738.73
651.74	1728.49
651.93	1820.64
652.12	1773.54
652.31	1726.44
652.49	1667.05
652.68	1636.33
652.87	1931.23
653.06	1722.34
653.25	1857.51
653.44	1681.38
653.62	1861.60
653.81	1695.72
654.00	1687.53
654.19	1753.06
654.38	1865.70
654.56	1761.25
654.75	1697.77
654.94	1841.12
655.13	1650.66
655.32	1724.39
655.51	1787.88
655.69	1667.05
655.88	1796.07
656.07	1660.90
656.26	1724.39
656.45	1646.57
656.63	1640.42
656.82	1742.82
657.01	1781.73
657.20	1640.42
657.38	1787.88
657.57	1691.62
657.76	1665.00
657.95	1847.27
658.14	1642.47
658.32	1759.21
658.51	1652.71
658.70	1714.15
658.89	1710.05
659.08	1673.19
659.26	1794.02
659.45	1808.36
659.64	1849.32
659.83	1779.68
660.01	1972.19
660.20	1761.25
660.39	1789.92
660.58	1642.47
660.76	1757.16
660.95	1671.14
661.14	1740.77
661.33	1591.27
661.51	1746.92
661.70	1683.43
661.89	1765.35
662.08	1724.39
662.26	1601.51
662.45	1642.47
662.64	1841.12
662.83	1746.92
663.01	1662.95
663.20	1695.72
663.39	1816.55
663.58	1691.62
663.76	1746.92
663.95	1783.78
664.14	1673.19
664.32	1705.96
664.51	1665.00
664.70	1519.59
664.89	1685.48
665.07	1603.56
665.26	1740.77
665.45	1671.14
665.64	1732.58
665.82	1769.44
666.01	1775.59
666.20	1755.11
666.38	1798.12
666.57	1826.79
666.76	2250.72
666.95	4511.68
667.13	11482.96
667.32	18462.44
667.51	22050.48
667.69	24974.98
667.88	25210.50
668.07	19697.36
668.25	14036.78
668.44	11704.14
668.63	9838.44
668.81	8718.20
669.00	7849.86
669.19	6979.48
669.38	6002.60
669.56	5269.42
669.75	4503.48
669.94	3651.53
670.12	3233.74
670.31	2666.46
670.50	2367.45
670.68	2146.27
670.87	1992.67
671.06	1822.69
671.24	1882.08
671.43	1918.95
671.62	1789.92
671.80	1712.10
671.99	1787.88
672.18	1746.92
672.36	1808.36
672.55	1785.83
672.74	1722.34
672.92	1634.28
673.11	1736.68
673.29	1703.91
673.48	1724.39
673.67	1675.24
673.85	1810.40
674.04	1660.90
674.23	1746.92
674.41	1894.37
674.60	1632.23
674.79	1601.51
674.97	1679.33
675.16	1751.01
675.34	1763.30
675.53	1642.47
675.72	1777.64
675.90	1777.64
676.09	1632.23
676.28	1691.62
676.46	1595.37
676.65	1785.83
676.83	1708.01
677.02	1697.77
677.21	1763.30
677.39	1724.39
677.58	1617.90
677.77	1763.30
677.95	1716.20
678.14	1755.11
678.32	1693.67
678.51	1613.80
678.70	1791.97
678.88	1759.21
679.07	1765.35
679.25	1720.29
679.44	1652.71
679.63	1638.38
679.81	1722.34
680.00	1734.63
680.18	1787.88
680.37	1783.78
680.55	1708.01
680.74	1691.62
680.93	1615.85
681.11	1785.83
681.30	1673.19
681.48	1710.05
681.67	1703.91
681.85	1718.25
682.04	1697.77
682.23	1705.96
682.41	1708.01
682.60	1683.43
682.78	1751.01
682.97	1697.77
683.15	1710.05
683.34	1736.68
683.53	1806.31
683.71	1558.50
683.90	1839.08
684.08	1785.83
684.27	1621.99
684.45	1746.92
684.64	1775.59
684.82	1687.53
685.01	1675.24
685.19	1697.77
685.38	1806.31
685.57	1652.71
685.75	1712.10
685.94	1714.15
686.12	1720.29
686.31	1755.11
686.49	1871.84
686.68	1589.22
686.86	1839.08
687.05	1720.29
687.23	1763.30
687.42	1677.29
687.60	1714.15
687.79	1912.80
687.97	1812.45
688.16	1808.36
688.34	1783.78
688.53	1595.37
688.71	1738.73
688.90	1830.88
689.08	1687.53
689.27	1687.53
689.45	1808.36
689.64	1693.67
689.82	1681.38
690.01	1703.91
690.19	1785.83
690.38	1673.19
690.56	1828.84
690.75	1662.95
690.93	1658.85
691.12	1681.38
691.30	1748.97
691.49	1705.96
691.67	1726.44
691.86	1820.64
692.04	1648.61
692.23	1705.96
692.41	1759.21
692.60	1966.05
692.78	1785.83
692.97	1746.92
693.15	1789.92
693.34	1906.66
693.52	1718.25
693.71	1738.73
693.89	1718.25
694.08	1619.94
694.26	1777.64
694.44	1767.40
694.63	1652.71
694.81	1589.22
695.00	1705.96
695.18	1808.36
695.37	1853.41
695.55	1701.86
695.74	1701.86
695.92	1626.09
696.10	1767.40
696.29	1681.38
696.47	1708.01
696.66	1640.42
696.84	1708.01
697.03	1650.66
697.21	1918.95
697.40	2326.49
697.58	1812.45
697.76	1634.28
697.95	1644.52
698.13	1677.29
698.32	1658.85
698.50	1742.82
698.68	1683.43
698.87	1738.73
699.05	1834.98
699.24	1771.49
699.42	1710.05
699.61	1763.30
699.79	1708.01
699.97	1691.62
700.16	1667.05
700.34	1640.42
700.53	1685.48
700.71	1841.12
700.89	1771.49
701.08	1677.29
701.26	1714.15
701.45	2101.22
701.63	1757.16
701.81	1720.29
702.00	1671.14
702.18	1708.01
702.37	1722.34
702.55	1771.49
702.73	1828.84
702.92	1771.49
703.10	1968.10
703.28	1945.57
703.47	1834.98
703.65	1925.09
703.84	1853.41
704.02	1714.15
704.20	1845.22
704.39	1765.35
704.57	1751.01
704.75	1841.12
704.94	1773.54
705.12	1789.92
705.30	1902.56
705.49	2490.33
705.67	5558.19
705.86	13217.59
706.04	19070.68
706.22	22519.46
706.41	25093.76
706.59	24561.29
706.77	18900.70
706.96	13668.14
707.14	11616.08
707.32	9951.08
707.51	8966.01
707.69	7806.86
707.87	6768.54
708.06	5451.69
708.24	4349.89
708.42	3284.94
708.61	2758.61
708.79	2187.23
708.97	2068.45
709.16	1990.63
709.34	1841.12
709.52	1796.07
709.71	1783.78
709.89	1781.73
710.07	1779.68
710.26	1681.38
710.44	1738.73
710.62	1806.31
710.80	1669.09
710.99	1820.64
711.17	1748.97
711.35	1687.53
711.54	1611.75
711.72	1794.02
711.90	1751.01
712.09	1794.02
712.27	1697.77
712.45	1847.27
712.63	1718.25
712.82	1736.68
713.00	1673.19
713.18	1781.73
713.37	1757.16
713.55	1785.83
713.73	1742.82
713.91	1773.54
714.10	1722.34
714.28	1753.06
714.46	1736.68
714.65	1783.78
714.83	1748.97
715.01	1701.86
715.19	1703.91
715.38	1681.38
715.56	1779.68
715.74	1693.67
715.92	1683.43
716.11	1812.45
716.29	1615.85
716.47	1738.73
716.65	1683.43
716.84	1660.90
717.02	1779.68
717.20	1638.38
717.38	1705.96
717.57	1785.83
717.75	1693.67
717.93	1759.21
718.11	1722.34
718.30	1640.42
718.48	1742.82
718.66	1708.01
718.84	1755.11
719.03	1677.29
719.21	1669.09
719.39	1816.55
719.57	1781.73
719.75	1814.50
719.94	1603.56
720.12	1648.61
720.30	1742.82
720.48	1734.63
720.67	1744.87
720.85	1587.18
721.03	1642.47
721.21	1710.05
721.39	1814.50
721.58	1665.00
721.76	1679.33
721.94	1681.38
722.12	1726.44
722.30	1791.97
722.49	1699.81
722.67	1710.05
722.85	1701.86
723.03	1609.70
723.21	1722.34
723.40	1771.49
723.58	1783.78
723.76	1767.40
723.94	1789.92
724.12	1761.25
724.30	1820.64
724.49	1812.45
724.67	1665.00
724.85	1929.19
725.03	1675.24
725.21	1830.88
725.40	1802.21
725.58	1624.04
725.76	1851.36
725.94	1726.44
726.12	1705.96
726.30	1615.85
726.49	1701.86
726.67	1671.14
726.85	1703.91
727.03	1824.74
727.21	2220.00
727.39	3295.18
727.57	4816.82
727.76	5687.21
727.94	6127.52
728.12	6227.87
728.30	5636.01
728.48	4399.04
728.66	3901.38
728.84	3487.69
729.03	3184.59
729.21	2840.53
729.39	2400.22
729.57	2136.03
729.75	1877.99
729.93	1847.27
730.11	1796.07
730.30	1687.53
730.48	1798.12
730.66	1794.02
730.84	1759.21
731.02	1738.73
731.20	1744.87
731.38	1693.67
731.56	1628.14
731.74	1626.09
731.93	1720.29
732.11	1722.34
732.29	1763.30
732.47	1720.29
732.65	1740.77
732.83	1757.16
733.01	1761.25
733.19	1619.94
733.37	1751.01
733.56	1771.49
733.74	1648.61
733.92	1757.16
734.10	1654.76
734.28	1724.39
734.46	1603.56
734.64	1677.29
734.82	1681.38
735.00	1669.09
735.18	1681.38
735.36	1744.87
735.54	1642.47
735.73	1708.01
735.91	1701.86
736.09	1703.91
736.27	1642.47
736.45	1734.63
736.63	1724.39
736.81	1718.25
736.99	1773.54
737.17	1798.12
737.35	1703.91
737.53	1710.05
737.71	1730.53
737.89	1787.88
738.07	1581.03
738.25	1634.28
738.43	1677.29
738.61	1617.90
738.80	1673.19
738.98	1646.57
739.16	1689.57
739.34	1689.57
739.52	1757.16
739.70	1710.05
739.88	1746.92
740.06	1722.34
740.24	1589.22
740.42	1722.34
740.60	1660.90
740.78	1613.80
740.96	1644.52
741.14	1646.57
741.32	1699.81
741.50	1619.94
741.68	1859.56
741.86	1826.79
742.04	1695.72
742.22	1669.09
742.40	1765.35
742.58	1728.49
742.76	1693.67
742.94	1767.40
743.12	1646.57
743.30	1708.01
743.48	1742.82
743.66	1767.40
743.84	1734.63
744.02	1705.96
744.20	1759.21
744.38	1691.62
744.56	1722.34
744.74	1859.56
744.92	1724.39
745.10	1763.30
745.28	1832.93
745.46	1828.84
745.64	1681.38
745.82	1742.82
746.00	1724.39
746.18	1660.90
746.36	1640.42
746.54	1687.53
746.72	1667.05
746.90	1673.19
747.08	1759.21
747.26	1652.71
747.44	1761.25
747.62	1781.73
747.80	1718.25
747.98	1689.57
748.15	1785.83
748.33	1841.12
748.51	1703.91
748.69	1730.53
748.87	1705.96
749.05	1660.90
749.23	1787.88
749.41	1726.44
749.59	1714.15
749.77	1886.18
749.95	1718.25
750.13	1619.94
750.31	1724.39
750.49	1656.81
750.67	1777.64
750.85	1810.40
751.03	1679.33
751.20	1822.69
751.38	1755.11
751.56	1689.57
751.74	1773.54
751.92	1730.53
752.10	1675.24
752.28	1736.68
752.46	1718.25
752.64	1699.81
752.82	1701.86
753.00	1800.16
753.18	1703.91
753.35	1691.62
753.53	1619.94
753.71	1708.01
753.89	1705.96
754.07	1697.77
754.25	1738.73
754.43	1732.58
754.61	1681.38
754.79	1755.11
754.97	1640.42
755.14	1777.64
755.32	1660.90
755.50	1646.57
755.68	1697.77
755.86	1675.24
756.04	1603.56
756.22	1603.56
756.40	1804.26
756.57	1806.31
756.75	1671.14
756.93	1783.78
757.11	1665.00
757.29	1708.01
757.47	1648.61
757.65	1617.90
757.82	1640.42
758.00	1675.24
758.18	1667.05
758.36	1640.42
758.54	1804.26
758.72	1671.14
758.90	1769.44
759.07	1751.01
759.25	1665.00
759.43	1738.73
759.61	1652.71
759.79	2220.00
759.97	1753.06
760.15	1728.49
760.32	1757.16
760.50	1689.57
760.68	1859.56
760.86	1626.09
761.04	1763.30
761.22	1775.59
761.39	1736.68
761.57	1673.19
761.75	1726.44
761.93	1818.60
762.11	1681.38
762.28	1736.68
762.46	1710.05
762.64	1798.12
762.82	1605.61
763.00	1671.14
763.18	1841.12
763.35	1681.38
763.53	1732.58
763.71	1656.81
763.89	1726.44
764.07	1794.02
764.24	1683.43
764.42	1683.43
764.60	1660.90
764.78	1628.14
764.96	1816.55
765.13	1769.44
765.31	1722.34
765.49	1708.01
765.67	1656.81
765.84	1740.77
766.02	1732.58
766.20	1644.52
766.38	1738.73
766.56	1751.01
766.73	1779.68
766.91	1763.30
767.09	1722.34
767.27	1728.49
767.44	1632.23
767.62	1759.21
767.80	1689.57
767.98	1652.71
768.15	1648.61
768.33	1775.59
768.51	1687.53
768.69	1773.54
768.87	1730.53
769.04	1820.64
769.22	1845.22
769.40	1781.73
769.58	1943.52
769.75	1681.38
769.93	1765.35
770.11	1710.05
770.28	1603.56
770.46	1716.20
770.64	1787.88
770.82	1695.72
770.99	1640.42
771.17	1724.39
771.35	1783.78
771.53	1748.97
771.70	1671.14
771.88	1755.11
772.06	1724.39
772.23	1716.20
772.41	1699.81
772.59	1720.29
772.77	1724.39
772.94	1675.24
773.12	1757.16
773.30	1570.79
773.47	1732.58
773.65	1685.48
773.83	1755.11
774.01	1767.40
774.18	1578.98
774.36	1710.05
774.54	1615.85
774.71	1673.19
774.89	1601.51
775.07	1619.94
775.24	1642.47
775.42	1642.47
775.60	1771.49
775.78	1648.61
775.95	1638.38
776.13	1679.33
776.31	1624.04
776.48	1662.95
776.66	1742.82
776.84	1632.23
777.01	1675.24
777.19	1630.18
777.37	1705.96
777.54	1685.48
777.72	1732.58
777.90	1673.19
778.07	1624.04
778.25	1843.17
778.43	1730.53
778.60	1660.90
778.78	1763.30
778.96	1814.50
779.13	1656.81
779.31	1789.92
779.49	1650.66
779.66	1703.91
779.84	1738.73
780.01	1697.77
780.19	1710.05
780.37	1757.16
780.54	1726.44
780.72	1636.33
780.90	1751.01
781.07	1695.72
781.25	1638.38
781.43	1806.31
781.60	1675.24
781.78	1779.68
781.95	1708.01
782.13	1681.38
782.31	1665.00
782.48	1595.37
782.66	1667.05
782.83	1744.87
783.01	1738.73
783.19	1751.01
783.36	1722.34
783.54	1603.56
783.72	1808.36
783.89	1716.20
784.07	1728.49
784.24	1794.02
784.42	1822.69
784.60	1724.39
784.77	1689.57
784.95	1630.18
785.12	1658.85
785.30	1687.53
785.47	1677.29
785.65	1619.94
785.83	1703.91
786.00	1677.29
786.18	1728.49
786.35	1660.90
786.53	1535.98
786.71	1773.54
786.88	1722.34
787.06	1695.72
787.23	1689.57
787.41	1576.94
787.58	1714.15
787.76	1726.44
787.94	1658.85
788.11	1656.81
788.29	1703.91
788.46	1634.28
788.64	1566.70
788.81	1683.43
788.99	1689.57
789.16	1695.72
789.34	1726.44
789.52	1662.95
789.69	1677.29
789.87	1617.90
790.04	1728.49
790.22	1683.43
790.39	1767.40
790.57	1566.70
790.74	1630.18
790.92	1644.52
791.09	1644.52
791.27	1689.57
791.44	1755.11
791.62	1699.81
791.79	1718.25
791.97	1714.15
792.15	1888.23
792.32	1769.44
792.50	1753.06
792.67	1744.87
792.85	1787.88
793.02	1722.34
793.20	1656.81
793.37	1654.76
793.55	1673.19
793.72	1636.33
793.90	1816.55
794.07	1726.44
794.25	1669.09
794.42	1767.40
794.60	1656.81
794.77	1796.07
794.95	1783.78
795.12	1716.20
795.30	1708.01
795.47	1568.74
795.65	1853.41
795.82	1767.40
796.00	1650.66
796.17	1796.07
796.34	1673.19
796.52	1683.43
796.69	1726.44
796.87	1773.54
797.04	1708.01
797.22	1751.01
797.39	1757.16
797.57	1757.16
797.74	1789.92
797.92	1662.95
798.09	1665.00
798.27	1771.49
798.44	1662.95
798.62	1695.72
798.79	1734.63
798.96	1722.34
799.14	1701.86
799.31	1882.08
799.49	1734.63
799.66	1648.61
799.84	1767.40
800.01	1630.18
800.19	1677.29
800.36	1607.66
800.53	1681.38
800.71	1738.73
800.88	1865.70
801.06	1636.33
801.23	1648.61
801.41	1746.92
801.58	1646.57
801.75	1732.58
801.93	1742.82
802.10	1779.68
802.28	1718.25
802.45	1646.57
802.63	1720.29
802.80	1834.98
802.97	1665.00
803.15	1691.62
803.32	1787.88
803.50	1613.80
803.67	1675.24
803.84	1660.90
804.02	1697.77
804.19	1654.76
804.37	1609.70
804.54	1705.96
804.71	1697.77
804.89	1736.68
805.06	1697.77
805.24	1638.38
805.41	1624.04
805.58	1652.71
805.76	1810.40
805.93	1722.34
806.10	1779.68
806.28	1757.16
806.45	1724.39
806.63	1689.57
806.80	1783.78
806.97	1738.73
807.15	1757.16
807.32	1730.53
807.49	1744.87
807.67	1652.71
807.84	1773.54
808.01	1603.56
808.19	1818.60
808.36	1906.66
808.54	1691.62
808.71	1689.57
808.88	1775.59
809.06	1724.39
809.23	1748.97
809.40	1685.48
809.58	1789.92
809.75	1662.95
809.92	1658.85
810.10	1859.56
810.27	1718.25
810.44	1665.00
810.62	1732.58
810.79	1722.34
810.96	1628.14
811.14	1703.91
811.31	1738.73
811.48	1800.16
811.66	1671.14
811.83	1824.74
812.00	1658.85
812.18	1726.44
812.35	1787.88
812.52	1720.29
812.69	1658.85
812.87	1630.18
813.04	1705.96
813.21	1636.33
813.39	1675.24
813.56	1587.18
813.73	1708.01
813.91	1673.19
814.08	1650.66
814.25	1710.05
814.42	1665.00
814.60	1691.62
814.77	1769.44
814.94	1753.06
815.12	1697.77
815.29	1701.86
815.46	1593.32
815.63	1695.72
815.81	1773.54
815.98	1630.18
816.15	1673.19
816.33	1648.61
816.50	1677.29
816.67	1652.71
816.84	1648.61
817.02	1630.18
817.19	1675.24
817.36	1761.25
817.53	1781.73
817.71	1624.04
817.88	1740.77
818.05	1712.10
818.22	1787.88
818.40	1789.92
818.57	1703.91
818.74	1742.82
818.91	1675.24
819.09	1656.81
819.26	1703.91
819.43	1634.28
819.60	1636.33
819.78	1662.95
819.95	1755.11
820.12	1675.24
820.29	1812.45
820.47	1736.68
820.64	1691.62
820.81	1644.52
820.98	1667.05
821.15	1646.57
821.33	1691.62
821.50	1619.94
821.67	1691.62
821.84	1665.00
822.02	1785.83
822.19	1798.12
822.36	1615.85
822.53	1746.92
822.70	1652.71
822.88	1646.57
823.05	1765.35
823.22	1681.38
823.39	1775.59
823.56	1685.48
823.74	1779.68
823.91	1636.33
824.08	1615.85
824.25	1634.28
824.42	1800.16
824.60	1624.04
824.77	1732.58
824.94	1726.44
825.11	1789.92
825.28	1576.94
825.45	1744.87
825.63	1769.44
825.80	1722.34
825.97	1683.43
826.14	1779.68
826.31	1687.53
826.48	1710.05
826.66	1705.96
826.83	1722.34
827.00	1751.01
827.17	1603.56
827.34	1689.57
827.51	1675.24
827.69	1695.72
827.86	1613.80
828.03	1751.01
828.20	1773.54
828.37	1656.81
828.54	1685.48
828.71	1671.14
828.89	1816.55
829.06	1693.67
829.23	1755.11
829.40	1599.46
829.57	1628.14
829.74	1695.72
829.91	1689.57
830.09	1677.29
830.26	1804.26
830.43	1832.93
830.60	1691.62
830.77	1730.53
830.94	1759.21
831.11	1847.27
831.28	1679.33
831.46	1796.07
831.63	1675.24
831.80	1804.26
831.97	1681.38
832.14	1742.82
832.31	1761.25
832.48	1773.54
832.65	1791.97
832.82	1695.72
832.99	1771.49
833.17	1673.19
833.34	1769.44
833.51	1712.10
833.68	1589.22
833.85	1755.11
834.02	1593.32
834.19	1611.75
834.36	1660.90
834.53	1806.31
834.70	1751.01
834.87	1898.47
835.04	1671.14
835.22	1746.92
835.39	1755.11
835.56	1640.42
835.73	1662.95
835.90	1712.10
836.07	1689.57
836.24	1689.57
836.41	1646.57
836.58	1687.53
836.75	1746.92
836.92	1785.83
837.09	1652.71
837.26	1675.24
837.43	1748.97
837.60	1773.54
837.77	1634.28
837.94	1759.21
838.12	1777.64
838.29	1697.77
838.46	1562.60
838.63	1644.52
838.80	1830.88
838.97	1787.88
839.14	1679.33
839.31	1744.87
839.48	1714.15
839.65	1654.76
839.82	1710.05
839.99	1681.38
840.16	1652.71
840.33	1712.10
840.50	1781.73
840.67	1656.81
840.84	1607.66
841.01	1626.09
841.18	1683.43
841.35	1642.47
841.52	1716.20
841.69	1855.46
841.86	1695.72
842.03	1648.61
842.20	1746.92
842.37	1714.15
842.54	1695.72
842.71	1718.25
842.88	1646.57
843.05	1722.34
843.22	1660.90
843.39	1771.49
843.56	1648.61
843.73	1734.63
843.90	1740.77
844.07	1671.14
844.24	1710.05
844.41	1724.39
844.58	1730.53
844.75	1667.05
844.92	1779.68
845.09	1683.43
845.26	1671.14
845.43	1683.43
845.60	1660.90
845.77	1736.68
845.94	1763.30
846.10	1699.81
846.27	1634.28
846.44	1683.43
846.61	1652.71
846.78	1804.26
846.95	1787.88
847.12	1689.57
847.29	1675.24
847.46	1652.71
847.63	1710.05
847.80	1675.24
847.97	1681.38
848.14	1824.74
848.31	1665.00
848.48	1650.66
848.65	1722.34
848.82	1646.57
848.98	1820.64
849.15	1787.88
849.32	1777.64
849.49	1828.84
849.66	1720.29
849.83	1701.86
850.00	1722.34
850.17	1769.44
850.34	1763.30
850.51	1662.95
850.68	1681.38
850.85	1769.44
851.01	1654.76
851.18	1822.69
851.35	1705.96
851.52	1736.68
851.69	1769.44
851.86	1566.70
852.03	1687.53
852.20	1701.86
852.37	1755.11
852.53	1642.47
852.70	1724.39
852.87	1742.82
853.04	1724.39
853.21	1677.29
853.38	1777.64
853.55	1812.45
853.72	1705.96
853.89	1687.53
854.05	1589.22
854.22	1660.90
854.39	1675.24
854.56	1755.11
854.73	1804.26
854.90	1701.86
855.07	1681.38
855.23	1722.34
855.40	1722.34
855.57	1734.63
855.74	1587.18
855.91	1882.08
856.08	1646.57
856.25	1601.51
856.41	1611.75
856.58	1648.61
856.75	1804.26
856.92	1671.14
857.09	1767.40
857.26	1626.09
857.42	1656.81
857.59	1683.43
857.76	1701.86
857.93	1734.63
858.10	1679.33
858.27	1595.37
858.43	1697.77
858.60	1673.19
858.77	1691.62
858.94	1677.29
859.11	1738.73
859.27	1718.25
859.44	1728.49
859.61	1867.75
859.78	1783.78
859.95	1660.90
860.12	1720.29
860.28	1759.21
860.45	1763.30
860.62	1697.77
860.79	1705.96
860.95	1736.68
861.12	1619.94
861.29	1660.90
861.46	1634.28
861.63	1681.38
861.79	1714.15
861.96	1619.94
862.13	1660.90
862.30	1791.97
862.47	1656.81
862.63	1685.48
862.80	1775.59
862.97	1687.53
863.14	1703.91
863.30	1724.39
863.47	1736.68
863.64	1798.12
863.81	1783.78
863.97	1691.62
864.14	1773.54
864.31	1703.91
864.48	1773.54
864.65	1679.33
864.81	1730.53
864.98	1710.05
865.15	1761.25
865.32	1785.83
865.48	1759.21
865.65	1796.07
865.82	1767.40
865.98	1796.07
866.15	1755.11
866.32	1654.76
866.49	1699.81
866.65	1794.02
866.82	1632.23
866.99	1761.25
867.16	1720.29
867.32	1767.40
867.49	1738.73
867.66	1691.62
867.83	1705.96
867.99	1605.61
868.16	1660.90
868.33	1648.61
868.49	1718.25
868.66	1665.00
868.83	1791.97
868.99	1800.16
869.16	1652.71
869.33	1761.25
869.50	1808.36
869.66	1744.87
869.83	1685.48
870.00	1540.07
870.16	1767.40
870.33	1689.57
870.50	1708.01
870.66	1724.39
870.83	1796.07
871.00	1681.38
871.17	1693.67
871.33	1714.15
871.50	1701.86
871.67	1654.76
871.83	1558.50
872.00	1732.58
872.17	1646.57
872.33	1767.40
872.50	1689.57
872.67	1638.38
872.83	1648.61
873.00	1681.38
873.17	1716.20
873.33	1730.53
873.50	1761.25
873.67	1679.33
873.83	1652.71
874.00	1673.19
874.16	1726.44
874.33	1718.25
874.50	1685.48
874.66	1716.20
874.83	1648.61
875.00	1767.40
875.16	1767.40
875.33	1740.77
875.50	1550.31
875.66	1626.09
875.83	1665.00
875.99	1724.39
876.16	1693.67
876.33	1697.77
876.49	1699.81
876.66	1753.06
876.83	1740.77
876.99	1599.46
877.16	1621.99
877.32	1697.77
877.49	1673.19
877.66	1701.86
877.82	1777.64
877.99	1734.63
878.15	1740.77
878.32	1720.29
878.49	1730.53
878.65	1695.72
878.82	1865.70
878.98	1665.00
879.15	1765.35
879.32	1787.88
879.48	1710.05
879.65	1667.05
879.81	1691.62
879.98	1701.86
880.15	1673.19
880.31	1757.16
880.48	1619.94
880.64	1701.86
880.81	1699.81
880.97	1789.92
881.14	1853.41
881.31	1646.57
881.47	1783.78
881.64	1695.72
881.80	1597.42
881.97	1669.09
882.13	1746.92
882.30	1677.29
882.47	1656.81
882.63	1691.62
882.80	1693.67
882.96	1642.47
883.13	1769.44
883.29	1730.53
883.46	1748.97
883.62	1796.07
883.79	1679.33
883.95	1767.40
884.12	1624.04
884.29	1796.07
884.45	1808.36
884.62	1699.81
884.78	1662.95
884.95	1771.49
885.11	1578.98
885.28	1748.97
885.44	1742.82
885.61	1748.97
885.77	1767.40
885.94	1794.02
886.10	1681.38
886.27	1708.01
886.43	1718.25
886.60	1783.78
886.76	1714.15
886.93	1630.18
887.09	1742.82
887.26	1601.51
887.42	1724.39
887.59	1669.09
887.75	1880.04
887.92	1779.68
888.08	1812.45
888.25	1841.12
888.41	1718.25
888.58	1685.48
888.74	1695.72
888.91	1718.25
>>>>>End Processed Spectral Data<<<<<
