SpectraSuite Data File
++++++++++++++++++++++++++++++++++++
Date: Wed May 04 18:43:59 CEST 2016
User: root
Dark Spectrum Present: No
Reference Spectrum Present: No
Number of Sampled Component Spectra: 1
Spectrometers: USB4C02835
Integration Time (usec): 100000 (USB4C02835)
Spectra Averaged: 1 (USB4C02835)
Boxcar Smoothing: 0 (USB4C02835)
Correct for Electrical Dark: No (USB4C02835)
Strobe/Lamp Enabled: No (USB4C02835)
Correct for Detector Non-linearity: No (USB4C02835)
Correct for Stray Light: No (USB4C02835)
Number of Pixels in Processed Spectrum: 3648
>>>>>Begin Processed Spectral Data<<<<<
177.47	1501.16
177.69	1501.16
177.91	1501.16
178.13	1482.73
178.36	1404.91
178.58	1652.71
178.80	1726.44
179.02	1607.66
179.24	1667.05
179.46	1646.57
179.68	1705.96
179.90	1695.72
180.13	1675.24
180.35	1763.30
180.57	1705.96
180.79	1718.25
181.01	1789.92
181.23	1726.44
181.45	1839.08
181.67	1660.90
181.90	1759.21
182.12	1656.81
182.34	1716.20
182.56	1714.15
182.78	1708.01
183.00	1761.25
183.22	1658.85
183.44	1603.56
183.66	1791.97
183.89	1789.92
184.11	1693.67
184.33	1742.82
184.55	1820.64
184.77	1705.96
184.99	1722.34
185.21	1683.43
185.43	1861.60
185.65	1607.66
185.87	1665.00
186.10	1794.02
186.32	1834.98
186.54	1751.01
186.76	1693.67
186.98	1802.21
187.20	1708.01
187.42	1705.96
187.64	1671.14
187.86	1748.97
188.08	1748.97
188.30	1677.29
188.52	1703.91
188.75	1796.07
188.97	1806.31
189.19	1687.53
189.41	1689.57
189.63	1722.34
189.85	1703.91
190.07	1628.14
190.29	1587.18
190.51	1681.38
190.73	1648.61
190.95	1800.16
191.17	1712.10
191.39	1605.61
191.61	1722.34
191.84	1742.82
192.06	1710.05
192.28	1621.99
192.50	1890.28
192.72	1757.16
192.94	1685.48
193.16	1681.38
193.38	1738.73
193.60	1751.01
193.82	1673.19
194.04	1810.40
194.26	1691.62
194.48	1734.63
194.70	1665.00
194.92	1632.23
195.14	1779.68
195.36	1638.38
195.58	1677.29
195.80	1660.90
196.02	1662.95
196.24	1652.71
196.46	1779.68
196.69	1681.38
196.91	1843.17
197.13	1587.18
197.35	1587.18
197.57	1822.69
197.79	1806.31
198.01	1714.15
198.23	1798.12
198.45	1675.24
198.67	1669.09
198.89	1644.52
199.11	1714.15
199.33	1722.34
199.55	1576.94
199.77	1730.53
199.99	1777.64
200.21	1771.49
200.43	1675.24
200.65	1675.24
200.87	1589.22
201.09	1609.70
201.31	1703.91
201.53	1738.73
201.75	1730.53
201.97	1660.90
202.19	1669.09
202.41	1748.97
202.63	1810.40
202.85	1746.92
203.07	1714.15
203.29	1669.09
203.51	1697.77
203.73	1730.53
203.95	1871.84
204.17	1730.53
204.39	1732.58
204.61	1685.48
204.83	1675.24
205.05	1720.29
205.27	1767.40
205.49	1783.78
205.71	1714.15
205.93	1648.61
206.15	1697.77
206.37	1648.61
206.59	1697.77
206.81	1671.14
207.03	1685.48
207.25	1591.27
207.47	1759.21
207.69	1732.58
207.91	1757.16
208.13	1775.59
208.34	1755.11
208.56	1667.05
208.78	1757.16
209.00	1767.40
209.22	1675.24
209.44	1730.53
209.66	1673.19
209.88	1693.67
210.10	1738.73
210.32	1687.53
210.54	1767.40
210.76	1708.01
210.98	1787.88
211.20	1587.18
211.42	1667.05
211.64	1773.54
211.86	1730.53
212.08	1808.36
212.30	1794.02
212.52	1701.86
212.74	1767.40
212.96	1687.53
213.17	1728.49
213.39	1710.05
213.61	1812.45
213.83	1820.64
214.05	1697.77
214.27	1810.40
214.49	1691.62
214.71	1662.95
214.93	1761.25
215.15	1708.01
215.37	1695.72
215.59	1644.52
215.81	1728.49
216.03	1738.73
216.24	1675.24
216.46	1755.11
216.68	1667.05
216.90	1708.01
217.12	1859.56
217.34	1654.76
217.56	1710.05
217.78	1810.40
218.00	1720.29
218.22	1740.77
218.44	1740.77
218.66	1716.20
218.87	1849.32
219.09	1769.44
219.31	1802.21
219.53	1804.26
219.75	1679.33
219.97	1714.15
220.19	1714.15
220.41	1738.73
220.63	1759.21
220.85	1761.25
221.06	1712.10
221.28	1755.11
221.50	1730.53
221.72	1730.53
221.94	1773.54
222.16	1642.47
222.38	1761.25
222.60	1730.53
222.82	1734.63
223.03	1763.30
223.25	1665.00
223.47	1734.63
223.69	1869.80
223.91	1751.01
224.13	1746.92
224.35	1640.42
224.57	1759.21
224.78	1763.30
225.00	1662.95
225.22	1673.19
225.44	1642.47
225.66	1771.49
225.88	1736.68
226.10	1763.30
226.32	1710.05
226.53	1773.54
226.75	1724.39
226.97	1767.40
227.19	1691.62
227.41	1640.42
227.63	1679.33
227.85	1589.22
228.06	1665.00
228.28	1773.54
228.50	1771.49
228.72	1665.00
228.94	1619.94
229.16	1644.52
229.37	1644.52
229.59	1634.28
229.81	1832.93
230.03	1662.95
230.25	1705.96
230.47	1611.75
230.69	1644.52
230.90	1691.62
231.12	1624.04
231.34	1736.68
231.56	1765.35
231.78	1669.09
232.00	1691.62
232.21	1681.38
232.43	1665.00
232.65	1613.80
232.87	1720.29
233.09	1689.57
233.30	1642.47
233.52	1763.30
233.74	1726.44
233.96	1687.53
234.18	1718.25
234.40	1679.33
234.61	1757.16
234.83	1667.05
235.05	1675.24
235.27	1937.38
235.49	1806.31
235.70	1765.35
235.92	1781.73
236.14	1769.44
236.36	1837.03
236.58	1636.33
236.79	1732.58
237.01	1675.24
237.23	1697.77
237.45	1736.68
237.67	1734.63
237.88	1701.86
238.10	1794.02
238.32	1621.99
238.54	1681.38
238.76	1720.29
238.97	1667.05
239.19	1669.09
239.41	1812.45
239.63	1783.78
239.85	1642.47
240.06	1683.43
240.28	1740.77
240.50	1738.73
240.72	1740.77
240.93	1718.25
241.15	1787.88
241.37	1755.11
241.59	1839.08
241.81	1646.57
242.02	1634.28
242.24	1775.59
242.46	1796.07
242.68	1640.42
242.89	1742.82
243.11	1802.21
243.33	1767.40
243.55	1648.61
243.76	1728.49
243.98	1632.23
244.20	1660.90
244.42	1771.49
244.64	1710.05
244.85	1646.57
245.07	1613.80
245.29	1738.73
245.51	1757.16
245.72	1652.71
245.94	1757.16
246.16	1667.05
246.38	1773.54
246.59	1671.14
246.81	1634.28
247.03	1740.77
247.24	1628.14
247.46	1669.09
247.68	1685.48
247.90	1703.91
248.11	1624.04
248.33	1710.05
248.55	1681.38
248.77	1654.76
248.98	1677.29
249.20	1761.25
249.42	1722.34
249.64	1728.49
249.85	1699.81
250.07	1730.53
250.29	1763.30
250.50	1738.73
250.72	1658.85
250.94	1736.68
251.16	1802.21
251.37	1816.55
251.59	1677.29
251.81	1701.86
252.02	1789.92
252.24	1714.15
252.46	1771.49
252.68	1605.61
252.89	1628.14
253.11	1601.51
253.33	1765.35
253.54	1746.92
253.76	1681.38
253.98	1654.76
254.20	1687.53
254.41	1638.38
254.63	1673.19
254.85	1671.14
255.06	1740.77
255.28	1624.04
255.50	1665.00
255.71	1665.00
255.93	1628.14
256.15	1681.38
256.36	1695.72
256.58	1650.66
256.80	1712.10
257.02	1738.73
257.23	1689.57
257.45	1708.01
257.67	1763.30
257.88	1703.91
258.10	1728.49
258.32	1630.18
258.53	1708.01
258.75	1798.12
258.97	1714.15
259.18	1708.01
259.40	1718.25
259.62	1800.16
259.83	1808.36
260.05	1708.01
260.27	2000.87
260.48	1806.31
260.70	1628.14
260.92	1703.91
261.13	1697.77
261.35	1705.96
261.57	1763.30
261.78	1613.80
262.00	1695.72
262.22	1738.73
262.43	1650.66
262.65	1693.67
262.86	1689.57
263.08	1906.66
263.30	1689.57
263.51	1566.70
263.73	1619.94
263.95	1818.60
264.16	1673.19
264.38	1677.29
264.60	1751.01
264.81	1724.39
265.03	1783.78
265.25	1744.87
265.46	1646.57
265.68	1753.06
265.89	1685.48
266.11	1576.94
266.33	1769.44
266.54	1744.87
266.76	1738.73
266.98	1738.73
267.19	1779.68
267.41	1730.53
267.62	1671.14
267.84	1583.08
268.06	1714.15
268.27	1671.14
268.49	1810.40
268.70	1796.07
268.92	1660.90
269.14	1607.66
269.35	1681.38
269.57	1705.96
269.79	1689.57
270.00	1681.38
270.22	1816.55
270.43	1755.11
270.65	1597.42
270.87	1710.05
271.08	1761.25
271.30	1822.69
271.51	1740.77
271.73	1724.39
271.95	1839.08
272.16	1722.34
272.38	1744.87
272.59	1646.57
272.81	1773.54
273.02	1701.86
273.24	1724.39
273.46	1755.11
273.67	1652.71
273.89	1703.91
274.10	1615.85
274.32	1740.77
274.54	1703.91
274.75	1695.72
274.97	1632.23
275.18	1722.34
275.40	1669.09
275.61	1712.10
275.83	1746.92
276.05	1658.85
276.26	1699.81
276.48	1779.68
276.69	1652.71
276.91	1732.58
277.12	1837.03
277.34	1675.24
277.55	1767.40
277.77	1716.20
277.99	1644.52
278.20	1705.96
278.42	1632.23
278.63	1644.52
278.85	1806.31
279.06	1595.37
279.28	1703.91
279.49	1814.50
279.71	1830.88
279.93	1673.19
280.14	1681.38
280.36	1697.77
280.57	1759.21
280.79	1751.01
281.00	1644.52
281.22	1683.43
281.43	1724.39
281.65	1630.18
281.86	1669.09
282.08	1755.11
282.29	1857.51
282.51	1751.01
282.73	1597.42
282.94	1636.33
283.16	1781.73
283.37	1767.40
283.59	1714.15
283.80	1732.58
284.02	1738.73
284.23	1703.91
284.45	1724.39
284.66	1638.38
284.88	1728.49
285.09	1808.36
285.31	1777.64
285.52	1787.88
285.74	1673.19
285.95	1720.29
286.17	1705.96
286.38	1779.68
286.60	1703.91
286.81	1597.42
287.03	1636.33
287.24	1681.38
287.46	1693.67
287.67	1708.01
287.89	1880.04
288.10	1689.57
288.32	1718.25
288.53	1781.73
288.75	1654.76
288.96	1732.58
289.18	1617.90
289.39	1753.06
289.61	1826.79
289.82	1789.92
290.04	1841.12
290.25	1724.39
290.47	1730.53
290.68	1691.62
290.90	1724.39
291.11	1595.37
291.33	1755.11
291.54	1644.52
291.76	1673.19
291.97	1654.76
292.18	1794.02
292.40	1658.85
292.61	1687.53
292.83	1775.59
293.04	1710.05
293.26	1701.86
293.47	1665.00
293.69	1632.23
293.90	1693.67
294.12	1742.82
294.33	1714.15
294.55	1619.94
294.76	1726.44
294.97	1796.07
295.19	1849.32
295.40	1757.16
295.62	1757.16
295.83	1767.40
296.05	1605.61
296.26	1753.06
296.48	1716.20
296.69	1757.16
296.90	1748.97
297.12	1722.34
297.33	1726.44
297.55	1679.33
297.76	1759.21
297.98	1751.01
298.19	1697.77
298.41	1742.82
298.62	1658.85
298.83	1746.92
299.05	1697.77
299.26	1695.72
299.48	1658.85
299.69	1718.25
299.90	1697.77
300.12	1671.14
300.33	1701.86
300.55	1683.43
300.76	1732.58
300.98	1615.85
301.19	1757.16
301.40	1638.38
301.62	1685.48
301.83	1744.87
302.05	1732.58
302.26	1697.77
302.47	1681.38
302.69	1673.19
302.90	1716.20
303.12	1662.95
303.33	1718.25
303.54	1816.55
303.76	1738.73
303.97	1748.97
304.19	1818.60
304.40	1660.90
304.61	1785.83
304.83	1865.70
305.04	1826.79
305.26	1734.63
305.47	1652.71
305.68	1724.39
305.90	1607.66
306.11	1714.15
306.33	1673.19
306.54	1589.22
306.75	1708.01
306.97	1628.14
307.18	1751.01
307.39	1710.05
307.61	1753.06
307.82	1677.29
308.04	1720.29
308.25	1701.86
308.46	1736.68
308.68	1701.86
308.89	1728.49
309.10	1785.83
309.32	1755.11
309.53	1703.91
309.74	1726.44
309.96	1667.05
310.17	1748.97
310.39	1693.67
310.60	1730.53
310.81	1685.48
311.03	1648.61
311.24	1722.34
311.45	1708.01
311.67	1832.93
311.88	1708.01
312.09	1654.76
312.31	1714.15
312.52	1720.29
312.73	1732.58
312.95	1660.90
313.16	1667.05
313.37	1746.92
313.59	1689.57
313.80	1759.21
314.01	1757.16
314.23	1740.77
314.44	1687.53
314.65	1699.81
314.87	1654.76
315.08	1716.20
315.29	1714.15
315.51	1648.61
315.72	1624.04
315.93	1759.21
316.15	1779.68
316.36	1673.19
316.57	1652.71
316.79	1769.44
317.00	1701.86
317.21	1658.85
317.43	1667.05
317.64	1812.45
317.85	1697.77
318.07	1697.77
318.28	1718.25
318.49	1886.18
318.70	2002.91
318.92	1935.33
319.13	1877.99
319.34	1902.56
319.56	1812.45
319.77	1834.98
319.98	1810.40
320.20	1847.27
320.41	1744.87
320.62	1740.77
320.83	1656.81
321.05	1908.71
321.26	1730.53
321.47	1669.09
321.69	1724.39
321.90	1630.18
322.11	1642.47
322.32	1775.59
322.54	1787.88
322.75	1740.77
322.96	1830.88
323.18	1646.57
323.39	1652.71
323.60	1701.86
323.81	1804.26
324.03	1714.15
324.24	1705.96
324.45	1736.68
324.66	1679.33
324.88	1722.34
325.09	1806.31
325.30	1708.01
325.52	1742.82
325.73	1789.92
325.94	1613.80
326.15	1636.33
326.37	1675.24
326.58	1765.35
326.79	1683.43
327.00	1621.99
327.22	1781.73
327.43	1640.42
327.64	1599.46
327.85	1794.02
328.07	1669.09
328.28	1845.22
328.49	1699.81
328.70	1634.28
328.92	1634.28
329.13	1716.20
329.34	1699.81
329.55	1779.68
329.76	1757.16
329.98	1685.48
330.19	1710.05
330.40	1763.30
330.61	1695.72
330.83	1679.33
331.04	1611.75
331.25	1654.76
331.46	1705.96
331.68	1636.33
331.89	1701.86
332.10	1599.46
332.31	1679.33
332.52	1667.05
332.74	1738.73
332.95	1648.61
333.16	1648.61
333.37	1746.92
333.58	1636.33
333.80	1681.38
334.01	1609.70
334.22	1650.66
334.43	1742.82
334.64	1771.49
334.86	1642.47
335.07	1652.71
335.28	1779.68
335.49	1601.51
335.70	1730.53
335.92	1810.40
336.13	1853.41
336.34	1748.97
336.55	1681.38
336.76	1669.09
336.98	1646.57
337.19	1648.61
337.40	1857.51
337.61	1867.75
337.82	1697.77
338.04	1808.36
338.25	1576.94
338.46	1777.64
338.67	1681.38
338.88	1714.15
339.09	1677.29
339.31	1701.86
339.52	1624.04
339.73	1634.28
339.94	1699.81
340.15	1769.44
340.36	1669.09
340.58	1636.33
340.79	1634.28
341.00	1730.53
341.21	1675.24
341.42	1773.54
341.63	1685.48
341.85	1751.01
342.06	1714.15
342.27	1636.33
342.48	1767.40
342.69	1638.38
342.90	1746.92
343.12	1701.86
343.33	1677.29
343.54	1828.84
343.75	1837.03
343.96	1753.06
344.17	1628.14
344.38	1642.47
344.60	1665.00
344.81	1634.28
345.02	1697.77
345.23	1777.64
345.44	1843.17
345.65	1818.60
345.86	1787.88
346.07	1734.63
346.29	1662.95
346.50	1714.15
346.71	1746.92
346.92	1687.53
347.13	1826.79
347.34	1675.24
347.55	1691.62
347.76	1703.91
347.98	1632.23
348.19	1744.87
348.40	1771.49
348.61	1693.67
348.82	1810.40
349.03	1665.00
349.24	1718.25
349.45	1746.92
349.66	1648.61
349.88	1687.53
350.09	1722.34
350.30	1755.11
350.51	1794.02
350.72	1693.67
350.93	1681.38
351.14	1677.29
351.35	1722.34
351.56	1736.68
351.77	1771.49
351.99	1734.63
352.20	1785.83
352.41	1783.78
352.62	1587.18
352.83	1701.86
353.04	1726.44
353.25	1673.19
353.46	1824.74
353.67	1787.88
353.88	1638.38
354.09	1716.20
354.30	1693.67
354.52	1812.45
354.73	1718.25
354.94	1681.38
355.15	1644.52
355.36	1892.32
355.57	1724.39
355.78	1691.62
355.99	1726.44
356.20	1722.34
356.41	1826.79
356.62	1697.77
356.83	1761.25
357.04	1759.21
357.25	1570.79
357.46	1751.01
357.68	1683.43
357.89	1738.73
358.10	1763.30
358.31	1736.68
358.52	1703.91
358.73	1652.71
358.94	1656.81
359.15	1603.56
359.36	1730.53
359.57	1705.96
359.78	1732.58
359.99	1755.11
360.20	1660.90
360.41	1658.85
360.62	1710.05
360.83	1730.53
361.04	1769.44
361.25	1804.26
361.46	1808.36
361.67	1763.30
361.88	1732.58
362.09	1732.58
362.30	1714.15
362.51	1673.19
362.72	1751.01
362.93	1771.49
363.14	1693.67
363.35	1724.39
363.56	1665.00
363.78	1765.35
363.99	1775.59
364.20	1705.96
364.41	1798.12
364.62	1773.54
364.83	1703.91
365.04	1693.67
365.25	1705.96
365.46	1912.80
365.67	1765.35
365.88	1658.85
366.09	1675.24
366.30	1685.48
366.51	1714.15
366.72	1677.29
366.93	1740.77
367.14	1759.21
367.35	1818.60
367.56	1757.16
367.77	1753.06
367.98	1642.47
368.18	1755.11
368.39	1714.15
368.60	1652.71
368.81	1767.40
369.02	1751.01
369.23	1646.57
369.44	1632.23
369.65	1669.09
369.86	1722.34
370.07	1734.63
370.28	1671.14
370.49	1710.05
370.70	1740.77
370.91	1628.14
371.12	1628.14
371.33	1794.02
371.54	1669.09
371.75	1744.87
371.96	1558.50
372.17	1697.77
372.38	1697.77
372.59	1742.82
372.80	1648.61
373.01	1730.53
373.22	1712.10
373.43	1728.49
373.64	1556.46
373.85	1781.73
374.06	1880.04
374.26	1681.38
374.47	1712.10
374.68	1818.60
374.89	1703.91
375.10	1794.02
375.31	1769.44
375.52	1755.11
375.73	1722.34
375.94	1687.53
376.15	1779.68
376.36	1607.66
376.57	1638.38
376.78	1621.99
376.99	1656.81
377.20	1748.97
377.40	1720.29
377.61	1802.21
377.82	1619.94
378.03	1796.07
378.24	1751.01
378.45	1720.29
378.66	1830.88
378.87	1603.56
379.08	1632.23
379.29	1642.47
379.50	1867.75
379.71	1689.57
379.91	1796.07
380.12	1794.02
380.33	1740.77
380.54	1701.86
380.75	1642.47
380.96	1671.14
381.17	1751.01
381.38	1710.05
381.59	1800.16
381.80	1728.49
382.00	1845.22
382.21	1767.40
382.42	1914.85
382.63	1955.81
382.84	1736.68
383.05	1794.02
383.26	1783.78
383.47	1767.40
383.68	1806.31
383.88	1769.44
384.09	1740.77
384.30	1830.88
384.51	1716.20
384.72	1656.81
384.93	1595.37
385.14	1701.86
385.35	1716.20
385.55	1599.46
385.76	1769.44
385.97	1798.12
386.18	1681.38
386.39	1669.09
386.60	1697.77
386.81	1697.77
387.02	1640.42
387.22	1638.38
387.43	1753.06
387.64	1849.32
387.85	1845.22
388.06	2185.18
388.27	4714.42
388.48	9088.89
388.68	11536.21
388.89	13588.27
389.10	13989.67
389.31	12160.84
389.52	9777.00
389.73	8554.37
389.93	7933.83
390.14	7174.03
390.35	6678.43
390.56	6023.08
390.77	4984.76
390.98	3950.53
391.18	2992.08
391.39	2478.04
391.60	1918.95
391.81	1898.47
392.02	1753.06
392.23	1927.14
392.43	1742.82
392.64	1802.21
392.85	1763.30
393.06	1798.12
393.27	1720.29
393.47	1648.61
393.68	1748.97
393.89	1728.49
394.10	1802.21
394.31	1703.91
394.52	1720.29
394.72	1683.43
394.93	1812.45
395.14	1624.04
395.35	1779.68
395.56	1720.29
395.76	1697.77
395.97	1867.75
396.18	1855.46
396.39	1857.51
396.60	2164.70
396.80	1947.62
397.01	1796.07
397.22	1859.56
397.43	1880.04
397.64	1755.11
397.84	1828.84
398.05	1902.56
398.26	1726.44
398.47	1791.97
398.67	1746.92
398.88	1751.01
399.09	1812.45
399.30	1677.29
399.51	1701.86
399.71	1677.29
399.92	1730.53
400.13	1771.49
400.34	1748.97
400.54	1746.92
400.75	1857.51
400.96	1763.30
401.17	1818.60
401.37	1748.97
401.58	1787.88
401.79	1775.59
402.00	1918.95
402.21	2121.70
402.41	2097.12
402.62	2148.32
402.83	2181.09
403.04	2045.92
403.24	2142.18
403.45	1959.91
403.66	1933.28
403.87	1966.05
404.07	1927.14
404.28	1968.10
404.49	1865.70
404.70	1808.36
404.90	1728.49
405.11	1769.44
405.32	1720.29
405.52	1673.19
405.73	1671.14
405.94	1689.57
406.15	1701.86
406.35	1701.86
406.56	1714.15
406.77	1712.10
406.98	1779.68
407.18	1662.95
407.39	1730.53
407.60	1734.63
407.80	1722.34
408.01	1710.05
408.22	1773.54
408.43	1669.09
408.63	1787.88
408.84	1748.97
409.05	1722.34
409.25	1615.85
409.46	1642.47
409.67	1695.72
409.88	1742.82
410.08	1685.48
410.29	1679.33
410.50	1773.54
410.70	1708.01
410.91	1613.80
411.12	1779.68
411.32	1736.68
411.53	1640.42
411.74	1812.45
411.95	1761.25
412.15	1751.01
412.36	1843.17
412.57	1779.68
412.77	1849.32
412.98	1742.82
413.19	1699.81
413.39	1736.68
413.60	1744.87
413.81	1818.60
414.01	1697.77
414.22	1699.81
414.43	1869.80
414.63	1746.92
414.84	1769.44
415.05	1689.57
415.25	1681.38
415.46	1755.11
415.67	1593.32
415.87	1697.77
416.08	1691.62
416.29	1730.53
416.49	1787.88
416.70	1693.67
416.91	1781.73
417.11	1679.33
417.32	1728.49
417.53	1753.06
417.73	1724.39
417.94	1708.01
418.15	1712.10
418.35	1677.29
418.56	1753.06
418.77	1839.08
418.97	1718.25
419.18	1669.09
419.38	1607.66
419.59	1624.04
419.80	1851.36
420.00	1669.09
420.21	1736.68
420.42	1736.68
420.62	1751.01
420.83	1656.81
421.04	1740.77
421.24	1681.38
421.45	1761.25
421.65	1697.77
421.86	1802.21
422.07	1685.48
422.27	1767.40
422.48	1718.25
422.69	1658.85
422.89	1697.77
423.10	1660.90
423.30	1660.90
423.51	1748.97
423.72	1734.63
423.92	1773.54
424.13	1603.56
424.33	1697.77
424.54	1746.92
424.75	1722.34
424.95	1791.97
425.16	1744.87
425.36	1689.57
425.57	1820.64
425.78	1642.47
425.98	1798.12
426.19	1624.04
426.39	1724.39
426.60	1718.25
426.81	1806.31
427.01	1767.40
427.22	1724.39
427.42	1644.52
427.63	1703.91
427.83	1767.40
428.04	1828.84
428.25	1837.03
428.45	1769.44
428.66	1720.29
428.86	1681.38
429.07	1724.39
429.28	1667.05
429.48	1794.02
429.69	1617.90
429.89	1720.29
430.10	1705.96
430.30	1724.39
430.51	1884.13
430.71	1576.94
430.92	1693.67
431.13	1669.09
431.33	1804.26
431.54	1687.53
431.74	1757.16
431.95	1796.07
432.15	1654.76
432.36	1708.01
432.56	1755.11
432.77	1875.94
432.98	1832.93
433.18	1654.76
433.39	1771.49
433.59	1802.21
433.80	1773.54
434.00	1873.89
434.21	1765.35
434.41	1677.29
434.62	1857.51
434.82	1665.00
435.03	1640.42
435.23	1759.21
435.44	1587.18
435.64	1783.78
435.85	1748.97
436.06	1701.86
436.26	1791.97
436.47	1720.29
436.67	1621.99
436.88	1738.73
437.08	1753.06
437.29	1796.07
437.49	1714.15
437.70	1804.26
437.90	1763.30
438.11	1785.83
438.31	1884.13
438.52	1898.47
438.72	1927.14
438.93	1855.46
439.13	1882.08
439.34	1908.71
439.54	1691.62
439.75	1828.84
439.95	1808.36
440.16	1751.01
440.36	1767.40
440.57	1767.40
440.77	1681.38
440.98	1687.53
441.18	1804.26
441.39	1703.91
441.59	1660.90
441.80	1791.97
442.00	1755.11
442.21	1744.87
442.41	1714.15
442.62	1722.34
442.82	1691.62
443.02	1773.54
443.23	1751.01
443.43	1693.67
443.64	1884.13
443.84	1765.35
444.05	1804.26
444.25	1730.53
444.46	1660.90
444.66	1761.25
444.87	1791.97
445.07	1621.99
445.28	1705.96
445.48	1771.49
445.69	1765.35
445.89	1912.80
446.09	1701.86
446.30	2025.44
446.50	2598.87
446.71	4237.25
446.91	4997.04
447.12	5719.98
447.32	5969.83
447.53	5318.57
447.73	4427.71
447.93	3856.33
448.14	3665.86
448.34	3553.23
448.55	3125.20
448.75	3098.58
448.96	2932.69
449.16	2594.78
449.36	2508.76
449.57	2125.79
449.77	2000.87
449.98	1800.16
450.18	1812.45
450.39	1892.32
450.59	1732.58
450.79	1746.92
451.00	1699.81
451.20	1791.97
451.41	1783.78
451.61	1759.21
451.81	1775.59
452.02	1687.53
452.22	1714.15
452.43	1708.01
452.63	1693.67
452.84	1775.59
453.04	1685.48
453.24	1730.53
453.45	1720.29
453.65	1691.62
453.86	1787.88
454.06	1748.97
454.26	1761.25
454.47	1689.57
454.67	1861.60
454.87	1730.53
455.08	1730.53
455.28	1794.02
455.49	1781.73
455.69	1648.61
455.89	1796.07
456.10	1775.59
456.30	1734.63
456.51	1755.11
456.71	1722.34
456.91	1789.92
457.12	1773.54
457.32	1789.92
457.52	1728.49
457.73	1828.84
457.93	1839.08
458.14	1683.43
458.34	1615.85
458.54	1775.59
458.75	1720.29
458.95	1828.84
459.15	1781.73
459.36	1695.72
459.56	1765.35
459.76	1845.22
459.97	1781.73
460.17	1720.29
460.37	1837.03
460.58	1779.68
460.78	1748.97
460.99	1732.58
461.19	1697.77
461.39	1675.24
461.60	1673.19
461.80	1734.63
462.00	1720.29
462.21	1613.80
462.41	1671.14
462.61	1689.57
462.82	1699.81
463.02	1732.58
463.22	1667.05
463.43	1812.45
463.63	1765.35
463.83	1765.35
464.04	1732.58
464.24	1720.29
464.44	1658.85
464.64	1724.39
464.85	1808.36
465.05	1759.21
465.25	1761.25
465.46	1701.86
465.66	1748.97
465.86	1697.77
466.07	1718.25
466.27	1613.80
466.47	1677.29
466.68	1632.23
466.88	1796.07
467.08	1722.34
467.29	1804.26
467.49	1837.03
467.69	1701.86
467.89	1779.68
468.10	1726.44
468.30	1736.68
468.50	1824.74
468.71	1810.40
468.91	1665.00
469.11	1818.60
469.31	1695.72
469.52	1732.58
469.72	1884.13
469.92	1888.23
470.13	1738.73
470.33	1720.29
470.53	1826.79
470.73	2162.66
470.94	2521.05
471.14	2727.89
471.34	3000.27
471.54	2910.16
471.75	2527.19
471.95	2349.02
472.15	2285.53
472.36	2306.01
472.56	2226.14
472.76	2203.61
472.96	2082.78
473.17	2017.25
473.37	1984.48
473.57	1865.70
473.77	1873.89
473.98	1800.16
474.18	1691.62
474.38	1941.47
474.58	1726.44
474.79	1734.63
474.99	1820.64
475.19	1785.83
475.39	1671.14
475.60	1775.59
475.80	1712.10
476.00	1791.97
476.20	1728.49
476.41	1759.21
476.61	1818.60
476.81	1816.55
477.01	1726.44
477.21	1810.40
477.42	1765.35
477.62	1687.53
477.82	1755.11
478.02	1689.57
478.23	1738.73
478.43	1650.66
478.63	1708.01
478.83	1726.44
479.03	1722.34
479.24	1767.40
479.44	1736.68
479.64	1675.24
479.84	1691.62
480.04	1697.77
480.25	1755.11
480.45	1640.42
480.65	1685.48
480.85	1789.92
481.06	1728.49
481.26	1742.82
481.46	1757.16
481.66	1740.77
481.86	1665.00
482.06	1765.35
482.27	1679.33
482.47	1718.25
482.67	1677.29
482.87	1726.44
483.07	1724.39
483.28	1667.05
483.48	1624.04
483.68	1757.16
483.88	1701.86
484.08	1538.02
484.29	1681.38
484.49	1642.47
484.69	1687.53
484.89	1837.03
485.09	1787.88
485.29	1712.10
485.50	1697.77
485.70	1714.15
485.90	1789.92
486.10	1722.34
486.30	1734.63
486.50	1765.35
486.71	1716.20
486.91	1804.26
487.11	1791.97
487.31	1605.61
487.51	1839.08
487.71	1689.57
487.91	1716.20
488.12	1628.14
488.32	1626.09
488.52	1638.38
488.72	1660.90
488.92	1777.64
489.12	1755.11
489.32	1730.53
489.53	1769.44
489.73	1632.23
489.93	1839.08
490.13	1730.53
490.33	1640.42
490.53	1753.06
490.73	1814.50
490.94	1685.48
491.14	1859.56
491.34	1816.55
491.54	2127.84
491.74	2756.57
491.94	3151.82
492.14	3395.53
492.34	3559.37
492.54	3221.45
492.75	2709.46
492.95	2594.78
493.15	2385.88
493.35	2369.50
493.55	2377.69
493.75	2230.24
493.95	2281.44
494.15	2144.22
494.35	1972.19
494.56	1845.22
494.76	1806.31
494.96	1791.97
495.16	1785.83
495.36	1728.49
495.56	1830.88
495.76	1722.34
495.96	1718.25
496.16	1681.38
496.36	1757.16
496.56	1730.53
496.77	1812.45
496.97	1769.44
497.17	1755.11
497.37	1654.76
497.57	1769.44
497.77	1775.59
497.97	1740.77
498.17	1679.33
498.37	1732.58
498.57	1748.97
498.77	1697.77
498.97	1744.87
499.17	1853.41
499.38	1720.29
499.58	1767.40
499.78	1738.73
499.98	1828.84
500.18	1679.33
500.38	1816.55
500.58	2002.91
500.78	2439.13
500.98	4515.77
501.18	6596.51
501.38	8116.10
501.58	9234.29
501.78	8843.13
501.98	6809.50
502.18	5851.05
502.38	5013.43
502.58	4624.31
502.78	4212.67
502.98	3960.77
503.18	3786.69
503.38	3551.18
503.59	3196.88
503.79	2951.12
503.99	2639.83
504.19	2490.33
504.39	2332.64
504.59	2349.02
504.79	2355.16
504.99	2299.87
505.19	2066.40
505.39	2015.20
505.59	2070.50
505.79	1990.63
505.99	1898.47
506.19	1781.73
506.39	1916.90
506.59	1828.84
506.79	1785.83
506.99	1865.70
507.19	1845.22
507.39	1724.39
507.59	1673.19
507.79	1718.25
507.99	1748.97
508.19	1734.63
508.39	1714.15
508.59	1738.73
508.79	1775.59
508.99	1804.26
509.19	1689.57
509.39	1837.03
509.59	1726.44
509.79	1660.90
509.99	1783.78
510.19	1703.91
510.39	1824.74
510.59	1718.25
510.79	1746.92
510.99	1769.44
511.19	1787.88
511.39	1871.84
511.59	1808.36
511.79	1822.69
511.99	1800.16
512.19	1931.23
512.38	1730.53
512.58	1699.81
512.78	1730.53
512.98	1804.26
513.18	1726.44
513.38	1650.66
513.58	1839.08
513.78	1708.01
513.98	1708.01
514.18	1720.29
514.38	1710.05
514.58	1738.73
514.78	1687.53
514.98	1636.33
515.18	1728.49
515.38	1720.29
515.58	1847.27
515.78	1689.57
515.98	1763.30
516.18	1720.29
516.38	1742.82
516.57	1648.61
516.77	1687.53
516.97	1716.20
517.17	1724.39
517.37	1628.14
517.57	1828.84
517.77	1712.10
517.97	1712.10
518.17	1759.21
518.37	1691.62
518.57	1722.34
518.77	1705.96
518.97	1738.73
519.16	1738.73
519.36	1769.44
519.56	1685.48
519.76	1722.34
519.96	1738.73
520.16	1832.93
520.36	1722.34
520.56	1763.30
520.76	1679.33
520.96	1710.05
521.16	1818.60
521.35	1783.78
521.55	1775.59
521.75	1720.29
521.95	1744.87
522.15	1681.38
522.35	1646.57
522.55	1712.10
522.75	1828.84
522.95	1746.92
523.14	1787.88
523.34	1769.44
523.54	1716.20
523.74	1718.25
523.94	1718.25
524.14	1677.29
524.34	1757.16
524.54	1802.21
524.73	1726.44
524.93	1722.34
525.13	1726.44
525.33	1626.09
525.53	1914.85
525.73	1814.50
525.93	1806.31
526.13	1708.01
526.32	1730.53
526.52	1806.31
526.72	1800.16
526.92	1755.11
527.12	1726.44
527.32	1703.91
527.52	1738.73
527.71	1773.54
527.91	1783.78
528.11	1646.57
528.31	1701.86
528.51	1665.00
528.71	1730.53
528.90	1693.67
529.10	1804.26
529.30	1894.37
529.50	1607.66
529.70	1779.68
529.90	1738.73
530.09	1689.57
530.29	1699.81
530.49	1710.05
530.69	1849.32
530.89	1738.73
531.09	1703.91
531.28	1652.71
531.48	1789.92
531.68	1656.81
531.88	1765.35
532.08	1791.97
532.28	1720.29
532.47	1781.73
532.67	1814.50
532.87	1730.53
533.07	1710.05
533.27	1843.17
533.46	1736.68
533.66	1794.02
533.86	1685.48
534.06	1742.82
534.26	1785.83
534.45	1720.29
534.65	1775.59
534.85	1763.30
535.05	1675.24
535.25	1808.36
535.44	1677.29
535.64	1765.35
535.84	1720.29
536.04	1712.10
536.24	1716.20
536.43	1677.29
536.63	1634.28
536.83	1667.05
537.03	1701.86
537.22	1689.57
537.42	1583.08
537.62	1781.73
537.82	1720.29
538.02	1832.93
538.21	1724.39
538.41	1818.60
538.61	1734.63
538.81	1810.40
539.00	1814.50
539.20	1693.67
539.40	1726.44
539.60	1806.31
539.79	1738.73
539.99	1724.39
540.19	1685.48
540.39	1769.44
540.58	1798.12
540.78	1857.51
540.98	1765.35
541.18	1812.45
541.37	1771.49
541.57	1701.86
541.77	1810.40
541.97	1685.48
542.16	1658.85
542.36	1708.01
542.56	1820.64
542.76	1857.51
542.95	1728.49
543.15	1804.26
543.35	1794.02
543.54	1722.34
543.74	1642.47
543.94	1796.07
544.14	1654.76
544.33	1740.77
544.53	1757.16
544.73	1773.54
544.93	1710.05
545.12	1673.19
545.32	1816.55
545.52	1820.64
545.71	1673.19
545.91	1732.58
546.11	1777.64
546.30	1665.00
546.50	1693.67
546.70	1734.63
546.90	1744.87
547.09	1607.66
547.29	1777.64
547.49	1837.03
547.68	1767.40
547.88	1708.01
548.08	1820.64
548.27	2138.08
548.47	1689.57
548.67	1689.57
548.87	1763.30
549.06	1722.34
549.26	1744.87
549.46	1759.21
549.65	1746.92
549.85	1779.68
550.05	1718.25
550.24	1638.38
550.44	1744.87
550.64	1804.26
550.83	1665.00
551.03	1832.93
551.23	1814.50
551.42	1714.15
551.62	1732.58
551.82	1720.29
552.01	1652.71
552.21	1779.68
552.41	1724.39
552.60	1886.18
552.80	1798.12
553.00	1630.18
553.19	1726.44
553.39	1796.07
553.59	1617.90
553.78	1742.82
553.98	1763.30
554.17	1718.25
554.37	1736.68
554.57	1746.92
554.76	1677.29
554.96	1716.20
555.16	1810.40
555.35	1697.77
555.55	1714.15
555.75	1808.36
555.94	1773.54
556.14	1689.57
556.33	1812.45
556.53	1759.21
556.73	1751.01
556.92	1773.54
557.12	1877.99
557.32	1814.50
557.51	1863.65
557.71	1748.97
557.90	1925.09
558.10	1834.98
558.30	1822.69
558.49	1740.77
558.69	1695.72
558.88	1771.49
559.08	1689.57
559.28	1708.01
559.47	1736.68
559.67	1808.36
559.86	1857.51
560.06	1658.85
560.26	1751.01
560.45	1824.74
560.65	1730.53
560.84	1802.21
561.04	1683.43
561.24	1759.21
561.43	1683.43
561.63	1775.59
561.82	1742.82
562.02	1759.21
562.22	1677.29
562.41	1744.87
562.61	1667.05
562.80	1673.19
563.00	1880.04
563.19	1714.15
563.39	1789.92
563.59	1802.21
563.78	1667.05
563.98	1578.98
564.17	1624.04
564.37	1654.76
564.56	1789.92
564.76	1734.63
564.96	1806.31
565.15	1824.74
565.35	1861.60
565.54	1681.38
565.74	1814.50
565.93	1714.15
566.13	1705.96
566.32	1777.64
566.52	1703.91
566.71	1789.92
566.91	1822.69
567.11	1791.97
567.30	1712.10
567.50	1755.11
567.69	1769.44
567.89	1703.91
568.08	1740.77
568.28	1730.53
568.47	1740.77
568.67	1779.68
568.86	1781.73
569.06	1820.64
569.25	1783.78
569.45	1705.96
569.64	1722.34
569.84	1777.64
570.04	1757.16
570.23	1658.85
570.43	1718.25
570.62	1828.84
570.82	1806.31
571.01	1665.00
571.21	1759.21
571.40	1730.53
571.60	1771.49
571.79	1671.14
571.99	1759.21
572.18	1771.49
572.38	1769.44
572.57	1667.05
572.77	1839.08
572.96	1802.21
573.16	1738.73
573.35	1740.77
573.55	1894.37
573.74	1828.84
573.94	1822.69
574.13	1689.57
574.33	1804.26
574.52	1769.44
574.71	1740.77
574.91	1777.64
575.10	1650.66
575.30	1769.44
575.49	1761.25
575.69	1720.29
575.88	1837.03
576.08	1748.97
576.27	1902.56
576.47	1900.52
576.66	1910.75
576.86	1845.22
577.05	1742.82
577.25	1791.97
577.44	1902.56
577.64	1742.82
577.83	1804.26
578.02	1767.40
578.22	1830.88
578.41	1808.36
578.61	1744.87
578.80	1640.42
579.00	1822.69
579.19	1757.16
579.39	1810.40
579.58	1834.98
579.77	1730.53
579.97	1912.80
580.16	1796.07
580.36	1785.83
580.55	1816.55
580.75	1748.97
580.94	1746.92
581.13	1853.41
581.33	1796.07
581.52	1800.16
581.72	1920.99
581.91	1841.12
582.11	1794.02
582.30	1845.22
582.49	1759.21
582.69	1871.84
582.88	1806.31
583.08	1812.45
583.27	1882.08
583.47	1791.97
583.66	1728.49
583.85	1697.77
584.05	1683.43
584.24	1751.01
584.44	1814.50
584.63	1832.93
584.82	1908.71
585.02	1914.85
585.21	1882.08
585.41	1945.57
585.60	1882.08
585.79	2027.49
585.99	2033.63
586.18	1959.91
586.37	2246.62
586.57	3456.97
586.76	9840.49
586.96	27194.98
587.15	41700.74
587.34	51983.59
587.54	57504.91
587.73	55739.57
587.93	40222.11
588.12	29589.05
588.31	23574.17
588.51	20397.77
588.70	18470.63
588.89	17147.64
589.09	15296.28
589.28	13752.11
589.47	11685.71
589.67	9564.01
589.86	7493.52
590.06	5398.45
590.25	4231.10
590.44	3321.81
590.64	2748.37
590.83	2326.49
591.02	2058.21
591.22	1902.56
591.41	1884.13
591.60	1843.17
591.80	1912.80
591.99	1714.15
592.18	1763.30
592.38	1742.82
592.57	1744.87
592.76	1708.01
592.96	1757.16
593.15	1789.92
593.34	1837.03
593.54	1687.53
593.73	1773.54
593.92	1757.16
594.12	1816.55
594.31	1832.93
594.50	1841.12
594.70	1912.80
594.89	1951.71
595.08	1691.62
595.28	1812.45
595.47	1949.67
595.66	1779.68
595.86	1665.00
596.05	1861.60
596.24	1734.63
596.43	1802.21
596.63	1800.16
596.82	1800.16
597.01	1867.75
597.21	1910.75
597.40	1761.25
597.59	1796.07
597.79	1769.44
597.98	1841.12
598.17	1855.46
598.36	1759.21
598.56	1783.78
598.75	1722.34
598.94	1794.02
599.14	1722.34
599.33	1775.59
599.52	1814.50
599.71	1800.16
599.91	1816.55
600.10	1826.79
600.29	1720.29
600.48	1761.25
600.68	1769.44
600.87	1773.54
601.06	1648.61
601.26	1738.73
601.45	1808.36
601.64	1775.59
601.83	1771.49
602.03	1710.05
602.22	1695.72
602.41	1763.30
602.60	1904.61
602.80	1853.41
602.99	1791.97
603.18	1650.66
603.37	1812.45
603.57	1732.58
603.76	1789.92
603.95	1759.21
604.14	1763.30
604.34	1644.52
604.53	1703.91
604.72	1736.68
604.91	1812.45
605.10	1763.30
605.30	1705.96
605.49	1894.37
605.68	1816.55
605.87	1761.25
606.07	1675.24
606.26	1718.25
606.45	1781.73
606.64	1685.48
606.84	1746.92
607.03	1820.64
607.22	1800.16
607.41	1816.55
607.60	1740.77
607.80	1802.21
607.99	1740.77
608.18	1753.06
608.37	1691.62
608.56	1705.96
608.76	1785.83
608.95	1861.60
609.14	1834.98
609.33	1894.37
609.52	1894.37
609.72	1814.50
609.91	1886.18
610.10	1734.63
610.29	1832.93
610.48	1814.50
610.68	1769.44
610.87	1771.49
611.06	1794.02
611.25	1759.21
611.44	1816.55
611.63	1804.26
611.83	1804.26
612.02	1693.67
612.21	1746.92
612.40	1675.24
612.59	1632.23
612.79	1701.86
612.98	1769.44
613.17	1873.89
613.36	1746.92
613.55	1898.47
613.74	1808.36
613.93	1886.18
614.13	1949.67
614.32	1906.66
614.51	2004.96
614.70	1796.07
614.89	1785.83
615.08	1802.21
615.28	2097.12
615.47	1785.83
615.66	1779.68
615.85	1732.58
616.04	1828.84
616.23	1855.46
616.42	1742.82
616.62	1781.73
616.81	1775.59
617.00	1740.77
617.19	1884.13
617.38	1710.05
617.57	1736.68
617.76	1759.21
617.95	1761.25
618.15	1808.36
618.34	1927.14
618.53	1638.38
618.72	1863.65
618.91	1765.35
619.10	1734.63
619.29	1812.45
619.48	1728.49
619.68	1699.81
619.87	1669.09
620.06	1669.09
620.25	1740.77
620.44	1738.73
620.63	1736.68
620.82	1699.81
621.01	1769.44
621.20	1732.58
621.39	1742.82
621.59	1718.25
621.78	1746.92
621.97	1779.68
622.16	1732.58
622.35	1759.21
622.54	1779.68
622.73	1884.13
622.92	1683.43
623.11	1785.83
623.30	1718.25
623.49	1814.50
623.68	1701.86
623.88	1796.07
624.07	1773.54
624.26	1660.90
624.45	1771.49
624.64	1740.77
624.83	1710.05
625.02	1736.68
625.21	1687.53
625.40	1712.10
625.59	1837.03
625.78	1759.21
625.97	1800.16
626.16	1884.13
626.35	1847.27
626.54	1767.40
626.74	1837.03
626.93	1708.01
627.12	1693.67
627.31	1927.14
627.50	1796.07
627.69	1804.26
627.88	1730.53
628.07	1744.87
628.26	1714.15
628.45	1736.68
628.64	1699.81
628.83	1726.44
629.02	1644.52
629.21	1761.25
629.40	1763.30
629.59	1718.25
629.78	1746.92
629.97	1613.80
630.16	1820.64
630.35	1781.73
630.54	1744.87
630.73	1660.90
630.92	1744.87
631.11	1740.77
631.30	1736.68
631.49	1812.45
631.68	1757.16
631.87	1722.34
632.06	1673.19
632.25	1861.60
632.44	1751.01
632.63	1865.70
632.82	1812.45
633.01	1824.74
633.20	1824.74
633.39	1810.40
633.58	1742.82
633.77	1859.56
633.96	1751.01
634.15	1802.21
634.34	1826.79
634.53	1652.71
634.72	1746.92
634.91	1705.96
635.10	1806.31
635.29	1742.82
635.48	1759.21
635.67	1716.20
635.86	1658.85
636.05	1808.36
636.24	1740.77
636.43	1714.15
636.62	1753.06
636.81	1615.85
637.00	1685.48
637.19	1783.78
637.38	1697.77
637.57	1734.63
637.76	1763.30
637.95	1877.99
638.14	1806.31
638.33	1812.45
638.52	1773.54
638.71	1771.49
638.89	1597.42
639.08	1863.65
639.27	1703.91
639.46	1898.47
639.65	2250.72
639.84	2285.53
640.03	2420.70
640.22	2381.79
640.41	2326.49
640.60	2162.66
640.79	2129.89
640.98	1853.41
641.17	2002.91
641.36	1931.23
641.55	1882.08
641.74	1757.16
641.92	1765.35
642.11	1687.53
642.30	1851.36
642.49	1732.58
642.68	1681.38
642.87	1753.06
643.06	1783.78
643.25	1769.44
643.44	1656.81
643.63	1779.68
643.82	1779.68
644.00	1640.42
644.19	1701.86
644.38	1671.14
644.57	1861.60
644.76	1683.43
644.95	1679.33
645.14	1753.06
645.33	1722.34
645.52	1757.16
645.71	1566.70
645.89	1648.61
646.08	1626.09
646.27	1691.62
646.46	1865.70
646.65	1621.99
646.84	1767.40
647.03	1638.38
647.22	1832.93
647.40	1665.00
647.59	1697.77
647.78	1656.81
647.97	1718.25
648.16	1675.24
648.35	1816.55
648.54	1785.83
648.73	1691.62
648.91	1748.97
649.10	1761.25
649.29	1703.91
649.48	1708.01
649.67	1763.30
649.86	1779.68
650.05	1812.45
650.23	1908.71
650.42	1775.59
650.61	1871.84
650.80	1920.99
650.99	1931.23
651.18	1865.70
651.36	1841.12
651.55	1806.31
651.74	1816.55
651.93	1755.11
652.12	1798.12
652.31	1746.92
652.49	1781.73
652.68	1785.83
652.87	1789.92
653.06	1753.06
653.25	1783.78
653.44	1767.40
653.62	1824.74
653.81	1722.34
654.00	1777.64
654.19	1812.45
654.38	1873.89
654.56	1720.29
654.75	1693.67
654.94	1734.63
655.13	1755.11
655.32	1693.67
655.51	1753.06
655.69	1660.90
655.88	1691.62
656.07	1660.90
656.26	1675.24
656.45	1685.48
656.63	1710.05
656.82	1812.45
657.01	1796.07
657.20	1636.33
657.38	1804.26
657.57	1777.64
657.76	1632.23
657.95	1714.15
658.14	1746.92
658.32	1689.57
658.51	1619.94
658.70	1712.10
658.89	1642.47
659.08	1720.29
659.26	1757.16
659.45	1710.05
659.64	1822.69
659.83	1769.44
660.01	1986.53
660.20	1740.77
660.39	1783.78
660.58	1667.05
660.76	1751.01
660.95	1703.91
661.14	1693.67
661.33	1630.18
661.51	1685.48
661.70	1673.19
661.89	1763.30
662.08	1800.16
662.26	1621.99
662.45	1669.09
662.64	1830.88
662.83	1687.53
663.01	1675.24
663.20	1757.16
663.39	1742.82
663.58	1685.48
663.76	1773.54
663.95	1853.41
664.14	1683.43
664.32	1718.25
664.51	1685.48
664.70	1738.73
664.89	1703.91
665.07	1730.53
665.26	1777.64
665.45	1701.86
665.64	1683.43
665.82	1765.35
666.01	1728.49
666.20	1718.25
666.38	1855.46
666.57	1814.50
666.76	2269.15
666.95	4569.02
667.13	11513.68
667.32	18413.29
667.51	22484.65
667.69	25257.60
667.88	25159.30
668.07	19760.85
668.25	14294.82
668.44	11718.48
668.63	9879.40
668.81	8480.64
669.00	7483.28
669.19	6975.38
669.38	6131.62
669.56	5494.70
669.75	4517.82
669.94	3899.33
670.12	3270.61
670.31	2623.45
670.50	2252.77
670.68	2084.83
670.87	1959.91
671.06	1865.70
671.24	1886.18
671.43	1894.37
671.62	1820.64
671.80	1810.40
671.99	1796.07
672.18	1791.97
672.36	1794.02
672.55	1746.92
672.74	1730.53
672.92	1763.30
673.11	1789.92
673.29	1646.57
673.48	1845.22
673.67	1720.29
673.85	1775.59
674.04	1660.90
674.23	1753.06
674.41	1771.49
674.60	1738.73
674.79	1654.76
674.97	1730.53
675.16	1716.20
675.34	1757.16
675.53	1726.44
675.72	1714.15
675.90	1800.16
676.09	1667.05
676.28	1775.59
676.46	1705.96
676.65	1841.12
676.83	1665.00
677.02	1705.96
677.21	1800.16
677.39	1710.05
677.58	1769.44
677.77	1753.06
677.95	1757.16
678.14	1671.14
678.32	1798.12
678.51	1681.38
678.70	1867.75
678.88	1658.85
679.07	1759.21
679.25	1669.09
679.44	1644.52
679.63	1714.15
679.81	1734.63
680.00	1755.11
680.18	1728.49
680.37	1904.61
680.55	1820.64
680.74	1673.19
680.93	1677.29
681.11	1650.66
681.30	1708.01
681.48	1710.05
681.67	1693.67
681.85	1689.57
682.04	1705.96
682.23	1744.87
682.41	1685.48
682.60	1726.44
682.78	1708.01
682.97	1634.28
683.15	1695.72
683.34	1665.00
683.53	1787.88
683.71	1675.24
683.90	1832.93
684.08	1800.16
684.27	1673.19
684.45	1687.53
684.64	1697.77
684.82	1714.15
685.01	1804.26
685.19	1660.90
685.38	1763.30
685.57	1660.90
685.75	1701.86
685.94	1628.14
686.12	1689.57
686.31	1662.95
686.49	1812.45
686.68	1591.27
686.86	1773.54
687.05	1667.05
687.23	1837.03
687.42	1683.43
687.60	1621.99
687.79	1787.88
687.97	1843.17
688.16	1808.36
688.34	1859.56
688.53	1640.42
688.71	1812.45
688.90	1699.81
689.08	1673.19
689.27	1701.86
689.45	1746.92
689.64	1736.68
689.82	1767.40
690.01	1699.81
690.19	1734.63
690.38	1787.88
690.56	1740.77
690.75	1650.66
690.93	1609.70
691.12	1718.25
691.30	1820.64
691.49	1681.38
691.67	1667.05
691.86	1798.12
692.04	1658.85
692.23	1746.92
692.41	1738.73
692.60	1980.39
692.78	1839.08
692.97	1685.48
693.15	1783.78
693.34	1867.75
693.52	1726.44
693.71	1814.50
693.89	1689.57
694.08	1669.09
694.26	1820.64
694.44	1763.30
694.63	1769.44
694.81	1691.62
695.00	1624.04
695.18	1746.92
695.37	1828.84
695.55	1738.73
695.74	1689.57
695.92	1710.05
696.10	1726.44
696.29	1626.09
696.47	1691.62
696.66	1626.09
696.84	1648.61
697.03	1683.43
697.21	1845.22
697.40	2303.96
697.58	1810.40
697.76	1652.71
697.95	1683.43
698.13	1714.15
698.32	1738.73
698.50	1720.29
698.68	1726.44
698.87	1710.05
699.05	1828.84
699.24	1738.73
699.42	1652.71
699.61	1771.49
699.79	1632.23
699.97	1714.15
700.16	1624.04
700.34	1703.91
700.53	1767.40
700.71	1896.42
700.89	1689.57
701.08	1697.77
701.26	1671.14
701.45	2082.78
701.63	1708.01
701.81	1626.09
702.00	1789.92
702.18	1708.01
702.37	1736.68
702.55	1935.33
702.73	1902.56
702.92	1898.47
703.10	1992.67
703.28	1927.14
703.47	1871.84
703.65	1886.18
703.84	1896.42
704.02	1791.97
704.20	1882.08
704.39	1802.21
704.57	1724.39
704.75	1933.28
704.94	1808.36
705.12	1757.16
705.30	1824.74
705.49	2574.30
705.67	5439.40
705.86	13244.21
706.04	19525.33
706.22	23150.24
706.41	25099.90
706.59	24667.78
706.77	19238.62
706.96	14016.30
707.14	11822.92
707.32	10270.56
707.51	9172.85
707.69	7796.62
707.87	6614.94
708.06	5373.87
708.24	4407.23
708.42	3291.09
708.61	2725.85
708.79	2220.00
708.97	2090.98
709.16	2015.20
709.34	1855.46
709.52	1791.97
709.71	1798.12
709.89	1855.46
710.07	1697.77
710.26	1708.01
710.44	1742.82
710.62	1773.54
710.80	1757.16
710.99	1734.63
711.17	1755.11
711.35	1683.43
711.54	1732.58
711.72	1851.36
711.90	1705.96
712.09	1798.12
712.27	1708.01
712.45	1777.64
712.63	1773.54
712.82	1699.81
713.00	1751.01
713.18	1710.05
713.37	1746.92
713.55	1759.21
713.73	1814.50
713.91	1798.12
714.10	1712.10
714.28	1689.57
714.46	1796.07
714.65	1693.67
714.83	1703.91
715.01	1689.57
715.19	1755.11
715.38	1644.52
715.56	1730.53
715.74	1751.01
715.92	1683.43
716.11	1763.30
716.29	1619.94
716.47	1667.05
716.65	1736.68
716.84	1648.61
717.02	1814.50
717.20	1656.81
717.38	1638.38
717.57	1783.78
717.75	1673.19
717.93	1703.91
718.11	1746.92
718.30	1658.85
718.48	1763.30
718.66	1742.82
718.84	1730.53
719.03	1671.14
719.21	1689.57
719.39	1730.53
719.57	1744.87
719.75	1751.01
719.94	1662.95
720.12	1689.57
720.30	1773.54
720.48	1763.30
720.67	1673.19
720.85	1611.75
721.03	1687.53
721.21	1644.52
721.39	1822.69
721.58	1726.44
721.76	1708.01
721.94	1755.11
722.12	1697.77
722.30	1828.84
722.49	1691.62
722.67	1701.86
722.85	1716.20
723.03	1574.89
723.21	1685.48
723.40	1714.15
723.58	1849.32
723.76	1779.68
723.94	1851.36
724.12	1828.84
724.30	1847.27
724.49	1814.50
724.67	1779.68
724.85	1918.95
725.03	1669.09
725.21	1814.50
725.40	1804.26
725.58	1673.19
725.76	1806.31
725.94	1753.06
726.12	1681.38
726.30	1695.72
726.49	1687.53
726.67	1708.01
726.85	1757.16
727.03	1859.56
727.21	2246.62
727.39	3469.26
727.57	4911.03
727.76	5695.40
727.94	6379.42
728.12	6447.01
728.30	5709.74
728.48	4480.96
728.66	4057.03
728.84	3604.42
729.03	3205.07
729.21	2934.74
729.39	2461.66
729.57	2074.59
729.75	2015.20
729.93	1908.71
730.11	1794.02
730.30	1693.67
730.48	1687.53
730.66	1843.17
730.84	1744.87
731.02	1761.25
731.20	1771.49
731.38	1730.53
731.56	1667.05
731.74	1660.90
731.93	1730.53
732.11	1726.44
732.29	1671.14
732.47	1814.50
732.65	1779.68
732.83	1820.64
733.01	1734.63
733.19	1648.61
733.37	1789.92
733.56	1728.49
733.74	1656.81
733.92	1777.64
734.10	1662.95
734.28	1720.29
734.46	1683.43
734.64	1697.77
734.82	1720.29
735.00	1689.57
735.18	1703.91
735.36	1671.14
735.54	1742.82
735.73	1712.10
735.91	1722.34
736.09	1728.49
736.27	1701.86
736.45	1806.31
736.63	1624.04
736.81	1681.38
736.99	1665.00
737.17	1742.82
737.35	1755.11
737.53	1761.25
737.71	1689.57
737.89	1757.16
738.07	1685.48
738.25	1642.47
738.43	1628.14
738.61	1724.39
738.80	1658.85
738.98	1689.57
739.16	1675.24
739.34	1660.90
739.52	1755.11
739.70	1667.05
739.88	1730.53
740.06	1771.49
740.24	1615.85
740.42	1849.32
740.60	1650.66
740.78	1697.77
740.96	1640.42
741.14	1673.19
741.32	1714.15
741.50	1660.90
741.68	1830.88
741.86	1783.78
742.04	1660.90
742.22	1650.66
742.40	1724.39
742.58	1748.97
742.76	1628.14
742.94	1779.68
743.12	1658.85
743.30	1693.67
743.48	1742.82
743.66	1683.43
743.84	1699.81
744.02	1697.77
744.20	1718.25
744.38	1642.47
744.56	1673.19
744.74	1822.69
744.92	1714.15
745.10	1830.88
745.28	1677.29
745.46	1794.02
745.64	1728.49
745.82	1775.59
746.00	1740.77
746.18	1650.66
746.36	1699.81
746.54	1714.15
746.72	1714.15
746.90	1636.33
747.08	1820.64
747.26	1755.11
747.44	1873.89
747.62	1703.91
747.80	1689.57
747.98	1712.10
748.15	1714.15
748.33	1759.21
748.51	1619.94
748.69	1732.58
748.87	1722.34
749.05	1779.68
749.23	1726.44
749.41	1722.34
749.59	1638.38
749.77	1839.08
749.95	1734.63
750.13	1687.53
750.31	1740.77
750.49	1679.33
750.67	1734.63
750.85	1753.06
751.03	1683.43
751.20	1763.30
751.38	1763.30
751.56	1693.67
751.74	1665.00
751.92	1636.33
752.10	1658.85
752.28	1779.68
752.46	1613.80
752.64	1638.38
752.82	1765.35
753.00	1757.16
753.18	1738.73
753.35	1736.68
753.53	1693.67
753.71	1671.14
753.89	1775.59
754.07	1703.91
754.25	1716.20
754.43	1726.44
754.61	1621.99
754.79	1718.25
754.97	1675.24
755.14	1732.58
755.32	1652.71
755.50	1705.96
755.68	1746.92
755.86	1697.77
756.04	1638.38
756.22	1640.42
756.40	1787.88
756.57	1759.21
756.75	1656.81
756.93	1763.30
757.11	1783.78
757.29	1695.72
757.47	1722.34
757.65	1619.94
757.82	1660.90
758.00	1679.33
758.18	1701.86
758.36	1685.48
758.54	1777.64
758.72	1599.46
758.90	1808.36
759.07	1777.64
759.25	1607.66
759.43	1671.14
759.61	1615.85
759.79	2158.56
759.97	1777.64
760.15	1646.57
760.32	1669.09
760.50	1685.48
760.68	1777.64
760.86	1677.29
761.04	1763.30
761.22	1818.60
761.39	1734.63
761.57	1708.01
761.75	1697.77
761.93	1708.01
762.11	1714.15
762.28	1708.01
762.46	1648.61
762.64	1839.08
762.82	1673.19
763.00	1685.48
763.18	1732.58
763.35	1697.77
763.53	1722.34
763.71	1687.53
763.89	1732.58
764.07	1834.98
764.24	1804.26
764.42	1777.64
764.60	1738.73
764.78	1718.25
764.96	1779.68
765.13	1732.58
765.31	1640.42
765.49	1804.26
765.67	1662.95
765.84	1693.67
766.02	1765.35
766.20	1630.18
766.38	1742.82
766.56	1722.34
766.73	1675.24
766.91	1671.14
767.09	1736.68
767.27	1761.25
767.44	1716.20
767.62	1699.81
767.80	1673.19
767.98	1681.38
768.15	1660.90
768.33	1732.58
768.51	1808.36
768.69	1716.20
768.87	1789.92
769.04	1726.44
769.22	1886.18
769.40	1800.16
769.58	1767.40
769.75	1804.26
769.93	1826.79
770.11	1726.44
770.28	1681.38
770.46	1796.07
770.64	1691.62
770.82	1621.99
770.99	1673.19
771.17	1714.15
771.35	1716.20
771.53	1701.86
771.70	1675.24
771.88	1761.25
772.06	1652.71
772.23	1628.14
772.41	1753.06
772.59	1669.09
772.77	1658.85
772.94	1609.70
773.12	1656.81
773.30	1703.91
773.47	1710.05
773.65	1716.20
773.83	1888.23
774.01	1673.19
774.18	1605.61
774.36	1714.15
774.54	1685.48
774.71	1744.87
774.89	1621.99
775.07	1660.90
775.24	1679.33
775.42	1673.19
775.60	1804.26
775.78	1691.62
775.95	1687.53
776.13	1650.66
776.31	1548.26
776.48	1718.25
776.66	1839.08
776.84	1703.91
777.01	1550.31
777.19	1621.99
777.37	1683.43
777.54	1689.57
777.72	1818.60
777.90	1726.44
778.07	1683.43
778.25	1927.14
778.43	1779.68
778.60	1667.05
778.78	1697.77
778.96	1802.21
779.13	1636.33
779.31	1710.05
779.49	1691.62
779.66	1783.78
779.84	1722.34
780.01	1742.82
780.19	1632.23
780.37	1816.55
780.54	1724.39
780.72	1701.86
780.90	1667.05
781.07	1665.00
781.25	1667.05
781.43	1777.64
781.60	1755.11
781.78	1771.49
781.95	1669.09
782.13	1587.18
782.31	1689.57
782.48	1652.71
782.66	1751.01
782.83	1845.22
783.01	1742.82
783.19	1736.68
783.36	1624.04
783.54	1699.81
783.72	1830.88
783.89	1671.14
784.07	1730.53
784.24	1777.64
784.42	1830.88
784.60	1761.25
784.77	1751.01
784.95	1601.51
785.12	1734.63
785.30	1714.15
785.47	1693.67
785.65	1675.24
785.83	1701.86
786.00	1726.44
786.18	1689.57
786.35	1619.94
786.53	1636.33
786.71	1744.87
786.88	1720.29
787.06	1720.29
787.23	1705.96
787.41	1611.75
787.58	1718.25
787.76	1683.43
787.94	1693.67
788.11	1748.97
788.29	1630.18
788.46	1593.32
788.64	1599.46
788.81	1710.05
788.99	1671.14
789.16	1652.71
789.34	1697.77
789.52	1695.72
789.69	1693.67
789.87	1546.22
790.04	1730.53
790.22	1650.66
790.39	1718.25
790.57	1644.52
790.74	1673.19
790.92	1759.21
791.09	1630.18
791.27	1701.86
791.44	1669.09
791.62	1732.58
791.79	1828.84
791.97	1814.50
792.15	1908.71
792.32	1744.87
792.50	1710.05
792.67	1751.01
792.85	1800.16
793.02	1726.44
793.20	1775.59
793.37	1611.75
793.55	1714.15
793.72	1621.99
793.90	1773.54
794.07	1626.09
794.25	1718.25
794.42	1720.29
794.60	1656.81
794.77	1763.30
794.95	1683.43
795.12	1781.73
795.30	1705.96
795.47	1628.14
795.65	1910.75
795.82	1714.15
796.00	1759.21
796.17	1671.14
796.34	1689.57
796.52	1681.38
796.69	1667.05
796.87	1691.62
797.04	1689.57
797.22	1802.21
797.39	1683.43
797.57	1701.86
797.74	1665.00
797.92	1665.00
798.09	1648.61
798.27	1689.57
798.44	1724.39
798.62	1652.71
798.79	1738.73
798.96	1677.29
799.14	1640.42
799.31	1824.74
799.49	1626.09
799.66	1587.18
799.84	1779.68
800.01	1632.23
800.19	1744.87
800.36	1626.09
800.53	1681.38
800.71	1736.68
800.88	1828.84
801.06	1671.14
801.23	1689.57
801.41	1656.81
801.58	1673.19
801.75	1701.86
801.93	1691.62
802.10	1658.85
802.28	1644.52
802.45	1669.09
802.63	1701.86
802.80	1820.64
802.97	1632.23
803.15	1695.72
803.32	1773.54
803.50	1619.94
803.67	1619.94
803.84	1691.62
804.02	1746.92
804.19	1636.33
804.37	1587.18
804.54	1677.29
804.71	1691.62
804.89	1718.25
805.06	1732.58
805.24	1718.25
805.41	1691.62
805.58	1652.71
805.76	1871.84
805.93	1703.91
806.10	1892.32
806.28	1755.11
806.45	1763.30
806.63	1703.91
806.80	1712.10
806.97	1691.62
807.15	1740.77
807.32	1714.15
807.49	1712.10
807.67	1595.37
807.84	1697.77
808.01	1640.42
808.19	1888.23
808.36	1791.97
808.54	1740.77
808.71	1656.81
808.88	1642.47
809.06	1720.29
809.23	1816.55
809.40	1658.85
809.58	1787.88
809.75	1671.14
809.92	1708.01
810.10	1851.36
810.27	1708.01
810.44	1755.11
810.62	1724.39
810.79	1599.46
810.96	1675.24
811.14	1730.53
811.31	1773.54
811.48	1730.53
811.66	1746.92
811.83	1767.40
812.00	1665.00
812.18	1689.57
812.35	1783.78
812.52	1775.59
812.69	1699.81
812.87	1697.77
813.04	1646.57
813.21	1742.82
813.39	1718.25
813.56	1716.20
813.73	1742.82
813.91	1648.61
814.08	1695.72
814.25	1687.53
814.42	1585.13
814.60	1636.33
814.77	1687.53
814.94	1710.05
815.12	1677.29
815.29	1794.02
815.46	1632.23
815.63	1746.92
815.81	1714.15
815.98	1675.24
816.15	1667.05
816.33	1771.49
816.50	1675.24
816.67	1687.53
816.84	1669.09
817.02	1601.51
817.19	1783.78
817.36	1734.63
817.53	1638.38
817.71	1638.38
817.88	1722.34
818.05	1728.49
818.22	1624.04
818.40	1818.60
818.57	1720.29
818.74	1728.49
818.91	1720.29
819.09	1736.68
819.26	1712.10
819.43	1697.77
819.60	1660.90
819.78	1720.29
819.95	1705.96
820.12	1660.90
820.29	1751.01
820.47	1775.59
820.64	1708.01
820.81	1685.48
820.98	1646.57
821.15	1665.00
821.33	1738.73
821.50	1673.19
821.67	1718.25
821.84	1609.70
822.02	1798.12
822.19	1736.68
822.36	1658.85
822.53	1703.91
822.70	1624.04
822.88	1595.37
823.05	1787.88
823.22	1736.68
823.39	1714.15
823.56	1730.53
823.74	1785.83
823.91	1638.38
824.08	1642.47
824.25	1593.32
824.42	1773.54
824.60	1578.98
824.77	1691.62
824.94	1644.52
825.11	1726.44
825.28	1759.21
825.45	1691.62
825.63	1695.72
825.80	1626.09
825.97	1779.68
826.14	1746.92
826.31	1669.09
826.48	1783.78
826.66	1652.71
826.83	1667.05
827.00	1636.33
827.17	1675.24
827.34	1654.76
827.51	1665.00
827.69	1626.09
827.86	1687.53
828.03	1738.73
828.20	1656.81
828.37	1669.09
828.54	1703.91
828.71	1615.85
828.89	1755.11
829.06	1691.62
829.23	1751.01
829.40	1628.14
829.57	1742.82
829.74	1710.05
829.91	1660.90
830.09	1681.38
830.26	1757.16
830.43	1808.36
830.60	1642.47
830.77	1808.36
830.94	1771.49
831.11	1746.92
831.28	1640.42
831.46	1794.02
831.63	1667.05
831.80	1718.25
831.97	1656.81
832.14	1677.29
832.31	1714.15
832.48	1718.25
832.65	1769.44
832.82	1658.85
832.99	1724.39
833.17	1636.33
833.34	1804.26
833.51	1708.01
833.68	1624.04
833.85	1734.63
834.02	1640.42
834.19	1638.38
834.36	1697.77
834.53	1757.16
834.70	1712.10
834.87	1742.82
835.04	1689.57
835.22	1656.81
835.39	1689.57
835.56	1607.66
835.73	1535.98
835.90	1734.63
836.07	1671.14
836.24	1759.21
836.41	1658.85
836.58	1691.62
836.75	1746.92
836.92	1716.20
837.09	1644.52
837.26	1687.53
837.43	1773.54
837.60	1755.11
837.77	1779.68
837.94	1746.92
838.12	1814.50
838.29	1658.85
838.46	1634.28
838.63	1665.00
838.80	1755.11
838.97	1728.49
839.14	1761.25
839.31	1714.15
839.48	1712.10
839.65	1677.29
839.82	1738.73
839.99	1767.40
840.16	1611.75
840.33	1665.00
840.50	1677.29
840.67	1658.85
840.84	1560.55
841.01	1667.05
841.18	1644.52
841.35	1660.90
841.52	1736.68
841.69	1771.49
841.86	1710.05
842.03	1632.23
842.20	1759.21
842.37	1636.33
842.54	1689.57
842.71	1665.00
842.88	1701.86
843.05	1757.16
843.22	1714.15
843.39	1714.15
843.56	1697.77
843.73	1759.21
843.90	1757.16
844.07	1677.29
844.24	1761.25
844.41	1669.09
844.58	1730.53
844.75	1662.95
844.92	1703.91
845.09	1689.57
845.26	1648.61
845.43	1677.29
845.60	1648.61
845.77	1746.92
845.94	1677.29
846.10	1755.11
846.27	1708.01
846.44	1648.61
846.61	1587.18
846.78	1656.81
846.95	1802.21
847.12	1703.91
847.29	1685.48
847.46	1581.03
847.63	1619.94
847.80	1601.51
847.97	1712.10
848.14	1783.78
848.31	1644.52
848.48	1691.62
848.65	1718.25
848.82	1648.61
848.98	1867.75
849.15	1722.34
849.32	1693.67
849.49	1804.26
849.66	1650.66
849.83	1714.15
850.00	1640.42
850.17	1806.31
850.34	1675.24
850.51	1591.27
850.68	1736.68
850.85	1873.89
851.01	1705.96
851.18	1738.73
851.35	1677.29
851.52	1714.15
851.69	1861.60
851.86	1617.90
852.03	1701.86
852.20	1755.11
852.37	1644.52
852.53	1646.57
852.70	1675.24
852.87	1699.81
853.04	1748.97
853.21	1712.10
853.38	1687.53
853.55	1759.21
853.72	1808.36
853.89	1714.15
854.05	1587.18
854.22	1718.25
854.39	1632.23
854.56	1724.39
854.73	1738.73
854.90	1669.09
855.07	1701.86
855.23	1628.14
855.40	1738.73
855.57	1710.05
855.74	1574.89
855.91	1898.47
856.08	1589.22
856.25	1679.33
856.41	1701.86
856.58	1734.63
856.75	1699.81
856.92	1638.38
857.09	1832.93
857.26	1648.61
857.42	1736.68
857.59	1753.06
857.76	1650.66
857.93	1769.44
858.10	1759.21
858.27	1642.47
858.43	1722.34
858.60	1710.05
858.77	1644.52
858.94	1691.62
859.11	1738.73
859.27	1658.85
859.44	1621.99
859.61	1804.26
859.78	1759.21
859.95	1693.67
860.12	1697.77
860.28	1822.69
860.45	1761.25
860.62	1644.52
860.79	1701.86
860.95	1667.05
861.12	1689.57
861.29	1632.23
861.46	1562.60
861.63	1697.77
861.79	1730.53
861.96	1669.09
862.13	1740.77
862.30	1773.54
862.47	1693.67
862.63	1650.66
862.80	1785.83
862.97	1736.68
863.14	1746.92
863.30	1724.39
863.47	1681.38
863.64	1804.26
863.81	1708.01
863.97	1687.53
864.14	1710.05
864.31	1636.33
864.48	1617.90
864.65	1677.29
864.81	1693.67
864.98	1687.53
865.15	1804.26
865.32	1791.97
865.48	1751.01
865.65	1855.46
865.82	1710.05
865.98	1785.83
866.15	1767.40
866.32	1744.87
866.49	1699.81
866.65	1757.16
866.82	1640.42
866.99	1800.16
867.16	1613.80
867.32	1685.48
867.49	1642.47
867.66	1669.09
867.83	1681.38
867.99	1613.80
868.16	1638.38
868.33	1638.38
868.49	1699.81
868.66	1691.62
868.83	1757.16
868.99	1658.85
869.16	1710.05
869.33	1734.63
869.50	1787.88
869.66	1757.16
869.83	1722.34
870.00	1636.33
870.16	1757.16
870.33	1652.71
870.50	1734.63
870.66	1781.73
870.83	1785.83
871.00	1734.63
871.17	1796.07
871.33	1691.62
871.50	1734.63
871.67	1689.57
871.83	1609.70
872.00	1853.41
872.17	1660.90
872.33	1759.21
872.50	1798.12
872.67	1732.58
872.83	1675.24
873.00	1703.91
873.17	1699.81
873.33	1806.31
873.50	1701.86
873.67	1628.14
873.83	1689.57
874.00	1665.00
874.16	1746.92
874.33	1744.87
874.50	1656.81
874.66	1767.40
874.83	1652.71
875.00	1771.49
875.16	1755.11
875.33	1753.06
875.50	1648.61
875.66	1685.48
875.83	1615.85
875.99	1765.35
876.16	1673.19
876.33	1656.81
876.49	1718.25
876.66	1697.77
876.83	1679.33
876.99	1619.94
877.16	1753.06
877.32	1783.78
877.49	1667.05
877.66	1644.52
877.82	1814.50
877.99	1699.81
878.15	1789.92
878.32	1753.06
878.49	1730.53
878.65	1683.43
878.82	1701.86
878.98	1667.05
879.15	1855.46
879.32	1765.35
879.48	1753.06
879.65	1742.82
879.81	1626.09
879.98	1736.68
880.15	1609.70
880.31	1722.34
880.48	1585.13
880.64	1742.82
880.81	1673.19
880.97	1787.88
881.14	1761.25
881.31	1652.71
881.47	1871.84
881.64	1658.85
881.80	1638.38
881.97	1710.05
882.13	1816.55
882.30	1671.14
882.47	1714.15
882.63	1634.28
882.80	1656.81
882.96	1646.57
883.13	1742.82
883.29	1703.91
883.46	1738.73
883.62	1755.11
883.79	1621.99
883.95	1697.77
884.12	1656.81
884.29	1771.49
884.45	1665.00
884.62	1781.73
884.78	1638.38
884.95	1847.27
885.11	1615.85
885.28	1736.68
885.44	1683.43
885.61	1730.53
885.77	1837.03
885.94	1822.69
886.10	1703.91
886.27	1677.29
886.43	1759.21
886.60	1718.25
886.76	1697.77
886.93	1599.46
887.09	1710.05
887.26	1609.70
887.42	1722.34
887.59	1796.07
887.75	1822.69
887.92	1802.21
888.08	1767.40
888.25	1712.10
888.41	1705.96
888.58	1697.77
888.74	1683.43
888.91	1609.70
>>>>>End Processed Spectral Data<<<<<
