SpectraSuite Data File
++++++++++++++++++++++++++++++++++++
Date: Wed May 04 18:44:21 CEST 2016
User: root
Dark Spectrum Present: No
Reference Spectrum Present: No
Number of Sampled Component Spectra: 1
Spectrometers: USB4C02835
Integration Time (usec): 100000 (USB4C02835)
Spectra Averaged: 1 (USB4C02835)
Boxcar Smoothing: 0 (USB4C02835)
Correct for Electrical Dark: No (USB4C02835)
Strobe/Lamp Enabled: No (USB4C02835)
Correct for Detector Non-linearity: No (USB4C02835)
Correct for Stray Light: No (USB4C02835)
Number of Pixels in Processed Spectrum: 3648
>>>>>Begin Processed Spectral Data<<<<<
177.47	1439.72
177.69	1439.72
177.91	1439.72
178.13	1443.82
178.36	1497.07
178.58	1601.51
178.80	1787.88
179.02	1587.18
179.24	1605.61
179.46	1679.33
179.68	1757.16
179.90	1734.63
180.13	1757.16
180.35	1673.19
180.57	1669.09
180.79	1767.40
181.01	1738.73
181.23	1689.57
181.45	1777.64
181.67	1744.87
181.90	1761.25
182.12	1583.08
182.34	1654.76
182.56	1759.21
182.78	1716.20
183.00	1652.71
183.22	1705.96
183.44	1613.80
183.66	1845.22
183.89	1714.15
184.11	1742.82
184.33	1708.01
184.55	1759.21
184.77	1763.30
184.99	1689.57
185.21	1701.86
185.43	1837.03
185.65	1705.96
185.87	1742.82
186.10	1810.40
186.32	1812.45
186.54	1665.00
186.76	1791.97
186.98	1808.36
187.20	1796.07
187.42	1685.48
187.64	1734.63
187.86	1691.62
188.08	1769.44
188.30	1693.67
188.52	1724.39
188.75	1753.06
188.97	1853.41
189.19	1720.29
189.41	1765.35
189.63	1734.63
189.85	1746.92
190.07	1640.42
190.29	1628.14
190.51	1748.97
190.73	1648.61
190.95	1802.21
191.17	1751.01
191.39	1617.90
191.61	1748.97
191.84	1619.94
192.06	1732.58
192.28	1583.08
192.50	1902.56
192.72	1742.82
192.94	1644.52
193.16	1816.55
193.38	1691.62
193.60	1660.90
193.82	1710.05
194.04	1691.62
194.26	1783.78
194.48	1695.72
194.70	1621.99
194.92	1787.88
195.14	1732.58
195.36	1646.57
195.58	1736.68
195.80	1722.34
196.02	1669.09
196.24	1710.05
196.46	1665.00
196.69	1691.62
196.91	1861.60
197.13	1605.61
197.35	1710.05
197.57	1753.06
197.79	1726.44
198.01	1718.25
198.23	1728.49
198.45	1730.53
198.67	1654.76
198.89	1699.81
199.11	1708.01
199.33	1644.52
199.55	1525.74
199.77	1689.57
199.99	1777.64
200.21	1718.25
200.43	1740.77
200.65	1656.81
200.87	1597.42
201.09	1755.11
201.31	1646.57
201.53	1701.86
201.75	1718.25
201.97	1665.00
202.19	1705.96
202.41	1755.11
202.63	1968.10
202.85	1748.97
203.07	1712.10
203.29	1628.14
203.51	1619.94
203.73	1665.00
203.95	1832.93
204.17	1679.33
204.39	1710.05
204.61	1665.00
204.83	1681.38
205.05	1806.31
205.27	1695.72
205.49	1763.30
205.71	1642.47
205.93	1574.89
206.15	1595.37
206.37	1708.01
206.59	1693.67
206.81	1673.19
207.03	1689.57
207.25	1685.48
207.47	1765.35
207.69	1732.58
207.91	1834.98
208.13	1796.07
208.34	1728.49
208.56	1599.46
208.78	1779.68
209.00	1675.24
209.22	1681.38
209.44	1742.82
209.66	1675.24
209.88	1705.96
210.10	1621.99
210.32	1691.62
210.54	1767.40
210.76	1658.85
210.98	1755.11
211.20	1599.46
211.42	1763.30
211.64	1800.16
211.86	1624.04
212.08	1693.67
212.30	1755.11
212.52	1681.38
212.74	1697.77
212.96	1767.40
213.17	1773.54
213.39	1718.25
213.61	1839.08
213.83	1816.55
214.05	1691.62
214.27	1767.40
214.49	1669.09
214.71	1560.55
214.93	1810.40
215.15	1675.24
215.37	1734.63
215.59	1591.27
215.81	1748.97
216.03	1826.79
216.24	1714.15
216.46	1708.01
216.68	1691.62
216.90	1677.29
217.12	1689.57
217.34	1730.53
217.56	1744.87
217.78	1769.44
218.00	1765.35
218.22	1724.39
218.44	1726.44
218.66	1730.53
218.87	1828.84
219.09	1728.49
219.31	1794.02
219.53	1646.57
219.75	1746.92
219.97	1800.16
220.19	1714.15
220.41	1722.34
220.63	1755.11
220.85	1738.73
221.06	1710.05
221.28	1824.74
221.50	1689.57
221.72	1695.72
221.94	1677.29
222.16	1718.25
222.38	1791.97
222.60	1837.03
222.82	1785.83
223.03	1812.45
223.25	1626.09
223.47	1746.92
223.69	1791.97
223.91	1751.01
224.13	1712.10
224.35	1634.28
224.57	1746.92
224.78	1724.39
225.00	1708.01
225.22	1667.05
225.44	1746.92
225.66	1742.82
225.88	1716.20
226.10	1808.36
226.32	1748.97
226.53	1746.92
226.75	1779.68
226.97	1832.93
227.19	1699.81
227.41	1734.63
227.63	1685.48
227.85	1595.37
228.06	1675.24
228.28	1701.86
228.50	1681.38
228.72	1609.70
228.94	1634.28
229.16	1601.51
229.37	1636.33
229.59	1748.97
229.81	1818.60
230.03	1714.15
230.25	1603.56
230.47	1632.23
230.69	1671.14
230.90	1734.63
231.12	1638.38
231.34	1757.16
231.56	1761.25
231.78	1710.05
232.00	1736.68
232.21	1665.00
232.43	1648.61
232.65	1609.70
232.87	1722.34
233.09	1689.57
233.30	1658.85
233.52	1767.40
233.74	1695.72
233.96	1748.97
234.18	1705.96
234.40	1720.29
234.61	1865.70
234.83	1619.94
235.05	1636.33
235.27	1845.22
235.49	1820.64
235.70	1771.49
235.92	1849.32
236.14	1693.67
236.36	1837.03
236.58	1658.85
236.79	1746.92
237.01	1677.29
237.23	1736.68
237.45	1886.18
237.67	1757.16
237.88	1714.15
238.10	1744.87
238.32	1658.85
238.54	1693.67
238.76	1658.85
238.97	1652.71
239.19	1660.90
239.41	1699.81
239.63	1724.39
239.85	1681.38
240.06	1802.21
240.28	1796.07
240.50	1783.78
240.72	1691.62
240.93	1583.08
241.15	1818.60
241.37	1761.25
241.59	1748.97
241.81	1607.66
242.02	1681.38
242.24	1687.53
242.46	1765.35
242.68	1710.05
242.89	1681.38
243.11	1787.88
243.33	1695.72
243.55	1720.29
243.76	1687.53
243.98	1656.81
244.20	1689.57
244.42	1705.96
244.64	1699.81
244.85	1634.28
245.07	1671.14
245.29	1699.81
245.51	1701.86
245.72	1716.20
245.94	1753.06
246.16	1722.34
246.38	1767.40
246.59	1669.09
246.81	1652.71
247.03	1697.77
247.24	1613.80
247.46	1675.24
247.68	1744.87
247.90	1675.24
248.11	1648.61
248.33	1781.73
248.55	1699.81
248.77	1679.33
248.98	1738.73
249.20	1771.49
249.42	1724.39
249.64	1740.77
249.85	1693.67
250.07	1679.33
250.29	1732.58
250.50	1705.96
250.72	1701.86
250.94	1730.53
251.16	1857.51
251.37	1787.88
251.59	1734.63
251.81	1757.16
252.02	1724.39
252.24	1632.23
252.46	1763.30
252.68	1730.53
252.89	1619.94
253.11	1640.42
253.33	1828.84
253.54	1773.54
253.76	1665.00
253.98	1656.81
254.20	1714.15
254.41	1642.47
254.63	1679.33
254.85	1656.81
255.06	1658.85
255.28	1605.61
255.50	1726.44
255.71	1671.14
255.93	1734.63
256.15	1693.67
256.36	1705.96
256.58	1734.63
256.80	1738.73
257.02	1685.48
257.23	1665.00
257.45	1648.61
257.67	1802.21
257.88	1673.19
258.10	1683.43
258.32	1681.38
258.53	1681.38
258.75	1753.06
258.97	1648.61
259.18	1689.57
259.40	1652.71
259.62	1781.73
259.83	1789.92
260.05	1787.88
260.27	1933.28
260.48	1712.10
260.70	1615.85
260.92	1656.81
261.13	1695.72
261.35	1716.20
261.57	1757.16
261.78	1634.28
262.00	1646.57
262.22	1724.39
262.43	1667.05
262.65	1673.19
262.86	1746.92
263.08	1857.51
263.30	1755.11
263.51	1593.32
263.73	1638.38
263.95	1736.68
264.16	1578.98
264.38	1695.72
264.60	1806.31
264.81	1800.16
265.03	1753.06
265.25	1724.39
265.46	1640.42
265.68	1759.21
265.89	1806.31
266.11	1626.09
266.33	1767.40
266.54	1755.11
266.76	1730.53
266.98	1736.68
267.19	1810.40
267.41	1699.81
267.62	1732.58
267.84	1591.27
268.06	1722.34
268.27	1738.73
268.49	1798.12
268.70	1726.44
268.92	1701.86
269.14	1695.72
269.35	1601.51
269.57	1763.30
269.79	1769.44
270.00	1687.53
270.22	1744.87
270.43	1644.52
270.65	1628.14
270.87	1765.35
271.08	1796.07
271.30	1742.82
271.51	1705.96
271.73	1685.48
271.95	1755.11
272.16	1648.61
272.38	1767.40
272.59	1683.43
272.81	1714.15
273.02	1806.31
273.24	1748.97
273.46	1783.78
273.67	1644.52
273.89	1619.94
274.10	1701.86
274.32	1730.53
274.54	1708.01
274.75	1685.48
274.97	1783.78
275.18	1744.87
275.40	1757.16
275.61	1658.85
275.83	1689.57
276.05	1705.96
276.26	1697.77
276.48	1734.63
276.69	1695.72
276.91	1712.10
277.12	1845.22
277.34	1791.97
277.55	1732.58
277.77	1757.16
277.99	1699.81
278.20	1667.05
278.42	1583.08
278.63	1665.00
278.85	1685.48
279.06	1712.10
279.28	1705.96
279.49	1736.68
279.71	1722.34
279.93	1759.21
280.14	1744.87
280.36	1617.90
280.57	1718.25
280.79	1763.30
281.00	1695.72
281.22	1697.77
281.43	1777.64
281.65	1603.56
281.86	1640.42
282.08	1673.19
282.29	1873.89
282.51	1605.61
282.73	1624.04
282.94	1658.85
283.16	1720.29
283.37	1730.53
283.59	1679.33
283.80	1748.97
284.02	1685.48
284.23	1726.44
284.45	1730.53
284.66	1701.86
284.88	1732.58
285.09	1742.82
285.31	1710.05
285.52	1708.01
285.74	1685.48
285.95	1783.78
286.17	1779.68
286.38	1742.82
286.60	1636.33
286.81	1585.13
287.03	1791.97
287.24	1712.10
287.46	1751.01
287.67	1685.48
287.89	1849.32
288.10	1648.61
288.32	1699.81
288.53	1845.22
288.75	1746.92
288.96	1701.86
289.18	1699.81
289.39	1720.29
289.61	1753.06
289.82	1765.35
290.04	1861.60
290.25	1794.02
290.47	1687.53
290.68	1742.82
290.90	1714.15
291.11	1589.22
291.33	1742.82
291.54	1691.62
291.76	1679.33
291.97	1710.05
292.18	1767.40
292.40	1667.05
292.61	1599.46
292.83	1839.08
293.04	1751.01
293.26	1669.09
293.47	1722.34
293.69	1681.38
293.90	1751.01
294.12	1689.57
294.33	1714.15
294.55	1671.14
294.76	1779.68
294.97	1732.58
295.19	1783.78
295.40	1734.63
295.62	1755.11
295.83	1738.73
296.05	1671.14
296.26	1783.78
296.48	1732.58
296.69	1626.09
296.90	1748.97
297.12	1734.63
297.33	1863.65
297.55	1775.59
297.76	1716.20
297.98	1683.43
298.19	1722.34
298.41	1726.44
298.62	1685.48
298.83	1767.40
299.05	1677.29
299.26	1669.09
299.48	1615.85
299.69	1710.05
299.90	1765.35
300.12	1648.61
300.33	1671.14
300.55	1753.06
300.76	1767.40
300.98	1597.42
301.19	1644.52
301.40	1677.29
301.62	1691.62
301.83	1832.93
302.05	1732.58
302.26	1621.99
302.47	1689.57
302.69	1624.04
302.90	1662.95
303.12	1615.85
303.33	1720.29
303.54	1755.11
303.76	1667.05
303.97	1718.25
304.19	1763.30
304.40	1607.66
304.61	1759.21
304.83	1800.16
305.04	1751.01
305.26	1804.26
305.47	1695.72
305.68	1708.01
305.90	1656.81
306.11	1771.49
306.33	1726.44
306.54	1708.01
306.75	1689.57
306.97	1626.09
307.18	1630.18
307.39	1673.19
307.61	1710.05
307.82	1703.91
308.04	1765.35
308.25	1609.70
308.46	1769.44
308.68	1734.63
308.89	1697.77
309.10	1767.40
309.32	1765.35
309.53	1675.24
309.74	1695.72
309.96	1681.38
310.17	1757.16
310.39	1701.86
310.60	1761.25
310.81	1699.81
311.03	1605.61
311.24	1740.77
311.45	1773.54
311.67	1882.08
311.88	1769.44
312.09	1734.63
312.31	1712.10
312.52	1751.01
312.73	1705.96
312.95	1609.70
313.16	1681.38
313.37	1712.10
313.59	1718.25
313.80	1720.29
314.01	1822.69
314.23	1757.16
314.44	1703.91
314.65	1640.42
314.87	1634.28
315.08	1656.81
315.29	1652.71
315.51	1667.05
315.72	1650.66
315.93	1748.97
316.15	1812.45
316.36	1644.52
316.57	1738.73
316.79	1689.57
317.00	1716.20
317.21	1740.77
317.43	1685.48
317.64	1701.86
317.85	1640.42
318.07	1671.14
318.28	1738.73
318.49	1910.75
318.70	2004.96
318.92	1947.62
319.13	1863.65
319.34	1839.08
319.56	1904.61
319.77	1900.52
319.98	1871.84
320.20	1828.84
320.41	1789.92
320.62	1820.64
320.83	1667.05
321.05	1818.60
321.26	1814.50
321.47	1677.29
321.69	1763.30
321.90	1720.29
322.11	1613.80
322.32	1693.67
322.54	1800.16
322.75	1701.86
322.96	1837.03
323.18	1695.72
323.39	1638.38
323.60	1681.38
323.81	1765.35
324.03	1683.43
324.24	1669.09
324.45	1730.53
324.66	1665.00
324.88	1753.06
325.09	1789.92
325.30	1703.91
325.52	1734.63
325.73	1740.77
325.94	1691.62
326.15	1603.56
326.37	1636.33
326.58	1892.32
326.79	1779.68
327.00	1730.53
327.22	1755.11
327.43	1646.57
327.64	1599.46
327.85	1746.92
328.07	1677.29
328.28	1726.44
328.49	1624.04
328.70	1746.92
328.92	1660.90
329.13	1783.78
329.34	1744.87
329.55	1808.36
329.76	1722.34
329.98	1671.14
330.19	1685.48
330.40	1751.01
330.61	1697.77
330.83	1787.88
331.04	1619.94
331.25	1691.62
331.46	1732.58
331.68	1617.90
331.89	1732.58
332.10	1722.34
332.31	1640.42
332.52	1705.96
332.74	1779.68
332.95	1699.81
333.16	1701.86
333.37	1759.21
333.58	1644.52
333.80	1697.77
334.01	1599.46
334.22	1662.95
334.43	1720.29
334.64	1673.19
334.86	1683.43
335.07	1648.61
335.28	1798.12
335.49	1630.18
335.70	1699.81
335.92	1798.12
336.13	1796.07
336.34	1765.35
336.55	1779.68
336.76	1714.15
336.98	1617.90
337.19	1667.05
337.40	1753.06
337.61	1886.18
337.82	1669.09
338.04	1669.09
338.25	1703.91
338.46	1714.15
338.67	1730.53
338.88	1718.25
339.09	1695.72
339.31	1734.63
339.52	1632.23
339.73	1607.66
339.94	1773.54
340.15	1771.49
340.36	1654.76
340.58	1730.53
340.79	1630.18
341.00	1703.91
341.21	1685.48
341.42	1832.93
341.63	1681.38
341.85	1759.21
342.06	1718.25
342.27	1642.47
342.48	1697.77
342.69	1656.81
342.90	1730.53
343.12	1738.73
343.33	1642.47
343.54	1662.95
343.75	1855.46
343.96	1660.90
344.17	1693.67
344.38	1683.43
344.60	1710.05
344.81	1607.66
345.02	1720.29
345.23	1845.22
345.44	1877.99
345.65	1826.79
345.86	1751.01
346.07	1755.11
346.29	1679.33
346.50	1665.00
346.71	1787.88
346.92	1779.68
347.13	1857.51
347.34	1689.57
347.55	1636.33
347.76	1748.97
347.98	1642.47
348.19	1679.33
348.40	1775.59
348.61	1685.48
348.82	1751.01
349.03	1716.20
349.24	1648.61
349.45	1824.74
349.66	1566.70
349.88	1722.34
350.09	1624.04
350.30	1796.07
350.51	1765.35
350.72	1689.57
350.93	1705.96
351.14	1763.30
351.35	1757.16
351.56	1695.72
351.77	1673.19
351.99	1675.24
352.20	1812.45
352.41	1781.73
352.62	1542.12
352.83	1681.38
353.04	1736.68
353.25	1615.85
353.46	1775.59
353.67	1773.54
353.88	1662.95
354.09	1691.62
354.30	1755.11
354.52	1705.96
354.73	1714.15
354.94	1732.58
355.15	1718.25
355.36	1837.03
355.57	1634.28
355.78	1683.43
355.99	1658.85
356.20	1753.06
356.41	1781.73
356.62	1734.63
356.83	1708.01
357.04	1783.78
357.25	1636.33
357.46	1654.76
357.68	1601.51
357.89	1722.34
358.10	1722.34
358.31	1726.44
358.52	1767.40
358.73	1662.95
358.94	1632.23
359.15	1654.76
359.36	1785.83
359.57	1660.90
359.78	1646.57
359.99	1759.21
360.20	1638.38
360.41	1654.76
360.62	1705.96
360.83	1787.88
361.04	1783.78
361.25	1640.42
361.46	1828.84
361.67	1722.34
361.88	1794.02
362.09	1736.68
362.30	1673.19
362.51	1740.77
362.72	1726.44
362.93	1769.44
363.14	1705.96
363.35	1705.96
363.56	1669.09
363.78	1748.97
363.99	1738.73
364.20	1710.05
364.41	1683.43
364.62	1751.01
364.83	1703.91
365.04	1732.58
365.25	1710.05
365.46	1818.60
365.67	1691.62
365.88	1703.91
366.09	1751.01
366.30	1708.01
366.51	1712.10
366.72	1703.91
366.93	1619.94
367.14	1679.33
367.35	1794.02
367.56	1703.91
367.77	1787.88
367.98	1705.96
368.18	1681.38
368.39	1820.64
368.60	1630.18
368.81	1839.08
369.02	1732.58
369.23	1677.29
369.44	1683.43
369.65	1675.24
369.86	1728.49
370.07	1746.92
370.28	1621.99
370.49	1751.01
370.70	1746.92
370.91	1585.13
371.12	1603.56
371.33	1839.08
371.54	1656.81
371.75	1769.44
371.96	1640.42
372.17	1703.91
372.38	1636.33
372.59	1746.92
372.80	1724.39
373.01	1689.57
373.22	1675.24
373.43	1689.57
373.64	1626.09
373.85	1763.30
374.06	1863.65
374.26	1773.54
374.47	1689.57
374.68	1806.31
374.89	1697.77
375.10	1714.15
375.31	1800.16
375.52	1693.67
375.73	1689.57
375.94	1677.29
376.15	1824.74
376.36	1599.46
376.57	1691.62
376.78	1634.28
376.99	1740.77
377.20	1771.49
377.40	1679.33
377.61	1759.21
377.82	1697.77
378.03	1738.73
378.24	1718.25
378.45	1734.63
378.66	1673.19
378.87	1685.48
379.08	1640.42
379.29	1714.15
379.50	1765.35
379.71	1603.56
379.91	1775.59
380.12	1767.40
380.33	1677.29
380.54	1667.05
380.75	1708.01
380.96	1738.73
381.17	1794.02
381.38	1740.77
381.59	1705.96
381.80	1771.49
382.00	1949.67
382.21	1757.16
382.42	1880.04
382.63	1898.47
382.84	1755.11
383.05	1781.73
383.26	1791.97
383.47	1732.58
383.68	1820.64
383.88	1695.72
384.09	1724.39
384.30	1810.40
384.51	1722.34
384.72	1673.19
384.93	1640.42
385.14	1697.77
385.35	1787.88
385.55	1632.23
385.76	1767.40
385.97	1728.49
386.18	1677.29
386.39	1787.88
386.60	1660.90
386.81	1740.77
387.02	1714.15
387.22	1607.66
387.43	1806.31
387.64	1865.70
387.85	1859.56
388.06	2226.14
388.27	4788.15
388.48	9211.76
388.68	11824.97
388.89	13715.25
389.10	14403.36
389.31	12257.09
389.52	9834.35
389.73	8621.95
389.93	7794.57
390.14	7399.31
390.35	6645.66
390.56	6129.57
390.77	5130.16
390.98	4016.07
391.18	3059.67
391.39	2447.32
391.60	1992.67
391.81	1800.16
392.02	1818.60
392.23	1839.08
392.43	1746.92
392.64	1900.52
392.85	1779.68
393.06	1822.69
393.27	1695.72
393.47	1644.52
393.68	1667.05
393.89	1714.15
394.10	1767.40
394.31	1677.29
394.52	1656.81
394.72	1699.81
394.93	1796.07
395.14	1726.44
395.35	1818.60
395.56	1667.05
395.76	1740.77
395.97	1802.21
396.18	1873.89
396.39	1992.67
396.60	2013.15
396.80	1974.24
397.01	1888.23
397.22	1796.07
397.43	1810.40
397.64	1855.46
397.84	1796.07
398.05	1892.32
398.26	1845.22
398.47	1818.60
398.67	1839.08
398.88	1751.01
399.09	1826.79
399.30	1652.71
399.51	1818.60
399.71	1597.42
399.92	1689.57
400.13	1726.44
400.34	1712.10
400.54	1757.16
400.75	1796.07
400.96	1763.30
401.17	1812.45
401.37	1761.25
401.58	1695.72
401.79	1687.53
402.00	1824.74
402.21	2021.35
402.41	1970.15
402.62	2107.36
402.83	2183.13
403.04	2090.98
403.24	2152.42
403.45	1933.28
403.66	2007.01
403.87	1877.99
404.07	1939.43
404.28	1970.15
404.49	1886.18
404.70	1777.64
404.90	1824.74
405.11	1744.87
405.32	1703.91
405.52	1619.94
405.73	1701.86
405.94	1673.19
406.15	1791.97
406.35	1759.21
406.56	1763.30
406.77	1669.09
406.98	1783.78
407.18	1736.68
407.39	1720.29
407.60	1716.20
407.80	1722.34
408.01	1693.67
408.22	1804.26
408.43	1673.19
408.63	1804.26
408.84	1740.77
409.05	1738.73
409.25	1738.73
409.46	1699.81
409.67	1640.42
409.88	1669.09
410.08	1767.40
410.29	1763.30
410.50	1765.35
410.70	1755.11
410.91	1669.09
411.12	1767.40
411.32	1773.54
411.53	1677.29
411.74	1849.32
411.95	1849.32
412.15	1806.31
412.36	1806.31
412.57	1826.79
412.77	1863.65
412.98	1796.07
413.19	1701.86
413.39	1804.26
413.60	1738.73
413.81	1824.74
414.01	1755.11
414.22	1728.49
414.43	1722.34
414.63	1691.62
414.84	1783.78
415.05	1755.11
415.25	1630.18
415.46	1697.77
415.67	1644.52
415.87	1748.97
416.08	1732.58
416.29	1650.66
416.49	1763.30
416.70	1683.43
416.91	1726.44
417.11	1732.58
417.32	1789.92
417.53	1781.73
417.73	1730.53
417.94	1665.00
418.15	1660.90
418.35	1738.73
418.56	1720.29
418.77	1814.50
418.97	1703.91
419.18	1710.05
419.38	1644.52
419.59	1665.00
419.80	1804.26
420.00	1726.44
420.21	1687.53
420.42	1783.78
420.62	1728.49
420.83	1599.46
421.04	1665.00
421.24	1624.04
421.45	1804.26
421.65	1701.86
421.86	1689.57
422.07	1724.39
422.27	1691.62
422.48	1748.97
422.69	1642.47
422.89	1751.01
423.10	1693.67
423.30	1621.99
423.51	1730.53
423.72	1699.81
423.92	1748.97
424.13	1683.43
424.33	1736.68
424.54	1748.97
424.75	1691.62
424.95	1781.73
425.16	1771.49
425.36	1638.38
425.57	1763.30
425.78	1794.02
425.98	1806.31
426.19	1656.81
426.39	1699.81
426.60	1687.53
426.81	1818.60
427.01	1800.16
427.22	1677.29
427.42	1675.24
427.63	1697.77
427.83	1763.30
428.04	1839.08
428.25	1804.26
428.45	1787.88
428.66	1771.49
428.86	1665.00
429.07	1693.67
429.28	1685.48
429.48	1708.01
429.69	1697.77
429.89	1796.07
430.10	1662.95
430.30	1751.01
430.51	1730.53
430.71	1656.81
430.92	1769.44
431.13	1728.49
431.33	1681.38
431.54	1705.96
431.74	1779.68
431.95	1802.21
432.15	1626.09
432.36	1716.20
432.56	1816.55
432.77	1865.70
432.98	1800.16
433.18	1722.34
433.39	1685.48
433.59	1746.92
433.80	1812.45
434.00	1918.95
434.21	1638.38
434.41	1624.04
434.62	1904.61
434.82	1615.85
435.03	1671.14
435.23	1712.10
435.44	1673.19
435.64	1791.97
435.85	1695.72
436.06	1804.26
436.26	1724.39
436.47	1734.63
436.67	1675.24
436.88	1705.96
437.08	1683.43
437.29	1841.12
437.49	1812.45
437.70	1787.88
437.90	1779.68
438.11	1886.18
438.31	1849.32
438.52	1918.95
438.72	1947.62
438.93	1976.29
439.13	1871.84
439.34	1814.50
439.54	1779.68
439.75	1818.60
439.95	1789.92
440.16	1785.83
440.36	1773.54
440.57	1796.07
440.77	1748.97
440.98	1720.29
441.18	1789.92
441.39	1738.73
441.59	1722.34
441.80	1837.03
442.00	1738.73
442.21	1804.26
442.41	1679.33
442.62	1773.54
442.82	1710.05
443.02	1730.53
443.23	1736.68
443.43	1744.87
443.64	1763.30
443.84	1789.92
444.05	1757.16
444.25	1816.55
444.46	1703.91
444.66	1712.10
444.87	1865.70
445.07	1736.68
445.28	1738.73
445.48	1830.88
445.69	1687.53
445.89	1861.60
446.09	1769.44
446.30	1984.48
446.50	2576.34
446.71	4153.28
446.91	5177.26
447.12	5711.78
447.32	6098.85
447.53	5347.25
447.73	4528.06
447.93	3925.96
448.14	3706.82
448.34	3504.07
448.55	3098.58
448.75	3114.96
448.96	3016.66
449.16	2723.80
449.36	2293.72
449.57	2095.07
449.77	1906.66
449.98	1759.21
450.18	1839.08
450.39	1861.60
450.59	1730.53
450.79	1769.44
451.00	1710.05
451.20	1779.68
451.41	1730.53
451.61	1726.44
451.81	1779.68
452.02	1843.17
452.22	1734.63
452.43	1681.38
452.63	1619.94
452.84	1662.95
453.04	1716.20
453.24	1775.59
453.45	1701.86
453.65	1744.87
453.86	1705.96
454.06	1810.40
454.26	1755.11
454.47	1677.29
454.67	1742.82
454.87	1789.92
455.08	1652.71
455.28	1820.64
455.49	1734.63
455.69	1708.01
455.89	1894.37
456.10	1761.25
456.30	1753.06
456.51	1746.92
456.71	1746.92
456.91	1699.81
457.12	1748.97
457.32	1710.05
457.52	1624.04
457.73	1816.55
457.93	1773.54
458.14	1699.81
458.34	1677.29
458.54	1732.58
458.75	1712.10
458.95	1763.30
459.15	1753.06
459.36	1765.35
459.56	1759.21
459.76	1847.27
459.97	1763.30
460.17	1681.38
460.37	1826.79
460.58	1841.12
460.78	1714.15
460.99	1634.28
461.19	1708.01
461.39	1677.29
461.60	1675.24
461.80	1789.92
462.00	1681.38
462.21	1648.61
462.41	1710.05
462.61	1628.14
462.82	1619.94
463.02	1671.14
463.22	1693.67
463.43	1765.35
463.63	1761.25
463.83	1812.45
464.04	1740.77
464.24	1730.53
464.44	1679.33
464.64	1736.68
464.85	1748.97
465.05	1806.31
465.25	1677.29
465.46	1654.76
465.66	1779.68
465.86	1794.02
466.07	1708.01
466.27	1677.29
466.47	1662.95
466.68	1611.75
466.88	1875.94
467.08	1798.12
467.29	1765.35
467.49	1748.97
467.69	1769.44
467.89	1802.21
468.10	1724.39
468.30	1779.68
468.50	1748.97
468.71	1808.36
468.91	1726.44
469.11	1857.51
469.31	1726.44
469.52	1677.29
469.72	1798.12
469.92	1861.60
470.13	1714.15
470.33	1742.82
470.53	1773.54
470.73	2193.37
470.94	2506.71
471.14	2672.60
471.34	2994.13
471.54	2885.59
471.75	2486.23
471.95	2357.21
472.15	2211.81
472.36	2238.43
472.56	2238.43
472.76	2168.80
472.96	2088.93
473.17	2050.02
473.37	1986.53
473.57	1904.61
473.77	1918.95
473.98	1730.53
474.18	1689.57
474.38	1834.98
474.58	1669.09
474.79	1691.62
474.99	1716.20
475.19	1855.46
475.39	1607.66
475.60	1748.97
475.80	1753.06
476.00	1712.10
476.20	1679.33
476.41	1746.92
476.61	1826.79
476.81	1771.49
477.01	1658.85
477.21	1865.70
477.42	1828.84
477.62	1609.70
477.82	1859.56
478.02	1759.21
478.23	1701.86
478.43	1679.33
478.63	1648.61
478.83	1714.15
479.03	1710.05
479.24	1814.50
479.44	1748.97
479.64	1626.09
479.84	1658.85
480.04	1583.08
480.25	1800.16
480.45	1656.81
480.65	1660.90
480.85	1757.16
481.06	1679.33
481.26	1765.35
481.46	1755.11
481.66	1726.44
481.86	1730.53
482.06	1787.88
482.27	1650.66
482.47	1720.29
482.67	1753.06
482.87	1710.05
483.07	1736.68
483.28	1632.23
483.48	1691.62
483.68	1656.81
483.88	1626.09
484.08	1632.23
484.29	1683.43
484.49	1705.96
484.69	1601.51
484.89	1791.97
485.09	1738.73
485.29	1765.35
485.50	1708.01
485.70	1804.26
485.90	1808.36
486.10	1755.11
486.30	1812.45
486.50	1773.54
486.71	1716.20
486.91	1830.88
487.11	1875.94
487.31	1681.38
487.51	1726.44
487.71	1673.19
487.91	1656.81
488.12	1640.42
488.32	1628.14
488.52	1681.38
488.72	1662.95
488.92	1742.82
489.12	1789.92
489.32	1771.49
489.53	1791.97
489.73	1648.61
489.93	1916.90
490.13	1703.91
490.33	1683.43
490.53	1697.77
490.73	1869.80
490.94	1693.67
491.14	1775.59
491.34	1761.25
491.54	2103.26
491.74	2664.41
491.94	3233.74
492.14	3504.07
492.34	3622.86
492.54	3069.91
492.75	2791.38
492.95	2584.54
493.15	2541.53
493.35	2361.31
493.55	2310.11
493.75	2226.14
493.95	2263.01
494.15	2058.21
494.35	2009.06
494.56	1880.04
494.76	1794.02
494.96	1738.73
495.16	1816.55
495.36	1761.25
495.56	1757.16
495.76	1763.30
495.96	1699.81
496.16	1695.72
496.36	1828.84
496.56	1757.16
496.77	1761.25
496.97	1777.64
497.17	1775.59
497.37	1646.57
497.57	1751.01
497.77	1742.82
497.97	1640.42
498.17	1720.29
498.37	1701.86
498.57	1748.97
498.77	1826.79
498.97	1734.63
499.17	1847.27
499.38	1730.53
499.58	1851.36
499.78	1777.64
499.98	1892.32
500.18	1740.77
500.38	1820.64
500.58	1882.08
500.78	2406.36
500.98	4691.90
501.18	6829.98
501.38	8286.08
501.58	9201.52
501.78	8804.22
501.98	7036.82
502.18	5855.14
502.38	5013.43
502.58	4505.53
502.78	4147.14
502.98	3887.04
503.18	3848.13
503.38	3502.03
503.59	3172.30
503.79	2813.91
503.99	2674.65
504.19	2381.79
504.39	2373.60
504.59	2381.79
504.79	2344.92
504.99	2242.53
505.19	2136.03
505.39	2000.87
505.59	2086.88
505.79	2009.06
505.99	1929.19
506.19	1908.71
506.39	1920.99
506.59	1826.79
506.79	1781.73
506.99	1933.28
507.19	1738.73
507.39	1794.02
507.59	1705.96
507.79	1683.43
507.99	1646.57
508.19	1654.76
508.39	1718.25
508.59	1695.72
508.79	1830.88
508.99	1873.89
509.19	1710.05
509.39	1785.83
509.59	1712.10
509.79	1716.20
509.99	1757.16
510.19	1798.12
510.39	1730.53
510.59	1730.53
510.79	1691.62
510.99	1732.58
511.19	1759.21
511.39	1855.46
511.59	1755.11
511.79	1746.92
511.99	1718.25
512.19	1845.22
512.38	1599.46
512.58	1722.34
512.78	1734.63
512.98	1800.16
513.18	1748.97
513.38	1667.05
513.58	1804.26
513.78	1701.86
513.98	1726.44
514.18	1736.68
514.38	1728.49
514.58	1777.64
514.78	1763.30
514.98	1724.39
515.18	1695.72
515.38	1660.90
515.58	1826.79
515.78	1738.73
515.98	1689.57
516.18	1808.36
516.38	1658.85
516.57	1718.25
516.77	1703.91
516.97	1710.05
517.17	1742.82
517.37	1656.81
517.57	1767.40
517.77	1757.16
517.97	1722.34
518.17	1757.16
518.37	1730.53
518.57	1755.11
518.77	1726.44
518.97	1734.63
519.16	1734.63
519.36	1714.15
519.56	1765.35
519.76	1691.62
519.96	1808.36
520.16	1834.98
520.36	1722.34
520.56	1826.79
520.76	1755.11
520.96	1742.82
521.16	1681.38
521.35	1755.11
521.55	1816.55
521.75	1669.09
521.95	1695.72
522.15	1716.20
522.35	1683.43
522.55	1621.99
522.75	1845.22
522.95	1628.14
523.14	1665.00
523.34	1767.40
523.54	1755.11
523.74	1847.27
523.94	1771.49
524.14	1734.63
524.34	1753.06
524.54	1763.30
524.73	1671.14
524.93	1845.22
525.13	1685.48
525.33	1607.66
525.53	1888.23
525.73	1761.25
525.93	1765.35
526.13	1683.43
526.32	1730.53
526.52	1705.96
526.72	1773.54
526.92	1695.72
527.12	1681.38
527.32	1705.96
527.52	1722.34
527.71	1675.24
527.91	1761.25
528.11	1699.81
528.31	1712.10
528.51	1654.76
528.71	1769.44
528.90	1828.84
529.10	1779.68
529.30	1906.66
529.50	1566.70
529.70	1732.58
529.90	1718.25
530.09	1730.53
530.29	1681.38
530.49	1708.01
530.69	1902.56
530.89	1703.91
531.09	1730.53
531.28	1736.68
531.48	1818.60
531.68	1722.34
531.88	1744.87
532.08	1834.98
532.28	1771.49
532.47	1777.64
532.67	1841.12
532.87	1759.21
533.07	1675.24
533.27	1810.40
533.46	1814.50
533.66	1757.16
533.86	1769.44
534.06	1775.59
534.26	1759.21
534.45	1736.68
534.65	1865.70
534.85	1841.12
535.05	1738.73
535.25	1791.97
535.44	1607.66
535.64	1812.45
535.84	1681.38
536.04	1740.77
536.24	1722.34
536.43	1648.61
536.63	1726.44
536.83	1689.57
537.03	1783.78
537.22	1603.56
537.42	1671.14
537.62	1693.67
537.82	1714.15
538.02	1800.16
538.21	1841.12
538.41	1906.66
538.61	1783.78
538.81	1718.25
539.00	1759.21
539.20	1720.29
539.40	1724.39
539.60	1710.05
539.79	1746.92
539.99	1712.10
540.19	1693.67
540.39	1740.77
540.58	1779.68
540.78	1804.26
540.98	1757.16
541.18	1736.68
541.37	1789.92
541.57	1769.44
541.77	1755.11
541.97	1667.05
542.16	1656.81
542.36	1701.86
542.56	1761.25
542.76	1875.94
542.95	1816.55
543.15	1746.92
543.35	1804.26
543.54	1681.38
543.74	1705.96
543.94	1849.32
544.14	1753.06
544.33	1820.64
544.53	1740.77
544.73	1751.01
544.93	1722.34
545.12	1703.91
545.32	1796.07
545.52	1722.34
545.71	1701.86
545.91	1748.97
546.11	1779.68
546.30	1732.58
546.50	1781.73
546.70	1740.77
546.90	1771.49
547.09	1708.01
547.29	1736.68
547.49	1783.78
547.68	1773.54
547.88	1689.57
548.08	1714.15
548.27	2146.27
548.47	1703.91
548.67	1683.43
548.87	1843.17
549.06	1767.40
549.26	1761.25
549.46	1683.43
549.65	1669.09
549.85	1722.34
550.05	1712.10
550.24	1689.57
550.44	1708.01
550.64	1826.79
550.83	1783.78
551.03	1886.18
551.23	1812.45
551.42	1755.11
551.62	1740.77
551.82	1765.35
552.01	1689.57
552.21	1863.65
552.41	1757.16
552.60	1771.49
552.80	1718.25
553.00	1687.53
553.19	1720.29
553.39	1810.40
553.59	1636.33
553.78	1763.30
553.98	1683.43
554.17	1714.15
554.37	1728.49
554.57	1763.30
554.76	1730.53
554.96	1693.67
555.16	1781.73
555.35	1705.96
555.55	1771.49
555.75	1763.30
555.94	1796.07
556.14	1685.48
556.33	1726.44
556.53	1787.88
556.73	1691.62
556.92	1800.16
557.12	1865.70
557.32	1865.70
557.51	1789.92
557.71	1751.01
557.90	1904.61
558.10	1843.17
558.30	1613.80
558.49	1710.05
558.69	1705.96
558.88	1751.01
559.08	1660.90
559.28	1712.10
559.47	1771.49
559.67	1802.21
559.86	1910.75
560.06	1820.64
560.26	1658.85
560.45	1742.82
560.65	1789.92
560.84	1843.17
561.04	1689.57
561.24	1781.73
561.43	1665.00
561.63	1798.12
561.82	1685.48
562.02	1757.16
562.22	1681.38
562.41	1681.38
562.61	1730.53
562.80	1789.92
563.00	1800.16
563.19	1753.06
563.39	1820.64
563.59	1794.02
563.78	1683.43
563.98	1685.48
564.17	1644.52
564.37	1656.81
564.56	1748.97
564.76	1671.14
564.96	1845.22
565.15	1767.40
565.35	1867.75
565.54	1777.64
565.74	1742.82
565.93	1728.49
566.13	1699.81
566.32	1808.36
566.52	1708.01
566.71	1763.30
566.91	1804.26
567.11	1710.05
567.30	1675.24
567.50	1822.69
567.69	1767.40
567.89	1740.77
568.08	1689.57
568.28	1769.44
568.47	1687.53
568.67	1794.02
568.86	1665.00
569.06	1781.73
569.25	1763.30
569.45	1703.91
569.64	1744.87
569.84	1669.09
570.04	1687.53
570.23	1644.52
570.43	1705.96
570.62	1746.92
570.82	1822.69
571.01	1667.05
571.21	1656.81
571.40	1660.90
571.60	1773.54
571.79	1732.58
571.99	1751.01
572.18	1652.71
572.38	1796.07
572.57	1714.15
572.77	1763.30
572.96	1847.27
573.16	1722.34
573.35	1732.58
573.55	1861.60
573.74	1783.78
573.94	1683.43
574.13	1738.73
574.33	1763.30
574.52	1841.12
574.71	1804.26
574.91	1802.21
575.10	1714.15
575.30	1755.11
575.49	1695.72
575.69	1699.81
575.88	1863.65
576.08	1693.67
576.27	1867.75
576.47	1851.36
576.66	1959.91
576.86	1837.03
577.05	1787.88
577.25	1826.79
577.44	1890.28
577.64	1712.10
577.83	1822.69
578.02	1781.73
578.22	1839.08
578.41	1884.13
578.61	1767.40
578.80	1660.90
579.00	1804.26
579.19	1781.73
579.39	1808.36
579.58	1810.40
579.77	1689.57
579.97	1802.21
580.16	1837.03
580.36	1779.68
580.55	1871.84
580.75	1841.12
580.94	1728.49
581.13	1896.42
581.33	1863.65
581.52	1757.16
581.72	1939.43
581.91	1902.56
582.11	1722.34
582.30	1877.99
582.49	1705.96
582.69	1929.19
582.88	1759.21
583.08	1763.30
583.27	1906.66
583.47	1773.54
583.66	1783.78
583.85	1687.53
584.05	1755.11
584.24	1798.12
584.44	1875.94
584.63	1902.56
584.82	1902.56
585.02	1873.89
585.21	1896.42
585.41	1951.71
585.60	1882.08
585.79	1982.43
585.99	2009.06
586.18	1927.14
586.37	2256.86
586.57	3260.37
586.76	9989.99
586.96	27543.13
587.15	42362.23
587.34	52192.48
587.54	58627.20
587.73	56751.26
587.93	40656.28
588.12	29746.75
588.31	24241.81
588.51	20430.54
588.70	18691.81
588.89	17209.08
589.09	15634.19
589.28	13760.30
589.47	11603.79
589.67	9615.21
589.86	7546.76
590.06	5582.76
590.25	4190.14
590.44	3184.59
590.64	2678.74
590.83	2236.38
591.02	2115.55
591.22	2021.35
591.41	1894.37
591.60	1810.40
591.80	1964.00
591.99	1751.01
592.18	1746.92
592.38	1828.84
592.57	1787.88
592.76	1765.35
592.96	1777.64
593.15	1748.97
593.34	1781.73
593.54	1814.50
593.73	1865.70
593.92	1849.32
594.12	1779.68
594.31	1798.12
594.50	1859.56
594.70	1804.26
594.89	1947.62
595.08	1728.49
595.28	1837.03
595.47	1994.72
595.66	1779.68
595.86	1636.33
596.05	1798.12
596.24	1759.21
596.43	1837.03
596.63	1912.80
596.82	1761.25
597.01	1834.98
597.21	1822.69
597.40	1810.40
597.59	1734.63
597.79	1701.86
597.98	1861.60
598.17	1800.16
598.36	1820.64
598.56	1765.35
598.75	1689.57
598.94	1775.59
599.14	1843.17
599.33	1767.40
599.52	1753.06
599.71	1841.12
599.91	1822.69
600.10	1839.08
600.29	1714.15
600.48	1748.97
600.68	1832.93
600.87	1773.54
601.06	1669.09
601.26	1857.51
601.45	1814.50
601.64	1693.67
601.83	1877.99
602.03	1740.77
602.22	1632.23
602.41	1900.52
602.60	1884.13
602.80	1726.44
602.99	1791.97
603.18	1703.91
603.37	1691.62
603.57	1738.73
603.76	1732.58
603.95	1810.40
604.14	1665.00
604.34	1693.67
604.53	1654.76
604.72	1837.03
604.91	1791.97
605.10	1816.55
605.30	1730.53
605.49	1853.41
605.68	1787.88
605.87	1746.92
606.07	1777.64
606.26	1697.77
606.45	1740.77
606.64	1757.16
606.84	1763.30
607.03	1816.55
607.22	1865.70
607.41	1761.25
607.60	1740.77
607.80	1843.17
607.99	1746.92
608.18	1763.30
608.37	1740.77
608.56	1660.90
608.76	1734.63
608.95	1869.80
609.14	1828.84
609.33	1890.28
609.52	1910.75
609.72	1841.12
609.91	1890.28
610.10	1828.84
610.29	1955.81
610.48	1789.92
610.68	1765.35
610.87	1800.16
611.06	1798.12
611.25	1738.73
611.44	1812.45
611.63	1789.92
611.83	1810.40
612.02	1693.67
612.21	1787.88
612.40	1601.51
612.59	1648.61
612.79	1665.00
612.98	1820.64
613.17	1869.80
613.36	1714.15
613.55	1888.23
613.74	1744.87
613.93	1896.42
614.13	1945.57
614.32	2007.01
614.51	1857.51
614.70	1841.12
614.89	1716.20
615.08	1886.18
615.28	2228.19
615.47	1802.21
615.66	1808.36
615.85	1845.22
616.04	1902.56
616.23	1781.73
616.42	1802.21
616.62	1843.17
616.81	1755.11
617.00	1761.25
617.19	1736.68
617.38	1720.29
617.57	1699.81
617.76	1755.11
617.95	1810.40
618.15	1816.55
618.34	1853.41
618.53	1683.43
618.72	1888.23
618.91	1847.27
619.10	1863.65
619.29	1671.14
619.48	1796.07
619.68	1708.01
619.87	1732.58
620.06	1701.86
620.25	1808.36
620.44	1738.73
620.63	1691.62
620.82	1693.67
621.01	1804.26
621.20	1746.92
621.39	1804.26
621.59	1714.15
621.78	1816.55
621.97	1724.39
622.16	1763.30
622.35	1794.02
622.54	1812.45
622.73	1730.53
622.92	1714.15
623.11	1824.74
623.30	1771.49
623.49	1748.97
623.68	1746.92
623.88	1826.79
624.07	1646.57
624.26	1695.72
624.45	1751.01
624.64	1681.38
624.83	1730.53
625.02	1669.09
625.21	1783.78
625.40	1794.02
625.59	1798.12
625.78	1701.86
625.97	1839.08
626.16	1884.13
626.35	1832.93
626.54	1761.25
626.74	1898.47
626.93	1789.92
627.12	1779.68
627.31	1875.94
627.50	1853.41
627.69	1812.45
627.88	1669.09
628.07	1722.34
628.26	1636.33
628.45	1679.33
628.64	1708.01
628.83	1734.63
629.02	1644.52
629.21	1748.97
629.40	1765.35
629.59	1718.25
629.78	1693.67
629.97	1683.43
630.16	1798.12
630.35	1744.87
630.54	1689.57
630.73	1740.77
630.92	1794.02
631.11	1703.91
631.30	1761.25
631.49	1767.40
631.68	1699.81
631.87	1822.69
632.06	1681.38
632.25	1959.91
632.44	1765.35
632.63	1800.16
632.82	1859.56
633.01	1714.15
633.20	1834.98
633.39	1802.21
633.58	1701.86
633.77	1765.35
633.96	1738.73
634.15	1789.92
634.34	1783.78
634.53	1808.36
634.72	1687.53
634.91	1742.82
635.10	1779.68
635.29	1781.73
635.48	1732.58
635.67	1705.96
635.86	1652.71
636.05	1849.32
636.24	1697.77
636.43	1751.01
636.62	1759.21
636.81	1535.98
637.00	1701.86
637.19	1763.30
637.38	1708.01
637.57	1742.82
637.76	1759.21
637.95	1834.98
638.14	1837.03
638.33	1841.12
638.52	1808.36
638.71	1767.40
638.89	1650.66
639.08	1859.56
639.27	1802.21
639.46	1845.22
639.65	2191.33
639.84	2238.43
640.03	2402.27
640.22	2396.12
640.41	2402.27
640.60	2021.35
640.79	2111.46
640.98	1937.38
641.17	2027.49
641.36	1910.75
641.55	1867.75
641.74	1851.36
641.92	1798.12
642.11	1730.53
642.30	1781.73
642.49	1669.09
642.68	1763.30
642.87	1742.82
643.06	1738.73
643.25	1675.24
643.44	1726.44
643.63	1730.53
643.82	1775.59
644.00	1679.33
644.19	1726.44
644.38	1673.19
644.57	1699.81
644.76	1773.54
644.95	1726.44
645.14	1742.82
645.33	1689.57
645.52	1718.25
645.71	1714.15
645.89	1755.11
646.08	1734.63
646.27	1783.78
646.46	1865.70
646.65	1703.91
646.84	1779.68
647.03	1636.33
647.22	1820.64
647.40	1671.14
647.59	1603.56
647.78	1695.72
647.97	1681.38
648.16	1636.33
648.35	1820.64
648.54	1787.88
648.73	1728.49
648.91	1714.15
649.10	1703.91
649.29	1671.14
649.48	1689.57
649.67	1734.63
649.86	1834.98
650.05	1751.01
650.23	1916.90
650.42	1787.88
650.61	1931.23
650.80	1837.03
650.99	1892.32
651.18	1796.07
651.36	1914.85
651.55	1845.22
651.74	1839.08
651.93	1796.07
652.12	1701.86
652.31	1718.25
652.49	1828.84
652.68	1730.53
652.87	1773.54
653.06	1755.11
653.25	1849.32
653.44	1744.87
653.62	1791.97
653.81	1734.63
654.00	1695.72
654.19	1810.40
654.38	1861.60
654.56	1773.54
654.75	1753.06
654.94	1802.21
655.13	1708.01
655.32	1728.49
655.51	1834.98
655.69	1712.10
655.88	1779.68
656.07	1671.14
656.26	1730.53
656.45	1751.01
656.63	1726.44
656.82	1785.83
657.01	1773.54
657.20	1662.95
657.38	1773.54
657.57	1720.29
657.76	1607.66
657.95	1759.21
658.14	1671.14
658.32	1738.73
658.51	1652.71
658.70	1759.21
658.89	1714.15
659.08	1738.73
659.26	1828.84
659.45	1767.40
659.64	1767.40
659.83	1755.11
660.01	1984.48
660.20	1853.41
660.39	1841.12
660.58	1648.61
660.76	1708.01
660.95	1667.05
661.14	1738.73
661.33	1697.77
661.51	1652.71
661.70	1646.57
661.89	1779.68
662.08	1699.81
662.26	1673.19
662.45	1703.91
662.64	1802.21
662.83	1763.30
663.01	1630.18
663.20	1695.72
663.39	1894.37
663.58	1640.42
663.76	1800.16
663.95	1738.73
664.14	1710.05
664.32	1695.72
664.51	1718.25
664.70	1705.96
664.89	1748.97
665.07	1703.91
665.26	1722.34
665.45	1585.13
665.64	1773.54
665.82	1665.00
666.01	1802.21
666.20	1669.09
666.38	1730.53
666.57	1810.40
666.76	2312.16
666.95	4683.70
667.13	11540.30
667.32	18902.75
667.51	22380.20
667.69	25114.24
667.88	25656.95
668.07	19650.26
668.25	14499.62
668.44	11968.33
668.63	10004.33
668.81	8757.11
669.00	7800.71
669.19	6989.72
669.38	6186.91
669.56	5396.40
669.75	4538.30
669.94	3731.40
670.12	3211.22
670.31	2670.55
670.50	2412.51
670.68	2119.65
670.87	1955.81
671.06	1892.32
671.24	1861.60
671.43	1902.56
671.62	1869.80
671.80	1724.39
671.99	1820.64
672.18	1753.06
672.36	1853.41
672.55	1818.60
672.74	1699.81
672.92	1705.96
673.11	1798.12
673.29	1685.48
673.48	1828.84
673.67	1726.44
673.85	1765.35
674.04	1638.38
674.23	1705.96
674.41	1705.96
674.60	1642.47
674.79	1669.09
674.97	1650.66
675.16	1802.21
675.34	1742.82
675.53	1730.53
675.72	1708.01
675.90	1755.11
676.09	1738.73
676.28	1691.62
676.46	1662.95
676.65	1701.86
676.83	1730.53
677.02	1679.33
677.21	1714.15
677.39	1732.58
677.58	1611.75
677.77	1691.62
677.95	1667.05
678.14	1763.30
678.32	1624.04
678.51	1638.38
678.70	1933.28
678.88	1716.20
679.07	1683.43
679.25	1724.39
679.44	1714.15
679.63	1619.94
679.81	1656.81
680.00	1869.80
680.18	1783.78
680.37	1875.94
680.55	1720.29
680.74	1607.66
680.93	1603.56
681.11	1738.73
681.30	1701.86
681.48	1746.92
681.67	1705.96
681.85	1734.63
682.04	1714.15
682.23	1769.44
682.41	1734.63
682.60	1759.21
682.78	1720.29
682.97	1669.09
683.15	1736.68
683.34	1656.81
683.53	1802.21
683.71	1642.47
683.90	1769.44
684.08	1849.32
684.27	1697.77
684.45	1787.88
684.64	1736.68
684.82	1757.16
685.01	1718.25
685.19	1708.01
685.38	1804.26
685.57	1730.53
685.75	1644.52
685.94	1681.38
686.12	1728.49
686.31	1679.33
686.49	1796.07
686.68	1611.75
686.86	1710.05
687.05	1675.24
687.23	1761.25
687.42	1683.43
687.60	1654.76
687.79	1748.97
687.97	1808.36
688.16	1753.06
688.34	1734.63
688.53	1581.03
688.71	1695.72
688.90	1730.53
689.08	1738.73
689.27	1642.47
689.45	1789.92
689.64	1783.78
689.82	1658.85
690.01	1685.48
690.19	1736.68
690.38	1761.25
690.56	1841.12
690.75	1624.04
690.93	1685.48
691.12	1644.52
691.30	1703.91
691.49	1730.53
691.67	1724.39
691.86	1781.73
692.04	1681.38
692.23	1708.01
692.41	1773.54
692.60	1867.75
692.78	1857.51
692.97	1701.86
693.15	1871.84
693.34	1865.70
693.52	1820.64
693.71	1726.44
693.89	1730.53
694.08	1619.94
694.26	1806.31
694.44	1800.16
694.63	1734.63
694.81	1660.90
695.00	1679.33
695.18	1796.07
695.37	1841.12
695.55	1751.01
695.74	1746.92
695.92	1705.96
696.10	1791.97
696.29	1624.04
696.47	1660.90
696.66	1648.61
696.84	1726.44
697.03	1740.77
697.21	1810.40
697.40	2383.84
697.58	1753.06
697.76	1728.49
697.95	1763.30
698.13	1697.77
698.32	1689.57
698.50	1800.16
698.68	1746.92
698.87	1665.00
699.05	1785.83
699.24	1710.05
699.42	1669.09
699.61	1701.86
699.79	1675.24
699.97	1738.73
700.16	1689.57
700.34	1675.24
700.53	1656.81
700.71	1791.97
700.89	1789.92
701.08	1673.19
701.26	1785.83
701.45	2168.80
701.63	1656.81
701.81	1687.53
702.00	1677.29
702.18	1738.73
702.37	1722.34
702.55	1832.93
702.73	1839.08
702.92	1847.27
703.10	1984.48
703.28	2000.87
703.47	1955.81
703.65	1867.75
703.84	1830.88
704.02	1767.40
704.20	1841.12
704.39	1742.82
704.57	1794.02
704.75	1832.93
704.94	1804.26
705.12	1818.60
705.30	1832.93
705.49	2467.80
705.67	5568.43
705.86	13119.29
706.04	19615.44
706.22	22976.16
706.41	25382.52
706.59	24643.21
706.77	19400.41
706.96	13760.30
707.14	12050.25
707.32	10170.21
707.51	8968.06
707.69	7896.97
707.87	6711.19
708.06	5568.43
708.24	4384.70
708.42	3336.14
708.61	2820.05
708.79	2215.90
708.97	2015.20
709.16	1978.34
709.34	1851.36
709.52	1734.63
709.71	1767.40
709.89	1865.70
710.07	1779.68
710.26	1656.81
710.44	1726.44
710.62	1744.87
710.80	1728.49
710.99	1763.30
711.17	1808.36
711.35	1656.81
711.54	1691.62
711.72	1832.93
711.90	1712.10
712.09	1744.87
712.27	1730.53
712.45	1775.59
712.63	1708.01
712.82	1740.77
713.00	1724.39
713.18	1787.88
713.37	1779.68
713.55	1763.30
713.73	1718.25
713.91	1771.49
714.10	1687.53
714.28	1712.10
714.46	1767.40
714.65	1732.58
714.83	1759.21
715.01	1669.09
715.19	1742.82
715.38	1687.53
715.56	1751.01
715.74	1583.08
715.92	1667.05
716.11	1791.97
716.29	1546.22
716.47	1722.34
716.65	1705.96
716.84	1595.37
717.02	1808.36
717.20	1669.09
717.38	1718.25
717.57	1718.25
717.75	1742.82
717.93	1730.53
718.11	1740.77
718.30	1677.29
718.48	1787.88
718.66	1767.40
718.84	1775.59
719.03	1751.01
719.21	1648.61
719.39	1808.36
719.57	1783.78
719.75	1832.93
719.94	1613.80
720.12	1669.09
720.30	1740.77
720.48	1783.78
720.67	1656.81
720.85	1605.61
721.03	1662.95
721.21	1667.05
721.39	1736.68
721.58	1773.54
721.76	1742.82
721.94	1771.49
722.12	1697.77
722.30	1726.44
722.49	1646.57
722.67	1785.83
722.85	1832.93
723.03	1640.42
723.21	1669.09
723.40	1710.05
723.58	1753.06
723.76	1814.50
723.94	1845.22
724.12	1834.98
724.30	1869.80
724.49	1933.28
724.67	1685.48
724.85	1830.88
725.03	1650.66
725.21	1802.21
725.40	1839.08
725.58	1767.40
725.76	1877.99
725.94	1705.96
726.12	1578.98
726.30	1685.48
726.49	1695.72
726.67	1861.60
726.85	1787.88
727.03	1812.45
727.21	2234.33
727.39	3403.72
727.57	4921.27
727.76	5638.06
727.94	6279.07
728.12	6379.42
728.30	5648.30
728.48	4491.20
728.66	4048.83
728.84	3581.90
729.03	3139.54
729.21	2818.00
729.39	2480.09
729.57	2162.66
729.75	1966.05
729.93	1955.81
730.11	1804.26
730.30	1738.73
730.48	1736.68
730.66	1816.55
730.84	1753.06
731.02	1761.25
731.20	1779.68
731.38	1687.53
731.56	1673.19
731.74	1615.85
731.93	1742.82
732.11	1718.25
732.29	1689.57
732.47	1736.68
732.65	1798.12
732.83	1863.65
733.01	1708.01
733.19	1648.61
733.37	1734.63
733.56	1677.29
733.74	1720.29
733.92	1736.68
734.10	1679.33
734.28	1775.59
734.46	1621.99
734.64	1767.40
734.82	1605.61
735.00	1683.43
735.18	1728.49
735.36	1716.20
735.54	1738.73
735.73	1648.61
735.91	1765.35
736.09	1775.59
736.27	1728.49
736.45	1773.54
736.63	1581.03
736.81	1685.48
736.99	1705.96
737.17	1779.68
737.35	1667.05
737.53	1724.39
737.71	1658.85
737.89	1767.40
738.07	1687.53
738.25	1624.04
738.43	1632.23
738.61	1665.00
738.80	1679.33
738.98	1617.90
739.16	1683.43
739.34	1628.14
739.52	1812.45
739.70	1728.49
739.88	1796.07
740.06	1728.49
740.24	1568.74
740.42	1769.44
740.60	1628.14
740.78	1671.14
740.96	1640.42
741.14	1658.85
741.32	1685.48
741.50	1636.33
741.68	1890.28
741.86	1767.40
742.04	1658.85
742.22	1611.75
742.40	1732.58
742.58	1755.11
742.76	1628.14
742.94	1755.11
743.12	1654.76
743.30	1820.64
743.48	1789.92
743.66	1748.97
743.84	1705.96
744.02	1748.97
744.20	1732.58
744.38	1740.77
744.56	1736.68
744.74	1708.01
744.92	1697.77
745.10	1771.49
745.28	1748.97
745.46	1759.21
745.64	1701.86
745.82	1812.45
746.00	1746.92
746.18	1746.92
746.36	1662.95
746.54	1722.34
746.72	1691.62
746.90	1669.09
747.08	1730.53
747.26	1677.29
747.44	1738.73
747.62	1658.85
747.80	1751.01
747.98	1824.74
748.15	1683.43
748.33	1851.36
748.51	1796.07
748.69	1800.16
748.87	1683.43
749.05	1740.77
749.23	1712.10
749.41	1734.63
749.59	1685.48
749.77	1718.25
749.95	1681.38
750.13	1675.24
750.31	1722.34
750.49	1730.53
750.67	1726.44
750.85	1830.88
751.03	1689.57
751.20	1816.55
751.38	1642.47
751.56	1656.81
751.74	1820.64
751.92	1712.10
752.10	1628.14
752.28	1712.10
752.46	1628.14
752.64	1765.35
752.82	1740.77
753.00	1734.63
753.18	1693.67
753.35	1730.53
753.53	1796.07
753.71	1755.11
753.89	1783.78
754.07	1748.97
754.25	1724.39
754.43	1730.53
754.61	1669.09
754.79	1755.11
754.97	1624.04
755.14	1748.97
755.32	1708.01
755.50	1759.21
755.68	1685.48
755.86	1644.52
756.04	1738.73
756.22	1583.08
756.40	1712.10
756.57	1877.99
756.75	1685.48
756.93	1767.40
757.11	1726.44
757.29	1673.19
757.47	1730.53
757.65	1581.03
757.82	1574.89
758.00	1619.94
758.18	1648.61
758.36	1705.96
758.54	1759.21
758.72	1632.23
758.90	1746.92
759.07	1703.91
759.25	1607.66
759.43	1687.53
759.61	1656.81
759.79	2211.81
759.97	1855.46
760.15	1714.15
760.32	1669.09
760.50	1716.20
760.68	1800.16
760.86	1648.61
761.04	1746.92
761.22	1708.01
761.39	1689.57
761.57	1783.78
761.75	1726.44
761.93	1740.77
762.11	1644.52
762.28	1736.68
762.46	1673.19
762.64	1744.87
762.82	1644.52
763.00	1730.53
763.18	1789.92
763.35	1632.23
763.53	1732.58
763.71	1746.92
763.89	1699.81
764.07	1767.40
764.24	1681.38
764.42	1716.20
764.60	1615.85
764.78	1761.25
764.96	1769.44
765.13	1783.78
765.31	1759.21
765.49	1757.16
765.67	1689.57
765.84	1691.62
766.02	1691.62
766.20	1605.61
766.38	1648.61
766.56	1769.44
766.73	1763.30
766.91	1734.63
767.09	1695.72
767.27	1687.53
767.44	1578.98
767.62	1775.59
767.80	1681.38
767.98	1667.05
768.15	1730.53
768.33	1755.11
768.51	1777.64
768.69	1716.20
768.87	1734.63
769.04	1708.01
769.22	1873.89
769.40	1785.83
769.58	1880.04
769.75	1779.68
769.93	1734.63
770.11	1642.47
770.28	1763.30
770.46	1779.68
770.64	1722.34
770.82	1718.25
770.99	1767.40
771.17	1734.63
771.35	1767.40
771.53	1736.68
771.70	1722.34
771.88	1716.20
772.06	1734.63
772.23	1763.30
772.41	1697.77
772.59	1572.84
772.77	1652.71
772.94	1708.01
773.12	1734.63
773.30	1744.87
773.47	1687.53
773.65	1724.39
773.83	1789.92
774.01	1671.14
774.18	1691.62
774.36	1687.53
774.54	1673.19
774.71	1683.43
774.89	1615.85
775.07	1662.95
775.24	1685.48
775.42	1720.29
775.60	1787.88
775.78	1677.29
775.95	1675.24
776.13	1638.38
776.31	1632.23
776.48	1644.52
776.66	1767.40
776.84	1615.85
777.01	1675.24
777.19	1673.19
777.37	1673.19
777.54	1771.49
777.72	1853.41
777.90	1687.53
778.07	1730.53
778.25	1873.89
778.43	1822.69
778.60	1665.00
778.78	1771.49
778.96	1812.45
779.13	1716.20
779.31	1830.88
779.49	1708.01
779.66	1613.80
779.84	1714.15
780.01	1695.72
780.19	1693.67
780.37	1662.95
780.54	1673.19
780.72	1677.29
780.90	1681.38
781.07	1669.09
781.25	1675.24
781.43	1775.59
781.60	1791.97
781.78	1724.39
781.95	1716.20
782.13	1646.57
782.31	1619.94
782.48	1665.00
782.66	1718.25
782.83	1841.12
783.01	1757.16
783.19	1746.92
783.36	1757.16
783.54	1630.18
783.72	1800.16
783.89	1767.40
784.07	1728.49
784.24	1671.14
784.42	1873.89
784.60	1712.10
784.77	1738.73
784.95	1654.76
785.12	1708.01
785.30	1773.54
785.47	1658.85
785.65	1607.66
785.83	1697.77
786.00	1636.33
786.18	1660.90
786.35	1660.90
786.53	1705.96
786.71	1718.25
786.88	1718.25
787.06	1738.73
787.23	1671.14
787.41	1650.66
787.58	1675.24
787.76	1652.71
787.94	1675.24
788.11	1656.81
788.29	1572.84
788.46	1710.05
788.64	1632.23
788.81	1693.67
788.99	1687.53
789.16	1736.68
789.34	1693.67
789.52	1683.43
789.69	1654.76
789.87	1691.62
790.04	1683.43
790.22	1687.53
790.39	1871.84
790.57	1619.94
790.74	1619.94
790.92	1714.15
791.09	1681.38
791.27	1685.48
791.44	1812.45
791.62	1718.25
791.79	1763.30
791.97	1716.20
792.15	1892.32
792.32	1677.29
792.50	1730.53
792.67	1746.92
792.85	1798.12
793.02	1710.05
793.20	1675.24
793.37	1654.76
793.55	1673.19
793.72	1691.62
793.90	1769.44
794.07	1687.53
794.25	1722.34
794.42	1697.77
794.60	1656.81
794.77	1726.44
794.95	1759.21
795.12	1718.25
795.30	1671.14
795.47	1613.80
795.65	1898.47
795.82	1656.81
796.00	1656.81
796.17	1808.36
796.34	1638.38
796.52	1718.25
796.69	1738.73
796.87	1748.97
797.04	1679.33
797.22	1738.73
797.39	1687.53
797.57	1722.34
797.74	1816.55
797.92	1757.16
798.09	1660.90
798.27	1775.59
798.44	1691.62
798.62	1634.28
798.79	1681.38
798.96	1763.30
799.14	1685.48
799.31	1796.07
799.49	1681.38
799.66	1644.52
799.84	1740.77
800.01	1597.42
800.19	1787.88
800.36	1599.46
800.53	1708.01
800.71	1677.29
800.88	1828.84
801.06	1703.91
801.23	1730.53
801.41	1662.95
801.58	1605.61
801.75	1699.81
801.93	1734.63
802.10	1730.53
802.28	1734.63
802.45	1650.66
802.63	1779.68
802.80	1736.68
802.97	1720.29
803.15	1685.48
803.32	1675.24
803.50	1638.38
803.67	1740.77
803.84	1628.14
804.02	1775.59
804.19	1626.09
804.37	1634.28
804.54	1636.33
804.71	1714.15
804.89	1722.34
805.06	1691.62
805.24	1632.23
805.41	1652.71
805.58	1628.14
805.76	1894.37
805.93	1685.48
806.10	1812.45
806.28	1734.63
806.45	1656.81
806.63	1710.05
806.80	1716.20
806.97	1767.40
807.15	1667.05
807.32	1699.81
807.49	1718.25
807.67	1601.51
807.84	1677.29
808.01	1654.76
808.19	1767.40
808.36	1941.47
808.54	1669.09
808.71	1667.05
808.88	1697.77
809.06	1759.21
809.23	1759.21
809.40	1681.38
809.58	1753.06
809.75	1646.57
809.92	1681.38
810.10	1904.61
810.27	1738.73
810.44	1708.01
810.62	1738.73
810.79	1794.02
810.96	1689.57
811.14	1722.34
811.31	1636.33
811.48	1720.29
811.66	1732.58
811.83	1701.86
812.00	1757.16
812.18	1726.44
812.35	1882.08
812.52	1650.66
812.69	1726.44
812.87	1652.71
813.04	1689.57
813.21	1755.11
813.39	1632.23
813.56	1658.85
813.73	1759.21
813.91	1652.71
814.08	1742.82
814.25	1644.52
814.42	1615.85
814.60	1683.43
814.77	1748.97
814.94	1726.44
815.12	1722.34
815.29	1810.40
815.46	1714.15
815.63	1765.35
815.81	1677.29
815.98	1714.15
816.15	1669.09
816.33	1708.01
816.50	1738.73
816.67	1687.53
816.84	1650.66
817.02	1652.71
817.19	1683.43
817.36	1761.25
817.53	1736.68
817.71	1605.61
817.88	1755.11
818.05	1714.15
818.22	1679.33
818.40	1912.80
818.57	1667.05
818.74	1691.62
818.91	1701.86
819.09	1771.49
819.26	1724.39
819.43	1667.05
819.60	1658.85
819.78	1697.77
819.95	1822.69
820.12	1619.94
820.29	1779.68
820.47	1761.25
820.64	1667.05
820.81	1607.66
820.98	1601.51
821.15	1773.54
821.33	1693.67
821.50	1716.20
821.67	1746.92
821.84	1679.33
822.02	1628.14
822.19	1708.01
822.36	1667.05
822.53	1714.15
822.70	1624.04
822.88	1701.86
823.05	1718.25
823.22	1703.91
823.39	1740.77
823.56	1775.59
823.74	1763.30
823.91	1710.05
824.08	1603.56
824.25	1665.00
824.42	1812.45
824.60	1679.33
824.77	1748.97
824.94	1736.68
825.11	1740.77
825.28	1615.85
825.45	1667.05
825.63	1701.86
825.80	1660.90
825.97	1712.10
826.14	1703.91
826.31	1667.05
826.48	1744.87
826.66	1658.85
826.83	1705.96
827.00	1660.90
827.17	1697.77
827.34	1691.62
827.51	1695.72
827.69	1726.44
827.86	1630.18
828.03	1654.76
828.20	1730.53
828.37	1671.14
828.54	1751.01
828.71	1693.67
828.89	1787.88
829.06	1748.97
829.23	1732.58
829.40	1751.01
829.57	1609.70
829.74	1769.44
829.91	1648.61
830.09	1703.91
830.26	1710.05
830.43	1796.07
830.60	1716.20
830.77	1736.68
830.94	1789.92
831.11	1673.19
831.28	1683.43
831.46	1708.01
831.63	1773.54
831.80	1705.96
831.97	1710.05
832.14	1701.86
832.31	1744.87
832.48	1673.19
832.65	1775.59
832.82	1734.63
832.99	1744.87
833.17	1607.66
833.34	1777.64
833.51	1804.26
833.68	1574.89
833.85	1796.07
834.02	1564.65
834.19	1720.29
834.36	1671.14
834.53	1667.05
834.70	1726.44
834.87	1746.92
835.04	1720.29
835.22	1638.38
835.39	1660.90
835.56	1607.66
835.73	1665.00
835.90	1810.40
836.07	1689.57
836.24	1746.92
836.41	1599.46
836.58	1656.81
836.75	1728.49
836.92	1675.24
837.09	1685.48
837.26	1830.88
837.43	1746.92
837.60	1691.62
837.77	1730.53
837.94	1771.49
838.12	1802.21
838.29	1677.29
838.46	1550.31
838.63	1703.91
838.80	1763.30
838.97	1697.77
839.14	1673.19
839.31	1660.90
839.48	1701.86
839.65	1714.15
839.82	1718.25
839.99	1652.71
840.16	1683.43
840.33	1660.90
840.50	1708.01
840.67	1697.77
840.84	1591.27
841.01	1763.30
841.18	1628.14
841.35	1665.00
841.52	1748.97
841.69	1867.75
841.86	1734.63
842.03	1718.25
842.20	1783.78
842.37	1720.29
842.54	1681.38
842.71	1683.43
842.88	1654.76
843.05	1755.11
843.22	1736.68
843.39	1753.06
843.56	1728.49
843.73	1726.44
843.90	1636.33
844.07	1722.34
844.24	1761.25
844.41	1671.14
844.58	1722.34
844.75	1718.25
844.92	1740.77
845.09	1642.47
845.26	1644.52
845.43	1757.16
845.60	1691.62
845.77	1771.49
845.94	1697.77
846.10	1789.92
846.27	1677.29
846.44	1609.70
846.61	1705.96
846.78	1771.49
846.95	1687.53
847.12	1746.92
847.29	1669.09
847.46	1624.04
847.63	1787.88
847.80	1691.62
847.97	1716.20
848.14	1761.25
848.31	1681.38
848.48	1683.43
848.65	1742.82
848.82	1675.24
848.98	1871.84
849.15	1734.63
849.32	1720.29
849.49	1812.45
849.66	1673.19
849.83	1812.45
850.00	1679.33
850.17	1728.49
850.34	1583.08
850.51	1677.29
850.68	1708.01
850.85	1763.30
851.01	1683.43
851.18	1714.15
851.35	1658.85
851.52	1720.29
851.69	1722.34
851.86	1681.38
852.03	1718.25
852.20	1820.64
852.37	1687.53
852.53	1685.48
852.70	1738.73
852.87	1652.71
853.04	1691.62
853.21	1656.81
853.38	1748.97
853.55	1837.03
853.72	1839.08
853.89	1660.90
854.05	1624.04
854.22	1802.21
854.39	1673.19
854.56	1724.39
854.73	1710.05
854.90	1726.44
855.07	1726.44
855.23	1650.66
855.40	1705.96
855.57	1593.32
855.74	1630.18
855.91	1910.75
856.08	1648.61
856.25	1636.33
856.41	1681.38
856.58	1671.14
856.75	1718.25
856.92	1617.90
857.09	1716.20
857.26	1671.14
857.42	1642.47
857.59	1746.92
857.76	1689.57
857.93	1777.64
858.10	1699.81
858.27	1720.29
858.43	1710.05
858.60	1652.71
858.77	1601.51
858.94	1665.00
859.11	1726.44
859.27	1703.91
859.44	1687.53
859.61	1828.84
859.78	1812.45
859.95	1683.43
860.12	1644.52
860.28	1828.84
860.45	1771.49
860.62	1697.77
860.79	1705.96
860.95	1714.15
861.12	1669.09
861.29	1738.73
861.46	1634.28
861.63	1767.40
861.79	1777.64
861.96	1638.38
862.13	1693.67
862.30	1753.06
862.47	1619.94
862.63	1699.81
862.80	1808.36
862.97	1740.77
863.14	1708.01
863.30	1734.63
863.47	1791.97
863.64	1820.64
863.81	1646.57
863.97	1681.38
864.14	1697.77
864.31	1757.16
864.48	1740.77
864.65	1607.66
864.81	1845.22
864.98	1677.29
865.15	1726.44
865.32	1859.56
865.48	1771.49
865.65	1828.84
865.82	1755.11
865.98	1773.54
866.15	1855.46
866.32	1738.73
866.49	1720.29
866.65	1708.01
866.82	1665.00
866.99	1671.14
867.16	1634.28
867.32	1611.75
867.49	1742.82
867.66	1740.77
867.83	1611.75
867.99	1648.61
868.16	1679.33
868.33	1687.53
868.49	1705.96
868.66	1755.11
868.83	1714.15
868.99	1771.49
869.16	1748.97
869.33	1755.11
869.50	1693.67
869.66	1665.00
869.83	1705.96
870.00	1615.85
870.16	1759.21
870.33	1656.81
870.50	1724.39
870.66	1683.43
870.83	1851.36
871.00	1632.23
871.17	1771.49
871.33	1771.49
871.50	1689.57
871.67	1687.53
871.83	1658.85
872.00	1783.78
872.17	1658.85
872.33	1773.54
872.50	1712.10
872.67	1759.21
872.83	1722.34
873.00	1660.90
873.17	1759.21
873.33	1734.63
873.50	1759.21
873.67	1738.73
873.83	1638.38
874.00	1634.28
874.16	1763.30
874.33	1746.92
874.50	1591.27
874.66	1744.87
874.83	1697.77
875.00	1738.73
875.16	1736.68
875.33	1757.16
875.50	1710.05
875.66	1679.33
875.83	1730.53
875.99	1794.02
876.16	1712.10
876.33	1593.32
876.49	1761.25
876.66	1869.80
876.83	1730.53
876.99	1619.94
877.16	1660.90
877.32	1714.15
877.49	1712.10
877.66	1742.82
877.82	1804.26
877.99	1767.40
878.15	1777.64
878.32	1660.90
878.49	1687.53
878.65	1650.66
878.82	1675.24
878.98	1742.82
879.15	1796.07
879.32	1853.41
879.48	1746.92
879.65	1728.49
879.81	1665.00
879.98	1699.81
880.15	1728.49
880.31	1796.07
880.48	1630.18
880.64	1785.83
880.81	1734.63
880.97	1814.50
881.14	1781.73
881.31	1650.66
881.47	1789.92
881.64	1681.38
881.80	1619.94
881.97	1679.33
882.13	1736.68
882.30	1699.81
882.47	1675.24
882.63	1669.09
882.80	1681.38
882.96	1587.18
883.13	1791.97
883.29	1650.66
883.46	1742.82
883.62	1802.21
883.79	1703.91
883.95	1726.44
884.12	1714.15
884.29	1730.53
884.45	1765.35
884.62	1742.82
884.78	1693.67
884.95	1837.03
885.11	1689.57
885.28	1730.53
885.44	1685.48
885.61	1712.10
885.77	1791.97
885.94	1677.29
886.10	1728.49
886.27	1675.24
886.43	1830.88
886.60	1763.30
886.76	1708.01
886.93	1671.14
887.09	1699.81
887.26	1642.47
887.42	1765.35
887.59	1712.10
887.75	1796.07
887.92	1808.36
888.08	1753.06
888.25	1806.31
888.41	1794.02
888.58	1738.73
888.74	1695.72
888.91	1640.42
>>>>>End Processed Spectral Data<<<<<
