SpectraSuite Data File
++++++++++++++++++++++++++++++++++++
Date: Wed May 04 18:44:49 CEST 2016
User: root
Dark Spectrum Present: No
Reference Spectrum Present: No
Number of Sampled Component Spectra: 1
Spectrometers: USB4C02835
Integration Time (usec): 100000 (USB4C02835)
Spectra Averaged: 1 (USB4C02835)
Boxcar Smoothing: 0 (USB4C02835)
Correct for Electrical Dark: No (USB4C02835)
Strobe/Lamp Enabled: No (USB4C02835)
Correct for Detector Non-linearity: No (USB4C02835)
Correct for Stray Light: No (USB4C02835)
Number of Pixels in Processed Spectrum: 3648
>>>>>Begin Processed Spectral Data<<<<<
177.47	1468.39
177.69	1468.39
177.91	1468.39
178.13	1486.83
178.36	1486.83
178.58	1695.72
178.80	1691.62
179.02	1656.81
179.24	1662.95
179.46	1671.14
179.68	1759.21
179.90	1660.90
180.13	1761.25
180.35	1693.67
180.57	1685.48
180.79	1748.97
181.01	1671.14
181.23	1830.88
181.45	1769.44
181.67	1742.82
181.90	1728.49
182.12	1658.85
182.34	1626.09
182.56	1677.29
182.78	1703.91
183.00	1703.91
183.22	1746.92
183.44	1572.84
183.66	1910.75
183.89	1746.92
184.11	1615.85
184.33	1691.62
184.55	1738.73
184.77	1722.34
184.99	1658.85
185.21	1652.71
185.43	1785.83
185.65	1634.28
185.87	1761.25
186.10	1787.88
186.32	1857.51
186.54	1710.05
186.76	1732.58
186.98	1826.79
187.20	1710.05
187.42	1708.01
187.64	1693.67
187.86	1728.49
188.08	1849.32
188.30	1693.67
188.52	1656.81
188.75	1779.68
188.97	1787.88
189.19	1722.34
189.41	1734.63
189.63	1755.11
189.85	1691.62
190.07	1636.33
190.29	1644.52
190.51	1710.05
190.73	1560.55
190.95	1757.16
191.17	1683.43
191.39	1669.09
191.61	1689.57
191.84	1705.96
192.06	1656.81
192.28	1607.66
192.50	1810.40
192.72	1714.15
192.94	1748.97
193.16	1763.30
193.38	1761.25
193.60	1634.28
193.82	1609.70
194.04	1708.01
194.26	1775.59
194.48	1759.21
194.70	1705.96
194.92	1650.66
195.14	1748.97
195.36	1650.66
195.58	1665.00
195.80	1662.95
196.02	1740.77
196.24	1693.67
196.46	1742.82
196.69	1644.52
196.91	1808.36
197.13	1662.95
197.35	1742.82
197.57	1806.31
197.79	1720.29
198.01	1714.15
198.23	1718.25
198.45	1734.63
198.67	1701.86
198.89	1667.05
199.11	1691.62
199.33	1681.38
199.55	1605.61
199.77	1624.04
199.99	1732.58
200.21	1689.57
200.43	1658.85
200.65	1695.72
200.87	1632.23
201.09	1730.53
201.31	1736.68
201.53	1734.63
201.75	1718.25
201.97	1773.54
202.19	1738.73
202.41	1742.82
202.63	1806.31
202.85	1757.16
203.07	1683.43
203.29	1695.72
203.51	1687.53
203.73	1581.03
203.95	1867.75
204.17	1708.01
204.39	1738.73
204.61	1742.82
204.83	1714.15
205.05	1765.35
205.27	1726.44
205.49	1798.12
205.71	1648.61
205.93	1624.04
206.15	1665.00
206.37	1769.44
206.59	1691.62
206.81	1578.98
207.03	1689.57
207.25	1675.24
207.47	1738.73
207.69	1673.19
207.91	1740.77
208.13	1734.63
208.34	1656.81
208.56	1671.14
208.78	1691.62
209.00	1734.63
209.22	1765.35
209.44	1654.76
209.66	1667.05
209.88	1689.57
210.10	1685.48
210.32	1734.63
210.54	1781.73
210.76	1675.24
210.98	1716.20
211.20	1699.81
211.42	1740.77
211.64	1767.40
211.86	1683.43
212.08	1789.92
212.30	1738.73
212.52	1677.29
212.74	1681.38
212.96	1779.68
213.17	1759.21
213.39	1730.53
213.61	1837.03
213.83	1814.50
214.05	1779.68
214.27	1712.10
214.49	1593.32
214.71	1697.77
214.93	1720.29
215.15	1720.29
215.37	1806.31
215.59	1605.61
215.81	1699.81
216.03	1761.25
216.24	1656.81
216.46	1691.62
216.68	1662.95
216.90	1728.49
217.12	1761.25
217.34	1689.57
217.56	1814.50
217.78	1728.49
218.00	1718.25
218.22	1757.16
218.44	1662.95
218.66	1685.48
218.87	1791.97
219.09	1705.96
219.31	1738.73
219.53	1734.63
219.75	1705.96
219.97	1648.61
220.19	1736.68
220.41	1751.01
220.63	1896.42
220.85	1728.49
221.06	1691.62
221.28	1712.10
221.50	1757.16
221.72	1683.43
221.94	1769.44
222.16	1804.26
222.38	1730.53
222.60	1748.97
222.82	1654.76
223.03	1699.81
223.25	1630.18
223.47	1763.30
223.69	1818.60
223.91	1716.20
224.13	1689.57
224.35	1705.96
224.57	1757.16
224.78	1755.11
225.00	1755.11
225.22	1730.53
225.44	1763.30
225.66	1826.79
225.88	1650.66
226.10	1677.29
226.32	1699.81
226.53	1742.82
226.75	1691.62
226.97	1689.57
227.19	1677.29
227.41	1658.85
227.63	1685.48
227.85	1624.04
228.06	1691.62
228.28	1689.57
228.50	1642.47
228.72	1605.61
228.94	1701.86
229.16	1634.28
229.37	1720.29
229.59	1708.01
229.81	1716.20
230.03	1593.32
230.25	1656.81
230.47	1675.24
230.69	1652.71
230.90	1847.27
231.12	1648.61
231.34	1683.43
231.56	1710.05
231.78	1705.96
232.00	1685.48
232.21	1759.21
232.43	1681.38
232.65	1615.85
232.87	1734.63
233.09	1736.68
233.30	1689.57
233.52	1757.16
233.74	1634.28
233.96	1679.33
234.18	1679.33
234.40	1687.53
234.61	1777.64
234.83	1722.34
235.05	1595.37
235.27	1837.03
235.49	1742.82
235.70	1814.50
235.92	1834.98
236.14	1697.77
236.36	1863.65
236.58	1679.33
236.79	1781.73
237.01	1671.14
237.23	1753.06
237.45	1787.88
237.67	1644.52
237.88	1640.42
238.10	1853.41
238.32	1689.57
238.54	1689.57
238.76	1714.15
238.97	1601.51
239.19	1613.80
239.41	1763.30
239.63	1724.39
239.85	1720.29
240.06	1642.47
240.28	1673.19
240.50	1814.50
240.72	1648.61
240.93	1769.44
241.15	1701.86
241.37	1728.49
241.59	1834.98
241.81	1722.34
242.02	1677.29
242.24	1673.19
242.46	1730.53
242.68	1667.05
242.89	1724.39
243.11	1753.06
243.33	1671.14
243.55	1796.07
243.76	1765.35
243.98	1632.23
244.20	1640.42
244.42	1660.90
244.64	1742.82
244.85	1662.95
245.07	1689.57
245.29	1759.21
245.51	1712.10
245.72	1738.73
245.94	1765.35
246.16	1712.10
246.38	1701.86
246.59	1701.86
246.81	1626.09
247.03	1693.67
247.24	1607.66
247.46	1705.96
247.68	1757.16
247.90	1718.25
248.11	1689.57
248.33	1771.49
248.55	1685.48
248.77	1683.43
248.98	1769.44
249.20	1726.44
249.42	1730.53
249.64	1751.01
249.85	1720.29
250.07	1595.37
250.29	1816.55
250.50	1748.97
250.72	1607.66
250.94	1699.81
251.16	1810.40
251.37	1771.49
251.59	1759.21
251.81	1794.02
252.02	1777.64
252.24	1710.05
252.46	1814.50
252.68	1677.29
252.89	1699.81
253.11	1648.61
253.33	1791.97
253.54	1728.49
253.76	1695.72
253.98	1638.38
254.20	1656.81
254.41	1662.95
254.63	1683.43
254.85	1628.14
255.06	1712.10
255.28	1634.28
255.50	1740.77
255.71	1705.96
255.93	1652.71
256.15	1656.81
256.36	1691.62
256.58	1681.38
256.80	1697.77
257.02	1701.86
257.23	1683.43
257.45	1742.82
257.67	1763.30
257.88	1683.43
258.10	1675.24
258.32	1755.11
258.53	1699.81
258.75	1787.88
258.97	1669.09
259.18	1699.81
259.40	1722.34
259.62	1796.07
259.83	1730.53
260.05	1628.14
260.27	1959.91
260.48	1787.88
260.70	1640.42
260.92	1740.77
261.13	1734.63
261.35	1791.97
261.57	1771.49
261.78	1632.23
262.00	1619.94
262.22	1826.79
262.43	1681.38
262.65	1662.95
262.86	1701.86
263.08	1800.16
263.30	1751.01
263.51	1597.42
263.73	1691.62
263.95	1761.25
264.16	1669.09
264.38	1722.34
264.60	1738.73
264.81	1648.61
265.03	1779.68
265.25	1734.63
265.46	1722.34
265.68	1722.34
265.89	1712.10
266.11	1583.08
266.33	1748.97
266.54	1759.21
266.76	1708.01
266.98	1732.58
267.19	1673.19
267.41	1703.91
267.62	1705.96
267.84	1611.75
268.06	1724.39
268.27	1705.96
268.49	1843.17
268.70	1705.96
268.92	1691.62
269.14	1734.63
269.35	1644.52
269.57	1636.33
269.79	1779.68
270.00	1617.90
270.22	1759.21
270.43	1665.00
270.65	1648.61
270.87	1714.15
271.08	1708.01
271.30	1785.83
271.51	1667.05
271.73	1681.38
271.95	1783.78
272.16	1660.90
272.38	1755.11
272.59	1720.29
272.81	1701.86
273.02	1763.30
273.24	1734.63
273.46	1748.97
273.67	1648.61
273.89	1624.04
274.10	1710.05
274.32	1765.35
274.54	1734.63
274.75	1693.67
274.97	1751.01
275.18	1724.39
275.40	1740.77
275.61	1736.68
275.83	1689.57
276.05	1609.70
276.26	1703.91
276.48	1728.49
276.69	1640.42
276.91	1726.44
277.12	1859.56
277.34	1755.11
277.55	1726.44
277.77	1615.85
277.99	1685.48
278.20	1609.70
278.42	1658.85
278.63	1673.19
278.85	1624.04
279.06	1658.85
279.28	1808.36
279.49	1783.78
279.71	1708.01
279.93	1730.53
280.14	1781.73
280.36	1732.58
280.57	1765.35
280.79	1832.93
281.00	1718.25
281.22	1697.77
281.43	1761.25
281.65	1546.22
281.86	1677.29
282.08	1794.02
282.29	1851.36
282.51	1685.48
282.73	1648.61
282.94	1587.18
283.16	1773.54
283.37	1806.31
283.59	1738.73
283.80	1730.53
284.02	1753.06
284.23	1767.40
284.45	1648.61
284.66	1703.91
284.88	1701.86
285.09	1730.53
285.31	1751.01
285.52	1775.59
285.74	1624.04
285.95	1753.06
286.17	1814.50
286.38	1789.92
286.60	1718.25
286.81	1687.53
287.03	1685.48
287.24	1699.81
287.46	1775.59
287.67	1732.58
287.89	1814.50
288.10	1662.95
288.32	1791.97
288.53	1771.49
288.75	1804.26
288.96	1771.49
289.18	1632.23
289.39	1755.11
289.61	1748.97
289.82	1818.60
290.04	1849.32
290.25	1605.61
290.47	1703.91
290.68	1646.57
290.90	1695.72
291.11	1691.62
291.33	1736.68
291.54	1724.39
291.76	1677.29
291.97	1732.58
292.18	1767.40
292.40	1671.14
292.61	1677.29
292.83	1775.59
293.04	1685.48
293.26	1738.73
293.47	1685.48
293.69	1693.67
293.90	1705.96
294.12	1757.16
294.33	1765.35
294.55	1771.49
294.76	1771.49
294.97	1814.50
295.19	1847.27
295.40	1665.00
295.62	1697.77
295.83	1671.14
296.05	1640.42
296.26	1753.06
296.48	1697.77
296.69	1755.11
296.90	1660.90
297.12	1730.53
297.33	1783.78
297.55	1689.57
297.76	1665.00
297.98	1814.50
298.19	1716.20
298.41	1669.09
298.62	1738.73
298.83	1746.92
299.05	1677.29
299.26	1720.29
299.48	1740.77
299.69	1738.73
299.90	1728.49
300.12	1667.05
300.33	1738.73
300.55	1763.30
300.76	1685.48
300.98	1708.01
301.19	1705.96
301.40	1755.11
301.62	1703.91
301.83	1759.21
302.05	1755.11
302.26	1673.19
302.47	1771.49
302.69	1619.94
302.90	1683.43
303.12	1591.27
303.33	1722.34
303.54	1845.22
303.76	1693.67
303.97	1685.48
304.19	1810.40
304.40	1669.09
304.61	1703.91
304.83	1828.84
305.04	1847.27
305.26	1746.92
305.47	1681.38
305.68	1712.10
305.90	1589.22
306.11	1796.07
306.33	1673.19
306.54	1685.48
306.75	1656.81
306.97	1611.75
307.18	1722.34
307.39	1710.05
307.61	1763.30
307.82	1681.38
308.04	1693.67
308.25	1646.57
308.46	1685.48
308.68	1730.53
308.89	1708.01
309.10	1714.15
309.32	1714.15
309.53	1701.86
309.74	1757.16
309.96	1640.42
310.17	1740.77
310.39	1638.38
310.60	1767.40
310.81	1755.11
311.03	1695.72
311.24	1753.06
311.45	1617.90
311.67	1859.56
311.88	1720.29
312.09	1681.38
312.31	1710.05
312.52	1769.44
312.73	1708.01
312.95	1689.57
313.16	1722.34
313.37	1781.73
313.59	1619.94
313.80	1701.86
314.01	1781.73
314.23	1720.29
314.44	1638.38
314.65	1681.38
314.87	1640.42
315.08	1626.09
315.29	1673.19
315.51	1591.27
315.72	1771.49
315.93	1869.80
316.15	1757.16
316.36	1708.01
316.57	1718.25
316.79	1800.16
317.00	1726.44
317.21	1794.02
317.43	1589.22
317.64	1693.67
317.85	1658.85
318.07	1710.05
318.28	1794.02
318.49	1869.80
318.70	1925.09
318.92	1888.23
319.13	1849.32
319.34	1843.17
319.56	1826.79
319.77	1791.97
319.98	1763.30
320.20	1791.97
320.41	1740.77
320.62	1755.11
320.83	1724.39
321.05	1871.84
321.26	1671.14
321.47	1759.21
321.69	1802.21
321.90	1665.00
322.11	1677.29
322.32	1742.82
322.54	1722.34
322.75	1726.44
322.96	1771.49
323.18	1601.51
323.39	1699.81
323.60	1683.43
323.81	1816.55
324.03	1685.48
324.24	1736.68
324.45	1751.01
324.66	1685.48
324.88	1769.44
325.09	1734.63
325.30	1681.38
325.52	1779.68
325.73	1689.57
325.94	1652.71
326.15	1613.80
326.37	1687.53
326.58	1789.92
326.79	1869.80
327.00	1685.48
327.22	1621.99
327.43	1685.48
327.64	1650.66
327.85	1734.63
328.07	1656.81
328.28	1824.74
328.49	1685.48
328.70	1710.05
328.92	1697.77
329.13	1699.81
329.34	1656.81
329.55	1814.50
329.76	1757.16
329.98	1654.76
330.19	1816.55
330.40	1714.15
330.61	1699.81
330.83	1769.44
331.04	1626.09
331.25	1699.81
331.46	1669.09
331.68	1667.05
331.89	1789.92
332.10	1716.20
332.31	1632.23
332.52	1720.29
332.74	1826.79
332.95	1652.71
333.16	1726.44
333.37	1822.69
333.58	1716.20
333.80	1693.67
334.01	1656.81
334.22	1660.90
334.43	1671.14
334.64	1669.09
334.86	1642.47
335.07	1716.20
335.28	1822.69
335.49	1544.17
335.70	1695.72
335.92	1759.21
336.13	1828.84
336.34	1814.50
336.55	1701.86
336.76	1695.72
336.98	1673.19
337.19	1757.16
337.40	1757.16
337.61	1824.74
337.82	1677.29
338.04	1746.92
338.25	1574.89
338.46	1658.85
338.67	1683.43
338.88	1705.96
339.09	1675.24
339.31	1667.05
339.52	1699.81
339.73	1613.80
339.94	1759.21
340.15	1671.14
340.36	1642.47
340.58	1744.87
340.79	1628.14
341.00	1769.44
341.21	1601.51
341.42	1777.64
341.63	1660.90
341.85	1701.86
342.06	1748.97
342.27	1656.81
342.48	1718.25
342.69	1619.94
342.90	1751.01
343.12	1732.58
343.33	1718.25
343.54	1744.87
343.75	1781.73
343.96	1671.14
344.17	1644.52
344.38	1712.10
344.60	1714.15
344.81	1591.27
345.02	1697.77
345.23	1712.10
345.44	1863.65
345.65	1800.16
345.86	1710.05
346.07	1755.11
346.29	1730.53
346.50	1701.86
346.71	1755.11
346.92	1812.45
347.13	1775.59
347.34	1710.05
347.55	1701.86
347.76	1771.49
347.98	1656.81
348.19	1705.96
348.40	1771.49
348.61	1609.70
348.82	1787.88
349.03	1777.64
349.24	1652.71
349.45	1771.49
349.66	1642.47
349.88	1703.91
350.09	1621.99
350.30	1744.87
350.51	1761.25
350.72	1748.97
350.93	1710.05
351.14	1650.66
351.35	1697.77
351.56	1621.99
351.77	1755.11
351.99	1685.48
352.20	1882.08
352.41	1798.12
352.62	1648.61
352.83	1771.49
353.04	1685.48
353.25	1630.18
353.46	1755.11
353.67	1802.21
353.88	1634.28
354.09	1794.02
354.30	1687.53
354.52	1798.12
354.73	1673.19
354.94	1708.01
355.15	1640.42
355.36	1843.17
355.57	1667.05
355.78	1701.86
355.99	1685.48
356.20	1738.73
356.41	1714.15
356.62	1740.77
356.83	1724.39
357.04	1769.44
357.25	1605.61
357.46	1646.57
357.68	1644.52
357.89	1669.09
358.10	1759.21
358.31	1677.29
358.52	1687.53
358.73	1624.04
358.94	1658.85
359.15	1685.48
359.36	1732.58
359.57	1703.91
359.78	1734.63
359.99	1693.67
360.20	1642.47
360.41	1746.92
360.62	1781.73
360.83	1708.01
361.04	1718.25
361.25	1781.73
361.46	1773.54
361.67	1703.91
361.88	1777.64
362.09	1728.49
362.30	1697.77
362.51	1648.61
362.72	1755.11
362.93	1769.44
363.14	1652.71
363.35	1736.68
363.56	1718.25
363.78	1732.58
363.99	1763.30
364.20	1679.33
364.41	1730.53
364.62	1812.45
364.83	1736.68
365.04	1720.29
365.25	1724.39
365.46	1884.13
365.67	1730.53
365.88	1779.68
366.09	1730.53
366.30	1718.25
366.51	1658.85
366.72	1648.61
366.93	1644.52
367.14	1699.81
367.35	1814.50
367.56	1695.72
367.77	1781.73
367.98	1613.80
368.18	1736.68
368.39	1703.91
368.60	1689.57
368.81	1753.06
369.02	1763.30
369.23	1599.46
369.44	1665.00
369.65	1703.91
369.86	1771.49
370.07	1724.39
370.28	1644.52
370.49	1740.77
370.70	1771.49
370.91	1646.57
371.12	1601.51
371.33	1746.92
371.54	1636.33
371.75	1759.21
371.96	1605.61
372.17	1732.58
372.38	1646.57
372.59	1693.67
372.80	1699.81
373.01	1724.39
373.22	1703.91
373.43	1656.81
373.64	1646.57
373.85	1755.11
374.06	1800.16
374.26	1730.53
374.47	1779.68
374.68	1755.11
374.89	1755.11
375.10	1687.53
375.31	1746.92
375.52	1648.61
375.73	1699.81
375.94	1646.57
376.15	1845.22
376.36	1585.13
376.57	1652.71
376.78	1685.48
376.99	1689.57
377.20	1773.54
377.40	1722.34
377.61	1808.36
377.82	1687.53
378.03	1759.21
378.24	1746.92
378.45	1648.61
378.66	1730.53
378.87	1648.61
379.08	1562.60
379.29	1714.15
379.50	1839.08
379.71	1638.38
379.91	1787.88
380.12	1753.06
380.33	1673.19
380.54	1716.20
380.75	1705.96
380.96	1710.05
381.17	1798.12
381.38	1640.42
381.59	1730.53
381.80	1765.35
382.00	1890.28
382.21	1845.22
382.42	1849.32
382.63	1832.93
382.84	1783.78
383.05	1847.27
383.26	1812.45
383.47	1746.92
383.68	1726.44
383.88	1804.26
384.09	1724.39
384.30	1722.34
384.51	1705.96
384.72	1656.81
384.93	1675.24
385.14	1730.53
385.35	1779.68
385.55	1675.24
385.76	1808.36
385.97	1693.67
386.18	1630.18
386.39	1624.04
386.60	1642.47
386.81	1689.57
387.02	1685.48
387.22	1740.77
387.43	1839.08
387.64	1806.31
387.85	1882.08
388.06	2285.53
388.27	4626.36
388.48	9004.92
388.68	11511.63
388.89	13487.92
389.10	13895.47
389.31	11814.73
389.52	9527.15
389.73	8654.72
389.93	7737.23
390.14	7251.86
390.35	6627.23
390.56	6027.17
390.77	4945.84
390.98	3878.85
391.18	3108.82
391.39	2426.84
391.60	1837.03
391.81	1867.75
392.02	1732.58
392.23	1853.41
392.43	1726.44
392.64	1886.18
392.85	1738.73
393.06	1853.41
393.27	1681.38
393.47	1705.96
393.68	1708.01
393.89	1732.58
394.10	1775.59
394.31	1714.15
394.52	1701.86
394.72	1613.80
394.93	1761.25
395.14	1650.66
395.35	1691.62
395.56	1710.05
395.76	1689.57
395.97	1796.07
396.18	1845.22
396.39	1845.22
396.60	2050.02
396.80	2039.78
397.01	1908.71
397.22	1812.45
397.43	1771.49
397.64	1802.21
397.84	1816.55
398.05	1900.52
398.26	1837.03
398.47	1779.68
398.67	1837.03
398.88	1759.21
399.09	1753.06
399.30	1748.97
399.51	1751.01
399.71	1648.61
399.92	1656.81
400.13	1740.77
400.34	1714.15
400.54	1761.25
400.75	1806.31
400.96	1748.97
401.17	1894.37
401.37	1822.69
401.58	1693.67
401.79	1744.87
402.00	1832.93
402.21	2088.93
402.41	2056.16
402.62	2103.26
402.83	2199.52
403.04	2095.07
403.24	2189.28
403.45	1896.42
403.66	1949.67
403.87	1892.32
404.07	1914.85
404.28	1984.48
404.49	1843.17
404.70	1841.12
404.90	1822.69
405.11	1751.01
405.32	1736.68
405.52	1716.20
405.73	1632.23
405.94	1712.10
406.15	1656.81
406.35	1732.58
406.56	1785.83
406.77	1695.72
406.98	1767.40
407.18	1708.01
407.39	1753.06
407.60	1703.91
407.80	1740.77
408.01	1636.33
408.22	1771.49
408.43	1652.71
408.63	1804.26
408.84	1753.06
409.05	1722.34
409.25	1720.29
409.46	1689.57
409.67	1681.38
409.88	1669.09
410.08	1714.15
410.29	1705.96
410.50	1742.82
410.70	1783.78
410.91	1636.33
411.12	1746.92
411.32	1632.23
411.53	1609.70
411.74	1820.64
411.95	1857.51
412.15	1748.97
412.36	1843.17
412.57	1808.36
412.77	1880.04
412.98	1771.49
413.19	1642.47
413.39	1751.01
413.60	1714.15
413.81	1816.55
414.01	1638.38
414.22	1753.06
414.43	1826.79
414.63	1710.05
414.84	1781.73
415.05	1779.68
415.25	1673.19
415.46	1726.44
415.67	1667.05
415.87	1705.96
416.08	1718.25
416.29	1699.81
416.49	1773.54
416.70	1654.76
416.91	1714.15
417.11	1683.43
417.32	1742.82
417.53	1816.55
417.73	1785.83
417.94	1748.97
418.15	1787.88
418.35	1705.96
418.56	1755.11
418.77	1824.74
418.97	1773.54
419.18	1656.81
419.38	1628.14
419.59	1701.86
419.80	1839.08
420.00	1601.51
420.21	1689.57
420.42	1810.40
420.62	1753.06
420.83	1742.82
421.04	1615.85
421.24	1640.42
421.45	1773.54
421.65	1777.64
421.86	1755.11
422.07	1701.86
422.27	1667.05
422.48	1714.15
422.69	1720.29
422.89	1722.34
423.10	1761.25
423.30	1591.27
423.51	1714.15
423.72	1789.92
423.92	1753.06
424.13	1669.09
424.33	1673.19
424.54	1697.77
424.75	1796.07
424.95	1814.50
425.16	1728.49
425.36	1710.05
425.57	1794.02
425.78	1669.09
425.98	1769.44
426.19	1744.87
426.39	1652.71
426.60	1779.68
426.81	1861.60
427.01	1751.01
427.22	1691.62
427.42	1595.37
427.63	1662.95
427.83	1689.57
428.04	1777.64
428.25	1861.60
428.45	1787.88
428.66	1822.69
428.86	1742.82
429.07	1759.21
429.28	1730.53
429.48	1613.80
429.69	1662.95
429.89	1734.63
430.10	1658.85
430.30	1748.97
430.51	1732.58
430.71	1642.47
430.92	1714.15
431.13	1660.90
431.33	1785.83
431.54	1783.78
431.74	1798.12
431.95	1830.88
432.15	1658.85
432.36	1740.77
432.56	1759.21
432.77	1832.93
432.98	1869.80
433.18	1728.49
433.39	1626.09
433.59	1667.05
433.80	1853.41
434.00	1779.68
434.21	1677.29
434.41	1624.04
434.62	1837.03
434.82	1701.86
435.03	1642.47
435.23	1693.67
435.44	1589.22
435.64	1712.10
435.85	1814.50
436.06	1820.64
436.26	1732.58
436.47	1724.39
436.67	1658.85
436.88	1644.52
437.08	1753.06
437.29	1796.07
437.49	1681.38
437.70	1777.64
437.90	1701.86
438.11	1900.52
438.31	1765.35
438.52	1875.94
438.72	1896.42
438.93	1882.08
439.13	1800.16
439.34	1882.08
439.54	1783.78
439.75	1830.88
439.95	1853.41
440.16	1744.87
440.36	1724.39
440.57	1775.59
440.77	1789.92
440.98	1652.71
441.18	1775.59
441.39	1759.21
441.59	1771.49
441.80	1853.41
442.00	1701.86
442.21	1800.16
442.41	1644.52
442.62	1744.87
442.82	1687.53
443.02	1693.67
443.23	1693.67
443.43	1660.90
443.64	1808.36
443.84	1665.00
444.05	1843.17
444.25	1816.55
444.46	1761.25
444.66	1748.97
444.87	1849.32
445.07	1619.94
445.28	1775.59
445.48	1808.36
445.69	1783.78
445.89	1865.70
446.09	1755.11
446.30	1941.47
446.50	2592.73
446.71	4177.86
446.91	5253.04
447.12	5826.47
447.32	6143.91
447.53	5349.29
447.73	4470.72
447.93	4095.94
448.14	3524.55
448.34	3391.44
448.55	3215.31
448.75	3098.58
448.96	2981.84
449.16	2592.73
449.36	2414.56
449.57	2121.70
449.77	1935.33
449.98	1830.88
450.18	1875.94
450.39	1791.97
450.59	1736.68
450.79	1746.92
451.00	1767.40
451.20	1830.88
451.41	1728.49
451.61	1746.92
451.81	1742.82
452.02	1630.18
452.22	1701.86
452.43	1722.34
452.63	1705.96
452.84	1722.34
453.04	1681.38
453.24	1744.87
453.45	1781.73
453.65	1751.01
453.86	1763.30
454.06	1714.15
454.26	1685.48
454.47	1701.86
454.67	1777.64
454.87	1718.25
455.08	1771.49
455.28	1781.73
455.49	1697.77
455.69	1718.25
455.89	1877.99
456.10	1861.60
456.30	1665.00
456.51	1779.68
456.71	1667.05
456.91	1767.40
457.12	1722.34
457.32	1714.15
457.52	1658.85
457.73	1859.56
457.93	1753.06
458.14	1621.99
458.34	1667.05
458.54	1736.68
458.75	1673.19
458.95	1769.44
459.15	1791.97
459.36	1746.92
459.56	1839.08
459.76	1841.12
459.97	1746.92
460.17	1769.44
460.37	1853.41
460.58	1763.30
460.78	1812.45
460.99	1701.86
461.19	1746.92
461.39	1693.67
461.60	1738.73
461.80	1742.82
462.00	1691.62
462.21	1716.20
462.41	1703.91
462.61	1693.67
462.82	1665.00
463.02	1779.68
463.22	1720.29
463.43	1761.25
463.63	1691.62
463.83	1789.92
464.04	1828.84
464.24	1826.79
464.44	1708.01
464.64	1746.92
464.85	1734.63
465.05	1763.30
465.25	1691.62
465.46	1679.33
465.66	1814.50
465.86	1726.44
466.07	1740.77
466.27	1632.23
466.47	1689.57
466.68	1675.24
466.88	1841.12
467.08	1751.01
467.29	1763.30
467.49	1798.12
467.69	1738.73
467.89	1779.68
468.10	1665.00
468.30	1794.02
468.50	1865.70
468.71	1802.21
468.91	1705.96
469.11	1837.03
469.31	1769.44
469.52	1708.01
469.72	1849.32
469.92	1877.99
470.13	1789.92
470.33	1712.10
470.53	1804.26
470.73	2078.69
470.94	2545.63
471.14	2678.74
471.34	3090.38
471.54	2914.26
471.75	2547.67
471.95	2346.97
472.15	2308.06
472.36	2234.33
472.56	2267.10
472.76	2144.22
472.96	2050.02
473.17	2066.40
473.37	1935.33
473.57	1912.80
473.77	1857.51
473.98	1826.79
474.18	1685.48
474.38	1863.65
474.58	1736.68
474.79	1628.14
474.99	1744.87
475.19	1708.01
475.39	1695.72
475.60	1746.92
475.80	1742.82
476.00	1789.92
476.20	1697.77
476.41	1691.62
476.61	1839.08
476.81	1796.07
477.01	1671.14
477.21	1812.45
477.42	1816.55
477.62	1626.09
477.82	1744.87
478.02	1808.36
478.23	1640.42
478.43	1662.95
478.63	1701.86
478.83	1691.62
479.03	1689.57
479.24	1777.64
479.44	1806.31
479.64	1693.67
479.84	1605.61
480.04	1685.48
480.25	1757.16
480.45	1689.57
480.65	1751.01
480.85	1773.54
481.06	1669.09
481.26	1791.97
481.46	1734.63
481.66	1828.84
481.86	1697.77
482.06	1787.88
482.27	1671.14
482.47	1673.19
482.67	1789.92
482.87	1640.42
483.07	1882.08
483.28	1656.81
483.48	1677.29
483.68	1624.04
483.88	1748.97
484.08	1634.28
484.29	1662.95
484.49	1665.00
484.69	1656.81
484.89	1767.40
485.09	1824.74
485.29	1734.63
485.50	1759.21
485.70	1759.21
485.90	1710.05
486.10	1726.44
486.30	1753.06
486.50	1763.30
486.71	1724.39
486.91	1794.02
487.11	1728.49
487.31	1615.85
487.51	1763.30
487.71	1665.00
487.91	1705.96
488.12	1691.62
488.32	1640.42
488.52	1697.77
488.72	1656.81
488.92	1732.58
489.12	1759.21
489.32	1841.12
489.53	1746.92
489.73	1595.37
489.93	1853.41
490.13	1689.57
490.33	1677.29
490.53	1697.77
490.73	1779.68
490.94	1740.77
491.14	1726.44
491.34	1834.98
491.54	2076.64
491.74	2727.89
491.94	3250.13
492.14	3487.69
492.34	3442.64
492.54	3119.06
492.75	2697.17
492.95	2627.54
493.15	2394.08
493.35	2371.55
493.55	2363.36
493.75	2164.70
493.95	2277.34
494.15	2107.36
494.35	1902.56
494.56	1916.90
494.76	1787.88
494.96	1789.92
495.16	1804.26
495.36	1808.36
495.56	1691.62
495.76	1783.78
495.96	1759.21
496.16	1679.33
496.36	1845.22
496.56	1810.40
496.77	1734.63
496.97	1712.10
497.17	1767.40
497.37	1601.51
497.57	1740.77
497.77	1761.25
497.97	1619.94
498.17	1714.15
498.37	1732.58
498.57	1736.68
498.77	1751.01
498.97	1824.74
499.17	1832.93
499.38	1691.62
499.58	1808.36
499.78	1796.07
499.98	1837.03
500.18	1730.53
500.38	1716.20
500.58	1978.34
500.78	2373.60
500.98	4503.48
501.18	6635.42
501.38	8198.02
501.58	9072.50
501.78	8664.96
501.98	6793.11
502.18	5605.29
502.38	4845.49
502.58	4640.70
502.78	4110.27
502.98	3932.10
503.18	3798.98
503.38	3483.59
503.59	3166.16
503.79	2901.97
503.99	2652.12
504.19	2422.75
504.39	2346.97
504.59	2361.31
504.79	2248.67
504.99	2308.06
505.19	1980.39
505.39	2035.68
505.59	2009.06
505.79	1964.00
505.99	1902.56
506.19	1851.36
506.39	1896.42
506.59	1755.11
506.79	1755.11
506.99	1892.32
507.19	1796.07
507.39	1730.53
507.59	1652.71
507.79	1703.91
507.99	1675.24
508.19	1755.11
508.39	1746.92
508.59	1736.68
508.79	1871.84
508.99	1849.32
509.19	1708.01
509.39	1738.73
509.59	1673.19
509.79	1685.48
509.99	1673.19
510.19	1806.31
510.39	1824.74
510.59	1705.96
510.79	1671.14
510.99	1714.15
511.19	1763.30
511.39	1865.70
511.59	1781.73
511.79	1892.32
511.99	1755.11
512.19	1804.26
512.38	1675.24
512.58	1601.51
512.78	1708.01
512.98	1810.40
513.18	1781.73
513.38	1626.09
513.58	1802.21
513.78	1724.39
513.98	1699.81
514.18	1691.62
514.38	1755.11
514.58	1751.01
514.78	1697.77
514.98	1728.49
515.18	1728.49
515.38	1570.79
515.58	1789.92
515.78	1691.62
515.98	1791.97
516.18	1822.69
516.38	1675.24
516.57	1748.97
516.77	1679.33
516.97	1714.15
517.17	1642.47
517.37	1560.55
517.57	1712.10
517.77	1730.53
517.97	1718.25
518.17	1763.30
518.37	1714.15
518.57	1714.15
518.77	1714.15
518.97	1755.11
519.16	1775.59
519.36	1789.92
519.56	1691.62
519.76	1791.97
519.96	1736.68
520.16	1791.97
520.36	1671.14
520.56	1779.68
520.76	1712.10
520.96	1779.68
521.16	1800.16
521.35	1853.41
521.55	1855.46
521.75	1759.21
521.95	1644.52
522.15	1742.82
522.35	1689.57
522.55	1624.04
522.75	1794.02
522.95	1697.77
523.14	1720.29
523.34	1738.73
523.54	1681.38
523.74	1751.01
523.94	1744.87
524.14	1669.09
524.34	1681.38
524.54	1851.36
524.73	1683.43
524.93	1775.59
525.13	1712.10
525.33	1714.15
525.53	1828.84
525.73	1710.05
525.93	1763.30
526.13	1691.62
526.32	1640.42
526.52	1834.98
526.72	1800.16
526.92	1720.29
527.12	1705.96
527.32	1701.86
527.52	1746.92
527.71	1695.72
527.91	1724.39
528.11	1677.29
528.31	1765.35
528.51	1691.62
528.71	1781.73
528.90	1755.11
529.10	1767.40
529.30	1828.84
529.50	1607.66
529.70	1703.91
529.90	1697.77
530.09	1718.25
530.29	1675.24
530.49	1665.00
530.69	1804.26
530.89	1767.40
531.09	1773.54
531.28	1640.42
531.48	1851.36
531.68	1779.68
531.88	1777.64
532.08	1751.01
532.28	1669.09
532.47	1736.68
532.67	1746.92
532.87	1757.16
533.07	1712.10
533.27	1732.58
533.46	1845.22
533.66	1759.21
533.86	1787.88
534.06	1781.73
534.26	1665.00
534.45	1728.49
534.65	1843.17
534.85	1697.77
535.05	1736.68
535.25	1730.53
535.44	1630.18
535.64	1822.69
535.84	1673.19
536.04	1650.66
536.24	1689.57
536.43	1648.61
536.63	1748.97
536.83	1742.82
537.03	1742.82
537.22	1640.42
537.42	1624.04
537.62	1800.16
537.82	1753.06
538.02	1839.08
538.21	1808.36
538.41	1957.86
538.61	1697.77
538.81	1769.44
539.00	1748.97
539.20	1619.94
539.40	1714.15
539.60	1724.39
539.79	1771.49
539.99	1744.87
540.19	1740.77
540.39	1724.39
540.58	1753.06
540.78	1826.79
540.98	1730.53
541.18	1746.92
541.37	1740.77
541.57	1783.78
541.77	1714.15
541.97	1636.33
542.16	1710.05
542.36	1720.29
542.56	1693.67
542.76	1789.92
542.95	1802.21
543.15	1779.68
543.35	1796.07
543.54	1689.57
543.74	1695.72
543.94	1796.07
544.14	1738.73
544.33	1742.82
544.53	1730.53
544.73	1703.91
544.93	1769.44
545.12	1705.96
545.32	1675.24
545.52	1710.05
545.71	1671.14
545.91	1726.44
546.11	1667.05
546.30	1656.81
546.50	1740.77
546.70	1783.78
546.90	1779.68
547.09	1693.67
547.29	1785.83
547.49	1853.41
547.68	1794.02
547.88	1771.49
548.08	1665.00
548.27	2127.84
548.47	1744.87
548.67	1675.24
548.87	1771.49
549.06	1687.53
549.26	1755.11
549.46	1765.35
549.65	1753.06
549.85	1718.25
550.05	1779.68
550.24	1685.48
550.44	1781.73
550.64	1734.63
550.83	1746.92
551.03	1822.69
551.23	1779.68
551.42	1736.68
551.62	1726.44
551.82	1744.87
552.01	1746.92
552.21	1826.79
552.41	1781.73
552.60	1761.25
552.80	1773.54
553.00	1646.57
553.19	1818.60
553.39	1884.13
553.59	1695.72
553.78	1767.40
553.98	1722.34
554.17	1685.48
554.37	1814.50
554.57	1832.93
554.76	1619.94
554.96	1759.21
555.16	1740.77
555.35	1740.77
555.55	1757.16
555.75	1732.58
555.94	1722.34
556.14	1701.86
556.33	1742.82
556.53	1753.06
556.73	1787.88
556.92	1730.53
557.12	1808.36
557.32	1912.80
557.51	1839.08
557.71	1767.40
557.90	1853.41
558.10	1822.69
558.30	1667.05
558.49	1716.20
558.69	1787.88
558.88	1701.86
559.08	1673.19
559.28	1771.49
559.47	1763.30
559.67	1751.01
559.86	1804.26
560.06	1824.74
560.26	1804.26
560.45	1689.57
560.65	1763.30
560.84	1849.32
561.04	1693.67
561.24	1791.97
561.43	1695.72
561.63	1777.64
561.82	1753.06
562.02	1761.25
562.22	1689.57
562.41	1646.57
562.61	1665.00
562.80	1695.72
563.00	1796.07
563.19	1787.88
563.39	1765.35
563.59	1742.82
563.78	1796.07
563.98	1669.09
564.17	1781.73
564.37	1605.61
564.56	1730.53
564.76	1578.98
564.96	1841.12
565.15	1755.11
565.35	1902.56
565.54	1646.57
565.74	1763.30
565.93	1763.30
566.13	1779.68
566.32	1748.97
566.52	1785.83
566.71	1742.82
566.91	1865.70
567.11	1761.25
567.30	1726.44
567.50	1718.25
567.69	1785.83
567.89	1753.06
568.08	1675.24
568.28	1697.77
568.47	1718.25
568.67	1806.31
568.86	1701.86
569.06	1789.92
569.25	1808.36
569.45	1703.91
569.64	1665.00
569.84	1624.04
570.04	1730.53
570.23	1730.53
570.43	1726.44
570.62	1753.06
570.82	1873.89
571.01	1673.19
571.21	1714.15
571.40	1662.95
571.60	1787.88
571.79	1845.22
571.99	1767.40
572.18	1681.38
572.38	1783.78
572.57	1669.09
572.77	1812.45
572.96	1898.47
573.16	1703.91
573.35	1734.63
573.55	1890.28
573.74	1796.07
573.94	1751.01
574.13	1767.40
574.33	1830.88
574.52	1839.08
574.71	1785.83
574.91	1806.31
575.10	1761.25
575.30	1638.38
575.49	1738.73
575.69	1822.69
575.88	1791.97
576.08	1787.88
576.27	1857.51
576.47	1863.65
576.66	1933.28
576.86	1912.80
577.05	1775.59
577.25	1757.16
577.44	1943.52
577.64	1720.29
577.83	1867.75
578.02	1779.68
578.22	1804.26
578.41	1925.09
578.61	1718.25
578.80	1734.63
579.00	1742.82
579.19	1712.10
579.39	1910.75
579.58	1828.84
579.77	1724.39
579.97	1834.98
580.16	1804.26
580.36	1773.54
580.55	1898.47
580.75	1779.68
580.94	1738.73
581.13	1890.28
581.33	1873.89
581.52	1748.97
581.72	1886.18
581.91	1920.99
582.11	1814.50
582.30	1734.63
582.49	1712.10
582.69	1861.60
582.88	1857.51
583.08	1806.31
583.27	1810.40
583.47	1843.17
583.66	1685.48
583.85	1761.25
584.05	1724.39
584.24	1816.55
584.44	1865.70
584.63	1918.95
584.82	1886.18
585.02	1945.57
585.21	1882.08
585.41	1873.89
585.60	1937.38
585.79	1945.57
585.99	1968.10
586.18	1906.66
586.37	2301.92
586.57	3373.00
586.76	9834.35
586.96	27399.77
587.15	41944.45
587.34	51975.40
587.54	58004.62
587.73	55995.56
587.93	40218.01
588.12	29562.43
588.31	23879.32
588.51	20532.93
588.70	18657.00
588.89	17170.17
589.09	15478.55
589.28	13641.52
589.47	11491.15
589.67	9471.86
589.86	7284.62
590.06	5504.94
590.25	4165.57
590.44	3270.61
590.64	2594.78
590.83	2308.06
591.02	2103.26
591.22	2050.02
591.41	1904.61
591.60	1767.40
591.80	1920.99
591.99	1734.63
592.18	1773.54
592.38	1802.21
592.57	1742.82
592.76	1808.36
592.96	1810.40
593.15	1783.78
593.34	1791.97
593.54	1730.53
593.73	1804.26
593.92	1828.84
594.12	1857.51
594.31	1787.88
594.50	1888.23
594.70	1837.03
594.89	1955.81
595.08	1748.97
595.28	1771.49
595.47	1947.62
595.66	1773.54
595.86	1712.10
596.05	1787.88
596.24	1779.68
596.43	1880.04
596.63	1894.37
596.82	1783.78
597.01	1816.55
597.21	1861.60
597.40	1802.21
597.59	1802.21
597.79	1791.97
597.98	1837.03
598.17	1787.88
598.36	1777.64
598.56	1796.07
598.75	1759.21
598.94	1822.69
599.14	1757.16
599.33	1740.77
599.52	1763.30
599.71	1726.44
599.91	1896.42
600.10	1808.36
600.29	1755.11
600.48	1767.40
600.68	1816.55
600.87	1765.35
601.06	1720.29
601.26	1714.15
601.45	1742.82
601.64	1783.78
601.83	1810.40
602.03	1761.25
602.22	1607.66
602.41	1773.54
602.60	1894.37
602.80	1820.64
602.99	1759.21
603.18	1658.85
603.37	1748.97
603.57	1755.11
603.76	1789.92
603.95	1787.88
604.14	1689.57
604.34	1718.25
604.53	1722.34
604.72	1771.49
604.91	1837.03
605.10	1791.97
605.30	1675.24
605.49	1902.56
605.68	1806.31
605.87	1830.88
606.07	1767.40
606.26	1767.40
606.45	1880.04
606.64	1810.40
606.84	1814.50
607.03	1628.14
607.22	1834.98
607.41	1779.68
607.60	1705.96
607.80	1859.56
607.99	1746.92
608.18	1740.77
608.37	1720.29
608.56	1734.63
608.76	1675.24
608.95	1867.75
609.14	1794.02
609.33	1826.79
609.52	1896.42
609.72	1888.23
609.91	1877.99
610.10	1818.60
610.29	1898.47
610.48	1890.28
610.68	1798.12
610.87	1759.21
611.06	1736.68
611.25	1746.92
611.44	1767.40
611.63	1681.38
611.83	1832.93
612.02	1619.94
612.21	1841.12
612.40	1656.81
612.59	1748.97
612.79	1693.67
612.98	1685.48
613.17	1804.26
613.36	1783.78
613.55	1816.55
613.74	1861.60
613.93	1972.19
614.13	1834.98
614.32	1953.76
614.51	1976.29
614.70	1796.07
614.89	1853.41
615.08	1781.73
615.28	2099.17
615.47	1730.53
615.66	1812.45
615.85	1869.80
616.04	1834.98
616.23	1859.56
616.42	1892.32
616.62	1777.64
616.81	1818.60
617.00	1826.79
617.19	1781.73
617.38	1660.90
617.57	1751.01
617.76	1787.88
617.95	1837.03
618.15	1701.86
618.34	1834.98
618.53	1693.67
618.72	1746.92
618.91	1720.29
619.10	1767.40
619.29	1724.39
619.48	1728.49
619.68	1648.61
619.87	1718.25
620.06	1665.00
620.25	1763.30
620.44	1726.44
620.63	1689.57
620.82	1759.21
621.01	1722.34
621.20	1730.53
621.39	1857.51
621.59	1787.88
621.78	1734.63
621.97	1738.73
622.16	1740.77
622.35	1769.44
622.54	1781.73
622.73	1751.01
622.92	1683.43
623.11	1765.35
623.30	1738.73
623.49	1740.77
623.68	1685.48
623.88	1787.88
624.07	1685.48
624.26	1767.40
624.45	1789.92
624.64	1720.29
624.83	1753.06
625.02	1701.86
625.21	1732.58
625.40	1742.82
625.59	1814.50
625.78	1746.92
625.97	1849.32
626.16	1841.12
626.35	1894.37
626.54	1769.44
626.74	1839.08
626.93	1812.45
627.12	1714.15
627.31	1886.18
627.50	1785.83
627.69	1781.73
627.88	1677.29
628.07	1757.16
628.26	1728.49
628.45	1638.38
628.64	1671.14
628.83	1640.42
629.02	1671.14
629.21	1751.01
629.40	1689.57
629.59	1730.53
629.78	1695.72
629.97	1748.97
630.16	1736.68
630.35	1726.44
630.54	1781.73
630.73	1712.10
630.92	1705.96
631.11	1714.15
631.30	1757.16
631.49	1781.73
631.68	1761.25
631.87	1804.26
632.06	1667.05
632.25	1882.08
632.44	1757.16
632.63	1693.67
632.82	1726.44
633.01	1789.92
633.20	1804.26
633.39	1734.63
633.58	1773.54
633.77	1804.26
633.96	1753.06
634.15	1861.60
634.34	1837.03
634.53	1796.07
634.72	1699.81
634.91	1638.38
635.10	1746.92
635.29	1779.68
635.48	1712.10
635.67	1697.77
635.86	1669.09
636.05	1734.63
636.24	1769.44
636.43	1771.49
636.62	1834.98
636.81	1585.13
637.00	1644.52
637.19	1730.53
637.38	1738.73
637.57	1753.06
637.76	1753.06
637.95	1810.40
638.14	1789.92
638.33	1808.36
638.52	1845.22
638.71	1679.33
638.89	1757.16
639.08	1912.80
639.27	1843.17
639.46	1791.97
639.65	2172.89
639.84	2328.54
640.03	2428.89
640.22	2394.08
640.41	2361.31
640.60	2017.25
640.79	2033.63
640.98	2000.87
641.17	2009.06
641.36	1796.07
641.55	1882.08
641.74	1855.46
641.92	1767.40
642.11	1703.91
642.30	1781.73
642.49	1665.00
642.68	1720.29
642.87	1724.39
643.06	1781.73
643.25	1734.63
643.44	1689.57
643.63	1673.19
643.82	1761.25
644.00	1718.25
644.19	1779.68
644.38	1650.66
644.57	1759.21
644.76	1708.01
644.95	1785.83
645.14	1675.24
645.33	1728.49
645.52	1693.67
645.71	1730.53
645.89	1652.71
646.08	1701.86
646.27	1722.34
646.46	1757.16
646.65	1718.25
646.84	1658.85
647.03	1675.24
647.22	1759.21
647.40	1662.95
647.59	1687.53
647.78	1591.27
647.97	1712.10
648.16	1644.52
648.35	1785.83
648.54	1867.75
648.73	1718.25
648.91	1783.78
649.10	1767.40
649.29	1703.91
649.48	1691.62
649.67	1732.58
649.86	1759.21
650.05	1814.50
650.23	1931.23
650.42	1806.31
650.61	1910.75
650.80	1970.15
650.99	1929.19
651.18	1857.51
651.36	1828.84
651.55	1732.58
651.74	1761.25
651.93	1699.81
652.12	1691.62
652.31	1785.83
652.49	1660.90
652.68	1714.15
652.87	1857.51
653.06	1746.92
653.25	1837.03
653.44	1800.16
653.62	1806.31
653.81	1763.30
654.00	1771.49
654.19	1761.25
654.38	1896.42
654.56	1787.88
654.75	1714.15
654.94	1783.78
655.13	1761.25
655.32	1683.43
655.51	1808.36
655.69	1718.25
655.88	1673.19
656.07	1669.09
656.26	1701.86
656.45	1650.66
656.63	1777.64
656.82	1716.20
657.01	1726.44
657.20	1740.77
657.38	1791.97
657.57	1708.01
657.76	1693.67
657.95	1787.88
658.14	1712.10
658.32	1695.72
658.51	1708.01
658.70	1740.77
658.89	1759.21
659.08	1687.53
659.26	1859.56
659.45	1710.05
659.64	1826.79
659.83	1738.73
660.01	2019.30
660.20	1791.97
660.39	1857.51
660.58	1669.09
660.76	1730.53
660.95	1677.29
661.14	1662.95
661.33	1716.20
661.51	1712.10
661.70	1648.61
661.89	1677.29
662.08	1718.25
662.26	1632.23
662.45	1722.34
662.64	1869.80
662.83	1740.77
663.01	1718.25
663.20	1673.19
663.39	1871.84
663.58	1699.81
663.76	1726.44
663.95	1746.92
664.14	1734.63
664.32	1679.33
664.51	1693.67
664.70	1619.94
664.89	1800.16
665.07	1673.19
665.26	1767.40
665.45	1665.00
665.64	1796.07
665.82	1732.58
666.01	1796.07
666.20	1714.15
666.38	1845.22
666.57	1978.34
666.76	2265.05
666.95	4493.24
667.13	11423.57
667.32	18220.78
667.51	22169.26
667.69	25056.90
667.88	25364.09
668.07	19642.07
668.25	14268.20
668.44	11753.29
668.63	9715.56
668.81	8478.59
669.00	7677.83
669.19	6989.72
669.38	6178.72
669.56	5224.37
669.75	4493.24
669.94	3815.37
670.12	3071.95
670.31	2738.13
670.50	2355.16
670.68	2131.94
670.87	1959.91
671.06	1927.14
671.24	1841.12
671.43	1822.69
671.62	1910.75
671.80	1787.88
671.99	1765.35
672.18	1781.73
672.36	1837.03
672.55	1789.92
672.74	1789.92
672.92	1759.21
673.11	1779.68
673.29	1675.24
673.48	1806.31
673.67	1671.14
673.85	1804.26
674.04	1648.61
674.23	1732.58
674.41	1865.70
674.60	1636.33
674.79	1726.44
674.97	1671.14
675.16	1775.59
675.34	1755.11
675.53	1654.76
675.72	1769.44
675.90	1810.40
676.09	1675.24
676.28	1691.62
676.46	1611.75
676.65	1769.44
676.83	1697.77
677.02	1650.66
677.21	1611.75
677.39	1746.92
677.58	1703.91
677.77	1638.38
677.95	1669.09
678.14	1714.15
678.32	1740.77
678.51	1624.04
678.70	1839.08
678.88	1720.29
679.07	1779.68
679.25	1724.39
679.44	1656.81
679.63	1662.95
679.81	1794.02
680.00	1724.39
680.18	1724.39
680.37	1742.82
680.55	1648.61
680.74	1669.09
680.93	1624.04
681.11	1699.81
681.30	1779.68
681.48	1755.11
681.67	1722.34
681.85	1693.67
682.04	1681.38
682.23	1771.49
682.41	1763.30
682.60	1736.68
682.78	1710.05
682.97	1648.61
683.15	1740.77
683.34	1708.01
683.53	1771.49
683.71	1681.38
683.90	1806.31
684.08	1841.12
684.27	1640.42
684.45	1769.44
684.64	1742.82
684.82	1759.21
685.01	1636.33
685.19	1771.49
685.38	1806.31
685.57	1712.10
685.75	1712.10
685.94	1724.39
686.12	1603.56
686.31	1665.00
686.49	1832.93
686.68	1611.75
686.86	1746.92
687.05	1660.90
687.23	1839.08
687.42	1685.48
687.60	1691.62
687.79	1697.77
687.97	1875.94
688.16	1789.92
688.34	1871.84
688.53	1642.47
688.71	1708.01
688.90	1714.15
689.08	1714.15
689.27	1615.85
689.45	1765.35
689.64	1685.48
689.82	1722.34
690.01	1791.97
690.19	1720.29
690.38	1689.57
690.56	1796.07
690.75	1679.33
690.93	1734.63
691.12	1671.14
691.30	1730.53
691.49	1751.01
691.67	1667.05
691.86	1839.08
692.04	1710.05
692.23	1632.23
692.41	1777.64
692.60	1832.93
692.78	1791.97
692.97	1808.36
693.15	1824.74
693.34	1906.66
693.52	1810.40
693.71	1742.82
693.89	1693.67
694.08	1679.33
694.26	1808.36
694.44	1705.96
694.63	1759.21
694.81	1626.09
695.00	1693.67
695.18	1730.53
695.37	1804.26
695.55	1673.19
695.74	1736.68
695.92	1662.95
696.10	1845.22
696.29	1611.75
696.47	1652.71
696.66	1673.19
696.84	1703.91
697.03	1644.52
697.21	1830.88
697.40	2332.64
697.58	1791.97
697.76	1798.12
697.95	1736.68
698.13	1669.09
698.32	1775.59
698.50	1761.25
698.68	1763.30
698.87	1742.82
699.05	1853.41
699.24	1710.05
699.42	1675.24
699.61	1728.49
699.79	1718.25
699.97	1734.63
700.16	1728.49
700.34	1656.81
700.53	1726.44
700.71	1857.51
700.89	1738.73
701.08	1718.25
701.26	1742.82
701.45	2236.38
701.63	1648.61
701.81	1665.00
702.00	1763.30
702.18	1708.01
702.37	1800.16
702.55	1982.43
702.73	1824.74
702.92	1890.28
703.10	1927.14
703.28	2062.30
703.47	1902.56
703.65	1853.41
703.84	1914.85
704.02	1767.40
704.20	1839.08
704.39	1736.68
704.57	1681.38
704.75	1857.51
704.94	1787.88
705.12	1816.55
705.30	1890.28
705.49	2519.00
705.67	5418.93
705.86	13115.19
706.04	18820.83
706.22	22474.41
706.41	24931.97
706.59	24565.39
706.77	18931.42
706.96	13631.28
707.14	11571.02
707.32	10049.38
707.51	8882.04
707.69	7896.97
707.87	6680.47
708.06	5599.15
708.24	4227.01
708.42	3311.57
708.61	2854.87
708.79	2238.43
708.97	2070.50
709.16	1955.81
709.34	1865.70
709.52	1722.34
709.71	1701.86
709.89	1751.01
710.07	1726.44
710.26	1677.29
710.44	1699.81
710.62	1787.88
710.80	1732.58
710.99	1775.59
711.17	1779.68
711.35	1705.96
711.54	1708.01
711.72	1771.49
711.90	1724.39
712.09	1701.86
712.27	1687.53
712.45	1742.82
712.63	1646.57
712.82	1748.97
713.00	1693.67
713.18	1791.97
713.37	1726.44
713.55	1771.49
713.73	1738.73
713.91	1726.44
714.10	1716.20
714.28	1718.25
714.46	1697.77
714.65	1765.35
714.83	1683.43
715.01	1681.38
715.19	1734.63
715.38	1656.81
715.56	1701.86
715.74	1695.72
715.92	1724.39
716.11	1791.97
716.29	1626.09
716.47	1724.39
716.65	1675.24
716.84	1634.28
717.02	1757.16
717.20	1624.04
717.38	1626.09
717.57	1734.63
717.75	1701.86
717.93	1705.96
718.11	1738.73
718.30	1656.81
718.48	1677.29
718.66	1755.11
718.84	1759.21
719.03	1730.53
719.21	1658.85
719.39	1839.08
719.57	1802.21
719.75	1734.63
719.94	1650.66
720.12	1677.29
720.30	1730.53
720.48	1779.68
720.67	1626.09
720.85	1654.76
721.03	1691.62
721.21	1652.71
721.39	1681.38
721.58	1724.39
721.76	1718.25
721.94	1779.68
722.12	1669.09
722.30	1820.64
722.49	1691.62
722.67	1781.73
722.85	1736.68
723.03	1654.76
723.21	1677.29
723.40	1779.68
723.58	1746.92
723.76	1740.77
723.94	1783.78
724.12	1830.88
724.30	1869.80
724.49	1871.84
724.67	1685.48
724.85	1820.64
725.03	1742.82
725.21	1800.16
725.40	1767.40
725.58	1730.53
725.76	1763.30
725.94	1779.68
726.12	1703.91
726.30	1804.26
726.49	1738.73
726.67	1669.09
726.85	1755.11
727.03	1781.73
727.21	2293.72
727.39	3422.16
727.57	4986.80
727.76	5650.35
727.94	6207.39
728.12	6227.87
728.30	5547.95
728.48	4304.83
728.66	4020.16
728.84	3532.75
729.03	3153.87
729.21	2901.97
729.39	2465.75
729.57	2099.17
729.75	1972.19
729.93	1935.33
730.11	1806.31
730.30	1783.78
730.48	1734.63
730.66	1847.27
730.84	1773.54
731.02	1701.86
731.20	1693.67
731.38	1730.53
731.56	1656.81
731.74	1701.86
731.93	1734.63
732.11	1757.16
732.29	1748.97
732.47	1736.68
732.65	1683.43
732.83	1816.55
733.01	1763.30
733.19	1619.94
733.37	1669.09
733.56	1685.48
733.74	1691.62
733.92	1771.49
734.10	1701.86
734.28	1789.92
734.46	1746.92
734.64	1609.70
734.82	1718.25
735.00	1744.87
735.18	1736.68
735.36	1669.09
735.54	1732.58
735.73	1757.16
735.91	1783.78
736.09	1800.16
736.27	1712.10
736.45	1785.83
736.63	1619.94
736.81	1726.44
736.99	1685.48
737.17	1730.53
737.35	1695.72
737.53	1773.54
737.71	1744.87
737.89	1775.59
738.07	1665.00
738.25	1677.29
738.43	1701.86
738.61	1759.21
738.80	1656.81
738.98	1705.96
739.16	1650.66
739.34	1605.61
739.52	1796.07
739.70	1695.72
739.88	1767.40
740.06	1742.82
740.24	1554.41
740.42	1755.11
740.60	1658.85
740.78	1621.99
740.96	1656.81
741.14	1691.62
741.32	1716.20
741.50	1697.77
741.68	1814.50
741.86	1761.25
742.04	1595.37
742.22	1734.63
742.40	1800.16
742.58	1800.16
742.76	1587.18
742.94	1875.94
743.12	1595.37
743.30	1746.92
743.48	1720.29
743.66	1689.57
743.84	1732.58
744.02	1708.01
744.20	1679.33
744.38	1667.05
744.56	1656.81
744.74	1818.60
744.92	1712.10
745.10	1800.16
745.28	1767.40
745.46	1708.01
745.64	1660.90
745.82	1759.21
746.00	1714.15
746.18	1794.02
746.36	1581.03
746.54	1718.25
746.72	1783.78
746.90	1640.42
747.08	1796.07
747.26	1644.52
747.44	1755.11
747.62	1716.20
747.80	1742.82
747.98	1748.97
748.15	1718.25
748.33	1888.23
748.51	1773.54
748.69	1808.36
748.87	1634.28
749.05	1656.81
749.23	1658.85
749.41	1761.25
749.59	1740.77
749.77	1763.30
749.95	1736.68
750.13	1703.91
750.31	1701.86
750.49	1675.24
750.67	1822.69
750.85	1769.44
751.03	1746.92
751.20	1867.75
751.38	1673.19
751.56	1626.09
751.74	1621.99
751.92	1685.48
752.10	1634.28
752.28	1845.22
752.46	1654.76
752.64	1705.96
752.82	1730.53
753.00	1861.60
753.18	1732.58
753.35	1701.86
753.53	1689.57
753.71	1736.68
753.89	1847.27
754.07	1722.34
754.25	1761.25
754.43	1744.87
754.61	1677.29
754.79	1779.68
754.97	1644.52
755.14	1822.69
755.32	1691.62
755.50	1757.16
755.68	1732.58
755.86	1710.05
756.04	1703.91
756.22	1621.99
756.40	1826.79
756.57	1847.27
756.75	1675.24
756.93	1726.44
757.11	1724.39
757.29	1619.94
757.47	1634.28
757.65	1650.66
757.82	1607.66
758.00	1714.15
758.18	1671.14
758.36	1632.23
758.54	1783.78
758.72	1634.28
758.90	1726.44
759.07	1705.96
759.25	1730.53
759.43	1716.20
759.61	1677.29
759.79	2240.48
759.97	1802.21
760.15	1736.68
760.32	1726.44
760.50	1640.42
760.68	1804.26
760.86	1619.94
761.04	1769.44
761.22	1779.68
761.39	1757.16
761.57	1742.82
761.75	1701.86
761.93	1718.25
762.11	1740.77
762.28	1720.29
762.46	1650.66
762.64	1710.05
762.82	1552.36
763.00	1652.71
763.18	1738.73
763.35	1679.33
763.53	1736.68
763.71	1740.77
763.89	1746.92
764.07	1779.68
764.24	1658.85
764.42	1789.92
764.60	1683.43
764.78	1746.92
764.96	1748.97
765.13	1755.11
765.31	1742.82
765.49	1695.72
765.67	1642.47
765.84	1681.38
766.02	1615.85
766.20	1667.05
766.38	1724.39
766.56	1740.77
766.73	1740.77
766.91	1691.62
767.09	1673.19
767.27	1728.49
767.44	1632.23
767.62	1708.01
767.80	1656.81
767.98	1656.81
768.15	1705.96
768.33	1798.12
768.51	1722.34
768.69	1791.97
768.87	1718.25
769.04	1689.57
769.22	1839.08
769.40	1796.07
769.58	1914.85
769.75	1765.35
769.93	1822.69
770.11	1697.77
770.28	1693.67
770.46	1710.05
770.64	1742.82
770.82	1626.09
770.99	1583.08
771.17	1675.24
771.35	1638.38
771.53	1662.95
771.70	1642.47
771.88	1691.62
772.06	1691.62
772.23	1712.10
772.41	1804.26
772.59	1677.29
772.77	1689.57
772.94	1650.66
773.12	1660.90
773.30	1574.89
773.47	1691.62
773.65	1644.52
773.83	1841.12
774.01	1693.67
774.18	1636.33
774.36	1689.57
774.54	1601.51
774.71	1791.97
774.89	1636.33
775.07	1662.95
775.24	1718.25
775.42	1714.15
775.60	1837.03
775.78	1640.42
775.95	1652.71
776.13	1574.89
776.31	1611.75
776.48	1738.73
776.66	1699.81
776.84	1710.05
777.01	1673.19
777.19	1720.29
777.37	1681.38
777.54	1789.92
777.72	1832.93
777.90	1718.25
778.07	1691.62
778.25	1839.08
778.43	1724.39
778.60	1726.44
778.78	1697.77
778.96	1728.49
779.13	1597.42
779.31	1716.20
779.49	1634.28
779.66	1705.96
779.84	1599.46
780.01	1689.57
780.19	1636.33
780.37	1810.40
780.54	1714.15
780.72	1683.43
780.90	1654.76
781.07	1669.09
781.25	1697.77
781.43	1826.79
781.60	1644.52
781.78	1761.25
781.95	1685.48
782.13	1720.29
782.31	1726.44
782.48	1581.03
782.66	1722.34
782.83	1714.15
783.01	1656.81
783.19	1751.01
783.36	1726.44
783.54	1718.25
783.72	1744.87
783.89	1650.66
784.07	1738.73
784.24	1673.19
784.42	1763.30
784.60	1720.29
784.77	1701.86
784.95	1601.51
785.12	1634.28
785.30	1681.38
785.47	1624.04
785.65	1679.33
785.83	1697.77
786.00	1755.11
786.18	1708.01
786.35	1708.01
786.53	1724.39
786.71	1710.05
786.88	1781.73
787.06	1736.68
787.23	1697.77
787.41	1615.85
787.58	1722.34
787.76	1642.47
787.94	1734.63
788.11	1681.38
788.29	1624.04
788.46	1662.95
788.64	1568.74
788.81	1675.24
788.99	1669.09
789.16	1626.09
789.34	1617.90
789.52	1665.00
789.69	1726.44
789.87	1619.94
790.04	1720.29
790.22	1671.14
790.39	1828.84
790.57	1611.75
790.74	1697.77
790.92	1886.18
791.09	1634.28
791.27	1665.00
791.44	1765.35
791.62	1726.44
791.79	1808.36
791.97	1687.53
792.15	1828.84
792.32	1791.97
792.50	1701.86
792.67	1763.30
792.85	1755.11
793.02	1755.11
793.20	1697.77
793.37	1628.14
793.55	1665.00
793.72	1738.73
793.90	1814.50
794.07	1638.38
794.25	1697.77
794.42	1669.09
794.60	1597.42
794.77	1757.16
794.95	1720.29
795.12	1822.69
795.30	1738.73
795.47	1621.99
795.65	1894.37
795.82	1722.34
796.00	1759.21
796.17	1646.57
796.34	1607.66
796.52	1714.15
796.69	1740.77
796.87	1763.30
797.04	1626.09
797.22	1722.34
797.39	1658.85
797.57	1722.34
797.74	1699.81
797.92	1734.63
798.09	1722.34
798.27	1710.05
798.44	1720.29
798.62	1619.94
798.79	1767.40
798.96	1675.24
799.14	1599.46
799.31	1826.79
799.49	1705.96
799.66	1705.96
799.84	1708.01
800.01	1609.70
800.19	1687.53
800.36	1658.85
800.53	1708.01
800.71	1695.72
800.88	1726.44
801.06	1628.14
801.23	1660.90
801.41	1681.38
801.58	1615.85
801.75	1636.33
801.93	1759.21
802.10	1701.86
802.28	1660.90
802.45	1679.33
802.63	1675.24
802.80	1771.49
802.97	1720.29
803.15	1779.68
803.32	1675.24
803.50	1720.29
803.67	1566.70
803.84	1613.80
804.02	1705.96
804.19	1753.06
804.37	1642.47
804.54	1632.23
804.71	1693.67
804.89	1730.53
805.06	1701.86
805.24	1583.08
805.41	1640.42
805.58	1652.71
805.76	1808.36
805.93	1755.11
806.10	1789.92
806.28	1759.21
806.45	1695.72
806.63	1724.39
806.80	1740.77
806.97	1738.73
807.15	1720.29
807.32	1677.29
807.49	1767.40
807.67	1656.81
807.84	1736.68
808.01	1689.57
808.19	1861.60
808.36	1867.75
808.54	1683.43
808.71	1640.42
808.88	1734.63
809.06	1794.02
809.23	1830.88
809.40	1691.62
809.58	1794.02
809.75	1718.25
809.92	1746.92
810.10	1851.36
810.27	1681.38
810.44	1751.01
810.62	1697.77
810.79	1712.10
810.96	1669.09
811.14	1689.57
811.31	1689.57
811.48	1804.26
811.66	1759.21
811.83	1738.73
812.00	1705.96
812.18	1732.58
812.35	1757.16
812.52	1662.95
812.69	1689.57
812.87	1632.23
813.04	1673.19
813.21	1744.87
813.39	1697.77
813.56	1624.04
813.73	1783.78
813.91	1667.05
814.08	1777.64
814.25	1667.05
814.42	1652.71
814.60	1644.52
814.77	1658.85
814.94	1662.95
815.12	1728.49
815.29	1695.72
815.46	1683.43
815.63	1746.92
815.81	1646.57
815.98	1683.43
816.15	1740.77
816.33	1708.01
816.50	1716.20
816.67	1615.85
816.84	1755.11
817.02	1691.62
817.19	1630.18
817.36	1638.38
817.53	1738.73
817.71	1615.85
817.88	1830.88
818.05	1742.82
818.22	1710.05
818.40	1802.21
818.57	1660.90
818.74	1759.21
818.91	1650.66
819.09	1734.63
819.26	1732.58
819.43	1595.37
819.60	1646.57
819.78	1775.59
819.95	1781.73
820.12	1636.33
820.29	1755.11
820.47	1746.92
820.64	1636.33
820.81	1628.14
820.98	1624.04
821.15	1593.32
821.33	1746.92
821.50	1568.74
821.67	1607.66
821.84	1708.01
822.02	1755.11
822.19	1843.17
822.36	1691.62
822.53	1665.00
822.70	1630.18
822.88	1722.34
823.05	1769.44
823.22	1718.25
823.39	1773.54
823.56	1689.57
823.74	1820.64
823.91	1667.05
824.08	1703.91
824.25	1669.09
824.42	1796.07
824.60	1669.09
824.77	1621.99
824.94	1710.05
825.11	1714.15
825.28	1611.75
825.45	1615.85
825.63	1740.77
825.80	1710.05
825.97	1732.58
826.14	1751.01
826.31	1673.19
826.48	1683.43
826.66	1599.46
826.83	1667.05
827.00	1724.39
827.17	1615.85
827.34	1726.44
827.51	1656.81
827.69	1736.68
827.86	1660.90
828.03	1660.90
828.20	1701.86
828.37	1669.09
828.54	1716.20
828.71	1681.38
828.89	1820.64
829.06	1738.73
829.23	1845.22
829.40	1697.77
829.57	1699.81
829.74	1746.92
829.91	1681.38
830.09	1693.67
830.26	1724.39
830.43	1701.86
830.60	1701.86
830.77	1755.11
830.94	1761.25
831.11	1724.39
831.28	1660.90
831.46	1701.86
831.63	1736.68
831.80	1714.15
831.97	1640.42
832.14	1757.16
832.31	1685.48
832.48	1671.14
832.65	1798.12
832.82	1724.39
832.99	1691.62
833.17	1677.29
833.34	1851.36
833.51	1662.95
833.68	1544.17
833.85	1728.49
834.02	1667.05
834.19	1714.15
834.36	1724.39
834.53	1695.72
834.70	1691.62
834.87	1773.54
835.04	1718.25
835.22	1669.09
835.39	1716.20
835.56	1671.14
835.73	1662.95
835.90	1834.98
836.07	1660.90
836.24	1744.87
836.41	1644.52
836.58	1742.82
836.75	1820.64
836.92	1667.05
837.09	1695.72
837.26	1705.96
837.43	1724.39
837.60	1701.86
837.77	1746.92
837.94	1738.73
838.12	1730.53
838.29	1742.82
838.46	1638.38
838.63	1667.05
838.80	1810.40
838.97	1751.01
839.14	1732.58
839.31	1789.92
839.48	1746.92
839.65	1634.28
839.82	1720.29
839.99	1710.05
840.16	1714.15
840.33	1744.87
840.50	1751.01
840.67	1705.96
840.84	1531.88
841.01	1601.51
841.18	1734.63
841.35	1693.67
841.52	1730.53
841.69	1875.94
841.86	1769.44
842.03	1628.14
842.20	1685.48
842.37	1652.71
842.54	1677.29
842.71	1699.81
842.88	1689.57
843.05	1845.22
843.22	1712.10
843.39	1683.43
843.56	1654.76
843.73	1671.14
843.90	1708.01
844.07	1683.43
844.24	1759.21
844.41	1818.60
844.58	1705.96
844.75	1697.77
844.92	1712.10
845.09	1705.96
845.26	1632.23
845.43	1685.48
845.60	1662.95
845.77	1718.25
845.94	1687.53
846.10	1714.15
846.27	1642.47
846.44	1705.96
846.61	1581.03
846.78	1705.96
846.95	1753.06
847.12	1675.24
847.29	1736.68
847.46	1619.94
847.63	1748.97
847.80	1630.18
847.97	1738.73
848.14	1759.21
848.31	1789.92
848.48	1636.33
848.65	1722.34
848.82	1658.85
848.98	1816.55
849.15	1738.73
849.32	1789.92
849.49	1767.40
849.66	1665.00
849.83	1767.40
850.00	1677.29
850.17	1789.92
850.34	1761.25
850.51	1658.85
850.68	1716.20
850.85	1847.27
851.01	1644.52
851.18	1769.44
851.35	1658.85
851.52	1669.09
851.69	1744.87
851.86	1681.38
852.03	1683.43
852.20	1613.80
852.37	1650.66
852.53	1681.38
852.70	1662.95
852.87	1701.86
853.04	1720.29
853.21	1699.81
853.38	1759.21
853.55	1710.05
853.72	1779.68
853.89	1660.90
854.05	1679.33
854.22	1675.24
854.39	1654.76
854.56	1716.20
854.73	1730.53
854.90	1581.03
855.07	1796.07
855.23	1607.66
855.40	1718.25
855.57	1626.09
855.74	1593.32
855.91	1912.80
856.08	1640.42
856.25	1630.18
856.41	1638.38
856.58	1585.13
856.75	1726.44
856.92	1587.18
857.09	1740.77
857.26	1662.95
857.42	1640.42
857.59	1837.03
857.76	1667.05
857.93	1679.33
858.10	1624.04
858.27	1681.38
858.43	1697.77
858.60	1687.53
858.77	1599.46
858.94	1656.81
859.11	1816.55
859.27	1673.19
859.44	1865.70
859.61	1794.02
859.78	1804.26
859.95	1644.52
860.12	1669.09
860.28	1822.69
860.45	1789.92
860.62	1648.61
860.79	1634.28
860.95	1671.14
861.12	1652.71
861.29	1693.67
861.46	1654.76
861.63	1779.68
861.79	1683.43
861.96	1634.28
862.13	1697.77
862.30	1822.69
862.47	1681.38
862.63	1712.10
862.80	1818.60
862.97	1746.92
863.14	1703.91
863.30	1738.73
863.47	1632.23
863.64	1738.73
863.81	1724.39
863.97	1701.86
864.14	1730.53
864.31	1681.38
864.48	1673.19
864.65	1699.81
864.81	1785.83
864.98	1732.58
865.15	1781.73
865.32	1751.01
865.48	1880.04
865.65	1800.16
865.82	1648.61
865.98	1744.87
866.15	1732.58
866.32	1724.39
866.49	1660.90
866.65	1769.44
866.82	1669.09
866.99	1705.96
867.16	1683.43
867.32	1662.95
867.49	1722.34
867.66	1683.43
867.83	1613.80
867.99	1609.70
868.16	1681.38
868.33	1599.46
868.49	1738.73
868.66	1642.47
868.83	1773.54
868.99	1624.04
869.16	1746.92
869.33	1779.68
869.50	1736.68
869.66	1701.86
869.83	1703.91
870.00	1662.95
870.16	1695.72
870.33	1726.44
870.50	1808.36
870.66	1605.61
870.83	1808.36
871.00	1683.43
871.17	1699.81
871.33	1701.86
871.50	1681.38
871.67	1632.23
871.83	1593.32
872.00	1748.97
872.17	1726.44
872.33	1732.58
872.50	1769.44
872.67	1621.99
872.83	1755.11
873.00	1581.03
873.17	1722.34
873.33	1673.19
873.50	1714.15
873.67	1648.61
873.83	1644.52
874.00	1703.91
874.16	1710.05
874.33	1658.85
874.50	1654.76
874.66	1767.40
874.83	1746.92
875.00	1701.86
875.16	1757.16
875.33	1849.32
875.50	1613.80
875.66	1648.61
875.83	1697.77
875.99	1693.67
876.16	1691.62
876.33	1609.70
876.49	1699.81
876.66	1718.25
876.83	1640.42
876.99	1581.03
877.16	1746.92
877.32	1732.58
877.49	1654.76
877.66	1650.66
877.82	1673.19
877.99	1767.40
878.15	1755.11
878.32	1720.29
878.49	1738.73
878.65	1689.57
878.82	1777.64
878.98	1675.24
879.15	1791.97
879.32	1759.21
879.48	1673.19
879.65	1699.81
879.81	1716.20
879.98	1681.38
880.15	1738.73
880.31	1736.68
880.48	1675.24
880.64	1781.73
880.81	1695.72
880.97	1818.60
881.14	1761.25
881.31	1660.90
881.47	1837.03
881.64	1718.25
881.80	1677.29
881.97	1759.21
882.13	1757.16
882.30	1658.85
882.47	1665.00
882.63	1624.04
882.80	1728.49
882.96	1683.43
883.13	1781.73
883.29	1738.73
883.46	1691.62
883.62	1816.55
883.79	1787.88
883.95	1755.11
884.12	1685.48
884.29	1765.35
884.45	1705.96
884.62	1769.44
884.78	1603.56
884.95	1800.16
885.11	1714.15
885.28	1808.36
885.44	1619.94
885.61	1771.49
885.77	1787.88
885.94	1712.10
886.10	1724.39
886.27	1681.38
886.43	1808.36
886.60	1673.19
886.76	1685.48
886.93	1660.90
887.09	1755.11
887.26	1640.42
887.42	1714.15
887.59	1753.06
887.75	1886.18
887.92	1736.68
888.08	1751.01
888.25	1839.08
888.41	1740.77
888.58	1724.39
888.74	1624.04
888.91	1708.01
>>>>>End Processed Spectral Data<<<<<
