SpectraSuite Data File
++++++++++++++++++++++++++++++++++++
Date: Mon Jun 06 13:23:37 CEST 2016
User: root
Dark Spectrum Present: No
Reference Spectrum Present: No
Number of Sampled Component Spectra: 1
Spectrometers: USB4C02835
Integration Time (usec): 100000 (USB4C02835)
Spectra Averaged: 1 (USB4C02835)
Boxcar Smoothing: 0 (USB4C02835)
Correct for Electrical Dark: No (USB4C02835)
Strobe/Lamp Enabled: No (USB4C02835)
Correct for Detector Non-linearity: No (USB4C02835)
Correct for Stray Light: No (USB4C02835)
Number of Pixels in Processed Spectrum: 3648
>>>>>Begin Processed Spectral Data<<<<<
177.47	1468.39
177.69	1468.39
177.91	1468.39
178.13	1419.24
178.36	1472.49
178.58	1576.94
178.80	1732.58
179.02	1605.61
179.24	1624.04
179.46	1605.61
179.68	1726.44
179.90	1767.40
180.13	1685.48
180.35	1626.09
180.57	1738.73
180.79	1699.81
181.01	1691.62
181.23	1742.82
181.45	1738.73
181.67	1720.29
181.90	1714.15
182.12	1703.91
182.34	1619.94
182.56	1761.25
182.78	1685.48
183.00	1720.29
183.22	1679.33
183.44	1626.09
183.66	1918.95
183.89	1726.44
184.11	1689.57
184.33	1771.49
184.55	1746.92
184.77	1685.48
184.99	1701.86
185.21	1658.85
185.43	1853.41
185.65	1697.77
185.87	1705.96
186.10	1773.54
186.32	1843.17
186.54	1673.19
186.76	1693.67
186.98	1744.87
187.20	1648.61
187.42	1632.23
187.64	1761.25
187.86	1730.53
188.08	1746.92
188.30	1685.48
188.52	1665.00
188.75	1814.50
188.97	1705.96
189.19	1628.14
189.41	1673.19
189.63	1724.39
189.85	1669.09
190.07	1652.71
190.29	1697.77
190.51	1734.63
190.73	1609.70
190.95	1757.16
191.17	1705.96
191.39	1646.57
191.61	1626.09
191.84	1687.53
192.06	1718.25
192.28	1581.03
192.50	1789.92
192.72	1734.63
192.94	1763.30
193.16	1822.69
193.38	1734.63
193.60	1669.09
193.82	1685.48
194.04	1800.16
194.26	1742.82
194.48	1683.43
194.70	1638.38
194.92	1667.05
195.14	1710.05
195.36	1693.67
195.58	1693.67
195.80	1703.91
196.02	1613.80
196.24	1677.29
196.46	1755.11
196.69	1621.99
196.91	1794.02
197.13	1736.68
197.35	1669.09
197.57	1777.64
197.79	1701.86
198.01	1714.15
198.23	1742.82
198.45	1722.34
198.67	1607.66
198.89	1697.77
199.11	1720.29
199.33	1685.48
199.55	1611.75
199.77	1718.25
199.99	1748.97
200.21	1644.52
200.43	1697.77
200.65	1613.80
200.87	1564.65
201.09	1617.90
201.31	1714.15
201.53	1742.82
201.75	1738.73
201.97	1724.39
202.19	1660.90
202.41	1691.62
202.63	1818.60
202.85	1650.66
203.07	1705.96
203.29	1675.24
203.51	1605.61
203.73	1681.38
203.95	1880.04
204.17	1777.64
204.39	1675.24
204.61	1738.73
204.83	1728.49
205.05	1701.86
205.27	1763.30
205.49	1763.30
205.71	1656.81
205.93	1578.98
206.15	1626.09
206.37	1607.66
206.59	1734.63
206.81	1654.76
207.03	1673.19
207.25	1650.66
207.47	1765.35
207.69	1687.53
207.91	1697.77
208.13	1767.40
208.34	1673.19
208.56	1656.81
208.78	1734.63
209.00	1656.81
209.22	1621.99
209.44	1679.33
209.66	1673.19
209.88	1738.73
210.10	1671.14
210.32	1630.18
210.54	1724.39
210.76	1691.62
210.98	1742.82
211.20	1538.02
211.42	1681.38
211.64	1730.53
211.86	1685.48
212.08	1732.58
212.30	1648.61
212.52	1685.48
212.74	1714.15
212.96	1699.81
213.17	1804.26
213.39	1730.53
213.61	1775.59
213.83	1712.10
214.05	1640.42
214.27	1779.68
214.49	1599.46
214.71	1640.42
214.93	1859.56
215.15	1734.63
215.37	1732.58
215.59	1648.61
215.81	1712.10
216.03	1771.49
216.24	1708.01
216.46	1757.16
216.68	1667.05
216.90	1791.97
217.12	1677.29
217.34	1748.97
217.56	1753.06
217.78	1759.21
218.00	1710.05
218.22	1777.64
218.44	1759.21
218.66	1675.24
218.87	1824.74
219.09	1701.86
219.31	1753.06
219.53	1777.64
219.75	1624.04
219.97	1636.33
220.19	1722.34
220.41	1722.34
220.63	1828.84
220.85	1742.82
221.06	1656.81
221.28	1761.25
221.50	1738.73
221.72	1712.10
221.94	1730.53
222.16	1703.91
222.38	1746.92
222.60	1822.69
222.82	1718.25
223.03	1779.68
223.25	1621.99
223.47	1742.82
223.69	1771.49
223.91	1748.97
224.13	1710.05
224.35	1708.01
224.57	1738.73
224.78	1757.16
225.00	1671.14
225.22	1595.37
225.44	1650.66
225.66	1681.38
225.88	1644.52
226.10	1759.21
226.32	1675.24
226.53	1787.88
226.75	1621.99
226.97	1660.90
227.19	1681.38
227.41	1705.96
227.63	1720.29
227.85	1621.99
228.06	1697.77
228.28	1730.53
228.50	1744.87
228.72	1642.47
228.94	1654.76
229.16	1669.09
229.37	1677.29
229.59	1630.18
229.81	1861.60
230.03	1679.33
230.25	1652.71
230.47	1660.90
230.69	1646.57
230.90	1746.92
231.12	1654.76
231.34	1718.25
231.56	1849.32
231.78	1656.81
232.00	1751.01
232.21	1703.91
232.43	1714.15
232.65	1533.93
232.87	1755.11
233.09	1568.74
233.30	1685.48
233.52	1714.15
233.74	1667.05
233.96	1630.18
234.18	1689.57
234.40	1642.47
234.61	1796.07
234.83	1581.03
235.05	1665.00
235.27	1832.93
235.49	1714.15
235.70	1787.88
235.92	1812.45
236.14	1701.86
236.36	1812.45
236.58	1644.52
236.79	1714.15
237.01	1730.53
237.23	1773.54
237.45	1726.44
237.67	1656.81
237.88	1710.05
238.10	1828.84
238.32	1677.29
238.54	1665.00
238.76	1667.05
238.97	1656.81
239.19	1759.21
239.41	1732.58
239.63	1767.40
239.85	1689.57
240.06	1765.35
240.28	1701.86
240.50	1773.54
240.72	1675.24
240.93	1681.38
241.15	1751.01
241.37	1650.66
241.59	1804.26
241.81	1705.96
242.02	1714.15
242.24	1691.62
242.46	1771.49
242.68	1681.38
242.89	1720.29
243.11	1724.39
243.33	1642.47
243.55	1693.67
243.76	1726.44
243.98	1593.32
244.20	1648.61
244.42	1652.71
244.64	1710.05
244.85	1654.76
245.07	1607.66
245.29	1728.49
245.51	1689.57
245.72	1673.19
245.94	1804.26
246.16	1738.73
246.38	1751.01
246.59	1662.95
246.81	1630.18
247.03	1681.38
247.24	1640.42
247.46	1683.43
247.68	1794.02
247.90	1724.39
248.11	1572.84
248.33	1787.88
248.55	1665.00
248.77	1697.77
248.98	1714.15
249.20	1808.36
249.42	1691.62
249.64	1699.81
249.85	1755.11
250.07	1591.27
250.29	1699.81
250.50	1734.63
250.72	1613.80
250.94	1755.11
251.16	1808.36
251.37	1773.54
251.59	1753.06
251.81	1736.68
252.02	1798.12
252.24	1648.61
252.46	1746.92
252.68	1679.33
252.89	1714.15
253.11	1626.09
253.33	1816.55
253.54	1783.78
253.76	1681.38
253.98	1708.01
254.20	1746.92
254.41	1636.33
254.63	1654.76
254.85	1646.57
255.06	1691.62
255.28	1716.20
255.50	1708.01
255.71	1667.05
255.93	1626.09
256.15	1619.94
256.36	1798.12
256.58	1675.24
256.80	1759.21
257.02	1705.96
257.23	1671.14
257.45	1714.15
257.67	1667.05
257.88	1675.24
258.10	1644.52
258.32	1748.97
258.53	1765.35
258.75	1724.39
258.97	1671.14
259.18	1660.90
259.40	1640.42
259.62	1810.40
259.83	1748.97
260.05	1828.84
260.27	1959.91
260.48	1703.91
260.70	1599.46
260.92	1753.06
261.13	1697.77
261.35	1734.63
261.57	1744.87
261.78	1605.61
262.00	1681.38
262.22	1675.24
262.43	1718.25
262.65	1679.33
262.86	1710.05
263.08	1841.12
263.30	1681.38
263.51	1619.94
263.73	1609.70
263.95	1789.92
264.16	1665.00
264.38	1615.85
264.60	1722.34
264.81	1660.90
265.03	1820.64
265.25	1773.54
265.46	1726.44
265.68	1734.63
265.89	1693.67
266.11	1669.09
266.33	1888.23
266.54	1703.91
266.76	1673.19
266.98	1767.40
267.19	1808.36
267.41	1726.44
267.62	1667.05
267.84	1634.28
268.06	1638.38
268.27	1785.83
268.49	1765.35
268.70	1652.71
268.92	1757.16
269.14	1621.99
269.35	1632.23
269.57	1650.66
269.79	1710.05
270.00	1656.81
270.22	1765.35
270.43	1658.85
270.65	1632.23
270.87	1759.21
271.08	1710.05
271.30	1759.21
271.51	1718.25
271.73	1789.92
271.95	1796.07
272.16	1718.25
272.38	1726.44
272.59	1685.48
272.81	1730.53
273.02	1728.49
273.24	1726.44
273.46	1839.08
273.67	1679.33
273.89	1667.05
274.10	1691.62
274.32	1773.54
274.54	1716.20
274.75	1726.44
274.97	1726.44
275.18	1763.30
275.40	1705.96
275.61	1753.06
275.83	1705.96
276.05	1628.14
276.26	1705.96
276.48	1693.67
276.69	1705.96
276.91	1691.62
277.12	1773.54
277.34	1648.61
277.55	1714.15
277.77	1714.15
277.99	1646.57
278.20	1667.05
278.42	1609.70
278.63	1658.85
278.85	1615.85
279.06	1660.90
279.28	1814.50
279.49	1705.96
279.71	1740.77
279.93	1728.49
280.14	1691.62
280.36	1695.72
280.57	1808.36
280.79	1769.44
281.00	1685.48
281.22	1714.15
281.43	1761.25
281.65	1535.98
281.86	1558.50
282.08	1730.53
282.29	1769.44
282.51	1652.71
282.73	1556.46
282.94	1656.81
283.16	1781.73
283.37	1791.97
283.59	1736.68
283.80	1691.62
284.02	1689.57
284.23	1734.63
284.45	1615.85
284.66	1621.99
284.88	1667.05
285.09	1726.44
285.31	1724.39
285.52	1755.11
285.74	1638.38
285.95	1751.01
286.17	1660.90
286.38	1800.16
286.60	1718.25
286.81	1701.86
287.03	1611.75
287.24	1683.43
287.46	1748.97
287.67	1771.49
287.89	1789.92
288.10	1681.38
288.32	1753.06
288.53	1826.79
288.75	1728.49
288.96	1781.73
289.18	1732.58
289.39	1705.96
289.61	1740.77
289.82	1783.78
290.04	1837.03
290.25	1603.56
290.47	1708.01
290.68	1687.53
290.90	1826.79
291.11	1570.79
291.33	1787.88
291.54	1628.14
291.76	1697.77
291.97	1687.53
292.18	1724.39
292.40	1642.47
292.61	1689.57
292.83	1798.12
293.04	1742.82
293.26	1732.58
293.47	1740.77
293.69	1650.66
293.90	1671.14
294.12	1744.87
294.33	1697.77
294.55	1708.01
294.76	1816.55
294.97	1804.26
295.19	1888.23
295.40	1714.15
295.62	1744.87
295.83	1726.44
296.05	1626.09
296.26	1810.40
296.48	1667.05
296.69	1755.11
296.90	1652.71
297.12	1712.10
297.33	1736.68
297.55	1718.25
297.76	1710.05
297.98	1681.38
298.19	1728.49
298.41	1648.61
298.62	1607.66
298.83	1769.44
299.05	1730.53
299.26	1615.85
299.48	1603.56
299.69	1722.34
299.90	1699.81
300.12	1683.43
300.33	1689.57
300.55	1736.68
300.76	1763.30
300.98	1687.53
301.19	1734.63
301.40	1660.90
301.62	1708.01
301.83	1703.91
302.05	1716.20
302.26	1642.47
302.47	1765.35
302.69	1628.14
302.90	1779.68
303.12	1574.89
303.33	1779.68
303.54	1832.93
303.76	1667.05
303.97	1746.92
304.19	1722.34
304.40	1705.96
304.61	1652.71
304.83	1746.92
305.04	1773.54
305.26	1681.38
305.47	1693.67
305.68	1708.01
305.90	1593.32
306.11	1697.77
306.33	1648.61
306.54	1640.42
306.75	1722.34
306.97	1675.24
307.18	1558.50
307.39	1685.48
307.61	1787.88
307.82	1716.20
308.04	1644.52
308.25	1691.62
308.46	1736.68
308.68	1640.42
308.89	1732.58
309.10	1769.44
309.32	1705.96
309.53	1632.23
309.74	1734.63
309.96	1699.81
310.17	1789.92
310.39	1675.24
310.60	1726.44
310.81	1685.48
311.03	1613.80
311.24	1791.97
311.45	1617.90
311.67	1843.17
311.88	1718.25
312.09	1621.99
312.31	1560.55
312.52	1675.24
312.73	1734.63
312.95	1654.76
313.16	1699.81
313.37	1791.97
313.59	1738.73
313.80	1710.05
314.01	1785.83
314.23	1667.05
314.44	1626.09
314.65	1675.24
314.87	1683.43
315.08	1665.00
315.29	1685.48
315.51	1648.61
315.72	1636.33
315.93	1757.16
316.15	1665.00
316.36	1599.46
316.57	1732.58
316.79	1687.53
317.00	1693.67
317.21	1693.67
317.43	1644.52
317.64	1734.63
317.85	1703.91
318.07	1628.14
318.28	1718.25
318.49	1726.44
318.70	1877.99
318.92	1781.73
319.13	1673.19
319.34	1824.74
319.56	1748.97
319.77	1847.27
319.98	1757.16
320.20	1787.88
320.41	1753.06
320.62	1746.92
320.83	1632.23
321.05	1796.07
321.26	1738.73
321.47	1689.57
321.69	1781.73
321.90	1593.32
322.11	1691.62
322.32	1615.85
322.54	1845.22
322.75	1699.81
322.96	1871.84
323.18	1619.94
323.39	1609.70
323.60	1673.19
323.81	1783.78
324.03	1630.18
324.24	1712.10
324.45	1662.95
324.66	1703.91
324.88	1736.68
325.09	1839.08
325.30	1677.29
325.52	1783.78
325.73	1726.44
325.94	1677.29
326.15	1603.56
326.37	1566.70
326.58	1730.53
326.79	1810.40
327.00	1640.42
327.22	1773.54
327.43	1718.25
327.64	1574.89
327.85	1695.72
328.07	1689.57
328.28	1701.86
328.49	1728.49
328.70	1722.34
328.92	1673.19
329.13	1652.71
329.34	1779.68
329.55	1759.21
329.76	1794.02
329.98	1599.46
330.19	1759.21
330.40	1669.09
330.61	1789.92
330.83	1669.09
331.04	1628.14
331.25	1685.48
331.46	1677.29
331.68	1683.43
331.89	1761.25
332.10	1734.63
332.31	1556.46
332.52	1732.58
332.74	1802.21
332.95	1628.14
333.16	1644.52
333.37	1718.25
333.58	1669.09
333.80	1708.01
334.01	1642.47
334.22	1685.48
334.43	1648.61
334.64	1591.27
334.86	1648.61
335.07	1665.00
335.28	1714.15
335.49	1644.52
335.70	1738.73
335.92	1697.77
336.13	1804.26
336.34	1660.90
336.55	1656.81
336.76	1669.09
336.98	1552.36
337.19	1695.72
337.40	1753.06
337.61	1884.13
337.82	1718.25
338.04	1693.67
338.25	1621.99
338.46	1751.01
338.67	1697.77
338.88	1683.43
339.09	1628.14
339.31	1662.95
339.52	1576.94
339.73	1636.33
339.94	1699.81
340.15	1648.61
340.36	1714.15
340.58	1714.15
340.79	1607.66
341.00	1791.97
341.21	1673.19
341.42	1812.45
341.63	1742.82
341.85	1763.30
342.06	1689.57
342.27	1626.09
342.48	1767.40
342.69	1597.42
342.90	1785.83
343.12	1669.09
343.33	1665.00
343.54	1705.96
343.75	1830.88
343.96	1738.73
344.17	1689.57
344.38	1724.39
344.60	1689.57
344.81	1675.24
345.02	1650.66
345.23	1779.68
345.44	1798.12
345.65	1800.16
345.86	1673.19
346.07	1736.68
346.29	1701.86
346.50	1638.38
346.71	1685.48
346.92	1667.05
347.13	1757.16
347.34	1746.92
347.55	1660.90
347.76	1701.86
347.98	1605.61
348.19	1669.09
348.40	1783.78
348.61	1667.05
348.82	1746.92
349.03	1755.11
349.24	1740.77
349.45	1820.64
349.66	1558.50
349.88	1626.09
350.09	1732.58
350.30	1820.64
350.51	1763.30
350.72	1757.16
350.93	1695.72
351.14	1660.90
351.35	1714.15
351.56	1695.72
351.77	1683.43
351.99	1726.44
352.20	1814.50
352.41	1806.31
352.62	1652.71
352.83	1658.85
353.04	1734.63
353.25	1689.57
353.46	1791.97
353.67	1722.34
353.88	1564.65
354.09	1681.38
354.30	1714.15
354.52	1716.20
354.73	1685.48
354.94	1705.96
355.15	1689.57
355.36	1763.30
355.57	1681.38
355.78	1683.43
355.99	1648.61
356.20	1644.52
356.41	1744.87
356.62	1732.58
356.83	1716.20
357.04	1820.64
357.25	1558.50
357.46	1751.01
357.68	1609.70
357.89	1667.05
358.10	1730.53
358.31	1732.58
358.52	1656.81
358.73	1662.95
358.94	1718.25
359.15	1685.48
359.36	1773.54
359.57	1671.14
359.78	1660.90
359.99	1695.72
360.20	1611.75
360.41	1658.85
360.62	1765.35
360.83	1679.33
361.04	1681.38
361.25	1763.30
361.46	1763.30
361.67	1738.73
361.88	1771.49
362.09	1730.53
362.30	1703.91
362.51	1644.52
362.72	1646.57
362.93	1738.73
363.14	1738.73
363.35	1648.61
363.56	1632.23
363.78	1699.81
363.99	1718.25
364.20	1673.19
364.41	1644.52
364.62	1791.97
364.83	1634.28
365.04	1660.90
365.25	1654.76
365.46	1804.26
365.67	1658.85
365.88	1583.08
366.09	1650.66
366.30	1638.38
366.51	1714.15
366.72	1665.00
366.93	1667.05
367.14	1683.43
367.35	1789.92
367.56	1681.38
367.77	1765.35
367.98	1714.15
368.18	1726.44
368.39	1738.73
368.60	1642.47
368.81	1660.90
369.02	1730.53
369.23	1662.95
369.44	1667.05
369.65	1695.72
369.86	1802.21
370.07	1665.00
370.28	1648.61
370.49	1726.44
370.70	1730.53
370.91	1673.19
371.12	1710.05
371.33	1736.68
371.54	1658.85
371.75	1759.21
371.96	1605.61
372.17	1628.14
372.38	1746.92
372.59	1742.82
372.80	1677.29
373.01	1759.21
373.22	1734.63
373.43	1662.95
373.64	1673.19
373.85	1708.01
374.06	1843.17
374.26	1687.53
374.47	1757.16
374.68	1820.64
374.89	1656.81
375.10	1732.58
375.31	1703.91
375.52	1767.40
375.73	1699.81
375.94	1665.00
376.15	1746.92
376.36	1636.33
376.57	1644.52
376.78	1630.18
376.99	1748.97
377.20	1763.30
377.40	1665.00
377.61	1798.12
377.82	1595.37
378.03	1769.44
378.24	1751.01
378.45	1642.47
378.66	1771.49
378.87	1615.85
379.08	1632.23
379.29	1732.58
379.50	1775.59
379.71	1640.42
379.91	1740.77
380.12	1730.53
380.33	1691.62
380.54	1644.52
380.75	1751.01
380.96	1669.09
381.17	1812.45
381.38	1738.73
381.59	1742.82
381.80	1644.52
382.00	1894.37
382.21	1671.14
382.42	1882.08
382.63	1912.80
382.84	1759.21
383.05	1759.21
383.26	1810.40
383.47	1703.91
383.68	1738.73
383.88	1771.49
384.09	1738.73
384.30	1830.88
384.51	1695.72
384.72	1761.25
384.93	1665.00
385.14	1730.53
385.35	1736.68
385.55	1609.70
385.76	1730.53
385.97	1691.62
386.18	1607.66
386.39	1673.19
386.60	1626.09
386.81	1736.68
387.02	1705.96
387.22	1693.67
387.43	1808.36
387.64	1695.72
387.85	1804.26
388.06	2166.75
388.27	4222.91
388.48	6776.73
388.68	8271.75
388.89	9695.08
389.10	9971.56
389.31	8558.46
389.52	7528.33
389.73	6629.27
389.93	6258.59
390.14	5748.65
390.35	5164.98
390.56	4575.16
390.77	3692.49
390.98	3067.86
391.18	2475.99
391.39	2117.60
391.60	1853.41
391.81	1796.07
392.02	1693.67
392.23	1820.64
392.43	1726.44
392.64	1794.02
392.85	1726.44
393.06	1763.30
393.27	1697.77
393.47	1693.67
393.68	1718.25
393.89	1671.14
394.10	1832.93
394.31	1640.42
394.52	1609.70
394.72	1652.71
394.93	1779.68
395.14	1662.95
395.35	1714.15
395.56	1832.93
395.76	1679.33
395.97	1738.73
396.18	1871.84
396.39	1820.64
396.60	2078.69
396.80	1832.93
397.01	1832.93
397.22	1880.04
397.43	1800.16
397.64	1726.44
397.84	1753.06
398.05	1759.21
398.26	1716.20
398.47	1724.39
398.67	1800.16
398.88	1755.11
399.09	1708.01
399.30	1669.09
399.51	1779.68
399.71	1669.09
399.92	1703.91
400.13	1742.82
400.34	1693.67
400.54	1632.23
400.75	1820.64
400.96	1753.06
401.17	1755.11
401.37	1697.77
401.58	1675.24
401.79	1699.81
402.00	1808.36
402.21	2002.91
402.41	1945.57
402.62	1984.48
402.83	2062.30
403.04	1972.19
403.24	2066.40
403.45	1886.18
403.66	1855.46
403.87	1808.36
404.07	1845.22
404.28	1933.28
404.49	1920.99
404.70	1755.11
404.90	1738.73
405.11	1781.73
405.32	1779.68
405.52	1732.58
405.73	1699.81
405.94	1742.82
406.15	1718.25
406.35	1665.00
406.56	1712.10
406.77	1718.25
406.98	1720.29
407.18	1560.55
407.39	1742.82
407.60	1689.57
407.80	1693.67
408.01	1630.18
408.22	1738.73
408.43	1734.63
408.63	1689.57
408.84	1812.45
409.05	1708.01
409.25	1691.62
409.46	1712.10
409.67	1691.62
409.88	1640.42
410.08	1726.44
410.29	1695.72
410.50	1710.05
410.70	1716.20
410.91	1654.76
411.12	1794.02
411.32	1722.34
411.53	1630.18
411.74	1783.78
411.95	1761.25
412.15	1708.01
412.36	1708.01
412.57	1837.03
412.77	1857.51
412.98	1771.49
413.19	1693.67
413.39	1738.73
413.60	1697.77
413.81	1771.49
414.01	1564.65
414.22	1746.92
414.43	1824.74
414.63	1710.05
414.84	1806.31
415.05	1771.49
415.25	1644.52
415.46	1699.81
415.67	1689.57
415.87	1718.25
416.08	1701.86
416.29	1710.05
416.49	1757.16
416.70	1671.14
416.91	1644.52
417.11	1703.91
417.32	1705.96
417.53	1697.77
417.73	1724.39
417.94	1658.85
418.15	1695.72
418.35	1734.63
418.56	1738.73
418.77	1834.98
418.97	1681.38
419.18	1644.52
419.38	1587.18
419.59	1794.02
419.80	1720.29
420.00	1673.19
420.21	1673.19
420.42	1748.97
420.62	1689.57
420.83	1632.23
421.04	1751.01
421.24	1710.05
421.45	1703.91
421.65	1841.12
421.86	1683.43
422.07	1751.01
422.27	1769.44
422.48	1728.49
422.69	1640.42
422.89	1761.25
423.10	1689.57
423.30	1636.33
423.51	1740.77
423.72	1714.15
423.92	1679.33
424.13	1669.09
424.33	1763.30
424.54	1714.15
424.75	1710.05
424.95	1857.51
425.16	1730.53
425.36	1699.81
425.57	1816.55
425.78	1761.25
425.98	1705.96
426.19	1738.73
426.39	1626.09
426.60	1712.10
426.81	1775.59
427.01	1753.06
427.22	1628.14
427.42	1593.32
427.63	1665.00
427.83	1736.68
428.04	1781.73
428.25	1824.74
428.45	1728.49
428.66	1822.69
428.86	1708.01
429.07	1621.99
429.28	1714.15
429.48	1673.19
429.69	1691.62
429.89	1710.05
430.10	1607.66
430.30	1726.44
430.51	1783.78
430.71	1601.51
430.92	1714.15
431.13	1662.95
431.33	1708.01
431.54	1773.54
431.74	1767.40
431.95	1820.64
432.15	1634.28
432.36	1716.20
432.56	1724.39
432.77	1808.36
432.98	1806.31
433.18	1722.34
433.39	1695.72
433.59	1679.33
433.80	1830.88
434.00	1869.80
434.21	1613.80
434.41	1669.09
434.62	1853.41
434.82	1638.38
435.03	1603.56
435.23	1677.29
435.44	1583.08
435.64	1697.77
435.85	1691.62
436.06	1765.35
436.26	1755.11
436.47	1679.33
436.67	1658.85
436.88	1697.77
437.08	1738.73
437.29	1730.53
437.49	1794.02
437.70	1781.73
437.90	1617.90
438.11	1839.08
438.31	1791.97
438.52	1904.61
438.72	1861.60
438.93	1871.84
439.13	1859.56
439.34	1806.31
439.54	1712.10
439.75	1839.08
439.95	1828.84
440.16	1734.63
440.36	1732.58
440.57	1851.36
440.77	1693.67
440.98	1656.81
441.18	1720.29
441.39	1718.25
441.59	1599.46
441.80	1892.32
442.00	1683.43
442.21	1812.45
442.41	1662.95
442.62	1808.36
442.82	1634.28
443.02	1701.86
443.23	1695.72
443.43	1748.97
443.64	1699.81
443.84	1726.44
444.05	1806.31
444.25	1736.68
444.46	1712.10
444.66	1720.29
444.87	1783.78
445.07	1609.70
445.28	1675.24
445.48	1785.83
445.69	1701.86
445.89	1834.98
446.09	1753.06
446.30	1898.47
446.50	2645.98
446.71	3573.71
446.91	4349.89
447.12	4728.76
447.32	4872.12
447.53	4157.38
447.73	3960.77
447.93	3426.25
448.14	3293.13
448.34	3127.25
448.55	2916.31
448.75	2858.96
448.96	2693.08
449.16	2435.03
449.36	2187.23
449.57	2054.11
449.77	1892.32
449.98	1767.40
450.18	1798.12
450.39	1765.35
450.59	1765.35
450.79	1720.29
451.00	1755.11
451.20	1800.16
451.41	1720.29
451.61	1761.25
451.81	1775.59
452.02	1751.01
452.22	1695.72
452.43	1744.87
452.63	1740.77
452.84	1738.73
453.04	1734.63
453.24	1660.90
453.45	1697.77
453.65	1691.62
453.86	1734.63
454.06	1705.96
454.26	1656.81
454.47	1679.33
454.67	1869.80
454.87	1736.68
455.08	1746.92
455.28	1796.07
455.49	1763.30
455.69	1693.67
455.89	1890.28
456.10	1781.73
456.30	1751.01
456.51	1753.06
456.71	1806.31
456.91	1787.88
457.12	1824.74
457.32	1753.06
457.52	1652.71
457.73	1779.68
457.93	1746.92
458.14	1689.57
458.34	1662.95
458.54	1759.21
458.75	1746.92
458.95	1818.60
459.15	1701.86
459.36	1699.81
459.56	1710.05
459.76	1865.70
459.97	1751.01
460.17	1714.15
460.37	1767.40
460.58	1699.81
460.78	1806.31
460.99	1708.01
461.19	1746.92
461.39	1720.29
461.60	1683.43
461.80	1744.87
462.00	1669.09
462.21	1708.01
462.41	1595.37
462.61	1673.19
462.82	1708.01
463.02	1736.68
463.22	1697.77
463.43	1773.54
463.63	1777.64
463.83	1781.73
464.04	1753.06
464.24	1685.48
464.44	1699.81
464.64	1705.96
464.85	1730.53
465.05	1744.87
465.25	1705.96
465.46	1705.96
465.66	1814.50
465.86	1714.15
466.07	1753.06
466.27	1710.05
466.47	1636.33
466.68	1648.61
466.88	1814.50
467.08	1722.34
467.29	1746.92
467.49	1712.10
467.69	1746.92
467.89	1769.44
468.10	1658.85
468.30	1804.26
468.50	1855.46
468.71	1796.07
468.91	1650.66
469.11	1804.26
469.31	1681.38
469.52	1730.53
469.72	1755.11
469.92	1828.84
470.13	1800.16
470.33	1726.44
470.53	1832.93
470.73	2127.84
470.94	2285.53
471.14	2432.99
471.34	2525.15
471.54	2394.08
471.75	2246.62
471.95	2119.65
472.15	2107.36
472.36	2109.41
472.56	2064.35
472.76	2039.78
472.96	2090.98
473.17	1853.41
473.37	1871.84
473.57	1861.60
473.77	1812.45
473.98	1779.68
474.18	1732.58
474.38	1910.75
474.58	1648.61
474.79	1632.23
474.99	1685.48
475.19	1783.78
475.39	1718.25
475.60	1734.63
475.80	1714.15
476.00	1691.62
476.20	1734.63
476.41	1685.48
476.61	1771.49
476.81	1695.72
477.01	1708.01
477.21	1796.07
477.42	1802.21
477.62	1660.90
477.82	1701.86
478.02	1732.58
478.23	1693.67
478.43	1685.48
478.63	1626.09
478.83	1701.86
479.03	1724.39
479.24	1800.16
479.44	1847.27
479.64	1615.85
479.84	1560.55
480.04	1726.44
480.25	1802.21
480.45	1718.25
480.65	1767.40
480.85	1777.64
481.06	1742.82
481.26	1656.81
481.46	1841.12
481.66	1677.29
481.86	1703.91
482.06	1763.30
482.27	1675.24
482.47	1667.05
482.67	1740.77
482.87	1710.05
483.07	1718.25
483.28	1652.71
483.48	1675.24
483.68	1732.58
483.88	1687.53
484.08	1632.23
484.29	1689.57
484.49	1755.11
484.69	1615.85
484.89	1761.25
485.09	1830.88
485.29	1785.83
485.50	1648.61
485.70	1753.06
485.90	1755.11
486.10	1761.25
486.30	1708.01
486.50	1810.40
486.71	1841.12
486.91	1751.01
487.11	1814.50
487.31	1628.14
487.51	1757.16
487.71	1652.71
487.91	1665.00
488.12	1632.23
488.32	1681.38
488.52	1650.66
488.72	1564.65
488.92	1669.09
489.12	1837.03
489.32	1722.34
489.53	1685.48
489.73	1642.47
489.93	1839.08
490.13	1677.29
490.33	1624.04
490.53	1695.72
490.73	1763.30
490.94	1568.74
491.14	1806.31
491.34	1818.60
491.54	2068.45
491.74	2486.23
491.94	2879.44
492.14	3082.19
492.34	2920.40
492.54	2805.72
492.75	2516.95
492.95	2467.80
493.15	2330.59
493.35	2330.59
493.55	2207.71
493.75	2172.89
493.95	2019.30
494.15	1943.52
494.35	1914.85
494.56	1886.18
494.76	1761.25
494.96	1746.92
495.16	1767.40
495.36	1816.55
495.56	1677.29
495.76	1783.78
495.96	1783.78
496.16	1658.85
496.36	1812.45
496.56	1699.81
496.77	1783.78
496.97	1695.72
497.17	1806.31
497.37	1755.11
497.57	1726.44
497.77	1722.34
497.97	1632.23
498.17	1716.20
498.37	1681.38
498.57	1814.50
498.77	1712.10
498.97	1783.78
499.17	1888.23
499.38	1800.16
499.58	1773.54
499.78	1761.25
499.98	1812.45
500.18	1789.92
500.38	1703.91
500.58	1843.17
500.78	2547.67
500.98	4509.63
501.18	5666.73
501.38	6662.04
501.58	7073.68
501.78	6647.71
501.98	5429.17
502.18	4917.17
502.38	4378.56
502.58	4077.51
502.78	3823.56
502.98	3661.77
503.18	3510.22
503.38	3278.80
503.59	2879.44
503.79	2650.07
503.99	2402.27
504.19	2220.00
504.39	2203.61
504.59	2209.76
504.79	2011.11
504.99	2095.07
505.19	1910.75
505.39	1853.41
505.59	1943.52
505.79	1877.99
505.99	1804.26
506.19	1753.06
506.39	1859.56
506.59	1716.20
506.79	1714.15
506.99	1794.02
507.19	1701.86
507.39	1759.21
507.59	1673.19
507.79	1726.44
507.99	1632.23
508.19	1697.77
508.39	1662.95
508.59	1753.06
508.79	1867.75
508.99	1865.70
509.19	1744.87
509.39	1806.31
509.59	1742.82
509.79	1603.56
509.99	1763.30
510.19	1693.67
510.39	1771.49
510.59	1705.96
510.79	1621.99
510.99	1619.94
511.19	1689.57
511.39	1748.97
511.59	1800.16
511.79	1814.50
511.99	1720.29
512.19	1853.41
512.38	1757.16
512.58	1701.86
512.78	1720.29
512.98	1773.54
513.18	1834.98
513.38	1673.19
513.58	1763.30
513.78	1730.53
513.98	1767.40
514.18	1693.67
514.38	1677.29
514.58	1791.97
514.78	1705.96
514.98	1658.85
515.18	1740.77
515.38	1736.68
515.58	1877.99
515.78	1673.19
515.98	1748.97
516.18	1740.77
516.38	1738.73
516.57	1652.71
516.77	1667.05
516.97	1759.21
517.17	1710.05
517.37	1581.03
517.57	1771.49
517.77	1730.53
517.97	1701.86
518.17	1779.68
518.37	1677.29
518.57	1697.77
518.77	1660.90
518.97	1671.14
519.16	1757.16
519.36	1753.06
519.56	1714.15
519.76	1677.29
519.96	1763.30
520.16	1769.44
520.36	1722.34
520.56	1796.07
520.76	1671.14
520.96	1699.81
521.16	1722.34
521.35	1738.73
521.55	1753.06
521.75	1748.97
521.95	1781.73
522.15	1689.57
522.35	1710.05
522.55	1660.90
522.75	1806.31
522.95	1761.25
523.14	1648.61
523.34	1712.10
523.54	1724.39
523.74	1751.01
523.94	1736.68
524.14	1591.27
524.34	1732.58
524.54	1804.26
524.73	1742.82
524.93	1728.49
525.13	1730.53
525.33	1648.61
525.53	1861.60
525.73	1697.77
525.93	1710.05
526.13	1759.21
526.32	1658.85
526.52	1726.44
526.72	1779.68
526.92	1712.10
527.12	1716.20
527.32	1687.53
527.52	1722.34
527.71	1728.49
527.91	1714.15
528.11	1708.01
528.31	1695.72
528.51	1677.29
528.71	1734.63
528.90	1742.82
529.10	1687.53
529.30	1859.56
529.50	1701.86
529.70	1734.63
529.90	1665.00
530.09	1720.29
530.29	1693.67
530.49	1691.62
530.69	1816.55
530.89	1675.24
531.09	1816.55
531.28	1658.85
531.48	1718.25
531.68	1791.97
531.88	1779.68
532.08	1806.31
532.28	1658.85
532.47	1753.06
532.67	1804.26
532.87	1781.73
533.07	1662.95
533.27	1847.27
533.46	1757.16
533.66	1791.97
533.86	1683.43
534.06	1755.11
534.26	1763.30
534.45	1722.34
534.65	1808.36
534.85	1685.48
535.05	1746.92
535.25	1699.81
535.44	1556.46
535.64	1769.44
535.84	1769.44
536.04	1748.97
536.24	1710.05
536.43	1693.67
536.63	1697.77
536.83	1732.58
537.03	1697.77
537.22	1697.77
537.42	1609.70
537.62	1705.96
537.82	1697.77
538.02	1796.07
538.21	1832.93
538.41	1935.33
538.61	1720.29
538.81	1685.48
539.00	1767.40
539.20	1691.62
539.40	1695.72
539.60	1730.53
539.79	1806.31
539.99	1722.34
540.19	1683.43
540.39	1736.68
540.58	1757.16
540.78	1683.43
540.98	1796.07
541.18	1705.96
541.37	1775.59
541.57	1662.95
541.77	1689.57
541.97	1566.70
542.16	1667.05
542.36	1683.43
542.56	1673.19
542.76	1882.08
542.95	1822.69
543.15	1751.01
543.35	1755.11
543.54	1632.23
543.74	1718.25
543.94	1789.92
544.14	1708.01
544.33	1730.53
544.53	1742.82
544.73	1673.19
544.93	1640.42
545.12	1728.49
545.32	1718.25
545.52	1701.86
545.71	1681.38
545.91	1703.91
546.11	1718.25
546.30	1703.91
546.50	1708.01
546.70	1806.31
546.90	1791.97
547.09	1603.56
547.29	1693.67
547.49	1761.25
547.68	1681.38
547.88	1718.25
548.08	1761.25
548.27	2160.61
548.47	1701.86
548.67	1787.88
548.87	1763.30
549.06	1716.20
549.26	1677.29
549.46	1705.96
549.65	1685.48
549.85	1781.73
550.05	1769.44
550.24	1699.81
550.44	1667.05
550.64	1738.73
550.83	1730.53
551.03	1826.79
551.23	1755.11
551.42	1748.97
551.62	1785.83
551.82	1689.57
552.01	1689.57
552.21	1773.54
552.41	1677.29
552.60	1798.12
552.80	1705.96
553.00	1746.92
553.19	1683.43
553.39	1834.98
553.59	1701.86
553.78	1787.88
553.98	1796.07
554.17	1648.61
554.37	1781.73
554.57	1732.58
554.76	1675.24
554.96	1699.81
555.16	1779.68
555.35	1777.64
555.55	1744.87
555.75	1660.90
555.94	1712.10
556.14	1679.33
556.33	1771.49
556.53	1726.44
556.73	1679.33
556.92	1804.26
557.12	1845.22
557.32	1791.97
557.51	1777.64
557.71	1738.73
557.90	1920.99
558.10	1841.12
558.30	1763.30
558.49	1722.34
558.69	1687.53
558.88	1697.77
559.08	1755.11
559.28	1703.91
559.47	1798.12
559.67	1753.06
559.86	1824.74
560.06	1771.49
560.26	1806.31
560.45	1787.88
560.65	1710.05
560.84	1738.73
561.04	1671.14
561.24	1830.88
561.43	1646.57
561.63	1832.93
561.82	1720.29
562.02	1771.49
562.22	1746.92
562.41	1650.66
562.61	1742.82
562.80	1689.57
563.00	1841.12
563.19	1781.73
563.39	1849.32
563.59	1751.01
563.78	1656.81
563.98	1667.05
564.17	1757.16
564.37	1636.33
564.56	1716.20
564.76	1646.57
564.96	1853.41
565.15	1765.35
565.35	1894.37
565.54	1632.23
565.74	1775.59
565.93	1843.17
566.13	1724.39
566.32	1763.30
566.52	1802.21
566.71	1775.59
566.91	1781.73
567.11	1705.96
567.30	1624.04
567.50	1824.74
567.69	1787.88
567.89	1689.57
568.08	1638.38
568.28	1775.59
568.47	1695.72
568.67	1685.48
568.86	1710.05
569.06	1757.16
569.25	1761.25
569.45	1656.81
569.64	1738.73
569.84	1804.26
570.04	1814.50
570.23	1718.25
570.43	1658.85
570.62	1789.92
570.82	1837.03
571.01	1718.25
571.21	1714.15
571.40	1673.19
571.60	1765.35
571.79	1787.88
571.99	1798.12
572.18	1701.86
572.38	1757.16
572.57	1785.83
572.77	1841.12
572.96	1904.61
573.16	1736.68
573.35	1681.38
573.55	1779.68
573.74	1738.73
573.94	1755.11
574.13	1638.38
574.33	1757.16
574.52	1806.31
574.71	1718.25
574.91	1740.77
575.10	1636.33
575.30	1826.79
575.49	1736.68
575.69	1673.19
575.88	1726.44
576.08	1708.01
576.27	1777.64
576.47	1765.35
576.66	1830.88
576.86	1898.47
577.05	1755.11
577.25	1746.92
577.44	1814.50
577.64	1732.58
577.83	1800.16
578.02	1683.43
578.22	1857.51
578.41	1849.32
578.61	1742.82
578.80	1599.46
579.00	1703.91
579.19	1742.82
579.39	1710.05
579.58	1781.73
579.77	1767.40
579.97	1812.45
580.16	1888.23
580.36	1826.79
580.55	1877.99
580.75	1767.40
580.94	1742.82
581.13	1771.49
581.33	1892.32
581.52	1824.74
581.72	1904.61
581.91	1818.60
582.11	1746.92
582.30	1812.45
582.49	1755.11
582.69	1892.32
582.88	1732.58
583.08	1710.05
583.27	1888.23
583.47	1759.21
583.66	1712.10
583.85	1791.97
584.05	1742.82
584.24	1787.88
584.44	1734.63
584.63	1769.44
584.82	1759.21
585.02	1806.31
585.21	1822.69
585.41	1847.27
585.60	1818.60
585.79	1892.32
585.99	1957.86
586.18	1828.84
586.37	2158.56
586.57	3426.25
586.76	9867.11
586.96	24454.79
587.15	34313.72
587.34	40564.12
587.54	42083.71
587.73	36949.45
587.93	26334.83
588.12	21634.74
588.31	18278.12
588.51	16375.56
588.70	15105.82
588.89	14149.42
589.09	12545.86
589.28	10985.30
589.47	9340.79
589.67	8081.28
589.86	6528.92
590.06	4917.17
590.25	3823.56
590.44	3082.19
590.64	2559.96
590.83	2205.66
591.02	2113.50
591.22	2000.87
591.41	1837.03
591.60	1828.84
591.80	1947.62
591.99	1775.59
592.18	1789.92
592.38	1841.12
592.57	1800.16
592.76	1734.63
592.96	1781.73
593.15	1771.49
593.34	1746.92
593.54	1697.77
593.73	1808.36
593.92	1751.01
594.12	1753.06
594.31	1705.96
594.50	1818.60
594.70	1791.97
594.89	1894.37
595.08	1718.25
595.28	1755.11
595.47	1847.27
595.66	1736.68
595.86	1753.06
596.05	1794.02
596.24	1730.53
596.43	1777.64
596.63	1869.80
596.82	1787.88
597.01	1759.21
597.21	1789.92
597.40	1798.12
597.59	1716.20
597.79	1787.88
597.98	1732.58
598.17	1759.21
598.36	1738.73
598.56	1767.40
598.75	1705.96
598.94	1746.92
599.14	1722.34
599.33	1628.14
599.52	1802.21
599.71	1800.16
599.91	1771.49
600.10	1826.79
600.29	1751.01
600.48	1794.02
600.68	1753.06
600.87	1765.35
601.06	1697.77
601.26	1710.05
601.45	1744.87
601.64	1714.15
601.83	1732.58
602.03	1767.40
602.22	1671.14
602.41	1671.14
602.60	1855.46
602.80	1808.36
602.99	1732.58
603.18	1665.00
603.37	1814.50
603.57	1761.25
603.76	1806.31
603.95	1773.54
604.14	1716.20
604.34	1681.38
604.53	1724.39
604.72	1755.11
604.91	1708.01
605.10	1746.92
605.30	1722.34
605.49	1865.70
605.68	1777.64
605.87	1781.73
606.07	1687.53
606.26	1796.07
606.45	1734.63
606.64	1818.60
606.84	1695.72
607.03	1736.68
607.22	1804.26
607.41	1685.48
607.60	1748.97
607.80	1769.44
607.99	1755.11
608.18	1714.15
608.37	1693.67
608.56	1730.53
608.76	1761.25
608.95	1902.56
609.14	1693.67
609.33	1742.82
609.52	1804.26
609.72	1685.48
609.91	1738.73
610.10	1810.40
610.29	1791.97
610.48	1757.16
610.68	1724.39
610.87	1681.38
611.06	1826.79
611.25	1695.72
611.44	1796.07
611.63	1744.87
611.83	1847.27
612.02	1601.51
612.21	1822.69
612.40	1617.90
612.59	1689.57
612.79	1699.81
612.98	1708.01
613.17	1802.21
613.36	1755.11
613.55	1804.26
613.74	1771.49
613.93	1697.77
614.13	1742.82
614.32	1693.67
614.51	1728.49
614.70	1683.43
614.89	1726.44
615.08	1658.85
615.28	2070.50
615.47	1656.81
615.66	1699.81
615.85	1710.05
616.04	1789.92
616.23	1773.54
616.42	1718.25
616.62	1732.58
616.81	1771.49
617.00	1714.15
617.19	1767.40
617.38	1732.58
617.57	1748.97
617.76	1757.16
617.95	1738.73
618.15	1697.77
618.34	1738.73
618.53	1669.09
618.72	1738.73
618.91	1755.11
619.10	1781.73
619.29	1738.73
619.48	1677.29
619.68	1705.96
619.87	1775.59
620.06	1695.72
620.25	1757.16
620.44	1712.10
620.63	1718.25
620.82	1710.05
621.01	1771.49
621.20	1738.73
621.39	1789.92
621.59	1757.16
621.78	1746.92
621.97	1675.24
622.16	1759.21
622.35	1671.14
622.54	1796.07
622.73	1734.63
622.92	1640.42
623.11	1804.26
623.30	1722.34
623.49	1730.53
623.68	1667.05
623.88	1763.30
624.07	1755.11
624.26	1687.53
624.45	1812.45
624.64	1781.73
624.83	1746.92
625.02	1665.00
625.21	1751.01
625.40	1769.44
625.59	1769.44
625.78	1730.53
625.97	1771.49
626.16	1728.49
626.35	1695.72
626.54	1734.63
626.74	1841.12
626.93	1701.86
627.12	1748.97
627.31	1779.68
627.50	1734.63
627.69	1828.84
627.88	1656.81
628.07	1712.10
628.26	1689.57
628.45	1738.73
628.64	1593.32
628.83	1699.81
629.02	1722.34
629.21	1728.49
629.40	1710.05
629.59	1759.21
629.78	1726.44
629.97	1728.49
630.16	1703.91
630.35	1724.39
630.54	1744.87
630.73	1681.38
630.92	1740.77
631.11	1605.61
631.30	1779.68
631.49	1736.68
631.68	1787.88
631.87	1763.30
632.06	1607.66
632.25	1767.40
632.44	1665.00
632.63	1759.21
632.82	1630.18
633.01	1703.91
633.20	1757.16
633.39	1693.67
633.58	1611.75
633.77	1738.73
633.96	1734.63
634.15	1759.21
634.34	1716.20
634.53	1773.54
634.72	1732.58
634.91	1744.87
635.10	1759.21
635.29	1712.10
635.48	1669.09
635.67	1732.58
635.86	1644.52
636.05	1865.70
636.24	1724.39
636.43	1771.49
636.62	1701.86
636.81	1585.13
637.00	1751.01
637.19	1669.09
637.38	1769.44
637.57	1681.38
637.76	1650.66
637.95	1665.00
638.14	1669.09
638.33	1728.49
638.52	1665.00
638.71	1638.38
638.89	1714.15
639.08	1800.16
639.27	1708.01
639.46	1708.01
639.65	1759.21
639.84	1689.57
640.03	1787.88
640.22	1683.43
640.41	1732.58
640.60	1683.43
640.79	1730.53
640.98	1669.09
641.17	1742.82
641.36	1718.25
641.55	1822.69
641.74	1705.96
641.92	1730.53
642.11	1593.32
642.30	1660.90
642.49	1714.15
642.68	1691.62
642.87	1746.92
643.06	1718.25
643.25	1648.61
643.44	1701.86
643.63	1705.96
643.82	1738.73
644.00	1697.77
644.19	1703.91
644.38	1611.75
644.57	1728.49
644.76	1679.33
644.95	1646.57
645.14	1755.11
645.33	1722.34
645.52	1746.92
645.71	1621.99
645.89	1609.70
646.08	1744.87
646.27	1654.76
646.46	1859.56
646.65	1687.53
646.84	1714.15
647.03	1675.24
647.22	1775.59
647.40	1681.38
647.59	1705.96
647.78	1644.52
647.97	1693.67
648.16	1740.77
648.35	1775.59
648.54	1767.40
648.73	1683.43
648.91	1822.69
649.10	1734.63
649.29	1748.97
649.48	1718.25
649.67	1746.92
649.86	1689.57
650.05	1609.70
650.23	1671.14
650.42	1710.05
650.61	1705.96
650.80	1714.15
650.99	1871.84
651.18	1697.77
651.36	1677.29
651.55	1742.82
651.74	1753.06
651.93	1728.49
652.12	1648.61
652.31	1669.09
652.49	1660.90
652.68	1701.86
652.87	1710.05
653.06	1656.81
653.25	1787.88
653.44	1695.72
653.62	1810.40
653.81	1679.33
654.00	1693.67
654.19	1740.77
654.38	1832.93
654.56	1712.10
654.75	1730.53
654.94	1777.64
655.13	1714.15
655.32	1673.19
655.51	1761.25
655.69	1558.50
655.88	1699.81
656.07	1656.81
656.26	1722.34
656.45	1722.34
656.63	1779.68
656.82	1728.49
657.01	1742.82
657.20	1667.05
657.38	1767.40
657.57	1648.61
657.76	1640.42
657.95	1751.01
658.14	1677.29
658.32	1714.15
658.51	1673.19
658.70	1732.58
658.89	1775.59
659.08	1759.21
659.26	1853.41
659.45	1689.57
659.64	1753.06
659.83	1722.34
660.01	1927.14
660.20	1650.66
660.39	1785.83
660.58	1632.23
660.76	1744.87
660.95	1626.09
661.14	1646.57
661.33	1675.24
661.51	1757.16
661.70	1667.05
661.89	1755.11
662.08	1767.40
662.26	1716.20
662.45	1611.75
662.64	1816.55
662.83	1720.29
663.01	1662.95
663.20	1679.33
663.39	1748.97
663.58	1648.61
663.76	1632.23
663.95	1751.01
664.14	1675.24
664.32	1685.48
664.51	1708.01
664.70	1611.75
664.89	1665.00
665.07	1648.61
665.26	1740.77
665.45	1660.90
665.64	1773.54
665.82	1785.83
666.01	1769.44
666.20	1693.67
666.38	1828.84
666.57	1857.51
666.76	2131.94
666.95	4489.15
667.13	10188.64
667.32	15152.92
667.51	17377.01
667.69	18900.70
667.88	17538.80
668.07	12238.66
668.25	9541.49
668.44	8075.14
668.63	7362.45
668.81	6764.44
669.00	6326.18
669.19	5617.58
669.38	5060.53
669.56	4605.88
669.75	4028.35
669.94	3393.48
670.12	2963.41
670.31	2598.87
670.50	2324.44
670.68	2101.22
670.87	1867.75
671.06	1759.21
671.24	1777.64
671.43	1806.31
671.62	1716.20
671.80	1703.91
671.99	1796.07
672.18	1742.82
672.36	1697.77
672.55	1691.62
672.74	1730.53
672.92	1718.25
673.11	1728.49
673.29	1695.72
673.48	1751.01
673.67	1738.73
673.85	1763.30
674.04	1599.46
674.23	1775.59
674.41	1791.97
674.60	1611.75
674.79	1656.81
674.97	1626.09
675.16	1794.02
675.34	1832.93
675.53	1652.71
675.72	1734.63
675.90	1806.31
676.09	1718.25
676.28	1699.81
676.46	1710.05
676.65	1738.73
676.83	1681.38
677.02	1708.01
677.21	1763.30
677.39	1712.10
677.58	1662.95
677.77	1665.00
677.95	1574.89
678.14	1761.25
678.32	1765.35
678.51	1652.71
678.70	1812.45
678.88	1673.19
679.07	1714.15
679.25	1699.81
679.44	1685.48
679.63	1693.67
679.81	1681.38
680.00	1832.93
680.18	1695.72
680.37	1759.21
680.55	1699.81
680.74	1646.57
680.93	1642.47
681.11	1720.29
681.30	1705.96
681.48	1763.30
681.67	1660.90
681.85	1607.66
682.04	1640.42
682.23	1765.35
682.41	1769.44
682.60	1656.81
682.78	1722.34
682.97	1611.75
683.15	1738.73
683.34	1701.86
683.53	1806.31
683.71	1708.01
683.90	1804.26
684.08	1757.16
684.27	1710.05
684.45	1679.33
684.64	1783.78
684.82	1673.19
685.01	1718.25
685.19	1714.15
685.38	1767.40
685.57	1679.33
685.75	1613.80
685.94	1726.44
686.12	1628.14
686.31	1695.72
686.49	1751.01
686.68	1660.90
686.86	1697.77
687.05	1619.94
687.23	1736.68
687.42	1656.81
687.60	1638.38
687.79	1748.97
687.97	1775.59
688.16	1828.84
688.34	1806.31
688.53	1617.90
688.71	1685.48
688.90	1775.59
689.08	1705.96
689.27	1624.04
689.45	1751.01
689.64	1718.25
689.82	1730.53
690.01	1640.42
690.19	1757.16
690.38	1660.90
690.56	1820.64
690.75	1705.96
690.93	1732.58
691.12	1656.81
691.30	1714.15
691.49	1687.53
691.67	1669.09
691.86	1783.78
692.04	1615.85
692.23	1673.19
692.41	1685.48
692.60	1812.45
692.78	1683.43
692.97	1744.87
693.15	1751.01
693.34	1775.59
693.52	1751.01
693.71	1751.01
693.89	1689.57
694.08	1574.89
694.26	1742.82
694.44	1740.77
694.63	1763.30
694.81	1648.61
695.00	1595.37
695.18	1734.63
695.37	1863.65
695.55	1740.77
695.74	1671.14
695.92	1658.85
696.10	1751.01
696.29	1654.76
696.47	1632.23
696.66	1669.09
696.84	1691.62
697.03	1640.42
697.21	1796.07
697.40	2336.73
697.58	1837.03
697.76	1640.42
697.95	1626.09
698.13	1671.14
698.32	1660.90
698.50	1703.91
698.68	1783.78
698.87	1712.10
699.05	1796.07
699.24	1720.29
699.42	1648.61
699.61	1683.43
699.79	1736.68
699.97	1814.50
700.16	1693.67
700.34	1671.14
700.53	1736.68
700.71	1830.88
700.89	1769.44
701.08	1644.52
701.26	1677.29
701.45	2068.45
701.63	1593.32
701.81	1691.62
702.00	1671.14
702.18	1722.34
702.37	1724.39
702.55	1703.91
702.73	1636.33
702.92	1708.01
703.10	1708.01
703.28	1730.53
703.47	1636.33
703.65	1818.60
703.84	1759.21
704.02	1669.09
704.20	1814.50
704.39	1722.34
704.57	1705.96
704.75	1753.06
704.94	1781.73
705.12	1751.01
705.30	1738.73
705.49	2238.43
705.67	4278.21
705.86	9267.06
706.04	12513.09
706.22	14337.83
706.41	15341.33
706.59	13872.94
706.77	9541.49
706.96	7393.17
707.14	6522.78
707.32	5965.73
707.51	5476.27
707.69	4933.56
707.87	4196.29
708.06	3524.55
708.24	2947.03
708.42	2465.75
708.61	2263.01
708.79	1847.27
708.97	1810.40
709.16	1804.26
709.34	1830.88
709.52	1699.81
709.71	1724.39
709.89	1732.58
710.07	1662.95
710.26	1757.16
710.44	1699.81
710.62	1746.92
710.80	1667.05
710.99	1834.98
711.17	1742.82
711.35	1695.72
711.54	1558.50
711.72	1734.63
711.90	1755.11
712.09	1644.52
712.27	1718.25
712.45	1746.92
712.63	1675.24
712.82	1755.11
713.00	1757.16
713.18	1720.29
713.37	1710.05
713.55	1773.54
713.73	1753.06
713.91	1804.26
714.10	1669.09
714.28	1662.95
714.46	1730.53
714.65	1728.49
714.83	1718.25
715.01	1775.59
715.19	1732.58
715.38	1591.27
715.56	1705.96
715.74	1624.04
715.92	1613.80
716.11	1789.92
716.29	1609.70
716.47	1673.19
716.65	1689.57
716.84	1644.52
717.02	1783.78
717.20	1601.51
717.38	1705.96
717.57	1722.34
717.75	1660.90
717.93	1695.72
718.11	1742.82
718.30	1638.38
718.48	1697.77
718.66	1816.55
718.84	1781.73
719.03	1652.71
719.21	1632.23
719.39	1718.25
719.57	1720.29
719.75	1779.68
719.94	1681.38
720.12	1585.13
720.30	1705.96
720.48	1742.82
720.67	1644.52
720.85	1687.53
721.03	1724.39
721.21	1669.09
721.39	1834.98
721.58	1701.86
721.76	1695.72
721.94	1763.30
722.12	1685.48
722.30	1734.63
722.49	1689.57
722.67	1699.81
722.85	1751.01
723.03	1609.70
723.21	1726.44
723.40	1722.34
723.58	1689.57
723.76	1830.88
723.94	1818.60
724.12	1701.86
724.30	1744.87
724.49	1746.92
724.67	1583.08
724.85	1763.30
725.03	1652.71
725.21	1708.01
725.40	1746.92
725.58	1632.23
725.76	1720.29
725.94	1734.63
726.12	1591.27
726.30	1740.77
726.49	1648.61
726.67	1687.53
726.85	1740.77
727.03	1718.25
727.21	2107.36
727.39	2951.12
727.57	3758.02
727.76	4171.71
727.94	4401.08
728.12	4194.24
728.30	3731.40
728.48	3067.86
728.66	2885.59
728.84	2459.61
729.03	2303.96
729.21	2133.98
729.39	2000.87
729.57	1845.22
729.75	1867.75
729.93	1779.68
730.11	1687.53
730.30	1720.29
730.48	1681.38
730.66	1877.99
730.84	1802.21
731.02	1691.62
731.20	1697.77
731.38	1687.53
731.56	1669.09
731.74	1656.81
731.93	1722.34
732.11	1681.38
732.29	1689.57
732.47	1710.05
732.65	1662.95
732.83	1781.73
733.01	1757.16
733.19	1632.23
733.37	1714.15
733.56	1753.06
733.74	1628.14
733.92	1806.31
734.10	1628.14
734.28	1763.30
734.46	1640.42
734.64	1712.10
734.82	1644.52
735.00	1665.00
735.18	1656.81
735.36	1695.72
735.54	1681.38
735.73	1730.53
735.91	1685.48
736.09	1667.05
736.27	1759.21
736.45	1732.58
736.63	1595.37
736.81	1753.06
736.99	1775.59
737.17	1796.07
737.35	1714.15
737.53	1697.77
737.71	1675.24
737.89	1726.44
738.07	1705.96
738.25	1765.35
738.43	1572.84
738.61	1619.94
738.80	1636.33
738.98	1662.95
739.16	1685.48
739.34	1695.72
739.52	1785.83
739.70	1615.85
739.88	1800.16
740.06	1712.10
740.24	1665.00
740.42	1732.58
740.60	1669.09
740.78	1640.42
740.96	1578.98
741.14	1677.29
741.32	1742.82
741.50	1597.42
741.68	1816.55
741.86	1769.44
742.04	1691.62
742.22	1585.13
742.40	1724.39
742.58	1677.29
742.76	1718.25
742.94	1734.63
743.12	1607.66
743.30	1681.38
743.48	1751.01
743.66	1656.81
743.84	1779.68
744.02	1693.67
744.20	1669.09
744.38	1677.29
744.56	1695.72
744.74	1753.06
744.92	1667.05
745.10	1832.93
745.28	1746.92
745.46	1779.68
745.64	1734.63
745.82	1726.44
746.00	1724.39
746.18	1712.10
746.36	1660.90
746.54	1769.44
746.72	1671.14
746.90	1654.76
747.08	1738.73
747.26	1718.25
747.44	1710.05
747.62	1763.30
747.80	1687.53
747.98	1757.16
748.15	1679.33
748.33	1798.12
748.51	1714.15
748.69	1742.82
748.87	1650.66
749.05	1728.49
749.23	1662.95
749.41	1755.11
749.59	1730.53
749.77	1740.77
749.95	1656.81
750.13	1646.57
750.31	1693.67
750.49	1732.58
750.67	1804.26
750.85	1777.64
751.03	1740.77
751.20	1775.59
751.38	1681.38
751.56	1632.23
751.74	1689.57
751.92	1712.10
752.10	1624.04
752.28	1757.16
752.46	1611.75
752.64	1667.05
752.82	1613.80
753.00	1753.06
753.18	1632.23
753.35	1644.52
753.53	1640.42
753.71	1632.23
753.89	1779.68
754.07	1734.63
754.25	1759.21
754.43	1697.77
754.61	1632.23
754.79	1648.61
754.97	1746.92
755.14	1802.21
755.32	1675.24
755.50	1755.11
755.68	1751.01
755.86	1665.00
756.04	1648.61
756.22	1578.98
756.40	1753.06
756.57	1740.77
756.75	1679.33
756.93	1740.77
757.11	1734.63
757.29	1615.85
757.47	1595.37
757.65	1556.46
757.82	1601.51
758.00	1699.81
758.18	1748.97
758.36	1624.04
758.54	1863.65
758.72	1589.22
758.90	1732.58
759.07	1720.29
759.25	1673.19
759.43	1718.25
759.61	1599.46
759.79	2293.72
759.97	1730.53
760.15	1640.42
760.32	1681.38
760.50	1728.49
760.68	1810.40
760.86	1621.99
761.04	1787.88
761.22	1667.05
761.39	1732.58
761.57	1671.14
761.75	1732.58
761.93	1716.20
762.11	1665.00
762.28	1710.05
762.46	1658.85
762.64	1732.58
762.82	1691.62
763.00	1656.81
763.18	1794.02
763.35	1697.77
763.53	1697.77
763.71	1687.53
763.89	1757.16
764.07	1636.33
764.24	1742.82
764.42	1781.73
764.60	1656.81
764.78	1691.62
764.96	1779.68
765.13	1794.02
765.31	1705.96
765.49	1697.77
765.67	1722.34
765.84	1705.96
766.02	1599.46
766.20	1603.56
766.38	1755.11
766.56	1705.96
766.73	1697.77
766.91	1683.43
767.09	1665.00
767.27	1697.77
767.44	1699.81
767.62	1677.29
767.80	1681.38
767.98	1656.81
768.15	1732.58
768.33	1759.21
768.51	1720.29
768.69	1759.21
768.87	1746.92
769.04	1712.10
769.22	1851.36
769.40	1800.16
769.58	1834.98
769.75	1748.97
769.93	1718.25
770.11	1667.05
770.28	1611.75
770.46	1736.68
770.64	1665.00
770.82	1699.81
770.99	1746.92
771.17	1621.99
771.35	1734.63
771.53	1673.19
771.70	1699.81
771.88	1697.77
772.06	1675.24
772.23	1689.57
772.41	1691.62
772.59	1675.24
772.77	1722.34
772.94	1624.04
773.12	1765.35
773.30	1642.47
773.47	1767.40
773.65	1687.53
773.83	1763.30
774.01	1677.29
774.18	1619.94
774.36	1681.38
774.54	1601.51
774.71	1695.72
774.89	1566.70
775.07	1630.18
775.24	1656.81
775.42	1685.48
775.60	1847.27
775.78	1613.80
775.95	1640.42
776.13	1593.32
776.31	1634.28
776.48	1660.90
776.66	1724.39
776.84	1617.90
777.01	1632.23
777.19	1726.44
777.37	1648.61
777.54	1671.14
777.72	1810.40
777.90	1708.01
778.07	1656.81
778.25	1867.75
778.43	1705.96
778.60	1660.90
778.78	1734.63
778.96	1755.11
779.13	1681.38
779.31	1710.05
779.49	1644.52
779.66	1720.29
779.84	1646.57
780.01	1671.14
780.19	1697.77
780.37	1738.73
780.54	1697.77
780.72	1646.57
780.90	1667.05
781.07	1619.94
781.25	1656.81
781.43	1742.82
781.60	1675.24
781.78	1748.97
781.95	1724.39
782.13	1646.57
782.31	1677.29
782.48	1603.56
782.66	1732.58
782.83	1894.37
783.01	1720.29
783.19	1759.21
783.36	1726.44
783.54	1603.56
783.72	1736.68
783.89	1687.53
784.07	1712.10
784.24	1734.63
784.42	1830.88
784.60	1705.96
784.77	1767.40
784.95	1652.71
785.12	1613.80
785.30	1767.40
785.47	1628.14
785.65	1583.08
785.83	1699.81
786.00	1656.81
786.18	1648.61
786.35	1671.14
786.53	1630.18
786.71	1701.86
786.88	1685.48
787.06	1683.43
787.23	1679.33
787.41	1640.42
787.58	1685.48
787.76	1648.61
787.94	1730.53
788.11	1722.34
788.29	1675.24
788.46	1710.05
788.64	1632.23
788.81	1693.67
788.99	1611.75
789.16	1650.66
789.34	1722.34
789.52	1724.39
789.69	1669.09
789.87	1515.50
790.04	1681.38
790.22	1689.57
790.39	1820.64
790.57	1665.00
790.74	1593.32
790.92	1730.53
791.09	1578.98
791.27	1669.09
791.44	1712.10
791.62	1779.68
791.79	1677.29
791.97	1708.01
792.15	1851.36
792.32	1693.67
792.50	1830.88
792.67	1753.06
792.85	1789.92
793.02	1671.14
793.20	1761.25
793.37	1642.47
793.55	1726.44
793.72	1576.94
793.90	1763.30
794.07	1656.81
794.25	1689.57
794.42	1701.86
794.60	1701.86
794.77	1695.72
794.95	1730.53
795.12	1728.49
795.30	1716.20
795.47	1593.32
795.65	1820.64
795.82	1734.63
796.00	1658.85
796.17	1669.09
796.34	1671.14
796.52	1675.24
796.69	1744.87
796.87	1697.77
797.04	1738.73
797.22	1757.16
797.39	1791.97
797.57	1744.87
797.74	1685.48
797.92	1693.67
798.09	1685.48
798.27	1746.92
798.44	1673.19
798.62	1685.48
798.79	1716.20
798.96	1710.05
799.14	1724.39
799.31	1812.45
799.49	1665.00
799.66	1576.94
799.84	1675.24
800.01	1644.52
800.19	1705.96
800.36	1605.61
800.53	1726.44
800.71	1726.44
800.88	1753.06
801.06	1732.58
801.23	1644.52
801.41	1753.06
801.58	1609.70
801.75	1665.00
801.93	1742.82
802.10	1705.96
802.28	1773.54
802.45	1660.90
802.63	1732.58
802.80	1759.21
802.97	1665.00
803.15	1675.24
803.32	1703.91
803.50	1619.94
803.67	1654.76
803.84	1597.42
804.02	1712.10
804.19	1619.94
804.37	1599.46
804.54	1591.27
804.71	1736.68
804.89	1689.57
805.06	1662.95
805.24	1589.22
805.41	1681.38
805.58	1603.56
805.76	1863.65
805.93	1669.09
806.10	1791.97
806.28	1701.86
806.45	1724.39
806.63	1810.40
806.80	1693.67
806.97	1771.49
807.15	1728.49
807.32	1656.81
807.49	1675.24
807.67	1605.61
807.84	1775.59
808.01	1716.20
808.19	1847.27
808.36	1798.12
808.54	1689.57
808.71	1611.75
808.88	1705.96
809.06	1748.97
809.23	1812.45
809.40	1658.85
809.58	1808.36
809.75	1771.49
809.92	1662.95
810.10	1861.60
810.27	1757.16
810.44	1714.15
810.62	1787.88
810.79	1779.68
810.96	1648.61
811.14	1687.53
811.31	1667.05
811.48	1777.64
811.66	1701.86
811.83	1753.06
812.00	1720.29
812.18	1718.25
812.35	1800.16
812.52	1687.53
812.69	1705.96
812.87	1642.47
813.04	1628.14
813.21	1716.20
813.39	1640.42
813.56	1638.38
813.73	1751.01
813.91	1656.81
814.08	1726.44
814.25	1701.86
814.42	1681.38
814.60	1650.66
814.77	1687.53
814.94	1644.52
815.12	1728.49
815.29	1728.49
815.46	1603.56
815.63	1648.61
815.81	1638.38
815.98	1650.66
816.15	1642.47
816.33	1759.21
816.50	1636.33
816.67	1753.06
816.84	1746.92
817.02	1722.34
817.19	1671.14
817.36	1689.57
817.53	1697.77
817.71	1628.14
817.88	1732.58
818.05	1652.71
818.22	1654.76
818.40	1843.17
818.57	1757.16
818.74	1671.14
818.91	1681.38
819.09	1728.49
819.26	1822.69
819.43	1583.08
819.60	1755.11
819.78	1740.77
819.95	1722.34
820.12	1714.15
820.29	1765.35
820.47	1742.82
820.64	1708.01
820.81	1683.43
820.98	1669.09
821.15	1605.61
821.33	1773.54
821.50	1583.08
821.67	1789.92
821.84	1710.05
822.02	1703.91
822.19	1736.68
822.36	1636.33
822.53	1687.53
822.70	1626.09
822.88	1718.25
823.05	1781.73
823.22	1656.81
823.39	1712.10
823.56	1650.66
823.74	1734.63
823.91	1640.42
824.08	1628.14
824.25	1669.09
824.42	1820.64
824.60	1587.18
824.77	1714.15
824.94	1716.20
825.11	1718.25
825.28	1646.57
825.45	1716.20
825.63	1753.06
825.80	1720.29
825.97	1718.25
826.14	1640.42
826.31	1601.51
826.48	1726.44
826.66	1658.85
826.83	1617.90
827.00	1687.53
827.17	1615.85
827.34	1691.62
827.51	1667.05
827.69	1640.42
827.86	1658.85
828.03	1662.95
828.20	1699.81
828.37	1632.23
828.54	1714.15
828.71	1593.32
828.89	1779.68
829.06	1665.00
829.23	1841.12
829.40	1662.95
829.57	1667.05
829.74	1679.33
829.91	1665.00
830.09	1675.24
830.26	1728.49
830.43	1761.25
830.60	1660.90
830.77	1738.73
830.94	1665.00
831.11	1667.05
831.28	1634.28
831.46	1695.72
831.63	1753.06
831.80	1675.24
831.97	1681.38
832.14	1705.96
832.31	1818.60
832.48	1767.40
832.65	1806.31
832.82	1724.39
832.99	1771.49
833.17	1687.53
833.34	1777.64
833.51	1738.73
833.68	1546.22
833.85	1777.64
834.02	1599.46
834.19	1644.52
834.36	1646.57
834.53	1685.48
834.70	1677.29
834.87	1705.96
835.04	1656.81
835.22	1640.42
835.39	1697.77
835.56	1677.29
835.73	1671.14
835.90	1705.96
836.07	1624.04
836.24	1746.92
836.41	1607.66
836.58	1652.71
836.75	1693.67
836.92	1687.53
837.09	1650.66
837.26	1724.39
837.43	1732.58
837.60	1681.38
837.77	1626.09
837.94	1761.25
838.12	1773.54
838.29	1726.44
838.46	1677.29
838.63	1679.33
838.80	1802.21
838.97	1744.87
839.14	1681.38
839.31	1681.38
839.48	1710.05
839.65	1716.20
839.82	1806.31
839.99	1738.73
840.16	1705.96
840.33	1746.92
840.50	1658.85
840.67	1613.80
840.84	1595.37
841.01	1761.25
841.18	1679.33
841.35	1708.01
841.52	1783.78
841.69	1781.73
841.86	1644.52
842.03	1714.15
842.20	1722.34
842.37	1761.25
842.54	1660.90
842.71	1681.38
842.88	1636.33
843.05	1759.21
843.22	1697.77
843.39	1695.72
843.56	1603.56
843.73	1681.38
843.90	1722.34
844.07	1728.49
844.24	1683.43
844.41	1718.25
844.58	1652.71
844.75	1677.29
844.92	1781.73
845.09	1767.40
845.26	1624.04
845.43	1648.61
845.60	1660.90
845.77	1703.91
845.94	1742.82
846.10	1710.05
846.27	1671.14
846.44	1656.81
846.61	1630.18
846.78	1695.72
846.95	1763.30
847.12	1669.09
847.29	1701.86
847.46	1714.15
847.63	1705.96
847.80	1693.67
847.97	1673.19
848.14	1843.17
848.31	1734.63
848.48	1570.79
848.65	1675.24
848.82	1619.94
848.98	1734.63
849.15	1775.59
849.32	1818.60
849.49	1755.11
849.66	1726.44
849.83	1716.20
850.00	1587.18
850.17	1791.97
850.34	1646.57
850.51	1677.29
850.68	1648.61
850.85	1828.84
851.01	1787.88
851.18	1767.40
851.35	1662.95
851.52	1712.10
851.69	1785.83
851.86	1617.90
852.03	1685.48
852.20	1759.21
852.37	1665.00
852.53	1601.51
852.70	1720.29
852.87	1652.71
853.04	1779.68
853.21	1650.66
853.38	1677.29
853.55	1751.01
853.72	1732.58
853.89	1638.38
854.05	1628.14
854.22	1671.14
854.39	1675.24
854.56	1751.01
854.73	1806.31
854.90	1591.27
855.07	1767.40
855.23	1630.18
855.40	1677.29
855.57	1609.70
855.74	1603.56
855.91	1837.03
856.08	1632.23
856.25	1574.89
856.41	1644.52
856.58	1761.25
856.75	1718.25
856.92	1624.04
857.09	1738.73
857.26	1650.66
857.42	1675.24
857.59	1740.77
857.76	1689.57
857.93	1648.61
858.10	1650.66
858.27	1697.77
858.43	1755.11
858.60	1642.47
858.77	1619.94
858.94	1656.81
859.11	1720.29
859.27	1687.53
859.44	1699.81
859.61	1800.16
859.78	1642.47
859.95	1685.48
860.12	1648.61
860.28	1810.40
860.45	1781.73
860.62	1722.34
860.79	1720.29
860.95	1722.34
861.12	1683.43
861.29	1712.10
861.46	1705.96
861.63	1619.94
861.79	1667.05
861.96	1636.33
862.13	1740.77
862.30	1787.88
862.47	1628.14
862.63	1572.84
862.80	1765.35
862.97	1685.48
863.14	1779.68
863.30	1699.81
863.47	1636.33
863.64	1826.79
863.81	1769.44
863.97	1693.67
864.14	1730.53
864.31	1761.25
864.48	1695.72
864.65	1587.18
864.81	1710.05
864.98	1734.63
865.15	1761.25
865.32	1689.57
865.48	1675.24
865.65	1724.39
865.82	1607.66
865.98	1748.97
866.15	1689.57
866.32	1699.81
866.49	1689.57
866.65	1742.82
866.82	1669.09
866.99	1726.44
867.16	1685.48
867.32	1605.61
867.49	1644.52
867.66	1763.30
867.83	1640.42
867.99	1705.96
868.16	1658.85
868.33	1667.05
868.49	1720.29
868.66	1650.66
868.83	1724.39
868.99	1662.95
869.16	1640.42
869.33	1734.63
869.50	1800.16
869.66	1695.72
869.83	1699.81
870.00	1578.98
870.16	1730.53
870.33	1654.76
870.50	1730.53
870.66	1656.81
870.83	1769.44
871.00	1712.10
871.17	1695.72
871.33	1615.85
871.50	1720.29
871.67	1695.72
871.83	1654.76
872.00	1802.21
872.17	1587.18
872.33	1884.13
872.50	1656.81
872.67	1646.57
872.83	1730.53
873.00	1759.21
873.17	1671.14
873.33	1785.83
873.50	1779.68
873.67	1665.00
873.83	1607.66
874.00	1734.63
874.16	1742.82
874.33	1689.57
874.50	1646.57
874.66	1734.63
874.83	1679.33
875.00	1693.67
875.16	1783.78
875.33	1755.11
875.50	1568.74
875.66	1693.67
875.83	1744.87
875.99	1689.57
876.16	1656.81
876.33	1632.23
876.49	1722.34
876.66	1722.34
876.83	1681.38
876.99	1693.67
877.16	1693.67
877.32	1730.53
877.49	1683.43
877.66	1656.81
877.82	1814.50
877.99	1712.10
878.15	1746.92
878.32	1660.90
878.49	1675.24
878.65	1691.62
878.82	1753.06
878.98	1634.28
879.15	1726.44
879.32	1718.25
879.48	1734.63
879.65	1695.72
879.81	1658.85
879.98	1675.24
880.15	1740.77
880.31	1748.97
880.48	1667.05
880.64	1759.21
880.81	1787.88
880.97	1810.40
881.14	1697.77
881.31	1581.03
881.47	1738.73
881.64	1685.48
881.80	1687.53
881.97	1687.53
882.13	1677.29
882.30	1665.00
882.47	1728.49
882.63	1650.66
882.80	1626.09
882.96	1695.72
883.13	1722.34
883.29	1669.09
883.46	1685.48
883.62	1806.31
883.79	1740.77
883.95	1740.77
884.12	1685.48
884.29	1765.35
884.45	1738.73
884.62	1677.29
884.78	1636.33
884.95	1722.34
885.11	1628.14
885.28	1771.49
885.44	1724.39
885.61	1736.68
885.77	1695.72
885.94	1662.95
886.10	1787.88
886.27	1724.39
886.43	1828.84
886.60	1708.01
886.76	1667.05
886.93	1642.47
887.09	1650.66
887.26	1703.91
887.42	1685.48
887.59	1763.30
887.75	1796.07
887.92	1816.55
888.08	1724.39
888.25	1771.49
888.41	1650.66
888.58	1695.72
888.74	1648.61
888.91	1648.61
>>>>>End Processed Spectral Data<<<<<
