SpectraSuite Data File
++++++++++++++++++++++++++++++++++++
Date: Mon Jun 06 15:02:57 CEST 2016
User: root
Dark Spectrum Present: No
Reference Spectrum Present: No
Number of Sampled Component Spectra: 1
Spectrometers: USB4C02835
Integration Time (usec): 100000 (USB4C02835)
Spectra Averaged: 1 (USB4C02835)
Boxcar Smoothing: 0 (USB4C02835)
Correct for Electrical Dark: No (USB4C02835)
Strobe/Lamp Enabled: No (USB4C02835)
Correct for Detector Non-linearity: No (USB4C02835)
Correct for Stray Light: No (USB4C02835)
Number of Pixels in Processed Spectrum: 3648
>>>>>Begin Processed Spectral Data<<<<<
177.47	1462.25
177.69	1462.25
177.91	1462.25
178.13	1476.59
178.36	1507.30
178.58	1703.91
178.80	1703.91
179.02	1632.23
179.24	1646.57
179.46	1644.52
179.68	1730.53
179.90	1710.05
180.13	1718.25
180.35	1673.19
180.57	1650.66
180.79	1716.20
181.01	1705.96
181.23	1712.10
181.45	1755.11
181.67	1726.44
181.90	1728.49
182.12	1669.09
182.34	1640.42
182.56	1748.97
182.78	1679.33
183.00	1648.61
183.22	1734.63
183.44	1574.89
183.66	1839.08
183.89	1789.92
184.11	1687.53
184.33	1746.92
184.55	1755.11
184.77	1673.19
184.99	1685.48
185.21	1751.01
185.43	1863.65
185.65	1589.22
185.87	1632.23
186.10	1886.18
186.32	1843.17
186.54	1714.15
186.76	1740.77
186.98	1734.63
187.20	1689.57
187.42	1693.67
187.64	1740.77
187.86	1703.91
188.08	1761.25
188.30	1662.95
188.52	1667.05
188.75	1775.59
188.97	1812.45
189.19	1740.77
189.41	1671.14
189.63	1738.73
189.85	1669.09
190.07	1630.18
190.29	1628.14
190.51	1781.73
190.73	1679.33
190.95	1761.25
191.17	1667.05
191.39	1546.22
191.61	1669.09
191.84	1665.00
192.06	1681.38
192.28	1656.81
192.50	1855.46
192.72	1705.96
192.94	1740.77
193.16	1759.21
193.38	1712.10
193.60	1636.33
193.82	1673.19
194.04	1697.77
194.26	1705.96
194.48	1703.91
194.70	1646.57
194.92	1673.19
195.14	1759.21
195.36	1681.38
195.58	1699.81
195.80	1738.73
196.02	1718.25
196.24	1720.29
196.46	1697.77
196.69	1683.43
196.91	1875.94
197.13	1632.23
197.35	1671.14
197.57	1767.40
197.79	1751.01
198.01	1679.33
198.23	1679.33
198.45	1662.95
198.67	1656.81
198.89	1658.85
199.11	1689.57
199.33	1740.77
199.55	1568.74
199.77	1667.05
199.99	1779.68
200.21	1632.23
200.43	1665.00
200.65	1665.00
200.87	1640.42
201.09	1730.53
201.31	1687.53
201.53	1662.95
201.75	1757.16
201.97	1724.39
202.19	1685.48
202.41	1734.63
202.63	1832.93
202.85	1740.77
203.07	1742.82
203.29	1615.85
203.51	1687.53
203.73	1665.00
203.95	1880.04
204.17	1726.44
204.39	1753.06
204.61	1695.72
204.83	1681.38
205.05	1734.63
205.27	1708.01
205.49	1871.84
205.71	1738.73
205.93	1632.23
206.15	1611.75
206.37	1736.68
206.59	1675.24
206.81	1593.32
207.03	1605.61
207.25	1671.14
207.47	1738.73
207.69	1687.53
207.91	1812.45
208.13	1783.78
208.34	1722.34
208.56	1605.61
208.78	1734.63
209.00	1671.14
209.22	1683.43
209.44	1671.14
209.66	1726.44
209.88	1744.87
210.10	1675.24
210.32	1597.42
210.54	1662.95
210.76	1705.96
210.98	1742.82
211.20	1589.22
211.42	1748.97
211.64	1677.29
211.86	1665.00
212.08	1738.73
212.30	1753.06
212.52	1673.19
212.74	1724.39
212.96	1734.63
213.17	1714.15
213.39	1650.66
213.61	1759.21
213.83	1648.61
214.05	1636.33
214.27	1767.40
214.49	1681.38
214.71	1751.01
214.93	1775.59
215.15	1632.23
215.37	1775.59
215.59	1640.42
215.81	1693.67
216.03	1841.12
216.24	1691.62
216.46	1646.57
216.68	1650.66
216.90	1662.95
217.12	1769.44
217.34	1697.77
217.56	1699.81
217.78	1800.16
218.00	1748.97
218.22	1714.15
218.44	1683.43
218.66	1705.96
218.87	1771.49
219.09	1597.42
219.31	1781.73
219.53	1687.53
219.75	1693.67
219.97	1708.01
220.19	1732.58
220.41	1751.01
220.63	1685.48
220.85	1654.76
221.06	1751.01
221.28	1746.92
221.50	1695.72
221.72	1660.90
221.94	1724.39
222.16	1705.96
222.38	1804.26
222.60	1742.82
222.82	1705.96
223.03	1748.97
223.25	1624.04
223.47	1740.77
223.69	1771.49
223.91	1673.19
224.13	1617.90
224.35	1662.95
224.57	1740.77
224.78	1763.30
225.00	1695.72
225.22	1673.19
225.44	1708.01
225.66	1726.44
225.88	1621.99
226.10	1830.88
226.32	1644.52
226.53	1783.78
226.75	1722.34
226.97	1732.58
227.19	1710.05
227.41	1710.05
227.63	1662.95
227.85	1656.81
228.06	1740.77
228.28	1705.96
228.50	1738.73
228.72	1701.86
228.94	1753.06
229.16	1656.81
229.37	1648.61
229.59	1628.14
229.81	1837.03
230.03	1658.85
230.25	1632.23
230.47	1671.14
230.69	1628.14
230.90	1656.81
231.12	1630.18
231.34	1738.73
231.56	1718.25
231.78	1673.19
232.00	1658.85
232.21	1685.48
232.43	1697.77
232.65	1640.42
232.87	1718.25
233.09	1667.05
233.30	1697.77
233.52	1675.24
233.74	1665.00
233.96	1693.67
234.18	1677.29
234.40	1644.52
234.61	1847.27
234.83	1630.18
235.05	1648.61
235.27	1867.75
235.49	1789.92
235.70	1691.62
235.92	1834.98
236.14	1744.87
236.36	1746.92
236.58	1583.08
236.79	1761.25
237.01	1705.96
237.23	1767.40
237.45	1779.68
237.67	1689.57
237.88	1806.31
238.10	1845.22
238.32	1693.67
238.54	1683.43
238.76	1697.77
238.97	1718.25
239.19	1691.62
239.41	1701.86
239.63	1675.24
239.85	1636.33
240.06	1615.85
240.28	1716.20
240.50	1771.49
240.72	1736.68
240.93	1658.85
241.15	1740.77
241.37	1662.95
241.59	1761.25
241.81	1679.33
242.02	1712.10
242.24	1710.05
242.46	1730.53
242.68	1679.33
242.89	1695.72
243.11	1751.01
243.33	1640.42
243.55	1669.09
243.76	1787.88
243.98	1687.53
244.20	1650.66
244.42	1669.09
244.64	1681.38
244.85	1652.71
245.07	1648.61
245.29	1791.97
245.51	1728.49
245.72	1730.53
245.94	1791.97
246.16	1765.35
246.38	1683.43
246.59	1615.85
246.81	1699.81
247.03	1693.67
247.24	1603.56
247.46	1621.99
247.68	1740.77
247.90	1667.05
248.11	1628.14
248.33	1710.05
248.55	1726.44
248.77	1718.25
248.98	1710.05
249.20	1869.80
249.42	1748.97
249.64	1693.67
249.85	1720.29
250.07	1607.66
250.29	1714.15
250.50	1761.25
250.72	1611.75
250.94	1701.86
251.16	1849.32
251.37	1779.68
251.59	1656.81
251.81	1693.67
252.02	1751.01
252.24	1718.25
252.46	1820.64
252.68	1630.18
252.89	1640.42
253.11	1656.81
253.33	1775.59
253.54	1820.64
253.76	1599.46
253.98	1685.48
254.20	1673.19
254.41	1599.46
254.63	1669.09
254.85	1644.52
255.06	1693.67
255.28	1742.82
255.50	1689.57
255.71	1667.05
255.93	1712.10
256.15	1691.62
256.36	1718.25
256.58	1667.05
256.80	1783.78
257.02	1712.10
257.23	1660.90
257.45	1687.53
257.67	1755.11
257.88	1679.33
258.10	1740.77
258.32	1759.21
258.53	1701.86
258.75	1775.59
258.97	1722.34
259.18	1697.77
259.40	1687.53
259.62	1771.49
259.83	1728.49
260.05	1755.11
260.27	1996.77
260.48	1820.64
260.70	1677.29
260.92	1687.53
261.13	1720.29
261.35	1687.53
261.57	1755.11
261.78	1685.48
262.00	1640.42
262.22	1675.24
262.43	1685.48
262.65	1679.33
262.86	1755.11
263.08	1871.84
263.30	1755.11
263.51	1691.62
263.73	1628.14
263.95	1738.73
264.16	1638.38
264.38	1669.09
264.60	1716.20
264.81	1697.77
265.03	1744.87
265.25	1794.02
265.46	1714.15
265.68	1763.30
265.89	1730.53
266.11	1558.50
266.33	1746.92
266.54	1744.87
266.76	1710.05
266.98	1693.67
267.19	1722.34
267.41	1808.36
267.62	1732.58
267.84	1642.47
268.06	1689.57
268.27	1646.57
268.49	1730.53
268.70	1851.36
268.92	1673.19
269.14	1677.29
269.35	1701.86
269.57	1673.19
269.79	1761.25
270.00	1732.58
270.22	1806.31
270.43	1652.71
270.65	1613.80
270.87	1730.53
271.08	1726.44
271.30	1820.64
271.51	1718.25
271.73	1800.16
271.95	1701.86
272.16	1697.77
272.38	1712.10
272.59	1726.44
272.81	1718.25
273.02	1726.44
273.24	1716.20
273.46	1763.30
273.67	1562.60
273.89	1669.09
274.10	1671.14
274.32	1791.97
274.54	1722.34
274.75	1660.90
274.97	1708.01
275.18	1736.68
275.40	1710.05
275.61	1728.49
275.83	1705.96
276.05	1628.14
276.26	1667.05
276.48	1773.54
276.69	1671.14
276.91	1636.33
277.12	1880.04
277.34	1757.16
277.55	1804.26
277.77	1726.44
277.99	1591.27
278.20	1628.14
278.42	1636.33
278.63	1648.61
278.85	1726.44
279.06	1701.86
279.28	1757.16
279.49	1714.15
279.71	1742.82
279.93	1701.86
280.14	1724.39
280.36	1693.67
280.57	1796.07
280.79	1716.20
281.00	1681.38
281.22	1675.24
281.43	1802.21
281.65	1564.65
281.86	1665.00
282.08	1755.11
282.29	1757.16
282.51	1613.80
282.73	1695.72
282.94	1634.28
283.16	1732.58
283.37	1785.83
283.59	1640.42
283.80	1742.82
284.02	1642.47
284.23	1730.53
284.45	1710.05
284.66	1624.04
284.88	1728.49
285.09	1699.81
285.31	1720.29
285.52	1636.33
285.74	1615.85
285.95	1654.76
286.17	1689.57
286.38	1781.73
286.60	1689.57
286.81	1710.05
287.03	1744.87
287.24	1710.05
287.46	1681.38
287.67	1652.71
287.89	1869.80
288.10	1615.85
288.32	1656.81
288.53	1746.92
288.75	1724.39
288.96	1771.49
289.18	1679.33
289.39	1699.81
289.61	1830.88
289.82	1832.93
290.04	1800.16
290.25	1599.46
290.47	1630.18
290.68	1630.18
290.90	1787.88
291.11	1673.19
291.33	1718.25
291.54	1667.05
291.76	1730.53
291.97	1705.96
292.18	1722.34
292.40	1667.05
292.61	1613.80
292.83	1806.31
293.04	1751.01
293.26	1716.20
293.47	1677.29
293.69	1683.43
293.90	1783.78
294.12	1822.69
294.33	1708.01
294.55	1660.90
294.76	1728.49
294.97	1890.28
295.19	1886.18
295.40	1601.51
295.62	1726.44
295.83	1789.92
296.05	1626.09
296.26	1755.11
296.48	1740.77
296.69	1656.81
296.90	1665.00
297.12	1740.77
297.33	1830.88
297.55	1751.01
297.76	1716.20
297.98	1718.25
298.19	1716.20
298.41	1730.53
298.62	1693.67
298.83	1722.34
299.05	1681.38
299.26	1742.82
299.48	1722.34
299.69	1744.87
299.90	1767.40
300.12	1744.87
300.33	1718.25
300.55	1777.64
300.76	1773.54
300.98	1677.29
301.19	1726.44
301.40	1742.82
301.62	1708.01
301.83	1699.81
302.05	1656.81
302.26	1761.25
302.47	1755.11
302.69	1660.90
302.90	1736.68
303.12	1556.46
303.33	1779.68
303.54	1800.16
303.76	1665.00
303.97	1798.12
304.19	1718.25
304.40	1679.33
304.61	1730.53
304.83	1794.02
305.04	1716.20
305.26	1689.57
305.47	1701.86
305.68	1697.77
305.90	1640.42
306.11	1742.82
306.33	1691.62
306.54	1691.62
306.75	1710.05
306.97	1626.09
307.18	1601.51
307.39	1693.67
307.61	1697.77
307.82	1794.02
308.04	1662.95
308.25	1636.33
308.46	1767.40
308.68	1685.48
308.89	1656.81
309.10	1755.11
309.32	1798.12
309.53	1652.71
309.74	1669.09
309.96	1716.20
310.17	1763.30
310.39	1736.68
310.60	1773.54
310.81	1742.82
311.03	1640.42
311.24	1755.11
311.45	1695.72
311.67	1875.94
311.88	1697.77
312.09	1617.90
312.31	1669.09
312.52	1628.14
312.73	1708.01
312.95	1576.94
313.16	1593.32
313.37	1769.44
313.59	1781.73
313.80	1730.53
314.01	1736.68
314.23	1646.57
314.44	1693.67
314.65	1705.96
314.87	1662.95
315.08	1736.68
315.29	1626.09
315.51	1689.57
315.72	1632.23
315.93	1757.16
316.15	1791.97
316.36	1677.29
316.57	1708.01
316.79	1753.06
317.00	1603.56
317.21	1757.16
317.43	1650.66
317.64	1757.16
317.85	1665.00
318.07	1662.95
318.28	1751.01
318.49	1806.31
318.70	1906.66
318.92	1830.88
319.13	1863.65
319.34	1785.83
319.56	1806.31
319.77	1769.44
319.98	1839.08
320.20	1785.83
320.41	1683.43
320.62	1656.81
320.83	1642.47
321.05	1808.36
321.26	1691.62
321.47	1730.53
321.69	1765.35
321.90	1730.53
322.11	1691.62
322.32	1712.10
322.54	1746.92
322.75	1613.80
322.96	1871.84
323.18	1497.07
323.39	1626.09
323.60	1669.09
323.81	1869.80
324.03	1712.10
324.24	1679.33
324.45	1722.34
324.66	1638.38
324.88	1660.90
325.09	1783.78
325.30	1630.18
325.52	1669.09
325.73	1736.68
325.94	1652.71
326.15	1621.99
326.37	1640.42
326.58	1775.59
326.79	1759.21
327.00	1630.18
327.22	1683.43
327.43	1677.29
327.64	1701.86
327.85	1687.53
328.07	1763.30
328.28	1857.51
328.49	1755.11
328.70	1693.67
328.92	1675.24
329.13	1677.29
329.34	1626.09
329.55	1810.40
329.76	1763.30
329.98	1687.53
330.19	1746.92
330.40	1765.35
330.61	1681.38
330.83	1695.72
331.04	1642.47
331.25	1619.94
331.46	1732.58
331.68	1583.08
331.89	1726.44
332.10	1714.15
332.31	1568.74
332.52	1685.48
332.74	1771.49
332.95	1644.52
333.16	1757.16
333.37	1800.16
333.58	1624.04
333.80	1636.33
334.01	1638.38
334.22	1761.25
334.43	1703.91
334.64	1646.57
334.86	1552.36
335.07	1667.05
335.28	1751.01
335.49	1644.52
335.70	1763.30
335.92	1800.16
336.13	1820.64
336.34	1751.01
336.55	1667.05
336.76	1751.01
336.98	1517.54
337.19	1726.44
337.40	1814.50
337.61	1837.03
337.82	1730.53
338.04	1740.77
338.25	1624.04
338.46	1648.61
338.67	1724.39
338.88	1675.24
339.09	1722.34
339.31	1656.81
339.52	1671.14
339.73	1650.66
339.94	1660.90
340.15	1773.54
340.36	1673.19
340.58	1800.16
340.79	1626.09
341.00	1757.16
341.21	1591.27
341.42	1810.40
341.63	1777.64
341.85	1761.25
342.06	1753.06
342.27	1660.90
342.48	1773.54
342.69	1591.27
342.90	1734.63
343.12	1693.67
343.33	1728.49
343.54	1781.73
343.75	1708.01
343.96	1669.09
344.17	1667.05
344.38	1648.61
344.60	1619.94
344.81	1601.51
345.02	1673.19
345.23	1730.53
345.44	1822.69
345.65	1736.68
345.86	1767.40
346.07	1652.71
346.29	1693.67
346.50	1626.09
346.71	1683.43
346.92	1865.70
347.13	1814.50
347.34	1646.57
347.55	1755.11
347.76	1732.58
347.98	1632.23
348.19	1677.29
348.40	1728.49
348.61	1691.62
348.82	1763.30
349.03	1675.24
349.24	1652.71
349.45	1880.04
349.66	1591.27
349.88	1671.14
350.09	1665.00
350.30	1742.82
350.51	1779.68
350.72	1691.62
350.93	1757.16
351.14	1630.18
351.35	1724.39
351.56	1740.77
351.77	1681.38
351.99	1765.35
352.20	1826.79
352.41	1751.01
352.62	1570.79
352.83	1695.72
353.04	1669.09
353.25	1757.16
353.46	1771.49
353.67	1724.39
353.88	1632.23
354.09	1726.44
354.30	1726.44
354.52	1675.24
354.73	1748.97
354.94	1695.72
355.15	1718.25
355.36	1771.49
355.57	1689.57
355.78	1740.77
355.99	1673.19
356.20	1662.95
356.41	1746.92
356.62	1708.01
356.83	1771.49
357.04	1777.64
357.25	1568.74
357.46	1658.85
357.68	1662.95
357.89	1654.76
358.10	1730.53
358.31	1724.39
358.52	1695.72
358.73	1673.19
358.94	1667.05
359.15	1683.43
359.36	1828.84
359.57	1628.14
359.78	1695.72
359.99	1712.10
360.20	1603.56
360.41	1726.44
360.62	1755.11
360.83	1697.77
361.04	1722.34
361.25	1742.82
361.46	1789.92
361.67	1781.73
361.88	1716.20
362.09	1726.44
362.30	1869.80
362.51	1671.14
362.72	1634.28
362.93	1759.21
363.14	1726.44
363.35	1716.20
363.56	1703.91
363.78	1748.97
363.99	1765.35
364.20	1685.48
364.41	1708.01
364.62	1763.30
364.83	1751.01
365.04	1654.76
365.25	1689.57
365.46	1783.78
365.67	1650.66
365.88	1685.48
366.09	1669.09
366.30	1662.95
366.51	1753.06
366.72	1681.38
366.93	1669.09
367.14	1753.06
367.35	1779.68
367.56	1748.97
367.77	1767.40
367.98	1697.77
368.18	1773.54
368.39	1693.67
368.60	1632.23
368.81	1677.29
369.02	1691.62
369.23	1761.25
369.44	1634.28
369.65	1677.29
369.86	1648.61
370.07	1781.73
370.28	1568.74
370.49	1746.92
370.70	1740.77
370.91	1611.75
371.12	1609.70
371.33	1724.39
371.54	1679.33
371.75	1775.59
371.96	1607.66
372.17	1738.73
372.38	1724.39
372.59	1822.69
372.80	1693.67
373.01	1646.57
373.22	1740.77
373.43	1691.62
373.64	1726.44
373.85	1746.92
374.06	1802.21
374.26	1740.77
374.47	1761.25
374.68	1777.64
374.89	1718.25
375.10	1669.09
375.31	1759.21
375.52	1726.44
375.73	1734.63
375.94	1669.09
376.15	1861.60
376.36	1619.94
376.57	1660.90
376.78	1687.53
376.99	1675.24
377.20	1710.05
377.40	1638.38
377.61	1830.88
377.82	1658.85
378.03	1816.55
378.24	1730.53
378.45	1775.59
378.66	1710.05
378.87	1613.80
379.08	1531.88
379.29	1677.29
379.50	1789.92
379.71	1650.66
379.91	1736.68
380.12	1679.33
380.33	1757.16
380.54	1757.16
380.75	1662.95
380.96	1751.01
381.17	1804.26
381.38	1708.01
381.59	1693.67
381.80	1771.49
382.00	1857.51
382.21	1742.82
382.42	1810.40
382.63	1871.84
382.84	1738.73
383.05	1736.68
383.26	1828.84
383.47	1630.18
383.68	1843.17
383.88	1763.30
384.09	1695.72
384.30	1812.45
384.51	1728.49
384.72	1673.19
384.93	1585.13
385.14	1681.38
385.35	1734.63
385.55	1697.77
385.76	1675.24
385.97	1687.53
386.18	1665.00
386.39	1701.86
386.60	1734.63
386.81	1705.96
387.02	1656.81
387.22	1644.52
387.43	1783.78
387.64	1822.69
387.85	1880.04
388.06	2203.61
388.27	4239.30
388.48	6639.51
388.68	8071.04
388.89	9308.02
389.10	9574.25
389.31	8353.66
389.52	7307.15
389.73	6549.40
389.93	6031.27
390.14	5601.19
390.35	5162.93
390.56	4507.58
390.77	3682.25
390.98	3016.66
391.18	2486.23
391.39	2101.22
391.60	1875.94
391.81	1800.16
392.02	1714.15
392.23	1818.60
392.43	1677.29
392.64	1763.30
392.85	1726.44
393.06	1816.55
393.27	1740.77
393.47	1677.29
393.68	1683.43
393.89	1613.80
394.10	1722.34
394.31	1718.25
394.52	1644.52
394.72	1759.21
394.93	1757.16
395.14	1662.95
395.35	1794.02
395.56	1638.38
395.76	1728.49
395.97	1789.92
396.18	1818.60
396.39	1894.37
396.60	1982.43
396.80	1877.99
397.01	1841.12
397.22	1861.60
397.43	1830.88
397.64	1705.96
397.84	1806.31
398.05	1791.97
398.26	1802.21
398.47	1857.51
398.67	1769.44
398.88	1796.07
399.09	1779.68
399.30	1699.81
399.51	1767.40
399.71	1693.67
399.92	1714.15
400.13	1791.97
400.34	1667.05
400.54	1748.97
400.75	1769.44
400.96	1722.34
401.17	1757.16
401.37	1765.35
401.58	1693.67
401.79	1685.48
402.00	1877.99
402.21	1910.75
402.41	1945.57
402.62	1974.24
402.83	2033.63
403.04	1957.86
403.24	2047.97
403.45	1851.36
403.66	1818.60
403.87	1861.60
404.07	1927.14
404.28	1875.94
404.49	1859.56
404.70	1781.73
404.90	1794.02
405.11	1712.10
405.32	1796.07
405.52	1718.25
405.73	1708.01
405.94	1591.27
406.15	1708.01
406.35	1810.40
406.56	1736.68
406.77	1734.63
406.98	1740.77
407.18	1638.38
407.39	1800.16
407.60	1673.19
407.80	1640.42
408.01	1681.38
408.22	1724.39
408.43	1671.14
408.63	1765.35
408.84	1753.06
409.05	1771.49
409.25	1642.47
409.46	1660.90
409.67	1708.01
409.88	1681.38
410.08	1755.11
410.29	1718.25
410.50	1746.92
410.70	1716.20
410.91	1732.58
411.12	1753.06
411.32	1665.00
411.53	1671.14
411.74	1759.21
411.95	1837.03
412.15	1767.40
412.36	1822.69
412.57	1693.67
412.77	1849.32
412.98	1716.20
413.19	1730.53
413.39	1789.92
413.60	1703.91
413.81	1771.49
414.01	1654.76
414.22	1656.81
414.43	1751.01
414.63	1701.86
414.84	1697.77
415.05	1779.68
415.25	1650.66
415.46	1730.53
415.67	1675.24
415.87	1681.38
416.08	1732.58
416.29	1722.34
416.49	1746.92
416.70	1632.23
416.91	1701.86
417.11	1714.15
417.32	1710.05
417.53	1769.44
417.73	1773.54
417.94	1714.15
418.15	1699.81
418.35	1714.15
418.56	1697.77
418.77	1794.02
418.97	1720.29
419.18	1681.38
419.38	1576.94
419.59	1683.43
419.80	1789.92
420.00	1712.10
420.21	1740.77
420.42	1736.68
420.62	1736.68
420.83	1734.63
421.04	1697.77
421.24	1689.57
421.45	1763.30
421.65	1708.01
421.86	1708.01
422.07	1763.30
422.27	1712.10
422.48	1751.01
422.69	1611.75
422.89	1689.57
423.10	1632.23
423.30	1712.10
423.51	1671.14
423.72	1652.71
423.92	1699.81
424.13	1683.43
424.33	1783.78
424.54	1798.12
424.75	1724.39
424.95	1796.07
425.16	1746.92
425.36	1662.95
425.57	1781.73
425.78	1742.82
425.98	1757.16
426.19	1671.14
426.39	1609.70
426.60	1775.59
426.81	1839.08
427.01	1693.67
427.22	1632.23
427.42	1607.66
427.63	1699.81
427.83	1771.49
428.04	1873.89
428.25	1775.59
428.45	1787.88
428.66	1787.88
428.86	1759.21
429.07	1775.59
429.28	1716.20
429.48	1697.77
429.69	1714.15
429.89	1658.85
430.10	1630.18
430.30	1757.16
430.51	1763.30
430.71	1683.43
430.92	1675.24
431.13	1714.15
431.33	1708.01
431.54	1712.10
431.74	1773.54
431.95	1804.26
432.15	1640.42
432.36	1703.91
432.56	1730.53
432.77	1841.12
432.98	1771.49
433.18	1691.62
433.39	1673.19
433.59	1701.86
433.80	1886.18
434.00	1794.02
434.21	1679.33
434.41	1665.00
434.62	1898.47
434.82	1697.77
435.03	1681.38
435.23	1753.06
435.44	1636.33
435.64	1681.38
435.85	1708.01
436.06	1759.21
436.26	1773.54
436.47	1755.11
436.67	1632.23
436.88	1718.25
437.08	1757.16
437.29	1755.11
437.49	1738.73
437.70	1734.63
437.90	1761.25
438.11	1830.88
438.31	1722.34
438.52	1861.60
438.72	1984.48
438.93	1839.08
439.13	1720.29
439.34	1880.04
439.54	1763.30
439.75	1736.68
439.95	1908.71
440.16	1742.82
440.36	1714.15
440.57	1740.77
440.77	1744.87
440.98	1730.53
441.18	1755.11
441.39	1669.09
441.59	1685.48
441.80	1849.32
442.00	1748.97
442.21	1851.36
442.41	1685.48
442.62	1740.77
442.82	1640.42
443.02	1718.25
443.23	1726.44
443.43	1679.33
443.64	1820.64
443.84	1665.00
444.05	1822.69
444.25	1714.15
444.46	1673.19
444.66	1705.96
444.87	1828.84
445.07	1634.28
445.28	1708.01
445.48	1824.74
445.69	1767.40
445.89	1914.85
446.09	1800.16
446.30	1998.82
446.50	2533.34
446.71	3571.66
446.91	4296.64
447.12	4679.61
447.32	4751.29
447.53	4134.85
447.73	3868.61
447.93	3477.45
448.14	3280.85
448.34	3203.02
448.55	2848.72
448.75	2775.00
448.96	2705.37
449.16	2471.90
449.36	2224.09
449.57	2039.78
449.77	1906.66
449.98	1802.21
450.18	1800.16
450.39	1845.22
450.59	1744.87
450.79	1748.97
451.00	1755.11
451.20	1804.26
451.41	1679.33
451.61	1708.01
451.81	1697.77
452.02	1671.14
452.22	1722.34
452.43	1658.85
452.63	1673.19
452.84	1761.25
453.04	1718.25
453.24	1775.59
453.45	1679.33
453.65	1767.40
453.86	1822.69
454.06	1783.78
454.26	1724.39
454.47	1703.91
454.67	1847.27
454.87	1714.15
455.08	1714.15
455.28	1791.97
455.49	1769.44
455.69	1693.67
455.89	1804.26
456.10	1857.51
456.30	1718.25
456.51	1802.21
456.71	1755.11
456.91	1740.77
457.12	1751.01
457.32	1736.68
457.52	1746.92
457.73	1789.92
457.93	1845.22
458.14	1603.56
458.34	1646.57
458.54	1630.18
458.75	1691.62
458.95	1757.16
459.15	1818.60
459.36	1724.39
459.56	1814.50
459.76	1757.16
459.97	1755.11
460.17	1736.68
460.37	1769.44
460.58	1771.49
460.78	1746.92
460.99	1746.92
461.19	1736.68
461.39	1671.14
461.60	1687.53
461.80	1820.64
462.00	1665.00
462.21	1736.68
462.41	1746.92
462.61	1697.77
462.82	1589.22
463.02	1804.26
463.22	1732.58
463.43	1777.64
463.63	1787.88
463.83	1779.68
464.04	1791.97
464.24	1642.47
464.44	1722.34
464.64	1644.52
464.85	1771.49
465.05	1789.92
465.25	1738.73
465.46	1662.95
465.66	1724.39
465.86	1736.68
466.07	1728.49
466.27	1687.53
466.47	1564.65
466.68	1624.04
466.88	1830.88
467.08	1777.64
467.29	1734.63
467.49	1755.11
467.69	1724.39
467.89	1775.59
468.10	1718.25
468.30	1712.10
468.50	1777.64
468.71	1777.64
468.91	1597.42
469.11	1814.50
469.31	1726.44
469.52	1617.90
469.72	1834.98
469.92	1849.32
470.13	1736.68
470.33	1703.91
470.53	1767.40
470.73	2119.65
470.94	2273.25
471.14	2387.93
471.34	2543.58
471.54	2369.50
471.75	2224.09
471.95	2064.35
472.15	1992.67
472.36	2095.07
472.56	2023.39
472.76	1992.67
472.96	2007.01
473.17	1910.75
473.37	1910.75
473.57	1773.54
473.77	1773.54
473.98	1777.64
474.18	1677.29
474.38	1859.56
474.58	1757.16
474.79	1615.85
474.99	1742.82
475.19	1781.73
475.39	1609.70
475.60	1738.73
475.80	1703.91
476.00	1802.21
476.20	1675.24
476.41	1742.82
476.61	1791.97
476.81	1789.92
477.01	1712.10
477.21	1828.84
477.42	1767.40
477.62	1658.85
477.82	1779.68
478.02	1753.06
478.23	1665.00
478.43	1701.86
478.63	1681.38
478.83	1671.14
479.03	1806.31
479.24	1791.97
479.44	1753.06
479.64	1628.14
479.84	1660.90
480.04	1798.12
480.25	1791.97
480.45	1671.14
480.65	1714.15
480.85	1738.73
481.06	1693.67
481.26	1779.68
481.46	1771.49
481.66	1728.49
481.86	1683.43
482.06	1736.68
482.27	1656.81
482.47	1699.81
482.67	1742.82
482.87	1679.33
483.07	1837.03
483.28	1728.49
483.48	1675.24
483.68	1748.97
483.88	1642.47
484.08	1595.37
484.29	1685.48
484.49	1693.67
484.69	1718.25
484.89	1789.92
485.09	1765.35
485.29	1775.59
485.50	1746.92
485.70	1679.33
485.90	1802.21
486.10	1710.05
486.30	1765.35
486.50	1689.57
486.71	1814.50
486.91	1759.21
487.11	1781.73
487.31	1755.11
487.51	1724.39
487.71	1662.95
487.91	1695.72
488.12	1716.20
488.32	1544.17
488.52	1636.33
488.72	1744.87
488.92	1763.30
489.12	1769.44
489.32	1744.87
489.53	1757.16
489.73	1652.71
489.93	1851.36
490.13	1619.94
490.33	1636.33
490.53	1703.91
490.73	1746.92
490.94	1648.61
491.14	1765.35
491.34	1890.28
491.54	2160.61
491.74	2533.34
491.94	2899.92
492.14	2942.93
492.34	3012.56
492.54	2813.91
492.75	2463.71
492.95	2410.46
493.15	2344.92
493.35	2176.99
493.55	2215.90
493.75	2131.94
493.95	2197.47
494.15	1900.52
494.35	1945.57
494.56	1865.70
494.76	1773.54
494.96	1742.82
495.16	1755.11
495.36	1675.24
495.56	1650.66
495.76	1761.25
495.96	1679.33
496.16	1636.33
496.36	1812.45
496.56	1683.43
496.77	1728.49
496.97	1656.81
497.17	1816.55
497.37	1640.42
497.57	1791.97
497.77	1732.58
497.97	1738.73
498.17	1798.12
498.37	1675.24
498.57	1820.64
498.77	1660.90
498.97	1751.01
499.17	1808.36
499.38	1744.87
499.58	1806.31
499.78	1761.25
499.98	1779.68
500.18	1710.05
500.38	1689.57
500.58	1847.27
500.78	2516.95
500.98	4360.13
501.18	5826.47
501.38	6559.64
501.58	7002.01
501.78	6510.49
501.98	5470.12
502.18	4892.60
502.38	4282.30
502.58	4009.92
502.78	3678.15
502.98	3622.86
503.18	3411.92
503.38	3172.30
503.59	2791.38
503.79	2609.11
503.99	2488.28
504.19	2254.81
504.39	2160.61
504.59	2086.88
504.79	2066.40
504.99	2078.69
505.19	1925.09
505.39	1890.28
505.59	1976.29
505.79	1884.13
505.99	1843.17
506.19	1804.26
506.39	1859.56
506.59	1828.84
506.79	1724.39
506.99	1816.55
507.19	1722.34
507.39	1654.76
507.59	1693.67
507.79	1621.99
507.99	1685.48
508.19	1757.16
508.39	1695.72
508.59	1755.11
508.79	1820.64
508.99	1898.47
509.19	1740.77
509.39	1732.58
509.59	1710.05
509.79	1632.23
509.99	1693.67
510.19	1771.49
510.39	1841.12
510.59	1736.68
510.79	1697.77
510.99	1720.29
511.19	1685.48
511.39	1812.45
511.59	1779.68
511.79	1837.03
511.99	1708.01
512.19	1830.88
512.38	1730.53
512.58	1771.49
512.78	1697.77
512.98	1869.80
513.18	1771.49
513.38	1681.38
513.58	1787.88
513.78	1650.66
513.98	1736.68
514.18	1753.06
514.38	1738.73
514.58	1683.43
514.78	1710.05
514.98	1675.24
515.18	1734.63
515.38	1701.86
515.58	1869.80
515.78	1724.39
515.98	1714.15
516.18	1740.77
516.38	1662.95
516.57	1673.19
516.77	1656.81
516.97	1837.03
517.17	1699.81
517.37	1607.66
517.57	1765.35
517.77	1693.67
517.97	1765.35
518.17	1703.91
518.37	1710.05
518.57	1726.44
518.77	1748.97
518.97	1673.19
519.16	1800.16
519.36	1773.54
519.56	1708.01
519.76	1683.43
519.96	1767.40
520.16	1765.35
520.36	1658.85
520.56	1812.45
520.76	1691.62
520.96	1759.21
521.16	1716.20
521.35	1812.45
521.55	1804.26
521.75	1701.86
521.95	1652.71
522.15	1761.25
522.35	1609.70
522.55	1732.58
522.75	1681.38
522.95	1677.29
523.14	1732.58
523.34	1748.97
523.54	1687.53
523.74	1726.44
523.94	1718.25
524.14	1615.85
524.34	1753.06
524.54	1806.31
524.73	1691.62
524.93	1693.67
525.13	1687.53
525.33	1644.52
525.53	1865.70
525.73	1783.78
525.93	1744.87
526.13	1695.72
526.32	1654.76
526.52	1769.44
526.72	1720.29
526.92	1667.05
527.12	1667.05
527.32	1693.67
527.52	1740.77
527.71	1740.77
527.91	1763.30
528.11	1705.96
528.31	1726.44
528.51	1660.90
528.71	1746.92
528.90	1769.44
529.10	1814.50
529.30	1837.03
529.50	1642.47
529.70	1734.63
529.90	1617.90
530.09	1714.15
530.29	1681.38
530.49	1777.64
530.69	1984.48
530.89	1796.07
531.09	1777.64
531.28	1685.48
531.48	1861.60
531.68	1781.73
531.88	1675.24
532.08	1738.73
532.28	1667.05
532.47	1757.16
532.67	1765.35
532.87	1746.92
533.07	1689.57
533.27	1708.01
533.46	1642.47
533.66	1839.08
533.86	1726.44
534.06	1818.60
534.26	1746.92
534.45	1761.25
534.65	1767.40
534.85	1773.54
535.05	1660.90
535.25	1771.49
535.44	1644.52
535.64	1798.12
535.84	1742.82
536.04	1759.21
536.24	1714.15
536.43	1691.62
536.63	1759.21
536.83	1683.43
537.03	1785.83
537.22	1701.86
537.42	1665.00
537.62	1830.88
537.82	1705.96
538.02	1796.07
538.21	1785.83
538.41	1869.80
538.61	1810.40
538.81	1724.39
539.00	1869.80
539.20	1701.86
539.40	1660.90
539.60	1619.94
539.79	1755.11
539.99	1759.21
540.19	1705.96
540.39	1738.73
540.58	1687.53
540.78	1818.60
540.98	1738.73
541.18	1812.45
541.37	1845.22
541.57	1810.40
541.77	1816.55
541.97	1685.48
542.16	1744.87
542.36	1736.68
542.56	1753.06
542.76	1853.41
542.95	1771.49
543.15	1728.49
543.35	1753.06
543.54	1679.33
543.74	1708.01
543.94	1814.50
544.14	1658.85
544.33	1873.89
544.53	1656.81
544.73	1722.34
544.93	1673.19
545.12	1667.05
545.32	1779.68
545.52	1763.30
545.71	1654.76
545.91	1757.16
546.11	1755.11
546.30	1621.99
546.50	1708.01
546.70	1759.21
546.90	1746.92
547.09	1708.01
547.29	1716.20
547.49	1818.60
547.68	1777.64
547.88	1677.29
548.08	1730.53
548.27	2174.94
548.47	1748.97
548.67	1742.82
548.87	1771.49
549.06	1685.48
549.26	1763.30
549.46	1738.73
549.65	1765.35
549.85	1693.67
550.05	1740.77
550.24	1660.90
550.44	1771.49
550.64	1748.97
550.83	1767.40
551.03	1771.49
551.23	1810.40
551.42	1755.11
551.62	1748.97
551.82	1681.38
552.01	1742.82
552.21	1828.84
552.41	1730.53
552.60	1837.03
552.80	1789.92
553.00	1685.48
553.19	1679.33
553.39	1886.18
553.59	1642.47
553.78	1808.36
553.98	1808.36
554.17	1697.77
554.37	1697.77
554.57	1714.15
554.76	1673.19
554.96	1699.81
555.16	1656.81
555.35	1734.63
555.55	1751.01
555.75	1630.18
555.94	1802.21
556.14	1734.63
556.33	1757.16
556.53	1703.91
556.73	1705.96
556.92	1742.82
557.12	1873.89
557.32	1787.88
557.51	1781.73
557.71	1798.12
557.90	1794.02
558.10	1796.07
558.30	1718.25
558.49	1714.15
558.69	1755.11
558.88	1742.82
559.08	1765.35
559.28	1701.86
559.47	1746.92
559.67	1744.87
559.86	1847.27
560.06	1736.68
560.26	1673.19
560.45	1759.21
560.65	1714.15
560.84	1769.44
561.04	1734.63
561.24	1828.84
561.43	1675.24
561.63	1873.89
561.82	1718.25
562.02	1828.84
562.22	1761.25
562.41	1665.00
562.61	1722.34
562.80	1722.34
563.00	1892.32
563.19	1775.59
563.39	1716.20
563.59	1714.15
563.78	1669.09
563.98	1583.08
564.17	1699.81
564.37	1736.68
564.56	1673.19
564.76	1656.81
564.96	1777.64
565.15	1738.73
565.35	1945.57
565.54	1724.39
565.74	1740.77
565.93	1693.67
566.13	1767.40
566.32	1771.49
566.52	1820.64
566.71	1759.21
566.91	1777.64
567.11	1736.68
567.30	1646.57
567.50	1806.31
567.69	1775.59
567.89	1748.97
568.08	1701.86
568.28	1767.40
568.47	1636.33
568.67	1771.49
568.86	1742.82
569.06	1800.16
569.25	1734.63
569.45	1740.77
569.64	1675.24
569.84	1656.81
570.04	1757.16
570.23	1691.62
570.43	1736.68
570.62	1814.50
570.82	1814.50
571.01	1681.38
571.21	1665.00
571.40	1791.97
571.60	1773.54
571.79	1761.25
571.99	1771.49
572.18	1671.14
572.38	1726.44
572.57	1746.92
572.77	1732.58
572.96	1898.47
573.16	1753.06
573.35	1759.21
573.55	1808.36
573.74	1794.02
573.94	1742.82
574.13	1757.16
574.33	1837.03
574.52	1767.40
574.71	1726.44
574.91	1724.39
575.10	1646.57
575.30	1757.16
575.49	1660.90
575.69	1726.44
575.88	1699.81
576.08	1671.14
576.27	1767.40
576.47	1683.43
576.66	1847.27
576.86	1865.70
577.05	1705.96
577.25	1738.73
577.44	1861.60
577.64	1658.85
577.83	1853.41
578.02	1685.48
578.22	1794.02
578.41	1763.30
578.61	1660.90
578.80	1648.61
579.00	1699.81
579.19	1767.40
579.39	1812.45
579.58	1804.26
579.77	1693.67
579.97	1824.74
580.16	1867.75
580.36	1800.16
580.55	1826.79
580.75	1783.78
580.94	1738.73
581.13	1798.12
581.33	1882.08
581.52	1677.29
581.72	1867.75
581.91	1837.03
582.11	1769.44
582.30	1796.07
582.49	1699.81
582.69	1841.12
582.88	1771.49
583.08	1736.68
583.27	1828.84
583.47	1775.59
583.66	1699.81
583.85	1720.29
584.05	1806.31
584.24	1738.73
584.44	1828.84
584.63	1824.74
584.82	1781.73
585.02	1847.27
585.21	1732.58
585.41	1849.32
585.60	1798.12
585.79	1886.18
585.99	1869.80
586.18	1849.32
586.37	2125.79
586.57	3336.14
586.76	9545.58
586.96	23713.43
587.15	33482.24
587.34	39089.58
587.54	40932.75
587.73	35583.46
587.93	25601.66
588.12	20881.09
588.31	17737.46
588.51	15845.13
588.70	14882.59
588.89	13578.03
589.09	12478.27
589.28	10766.17
589.47	9287.54
589.67	7882.63
589.86	6418.33
590.06	4960.18
590.25	3891.14
590.44	3153.87
590.64	2621.40
590.83	2211.81
591.02	2127.84
591.22	1898.47
591.41	1816.55
591.60	1798.12
591.80	1951.71
591.99	1734.63
592.18	1755.11
592.38	1759.21
592.57	1734.63
592.76	1808.36
592.96	1738.73
593.15	1746.92
593.34	1763.30
593.54	1673.19
593.73	1789.92
593.92	1820.64
594.12	1724.39
594.31	1779.68
594.50	1830.88
594.70	1834.98
594.89	1787.88
595.08	1669.09
595.28	1738.73
595.47	1943.52
595.66	1826.79
595.86	1687.53
596.05	1718.25
596.24	1726.44
596.43	1837.03
596.63	1767.40
596.82	1761.25
597.01	1708.01
597.21	1873.89
597.40	1759.21
597.59	1697.77
597.79	1839.08
597.98	1705.96
598.17	1720.29
598.36	1765.35
598.56	1769.44
598.75	1701.86
598.94	1771.49
599.14	1806.31
599.33	1630.18
599.52	1787.88
599.71	1763.30
599.91	1757.16
600.10	1775.59
600.29	1771.49
600.48	1845.22
600.68	1742.82
600.87	1683.43
601.06	1728.49
601.26	1769.44
601.45	1810.40
601.64	1787.88
601.83	1783.78
602.03	1693.67
602.22	1636.33
602.41	1839.08
602.60	1902.56
602.80	1767.40
602.99	1789.92
603.18	1654.76
603.37	1787.88
603.57	1740.77
603.76	1865.70
603.95	1796.07
604.14	1667.05
604.34	1624.04
604.53	1673.19
604.72	1779.68
604.91	1755.11
605.10	1708.01
605.30	1597.42
605.49	1865.70
605.68	1722.34
605.87	1693.67
606.07	1742.82
606.26	1679.33
606.45	1812.45
606.64	1789.92
606.84	1722.34
607.03	1660.90
607.22	1837.03
607.41	1628.14
607.60	1753.06
607.80	1691.62
607.99	1732.58
608.18	1667.05
608.37	1783.78
608.56	1683.43
608.76	1832.93
608.95	1802.21
609.14	1787.88
609.33	1804.26
609.52	1804.26
609.72	1787.88
609.91	1771.49
610.10	1763.30
610.29	1794.02
610.48	1730.53
610.68	1763.30
610.87	1746.92
611.06	1767.40
611.25	1794.02
611.44	1826.79
611.63	1783.78
611.83	1814.50
612.02	1662.95
612.21	1832.93
612.40	1644.52
612.59	1669.09
612.79	1636.33
612.98	1775.59
613.17	1824.74
613.36	1720.29
613.55	1810.40
613.74	1695.72
613.93	1708.01
614.13	1677.29
614.32	1769.44
614.51	1677.29
614.70	1755.11
614.89	1648.61
615.08	1789.92
615.28	2045.92
615.47	1718.25
615.66	1697.77
615.85	1744.87
616.04	1855.46
616.23	1751.01
616.42	1732.58
616.62	1703.91
616.81	1800.16
617.00	1738.73
617.19	1746.92
617.38	1734.63
617.57	1816.55
617.76	1798.12
617.95	1728.49
618.15	1748.97
618.34	1820.64
618.53	1669.09
618.72	1826.79
618.91	1812.45
619.10	1824.74
619.29	1728.49
619.48	1744.87
619.68	1726.44
619.87	1708.01
620.06	1665.00
620.25	1730.53
620.44	1691.62
620.63	1710.05
620.82	1798.12
621.01	1763.30
621.20	1685.48
621.39	1730.53
621.59	1755.11
621.78	1777.64
621.97	1718.25
622.16	1675.24
622.35	1669.09
622.54	1816.55
622.73	1796.07
622.92	1699.81
623.11	1812.45
623.30	1689.57
623.49	1771.49
623.68	1644.52
623.88	1841.12
624.07	1628.14
624.26	1621.99
624.45	1771.49
624.64	1718.25
624.83	1722.34
625.02	1644.52
625.21	1773.54
625.40	1748.97
625.59	1834.98
625.78	1740.77
625.97	1677.29
626.16	1822.69
626.35	1724.39
626.54	1687.53
626.74	1822.69
626.93	1697.77
627.12	1691.62
627.31	1748.97
627.50	1763.30
627.69	1722.34
627.88	1638.38
628.07	1626.09
628.26	1613.80
628.45	1667.05
628.64	1648.61
628.83	1732.58
629.02	1724.39
629.21	1724.39
629.40	1734.63
629.59	1572.84
629.78	1736.68
629.97	1701.86
630.16	1736.68
630.35	1675.24
630.54	1740.77
630.73	1677.29
630.92	1736.68
631.11	1671.14
631.30	1734.63
631.49	1796.07
631.68	1763.30
631.87	1732.58
632.06	1595.37
632.25	1849.32
632.44	1746.92
632.63	1718.25
632.82	1697.77
633.01	1689.57
633.20	1609.70
633.39	1751.01
633.58	1652.71
633.77	1714.15
633.96	1748.97
634.15	1746.92
634.34	1765.35
634.53	1773.54
634.72	1697.77
634.91	1652.71
635.10	1728.49
635.29	1683.43
635.48	1708.01
635.67	1777.64
635.86	1587.18
636.05	1730.53
636.24	1730.53
636.43	1773.54
636.62	1791.97
636.81	1581.03
637.00	1710.05
637.19	1777.64
637.38	1763.30
637.57	1701.86
637.76	1701.86
637.95	1767.40
638.14	1689.57
638.33	1708.01
638.52	1701.86
638.71	1669.09
638.89	1701.86
639.08	1894.37
639.27	1746.92
639.46	1732.58
639.65	1736.68
639.84	1728.49
640.03	1832.93
640.22	1640.42
640.41	1822.69
640.60	1689.57
640.79	1708.01
640.98	1728.49
641.17	1763.30
641.36	1728.49
641.55	1736.68
641.74	1644.52
641.92	1648.61
642.11	1650.66
642.30	1673.19
642.49	1703.91
642.68	1695.72
642.87	1710.05
643.06	1714.15
643.25	1751.01
643.44	1665.00
643.63	1759.21
643.82	1777.64
644.00	1646.57
644.19	1753.06
644.38	1730.53
644.57	1759.21
644.76	1658.85
644.95	1705.96
645.14	1705.96
645.33	1763.30
645.52	1753.06
645.71	1611.75
645.89	1638.38
646.08	1744.87
646.27	1746.92
646.46	1882.08
646.65	1609.70
646.84	1636.33
647.03	1632.23
647.22	1812.45
647.40	1714.15
647.59	1642.47
647.78	1624.04
647.97	1689.57
648.16	1677.29
648.35	1732.58
648.54	1810.40
648.73	1730.53
648.91	1794.02
649.10	1755.11
649.29	1665.00
649.48	1648.61
649.67	1703.91
649.86	1673.19
650.05	1638.38
650.23	1689.57
650.42	1615.85
650.61	1722.34
650.80	1724.39
650.99	1863.65
651.18	1757.16
651.36	1820.64
651.55	1759.21
651.74	1800.16
651.93	1675.24
652.12	1703.91
652.31	1695.72
652.49	1609.70
652.68	1701.86
652.87	1773.54
653.06	1681.38
653.25	1828.84
653.44	1802.21
653.62	1789.92
653.81	1718.25
654.00	1771.49
654.19	1689.57
654.38	1933.28
654.56	1681.38
654.75	1714.15
654.94	1746.92
655.13	1720.29
655.32	1632.23
655.51	1722.34
655.69	1646.57
655.88	1796.07
656.07	1687.53
656.26	1740.77
656.45	1640.42
656.63	1712.10
656.82	1808.36
657.01	1816.55
657.20	1687.53
657.38	1779.68
657.57	1777.64
657.76	1662.95
657.95	1814.50
658.14	1691.62
658.32	1742.82
658.51	1742.82
658.70	1695.72
658.89	1763.30
659.08	1714.15
659.26	1847.27
659.45	1634.28
659.64	1646.57
659.83	1632.23
660.01	1904.61
660.20	1644.52
660.39	1800.16
660.58	1597.42
660.76	1787.88
660.95	1691.62
661.14	1826.79
661.33	1615.85
661.51	1675.24
661.70	1675.24
661.89	1718.25
662.08	1753.06
662.26	1665.00
662.45	1679.33
662.64	1767.40
662.83	1816.55
663.01	1667.05
663.20	1685.48
663.39	1779.68
663.58	1710.05
663.76	1701.86
663.95	1814.50
664.14	1685.48
664.32	1689.57
664.51	1658.85
664.70	1613.80
664.89	1720.29
665.07	1605.61
665.26	1779.68
665.45	1714.15
665.64	1746.92
665.82	1693.67
666.01	1740.77
666.20	1599.46
666.38	1787.88
666.57	1773.54
666.76	2158.56
666.95	4335.55
667.13	10108.77
667.32	14907.16
667.51	17112.83
667.69	18542.31
667.88	17200.89
668.07	12185.41
668.25	9410.42
668.44	7964.55
668.63	7188.37
668.81	6631.32
669.00	6264.74
669.19	5648.30
669.38	4968.37
669.56	4392.89
669.75	3844.04
669.94	3381.20
670.12	2850.77
670.31	2504.67
670.50	2369.50
670.68	2037.73
670.87	1978.34
671.06	1751.01
671.24	1765.35
671.43	1804.26
671.62	1812.45
671.80	1683.43
671.99	1755.11
672.18	1703.91
672.36	1714.15
672.55	1781.73
672.74	1716.20
672.92	1658.85
673.11	1759.21
673.29	1720.29
673.48	1796.07
673.67	1748.97
673.85	1773.54
674.04	1740.77
674.23	1693.67
674.41	1767.40
674.60	1632.23
674.79	1617.90
674.97	1681.38
675.16	1804.26
675.34	1716.20
675.53	1648.61
675.72	1710.05
675.90	1746.92
676.09	1712.10
676.28	1728.49
676.46	1591.27
676.65	1738.73
676.83	1742.82
677.02	1712.10
677.21	1697.77
677.39	1746.92
677.58	1673.19
677.77	1691.62
677.95	1687.53
678.14	1759.21
678.32	1671.14
678.51	1677.29
678.70	1828.84
678.88	1632.23
679.07	1738.73
679.25	1708.01
679.44	1646.57
679.63	1701.86
679.81	1757.16
680.00	1775.59
680.18	1763.30
680.37	1812.45
680.55	1693.67
680.74	1695.72
680.93	1583.08
681.11	1712.10
681.30	1701.86
681.48	1718.25
681.67	1677.29
681.85	1746.92
682.04	1761.25
682.23	1751.01
682.41	1738.73
682.60	1708.01
682.78	1658.85
682.97	1701.86
683.15	1730.53
683.34	1650.66
683.53	1863.65
683.71	1710.05
683.90	1773.54
684.08	1775.59
684.27	1673.19
684.45	1724.39
684.64	1794.02
684.82	1740.77
685.01	1691.62
685.19	1716.20
685.38	1837.03
685.57	1673.19
685.75	1656.81
685.94	1648.61
686.12	1607.66
686.31	1722.34
686.49	1775.59
686.68	1630.18
686.86	1673.19
687.05	1679.33
687.23	1714.15
687.42	1679.33
687.60	1652.71
687.79	1744.87
687.97	1703.91
688.16	1742.82
688.34	1773.54
688.53	1652.71
688.71	1738.73
688.90	1705.96
689.08	1640.42
689.27	1591.27
689.45	1693.67
689.64	1701.86
689.82	1712.10
690.01	1759.21
690.19	1828.84
690.38	1716.20
690.56	1779.68
690.75	1673.19
690.93	1652.71
691.12	1763.30
691.30	1697.77
691.49	1710.05
691.67	1662.95
691.86	1791.97
692.04	1650.66
692.23	1701.86
692.41	1607.66
692.60	1748.97
692.78	1769.44
692.97	1718.25
693.15	1744.87
693.34	1779.68
693.52	1765.35
693.71	1671.14
693.89	1693.67
694.08	1562.60
694.26	1787.88
694.44	1757.16
694.63	1708.01
694.81	1611.75
695.00	1689.57
695.18	1714.15
695.37	1861.60
695.55	1673.19
695.74	1726.44
695.92	1613.80
696.10	1730.53
696.29	1662.95
696.47	1710.05
696.66	1652.71
696.84	1705.96
697.03	1667.05
697.21	1857.51
697.40	2314.20
697.58	1771.49
697.76	1665.00
697.95	1718.25
698.13	1683.43
698.32	1640.42
698.50	1687.53
698.68	1722.34
698.87	1712.10
699.05	1783.78
699.24	1705.96
699.42	1757.16
699.61	1732.58
699.79	1708.01
699.97	1771.49
700.16	1710.05
700.34	1689.57
700.53	1757.16
700.71	1746.92
700.89	1751.01
701.08	1714.15
701.26	1710.05
701.45	2123.74
701.63	1576.94
701.81	1734.63
702.00	1673.19
702.18	1708.01
702.37	1644.52
702.55	1740.77
702.73	1748.97
702.92	1673.19
703.10	1746.92
703.28	1677.29
703.47	1656.81
703.65	1736.68
703.84	1761.25
704.02	1671.14
704.20	1861.60
704.39	1611.75
704.57	1730.53
704.75	1841.12
704.94	1746.92
705.12	1763.30
705.30	1791.97
705.49	2310.11
705.67	4315.07
705.86	9111.41
706.04	12109.64
706.22	14163.75
706.41	14937.88
706.59	13420.34
706.77	9342.83
706.96	7399.31
707.14	6440.86
707.32	5861.29
707.51	5423.02
707.69	4835.25
707.87	4071.36
708.06	3389.39
708.24	2879.44
708.42	2437.08
708.61	2203.61
708.79	1959.91
708.97	1867.75
709.16	1830.88
709.34	1689.57
709.52	1722.34
709.71	1783.78
709.89	1714.15
710.07	1617.90
710.26	1654.76
710.44	1615.85
710.62	1763.30
710.80	1681.38
710.99	1783.78
711.17	1691.62
711.35	1730.53
711.54	1685.48
711.72	1732.58
711.90	1699.81
712.09	1763.30
712.27	1730.53
712.45	1705.96
712.63	1695.72
712.82	1712.10
713.00	1763.30
713.18	1753.06
713.37	1771.49
713.55	1773.54
713.73	1746.92
713.91	1728.49
714.10	1742.82
714.28	1714.15
714.46	1740.77
714.65	1824.74
714.83	1701.86
715.01	1755.11
715.19	1738.73
715.38	1576.94
715.56	1648.61
715.74	1667.05
715.92	1697.77
716.11	1769.44
716.29	1566.70
716.47	1662.95
716.65	1691.62
716.84	1652.71
717.02	1742.82
717.20	1648.61
717.38	1708.01
717.57	1695.72
717.75	1726.44
717.93	1693.67
718.11	1703.91
718.30	1607.66
718.48	1769.44
718.66	1744.87
718.84	1732.58
719.03	1716.20
719.21	1693.67
719.39	1843.17
719.57	1769.44
719.75	1714.15
719.94	1570.79
720.12	1804.26
720.30	1714.15
720.48	1699.81
720.67	1681.38
720.85	1679.33
721.03	1669.09
721.21	1607.66
721.39	1789.92
721.58	1695.72
721.76	1695.72
721.94	1724.39
722.12	1753.06
722.30	1765.35
722.49	1660.90
722.67	1787.88
722.85	1728.49
723.03	1642.47
723.21	1681.38
723.40	1748.97
723.58	1728.49
723.76	1755.11
723.94	1726.44
724.12	1740.77
724.30	1798.12
724.49	1720.29
724.67	1667.05
724.85	1814.50
725.03	1609.70
725.21	1714.15
725.40	1751.01
725.58	1679.33
725.76	1751.01
725.94	1734.63
726.12	1576.94
726.30	1669.09
726.49	1673.19
726.67	1689.57
726.85	1695.72
727.03	1738.73
727.21	2160.61
727.39	2793.43
727.57	3721.16
727.76	4181.95
727.94	4499.39
728.12	4255.68
728.30	3565.51
728.48	2985.94
728.66	2723.80
728.84	2543.58
729.03	2328.54
729.21	2058.21
729.39	1984.48
729.57	1773.54
729.75	1882.08
729.93	1826.79
730.11	1691.62
730.30	1763.30
730.48	1732.58
730.66	1767.40
730.84	1781.73
731.02	1630.18
731.20	1673.19
731.38	1722.34
731.56	1691.62
731.74	1689.57
731.93	1730.53
732.11	1732.58
732.29	1761.25
732.47	1677.29
732.65	1705.96
732.83	1816.55
733.01	1689.57
733.19	1640.42
733.37	1738.73
733.56	1697.77
733.74	1656.81
733.92	1734.63
734.10	1669.09
734.28	1705.96
734.46	1640.42
734.64	1716.20
734.82	1650.66
735.00	1679.33
735.18	1691.62
735.36	1652.71
735.54	1705.96
735.73	1667.05
735.91	1679.33
736.09	1816.55
736.27	1726.44
736.45	1781.73
736.63	1609.70
736.81	1636.33
736.99	1798.12
737.17	1763.30
737.35	1675.24
737.53	1701.86
737.71	1658.85
737.89	1773.54
738.07	1630.18
738.25	1716.20
738.43	1630.18
738.61	1685.48
738.80	1699.81
738.98	1640.42
739.16	1724.39
739.34	1667.05
739.52	1806.31
739.70	1728.49
739.88	1734.63
740.06	1763.30
740.24	1574.89
740.42	1759.21
740.60	1628.14
740.78	1660.90
740.96	1632.23
741.14	1732.58
741.32	1744.87
741.50	1683.43
741.68	1869.80
741.86	1746.92
742.04	1646.57
742.22	1679.33
742.40	1740.77
742.58	1740.77
742.76	1621.99
742.94	1755.11
743.12	1671.14
743.30	1695.72
743.48	1748.97
743.66	1671.14
743.84	1640.42
744.02	1699.81
744.20	1683.43
744.38	1636.33
744.56	1685.48
744.74	1796.07
744.92	1679.33
745.10	1742.82
745.28	1765.35
745.46	1791.97
745.64	1748.97
745.82	1736.68
746.00	1646.57
746.18	1761.25
746.36	1675.24
746.54	1701.86
746.72	1673.19
746.90	1687.53
747.08	1724.39
747.26	1650.66
747.44	1761.25
747.62	1646.57
747.80	1785.83
747.98	1769.44
748.15	1732.58
748.33	1720.29
748.51	1695.72
748.69	1714.15
748.87	1660.90
749.05	1601.51
749.23	1769.44
749.41	1746.92
749.59	1722.34
749.77	1755.11
749.95	1681.38
750.13	1697.77
750.31	1730.53
750.49	1699.81
750.67	1802.21
750.85	1724.39
751.03	1726.44
751.20	1796.07
751.38	1701.86
751.56	1718.25
751.74	1726.44
751.92	1744.87
752.10	1681.38
752.28	1669.09
752.46	1656.81
752.64	1679.33
752.82	1679.33
753.00	1703.91
753.18	1667.05
753.35	1685.48
753.53	1636.33
753.71	1617.90
753.89	1773.54
754.07	1628.14
754.25	1724.39
754.43	1701.86
754.61	1701.86
754.79	1677.29
754.97	1650.66
755.14	1832.93
755.32	1632.23
755.50	1701.86
755.68	1783.78
755.86	1687.53
756.04	1695.72
756.22	1570.79
756.40	1787.88
756.57	1787.88
756.75	1677.29
756.93	1736.68
757.11	1722.34
757.29	1593.32
757.47	1605.61
757.65	1658.85
757.82	1665.00
758.00	1681.38
758.18	1619.94
758.36	1714.15
758.54	1832.93
758.72	1640.42
758.90	1791.97
759.07	1722.34
759.25	1665.00
759.43	1710.05
759.61	1665.00
759.79	2234.33
759.97	1720.29
760.15	1718.25
760.32	1646.57
760.50	1603.56
760.68	1798.12
760.86	1593.32
761.04	1808.36
761.22	1734.63
761.39	1769.44
761.57	1705.96
761.75	1609.70
761.93	1763.30
762.11	1751.01
762.28	1689.57
762.46	1656.81
762.64	1681.38
762.82	1591.27
763.00	1710.05
763.18	1761.25
763.35	1687.53
763.53	1759.21
763.71	1789.92
763.89	1665.00
764.07	1767.40
764.24	1722.34
764.42	1814.50
764.60	1710.05
764.78	1697.77
764.96	1816.55
765.13	1742.82
765.31	1732.58
765.49	1746.92
765.67	1595.37
765.84	1687.53
766.02	1689.57
766.20	1529.83
766.38	1800.16
766.56	1695.72
766.73	1736.68
766.91	1675.24
767.09	1705.96
767.27	1736.68
767.44	1705.96
767.62	1765.35
767.80	1712.10
767.98	1724.39
768.15	1722.34
768.33	1714.15
768.51	1787.88
768.69	1689.57
768.87	1697.77
769.04	1652.71
769.22	1837.03
769.40	1802.21
769.58	1920.99
769.75	1615.85
769.93	1767.40
770.11	1677.29
770.28	1673.19
770.46	1769.44
770.64	1695.72
770.82	1671.14
770.99	1646.57
771.17	1679.33
771.35	1681.38
771.53	1662.95
771.70	1691.62
771.88	1687.53
772.06	1722.34
772.23	1726.44
772.41	1814.50
772.59	1734.63
772.77	1585.13
772.94	1712.10
773.12	1765.35
773.30	1726.44
773.47	1658.85
773.65	1697.77
773.83	1701.86
774.01	1652.71
774.18	1554.41
774.36	1656.81
774.54	1660.90
774.71	1757.16
774.89	1648.61
775.07	1665.00
775.24	1665.00
775.42	1683.43
775.60	1722.34
775.78	1613.80
775.95	1544.17
776.13	1638.38
776.31	1578.98
776.48	1765.35
776.66	1781.73
776.84	1636.33
777.01	1738.73
777.19	1726.44
777.37	1669.09
777.54	1765.35
777.72	1818.60
777.90	1757.16
778.07	1679.33
778.25	1906.66
778.43	1779.68
778.60	1636.33
778.78	1710.05
778.96	1734.63
779.13	1677.29
779.31	1757.16
779.49	1667.05
779.66	1734.63
779.84	1767.40
780.01	1667.05
780.19	1654.76
780.37	1697.77
780.54	1763.30
780.72	1652.71
780.90	1724.39
781.07	1662.95
781.25	1660.90
781.43	1675.24
781.60	1632.23
781.78	1763.30
781.95	1667.05
782.13	1712.10
782.31	1824.74
782.48	1642.47
782.66	1722.34
782.83	1787.88
783.01	1689.57
783.19	1740.77
783.36	1732.58
783.54	1685.48
783.72	1738.73
783.89	1697.77
784.07	1771.49
784.24	1691.62
784.42	1783.78
784.60	1687.53
784.77	1751.01
784.95	1593.32
785.12	1646.57
785.30	1697.77
785.47	1699.81
785.65	1730.53
785.83	1742.82
786.00	1617.90
786.18	1742.82
786.35	1652.71
786.53	1597.42
786.71	1765.35
786.88	1738.73
787.06	1722.34
787.23	1646.57
787.41	1585.13
787.58	1697.77
787.76	1656.81
787.94	1683.43
788.11	1689.57
788.29	1695.72
788.46	1740.77
788.64	1660.90
788.81	1685.48
788.99	1595.37
789.16	1683.43
789.34	1716.20
789.52	1708.01
789.69	1634.28
789.87	1533.93
790.04	1693.67
790.22	1742.82
790.39	1851.36
790.57	1564.65
790.74	1683.43
790.92	1816.55
791.09	1626.09
791.27	1748.97
791.44	1746.92
791.62	1699.81
791.79	1765.35
791.97	1654.76
792.15	1871.84
792.32	1761.25
792.50	1794.02
792.67	1808.36
792.85	1767.40
793.02	1810.40
793.20	1677.29
793.37	1667.05
793.55	1808.36
793.72	1628.14
793.90	1720.29
794.07	1619.94
794.25	1587.18
794.42	1699.81
794.60	1665.00
794.77	1732.58
794.95	1779.68
795.12	1755.11
795.30	1693.67
795.47	1656.81
795.65	1859.56
795.82	1693.67
796.00	1601.51
796.17	1720.29
796.34	1642.47
796.52	1751.01
796.69	1691.62
796.87	1740.77
797.04	1695.72
797.22	1740.77
797.39	1746.92
797.57	1757.16
797.74	1767.40
797.92	1763.30
798.09	1648.61
798.27	1724.39
798.44	1667.05
798.62	1648.61
798.79	1724.39
798.96	1751.01
799.14	1761.25
799.31	1761.25
799.49	1673.19
799.66	1613.80
799.84	1683.43
800.01	1630.18
800.19	1738.73
800.36	1607.66
800.53	1662.95
800.71	1779.68
800.88	1814.50
801.06	1789.92
801.23	1574.89
801.41	1693.67
801.58	1708.01
801.75	1609.70
801.93	1753.06
802.10	1789.92
802.28	1701.86
802.45	1697.77
802.63	1775.59
802.80	1789.92
802.97	1681.38
803.15	1751.01
803.32	1705.96
803.50	1705.96
803.67	1675.24
803.84	1638.38
804.02	1673.19
804.19	1691.62
804.37	1611.75
804.54	1636.33
804.71	1683.43
804.89	1705.96
805.06	1624.04
805.24	1673.19
805.41	1634.28
805.58	1632.23
805.76	1830.88
805.93	1724.39
806.10	1703.91
806.28	1685.48
806.45	1738.73
806.63	1667.05
806.80	1712.10
806.97	1734.63
807.15	1703.91
807.32	1652.71
807.49	1621.99
807.67	1699.81
807.84	1765.35
808.01	1638.38
808.19	1808.36
808.36	1828.84
808.54	1619.94
808.71	1679.33
808.88	1675.24
809.06	1794.02
809.23	1800.16
809.40	1693.67
809.58	1800.16
809.75	1740.77
809.92	1738.73
810.10	1818.60
810.27	1708.01
810.44	1734.63
810.62	1767.40
810.79	1712.10
810.96	1667.05
811.14	1665.00
811.31	1636.33
811.48	1734.63
811.66	1701.86
811.83	1632.23
812.00	1775.59
812.18	1703.91
812.35	1816.55
812.52	1714.15
812.69	1652.71
812.87	1675.24
813.04	1703.91
813.21	1648.61
813.39	1658.85
813.56	1665.00
813.73	1730.53
813.91	1617.90
814.08	1744.87
814.25	1728.49
814.42	1566.70
814.60	1728.49
814.77	1763.30
814.94	1636.33
815.12	1767.40
815.29	1726.44
815.46	1753.06
815.63	1708.01
815.81	1722.34
815.98	1695.72
816.15	1798.12
816.33	1708.01
816.50	1624.04
816.67	1730.53
816.84	1669.09
817.02	1669.09
817.19	1691.62
817.36	1652.71
817.53	1697.77
817.71	1738.73
817.88	1701.86
818.05	1656.81
818.22	1646.57
818.40	1761.25
818.57	1724.39
818.74	1726.44
818.91	1722.34
819.09	1724.39
819.26	1755.11
819.43	1626.09
819.60	1683.43
819.78	1724.39
819.95	1830.88
820.12	1730.53
820.29	1814.50
820.47	1796.07
820.64	1660.90
820.81	1642.47
820.98	1595.37
821.15	1714.15
821.33	1779.68
821.50	1611.75
821.67	1777.64
821.84	1632.23
822.02	1742.82
822.19	1673.19
822.36	1683.43
822.53	1593.32
822.70	1607.66
822.88	1636.33
823.05	1724.39
823.22	1763.30
823.39	1714.15
823.56	1712.10
823.74	1732.58
823.91	1660.90
824.08	1578.98
824.25	1564.65
824.42	1740.77
824.60	1613.80
824.77	1726.44
824.94	1736.68
825.11	1738.73
825.28	1607.66
825.45	1787.88
825.63	1654.76
825.80	1564.65
825.97	1728.49
826.14	1695.72
826.31	1656.81
826.48	1740.77
826.66	1644.52
826.83	1642.47
827.00	1675.24
827.17	1593.32
827.34	1720.29
827.51	1613.80
827.69	1681.38
827.86	1652.71
828.03	1689.57
828.20	1761.25
828.37	1701.86
828.54	1761.25
828.71	1650.66
828.89	1837.03
829.06	1671.14
829.23	1689.57
829.40	1669.09
829.57	1693.67
829.74	1720.29
829.91	1615.85
830.09	1615.85
830.26	1722.34
830.43	1744.87
830.60	1624.04
830.77	1714.15
830.94	1785.83
831.11	1763.30
831.28	1679.33
831.46	1732.58
831.63	1642.47
831.80	1761.25
831.97	1681.38
832.14	1660.90
832.31	1691.62
832.48	1730.53
832.65	1779.68
832.82	1697.77
832.99	1718.25
833.17	1611.75
833.34	1748.97
833.51	1710.05
833.68	1632.23
833.85	1812.45
834.02	1660.90
834.19	1691.62
834.36	1665.00
834.53	1689.57
834.70	1724.39
834.87	1679.33
835.04	1738.73
835.22	1669.09
835.39	1771.49
835.56	1665.00
835.73	1642.47
835.90	1683.43
836.07	1632.23
836.24	1771.49
836.41	1642.47
836.58	1667.05
836.75	1781.73
836.92	1646.57
837.09	1759.21
837.26	1669.09
837.43	1736.68
837.60	1665.00
837.77	1683.43
837.94	1712.10
838.12	1818.60
838.29	1734.63
838.46	1617.90
838.63	1697.77
838.80	1779.68
838.97	1783.78
839.14	1669.09
839.31	1697.77
839.48	1757.16
839.65	1693.67
839.82	1748.97
839.99	1570.79
840.16	1689.57
840.33	1632.23
840.50	1724.39
840.67	1689.57
840.84	1587.18
841.01	1695.72
841.18	1703.91
841.35	1701.86
841.52	1767.40
841.69	1863.65
841.86	1705.96
842.03	1693.67
842.20	1716.20
842.37	1624.04
842.54	1648.61
842.71	1677.29
842.88	1593.32
843.05	1693.67
843.22	1589.22
843.39	1753.06
843.56	1687.53
843.73	1701.86
843.90	1701.86
844.07	1697.77
844.24	1730.53
844.41	1728.49
844.58	1724.39
844.75	1771.49
844.92	1679.33
845.09	1685.48
845.26	1722.34
845.43	1779.68
845.60	1634.28
845.77	1767.40
845.94	1771.49
846.10	1773.54
846.27	1564.65
846.44	1734.63
846.61	1615.85
846.78	1712.10
846.95	1759.21
847.12	1714.15
847.29	1662.95
847.46	1673.19
847.63	1783.78
847.80	1726.44
847.97	1738.73
848.14	1800.16
848.31	1726.44
848.48	1646.57
848.65	1796.07
848.82	1677.29
848.98	1763.30
849.15	1757.16
849.32	1751.01
849.49	1802.21
849.66	1628.14
849.83	1730.53
850.00	1658.85
850.17	1791.97
850.34	1673.19
850.51	1630.18
850.68	1785.83
850.85	1843.17
851.01	1775.59
851.18	1771.49
851.35	1751.01
851.52	1757.16
851.69	1757.16
851.86	1720.29
852.03	1693.67
852.20	1695.72
852.37	1679.33
852.53	1724.39
852.70	1734.63
852.87	1701.86
853.04	1683.43
853.21	1636.33
853.38	1693.67
853.55	1783.78
853.72	1796.07
853.89	1636.33
854.05	1755.11
854.22	1658.85
854.39	1699.81
854.56	1738.73
854.73	1761.25
854.90	1697.77
855.07	1675.24
855.23	1697.77
855.40	1677.29
855.57	1607.66
855.74	1632.23
855.91	1871.84
856.08	1658.85
856.25	1683.43
856.41	1689.57
856.58	1681.38
856.75	1708.01
856.92	1626.09
857.09	1738.73
857.26	1599.46
857.42	1767.40
857.59	1781.73
857.76	1722.34
857.93	1728.49
858.10	1746.92
858.27	1583.08
858.43	1759.21
858.60	1671.14
858.77	1654.76
858.94	1658.85
859.11	1759.21
859.27	1642.47
859.44	1730.53
859.61	1834.98
859.78	1755.11
859.95	1609.70
860.12	1658.85
860.28	1771.49
860.45	1837.03
860.62	1681.38
860.79	1665.00
860.95	1693.67
861.12	1615.85
861.29	1624.04
861.46	1640.42
861.63	1599.46
861.79	1718.25
861.96	1607.66
862.13	1654.76
862.30	1744.87
862.47	1687.53
862.63	1632.23
862.80	1703.91
862.97	1675.24
863.14	1683.43
863.30	1630.18
863.47	1677.29
863.64	1751.01
863.81	1693.67
863.97	1660.90
864.14	1654.76
864.31	1705.96
864.48	1662.95
864.65	1703.91
864.81	1773.54
864.98	1705.96
865.15	1802.21
865.32	1736.68
865.48	1816.55
865.65	1751.01
865.82	1619.94
865.98	1720.29
866.15	1736.68
866.32	1628.14
866.49	1722.34
866.65	1822.69
866.82	1636.33
866.99	1669.09
867.16	1705.96
867.32	1675.24
867.49	1658.85
867.66	1710.05
867.83	1662.95
867.99	1662.95
868.16	1716.20
868.33	1583.08
868.49	1714.15
868.66	1673.19
868.83	1798.12
868.99	1667.05
869.16	1681.38
869.33	1757.16
869.50	1783.78
869.66	1671.14
869.83	1640.42
870.00	1630.18
870.16	1656.81
870.33	1708.01
870.50	1734.63
870.66	1705.96
870.83	1796.07
871.00	1765.35
871.17	1658.85
871.33	1718.25
871.50	1615.85
871.67	1675.24
871.83	1636.33
872.00	1802.21
872.17	1662.95
872.33	1816.55
872.50	1736.68
872.67	1621.99
872.83	1675.24
873.00	1740.77
873.17	1624.04
873.33	1744.87
873.50	1714.15
873.67	1626.09
873.83	1648.61
874.00	1720.29
874.16	1787.88
874.33	1773.54
874.50	1624.04
874.66	1644.52
874.83	1712.10
875.00	1708.01
875.16	1730.53
875.33	1755.11
875.50	1624.04
875.66	1730.53
875.83	1671.14
875.99	1730.53
876.16	1687.53
876.33	1626.09
876.49	1699.81
876.66	1820.64
876.83	1656.81
876.99	1578.98
877.16	1673.19
877.32	1667.05
877.49	1689.57
877.66	1677.29
877.82	1785.83
877.99	1673.19
878.15	1726.44
878.32	1673.19
878.49	1732.58
878.65	1714.15
878.82	1773.54
878.98	1656.81
879.15	1787.88
879.32	1748.97
879.48	1687.53
879.65	1603.56
879.81	1660.90
879.98	1662.95
880.15	1716.20
880.31	1763.30
880.48	1691.62
880.64	1738.73
880.81	1705.96
880.97	1785.83
881.14	1785.83
881.31	1587.18
881.47	1773.54
881.64	1650.66
881.80	1619.94
881.97	1689.57
882.13	1693.67
882.30	1615.85
882.47	1658.85
882.63	1644.52
882.80	1708.01
882.96	1652.71
883.13	1683.43
883.29	1583.08
883.46	1701.86
883.62	1734.63
883.79	1722.34
883.95	1728.49
884.12	1712.10
884.29	1738.73
884.45	1683.43
884.62	1677.29
884.78	1605.61
884.95	1773.54
885.11	1691.62
885.28	1789.92
885.44	1673.19
885.61	1732.58
885.77	1783.78
885.94	1730.53
886.10	1660.90
886.27	1798.12
886.43	1779.68
886.60	1812.45
886.76	1724.39
886.93	1656.81
887.09	1728.49
887.26	1636.33
887.42	1789.92
887.59	1787.88
887.75	1828.84
887.92	1808.36
888.08	1685.48
888.25	1812.45
888.41	1804.26
888.58	1806.31
888.74	1673.19
888.91	1742.82
>>>>>End Processed Spectral Data<<<<<
