SpectraSuite Data File
++++++++++++++++++++++++++++++++++++
Date: Mon Jun 06 16:47:17 CEST 2016
User: root
Dark Spectrum Present: No
Reference Spectrum Present: No
Number of Sampled Component Spectra: 1
Spectrometers: USB4C02835
Integration Time (usec): 100000 (USB4C02835)
Spectra Averaged: 1 (USB4C02835)
Boxcar Smoothing: 0 (USB4C02835)
Correct for Electrical Dark: No (USB4C02835)
Strobe/Lamp Enabled: No (USB4C02835)
Correct for Detector Non-linearity: No (USB4C02835)
Correct for Stray Light: No (USB4C02835)
Number of Pixels in Processed Spectrum: 3648
>>>>>Begin Processed Spectral Data<<<<<
177.47	1466.35
177.69	1466.35
177.91	1466.35
178.13	1441.77
178.36	1482.73
178.58	1691.62
178.80	1671.14
179.02	1611.75
179.24	1691.62
179.46	1726.44
179.68	1791.97
179.90	1748.97
180.13	1746.92
180.35	1685.48
180.57	1660.90
180.79	1777.64
181.01	1728.49
181.23	1753.06
181.45	1798.12
181.67	1685.48
181.90	1685.48
182.12	1701.86
182.34	1646.57
182.56	1734.63
182.78	1755.11
183.00	1671.14
183.22	1779.68
183.44	1587.18
183.66	1804.26
183.89	1816.55
184.11	1685.48
184.33	1712.10
184.55	1751.01
184.77	1687.53
184.99	1742.82
185.21	1708.01
185.43	1861.60
185.65	1646.57
185.87	1669.09
186.10	1861.60
186.32	1839.08
186.54	1718.25
186.76	1777.64
186.98	1697.77
187.20	1734.63
187.42	1734.63
187.64	1701.86
187.86	1761.25
188.08	1832.93
188.30	1708.01
188.52	1640.42
188.75	1832.93
188.97	1830.88
189.19	1734.63
189.41	1685.48
189.63	1710.05
189.85	1658.85
190.07	1691.62
190.29	1656.81
190.51	1748.97
190.73	1656.81
190.95	1769.44
191.17	1640.42
191.39	1621.99
191.61	1677.29
191.84	1660.90
192.06	1728.49
192.28	1624.04
192.50	1929.19
192.72	1640.42
192.94	1697.77
193.16	1732.58
193.38	1679.33
193.60	1587.18
193.82	1712.10
194.04	1738.73
194.26	1765.35
194.48	1681.38
194.70	1746.92
194.92	1691.62
195.14	1671.14
195.36	1632.23
195.58	1730.53
195.80	1726.44
196.02	1677.29
196.24	1708.01
196.46	1689.57
196.69	1699.81
196.91	1839.08
197.13	1714.15
197.35	1669.09
197.57	1796.07
197.79	1683.43
198.01	1759.21
198.23	1708.01
198.45	1783.78
198.67	1708.01
198.89	1697.77
199.11	1638.38
199.33	1662.95
199.55	1548.26
199.77	1710.05
199.99	1730.53
200.21	1681.38
200.43	1763.30
200.65	1634.28
200.87	1558.50
201.09	1673.19
201.31	1718.25
201.53	1826.79
201.75	1769.44
201.97	1689.57
202.19	1746.92
202.41	1740.77
202.63	1882.08
202.85	1693.67
203.07	1683.43
203.29	1748.97
203.51	1621.99
203.73	1671.14
203.95	1890.28
204.17	1705.96
204.39	1771.49
204.61	1767.40
204.83	1685.48
205.05	1675.24
205.27	1738.73
205.49	1832.93
205.71	1656.81
205.93	1626.09
206.15	1705.96
206.37	1804.26
206.59	1755.11
206.81	1619.94
207.03	1718.25
207.25	1724.39
207.47	1683.43
207.69	1716.20
207.91	1804.26
208.13	1820.64
208.34	1658.85
208.56	1720.29
208.78	1751.01
209.00	1720.29
209.22	1724.39
209.44	1689.57
209.66	1677.29
209.88	1681.38
210.10	1669.09
210.32	1660.90
210.54	1824.74
210.76	1683.43
210.98	1794.02
211.20	1621.99
211.42	1724.39
211.64	1785.83
211.86	1730.53
212.08	1771.49
212.30	1742.82
212.52	1767.40
212.74	1796.07
212.96	1759.21
213.17	1730.53
213.39	1826.79
213.61	1783.78
213.83	1738.73
214.05	1601.51
214.27	1841.12
214.49	1630.18
214.71	1667.05
214.93	1783.78
215.15	1744.87
215.37	1767.40
215.59	1654.76
215.81	1781.73
216.03	1748.97
216.24	1724.39
216.46	1683.43
216.68	1740.77
216.90	1708.01
217.12	1789.92
217.34	1722.34
217.56	1773.54
217.78	1767.40
218.00	1738.73
218.22	1669.09
218.44	1714.15
218.66	1683.43
218.87	1822.69
219.09	1708.01
219.31	1718.25
219.53	1669.09
219.75	1724.39
219.97	1753.06
220.19	1691.62
220.41	1726.44
220.63	1757.16
220.85	1755.11
221.06	1689.57
221.28	1804.26
221.50	1705.96
221.72	1695.72
221.94	1689.57
222.16	1701.86
222.38	1681.38
222.60	1767.40
222.82	1708.01
223.03	1755.11
223.25	1656.81
223.47	1777.64
223.69	1812.45
223.91	1763.30
224.13	1714.15
224.35	1673.19
224.57	1714.15
224.78	1705.96
225.00	1640.42
225.22	1728.49
225.44	1740.77
225.66	1751.01
225.88	1789.92
226.10	1720.29
226.32	1701.86
226.53	1824.74
226.75	1755.11
226.97	1738.73
227.19	1714.15
227.41	1687.53
227.63	1718.25
227.85	1583.08
228.06	1712.10
228.28	1683.43
228.50	1769.44
228.72	1701.86
228.94	1611.75
229.16	1662.95
229.37	1599.46
229.59	1738.73
229.81	1808.36
230.03	1691.62
230.25	1619.94
230.47	1705.96
230.69	1665.00
230.90	1765.35
231.12	1691.62
231.34	1728.49
231.56	1732.58
231.78	1607.66
232.00	1744.87
232.21	1742.82
232.43	1695.72
232.65	1581.03
232.87	1769.44
233.09	1652.71
233.30	1619.94
233.52	1697.77
233.74	1734.63
233.96	1658.85
234.18	1638.38
234.40	1693.67
234.61	1822.69
234.83	1654.76
235.05	1591.27
235.27	1828.84
235.49	1759.21
235.70	1712.10
235.92	1791.97
236.14	1718.25
236.36	1882.08
236.58	1628.14
236.79	1746.92
237.01	1781.73
237.23	1689.57
237.45	1826.79
237.67	1632.23
237.88	1781.73
238.10	1714.15
238.32	1673.19
238.54	1673.19
238.76	1726.44
238.97	1679.33
239.19	1609.70
239.41	1689.57
239.63	1744.87
239.85	1699.81
240.06	1695.72
240.28	1685.48
240.50	1701.86
240.72	1771.49
240.93	1751.01
241.15	1783.78
241.37	1687.53
241.59	1804.26
241.81	1562.60
242.02	1626.09
242.24	1726.44
242.46	1742.82
242.68	1671.14
242.89	1722.34
243.11	1777.64
243.33	1607.66
243.55	1714.15
243.76	1646.57
243.98	1648.61
244.20	1726.44
244.42	1699.81
244.64	1796.07
244.85	1601.51
245.07	1656.81
245.29	1699.81
245.51	1773.54
245.72	1726.44
245.94	1775.59
246.16	1777.64
246.38	1712.10
246.59	1669.09
246.81	1757.16
247.03	1708.01
247.24	1611.75
247.46	1632.23
247.68	1714.15
247.90	1693.67
248.11	1736.68
248.33	1767.40
248.55	1673.19
248.77	1755.11
248.98	1693.67
249.20	1777.64
249.42	1648.61
249.64	1689.57
249.85	1812.45
250.07	1695.72
250.29	1814.50
250.50	1761.25
250.72	1636.33
250.94	1712.10
251.16	1824.74
251.37	1681.38
251.59	1761.25
251.81	1701.86
252.02	1771.49
252.24	1630.18
252.46	1761.25
252.68	1693.67
252.89	1642.47
253.11	1570.79
253.33	1832.93
253.54	1746.92
253.76	1615.85
253.98	1656.81
254.20	1656.81
254.41	1667.05
254.63	1716.20
254.85	1619.94
255.06	1740.77
255.28	1812.45
255.50	1640.42
255.71	1695.72
255.93	1640.42
256.15	1650.66
256.36	1728.49
256.58	1656.81
256.80	1767.40
257.02	1728.49
257.23	1691.62
257.45	1687.53
257.67	1779.68
257.88	1726.44
258.10	1640.42
258.32	1742.82
258.53	1710.05
258.75	1771.49
258.97	1656.81
259.18	1669.09
259.40	1748.97
259.62	1849.32
259.83	1718.25
260.05	1732.58
260.27	2009.06
260.48	1781.73
260.70	1611.75
260.92	1722.34
261.13	1693.67
261.35	1695.72
261.57	1769.44
261.78	1656.81
262.00	1603.56
262.22	1722.34
262.43	1679.33
262.65	1617.90
262.86	1660.90
263.08	1904.61
263.30	1738.73
263.51	1648.61
263.73	1652.71
263.95	1771.49
264.16	1607.66
264.38	1763.30
264.60	1773.54
264.81	1718.25
265.03	1681.38
265.25	1701.86
265.46	1677.29
265.68	1783.78
265.89	1796.07
266.11	1642.47
266.33	1757.16
266.54	1779.68
266.76	1779.68
266.98	1740.77
267.19	1767.40
267.41	1669.09
267.62	1732.58
267.84	1689.57
268.06	1769.44
268.27	1660.90
268.49	1779.68
268.70	1757.16
268.92	1656.81
269.14	1636.33
269.35	1636.33
269.57	1763.30
269.79	1765.35
270.00	1697.77
270.22	1804.26
270.43	1759.21
270.65	1628.14
270.87	1732.58
271.08	1789.92
271.30	1738.73
271.51	1693.67
271.73	1802.21
271.95	1783.78
272.16	1806.31
272.38	1669.09
272.59	1775.59
272.81	1730.53
273.02	1744.87
273.24	1771.49
273.46	1761.25
273.67	1701.86
273.89	1648.61
274.10	1701.86
274.32	1847.27
274.54	1722.34
274.75	1798.12
274.97	1679.33
275.18	1748.97
275.40	1834.98
275.61	1691.62
275.83	1714.15
276.05	1662.95
276.26	1642.47
276.48	1808.36
276.69	1697.77
276.91	1607.66
277.12	1751.01
277.34	1759.21
277.55	1820.64
277.77	1763.30
277.99	1607.66
278.20	1644.52
278.42	1724.39
278.63	1656.81
278.85	1617.90
279.06	1634.28
279.28	1753.06
279.49	1812.45
279.71	1701.86
279.93	1751.01
280.14	1697.77
280.36	1734.63
280.57	1816.55
280.79	1714.15
281.00	1648.61
281.22	1648.61
281.43	1794.02
281.65	1599.46
281.86	1730.53
282.08	1703.91
282.29	1746.92
282.51	1615.85
282.73	1601.51
282.94	1665.00
283.16	1755.11
283.37	1853.41
283.59	1658.85
283.80	1714.15
284.02	1744.87
284.23	1814.50
284.45	1675.24
284.66	1615.85
284.88	1699.81
285.09	1757.16
285.31	1720.29
285.52	1720.29
285.74	1671.14
285.95	1738.73
286.17	1654.76
286.38	1730.53
286.60	1650.66
286.81	1697.77
287.03	1648.61
287.24	1736.68
287.46	1699.81
287.67	1642.47
287.89	1873.89
288.10	1767.40
288.32	1730.53
288.53	1761.25
288.75	1703.91
288.96	1710.05
289.18	1652.71
289.39	1742.82
289.61	1710.05
289.82	1839.08
290.04	1820.64
290.25	1650.66
290.47	1648.61
290.68	1769.44
290.90	1751.01
291.11	1624.04
291.33	1742.82
291.54	1615.85
291.76	1699.81
291.97	1701.86
292.18	1740.77
292.40	1671.14
292.61	1640.42
292.83	1834.98
293.04	1824.74
293.26	1658.85
293.47	1701.86
293.69	1673.19
293.90	1691.62
294.12	1851.36
294.33	1701.86
294.55	1771.49
294.76	1738.73
294.97	1810.40
295.19	1806.31
295.40	1675.24
295.62	1742.82
295.83	1871.84
296.05	1646.57
296.26	1828.84
296.48	1685.48
296.69	1628.14
296.90	1718.25
297.12	1755.11
297.33	1757.16
297.55	1705.96
297.76	1675.24
297.98	1759.21
298.19	1730.53
298.41	1683.43
298.62	1652.71
298.83	1769.44
299.05	1738.73
299.26	1722.34
299.48	1615.85
299.69	1746.92
299.90	1773.54
300.12	1628.14
300.33	1722.34
300.55	1724.39
300.76	1771.49
300.98	1593.32
301.19	1683.43
301.40	1671.14
301.62	1648.61
301.83	1730.53
302.05	1699.81
302.26	1638.38
302.47	1726.44
302.69	1630.18
302.90	1662.95
303.12	1566.70
303.33	1716.20
303.54	1796.07
303.76	1718.25
303.97	1693.67
304.19	1849.32
304.40	1699.81
304.61	1742.82
304.83	1920.99
305.04	1783.78
305.26	1691.62
305.47	1619.94
305.68	1695.72
305.90	1611.75
306.11	1855.46
306.33	1681.38
306.54	1673.19
306.75	1621.99
306.97	1650.66
307.18	1722.34
307.39	1650.66
307.61	1771.49
307.82	1685.48
308.04	1710.05
308.25	1705.96
308.46	1734.63
308.68	1732.58
308.89	1730.53
309.10	1718.25
309.32	1705.96
309.53	1685.48
309.74	1789.92
309.96	1703.91
310.17	1718.25
310.39	1693.67
310.60	1714.15
310.81	1726.44
311.03	1634.28
311.24	1718.25
311.45	1705.96
311.67	1855.46
311.88	1787.88
312.09	1685.48
312.31	1669.09
312.52	1755.11
312.73	1636.33
312.95	1634.28
313.16	1640.42
313.37	1794.02
313.59	1724.39
313.80	1787.88
314.01	1681.38
314.23	1662.95
314.44	1734.63
314.65	1634.28
314.87	1665.00
315.08	1738.73
315.29	1634.28
315.51	1681.38
315.72	1681.38
315.93	1796.07
316.15	1755.11
316.36	1650.66
316.57	1656.81
316.79	1759.21
317.00	1689.57
317.21	1763.30
317.43	1679.33
317.64	1660.90
317.85	1679.33
318.07	1736.68
318.28	1773.54
318.49	1822.69
318.70	1857.51
318.92	1785.83
319.13	1767.40
319.34	1890.28
319.56	1828.84
319.77	1853.41
319.98	1765.35
320.20	1710.05
320.41	1746.92
320.62	1781.73
320.83	1642.47
321.05	1908.71
321.26	1714.15
321.47	1744.87
321.69	1761.25
321.90	1634.28
322.11	1736.68
322.32	1681.38
322.54	1820.64
322.75	1617.90
322.96	1822.69
323.18	1638.38
323.39	1628.14
323.60	1652.71
323.81	1779.68
324.03	1636.33
324.24	1710.05
324.45	1705.96
324.66	1736.68
324.88	1796.07
325.09	1787.88
325.30	1716.20
325.52	1699.81
325.73	1738.73
325.94	1669.09
326.15	1597.42
326.37	1724.39
326.58	1703.91
326.79	1720.29
327.00	1671.14
327.22	1763.30
327.43	1673.19
327.64	1650.66
327.85	1708.01
328.07	1632.23
328.28	1808.36
328.49	1640.42
328.70	1660.90
328.92	1744.87
329.13	1671.14
329.34	1722.34
329.55	1755.11
329.76	1816.55
329.98	1703.91
330.19	1796.07
330.40	1703.91
330.61	1759.21
330.83	1779.68
331.04	1628.14
331.25	1734.63
331.46	1738.73
331.68	1671.14
331.89	1730.53
332.10	1726.44
332.31	1671.14
332.52	1720.29
332.74	1814.50
332.95	1671.14
333.16	1685.48
333.37	1673.19
333.58	1687.53
333.80	1722.34
334.01	1595.37
334.22	1650.66
334.43	1701.86
334.64	1695.72
334.86	1601.51
335.07	1619.94
335.28	1785.83
335.49	1615.85
335.70	1771.49
335.92	1798.12
336.13	1820.64
336.34	1687.53
336.55	1757.16
336.76	1679.33
336.98	1646.57
337.19	1652.71
337.40	1826.79
337.61	1906.66
337.82	1673.19
338.04	1865.70
338.25	1662.95
338.46	1705.96
338.67	1705.96
338.88	1652.71
339.09	1644.52
339.31	1613.80
339.52	1628.14
339.73	1675.24
339.94	1708.01
340.15	1765.35
340.36	1720.29
340.58	1746.92
340.79	1601.51
341.00	1710.05
341.21	1699.81
341.42	1787.88
341.63	1720.29
341.85	1777.64
342.06	1738.73
342.27	1636.33
342.48	1705.96
342.69	1695.72
342.90	1746.92
343.12	1830.88
343.33	1617.90
343.54	1718.25
343.75	1746.92
343.96	1757.16
344.17	1697.77
344.38	1640.42
344.60	1609.70
344.81	1650.66
345.02	1632.23
345.23	1730.53
345.44	1779.68
345.65	1638.38
345.86	1714.15
346.07	1746.92
346.29	1718.25
346.50	1814.50
346.71	1767.40
346.92	1730.53
347.13	1828.84
347.34	1769.44
347.55	1699.81
347.76	1769.44
347.98	1658.85
348.19	1687.53
348.40	1738.73
348.61	1699.81
348.82	1787.88
349.03	1734.63
349.24	1685.48
349.45	1798.12
349.66	1603.56
349.88	1679.33
350.09	1687.53
350.30	1718.25
350.51	1808.36
350.72	1740.77
350.93	1738.73
351.14	1693.67
351.35	1732.58
351.56	1802.21
351.77	1708.01
351.99	1712.10
352.20	1814.50
352.41	1818.60
352.62	1669.09
352.83	1685.48
353.04	1642.47
353.25	1677.29
353.46	1765.35
353.67	1726.44
353.88	1642.47
354.09	1712.10
354.30	1757.16
354.52	1755.11
354.73	1712.10
354.94	1705.96
355.15	1654.76
355.36	1806.31
355.57	1703.91
355.78	1708.01
355.99	1650.66
356.20	1632.23
356.41	1767.40
356.62	1748.97
356.83	1726.44
357.04	1804.26
357.25	1691.62
357.46	1689.57
357.68	1712.10
357.89	1640.42
358.10	1718.25
358.31	1673.19
358.52	1716.20
358.73	1642.47
358.94	1705.96
359.15	1724.39
359.36	1681.38
359.57	1765.35
359.78	1693.67
359.99	1718.25
360.20	1652.71
360.41	1746.92
360.62	1740.77
360.83	1714.15
361.04	1746.92
361.25	1808.36
361.46	1771.49
361.67	1767.40
361.88	1761.25
362.09	1775.59
362.30	1755.11
362.51	1630.18
362.72	1740.77
362.93	1748.97
363.14	1787.88
363.35	1701.86
363.56	1681.38
363.78	1849.32
363.99	1755.11
364.20	1730.53
364.41	1681.38
364.62	1796.07
364.83	1724.39
365.04	1697.77
365.25	1738.73
365.46	1740.77
365.67	1677.29
365.88	1734.63
366.09	1726.44
366.30	1652.71
366.51	1689.57
366.72	1626.09
366.93	1691.62
367.14	1765.35
367.35	1751.01
367.56	1656.81
367.77	1787.88
367.98	1691.62
368.18	1742.82
368.39	1675.24
368.60	1755.11
368.81	1714.15
369.02	1640.42
369.23	1769.44
369.44	1632.23
369.65	1687.53
369.86	1779.68
370.07	1720.29
370.28	1558.50
370.49	1742.82
370.70	1740.77
370.91	1617.90
371.12	1693.67
371.33	1775.59
371.54	1662.95
371.75	1787.88
371.96	1574.89
372.17	1667.05
372.38	1667.05
372.59	1781.73
372.80	1667.05
373.01	1753.06
373.22	1718.25
373.43	1718.25
373.64	1640.42
373.85	1773.54
374.06	1767.40
374.26	1726.44
374.47	1701.86
374.68	1773.54
374.89	1673.19
375.10	1667.05
375.31	1730.53
375.52	1724.39
375.73	1753.06
375.94	1662.95
376.15	1863.65
376.36	1662.95
376.57	1669.09
376.78	1753.06
376.99	1738.73
377.20	1824.74
377.40	1732.58
377.61	1791.97
377.82	1646.57
378.03	1839.08
378.24	1730.53
378.45	1728.49
378.66	1718.25
378.87	1570.79
379.08	1642.47
379.29	1697.77
379.50	1759.21
379.71	1662.95
379.91	1697.77
380.12	1726.44
380.33	1646.57
380.54	1730.53
380.75	1691.62
380.96	1726.44
381.17	1771.49
381.38	1710.05
381.59	1791.97
381.80	1759.21
382.00	1789.92
382.21	1800.16
382.42	1869.80
382.63	1943.52
382.84	1779.68
383.05	1816.55
383.26	1779.68
383.47	1716.20
383.68	1714.15
383.88	1720.29
384.09	1742.82
384.30	1845.22
384.51	1757.16
384.72	1753.06
384.93	1648.61
385.14	1701.86
385.35	1748.97
385.55	1624.04
385.76	1781.73
385.97	1742.82
386.18	1626.09
386.39	1691.62
386.60	1722.34
386.81	1730.53
387.02	1650.66
387.22	1654.76
387.43	1742.82
387.64	1855.46
387.85	1869.80
388.06	2285.53
388.27	4229.06
388.48	6776.73
388.68	8187.78
388.89	9785.19
389.10	9758.57
389.31	8564.61
389.52	7393.17
389.73	6668.19
389.93	6209.44
390.14	5826.47
390.35	5167.03
390.56	4579.26
390.77	3807.17
390.98	3071.95
391.18	2543.58
391.39	2113.50
391.60	1802.21
391.81	1773.54
392.02	1714.15
392.23	1843.17
392.43	1755.11
392.64	1806.31
392.85	1648.61
393.06	1806.31
393.27	1730.53
393.47	1603.56
393.68	1728.49
393.89	1683.43
394.10	1744.87
394.31	1720.29
394.52	1656.81
394.72	1695.72
394.93	1789.92
395.14	1683.43
395.35	1718.25
395.56	1701.86
395.76	1669.09
395.97	1804.26
396.18	1822.69
396.39	1843.17
396.60	2017.25
396.80	1906.66
397.01	1947.62
397.22	1832.93
397.43	1789.92
397.64	1705.96
397.84	1806.31
398.05	1886.18
398.26	1740.77
398.47	1773.54
398.67	1814.50
398.88	1712.10
399.09	1802.21
399.30	1667.05
399.51	1654.76
399.71	1644.52
399.92	1673.19
400.13	1681.38
400.34	1726.44
400.54	1669.09
400.75	1785.83
400.96	1701.86
401.17	1828.84
401.37	1656.81
401.58	1751.01
401.79	1648.61
402.00	1818.60
402.21	2041.82
402.41	1966.05
402.62	2052.06
402.83	2011.11
403.04	2002.91
403.24	2054.11
403.45	1847.27
403.66	1882.08
403.87	1900.52
404.07	1980.39
404.28	1941.47
404.49	1863.65
404.70	1779.68
404.90	1826.79
405.11	1798.12
405.32	1734.63
405.52	1685.48
405.73	1636.33
405.94	1761.25
406.15	1718.25
406.35	1759.21
406.56	1679.33
406.77	1732.58
406.98	1794.02
407.18	1691.62
407.39	1755.11
407.60	1685.48
407.80	1806.31
408.01	1697.77
408.22	1771.49
408.43	1656.81
408.63	1701.86
408.84	1826.79
409.05	1845.22
409.25	1654.76
409.46	1693.67
409.67	1705.96
409.88	1632.23
410.08	1712.10
410.29	1693.67
410.50	1638.38
410.70	1847.27
410.91	1658.85
411.12	1710.05
411.32	1701.86
411.53	1728.49
411.74	1822.69
411.95	1753.06
412.15	1771.49
412.36	1699.81
412.57	1761.25
412.77	1853.41
412.98	1701.86
413.19	1722.34
413.39	1746.92
413.60	1705.96
413.81	1796.07
414.01	1646.57
414.22	1714.15
414.43	1763.30
414.63	1662.95
414.84	1746.92
415.05	1710.05
415.25	1691.62
415.46	1763.30
415.67	1763.30
415.87	1734.63
416.08	1712.10
416.29	1716.20
416.49	1716.20
416.70	1708.01
416.91	1656.81
417.11	1744.87
417.32	1759.21
417.53	1832.93
417.73	1820.64
417.94	1787.88
418.15	1730.53
418.35	1724.39
418.56	1765.35
418.77	1804.26
418.97	1722.34
419.18	1726.44
419.38	1585.13
419.59	1644.52
419.80	1796.07
420.00	1681.38
420.21	1701.86
420.42	1767.40
420.62	1691.62
420.83	1662.95
421.04	1679.33
421.24	1744.87
421.45	1617.90
421.65	1662.95
421.86	1699.81
422.07	1748.97
422.27	1681.38
422.48	1742.82
422.69	1722.34
422.89	1728.49
423.10	1716.20
423.30	1662.95
423.51	1742.82
423.72	1726.44
423.92	1726.44
424.13	1576.94
424.33	1738.73
424.54	1771.49
424.75	1669.09
424.95	1857.51
425.16	1744.87
425.36	1642.47
425.57	1800.16
425.78	1720.29
425.98	1769.44
426.19	1708.01
426.39	1662.95
426.60	1669.09
426.81	1845.22
427.01	1667.05
427.22	1681.38
427.42	1585.13
427.63	1595.37
427.83	1751.01
428.04	1767.40
428.25	1767.40
428.45	1812.45
428.66	1753.06
428.86	1632.23
429.07	1652.71
429.28	1781.73
429.48	1607.66
429.69	1744.87
429.89	1697.77
430.10	1734.63
430.30	1751.01
430.51	1775.59
430.71	1650.66
430.92	1638.38
431.13	1722.34
431.33	1726.44
431.54	1796.07
431.74	1839.08
431.95	1841.12
432.15	1648.61
432.36	1769.44
432.56	1824.74
432.77	1804.26
432.98	1857.51
433.18	1753.06
433.39	1650.66
433.59	1742.82
433.80	1740.77
434.00	1814.50
434.21	1703.91
434.41	1656.81
434.62	1814.50
434.82	1677.29
435.03	1697.77
435.23	1683.43
435.44	1626.09
435.64	1761.25
435.85	1763.30
436.06	1757.16
436.26	1789.92
436.47	1732.58
436.67	1742.82
436.88	1708.01
437.08	1816.55
437.29	1845.22
437.49	1675.24
437.70	1771.49
437.90	1730.53
438.11	1814.50
438.31	1796.07
438.52	1804.26
438.72	1861.60
438.93	1824.74
439.13	1886.18
439.34	1855.46
439.54	1789.92
439.75	1804.26
439.95	1753.06
440.16	1851.36
440.36	1808.36
440.57	1759.21
440.77	1781.73
440.98	1785.83
441.18	1759.21
441.39	1693.67
441.59	1685.48
441.80	1857.51
442.00	1726.44
442.21	1822.69
442.41	1679.33
442.62	1781.73
442.82	1673.19
443.02	1716.20
443.23	1736.68
443.43	1767.40
443.64	1787.88
443.84	1669.09
444.05	1751.01
444.25	1697.77
444.46	1687.53
444.66	1710.05
444.87	1800.16
445.07	1640.42
445.28	1761.25
445.48	1794.02
445.69	1800.16
445.89	1875.94
446.09	1724.39
446.30	1966.05
446.50	2531.29
446.71	3651.53
446.91	4411.32
447.12	4839.35
447.32	4878.26
447.53	4300.73
447.73	3827.65
447.93	3485.64
448.14	3422.16
448.34	3172.30
448.55	2985.94
448.75	2797.53
448.96	2713.56
449.16	2406.36
449.36	2254.81
449.57	2160.61
449.77	1925.09
449.98	1855.46
450.18	1796.07
450.39	1808.36
450.59	1767.40
450.79	1816.55
451.00	1708.01
451.20	1726.44
451.41	1818.60
451.61	1734.63
451.81	1740.77
452.02	1724.39
452.22	1802.21
452.43	1705.96
452.63	1701.86
452.84	1751.01
453.04	1712.10
453.24	1724.39
453.45	1767.40
453.65	1681.38
453.86	1767.40
454.06	1839.08
454.26	1662.95
454.47	1656.81
454.67	1843.17
454.87	1814.50
455.08	1746.92
455.28	1800.16
455.49	1755.11
455.69	1720.29
455.89	1882.08
456.10	1771.49
456.30	1804.26
456.51	1779.68
456.71	1812.45
456.91	1814.50
457.12	1730.53
457.32	1810.40
457.52	1697.77
457.73	1789.92
457.93	1787.88
458.14	1687.53
458.34	1675.24
458.54	1746.92
458.75	1667.05
458.95	1834.98
459.15	1699.81
459.36	1775.59
459.56	1796.07
459.76	1865.70
459.97	1683.43
460.17	1763.30
460.37	1765.35
460.58	1783.78
460.78	1802.21
460.99	1705.96
461.19	1775.59
461.39	1677.29
461.60	1708.01
461.80	1726.44
462.00	1669.09
462.21	1728.49
462.41	1699.81
462.61	1689.57
462.82	1654.76
463.02	1746.92
463.22	1771.49
463.43	1794.02
463.63	1759.21
463.83	1794.02
464.04	1693.67
464.24	1693.67
464.44	1632.23
464.64	1742.82
464.85	1724.39
465.05	1746.92
465.25	1675.24
465.46	1728.49
465.66	1785.83
465.86	1808.36
466.07	1753.06
466.27	1734.63
466.47	1685.48
466.68	1640.42
466.88	1824.74
467.08	1722.34
467.29	1763.30
467.49	1802.21
467.69	1796.07
467.89	1734.63
468.10	1736.68
468.30	1767.40
468.50	1773.54
468.71	1808.36
468.91	1685.48
469.11	1828.84
469.31	1826.79
469.52	1648.61
469.72	1818.60
469.92	1886.18
470.13	1779.68
470.33	1791.97
470.53	1869.80
470.73	2078.69
470.94	2367.45
471.14	2306.01
471.34	2549.72
471.54	2402.27
471.75	2320.35
471.95	2142.18
472.15	2131.94
472.36	2066.40
472.56	2050.02
472.76	2050.02
472.96	1996.77
473.17	1961.95
473.37	1904.61
473.57	1785.83
473.77	1820.64
473.98	1734.63
474.18	1662.95
474.38	1896.42
474.58	1679.33
474.79	1681.38
474.99	1748.97
475.19	1779.68
475.39	1636.33
475.60	1802.21
475.80	1781.73
476.00	1755.11
476.20	1708.01
476.41	1767.40
476.61	1830.88
476.81	1771.49
477.01	1693.67
477.21	1882.08
477.42	1724.39
477.62	1648.61
477.82	1789.92
478.02	1703.91
478.23	1718.25
478.43	1634.28
478.63	1736.68
478.83	1718.25
479.03	1785.83
479.24	1791.97
479.44	1810.40
479.64	1697.77
479.84	1650.66
480.04	1656.81
480.25	1685.48
480.45	1607.66
480.65	1708.01
480.85	1847.27
481.06	1769.44
481.26	1738.73
481.46	1675.24
481.66	1759.21
481.86	1671.14
482.06	1716.20
482.27	1648.61
482.47	1695.72
482.67	1761.25
482.87	1660.90
483.07	1791.97
483.28	1722.34
483.48	1667.05
483.68	1761.25
483.88	1656.81
484.08	1650.66
484.29	1644.52
484.49	1646.57
484.69	1619.94
484.89	1937.38
485.09	1775.59
485.29	1757.16
485.50	1693.67
485.70	1699.81
485.90	1802.21
486.10	1769.44
486.30	1720.29
486.50	1841.12
486.71	1732.58
486.91	1787.88
487.11	1759.21
487.31	1685.48
487.51	1757.16
487.71	1621.99
487.91	1667.05
488.12	1726.44
488.32	1581.03
488.52	1650.66
488.72	1613.80
488.92	1658.85
489.12	1779.68
489.32	1865.70
489.53	1777.64
489.73	1716.20
489.93	1814.50
490.13	1677.29
490.33	1648.61
490.53	1798.12
490.73	1783.78
490.94	1642.47
491.14	1843.17
491.34	1923.04
491.54	2086.88
491.74	2545.63
491.94	2910.16
492.14	3035.09
492.34	2936.79
492.54	2740.18
492.75	2547.67
492.95	2430.94
493.15	2418.65
493.35	2275.29
493.55	2297.82
493.75	2066.40
493.95	2099.17
494.15	2025.44
494.35	1904.61
494.56	1925.09
494.76	1757.16
494.96	1761.25
495.16	1701.86
495.36	1726.44
495.56	1806.31
495.76	1738.73
495.96	1746.92
496.16	1681.38
496.36	1738.73
496.56	1726.44
496.77	1755.11
496.97	1714.15
497.17	1765.35
497.37	1640.42
497.57	1796.07
497.77	1697.77
497.97	1673.19
498.17	1705.96
498.37	1665.00
498.57	1763.30
498.77	1675.24
498.97	1820.64
499.17	1783.78
499.38	1681.38
499.58	1767.40
499.78	1802.21
499.98	1841.12
500.18	1710.05
500.38	1689.57
500.58	1927.14
500.78	2631.64
500.98	4609.98
501.18	5855.14
501.38	6872.98
501.58	7051.16
501.78	6690.71
501.98	5453.74
502.18	4980.66
502.38	4339.65
502.58	4093.89
502.78	3819.46
502.98	3741.64
503.18	3463.12
503.38	3274.70
503.59	2893.78
503.79	2605.02
503.99	2519.00
504.19	2338.78
504.39	2250.72
504.59	2156.51
504.79	2148.32
504.99	2078.69
505.19	1951.71
505.39	1892.32
505.59	1982.43
505.79	1957.86
505.99	1871.84
506.19	1755.11
506.39	1857.51
506.59	1730.53
506.79	1804.26
506.99	1828.84
507.19	1834.98
507.39	1806.31
507.59	1681.38
507.79	1716.20
507.99	1755.11
508.19	1736.68
508.39	1697.77
508.59	1740.77
508.79	1789.92
508.99	1832.93
509.19	1726.44
509.39	1787.88
509.59	1673.19
509.79	1689.57
509.99	1765.35
510.19	1718.25
510.39	1787.88
510.59	1705.96
510.79	1726.44
510.99	1679.33
511.19	1724.39
511.39	1949.67
511.59	1763.30
511.79	1820.64
511.99	1804.26
512.19	1824.74
512.38	1746.92
512.58	1726.44
512.78	1736.68
512.98	1794.02
513.18	1837.03
513.38	1652.71
513.58	1789.92
513.78	1679.33
513.98	1785.83
514.18	1677.29
514.38	1712.10
514.58	1726.44
514.78	1683.43
514.98	1689.57
515.18	1726.44
515.38	1730.53
515.58	1863.65
515.78	1697.77
515.98	1736.68
516.18	1777.64
516.38	1787.88
516.57	1687.53
516.77	1703.91
516.97	1761.25
517.17	1669.09
517.37	1703.91
517.57	1726.44
517.77	1740.77
517.97	1695.72
518.17	1781.73
518.37	1681.38
518.57	1708.01
518.77	1738.73
518.97	1726.44
519.16	1740.77
519.36	1787.88
519.56	1746.92
519.76	1779.68
519.96	1732.58
520.16	1849.32
520.36	1724.39
520.56	1779.68
520.76	1671.14
520.96	1779.68
521.16	1824.74
521.35	1804.26
521.55	1837.03
521.75	1755.11
521.95	1722.34
522.15	1726.44
522.35	1581.03
522.55	1619.94
522.75	1783.78
522.95	1791.97
523.14	1736.68
523.34	1787.88
523.54	1644.52
523.74	1828.84
523.94	1742.82
524.14	1695.72
524.34	1744.87
524.54	1845.22
524.73	1697.77
524.93	1751.01
525.13	1763.30
525.33	1658.85
525.53	1822.69
525.73	1736.68
525.93	1705.96
526.13	1683.43
526.32	1781.73
526.52	1759.21
526.72	1855.46
526.92	1744.87
527.12	1734.63
527.32	1681.38
527.52	1732.58
527.71	1794.02
527.91	1677.29
528.11	1753.06
528.31	1794.02
528.51	1652.71
528.71	1734.63
528.90	1757.16
529.10	1841.12
529.30	1830.88
529.50	1589.22
529.70	1712.10
529.90	1714.15
530.09	1759.21
530.29	1808.36
530.49	1681.38
530.69	1863.65
530.89	1802.21
531.09	1824.74
531.28	1667.05
531.48	1781.73
531.68	1755.11
531.88	1761.25
532.08	1779.68
532.28	1746.92
532.47	1738.73
532.67	1816.55
532.87	1849.32
533.07	1662.95
533.27	1738.73
533.46	1796.07
533.66	1710.05
533.86	1751.01
534.06	1779.68
534.26	1714.15
534.45	1726.44
534.65	1775.59
534.85	1724.39
535.05	1703.91
535.25	1800.16
535.44	1673.19
535.64	1753.06
535.84	1703.91
536.04	1773.54
536.24	1779.68
536.43	1705.96
536.63	1794.02
536.83	1730.53
537.03	1701.86
537.22	1689.57
537.42	1613.80
537.62	1677.29
537.82	1753.06
538.02	1814.50
538.21	1759.21
538.41	1988.58
538.61	1783.78
538.81	1746.92
539.00	1837.03
539.20	1617.90
539.40	1703.91
539.60	1820.64
539.79	1738.73
539.99	1673.19
540.19	1685.48
540.39	1810.40
540.58	1726.44
540.78	1728.49
540.98	1683.43
541.18	1781.73
541.37	1822.69
541.57	1755.11
541.77	1787.88
541.97	1710.05
542.16	1724.39
542.36	1765.35
542.56	1722.34
542.76	1853.41
542.95	1775.59
543.15	1755.11
543.35	1777.64
543.54	1763.30
543.74	1726.44
543.94	1787.88
544.14	1724.39
544.33	1755.11
544.53	1628.14
544.73	1654.76
544.93	1683.43
545.12	1716.20
545.32	1693.67
545.52	1705.96
545.71	1693.67
545.91	1791.97
546.11	1712.10
546.30	1699.81
546.50	1748.97
546.70	1767.40
546.90	1796.07
547.09	1679.33
547.29	1796.07
547.49	1789.92
547.68	1794.02
547.88	1654.76
548.08	1751.01
548.27	2158.56
548.47	1683.43
548.67	1654.76
548.87	1814.50
549.06	1687.53
549.26	1732.58
549.46	1714.15
549.65	1718.25
549.85	1794.02
550.05	1845.22
550.24	1619.94
550.44	1806.31
550.64	1781.73
550.83	1759.21
551.03	1724.39
551.23	1781.73
551.42	1845.22
551.62	1796.07
551.82	1744.87
552.01	1722.34
552.21	1884.13
552.41	1734.63
552.60	1808.36
552.80	1744.87
553.00	1755.11
553.19	1748.97
553.39	1841.12
553.59	1748.97
553.78	1724.39
553.98	1791.97
554.17	1679.33
554.37	1802.21
554.57	1783.78
554.76	1677.29
554.96	1720.29
555.16	1669.09
555.35	1742.82
555.55	1796.07
555.75	1714.15
555.94	1789.92
556.14	1734.63
556.33	1767.40
556.53	1734.63
556.73	1748.97
556.92	1800.16
557.12	1787.88
557.32	1824.74
557.51	1800.16
557.71	1746.92
557.90	1841.12
558.10	1806.31
558.30	1751.01
558.49	1740.77
558.69	1701.86
558.88	1794.02
559.08	1769.44
559.28	1746.92
559.47	1665.00
559.67	1730.53
559.86	1898.47
560.06	1720.29
560.26	1767.40
560.45	1810.40
560.65	1722.34
560.84	1816.55
561.04	1748.97
561.24	1779.68
561.43	1746.92
561.63	1775.59
561.82	1763.30
562.02	1859.56
562.22	1710.05
562.41	1722.34
562.61	1632.23
562.80	1726.44
563.00	1880.04
563.19	1742.82
563.39	1826.79
563.59	1697.77
563.78	1681.38
563.98	1697.77
564.17	1652.71
564.37	1705.96
564.56	1740.77
564.76	1691.62
564.96	1738.73
565.15	1798.12
565.35	1890.28
565.54	1703.91
565.74	1771.49
565.93	1814.50
566.13	1804.26
566.32	1812.45
566.52	1783.78
566.71	1671.14
566.91	1724.39
567.11	1771.49
567.30	1732.58
567.50	1865.70
567.69	1712.10
567.89	1728.49
568.08	1675.24
568.28	1765.35
568.47	1691.62
568.67	1828.84
568.86	1730.53
569.06	1843.17
569.25	1812.45
569.45	1667.05
569.64	1701.86
569.84	1677.29
570.04	1783.78
570.23	1708.01
570.43	1685.48
570.62	1837.03
570.82	1859.56
571.01	1687.53
571.21	1740.77
571.40	1714.15
571.60	1802.21
571.79	1701.86
571.99	1751.01
572.18	1685.48
572.38	1828.84
572.57	1851.36
572.77	1820.64
572.96	1959.91
573.16	1724.39
573.35	1716.20
573.55	1828.84
573.74	1779.68
573.94	1718.25
574.13	1691.62
574.33	1769.44
574.52	1759.21
574.71	1742.82
574.91	1802.21
575.10	1675.24
575.30	1634.28
575.49	1677.29
575.69	1687.53
575.88	1791.97
576.08	1654.76
576.27	1699.81
576.47	1767.40
576.66	1773.54
576.86	1808.36
577.05	1718.25
577.25	1787.88
577.44	1884.13
577.64	1753.06
577.83	1824.74
578.02	1748.97
578.22	1849.32
578.41	1853.41
578.61	1730.53
578.80	1669.09
579.00	1746.92
579.19	1738.73
579.39	1767.40
579.58	1826.79
579.77	1781.73
579.97	1828.84
580.16	1853.41
580.36	1884.13
580.55	1894.37
580.75	1894.37
580.94	1705.96
581.13	1832.93
581.33	1841.12
581.52	1728.49
581.72	1894.37
581.91	1820.64
582.11	1710.05
582.30	1783.78
582.49	1808.36
582.69	1832.93
582.88	1734.63
583.08	1738.73
583.27	1765.35
583.47	1826.79
583.66	1740.77
583.85	1720.29
584.05	1734.63
584.24	1660.90
584.44	1894.37
584.63	1869.80
584.82	1773.54
585.02	1834.98
585.21	1775.59
585.41	1882.08
585.60	1808.36
585.79	1869.80
585.99	1906.66
586.18	1929.19
586.37	2189.28
586.57	3413.96
586.76	9901.93
586.96	24438.41
587.15	34596.34
587.34	40250.78
587.54	42247.55
587.73	36732.37
587.93	26394.22
588.12	21475.00
588.31	18378.47
588.51	16447.24
588.70	15142.68
588.89	14069.55
589.09	12721.98
589.28	10995.54
589.47	9461.62
589.67	8101.76
589.86	6410.14
590.06	5066.67
590.25	3938.24
590.44	3139.54
590.64	2508.76
590.83	2260.96
591.02	2156.51
591.22	1968.10
591.41	1810.40
591.60	1873.89
591.80	1986.53
591.99	1779.68
592.18	1771.49
592.38	1800.16
592.57	1714.15
592.76	1800.16
592.96	1753.06
593.15	1693.67
593.34	1779.68
593.54	1710.05
593.73	1779.68
593.92	1701.86
594.12	1796.07
594.31	1777.64
594.50	1796.07
594.70	1826.79
594.89	1841.12
595.08	1656.81
595.28	1918.95
595.47	1853.41
595.66	1781.73
595.86	1644.52
596.05	1726.44
596.24	1695.72
596.43	1808.36
596.63	1798.12
596.82	1761.25
597.01	1701.86
597.21	1863.65
597.40	1714.15
597.59	1748.97
597.79	1671.14
597.98	1769.44
598.17	1712.10
598.36	1767.40
598.56	1839.08
598.75	1638.38
598.94	1724.39
599.14	1751.01
599.33	1681.38
599.52	1673.19
599.71	1769.44
599.91	1751.01
600.10	1826.79
600.29	1734.63
600.48	1701.86
600.68	1742.82
600.87	1779.68
601.06	1765.35
601.26	1724.39
601.45	1722.34
601.64	1812.45
601.83	1783.78
602.03	1665.00
602.22	1685.48
602.41	1787.88
602.60	1839.08
602.80	1794.02
602.99	1646.57
603.18	1730.53
603.37	1701.86
603.57	1708.01
603.76	1822.69
603.95	1826.79
604.14	1699.81
604.34	1697.77
604.53	1736.68
604.72	1748.97
604.91	1761.25
605.10	1775.59
605.30	1667.05
605.49	1859.56
605.68	1757.16
605.87	1740.77
606.07	1744.87
606.26	1759.21
606.45	1853.41
606.64	1787.88
606.84	1701.86
607.03	1748.97
607.22	1796.07
607.41	1689.57
607.60	1665.00
607.80	1814.50
607.99	1771.49
608.18	1781.73
608.37	1697.77
608.56	1748.97
608.76	1742.82
608.95	1877.99
609.14	1791.97
609.33	1783.78
609.52	1683.43
609.72	1767.40
609.91	1789.92
610.10	1755.11
610.29	1834.98
610.48	1742.82
610.68	1695.72
610.87	1695.72
611.06	1818.60
611.25	1800.16
611.44	1806.31
611.63	1595.37
611.83	1748.97
612.02	1685.48
612.21	1837.03
612.40	1675.24
612.59	1615.85
612.79	1634.28
612.98	1744.87
613.17	1863.65
613.36	1755.11
613.55	1781.73
613.74	1714.15
613.93	1732.58
614.13	1746.92
614.32	1705.96
614.51	1765.35
614.70	1665.00
614.89	1687.53
615.08	1779.68
615.28	2119.65
615.47	1667.05
615.66	1800.16
615.85	1720.29
616.04	1810.40
616.23	1726.44
616.42	1656.81
616.62	1712.10
616.81	1822.69
617.00	1734.63
617.19	1834.98
617.38	1662.95
617.57	1794.02
617.76	1802.21
617.95	1791.97
618.15	1759.21
618.34	1806.31
618.53	1665.00
618.72	1820.64
618.91	1843.17
619.10	1871.84
619.29	1755.11
619.48	1736.68
619.68	1669.09
619.87	1746.92
620.06	1685.48
620.25	1843.17
620.44	1705.96
620.63	1738.73
620.82	1738.73
621.01	1677.29
621.20	1689.57
621.39	1826.79
621.59	1724.39
621.78	1736.68
621.97	1703.91
622.16	1789.92
622.35	1742.82
622.54	1742.82
622.73	1781.73
622.92	1642.47
623.11	1771.49
623.30	1761.25
623.49	1705.96
623.68	1775.59
623.88	1748.97
624.07	1667.05
624.26	1718.25
624.45	1708.01
624.64	1693.67
624.83	1755.11
625.02	1665.00
625.21	1712.10
625.40	1697.77
625.59	1853.41
625.78	1726.44
625.97	1708.01
626.16	1802.21
626.35	1783.78
626.54	1779.68
626.74	1796.07
626.93	1724.39
627.12	1628.14
627.31	1763.30
627.50	1789.92
627.69	1773.54
627.88	1701.86
628.07	1734.63
628.26	1689.57
628.45	1697.77
628.64	1660.90
628.83	1820.64
629.02	1624.04
629.21	1779.68
629.40	1732.58
629.59	1693.67
629.78	1761.25
629.97	1720.29
630.16	1708.01
630.35	1810.40
630.54	1726.44
630.73	1699.81
630.92	1732.58
631.11	1687.53
631.30	1769.44
631.49	1699.81
631.68	1730.53
631.87	1753.06
632.06	1632.23
632.25	1880.04
632.44	1685.48
632.63	1697.77
632.82	1677.29
633.01	1689.57
633.20	1667.05
633.39	1667.05
633.58	1597.42
633.77	1800.16
633.96	1710.05
634.15	1767.40
634.34	1806.31
634.53	1697.77
634.72	1773.54
634.91	1617.90
635.10	1789.92
635.29	1751.01
635.48	1781.73
635.67	1640.42
635.86	1619.94
636.05	1726.44
636.24	1763.30
636.43	1748.97
636.62	1730.53
636.81	1538.02
637.00	1681.38
637.19	1722.34
637.38	1763.30
637.57	1662.95
637.76	1681.38
637.95	1824.74
638.14	1697.77
638.33	1662.95
638.52	1802.21
638.71	1714.15
638.89	1720.29
639.08	1791.97
639.27	1804.26
639.46	1699.81
639.65	1892.32
639.84	1697.77
640.03	1804.26
640.22	1673.19
640.41	1830.88
640.60	1677.29
640.79	1701.86
640.98	1783.78
641.17	1785.83
641.36	1701.86
641.55	1802.21
641.74	1695.72
641.92	1632.23
642.11	1632.23
642.30	1685.48
642.49	1667.05
642.68	1736.68
642.87	1751.01
643.06	1769.44
643.25	1691.62
643.44	1689.57
643.63	1742.82
643.82	1759.21
644.00	1619.94
644.19	1718.25
644.38	1685.48
644.57	1722.34
644.76	1712.10
644.95	1734.63
645.14	1773.54
645.33	1681.38
645.52	1773.54
645.71	1691.62
645.89	1689.57
646.08	1751.01
646.27	1703.91
646.46	1863.65
646.65	1683.43
646.84	1798.12
647.03	1691.62
647.22	1787.88
647.40	1744.87
647.59	1744.87
647.78	1671.14
647.97	1740.77
648.16	1634.28
648.35	1787.88
648.54	1773.54
648.73	1708.01
648.91	1738.73
649.10	1802.21
649.29	1699.81
649.48	1724.39
649.67	1673.19
649.86	1648.61
650.05	1679.33
650.23	1722.34
650.42	1630.18
650.61	1796.07
650.80	1728.49
650.99	1771.49
651.18	1794.02
651.36	1757.16
651.55	1681.38
651.74	1789.92
651.93	1628.14
652.12	1724.39
652.31	1761.25
652.49	1697.77
652.68	1701.86
652.87	1785.83
653.06	1691.62
653.25	1796.07
653.44	1757.16
653.62	1867.75
653.81	1693.67
654.00	1691.62
654.19	1718.25
654.38	1818.60
654.56	1802.21
654.75	1796.07
654.94	1755.11
655.13	1757.16
655.32	1712.10
655.51	1695.72
655.69	1650.66
655.88	1769.44
656.07	1685.48
656.26	1824.74
656.45	1695.72
656.63	1722.34
656.82	1773.54
657.01	1740.77
657.20	1665.00
657.38	1796.07
657.57	1624.04
657.76	1646.57
657.95	1802.21
658.14	1665.00
658.32	1738.73
658.51	1718.25
658.70	1763.30
658.89	1757.16
659.08	1742.82
659.26	1865.70
659.45	1636.33
659.64	1732.58
659.83	1681.38
660.01	1898.47
660.20	1673.19
660.39	1806.31
660.58	1589.22
660.76	1828.84
660.95	1621.99
661.14	1722.34
661.33	1646.57
661.51	1708.01
661.70	1701.86
661.89	1755.11
662.08	1714.15
662.26	1685.48
662.45	1662.95
662.64	1837.03
662.83	1761.25
663.01	1728.49
663.20	1636.33
663.39	1800.16
663.58	1712.10
663.76	1697.77
663.95	1789.92
664.14	1667.05
664.32	1677.29
664.51	1685.48
664.70	1640.42
664.89	1724.39
665.07	1740.77
665.26	1769.44
665.45	1697.77
665.64	1822.69
665.82	1724.39
666.01	1763.30
666.20	1675.24
666.38	1806.31
666.57	1841.12
666.76	2238.43
666.95	4609.98
667.13	10536.80
667.32	15249.18
667.51	17897.20
667.69	19255.00
667.88	17526.52
668.07	12490.56
668.25	9508.72
668.44	8107.91
668.63	7401.36
668.81	6850.46
669.00	6334.37
669.19	5797.80
669.38	5074.87
669.56	4562.87
669.75	4057.03
669.94	3413.96
670.12	2838.48
670.31	2539.48
670.50	2224.09
670.68	2037.73
670.87	1882.08
671.06	1816.55
671.24	1761.25
671.43	1820.64
671.62	1763.30
671.80	1718.25
671.99	1779.68
672.18	1755.11
672.36	1773.54
672.55	1722.34
672.74	1740.77
672.92	1652.71
673.11	1716.20
673.29	1658.85
673.48	1771.49
673.67	1699.81
673.85	1785.83
674.04	1656.81
674.23	1648.61
674.41	1902.56
674.60	1642.47
674.79	1650.66
674.97	1718.25
675.16	1701.86
675.34	1734.63
675.53	1730.53
675.72	1708.01
675.90	1867.75
676.09	1660.90
676.28	1712.10
676.46	1615.85
676.65	1834.98
676.83	1646.57
677.02	1665.00
677.21	1726.44
677.39	1665.00
677.58	1652.71
677.77	1658.85
677.95	1722.34
678.14	1679.33
678.32	1687.53
678.51	1703.91
678.70	1773.54
678.88	1740.77
679.07	1822.69
679.25	1695.72
679.44	1667.05
679.63	1595.37
679.81	1720.29
680.00	1820.64
680.18	1783.78
680.37	1839.08
680.55	1738.73
680.74	1685.48
680.93	1593.32
681.11	1763.30
681.30	1726.44
681.48	1730.53
681.67	1736.68
681.85	1732.58
682.04	1636.33
682.23	1785.83
682.41	1689.57
682.60	1730.53
682.78	1658.85
682.97	1634.28
683.15	1638.38
683.34	1681.38
683.53	1775.59
683.71	1640.42
683.90	1740.77
684.08	1773.54
684.27	1736.68
684.45	1753.06
684.64	1794.02
684.82	1763.30
685.01	1777.64
685.19	1697.77
685.38	1855.46
685.57	1695.72
685.75	1736.68
685.94	1761.25
686.12	1781.73
686.31	1738.73
686.49	1757.16
686.68	1581.03
686.86	1728.49
687.05	1632.23
687.23	1765.35
687.42	1697.77
687.60	1701.86
687.79	1779.68
687.97	1779.68
688.16	1808.36
688.34	1804.26
688.53	1650.66
688.71	1705.96
688.90	1851.36
689.08	1675.24
689.27	1578.98
689.45	1740.77
689.64	1775.59
689.82	1755.11
690.01	1716.20
690.19	1732.58
690.38	1685.48
690.56	1781.73
690.75	1683.43
690.93	1740.77
691.12	1683.43
691.30	1685.48
691.49	1677.29
691.67	1675.24
691.86	1824.74
692.04	1607.66
692.23	1640.42
692.41	1732.58
692.60	1843.17
692.78	1748.97
692.97	1648.61
693.15	1726.44
693.34	1763.30
693.52	1755.11
693.71	1677.29
693.89	1650.66
694.08	1542.12
694.26	1791.97
694.44	1718.25
694.63	1763.30
694.81	1568.74
695.00	1611.75
695.18	1796.07
695.37	1894.37
695.55	1695.72
695.74	1693.67
695.92	1720.29
696.10	1726.44
696.29	1562.60
696.47	1665.00
696.66	1656.81
696.84	1675.24
697.03	1714.15
697.21	1886.18
697.40	2326.49
697.58	1812.45
697.76	1734.63
697.95	1583.08
698.13	1652.71
698.32	1687.53
698.50	1708.01
698.68	1714.15
698.87	1712.10
699.05	1808.36
699.24	1701.86
699.42	1734.63
699.61	1675.24
699.79	1648.61
699.97	1751.01
700.16	1638.38
700.34	1638.38
700.53	1771.49
700.71	1785.83
700.89	1757.16
701.08	1769.44
701.26	1736.68
701.45	2058.21
701.63	1697.77
701.81	1796.07
702.00	1693.67
702.18	1705.96
702.37	1662.95
702.55	1783.78
702.73	1718.25
702.92	1665.00
703.10	1755.11
703.28	1720.29
703.47	1675.24
703.65	1828.84
703.84	1783.78
704.02	1804.26
704.20	1748.97
704.39	1710.05
704.57	1720.29
704.75	1740.77
704.94	1834.98
705.12	1718.25
705.30	1767.40
705.49	2209.76
705.67	4345.79
705.86	9260.91
706.04	12433.22
706.22	14460.71
706.41	15150.87
706.59	13608.75
706.77	9611.12
706.96	7397.26
707.14	6569.88
707.32	6006.69
707.51	5611.43
707.69	4919.22
707.87	4120.51
708.06	3518.41
708.24	2963.41
708.42	2482.14
708.61	2303.96
708.79	1920.99
708.97	1880.04
709.16	1748.97
709.34	1802.21
709.52	1736.68
709.71	1771.49
709.89	1732.58
710.07	1697.77
710.26	1673.19
710.44	1779.68
710.62	1783.78
710.80	1718.25
710.99	1728.49
711.17	1767.40
711.35	1710.05
711.54	1662.95
711.72	1755.11
711.90	1796.07
712.09	1714.15
712.27	1634.28
712.45	1726.44
712.63	1783.78
712.82	1701.86
713.00	1724.39
713.18	1794.02
713.37	1800.16
713.55	1732.58
713.73	1742.82
713.91	1736.68
714.10	1685.48
714.28	1724.39
714.46	1775.59
714.65	1701.86
714.83	1730.53
715.01	1789.92
715.19	1726.44
715.38	1744.87
715.56	1734.63
715.74	1658.85
715.92	1607.66
716.11	1777.64
716.29	1560.55
716.47	1746.92
716.65	1619.94
716.84	1591.27
717.02	1761.25
717.20	1654.76
717.38	1683.43
717.57	1693.67
717.75	1724.39
717.93	1726.44
718.11	1738.73
718.30	1636.33
718.48	1781.73
718.66	1771.49
718.84	1798.12
719.03	1697.77
719.21	1603.56
719.39	1824.74
719.57	1845.22
719.75	1798.12
719.94	1644.52
720.12	1673.19
720.30	1773.54
720.48	1699.81
720.67	1665.00
720.85	1624.04
721.03	1658.85
721.21	1513.45
721.39	1814.50
721.58	1708.01
721.76	1708.01
721.94	1771.49
722.12	1724.39
722.30	1787.88
722.49	1656.81
722.67	1742.82
722.85	1718.25
723.03	1634.28
723.21	1615.85
723.40	1673.19
723.58	1767.40
723.76	1738.73
723.94	1763.30
724.12	1689.57
724.30	1761.25
724.49	1787.88
724.67	1675.24
724.85	1818.60
725.03	1615.85
725.21	1730.53
725.40	1728.49
725.58	1705.96
725.76	1738.73
725.94	1675.24
726.12	1691.62
726.30	1714.15
726.49	1716.20
726.67	1726.44
726.85	1746.92
727.03	1767.40
727.21	2172.89
727.39	2922.45
727.57	3749.83
727.76	4220.86
727.94	4480.96
728.12	4368.32
728.30	3725.26
728.48	3033.04
728.66	2770.90
728.84	2633.69
729.03	2357.21
729.21	2152.42
729.39	2009.06
729.57	1798.12
729.75	1808.36
729.93	1906.66
730.11	1787.88
730.30	1632.23
730.48	1665.00
730.66	1783.78
730.84	1734.63
731.02	1671.14
731.20	1800.16
731.38	1669.09
731.56	1675.24
731.74	1681.38
731.93	1716.20
732.11	1710.05
732.29	1689.57
732.47	1753.06
732.65	1681.38
732.83	1779.68
733.01	1771.49
733.19	1677.29
733.37	1738.73
733.56	1789.92
733.74	1695.72
733.92	1773.54
734.10	1613.80
734.28	1724.39
734.46	1611.75
734.64	1634.28
734.82	1775.59
735.00	1626.09
735.18	1658.85
735.36	1767.40
735.54	1673.19
735.73	1781.73
735.91	1802.21
736.09	1785.83
736.27	1687.53
736.45	1820.64
736.63	1615.85
736.81	1712.10
736.99	1757.16
737.17	1779.68
737.35	1710.05
737.53	1724.39
737.71	1667.05
737.89	1757.16
738.07	1562.60
738.25	1642.47
738.43	1640.42
738.61	1673.19
738.80	1615.85
738.98	1605.61
739.16	1693.67
739.34	1644.52
739.52	1759.21
739.70	1730.53
739.88	1679.33
740.06	1787.88
740.24	1648.61
740.42	1779.68
740.60	1572.84
740.78	1662.95
740.96	1636.33
741.14	1654.76
741.32	1726.44
741.50	1681.38
741.68	1869.80
741.86	1730.53
742.04	1652.71
742.22	1697.77
742.40	1708.01
742.58	1734.63
742.76	1615.85
742.94	1765.35
743.12	1658.85
743.30	1673.19
743.48	1720.29
743.66	1699.81
743.84	1761.25
744.02	1734.63
744.20	1701.86
744.38	1714.15
744.56	1699.81
744.74	1785.83
744.92	1794.02
745.10	1816.55
745.28	1746.92
745.46	1761.25
745.64	1777.64
745.82	1851.36
746.00	1734.63
746.18	1712.10
746.36	1691.62
746.54	1683.43
746.72	1675.24
746.90	1695.72
747.08	1798.12
747.26	1681.38
747.44	1681.38
747.62	1757.16
747.80	1689.57
747.98	1744.87
748.15	1710.05
748.33	1791.97
748.51	1773.54
748.69	1679.33
748.87	1656.81
749.05	1679.33
749.23	1714.15
749.41	1691.62
749.59	1646.57
749.77	1828.84
749.95	1763.30
750.13	1675.24
750.31	1763.30
750.49	1632.23
750.67	1734.63
750.85	1746.92
751.03	1699.81
751.20	1832.93
751.38	1697.77
751.56	1736.68
751.74	1632.23
751.92	1675.24
752.10	1665.00
752.28	1765.35
752.46	1714.15
752.64	1716.20
752.82	1726.44
753.00	1804.26
753.18	1757.16
753.35	1685.48
753.53	1673.19
753.71	1681.38
753.89	1748.97
754.07	1675.24
754.25	1708.01
754.43	1757.16
754.61	1654.76
754.79	1785.83
754.97	1621.99
755.14	1681.38
755.32	1722.34
755.50	1734.63
755.68	1751.01
755.86	1677.29
756.04	1667.05
756.22	1673.19
756.40	1757.16
756.57	1804.26
756.75	1755.11
756.93	1830.88
757.11	1814.50
757.29	1601.51
757.47	1603.56
757.65	1611.75
757.82	1617.90
758.00	1673.19
758.18	1708.01
758.36	1697.77
758.54	1738.73
758.72	1683.43
758.90	1808.36
759.07	1675.24
759.25	1667.05
759.43	1648.61
759.61	1656.81
759.79	2185.18
759.97	1773.54
760.15	1609.70
760.32	1642.47
760.50	1763.30
760.68	1789.92
760.86	1642.47
761.04	1734.63
761.22	1751.01
761.39	1679.33
761.57	1677.29
761.75	1742.82
761.93	1722.34
762.11	1656.81
762.28	1689.57
762.46	1759.21
762.64	1789.92
762.82	1656.81
763.00	1673.19
763.18	1787.88
763.35	1669.09
763.53	1744.87
763.71	1669.09
763.89	1669.09
764.07	1693.67
764.24	1773.54
764.42	1773.54
764.60	1662.95
764.78	1720.29
764.96	1742.82
765.13	1775.59
765.31	1705.96
765.49	1746.92
765.67	1634.28
765.84	1658.85
766.02	1673.19
766.20	1644.52
766.38	1716.20
766.56	1748.97
766.73	1722.34
766.91	1703.91
767.09	1724.39
767.27	1738.73
767.44	1683.43
767.62	1714.15
767.80	1738.73
767.98	1716.20
768.15	1724.39
768.33	1708.01
768.51	1767.40
768.69	1779.68
768.87	1730.53
769.04	1681.38
769.22	1849.32
769.40	1824.74
769.58	1837.03
769.75	1669.09
769.93	1746.92
770.11	1695.72
770.28	1599.46
770.46	1726.44
770.64	1765.35
770.82	1671.14
770.99	1699.81
771.17	1724.39
771.35	1697.77
771.53	1642.47
771.70	1685.48
771.88	1742.82
772.06	1718.25
772.23	1730.53
772.41	1791.97
772.59	1732.58
772.77	1587.18
772.94	1730.53
773.12	1640.42
773.30	1677.29
773.47	1742.82
773.65	1650.66
773.83	1716.20
774.01	1714.15
774.18	1654.76
774.36	1687.53
774.54	1662.95
774.71	1718.25
774.89	1617.90
775.07	1634.28
775.24	1619.94
775.42	1677.29
775.60	1865.70
775.78	1687.53
775.95	1646.57
776.13	1617.90
776.31	1540.07
776.48	1773.54
776.66	1832.93
776.84	1689.57
777.01	1660.90
777.19	1654.76
777.37	1658.85
777.54	1720.29
777.72	1843.17
777.90	1701.86
778.07	1685.48
778.25	1902.56
778.43	1789.92
778.60	1703.91
778.78	1804.26
778.96	1843.17
779.13	1718.25
779.31	1841.12
779.49	1703.91
779.66	1783.78
779.84	1775.59
780.01	1673.19
780.19	1642.47
780.37	1705.96
780.54	1767.40
780.72	1648.61
780.90	1681.38
781.07	1652.71
781.25	1685.48
781.43	1810.40
781.60	1722.34
781.78	1849.32
781.95	1740.77
782.13	1693.67
782.31	1732.58
782.48	1630.18
782.66	1753.06
782.83	1783.78
783.01	1658.85
783.19	1746.92
783.36	1691.62
783.54	1642.47
783.72	1779.68
783.89	1738.73
784.07	1689.57
784.24	1691.62
784.42	1791.97
784.60	1695.72
784.77	1673.19
784.95	1583.08
785.12	1796.07
785.30	1652.71
785.47	1714.15
785.65	1648.61
785.83	1697.77
786.00	1736.68
786.18	1673.19
786.35	1687.53
786.53	1695.72
786.71	1740.77
786.88	1728.49
787.06	1736.68
787.23	1665.00
787.41	1710.05
787.58	1626.09
787.76	1701.86
787.94	1609.70
788.11	1714.15
788.29	1640.42
788.46	1681.38
788.64	1685.48
788.81	1726.44
788.99	1624.04
789.16	1613.80
789.34	1677.29
789.52	1656.81
789.69	1613.80
789.87	1576.94
790.04	1697.77
790.22	1699.81
790.39	1812.45
790.57	1638.38
790.74	1636.33
790.92	1796.07
791.09	1634.28
791.27	1695.72
791.44	1802.21
791.62	1722.34
791.79	1699.81
791.97	1746.92
792.15	1869.80
792.32	1724.39
792.50	1710.05
792.67	1814.50
792.85	1800.16
793.02	1722.34
793.20	1744.87
793.37	1662.95
793.55	1679.33
793.72	1634.28
793.90	1751.01
794.07	1673.19
794.25	1681.38
794.42	1683.43
794.60	1740.77
794.77	1802.21
794.95	1691.62
795.12	1748.97
795.30	1730.53
795.47	1587.18
795.65	1855.46
795.82	1681.38
796.00	1660.90
796.17	1736.68
796.34	1599.46
796.52	1683.43
796.69	1732.58
796.87	1740.77
797.04	1787.88
797.22	1818.60
797.39	1662.95
797.57	1796.07
797.74	1701.86
797.92	1669.09
798.09	1615.85
798.27	1703.91
798.44	1710.05
798.62	1636.33
798.79	1671.14
798.96	1751.01
799.14	1652.71
799.31	1812.45
799.49	1699.81
799.66	1642.47
799.84	1738.73
800.01	1632.23
800.19	1804.26
800.36	1595.37
800.53	1656.81
800.71	1703.91
800.88	1779.68
801.06	1658.85
801.23	1718.25
801.41	1687.53
801.58	1722.34
801.75	1697.77
801.93	1710.05
802.10	1791.97
802.28	1728.49
802.45	1693.67
802.63	1787.88
802.80	1783.78
802.97	1644.52
803.15	1689.57
803.32	1693.67
803.50	1593.32
803.67	1685.48
803.84	1644.52
804.02	1673.19
804.19	1646.57
804.37	1597.42
804.54	1654.76
804.71	1708.01
804.89	1699.81
805.06	1665.00
805.24	1665.00
805.41	1640.42
805.58	1701.86
805.76	1830.88
805.93	1701.86
806.10	1845.22
806.28	1794.02
806.45	1748.97
806.63	1714.15
806.80	1724.39
806.97	1710.05
807.15	1687.53
807.32	1720.29
807.49	1781.73
807.67	1626.09
807.84	1732.58
808.01	1552.36
808.19	1861.60
808.36	1802.21
808.54	1673.19
808.71	1679.33
808.88	1767.40
809.06	1779.68
809.23	1884.13
809.40	1712.10
809.58	1755.11
809.75	1667.05
809.92	1667.05
810.10	1837.03
810.27	1699.81
810.44	1773.54
810.62	1724.39
810.79	1683.43
810.96	1677.29
811.14	1646.57
811.31	1771.49
811.48	1699.81
811.66	1697.77
811.83	1775.59
812.00	1718.25
812.18	1751.01
812.35	1796.07
812.52	1628.14
812.69	1718.25
812.87	1726.44
813.04	1726.44
813.21	1781.73
813.39	1724.39
813.56	1662.95
813.73	1734.63
813.91	1638.38
814.08	1595.37
814.25	1658.85
814.42	1714.15
814.60	1683.43
814.77	1671.14
814.94	1630.18
815.12	1740.77
815.29	1777.64
815.46	1748.97
815.63	1710.05
815.81	1714.15
815.98	1671.14
816.15	1724.39
816.33	1677.29
816.50	1617.90
816.67	1693.67
816.84	1716.20
817.02	1675.24
817.19	1630.18
817.36	1742.82
817.53	1675.24
817.71	1667.05
817.88	1734.63
818.05	1675.24
818.22	1658.85
818.40	1884.13
818.57	1724.39
818.74	1728.49
818.91	1683.43
819.09	1755.11
819.26	1759.21
819.43	1591.27
819.60	1722.34
819.78	1687.53
819.95	1746.92
820.12	1642.47
820.29	1755.11
820.47	1767.40
820.64	1724.39
820.81	1617.90
820.98	1701.86
821.15	1710.05
821.33	1753.06
821.50	1550.31
821.67	1742.82
821.84	1701.86
822.02	1822.69
822.19	1679.33
822.36	1683.43
822.53	1742.82
822.70	1632.23
822.88	1648.61
823.05	1789.92
823.22	1742.82
823.39	1796.07
823.56	1742.82
823.74	1755.11
823.91	1691.62
824.08	1632.23
824.25	1615.85
824.42	1765.35
824.60	1634.28
824.77	1712.10
824.94	1728.49
825.11	1703.91
825.28	1626.09
825.45	1781.73
825.63	1669.09
825.80	1624.04
825.97	1683.43
826.14	1667.05
826.31	1605.61
826.48	1732.58
826.66	1617.90
826.83	1705.96
827.00	1720.29
827.17	1652.71
827.34	1763.30
827.51	1619.94
827.69	1697.77
827.86	1607.66
828.03	1669.09
828.20	1669.09
828.37	1687.53
828.54	1720.29
828.71	1654.76
828.89	1742.82
829.06	1654.76
829.23	1724.39
829.40	1656.81
829.57	1646.57
829.74	1677.29
829.91	1691.62
830.09	1642.47
830.26	1724.39
830.43	1777.64
830.60	1671.14
830.77	1781.73
830.94	1738.73
831.11	1751.01
831.28	1679.33
831.46	1728.49
831.63	1689.57
831.80	1726.44
831.97	1683.43
832.14	1665.00
832.31	1761.25
832.48	1685.48
832.65	1665.00
832.82	1689.57
832.99	1718.25
833.17	1648.61
833.34	1777.64
833.51	1712.10
833.68	1601.51
833.85	1744.87
834.02	1624.04
834.19	1667.05
834.36	1708.01
834.53	1738.73
834.70	1796.07
834.87	1814.50
835.04	1720.29
835.22	1683.43
835.39	1677.29
835.56	1662.95
835.73	1689.57
835.90	1724.39
836.07	1619.94
836.24	1802.21
836.41	1675.24
836.58	1675.24
836.75	1660.90
836.92	1734.63
837.09	1640.42
837.26	1699.81
837.43	1667.05
837.60	1779.68
837.77	1634.28
837.94	1724.39
838.12	1769.44
838.29	1701.86
838.46	1624.04
838.63	1632.23
838.80	1808.36
838.97	1718.25
839.14	1730.53
839.31	1742.82
839.48	1744.87
839.65	1667.05
839.82	1705.96
839.99	1734.63
840.16	1781.73
840.33	1718.25
840.50	1734.63
840.67	1691.62
840.84	1624.04
841.01	1757.16
841.18	1597.42
841.35	1667.05
841.52	1751.01
841.69	1755.11
841.86	1687.53
842.03	1705.96
842.20	1660.90
842.37	1695.72
842.54	1685.48
842.71	1740.77
842.88	1669.09
843.05	1757.16
843.22	1683.43
843.39	1697.77
843.56	1691.62
843.73	1746.92
843.90	1765.35
844.07	1675.24
844.24	1751.01
844.41	1800.16
844.58	1669.09
844.75	1761.25
844.92	1787.88
845.09	1716.20
845.26	1615.85
845.43	1775.59
845.60	1648.61
845.77	1712.10
845.94	1728.49
846.10	1748.97
846.27	1615.85
846.44	1681.38
846.61	1671.14
846.78	1730.53
846.95	1800.16
847.12	1716.20
847.29	1697.77
847.46	1638.38
847.63	1771.49
847.80	1665.00
847.97	1689.57
848.14	1857.51
848.31	1671.14
848.48	1628.14
848.65	1781.73
848.82	1642.47
848.98	1820.64
849.15	1705.96
849.32	1837.03
849.49	1748.97
849.66	1783.78
849.83	1634.28
850.00	1621.99
850.17	1736.68
850.34	1726.44
850.51	1654.76
850.68	1695.72
850.85	1859.56
851.01	1697.77
851.18	1791.97
851.35	1705.96
851.52	1665.00
851.69	1814.50
851.86	1638.38
852.03	1726.44
852.20	1748.97
852.37	1746.92
852.53	1646.57
852.70	1677.29
852.87	1673.19
853.04	1681.38
853.21	1712.10
853.38	1705.96
853.55	1761.25
853.72	1816.55
853.89	1619.94
854.05	1718.25
854.22	1685.48
854.39	1621.99
854.56	1808.36
854.73	1779.68
854.90	1650.66
855.07	1677.29
855.23	1759.21
855.40	1669.09
855.57	1687.53
855.74	1583.08
855.91	1841.12
856.08	1626.09
856.25	1615.85
856.41	1703.91
856.58	1685.48
856.75	1738.73
856.92	1728.49
857.09	1775.59
857.26	1630.18
857.42	1673.19
857.59	1775.59
857.76	1730.53
857.93	1751.01
858.10	1802.21
858.27	1640.42
858.43	1697.77
858.60	1636.33
858.77	1652.71
858.94	1634.28
859.11	1839.08
859.27	1642.47
859.44	1697.77
859.61	1761.25
859.78	1742.82
859.95	1640.42
860.12	1652.71
860.28	1814.50
860.45	1779.68
860.62	1662.95
860.79	1736.68
860.95	1730.53
861.12	1634.28
861.29	1656.81
861.46	1667.05
861.63	1695.72
861.79	1746.92
861.96	1638.38
862.13	1710.05
862.30	1798.12
862.47	1718.25
862.63	1654.76
862.80	1828.84
862.97	1736.68
863.14	1796.07
863.30	1701.86
863.47	1656.81
863.64	1714.15
863.81	1746.92
863.97	1679.33
864.14	1732.58
864.31	1669.09
864.48	1720.29
864.65	1710.05
864.81	1736.68
864.98	1736.68
865.15	1716.20
865.32	1773.54
865.48	1718.25
865.65	1789.92
865.82	1621.99
865.98	1746.92
866.15	1759.21
866.32	1699.81
866.49	1617.90
866.65	1740.77
866.82	1638.38
866.99	1683.43
867.16	1693.67
867.32	1685.48
867.49	1701.86
867.66	1671.14
867.83	1751.01
867.99	1665.00
868.16	1665.00
868.33	1650.66
868.49	1708.01
868.66	1613.80
868.83	1789.92
868.99	1738.73
869.16	1718.25
869.33	1789.92
869.50	1744.87
869.66	1703.91
869.83	1681.38
870.00	1581.03
870.16	1763.30
870.33	1615.85
870.50	1765.35
870.66	1724.39
870.83	1798.12
871.00	1708.01
871.17	1757.16
871.33	1779.68
871.50	1617.90
871.67	1710.05
871.83	1593.32
872.00	1804.26
872.17	1648.61
872.33	1708.01
872.50	1712.10
872.67	1691.62
872.83	1716.20
873.00	1701.86
873.17	1748.97
873.33	1753.06
873.50	1740.77
873.67	1734.63
873.83	1693.67
874.00	1763.30
874.16	1722.34
874.33	1705.96
874.50	1699.81
874.66	1689.57
874.83	1669.09
875.00	1789.92
875.16	1705.96
875.33	1789.92
875.50	1595.37
875.66	1726.44
875.83	1716.20
875.99	1710.05
876.16	1665.00
876.33	1683.43
876.49	1636.33
876.66	1677.29
876.83	1685.48
876.99	1595.37
877.16	1640.42
877.32	1660.90
877.49	1683.43
877.66	1662.95
877.82	1787.88
877.99	1732.58
878.15	1697.77
878.32	1699.81
878.49	1667.05
878.65	1640.42
878.82	1779.68
878.98	1746.92
879.15	1765.35
879.32	1728.49
879.48	1693.67
879.65	1673.19
879.81	1722.34
879.98	1728.49
880.15	1673.19
880.31	1742.82
880.48	1636.33
880.64	1716.20
880.81	1712.10
880.97	1705.96
881.14	1853.41
881.31	1683.43
881.47	1853.41
881.64	1716.20
881.80	1605.61
881.97	1675.24
882.13	1810.40
882.30	1617.90
882.47	1673.19
882.63	1628.14
882.80	1665.00
882.96	1671.14
883.13	1724.39
883.29	1738.73
883.46	1757.16
883.62	1843.17
883.79	1699.81
883.95	1781.73
884.12	1763.30
884.29	1800.16
884.45	1673.19
884.62	1767.40
884.78	1665.00
884.95	1787.88
885.11	1615.85
885.28	1724.39
885.44	1699.81
885.61	1701.86
885.77	1748.97
885.94	1798.12
886.10	1665.00
886.27	1689.57
886.43	1761.25
886.60	1765.35
886.76	1695.72
886.93	1671.14
887.09	1730.53
887.26	1650.66
887.42	1724.39
887.59	1800.16
887.75	1882.08
887.92	1751.01
888.08	1738.73
888.25	1816.55
888.41	1724.39
888.58	1740.77
888.74	1638.38
888.91	1671.14
>>>>>End Processed Spectral Data<<<<<
