SpectraSuite Data File
++++++++++++++++++++++++++++++++++++
Date: Mon Jun 06 14:42:17 CEST 2016
User: root
Dark Spectrum Present: No
Reference Spectrum Present: No
Number of Sampled Component Spectra: 1
Spectrometers: USB4C02835
Integration Time (usec): 100000 (USB4C02835)
Spectra Averaged: 1 (USB4C02835)
Boxcar Smoothing: 0 (USB4C02835)
Correct for Electrical Dark: No (USB4C02835)
Strobe/Lamp Enabled: No (USB4C02835)
Correct for Detector Non-linearity: No (USB4C02835)
Correct for Stray Light: No (USB4C02835)
Number of Pixels in Processed Spectrum: 3648
>>>>>Begin Processed Spectral Data<<<<<
177.47	1462.25
177.69	1462.25
177.91	1462.25
178.13	1447.91
178.36	1439.72
178.58	1673.19
178.80	1675.24
179.02	1652.71
179.24	1697.77
179.46	1636.33
179.68	1644.52
179.90	1734.63
180.13	1642.47
180.35	1638.38
180.57	1681.38
180.79	1732.58
181.01	1681.38
181.23	1769.44
181.45	1755.11
181.67	1730.53
181.90	1734.63
182.12	1689.57
182.34	1685.48
182.56	1716.20
182.78	1640.42
183.00	1730.53
183.22	1675.24
183.44	1679.33
183.66	1830.88
183.89	1802.21
184.11	1734.63
184.33	1728.49
184.55	1808.36
184.77	1697.77
184.99	1722.34
185.21	1722.34
185.43	1816.55
185.65	1652.71
185.87	1697.77
186.10	1861.60
186.32	1845.22
186.54	1695.72
186.76	1773.54
186.98	1740.77
187.20	1689.57
187.42	1748.97
187.64	1683.43
187.86	1697.77
188.08	1722.34
188.30	1650.66
188.52	1660.90
188.75	1734.63
188.97	1794.02
189.19	1714.15
189.41	1679.33
189.63	1705.96
189.85	1693.67
190.07	1583.08
190.29	1652.71
190.51	1755.11
190.73	1662.95
190.95	1724.39
191.17	1671.14
191.39	1654.76
191.61	1658.85
191.84	1615.85
192.06	1669.09
192.28	1597.42
192.50	1918.95
192.72	1730.53
192.94	1665.00
193.16	1771.49
193.38	1742.82
193.60	1640.42
193.82	1712.10
194.04	1736.68
194.26	1669.09
194.48	1763.30
194.70	1581.03
194.92	1683.43
195.14	1800.16
195.36	1697.77
195.58	1681.38
195.80	1701.86
196.02	1644.52
196.24	1644.52
196.46	1665.00
196.69	1601.51
196.91	1794.02
197.13	1701.86
197.35	1667.05
197.57	1761.25
197.79	1716.20
198.01	1652.71
198.23	1656.81
198.45	1757.16
198.67	1642.47
198.89	1699.81
199.11	1716.20
199.33	1677.29
199.55	1519.59
199.77	1722.34
199.99	1781.73
200.21	1593.32
200.43	1789.92
200.65	1667.05
200.87	1581.03
201.09	1730.53
201.31	1675.24
201.53	1705.96
201.75	1685.48
201.97	1705.96
202.19	1701.86
202.41	1783.78
202.63	1837.03
202.85	1695.72
203.07	1634.28
203.29	1634.28
203.51	1662.95
203.73	1658.85
203.95	1818.60
204.17	1685.48
204.39	1728.49
204.61	1767.40
204.83	1634.28
205.05	1708.01
205.27	1718.25
205.49	1767.40
205.71	1712.10
205.93	1642.47
206.15	1716.20
206.37	1636.33
206.59	1695.72
206.81	1624.04
207.03	1617.90
207.25	1613.80
207.47	1730.53
207.69	1699.81
207.91	1742.82
208.13	1777.64
208.34	1722.34
208.56	1697.77
208.78	1722.34
209.00	1636.33
209.22	1638.38
209.44	1714.15
209.66	1630.18
209.88	1617.90
210.10	1675.24
210.32	1667.05
210.54	1814.50
210.76	1712.10
210.98	1669.09
211.20	1617.90
211.42	1667.05
211.64	1794.02
211.86	1697.77
212.08	1734.63
212.30	1691.62
212.52	1695.72
212.74	1701.86
212.96	1638.38
213.17	1761.25
213.39	1718.25
213.61	1765.35
213.83	1748.97
214.05	1710.05
214.27	1740.77
214.49	1611.75
214.71	1611.75
214.93	1818.60
215.15	1726.44
215.37	1710.05
215.59	1591.27
215.81	1781.73
216.03	1769.44
216.24	1728.49
216.46	1636.33
216.68	1693.67
216.90	1699.81
217.12	1681.38
217.34	1673.19
217.56	1732.58
217.78	1783.78
218.00	1746.92
218.22	1726.44
218.44	1705.96
218.66	1685.48
218.87	1814.50
219.09	1714.15
219.31	1726.44
219.53	1712.10
219.75	1695.72
219.97	1732.58
220.19	1728.49
220.41	1683.43
220.63	1785.83
220.85	1753.06
221.06	1656.81
221.28	1794.02
221.50	1748.97
221.72	1708.01
221.94	1697.77
222.16	1652.71
222.38	1722.34
222.60	1691.62
222.82	1683.43
223.03	1720.29
223.25	1609.70
223.47	1771.49
223.69	1806.31
223.91	1648.61
224.13	1662.95
224.35	1689.57
224.57	1806.31
224.78	1695.72
225.00	1617.90
225.22	1689.57
225.44	1710.05
225.66	1757.16
225.88	1691.62
226.10	1753.06
226.32	1726.44
226.53	1791.97
226.75	1705.96
226.97	1753.06
227.19	1630.18
227.41	1652.71
227.63	1603.56
227.85	1646.57
228.06	1675.24
228.28	1685.48
228.50	1755.11
228.72	1718.25
228.94	1660.90
229.16	1576.94
229.37	1658.85
229.59	1636.33
229.81	1804.26
230.03	1765.35
230.25	1621.99
230.47	1677.29
230.69	1632.23
230.90	1722.34
231.12	1681.38
231.34	1638.38
231.56	1748.97
231.78	1654.76
232.00	1802.21
232.21	1656.81
232.43	1640.42
232.65	1597.42
232.87	1736.68
233.09	1619.94
233.30	1652.71
233.52	1665.00
233.74	1714.15
233.96	1648.61
234.18	1765.35
234.40	1656.81
234.61	1818.60
234.83	1708.01
235.05	1632.23
235.27	1814.50
235.49	1796.07
235.70	1701.86
235.92	1765.35
236.14	1712.10
236.36	1798.12
236.58	1587.18
236.79	1746.92
237.01	1730.53
237.23	1685.48
237.45	1837.03
237.67	1654.76
237.88	1667.05
238.10	1761.25
238.32	1632.23
238.54	1626.09
238.76	1695.72
238.97	1628.14
239.19	1685.48
239.41	1693.67
239.63	1755.11
239.85	1662.95
240.06	1681.38
240.28	1673.19
240.50	1804.26
240.72	1740.77
240.93	1751.01
241.15	1761.25
241.37	1789.92
241.59	1779.68
241.81	1703.91
242.02	1673.19
242.24	1660.90
242.46	1751.01
242.68	1621.99
242.89	1701.86
243.11	1775.59
243.33	1730.53
243.55	1671.14
243.76	1693.67
243.98	1652.71
244.20	1740.77
244.42	1630.18
244.64	1630.18
244.85	1632.23
245.07	1705.96
245.29	1722.34
245.51	1693.67
245.72	1757.16
245.94	1787.88
246.16	1718.25
246.38	1726.44
246.59	1681.38
246.81	1619.94
247.03	1632.23
247.24	1671.14
247.46	1636.33
247.68	1669.09
247.90	1640.42
248.11	1624.04
248.33	1791.97
248.55	1681.38
248.77	1703.91
248.98	1818.60
249.20	1830.88
249.42	1699.81
249.64	1787.88
249.85	1679.33
250.07	1662.95
250.29	1732.58
250.50	1765.35
250.72	1603.56
250.94	1718.25
251.16	1755.11
251.37	1724.39
251.59	1650.66
251.81	1759.21
252.02	1761.25
252.24	1675.24
252.46	1732.58
252.68	1626.09
252.89	1681.38
253.11	1634.28
253.33	1812.45
253.54	1820.64
253.76	1648.61
253.98	1693.67
254.20	1773.54
254.41	1652.71
254.63	1673.19
254.85	1665.00
255.06	1691.62
255.28	1714.15
255.50	1675.24
255.71	1669.09
255.93	1701.86
256.15	1697.77
256.36	1755.11
256.58	1650.66
256.80	1763.30
257.02	1677.29
257.23	1724.39
257.45	1658.85
257.67	1718.25
257.88	1658.85
258.10	1681.38
258.32	1740.77
258.53	1601.51
258.75	1843.17
258.97	1626.09
259.18	1701.86
259.40	1712.10
259.62	1779.68
259.83	1773.54
260.05	1728.49
260.27	2011.11
260.48	1744.87
260.70	1660.90
260.92	1740.77
261.13	1677.29
261.35	1685.48
261.57	1701.86
261.78	1607.66
262.00	1632.23
262.22	1755.11
262.43	1693.67
262.65	1712.10
262.86	1744.87
263.08	1847.27
263.30	1765.35
263.51	1583.08
263.73	1718.25
263.95	1746.92
264.16	1607.66
264.38	1652.71
264.60	1634.28
264.81	1681.38
265.03	1718.25
265.25	1753.06
265.46	1677.29
265.68	1691.62
265.89	1761.25
266.11	1613.80
266.33	1714.15
266.54	1763.30
266.76	1710.05
266.98	1798.12
267.19	1802.21
267.41	1701.86
267.62	1722.34
267.84	1667.05
268.06	1671.14
268.27	1660.90
268.49	1771.49
268.70	1724.39
268.92	1611.75
269.14	1646.57
269.35	1660.90
269.57	1705.96
269.79	1648.61
270.00	1673.19
270.22	1816.55
270.43	1640.42
270.65	1634.28
270.87	1667.05
271.08	1783.78
271.30	1705.96
271.51	1710.05
271.73	1710.05
271.95	1738.73
272.16	1673.19
272.38	1681.38
272.59	1753.06
272.81	1685.48
273.02	1695.72
273.24	1763.30
273.46	1759.21
273.67	1669.09
273.89	1701.86
274.10	1646.57
274.32	1722.34
274.54	1757.16
274.75	1757.16
274.97	1630.18
275.18	1691.62
275.40	1689.57
275.61	1685.48
275.83	1681.38
276.05	1677.29
276.26	1712.10
276.48	1744.87
276.69	1646.57
276.91	1656.81
277.12	1773.54
277.34	1691.62
277.55	1761.25
277.77	1691.62
277.99	1697.77
278.20	1634.28
278.42	1605.61
278.63	1603.56
278.85	1689.57
279.06	1656.81
279.28	1769.44
279.49	1748.97
279.71	1740.77
279.93	1638.38
280.14	1701.86
280.36	1697.77
280.57	1730.53
280.79	1781.73
281.00	1574.89
281.22	1658.85
281.43	1742.82
281.65	1529.83
281.86	1683.43
282.08	1728.49
282.29	1724.39
282.51	1669.09
282.73	1619.94
282.94	1615.85
283.16	1738.73
283.37	1796.07
283.59	1718.25
283.80	1748.97
284.02	1705.96
284.23	1740.77
284.45	1644.52
284.66	1628.14
284.88	1593.32
285.09	1681.38
285.31	1697.77
285.52	1648.61
285.74	1591.27
285.95	1794.02
286.17	1675.24
286.38	1789.92
286.60	1665.00
286.81	1562.60
287.03	1681.38
287.24	1675.24
287.46	1720.29
287.67	1691.62
287.89	1769.44
288.10	1693.67
288.32	1751.01
288.53	1746.92
288.75	1728.49
288.96	1720.29
289.18	1662.95
289.39	1714.15
289.61	1730.53
289.82	1871.84
290.04	1865.70
290.25	1609.70
290.47	1710.05
290.68	1597.42
290.90	1708.01
291.11	1574.89
291.33	1773.54
291.54	1630.18
291.76	1640.42
291.97	1759.21
292.18	1746.92
292.40	1746.92
292.61	1636.33
292.83	1859.56
293.04	1732.58
293.26	1742.82
293.47	1691.62
293.69	1587.18
293.90	1710.05
294.12	1796.07
294.33	1724.39
294.55	1648.61
294.76	1775.59
294.97	1820.64
295.19	1812.45
295.40	1714.15
295.62	1730.53
295.83	1761.25
296.05	1679.33
296.26	1699.81
296.48	1683.43
296.69	1699.81
296.90	1691.62
297.12	1732.58
297.33	1841.12
297.55	1619.94
297.76	1730.53
297.98	1765.35
298.19	1685.48
298.41	1708.01
298.62	1570.79
298.83	1859.56
299.05	1732.58
299.26	1693.67
299.48	1660.90
299.69	1708.01
299.90	1646.57
300.12	1607.66
300.33	1740.77
300.55	1644.52
300.76	1671.14
300.98	1669.09
301.19	1691.62
301.40	1724.39
301.62	1708.01
301.83	1687.53
302.05	1667.05
302.26	1730.53
302.47	1738.73
302.69	1665.00
302.90	1687.53
303.12	1576.94
303.33	1730.53
303.54	1800.16
303.76	1691.62
303.97	1751.01
304.19	1826.79
304.40	1691.62
304.61	1697.77
304.83	1720.29
305.04	1765.35
305.26	1726.44
305.47	1599.46
305.68	1644.52
305.90	1683.43
306.11	1695.72
306.33	1701.86
306.54	1740.77
306.75	1730.53
306.97	1693.67
307.18	1665.00
307.39	1732.58
307.61	1726.44
307.82	1744.87
308.04	1718.25
308.25	1624.04
308.46	1576.94
308.68	1693.67
308.89	1730.53
309.10	1777.64
309.32	1710.05
309.53	1693.67
309.74	1767.40
309.96	1712.10
310.17	1765.35
310.39	1636.33
310.60	1796.07
310.81	1689.57
311.03	1595.37
311.24	1693.67
311.45	1691.62
311.67	1796.07
311.88	1681.38
312.09	1599.46
312.31	1705.96
312.52	1638.38
312.73	1671.14
312.95	1632.23
313.16	1652.71
313.37	1685.48
313.59	1746.92
313.80	1732.58
314.01	1806.31
314.23	1665.00
314.44	1681.38
314.65	1673.19
314.87	1746.92
315.08	1740.77
315.29	1708.01
315.51	1671.14
315.72	1603.56
315.93	1814.50
316.15	1718.25
316.36	1660.90
316.57	1638.38
316.79	1771.49
317.00	1751.01
317.21	1775.59
317.43	1619.94
317.64	1763.30
317.85	1642.47
318.07	1630.18
318.28	1726.44
318.49	1839.08
318.70	1902.56
318.92	1791.97
319.13	1771.49
319.34	1820.64
319.56	1751.01
319.77	1765.35
319.98	1738.73
320.20	1789.92
320.41	1732.58
320.62	1660.90
320.83	1576.94
321.05	1812.45
321.26	1665.00
321.47	1738.73
321.69	1814.50
321.90	1650.66
322.11	1589.22
322.32	1710.05
322.54	1818.60
322.75	1638.38
322.96	1796.07
323.18	1603.56
323.39	1593.32
323.60	1630.18
323.81	1699.81
324.03	1628.14
324.24	1726.44
324.45	1738.73
324.66	1673.19
324.88	1716.20
325.09	1734.63
325.30	1705.96
325.52	1722.34
325.73	1683.43
325.94	1740.77
326.15	1587.18
326.37	1615.85
326.58	1740.77
326.79	1746.92
327.00	1742.82
327.22	1683.43
327.43	1697.77
327.64	1665.00
327.85	1740.77
328.07	1718.25
328.28	1806.31
328.49	1685.48
328.70	1767.40
328.92	1667.05
329.13	1701.86
329.34	1701.86
329.55	1761.25
329.76	1685.48
329.98	1689.57
330.19	1804.26
330.40	1658.85
330.61	1789.92
330.83	1742.82
331.04	1646.57
331.25	1822.69
331.46	1658.85
331.68	1607.66
331.89	1763.30
332.10	1718.25
332.31	1626.09
332.52	1773.54
332.74	1673.19
332.95	1615.85
333.16	1691.62
333.37	1710.05
333.58	1703.91
333.80	1720.29
334.01	1683.43
334.22	1630.18
334.43	1626.09
334.64	1669.09
334.86	1638.38
335.07	1724.39
335.28	1738.73
335.49	1615.85
335.70	1755.11
335.92	1763.30
336.13	1808.36
336.34	1712.10
336.55	1695.72
336.76	1761.25
336.98	1640.42
337.19	1693.67
337.40	1789.92
337.61	1857.51
337.82	1644.52
338.04	1781.73
338.25	1677.29
338.46	1802.21
338.67	1734.63
338.88	1619.94
339.09	1681.38
339.31	1728.49
339.52	1609.70
339.73	1669.09
339.94	1759.21
340.15	1775.59
340.36	1705.96
340.58	1697.77
340.79	1619.94
341.00	1755.11
341.21	1615.85
341.42	1767.40
341.63	1642.47
341.85	1751.01
342.06	1646.57
342.27	1679.33
342.48	1779.68
342.69	1624.04
342.90	1742.82
343.12	1652.71
343.33	1714.15
343.54	1699.81
343.75	1710.05
343.96	1675.24
344.17	1646.57
344.38	1701.86
344.60	1671.14
344.81	1544.17
345.02	1724.39
345.23	1820.64
345.44	1787.88
345.65	1703.91
345.86	1783.78
346.07	1630.18
346.29	1624.04
346.50	1730.53
346.71	1738.73
346.92	1843.17
347.13	1767.40
347.34	1730.53
347.55	1665.00
347.76	1742.82
347.98	1687.53
348.19	1746.92
348.40	1816.55
348.61	1632.23
348.82	1789.92
349.03	1767.40
349.24	1652.71
349.45	1822.69
349.66	1576.94
349.88	1660.90
350.09	1669.09
350.30	1736.68
350.51	1769.44
350.72	1710.05
350.93	1656.81
351.14	1660.90
351.35	1779.68
351.56	1705.96
351.77	1669.09
351.99	1751.01
352.20	1828.84
352.41	1724.39
352.62	1595.37
352.83	1681.38
353.04	1740.77
353.25	1632.23
353.46	1830.88
353.67	1783.78
353.88	1593.32
354.09	1697.77
354.30	1730.53
354.52	1726.44
354.73	1701.86
354.94	1638.38
355.15	1728.49
355.36	1732.58
355.57	1691.62
355.78	1712.10
355.99	1624.04
356.20	1714.15
356.41	1691.62
356.62	1783.78
356.83	1689.57
357.04	1783.78
357.25	1705.96
357.46	1687.53
357.68	1603.56
357.89	1679.33
358.10	1685.48
358.31	1685.48
358.52	1675.24
358.73	1630.18
358.94	1642.47
359.15	1693.67
359.36	1732.58
359.57	1652.71
359.78	1648.61
359.99	1685.48
360.20	1675.24
360.41	1648.61
360.62	1722.34
360.83	1677.29
361.04	1646.57
361.25	1748.97
361.46	1755.11
361.67	1773.54
361.88	1648.61
362.09	1744.87
362.30	1773.54
362.51	1714.15
362.72	1636.33
362.93	1791.97
363.14	1791.97
363.35	1685.48
363.56	1679.33
363.78	1785.83
363.99	1730.53
364.20	1689.57
364.41	1828.84
364.62	1816.55
364.83	1720.29
365.04	1679.33
365.25	1685.48
365.46	1794.02
365.67	1650.66
365.88	1626.09
366.09	1712.10
366.30	1658.85
366.51	1763.30
366.72	1619.94
366.93	1656.81
367.14	1789.92
367.35	1738.73
367.56	1720.29
367.77	1767.40
367.98	1701.86
368.18	1695.72
368.39	1748.97
368.60	1662.95
368.81	1744.87
369.02	1740.77
369.23	1742.82
369.44	1658.85
369.65	1697.77
369.86	1712.10
370.07	1683.43
370.28	1683.43
370.49	1757.16
370.70	1771.49
370.91	1665.00
371.12	1695.72
371.33	1736.68
371.54	1656.81
371.75	1771.49
371.96	1624.04
372.17	1748.97
372.38	1656.81
372.59	1730.53
372.80	1587.18
373.01	1746.92
373.22	1761.25
373.43	1705.96
373.64	1679.33
373.85	1777.64
374.06	1773.54
374.26	1716.20
374.47	1763.30
374.68	1755.11
374.89	1742.82
375.10	1656.81
375.31	1746.92
375.52	1765.35
375.73	1691.62
375.94	1599.46
376.15	1830.88
376.36	1595.37
376.57	1681.38
376.78	1687.53
376.99	1755.11
377.20	1740.77
377.40	1656.81
377.61	1779.68
377.82	1640.42
378.03	1775.59
378.24	1712.10
378.45	1679.33
378.66	1755.11
378.87	1624.04
379.08	1658.85
379.29	1689.57
379.50	1720.29
379.71	1624.04
379.91	1716.20
380.12	1716.20
380.33	1783.78
380.54	1724.39
380.75	1732.58
380.96	1636.33
381.17	1824.74
381.38	1695.72
381.59	1746.92
381.80	1695.72
382.00	1884.13
382.21	1775.59
382.42	1834.98
382.63	1908.71
382.84	1763.30
383.05	1783.78
383.26	1847.27
383.47	1736.68
383.68	1677.29
383.88	1730.53
384.09	1744.87
384.30	1771.49
384.51	1722.34
384.72	1656.81
384.93	1583.08
385.14	1708.01
385.35	1714.15
385.55	1564.65
385.76	1714.15
385.97	1673.19
386.18	1669.09
386.39	1640.42
386.60	1748.97
386.81	1710.05
387.02	1667.05
387.22	1681.38
387.43	1806.31
387.64	1787.88
387.85	1857.51
388.06	2230.24
388.27	4317.12
388.48	6850.46
388.68	8406.91
388.89	9676.65
389.10	9926.50
389.31	8716.16
389.52	7792.52
389.73	6959.00
389.93	6324.13
390.14	5949.35
390.35	5232.56
390.56	4683.70
390.77	3837.89
390.98	3110.86
391.18	2523.10
391.39	2074.59
391.60	1851.36
391.81	1855.46
392.02	1705.96
392.23	1869.80
392.43	1728.49
392.64	1785.83
392.85	1697.77
393.06	1755.11
393.27	1773.54
393.47	1712.10
393.68	1742.82
393.89	1679.33
394.10	1830.88
394.31	1685.48
394.52	1652.71
394.72	1669.09
394.93	1841.12
395.14	1656.81
395.35	1845.22
395.56	1701.86
395.76	1730.53
395.97	1791.97
396.18	1830.88
396.39	1816.55
396.60	2017.25
396.80	1873.89
397.01	1740.77
397.22	1763.30
397.43	1865.70
397.64	1738.73
397.84	1783.78
398.05	1830.88
398.26	1736.68
398.47	1843.17
398.67	1798.12
398.88	1644.52
399.09	1720.29
399.30	1650.66
399.51	1716.20
399.71	1662.95
399.92	1720.29
400.13	1755.11
400.34	1689.57
400.54	1722.34
400.75	1748.97
400.96	1726.44
401.17	1935.33
401.37	1800.16
401.58	1673.19
401.79	1718.25
402.00	1814.50
402.21	2058.21
402.41	1961.95
402.62	2002.91
402.83	2078.69
403.04	1947.62
403.24	2066.40
403.45	1884.13
403.66	1916.90
403.87	1912.80
404.07	1904.61
404.28	1845.22
404.49	1863.65
404.70	1718.25
404.90	1722.34
405.11	1718.25
405.32	1771.49
405.52	1716.20
405.73	1738.73
405.94	1669.09
406.15	1724.39
406.35	1791.97
406.56	1687.53
406.77	1679.33
406.98	1771.49
407.18	1669.09
407.39	1742.82
407.60	1742.82
407.80	1771.49
408.01	1701.86
408.22	1634.28
408.43	1654.76
408.63	1716.20
408.84	1785.83
409.05	1791.97
409.25	1681.38
409.46	1646.57
409.67	1710.05
409.88	1656.81
410.08	1654.76
410.29	1689.57
410.50	1703.91
410.70	1679.33
410.91	1646.57
411.12	1726.44
411.32	1671.14
411.53	1652.71
411.74	1769.44
411.95	1771.49
412.15	1734.63
412.36	1789.92
412.57	1798.12
412.77	1873.89
412.98	1767.40
413.19	1742.82
413.39	1724.39
413.60	1759.21
413.81	1761.25
414.01	1669.09
414.22	1751.01
414.43	1779.68
414.63	1718.25
414.84	1804.26
415.05	1703.91
415.25	1656.81
415.46	1746.92
415.67	1691.62
415.87	1667.05
416.08	1734.63
416.29	1726.44
416.49	1759.21
416.70	1650.66
416.91	1660.90
417.11	1701.86
417.32	1716.20
417.53	1834.98
417.73	1701.86
417.94	1705.96
418.15	1697.77
418.35	1759.21
418.56	1691.62
418.77	1824.74
418.97	1687.53
419.18	1658.85
419.38	1535.98
419.59	1736.68
419.80	1771.49
420.00	1673.19
420.21	1761.25
420.42	1798.12
420.62	1748.97
420.83	1642.47
421.04	1687.53
421.24	1697.77
421.45	1742.82
421.65	1748.97
421.86	1697.77
422.07	1724.39
422.27	1705.96
422.48	1787.88
422.69	1632.23
422.89	1630.18
423.10	1746.92
423.30	1665.00
423.51	1703.91
423.72	1673.19
423.92	1728.49
424.13	1632.23
424.33	1691.62
424.54	1714.15
424.75	1697.77
424.95	1832.93
425.16	1683.43
425.36	1742.82
425.57	1791.97
425.78	1820.64
425.98	1785.83
426.19	1740.77
426.39	1654.76
426.60	1714.15
426.81	1730.53
427.01	1746.92
427.22	1642.47
427.42	1626.09
427.63	1703.91
427.83	1679.33
428.04	1765.35
428.25	1753.06
428.45	1798.12
428.66	1773.54
428.86	1773.54
429.07	1697.77
429.28	1724.39
429.48	1699.81
429.69	1640.42
429.89	1705.96
430.10	1632.23
430.30	1683.43
430.51	1789.92
430.71	1714.15
430.92	1720.29
431.13	1714.15
431.33	1732.58
431.54	1738.73
431.74	1816.55
431.95	1783.78
432.15	1665.00
432.36	1689.57
432.56	1761.25
432.77	1753.06
432.98	1818.60
433.18	1691.62
433.39	1718.25
433.59	1689.57
433.80	1816.55
434.00	1820.64
434.21	1669.09
434.41	1652.71
434.62	1906.66
434.82	1652.71
435.03	1626.09
435.23	1685.48
435.44	1648.61
435.64	1744.87
435.85	1685.48
436.06	1771.49
436.26	1710.05
436.47	1689.57
436.67	1648.61
436.88	1759.21
437.08	1742.82
437.29	1849.32
437.49	1726.44
437.70	1845.22
437.90	1738.73
438.11	1800.16
438.31	1771.49
438.52	1890.28
438.72	1824.74
438.93	1896.42
439.13	1779.68
439.34	1869.80
439.54	1753.06
439.75	1779.68
439.95	1755.11
440.16	1654.76
440.36	1740.77
440.57	1796.07
440.77	1708.01
440.98	1769.44
441.18	1789.92
441.39	1667.05
441.59	1632.23
441.80	1808.36
442.00	1751.01
442.21	1828.84
442.41	1642.47
442.62	1746.92
442.82	1605.61
443.02	1738.73
443.23	1681.38
443.43	1681.38
443.64	1720.29
443.84	1755.11
444.05	1810.40
444.25	1748.97
444.46	1624.04
444.66	1673.19
444.87	1820.64
445.07	1550.31
445.28	1718.25
445.48	1818.60
445.69	1751.01
445.89	1798.12
446.09	1816.55
446.30	2050.02
446.50	2703.32
446.71	3819.46
446.91	4401.08
447.12	4763.58
447.32	4904.89
447.53	4325.31
447.73	3925.96
447.93	3540.94
448.14	3338.19
448.34	3198.93
448.55	2893.78
448.75	2818.00
448.96	2762.71
449.16	2414.56
449.36	2283.49
449.57	2084.83
449.77	1892.32
449.98	1789.92
450.18	1820.64
450.39	1798.12
450.59	1730.53
450.79	1697.77
451.00	1615.85
451.20	1742.82
451.41	1734.63
451.61	1757.16
451.81	1730.53
452.02	1728.49
452.22	1679.33
452.43	1693.67
452.63	1722.34
452.84	1755.11
453.04	1701.86
453.24	1738.73
453.45	1796.07
453.65	1720.29
453.86	1771.49
454.06	1722.34
454.26	1695.72
454.47	1671.14
454.67	1851.36
454.87	1736.68
455.08	1689.57
455.28	1798.12
455.49	1841.12
455.69	1714.15
455.89	1808.36
456.10	1796.07
456.30	1669.09
456.51	1703.91
456.71	1726.44
456.91	1767.40
457.12	1720.29
457.32	1703.91
457.52	1662.95
457.73	1736.68
457.93	1757.16
458.14	1636.33
458.34	1697.77
458.54	1746.92
458.75	1753.06
458.95	1771.49
459.15	1708.01
459.36	1746.92
459.56	1761.25
459.76	1814.50
459.97	1804.26
460.17	1714.15
460.37	1832.93
460.58	1677.29
460.78	1798.12
460.99	1617.90
461.19	1759.21
461.39	1646.57
461.60	1701.86
461.80	1765.35
462.00	1609.70
462.21	1681.38
462.41	1669.09
462.61	1669.09
462.82	1595.37
463.02	1808.36
463.22	1705.96
463.43	1751.01
463.63	1714.15
463.83	1777.64
464.04	1712.10
464.24	1650.66
464.44	1681.38
464.64	1730.53
464.85	1744.87
465.05	1775.59
465.25	1738.73
465.46	1769.44
465.66	1734.63
465.86	1834.98
466.07	1714.15
466.27	1689.57
466.47	1642.47
466.68	1626.09
466.88	1912.80
467.08	1779.68
467.29	1748.97
467.49	1757.16
467.69	1701.86
467.89	1767.40
468.10	1736.68
468.30	1757.16
468.50	1769.44
468.71	1777.64
468.91	1695.72
469.11	1822.69
469.31	1753.06
469.52	1656.81
469.72	1789.92
469.92	1863.65
470.13	1730.53
470.33	1771.49
470.53	1796.07
470.73	2066.40
470.94	2308.06
471.14	2369.50
471.34	2471.90
471.54	2410.46
471.75	2279.39
471.95	2133.98
472.15	2123.74
472.36	2119.65
472.56	2066.40
472.76	2082.78
472.96	2066.40
473.17	1939.43
473.37	1953.76
473.57	1824.74
473.77	1765.35
473.98	1781.73
474.18	1654.76
474.38	1894.37
474.58	1773.54
474.79	1640.42
474.99	1826.79
475.19	1748.97
475.39	1720.29
475.60	1677.29
475.80	1740.77
476.00	1689.57
476.20	1660.90
476.41	1665.00
476.61	1814.50
476.81	1726.44
477.01	1751.01
477.21	1849.32
477.42	1740.77
477.62	1687.53
477.82	1730.53
478.02	1738.73
478.23	1718.25
478.43	1701.86
478.63	1744.87
478.83	1720.29
479.03	1693.67
479.24	1812.45
479.44	1820.64
479.64	1640.42
479.84	1538.02
480.04	1710.05
480.25	1722.34
480.45	1667.05
480.65	1716.20
480.85	1828.84
481.06	1656.81
481.26	1738.73
481.46	1736.68
481.66	1791.97
481.86	1615.85
482.06	1771.49
482.27	1681.38
482.47	1738.73
482.67	1742.82
482.87	1724.39
483.07	1794.02
483.28	1701.86
483.48	1685.48
483.68	1673.19
483.88	1681.38
484.08	1562.60
484.29	1630.18
484.49	1757.16
484.69	1591.27
484.89	1781.73
485.09	1738.73
485.29	1718.25
485.50	1798.12
485.70	1658.85
485.90	1816.55
486.10	1769.44
486.30	1796.07
486.50	1753.06
486.71	1708.01
486.91	1744.87
487.11	1763.30
487.31	1617.90
487.51	1738.73
487.71	1687.53
487.91	1640.42
488.12	1693.67
488.32	1574.89
488.52	1679.33
488.72	1560.55
488.92	1699.81
489.12	1751.01
489.32	1712.10
489.53	1748.97
489.73	1538.02
489.93	1822.69
490.13	1648.61
490.33	1638.38
490.53	1796.07
490.73	1804.26
490.94	1574.89
491.14	1843.17
491.34	1761.25
491.54	2123.74
491.74	2598.87
491.94	2924.50
492.14	3030.99
492.34	2934.74
492.54	2828.24
492.75	2451.42
492.95	2471.90
493.15	2320.35
493.35	2355.16
493.55	2277.34
493.75	2213.85
493.95	2162.66
494.15	2086.88
494.35	1871.84
494.56	1824.74
494.76	1773.54
494.96	1820.64
495.16	1863.65
495.36	1710.05
495.56	1789.92
495.76	1716.20
495.96	1703.91
496.16	1681.38
496.36	1898.47
496.56	1673.19
496.77	1779.68
496.97	1716.20
497.17	1818.60
497.37	1697.77
497.57	1742.82
497.77	1734.63
497.97	1658.85
498.17	1710.05
498.37	1753.06
498.57	1806.31
498.77	1767.40
498.97	1781.73
499.17	1830.88
499.38	1791.97
499.58	1839.08
499.78	1767.40
499.98	1755.11
500.18	1859.56
500.38	1695.72
500.58	1906.66
500.78	2627.54
500.98	4581.31
501.18	5980.07
501.38	6950.81
501.58	7202.71
501.78	6676.38
501.98	5584.81
502.18	5001.14
502.38	4454.33
502.58	4237.25
502.78	3841.99
502.98	3741.64
503.18	3416.01
503.38	3248.08
503.59	2838.48
503.79	2760.66
503.99	2492.38
504.19	2314.20
504.39	2312.16
504.59	2246.62
504.79	2170.85
504.99	2027.49
505.19	1970.15
505.39	1943.52
505.59	1978.34
505.79	1920.99
505.99	1816.55
506.19	1826.79
506.39	1875.94
506.59	1798.12
506.79	1728.49
506.99	1804.26
507.19	1732.58
507.39	1753.06
507.59	1701.86
507.79	1677.29
507.99	1613.80
508.19	1779.68
508.39	1740.77
508.59	1724.39
508.79	1820.64
508.99	1824.74
509.19	1691.62
509.39	1822.69
509.59	1650.66
509.79	1730.53
509.99	1769.44
510.19	1742.82
510.39	1722.34
510.59	1753.06
510.79	1693.67
510.99	1705.96
511.19	1820.64
511.39	1794.02
511.59	1781.73
511.79	1814.50
511.99	1718.25
512.19	1818.60
512.38	1810.40
512.58	1687.53
512.78	1789.92
512.98	1904.61
513.18	1765.35
513.38	1675.24
513.58	1779.68
513.78	1708.01
513.98	1660.90
514.18	1730.53
514.38	1681.38
514.58	1789.92
514.78	1665.00
514.98	1732.58
515.18	1726.44
515.38	1636.33
515.58	1806.31
515.78	1687.53
515.98	1753.06
516.18	1806.31
516.38	1746.92
516.57	1677.29
516.77	1652.71
516.97	1759.21
517.17	1759.21
517.37	1701.86
517.57	1751.01
517.77	1691.62
517.97	1699.81
518.17	1767.40
518.37	1636.33
518.57	1642.47
518.77	1693.67
518.97	1738.73
519.16	1763.30
519.36	1759.21
519.56	1730.53
519.76	1740.77
519.96	1679.33
520.16	1708.01
520.36	1683.43
520.56	1830.88
520.76	1669.09
520.96	1767.40
521.16	1763.30
521.35	1687.53
521.55	1779.68
521.75	1671.14
521.95	1650.66
522.15	1673.19
522.35	1601.51
522.55	1751.01
522.75	1720.29
522.95	1726.44
523.14	1769.44
523.34	1740.77
523.54	1644.52
523.74	1730.53
523.94	1773.54
524.14	1677.29
524.34	1830.88
524.54	1818.60
524.73	1730.53
524.93	1660.90
525.13	1718.25
525.33	1636.33
525.53	1927.14
525.73	1742.82
525.93	1714.15
526.13	1771.49
526.32	1802.21
526.52	1808.36
526.72	1798.12
526.92	1791.97
527.12	1662.95
527.32	1701.86
527.52	1738.73
527.71	1834.98
527.91	1667.05
528.11	1691.62
528.31	1753.06
528.51	1654.76
528.71	1744.87
528.90	1742.82
529.10	1759.21
529.30	1787.88
529.50	1613.80
529.70	1757.16
529.90	1742.82
530.09	1685.48
530.29	1681.38
530.49	1673.19
530.69	1796.07
530.89	1742.82
531.09	1779.68
531.28	1683.43
531.48	1757.16
531.68	1730.53
531.88	1761.25
532.08	1789.92
532.28	1665.00
532.47	1843.17
532.67	1808.36
532.87	1728.49
533.07	1613.80
533.27	1773.54
533.46	1781.73
533.66	1693.67
533.86	1730.53
534.06	1693.67
534.26	1761.25
534.45	1712.10
534.65	1742.82
534.85	1769.44
535.05	1667.05
535.25	1806.31
535.44	1708.01
535.64	1771.49
535.84	1697.77
536.04	1673.19
536.24	1730.53
536.43	1660.90
536.63	1697.77
536.83	1697.77
537.03	1708.01
537.22	1642.47
537.42	1632.23
537.62	1724.39
537.82	1665.00
538.02	1787.88
538.21	1759.21
538.41	1859.56
538.61	1791.97
538.81	1632.23
539.00	1779.68
539.20	1646.57
539.40	1722.34
539.60	1771.49
539.79	1755.11
539.99	1712.10
540.19	1722.34
540.39	1740.77
540.58	1660.90
540.78	1828.84
540.98	1726.44
541.18	1787.88
541.37	1734.63
541.57	1738.73
541.77	1742.82
541.97	1630.18
542.16	1642.47
542.36	1722.34
542.56	1683.43
542.76	1828.84
542.95	1736.68
543.15	1753.06
543.35	1781.73
543.54	1738.73
543.74	1673.19
543.94	1796.07
544.14	1675.24
544.33	1796.07
544.53	1763.30
544.73	1726.44
544.93	1685.48
545.12	1759.21
545.32	1665.00
545.52	1701.86
545.71	1636.33
545.91	1656.81
546.11	1773.54
546.30	1650.66
546.50	1728.49
546.70	1705.96
546.90	1742.82
547.09	1558.50
547.29	1740.77
547.49	1734.63
547.68	1783.78
547.88	1771.49
548.08	1675.24
548.27	2263.01
548.47	1667.05
548.67	1695.72
548.87	1736.68
549.06	1675.24
549.26	1746.92
549.46	1681.38
549.65	1683.43
549.85	1728.49
550.05	1773.54
550.24	1621.99
550.44	1730.53
550.64	1656.81
550.83	1746.92
551.03	1757.16
551.23	1718.25
551.42	1761.25
551.62	1679.33
551.82	1746.92
552.01	1806.31
552.21	1798.12
552.41	1763.30
552.60	1837.03
552.80	1716.20
553.00	1726.44
553.19	1751.01
553.39	1808.36
553.59	1640.42
553.78	1697.77
553.98	1773.54
554.17	1634.28
554.37	1767.40
554.57	1767.40
554.76	1738.73
554.96	1724.39
555.16	1693.67
555.35	1746.92
555.55	1757.16
555.75	1734.63
555.94	1785.83
556.14	1675.24
556.33	1798.12
556.53	1689.57
556.73	1701.86
556.92	1806.31
557.12	1814.50
557.32	1857.51
557.51	1765.35
557.71	1824.74
557.90	1789.92
558.10	1789.92
558.30	1722.34
558.49	1800.16
558.69	1789.92
558.88	1708.01
559.08	1796.07
559.28	1697.77
559.47	1722.34
559.67	1724.39
559.86	1820.64
560.06	1773.54
560.26	1724.39
560.45	1693.67
560.65	1798.12
560.84	1781.73
561.04	1599.46
561.24	1777.64
561.43	1665.00
561.63	1806.31
561.82	1769.44
562.02	1722.34
562.22	1697.77
562.41	1738.73
562.61	1800.16
562.80	1669.09
563.00	1877.99
563.19	1824.74
563.39	1783.78
563.59	1742.82
563.78	1662.95
563.98	1621.99
564.17	1652.71
564.37	1652.71
564.56	1742.82
564.76	1585.13
564.96	1802.21
565.15	1734.63
565.35	1841.12
565.54	1648.61
565.74	1697.77
565.93	1740.77
566.13	1685.48
566.32	1761.25
566.52	1746.92
566.71	1742.82
566.91	1718.25
567.11	1646.57
567.30	1724.39
567.50	1746.92
567.69	1763.30
567.89	1796.07
568.08	1740.77
568.28	1720.29
568.47	1617.90
568.67	1687.53
568.86	1834.98
569.06	1785.83
569.25	1675.24
569.45	1679.33
569.64	1669.09
569.84	1665.00
570.04	1779.68
570.23	1738.73
570.43	1714.15
570.62	1732.58
570.82	1806.31
571.01	1679.33
571.21	1689.57
571.40	1632.23
571.60	1765.35
571.79	1781.73
571.99	1767.40
572.18	1785.83
572.38	1763.30
572.57	1728.49
572.77	1759.21
572.96	1941.47
573.16	1738.73
573.35	1734.63
573.55	1796.07
573.74	1820.64
573.94	1675.24
574.13	1732.58
574.33	1804.26
574.52	1753.06
574.71	1771.49
574.91	1753.06
575.10	1796.07
575.30	1691.62
575.49	1679.33
575.69	1775.59
575.88	1779.68
576.08	1650.66
576.27	1861.60
576.47	1738.73
576.66	1820.64
576.86	1808.36
577.05	1787.88
577.25	1738.73
577.44	1902.56
577.64	1769.44
577.83	1812.45
578.02	1744.87
578.22	1794.02
578.41	1877.99
578.61	1689.57
578.80	1605.61
579.00	1738.73
579.19	1734.63
579.39	1847.27
579.58	1828.84
579.77	1746.92
579.97	1779.68
580.16	1814.50
580.36	1804.26
580.55	1779.68
580.75	1781.73
580.94	1744.87
581.13	1859.56
581.33	1857.51
581.52	1779.68
581.72	1847.27
581.91	1875.94
582.11	1851.36
582.30	1781.73
582.49	1783.78
582.69	1837.03
582.88	1746.92
583.08	1703.91
583.27	1859.56
583.47	1693.67
583.66	1785.83
583.85	1675.24
584.05	1714.15
584.24	1830.88
584.44	1828.84
584.63	1849.32
584.82	1849.32
585.02	1873.89
585.21	1771.49
585.41	1796.07
585.60	1769.44
585.79	1925.09
585.99	1955.81
586.18	1898.47
586.37	2125.79
586.57	3444.68
586.76	10026.86
586.96	24927.88
587.15	35274.21
587.34	40902.03
587.54	42880.37
587.73	37182.92
587.93	26725.99
588.12	22038.19
588.31	18609.89
588.51	16414.47
588.70	15294.23
588.89	14434.08
589.09	12810.04
589.28	11304.79
589.47	9578.35
589.67	8163.20
589.86	6543.26
590.06	5124.02
590.25	3858.37
590.44	3170.26
590.64	2539.48
590.83	2269.15
591.02	2086.88
591.22	1998.82
591.41	1910.75
591.60	1751.01
591.80	1996.77
591.99	1761.25
592.18	1779.68
592.38	1832.93
592.57	1771.49
592.76	1802.21
592.96	1820.64
593.15	1822.69
593.34	1822.69
593.54	1763.30
593.73	1802.21
593.92	1783.78
594.12	1779.68
594.31	1748.97
594.50	1900.52
594.70	1771.49
594.89	1894.37
595.08	1650.66
595.28	1859.56
595.47	1896.42
595.66	1738.73
595.86	1634.28
596.05	1806.31
596.24	1767.40
596.43	1742.82
596.63	1767.40
596.82	1708.01
597.01	1781.73
597.21	1861.60
597.40	1738.73
597.59	1751.01
597.79	1775.59
597.98	1810.40
598.17	1744.87
598.36	1751.01
598.56	1751.01
598.75	1640.42
598.94	1705.96
599.14	1814.50
599.33	1685.48
599.52	1810.40
599.71	1783.78
599.91	1832.93
600.10	1689.57
600.29	1716.20
600.48	1810.40
600.68	1724.39
600.87	1744.87
601.06	1726.44
601.26	1748.97
601.45	1742.82
601.64	1724.39
601.83	1853.41
602.03	1751.01
602.22	1644.52
602.41	1804.26
602.60	1837.03
602.80	1748.97
602.99	1714.15
603.18	1693.67
603.37	1695.72
603.57	1740.77
603.76	1787.88
603.95	1851.36
604.14	1716.20
604.34	1691.62
604.53	1708.01
604.72	1671.14
604.91	1765.35
605.10	1759.21
605.30	1697.77
605.49	1853.41
605.68	1753.06
605.87	1734.63
606.07	1720.29
606.26	1677.29
606.45	1779.68
606.64	1730.53
606.84	1712.10
607.03	1753.06
607.22	1812.45
607.41	1667.05
607.60	1722.34
607.80	1765.35
607.99	1695.72
608.18	1738.73
608.37	1720.29
608.56	1615.85
608.76	1765.35
608.95	1820.64
609.14	1789.92
609.33	1800.16
609.52	1847.27
609.72	1771.49
609.91	1777.64
610.10	1779.68
610.29	1869.80
610.48	1787.88
610.68	1757.16
610.87	1724.39
611.06	1781.73
611.25	1718.25
611.44	1742.82
611.63	1730.53
611.83	1787.88
612.02	1644.52
612.21	1818.60
612.40	1587.18
612.59	1607.66
612.79	1630.18
612.98	1681.38
613.17	1771.49
613.36	1746.92
613.55	1824.74
613.74	1681.38
613.93	1726.44
614.13	1669.09
614.32	1738.73
614.51	1748.97
614.70	1677.29
614.89	1693.67
615.08	1724.39
615.28	2019.30
615.47	1685.48
615.66	1746.92
615.85	1751.01
616.04	1845.22
616.23	1748.97
616.42	1681.38
616.62	1816.55
616.81	1732.58
617.00	1681.38
617.19	1765.35
617.38	1722.34
617.57	1814.50
617.76	1732.58
617.95	1746.92
618.15	1742.82
618.34	1820.64
618.53	1699.81
618.72	1828.84
618.91	1867.75
619.10	1777.64
619.29	1746.92
619.48	1689.57
619.68	1640.42
619.87	1669.09
620.06	1632.23
620.25	1796.07
620.44	1800.16
620.63	1693.67
620.82	1771.49
621.01	1656.81
621.20	1738.73
621.39	1777.64
621.59	1773.54
621.78	1730.53
621.97	1705.96
622.16	1722.34
622.35	1716.20
622.54	1832.93
622.73	1744.87
622.92	1712.10
623.11	1773.54
623.30	1722.34
623.49	1787.88
623.68	1669.09
623.88	1802.21
624.07	1738.73
624.26	1705.96
624.45	1718.25
624.64	1695.72
624.83	1765.35
625.02	1720.29
625.21	1771.49
625.40	1757.16
625.59	1757.16
625.78	1775.59
625.97	1789.92
626.16	1824.74
626.35	1791.97
626.54	1759.21
626.74	1783.78
626.93	1681.38
627.12	1724.39
627.31	1736.68
627.50	1722.34
627.69	1839.08
627.88	1646.57
628.07	1648.61
628.26	1718.25
628.45	1630.18
628.64	1603.56
628.83	1697.77
629.02	1689.57
629.21	1710.05
629.40	1800.16
629.59	1642.47
629.78	1654.76
629.97	1718.25
630.16	1699.81
630.35	1665.00
630.54	1746.92
630.73	1730.53
630.92	1773.54
631.11	1603.56
631.30	1761.25
631.49	1691.62
631.68	1710.05
631.87	1781.73
632.06	1630.18
632.25	1818.60
632.44	1675.24
632.63	1722.34
632.82	1691.62
633.01	1685.48
633.20	1761.25
633.39	1658.85
633.58	1685.48
633.77	1759.21
633.96	1699.81
634.15	1740.77
634.34	1748.97
634.53	1767.40
634.72	1644.52
634.91	1628.14
635.10	1718.25
635.29	1843.17
635.48	1746.92
635.67	1732.58
635.86	1544.17
636.05	1755.11
636.24	1728.49
636.43	1779.68
636.62	1808.36
636.81	1605.61
637.00	1757.16
637.19	1759.21
637.38	1734.63
637.57	1634.28
637.76	1730.53
637.95	1748.97
638.14	1677.29
638.33	1695.72
638.52	1800.16
638.71	1683.43
638.89	1667.05
639.08	1830.88
639.27	1748.97
639.46	1648.61
639.65	1773.54
639.84	1722.34
640.03	1767.40
640.22	1699.81
640.41	1804.26
640.60	1716.20
640.79	1765.35
640.98	1710.05
641.17	1730.53
641.36	1683.43
641.55	1767.40
641.74	1626.09
641.92	1718.25
642.11	1699.81
642.30	1765.35
642.49	1703.91
642.68	1730.53
642.87	1777.64
643.06	1728.49
643.25	1683.43
643.44	1738.73
643.63	1757.16
643.82	1671.14
644.00	1665.00
644.19	1763.30
644.38	1687.53
644.57	1697.77
644.76	1742.82
644.95	1798.12
645.14	1710.05
645.33	1726.44
645.52	1742.82
645.71	1648.61
645.89	1701.86
646.08	1701.86
646.27	1701.86
646.46	1779.68
646.65	1613.80
646.84	1660.90
647.03	1587.18
647.22	1763.30
647.40	1697.77
647.59	1718.25
647.78	1640.42
647.97	1648.61
648.16	1693.67
648.35	1804.26
648.54	1779.68
648.73	1712.10
648.91	1800.16
649.10	1755.11
649.29	1724.39
649.48	1673.19
649.67	1619.94
649.86	1730.53
650.05	1605.61
650.23	1710.05
650.42	1648.61
650.61	1746.92
650.80	1746.92
650.99	1798.12
651.18	1834.98
651.36	1730.53
651.55	1722.34
651.74	1882.08
651.93	1755.11
652.12	1632.23
652.31	1695.72
652.49	1748.97
652.68	1708.01
652.87	1810.40
653.06	1695.72
653.25	1810.40
653.44	1730.53
653.62	1816.55
653.81	1695.72
654.00	1765.35
654.19	1789.92
654.38	1884.13
654.56	1773.54
654.75	1763.30
654.94	1726.44
655.13	1693.67
655.32	1712.10
655.51	1722.34
655.69	1697.77
655.88	1808.36
656.07	1675.24
656.26	1744.87
656.45	1677.29
656.63	1724.39
656.82	1701.86
657.01	1814.50
657.20	1619.94
657.38	1755.11
657.57	1642.47
657.76	1656.81
657.95	1738.73
658.14	1677.29
658.32	1767.40
658.51	1624.04
658.70	1701.86
658.89	1718.25
659.08	1687.53
659.26	1748.97
659.45	1746.92
659.64	1689.57
659.83	1720.29
660.01	1884.13
660.20	1689.57
660.39	1769.44
660.58	1521.64
660.76	1738.73
660.95	1628.14
661.14	1644.52
661.33	1662.95
661.51	1769.44
661.70	1705.96
661.89	1773.54
662.08	1712.10
662.26	1665.00
662.45	1640.42
662.64	1853.41
662.83	1771.49
663.01	1691.62
663.20	1642.47
663.39	1802.21
663.58	1597.42
663.76	1648.61
663.95	1806.31
664.14	1583.08
664.32	1644.52
664.51	1642.47
664.70	1564.65
664.89	1802.21
665.07	1585.13
665.26	1738.73
665.45	1615.85
665.64	1738.73
665.82	1681.38
666.01	1804.26
666.20	1660.90
666.38	1796.07
666.57	1826.79
666.76	2242.53
666.95	4556.73
667.13	10405.73
667.32	15286.04
667.51	17923.82
667.69	19183.32
667.88	17960.69
668.07	12353.35
668.25	9637.74
668.44	8138.63
668.63	7321.49
668.81	7024.53
669.00	6225.82
669.19	5832.62
669.38	5099.44
669.56	4483.00
669.75	4061.12
669.94	3469.26
670.12	2867.16
670.31	2576.34
670.50	2170.85
670.68	2117.60
670.87	1900.52
671.06	1740.77
671.24	1781.73
671.43	1781.73
671.62	1779.68
671.80	1675.24
671.99	1767.40
672.18	1761.25
672.36	1775.59
672.55	1744.87
672.74	1740.77
672.92	1769.44
673.11	1748.97
673.29	1673.19
673.48	1683.43
673.67	1687.53
673.85	1769.44
674.04	1722.34
674.23	1763.30
674.41	1812.45
674.60	1619.94
674.79	1665.00
674.97	1744.87
675.16	1728.49
675.34	1701.86
675.53	1701.86
675.72	1746.92
675.90	1744.87
676.09	1665.00
676.28	1722.34
676.46	1591.27
676.65	1679.33
676.83	1691.62
677.02	1660.90
677.21	1648.61
677.39	1736.68
677.58	1658.85
677.77	1720.29
677.95	1646.57
678.14	1751.01
678.32	1742.82
678.51	1621.99
678.70	1849.32
678.88	1730.53
679.07	1773.54
679.25	1695.72
679.44	1765.35
679.63	1621.99
679.81	1640.42
680.00	1777.64
680.18	1736.68
680.37	1826.79
680.55	1640.42
680.74	1660.90
680.93	1675.24
681.11	1722.34
681.30	1755.11
681.48	1734.63
681.67	1742.82
681.85	1689.57
682.04	1705.96
682.23	1734.63
682.41	1705.96
682.60	1671.14
682.78	1699.81
682.97	1646.57
683.15	1691.62
683.34	1695.72
683.53	1751.01
683.71	1722.34
683.90	1796.07
684.08	1869.80
684.27	1728.49
684.45	1751.01
684.64	1798.12
684.82	1734.63
685.01	1708.01
685.19	1712.10
685.38	1828.84
685.57	1734.63
685.75	1601.51
685.94	1613.80
686.12	1630.18
686.31	1669.09
686.49	1785.83
686.68	1621.99
686.86	1705.96
687.05	1722.34
687.23	1746.92
687.42	1609.70
687.60	1624.04
687.79	1773.54
687.97	1791.97
688.16	1791.97
688.34	1796.07
688.53	1611.75
688.71	1765.35
688.90	1767.40
689.08	1740.77
689.27	1603.56
689.45	1740.77
689.64	1658.85
689.82	1757.16
690.01	1734.63
690.19	1699.81
690.38	1703.91
690.56	1775.59
690.75	1675.24
690.93	1673.19
691.12	1665.00
691.30	1730.53
691.49	1601.51
691.67	1687.53
691.86	1820.64
692.04	1708.01
692.23	1630.18
692.41	1683.43
692.60	1787.88
692.78	1800.16
692.97	1703.91
693.15	1710.05
693.34	1787.88
693.52	1689.57
693.71	1628.14
693.89	1673.19
694.08	1687.53
694.26	1791.97
694.44	1693.67
694.63	1722.34
694.81	1603.56
695.00	1675.24
695.18	1794.02
695.37	1828.84
695.55	1744.87
695.74	1705.96
695.92	1671.14
696.10	1746.92
696.29	1578.98
696.47	1628.14
696.66	1640.42
696.84	1689.57
697.03	1738.73
697.21	1845.22
697.40	2351.07
697.58	1796.07
697.76	1679.33
697.95	1593.32
698.13	1726.44
698.32	1648.61
698.50	1744.87
698.68	1708.01
698.87	1753.06
699.05	1802.21
699.24	1697.77
699.42	1712.10
699.61	1701.86
699.79	1730.53
699.97	1714.15
700.16	1697.77
700.34	1615.85
700.53	1730.53
700.71	1873.89
700.89	1798.12
701.08	1636.33
701.26	1791.97
701.45	2111.46
701.63	1648.61
701.81	1722.34
702.00	1714.15
702.18	1755.11
702.37	1675.24
702.55	1791.97
702.73	1798.12
702.92	1708.01
703.10	1699.81
703.28	1693.67
703.47	1667.05
703.65	1759.21
703.84	1730.53
704.02	1656.81
704.20	1920.99
704.39	1697.77
704.57	1738.73
704.75	1753.06
704.94	1757.16
705.12	1685.48
705.30	1787.88
705.49	2287.58
705.67	4501.44
705.86	9459.57
706.04	12830.52
706.22	14728.99
706.41	15654.67
706.59	14317.35
706.77	9807.72
706.96	7526.29
707.14	6645.66
707.32	6066.08
707.51	5793.70
707.69	4988.85
707.87	4235.20
708.06	3504.07
708.24	2949.08
708.42	2396.12
708.61	2269.15
708.79	1894.37
708.97	1884.13
709.16	1789.92
709.34	1748.97
709.52	1818.60
709.71	1722.34
709.89	1765.35
710.07	1718.25
710.26	1650.66
710.44	1722.34
710.62	1779.68
710.80	1701.86
710.99	1730.53
711.17	1824.74
711.35	1673.19
711.54	1671.14
711.72	1832.93
711.90	1730.53
712.09	1724.39
712.27	1738.73
712.45	1722.34
712.63	1583.08
712.82	1746.92
713.00	1824.74
713.18	1722.34
713.37	1703.91
713.55	1728.49
713.73	1751.01
713.91	1701.86
714.10	1693.67
714.28	1714.15
714.46	1730.53
714.65	1669.09
714.83	1753.06
715.01	1775.59
715.19	1714.15
715.38	1660.90
715.56	1691.62
715.74	1644.52
715.92	1640.42
716.11	1742.82
716.29	1601.51
716.47	1665.00
716.65	1628.14
716.84	1556.46
717.02	1804.26
717.20	1576.94
717.38	1607.66
717.57	1740.77
717.75	1726.44
717.93	1628.14
718.11	1722.34
718.30	1646.57
718.48	1728.49
718.66	1689.57
718.84	1742.82
719.03	1675.24
719.21	1566.70
719.39	1767.40
719.57	1732.58
719.75	1767.40
719.94	1638.38
720.12	1689.57
720.30	1730.53
720.48	1701.86
720.67	1679.33
720.85	1607.66
721.03	1693.67
721.21	1693.67
721.39	1732.58
721.58	1771.49
721.76	1730.53
721.94	1726.44
722.12	1687.53
722.30	1861.60
722.49	1685.48
722.67	1746.92
722.85	1730.53
723.03	1685.48
723.21	1662.95
723.40	1730.53
723.58	1732.58
723.76	1669.09
723.94	1742.82
724.12	1619.94
724.30	1691.62
724.49	1742.82
724.67	1574.89
724.85	1880.04
725.03	1714.15
725.21	1796.07
725.40	1742.82
725.58	1656.81
725.76	1746.92
725.94	1753.06
726.12	1640.42
726.30	1677.29
726.49	1708.01
726.67	1628.14
726.85	1740.77
727.03	1748.97
727.21	2158.56
727.39	2885.59
727.57	3712.97
727.76	4224.96
727.94	4515.77
728.12	4499.39
728.30	3635.14
728.48	3045.33
728.66	2799.57
728.84	2564.06
729.03	2246.62
729.21	2086.88
729.39	2033.63
729.57	1861.60
729.75	1837.03
729.93	1873.89
730.11	1767.40
730.30	1673.19
730.48	1742.82
730.66	1855.46
730.84	1763.30
731.02	1718.25
731.20	1693.67
731.38	1726.44
731.56	1755.11
731.74	1662.95
731.93	1738.73
732.11	1701.86
732.29	1693.67
732.47	1751.01
732.65	1708.01
732.83	1804.26
733.01	1730.53
733.19	1656.81
733.37	1673.19
733.56	1751.01
733.74	1624.04
733.92	1884.13
734.10	1695.72
734.28	1720.29
734.46	1611.75
734.64	1687.53
734.82	1681.38
735.00	1677.29
735.18	1705.96
735.36	1773.54
735.54	1644.52
735.73	1759.21
735.91	1681.38
736.09	1775.59
736.27	1734.63
736.45	1714.15
736.63	1630.18
736.81	1734.63
736.99	1789.92
737.17	1804.26
737.35	1656.81
737.53	1691.62
737.71	1718.25
737.89	1775.59
738.07	1708.01
738.25	1716.20
738.43	1603.56
738.61	1640.42
738.80	1607.66
738.98	1660.90
739.16	1697.77
739.34	1669.09
739.52	1718.25
739.70	1722.34
739.88	1796.07
740.06	1779.68
740.24	1652.71
740.42	1720.29
740.60	1679.33
740.78	1662.95
740.96	1583.08
741.14	1640.42
741.32	1724.39
741.50	1648.61
741.68	1902.56
741.86	1736.68
742.04	1603.56
742.22	1675.24
742.40	1685.48
742.58	1687.53
742.76	1634.28
742.94	1794.02
743.12	1640.42
743.30	1701.86
743.48	1763.30
743.66	1609.70
743.84	1775.59
744.02	1710.05
744.20	1726.44
744.38	1650.66
744.56	1669.09
744.74	1775.59
744.92	1742.82
745.10	1861.60
745.28	1814.50
745.46	1798.12
745.64	1740.77
745.82	1724.39
746.00	1699.81
746.18	1746.92
746.36	1644.52
746.54	1691.62
746.72	1693.67
746.90	1701.86
747.08	1783.78
747.26	1673.19
747.44	1728.49
747.62	1697.77
747.80	1812.45
747.98	1763.30
748.15	1710.05
748.33	1824.74
748.51	1621.99
748.69	1716.20
748.87	1626.09
749.05	1734.63
749.23	1697.77
749.41	1669.09
749.59	1744.87
749.77	1746.92
749.95	1628.14
750.13	1697.77
750.31	1765.35
750.49	1593.32
750.67	1763.30
750.85	1783.78
751.03	1689.57
751.20	1773.54
751.38	1681.38
751.56	1683.43
751.74	1644.52
751.92	1636.33
752.10	1746.92
752.28	1769.44
752.46	1642.47
752.64	1658.85
752.82	1705.96
753.00	1767.40
753.18	1673.19
753.35	1675.24
753.53	1665.00
753.71	1675.24
753.89	1695.72
754.07	1683.43
754.25	1691.62
754.43	1757.16
754.61	1656.81
754.79	1708.01
754.97	1650.66
755.14	1816.55
755.32	1646.57
755.50	1744.87
755.68	1724.39
755.86	1662.95
756.04	1687.53
756.22	1619.94
756.40	1746.92
756.57	1791.97
756.75	1662.95
756.93	1720.29
757.11	1808.36
757.29	1660.90
757.47	1689.57
757.65	1597.42
757.82	1533.93
758.00	1705.96
758.18	1697.77
758.36	1675.24
758.54	1755.11
758.72	1642.47
758.90	1736.68
759.07	1771.49
759.25	1568.74
759.43	1779.68
759.61	1636.33
759.79	2156.51
759.97	1740.77
760.15	1681.38
760.32	1595.37
760.50	1650.66
760.68	1763.30
760.86	1695.72
761.04	1816.55
761.22	1761.25
761.39	1673.19
761.57	1697.77
761.75	1644.52
761.93	1726.44
762.11	1714.15
762.28	1722.34
762.46	1689.57
762.64	1728.49
762.82	1636.33
763.00	1648.61
763.18	1763.30
763.35	1626.09
763.53	1697.77
763.71	1701.86
763.89	1779.68
764.07	1621.99
764.24	1736.68
764.42	1712.10
764.60	1677.29
764.78	1761.25
764.96	1791.97
765.13	1841.12
765.31	1744.87
765.49	1691.62
765.67	1660.90
765.84	1697.77
766.02	1607.66
766.20	1677.29
766.38	1730.53
766.56	1748.97
766.73	1767.40
766.91	1695.72
767.09	1691.62
767.27	1687.53
767.44	1626.09
767.62	1740.77
767.80	1669.09
767.98	1562.60
768.15	1667.05
768.33	1787.88
768.51	1708.01
768.69	1755.11
768.87	1732.58
769.04	1652.71
769.22	1779.68
769.40	1775.59
769.58	1880.04
769.75	1720.29
769.93	1783.78
770.11	1652.71
770.28	1660.90
770.46	1759.21
770.64	1677.29
770.82	1658.85
770.99	1621.99
771.17	1699.81
771.35	1667.05
771.53	1708.01
771.70	1609.70
771.88	1767.40
772.06	1638.38
772.23	1609.70
772.41	1742.82
772.59	1695.72
772.77	1673.19
772.94	1648.61
773.12	1609.70
773.30	1720.29
773.47	1671.14
773.65	1669.09
773.83	1783.78
774.01	1695.72
774.18	1509.35
774.36	1726.44
774.54	1603.56
774.71	1652.71
774.89	1650.66
775.07	1665.00
775.24	1681.38
775.42	1632.23
775.60	1765.35
775.78	1660.90
775.95	1656.81
776.13	1662.95
776.31	1652.71
776.48	1667.05
776.66	1740.77
776.84	1673.19
777.01	1710.05
777.19	1648.61
777.37	1695.72
777.54	1708.01
777.72	1787.88
777.90	1673.19
778.07	1703.91
778.25	1910.75
778.43	1753.06
778.60	1714.15
778.78	1701.86
778.96	1806.31
779.13	1673.19
779.31	1800.16
779.49	1744.87
779.66	1687.53
779.84	1619.94
780.01	1660.90
780.19	1576.94
780.37	1796.07
780.54	1767.40
780.72	1710.05
780.90	1718.25
781.07	1738.73
781.25	1701.86
781.43	1837.03
781.60	1636.33
781.78	1636.33
781.95	1701.86
782.13	1517.54
782.31	1718.25
782.48	1628.14
782.66	1665.00
782.83	1796.07
783.01	1716.20
783.19	1716.20
783.36	1763.30
783.54	1638.38
783.72	1814.50
783.89	1677.29
784.07	1703.91
784.24	1644.52
784.42	1822.69
784.60	1720.29
784.77	1748.97
784.95	1624.04
785.12	1640.42
785.30	1714.15
785.47	1619.94
785.65	1697.77
785.83	1708.01
786.00	1613.80
786.18	1654.76
786.35	1570.79
786.53	1609.70
786.71	1734.63
786.88	1718.25
787.06	1751.01
787.23	1665.00
787.41	1677.29
787.58	1685.48
787.76	1642.47
787.94	1722.34
788.11	1767.40
788.29	1675.24
788.46	1671.14
788.64	1705.96
788.81	1669.09
788.99	1677.29
789.16	1611.75
789.34	1593.32
789.52	1695.72
789.69	1685.48
789.87	1574.89
790.04	1677.29
790.22	1718.25
790.39	1787.88
790.57	1701.86
790.74	1644.52
790.92	1718.25
791.09	1642.47
791.27	1726.44
791.44	1781.73
791.62	1714.15
791.79	1665.00
791.97	1730.53
792.15	1810.40
792.32	1734.63
792.50	1712.10
792.67	1767.40
792.85	1767.40
793.02	1654.76
793.20	1726.44
793.37	1636.33
793.55	1761.25
793.72	1671.14
793.90	1785.83
794.07	1669.09
794.25	1667.05
794.42	1673.19
794.60	1779.68
794.77	1683.43
794.95	1693.67
795.12	1708.01
795.30	1652.71
795.47	1558.50
795.65	1867.75
795.82	1714.15
796.00	1636.33
796.17	1705.96
796.34	1681.38
796.52	1654.76
796.69	1736.68
796.87	1738.73
797.04	1675.24
797.22	1683.43
797.39	1652.71
797.57	1710.05
797.74	1673.19
797.92	1699.81
798.09	1710.05
798.27	1726.44
798.44	1722.34
798.62	1638.38
798.79	1761.25
798.96	1794.02
799.14	1726.44
799.31	1841.12
799.49	1599.46
799.66	1705.96
799.84	1771.49
800.01	1517.54
800.19	1738.73
800.36	1570.79
800.53	1714.15
800.71	1699.81
800.88	1751.01
801.06	1716.20
801.23	1677.29
801.41	1667.05
801.58	1642.47
801.75	1691.62
801.93	1748.97
802.10	1679.33
802.28	1691.62
802.45	1714.15
802.63	1703.91
802.80	1742.82
802.97	1671.14
803.15	1708.01
803.32	1665.00
803.50	1626.09
803.67	1578.98
803.84	1597.42
804.02	1755.11
804.19	1634.28
804.37	1652.71
804.54	1640.42
804.71	1689.57
804.89	1695.72
805.06	1640.42
805.24	1632.23
805.41	1589.22
805.58	1619.94
805.76	1783.78
805.93	1716.20
806.10	1806.31
806.28	1685.48
806.45	1773.54
806.63	1673.19
806.80	1714.15
806.97	1697.77
807.15	1720.29
807.32	1724.39
807.49	1748.97
807.67	1642.47
807.84	1691.62
808.01	1654.76
808.19	1800.16
808.36	1867.75
808.54	1675.24
808.71	1665.00
808.88	1703.91
809.06	1675.24
809.23	1746.92
809.40	1716.20
809.58	1728.49
809.75	1683.43
809.92	1691.62
810.10	1806.31
810.27	1650.66
810.44	1697.77
810.62	1755.11
810.79	1728.49
810.96	1652.71
811.14	1656.81
811.31	1789.92
811.48	1763.30
811.66	1669.09
811.83	1808.36
812.00	1804.26
812.18	1736.68
812.35	1763.30
812.52	1673.19
812.69	1662.95
812.87	1652.71
813.04	1611.75
813.21	1746.92
813.39	1712.10
813.56	1652.71
813.73	1789.92
813.91	1673.19
814.08	1689.57
814.25	1724.39
814.42	1654.76
814.60	1685.48
814.77	1728.49
814.94	1654.76
815.12	1730.53
815.29	1812.45
815.46	1617.90
815.63	1689.57
815.81	1656.81
815.98	1658.85
816.15	1722.34
816.33	1746.92
816.50	1683.43
816.67	1640.42
816.84	1665.00
817.02	1671.14
817.19	1695.72
817.36	1687.53
817.53	1640.42
817.71	1669.09
817.88	1796.07
818.05	1673.19
818.22	1636.33
818.40	1732.58
818.57	1615.85
818.74	1656.81
818.91	1648.61
819.09	1695.72
819.26	1724.39
819.43	1626.09
819.60	1656.81
819.78	1742.82
819.95	1804.26
820.12	1683.43
820.29	1746.92
820.47	1675.24
820.64	1699.81
820.81	1603.56
820.98	1640.42
821.15	1646.57
821.33	1720.29
821.50	1615.85
821.67	1689.57
821.84	1646.57
822.02	1718.25
822.19	1757.16
822.36	1736.68
822.53	1669.09
822.70	1703.91
822.88	1650.66
823.05	1779.68
823.22	1714.15
823.39	1712.10
823.56	1685.48
823.74	1761.25
823.91	1611.75
824.08	1738.73
824.25	1591.27
824.42	1855.46
824.60	1675.24
824.77	1722.34
824.94	1697.77
825.11	1728.49
825.28	1605.61
825.45	1716.20
825.63	1626.09
825.80	1599.46
825.97	1712.10
826.14	1693.67
826.31	1603.56
826.48	1751.01
826.66	1656.81
826.83	1703.91
827.00	1671.14
827.17	1660.90
827.34	1716.20
827.51	1689.57
827.69	1687.53
827.86	1595.37
828.03	1734.63
828.20	1757.16
828.37	1648.61
828.54	1765.35
828.71	1607.66
828.89	1746.92
829.06	1677.29
829.23	1779.68
829.40	1662.95
829.57	1665.00
829.74	1656.81
829.91	1630.18
830.09	1656.81
830.26	1703.91
830.43	1767.40
830.60	1665.00
830.77	1712.10
830.94	1716.20
831.11	1740.77
831.28	1660.90
831.46	1744.87
831.63	1728.49
831.80	1697.77
831.97	1566.70
832.14	1628.14
832.31	1814.50
832.48	1636.33
832.65	1720.29
832.82	1642.47
832.99	1681.38
833.17	1673.19
833.34	1769.44
833.51	1775.59
833.68	1650.66
833.85	1701.86
834.02	1720.29
834.19	1621.99
834.36	1634.28
834.53	1693.67
834.70	1718.25
834.87	1736.68
835.04	1669.09
835.22	1722.34
835.39	1660.90
835.56	1636.33
835.73	1669.09
835.90	1742.82
836.07	1669.09
836.24	1769.44
836.41	1699.81
836.58	1675.24
836.75	1724.39
836.92	1695.72
837.09	1734.63
837.26	1765.35
837.43	1710.05
837.60	1708.01
837.77	1691.62
837.94	1818.60
838.12	1779.68
838.29	1738.73
838.46	1677.29
838.63	1603.56
838.80	1851.36
838.97	1732.58
839.14	1697.77
839.31	1667.05
839.48	1722.34
839.65	1611.75
839.82	1708.01
839.99	1695.72
840.16	1675.24
840.33	1646.57
840.50	1691.62
840.67	1636.33
840.84	1589.22
841.01	1705.96
841.18	1669.09
841.35	1593.32
841.52	1677.29
841.69	1753.06
841.86	1779.68
842.03	1724.39
842.20	1767.40
842.37	1718.25
842.54	1644.52
842.71	1755.11
842.88	1613.80
843.05	1761.25
843.22	1720.29
843.39	1767.40
843.56	1703.91
843.73	1736.68
843.90	1679.33
844.07	1699.81
844.24	1744.87
844.41	1751.01
844.58	1615.85
844.75	1697.77
844.92	1730.53
845.09	1701.86
845.26	1591.27
845.43	1738.73
845.60	1691.62
845.77	1728.49
845.94	1710.05
846.10	1681.38
846.27	1609.70
846.44	1578.98
846.61	1648.61
846.78	1794.02
846.95	1785.83
847.12	1703.91
847.29	1617.90
847.46	1607.66
847.63	1769.44
847.80	1607.66
847.97	1617.90
848.14	1832.93
848.31	1632.23
848.48	1640.42
848.65	1732.58
848.82	1697.77
848.98	1843.17
849.15	1779.68
849.32	1773.54
849.49	1701.86
849.66	1626.09
849.83	1681.38
850.00	1652.71
850.17	1722.34
850.34	1689.57
850.51	1611.75
850.68	1718.25
850.85	1841.12
851.01	1652.71
851.18	1710.05
851.35	1626.09
851.52	1679.33
851.69	1804.26
851.86	1695.72
852.03	1746.92
852.20	1751.01
852.37	1701.86
852.53	1654.76
852.70	1708.01
852.87	1755.11
853.04	1753.06
853.21	1673.19
853.38	1843.17
853.55	1755.11
853.72	1712.10
853.89	1673.19
854.05	1662.95
854.22	1671.14
854.39	1642.47
854.56	1722.34
854.73	1744.87
854.90	1693.67
855.07	1665.00
855.23	1675.24
855.40	1697.77
855.57	1621.99
855.74	1589.22
855.91	1904.61
856.08	1638.38
856.25	1710.05
856.41	1705.96
856.58	1638.38
856.75	1693.67
856.92	1681.38
857.09	1765.35
857.26	1640.42
857.42	1753.06
857.59	1716.20
857.76	1650.66
857.93	1746.92
858.10	1722.34
858.27	1609.70
858.43	1742.82
858.60	1581.03
858.77	1671.14
858.94	1638.38
859.11	1785.83
859.27	1658.85
859.44	1685.48
859.61	1779.68
859.78	1710.05
859.95	1718.25
860.12	1634.28
860.28	1839.08
860.45	1820.64
860.62	1656.81
860.79	1736.68
860.95	1695.72
861.12	1689.57
861.29	1665.00
861.46	1683.43
861.63	1648.61
861.79	1679.33
861.96	1605.61
862.13	1646.57
862.30	1761.25
862.47	1648.61
862.63	1693.67
862.80	1759.21
862.97	1800.16
863.14	1710.05
863.30	1701.86
863.47	1660.90
863.64	1785.83
863.81	1669.09
863.97	1599.46
864.14	1697.77
864.31	1728.49
864.48	1693.67
864.65	1613.80
864.81	1662.95
864.98	1683.43
865.15	1691.62
865.32	1705.96
865.48	1763.30
865.65	1720.29
865.82	1656.81
865.98	1710.05
866.15	1812.45
866.32	1714.15
866.49	1632.23
866.65	1800.16
866.82	1589.22
866.99	1662.95
867.16	1619.94
867.32	1701.86
867.49	1751.01
867.66	1693.67
867.83	1665.00
867.99	1554.41
868.16	1683.43
868.33	1687.53
868.49	1728.49
868.66	1607.66
868.83	1720.29
868.99	1716.20
869.16	1742.82
869.33	1658.85
869.50	1710.05
869.66	1763.30
869.83	1769.44
870.00	1656.81
870.16	1732.58
870.33	1687.53
870.50	1761.25
870.66	1716.20
870.83	1839.08
871.00	1783.78
871.17	1751.01
871.33	1757.16
871.50	1742.82
871.67	1748.97
871.83	1695.72
872.00	1800.16
872.17	1714.15
872.33	1781.73
872.50	1736.68
872.67	1642.47
872.83	1611.75
873.00	1722.34
873.17	1679.33
873.33	1742.82
873.50	1730.53
873.67	1626.09
873.83	1691.62
874.00	1724.39
874.16	1746.92
874.33	1718.25
874.50	1689.57
874.66	1693.67
874.83	1644.52
875.00	1636.33
875.16	1697.77
875.33	1763.30
875.50	1558.50
875.66	1667.05
875.83	1718.25
875.99	1779.68
876.16	1699.81
876.33	1652.71
876.49	1685.48
876.66	1722.34
876.83	1701.86
876.99	1617.90
877.16	1669.09
877.32	1681.38
877.49	1640.42
877.66	1765.35
877.82	1814.50
877.99	1640.42
878.15	1800.16
878.32	1716.20
878.49	1667.05
878.65	1716.20
878.82	1791.97
878.98	1621.99
879.15	1798.12
879.32	1742.82
879.48	1734.63
879.65	1701.86
879.81	1660.90
879.98	1611.75
880.15	1640.42
880.31	1730.53
880.48	1601.51
880.64	1814.50
880.81	1755.11
880.97	1812.45
881.14	1753.06
881.31	1669.09
881.47	1812.45
881.64	1720.29
881.80	1626.09
881.97	1716.20
882.13	1814.50
882.30	1621.99
882.47	1701.86
882.63	1599.46
882.80	1716.20
882.96	1636.33
883.13	1757.16
883.29	1714.15
883.46	1742.82
883.62	1837.03
883.79	1703.91
883.95	1773.54
884.12	1667.05
884.29	1726.44
884.45	1791.97
884.62	1771.49
884.78	1595.37
884.95	1724.39
885.11	1640.42
885.28	1710.05
885.44	1734.63
885.61	1687.53
885.77	1761.25
885.94	1779.68
886.10	1689.57
886.27	1710.05
886.43	1789.92
886.60	1734.63
886.76	1630.18
886.93	1687.53
887.09	1681.38
887.26	1626.09
887.42	1728.49
887.59	1695.72
887.75	1757.16
887.92	1744.87
888.08	1728.49
888.25	1720.29
888.41	1759.21
888.58	1691.62
888.74	1628.14
888.91	1626.09
>>>>>End Processed Spectral Data<<<<<
