SpectraSuite Data File
++++++++++++++++++++++++++++++++++++
Date: Mon Jun 06 14:39:57 CEST 2016
User: root
Dark Spectrum Present: No
Reference Spectrum Present: No
Number of Sampled Component Spectra: 1
Spectrometers: USB4C02835
Integration Time (usec): 100000 (USB4C02835)
Spectra Averaged: 1 (USB4C02835)
Boxcar Smoothing: 0 (USB4C02835)
Correct for Electrical Dark: No (USB4C02835)
Strobe/Lamp Enabled: No (USB4C02835)
Correct for Detector Non-linearity: No (USB4C02835)
Correct for Stray Light: No (USB4C02835)
Number of Pixels in Processed Spectrum: 3648
>>>>>Begin Processed Spectral Data<<<<<
177.47	1478.63
177.69	1478.63
177.91	1478.63
178.13	1384.43
178.36	1396.71
178.58	1658.85
178.80	1701.86
179.02	1667.05
179.24	1609.70
179.46	1716.20
179.68	1730.53
179.90	1685.48
180.13	1720.29
180.35	1652.71
180.57	1771.49
180.79	1732.58
181.01	1687.53
181.23	1847.27
181.45	1765.35
181.67	1695.72
181.90	1689.57
182.12	1628.14
182.34	1619.94
182.56	1775.59
182.78	1714.15
183.00	1724.39
183.22	1724.39
183.44	1613.80
183.66	1873.89
183.89	1751.01
184.11	1730.53
184.33	1730.53
184.55	1724.39
184.77	1699.81
184.99	1736.68
185.21	1675.24
185.43	1783.78
185.65	1697.77
185.87	1691.62
186.10	1841.12
186.32	1783.78
186.54	1779.68
186.76	1699.81
186.98	1736.68
187.20	1701.86
187.42	1767.40
187.64	1705.96
187.86	1646.57
188.08	1705.96
188.30	1679.33
188.52	1697.77
188.75	1824.74
188.97	1685.48
189.19	1607.66
189.41	1611.75
189.63	1734.63
189.85	1695.72
190.07	1574.89
190.29	1572.84
190.51	1693.67
190.73	1595.37
190.95	1755.11
191.17	1708.01
191.39	1646.57
191.61	1671.14
191.84	1646.57
192.06	1724.39
192.28	1621.99
192.50	1837.03
192.72	1742.82
192.94	1746.92
193.16	1736.68
193.38	1773.54
193.60	1671.14
193.82	1677.29
194.04	1728.49
194.26	1701.86
194.48	1710.05
194.70	1675.24
194.92	1718.25
195.14	1671.14
195.36	1705.96
195.58	1685.48
195.80	1757.16
196.02	1656.81
196.24	1660.90
196.46	1730.53
196.69	1697.77
196.91	1837.03
197.13	1736.68
197.35	1689.57
197.57	1796.07
197.79	1679.33
198.01	1630.18
198.23	1804.26
198.45	1714.15
198.67	1574.89
198.89	1660.90
199.11	1720.29
199.33	1677.29
199.55	1587.18
199.77	1734.63
199.99	1748.97
200.21	1716.20
200.43	1722.34
200.65	1638.38
200.87	1527.78
201.09	1740.77
201.31	1648.61
201.53	1689.57
201.75	1675.24
201.97	1720.29
202.19	1722.34
202.41	1716.20
202.63	1761.25
202.85	1703.91
203.07	1703.91
203.29	1722.34
203.51	1609.70
203.73	1705.96
203.95	1857.51
204.17	1775.59
204.39	1787.88
204.61	1644.52
204.83	1628.14
205.05	1710.05
205.27	1834.98
205.49	1753.06
205.71	1693.67
205.93	1677.29
206.15	1746.92
206.37	1665.00
206.59	1673.19
206.81	1683.43
207.03	1691.62
207.25	1654.76
207.47	1732.58
207.69	1705.96
207.91	1796.07
208.13	1810.40
208.34	1644.52
208.56	1630.18
208.78	1669.09
209.00	1632.23
209.22	1685.48
209.44	1667.05
209.66	1644.52
209.88	1722.34
210.10	1673.19
210.32	1681.38
210.54	1710.05
210.76	1665.00
210.98	1828.84
211.20	1593.32
211.42	1726.44
211.64	1781.73
211.86	1671.14
212.08	1677.29
212.30	1732.58
212.52	1726.44
212.74	1697.77
212.96	1650.66
213.17	1681.38
213.39	1695.72
213.61	1843.17
213.83	1658.85
214.05	1695.72
214.27	1779.68
214.49	1636.33
214.71	1658.85
214.93	1773.54
215.15	1783.78
215.37	1753.06
215.59	1648.61
215.81	1722.34
216.03	1802.21
216.24	1751.01
216.46	1644.52
216.68	1751.01
216.90	1812.45
217.12	1755.11
217.34	1751.01
217.56	1693.67
217.78	1773.54
218.00	1724.39
218.22	1730.53
218.44	1732.58
218.66	1740.77
218.87	1808.36
219.09	1632.23
219.31	1671.14
219.53	1671.14
219.75	1675.24
219.97	1634.28
220.19	1773.54
220.41	1708.01
220.63	1746.92
220.85	1767.40
221.06	1722.34
221.28	1789.92
221.50	1720.29
221.72	1613.80
221.94	1720.29
222.16	1689.57
222.38	1722.34
222.60	1724.39
222.82	1705.96
223.03	1679.33
223.25	1640.42
223.47	1712.10
223.69	1822.69
223.91	1689.57
224.13	1675.24
224.35	1695.72
224.57	1714.15
224.78	1691.62
225.00	1648.61
225.22	1695.72
225.44	1695.72
225.66	1759.21
225.88	1701.86
226.10	1767.40
226.32	1765.35
226.53	1732.58
226.75	1632.23
226.97	1697.77
227.19	1675.24
227.41	1718.25
227.63	1677.29
227.85	1640.42
228.06	1746.92
228.28	1703.91
228.50	1726.44
228.72	1611.75
228.94	1708.01
229.16	1628.14
229.37	1671.14
229.59	1626.09
229.81	1693.67
230.03	1601.51
230.25	1662.95
230.47	1673.19
230.69	1658.85
230.90	1771.49
231.12	1660.90
231.34	1687.53
231.56	1759.21
231.78	1650.66
232.00	1689.57
232.21	1771.49
232.43	1726.44
232.65	1589.22
232.87	1734.63
233.09	1703.91
233.30	1644.52
233.52	1693.67
233.74	1705.96
233.96	1681.38
234.18	1738.73
234.40	1734.63
234.61	1798.12
234.83	1658.85
235.05	1619.94
235.27	1771.49
235.49	1779.68
235.70	1751.01
235.92	1769.44
236.14	1685.48
236.36	1802.21
236.58	1613.80
236.79	1794.02
237.01	1714.15
237.23	1732.58
237.45	1751.01
237.67	1705.96
237.88	1687.53
238.10	1810.40
238.32	1693.67
238.54	1648.61
238.76	1697.77
238.97	1671.14
239.19	1654.76
239.41	1757.16
239.63	1738.73
239.85	1665.00
240.06	1667.05
240.28	1689.57
240.50	1732.58
240.72	1691.62
240.93	1652.71
241.15	1861.60
241.37	1697.77
241.59	1796.07
241.81	1697.77
242.02	1658.85
242.24	1681.38
242.46	1738.73
242.68	1705.96
242.89	1783.78
243.11	1726.44
243.33	1695.72
243.55	1716.20
243.76	1732.58
243.98	1732.58
244.20	1599.46
244.42	1751.01
244.64	1810.40
244.85	1658.85
245.07	1669.09
245.29	1703.91
245.51	1693.67
245.72	1675.24
245.94	1724.39
246.16	1755.11
246.38	1716.20
246.59	1613.80
246.81	1632.23
247.03	1748.97
247.24	1665.00
247.46	1658.85
247.68	1779.68
247.90	1685.48
248.11	1650.66
248.33	1806.31
248.55	1638.38
248.77	1763.30
248.98	1708.01
249.20	1812.45
249.42	1656.81
249.64	1740.77
249.85	1718.25
250.07	1587.18
250.29	1697.77
250.50	1679.33
250.72	1615.85
250.94	1765.35
251.16	1849.32
251.37	1751.01
251.59	1714.15
251.81	1783.78
252.02	1816.55
252.24	1605.61
252.46	1767.40
252.68	1695.72
252.89	1689.57
253.11	1693.67
253.33	1830.88
253.54	1734.63
253.76	1607.66
253.98	1619.94
254.20	1650.66
254.41	1636.33
254.63	1714.15
254.85	1654.76
255.06	1720.29
255.28	1701.86
255.50	1705.96
255.71	1648.61
255.93	1595.37
256.15	1671.14
256.36	1734.63
256.58	1718.25
256.80	1685.48
257.02	1718.25
257.23	1738.73
257.45	1720.29
257.67	1689.57
257.88	1667.05
258.10	1769.44
258.32	1675.24
258.53	1673.19
258.75	1865.70
258.97	1726.44
259.18	1691.62
259.40	1697.77
259.62	1710.05
259.83	1773.54
260.05	1820.64
260.27	1943.52
260.48	1720.29
260.70	1687.53
260.92	1728.49
261.13	1740.77
261.35	1783.78
261.57	1693.67
261.78	1632.23
262.00	1566.70
262.22	1742.82
262.43	1634.28
262.65	1710.05
262.86	1710.05
263.08	1888.23
263.30	1755.11
263.51	1570.79
263.73	1718.25
263.95	1732.58
264.16	1642.47
264.38	1683.43
264.60	1701.86
264.81	1628.14
265.03	1746.92
265.25	1759.21
265.46	1691.62
265.68	1736.68
265.89	1708.01
266.11	1570.79
266.33	1714.15
266.54	1822.69
266.76	1783.78
266.98	1718.25
267.19	1763.30
267.41	1712.10
267.62	1681.38
267.84	1605.61
268.06	1769.44
268.27	1699.81
268.49	1796.07
268.70	1697.77
268.92	1734.63
269.14	1656.81
269.35	1667.05
269.57	1744.87
269.79	1822.69
270.00	1703.91
270.22	1714.15
270.43	1681.38
270.65	1615.85
270.87	1712.10
271.08	1726.44
271.30	1767.40
271.51	1714.15
271.73	1710.05
271.95	1785.83
272.16	1656.81
272.38	1722.34
272.59	1669.09
272.81	1675.24
273.02	1759.21
273.24	1785.83
273.46	1699.81
273.67	1587.18
273.89	1634.28
274.10	1681.38
274.32	1773.54
274.54	1783.78
274.75	1746.92
274.97	1689.57
275.18	1783.78
275.40	1669.09
275.61	1650.66
275.83	1734.63
276.05	1597.42
276.26	1681.38
276.48	1705.96
276.69	1642.47
276.91	1722.34
277.12	1771.49
277.34	1814.50
277.55	1769.44
277.77	1669.09
277.99	1712.10
278.20	1681.38
278.42	1654.76
278.63	1607.66
278.85	1626.09
279.06	1599.46
279.28	1765.35
279.49	1710.05
279.71	1648.61
279.93	1699.81
280.14	1621.99
280.36	1681.38
280.57	1724.39
280.79	1748.97
281.00	1669.09
281.22	1628.14
281.43	1701.86
281.65	1619.94
281.86	1656.81
282.08	1738.73
282.29	1830.88
282.51	1630.18
282.73	1560.55
282.94	1595.37
283.16	1691.62
283.37	1861.60
283.59	1673.19
283.80	1757.16
284.02	1677.29
284.23	1755.11
284.45	1710.05
284.66	1669.09
284.88	1710.05
285.09	1714.15
285.31	1679.33
285.52	1763.30
285.74	1621.99
285.95	1755.11
286.17	1765.35
286.38	1800.16
286.60	1669.09
286.81	1646.57
287.03	1673.19
287.24	1671.14
287.46	1769.44
287.67	1699.81
287.89	1806.31
288.10	1662.95
288.32	1730.53
288.53	1777.64
288.75	1665.00
288.96	1800.16
289.18	1722.34
289.39	1720.29
289.61	1708.01
289.82	1869.80
290.04	1755.11
290.25	1591.27
290.47	1630.18
290.68	1763.30
290.90	1755.11
291.11	1583.08
291.33	1763.30
291.54	1722.34
291.76	1642.47
291.97	1689.57
292.18	1716.20
292.40	1638.38
292.61	1738.73
292.83	1812.45
293.04	1755.11
293.26	1708.01
293.47	1628.14
293.69	1677.29
293.90	1718.25
294.12	1687.53
294.33	1769.44
294.55	1730.53
294.76	1812.45
294.97	1820.64
295.19	1902.56
295.40	1697.77
295.62	1755.11
295.83	1804.26
296.05	1611.75
296.26	1826.79
296.48	1705.96
296.69	1757.16
296.90	1716.20
297.12	1697.77
297.33	1798.12
297.55	1728.49
297.76	1705.96
297.98	1753.06
298.19	1675.24
298.41	1699.81
298.62	1718.25
298.83	1755.11
299.05	1724.39
299.26	1681.38
299.48	1669.09
299.69	1742.82
299.90	1673.19
300.12	1636.33
300.33	1730.53
300.55	1738.73
300.76	1718.25
300.98	1607.66
301.19	1759.21
301.40	1677.29
301.62	1720.29
301.83	1718.25
302.05	1724.39
302.26	1703.91
302.47	1681.38
302.69	1716.20
302.90	1703.91
303.12	1634.28
303.33	1712.10
303.54	1779.68
303.76	1640.42
303.97	1654.76
304.19	1740.77
304.40	1640.42
304.61	1714.15
304.83	1771.49
305.04	1777.64
305.26	1691.62
305.47	1687.53
305.68	1724.39
305.90	1589.22
306.11	1685.48
306.33	1695.72
306.54	1712.10
306.75	1593.32
306.97	1695.72
307.18	1679.33
307.39	1716.20
307.61	1746.92
307.82	1652.71
308.04	1802.21
308.25	1675.24
308.46	1705.96
308.68	1687.53
308.89	1744.87
309.10	1787.88
309.32	1767.40
309.53	1746.92
309.74	1601.51
309.96	1646.57
310.17	1794.02
310.39	1736.68
310.60	1650.66
310.81	1652.71
311.03	1613.80
311.24	1720.29
311.45	1771.49
311.67	1787.88
311.88	1687.53
312.09	1667.05
312.31	1679.33
312.52	1621.99
312.73	1718.25
312.95	1658.85
313.16	1677.29
313.37	1787.88
313.59	1714.15
313.80	1687.53
314.01	1740.77
314.23	1630.18
314.44	1662.95
314.65	1630.18
314.87	1705.96
315.08	1734.63
315.29	1642.47
315.51	1701.86
315.72	1681.38
315.93	1728.49
316.15	1794.02
316.36	1595.37
316.57	1673.19
316.79	1677.29
317.00	1705.96
317.21	1714.15
317.43	1667.05
317.64	1738.73
317.85	1724.39
318.07	1630.18
318.28	1773.54
318.49	1810.40
318.70	1851.36
318.92	1808.36
319.13	1824.74
319.34	1867.75
319.56	1759.21
319.77	1789.92
319.98	1761.25
320.20	1751.01
320.41	1800.16
320.62	1740.77
320.83	1632.23
321.05	1822.69
321.26	1812.45
321.47	1673.19
321.69	1716.20
321.90	1621.99
322.11	1656.81
322.32	1699.81
322.54	1865.70
322.75	1705.96
322.96	1810.40
323.18	1642.47
323.39	1603.56
323.60	1599.46
323.81	1679.33
324.03	1701.86
324.24	1677.29
324.45	1726.44
324.66	1564.65
324.88	1755.11
325.09	1826.79
325.30	1648.61
325.52	1742.82
325.73	1761.25
325.94	1656.81
326.15	1587.18
326.37	1656.81
326.58	1763.30
326.79	1845.22
327.00	1642.47
327.22	1802.21
327.43	1648.61
327.64	1615.85
327.85	1650.66
328.07	1634.28
328.28	1812.45
328.49	1617.90
328.70	1665.00
328.92	1701.86
329.13	1779.68
329.34	1728.49
329.55	1757.16
329.76	1732.58
329.98	1691.62
330.19	1763.30
330.40	1662.95
330.61	1738.73
330.83	1677.29
331.04	1611.75
331.25	1730.53
331.46	1736.68
331.68	1687.53
331.89	1693.67
332.10	1708.01
332.31	1599.46
332.52	1626.09
332.74	1738.73
332.95	1673.19
333.16	1634.28
333.37	1714.15
333.58	1619.94
333.80	1757.16
334.01	1640.42
334.22	1628.14
334.43	1640.42
334.64	1671.14
334.86	1648.61
335.07	1665.00
335.28	1699.81
335.49	1669.09
335.70	1675.24
335.92	1658.85
336.13	1787.88
336.34	1685.48
336.55	1708.01
336.76	1730.53
336.98	1658.85
337.19	1630.18
337.40	1787.88
337.61	1769.44
337.82	1642.47
338.04	1759.21
338.25	1621.99
338.46	1699.81
338.67	1730.53
338.88	1652.71
339.09	1644.52
339.31	1697.77
339.52	1548.26
339.73	1677.29
339.94	1744.87
340.15	1732.58
340.36	1660.90
340.58	1691.62
340.79	1619.94
341.00	1689.57
341.21	1679.33
341.42	1837.03
341.63	1744.87
341.85	1695.72
342.06	1710.05
342.27	1732.58
342.48	1728.49
342.69	1552.36
342.90	1722.34
343.12	1781.73
343.33	1708.01
343.54	1656.81
343.75	1812.45
343.96	1720.29
344.17	1681.38
344.38	1675.24
344.60	1656.81
344.81	1644.52
345.02	1683.43
345.23	1771.49
345.44	1755.11
345.65	1716.20
345.86	1648.61
346.07	1675.24
346.29	1640.42
346.50	1726.44
346.71	1732.58
346.92	1761.25
347.13	1798.12
347.34	1718.25
347.55	1689.57
347.76	1742.82
347.98	1603.56
348.19	1746.92
348.40	1701.86
348.61	1615.85
348.82	1746.92
349.03	1705.96
349.24	1722.34
349.45	1880.04
349.66	1585.13
349.88	1685.48
350.09	1634.28
350.30	1802.21
350.51	1800.16
350.72	1689.57
350.93	1734.63
351.14	1787.88
351.35	1701.86
351.56	1662.95
351.77	1621.99
351.99	1695.72
352.20	1742.82
352.41	1775.59
352.62	1599.46
352.83	1695.72
353.04	1708.01
353.25	1691.62
353.46	1753.06
353.67	1791.97
353.88	1585.13
354.09	1658.85
354.30	1665.00
354.52	1761.25
354.73	1710.05
354.94	1654.76
355.15	1714.15
355.36	1779.68
355.57	1675.24
355.78	1761.25
355.99	1656.81
356.20	1708.01
356.41	1769.44
356.62	1691.62
356.83	1587.18
357.04	1843.17
357.25	1572.84
357.46	1669.09
357.68	1673.19
357.89	1732.58
358.10	1691.62
358.31	1701.86
358.52	1738.73
358.73	1681.38
358.94	1669.09
359.15	1656.81
359.36	1791.97
359.57	1716.20
359.78	1673.19
359.99	1753.06
360.20	1669.09
360.41	1791.97
360.62	1785.83
360.83	1757.16
361.04	1695.72
361.25	1734.63
361.46	1794.02
361.67	1681.38
361.88	1771.49
362.09	1734.63
362.30	1765.35
362.51	1667.05
362.72	1771.49
362.93	1779.68
363.14	1779.68
363.35	1757.16
363.56	1589.22
363.78	1734.63
363.99	1767.40
364.20	1665.00
364.41	1734.63
364.62	1753.06
364.83	1746.92
365.04	1652.71
365.25	1732.58
365.46	1808.36
365.67	1714.15
365.88	1671.14
366.09	1701.86
366.30	1693.67
366.51	1757.16
366.72	1609.70
366.93	1724.39
367.14	1722.34
367.35	1837.03
367.56	1689.57
367.77	1779.68
367.98	1701.86
368.18	1681.38
368.39	1716.20
368.60	1648.61
368.81	1755.11
369.02	1689.57
369.23	1673.19
369.44	1597.42
369.65	1671.14
369.86	1726.44
370.07	1716.20
370.28	1597.42
370.49	1734.63
370.70	1773.54
370.91	1636.33
371.12	1626.09
371.33	1781.73
371.54	1691.62
371.75	1867.75
371.96	1599.46
372.17	1708.01
372.38	1767.40
372.59	1708.01
372.80	1652.71
373.01	1703.91
373.22	1722.34
373.43	1789.92
373.64	1669.09
373.85	1734.63
374.06	1777.64
374.26	1775.59
374.47	1703.91
374.68	1734.63
374.89	1665.00
375.10	1695.72
375.31	1718.25
375.52	1691.62
375.73	1689.57
375.94	1689.57
376.15	1753.06
376.36	1640.42
376.57	1587.18
376.78	1683.43
376.99	1742.82
377.20	1705.96
377.40	1765.35
377.61	1800.16
377.82	1638.38
378.03	1773.54
378.24	1738.73
378.45	1789.92
378.66	1695.72
378.87	1650.66
379.08	1617.90
379.29	1705.96
379.50	1814.50
379.71	1728.49
379.91	1712.10
380.12	1697.77
380.33	1685.48
380.54	1605.61
380.75	1662.95
380.96	1650.66
381.17	1722.34
381.38	1748.97
381.59	1845.22
381.80	1695.72
382.00	1847.27
382.21	1777.64
382.42	1806.31
382.63	1810.40
382.84	1804.26
383.05	1662.95
383.26	1820.64
383.47	1691.62
383.68	1773.54
383.88	1705.96
384.09	1748.97
384.30	1814.50
384.51	1767.40
384.72	1693.67
384.93	1617.90
385.14	1699.81
385.35	1755.11
385.55	1615.85
385.76	1726.44
385.97	1669.09
386.18	1634.28
386.39	1662.95
386.60	1724.39
386.81	1687.53
387.02	1636.33
387.22	1652.71
387.43	1769.44
387.64	1755.11
387.85	1884.13
388.06	2205.66
388.27	4349.89
388.48	6823.83
388.68	8222.59
388.89	9777.00
389.10	9957.22
389.31	8599.42
389.52	7794.57
389.73	6815.64
389.93	6264.74
390.14	5996.45
390.35	5269.42
390.56	4673.46
390.77	3817.41
390.98	3012.56
391.18	2570.20
391.39	2129.89
391.60	1877.99
391.81	1896.42
392.02	1675.24
392.23	1824.74
392.43	1748.97
392.64	1804.26
392.85	1665.00
393.06	1791.97
393.27	1746.92
393.47	1656.81
393.68	1691.62
393.89	1753.06
394.10	1714.15
394.31	1744.87
394.52	1673.19
394.72	1689.57
394.93	1837.03
395.14	1636.33
395.35	1716.20
395.56	1601.51
395.76	1710.05
395.97	1789.92
396.18	1843.17
396.39	1806.31
396.60	2041.82
396.80	1882.08
397.01	1814.50
397.22	1818.60
397.43	1814.50
397.64	1748.97
397.84	1806.31
398.05	1898.47
398.26	1751.01
398.47	1755.11
398.67	1843.17
398.88	1773.54
399.09	1732.58
399.30	1669.09
399.51	1759.21
399.71	1660.90
399.92	1681.38
400.13	1740.77
400.34	1744.87
400.54	1718.25
400.75	1757.16
400.96	1751.01
401.17	1798.12
401.37	1738.73
401.58	1738.73
401.79	1665.00
402.00	1818.60
402.21	2062.30
402.41	2011.11
402.62	1925.09
402.83	2095.07
403.04	2033.63
403.24	2045.92
403.45	1800.16
403.66	1925.09
403.87	1941.47
404.07	1918.95
404.28	1904.61
404.49	1867.75
404.70	1667.05
404.90	1834.98
405.11	1755.11
405.32	1724.39
405.52	1667.05
405.73	1640.42
405.94	1654.76
406.15	1677.29
406.35	1738.73
406.56	1767.40
406.77	1703.91
406.98	1728.49
407.18	1671.14
407.39	1732.58
407.60	1662.95
407.80	1818.60
408.01	1638.38
408.22	1736.68
408.43	1720.29
408.63	1691.62
408.84	1734.63
409.05	1732.58
409.25	1597.42
409.46	1621.99
409.67	1654.76
409.88	1710.05
410.08	1718.25
410.29	1689.57
410.50	1724.39
410.70	1703.91
410.91	1732.58
411.12	1675.24
411.32	1662.95
411.53	1607.66
411.74	1837.03
411.95	1740.77
412.15	1787.88
412.36	1744.87
412.57	1720.29
412.77	1775.59
412.98	1738.73
413.19	1726.44
413.39	1779.68
413.60	1730.53
413.81	1830.88
414.01	1648.61
414.22	1740.77
414.43	1832.93
414.63	1648.61
414.84	1732.58
415.05	1679.33
415.25	1656.81
415.46	1767.40
415.67	1642.47
415.87	1681.38
416.08	1683.43
416.29	1693.67
416.49	1763.30
416.70	1603.56
416.91	1669.09
417.11	1660.90
417.32	1683.43
417.53	1763.30
417.73	1738.73
417.94	1658.85
418.15	1648.61
418.35	1687.53
418.56	1740.77
418.77	1742.82
418.97	1683.43
419.18	1697.77
419.38	1525.74
419.59	1632.23
419.80	1839.08
420.00	1665.00
420.21	1744.87
420.42	1767.40
420.62	1646.57
420.83	1744.87
421.04	1656.81
421.24	1636.33
421.45	1716.20
421.65	1800.16
421.86	1681.38
422.07	1753.06
422.27	1755.11
422.48	1718.25
422.69	1652.71
422.89	1746.92
423.10	1667.05
423.30	1652.71
423.51	1722.34
423.72	1708.01
423.92	1812.45
424.13	1636.33
424.33	1730.53
424.54	1679.33
424.75	1701.86
424.95	1767.40
425.16	1716.20
425.36	1638.38
425.57	1841.12
425.78	1759.21
425.98	1763.30
426.19	1693.67
426.39	1632.23
426.60	1705.96
426.81	1783.78
427.01	1718.25
427.22	1646.57
427.42	1605.61
427.63	1705.96
427.83	1767.40
428.04	1818.60
428.25	1800.16
428.45	1820.64
428.66	1746.92
428.86	1650.66
429.07	1689.57
429.28	1689.57
429.48	1638.38
429.69	1652.71
429.89	1693.67
430.10	1624.04
430.30	1695.72
430.51	1660.90
430.71	1624.04
430.92	1738.73
431.13	1652.71
431.33	1703.91
431.54	1773.54
431.74	1761.25
431.95	1855.46
432.15	1617.90
432.36	1691.62
432.56	1771.49
432.77	1859.56
432.98	1775.59
433.18	1710.05
433.39	1744.87
433.59	1652.71
433.80	1789.92
434.00	1834.98
434.21	1634.28
434.41	1591.27
434.62	1841.12
434.82	1605.61
435.03	1675.24
435.23	1730.53
435.44	1636.33
435.64	1683.43
435.85	1671.14
436.06	1847.27
436.26	1785.83
436.47	1654.76
436.67	1656.81
436.88	1636.33
437.08	1712.10
437.29	1804.26
437.49	1755.11
437.70	1767.40
437.90	1699.81
438.11	1800.16
438.31	1822.69
438.52	1890.28
438.72	1820.64
438.93	1892.32
439.13	1794.02
439.34	1777.64
439.54	1703.91
439.75	1773.54
439.95	1771.49
440.16	1697.77
440.36	1781.73
440.57	1761.25
440.77	1824.74
440.98	1783.78
441.18	1755.11
441.39	1720.29
441.59	1660.90
441.80	1877.99
442.00	1744.87
442.21	1877.99
442.41	1595.37
442.62	1646.57
442.82	1701.86
443.02	1693.67
443.23	1794.02
443.43	1746.92
443.64	1755.11
443.84	1683.43
444.05	1757.16
444.25	1697.77
444.46	1697.77
444.66	1791.97
444.87	1787.88
445.07	1677.29
445.28	1759.21
445.48	1800.16
445.69	1820.64
445.89	1871.84
446.09	1654.76
446.30	2031.58
446.50	2660.31
446.71	3794.89
446.91	4499.39
447.12	4790.20
447.32	4870.07
447.53	4362.17
447.73	3893.19
447.93	3459.02
448.14	3370.96
448.34	3338.19
448.55	2861.01
448.75	2809.81
448.96	2719.70
449.16	2484.19
449.36	2332.64
449.57	1964.00
449.77	1888.23
449.98	1742.82
450.18	1779.68
450.39	1906.66
450.59	1769.44
450.79	1763.30
451.00	1703.91
451.20	1781.73
451.41	1724.39
451.61	1734.63
451.81	1687.53
452.02	1726.44
452.22	1658.85
452.43	1705.96
452.63	1783.78
452.84	1697.77
453.04	1781.73
453.24	1730.53
453.45	1671.14
453.65	1732.58
453.86	1867.75
454.06	1771.49
454.26	1767.40
454.47	1642.47
454.67	1804.26
454.87	1769.44
455.08	1699.81
455.28	1810.40
455.49	1728.49
455.69	1720.29
455.89	1820.64
456.10	1800.16
456.30	1724.39
456.51	1771.49
456.71	1699.81
456.91	1769.44
457.12	1667.05
457.32	1755.11
457.52	1656.81
457.73	1726.44
457.93	1796.07
458.14	1675.24
458.34	1640.42
458.54	1722.34
458.75	1667.05
458.95	1779.68
459.15	1738.73
459.36	1759.21
459.56	1722.34
459.76	1875.94
459.97	1724.39
460.17	1683.43
460.37	1771.49
460.58	1685.48
460.78	1800.16
460.99	1705.96
461.19	1693.67
461.39	1701.86
461.60	1822.69
461.80	1746.92
462.00	1665.00
462.21	1755.11
462.41	1703.91
462.61	1640.42
462.82	1570.79
463.02	1779.68
463.22	1683.43
463.43	1730.53
463.63	1646.57
463.83	1820.64
464.04	1789.92
464.24	1746.92
464.44	1683.43
464.64	1732.58
464.85	1791.97
465.05	1753.06
465.25	1722.34
465.46	1710.05
465.66	1771.49
465.86	1777.64
466.07	1685.48
466.27	1695.72
466.47	1697.77
466.68	1685.48
466.88	1839.08
467.08	1787.88
467.29	1771.49
467.49	1689.57
467.69	1804.26
467.89	1744.87
468.10	1697.77
468.30	1710.05
468.50	1775.59
468.71	1826.79
468.91	1673.19
469.11	1814.50
469.31	1701.86
469.52	1677.29
469.72	1820.64
469.92	1777.64
470.13	1730.53
470.33	1763.30
470.53	1794.02
470.73	2156.51
470.94	2338.78
471.14	2344.92
471.34	2461.66
471.54	2392.03
471.75	2240.48
471.95	2191.33
472.15	2000.87
472.36	2039.78
472.56	2013.15
472.76	1978.34
472.96	2101.22
473.17	1957.86
473.37	1877.99
473.57	1834.98
473.77	1806.31
473.98	1791.97
474.18	1751.01
474.38	1923.04
474.58	1662.95
474.79	1681.38
474.99	1669.09
475.19	1736.68
475.39	1611.75
475.60	1722.34
475.80	1708.01
476.00	1734.63
476.20	1714.15
476.41	1767.40
476.61	1755.11
476.81	1794.02
477.01	1685.48
477.21	1894.37
477.42	1828.84
477.62	1667.05
477.82	1791.97
478.02	1683.43
478.23	1812.45
478.43	1699.81
478.63	1716.20
478.83	1742.82
479.03	1662.95
479.24	1734.63
479.44	1791.97
479.64	1665.00
479.84	1576.94
480.04	1683.43
480.25	1701.86
480.45	1689.57
480.65	1693.67
480.85	1779.68
481.06	1662.95
481.26	1742.82
481.46	1726.44
481.66	1677.29
481.86	1607.66
482.06	1787.88
482.27	1716.20
482.47	1728.49
482.67	1761.25
482.87	1716.20
483.07	1820.64
483.28	1648.61
483.48	1632.23
483.68	1714.15
483.88	1791.97
484.08	1552.36
484.29	1624.04
484.49	1695.72
484.69	1703.91
484.89	1757.16
485.09	1785.83
485.29	1740.77
485.50	1734.63
485.70	1697.77
485.90	1861.60
486.10	1681.38
486.30	1689.57
486.50	1783.78
486.71	1767.40
486.91	1769.44
487.11	1746.92
487.31	1581.03
487.51	1804.26
487.71	1677.29
487.91	1628.14
488.12	1652.71
488.32	1634.28
488.52	1705.96
488.72	1642.47
488.92	1738.73
489.12	1767.40
489.32	1837.03
489.53	1742.82
489.73	1665.00
489.93	1759.21
490.13	1763.30
490.33	1685.48
490.53	1718.25
490.73	1720.29
490.94	1677.29
491.14	1763.30
491.34	1865.70
491.54	2136.03
491.74	2590.68
491.94	2979.79
492.14	3026.90
492.34	3123.15
492.54	2811.86
492.75	2504.67
492.95	2414.56
493.15	2312.16
493.35	2285.53
493.55	2224.09
493.75	2105.31
493.95	2174.94
494.15	2033.63
494.35	1933.28
494.56	1869.80
494.76	1755.11
494.96	1781.73
495.16	1791.97
495.36	1699.81
495.56	1710.05
495.76	1716.20
495.96	1671.14
496.16	1660.90
496.36	1779.68
496.56	1759.21
496.77	1794.02
496.97	1732.58
497.17	1857.51
497.37	1673.19
497.57	1695.72
497.77	1681.38
497.97	1673.19
498.17	1716.20
498.37	1705.96
498.57	1751.01
498.77	1701.86
498.97	1824.74
499.17	1896.42
499.38	1705.96
499.58	1730.53
499.78	1761.25
499.98	1765.35
500.18	1677.29
500.38	1748.97
500.58	1875.94
500.78	2516.95
500.98	4577.21
501.18	5889.96
501.38	6969.24
501.58	7212.95
501.78	6766.49
501.98	5613.48
502.18	4958.13
502.38	4444.09
502.58	4061.12
502.78	3880.90
502.98	3667.91
503.18	3387.34
503.38	3139.54
503.59	2891.73
503.79	2615.26
503.99	2504.67
504.19	2310.11
504.39	2228.19
504.59	2238.43
504.79	2105.31
504.99	2115.55
505.19	1943.52
505.39	1824.74
505.59	1988.58
505.79	1929.19
505.99	1839.08
506.19	1781.73
506.39	1839.08
506.59	1705.96
506.79	1716.20
506.99	1816.55
507.19	1820.64
507.39	1816.55
507.59	1669.09
507.79	1652.71
507.99	1722.34
508.19	1787.88
508.39	1621.99
508.59	1755.11
508.79	1847.27
508.99	1761.25
509.19	1726.44
509.39	1771.49
509.59	1701.86
509.79	1722.34
509.99	1738.73
510.19	1800.16
510.39	1802.21
510.59	1742.82
510.79	1710.05
510.99	1669.09
511.19	1740.77
511.39	1818.60
511.59	1785.83
511.79	1830.88
511.99	1726.44
512.19	1849.32
512.38	1767.40
512.58	1691.62
512.78	1755.11
512.98	1705.96
513.18	1765.35
513.38	1650.66
513.58	1751.01
513.78	1677.29
513.98	1818.60
514.18	1771.49
514.38	1748.97
514.58	1779.68
514.78	1738.73
514.98	1716.20
515.18	1679.33
515.38	1665.00
515.58	1824.74
515.78	1777.64
515.98	1714.15
516.18	1708.01
516.38	1683.43
516.57	1779.68
516.77	1732.58
516.97	1804.26
517.17	1642.47
517.37	1626.09
517.57	1832.93
517.77	1669.09
517.97	1671.14
518.17	1861.60
518.37	1669.09
518.57	1759.21
518.77	1693.67
518.97	1701.86
519.16	1724.39
519.36	1861.60
519.56	1654.76
519.76	1734.63
519.96	1724.39
520.16	1763.30
520.36	1660.90
520.56	1822.69
520.76	1708.01
520.96	1738.73
521.16	1740.77
521.35	1759.21
521.55	1871.84
521.75	1787.88
521.95	1675.24
522.15	1728.49
522.35	1613.80
522.55	1671.14
522.75	1767.40
522.95	1744.87
523.14	1701.86
523.34	1814.50
523.54	1650.66
523.74	1732.58
523.94	1763.30
524.14	1656.81
524.34	1755.11
524.54	1855.46
524.73	1744.87
524.93	1728.49
525.13	1798.12
525.33	1624.04
525.53	1843.17
525.73	1830.88
525.93	1734.63
526.13	1736.68
526.32	1665.00
526.52	1714.15
526.72	1726.44
526.92	1755.11
527.12	1621.99
527.32	1613.80
527.52	1714.15
527.71	1765.35
527.91	1714.15
528.11	1728.49
528.31	1679.33
528.51	1681.38
528.71	1708.01
528.90	1804.26
529.10	1789.92
529.30	1847.27
529.50	1609.70
529.70	1779.68
529.90	1656.81
530.09	1693.67
530.29	1677.29
530.49	1652.71
530.69	1886.18
530.89	1714.15
531.09	1796.07
531.28	1722.34
531.48	1796.07
531.68	1771.49
531.88	1775.59
532.08	1697.77
532.28	1660.90
532.47	1734.63
532.67	1779.68
532.87	1732.58
533.07	1642.47
533.27	1763.30
533.46	1742.82
533.66	1779.68
533.86	1734.63
534.06	1712.10
534.26	1740.77
534.45	1705.96
534.65	1849.32
534.85	1746.92
535.05	1691.62
535.25	1810.40
535.44	1660.90
535.64	1779.68
535.84	1662.95
536.04	1732.58
536.24	1712.10
536.43	1708.01
536.63	1746.92
536.83	1757.16
537.03	1732.58
537.22	1640.42
537.42	1697.77
537.62	1693.67
537.82	1619.94
538.02	1767.40
538.21	1701.86
538.41	1863.65
538.61	1722.34
538.81	1726.44
539.00	1777.64
539.20	1679.33
539.40	1732.58
539.60	1691.62
539.79	1761.25
539.99	1695.72
540.19	1656.81
540.39	1677.29
540.58	1660.90
540.78	1814.50
540.98	1783.78
541.18	1757.16
541.37	1783.78
541.57	1738.73
541.77	1738.73
541.97	1755.11
542.16	1646.57
542.36	1703.91
542.56	1703.91
542.76	1877.99
542.95	1683.43
543.15	1734.63
543.35	1755.11
543.54	1710.05
543.74	1730.53
543.94	1763.30
544.14	1730.53
544.33	1781.73
544.53	1640.42
544.73	1746.92
544.93	1728.49
545.12	1775.59
545.32	1714.15
545.52	1785.83
545.71	1656.81
545.91	1742.82
546.11	1746.92
546.30	1716.20
546.50	1679.33
546.70	1808.36
546.90	1689.57
547.09	1619.94
547.29	1732.58
547.49	1802.21
547.68	1810.40
547.88	1603.56
548.08	1839.08
548.27	2107.36
548.47	1730.53
548.67	1638.38
548.87	1744.87
549.06	1703.91
549.26	1759.21
549.46	1822.69
549.65	1708.01
549.85	1730.53
550.05	1843.17
550.24	1679.33
550.44	1722.34
550.64	1767.40
550.83	1740.77
551.03	1777.64
551.23	1808.36
551.42	1779.68
551.62	1703.91
551.82	1757.16
552.01	1701.86
552.21	1779.68
552.41	1728.49
552.60	1794.02
552.80	1753.06
553.00	1714.15
553.19	1697.77
553.39	1732.58
553.59	1751.01
553.78	1783.78
553.98	1714.15
554.17	1665.00
554.37	1728.49
554.57	1806.31
554.76	1652.71
554.96	1712.10
555.16	1779.68
555.35	1814.50
555.55	1732.58
555.75	1732.58
555.94	1724.39
556.14	1595.37
556.33	1796.07
556.53	1712.10
556.73	1718.25
556.92	1791.97
557.12	1875.94
557.32	1896.42
557.51	1855.46
557.71	1765.35
557.90	1796.07
558.10	1828.84
558.30	1665.00
558.49	1753.06
558.69	1753.06
558.88	1730.53
559.08	1744.87
559.28	1714.15
559.47	1703.91
559.67	1740.77
559.86	1843.17
560.06	1751.01
560.26	1691.62
560.45	1722.34
560.65	1662.95
560.84	1812.45
561.04	1652.71
561.24	1740.77
561.43	1681.38
561.63	1816.55
561.82	1705.96
562.02	1779.68
562.22	1691.62
562.41	1695.72
562.61	1773.54
562.80	1673.19
563.00	1828.84
563.19	1771.49
563.39	1798.12
563.59	1843.17
563.78	1693.67
563.98	1644.52
564.17	1687.53
564.37	1644.52
564.56	1816.55
564.76	1654.76
564.96	1757.16
565.15	1740.77
565.35	1896.42
565.54	1761.25
565.74	1796.07
565.93	1763.30
566.13	1751.01
566.32	1748.97
566.52	1806.31
566.71	1769.44
566.91	1787.88
567.11	1777.64
567.30	1691.62
567.50	1777.64
567.69	1742.82
567.89	1667.05
568.08	1687.53
568.28	1744.87
568.47	1652.71
568.67	1771.49
568.86	1667.05
569.06	1767.40
569.25	1648.61
569.45	1728.49
569.64	1748.97
569.84	1705.96
570.04	1761.25
570.23	1728.49
570.43	1804.26
570.62	1839.08
570.82	1845.22
571.01	1671.14
571.21	1753.06
571.40	1746.92
571.60	1769.44
571.79	1718.25
571.99	1724.39
572.18	1689.57
572.38	1789.92
572.57	1771.49
572.77	1701.86
572.96	1865.70
573.16	1769.44
573.35	1722.34
573.55	1798.12
573.74	1832.93
573.94	1712.10
574.13	1742.82
574.33	1755.11
574.52	1808.36
574.71	1691.62
574.91	1757.16
575.10	1714.15
575.30	1734.63
575.49	1716.20
575.69	1716.20
575.88	1767.40
576.08	1744.87
576.27	1785.83
576.47	1708.01
576.66	1849.32
576.86	1769.44
577.05	1775.59
577.25	1877.99
577.44	1816.55
577.64	1718.25
577.83	1777.64
578.02	1736.68
578.22	1869.80
578.41	1828.84
578.61	1675.24
578.80	1675.24
579.00	1787.88
579.19	1617.90
579.39	1812.45
579.58	1796.07
579.77	1716.20
579.97	1875.94
580.16	1773.54
580.36	1837.03
580.55	1757.16
580.75	1769.44
580.94	1773.54
581.13	1814.50
581.33	1865.70
581.52	1773.54
581.72	1832.93
581.91	1882.08
582.11	1730.53
582.30	1761.25
582.49	1761.25
582.69	1847.27
582.88	1814.50
583.08	1775.59
583.27	1759.21
583.47	1802.21
583.66	1701.86
583.85	1644.52
584.05	1755.11
584.24	1740.77
584.44	1726.44
584.63	1794.02
584.82	1859.56
585.02	1814.50
585.21	1888.23
585.41	1808.36
585.60	1849.32
585.79	1918.95
585.99	1888.23
586.18	1908.71
586.37	2174.94
586.57	3405.77
586.76	10047.33
586.96	24884.87
587.15	35278.31
587.34	41172.36
587.54	42806.64
587.73	37459.40
587.93	26916.45
588.12	21880.50
588.31	18616.04
588.51	16316.17
588.70	15582.99
588.89	14255.91
589.09	12814.14
589.28	11349.84
589.47	9639.79
589.67	8234.88
589.86	6490.01
590.06	4949.94
590.25	3948.48
590.44	3188.69
590.64	2623.45
590.83	2158.56
591.02	2095.07
591.22	1961.95
591.41	1980.39
591.60	1796.07
591.80	1939.43
591.99	1779.68
592.18	1689.57
592.38	1861.60
592.57	1716.20
592.76	1746.92
592.96	1828.84
593.15	1767.40
593.34	1849.32
593.54	1728.49
593.73	1798.12
593.92	1787.88
594.12	1730.53
594.31	1800.16
594.50	1828.84
594.70	1828.84
594.89	1927.14
595.08	1763.30
595.28	1755.11
595.47	1923.04
595.66	1800.16
595.86	1746.92
596.05	1705.96
596.24	1730.53
596.43	1847.27
596.63	1875.94
596.82	1828.84
597.01	1744.87
597.21	1779.68
597.40	1853.41
597.59	1767.40
597.79	1669.09
597.98	1773.54
598.17	1775.59
598.36	1697.77
598.56	1753.06
598.75	1677.29
598.94	1744.87
599.14	1804.26
599.33	1667.05
599.52	1847.27
599.71	1775.59
599.91	1726.44
600.10	1837.03
600.29	1708.01
600.48	1710.05
600.68	1710.05
600.87	1714.15
601.06	1660.90
601.26	1746.92
601.45	1777.64
601.64	1734.63
601.83	1828.84
602.03	1683.43
602.22	1759.21
602.41	1730.53
602.60	1816.55
602.80	1828.84
602.99	1785.83
603.18	1685.48
603.37	1812.45
603.57	1759.21
603.76	1755.11
603.95	1714.15
604.14	1740.77
604.34	1650.66
604.53	1712.10
604.72	1746.92
604.91	1789.92
605.10	1712.10
605.30	1699.81
605.49	1816.55
605.68	1732.58
605.87	1779.68
606.07	1689.57
606.26	1759.21
606.45	1751.01
606.64	1734.63
606.84	1671.14
607.03	1691.62
607.22	1740.77
607.41	1665.00
607.60	1791.97
607.80	1748.97
607.99	1697.77
608.18	1679.33
608.37	1677.29
608.56	1681.38
608.76	1726.44
608.95	1923.04
609.14	1718.25
609.33	1757.16
609.52	1787.88
609.72	1712.10
609.91	1785.83
610.10	1761.25
610.29	1777.64
610.48	1708.01
610.68	1714.15
610.87	1767.40
611.06	1753.06
611.25	1746.92
611.44	1781.73
611.63	1681.38
611.83	1861.60
612.02	1636.33
612.21	1847.27
612.40	1611.75
612.59	1675.24
612.79	1638.38
612.98	1708.01
613.17	1845.22
613.36	1791.97
613.55	1759.21
613.74	1669.09
613.93	1699.81
614.13	1722.34
614.32	1761.25
614.51	1785.83
614.70	1636.33
614.89	1624.04
615.08	1814.50
615.28	2115.55
615.47	1652.71
615.66	1759.21
615.85	1671.14
616.04	1804.26
616.23	1697.77
616.42	1699.81
616.62	1781.73
616.81	1789.92
617.00	1751.01
617.19	1759.21
617.38	1683.43
617.57	1755.11
617.76	1789.92
617.95	1767.40
618.15	1781.73
618.34	1826.79
618.53	1595.37
618.72	1699.81
618.91	1779.68
619.10	1767.40
619.29	1751.01
619.48	1656.81
619.68	1662.95
619.87	1751.01
620.06	1624.04
620.25	1722.34
620.44	1716.20
620.63	1736.68
620.82	1755.11
621.01	1705.96
621.20	1744.87
621.39	1767.40
621.59	1720.29
621.78	1703.91
621.97	1693.67
622.16	1718.25
622.35	1779.68
622.54	1705.96
622.73	1822.69
622.92	1619.94
623.11	1822.69
623.30	1662.95
623.49	1744.87
623.68	1679.33
623.88	1822.69
624.07	1759.21
624.26	1773.54
624.45	1705.96
624.64	1751.01
624.83	1720.29
625.02	1646.57
625.21	1699.81
625.40	1763.30
625.59	1787.88
625.78	1714.15
625.97	1675.24
626.16	1763.30
626.35	1763.30
626.54	1626.09
626.74	1826.79
626.93	1662.95
627.12	1669.09
627.31	1753.06
627.50	1787.88
627.69	1824.74
627.88	1691.62
628.07	1738.73
628.26	1673.19
628.45	1687.53
628.64	1570.79
628.83	1736.68
629.02	1656.81
629.21	1775.59
629.40	1714.15
629.59	1675.24
629.78	1634.28
629.97	1742.82
630.16	1708.01
630.35	1755.11
630.54	1802.21
630.73	1699.81
630.92	1681.38
631.11	1710.05
631.30	1746.92
631.49	1771.49
631.68	1677.29
631.87	1728.49
632.06	1685.48
632.25	1845.22
632.44	1726.44
632.63	1810.40
632.82	1634.28
633.01	1705.96
633.20	1599.46
633.39	1589.22
633.58	1634.28
633.77	1730.53
633.96	1667.05
634.15	1779.68
634.34	1828.84
634.53	1662.95
634.72	1716.20
634.91	1589.22
635.10	1753.06
635.29	1710.05
635.48	1761.25
635.67	1720.29
635.86	1617.90
636.05	1746.92
636.24	1621.99
636.43	1802.21
636.62	1705.96
636.81	1554.41
637.00	1613.80
637.19	1746.92
637.38	1763.30
637.57	1665.00
637.76	1746.92
637.95	1771.49
638.14	1640.42
638.33	1705.96
638.52	1712.10
638.71	1656.81
638.89	1660.90
639.08	1927.14
639.27	1767.40
639.46	1691.62
639.65	1765.35
639.84	1787.88
640.03	1726.44
640.22	1656.81
640.41	1746.92
640.60	1644.52
640.79	1693.67
640.98	1714.15
641.17	1699.81
641.36	1755.11
641.55	1769.44
641.74	1603.56
641.92	1691.62
642.11	1640.42
642.30	1730.53
642.49	1744.87
642.68	1714.15
642.87	1794.02
643.06	1755.11
643.25	1665.00
643.44	1683.43
643.63	1718.25
643.82	1662.95
644.00	1718.25
644.19	1679.33
644.38	1615.85
644.57	1740.77
644.76	1710.05
644.95	1634.28
645.14	1726.44
645.33	1667.05
645.52	1687.53
645.71	1632.23
645.89	1683.43
646.08	1716.20
646.27	1716.20
646.46	1804.26
646.65	1578.98
646.84	1787.88
647.03	1685.48
647.22	1812.45
647.40	1662.95
647.59	1718.25
647.78	1634.28
647.97	1640.42
648.16	1621.99
648.35	1781.73
648.54	1816.55
648.73	1708.01
648.91	1726.44
649.10	1763.30
649.29	1767.40
649.48	1705.96
649.67	1777.64
649.86	1691.62
650.05	1652.71
650.23	1800.16
650.42	1667.05
650.61	1839.08
650.80	1730.53
650.99	1869.80
651.18	1744.87
651.36	1722.34
651.55	1660.90
651.74	1773.54
651.93	1640.42
652.12	1720.29
652.31	1697.77
652.49	1685.48
652.68	1685.48
652.87	1738.73
653.06	1613.80
653.25	1800.16
653.44	1652.71
653.62	1753.06
653.81	1665.00
654.00	1736.68
654.19	1779.68
654.38	1931.23
654.56	1683.43
654.75	1703.91
654.94	1783.78
655.13	1720.29
655.32	1617.90
655.51	1656.81
655.69	1650.66
655.88	1736.68
656.07	1683.43
656.26	1753.06
656.45	1660.90
656.63	1640.42
656.82	1720.29
657.01	1742.82
657.20	1714.15
657.38	1796.07
657.57	1683.43
657.76	1665.00
657.95	1773.54
658.14	1685.48
658.32	1734.63
658.51	1646.57
658.70	1736.68
658.89	1673.19
659.08	1726.44
659.26	1828.84
659.45	1626.09
659.64	1714.15
659.83	1710.05
660.01	1964.00
660.20	1683.43
660.39	1781.73
660.58	1554.41
660.76	1722.34
660.95	1689.57
661.14	1763.30
661.33	1667.05
661.51	1697.77
661.70	1724.39
661.89	1757.16
662.08	1703.91
662.26	1677.29
662.45	1699.81
662.64	1751.01
662.83	1728.49
663.01	1665.00
663.20	1753.06
663.39	1757.16
663.58	1685.48
663.76	1703.91
663.95	1763.30
664.14	1685.48
664.32	1634.28
664.51	1695.72
664.70	1591.27
664.89	1753.06
665.07	1683.43
665.26	1767.40
665.45	1646.57
665.64	1755.11
665.82	1728.49
666.01	1779.68
666.20	1640.42
666.38	1877.99
666.57	1808.36
666.76	2170.85
666.95	4485.05
667.13	10723.16
667.32	15447.83
667.51	18214.63
667.69	19353.30
667.88	18149.10
668.07	12541.76
668.25	9592.69
668.44	8171.40
668.63	7303.06
668.81	6915.99
669.00	6311.84
669.19	5920.68
669.38	5296.05
669.56	4622.27
669.75	4028.35
669.94	3323.85
670.12	2865.11
670.31	2461.66
670.50	2308.06
670.68	2066.40
670.87	1877.99
671.06	1785.83
671.24	1828.84
671.43	1763.30
671.62	1701.86
671.80	1775.59
671.99	1775.59
672.18	1665.00
672.36	1705.96
672.55	1804.26
672.74	1738.73
672.92	1740.77
673.11	1779.68
673.29	1673.19
673.48	1781.73
673.67	1689.57
673.85	1767.40
674.04	1660.90
674.23	1705.96
674.41	1834.98
674.60	1751.01
674.79	1609.70
674.97	1675.24
675.16	1734.63
675.34	1697.77
675.53	1638.38
675.72	1781.73
675.90	1834.98
676.09	1669.09
676.28	1724.39
676.46	1585.13
676.65	1730.53
676.83	1587.18
677.02	1734.63
677.21	1718.25
677.39	1791.97
677.58	1587.18
677.77	1708.01
677.95	1716.20
678.14	1705.96
678.32	1710.05
678.51	1662.95
678.70	1814.50
678.88	1695.72
679.07	1691.62
679.25	1621.99
679.44	1679.33
679.63	1740.77
679.81	1746.92
680.00	1751.01
680.18	1755.11
680.37	1771.49
680.55	1691.62
680.74	1677.29
680.93	1607.66
681.11	1734.63
681.30	1767.40
681.48	1685.48
681.67	1699.81
681.85	1720.29
682.04	1714.15
682.23	1759.21
682.41	1740.77
682.60	1697.77
682.78	1777.64
682.97	1632.23
683.15	1755.11
683.34	1736.68
683.53	1798.12
683.71	1628.14
683.90	1798.12
684.08	1818.60
684.27	1705.96
684.45	1789.92
684.64	1804.26
684.82	1679.33
685.01	1652.71
685.19	1761.25
685.38	1839.08
685.57	1638.38
685.75	1701.86
685.94	1673.19
686.12	1669.09
686.31	1673.19
686.49	1783.78
686.68	1603.56
686.86	1720.29
687.05	1628.14
687.23	1714.15
687.42	1697.77
687.60	1624.04
687.79	1742.82
687.97	1755.11
688.16	1820.64
688.34	1751.01
688.53	1570.79
688.71	1675.24
688.90	1761.25
689.08	1705.96
689.27	1595.37
689.45	1781.73
689.64	1769.44
689.82	1765.35
690.01	1771.49
690.19	1732.58
690.38	1767.40
690.56	1708.01
690.75	1648.61
690.93	1693.67
691.12	1646.57
691.30	1726.44
691.49	1697.77
691.67	1648.61
691.86	1787.88
692.04	1677.29
692.23	1652.71
692.41	1603.56
692.60	1845.22
692.78	1767.40
692.97	1658.85
693.15	1693.67
693.34	1757.16
693.52	1701.86
693.71	1710.05
693.89	1671.14
694.08	1638.38
694.26	1746.92
694.44	1779.68
694.63	1763.30
694.81	1599.46
695.00	1640.42
695.18	1746.92
695.37	1859.56
695.55	1746.92
695.74	1679.33
695.92	1677.29
696.10	1779.68
696.29	1617.90
696.47	1642.47
696.66	1581.03
696.84	1726.44
697.03	1742.82
697.21	1794.02
697.40	2312.16
697.58	1699.81
697.76	1673.19
697.95	1640.42
698.13	1642.47
698.32	1699.81
698.50	1763.30
698.68	1740.77
698.87	1703.91
699.05	1798.12
699.24	1722.34
699.42	1656.81
699.61	1716.20
699.79	1720.29
699.97	1761.25
700.16	1687.53
700.34	1601.51
700.53	1652.71
700.71	1787.88
700.89	1775.59
701.08	1599.46
701.26	1699.81
701.45	2136.03
701.63	1654.76
701.81	1730.53
702.00	1630.18
702.18	1650.66
702.37	1652.71
702.55	1738.73
702.73	1755.11
702.92	1644.52
703.10	1685.48
703.28	1712.10
703.47	1624.04
703.65	1761.25
703.84	1771.49
704.02	1656.81
704.20	1730.53
704.39	1665.00
704.57	1716.20
704.75	1742.82
704.94	1724.39
705.12	1716.20
705.30	1814.50
705.49	2357.21
705.67	4554.68
705.86	9330.55
706.04	12863.29
706.22	14622.50
706.41	15867.66
706.59	14141.22
706.77	9809.77
706.96	7456.65
707.14	6770.58
707.32	5889.96
707.51	5717.93
707.69	5064.63
707.87	4341.69
708.06	3467.21
708.24	2957.27
708.42	2353.12
708.61	2183.13
708.79	1941.47
708.97	1861.60
709.16	1826.79
709.34	1665.00
709.52	1669.09
709.71	1757.16
709.89	1781.73
710.07	1701.86
710.26	1611.75
710.44	1724.39
710.62	1697.77
710.80	1736.68
710.99	1667.05
711.17	1699.81
711.35	1685.48
711.54	1634.28
711.72	1744.87
711.90	1771.49
712.09	1740.77
712.27	1640.42
712.45	1771.49
712.63	1689.57
712.82	1628.14
713.00	1683.43
713.18	1708.01
713.37	1773.54
713.55	1794.02
713.73	1738.73
713.91	1679.33
714.10	1591.27
714.28	1701.86
714.46	1763.30
714.65	1669.09
714.83	1714.15
715.01	1699.81
715.19	1669.09
715.38	1665.00
715.56	1679.33
715.74	1597.42
715.92	1601.51
716.11	1814.50
716.29	1640.42
716.47	1638.38
716.65	1636.33
716.84	1595.37
717.02	1701.86
717.20	1570.79
717.38	1705.96
717.57	1685.48
717.75	1626.09
717.93	1640.42
718.11	1685.48
718.30	1587.18
718.48	1705.96
718.66	1740.77
718.84	1769.44
719.03	1671.14
719.21	1632.23
719.39	1781.73
719.57	1708.01
719.75	1681.38
719.94	1748.97
720.12	1671.14
720.30	1730.53
720.48	1757.16
720.67	1695.72
720.85	1697.77
721.03	1714.15
721.21	1646.57
721.39	1742.82
721.58	1718.25
721.76	1726.44
721.94	1732.58
722.12	1742.82
722.30	1796.07
722.49	1730.53
722.67	1673.19
722.85	1748.97
723.03	1619.94
723.21	1617.90
723.40	1679.33
723.58	1736.68
723.76	1714.15
723.94	1804.26
724.12	1673.19
724.30	1791.97
724.49	1748.97
724.67	1615.85
724.85	1857.51
725.03	1652.71
725.21	1699.81
725.40	1742.82
725.58	1703.91
725.76	1839.08
725.94	1738.73
726.12	1638.38
726.30	1759.21
726.49	1667.05
726.67	1681.38
726.85	1732.58
727.03	1767.40
727.21	2197.47
727.39	2813.91
727.57	3729.35
727.76	4310.97
727.94	4466.62
728.12	4329.41
728.30	3811.27
728.48	3057.62
728.66	2715.61
728.84	2719.70
729.03	2279.39
729.21	2117.60
729.39	1961.95
729.57	1869.80
729.75	1779.68
729.93	1853.41
730.11	1675.24
730.30	1662.95
730.48	1640.42
730.66	1798.12
730.84	1751.01
731.02	1689.57
731.20	1673.19
731.38	1714.15
731.56	1714.15
731.74	1593.32
731.93	1734.63
732.11	1683.43
732.29	1708.01
732.47	1687.53
732.65	1662.95
732.83	1693.67
733.01	1730.53
733.19	1667.05
733.37	1716.20
733.56	1628.14
733.74	1681.38
733.92	1798.12
734.10	1636.33
734.28	1689.57
734.46	1630.18
734.64	1648.61
734.82	1687.53
735.00	1648.61
735.18	1671.14
735.36	1681.38
735.54	1714.15
735.73	1773.54
735.91	1720.29
736.09	1722.34
736.27	1742.82
736.45	1714.15
736.63	1697.77
736.81	1626.09
736.99	1710.05
737.17	1812.45
737.35	1667.05
737.53	1701.86
737.71	1796.07
737.89	1779.68
738.07	1640.42
738.25	1652.71
738.43	1609.70
738.61	1712.10
738.80	1636.33
738.98	1665.00
739.16	1581.03
739.34	1656.81
739.52	1736.68
739.70	1642.47
739.88	1724.39
740.06	1716.20
740.24	1665.00
740.42	1767.40
740.60	1624.04
740.78	1581.03
740.96	1632.23
741.14	1685.48
741.32	1681.38
741.50	1599.46
741.68	1832.93
741.86	1779.68
742.04	1648.61
742.22	1730.53
742.40	1720.29
742.58	1767.40
742.76	1687.53
742.94	1669.09
743.12	1572.84
743.30	1687.53
743.48	1751.01
743.66	1671.14
743.84	1699.81
744.02	1669.09
744.20	1701.86
744.38	1605.61
744.56	1665.00
744.74	1748.97
744.92	1654.76
745.10	1724.39
745.28	1779.68
745.46	1804.26
745.64	1669.09
745.82	1744.87
746.00	1675.24
746.18	1701.86
746.36	1613.80
746.54	1675.24
746.72	1699.81
746.90	1619.94
747.08	1759.21
747.26	1714.15
747.44	1732.58
747.62	1665.00
747.80	1656.81
747.98	1714.15
748.15	1673.19
748.33	1810.40
748.51	1669.09
748.69	1785.83
748.87	1615.85
749.05	1609.70
749.23	1705.96
749.41	1689.57
749.59	1621.99
749.77	1771.49
749.95	1730.53
750.13	1681.38
750.31	1705.96
750.49	1634.28
750.67	1791.97
750.85	1820.64
751.03	1695.72
751.20	1892.32
751.38	1687.53
751.56	1710.05
751.74	1722.34
751.92	1699.81
752.10	1630.18
752.28	1748.97
752.46	1646.57
752.64	1728.49
752.82	1679.33
753.00	1714.15
753.18	1796.07
753.35	1736.68
753.53	1716.20
753.71	1705.96
753.89	1755.11
754.07	1722.34
754.25	1804.26
754.43	1744.87
754.61	1644.52
754.79	1765.35
754.97	1685.48
755.14	1769.44
755.32	1601.51
755.50	1689.57
755.68	1718.25
755.86	1744.87
756.04	1658.85
756.22	1576.94
756.40	1779.68
756.57	1859.56
756.75	1724.39
756.93	1703.91
757.11	1730.53
757.29	1646.57
757.47	1605.61
757.65	1667.05
757.82	1630.18
758.00	1675.24
758.18	1710.05
758.36	1589.22
758.54	1798.12
758.72	1658.85
758.90	1746.92
759.07	1728.49
759.25	1658.85
759.43	1683.43
759.61	1705.96
759.79	2150.37
759.97	1761.25
760.15	1683.43
760.32	1703.91
760.50	1665.00
760.68	1746.92
760.86	1572.84
761.04	1769.44
761.22	1732.58
761.39	1703.91
761.57	1779.68
761.75	1656.81
761.93	1685.48
762.11	1687.53
762.28	1734.63
762.46	1624.04
762.64	1761.25
762.82	1581.03
763.00	1748.97
763.18	1730.53
763.35	1607.66
763.53	1695.72
763.71	1732.58
763.89	1669.09
764.07	1722.34
764.24	1691.62
764.42	1796.07
764.60	1757.16
764.78	1759.21
764.96	1771.49
765.13	1806.31
765.31	1705.96
765.49	1771.49
765.67	1619.94
765.84	1640.42
766.02	1665.00
766.20	1646.57
766.38	1744.87
766.56	1748.97
766.73	1714.15
766.91	1691.62
767.09	1751.01
767.27	1693.67
767.44	1658.85
767.62	1681.38
767.80	1656.81
767.98	1658.85
768.15	1669.09
768.33	1800.16
768.51	1724.39
768.69	1728.49
768.87	1665.00
769.04	1683.43
769.22	1822.69
769.40	1763.30
769.58	1855.46
769.75	1765.35
769.93	1755.11
770.11	1683.43
770.28	1595.37
770.46	1726.44
770.64	1732.58
770.82	1679.33
770.99	1689.57
771.17	1771.49
771.35	1648.61
771.53	1681.38
771.70	1765.35
771.88	1720.29
772.06	1718.25
772.23	1695.72
772.41	1738.73
772.59	1691.62
772.77	1628.14
772.94	1748.97
773.12	1738.73
773.30	1718.25
773.47	1697.77
773.65	1673.19
773.83	1746.92
774.01	1720.29
774.18	1681.38
774.36	1648.61
774.54	1658.85
774.71	1621.99
774.89	1585.13
775.07	1624.04
775.24	1677.29
775.42	1681.38
775.60	1834.98
775.78	1669.09
775.95	1658.85
776.13	1607.66
776.31	1615.85
776.48	1722.34
776.66	1796.07
776.84	1632.23
777.01	1665.00
777.19	1673.19
777.37	1656.81
777.54	1763.30
777.72	1820.64
777.90	1660.90
778.07	1685.48
778.25	1859.56
778.43	1759.21
778.60	1720.29
778.78	1824.74
778.96	1728.49
779.13	1601.51
779.31	1757.16
779.49	1673.19
779.66	1730.53
779.84	1705.96
780.01	1654.76
780.19	1640.42
780.37	1769.44
780.54	1816.55
780.72	1662.95
780.90	1742.82
781.07	1689.57
781.25	1701.86
781.43	1732.58
781.60	1634.28
781.78	1738.73
781.95	1712.10
782.13	1601.51
782.31	1716.20
782.48	1576.94
782.66	1658.85
782.83	1816.55
783.01	1781.73
783.19	1732.58
783.36	1640.42
783.54	1697.77
783.72	1716.20
783.89	1660.90
784.07	1658.85
784.24	1718.25
784.42	1732.58
784.60	1691.62
784.77	1755.11
784.95	1628.14
785.12	1658.85
785.30	1730.53
785.47	1665.00
785.65	1662.95
785.83	1656.81
786.00	1712.10
786.18	1744.87
786.35	1660.90
786.53	1587.18
786.71	1722.34
786.88	1691.62
787.06	1738.73
787.23	1683.43
787.41	1683.43
787.58	1671.14
787.76	1673.19
787.94	1718.25
788.11	1667.05
788.29	1726.44
788.46	1685.48
788.64	1626.09
788.81	1689.57
788.99	1742.82
789.16	1648.61
789.34	1591.27
789.52	1685.48
789.69	1656.81
789.87	1636.33
790.04	1605.61
790.22	1671.14
790.39	1746.92
790.57	1691.62
790.74	1619.94
790.92	1716.20
791.09	1660.90
791.27	1789.92
791.44	1693.67
791.62	1718.25
791.79	1765.35
791.97	1599.46
792.15	1886.18
792.32	1671.14
792.50	1726.44
792.67	1775.59
792.85	1820.64
793.02	1765.35
793.20	1777.64
793.37	1630.18
793.55	1697.77
793.72	1648.61
793.90	1691.62
794.07	1714.15
794.25	1624.04
794.42	1701.86
794.60	1656.81
794.77	1683.43
794.95	1798.12
795.12	1718.25
795.30	1632.23
795.47	1603.56
795.65	1853.41
795.82	1697.77
796.00	1615.85
796.17	1716.20
796.34	1619.94
796.52	1716.20
796.69	1761.25
796.87	1753.06
797.04	1746.92
797.22	1759.21
797.39	1716.20
797.57	1712.10
797.74	1669.09
797.92	1701.86
798.09	1609.70
798.27	1800.16
798.44	1689.57
798.62	1638.38
798.79	1751.01
798.96	1681.38
799.14	1671.14
799.31	1847.27
799.49	1636.33
799.66	1669.09
799.84	1738.73
800.01	1654.76
800.19	1712.10
800.36	1554.41
800.53	1628.14
800.71	1621.99
800.88	1808.36
801.06	1654.76
801.23	1626.09
801.41	1665.00
801.58	1617.90
801.75	1599.46
801.93	1697.77
802.10	1734.63
802.28	1701.86
802.45	1701.86
802.63	1742.82
802.80	1839.08
802.97	1724.39
803.15	1744.87
803.32	1656.81
803.50	1615.85
803.67	1640.42
803.84	1658.85
804.02	1734.63
804.19	1693.67
804.37	1564.65
804.54	1669.09
804.71	1689.57
804.89	1710.05
805.06	1667.05
805.24	1671.14
805.41	1527.78
805.58	1681.38
805.76	1796.07
805.93	1638.38
806.10	1724.39
806.28	1656.81
806.45	1746.92
806.63	1730.53
806.80	1724.39
806.97	1683.43
807.15	1665.00
807.32	1669.09
807.49	1730.53
807.67	1648.61
807.84	1703.91
808.01	1650.66
808.19	1779.68
808.36	1822.69
808.54	1677.29
808.71	1615.85
808.88	1675.24
809.06	1769.44
809.23	1705.96
809.40	1761.25
809.58	1759.21
809.75	1751.01
809.92	1572.84
810.10	1845.22
810.27	1640.42
810.44	1687.53
810.62	1736.68
810.79	1732.58
810.96	1748.97
811.14	1648.61
811.31	1757.16
811.48	1710.05
811.66	1720.29
811.83	1738.73
812.00	1652.71
812.18	1718.25
812.35	1806.31
812.52	1742.82
812.69	1660.90
812.87	1738.73
813.04	1671.14
813.21	1648.61
813.39	1609.70
813.56	1599.46
813.73	1783.78
813.91	1558.50
814.08	1771.49
814.25	1699.81
814.42	1568.74
814.60	1574.89
814.77	1738.73
814.94	1710.05
815.12	1685.48
815.29	1775.59
815.46	1746.92
815.63	1705.96
815.81	1660.90
815.98	1708.01
816.15	1806.31
816.33	1675.24
816.50	1673.19
816.67	1673.19
816.84	1667.05
817.02	1634.28
817.19	1716.20
817.36	1734.63
817.53	1763.30
817.71	1640.42
817.88	1746.92
818.05	1720.29
818.22	1681.38
818.40	1804.26
818.57	1591.27
818.74	1730.53
818.91	1644.52
819.09	1732.58
819.26	1755.11
819.43	1685.48
819.60	1621.99
819.78	1642.47
819.95	1806.31
820.12	1679.33
820.29	1726.44
820.47	1712.10
820.64	1669.09
820.81	1611.75
820.98	1599.46
821.15	1624.04
821.33	1736.68
821.50	1626.09
821.67	1742.82
821.84	1613.80
822.02	1681.38
822.19	1699.81
822.36	1677.29
822.53	1669.09
822.70	1634.28
822.88	1755.11
823.05	1814.50
823.22	1673.19
823.39	1720.29
823.56	1765.35
823.74	1808.36
823.91	1710.05
824.08	1705.96
824.25	1691.62
824.42	1748.97
824.60	1667.05
824.77	1755.11
824.94	1748.97
825.11	1722.34
825.28	1546.22
825.45	1734.63
825.63	1640.42
825.80	1660.90
825.97	1748.97
826.14	1683.43
826.31	1611.75
826.48	1775.59
826.66	1634.28
826.83	1673.19
827.00	1748.97
827.17	1660.90
827.34	1703.91
827.51	1695.72
827.69	1609.70
827.86	1693.67
828.03	1681.38
828.20	1703.91
828.37	1660.90
828.54	1757.16
828.71	1681.38
828.89	1687.53
829.06	1658.85
829.23	1755.11
829.40	1708.01
829.57	1712.10
829.74	1691.62
829.91	1609.70
830.09	1621.99
830.26	1765.35
830.43	1765.35
830.60	1759.21
830.77	1775.59
830.94	1732.58
831.11	1687.53
831.28	1701.86
831.46	1687.53
831.63	1699.81
831.80	1751.01
831.97	1730.53
832.14	1710.05
832.31	1701.86
832.48	1689.57
832.65	1804.26
832.82	1708.01
832.99	1662.95
833.17	1566.70
833.34	1722.34
833.51	1726.44
833.68	1624.04
833.85	1796.07
834.02	1632.23
834.19	1667.05
834.36	1650.66
834.53	1695.72
834.70	1751.01
834.87	1703.91
835.04	1730.53
835.22	1662.95
835.39	1619.94
835.56	1656.81
835.73	1654.76
835.90	1683.43
836.07	1658.85
836.24	1751.01
836.41	1665.00
836.58	1650.66
836.75	1746.92
836.92	1781.73
837.09	1665.00
837.26	1716.20
837.43	1681.38
837.60	1804.26
837.77	1658.85
837.94	1695.72
838.12	1730.53
838.29	1710.05
838.46	1624.04
838.63	1662.95
838.80	1693.67
838.97	1720.29
839.14	1781.73
839.31	1652.71
839.48	1787.88
839.65	1665.00
839.82	1759.21
839.99	1769.44
840.16	1669.09
840.33	1714.15
840.50	1769.44
840.67	1630.18
840.84	1671.14
841.01	1785.83
841.18	1652.71
841.35	1710.05
841.52	1771.49
841.69	1839.08
841.86	1673.19
842.03	1677.29
842.20	1759.21
842.37	1638.38
842.54	1699.81
842.71	1644.52
842.88	1556.46
843.05	1761.25
843.22	1597.42
843.39	1710.05
843.56	1660.90
843.73	1703.91
843.90	1693.67
844.07	1705.96
844.24	1724.39
844.41	1691.62
844.58	1673.19
844.75	1691.62
844.92	1716.20
845.09	1689.57
845.26	1660.90
845.43	1687.53
845.60	1617.90
845.77	1783.78
845.94	1650.66
846.10	1773.54
846.27	1599.46
846.44	1636.33
846.61	1632.23
846.78	1640.42
846.95	1703.91
847.12	1667.05
847.29	1638.38
847.46	1644.52
847.63	1767.40
847.80	1642.47
847.97	1650.66
848.14	1732.58
848.31	1652.71
848.48	1638.38
848.65	1673.19
848.82	1714.15
848.98	1851.36
849.15	1695.72
849.32	1732.58
849.49	1806.31
849.66	1677.29
849.83	1736.68
850.00	1589.22
850.17	1779.68
850.34	1740.77
850.51	1734.63
850.68	1701.86
850.85	1839.08
851.01	1679.33
851.18	1767.40
851.35	1734.63
851.52	1722.34
851.69	1779.68
851.86	1689.57
852.03	1689.57
852.20	1703.91
852.37	1724.39
852.53	1677.29
852.70	1695.72
852.87	1710.05
853.04	1732.58
853.21	1677.29
853.38	1746.92
853.55	1720.29
853.72	1796.07
853.89	1677.29
854.05	1685.48
854.22	1683.43
854.39	1722.34
854.56	1712.10
854.73	1767.40
854.90	1669.09
855.07	1675.24
855.23	1703.91
855.40	1724.39
855.57	1679.33
855.74	1558.50
855.91	1884.13
856.08	1626.09
856.25	1638.38
856.41	1718.25
856.58	1710.05
856.75	1665.00
856.92	1646.57
857.09	1728.49
857.26	1638.38
857.42	1746.92
857.59	1705.96
857.76	1718.25
857.93	1705.96
858.10	1742.82
858.27	1654.76
858.43	1636.33
858.60	1642.47
858.77	1634.28
858.94	1683.43
859.11	1705.96
859.27	1665.00
859.44	1667.05
859.61	1785.83
859.78	1662.95
859.95	1673.19
860.12	1636.33
860.28	1820.64
860.45	1816.55
860.62	1656.81
860.79	1714.15
860.95	1726.44
861.12	1630.18
861.29	1716.20
861.46	1617.90
861.63	1726.44
861.79	1738.73
861.96	1619.94
862.13	1683.43
862.30	1722.34
862.47	1656.81
862.63	1607.66
862.80	1738.73
862.97	1759.21
863.14	1783.78
863.30	1679.33
863.47	1591.27
863.64	1728.49
863.81	1771.49
863.97	1695.72
864.14	1669.09
864.31	1740.77
864.48	1753.06
864.65	1636.33
864.81	1718.25
864.98	1703.91
865.15	1759.21
865.32	1791.97
865.48	1802.21
865.65	1767.40
865.82	1697.77
865.98	1675.24
866.15	1693.67
866.32	1683.43
866.49	1671.14
866.65	1769.44
866.82	1714.15
866.99	1724.39
867.16	1599.46
867.32	1714.15
867.49	1648.61
867.66	1658.85
867.83	1681.38
867.99	1535.98
868.16	1755.11
868.33	1572.84
868.49	1665.00
868.66	1628.14
868.83	1689.57
868.99	1667.05
869.16	1714.15
869.33	1742.82
869.50	1814.50
869.66	1726.44
869.83	1718.25
870.00	1538.02
870.16	1730.53
870.33	1665.00
870.50	1701.86
870.66	1722.34
870.83	1837.03
871.00	1718.25
871.17	1783.78
871.33	1740.77
871.50	1652.71
871.67	1662.95
871.83	1689.57
872.00	1796.07
872.17	1677.29
872.33	1890.28
872.50	1751.01
872.67	1671.14
872.83	1705.96
873.00	1738.73
873.17	1675.24
873.33	1726.44
873.50	1759.21
873.67	1644.52
873.83	1687.53
874.00	1728.49
874.16	1697.77
874.33	1708.01
874.50	1632.23
874.66	1748.97
874.83	1767.40
875.00	1822.69
875.16	1763.30
875.33	1767.40
875.50	1658.85
875.66	1677.29
875.83	1703.91
875.99	1660.90
876.16	1736.68
876.33	1621.99
876.49	1624.04
876.66	1695.72
876.83	1667.05
876.99	1640.42
877.16	1662.95
877.32	1773.54
877.49	1683.43
877.66	1757.16
877.82	1791.97
877.99	1679.33
878.15	1767.40
878.32	1683.43
878.49	1724.39
878.65	1675.24
878.82	1759.21
878.98	1693.67
879.15	1767.40
879.32	1755.11
879.48	1736.68
879.65	1738.73
879.81	1603.56
879.98	1701.86
880.15	1583.08
880.31	1726.44
880.48	1765.35
880.64	1761.25
880.81	1771.49
880.97	1789.92
881.14	1675.24
881.31	1654.76
881.47	1849.32
881.64	1683.43
881.80	1626.09
881.97	1710.05
882.13	1732.58
882.30	1656.81
882.47	1665.00
882.63	1660.90
882.80	1671.14
882.96	1665.00
883.13	1734.63
883.29	1683.43
883.46	1699.81
883.62	1744.87
883.79	1744.87
883.95	1734.63
884.12	1796.07
884.29	1736.68
884.45	1753.06
884.62	1751.01
884.78	1699.81
884.95	1691.62
885.11	1630.18
885.28	1619.94
885.44	1679.33
885.61	1691.62
885.77	1802.21
885.94	1695.72
886.10	1658.85
886.27	1665.00
886.43	1765.35
886.60	1714.15
886.76	1642.47
886.93	1681.38
887.09	1699.81
887.26	1624.04
887.42	1673.19
887.59	1708.01
887.75	1771.49
887.92	1742.82
888.08	1787.88
888.25	1775.59
888.41	1740.77
888.58	1720.29
888.74	1667.05
888.91	1742.82
>>>>>End Processed Spectral Data<<<<<
