SpectraSuite Data File
++++++++++++++++++++++++++++++++++++
Date: Mon Jun 06 15:17:37 CEST 2016
User: root
Dark Spectrum Present: No
Reference Spectrum Present: No
Number of Sampled Component Spectra: 1
Spectrometers: USB4C02835
Integration Time (usec): 100000 (USB4C02835)
Spectra Averaged: 1 (USB4C02835)
Boxcar Smoothing: 0 (USB4C02835)
Correct for Electrical Dark: No (USB4C02835)
Strobe/Lamp Enabled: No (USB4C02835)
Correct for Detector Non-linearity: No (USB4C02835)
Correct for Stray Light: No (USB4C02835)
Number of Pixels in Processed Spectrum: 3648
>>>>>Begin Processed Spectral Data<<<<<
177.47	1488.87
177.69	1488.87
177.91	1488.87
178.13	1486.83
178.36	1517.54
178.58	1621.99
178.80	1755.11
179.02	1699.81
179.24	1626.09
179.46	1697.77
179.68	1771.49
179.90	1671.14
180.13	1689.57
180.35	1591.27
180.57	1691.62
180.79	1705.96
181.01	1720.29
181.23	1748.97
181.45	1753.06
181.67	1705.96
181.90	1744.87
182.12	1632.23
182.34	1628.14
182.56	1738.73
182.78	1708.01
183.00	1744.87
183.22	1736.68
183.44	1558.50
183.66	1798.12
183.89	1822.69
184.11	1691.62
184.33	1769.44
184.55	1804.26
184.77	1697.77
184.99	1724.39
185.21	1740.77
185.43	1843.17
185.65	1703.91
185.87	1726.44
186.10	1880.04
186.32	1816.55
186.54	1691.62
186.76	1791.97
186.98	1757.16
187.20	1650.66
187.42	1687.53
187.64	1710.05
187.86	1724.39
188.08	1740.77
188.30	1705.96
188.52	1683.43
188.75	1746.92
188.97	1718.25
189.19	1716.20
189.41	1669.09
189.63	1746.92
189.85	1669.09
190.07	1574.89
190.29	1705.96
190.51	1755.11
190.73	1587.18
190.95	1775.59
191.17	1677.29
191.39	1650.66
191.61	1685.48
191.84	1656.81
192.06	1703.91
192.28	1677.29
192.50	1929.19
192.72	1748.97
192.94	1773.54
193.16	1841.12
193.38	1740.77
193.60	1628.14
193.82	1697.77
194.04	1683.43
194.26	1755.11
194.48	1714.15
194.70	1685.48
194.92	1677.29
195.14	1759.21
195.36	1744.87
195.58	1714.15
195.80	1685.48
196.02	1593.32
196.24	1662.95
196.46	1681.38
196.69	1644.52
196.91	1771.49
197.13	1767.40
197.35	1728.49
197.57	1804.26
197.79	1689.57
198.01	1736.68
198.23	1724.39
198.45	1777.64
198.67	1611.75
198.89	1722.34
199.11	1656.81
199.33	1650.66
199.55	1574.89
199.77	1687.53
199.99	1755.11
200.21	1685.48
200.43	1650.66
200.65	1611.75
200.87	1556.46
201.09	1701.86
201.31	1673.19
201.53	1763.30
201.75	1679.33
201.97	1734.63
202.19	1785.83
202.41	1701.86
202.63	1816.55
202.85	1802.21
203.07	1775.59
203.29	1662.95
203.51	1656.81
203.73	1662.95
203.95	1865.70
204.17	1740.77
204.39	1730.53
204.61	1642.47
204.83	1712.10
205.05	1785.83
205.27	1828.84
205.49	1888.23
205.71	1746.92
205.93	1648.61
206.15	1665.00
206.37	1695.72
206.59	1656.81
206.81	1714.15
207.03	1605.61
207.25	1636.33
207.47	1773.54
207.69	1714.15
207.91	1775.59
208.13	1820.64
208.34	1710.05
208.56	1624.04
208.78	1759.21
209.00	1753.06
209.22	1708.01
209.44	1669.09
209.66	1773.54
209.88	1689.57
210.10	1730.53
210.32	1714.15
210.54	1812.45
210.76	1736.68
210.98	1765.35
211.20	1591.27
211.42	1732.58
211.64	1853.41
211.86	1710.05
212.08	1755.11
212.30	1763.30
212.52	1667.05
212.74	1777.64
212.96	1716.20
213.17	1759.21
213.39	1710.05
213.61	1834.98
213.83	1734.63
214.05	1712.10
214.27	1751.01
214.49	1628.14
214.71	1677.29
214.93	1845.22
215.15	1748.97
215.37	1746.92
215.59	1626.09
215.81	1755.11
216.03	1701.86
216.24	1703.91
216.46	1683.43
216.68	1652.71
216.90	1703.91
217.12	1714.15
217.34	1673.19
217.56	1800.16
217.78	1718.25
218.00	1748.97
218.22	1669.09
218.44	1753.06
218.66	1701.86
218.87	1841.12
219.09	1681.38
219.31	1771.49
219.53	1734.63
219.75	1675.24
219.97	1761.25
220.19	1738.73
220.41	1662.95
220.63	1748.97
220.85	1753.06
221.06	1710.05
221.28	1773.54
221.50	1734.63
221.72	1730.53
221.94	1671.14
222.16	1734.63
222.38	1744.87
222.60	1740.77
222.82	1710.05
223.03	1730.53
223.25	1685.48
223.47	1781.73
223.69	1855.46
223.91	1751.01
224.13	1736.68
224.35	1748.97
224.57	1771.49
224.78	1730.53
225.00	1624.04
225.22	1779.68
225.44	1685.48
225.66	1785.83
225.88	1712.10
226.10	1847.27
226.32	1753.06
226.53	1804.26
226.75	1677.29
226.97	1609.70
227.19	1658.85
227.41	1636.33
227.63	1716.20
227.85	1658.85
228.06	1755.11
228.28	1714.15
228.50	1742.82
228.72	1636.33
228.94	1757.16
229.16	1667.05
229.37	1611.75
229.59	1642.47
229.81	1796.07
230.03	1638.38
230.25	1658.85
230.47	1687.53
230.69	1652.71
230.90	1757.16
231.12	1701.86
231.34	1736.68
231.56	1851.36
231.78	1656.81
232.00	1740.77
232.21	1693.67
232.43	1769.44
232.65	1574.89
232.87	1763.30
233.09	1691.62
233.30	1595.37
233.52	1765.35
233.74	1697.77
233.96	1644.52
234.18	1740.77
234.40	1714.15
234.61	1855.46
234.83	1613.80
235.05	1644.52
235.27	1861.60
235.49	1796.07
235.70	1744.87
235.92	1789.92
236.14	1746.92
236.36	1910.75
236.58	1578.98
236.79	1744.87
237.01	1738.73
237.23	1699.81
237.45	1759.21
237.67	1712.10
237.88	1765.35
238.10	1804.26
238.32	1689.57
238.54	1736.68
238.76	1748.97
238.97	1699.81
239.19	1615.85
239.41	1716.20
239.63	1779.68
239.85	1679.33
240.06	1742.82
240.28	1675.24
240.50	1771.49
240.72	1665.00
240.93	1753.06
241.15	1779.68
241.37	1652.71
241.59	1808.36
241.81	1697.77
242.02	1742.82
242.24	1812.45
242.46	1787.88
242.68	1648.61
242.89	1689.57
243.11	1767.40
243.33	1744.87
243.55	1714.15
243.76	1722.34
243.98	1660.90
244.20	1765.35
244.42	1636.33
244.64	1767.40
244.85	1669.09
245.07	1650.66
245.29	1693.67
245.51	1636.33
245.72	1785.83
245.94	1789.92
246.16	1771.49
246.38	1744.87
246.59	1652.71
246.81	1714.15
247.03	1697.77
247.24	1708.01
247.46	1718.25
247.68	1697.77
247.90	1673.19
248.11	1730.53
248.33	1736.68
248.55	1742.82
248.77	1738.73
248.98	1746.92
249.20	1755.11
249.42	1781.73
249.64	1757.16
249.85	1722.34
250.07	1669.09
250.29	1787.88
250.50	1837.03
250.72	1716.20
250.94	1705.96
251.16	1832.93
251.37	1705.96
251.59	1691.62
251.81	1767.40
252.02	1732.58
252.24	1726.44
252.46	1787.88
252.68	1644.52
252.89	1755.11
253.11	1558.50
253.33	1806.31
253.54	1771.49
253.76	1560.55
253.98	1691.62
254.20	1703.91
254.41	1632.23
254.63	1710.05
254.85	1660.90
255.06	1683.43
255.28	1755.11
255.50	1742.82
255.71	1667.05
255.93	1581.03
256.15	1660.90
256.36	1785.83
256.58	1652.71
256.80	1712.10
257.02	1677.29
257.23	1638.38
257.45	1673.19
257.67	1658.85
257.88	1611.75
258.10	1730.53
258.32	1773.54
258.53	1662.95
258.75	1751.01
258.97	1640.42
259.18	1677.29
259.40	1736.68
259.62	1808.36
259.83	1769.44
260.05	1767.40
260.27	1980.39
260.48	1748.97
260.70	1583.08
260.92	1658.85
261.13	1673.19
261.35	1738.73
261.57	1755.11
261.78	1605.61
262.00	1578.98
262.22	1769.44
262.43	1687.53
262.65	1734.63
262.86	1626.09
263.08	1777.64
263.30	1767.40
263.51	1640.42
263.73	1621.99
263.95	1812.45
264.16	1683.43
264.38	1697.77
264.60	1703.91
264.81	1697.77
265.03	1783.78
265.25	1785.83
265.46	1632.23
265.68	1767.40
265.89	1767.40
266.11	1621.99
266.33	1853.41
266.54	1740.77
266.76	1720.29
266.98	1753.06
267.19	1763.30
267.41	1798.12
267.62	1626.09
267.84	1624.04
268.06	1746.92
268.27	1718.25
268.49	1761.25
268.70	1781.73
268.92	1716.20
269.14	1730.53
269.35	1601.51
269.57	1714.15
269.79	1779.68
270.00	1726.44
270.22	1916.90
270.43	1593.32
270.65	1601.51
270.87	1753.06
271.08	1724.39
271.30	1773.54
271.51	1685.48
271.73	1826.79
271.95	1775.59
272.16	1753.06
272.38	1710.05
272.59	1660.90
272.81	1675.24
273.02	1669.09
273.24	1808.36
273.46	1761.25
273.67	1693.67
273.89	1708.01
274.10	1626.09
274.32	1779.68
274.54	1718.25
274.75	1732.58
274.97	1677.29
275.18	1705.96
275.40	1738.73
275.61	1695.72
275.83	1691.62
276.05	1581.03
276.26	1693.67
276.48	1748.97
276.69	1708.01
276.91	1642.47
277.12	1771.49
277.34	1769.44
277.55	1781.73
277.77	1675.24
277.99	1632.23
278.20	1632.23
278.42	1699.81
278.63	1677.29
278.85	1744.87
279.06	1683.43
279.28	1597.42
279.49	1789.92
279.71	1687.53
279.93	1742.82
280.14	1755.11
280.36	1691.62
280.57	1677.29
280.79	1757.16
281.00	1665.00
281.22	1673.19
281.43	1726.44
281.65	1558.50
281.86	1695.72
282.08	1701.86
282.29	1783.78
282.51	1662.95
282.73	1677.29
282.94	1615.85
283.16	1794.02
283.37	1816.55
283.59	1650.66
283.80	1771.49
284.02	1687.53
284.23	1681.38
284.45	1705.96
284.66	1634.28
284.88	1777.64
285.09	1695.72
285.31	1708.01
285.52	1728.49
285.74	1626.09
285.95	1763.30
286.17	1722.34
286.38	1841.12
286.60	1701.86
286.81	1669.09
287.03	1685.48
287.24	1738.73
287.46	1755.11
287.67	1746.92
287.89	1869.80
288.10	1736.68
288.32	1689.57
288.53	1787.88
288.75	1718.25
288.96	1748.97
289.18	1724.39
289.39	1712.10
289.61	1761.25
289.82	1847.27
290.04	1859.56
290.25	1603.56
290.47	1640.42
290.68	1726.44
290.90	1855.46
291.11	1646.57
291.33	1746.92
291.54	1720.29
291.76	1615.85
291.97	1693.67
292.18	1701.86
292.40	1667.05
292.61	1681.38
292.83	1841.12
293.04	1740.77
293.26	1781.73
293.47	1648.61
293.69	1636.33
293.90	1710.05
294.12	1738.73
294.33	1785.83
294.55	1671.14
294.76	1748.97
294.97	1853.41
295.19	1888.23
295.40	1703.91
295.62	1755.11
295.83	1742.82
296.05	1695.72
296.26	1777.64
296.48	1650.66
296.69	1660.90
296.90	1710.05
297.12	1699.81
297.33	1787.88
297.55	1714.15
297.76	1751.01
297.98	1771.49
298.19	1701.86
298.41	1722.34
298.62	1656.81
298.83	1796.07
299.05	1703.91
299.26	1695.72
299.48	1728.49
299.69	1781.73
299.90	1734.63
300.12	1630.18
300.33	1773.54
300.55	1679.33
300.76	1722.34
300.98	1689.57
301.19	1718.25
301.40	1675.24
301.62	1650.66
301.83	1644.52
302.05	1705.96
302.26	1677.29
302.47	1755.11
302.69	1697.77
302.90	1701.86
303.12	1583.08
303.33	1800.16
303.54	1869.80
303.76	1683.43
303.97	1769.44
304.19	1771.49
304.40	1665.00
304.61	1800.16
304.83	1816.55
305.04	1785.83
305.26	1718.25
305.47	1648.61
305.68	1734.63
305.90	1642.47
306.11	1800.16
306.33	1738.73
306.54	1732.58
306.75	1642.47
306.97	1644.52
307.18	1621.99
307.39	1665.00
307.61	1730.53
307.82	1650.66
308.04	1787.88
308.25	1687.53
308.46	1726.44
308.68	1779.68
308.89	1751.01
309.10	1742.82
309.32	1730.53
309.53	1644.52
309.74	1757.16
309.96	1652.71
310.17	1845.22
310.39	1726.44
310.60	1746.92
310.81	1695.72
311.03	1708.01
311.24	1769.44
311.45	1748.97
311.67	1841.12
311.88	1726.44
312.09	1677.29
312.31	1693.67
312.52	1738.73
312.73	1673.19
312.95	1636.33
313.16	1738.73
313.37	1771.49
313.59	1816.55
313.80	1734.63
314.01	1763.30
314.23	1718.25
314.44	1671.14
314.65	1720.29
314.87	1624.04
315.08	1703.91
315.29	1755.11
315.51	1662.95
315.72	1685.48
315.93	1773.54
316.15	1822.69
316.36	1640.42
316.57	1644.52
316.79	1714.15
317.00	1677.29
317.21	1740.77
317.43	1671.14
317.64	1730.53
317.85	1574.89
318.07	1636.33
318.28	1748.97
318.49	1742.82
318.70	1968.10
318.92	1845.22
319.13	1771.49
319.34	1884.13
319.56	1742.82
319.77	1787.88
319.98	1847.27
320.20	1744.87
320.41	1697.77
320.62	1755.11
320.83	1640.42
321.05	1826.79
321.26	1753.06
321.47	1722.34
321.69	1765.35
321.90	1691.62
322.11	1718.25
322.32	1748.97
322.54	1740.77
322.75	1732.58
322.96	1796.07
323.18	1677.29
323.39	1693.67
323.60	1710.05
323.81	1667.05
324.03	1695.72
324.24	1654.76
324.45	1761.25
324.66	1689.57
324.88	1720.29
325.09	1837.03
325.30	1685.48
325.52	1759.21
325.73	1748.97
325.94	1617.90
326.15	1601.51
326.37	1689.57
326.58	1757.16
326.79	1820.64
327.00	1619.94
327.22	1671.14
327.43	1769.44
327.64	1656.81
327.85	1757.16
328.07	1718.25
328.28	1820.64
328.49	1632.23
328.70	1683.43
328.92	1755.11
329.13	1693.67
329.34	1724.39
329.55	1804.26
329.76	1761.25
329.98	1636.33
330.19	1746.92
330.40	1769.44
330.61	1730.53
330.83	1695.72
331.04	1562.60
331.25	1837.03
331.46	1667.05
331.68	1593.32
331.89	1771.49
332.10	1787.88
332.31	1654.76
332.52	1660.90
332.74	1751.01
332.95	1593.32
333.16	1714.15
333.37	1705.96
333.58	1710.05
333.80	1701.86
334.01	1683.43
334.22	1730.53
334.43	1679.33
334.64	1593.32
334.86	1669.09
335.07	1669.09
335.28	1775.59
335.49	1646.57
335.70	1837.03
335.92	1787.88
336.13	1855.46
336.34	1662.95
336.55	1652.71
336.76	1740.77
336.98	1611.75
337.19	1738.73
337.40	1847.27
337.61	1810.40
337.82	1658.85
338.04	1759.21
338.25	1624.04
338.46	1759.21
338.67	1673.19
338.88	1634.28
339.09	1662.95
339.31	1695.72
339.52	1689.57
339.73	1656.81
339.94	1720.29
340.15	1755.11
340.36	1673.19
340.58	1722.34
340.79	1712.10
341.00	1740.77
341.21	1718.25
341.42	1767.40
341.63	1724.39
341.85	1757.16
342.06	1712.10
342.27	1669.09
342.48	1779.68
342.69	1619.94
342.90	1669.09
343.12	1691.62
343.33	1710.05
343.54	1701.86
343.75	1777.64
343.96	1703.91
344.17	1691.62
344.38	1665.00
344.60	1615.85
344.81	1652.71
345.02	1705.96
345.23	1779.68
345.44	1771.49
345.65	1785.83
345.86	1734.63
346.07	1683.43
346.29	1669.09
346.50	1738.73
346.71	1785.83
346.92	1824.74
347.13	1798.12
347.34	1699.81
347.55	1716.20
347.76	1765.35
347.98	1693.67
348.19	1710.05
348.40	1734.63
348.61	1734.63
348.82	1769.44
349.03	1757.16
349.24	1697.77
349.45	1785.83
349.66	1568.74
349.88	1660.90
350.09	1644.52
350.30	1841.12
350.51	1785.83
350.72	1753.06
350.93	1816.55
351.14	1636.33
351.35	1742.82
351.56	1710.05
351.77	1726.44
351.99	1703.91
352.20	1738.73
352.41	1746.92
352.62	1632.23
352.83	1667.05
353.04	1675.24
353.25	1665.00
353.46	1791.97
353.67	1880.04
353.88	1595.37
354.09	1701.86
354.30	1712.10
354.52	1779.68
354.73	1710.05
354.94	1683.43
355.15	1744.87
355.36	1794.02
355.57	1677.29
355.78	1769.44
355.99	1619.94
356.20	1550.31
356.41	1832.93
356.62	1736.68
356.83	1771.49
357.04	1777.64
357.25	1591.27
357.46	1636.33
357.68	1648.61
357.89	1697.77
358.10	1654.76
358.31	1648.61
358.52	1705.96
358.73	1603.56
358.94	1640.42
359.15	1632.23
359.36	1812.45
359.57	1640.42
359.78	1640.42
359.99	1767.40
360.20	1626.09
360.41	1716.20
360.62	1748.97
360.83	1740.77
361.04	1736.68
361.25	1767.40
361.46	1890.28
361.67	1667.05
361.88	1765.35
362.09	1763.30
362.30	1695.72
362.51	1656.81
362.72	1728.49
362.93	1767.40
363.14	1771.49
363.35	1673.19
363.56	1621.99
363.78	1767.40
363.99	1738.73
364.20	1697.77
364.41	1665.00
364.62	1861.60
364.83	1689.57
365.04	1660.90
365.25	1689.57
365.46	1808.36
365.67	1665.00
365.88	1617.90
366.09	1703.91
366.30	1730.53
366.51	1730.53
366.72	1724.39
366.93	1740.77
367.14	1734.63
367.35	1808.36
367.56	1718.25
367.77	1734.63
367.98	1593.32
368.18	1765.35
368.39	1730.53
368.60	1667.05
368.81	1757.16
369.02	1730.53
369.23	1732.58
369.44	1613.80
369.65	1726.44
369.86	1806.31
370.07	1705.96
370.28	1703.91
370.49	1740.77
370.70	1757.16
370.91	1558.50
371.12	1667.05
371.33	1787.88
371.54	1732.58
371.75	1804.26
371.96	1673.19
372.17	1759.21
372.38	1658.85
372.59	1732.58
372.80	1683.43
373.01	1685.48
373.22	1669.09
373.43	1740.77
373.64	1611.75
373.85	1748.97
374.06	1789.92
374.26	1796.07
374.47	1693.67
374.68	1681.38
374.89	1677.29
375.10	1642.47
375.31	1708.01
375.52	1699.81
375.73	1691.62
375.94	1593.32
376.15	1851.36
376.36	1632.23
376.57	1738.73
376.78	1699.81
376.99	1683.43
377.20	1751.01
377.40	1654.76
377.61	1800.16
377.82	1699.81
378.03	1859.56
378.24	1703.91
378.45	1667.05
378.66	1662.95
378.87	1619.94
379.08	1695.72
379.29	1742.82
379.50	1865.70
379.71	1685.48
379.91	1757.16
380.12	1640.42
380.33	1734.63
380.54	1667.05
380.75	1744.87
380.96	1654.76
381.17	1767.40
381.38	1705.96
381.59	1732.58
381.80	1708.01
382.00	1828.84
382.21	1738.73
382.42	1845.22
382.63	1841.12
382.84	1798.12
383.05	1808.36
383.26	1761.25
383.47	1755.11
383.68	1740.77
383.88	1732.58
384.09	1673.19
384.30	1851.36
384.51	1724.39
384.72	1644.52
384.93	1691.62
385.14	1691.62
385.35	1789.92
385.55	1581.03
385.76	1708.01
385.97	1708.01
386.18	1681.38
386.39	1716.20
386.60	1718.25
386.81	1705.96
387.02	1640.42
387.22	1667.05
387.43	1732.58
387.64	1697.77
387.85	1877.99
388.06	2152.42
388.27	4159.42
388.48	6508.44
388.68	7952.26
388.89	9117.56
389.10	9469.81
389.31	8361.86
389.52	7430.03
389.73	6492.06
389.93	5992.36
390.14	5693.35
390.35	5013.43
390.56	4491.20
390.77	3688.39
390.98	3084.24
391.18	2490.33
391.39	2111.46
391.60	1820.64
391.81	1859.56
392.02	1712.10
392.23	1908.71
392.43	1765.35
392.64	1746.92
392.85	1763.30
393.06	1812.45
393.27	1716.20
393.47	1650.66
393.68	1736.68
393.89	1662.95
394.10	1771.49
394.31	1695.72
394.52	1636.33
394.72	1726.44
394.93	1855.46
395.14	1648.61
395.35	1746.92
395.56	1779.68
395.76	1753.06
395.97	1851.36
396.18	1814.50
396.39	1769.44
396.60	1943.52
396.80	1976.29
397.01	1820.64
397.22	1877.99
397.43	1892.32
397.64	1708.01
397.84	1777.64
398.05	1865.70
398.26	1730.53
398.47	1724.39
398.67	1777.64
398.88	1751.01
399.09	1794.02
399.30	1710.05
399.51	1826.79
399.71	1683.43
399.92	1705.96
400.13	1732.58
400.34	1679.33
400.54	1681.38
400.75	1800.16
400.96	1769.44
401.17	1796.07
401.37	1691.62
401.58	1724.39
401.79	1757.16
402.00	1910.75
402.21	1949.67
402.41	1898.47
402.62	2021.35
402.83	2062.30
403.04	1935.33
403.24	2129.89
403.45	1771.49
403.66	2000.87
403.87	1902.56
404.07	1900.52
404.28	1877.99
404.49	1837.03
404.70	1781.73
404.90	1708.01
405.11	1777.64
405.32	1771.49
405.52	1728.49
405.73	1652.71
405.94	1701.86
406.15	1656.81
406.35	1812.45
406.56	1779.68
406.77	1751.01
406.98	1720.29
407.18	1662.95
407.39	1804.26
407.60	1687.53
407.80	1781.73
408.01	1714.15
408.22	1755.11
408.43	1699.81
408.63	1753.06
408.84	1755.11
409.05	1751.01
409.25	1710.05
409.46	1689.57
409.67	1742.82
409.88	1765.35
410.08	1769.44
410.29	1732.58
410.50	1712.10
410.70	1810.40
410.91	1660.90
411.12	1769.44
411.32	1728.49
411.53	1730.53
411.74	1796.07
411.95	1810.40
412.15	1722.34
412.36	1757.16
412.57	1796.07
412.77	1798.12
412.98	1785.83
413.19	1730.53
413.39	1794.02
413.60	1761.25
413.81	1802.21
414.01	1665.00
414.22	1787.88
414.43	1779.68
414.63	1718.25
414.84	1816.55
415.05	1710.05
415.25	1675.24
415.46	1746.92
415.67	1689.57
415.87	1789.92
416.08	1722.34
416.29	1648.61
416.49	1716.20
416.70	1681.38
416.91	1656.81
417.11	1705.96
417.32	1806.31
417.53	1820.64
417.73	1765.35
417.94	1681.38
418.15	1689.57
418.35	1673.19
418.56	1763.30
418.77	1847.27
418.97	1716.20
419.18	1697.77
419.38	1570.79
419.59	1759.21
419.80	1796.07
420.00	1697.77
420.21	1740.77
420.42	1781.73
420.62	1738.73
420.83	1677.29
421.04	1728.49
421.24	1689.57
421.45	1763.30
421.65	1720.29
421.86	1716.20
422.07	1708.01
422.27	1728.49
422.48	1724.39
422.69	1640.42
422.89	1693.67
423.10	1720.29
423.30	1703.91
423.51	1732.58
423.72	1732.58
423.92	1751.01
424.13	1714.15
424.33	1693.67
424.54	1724.39
424.75	1763.30
424.95	1773.54
425.16	1744.87
425.36	1689.57
425.57	1785.83
425.78	1789.92
425.98	1787.88
426.19	1691.62
426.39	1648.61
426.60	1742.82
426.81	1812.45
427.01	1759.21
427.22	1736.68
427.42	1615.85
427.63	1617.90
427.83	1785.83
428.04	1804.26
428.25	1863.65
428.45	1843.17
428.66	1753.06
428.86	1761.25
429.07	1669.09
429.28	1783.78
429.48	1636.33
429.69	1671.14
429.89	1738.73
430.10	1689.57
430.30	1781.73
430.51	1798.12
430.71	1648.61
430.92	1685.48
431.13	1685.48
431.33	1705.96
431.54	1693.67
431.74	1832.93
431.95	1812.45
432.15	1708.01
432.36	1683.43
432.56	1746.92
432.77	1757.16
432.98	1851.36
433.18	1730.53
433.39	1771.49
433.59	1740.77
433.80	1769.44
434.00	1869.80
434.21	1746.92
434.41	1642.47
434.62	1791.97
434.82	1662.95
435.03	1685.48
435.23	1730.53
435.44	1665.00
435.64	1714.15
435.85	1740.77
436.06	1742.82
436.26	1718.25
436.47	1751.01
436.67	1652.71
436.88	1701.86
437.08	1736.68
437.29	1804.26
437.49	1757.16
437.70	1767.40
437.90	1740.77
438.11	1726.44
438.31	1816.55
438.52	1806.31
438.72	1847.27
438.93	1927.14
439.13	1759.21
439.34	1804.26
439.54	1796.07
439.75	1794.02
439.95	1771.49
440.16	1685.48
440.36	1693.67
440.57	1853.41
440.77	1775.59
440.98	1740.77
441.18	1736.68
441.39	1599.46
441.59	1665.00
441.80	1871.84
442.00	1767.40
442.21	1787.88
442.41	1652.71
442.62	1763.30
442.82	1724.39
443.02	1775.59
443.23	1697.77
443.43	1730.53
443.64	1857.51
443.84	1714.15
444.05	1912.80
444.25	1697.77
444.46	1679.33
444.66	1767.40
444.87	1816.55
445.07	1560.55
445.28	1742.82
445.48	1712.10
445.69	1800.16
445.89	1927.14
446.09	1705.96
446.30	1947.62
446.50	2713.56
446.71	3545.03
446.91	4165.57
447.12	4689.85
447.32	4702.14
447.53	4306.88
447.73	3760.07
447.93	3481.55
448.14	3266.51
448.34	3157.97
448.55	2867.16
448.75	2861.01
448.96	2660.31
449.16	2365.40
449.36	2222.05
449.57	1968.10
449.77	1927.14
449.98	1814.50
450.18	1841.12
450.39	1863.65
450.59	1787.88
450.79	1742.82
451.00	1722.34
451.20	1796.07
451.41	1761.25
451.61	1755.11
451.81	1746.92
452.02	1734.63
452.22	1722.34
452.43	1714.15
452.63	1732.58
452.84	1726.44
453.04	1785.83
453.24	1753.06
453.45	1662.95
453.65	1679.33
453.86	1767.40
454.06	1763.30
454.26	1779.68
454.47	1703.91
454.67	1800.16
454.87	1755.11
455.08	1703.91
455.28	1804.26
455.49	1763.30
455.69	1701.86
455.89	1918.95
456.10	1820.64
456.30	1640.42
456.51	1736.68
456.71	1781.73
456.91	1798.12
457.12	1773.54
457.32	1705.96
457.52	1699.81
457.73	1804.26
457.93	1708.01
458.14	1640.42
458.34	1689.57
458.54	1748.97
458.75	1710.05
458.95	1794.02
459.15	1785.83
459.36	1804.26
459.56	1804.26
459.76	1873.89
459.97	1828.84
460.17	1775.59
460.37	1757.16
460.58	1716.20
460.78	1814.50
460.99	1718.25
461.19	1728.49
461.39	1722.34
461.60	1759.21
461.80	1861.60
462.00	1695.72
462.21	1734.63
462.41	1736.68
462.61	1660.90
462.82	1759.21
463.02	1785.83
463.22	1787.88
463.43	1820.64
463.63	1734.63
463.83	1746.92
464.04	1751.01
464.24	1773.54
464.44	1673.19
464.64	1761.25
464.85	1685.48
465.05	1828.84
465.25	1744.87
465.46	1650.66
465.66	1724.39
465.86	1701.86
466.07	1705.96
466.27	1761.25
466.47	1574.89
466.68	1665.00
466.88	1785.83
467.08	1751.01
467.29	1738.73
467.49	1818.60
467.69	1783.78
467.89	1724.39
468.10	1705.96
468.30	1751.01
468.50	1796.07
468.71	1826.79
468.91	1656.81
469.11	1851.36
469.31	1800.16
469.52	1654.76
469.72	1810.40
469.92	1894.37
470.13	1673.19
470.33	1744.87
470.53	1898.47
470.73	2131.94
470.94	2320.35
471.14	2287.58
471.34	2447.32
471.54	2410.46
471.75	2181.09
471.95	2142.18
472.15	2136.03
472.36	2029.54
472.56	2041.82
472.76	2007.01
472.96	1994.72
473.17	1939.43
473.37	1918.95
473.57	1769.44
473.77	1816.55
473.98	1785.83
474.18	1673.19
474.38	1988.58
474.58	1701.86
474.79	1710.05
474.99	1742.82
475.19	1841.12
475.39	1650.66
475.60	1767.40
475.80	1777.64
476.00	1712.10
476.20	1742.82
476.41	1757.16
476.61	1734.63
476.81	1832.93
477.01	1667.05
477.21	1783.78
477.42	1828.84
477.62	1656.81
477.82	1722.34
478.02	1681.38
478.23	1773.54
478.43	1652.71
478.63	1726.44
478.83	1722.34
479.03	1751.01
479.24	1726.44
479.44	1828.84
479.64	1751.01
479.84	1544.17
480.04	1699.81
480.25	1761.25
480.45	1705.96
480.65	1689.57
480.85	1886.18
481.06	1691.62
481.26	1767.40
481.46	1720.29
481.66	1734.63
481.86	1689.57
482.06	1810.40
482.27	1771.49
482.47	1648.61
482.67	1734.63
482.87	1771.49
483.07	1703.91
483.28	1691.62
483.48	1646.57
483.68	1769.44
483.88	1626.09
484.08	1591.27
484.29	1740.77
484.49	1816.55
484.69	1656.81
484.89	1742.82
485.09	1710.05
485.29	1824.74
485.50	1701.86
485.70	1683.43
485.90	1781.73
486.10	1703.91
486.30	1714.15
486.50	1738.73
486.71	1767.40
486.91	1746.92
487.11	1814.50
487.31	1689.57
487.51	1732.58
487.71	1708.01
487.91	1722.34
488.12	1726.44
488.32	1624.04
488.52	1722.34
488.72	1638.38
488.92	1767.40
489.12	1869.80
489.32	1794.02
489.53	1841.12
489.73	1632.23
489.93	1837.03
490.13	1681.38
490.33	1656.81
490.53	1728.49
490.73	1777.64
490.94	1640.42
491.14	1796.07
491.34	1818.60
491.54	2078.69
491.74	2613.21
491.94	2897.88
492.14	3008.47
492.34	3010.51
492.54	2703.32
492.75	2502.62
492.95	2402.27
493.15	2340.83
493.35	2314.20
493.55	2179.04
493.75	2086.88
493.95	2125.79
494.15	2002.91
494.35	1916.90
494.56	1875.94
494.76	1781.73
494.96	1818.60
495.16	1755.11
495.36	1740.77
495.56	1755.11
495.76	1746.92
495.96	1718.25
496.16	1708.01
496.36	1771.49
496.56	1738.73
496.77	1738.73
496.97	1712.10
497.17	1839.08
497.37	1724.39
497.57	1759.21
497.77	1683.43
497.97	1767.40
498.17	1718.25
498.37	1703.91
498.57	1712.10
498.77	1710.05
498.97	1710.05
499.17	1839.08
499.38	1744.87
499.58	1777.64
499.78	1826.79
499.98	1839.08
500.18	1771.49
500.38	1699.81
500.58	1929.19
500.78	2537.43
500.98	4386.75
501.18	5681.07
501.38	6616.99
501.58	6711.19
501.78	6479.77
501.98	5380.01
502.18	4734.90
502.38	4235.20
502.58	4081.60
502.78	3729.35
502.98	3567.56
503.18	3383.24
503.38	3133.39
503.59	2635.74
503.79	2731.99
503.99	2404.32
504.19	2183.13
504.39	2205.66
504.59	2119.65
504.79	2111.46
504.99	2150.37
505.19	1908.71
505.39	1824.74
505.59	2002.91
505.79	1937.38
505.99	1865.70
506.19	1845.22
506.39	1890.28
506.59	1724.39
506.79	1849.32
506.99	1777.64
507.19	1701.86
507.39	1736.68
507.59	1714.15
507.79	1746.92
507.99	1746.92
508.19	1681.38
508.39	1648.61
508.59	1701.86
508.79	1787.88
508.99	1814.50
509.19	1730.53
509.39	1734.63
509.59	1740.77
509.79	1699.81
509.99	1785.83
510.19	1761.25
510.39	1818.60
510.59	1751.01
510.79	1675.24
510.99	1652.71
511.19	1822.69
511.39	1886.18
511.59	1732.58
511.79	1787.88
511.99	1761.25
512.19	1800.16
512.38	1742.82
512.58	1681.38
512.78	1714.15
512.98	1808.36
513.18	1853.41
513.38	1636.33
513.58	1751.01
513.78	1718.25
513.98	1697.77
514.18	1791.97
514.38	1742.82
514.58	1812.45
514.78	1638.38
514.98	1665.00
515.18	1800.16
515.38	1644.52
515.58	1875.94
515.78	1697.77
515.98	1714.15
516.18	1757.16
516.38	1806.31
516.57	1679.33
516.77	1714.15
516.97	1822.69
517.17	1771.49
517.37	1699.81
517.57	1759.21
517.77	1724.39
517.97	1650.66
518.17	1804.26
518.37	1703.91
518.57	1720.29
518.77	1722.34
518.97	1712.10
519.16	1789.92
519.36	1810.40
519.56	1742.82
519.76	1777.64
519.96	1693.67
520.16	1837.03
520.36	1644.52
520.56	1804.26
520.76	1687.53
520.96	1699.81
521.16	1828.84
521.35	1771.49
521.55	1861.60
521.75	1777.64
521.95	1812.45
522.15	1689.57
522.35	1675.24
522.55	1669.09
522.75	1796.07
522.95	1718.25
523.14	1722.34
523.34	1708.01
523.54	1710.05
523.74	1775.59
523.94	1714.15
524.14	1673.19
524.34	1791.97
524.54	1865.70
524.73	1660.90
524.93	1779.68
525.13	1724.39
525.33	1644.52
525.53	1855.46
525.73	1785.83
525.93	1681.38
526.13	1710.05
526.32	1781.73
526.52	1763.30
526.72	1740.77
526.92	1685.48
527.12	1693.67
527.32	1679.33
527.52	1738.73
527.71	1744.87
527.91	1691.62
528.11	1759.21
528.31	1736.68
528.51	1667.05
528.71	1742.82
528.90	1763.30
529.10	1761.25
529.30	1773.54
529.50	1669.09
529.70	1718.25
529.90	1724.39
530.09	1718.25
530.29	1722.34
530.49	1714.15
530.69	1918.95
530.89	1820.64
531.09	1746.92
531.28	1771.49
531.48	1820.64
531.68	1716.20
531.88	1779.68
532.08	1716.20
532.28	1744.87
532.47	1767.40
532.67	1824.74
532.87	1757.16
533.07	1724.39
533.27	1804.26
533.46	1681.38
533.66	1798.12
533.86	1820.64
534.06	1732.58
534.26	1740.77
534.45	1781.73
534.65	1814.50
534.85	1755.11
535.05	1705.96
535.25	1761.25
535.44	1693.67
535.64	1775.59
535.84	1685.48
536.04	1728.49
536.24	1708.01
536.43	1691.62
536.63	1751.01
536.83	1798.12
537.03	1744.87
537.22	1669.09
537.42	1628.14
537.62	1757.16
537.82	1699.81
538.02	1732.58
538.21	1808.36
538.41	1890.28
538.61	1771.49
538.81	1722.34
539.00	1816.55
539.20	1609.70
539.40	1695.72
539.60	1822.69
539.79	1859.56
539.99	1746.92
540.19	1724.39
540.39	1720.29
540.58	1804.26
540.78	1798.12
540.98	1744.87
541.18	1884.13
541.37	1796.07
541.57	1816.55
541.77	1785.83
541.97	1624.04
542.16	1689.57
542.36	1804.26
542.56	1693.67
542.76	1775.59
542.95	1763.30
543.15	1837.03
543.35	1808.36
543.54	1697.77
543.74	1718.25
543.94	1773.54
544.14	1705.96
544.33	1738.73
544.53	1675.24
544.73	1763.30
544.93	1775.59
545.12	1646.57
545.32	1718.25
545.52	1769.44
545.71	1669.09
545.91	1689.57
546.11	1681.38
546.30	1724.39
546.50	1771.49
546.70	1669.09
546.90	1742.82
547.09	1693.67
547.29	1728.49
547.49	1794.02
547.68	1804.26
547.88	1742.82
548.08	1779.68
548.27	2095.07
548.47	1722.34
548.67	1710.05
548.87	1810.40
549.06	1738.73
549.26	1791.97
549.46	1796.07
549.65	1779.68
549.85	1679.33
550.05	1755.11
550.24	1708.01
550.44	1691.62
550.64	1810.40
550.83	1791.97
551.03	1824.74
551.23	1816.55
551.42	1769.44
551.62	1716.20
551.82	1753.06
552.01	1769.44
552.21	1779.68
552.41	1771.49
552.60	1757.16
552.80	1804.26
553.00	1687.53
553.19	1800.16
553.39	1822.69
553.59	1642.47
553.78	1718.25
553.98	1759.21
554.17	1634.28
554.37	1734.63
554.57	1847.27
554.76	1695.72
554.96	1714.15
555.16	1843.17
555.35	1855.46
555.55	1775.59
555.75	1726.44
555.94	1734.63
556.14	1611.75
556.33	1771.49
556.53	1802.21
556.73	1738.73
556.92	1716.20
557.12	1824.74
557.32	1914.85
557.51	1789.92
557.71	1742.82
557.90	1830.88
558.10	1841.12
558.30	1632.23
558.49	1689.57
558.69	1824.74
558.88	1740.77
559.08	1753.06
559.28	1748.97
559.47	1761.25
559.67	1746.92
559.86	1906.66
560.06	1773.54
560.26	1765.35
560.45	1777.64
560.65	1701.86
560.84	1841.12
561.04	1693.67
561.24	1794.02
561.43	1740.77
561.63	1830.88
561.82	1734.63
562.02	1701.86
562.22	1671.14
562.41	1650.66
562.61	1773.54
562.80	1742.82
563.00	1865.70
563.19	1744.87
563.39	1699.81
563.59	1808.36
563.78	1679.33
563.98	1718.25
564.17	1695.72
564.37	1636.33
564.56	1781.73
564.76	1650.66
564.96	1761.25
565.15	1794.02
565.35	1892.32
565.54	1716.20
565.74	1767.40
565.93	1755.11
566.13	1744.87
566.32	1789.92
566.52	1800.16
566.71	1761.25
566.91	1785.83
567.11	1730.53
567.30	1785.83
567.50	1779.68
567.69	1779.68
567.89	1740.77
568.08	1701.86
568.28	1777.64
568.47	1667.05
568.67	1730.53
568.86	1730.53
569.06	1734.63
569.25	1677.29
569.45	1701.86
569.64	1705.96
569.84	1740.77
570.04	1845.22
570.23	1703.91
570.43	1779.68
570.62	1765.35
570.82	1771.49
571.01	1689.57
571.21	1751.01
571.40	1724.39
571.60	1773.54
571.79	1779.68
571.99	1816.55
572.18	1648.61
572.38	1791.97
572.57	1718.25
572.77	1769.44
572.96	1834.98
573.16	1726.44
573.35	1710.05
573.55	1796.07
573.74	1761.25
573.94	1755.11
574.13	1720.29
574.33	1726.44
574.52	1800.16
574.71	1763.30
574.91	1773.54
575.10	1691.62
575.30	1662.95
575.49	1814.50
575.69	1662.95
575.88	1769.44
576.08	1718.25
576.27	1773.54
576.47	1785.83
576.66	1914.85
576.86	1796.07
577.05	1703.91
577.25	1791.97
577.44	1906.66
577.64	1679.33
577.83	1853.41
578.02	1740.77
578.22	1814.50
578.41	1849.32
578.61	1685.48
578.80	1726.44
579.00	1828.84
579.19	1736.68
579.39	1777.64
579.58	1875.94
579.77	1837.03
579.97	1787.88
580.16	1869.80
580.36	1822.69
580.55	1839.08
580.75	1781.73
580.94	1773.54
581.13	1832.93
581.33	1832.93
581.52	1751.01
581.72	1853.41
581.91	1818.60
582.11	1718.25
582.30	1796.07
582.49	1716.20
582.69	1804.26
582.88	1804.26
583.08	1714.15
583.27	1855.46
583.47	1830.88
583.66	1732.58
583.85	1736.68
584.05	1796.07
584.24	1798.12
584.44	1775.59
584.63	1828.84
584.82	1877.99
585.02	1796.07
585.21	1804.26
585.41	1863.65
585.60	1845.22
585.79	1849.32
585.99	1914.85
586.18	1810.40
586.37	2230.24
586.57	3467.21
586.76	9686.89
586.96	23760.53
587.15	33273.35
587.34	38727.09
587.54	40658.32
587.73	35290.60
587.93	25480.83
588.12	20913.86
588.31	17694.45
588.51	15968.01
588.70	14372.64
588.89	13717.29
589.09	12220.23
589.28	10477.41
589.47	9035.64
589.67	7841.67
589.86	6236.06
590.06	4816.82
590.25	3858.37
590.44	3112.91
590.64	2598.87
590.83	2201.57
591.02	2115.55
591.22	1945.57
591.41	1900.52
591.60	1779.68
591.80	1918.95
591.99	1787.88
592.18	1834.98
592.38	1785.83
592.57	1710.05
592.76	1748.97
592.96	1843.17
593.15	1796.07
593.34	1824.74
593.54	1742.82
593.73	1841.12
593.92	1843.17
594.12	1775.59
594.31	1779.68
594.50	1839.08
594.70	1867.75
594.89	1961.95
595.08	1634.28
595.28	1771.49
595.47	1951.71
595.66	1861.60
595.86	1738.73
596.05	1716.20
596.24	1703.91
596.43	1908.71
596.63	1789.92
596.82	1724.39
597.01	1759.21
597.21	1822.69
597.40	1740.77
597.59	1816.55
597.79	1736.68
597.98	1701.86
598.17	1812.45
598.36	1794.02
598.56	1818.60
598.75	1703.91
598.94	1740.77
599.14	1705.96
599.33	1644.52
599.52	1738.73
599.71	1765.35
599.91	1757.16
600.10	1757.16
600.29	1806.31
600.48	1808.36
600.68	1812.45
600.87	1753.06
601.06	1738.73
601.26	1794.02
601.45	1812.45
601.64	1767.40
601.83	1828.84
602.03	1726.44
602.22	1675.24
602.41	1791.97
602.60	1923.04
602.80	1765.35
602.99	1818.60
603.18	1734.63
603.37	1687.53
603.57	1767.40
603.76	1808.36
603.95	1748.97
604.14	1693.67
604.34	1773.54
604.53	1730.53
604.72	1734.63
604.91	1783.78
605.10	1769.44
605.30	1730.53
605.49	1886.18
605.68	1759.21
605.87	1732.58
606.07	1789.92
606.26	1781.73
606.45	1779.68
606.64	1705.96
606.84	1730.53
607.03	1757.16
607.22	1771.49
607.41	1656.81
607.60	1765.35
607.80	1888.23
607.99	1703.91
608.18	1714.15
608.37	1734.63
608.56	1671.14
608.76	1755.11
608.95	1880.04
609.14	1763.30
609.33	1785.83
609.52	1808.36
609.72	1769.44
609.91	1796.07
610.10	1751.01
610.29	1871.84
610.48	1718.25
610.68	1798.12
610.87	1755.11
611.06	1800.16
611.25	1783.78
611.44	1869.80
611.63	1697.77
611.83	1753.06
612.02	1669.09
612.21	1777.64
612.40	1726.44
612.59	1724.39
612.79	1726.44
612.98	1755.11
613.17	1818.60
613.36	1783.78
613.55	1785.83
613.74	1734.63
613.93	1744.87
614.13	1714.15
614.32	1781.73
614.51	1828.84
614.70	1746.92
614.89	1720.29
615.08	1783.78
615.28	2039.78
615.47	1738.73
615.66	1722.34
615.85	1753.06
616.04	1761.25
616.23	1728.49
616.42	1695.72
616.62	1718.25
616.81	1773.54
617.00	1716.20
617.19	1839.08
617.38	1677.29
617.57	1783.78
617.76	1710.05
617.95	1787.88
618.15	1773.54
618.34	1847.27
618.53	1642.47
618.72	1759.21
618.91	1775.59
619.10	1746.92
619.29	1708.01
619.48	1742.82
619.68	1638.38
619.87	1744.87
620.06	1648.61
620.25	1822.69
620.44	1642.47
620.63	1783.78
620.82	1724.39
621.01	1689.57
621.20	1720.29
621.39	1802.21
621.59	1720.29
621.78	1738.73
621.97	1660.90
622.16	1751.01
622.35	1751.01
622.54	1787.88
622.73	1902.56
622.92	1697.77
623.11	1732.58
623.30	1689.57
623.49	1812.45
623.68	1665.00
623.88	1757.16
624.07	1738.73
624.26	1665.00
624.45	1724.39
624.64	1714.15
624.83	1832.93
625.02	1718.25
625.21	1740.77
625.40	1796.07
625.59	1736.68
625.78	1742.82
625.97	1767.40
626.16	1746.92
626.35	1732.58
626.54	1785.83
626.74	1820.64
626.93	1669.09
627.12	1730.53
627.31	1779.68
627.50	1820.64
627.69	1867.75
627.88	1697.77
628.07	1755.11
628.26	1652.71
628.45	1656.81
628.64	1714.15
628.83	1753.06
629.02	1660.90
629.21	1765.35
629.40	1744.87
629.59	1755.11
629.78	1667.05
629.97	1687.53
630.16	1722.34
630.35	1751.01
630.54	1687.53
630.73	1714.15
630.92	1665.00
631.11	1687.53
631.30	1730.53
631.49	1773.54
631.68	1732.58
631.87	1773.54
632.06	1728.49
632.25	1894.37
632.44	1705.96
632.63	1826.79
632.82	1759.21
633.01	1636.33
633.20	1716.20
633.39	1710.05
633.58	1652.71
633.77	1736.68
633.96	1777.64
634.15	1748.97
634.34	1783.78
634.53	1646.57
634.72	1701.86
634.91	1730.53
635.10	1736.68
635.29	1732.58
635.48	1769.44
635.67	1695.72
635.86	1687.53
636.05	1767.40
636.24	1732.58
636.43	1787.88
636.62	1757.16
636.81	1548.26
637.00	1724.39
637.19	1742.82
637.38	1652.71
637.57	1767.40
637.76	1708.01
637.95	1769.44
638.14	1673.19
638.33	1744.87
638.52	1742.82
638.71	1679.33
638.89	1615.85
639.08	1767.40
639.27	1800.16
639.46	1716.20
639.65	1775.59
639.84	1669.09
640.03	1791.97
640.22	1699.81
640.41	1855.46
640.60	1644.52
640.79	1734.63
640.98	1730.53
641.17	1726.44
641.36	1695.72
641.55	1746.92
641.74	1574.89
641.92	1652.71
642.11	1652.71
642.30	1699.81
642.49	1703.91
642.68	1689.57
642.87	1734.63
643.06	1724.39
643.25	1699.81
643.44	1689.57
643.63	1681.38
643.82	1781.73
644.00	1636.33
644.19	1697.77
644.38	1648.61
644.57	1716.20
644.76	1744.87
644.95	1669.09
645.14	1802.21
645.33	1753.06
645.52	1656.81
645.71	1636.33
645.89	1626.09
646.08	1746.92
646.27	1703.91
646.46	1855.46
646.65	1603.56
646.84	1720.29
647.03	1724.39
647.22	1771.49
647.40	1759.21
647.59	1685.48
647.78	1624.04
647.97	1619.94
648.16	1683.43
648.35	1771.49
648.54	1732.58
648.73	1759.21
648.91	1826.79
649.10	1632.23
649.29	1675.24
649.48	1671.14
649.67	1724.39
649.86	1665.00
650.05	1677.29
650.23	1755.11
650.42	1644.52
650.61	1789.92
650.80	1714.15
650.99	1904.61
651.18	1714.15
651.36	1796.07
651.55	1716.20
651.74	1787.88
651.93	1724.39
652.12	1685.48
652.31	1757.16
652.49	1744.87
652.68	1693.67
652.87	1810.40
653.06	1771.49
653.25	1888.23
653.44	1736.68
653.62	1759.21
653.81	1693.67
654.00	1703.91
654.19	1738.73
654.38	1816.55
654.56	1763.30
654.75	1703.91
654.94	1800.16
655.13	1722.34
655.32	1726.44
655.51	1775.59
655.69	1734.63
655.88	1794.02
656.07	1662.95
656.26	1705.96
656.45	1628.14
656.63	1763.30
656.82	1783.78
657.01	1828.84
657.20	1665.00
657.38	1826.79
657.57	1718.25
657.76	1691.62
657.95	1826.79
658.14	1732.58
658.32	1652.71
658.51	1615.85
658.70	1773.54
658.89	1732.58
659.08	1640.42
659.26	1783.78
659.45	1595.37
659.64	1675.24
659.83	1671.14
660.01	1859.56
660.20	1714.15
660.39	1843.17
660.58	1597.42
660.76	1845.22
660.95	1687.53
661.14	1757.16
661.33	1595.37
661.51	1644.52
661.70	1681.38
661.89	1773.54
662.08	1783.78
662.26	1740.77
662.45	1691.62
662.64	1773.54
662.83	1791.97
663.01	1667.05
663.20	1687.53
663.39	1830.88
663.58	1746.92
663.76	1697.77
663.95	1796.07
664.14	1656.81
664.32	1660.90
664.51	1689.57
664.70	1656.81
664.89	1724.39
665.07	1613.80
665.26	1798.12
665.45	1636.33
665.64	1765.35
665.82	1781.73
666.01	1785.83
666.20	1646.57
666.38	1734.63
666.57	1857.51
666.76	2224.09
666.95	4562.87
667.13	10280.80
667.32	14706.46
667.51	17256.18
667.69	18466.53
667.88	16891.65
668.07	11956.04
668.25	9164.66
668.44	7815.05
668.63	7128.98
668.81	6680.47
669.00	6033.32
669.19	5615.53
669.38	4927.41
669.56	4532.15
669.75	3862.47
669.94	3227.60
670.12	2856.92
670.31	2492.38
670.50	2246.62
670.68	2127.84
670.87	1906.66
671.06	1822.69
671.24	1794.02
671.43	1845.22
671.62	1728.49
671.80	1714.15
671.99	1767.40
672.18	1673.19
672.36	1746.92
672.55	1728.49
672.74	1755.11
672.92	1646.57
673.11	1765.35
673.29	1619.94
673.48	1779.68
673.67	1685.48
673.85	1855.46
674.04	1738.73
674.23	1730.53
674.41	1798.12
674.60	1746.92
674.79	1624.04
674.97	1716.20
675.16	1705.96
675.34	1804.26
675.53	1755.11
675.72	1816.55
675.90	1880.04
676.09	1689.57
676.28	1755.11
676.46	1634.28
676.65	1773.54
676.83	1685.48
677.02	1736.68
677.21	1796.07
677.39	1771.49
677.58	1667.05
677.77	1718.25
677.95	1726.44
678.14	1746.92
678.32	1712.10
678.51	1769.44
678.70	1875.94
678.88	1660.90
679.07	1751.01
679.25	1701.86
679.44	1708.01
679.63	1673.19
679.81	1748.97
680.00	1794.02
680.18	1746.92
680.37	1759.21
680.55	1730.53
680.74	1691.62
680.93	1708.01
681.11	1765.35
681.30	1648.61
681.48	1720.29
681.67	1693.67
681.85	1726.44
682.04	1730.53
682.23	1802.21
682.41	1732.58
682.60	1673.19
682.78	1718.25
682.97	1681.38
683.15	1695.72
683.34	1710.05
683.53	1796.07
683.71	1652.71
683.90	1746.92
684.08	1810.40
684.27	1675.24
684.45	1695.72
684.64	1755.11
684.82	1712.10
685.01	1826.79
685.19	1708.01
685.38	1773.54
685.57	1701.86
685.75	1695.72
685.94	1679.33
686.12	1638.38
686.31	1636.33
686.49	1857.51
686.68	1607.66
686.86	1779.68
687.05	1714.15
687.23	1849.32
687.42	1621.99
687.60	1652.71
687.79	1834.98
687.97	1789.92
688.16	1757.16
688.34	1814.50
688.53	1568.74
688.71	1748.97
688.90	1742.82
689.08	1662.95
689.27	1658.85
689.45	1779.68
689.64	1744.87
689.82	1771.49
690.01	1736.68
690.19	1689.57
690.38	1652.71
690.56	1773.54
690.75	1648.61
690.93	1681.38
691.12	1671.14
691.30	1732.58
691.49	1652.71
691.67	1736.68
691.86	1789.92
692.04	1675.24
692.23	1648.61
692.41	1705.96
692.60	1845.22
692.78	1708.01
692.97	1675.24
693.15	1759.21
693.34	1767.40
693.52	1746.92
693.71	1654.76
693.89	1675.24
694.08	1621.99
694.26	1787.88
694.44	1775.59
694.63	1806.31
694.81	1669.09
695.00	1689.57
695.18	1853.41
695.37	1871.84
695.55	1767.40
695.74	1720.29
695.92	1640.42
696.10	1804.26
696.29	1609.70
696.47	1650.66
696.66	1697.77
696.84	1646.57
697.03	1751.01
697.21	1837.03
697.40	2267.10
697.58	1751.01
697.76	1718.25
697.95	1679.33
698.13	1681.38
698.32	1732.58
698.50	1724.39
698.68	1742.82
698.87	1763.30
699.05	1845.22
699.24	1738.73
699.42	1740.77
699.61	1687.53
699.79	1656.81
699.97	1724.39
700.16	1660.90
700.34	1607.66
700.53	1718.25
700.71	1771.49
700.89	1875.94
701.08	1705.96
701.26	1640.42
701.45	2154.46
701.63	1746.92
701.81	1697.77
702.00	1648.61
702.18	1738.73
702.37	1673.19
702.55	1697.77
702.73	1722.34
702.92	1738.73
703.10	1748.97
703.28	1771.49
703.47	1681.38
703.65	1765.35
703.84	1800.16
704.02	1673.19
704.20	1923.04
704.39	1685.48
704.57	1701.86
704.75	1757.16
704.94	1783.78
705.12	1769.44
705.30	1769.44
705.49	2289.63
705.67	4370.37
705.86	9146.23
706.04	12267.33
706.22	14044.97
706.41	14903.07
706.59	13047.61
706.77	9099.13
706.96	7296.91
707.14	6410.14
707.32	5846.95
707.51	5400.49
707.69	4695.99
707.87	4089.79
708.06	3563.47
708.24	2869.20
708.42	2443.23
708.61	2181.09
708.79	1910.75
708.97	1837.03
709.16	1877.99
709.34	1755.11
709.52	1744.87
709.71	1789.92
709.89	1738.73
710.07	1648.61
710.26	1658.85
710.44	1763.30
710.62	1716.20
710.80	1722.34
710.99	1730.53
711.17	1800.16
711.35	1716.20
711.54	1687.53
711.72	1714.15
711.90	1662.95
712.09	1710.05
712.27	1708.01
712.45	1820.64
712.63	1722.34
712.82	1705.96
713.00	1720.29
713.18	1675.24
713.37	1789.92
713.55	1759.21
713.73	1851.36
713.91	1734.63
714.10	1728.49
714.28	1693.67
714.46	1693.67
714.65	1740.77
714.83	1757.16
715.01	1734.63
715.19	1669.09
715.38	1724.39
715.56	1771.49
715.74	1693.67
715.92	1685.48
716.11	1812.45
716.29	1632.23
716.47	1746.92
716.65	1640.42
716.84	1675.24
717.02	1787.88
717.20	1581.03
717.38	1697.77
717.57	1724.39
717.75	1671.14
717.93	1640.42
718.11	1640.42
718.30	1660.90
718.48	1714.15
718.66	1755.11
718.84	1732.58
719.03	1726.44
719.21	1626.09
719.39	1740.77
719.57	1794.02
719.75	1779.68
719.94	1576.94
720.12	1656.81
720.30	1689.57
720.48	1742.82
720.67	1640.42
720.85	1671.14
721.03	1650.66
721.21	1654.76
721.39	1798.12
721.58	1710.05
721.76	1703.91
721.94	1742.82
722.12	1683.43
722.30	1816.55
722.49	1673.19
722.67	1677.29
722.85	1714.15
723.03	1656.81
723.21	1652.71
723.40	1761.25
723.58	1724.39
723.76	1746.92
723.94	1763.30
724.12	1691.62
724.30	1730.53
724.49	1767.40
724.67	1705.96
724.85	1785.83
725.03	1642.47
725.21	1802.21
725.40	1734.63
725.58	1683.43
725.76	1800.16
725.94	1740.77
726.12	1677.29
726.30	1726.44
726.49	1640.42
726.67	1669.09
726.85	1701.86
727.03	1832.93
727.21	2197.47
727.39	2912.21
727.57	3686.34
727.76	4165.57
727.94	4325.31
728.12	4255.68
728.30	3583.95
728.48	2861.01
728.66	2691.03
728.84	2516.95
729.03	2144.22
729.21	2103.26
729.39	1925.09
729.57	1767.40
729.75	1761.25
729.93	1820.64
730.11	1798.12
730.30	1628.14
730.48	1644.52
730.66	1722.34
730.84	1738.73
731.02	1703.91
731.20	1693.67
731.38	1699.81
731.56	1603.56
731.74	1763.30
731.93	1757.16
732.11	1654.76
732.29	1712.10
732.47	1761.25
732.65	1742.82
732.83	1791.97
733.01	1775.59
733.19	1677.29
733.37	1679.33
733.56	1759.21
733.74	1677.29
733.92	1812.45
734.10	1701.86
734.28	1726.44
734.46	1640.42
734.64	1673.19
734.82	1683.43
735.00	1685.48
735.18	1751.01
735.36	1712.10
735.54	1701.86
735.73	1652.71
735.91	1765.35
736.09	1736.68
736.27	1673.19
736.45	1689.57
736.63	1673.19
736.81	1738.73
736.99	1779.68
737.17	1779.68
737.35	1699.81
737.53	1685.48
737.71	1791.97
737.89	1814.50
738.07	1699.81
738.25	1636.33
738.43	1644.52
738.61	1710.05
738.80	1615.85
738.98	1660.90
739.16	1681.38
739.34	1654.76
739.52	1826.79
739.70	1675.24
739.88	1751.01
740.06	1783.78
740.24	1634.28
740.42	1796.07
740.60	1574.89
740.78	1671.14
740.96	1669.09
741.14	1689.57
741.32	1826.79
741.50	1591.27
741.68	1800.16
741.86	1812.45
742.04	1665.00
742.22	1695.72
742.40	1665.00
742.58	1742.82
742.76	1759.21
742.94	1738.73
743.12	1617.90
743.30	1755.11
743.48	1691.62
743.66	1667.05
743.84	1753.06
744.02	1654.76
744.20	1728.49
744.38	1687.53
744.56	1669.09
744.74	1796.07
744.92	1683.43
745.10	1769.44
745.28	1701.86
745.46	1775.59
745.64	1667.05
745.82	1769.44
746.00	1701.86
746.18	1718.25
746.36	1644.52
746.54	1671.14
746.72	1691.62
746.90	1730.53
747.08	1769.44
747.26	1685.48
747.44	1804.26
747.62	1736.68
747.80	1671.14
747.98	1824.74
748.15	1724.39
748.33	1824.74
748.51	1724.39
748.69	1734.63
748.87	1705.96
749.05	1671.14
749.23	1718.25
749.41	1691.62
749.59	1654.76
749.77	1617.90
749.95	1712.10
750.13	1701.86
750.31	1755.11
750.49	1595.37
750.67	1722.34
750.85	1923.04
751.03	1804.26
751.20	1810.40
751.38	1734.63
751.56	1611.75
751.74	1761.25
751.92	1701.86
752.10	1673.19
752.28	1796.07
752.46	1667.05
752.64	1695.72
752.82	1693.67
753.00	1834.98
753.18	1710.05
753.35	1646.57
753.53	1710.05
753.71	1621.99
753.89	1722.34
754.07	1726.44
754.25	1828.84
754.43	1708.01
754.61	1667.05
754.79	1816.55
754.97	1681.38
755.14	1773.54
755.32	1642.47
755.50	1757.16
755.68	1710.05
755.86	1665.00
756.04	1716.20
756.22	1570.79
756.40	1718.25
756.57	1796.07
756.75	1710.05
756.93	1718.25
757.11	1808.36
757.29	1654.76
757.47	1710.05
757.65	1681.38
757.82	1550.31
758.00	1697.77
758.18	1710.05
758.36	1716.20
758.54	1845.22
758.72	1626.09
758.90	1722.34
759.07	1753.06
759.25	1605.61
759.43	1738.73
759.61	1624.04
759.79	2140.13
759.97	1732.58
760.15	1689.57
760.32	1667.05
760.50	1679.33
760.68	1847.27
760.86	1632.23
761.04	1765.35
761.22	1751.01
761.39	1759.21
761.57	1710.05
761.75	1665.00
761.93	1726.44
762.11	1646.57
762.28	1730.53
762.46	1660.90
762.64	1685.48
762.82	1689.57
763.00	1603.56
763.18	1789.92
763.35	1595.37
763.53	1814.50
763.71	1728.49
763.89	1705.96
764.07	1822.69
764.24	1714.15
764.42	1742.82
764.60	1765.35
764.78	1751.01
764.96	1748.97
765.13	1769.44
765.31	1720.29
765.49	1738.73
765.67	1626.09
765.84	1669.09
766.02	1589.22
766.20	1601.51
766.38	1693.67
766.56	1714.15
766.73	1742.82
766.91	1744.87
767.09	1681.38
767.27	1789.92
767.44	1609.70
767.62	1740.77
767.80	1697.77
767.98	1658.85
768.15	1691.62
768.33	1759.21
768.51	1724.39
768.69	1656.81
768.87	1744.87
769.04	1697.77
769.22	1859.56
769.40	1787.88
769.58	1849.32
769.75	1732.58
769.93	1796.07
770.11	1632.23
770.28	1656.81
770.46	1746.92
770.64	1689.57
770.82	1683.43
770.99	1665.00
771.17	1789.92
771.35	1708.01
771.53	1667.05
771.70	1615.85
771.88	1748.97
772.06	1767.40
772.23	1697.77
772.41	1701.86
772.59	1748.97
772.77	1626.09
772.94	1714.15
773.12	1662.95
773.30	1613.80
773.47	1714.15
773.65	1671.14
773.83	1759.21
774.01	1646.57
774.18	1636.33
774.36	1658.85
774.54	1546.22
774.71	1736.68
774.89	1630.18
775.07	1648.61
775.24	1626.09
775.42	1685.48
775.60	1832.93
775.78	1650.66
775.95	1683.43
776.13	1652.71
776.31	1599.46
776.48	1703.91
776.66	1771.49
776.84	1638.38
777.01	1703.91
777.19	1642.47
777.37	1673.19
777.54	1777.64
777.72	1701.86
777.90	1751.01
778.07	1611.75
778.25	1900.52
778.43	1708.01
778.60	1669.09
778.78	1789.92
778.96	1794.02
779.13	1581.03
779.31	1785.83
779.49	1646.57
779.66	1755.11
779.84	1656.81
780.01	1695.72
780.19	1718.25
780.37	1726.44
780.54	1705.96
780.72	1748.97
780.90	1718.25
781.07	1736.68
781.25	1669.09
781.43	1718.25
781.60	1665.00
781.78	1822.69
781.95	1679.33
782.13	1652.71
782.31	1738.73
782.48	1578.98
782.66	1748.97
782.83	1806.31
783.01	1808.36
783.19	1783.78
783.36	1761.25
783.54	1724.39
783.72	1728.49
783.89	1621.99
784.07	1712.10
784.24	1734.63
784.42	1791.97
784.60	1742.82
784.77	1705.96
784.95	1595.37
785.12	1744.87
785.30	1740.77
785.47	1640.42
785.65	1669.09
785.83	1744.87
786.00	1650.66
786.18	1710.05
786.35	1628.14
786.53	1677.29
786.71	1738.73
786.88	1683.43
787.06	1748.97
787.23	1787.88
787.41	1619.94
787.58	1771.49
787.76	1701.86
787.94	1763.30
788.11	1638.38
788.29	1630.18
788.46	1679.33
788.64	1724.39
788.81	1654.76
788.99	1658.85
789.16	1660.90
789.34	1703.91
789.52	1714.15
789.69	1667.05
789.87	1656.81
790.04	1685.48
790.22	1732.58
790.39	1837.03
790.57	1644.52
790.74	1701.86
790.92	1699.81
791.09	1611.75
791.27	1642.47
791.44	1753.06
791.62	1734.63
791.79	1771.49
791.97	1714.15
792.15	1863.65
792.32	1814.50
792.50	1705.96
792.67	1814.50
792.85	1810.40
793.02	1753.06
793.20	1630.18
793.37	1691.62
793.55	1658.85
793.72	1683.43
793.90	1736.68
794.07	1681.38
794.25	1683.43
794.42	1685.48
794.60	1759.21
794.77	1755.11
794.95	1714.15
795.12	1701.86
795.30	1681.38
795.47	1603.56
795.65	1908.71
795.82	1669.09
796.00	1636.33
796.17	1677.29
796.34	1665.00
796.52	1748.97
796.69	1712.10
796.87	1781.73
797.04	1710.05
797.22	1738.73
797.39	1697.77
797.57	1718.25
797.74	1748.97
797.92	1746.92
798.09	1669.09
798.27	1767.40
798.44	1689.57
798.62	1710.05
798.79	1685.48
798.96	1726.44
799.14	1689.57
799.31	1871.84
799.49	1671.14
799.66	1671.14
799.84	1746.92
800.01	1636.33
800.19	1699.81
800.36	1609.70
800.53	1740.77
800.71	1687.53
800.88	1791.97
801.06	1695.72
801.23	1626.09
801.41	1675.24
801.58	1681.38
801.75	1628.14
801.93	1736.68
802.10	1761.25
802.28	1728.49
802.45	1626.09
802.63	1765.35
802.80	1751.01
802.97	1703.91
803.15	1656.81
803.32	1689.57
803.50	1652.71
803.67	1681.38
803.84	1619.94
804.02	1775.59
804.19	1626.09
804.37	1636.33
804.54	1687.53
804.71	1712.10
804.89	1648.61
805.06	1665.00
805.24	1634.28
805.41	1665.00
805.58	1675.24
805.76	1925.09
805.93	1689.57
806.10	1755.11
806.28	1751.01
806.45	1691.62
806.63	1740.77
806.80	1710.05
806.97	1716.20
807.15	1730.53
807.32	1734.63
807.49	1658.85
807.67	1624.04
807.84	1726.44
808.01	1656.81
808.19	1828.84
808.36	1796.07
808.54	1710.05
808.71	1687.53
808.88	1755.11
809.06	1779.68
809.23	1703.91
809.40	1669.09
809.58	1822.69
809.75	1701.86
809.92	1658.85
810.10	1837.03
810.27	1644.52
810.44	1658.85
810.62	1691.62
810.79	1763.30
810.96	1681.38
811.14	1695.72
811.31	1697.77
811.48	1730.53
811.66	1691.62
811.83	1791.97
812.00	1824.74
812.18	1677.29
812.35	1804.26
812.52	1746.92
812.69	1673.19
812.87	1679.33
813.04	1632.23
813.21	1673.19
813.39	1708.01
813.56	1630.18
813.73	1771.49
813.91	1660.90
814.08	1740.77
814.25	1697.77
814.42	1619.94
814.60	1665.00
814.77	1775.59
814.94	1759.21
815.12	1699.81
815.29	1816.55
815.46	1644.52
815.63	1669.09
815.81	1720.29
815.98	1638.38
816.15	1642.47
816.33	1791.97
816.50	1759.21
816.67	1705.96
816.84	1744.87
817.02	1675.24
817.19	1646.57
817.36	1718.25
817.53	1767.40
817.71	1740.77
817.88	1806.31
818.05	1701.86
818.22	1685.48
818.40	1816.55
818.57	1695.72
818.74	1765.35
818.91	1679.33
819.09	1720.29
819.26	1800.16
819.43	1599.46
819.60	1689.57
819.78	1695.72
819.95	1822.69
820.12	1632.23
820.29	1769.44
820.47	1734.63
820.64	1763.30
820.81	1634.28
820.98	1656.81
821.15	1658.85
821.33	1697.77
821.50	1685.48
821.67	1738.73
821.84	1695.72
822.02	1683.43
822.19	1834.98
822.36	1697.77
822.53	1695.72
822.70	1587.18
822.88	1656.81
823.05	1742.82
823.22	1665.00
823.39	1708.01
823.56	1671.14
823.74	1781.73
823.91	1648.61
824.08	1652.71
824.25	1689.57
824.42	1796.07
824.60	1589.22
824.77	1679.33
824.94	1656.81
825.11	1726.44
825.28	1615.85
825.45	1765.35
825.63	1763.30
825.80	1669.09
825.97	1775.59
826.14	1724.39
826.31	1681.38
826.48	1693.67
826.66	1626.09
826.83	1642.47
827.00	1742.82
827.17	1738.73
827.34	1751.01
827.51	1781.73
827.69	1660.90
827.86	1648.61
828.03	1705.96
828.20	1716.20
828.37	1712.10
828.54	1751.01
828.71	1679.33
828.89	1830.88
829.06	1718.25
829.23	1839.08
829.40	1638.38
829.57	1648.61
829.74	1716.20
829.91	1669.09
830.09	1689.57
830.26	1828.84
830.43	1681.38
830.60	1656.81
830.77	1779.68
830.94	1761.25
831.11	1726.44
831.28	1638.38
831.46	1748.97
831.63	1736.68
831.80	1728.49
831.97	1703.91
832.14	1701.86
832.31	1804.26
832.48	1759.21
832.65	1781.73
832.82	1767.40
832.99	1781.73
833.17	1699.81
833.34	1804.26
833.51	1685.48
833.68	1636.33
833.85	1763.30
834.02	1683.43
834.19	1650.66
834.36	1675.24
834.53	1708.01
834.70	1726.44
834.87	1769.44
835.04	1699.81
835.22	1718.25
835.39	1730.53
835.56	1587.18
835.73	1656.81
835.90	1705.96
836.07	1662.95
836.24	1734.63
836.41	1648.61
836.58	1632.23
836.75	1722.34
836.92	1718.25
837.09	1650.66
837.26	1751.01
837.43	1718.25
837.60	1710.05
837.77	1656.81
837.94	1746.92
838.12	1765.35
838.29	1730.53
838.46	1603.56
838.63	1677.29
838.80	1816.55
838.97	1699.81
839.14	1769.44
839.31	1695.72
839.48	1779.68
839.65	1734.63
839.82	1730.53
839.99	1679.33
840.16	1640.42
840.33	1691.62
840.50	1751.01
840.67	1767.40
840.84	1542.12
841.01	1689.57
841.18	1695.72
841.35	1742.82
841.52	1777.64
841.69	1748.97
841.86	1732.58
842.03	1751.01
842.20	1767.40
842.37	1714.15
842.54	1677.29
842.71	1693.67
842.88	1669.09
843.05	1767.40
843.22	1751.01
843.39	1755.11
843.56	1730.53
843.73	1671.14
843.90	1646.57
844.07	1708.01
844.24	1798.12
844.41	1693.67
844.58	1708.01
844.75	1755.11
844.92	1675.24
845.09	1632.23
845.26	1703.91
845.43	1828.84
845.60	1697.77
845.77	1742.82
845.94	1667.05
846.10	1796.07
846.27	1589.22
846.44	1646.57
846.61	1665.00
846.78	1712.10
846.95	1720.29
847.12	1681.38
847.29	1697.77
847.46	1646.57
847.63	1728.49
847.80	1703.91
847.97	1714.15
848.14	1830.88
848.31	1732.58
848.48	1665.00
848.65	1679.33
848.82	1646.57
848.98	1806.31
849.15	1705.96
849.32	1705.96
849.49	1742.82
849.66	1685.48
849.83	1667.05
850.00	1601.51
850.17	1708.01
850.34	1736.68
850.51	1611.75
850.68	1673.19
850.85	1834.98
851.01	1691.62
851.18	1744.87
851.35	1691.62
851.52	1712.10
851.69	1779.68
851.86	1619.94
852.03	1740.77
852.20	1767.40
852.37	1777.64
852.53	1642.47
852.70	1681.38
852.87	1693.67
853.04	1744.87
853.21	1724.39
853.38	1779.68
853.55	1787.88
853.72	1765.35
853.89	1708.01
854.05	1673.19
854.22	1755.11
854.39	1718.25
854.56	1730.53
854.73	1740.77
854.90	1642.47
855.07	1722.34
855.23	1656.81
855.40	1677.29
855.57	1742.82
855.74	1615.85
855.91	1884.13
856.08	1669.09
856.25	1624.04
856.41	1681.38
856.58	1744.87
856.75	1738.73
856.92	1634.28
857.09	1828.84
857.26	1656.81
857.42	1681.38
857.59	1734.63
857.76	1759.21
857.93	1693.67
858.10	1751.01
858.27	1699.81
858.43	1718.25
858.60	1677.29
858.77	1644.52
858.94	1728.49
859.11	1802.21
859.27	1611.75
859.44	1673.19
859.61	1783.78
859.78	1742.82
859.95	1703.91
860.12	1632.23
860.28	1824.74
860.45	1902.56
860.62	1609.70
860.79	1675.24
860.95	1632.23
861.12	1673.19
861.29	1613.80
861.46	1593.32
861.63	1714.15
861.79	1748.97
861.96	1667.05
862.13	1650.66
862.30	1812.45
862.47	1603.56
862.63	1607.66
862.80	1755.11
862.97	1751.01
863.14	1728.49
863.30	1660.90
863.47	1671.14
863.64	1783.78
863.81	1726.44
863.97	1685.48
864.14	1665.00
864.31	1611.75
864.48	1791.97
864.65	1675.24
864.81	1730.53
864.98	1736.68
865.15	1628.14
865.32	1767.40
865.48	1753.06
865.65	1816.55
865.82	1685.48
865.98	1728.49
866.15	1751.01
866.32	1679.33
866.49	1699.81
866.65	1802.21
866.82	1654.76
866.99	1669.09
867.16	1675.24
867.32	1703.91
867.49	1687.53
867.66	1699.81
867.83	1636.33
867.99	1599.46
868.16	1742.82
868.33	1624.04
868.49	1787.88
868.66	1693.67
868.83	1755.11
868.99	1691.62
869.16	1746.92
869.33	1742.82
869.50	1785.83
869.66	1681.38
869.83	1730.53
870.00	1578.98
870.16	1714.15
870.33	1710.05
870.50	1765.35
870.66	1671.14
870.83	1808.36
871.00	1718.25
871.17	1691.62
871.33	1718.25
871.50	1714.15
871.67	1677.29
871.83	1765.35
872.00	1841.12
872.17	1691.62
872.33	1839.08
872.50	1677.29
872.67	1720.29
872.83	1712.10
873.00	1691.62
873.17	1763.30
873.33	1773.54
873.50	1732.58
873.67	1673.19
873.83	1665.00
874.00	1683.43
874.16	1740.77
874.33	1730.53
874.50	1603.56
874.66	1714.15
874.83	1710.05
875.00	1761.25
875.16	1736.68
875.33	1834.98
875.50	1560.55
875.66	1605.61
875.83	1728.49
875.99	1763.30
876.16	1730.53
876.33	1652.71
876.49	1703.91
876.66	1751.01
876.83	1681.38
876.99	1640.42
877.16	1775.59
877.32	1710.05
877.49	1601.51
877.66	1812.45
877.82	1816.55
877.99	1697.77
878.15	1730.53
878.32	1734.63
878.49	1755.11
878.65	1697.77
878.82	1771.49
878.98	1638.38
879.15	1751.01
879.32	1755.11
879.48	1751.01
879.65	1683.43
879.81	1685.48
879.98	1673.19
880.15	1662.95
880.31	1671.14
880.48	1681.38
880.64	1812.45
880.81	1724.39
880.97	1806.31
881.14	1771.49
881.31	1667.05
881.47	1834.98
881.64	1677.29
881.80	1640.42
881.97	1667.05
882.13	1781.73
882.30	1687.53
882.47	1642.47
882.63	1675.24
882.80	1681.38
882.96	1644.52
883.13	1738.73
883.29	1732.58
883.46	1722.34
883.62	1796.07
883.79	1746.92
883.95	1759.21
884.12	1705.96
884.29	1732.58
884.45	1779.68
884.62	1734.63
884.78	1767.40
884.95	1740.77
885.11	1701.86
885.28	1757.16
885.44	1679.33
885.61	1736.68
885.77	1712.10
885.94	1763.30
886.10	1689.57
886.27	1615.85
886.43	1763.30
886.60	1781.73
886.76	1648.61
886.93	1638.38
887.09	1798.12
887.26	1671.14
887.42	1720.29
887.59	1789.92
887.75	1882.08
887.92	1734.63
888.08	1789.92
888.25	1806.31
888.41	1738.73
888.58	1781.73
888.74	1675.24
888.91	1689.57
>>>>>End Processed Spectral Data<<<<<
