SpectraSuite Data File
++++++++++++++++++++++++++++++++++++
Date: Mon Jun 06 17:09:37 CEST 2016
User: root
Dark Spectrum Present: No
Reference Spectrum Present: No
Number of Sampled Component Spectra: 1
Spectrometers: USB4C02835
Integration Time (usec): 100000 (USB4C02835)
Spectra Averaged: 1 (USB4C02835)
Boxcar Smoothing: 0 (USB4C02835)
Correct for Electrical Dark: No (USB4C02835)
Strobe/Lamp Enabled: No (USB4C02835)
Correct for Detector Non-linearity: No (USB4C02835)
Correct for Stray Light: No (USB4C02835)
Number of Pixels in Processed Spectrum: 3648
>>>>>Begin Processed Spectral Data<<<<<
177.47	1456.11
177.69	1456.11
177.91	1456.11
178.13	1460.20
178.36	1501.16
178.58	1671.14
178.80	1728.49
179.02	1648.61
179.24	1628.14
179.46	1724.39
179.68	1771.49
179.90	1675.24
180.13	1718.25
180.35	1724.39
180.57	1683.43
180.79	1697.77
181.01	1730.53
181.23	1804.26
181.45	1701.86
181.67	1726.44
181.90	1773.54
182.12	1738.73
182.34	1587.18
182.56	1757.16
182.78	1730.53
183.00	1734.63
183.22	1714.15
183.44	1619.94
183.66	1830.88
183.89	1818.60
184.11	1753.06
184.33	1691.62
184.55	1748.97
184.77	1783.78
184.99	1787.88
185.21	1648.61
185.43	1763.30
185.65	1714.15
185.87	1746.92
186.10	1798.12
186.32	1785.83
186.54	1755.11
186.76	1775.59
186.98	1845.22
187.20	1714.15
187.42	1710.05
187.64	1695.72
187.86	1765.35
188.08	1767.40
188.30	1632.23
188.52	1730.53
188.75	1759.21
188.97	1800.16
189.19	1697.77
189.41	1699.81
189.63	1738.73
189.85	1773.54
190.07	1593.32
190.29	1730.53
190.51	1777.64
190.73	1667.05
190.95	1845.22
191.17	1685.48
191.39	1673.19
191.61	1708.01
191.84	1650.66
192.06	1734.63
192.28	1619.94
192.50	1843.17
192.72	1705.96
192.94	1734.63
193.16	1814.50
193.38	1710.05
193.60	1662.95
193.82	1695.72
194.04	1740.77
194.26	1665.00
194.48	1726.44
194.70	1671.14
194.92	1699.81
195.14	1734.63
195.36	1660.90
195.58	1746.92
195.80	1683.43
196.02	1695.72
196.24	1746.92
196.46	1718.25
196.69	1667.05
196.91	1882.08
197.13	1753.06
197.35	1628.14
197.57	1742.82
197.79	1753.06
198.01	1763.30
198.23	1724.39
198.45	1716.20
198.67	1607.66
198.89	1761.25
199.11	1740.77
199.33	1693.67
199.55	1576.94
199.77	1716.20
199.99	1695.72
200.21	1693.67
200.43	1619.94
200.65	1617.90
200.87	1587.18
201.09	1755.11
201.31	1644.52
201.53	1753.06
201.75	1728.49
201.97	1767.40
202.19	1718.25
202.41	1730.53
202.63	1837.03
202.85	1726.44
203.07	1748.97
203.29	1693.67
203.51	1648.61
203.73	1701.86
203.95	1886.18
204.17	1748.97
204.39	1738.73
204.61	1738.73
204.83	1722.34
205.05	1697.77
205.27	1734.63
205.49	1839.08
205.71	1712.10
205.93	1574.89
206.15	1679.33
206.37	1687.53
206.59	1751.01
206.81	1646.57
207.03	1640.42
207.25	1617.90
207.47	1757.16
207.69	1656.81
207.91	1785.83
208.13	1777.64
208.34	1662.95
208.56	1617.90
208.78	1779.68
209.00	1695.72
209.22	1701.86
209.44	1746.92
209.66	1632.23
209.88	1755.11
210.10	1646.57
210.32	1722.34
210.54	1783.78
210.76	1699.81
210.98	1812.45
211.20	1611.75
211.42	1710.05
211.64	1751.01
211.86	1701.86
212.08	1753.06
212.30	1724.39
212.52	1720.29
212.74	1716.20
212.96	1695.72
213.17	1710.05
213.39	1763.30
213.61	1781.73
213.83	1693.67
214.05	1652.71
214.27	1753.06
214.49	1660.90
214.71	1718.25
214.93	1785.83
215.15	1718.25
215.37	1775.59
215.59	1619.94
215.81	1693.67
216.03	1806.31
216.24	1748.97
216.46	1638.38
216.68	1724.39
216.90	1787.88
217.12	1779.68
217.34	1716.20
217.56	1705.96
217.78	1791.97
218.00	1734.63
218.22	1705.96
218.44	1708.01
218.66	1783.78
218.87	1779.68
219.09	1728.49
219.31	1732.58
219.53	1771.49
219.75	1665.00
219.97	1742.82
220.19	1710.05
220.41	1634.28
220.63	1724.39
220.85	1751.01
221.06	1689.57
221.28	1798.12
221.50	1785.83
221.72	1742.82
221.94	1765.35
222.16	1718.25
222.38	1636.33
222.60	1681.38
222.82	1648.61
223.03	1714.15
223.25	1675.24
223.47	1787.88
223.69	1787.88
223.91	1773.54
224.13	1712.10
224.35	1648.61
224.57	1791.97
224.78	1730.53
225.00	1656.81
225.22	1693.67
225.44	1710.05
225.66	1742.82
225.88	1697.77
226.10	1763.30
226.32	1703.91
226.53	1765.35
226.75	1705.96
226.97	1736.68
227.19	1710.05
227.41	1695.72
227.63	1648.61
227.85	1662.95
228.06	1720.29
228.28	1732.58
228.50	1843.17
228.72	1675.24
228.94	1701.86
229.16	1560.55
229.37	1718.25
229.59	1740.77
229.81	1785.83
230.03	1697.77
230.25	1675.24
230.47	1638.38
230.69	1705.96
230.90	1767.40
231.12	1667.05
231.34	1761.25
231.56	1759.21
231.78	1677.29
232.00	1740.77
232.21	1658.85
232.43	1677.29
232.65	1607.66
232.87	1699.81
233.09	1642.47
233.30	1652.71
233.52	1632.23
233.74	1624.04
233.96	1673.19
234.18	1667.05
234.40	1716.20
234.61	1828.84
234.83	1640.42
235.05	1587.18
235.27	1804.26
235.49	1804.26
235.70	1675.24
235.92	1808.36
236.14	1746.92
236.36	1929.19
236.58	1652.71
236.79	1714.15
237.01	1763.30
237.23	1712.10
237.45	1845.22
237.67	1652.71
237.88	1783.78
238.10	1763.30
238.32	1636.33
238.54	1683.43
238.76	1703.91
238.97	1656.81
239.19	1656.81
239.41	1765.35
239.63	1730.53
239.85	1662.95
240.06	1689.57
240.28	1718.25
240.50	1820.64
240.72	1761.25
240.93	1728.49
241.15	1798.12
241.37	1712.10
241.59	1828.84
241.81	1718.25
242.02	1621.99
242.24	1701.86
242.46	1791.97
242.68	1662.95
242.89	1679.33
243.11	1746.92
243.33	1714.15
243.55	1712.10
243.76	1718.25
243.98	1660.90
244.20	1689.57
244.42	1732.58
244.64	1751.01
244.85	1617.90
245.07	1634.28
245.29	1773.54
245.51	1691.62
245.72	1669.09
245.94	1767.40
246.16	1677.29
246.38	1761.25
246.59	1687.53
246.81	1693.67
247.03	1665.00
247.24	1599.46
247.46	1671.14
247.68	1771.49
247.90	1701.86
248.11	1648.61
248.33	1726.44
248.55	1687.53
248.77	1691.62
248.98	1804.26
249.20	1814.50
249.42	1796.07
249.64	1757.16
249.85	1763.30
250.07	1734.63
250.29	1730.53
250.50	1806.31
250.72	1685.48
250.94	1710.05
251.16	1812.45
251.37	1751.01
251.59	1740.77
251.81	1826.79
252.02	1830.88
252.24	1650.66
252.46	1812.45
252.68	1630.18
252.89	1679.33
253.11	1628.14
253.33	1779.68
253.54	1845.22
253.76	1638.38
253.98	1632.23
254.20	1662.95
254.41	1705.96
254.63	1578.98
254.85	1650.66
255.06	1665.00
255.28	1656.81
255.50	1714.15
255.71	1718.25
255.93	1615.85
256.15	1712.10
256.36	1718.25
256.58	1677.29
256.80	1726.44
257.02	1652.71
257.23	1732.58
257.45	1714.15
257.67	1744.87
257.88	1656.81
258.10	1730.53
258.32	1755.11
258.53	1722.34
258.75	1777.64
258.97	1638.38
259.18	1705.96
259.40	1693.67
259.62	1765.35
259.83	1832.93
260.05	1781.73
260.27	1992.67
260.48	1738.73
260.70	1634.28
260.92	1640.42
261.13	1675.24
261.35	1683.43
261.57	1789.92
261.78	1617.90
262.00	1632.23
262.22	1753.06
262.43	1665.00
262.65	1687.53
262.86	1763.30
263.08	1841.12
263.30	1724.39
263.51	1544.17
263.73	1681.38
263.95	1796.07
264.16	1630.18
264.38	1615.85
264.60	1658.85
264.81	1773.54
265.03	1863.65
265.25	1751.01
265.46	1689.57
265.68	1806.31
265.89	1718.25
266.11	1697.77
266.33	1763.30
266.54	1726.44
266.76	1777.64
266.98	1671.14
267.19	1761.25
267.41	1832.93
267.62	1681.38
267.84	1722.34
268.06	1767.40
268.27	1759.21
268.49	1851.36
268.70	1748.97
268.92	1662.95
269.14	1597.42
269.35	1636.33
269.57	1708.01
269.79	1744.87
270.00	1681.38
270.22	1849.32
270.43	1650.66
270.65	1558.50
270.87	1689.57
271.08	1732.58
271.30	1714.15
271.51	1697.77
271.73	1708.01
271.95	1730.53
272.16	1658.85
272.38	1771.49
272.59	1667.05
272.81	1718.25
273.02	1775.59
273.24	1703.91
273.46	1759.21
273.67	1667.05
273.89	1654.76
274.10	1689.57
274.32	1800.16
274.54	1740.77
274.75	1675.24
274.97	1693.67
275.18	1701.86
275.40	1648.61
275.61	1695.72
275.83	1687.53
276.05	1656.81
276.26	1703.91
276.48	1763.30
276.69	1677.29
276.91	1660.90
277.12	1773.54
277.34	1644.52
277.55	1753.06
277.77	1765.35
277.99	1681.38
278.20	1681.38
278.42	1626.09
278.63	1691.62
278.85	1626.09
279.06	1601.51
279.28	1751.01
279.49	1814.50
279.71	1718.25
279.93	1730.53
280.14	1675.24
280.36	1699.81
280.57	1757.16
280.79	1748.97
281.00	1656.81
281.22	1638.38
281.43	1730.53
281.65	1634.28
281.86	1648.61
282.08	1771.49
282.29	1771.49
282.51	1638.38
282.73	1669.09
282.94	1628.14
283.16	1732.58
283.37	1755.11
283.59	1724.39
283.80	1722.34
284.02	1703.91
284.23	1775.59
284.45	1669.09
284.66	1642.47
284.88	1685.48
285.09	1730.53
285.31	1755.11
285.52	1763.30
285.74	1605.61
285.95	1796.07
286.17	1732.58
286.38	1828.84
286.60	1720.29
286.81	1642.47
287.03	1695.72
287.24	1705.96
287.46	1767.40
287.67	1705.96
287.89	1808.36
288.10	1685.48
288.32	1691.62
288.53	1740.77
288.75	1718.25
288.96	1771.49
289.18	1640.42
289.39	1740.77
289.61	1759.21
289.82	1800.16
290.04	1771.49
290.25	1728.49
290.47	1701.86
290.68	1701.86
290.90	1742.82
291.11	1734.63
291.33	1679.33
291.54	1699.81
291.76	1693.67
291.97	1746.92
292.18	1822.69
292.40	1712.10
292.61	1619.94
292.83	1820.64
293.04	1789.92
293.26	1738.73
293.47	1679.33
293.69	1701.86
293.90	1724.39
294.12	1761.25
294.33	1705.96
294.55	1703.91
294.76	1783.78
294.97	1738.73
295.19	1859.56
295.40	1650.66
295.62	1632.23
295.83	1728.49
296.05	1648.61
296.26	1794.02
296.48	1714.15
296.69	1779.68
296.90	1712.10
297.12	1722.34
297.33	1787.88
297.55	1708.01
297.76	1763.30
297.98	1775.59
298.19	1689.57
298.41	1746.92
298.62	1665.00
298.83	1806.31
299.05	1677.29
299.26	1675.24
299.48	1665.00
299.69	1722.34
299.90	1720.29
300.12	1535.98
300.33	1740.77
300.55	1689.57
300.76	1767.40
300.98	1669.09
301.19	1697.77
301.40	1720.29
301.62	1701.86
301.83	1722.34
302.05	1738.73
302.26	1654.76
302.47	1683.43
302.69	1650.66
302.90	1783.78
303.12	1703.91
303.33	1777.64
303.54	1869.80
303.76	1673.19
303.97	1697.77
304.19	1804.26
304.40	1714.15
304.61	1740.77
304.83	1855.46
305.04	1748.97
305.26	1697.77
305.47	1759.21
305.68	1726.44
305.90	1683.43
306.11	1759.21
306.33	1650.66
306.54	1669.09
306.75	1652.71
306.97	1650.66
307.18	1654.76
307.39	1675.24
307.61	1648.61
307.82	1677.29
308.04	1744.87
308.25	1675.24
308.46	1701.86
308.68	1652.71
308.89	1712.10
309.10	1818.60
309.32	1724.39
309.53	1718.25
309.74	1771.49
309.96	1697.77
310.17	1837.03
310.39	1710.05
310.60	1695.72
310.81	1736.68
311.03	1566.70
311.24	1804.26
311.45	1722.34
311.67	1769.44
311.88	1712.10
312.09	1652.71
312.31	1699.81
312.52	1736.68
312.73	1677.29
312.95	1652.71
313.16	1693.67
313.37	1837.03
313.59	1751.01
313.80	1826.79
314.01	1853.41
314.23	1718.25
314.44	1619.94
314.65	1650.66
314.87	1652.71
315.08	1654.76
315.29	1634.28
315.51	1669.09
315.72	1656.81
315.93	1802.21
316.15	1767.40
316.36	1699.81
316.57	1708.01
316.79	1699.81
317.00	1642.47
317.21	1781.73
317.43	1720.29
317.64	1761.25
317.85	1705.96
318.07	1763.30
318.28	1765.35
318.49	1820.64
318.70	1890.28
318.92	1751.01
319.13	1845.22
319.34	1902.56
319.56	1763.30
319.77	1794.02
319.98	1779.68
320.20	1763.30
320.41	1701.86
320.62	1746.92
320.83	1665.00
321.05	1880.04
321.26	1787.88
321.47	1703.91
321.69	1740.77
321.90	1669.09
322.11	1673.19
322.32	1800.16
322.54	1820.64
322.75	1677.29
322.96	1818.60
323.18	1624.04
323.39	1617.90
323.60	1671.14
323.81	1720.29
324.03	1759.21
324.24	1679.33
324.45	1671.14
324.66	1683.43
324.88	1820.64
325.09	1855.46
325.30	1736.68
325.52	1693.67
325.73	1746.92
325.94	1724.39
326.15	1656.81
326.37	1677.29
326.58	1787.88
326.79	1787.88
327.00	1648.61
327.22	1769.44
327.43	1615.85
327.64	1591.27
327.85	1722.34
328.07	1744.87
328.28	1820.64
328.49	1683.43
328.70	1681.38
328.92	1742.82
329.13	1685.48
329.34	1775.59
329.55	1779.68
329.76	1759.21
329.98	1705.96
330.19	1763.30
330.40	1722.34
330.61	1708.01
330.83	1787.88
331.04	1660.90
331.25	1763.30
331.46	1781.73
331.68	1652.71
331.89	1789.92
332.10	1738.73
332.31	1603.56
332.52	1734.63
332.74	1759.21
332.95	1662.95
333.16	1705.96
333.37	1755.11
333.58	1658.85
333.80	1748.97
334.01	1697.77
334.22	1667.05
334.43	1626.09
334.64	1753.06
334.86	1617.90
335.07	1718.25
335.28	1832.93
335.49	1636.33
335.70	1724.39
335.92	1757.16
336.13	1816.55
336.34	1744.87
336.55	1722.34
336.76	1769.44
336.98	1611.75
337.19	1687.53
337.40	1761.25
337.61	1802.21
337.82	1658.85
338.04	1791.97
338.25	1593.32
338.46	1673.19
338.67	1697.77
338.88	1636.33
339.09	1648.61
339.31	1646.57
339.52	1695.72
339.73	1636.33
339.94	1820.64
340.15	1822.69
340.36	1767.40
340.58	1705.96
340.79	1683.43
341.00	1751.01
341.21	1675.24
341.42	1781.73
341.63	1652.71
341.85	1802.21
342.06	1755.11
342.27	1667.05
342.48	1783.78
342.69	1613.80
342.90	1765.35
343.12	1732.58
343.33	1609.70
343.54	1761.25
343.75	1753.06
343.96	1742.82
344.17	1718.25
344.38	1650.66
344.60	1601.51
344.81	1714.15
345.02	1638.38
345.23	1769.44
345.44	1748.97
345.65	1759.21
345.86	1695.72
346.07	1689.57
346.29	1650.66
346.50	1734.63
346.71	1691.62
346.92	1763.30
347.13	1734.63
347.34	1681.38
347.55	1705.96
347.76	1714.15
347.98	1613.80
348.19	1675.24
348.40	1744.87
348.61	1671.14
348.82	1812.45
349.03	1783.78
349.24	1658.85
349.45	1816.55
349.66	1574.89
349.88	1718.25
350.09	1683.43
350.30	1765.35
350.51	1802.21
350.72	1714.15
350.93	1783.78
351.14	1697.77
351.35	1708.01
351.56	1683.43
351.77	1714.15
351.99	1724.39
352.20	1794.02
352.41	1773.54
352.62	1615.85
352.83	1673.19
353.04	1722.34
353.25	1689.57
353.46	1769.44
353.67	1695.72
353.88	1648.61
354.09	1648.61
354.30	1673.19
354.52	1640.42
354.73	1691.62
354.94	1726.44
355.15	1697.77
355.36	1849.32
355.57	1697.77
355.78	1728.49
355.99	1648.61
356.20	1720.29
356.41	1734.63
356.62	1720.29
356.83	1708.01
357.04	1822.69
357.25	1601.51
357.46	1728.49
357.68	1609.70
357.89	1708.01
358.10	1644.52
358.31	1691.62
358.52	1763.30
358.73	1609.70
358.94	1691.62
359.15	1615.85
359.36	1710.05
359.57	1654.76
359.78	1695.72
359.99	1699.81
360.20	1665.00
360.41	1638.38
360.62	1701.86
360.83	1732.58
361.04	1738.73
361.25	1763.30
361.46	1787.88
361.67	1730.53
361.88	1699.81
362.09	1755.11
362.30	1757.16
362.51	1681.38
362.72	1757.16
362.93	1751.01
363.14	1789.92
363.35	1775.59
363.56	1701.86
363.78	1757.16
363.99	1718.25
364.20	1689.57
364.41	1712.10
364.62	1841.12
364.83	1732.58
365.04	1660.90
365.25	1757.16
365.46	1849.32
365.67	1673.19
365.88	1642.47
366.09	1597.42
366.30	1722.34
366.51	1718.25
366.72	1685.48
366.93	1660.90
367.14	1683.43
367.35	1794.02
367.56	1667.05
367.77	1789.92
367.98	1662.95
368.18	1677.29
368.39	1701.86
368.60	1628.14
368.81	1804.26
369.02	1748.97
369.23	1730.53
369.44	1624.04
369.65	1769.44
369.86	1716.20
370.07	1773.54
370.28	1699.81
370.49	1746.92
370.70	1669.09
370.91	1652.71
371.12	1603.56
371.33	1779.68
371.54	1671.14
371.75	1783.78
371.96	1624.04
372.17	1654.76
372.38	1705.96
372.59	1724.39
372.80	1652.71
373.01	1652.71
373.22	1777.64
373.43	1785.83
373.64	1648.61
373.85	1802.21
374.06	1808.36
374.26	1791.97
374.47	1744.87
374.68	1779.68
374.89	1710.05
375.10	1755.11
375.31	1796.07
375.52	1730.53
375.73	1693.67
375.94	1599.46
376.15	1796.07
376.36	1648.61
376.57	1632.23
376.78	1685.48
376.99	1787.88
377.20	1783.78
377.40	1662.95
377.61	1820.64
377.82	1673.19
378.03	1757.16
378.24	1722.34
378.45	1787.88
378.66	1675.24
378.87	1669.09
379.08	1648.61
379.29	1705.96
379.50	1730.53
379.71	1689.57
379.91	1757.16
380.12	1683.43
380.33	1652.71
380.54	1697.77
380.75	1744.87
380.96	1662.95
381.17	1777.64
381.38	1665.00
381.59	1759.21
381.80	1730.53
382.00	1900.52
382.21	1744.87
382.42	1779.68
382.63	1843.17
382.84	1828.84
383.05	1775.59
383.26	1708.01
383.47	1759.21
383.68	1685.48
383.88	1632.23
384.09	1708.01
384.30	1828.84
384.51	1761.25
384.72	1710.05
384.93	1607.66
385.14	1744.87
385.35	1785.83
385.55	1576.94
385.76	1804.26
385.97	1720.29
386.18	1648.61
386.39	1609.70
386.60	1642.47
386.81	1724.39
387.02	1685.48
387.22	1677.29
387.43	1810.40
387.64	1763.30
387.85	1779.68
388.06	2222.05
388.27	4267.97
388.48	6610.84
388.68	8093.57
388.89	9641.84
389.10	9750.38
389.31	8642.43
389.52	7763.85
389.73	6860.70
389.93	6195.11
390.14	5879.72
390.35	5150.64
390.56	4523.96
390.77	3948.48
390.98	3047.38
391.18	2566.10
391.39	2160.61
391.60	1802.21
391.81	1820.64
392.02	1673.19
392.23	1914.85
392.43	1787.88
392.64	1724.39
392.85	1665.00
393.06	1773.54
393.27	1705.96
393.47	1681.38
393.68	1693.67
393.89	1722.34
394.10	1794.02
394.31	1695.72
394.52	1712.10
394.72	1681.38
394.93	1767.40
395.14	1722.34
395.35	1804.26
395.56	1679.33
395.76	1738.73
395.97	1771.49
396.18	1863.65
396.39	1920.99
396.60	1992.67
396.80	1884.13
397.01	1789.92
397.22	1808.36
397.43	1820.64
397.64	1781.73
397.84	1849.32
398.05	1902.56
398.26	1697.77
398.47	1877.99
398.67	1824.74
398.88	1726.44
399.09	1724.39
399.30	1732.58
399.51	1738.73
399.71	1652.71
399.92	1771.49
400.13	1761.25
400.34	1716.20
400.54	1691.62
400.75	1716.20
400.96	1708.01
401.17	1845.22
401.37	1738.73
401.58	1728.49
401.79	1748.97
402.00	1892.32
402.21	2023.39
402.41	1972.19
402.62	1976.29
402.83	2035.68
403.04	1986.53
403.24	2023.39
403.45	1802.21
403.66	1898.47
403.87	1804.26
404.07	1949.67
404.28	1896.42
404.49	1882.08
404.70	1816.55
404.90	1865.70
405.11	1748.97
405.32	1697.77
405.52	1646.57
405.73	1697.77
405.94	1683.43
406.15	1734.63
406.35	1738.73
406.56	1791.97
406.77	1751.01
406.98	1732.58
407.18	1648.61
407.39	1744.87
407.60	1751.01
407.80	1789.92
408.01	1771.49
408.22	1751.01
408.43	1714.15
408.63	1726.44
408.84	1751.01
409.05	1710.05
409.25	1677.29
409.46	1617.90
409.67	1679.33
409.88	1708.01
410.08	1732.58
410.29	1665.00
410.50	1695.72
410.70	1740.77
410.91	1669.09
411.12	1771.49
411.32	1738.73
411.53	1730.53
411.74	1816.55
411.95	1796.07
412.15	1751.01
412.36	1800.16
412.57	1755.11
412.77	1783.78
412.98	1697.77
413.19	1751.01
413.39	1853.41
413.60	1726.44
413.81	1863.65
414.01	1570.79
414.22	1783.78
414.43	1822.69
414.63	1662.95
414.84	1798.12
415.05	1767.40
415.25	1667.05
415.46	1789.92
415.67	1681.38
415.87	1736.68
416.08	1769.44
416.29	1730.53
416.49	1748.97
416.70	1660.90
416.91	1744.87
417.11	1714.15
417.32	1728.49
417.53	1742.82
417.73	1714.15
417.94	1677.29
418.15	1619.94
418.35	1734.63
418.56	1712.10
418.77	1802.21
418.97	1779.68
419.18	1693.67
419.38	1624.04
419.59	1697.77
419.80	1898.47
420.00	1783.78
420.21	1640.42
420.42	1865.70
420.62	1697.77
420.83	1738.73
421.04	1761.25
421.24	1665.00
421.45	1794.02
421.65	1781.73
421.86	1673.19
422.07	1744.87
422.27	1689.57
422.48	1728.49
422.69	1640.42
422.89	1675.24
423.10	1638.38
423.30	1730.53
423.51	1738.73
423.72	1701.86
423.92	1757.16
424.13	1599.46
424.33	1746.92
424.54	1748.97
424.75	1621.99
424.95	1830.88
425.16	1677.29
425.36	1677.29
425.57	1748.97
425.78	1804.26
425.98	1746.92
426.19	1724.39
426.39	1660.90
426.60	1710.05
426.81	1714.15
427.01	1720.29
427.22	1677.29
427.42	1677.29
427.63	1722.34
427.83	1748.97
428.04	1853.41
428.25	1763.30
428.45	1779.68
428.66	1757.16
428.86	1767.40
429.07	1724.39
429.28	1716.20
429.48	1705.96
429.69	1683.43
429.89	1787.88
430.10	1701.86
430.30	1716.20
430.51	1689.57
430.71	1673.19
430.92	1794.02
431.13	1722.34
431.33	1726.44
431.54	1734.63
431.74	1824.74
431.95	1771.49
432.15	1691.62
432.36	1734.63
432.56	1785.83
432.77	1882.08
432.98	1771.49
433.18	1748.97
433.39	1603.56
433.59	1703.91
433.80	1849.32
434.00	1853.41
434.21	1624.04
434.41	1628.14
434.62	1843.17
434.82	1683.43
435.03	1673.19
435.23	1671.14
435.44	1624.04
435.64	1763.30
435.85	1726.44
436.06	1812.45
436.26	1751.01
436.47	1634.28
436.67	1691.62
436.88	1720.29
437.08	1814.50
437.29	1798.12
437.49	1775.59
437.70	1781.73
437.90	1751.01
438.11	1826.79
438.31	1791.97
438.52	1902.56
438.72	1875.94
438.93	1859.56
439.13	1802.21
439.34	1804.26
439.54	1673.19
439.75	1806.31
439.95	1826.79
440.16	1806.31
440.36	1746.92
440.57	1798.12
440.77	1722.34
440.98	1740.77
441.18	1710.05
441.39	1648.61
441.59	1687.53
441.80	1843.17
442.00	1798.12
442.21	1816.55
442.41	1708.01
442.62	1736.68
442.82	1693.67
443.02	1712.10
443.23	1742.82
443.43	1742.82
443.64	1832.93
443.84	1609.70
444.05	1812.45
444.25	1722.34
444.46	1726.44
444.66	1753.06
444.87	1808.36
445.07	1624.04
445.28	1755.11
445.48	1791.97
445.69	1757.16
445.89	1910.75
446.09	1767.40
446.30	2095.07
446.50	2621.40
446.71	3719.11
446.91	4380.61
447.12	4845.49
447.32	5009.33
447.53	4399.04
447.73	3833.80
447.93	3499.98
448.14	3311.57
448.34	3145.68
448.55	2979.79
448.75	2856.92
448.96	2697.17
449.16	2416.60
449.36	2295.77
449.57	2072.54
449.77	1927.14
449.98	1810.40
450.18	1779.68
450.39	1789.92
450.59	1769.44
450.79	1742.82
451.00	1763.30
451.20	1791.97
451.41	1728.49
451.61	1869.80
451.81	1828.84
452.02	1781.73
452.22	1693.67
452.43	1695.72
452.63	1712.10
452.84	1746.92
453.04	1681.38
453.24	1822.69
453.45	1726.44
453.65	1851.36
453.86	1804.26
454.06	1789.92
454.26	1787.88
454.47	1714.15
454.67	1800.16
454.87	1761.25
455.08	1728.49
455.28	1812.45
455.49	1699.81
455.69	1730.53
455.89	1863.65
456.10	1808.36
456.30	1779.68
456.51	1761.25
456.71	1787.88
456.91	1761.25
457.12	1708.01
457.32	1736.68
457.52	1761.25
457.73	1759.21
457.93	1779.68
458.14	1708.01
458.34	1718.25
458.54	1658.85
458.75	1789.92
458.95	1789.92
459.15	1783.78
459.36	1740.77
459.56	1810.40
459.76	1902.56
459.97	1740.77
460.17	1665.00
460.37	1763.30
460.58	1765.35
460.78	1796.07
460.99	1773.54
461.19	1746.92
461.39	1734.63
461.60	1753.06
461.80	1742.82
462.00	1724.39
462.21	1773.54
462.41	1701.86
462.61	1738.73
462.82	1667.05
463.02	1767.40
463.22	1814.50
463.43	1816.55
463.63	1800.16
463.83	1863.65
464.04	1800.16
464.24	1728.49
464.44	1746.92
464.64	1773.54
464.85	1755.11
465.05	1806.31
465.25	1685.48
465.46	1761.25
465.66	1777.64
465.86	1845.22
466.07	1732.58
466.27	1646.57
466.47	1652.71
466.68	1621.99
466.88	1798.12
467.08	1757.16
467.29	1748.97
467.49	1751.01
467.69	1761.25
467.89	1744.87
468.10	1751.01
468.30	1755.11
468.50	1767.40
468.71	1701.86
468.91	1695.72
469.11	1810.40
469.31	1714.15
469.52	1701.86
469.72	1853.41
469.92	1871.84
470.13	1744.87
470.33	1724.39
470.53	1869.80
470.73	2138.08
470.94	2271.20
471.14	2369.50
471.34	2484.19
471.54	2488.28
471.75	2193.37
471.95	2176.99
472.15	2172.89
472.36	2121.70
472.56	2140.13
472.76	2035.68
472.96	1988.58
473.17	2019.30
473.37	1892.32
473.57	1863.65
473.77	1789.92
473.98	1763.30
474.18	1697.77
474.38	1861.60
474.58	1726.44
474.79	1722.34
474.99	1761.25
475.19	1779.68
475.39	1652.71
475.60	1691.62
475.80	1783.78
476.00	1679.33
476.20	1673.19
476.41	1810.40
476.61	1804.26
476.81	1796.07
477.01	1732.58
477.21	1939.43
477.42	1775.59
477.62	1660.90
477.82	1779.68
478.02	1730.53
478.23	1757.16
478.43	1753.06
478.63	1652.71
478.83	1787.88
479.03	1654.76
479.24	1796.07
479.44	1896.42
479.64	1685.48
479.84	1603.56
480.04	1564.65
480.25	1742.82
480.45	1640.42
480.65	1681.38
480.85	1804.26
481.06	1701.86
481.26	1693.67
481.46	1753.06
481.66	1742.82
481.86	1716.20
482.06	1767.40
482.27	1671.14
482.47	1699.81
482.67	1665.00
482.87	1679.33
483.07	1724.39
483.28	1751.01
483.48	1720.29
483.68	1628.14
483.88	1695.72
484.08	1611.75
484.29	1640.42
484.49	1744.87
484.69	1726.44
484.89	1777.64
485.09	1773.54
485.29	1738.73
485.50	1804.26
485.70	1679.33
485.90	1832.93
486.10	1763.30
486.30	1791.97
486.50	1785.83
486.71	1804.26
486.91	1763.30
487.11	1751.01
487.31	1626.09
487.51	1738.73
487.71	1671.14
487.91	1701.86
488.12	1677.29
488.32	1660.90
488.52	1652.71
488.72	1667.05
488.92	1775.59
489.12	1806.31
489.32	1798.12
489.53	1779.68
489.73	1691.62
489.93	1832.93
490.13	1665.00
490.33	1699.81
490.53	1648.61
490.73	1847.27
490.94	1658.85
491.14	1703.91
491.34	1888.23
491.54	2238.43
491.74	2582.49
491.94	3020.75
492.14	3065.81
492.34	3028.95
492.54	2768.85
492.75	2496.47
492.95	2428.89
493.15	2273.25
493.35	2263.01
493.55	2230.24
493.75	2101.22
493.95	2183.13
494.15	2050.02
494.35	1984.48
494.56	1904.61
494.76	1880.04
494.96	1832.93
495.16	1787.88
495.36	1689.57
495.56	1767.40
495.76	1689.57
495.96	1759.21
496.16	1603.56
496.36	1814.50
496.56	1800.16
496.77	1798.12
496.97	1710.05
497.17	1734.63
497.37	1685.48
497.57	1769.44
497.77	1755.11
497.97	1691.62
498.17	1738.73
498.37	1693.67
498.57	1777.64
498.77	1718.25
498.97	1796.07
499.17	1814.50
499.38	1824.74
499.58	1763.30
499.78	1859.56
499.98	1834.98
500.18	1765.35
500.38	1736.68
500.58	1855.46
500.78	2535.39
500.98	4646.84
501.18	5859.24
501.38	6825.88
501.58	7155.60
501.78	6549.40
501.98	5642.15
502.18	5005.24
502.38	4464.57
502.58	4233.15
502.78	3839.94
502.98	3686.34
503.18	3526.60
503.38	3254.22
503.59	2770.90
503.79	2619.35
503.99	2516.95
504.19	2326.49
504.39	2197.47
504.59	2193.37
504.79	2158.56
504.99	2054.11
505.19	1920.99
505.39	1783.78
505.59	1976.29
505.79	1939.43
505.99	1861.60
506.19	1828.84
506.39	1867.75
506.59	1730.53
506.79	1724.39
506.99	1841.12
507.19	1746.92
507.39	1705.96
507.59	1652.71
507.79	1705.96
507.99	1724.39
508.19	1660.90
508.39	1761.25
508.59	1712.10
508.79	1861.60
508.99	1869.80
509.19	1654.76
509.39	1851.36
509.59	1687.53
509.79	1748.97
509.99	1705.96
510.19	1798.12
510.39	1818.60
510.59	1789.92
510.79	1708.01
510.99	1642.47
511.19	1867.75
511.39	1810.40
511.59	1806.31
511.79	1834.98
511.99	1716.20
512.19	1853.41
512.38	1804.26
512.58	1652.71
512.78	1712.10
512.98	1857.51
513.18	1849.32
513.38	1624.04
513.58	1794.02
513.78	1732.58
513.98	1771.49
514.18	1705.96
514.38	1705.96
514.58	1781.73
514.78	1693.67
514.98	1712.10
515.18	1746.92
515.38	1701.86
515.58	1863.65
515.78	1679.33
515.98	1708.01
516.18	1814.50
516.38	1783.78
516.57	1787.88
516.77	1736.68
516.97	1796.07
517.17	1703.91
517.37	1656.81
517.57	1789.92
517.77	1730.53
517.97	1683.43
518.17	1767.40
518.37	1689.57
518.57	1677.29
518.77	1757.16
518.97	1730.53
519.16	1791.97
519.36	1845.22
519.56	1732.58
519.76	1726.44
519.96	1755.11
520.16	1779.68
520.36	1628.14
520.56	1832.93
520.76	1703.91
520.96	1705.96
521.16	1820.64
521.35	1814.50
521.55	1720.29
521.75	1710.05
521.95	1722.34
522.15	1638.38
522.35	1650.66
522.55	1697.77
522.75	1783.78
522.95	1742.82
523.14	1685.48
523.34	1757.16
523.54	1738.73
523.74	1742.82
523.94	1718.25
524.14	1677.29
524.34	1812.45
524.54	1830.88
524.73	1730.53
524.93	1757.16
525.13	1673.19
525.33	1667.05
525.53	1851.36
525.73	1734.63
525.93	1828.84
526.13	1697.77
526.32	1708.01
526.52	1755.11
526.72	1867.75
526.92	1787.88
527.12	1746.92
527.32	1636.33
527.52	1726.44
527.71	1773.54
527.91	1683.43
528.11	1738.73
528.31	1689.57
528.51	1642.47
528.71	1732.58
528.90	1701.86
529.10	1732.58
529.30	1851.36
529.50	1626.09
529.70	1697.77
529.90	1685.48
530.09	1777.64
530.29	1740.77
530.49	1744.87
530.69	1812.45
530.89	1699.81
531.09	1806.31
531.28	1609.70
531.48	1828.84
531.68	1812.45
531.88	1759.21
532.08	1751.01
532.28	1675.24
532.47	1808.36
532.67	1837.03
532.87	1763.30
533.07	1675.24
533.27	1791.97
533.46	1800.16
533.66	1710.05
533.86	1734.63
534.06	1687.53
534.26	1748.97
534.45	1748.97
534.65	1812.45
534.85	1849.32
535.05	1697.77
535.25	1783.78
535.44	1681.38
535.64	1693.67
535.84	1751.01
536.04	1753.06
536.24	1714.15
536.43	1742.82
536.63	1738.73
536.83	1703.91
537.03	1705.96
537.22	1742.82
537.42	1619.94
537.62	1732.58
537.82	1658.85
538.02	1824.74
538.21	1867.75
538.41	1908.71
538.61	1755.11
538.81	1705.96
539.00	1804.26
539.20	1640.42
539.40	1724.39
539.60	1746.92
539.79	1806.31
539.99	1744.87
540.19	1736.68
540.39	1677.29
540.58	1714.15
540.78	1796.07
540.98	1763.30
541.18	1781.73
541.37	1763.30
541.57	1714.15
541.77	1832.93
541.97	1677.29
542.16	1718.25
542.36	1734.63
542.56	1736.68
542.76	1820.64
542.95	1789.92
543.15	1720.29
543.35	1812.45
543.54	1736.68
543.74	1671.14
543.94	1789.92
544.14	1730.53
544.33	1787.88
544.53	1785.83
544.73	1787.88
544.93	1744.87
545.12	1681.38
545.32	1736.68
545.52	1714.15
545.71	1648.61
545.91	1679.33
546.11	1775.59
546.30	1703.91
546.50	1767.40
546.70	1808.36
546.90	1667.05
547.09	1611.75
547.29	1720.29
547.49	1736.68
547.68	1787.88
547.88	1736.68
548.08	1730.53
548.27	2250.72
548.47	1722.34
548.67	1730.53
548.87	1726.44
549.06	1648.61
549.26	1814.50
549.46	1703.91
549.65	1638.38
549.85	1779.68
550.05	1765.35
550.24	1644.52
550.44	1755.11
550.64	1726.44
550.83	1689.57
551.03	1800.16
551.23	1806.31
551.42	1748.97
551.62	1753.06
551.82	1732.58
552.01	1763.30
552.21	1781.73
552.41	1669.09
552.60	1857.51
552.80	1812.45
553.00	1701.86
553.19	1777.64
553.39	1867.75
553.59	1751.01
553.78	1820.64
553.98	1775.59
554.17	1712.10
554.37	1742.82
554.57	1816.55
554.76	1687.53
554.96	1679.33
555.16	1783.78
555.35	1722.34
555.55	1673.19
555.75	1791.97
555.94	1804.26
556.14	1712.10
556.33	1804.26
556.53	1734.63
556.73	1761.25
556.92	1822.69
557.12	1806.31
557.32	1859.56
557.51	1882.08
557.71	1730.53
557.90	1816.55
558.10	1804.26
558.30	1697.77
558.49	1742.82
558.69	1708.01
558.88	1736.68
559.08	1867.75
559.28	1798.12
559.47	1730.53
559.67	1765.35
559.86	1851.36
560.06	1818.60
560.26	1726.44
560.45	1693.67
560.65	1712.10
560.84	1880.04
561.04	1789.92
561.24	1796.07
561.43	1658.85
561.63	1814.50
561.82	1798.12
562.02	1775.59
562.22	1705.96
562.41	1671.14
562.61	1718.25
562.80	1705.96
563.00	1906.66
563.19	1687.53
563.39	1798.12
563.59	1826.79
563.78	1724.39
563.98	1662.95
564.17	1714.15
564.37	1714.15
564.56	1822.69
564.76	1740.77
564.96	1775.59
565.15	1732.58
565.35	1908.71
565.54	1703.91
565.74	1730.53
565.93	1748.97
566.13	1652.71
566.32	1726.44
566.52	1841.12
566.71	1765.35
566.91	1808.36
567.11	1665.00
567.30	1734.63
567.50	1771.49
567.69	1787.88
567.89	1822.69
568.08	1607.66
568.28	1738.73
568.47	1697.77
568.67	1847.27
568.86	1697.77
569.06	1779.68
569.25	1740.77
569.45	1685.48
569.64	1777.64
569.84	1718.25
570.04	1787.88
570.23	1640.42
570.43	1755.11
570.62	1712.10
570.82	1925.09
571.01	1617.90
571.21	1701.86
571.40	1695.72
571.60	1832.93
571.79	1734.63
571.99	1777.64
572.18	1693.67
572.38	1781.73
572.57	1720.29
572.77	1800.16
572.96	1898.47
573.16	1755.11
573.35	1724.39
573.55	1865.70
573.74	1787.88
573.94	1697.77
574.13	1714.15
574.33	1820.64
574.52	1796.07
574.71	1806.31
574.91	1812.45
575.10	1689.57
575.30	1701.86
575.49	1732.58
575.69	1677.29
575.88	1751.01
576.08	1718.25
576.27	1820.64
576.47	1732.58
576.66	1839.08
576.86	1873.89
577.05	1759.21
577.25	1748.97
577.44	1851.36
577.64	1761.25
577.83	1822.69
578.02	1699.81
578.22	1804.26
578.41	1845.22
578.61	1767.40
578.80	1746.92
579.00	1796.07
579.19	1759.21
579.39	1781.73
579.58	1863.65
579.77	1665.00
579.97	1837.03
580.16	1796.07
580.36	1884.13
580.55	1787.88
580.75	1812.45
580.94	1710.05
581.13	1832.93
581.33	1904.61
581.52	1730.53
581.72	1898.47
581.91	1851.36
582.11	1716.20
582.30	1841.12
582.49	1798.12
582.69	1898.47
582.88	1757.16
583.08	1705.96
583.27	1789.92
583.47	1701.86
583.66	1722.34
583.85	1705.96
584.05	1798.12
584.24	1804.26
584.44	1849.32
584.63	1771.49
584.82	1804.26
585.02	1851.36
585.21	1884.13
585.41	1814.50
585.60	1843.17
585.79	1935.33
585.99	1955.81
586.18	1939.43
586.37	2199.52
586.57	3338.19
586.76	10004.33
586.96	24200.85
587.15	34510.32
587.34	40353.18
587.54	42165.63
587.73	36636.11
587.93	26625.64
588.12	21649.08
588.31	18353.90
588.51	16301.83
588.70	15140.63
588.89	14309.16
589.09	12472.13
589.28	11093.85
589.47	9451.38
589.67	7958.41
589.86	6416.29
590.06	4886.45
590.25	3968.96
590.44	3164.11
590.64	2617.30
590.83	2291.68
591.02	2011.11
591.22	1982.43
591.41	1845.22
591.60	1785.83
591.80	2025.44
591.99	1849.32
592.18	1777.64
592.38	1814.50
592.57	1785.83
592.76	1781.73
592.96	1826.79
593.15	1681.38
593.34	1888.23
593.54	1738.73
593.73	1816.55
593.92	1740.77
594.12	1695.72
594.31	1763.30
594.50	1857.51
594.70	1781.73
594.89	1855.46
595.08	1720.29
595.28	1804.26
595.47	1837.03
595.66	1767.40
595.86	1724.39
596.05	1746.92
596.24	1679.33
596.43	1859.56
596.63	1865.70
596.82	1732.58
597.01	1744.87
597.21	1898.47
597.40	1791.97
597.59	1779.68
597.79	1705.96
597.98	1773.54
598.17	1755.11
598.36	1714.15
598.56	1757.16
598.75	1701.86
598.94	1787.88
599.14	1779.68
599.33	1724.39
599.52	1798.12
599.71	1708.01
599.91	1814.50
600.10	1802.21
600.29	1742.82
600.48	1789.92
600.68	1746.92
600.87	1742.82
601.06	1767.40
601.26	1722.34
601.45	1789.92
601.64	1718.25
601.83	1828.84
602.03	1710.05
602.22	1640.42
602.41	1726.44
602.60	1837.03
602.80	1849.32
602.99	1716.20
603.18	1693.67
603.37	1708.01
603.57	1738.73
603.76	1820.64
603.95	1830.88
604.14	1757.16
604.34	1669.09
604.53	1738.73
604.72	1761.25
604.91	1748.97
605.10	1722.34
605.30	1689.57
605.49	1892.32
605.68	1863.65
605.87	1763.30
606.07	1701.86
606.26	1693.67
606.45	1794.02
606.64	1691.62
606.84	1716.20
607.03	1695.72
607.22	1796.07
607.41	1769.44
607.60	1693.67
607.80	1832.93
607.99	1738.73
608.18	1726.44
608.37	1724.39
608.56	1714.15
608.76	1736.68
608.95	1849.32
609.14	1761.25
609.33	1818.60
609.52	1824.74
609.72	1742.82
609.91	1824.74
610.10	1736.68
610.29	1816.55
610.48	1791.97
610.68	1730.53
610.87	1736.68
611.06	1808.36
611.25	1660.90
611.44	1738.73
611.63	1755.11
611.83	1779.68
612.02	1703.91
612.21	1767.40
612.40	1714.15
612.59	1689.57
612.79	1671.14
612.98	1763.30
613.17	1814.50
613.36	1705.96
613.55	1820.64
613.74	1689.57
613.93	1626.09
614.13	1699.81
614.32	1693.67
614.51	1800.16
614.70	1738.73
614.89	1708.01
615.08	1757.16
615.28	2080.74
615.47	1685.48
615.66	1626.09
615.85	1775.59
616.04	1853.41
616.23	1730.53
616.42	1806.31
616.62	1712.10
616.81	1824.74
617.00	1662.95
617.19	1699.81
617.38	1710.05
617.57	1734.63
617.76	1691.62
617.95	1812.45
618.15	1796.07
618.34	1816.55
618.53	1691.62
618.72	1853.41
618.91	1884.13
619.10	1875.94
619.29	1689.57
619.48	1787.88
619.68	1710.05
619.87	1755.11
620.06	1648.61
620.25	1744.87
620.44	1689.57
620.63	1751.01
620.82	1720.29
621.01	1763.30
621.20	1798.12
621.39	1740.77
621.59	1777.64
621.78	1660.90
621.97	1785.83
622.16	1759.21
622.35	1738.73
622.54	1843.17
622.73	1800.16
622.92	1597.42
623.11	1785.83
623.30	1714.15
623.49	1804.26
623.68	1673.19
623.88	1798.12
624.07	1724.39
624.26	1736.68
624.45	1742.82
624.64	1675.24
624.83	1730.53
625.02	1710.05
625.21	1716.20
625.40	1740.77
625.59	1923.04
625.78	1658.85
625.97	1849.32
626.16	1775.59
626.35	1757.16
626.54	1720.29
626.74	1837.03
626.93	1656.81
627.12	1662.95
627.31	1746.92
627.50	1765.35
627.69	1841.12
627.88	1763.30
628.07	1712.10
628.26	1632.23
628.45	1636.33
628.64	1705.96
628.83	1757.16
629.02	1681.38
629.21	1767.40
629.40	1734.63
629.59	1722.34
629.78	1744.87
629.97	1746.92
630.16	1744.87
630.35	1712.10
630.54	1714.15
630.73	1746.92
630.92	1755.11
631.11	1683.43
631.30	1746.92
631.49	1783.78
631.68	1759.21
631.87	1751.01
632.06	1681.38
632.25	1851.36
632.44	1738.73
632.63	1755.11
632.82	1650.66
633.01	1591.27
633.20	1677.29
633.39	1712.10
633.58	1697.77
633.77	1751.01
633.96	1757.16
634.15	1716.20
634.34	1853.41
634.53	1740.77
634.72	1652.71
634.91	1642.47
635.10	1843.17
635.29	1689.57
635.48	1701.86
635.67	1746.92
635.86	1714.15
636.05	1794.02
636.24	1787.88
636.43	1712.10
636.62	1705.96
636.81	1609.70
637.00	1656.81
637.19	1787.88
637.38	1734.63
637.57	1665.00
637.76	1689.57
637.95	1787.88
638.14	1699.81
638.33	1681.38
638.52	1695.72
638.71	1665.00
638.89	1751.01
639.08	1812.45
639.27	1812.45
639.46	1746.92
639.65	1875.94
639.84	1771.49
640.03	1794.02
640.22	1681.38
640.41	1794.02
640.60	1681.38
640.79	1751.01
640.98	1695.72
641.17	1773.54
641.36	1796.07
641.55	1708.01
641.74	1636.33
641.92	1640.42
642.11	1673.19
642.30	1834.98
642.49	1626.09
642.68	1718.25
642.87	1769.44
643.06	1757.16
643.25	1718.25
643.44	1724.39
643.63	1763.30
643.82	1708.01
644.00	1646.57
644.19	1759.21
644.38	1726.44
644.57	1697.77
644.76	1730.53
644.95	1683.43
645.14	1730.53
645.33	1734.63
645.52	1638.38
645.71	1628.14
645.89	1679.33
646.08	1658.85
646.27	1753.06
646.46	1802.21
646.65	1660.90
646.84	1734.63
647.03	1701.86
647.22	1744.87
647.40	1746.92
647.59	1699.81
647.78	1632.23
647.97	1689.57
648.16	1681.38
648.35	1814.50
648.54	1783.78
648.73	1765.35
648.91	1779.68
649.10	1654.76
649.29	1683.43
649.48	1761.25
649.67	1777.64
649.86	1644.52
650.05	1728.49
650.23	1775.59
650.42	1693.67
650.61	1748.97
650.80	1814.50
650.99	1837.03
651.18	1732.58
651.36	1849.32
651.55	1710.05
651.74	1691.62
651.93	1689.57
652.12	1746.92
652.31	1705.96
652.49	1726.44
652.68	1644.52
652.87	1855.46
653.06	1726.44
653.25	1824.74
653.44	1724.39
653.62	1798.12
653.81	1703.91
654.00	1703.91
654.19	1751.01
654.38	1880.04
654.56	1759.21
654.75	1648.61
654.94	1822.69
655.13	1726.44
655.32	1746.92
655.51	1748.97
655.69	1679.33
655.88	1794.02
656.07	1619.94
656.26	1775.59
656.45	1644.52
656.63	1730.53
656.82	1824.74
657.01	1755.11
657.20	1744.87
657.38	1761.25
657.57	1691.62
657.76	1718.25
657.95	1746.92
658.14	1697.77
658.32	1701.86
658.51	1677.29
658.70	1716.20
658.89	1773.54
659.08	1705.96
659.26	1779.68
659.45	1689.57
659.64	1724.39
659.83	1708.01
660.01	1888.23
660.20	1812.45
660.39	1746.92
660.58	1640.42
660.76	1777.64
660.95	1695.72
661.14	1718.25
661.33	1613.80
661.51	1648.61
661.70	1730.53
661.89	1775.59
662.08	1779.68
662.26	1626.09
662.45	1710.05
662.64	1787.88
662.83	1720.29
663.01	1695.72
663.20	1665.00
663.39	1765.35
663.58	1683.43
663.76	1718.25
663.95	1683.43
664.14	1611.75
664.32	1705.96
664.51	1726.44
664.70	1638.38
664.89	1724.39
665.07	1632.23
665.26	1828.84
665.45	1703.91
665.64	1779.68
665.82	1763.30
666.01	1736.68
666.20	1714.15
666.38	1804.26
666.57	1806.31
666.76	2117.60
666.95	4515.77
667.13	10377.06
667.32	15537.94
667.51	18050.80
667.69	19042.01
667.88	17768.18
668.07	12365.64
668.25	9721.71
668.44	8241.03
668.63	7475.09
668.81	7036.82
669.00	6350.75
669.19	5674.92
669.38	5121.97
669.56	4556.73
669.75	3995.59
669.94	3481.55
670.12	2879.44
670.31	2598.87
670.50	2273.25
670.68	2148.32
670.87	1920.99
671.06	1740.77
671.24	1849.32
671.43	1867.75
671.62	1787.88
671.80	1734.63
671.99	1669.09
672.18	1746.92
672.36	1761.25
672.55	1712.10
672.74	1693.67
672.92	1679.33
673.11	1746.92
673.29	1697.77
673.48	1818.60
673.67	1703.91
673.85	1755.11
674.04	1777.64
674.23	1744.87
674.41	1865.70
674.60	1613.80
674.79	1636.33
674.97	1730.53
675.16	1771.49
675.34	1794.02
675.53	1705.96
675.72	1789.92
675.90	1849.32
676.09	1693.67
676.28	1757.16
676.46	1648.61
676.65	1742.82
676.83	1683.43
677.02	1722.34
677.21	1724.39
677.39	1777.64
677.58	1685.48
677.77	1718.25
677.95	1660.90
678.14	1755.11
678.32	1738.73
678.51	1689.57
678.70	1808.36
678.88	1648.61
679.07	1740.77
679.25	1689.57
679.44	1699.81
679.63	1601.51
679.81	1699.81
680.00	1832.93
680.18	1714.15
680.37	1695.72
680.55	1714.15
680.74	1628.14
680.93	1589.22
681.11	1765.35
681.30	1720.29
681.48	1755.11
681.67	1681.38
681.85	1748.97
682.04	1681.38
682.23	1738.73
682.41	1665.00
682.60	1720.29
682.78	1705.96
682.97	1705.96
683.15	1689.57
683.34	1791.97
683.53	1826.79
683.71	1593.32
683.90	1759.21
684.08	1832.93
684.27	1738.73
684.45	1736.68
684.64	1781.73
684.82	1642.47
685.01	1771.49
685.19	1689.57
685.38	1796.07
685.57	1787.88
685.75	1779.68
685.94	1658.85
686.12	1734.63
686.31	1693.67
686.49	1781.73
686.68	1574.89
686.86	1708.01
687.05	1697.77
687.23	1816.55
687.42	1669.09
687.60	1617.90
687.79	1724.39
687.97	1877.99
688.16	1767.40
688.34	1794.02
688.53	1662.95
688.71	1783.78
688.90	1886.18
689.08	1763.30
689.27	1634.28
689.45	1789.92
689.64	1734.63
689.82	1763.30
690.01	1708.01
690.19	1724.39
690.38	1722.34
690.56	1773.54
690.75	1673.19
690.93	1626.09
691.12	1634.28
691.30	1660.90
691.49	1671.14
691.67	1703.91
691.86	1865.70
692.04	1642.47
692.23	1669.09
692.41	1693.67
692.60	1896.42
692.78	1763.30
692.97	1658.85
693.15	1740.77
693.34	1744.87
693.52	1654.76
693.71	1675.24
693.89	1611.75
694.08	1648.61
694.26	1755.11
694.44	1789.92
694.63	1757.16
694.81	1632.23
695.00	1714.15
695.18	1783.78
695.37	1826.79
695.55	1742.82
695.74	1710.05
695.92	1624.04
696.10	1742.82
696.29	1667.05
696.47	1681.38
696.66	1679.33
696.84	1685.48
697.03	1646.57
697.21	1867.75
697.40	2297.82
697.58	1832.93
697.76	1705.96
697.95	1667.05
698.13	1597.42
698.32	1675.24
698.50	1697.77
698.68	1751.01
698.87	1765.35
699.05	1796.07
699.24	1716.20
699.42	1734.63
699.61	1738.73
699.79	1703.91
699.97	1791.97
700.16	1675.24
700.34	1675.24
700.53	1732.58
700.71	1873.89
700.89	1777.64
701.08	1714.15
701.26	1718.25
701.45	2076.64
701.63	1656.81
701.81	1722.34
702.00	1732.58
702.18	1767.40
702.37	1689.57
702.55	1726.44
702.73	1718.25
702.92	1609.70
703.10	1718.25
703.28	1806.31
703.47	1644.52
703.65	1730.53
703.84	1802.21
704.02	1714.15
704.20	1779.68
704.39	1665.00
704.57	1722.34
704.75	1800.16
704.94	1738.73
705.12	1806.31
705.30	1869.80
705.49	2172.89
705.67	4337.60
705.86	9365.36
706.04	12443.46
706.22	14538.53
706.41	15073.05
706.59	13961.00
706.77	9504.62
706.96	7493.52
707.14	6533.02
707.32	5838.76
707.51	5513.13
707.69	4949.94
707.87	4136.90
708.06	3508.17
708.24	2899.92
708.42	2451.42
708.61	2291.68
708.79	1884.13
708.97	1822.69
709.16	1845.22
709.34	1705.96
709.52	1699.81
709.71	1791.97
709.89	1757.16
710.07	1771.49
710.26	1697.77
710.44	1794.02
710.62	1761.25
710.80	1775.59
710.99	1728.49
711.17	1849.32
711.35	1697.77
711.54	1691.62
711.72	1781.73
711.90	1787.88
712.09	1785.83
712.27	1667.05
712.45	1732.58
712.63	1662.95
712.82	1705.96
713.00	1718.25
713.18	1736.68
713.37	1697.77
713.55	1724.39
713.73	1673.19
713.91	1708.01
714.10	1710.05
714.28	1757.16
714.46	1769.44
714.65	1714.15
714.83	1763.30
715.01	1673.19
715.19	1740.77
715.38	1693.67
715.56	1763.30
715.74	1578.98
715.92	1601.51
716.11	1765.35
716.29	1611.75
716.47	1759.21
716.65	1699.81
716.84	1648.61
717.02	1701.86
717.20	1675.24
717.38	1669.09
717.57	1708.01
717.75	1687.53
717.93	1677.29
718.11	1644.52
718.30	1683.43
718.48	1697.77
718.66	1794.02
718.84	1779.68
719.03	1738.73
719.21	1615.85
719.39	1824.74
719.57	1779.68
719.75	1753.06
719.94	1759.21
720.12	1687.53
720.30	1742.82
720.48	1701.86
720.67	1689.57
720.85	1660.90
721.03	1697.77
721.21	1691.62
721.39	1804.26
721.58	1748.97
721.76	1691.62
721.94	1806.31
722.12	1685.48
722.30	1785.83
722.49	1689.57
722.67	1794.02
722.85	1787.88
723.03	1636.33
723.21	1607.66
723.40	1701.86
723.58	1798.12
723.76	1771.49
723.94	1796.07
724.12	1748.97
724.30	1759.21
724.49	1748.97
724.67	1658.85
724.85	1798.12
725.03	1738.73
725.21	1775.59
725.40	1753.06
725.58	1626.09
725.76	1728.49
725.94	1771.49
726.12	1732.58
726.30	1652.71
726.49	1738.73
726.67	1679.33
726.85	1761.25
727.03	1820.64
727.21	2176.99
727.39	2928.60
727.57	3889.09
727.76	4276.16
727.94	4458.43
728.12	4440.00
728.30	3852.23
728.48	2942.93
728.66	2764.76
728.84	2475.99
729.03	2322.40
729.21	2205.66
729.39	2009.06
729.57	1820.64
729.75	1814.50
729.93	1765.35
730.11	1773.54
730.30	1767.40
730.48	1695.72
730.66	1789.92
730.84	1751.01
731.02	1703.91
731.20	1691.62
731.38	1701.86
731.56	1697.77
731.74	1724.39
731.93	1718.25
732.11	1677.29
732.29	1667.05
732.47	1763.30
732.65	1687.53
732.83	1742.82
733.01	1783.78
733.19	1681.38
733.37	1716.20
733.56	1716.20
733.74	1689.57
733.92	1718.25
734.10	1753.06
734.28	1722.34
734.46	1652.71
734.64	1632.23
734.82	1722.34
735.00	1691.62
735.18	1695.72
735.36	1718.25
735.54	1710.05
735.73	1662.95
735.91	1652.71
736.09	1771.49
736.27	1757.16
736.45	1730.53
736.63	1546.22
736.81	1720.29
736.99	1759.21
737.17	1753.06
737.35	1669.09
737.53	1808.36
737.71	1685.48
737.89	1812.45
738.07	1667.05
738.25	1658.85
738.43	1619.94
738.61	1718.25
738.80	1634.28
738.98	1669.09
739.16	1642.47
739.34	1718.25
739.52	1796.07
739.70	1689.57
739.88	1765.35
740.06	1718.25
740.24	1642.47
740.42	1685.48
740.60	1708.01
740.78	1685.48
740.96	1609.70
741.14	1638.38
741.32	1640.42
741.50	1669.09
741.68	1871.84
741.86	1738.73
742.04	1626.09
742.22	1619.94
742.40	1738.73
742.58	1740.77
742.76	1689.57
742.94	1767.40
743.12	1597.42
743.30	1720.29
743.48	1757.16
743.66	1677.29
743.84	1701.86
744.02	1675.24
744.20	1714.15
744.38	1699.81
744.56	1667.05
744.74	1865.70
744.92	1718.25
745.10	1812.45
745.28	1751.01
745.46	1816.55
745.64	1681.38
745.82	1755.11
746.00	1697.77
746.18	1724.39
746.36	1687.53
746.54	1757.16
746.72	1724.39
746.90	1669.09
747.08	1761.25
747.26	1712.10
747.44	1742.82
747.62	1761.25
747.80	1689.57
747.98	1751.01
748.15	1701.86
748.33	1816.55
748.51	1695.72
748.69	1699.81
748.87	1675.24
749.05	1679.33
749.23	1701.86
749.41	1705.96
749.59	1759.21
749.77	1736.68
749.95	1744.87
750.13	1613.80
750.31	1644.52
750.49	1665.00
750.67	1761.25
750.85	1800.16
751.03	1640.42
751.20	1777.64
751.38	1765.35
751.56	1689.57
751.74	1716.20
751.92	1796.07
752.10	1660.90
752.28	1734.63
752.46	1705.96
752.64	1701.86
752.82	1736.68
753.00	1746.92
753.18	1640.42
753.35	1679.33
753.53	1650.66
753.71	1767.40
753.89	1763.30
754.07	1722.34
754.25	1783.78
754.43	1654.76
754.61	1621.99
754.79	1761.25
754.97	1699.81
755.14	1843.17
755.32	1632.23
755.50	1759.21
755.68	1796.07
755.86	1656.81
756.04	1753.06
756.22	1624.04
756.40	1757.16
756.57	1824.74
756.75	1714.15
756.93	1822.69
757.11	1771.49
757.29	1613.80
757.47	1671.14
757.65	1615.85
757.82	1519.59
758.00	1658.85
758.18	1679.33
758.36	1705.96
758.54	1740.77
758.72	1585.13
758.90	1763.30
759.07	1714.15
759.25	1658.85
759.43	1802.21
759.61	1591.27
759.79	2230.24
759.97	1769.44
760.15	1603.56
760.32	1632.23
760.50	1740.77
760.68	1853.41
760.86	1665.00
761.04	1804.26
761.22	1748.97
761.39	1746.92
761.57	1744.87
761.75	1714.15
761.93	1681.38
762.11	1730.53
762.28	1742.82
762.46	1601.51
762.64	1708.01
762.82	1583.08
763.00	1703.91
763.18	1757.16
763.35	1687.53
763.53	1714.15
763.71	1689.57
763.89	1800.16
764.07	1679.33
764.24	1699.81
764.42	1742.82
764.60	1667.05
764.78	1724.39
764.96	1765.35
765.13	1744.87
765.31	1708.01
765.49	1734.63
765.67	1689.57
765.84	1697.77
766.02	1648.61
766.20	1671.14
766.38	1746.92
766.56	1826.79
766.73	1738.73
766.91	1671.14
767.09	1724.39
767.27	1744.87
767.44	1701.86
767.62	1773.54
767.80	1656.81
767.98	1658.85
768.15	1697.77
768.33	1773.54
768.51	1744.87
768.69	1759.21
768.87	1714.15
769.04	1787.88
769.22	1843.17
769.40	1800.16
769.58	1812.45
769.75	1669.09
769.93	1783.78
770.11	1695.72
770.28	1671.14
770.46	1765.35
770.64	1652.71
770.82	1673.19
770.99	1630.18
771.17	1763.30
771.35	1697.77
771.53	1730.53
771.70	1611.75
771.88	1671.14
772.06	1689.57
772.23	1685.48
772.41	1748.97
772.59	1740.77
772.77	1617.90
772.94	1720.29
773.12	1761.25
773.30	1697.77
773.47	1757.16
773.65	1652.71
773.83	1789.92
774.01	1689.57
774.18	1587.18
774.36	1656.81
774.54	1595.37
774.71	1677.29
774.89	1644.52
775.07	1648.61
775.24	1650.66
775.42	1665.00
775.60	1785.83
775.78	1603.56
775.95	1716.20
776.13	1648.61
776.31	1636.33
776.48	1748.97
776.66	1742.82
776.84	1650.66
777.01	1681.38
777.19	1695.72
777.37	1673.19
777.54	1730.53
777.72	1845.22
777.90	1744.87
778.07	1681.38
778.25	1894.37
778.43	1783.78
778.60	1634.28
778.78	1765.35
778.96	1802.21
779.13	1650.66
779.31	1712.10
779.49	1628.14
779.66	1683.43
779.84	1714.15
780.01	1779.68
780.19	1693.67
780.37	1769.44
780.54	1769.44
780.72	1601.51
780.90	1732.58
781.07	1755.11
781.25	1710.05
781.43	1751.01
781.60	1718.25
781.78	1718.25
781.95	1687.53
782.13	1679.33
782.31	1697.77
782.48	1660.90
782.66	1710.05
782.83	1832.93
783.01	1787.88
783.19	1730.53
783.36	1744.87
783.54	1603.56
783.72	1736.68
783.89	1658.85
784.07	1763.30
784.24	1722.34
784.42	1822.69
784.60	1781.73
784.77	1697.77
784.95	1585.13
785.12	1732.58
785.30	1710.05
785.47	1734.63
785.65	1710.05
785.83	1628.14
786.00	1636.33
786.18	1740.77
786.35	1652.71
786.53	1689.57
786.71	1779.68
786.88	1808.36
787.06	1751.01
787.23	1724.39
787.41	1640.42
787.58	1716.20
787.76	1630.18
787.94	1748.97
788.11	1708.01
788.29	1611.75
788.46	1699.81
788.64	1679.33
788.81	1681.38
788.99	1681.38
789.16	1675.24
789.34	1753.06
789.52	1607.66
789.69	1685.48
789.87	1677.29
790.04	1658.85
790.22	1728.49
790.39	1810.40
790.57	1613.80
790.74	1677.29
790.92	1703.91
791.09	1574.89
791.27	1689.57
791.44	1755.11
791.62	1648.61
791.79	1722.34
791.97	1720.29
792.15	1865.70
792.32	1726.44
792.50	1820.64
792.67	1744.87
792.85	1802.21
793.02	1712.10
793.20	1703.91
793.37	1640.42
793.55	1675.24
793.72	1644.52
793.90	1820.64
794.07	1701.86
794.25	1685.48
794.42	1730.53
794.60	1652.71
794.77	1740.77
794.95	1634.28
795.12	1744.87
795.30	1730.53
795.47	1703.91
795.65	1787.88
795.82	1681.38
796.00	1603.56
796.17	1738.73
796.34	1656.81
796.52	1679.33
796.69	1751.01
796.87	1800.16
797.04	1718.25
797.22	1673.19
797.39	1705.96
797.57	1730.53
797.74	1730.53
797.92	1744.87
798.09	1685.48
798.27	1767.40
798.44	1724.39
798.62	1693.67
798.79	1705.96
798.96	1755.11
799.14	1742.82
799.31	1882.08
799.49	1701.86
799.66	1697.77
799.84	1744.87
800.01	1679.33
800.19	1791.97
800.36	1677.29
800.53	1650.66
800.71	1699.81
800.88	1763.30
801.06	1689.57
801.23	1705.96
801.41	1742.82
801.58	1673.19
801.75	1671.14
801.93	1777.64
802.10	1877.99
802.28	1710.05
802.45	1611.75
802.63	1675.24
802.80	1767.40
802.97	1667.05
803.15	1746.92
803.32	1689.57
803.50	1787.88
803.67	1681.38
803.84	1648.61
804.02	1757.16
804.19	1712.10
804.37	1640.42
804.54	1652.71
804.71	1734.63
804.89	1730.53
805.06	1632.23
805.24	1697.77
805.41	1683.43
805.58	1665.00
805.76	1857.51
805.93	1708.01
806.10	1724.39
806.28	1767.40
806.45	1667.05
806.63	1759.21
806.80	1740.77
806.97	1730.53
807.15	1638.38
807.32	1673.19
807.49	1736.68
807.67	1697.77
807.84	1716.20
808.01	1615.85
808.19	1759.21
808.36	1787.88
808.54	1607.66
808.71	1718.25
808.88	1699.81
809.06	1763.30
809.23	1771.49
809.40	1718.25
809.58	1736.68
809.75	1812.45
809.92	1621.99
810.10	1880.04
810.27	1677.29
810.44	1697.77
810.62	1720.29
810.79	1687.53
810.96	1671.14
811.14	1654.76
811.31	1660.90
811.48	1775.59
811.66	1765.35
811.83	1742.82
812.00	1755.11
812.18	1742.82
812.35	1787.88
812.52	1665.00
812.69	1683.43
812.87	1712.10
813.04	1656.81
813.21	1652.71
813.39	1667.05
813.56	1626.09
813.73	1812.45
813.91	1636.33
814.08	1671.14
814.25	1722.34
814.42	1609.70
814.60	1718.25
814.77	1742.82
814.94	1794.02
815.12	1675.24
815.29	1818.60
815.46	1669.09
815.63	1757.16
815.81	1720.29
815.98	1675.24
816.15	1746.92
816.33	1691.62
816.50	1681.38
816.67	1677.29
816.84	1658.85
817.02	1605.61
817.19	1710.05
817.36	1691.62
817.53	1748.97
817.71	1652.71
817.88	1761.25
818.05	1734.63
818.22	1662.95
818.40	1853.41
818.57	1611.75
818.74	1773.54
818.91	1708.01
819.09	1798.12
819.26	1769.44
819.43	1671.14
819.60	1705.96
819.78	1712.10
819.95	1769.44
820.12	1685.48
820.29	1857.51
820.47	1744.87
820.64	1675.24
820.81	1638.38
820.98	1634.28
821.15	1751.01
821.33	1691.62
821.50	1578.98
821.67	1751.01
821.84	1642.47
822.02	1677.29
822.19	1671.14
822.36	1677.29
822.53	1677.29
822.70	1671.14
822.88	1646.57
823.05	1783.78
823.22	1689.57
823.39	1779.68
823.56	1794.02
823.74	1863.65
823.91	1695.72
824.08	1611.75
824.25	1693.67
824.42	1761.25
824.60	1656.81
824.77	1697.77
824.94	1634.28
825.11	1722.34
825.28	1636.33
825.45	1791.97
825.63	1722.34
825.80	1675.24
825.97	1697.77
826.14	1730.53
826.31	1644.52
826.48	1755.11
826.66	1685.48
826.83	1738.73
827.00	1730.53
827.17	1662.95
827.34	1693.67
827.51	1677.29
827.69	1699.81
827.86	1593.32
828.03	1660.90
828.20	1775.59
828.37	1677.29
828.54	1683.43
828.71	1740.77
828.89	1853.41
829.06	1669.09
829.23	1851.36
829.40	1621.99
829.57	1718.25
829.74	1683.43
829.91	1656.81
830.09	1665.00
830.26	1800.16
830.43	1859.56
830.60	1789.92
830.77	1705.96
830.94	1781.73
831.11	1705.96
831.28	1669.09
831.46	1767.40
831.63	1773.54
831.80	1802.21
831.97	1673.19
832.14	1650.66
832.31	1736.68
832.48	1699.81
832.65	1851.36
832.82	1755.11
832.99	1658.85
833.17	1591.27
833.34	1847.27
833.51	1671.14
833.68	1591.27
833.85	1804.26
834.02	1703.91
834.19	1626.09
834.36	1648.61
834.53	1724.39
834.70	1812.45
834.87	1675.24
835.04	1671.14
835.22	1652.71
835.39	1730.53
835.56	1595.37
835.73	1701.86
835.90	1761.25
836.07	1691.62
836.24	1791.97
836.41	1681.38
836.58	1652.71
836.75	1751.01
836.92	1767.40
837.09	1681.38
837.26	1849.32
837.43	1691.62
837.60	1773.54
837.77	1611.75
837.94	1755.11
838.12	1746.92
838.29	1673.19
838.46	1599.46
838.63	1652.71
838.80	1806.31
838.97	1662.95
839.14	1634.28
839.31	1769.44
839.48	1736.68
839.65	1650.66
839.82	1722.34
839.99	1683.43
840.16	1673.19
840.33	1640.42
840.50	1626.09
840.67	1746.92
840.84	1562.60
841.01	1679.33
841.18	1673.19
841.35	1636.33
841.52	1753.06
841.69	1767.40
841.86	1763.30
842.03	1701.86
842.20	1765.35
842.37	1695.72
842.54	1779.68
842.71	1662.95
842.88	1665.00
843.05	1812.45
843.22	1744.87
843.39	1746.92
843.56	1654.76
843.73	1779.68
843.90	1748.97
844.07	1703.91
844.24	1740.77
844.41	1800.16
844.58	1781.73
844.75	1738.73
844.92	1632.23
845.09	1763.30
845.26	1685.48
845.43	1775.59
845.60	1642.47
845.77	1767.40
845.94	1730.53
846.10	1740.77
846.27	1710.05
846.44	1681.38
846.61	1652.71
846.78	1779.68
846.95	1765.35
847.12	1630.18
847.29	1728.49
847.46	1685.48
847.63	1732.58
847.80	1757.16
847.97	1656.81
848.14	1841.12
848.31	1656.81
848.48	1570.79
848.65	1679.33
848.82	1695.72
848.98	1857.51
849.15	1742.82
849.32	1767.40
849.49	1746.92
849.66	1712.10
849.83	1703.91
850.00	1619.94
850.17	1736.68
850.34	1626.09
850.51	1660.90
850.68	1642.47
850.85	1927.14
851.01	1687.53
851.18	1716.20
851.35	1722.34
851.52	1732.58
851.69	1722.34
851.86	1609.70
852.03	1681.38
852.20	1765.35
852.37	1691.62
852.53	1624.04
852.70	1662.95
852.87	1675.24
853.04	1744.87
853.21	1763.30
853.38	1685.48
853.55	1791.97
853.72	1873.89
853.89	1744.87
854.05	1675.24
854.22	1685.48
854.39	1734.63
854.56	1742.82
854.73	1742.82
854.90	1675.24
855.07	1703.91
855.23	1624.04
855.40	1652.71
855.57	1656.81
855.74	1591.27
855.91	1814.50
856.08	1671.14
856.25	1691.62
856.41	1650.66
856.58	1619.94
856.75	1677.29
856.92	1615.85
857.09	1763.30
857.26	1701.86
857.42	1667.05
857.59	1722.34
857.76	1748.97
857.93	1671.14
858.10	1722.34
858.27	1617.90
858.43	1689.57
858.60	1710.05
858.77	1609.70
858.94	1595.37
859.11	1773.54
859.27	1665.00
859.44	1753.06
859.61	1822.69
859.78	1671.14
859.95	1662.95
860.12	1705.96
860.28	1814.50
860.45	1751.01
860.62	1634.28
860.79	1751.01
860.95	1683.43
861.12	1640.42
861.29	1671.14
861.46	1683.43
861.63	1691.62
861.79	1722.34
861.96	1675.24
862.13	1662.95
862.30	1787.88
862.47	1650.66
862.63	1716.20
862.80	1746.92
862.97	1742.82
863.14	1630.18
863.30	1814.50
863.47	1742.82
863.64	1775.59
863.81	1732.58
863.97	1712.10
864.14	1691.62
864.31	1689.57
864.48	1783.78
864.65	1687.53
864.81	1761.25
864.98	1767.40
865.15	1804.26
865.32	1738.73
865.48	1824.74
865.65	1796.07
865.82	1675.24
865.98	1656.81
866.15	1812.45
866.32	1740.77
866.49	1722.34
866.65	1769.44
866.82	1714.15
866.99	1660.90
867.16	1646.57
867.32	1681.38
867.49	1722.34
867.66	1693.67
867.83	1716.20
867.99	1703.91
868.16	1736.68
868.33	1613.80
868.49	1656.81
868.66	1638.38
868.83	1822.69
868.99	1716.20
869.16	1685.48
869.33	1734.63
869.50	1769.44
869.66	1685.48
869.83	1757.16
870.00	1607.66
870.16	1728.49
870.33	1648.61
870.50	1679.33
870.66	1759.21
870.83	1742.82
871.00	1728.49
871.17	1746.92
871.33	1710.05
871.50	1675.24
871.67	1773.54
871.83	1677.29
872.00	1824.74
872.17	1703.91
872.33	1806.31
872.50	1691.62
872.67	1685.48
872.83	1683.43
873.00	1748.97
873.17	1632.23
873.33	1740.77
873.50	1732.58
873.67	1662.95
873.83	1642.47
874.00	1742.82
874.16	1806.31
874.33	1724.39
874.50	1642.47
874.66	1712.10
874.83	1691.62
875.00	1789.92
875.16	1742.82
875.33	1775.59
875.50	1552.36
875.66	1636.33
875.83	1673.19
875.99	1687.53
876.16	1644.52
876.33	1634.28
876.49	1751.01
876.66	1753.06
876.83	1714.15
876.99	1554.41
877.16	1765.35
877.32	1697.77
877.49	1742.82
877.66	1665.00
877.82	1794.02
877.99	1671.14
878.15	1746.92
878.32	1730.53
878.49	1744.87
878.65	1665.00
878.82	1761.25
878.98	1677.29
879.15	1718.25
879.32	1755.11
879.48	1771.49
879.65	1638.38
879.81	1708.01
879.98	1714.15
880.15	1714.15
880.31	1791.97
880.48	1628.14
880.64	1746.92
880.81	1738.73
880.97	1732.58
881.14	1802.21
881.31	1591.27
881.47	1890.28
881.64	1740.77
881.80	1677.29
881.97	1675.24
882.13	1691.62
882.30	1667.05
882.47	1720.29
882.63	1656.81
882.80	1718.25
882.96	1642.47
883.13	1824.74
883.29	1714.15
883.46	1701.86
883.62	1839.08
883.79	1624.04
883.95	1771.49
884.12	1693.67
884.29	1785.83
884.45	1734.63
884.62	1765.35
884.78	1701.86
884.95	1791.97
885.11	1669.09
885.28	1736.68
885.44	1693.67
885.61	1703.91
885.77	1796.07
885.94	1757.16
886.10	1576.94
886.27	1705.96
886.43	1767.40
886.60	1847.27
886.76	1697.77
886.93	1734.63
887.09	1716.20
887.26	1652.71
887.42	1675.24
887.59	1812.45
887.75	1841.12
887.92	1791.97
888.08	1820.64
888.25	1738.73
888.41	1705.96
888.58	1806.31
888.74	1638.38
888.91	1695.72
>>>>>End Processed Spectral Data<<<<<
