SpectraSuite Data File
++++++++++++++++++++++++++++++++++++
Date: Mon Jun 06 12:18:57 CEST 2016
User: root
Dark Spectrum Present: No
Reference Spectrum Present: No
Number of Sampled Component Spectra: 1
Spectrometers: USB4C02835
Integration Time (usec): 100000 (USB4C02835)
Spectra Averaged: 1 (USB4C02835)
Boxcar Smoothing: 0 (USB4C02835)
Correct for Electrical Dark: No (USB4C02835)
Strobe/Lamp Enabled: No (USB4C02835)
Correct for Detector Non-linearity: No (USB4C02835)
Correct for Stray Light: No (USB4C02835)
Number of Pixels in Processed Spectrum: 3648
>>>>>Begin Processed Spectral Data<<<<<
177.47	1488.87
177.69	1488.87
177.91	1488.87
178.13	1429.48
178.36	1456.11
178.58	1609.70
178.80	1730.53
179.02	1642.47
179.24	1673.19
179.46	1662.95
179.68	1665.00
179.90	1687.53
180.13	1728.49
180.35	1683.43
180.57	1724.39
180.79	1757.16
181.01	1701.86
181.23	1736.68
181.45	1828.84
181.67	1716.20
181.90	1779.68
182.12	1626.09
182.34	1621.99
182.56	1748.97
182.78	1720.29
183.00	1656.81
183.22	1671.14
183.44	1636.33
183.66	1855.46
183.89	1755.11
184.11	1613.80
184.33	1736.68
184.55	1697.77
184.77	1722.34
184.99	1671.14
185.21	1724.39
185.43	1732.58
185.65	1669.09
185.87	1742.82
186.10	1708.01
186.32	1804.26
186.54	1636.33
186.76	1697.77
186.98	1734.63
187.20	1742.82
187.42	1654.76
187.64	1669.09
187.86	1716.20
188.08	1703.91
188.30	1648.61
188.52	1660.90
188.75	1761.25
188.97	1818.60
189.19	1650.66
189.41	1718.25
189.63	1744.87
189.85	1685.48
190.07	1603.56
190.29	1636.33
190.51	1763.30
190.73	1574.89
190.95	1732.58
191.17	1681.38
191.39	1687.53
191.61	1656.81
191.84	1605.61
192.06	1732.58
192.28	1642.47
192.50	1783.78
192.72	1736.68
192.94	1724.39
193.16	1716.20
193.38	1712.10
193.60	1656.81
193.82	1675.24
194.04	1699.81
194.26	1791.97
194.48	1662.95
194.70	1648.61
194.92	1685.48
195.14	1636.33
195.36	1691.62
195.58	1673.19
195.80	1679.33
196.02	1646.57
196.24	1705.96
196.46	1734.63
196.69	1617.90
196.91	1855.46
197.13	1634.28
197.35	1607.66
197.57	1767.40
197.79	1703.91
198.01	1617.90
198.23	1742.82
198.45	1724.39
198.67	1607.66
198.89	1691.62
199.11	1712.10
199.33	1710.05
199.55	1572.84
199.77	1722.34
199.99	1718.25
200.21	1656.81
200.43	1724.39
200.65	1638.38
200.87	1564.65
201.09	1753.06
201.31	1656.81
201.53	1681.38
201.75	1683.43
201.97	1734.63
202.19	1677.29
202.41	1775.59
202.63	1826.79
202.85	1781.73
203.07	1726.44
203.29	1714.15
203.51	1568.74
203.73	1683.43
203.95	1798.12
204.17	1730.53
204.39	1679.33
204.61	1669.09
204.83	1734.63
205.05	1748.97
205.27	1736.68
205.49	1826.79
205.71	1634.28
205.93	1578.98
206.15	1693.67
206.37	1716.20
206.59	1658.85
206.81	1689.57
207.03	1646.57
207.25	1570.79
207.47	1775.59
207.69	1665.00
207.91	1761.25
208.13	1769.44
208.34	1669.09
208.56	1595.37
208.78	1732.58
209.00	1638.38
209.22	1675.24
209.44	1685.48
209.66	1685.48
209.88	1677.29
210.10	1662.95
210.32	1691.62
210.54	1763.30
210.76	1751.01
210.98	1755.11
211.20	1630.18
211.42	1685.48
211.64	1714.15
211.86	1656.81
212.08	1712.10
212.30	1673.19
212.52	1665.00
212.74	1685.48
212.96	1798.12
213.17	1736.68
213.39	1759.21
213.61	1806.31
213.83	1808.36
214.05	1591.27
214.27	1728.49
214.49	1730.53
214.71	1654.76
214.93	1808.36
215.15	1646.57
215.37	1724.39
215.59	1636.33
215.81	1773.54
216.03	1855.46
216.24	1746.92
216.46	1662.95
216.68	1685.48
216.90	1734.63
217.12	1738.73
217.34	1718.25
217.56	1675.24
217.78	1757.16
218.00	1677.29
218.22	1744.87
218.44	1748.97
218.66	1751.01
218.87	1834.98
219.09	1669.09
219.31	1761.25
219.53	1710.05
219.75	1640.42
219.97	1648.61
220.19	1648.61
220.41	1685.48
220.63	1773.54
220.85	1783.78
221.06	1718.25
221.28	1681.38
221.50	1751.01
221.72	1718.25
221.94	1701.86
222.16	1654.76
222.38	1665.00
222.60	1677.29
222.82	1695.72
223.03	1738.73
223.25	1568.74
223.47	1691.62
223.69	1724.39
223.91	1654.76
224.13	1720.29
224.35	1648.61
224.57	1796.07
224.78	1693.67
225.00	1603.56
225.22	1671.14
225.44	1710.05
225.66	1705.96
225.88	1583.08
226.10	1769.44
226.32	1669.09
226.53	1722.34
226.75	1593.32
226.97	1662.95
227.19	1675.24
227.41	1617.90
227.63	1691.62
227.85	1624.04
228.06	1691.62
228.28	1648.61
228.50	1779.68
228.72	1646.57
228.94	1615.85
229.16	1624.04
229.37	1611.75
229.59	1624.04
229.81	1771.49
230.03	1656.81
230.25	1607.66
230.47	1650.66
230.69	1558.50
230.90	1734.63
231.12	1654.76
231.34	1693.67
231.56	1697.77
231.78	1624.04
232.00	1714.15
232.21	1695.72
232.43	1658.85
232.65	1554.41
232.87	1771.49
233.09	1595.37
233.30	1632.23
233.52	1753.06
233.74	1691.62
233.96	1673.19
234.18	1697.77
234.40	1687.53
234.61	1826.79
234.83	1632.23
235.05	1578.98
235.27	1855.46
235.49	1728.49
235.70	1714.15
235.92	1783.78
236.14	1695.72
236.36	1808.36
236.58	1683.43
236.79	1658.85
237.01	1689.57
237.23	1685.48
237.45	1736.68
237.67	1648.61
237.88	1662.95
238.10	1824.74
238.32	1667.05
238.54	1660.90
238.76	1732.58
238.97	1673.19
239.19	1677.29
239.41	1748.97
239.63	1699.81
239.85	1675.24
240.06	1619.94
240.28	1646.57
240.50	1716.20
240.72	1716.20
240.93	1693.67
241.15	1806.31
241.37	1716.20
241.59	1787.88
241.81	1640.42
242.02	1607.66
242.24	1724.39
242.46	1738.73
242.68	1656.81
242.89	1683.43
243.11	1767.40
243.33	1673.19
243.55	1695.72
243.76	1703.91
243.98	1669.09
244.20	1740.77
244.42	1708.01
244.64	1722.34
244.85	1697.77
245.07	1644.52
245.29	1757.16
245.51	1716.20
245.72	1740.77
245.94	1781.73
246.16	1734.63
246.38	1791.97
246.59	1642.47
246.81	1675.24
247.03	1652.71
247.24	1605.61
247.46	1667.05
247.68	1789.92
247.90	1693.67
248.11	1642.47
248.33	1834.98
248.55	1656.81
248.77	1687.53
248.98	1781.73
249.20	1785.83
249.42	1652.71
249.64	1658.85
249.85	1665.00
250.07	1619.94
250.29	1742.82
250.50	1755.11
250.72	1576.94
250.94	1742.82
251.16	1789.92
251.37	1742.82
251.59	1722.34
251.81	1671.14
252.02	1828.84
252.24	1695.72
252.46	1732.58
252.68	1617.90
252.89	1742.82
253.11	1683.43
253.33	1779.68
253.54	1751.01
253.76	1660.90
253.98	1671.14
254.20	1730.53
254.41	1576.94
254.63	1652.71
254.85	1640.42
255.06	1642.47
255.28	1718.25
255.50	1689.57
255.71	1581.03
255.93	1578.98
256.15	1677.29
256.36	1716.20
256.58	1689.57
256.80	1658.85
257.02	1595.37
257.23	1689.57
257.45	1681.38
257.67	1683.43
257.88	1697.77
258.10	1691.62
258.32	1765.35
258.53	1697.77
258.75	1810.40
258.97	1617.90
259.18	1716.20
259.40	1710.05
259.62	1751.01
259.83	1761.25
260.05	1701.86
260.27	1970.15
260.48	1697.77
260.70	1675.24
260.92	1685.48
261.13	1650.66
261.35	1689.57
261.57	1765.35
261.78	1589.22
262.00	1685.48
262.22	1720.29
262.43	1621.99
262.65	1621.99
262.86	1757.16
263.08	1847.27
263.30	1703.91
263.51	1593.32
263.73	1644.52
263.95	1746.92
264.16	1775.59
264.38	1726.44
264.60	1650.66
264.81	1619.94
265.03	1744.87
265.25	1742.82
265.46	1652.71
265.68	1740.77
265.89	1660.90
266.11	1632.23
266.33	1708.01
266.54	1738.73
266.76	1652.71
266.98	1736.68
267.19	1800.16
267.41	1714.15
267.62	1697.77
267.84	1599.46
268.06	1740.77
268.27	1697.77
268.49	1779.68
268.70	1744.87
268.92	1710.05
269.14	1644.52
269.35	1650.66
269.57	1714.15
269.79	1705.96
270.00	1589.22
270.22	1759.21
270.43	1646.57
270.65	1546.22
270.87	1669.09
271.08	1755.11
271.30	1763.30
271.51	1744.87
271.73	1689.57
271.95	1712.10
272.16	1695.72
272.38	1751.01
272.59	1693.67
272.81	1656.81
273.02	1669.09
273.24	1759.21
273.46	1624.04
273.67	1648.61
273.89	1642.47
274.10	1607.66
274.32	1783.78
274.54	1765.35
274.75	1652.71
274.97	1685.48
275.18	1734.63
275.40	1777.64
275.61	1693.67
275.83	1669.09
276.05	1660.90
276.26	1685.48
276.48	1726.44
276.69	1675.24
276.91	1683.43
277.12	1775.59
277.34	1755.11
277.55	1812.45
277.77	1697.77
277.99	1693.67
278.20	1621.99
278.42	1503.21
278.63	1634.28
278.85	1675.24
279.06	1646.57
279.28	1755.11
279.49	1753.06
279.71	1740.77
279.93	1808.36
280.14	1646.57
280.36	1710.05
280.57	1722.34
280.79	1728.49
281.00	1617.90
281.22	1710.05
281.43	1796.07
281.65	1556.46
281.86	1558.50
282.08	1761.25
282.29	1861.60
282.51	1615.85
282.73	1554.41
282.94	1652.71
283.16	1759.21
283.37	1726.44
283.59	1757.16
283.80	1705.96
284.02	1683.43
284.23	1701.86
284.45	1658.85
284.66	1726.44
284.88	1642.47
285.09	1710.05
285.31	1736.68
285.52	1673.19
285.74	1591.27
285.95	1708.01
286.17	1675.24
286.38	1783.78
286.60	1730.53
286.81	1695.72
287.03	1611.75
287.24	1644.52
287.46	1720.29
287.67	1746.92
287.89	1791.97
288.10	1716.20
288.32	1681.38
288.53	1697.77
288.75	1673.19
288.96	1763.30
289.18	1626.09
289.39	1671.14
289.61	1808.36
289.82	1697.77
290.04	1865.70
290.25	1640.42
290.47	1662.95
290.68	1632.23
290.90	1732.58
291.11	1650.66
291.33	1697.77
291.54	1710.05
291.76	1626.09
291.97	1759.21
292.18	1736.68
292.40	1705.96
292.61	1683.43
292.83	1877.99
293.04	1699.81
293.26	1734.63
293.47	1759.21
293.69	1701.86
293.90	1650.66
294.12	1703.91
294.33	1667.05
294.55	1710.05
294.76	1773.54
294.97	1734.63
295.19	1892.32
295.40	1632.23
295.62	1689.57
295.83	1779.68
296.05	1587.18
296.26	1689.57
296.48	1642.47
296.69	1722.34
296.90	1650.66
297.12	1740.77
297.33	1771.49
297.55	1746.92
297.76	1763.30
297.98	1734.63
298.19	1595.37
298.41	1638.38
298.62	1648.61
298.83	1675.24
299.05	1746.92
299.26	1642.47
299.48	1667.05
299.69	1695.72
299.90	1691.62
300.12	1658.85
300.33	1681.38
300.55	1660.90
300.76	1710.05
300.98	1566.70
301.19	1753.06
301.40	1658.85
301.62	1714.15
301.83	1746.92
302.05	1697.77
302.26	1738.73
302.47	1714.15
302.69	1615.85
302.90	1650.66
303.12	1632.23
303.33	1730.53
303.54	1736.68
303.76	1648.61
303.97	1699.81
304.19	1724.39
304.40	1617.90
304.61	1609.70
304.83	1814.50
305.04	1742.82
305.26	1769.44
305.47	1621.99
305.68	1683.43
305.90	1628.14
306.11	1759.21
306.33	1648.61
306.54	1679.33
306.75	1683.43
306.97	1665.00
307.18	1677.29
307.39	1673.19
307.61	1759.21
307.82	1662.95
308.04	1722.34
308.25	1689.57
308.46	1755.11
308.68	1687.53
308.89	1720.29
309.10	1769.44
309.32	1736.68
309.53	1634.28
309.74	1767.40
309.96	1677.29
310.17	1806.31
310.39	1607.66
310.60	1759.21
310.81	1644.52
311.03	1673.19
311.24	1738.73
311.45	1658.85
311.67	1798.12
311.88	1689.57
312.09	1630.18
312.31	1730.53
312.52	1716.20
312.73	1748.97
312.95	1634.28
313.16	1656.81
313.37	1740.77
313.59	1765.35
313.80	1759.21
314.01	1759.21
314.23	1630.18
314.44	1652.71
314.65	1591.27
314.87	1675.24
315.08	1695.72
315.29	1695.72
315.51	1624.04
315.72	1593.32
315.93	1814.50
316.15	1718.25
316.36	1576.94
316.57	1615.85
316.79	1751.01
317.00	1656.81
317.21	1755.11
317.43	1648.61
317.64	1718.25
317.85	1671.14
318.07	1693.67
318.28	1720.29
318.49	1816.55
318.70	1863.65
318.92	1814.50
319.13	1841.12
319.34	1730.53
319.56	1742.82
319.77	1789.92
319.98	1816.55
320.20	1767.40
320.41	1796.07
320.62	1638.38
320.83	1654.76
321.05	1746.92
321.26	1705.96
321.47	1759.21
321.69	1718.25
321.90	1619.94
322.11	1669.09
322.32	1734.63
322.54	1775.59
322.75	1673.19
322.96	1796.07
323.18	1595.37
323.39	1626.09
323.60	1656.81
323.81	1738.73
324.03	1615.85
324.24	1685.48
324.45	1740.77
324.66	1648.61
324.88	1724.39
325.09	1748.97
325.30	1656.81
325.52	1689.57
325.73	1701.86
325.94	1640.42
326.15	1603.56
326.37	1621.99
326.58	1724.39
326.79	1712.10
327.00	1714.15
327.22	1763.30
327.43	1640.42
327.64	1687.53
327.85	1665.00
328.07	1648.61
328.28	1828.84
328.49	1675.24
328.70	1667.05
328.92	1685.48
329.13	1703.91
329.34	1744.87
329.55	1777.64
329.76	1742.82
329.98	1701.86
330.19	1689.57
330.40	1748.97
330.61	1738.73
330.83	1767.40
331.04	1607.66
331.25	1673.19
331.46	1691.62
331.68	1587.18
331.89	1703.91
332.10	1730.53
332.31	1642.47
332.52	1691.62
332.74	1783.78
332.95	1669.09
333.16	1634.28
333.37	1839.08
333.58	1652.71
333.80	1755.11
334.01	1564.65
334.22	1697.77
334.43	1662.95
334.64	1615.85
334.86	1634.28
335.07	1638.38
335.28	1742.82
335.49	1628.14
335.70	1757.16
335.92	1757.16
336.13	1808.36
336.34	1665.00
336.55	1755.11
336.76	1691.62
336.98	1542.12
337.19	1691.62
337.40	1777.64
337.61	1814.50
337.82	1732.58
338.04	1708.01
338.25	1695.72
338.46	1656.81
338.67	1589.22
338.88	1615.85
339.09	1697.77
339.31	1599.46
339.52	1638.38
339.73	1595.37
339.94	1730.53
340.15	1748.97
340.36	1619.94
340.58	1689.57
340.79	1634.28
341.00	1722.34
341.21	1566.70
341.42	1716.20
341.63	1705.96
341.85	1689.57
342.06	1695.72
342.27	1617.90
342.48	1826.79
342.69	1589.22
342.90	1742.82
343.12	1683.43
343.33	1658.85
343.54	1771.49
343.75	1728.49
343.96	1726.44
344.17	1640.42
344.38	1695.72
344.60	1679.33
344.81	1648.61
345.02	1626.09
345.23	1701.86
345.44	1757.16
345.65	1630.18
345.86	1712.10
346.07	1703.91
346.29	1652.71
346.50	1748.97
346.71	1699.81
346.92	1771.49
347.13	1804.26
347.34	1628.14
347.55	1671.14
347.76	1744.87
347.98	1597.42
348.19	1681.38
348.40	1744.87
348.61	1718.25
348.82	1746.92
349.03	1783.78
349.24	1656.81
349.45	1791.97
349.66	1570.79
349.88	1673.19
350.09	1679.33
350.30	1722.34
350.51	1765.35
350.72	1671.14
350.93	1722.34
351.14	1642.47
351.35	1708.01
351.56	1703.91
351.77	1755.11
351.99	1679.33
352.20	1769.44
352.41	1708.01
352.62	1615.85
352.83	1691.62
353.04	1710.05
353.25	1658.85
353.46	1712.10
353.67	1720.29
353.88	1593.32
354.09	1703.91
354.30	1728.49
354.52	1755.11
354.73	1646.57
354.94	1658.85
355.15	1683.43
355.36	1757.16
355.57	1703.91
355.78	1763.30
355.99	1681.38
356.20	1642.47
356.41	1746.92
356.62	1734.63
356.83	1654.76
357.04	1798.12
357.25	1544.17
357.46	1726.44
357.68	1671.14
357.89	1665.00
358.10	1718.25
358.31	1656.81
358.52	1751.01
358.73	1619.94
358.94	1562.60
359.15	1669.09
359.36	1794.02
359.57	1716.20
359.78	1691.62
359.99	1691.62
360.20	1677.29
360.41	1673.19
360.62	1642.47
360.83	1679.33
361.04	1712.10
361.25	1646.57
361.46	1769.44
361.67	1697.77
361.88	1699.81
362.09	1832.93
362.30	1705.96
362.51	1611.75
362.72	1673.19
362.93	1759.21
363.14	1808.36
363.35	1705.96
363.56	1615.85
363.78	1757.16
363.99	1775.59
364.20	1724.39
364.41	1701.86
364.62	1818.60
364.83	1683.43
365.04	1734.63
365.25	1781.73
365.46	1810.40
365.67	1568.74
365.88	1634.28
366.09	1671.14
366.30	1722.34
366.51	1708.01
366.72	1619.94
366.93	1755.11
367.14	1755.11
367.35	1667.05
367.56	1683.43
367.77	1673.19
367.98	1677.29
368.18	1691.62
368.39	1720.29
368.60	1576.94
368.81	1673.19
369.02	1751.01
369.23	1615.85
369.44	1581.03
369.65	1738.73
369.86	1646.57
370.07	1783.78
370.28	1730.53
370.49	1671.14
370.70	1722.34
370.91	1593.32
371.12	1671.14
371.33	1767.40
371.54	1740.77
371.75	1769.44
371.96	1556.46
372.17	1673.19
372.38	1748.97
372.59	1665.00
372.80	1673.19
373.01	1730.53
373.22	1714.15
373.43	1675.24
373.64	1644.52
373.85	1757.16
374.06	1822.69
374.26	1689.57
374.47	1689.57
374.68	1761.25
374.89	1755.11
375.10	1695.72
375.31	1722.34
375.52	1681.38
375.73	1732.58
375.94	1628.14
376.15	1787.88
376.36	1660.90
376.57	1697.77
376.78	1726.44
376.99	1703.91
377.20	1753.06
377.40	1619.94
377.61	1779.68
377.82	1636.33
378.03	1783.78
378.24	1677.29
378.45	1671.14
378.66	1736.68
378.87	1675.24
379.08	1695.72
379.29	1634.28
379.50	1734.63
379.71	1681.38
379.91	1726.44
380.12	1662.95
380.33	1650.66
380.54	1648.61
380.75	1712.10
380.96	1632.23
381.17	1714.15
381.38	1701.86
381.59	1714.15
381.80	1712.10
382.00	1777.64
382.21	1734.63
382.42	1859.56
382.63	1781.73
382.84	1703.91
383.05	1728.49
383.26	1757.16
383.47	1691.62
383.68	1728.49
383.88	1730.53
384.09	1796.07
384.30	1867.75
384.51	1724.39
384.72	1648.61
384.93	1591.27
385.14	1722.34
385.35	1773.54
385.55	1640.42
385.76	1732.58
385.97	1687.53
386.18	1648.61
386.39	1669.09
386.60	1644.52
386.81	1693.67
387.02	1626.09
387.22	1722.34
387.43	1759.21
387.64	1683.43
387.85	1892.32
388.06	2297.82
388.27	4489.15
388.48	6895.51
388.68	8400.77
388.89	9826.15
389.10	10080.10
389.31	8841.08
389.52	7831.43
389.73	6729.63
389.93	6436.77
390.14	5949.35
390.35	5294.00
390.56	4720.57
390.77	3796.93
390.98	3082.19
391.18	2451.42
391.39	2144.22
391.60	1884.13
391.81	1832.93
392.02	1662.95
392.23	1726.44
392.43	1732.58
392.64	1816.55
392.85	1671.14
393.06	1791.97
393.27	1669.09
393.47	1636.33
393.68	1691.62
393.89	1701.86
394.10	1714.15
394.31	1642.47
394.52	1652.71
394.72	1738.73
394.93	1839.08
395.14	1624.04
395.35	1705.96
395.56	1646.57
395.76	1730.53
395.97	1769.44
396.18	1839.08
396.39	1849.32
396.60	2035.68
396.80	1847.27
397.01	1869.80
397.22	1861.60
397.43	1861.60
397.64	1773.54
397.84	1837.03
398.05	1886.18
398.26	1802.21
398.47	1718.25
398.67	1757.16
398.88	1720.29
399.09	1693.67
399.30	1730.53
399.51	1699.81
399.71	1691.62
399.92	1675.24
400.13	1724.39
400.34	1730.53
400.54	1703.91
400.75	1667.05
400.96	1742.82
401.17	1781.73
401.37	1734.63
401.58	1710.05
401.79	1705.96
402.00	1865.70
402.21	2027.49
402.41	1998.82
402.62	1951.71
402.83	2050.02
403.04	1974.24
403.24	1974.24
403.45	1812.45
403.66	1947.62
403.87	1902.56
404.07	1865.70
404.28	1957.86
404.49	1845.22
404.70	1671.14
404.90	1841.12
405.11	1734.63
405.32	1740.77
405.52	1638.38
405.73	1638.38
405.94	1656.81
406.15	1671.14
406.35	1675.24
406.56	1748.97
406.77	1804.26
406.98	1708.01
407.18	1601.51
407.39	1714.15
407.60	1644.52
407.80	1636.33
408.01	1611.75
408.22	1716.20
408.43	1615.85
408.63	1716.20
408.84	1740.77
409.05	1779.68
409.25	1630.18
409.46	1710.05
409.67	1699.81
409.88	1656.81
410.08	1667.05
410.29	1685.48
410.50	1673.19
410.70	1724.39
410.91	1648.61
411.12	1722.34
411.32	1697.77
411.53	1665.00
411.74	1746.92
411.95	1851.36
412.15	1695.72
412.36	1761.25
412.57	1740.77
412.77	1759.21
412.98	1841.12
413.19	1634.28
413.39	1689.57
413.60	1681.38
413.81	1796.07
414.01	1650.66
414.22	1755.11
414.43	1728.49
414.63	1730.53
414.84	1806.31
415.05	1755.11
415.25	1695.72
415.46	1722.34
415.67	1646.57
415.87	1662.95
416.08	1710.05
416.29	1658.85
416.49	1740.77
416.70	1638.38
416.91	1642.47
417.11	1679.33
417.32	1714.15
417.53	1736.68
417.73	1703.91
417.94	1701.86
418.15	1691.62
418.35	1742.82
418.56	1660.90
418.77	1798.12
418.97	1687.53
419.18	1615.85
419.38	1611.75
419.59	1642.47
419.80	1771.49
420.00	1626.09
420.21	1724.39
420.42	1814.50
420.62	1693.67
420.83	1738.73
421.04	1665.00
421.24	1615.85
421.45	1740.77
421.65	1669.09
421.86	1734.63
422.07	1705.96
422.27	1617.90
422.48	1759.21
422.69	1705.96
422.89	1669.09
423.10	1665.00
423.30	1646.57
423.51	1728.49
423.72	1695.72
423.92	1716.20
424.13	1607.66
424.33	1673.19
424.54	1691.62
424.75	1685.48
424.95	1791.97
425.16	1765.35
425.36	1574.89
425.57	1724.39
425.78	1695.72
425.98	1744.87
426.19	1732.58
426.39	1697.77
426.60	1773.54
426.81	1789.92
427.01	1677.29
427.22	1648.61
427.42	1640.42
427.63	1665.00
427.83	1671.14
428.04	1746.92
428.25	1763.30
428.45	1789.92
428.66	1783.78
428.86	1699.81
429.07	1701.86
429.28	1787.88
429.48	1673.19
429.69	1685.48
429.89	1732.58
430.10	1570.79
430.30	1718.25
430.51	1667.05
430.71	1685.48
430.92	1734.63
431.13	1671.14
431.33	1726.44
431.54	1794.02
431.74	1800.16
431.95	1800.16
432.15	1621.99
432.36	1769.44
432.56	1748.97
432.77	1873.89
432.98	1789.92
433.18	1687.53
433.39	1685.48
433.59	1777.64
433.80	1818.60
434.00	1841.12
434.21	1624.04
434.41	1652.71
434.62	1837.03
434.82	1621.99
435.03	1624.04
435.23	1566.70
435.44	1488.87
435.64	1728.49
435.85	1677.29
436.06	1730.53
436.26	1834.98
436.47	1673.19
436.67	1662.95
436.88	1662.95
437.08	1755.11
437.29	1781.73
437.49	1757.16
437.70	1763.30
437.90	1720.29
438.11	1880.04
438.31	1783.78
438.52	1839.08
438.72	1798.12
438.93	1834.98
439.13	1800.16
439.34	1859.56
439.54	1658.85
439.75	1804.26
439.95	1791.97
440.16	1763.30
440.36	1662.95
440.57	1800.16
440.77	1683.43
440.98	1720.29
441.18	1710.05
441.39	1765.35
441.59	1712.10
441.80	1839.08
442.00	1740.77
442.21	1771.49
442.41	1632.23
442.62	1708.01
442.82	1671.14
443.02	1787.88
443.23	1757.16
443.43	1673.19
443.64	1796.07
443.84	1628.14
444.05	1800.16
444.25	1767.40
444.46	1708.01
444.66	1716.20
444.87	1779.68
445.07	1599.46
445.28	1701.86
445.48	1708.01
445.69	1693.67
445.89	1806.31
446.09	1753.06
446.30	2021.35
446.50	2643.93
446.71	3819.46
446.91	4325.31
447.12	4724.66
447.32	4941.75
447.53	4378.56
447.73	3852.23
447.93	3653.58
448.14	3307.47
448.34	3180.50
448.55	2901.97
448.75	2815.96
448.96	2582.49
449.16	2459.61
449.36	2277.34
449.57	2095.07
449.77	1871.84
449.98	1794.02
450.18	1834.98
450.39	1841.12
450.59	1794.02
450.79	1753.06
451.00	1738.73
451.20	1773.54
451.41	1660.90
451.61	1722.34
451.81	1681.38
452.02	1755.11
452.22	1587.18
452.43	1703.91
452.63	1689.57
452.84	1734.63
453.04	1689.57
453.24	1712.10
453.45	1685.48
453.65	1685.48
453.86	1746.92
454.06	1798.12
454.26	1685.48
454.47	1669.09
454.67	1789.92
454.87	1763.30
455.08	1673.19
455.28	1888.23
455.49	1677.29
455.69	1652.71
455.89	1837.03
456.10	1720.29
456.30	1718.25
456.51	1824.74
456.71	1740.77
456.91	1730.53
457.12	1665.00
457.32	1724.39
457.52	1722.34
457.73	1740.77
457.93	1804.26
458.14	1644.52
458.34	1693.67
458.54	1720.29
458.75	1722.34
458.95	1804.26
459.15	1708.01
459.36	1742.82
459.56	1773.54
459.76	1851.36
459.97	1646.57
460.17	1716.20
460.37	1779.68
460.58	1724.39
460.78	1757.16
460.99	1726.44
461.19	1652.71
461.39	1693.67
461.60	1697.77
461.80	1714.15
462.00	1662.95
462.21	1804.26
462.41	1656.81
462.61	1662.95
462.82	1640.42
463.02	1697.77
463.22	1660.90
463.43	1734.63
463.63	1763.30
463.83	1767.40
464.04	1708.01
464.24	1724.39
464.44	1691.62
464.64	1761.25
464.85	1789.92
465.05	1769.44
465.25	1767.40
465.46	1660.90
465.66	1771.49
465.86	1718.25
466.07	1718.25
466.27	1763.30
466.47	1675.24
466.68	1615.85
466.88	1855.46
467.08	1748.97
467.29	1810.40
467.49	1746.92
467.69	1705.96
467.89	1748.97
468.10	1695.72
468.30	1708.01
468.50	1837.03
468.71	1736.68
468.91	1611.75
469.11	1859.56
469.31	1720.29
469.52	1720.29
469.72	1744.87
469.92	1867.75
470.13	1681.38
470.33	1757.16
470.53	1837.03
470.73	2039.78
470.94	2365.40
471.14	2328.54
471.34	2510.81
471.54	2355.16
471.75	2322.40
471.95	2152.42
472.15	2107.36
472.36	1998.82
472.56	2111.46
472.76	2025.44
472.96	2076.64
473.17	1902.56
473.37	1959.91
473.57	1716.20
473.77	1812.45
473.98	1710.05
474.18	1740.77
474.38	1882.08
474.58	1648.61
474.79	1681.38
474.99	1728.49
475.19	1751.01
475.39	1697.77
475.60	1660.90
475.80	1679.33
476.00	1736.68
476.20	1712.10
476.41	1755.11
476.61	1839.08
476.81	1779.68
477.01	1658.85
477.21	1900.52
477.42	1791.97
477.62	1656.81
477.82	1820.64
478.02	1687.53
478.23	1820.64
478.43	1669.09
478.63	1648.61
478.83	1624.04
479.03	1595.37
479.24	1779.68
479.44	1816.55
479.64	1607.66
479.84	1632.23
480.04	1718.25
480.25	1716.20
480.45	1679.33
480.65	1724.39
480.85	1773.54
481.06	1677.29
481.26	1726.44
481.46	1714.15
481.66	1705.96
481.86	1648.61
482.06	1767.40
482.27	1687.53
482.47	1691.62
482.67	1763.30
482.87	1644.52
483.07	1755.11
483.28	1671.14
483.48	1636.33
483.68	1683.43
483.88	1701.86
484.08	1593.32
484.29	1689.57
484.49	1640.42
484.69	1675.24
484.89	1775.59
485.09	1755.11
485.29	1720.29
485.50	1763.30
485.70	1613.80
485.90	1800.16
486.10	1759.21
486.30	1716.20
486.50	1822.69
486.71	1734.63
486.91	1789.92
487.11	1814.50
487.31	1634.28
487.51	1662.95
487.71	1714.15
487.91	1615.85
488.12	1548.26
488.32	1613.80
488.52	1751.01
488.72	1583.08
488.92	1759.21
489.12	1812.45
489.32	1773.54
489.53	1687.53
489.73	1615.85
489.93	1769.44
490.13	1636.33
490.33	1703.91
490.53	1615.85
490.73	1847.27
490.94	1601.51
491.14	1718.25
491.34	1904.61
491.54	2183.13
491.74	2582.49
491.94	2918.36
492.14	3004.37
492.34	3049.43
492.54	2824.15
492.75	2469.85
492.95	2416.60
493.15	2330.59
493.35	2273.25
493.55	2248.67
493.75	2146.27
493.95	2138.08
494.15	2058.21
494.35	2002.91
494.56	1861.60
494.76	1810.40
494.96	1814.50
495.16	1759.21
495.36	1738.73
495.56	1710.05
495.76	1746.92
495.96	1712.10
496.16	1693.67
496.36	1904.61
496.56	1671.14
496.77	1757.16
496.97	1710.05
497.17	1771.49
497.37	1677.29
497.57	1812.45
497.77	1722.34
497.97	1712.10
498.17	1781.73
498.37	1712.10
498.57	1791.97
498.77	1699.81
498.97	1775.59
499.17	1785.83
499.38	1777.64
499.58	1781.73
499.78	1773.54
499.98	1802.21
500.18	1689.57
500.38	1697.77
500.58	1949.67
500.78	2594.78
500.98	4683.70
501.18	5963.68
501.38	6793.11
501.58	7227.28
501.78	6784.92
501.98	5650.35
502.18	5076.91
502.38	4501.44
502.58	4128.70
502.78	3872.71
502.98	3643.34
503.18	3434.44
503.38	3172.30
503.59	2813.91
503.79	2719.70
503.99	2506.71
504.19	2332.64
504.39	2240.48
504.59	2273.25
504.79	2093.02
504.99	2045.92
505.19	1959.91
505.39	1927.14
505.59	1964.00
505.79	1843.17
505.99	1910.75
506.19	1689.57
506.39	1910.75
506.59	1738.73
506.79	1705.96
506.99	1755.11
507.19	1710.05
507.39	1708.01
507.59	1656.81
507.79	1708.01
507.99	1673.19
508.19	1699.81
508.39	1628.14
508.59	1726.44
508.79	1812.45
508.99	1820.64
509.19	1687.53
509.39	1761.25
509.59	1740.77
509.79	1621.99
509.99	1771.49
510.19	1767.40
510.39	1769.44
510.59	1783.78
510.79	1724.39
510.99	1691.62
511.19	1785.83
511.39	1834.98
511.59	1771.49
511.79	1865.70
511.99	1722.34
512.19	1753.06
512.38	1759.21
512.58	1675.24
512.78	1669.09
512.98	1804.26
513.18	1853.41
513.38	1609.70
513.58	1755.11
513.78	1710.05
513.98	1722.34
514.18	1652.71
514.38	1822.69
514.58	1755.11
514.78	1712.10
514.98	1748.97
515.18	1738.73
515.38	1626.09
515.58	1822.69
515.78	1662.95
515.98	1767.40
516.18	1669.09
516.38	1705.96
516.57	1689.57
516.77	1697.77
516.97	1677.29
517.17	1708.01
517.37	1669.09
517.57	1720.29
517.77	1718.25
517.97	1681.38
518.17	1755.11
518.37	1720.29
518.57	1683.43
518.77	1689.57
518.97	1755.11
519.16	1753.06
519.36	1759.21
519.56	1744.87
519.76	1685.48
519.96	1689.57
520.16	1804.26
520.36	1722.34
520.56	1785.83
520.76	1746.92
520.96	1742.82
521.16	1820.64
521.35	1816.55
521.55	1816.55
521.75	1771.49
521.95	1705.96
522.15	1679.33
522.35	1597.42
522.55	1587.18
522.75	1841.12
522.95	1744.87
523.14	1671.14
523.34	1718.25
523.54	1619.94
523.74	1761.25
523.94	1699.81
524.14	1599.46
524.34	1773.54
524.54	1818.60
524.73	1673.19
524.93	1763.30
525.13	1755.11
525.33	1628.14
525.53	1814.50
525.73	1765.35
525.93	1804.26
526.13	1710.05
526.32	1683.43
526.52	1796.07
526.72	1726.44
526.92	1607.66
527.12	1703.91
527.32	1665.00
527.52	1748.97
527.71	1851.36
527.91	1714.15
528.11	1724.39
528.31	1714.15
528.51	1578.98
528.71	1738.73
528.90	1724.39
529.10	1722.34
529.30	1791.97
529.50	1599.46
529.70	1708.01
529.90	1705.96
530.09	1738.73
530.29	1656.81
530.49	1744.87
530.69	1908.71
530.89	1757.16
531.09	1894.37
531.28	1658.85
531.48	1828.84
531.68	1771.49
531.88	1714.15
532.08	1777.64
532.28	1728.49
532.47	1771.49
532.67	1777.64
532.87	1742.82
533.07	1665.00
533.27	1710.05
533.46	1769.44
533.66	1773.54
533.86	1726.44
534.06	1738.73
534.26	1755.11
534.45	1677.29
534.65	1740.77
534.85	1740.77
535.05	1642.47
535.25	1773.54
535.44	1609.70
535.64	1779.68
535.84	1695.72
536.04	1701.86
536.24	1728.49
536.43	1665.00
536.63	1757.16
536.83	1787.88
537.03	1726.44
537.22	1628.14
537.42	1679.33
537.62	1701.86
537.82	1699.81
538.02	1771.49
538.21	1773.54
538.41	1931.23
538.61	1736.68
538.81	1728.49
539.00	1783.78
539.20	1691.62
539.40	1738.73
539.60	1728.49
539.79	1742.82
539.99	1695.72
540.19	1691.62
540.39	1693.67
540.58	1746.92
540.78	1744.87
540.98	1689.57
541.18	1767.40
541.37	1757.16
541.57	1738.73
541.77	1736.68
541.97	1628.14
542.16	1683.43
542.36	1638.38
542.56	1669.09
542.76	1837.03
542.95	1785.83
543.15	1810.40
543.35	1716.20
543.54	1699.81
543.74	1753.06
543.94	1808.36
544.14	1675.24
544.33	1701.86
544.53	1710.05
544.73	1685.48
544.93	1708.01
545.12	1710.05
545.32	1705.96
545.52	1708.01
545.71	1683.43
545.91	1734.63
546.11	1738.73
546.30	1732.58
546.50	1693.67
546.70	1720.29
546.90	1738.73
547.09	1619.94
547.29	1689.57
547.49	1802.21
547.68	1738.73
547.88	1746.92
548.08	1730.53
548.27	2142.18
548.47	1748.97
548.67	1722.34
548.87	1716.20
549.06	1820.64
549.26	1693.67
549.46	1720.29
549.65	1802.21
549.85	1736.68
550.05	1748.97
550.24	1681.38
550.44	1662.95
550.64	1724.39
550.83	1736.68
551.03	1781.73
551.23	1726.44
551.42	1734.63
551.62	1652.71
551.82	1748.97
552.01	1722.34
552.21	1800.16
552.41	1767.40
552.60	1804.26
552.80	1652.71
553.00	1714.15
553.19	1771.49
553.39	1779.68
553.59	1642.47
553.78	1800.16
553.98	1683.43
554.17	1675.24
554.37	1769.44
554.57	1812.45
554.76	1673.19
554.96	1683.43
555.16	1746.92
555.35	1701.86
555.55	1785.83
555.75	1703.91
555.94	1810.40
556.14	1714.15
556.33	1726.44
556.53	1791.97
556.73	1708.01
556.92	1761.25
557.12	1808.36
557.32	1806.31
557.51	1734.63
557.71	1834.98
557.90	1771.49
558.10	1841.12
558.30	1710.05
558.49	1726.44
558.69	1634.28
558.88	1804.26
559.08	1732.58
559.28	1630.18
559.47	1710.05
559.67	1714.15
559.86	1810.40
560.06	1775.59
560.26	1701.86
560.45	1771.49
560.65	1689.57
560.84	1847.27
561.04	1714.15
561.24	1701.86
561.43	1675.24
561.63	1865.70
561.82	1791.97
562.02	1710.05
562.22	1710.05
562.41	1685.48
562.61	1677.29
562.80	1599.46
563.00	1935.33
563.19	1757.16
563.39	1773.54
563.59	1693.67
563.78	1617.90
563.98	1599.46
564.17	1650.66
564.37	1673.19
564.56	1660.90
564.76	1667.05
564.96	1746.92
565.15	1703.91
565.35	1853.41
565.54	1703.91
565.74	1697.77
565.93	1755.11
566.13	1777.64
566.32	1794.02
566.52	1728.49
566.71	1748.97
566.91	1787.88
567.11	1595.37
567.30	1687.53
567.50	1812.45
567.69	1769.44
567.89	1796.07
568.08	1718.25
568.28	1791.97
568.47	1738.73
568.67	1669.09
568.86	1712.10
569.06	1734.63
569.25	1751.01
569.45	1648.61
569.64	1730.53
569.84	1681.38
570.04	1738.73
570.23	1728.49
570.43	1687.53
570.62	1689.57
570.82	1800.16
571.01	1689.57
571.21	1714.15
571.40	1705.96
571.60	1783.78
571.79	1738.73
571.99	1728.49
572.18	1699.81
572.38	1722.34
572.57	1724.39
572.77	1789.92
572.96	1812.45
573.16	1759.21
573.35	1728.49
573.55	1828.84
573.74	1738.73
573.94	1708.01
574.13	1732.58
574.33	1755.11
574.52	1755.11
574.71	1779.68
574.91	1720.29
575.10	1665.00
575.30	1738.73
575.49	1734.63
575.69	1595.37
575.88	1804.26
576.08	1646.57
576.27	1771.49
576.47	1669.09
576.66	1787.88
576.86	1808.36
577.05	1814.50
577.25	1802.21
577.44	1865.70
577.64	1796.07
577.83	1837.03
578.02	1658.85
578.22	1888.23
578.41	1869.80
578.61	1738.73
578.80	1712.10
579.00	1746.92
579.19	1783.78
579.39	1816.55
579.58	1800.16
579.77	1728.49
579.97	1808.36
580.16	1830.88
580.36	1849.32
580.55	1736.68
580.75	1822.69
580.94	1746.92
581.13	1808.36
581.33	1826.79
581.52	1851.36
581.72	1847.27
581.91	1816.55
582.11	1714.15
582.30	1757.16
582.49	1759.21
582.69	1777.64
582.88	1744.87
583.08	1720.29
583.27	1843.17
583.47	1757.16
583.66	1714.15
583.85	1650.66
584.05	1708.01
584.24	1890.28
584.44	1761.25
584.63	1732.58
584.82	1822.69
585.02	1853.41
585.21	1808.36
585.41	1873.89
585.60	1765.35
585.79	1849.32
585.99	1888.23
586.18	1765.35
586.37	2189.28
586.57	3418.06
586.76	10045.29
586.96	25233.02
587.15	35921.37
587.34	41901.44
587.54	43496.81
587.73	38069.69
587.93	27119.20
588.12	22488.74
588.31	18769.63
588.51	16930.56
588.70	15335.19
588.89	14812.96
589.09	12820.28
589.28	11413.33
589.47	9543.53
589.67	8185.73
589.86	6619.04
590.06	4986.80
590.25	3942.34
590.44	3209.17
590.64	2672.60
590.83	2273.25
591.02	2115.55
591.22	2031.58
591.41	1925.09
591.60	1806.31
591.80	1947.62
591.99	1736.68
592.18	1800.16
592.38	1834.98
592.57	1701.86
592.76	1779.68
592.96	1757.16
593.15	1720.29
593.34	1828.84
593.54	1781.73
593.73	1828.84
593.92	1804.26
594.12	1806.31
594.31	1802.21
594.50	1824.74
594.70	1746.92
594.89	1859.56
595.08	1654.76
595.28	1810.40
595.47	1824.74
595.66	1773.54
595.86	1699.81
596.05	1794.02
596.24	1773.54
596.43	1808.36
596.63	1837.03
596.82	1736.68
597.01	1710.05
597.21	1820.64
597.40	1685.48
597.59	1798.12
597.79	1767.40
597.98	1730.53
598.17	1703.91
598.36	1755.11
598.56	1744.87
598.75	1697.77
598.94	1695.72
599.14	1740.77
599.33	1714.15
599.52	1791.97
599.71	1802.21
599.91	1837.03
600.10	1769.44
600.29	1697.77
600.48	1753.06
600.68	1759.21
600.87	1740.77
601.06	1685.48
601.26	1708.01
601.45	1753.06
601.64	1738.73
601.83	1796.07
602.03	1753.06
602.22	1695.72
602.41	1869.80
602.60	1787.88
602.80	1834.98
602.99	1689.57
603.18	1648.61
603.37	1665.00
603.57	1716.20
603.76	1812.45
603.95	1736.68
604.14	1636.33
604.34	1644.52
604.53	1716.20
604.72	1779.68
604.91	1736.68
605.10	1636.33
605.30	1656.81
605.49	1847.27
605.68	1734.63
605.87	1765.35
606.07	1751.01
606.26	1753.06
606.45	1769.44
606.64	1761.25
606.84	1724.39
607.03	1773.54
607.22	1812.45
607.41	1603.56
607.60	1687.53
607.80	1796.07
607.99	1730.53
608.18	1781.73
608.37	1783.78
608.56	1630.18
608.76	1783.78
608.95	1890.28
609.14	1701.86
609.33	1718.25
609.52	1783.78
609.72	1744.87
609.91	1718.25
610.10	1751.01
610.29	1773.54
610.48	1732.58
610.68	1771.49
610.87	1751.01
611.06	1738.73
611.25	1710.05
611.44	1746.92
611.63	1761.25
611.83	1755.11
612.02	1677.29
612.21	1771.49
612.40	1601.51
612.59	1669.09
612.79	1751.01
612.98	1773.54
613.17	1824.74
613.36	1708.01
613.55	1857.51
613.74	1673.19
613.93	1679.33
614.13	1652.71
614.32	1724.39
614.51	1751.01
614.70	1681.38
614.89	1736.68
615.08	1794.02
615.28	2129.89
615.47	1611.75
615.66	1705.96
615.85	1693.67
616.04	1791.97
616.23	1775.59
616.42	1679.33
616.62	1693.67
616.81	1705.96
617.00	1765.35
617.19	1767.40
617.38	1708.01
617.57	1681.38
617.76	1755.11
617.95	1742.82
618.15	1738.73
618.34	1839.08
618.53	1632.23
618.72	1779.68
618.91	1763.30
619.10	1783.78
619.29	1636.33
619.48	1652.71
619.68	1714.15
619.87	1742.82
620.06	1658.85
620.25	1759.21
620.44	1734.63
620.63	1648.61
620.82	1708.01
621.01	1681.38
621.20	1687.53
621.39	1738.73
621.59	1691.62
621.78	1714.15
621.97	1656.81
622.16	1763.30
622.35	1714.15
622.54	1777.64
622.73	1804.26
622.92	1671.14
623.11	1763.30
623.30	1759.21
623.49	1695.72
623.68	1656.81
623.88	1730.53
624.07	1783.78
624.26	1710.05
624.45	1685.48
624.64	1691.62
624.83	1789.92
625.02	1638.38
625.21	1681.38
625.40	1796.07
625.59	1730.53
625.78	1714.15
625.97	1767.40
626.16	1779.68
626.35	1671.14
626.54	1685.48
626.74	1785.83
626.93	1748.97
627.12	1710.05
627.31	1804.26
627.50	1810.40
627.69	1726.44
627.88	1632.23
628.07	1701.86
628.26	1615.85
628.45	1675.24
628.64	1705.96
628.83	1673.19
629.02	1626.09
629.21	1693.67
629.40	1810.40
629.59	1742.82
629.78	1667.05
629.97	1697.77
630.16	1730.53
630.35	1679.33
630.54	1755.11
630.73	1656.81
630.92	1689.57
631.11	1671.14
631.30	1607.66
631.49	1775.59
631.68	1695.72
631.87	1734.63
632.06	1589.22
632.25	1855.46
632.44	1718.25
632.63	1751.01
632.82	1701.86
633.01	1630.18
633.20	1638.38
633.39	1681.38
633.58	1591.27
633.77	1656.81
633.96	1701.86
634.15	1724.39
634.34	1771.49
634.53	1753.06
634.72	1748.97
634.91	1603.56
635.10	1669.09
635.29	1767.40
635.48	1710.05
635.67	1665.00
635.86	1630.18
636.05	1746.92
636.24	1665.00
636.43	1679.33
636.62	1681.38
636.81	1566.70
637.00	1732.58
637.19	1746.92
637.38	1697.77
637.57	1710.05
637.76	1718.25
637.95	1720.29
638.14	1746.92
638.33	1716.20
638.52	1718.25
638.71	1757.16
638.89	1605.61
639.08	1865.70
639.27	1740.77
639.46	1646.57
639.65	1800.16
639.84	1767.40
640.03	1812.45
640.22	1697.77
640.41	1789.92
640.60	1677.29
640.79	1662.95
640.98	1736.68
641.17	1722.34
641.36	1722.34
641.55	1777.64
641.74	1681.38
641.92	1724.39
642.11	1675.24
642.30	1656.81
642.49	1660.90
642.68	1570.79
642.87	1740.77
643.06	1751.01
643.25	1671.14
643.44	1665.00
643.63	1697.77
643.82	1783.78
644.00	1650.66
644.19	1634.28
644.38	1685.48
644.57	1738.73
644.76	1728.49
644.95	1652.71
645.14	1824.74
645.33	1693.67
645.52	1759.21
645.71	1611.75
645.89	1611.75
646.08	1665.00
646.27	1695.72
646.46	1855.46
646.65	1591.27
646.84	1703.91
647.03	1611.75
647.22	1738.73
647.40	1740.77
647.59	1660.90
647.78	1595.37
647.97	1757.16
648.16	1662.95
648.35	1710.05
648.54	1783.78
648.73	1726.44
648.91	1679.33
649.10	1675.24
649.29	1658.85
649.48	1628.14
649.67	1736.68
649.86	1650.66
650.05	1732.58
650.23	1796.07
650.42	1628.14
650.61	1755.11
650.80	1712.10
650.99	1857.51
651.18	1765.35
651.36	1781.73
651.55	1730.53
651.74	1796.07
651.93	1619.94
652.12	1736.68
652.31	1757.16
652.49	1628.14
652.68	1695.72
652.87	1759.21
653.06	1644.52
653.25	1814.50
653.44	1691.62
653.62	1789.92
653.81	1576.94
654.00	1667.05
654.19	1763.30
654.38	1826.79
654.56	1767.40
654.75	1748.97
654.94	1746.92
655.13	1689.57
655.32	1736.68
655.51	1775.59
655.69	1619.94
655.88	1783.78
656.07	1705.96
656.26	1724.39
656.45	1652.71
656.63	1736.68
656.82	1732.58
657.01	1712.10
657.20	1617.90
657.38	1804.26
657.57	1677.29
657.76	1652.71
657.95	1671.14
658.14	1654.76
658.32	1681.38
658.51	1599.46
658.70	1748.97
658.89	1748.97
659.08	1724.39
659.26	1775.59
659.45	1691.62
659.64	1755.11
659.83	1656.81
660.01	1841.12
660.20	1671.14
660.39	1869.80
660.58	1650.66
660.76	1769.44
660.95	1710.05
661.14	1687.53
661.33	1617.90
661.51	1636.33
661.70	1726.44
661.89	1728.49
662.08	1681.38
662.26	1595.37
662.45	1621.99
662.64	1837.03
662.83	1781.73
663.01	1718.25
663.20	1742.82
663.39	1832.93
663.58	1648.61
663.76	1738.73
663.95	1763.30
664.14	1693.67
664.32	1730.53
664.51	1648.61
664.70	1640.42
664.89	1705.96
665.07	1691.62
665.26	1779.68
665.45	1667.05
665.64	1751.01
665.82	1718.25
666.01	1726.44
666.20	1703.91
666.38	1912.80
666.57	1849.32
666.76	2174.94
666.95	4528.06
667.13	10688.35
667.32	15556.37
667.51	18439.91
667.69	19846.87
667.88	18108.14
668.07	12621.63
668.25	9869.16
668.44	8284.03
668.63	7675.79
668.81	7071.64
669.00	6414.24
669.19	5871.53
669.38	5152.69
669.56	4626.36
669.75	4065.22
669.94	3399.63
670.12	2940.88
670.31	2549.72
670.50	2172.89
670.68	2056.16
670.87	1994.72
671.06	1722.34
671.24	1812.45
671.43	1800.16
671.62	1714.15
671.80	1751.01
671.99	1681.38
672.18	1720.29
672.36	1794.02
672.55	1763.30
672.74	1767.40
672.92	1683.43
673.11	1675.24
673.29	1751.01
673.48	1826.79
673.67	1667.05
673.85	1794.02
674.04	1660.90
674.23	1640.42
674.41	1777.64
674.60	1648.61
674.79	1626.09
674.97	1736.68
675.16	1701.86
675.34	1722.34
675.53	1669.09
675.72	1675.24
675.90	1830.88
676.09	1705.96
676.28	1742.82
676.46	1695.72
676.65	1804.26
676.83	1646.57
677.02	1789.92
677.21	1722.34
677.39	1710.05
677.58	1626.09
677.77	1755.11
677.95	1669.09
678.14	1730.53
678.32	1691.62
678.51	1644.52
678.70	1816.55
678.88	1675.24
679.07	1646.57
679.25	1748.97
679.44	1724.39
679.63	1630.18
679.81	1630.18
680.00	1787.88
680.18	1728.49
680.37	1763.30
680.55	1691.62
680.74	1667.05
680.93	1619.94
681.11	1660.90
681.30	1640.42
681.48	1712.10
681.67	1683.43
681.85	1697.77
682.04	1718.25
682.23	1712.10
682.41	1677.29
682.60	1679.33
682.78	1740.77
682.97	1718.25
683.15	1673.19
683.34	1730.53
683.53	1808.36
683.71	1576.94
683.90	1738.73
684.08	1812.45
684.27	1660.90
684.45	1732.58
684.64	1771.49
684.82	1691.62
685.01	1724.39
685.19	1691.62
685.38	1789.92
685.57	1685.48
685.75	1650.66
685.94	1718.25
686.12	1691.62
686.31	1677.29
686.49	1765.35
686.68	1568.74
686.86	1679.33
687.05	1683.43
687.23	1794.02
687.42	1617.90
687.60	1636.33
687.79	1734.63
687.97	1865.70
688.16	1806.31
688.34	1781.73
688.53	1656.81
688.71	1759.21
688.90	1779.68
689.08	1636.33
689.27	1626.09
689.45	1746.92
689.64	1755.11
689.82	1679.33
690.01	1675.24
690.19	1724.39
690.38	1615.85
690.56	1800.16
690.75	1626.09
690.93	1697.77
691.12	1691.62
691.30	1662.95
691.49	1681.38
691.67	1716.20
691.86	1804.26
692.04	1677.29
692.23	1609.70
692.41	1665.00
692.60	1787.88
692.78	1724.39
692.97	1718.25
693.15	1742.82
693.34	1800.16
693.52	1765.35
693.71	1665.00
693.89	1673.19
694.08	1646.57
694.26	1755.11
694.44	1697.77
694.63	1716.20
694.81	1611.75
695.00	1640.42
695.18	1769.44
695.37	1892.32
695.55	1701.86
695.74	1621.99
695.92	1601.51
696.10	1699.81
696.29	1593.32
696.47	1646.57
696.66	1652.71
696.84	1675.24
697.03	1671.14
697.21	1791.97
697.40	2275.29
697.58	1734.63
697.76	1636.33
697.95	1687.53
698.13	1708.01
698.32	1708.01
698.50	1710.05
698.68	1789.92
698.87	1681.38
699.05	1781.73
699.24	1746.92
699.42	1673.19
699.61	1751.01
699.79	1730.53
699.97	1634.28
700.16	1591.27
700.34	1710.05
700.53	1671.14
700.71	1828.84
700.89	1701.86
701.08	1755.11
701.26	1691.62
701.45	2066.40
701.63	1601.51
701.81	1658.85
702.00	1673.19
702.18	1714.15
702.37	1611.75
702.55	1667.05
702.73	1712.10
702.92	1597.42
703.10	1759.21
703.28	1675.24
703.47	1710.05
703.65	1730.53
703.84	1640.42
704.02	1681.38
704.20	1738.73
704.39	1621.99
704.57	1667.05
704.75	1789.92
704.94	1685.48
705.12	1722.34
705.30	1705.96
705.49	2226.14
705.67	4437.95
705.86	9555.82
706.04	13158.20
706.22	14927.64
706.41	15927.05
706.59	14380.84
706.77	9822.06
706.96	7524.24
707.14	6827.93
707.32	6043.56
707.51	5715.88
707.69	4966.32
707.87	4321.21
708.06	3551.18
708.24	3024.85
708.42	2516.95
708.61	2248.67
708.79	1896.42
708.97	1804.26
709.16	1845.22
709.34	1806.31
709.52	1714.15
709.71	1699.81
709.89	1794.02
710.07	1714.15
710.26	1679.33
710.44	1710.05
710.62	1775.59
710.80	1748.97
710.99	1746.92
711.17	1783.78
711.35	1763.30
711.54	1615.85
711.72	1783.78
711.90	1785.83
712.09	1710.05
712.27	1644.52
712.45	1832.93
712.63	1683.43
712.82	1726.44
713.00	1724.39
713.18	1724.39
713.37	1757.16
713.55	1761.25
713.73	1755.11
713.91	1701.86
714.10	1691.62
714.28	1621.99
714.46	1687.53
714.65	1724.39
714.83	1654.76
715.01	1665.00
715.19	1701.86
715.38	1669.09
715.56	1728.49
715.74	1665.00
715.92	1640.42
716.11	1714.15
716.29	1617.90
716.47	1654.76
716.65	1683.43
716.84	1658.85
717.02	1734.63
717.20	1619.94
717.38	1617.90
717.57	1683.43
717.75	1699.81
717.93	1689.57
718.11	1705.96
718.30	1638.38
718.48	1726.44
718.66	1810.40
718.84	1716.20
719.03	1681.38
719.21	1671.14
719.39	1779.68
719.57	1716.20
719.75	1812.45
719.94	1701.86
720.12	1691.62
720.30	1613.80
720.48	1796.07
720.67	1613.80
720.85	1652.71
721.03	1675.24
721.21	1652.71
721.39	1740.77
721.58	1677.29
721.76	1710.05
721.94	1689.57
722.12	1685.48
722.30	1822.69
722.49	1736.68
722.67	1642.47
722.85	1673.19
723.03	1578.98
723.21	1648.61
723.40	1697.77
723.58	1753.06
723.76	1783.78
723.94	1806.31
724.12	1679.33
724.30	1759.21
724.49	1720.29
724.67	1609.70
724.85	1738.73
725.03	1621.99
725.21	1685.48
725.40	1765.35
725.58	1652.71
725.76	1789.92
725.94	1673.19
726.12	1628.14
726.30	1708.01
726.49	1646.57
726.67	1716.20
726.85	1810.40
727.03	1806.31
727.21	2068.45
727.39	2897.88
727.57	3928.00
727.76	4315.07
727.94	4495.29
728.12	4366.27
728.30	3723.21
728.48	3055.57
728.66	2764.76
728.84	2551.77
729.03	2248.67
729.21	2166.75
729.39	2095.07
729.57	1873.89
729.75	1779.68
729.93	1841.12
730.11	1708.01
730.30	1650.66
730.48	1763.30
730.66	1767.40
730.84	1773.54
731.02	1685.48
731.20	1722.34
731.38	1724.39
731.56	1646.57
731.74	1677.29
731.93	1675.24
732.11	1701.86
732.29	1632.23
732.47	1662.95
732.65	1665.00
732.83	1824.74
733.01	1701.86
733.19	1701.86
733.37	1726.44
733.56	1607.66
733.74	1673.19
733.92	1755.11
734.10	1636.33
734.28	1732.58
734.46	1587.18
734.64	1683.43
734.82	1636.33
735.00	1685.48
735.18	1726.44
735.36	1773.54
735.54	1755.11
735.73	1695.72
735.91	1746.92
736.09	1812.45
736.27	1667.05
736.45	1738.73
736.63	1566.70
736.81	1656.81
736.99	1746.92
737.17	1853.41
737.35	1693.67
737.53	1705.96
737.71	1681.38
737.89	1722.34
738.07	1617.90
738.25	1681.38
738.43	1603.56
738.61	1685.48
738.80	1619.94
738.98	1642.47
739.16	1638.38
739.34	1630.18
739.52	1738.73
739.70	1703.91
739.88	1763.30
740.06	1695.72
740.24	1595.37
740.42	1720.29
740.60	1619.94
740.78	1679.33
740.96	1619.94
741.14	1738.73
741.32	1654.76
741.50	1599.46
741.68	1845.22
741.86	1759.21
742.04	1634.28
742.22	1634.28
742.40	1736.68
742.58	1728.49
742.76	1691.62
742.94	1740.77
743.12	1566.70
743.30	1767.40
743.48	1685.48
743.66	1660.90
743.84	1685.48
744.02	1617.90
744.20	1714.15
744.38	1642.47
744.56	1662.95
744.74	1837.03
744.92	1726.44
745.10	1755.11
745.28	1722.34
745.46	1755.11
745.64	1724.39
745.82	1652.71
746.00	1701.86
746.18	1732.58
746.36	1628.14
746.54	1802.21
746.72	1726.44
746.90	1605.61
747.08	1689.57
747.26	1726.44
747.44	1730.53
747.62	1687.53
747.80	1703.91
747.98	1720.29
748.15	1714.15
748.33	1845.22
748.51	1644.52
748.69	1679.33
748.87	1583.08
749.05	1708.01
749.23	1665.00
749.41	1652.71
749.59	1654.76
749.77	1726.44
749.95	1654.76
750.13	1695.72
750.31	1691.62
750.49	1703.91
750.67	1671.14
750.85	1779.68
751.03	1718.25
751.20	1816.55
751.38	1728.49
751.56	1644.52
751.74	1687.53
751.92	1679.33
752.10	1505.26
752.28	1728.49
752.46	1679.33
752.64	1628.14
752.82	1665.00
753.00	1718.25
753.18	1593.32
753.35	1652.71
753.53	1703.91
753.71	1671.14
753.89	1710.05
754.07	1802.21
754.25	1730.53
754.43	1714.15
754.61	1648.61
754.79	1712.10
754.97	1718.25
755.14	1751.01
755.32	1636.33
755.50	1714.15
755.68	1722.34
755.86	1652.71
756.04	1648.61
756.22	1566.70
756.40	1722.34
756.57	1822.69
756.75	1736.68
756.93	1697.77
757.11	1701.86
757.29	1599.46
757.47	1613.80
757.65	1626.09
757.82	1626.09
758.00	1583.08
758.18	1662.95
758.36	1568.74
758.54	1691.62
758.72	1585.13
758.90	1787.88
759.07	1615.85
759.25	1718.25
759.43	1687.53
759.61	1595.37
759.79	2119.65
759.97	1724.39
760.15	1611.75
760.32	1742.82
760.50	1757.16
760.68	1763.30
760.86	1636.33
761.04	1755.11
761.22	1705.96
761.39	1667.05
761.57	1718.25
761.75	1679.33
761.93	1695.72
762.11	1654.76
762.28	1695.72
762.46	1697.77
762.64	1697.77
762.82	1640.42
763.00	1726.44
763.18	1726.44
763.35	1640.42
763.53	1779.68
763.71	1689.57
763.89	1722.34
764.07	1652.71
764.24	1763.30
764.42	1740.77
764.60	1701.86
764.78	1748.97
764.96	1722.34
765.13	1775.59
765.31	1716.20
765.49	1783.78
765.67	1615.85
765.84	1636.33
766.02	1634.28
766.20	1599.46
766.38	1667.05
766.56	1656.81
766.73	1765.35
766.91	1679.33
767.09	1718.25
767.27	1755.11
767.44	1619.94
767.62	1710.05
767.80	1746.92
767.98	1640.42
768.15	1708.01
768.33	1679.33
768.51	1773.54
768.69	1720.29
768.87	1722.34
769.04	1681.38
769.22	1810.40
769.40	1812.45
769.58	1808.36
769.75	1650.66
769.93	1767.40
770.11	1730.53
770.28	1656.81
770.46	1716.20
770.64	1685.48
770.82	1708.01
770.99	1677.29
771.17	1665.00
771.35	1626.09
771.53	1705.96
771.70	1726.44
771.88	1660.90
772.06	1667.05
772.23	1693.67
772.41	1714.15
772.59	1687.53
772.77	1583.08
772.94	1695.72
773.12	1779.68
773.30	1685.48
773.47	1689.57
773.65	1634.28
773.83	1826.79
774.01	1712.10
774.18	1509.35
774.36	1646.57
774.54	1640.42
774.71	1726.44
774.89	1558.50
775.07	1605.61
775.24	1671.14
775.42	1601.51
775.60	1841.12
775.78	1701.86
775.95	1648.61
776.13	1607.66
776.31	1533.93
776.48	1595.37
776.66	1712.10
776.84	1685.48
777.01	1644.52
777.19	1656.81
777.37	1609.70
777.54	1669.09
777.72	1800.16
777.90	1742.82
778.07	1697.77
778.25	1834.98
778.43	1767.40
778.60	1609.70
778.78	1705.96
778.96	1837.03
779.13	1648.61
779.31	1779.68
779.49	1644.52
779.66	1638.38
779.84	1665.00
780.01	1712.10
780.19	1634.28
780.37	1763.30
780.54	1785.83
780.72	1650.66
780.90	1732.58
781.07	1656.81
781.25	1665.00
781.43	1693.67
781.60	1677.29
781.78	1791.97
781.95	1714.15
782.13	1671.14
782.31	1775.59
782.48	1574.89
782.66	1734.63
782.83	1773.54
783.01	1691.62
783.19	1691.62
783.36	1691.62
783.54	1658.85
783.72	1761.25
783.89	1705.96
784.07	1689.57
784.24	1724.39
784.42	1830.88
784.60	1767.40
784.77	1697.77
784.95	1593.32
785.12	1605.61
785.30	1751.01
785.47	1624.04
785.65	1634.28
785.83	1691.62
786.00	1685.48
786.18	1681.38
786.35	1572.84
786.53	1644.52
786.71	1724.39
786.88	1763.30
787.06	1742.82
787.23	1716.20
787.41	1636.33
787.58	1685.48
787.76	1689.57
787.94	1681.38
788.11	1710.05
788.29	1591.27
788.46	1677.29
788.64	1648.61
788.81	1699.81
788.99	1652.71
789.16	1648.61
789.34	1609.70
789.52	1644.52
789.69	1699.81
789.87	1642.47
790.04	1755.11
790.22	1675.24
790.39	1726.44
790.57	1636.33
790.74	1626.09
790.92	1789.92
791.09	1658.85
791.27	1673.19
791.44	1732.58
791.62	1732.58
791.79	1712.10
791.97	1679.33
792.15	1964.00
792.32	1734.63
792.50	1728.49
792.67	1765.35
792.85	1777.64
793.02	1742.82
793.20	1662.95
793.37	1619.94
793.55	1705.96
793.72	1679.33
793.90	1695.72
794.07	1578.98
794.25	1710.05
794.42	1736.68
794.60	1611.75
794.77	1724.39
794.95	1740.77
795.12	1753.06
795.30	1722.34
795.47	1656.81
795.65	1914.85
795.82	1636.33
796.00	1642.47
796.17	1687.53
796.34	1691.62
796.52	1726.44
796.69	1683.43
796.87	1816.55
797.04	1705.96
797.22	1732.58
797.39	1722.34
797.57	1701.86
797.74	1730.53
797.92	1736.68
798.09	1712.10
798.27	1742.82
798.44	1699.81
798.62	1662.95
798.79	1777.64
798.96	1703.91
799.14	1634.28
799.31	1824.74
799.49	1669.09
799.66	1632.23
799.84	1662.95
800.01	1550.31
800.19	1740.77
800.36	1540.07
800.53	1689.57
800.71	1648.61
800.88	1771.49
801.06	1648.61
801.23	1728.49
801.41	1691.62
801.58	1693.67
801.75	1648.61
801.93	1705.96
802.10	1736.68
802.28	1599.46
802.45	1693.67
802.63	1716.20
802.80	1806.31
802.97	1632.23
803.15	1757.16
803.32	1652.71
803.50	1634.28
803.67	1673.19
803.84	1562.60
804.02	1720.29
804.19	1726.44
804.37	1556.46
804.54	1578.98
804.71	1726.44
804.89	1636.33
805.06	1607.66
805.24	1658.85
805.41	1634.28
805.58	1613.80
805.76	1826.79
805.93	1619.94
806.10	1726.44
806.28	1634.28
806.45	1722.34
806.63	1724.39
806.80	1712.10
806.97	1714.15
807.15	1693.67
807.32	1632.23
807.49	1755.11
807.67	1665.00
807.84	1734.63
808.01	1626.09
808.19	1847.27
808.36	1812.45
808.54	1671.14
808.71	1652.71
808.88	1675.24
809.06	1689.57
809.23	1804.26
809.40	1628.14
809.58	1730.53
809.75	1689.57
809.92	1650.66
810.10	1804.26
810.27	1656.81
810.44	1695.72
810.62	1722.34
810.79	1716.20
810.96	1642.47
811.14	1695.72
811.31	1765.35
811.48	1765.35
811.66	1669.09
811.83	1673.19
812.00	1720.29
812.18	1769.44
812.35	1781.73
812.52	1650.66
812.69	1642.47
812.87	1613.80
813.04	1679.33
813.21	1667.05
813.39	1650.66
813.56	1683.43
813.73	1730.53
813.91	1638.38
814.08	1673.19
814.25	1658.85
814.42	1615.85
814.60	1660.90
814.77	1683.43
814.94	1716.20
815.12	1726.44
815.29	1810.40
815.46	1697.77
815.63	1701.86
815.81	1771.49
815.98	1685.48
816.15	1652.71
816.33	1671.14
816.50	1667.05
816.67	1681.38
816.84	1665.00
817.02	1648.61
817.19	1689.57
817.36	1765.35
817.53	1724.39
817.71	1607.66
817.88	1718.25
818.05	1718.25
818.22	1658.85
818.40	1779.68
818.57	1710.05
818.74	1751.01
818.91	1648.61
819.09	1703.91
819.26	1755.11
819.43	1595.37
819.60	1634.28
819.78	1724.39
819.95	1775.59
820.12	1648.61
820.29	1820.64
820.47	1708.01
820.64	1632.23
820.81	1613.80
820.98	1613.80
821.15	1636.33
821.33	1720.29
821.50	1621.99
821.67	1710.05
821.84	1691.62
822.02	1759.21
822.19	1687.53
822.36	1714.15
822.53	1646.57
822.70	1660.90
822.88	1730.53
823.05	1751.01
823.22	1675.24
823.39	1697.77
823.56	1705.96
823.74	1841.12
823.91	1619.94
824.08	1601.51
824.25	1654.76
824.42	1738.73
824.60	1601.51
824.77	1708.01
824.94	1607.66
825.11	1775.59
825.28	1632.23
825.45	1644.52
825.63	1697.77
825.80	1626.09
825.97	1695.72
826.14	1681.38
826.31	1626.09
826.48	1726.44
826.66	1667.05
826.83	1615.85
827.00	1720.29
827.17	1662.95
827.34	1703.91
827.51	1626.09
827.69	1665.00
827.86	1597.42
828.03	1665.00
828.20	1636.33
828.37	1646.57
828.54	1703.91
828.71	1718.25
828.89	1734.63
829.06	1701.86
829.23	1732.58
829.40	1665.00
829.57	1628.14
829.74	1763.30
829.91	1642.47
830.09	1730.53
830.26	1662.95
830.43	1746.92
830.60	1755.11
830.77	1783.78
830.94	1748.97
831.11	1697.77
831.28	1699.81
831.46	1720.29
831.63	1673.19
831.80	1753.06
831.97	1624.04
832.14	1697.77
832.31	1679.33
832.48	1703.91
832.65	1763.30
832.82	1763.30
832.99	1699.81
833.17	1660.90
833.34	1697.77
833.51	1787.88
833.68	1558.50
833.85	1779.68
834.02	1566.70
834.19	1599.46
834.36	1615.85
834.53	1751.01
834.70	1736.68
834.87	1748.97
835.04	1687.53
835.22	1572.84
835.39	1638.38
835.56	1632.23
835.73	1642.47
835.90	1771.49
836.07	1624.04
836.24	1734.63
836.41	1601.51
836.58	1640.42
836.75	1763.30
836.92	1697.77
837.09	1730.53
837.26	1746.92
837.43	1732.58
837.60	1804.26
837.77	1695.72
837.94	1761.25
838.12	1738.73
838.29	1691.62
838.46	1638.38
838.63	1624.04
838.80	1779.68
838.97	1681.38
839.14	1738.73
839.31	1724.39
839.48	1695.72
839.65	1667.05
839.82	1665.00
839.99	1640.42
840.16	1759.21
840.33	1632.23
840.50	1685.48
840.67	1636.33
840.84	1621.99
841.01	1671.14
841.18	1665.00
841.35	1685.48
841.52	1667.05
841.69	1748.97
841.86	1724.39
842.03	1701.86
842.20	1773.54
842.37	1640.42
842.54	1701.86
842.71	1736.68
842.88	1656.81
843.05	1740.77
843.22	1654.76
843.39	1734.63
843.56	1718.25
843.73	1701.86
843.90	1748.97
844.07	1748.97
844.24	1726.44
844.41	1701.86
844.58	1673.19
844.75	1599.46
844.92	1738.73
845.09	1708.01
845.26	1665.00
845.43	1636.33
845.60	1632.23
845.77	1724.39
845.94	1736.68
846.10	1683.43
846.27	1636.33
846.44	1562.60
846.61	1648.61
846.78	1675.24
846.95	1716.20
847.12	1708.01
847.29	1650.66
847.46	1675.24
847.63	1746.92
847.80	1662.95
847.97	1640.42
848.14	1796.07
848.31	1601.51
848.48	1581.03
848.65	1689.57
848.82	1640.42
848.98	1802.21
849.15	1701.86
849.32	1794.02
849.49	1687.53
849.66	1675.24
849.83	1636.33
850.00	1621.99
850.17	1744.87
850.34	1675.24
850.51	1648.61
850.68	1652.71
850.85	1781.73
851.01	1691.62
851.18	1722.34
851.35	1591.27
851.52	1665.00
851.69	1824.74
851.86	1525.74
852.03	1667.05
852.20	1853.41
852.37	1701.86
852.53	1615.85
852.70	1636.33
852.87	1777.64
853.04	1716.20
853.21	1687.53
853.38	1755.11
853.55	1802.21
853.72	1716.20
853.89	1626.09
854.05	1593.32
854.22	1673.19
854.39	1581.03
854.56	1685.48
854.73	1773.54
854.90	1640.42
855.07	1693.67
855.23	1677.29
855.40	1722.34
855.57	1683.43
855.74	1621.99
855.91	1873.89
856.08	1628.14
856.25	1605.61
856.41	1636.33
856.58	1726.44
856.75	1675.24
856.92	1587.18
857.09	1720.29
857.26	1632.23
857.42	1677.29
857.59	1714.15
857.76	1681.38
857.93	1736.68
858.10	1777.64
858.27	1626.09
858.43	1683.43
858.60	1656.81
858.77	1595.37
858.94	1652.71
859.11	1730.53
859.27	1724.39
859.44	1681.38
859.61	1777.64
859.78	1714.15
859.95	1677.29
860.12	1607.66
860.28	1781.73
860.45	1810.40
860.62	1654.76
860.79	1660.90
860.95	1658.85
861.12	1677.29
861.29	1677.29
861.46	1665.00
861.63	1589.22
861.79	1681.38
861.96	1578.98
862.13	1662.95
862.30	1757.16
862.47	1689.57
862.63	1615.85
862.80	1716.20
862.97	1763.30
863.14	1755.11
863.30	1730.53
863.47	1621.99
863.64	1804.26
863.81	1621.99
863.97	1699.81
864.14	1687.53
864.31	1687.53
864.48	1763.30
864.65	1675.24
864.81	1695.72
864.98	1665.00
865.15	1705.96
865.32	1728.49
865.48	1744.87
865.65	1763.30
865.82	1621.99
865.98	1748.97
866.15	1763.30
866.32	1691.62
866.49	1640.42
866.65	1730.53
866.82	1679.33
866.99	1691.62
867.16	1599.46
867.32	1718.25
867.49	1679.33
867.66	1648.61
867.83	1619.94
867.99	1665.00
868.16	1724.39
868.33	1669.09
868.49	1636.33
868.66	1738.73
868.83	1697.77
868.99	1716.20
869.16	1724.39
869.33	1753.06
869.50	1691.62
869.66	1724.39
869.83	1595.37
870.00	1660.90
870.16	1642.47
870.33	1703.91
870.50	1697.77
870.66	1652.71
870.83	1791.97
871.00	1683.43
871.17	1746.92
871.33	1708.01
871.50	1646.57
871.67	1667.05
871.83	1591.27
872.00	1787.88
872.17	1689.57
872.33	1777.64
872.50	1742.82
872.67	1695.72
872.83	1730.53
873.00	1665.00
873.17	1665.00
873.33	1744.87
873.50	1703.91
873.67	1693.67
873.83	1693.67
874.00	1705.96
874.16	1757.16
874.33	1732.58
874.50	1601.51
874.66	1791.97
874.83	1687.53
875.00	1746.92
875.16	1718.25
875.33	1728.49
875.50	1568.74
875.66	1630.18
875.83	1681.38
875.99	1722.34
876.16	1722.34
876.33	1652.71
876.49	1705.96
876.66	1671.14
876.83	1677.29
876.99	1568.74
877.16	1611.75
877.32	1730.53
877.49	1646.57
877.66	1755.11
877.82	1736.68
877.99	1705.96
878.15	1671.14
878.32	1703.91
878.49	1724.39
878.65	1607.66
878.82	1841.12
878.98	1695.72
879.15	1703.91
879.32	1726.44
879.48	1675.24
879.65	1693.67
879.81	1671.14
879.98	1669.09
880.15	1685.48
880.31	1753.06
880.48	1599.46
880.64	1679.33
880.81	1714.15
880.97	1812.45
881.14	1820.64
881.31	1615.85
881.47	1832.93
881.64	1691.62
881.80	1607.66
881.97	1675.24
882.13	1812.45
882.30	1583.08
882.47	1638.38
882.63	1597.42
882.80	1621.99
882.96	1660.90
883.13	1732.58
883.29	1665.00
883.46	1718.25
883.62	1796.07
883.79	1697.77
883.95	1759.21
884.12	1656.81
884.29	1736.68
884.45	1699.81
884.62	1716.20
884.78	1724.39
884.95	1689.57
885.11	1679.33
885.28	1652.71
885.44	1609.70
885.61	1724.39
885.77	1738.73
885.94	1671.14
886.10	1673.19
886.27	1660.90
886.43	1808.36
886.60	1796.07
886.76	1656.81
886.93	1695.72
887.09	1695.72
887.26	1587.18
887.42	1667.05
887.59	1734.63
887.75	1759.21
887.92	1810.40
888.08	1734.63
888.25	1697.77
888.41	1765.35
888.58	1699.81
888.74	1650.66
888.91	1662.95
>>>>>End Processed Spectral Data<<<<<
