SpectraSuite Data File
++++++++++++++++++++++++++++++++++++
Date: Mon Jun 06 14:28:37 CEST 2016
User: root
Dark Spectrum Present: No
Reference Spectrum Present: No
Number of Sampled Component Spectra: 1
Spectrometers: USB4C02835
Integration Time (usec): 100000 (USB4C02835)
Spectra Averaged: 1 (USB4C02835)
Boxcar Smoothing: 0 (USB4C02835)
Correct for Electrical Dark: No (USB4C02835)
Strobe/Lamp Enabled: No (USB4C02835)
Correct for Detector Non-linearity: No (USB4C02835)
Correct for Stray Light: No (USB4C02835)
Number of Pixels in Processed Spectrum: 3648
>>>>>Begin Processed Spectral Data<<<<<
177.47	1495.02
177.69	1495.02
177.91	1495.02
178.13	1417.19
178.36	1505.26
178.58	1693.67
178.80	1656.81
179.02	1585.13
179.24	1658.85
179.46	1662.95
179.68	1783.78
179.90	1644.52
180.13	1779.68
180.35	1695.72
180.57	1673.19
180.79	1763.30
181.01	1642.47
181.23	1808.36
181.45	1826.79
181.67	1765.35
181.90	1730.53
182.12	1603.56
182.34	1679.33
182.56	1675.24
182.78	1683.43
183.00	1621.99
183.22	1775.59
183.44	1581.03
183.66	1777.64
183.89	1773.54
184.11	1718.25
184.33	1724.39
184.55	1769.44
184.77	1662.95
184.99	1751.01
185.21	1726.44
185.43	1843.17
185.65	1687.53
185.87	1742.82
186.10	1791.97
186.32	1816.55
186.54	1691.62
186.76	1736.68
186.98	1740.77
187.20	1677.29
187.42	1662.95
187.64	1710.05
187.86	1761.25
188.08	1755.11
188.30	1705.96
188.52	1720.29
188.75	1820.64
188.97	1734.63
189.19	1597.42
189.41	1722.34
189.63	1738.73
189.85	1728.49
190.07	1662.95
190.29	1626.09
190.51	1728.49
190.73	1576.94
190.95	1767.40
191.17	1705.96
191.39	1615.85
191.61	1710.05
191.84	1617.90
192.06	1787.88
192.28	1665.00
192.50	1918.95
192.72	1722.34
192.94	1763.30
193.16	1769.44
193.38	1683.43
193.60	1665.00
193.82	1701.86
194.04	1751.01
194.26	1693.67
194.48	1679.33
194.70	1650.66
194.92	1687.53
195.14	1755.11
195.36	1599.46
195.58	1736.68
195.80	1638.38
196.02	1679.33
196.24	1624.04
196.46	1677.29
196.69	1660.90
196.91	1810.40
197.13	1675.24
197.35	1660.90
197.57	1771.49
197.79	1732.58
198.01	1720.29
198.23	1656.81
198.45	1681.38
198.67	1626.09
198.89	1695.72
199.11	1812.45
199.33	1605.61
199.55	1656.81
199.77	1693.67
199.99	1845.22
200.21	1658.85
200.43	1734.63
200.65	1669.09
200.87	1587.18
201.09	1665.00
201.31	1669.09
201.53	1726.44
201.75	1705.96
201.97	1703.91
202.19	1697.77
202.41	1650.66
202.63	1828.84
202.85	1720.29
203.07	1742.82
203.29	1730.53
203.51	1624.04
203.73	1609.70
203.95	1814.50
204.17	1720.29
204.39	1730.53
204.61	1595.37
204.83	1677.29
205.05	1757.16
205.27	1738.73
205.49	1839.08
205.71	1675.24
205.93	1679.33
206.15	1669.09
206.37	1607.66
206.59	1730.53
206.81	1617.90
207.03	1656.81
207.25	1593.32
207.47	1753.06
207.69	1636.33
207.91	1757.16
208.13	1763.30
208.34	1640.42
208.56	1611.75
208.78	1779.68
209.00	1636.33
209.22	1669.09
209.44	1665.00
209.66	1740.77
209.88	1697.77
210.10	1613.80
210.32	1710.05
210.54	1753.06
210.76	1720.29
210.98	1738.73
211.20	1595.37
211.42	1708.01
211.64	1820.64
211.86	1667.05
212.08	1691.62
212.30	1701.86
212.52	1697.77
212.74	1738.73
212.96	1748.97
213.17	1730.53
213.39	1673.19
213.61	1734.63
213.83	1708.01
214.05	1656.81
214.27	1699.81
214.49	1658.85
214.71	1656.81
214.93	1748.97
215.15	1619.94
215.37	1710.05
215.59	1615.85
215.81	1718.25
216.03	1763.30
216.24	1751.01
216.46	1691.62
216.68	1716.20
216.90	1742.82
217.12	1734.63
217.34	1714.15
217.56	1708.01
217.78	1763.30
218.00	1726.44
218.22	1695.72
218.44	1722.34
218.66	1705.96
218.87	1814.50
219.09	1708.01
219.31	1708.01
219.53	1681.38
219.75	1644.52
219.97	1658.85
220.19	1736.68
220.41	1773.54
220.63	1746.92
220.85	1736.68
221.06	1746.92
221.28	1775.59
221.50	1724.39
221.72	1746.92
221.94	1730.53
222.16	1710.05
222.38	1728.49
222.60	1740.77
222.82	1714.15
223.03	1716.20
223.25	1619.94
223.47	1746.92
223.69	1769.44
223.91	1683.43
224.13	1697.77
224.35	1697.77
224.57	1732.58
224.78	1701.86
225.00	1652.71
225.22	1748.97
225.44	1705.96
225.66	1710.05
225.88	1716.20
226.10	1722.34
226.32	1746.92
226.53	1779.68
226.75	1646.57
226.97	1738.73
227.19	1744.87
227.41	1601.51
227.63	1740.77
227.85	1638.38
228.06	1732.58
228.28	1687.53
228.50	1656.81
228.72	1689.57
228.94	1652.71
229.16	1607.66
229.37	1662.95
229.59	1677.29
229.81	1761.25
230.03	1654.76
230.25	1658.85
230.47	1626.09
230.69	1558.50
230.90	1728.49
231.12	1679.33
231.34	1738.73
231.56	1740.77
231.78	1628.14
232.00	1681.38
232.21	1716.20
232.43	1652.71
232.65	1560.55
232.87	1662.95
233.09	1646.57
233.30	1677.29
233.52	1695.72
233.74	1654.76
233.96	1703.91
234.18	1667.05
234.40	1720.29
234.61	1746.92
234.83	1621.99
235.05	1640.42
235.27	1865.70
235.49	1777.64
235.70	1796.07
235.92	1796.07
236.14	1728.49
236.36	1886.18
236.58	1578.98
236.79	1732.58
237.01	1726.44
237.23	1621.99
237.45	1765.35
237.67	1652.71
237.88	1656.81
238.10	1814.50
238.32	1607.66
238.54	1669.09
238.76	1710.05
238.97	1652.71
239.19	1648.61
239.41	1742.82
239.63	1767.40
239.85	1671.14
240.06	1665.00
240.28	1656.81
240.50	1724.39
240.72	1744.87
240.93	1701.86
241.15	1837.03
241.37	1701.86
241.59	1845.22
241.81	1734.63
242.02	1632.23
242.24	1744.87
242.46	1734.63
242.68	1695.72
242.89	1724.39
243.11	1771.49
243.33	1687.53
243.55	1718.25
243.76	1705.96
243.98	1648.61
244.20	1634.28
244.42	1677.29
244.64	1644.52
244.85	1701.86
245.07	1603.56
245.29	1748.97
245.51	1658.85
245.72	1714.15
245.94	1771.49
246.16	1761.25
246.38	1697.77
246.59	1654.76
246.81	1652.71
247.03	1613.80
247.24	1644.52
247.46	1693.67
247.68	1740.77
247.90	1742.82
248.11	1648.61
248.33	1763.30
248.55	1757.16
248.77	1755.11
248.98	1783.78
249.20	1779.68
249.42	1660.90
249.64	1697.77
249.85	1751.01
250.07	1595.37
250.29	1763.30
250.50	1820.64
250.72	1640.42
250.94	1757.16
251.16	1767.40
251.37	1722.34
251.59	1617.90
251.81	1685.48
252.02	1787.88
252.24	1679.33
252.46	1726.44
252.68	1658.85
252.89	1701.86
253.11	1603.56
253.33	1763.30
253.54	1742.82
253.76	1685.48
253.98	1667.05
254.20	1619.94
254.41	1538.02
254.63	1697.77
254.85	1685.48
255.06	1667.05
255.28	1697.77
255.50	1583.08
255.71	1648.61
255.93	1607.66
256.15	1591.27
256.36	1697.77
256.58	1636.33
256.80	1695.72
257.02	1656.81
257.23	1673.19
257.45	1789.92
257.67	1761.25
257.88	1640.42
258.10	1730.53
258.32	1671.14
258.53	1677.29
258.75	1765.35
258.97	1691.62
259.18	1681.38
259.40	1652.71
259.62	1824.74
259.83	1771.49
260.05	1744.87
260.27	2007.01
260.48	1781.73
260.70	1689.57
260.92	1730.53
261.13	1703.91
261.35	1689.57
261.57	1724.39
261.78	1578.98
262.00	1656.81
262.22	1689.57
262.43	1632.23
262.65	1693.67
262.86	1763.30
263.08	1812.45
263.30	1609.70
263.51	1546.22
263.73	1685.48
263.95	1728.49
264.16	1697.77
264.38	1642.47
264.60	1724.39
264.81	1763.30
265.03	1785.83
265.25	1736.68
265.46	1673.19
265.68	1773.54
265.89	1779.68
266.11	1583.08
266.33	1767.40
266.54	1777.64
266.76	1755.11
266.98	1705.96
267.19	1769.44
267.41	1722.34
267.62	1669.09
267.84	1650.66
268.06	1679.33
268.27	1693.67
268.49	1791.97
268.70	1710.05
268.92	1708.01
269.14	1636.33
269.35	1658.85
269.57	1615.85
269.79	1796.07
270.00	1687.53
270.22	1804.26
270.43	1675.24
270.65	1576.94
270.87	1660.90
271.08	1718.25
271.30	1763.30
271.51	1667.05
271.73	1753.06
271.95	1783.78
272.16	1767.40
272.38	1724.39
272.59	1591.27
272.81	1783.78
273.02	1759.21
273.24	1683.43
273.46	1785.83
273.67	1648.61
273.89	1628.14
274.10	1691.62
274.32	1732.58
274.54	1683.43
274.75	1742.82
274.97	1642.47
275.18	1722.34
275.40	1720.29
275.61	1728.49
275.83	1781.73
276.05	1636.33
276.26	1726.44
276.48	1763.30
276.69	1673.19
276.91	1640.42
277.12	1798.12
277.34	1738.73
277.55	1763.30
277.77	1687.53
277.99	1730.53
278.20	1638.38
278.42	1708.01
278.63	1656.81
278.85	1699.81
279.06	1742.82
279.28	1638.38
279.49	1740.77
279.71	1767.40
279.93	1652.71
280.14	1710.05
280.36	1601.51
280.57	1714.15
280.79	1775.59
281.00	1662.95
281.22	1677.29
281.43	1726.44
281.65	1578.98
281.86	1738.73
282.08	1730.53
282.29	1816.55
282.51	1683.43
282.73	1646.57
282.94	1574.89
283.16	1751.01
283.37	1767.40
283.59	1681.38
283.80	1677.29
284.02	1759.21
284.23	1705.96
284.45	1681.38
284.66	1609.70
284.88	1642.47
285.09	1757.16
285.31	1800.16
285.52	1755.11
285.74	1560.55
285.95	1683.43
286.17	1716.20
286.38	1781.73
286.60	1595.37
286.81	1662.95
287.03	1632.23
287.24	1640.42
287.46	1683.43
287.67	1759.21
287.89	1777.64
288.10	1685.48
288.32	1732.58
288.53	1791.97
288.75	1681.38
288.96	1763.30
289.18	1685.48
289.39	1669.09
289.61	1751.01
289.82	1771.49
290.04	1746.92
290.25	1581.03
290.47	1757.16
290.68	1734.63
290.90	1796.07
291.11	1595.37
291.33	1759.21
291.54	1638.38
291.76	1665.00
291.97	1738.73
292.18	1730.53
292.40	1621.99
292.61	1712.10
292.83	1849.32
293.04	1755.11
293.26	1716.20
293.47	1648.61
293.69	1708.01
293.90	1728.49
294.12	1804.26
294.33	1724.39
294.55	1734.63
294.76	1744.87
294.97	1767.40
295.19	1841.12
295.40	1689.57
295.62	1742.82
295.83	1781.73
296.05	1636.33
296.26	1699.81
296.48	1710.05
296.69	1757.16
296.90	1703.91
297.12	1710.05
297.33	1761.25
297.55	1716.20
297.76	1767.40
297.98	1759.21
298.19	1640.42
298.41	1701.86
298.62	1671.14
298.83	1785.83
299.05	1722.34
299.26	1697.77
299.48	1714.15
299.69	1718.25
299.90	1691.62
300.12	1636.33
300.33	1779.68
300.55	1681.38
300.76	1673.19
300.98	1669.09
301.19	1722.34
301.40	1763.30
301.62	1691.62
301.83	1767.40
302.05	1714.15
302.26	1708.01
302.47	1632.23
302.69	1597.42
302.90	1710.05
303.12	1566.70
303.33	1763.30
303.54	1841.12
303.76	1714.15
303.97	1705.96
304.19	1796.07
304.40	1640.42
304.61	1693.67
304.83	1865.70
305.04	1781.73
305.26	1734.63
305.47	1667.05
305.68	1660.90
305.90	1607.66
306.11	1822.69
306.33	1675.24
306.54	1648.61
306.75	1669.09
306.97	1621.99
307.18	1652.71
307.39	1652.71
307.61	1765.35
307.82	1732.58
308.04	1685.48
308.25	1701.86
308.46	1718.25
308.68	1650.66
308.89	1650.66
309.10	1748.97
309.32	1816.55
309.53	1732.58
309.74	1685.48
309.96	1703.91
310.17	1746.92
310.39	1710.05
310.60	1699.81
310.81	1689.57
311.03	1619.94
311.24	1765.35
311.45	1660.90
311.67	1834.98
311.88	1724.39
312.09	1673.19
312.31	1683.43
312.52	1732.58
312.73	1679.33
312.95	1589.22
313.16	1636.33
313.37	1685.48
313.59	1689.57
313.80	1728.49
314.01	1781.73
314.23	1757.16
314.44	1693.67
314.65	1624.04
314.87	1732.58
315.08	1656.81
315.29	1708.01
315.51	1599.46
315.72	1671.14
315.93	1853.41
316.15	1779.68
316.36	1712.10
316.57	1675.24
316.79	1705.96
317.00	1601.51
317.21	1769.44
317.43	1656.81
317.64	1632.23
317.85	1570.79
318.07	1636.33
318.28	1699.81
318.49	1820.64
318.70	1953.76
318.92	1820.64
319.13	1818.60
319.34	1935.33
319.56	1767.40
319.77	1765.35
319.98	1847.27
320.20	1806.31
320.41	1722.34
320.62	1712.10
320.83	1626.09
321.05	1830.88
321.26	1695.72
321.47	1742.82
321.69	1783.78
321.90	1636.33
322.11	1718.25
322.32	1722.34
322.54	1798.12
322.75	1665.00
322.96	1800.16
323.18	1654.76
323.39	1540.07
323.60	1656.81
323.81	1787.88
324.03	1732.58
324.24	1689.57
324.45	1693.67
324.66	1691.62
324.88	1740.77
325.09	1798.12
325.30	1699.81
325.52	1665.00
325.73	1732.58
325.94	1691.62
326.15	1572.84
326.37	1677.29
326.58	1771.49
326.79	1787.88
327.00	1652.71
327.22	1673.19
327.43	1671.14
327.64	1624.04
327.85	1779.68
328.07	1708.01
328.28	1816.55
328.49	1720.29
328.70	1673.19
328.92	1738.73
329.13	1617.90
329.34	1738.73
329.55	1787.88
329.76	1791.97
329.98	1683.43
330.19	1779.68
330.40	1755.11
330.61	1736.68
330.83	1771.49
331.04	1695.72
331.25	1693.67
331.46	1624.04
331.68	1656.81
331.89	1695.72
332.10	1736.68
332.31	1617.90
332.52	1744.87
332.74	1724.39
332.95	1589.22
333.16	1628.14
333.37	1736.68
333.58	1665.00
333.80	1677.29
334.01	1638.38
334.22	1695.72
334.43	1605.61
334.64	1669.09
334.86	1605.61
335.07	1581.03
335.28	1751.01
335.49	1615.85
335.70	1736.68
335.92	1697.77
336.13	1834.98
336.34	1683.43
336.55	1697.77
336.76	1722.34
336.98	1658.85
337.19	1763.30
337.40	1806.31
337.61	1908.71
337.82	1665.00
338.04	1722.34
338.25	1646.57
338.46	1689.57
338.67	1648.61
338.88	1781.73
339.09	1665.00
339.31	1722.34
339.52	1646.57
339.73	1624.04
339.94	1701.86
340.15	1730.53
340.36	1611.75
340.58	1691.62
340.79	1660.90
341.00	1714.15
341.21	1640.42
341.42	1861.60
341.63	1705.96
341.85	1755.11
342.06	1730.53
342.27	1624.04
342.48	1808.36
342.69	1646.57
342.90	1685.48
343.12	1671.14
343.33	1736.68
343.54	1767.40
343.75	1773.54
343.96	1761.25
344.17	1662.95
344.38	1652.71
344.60	1654.76
344.81	1693.67
345.02	1681.38
345.23	1699.81
345.44	1751.01
345.65	1687.53
345.86	1771.49
346.07	1751.01
346.29	1716.20
346.50	1849.32
346.71	1777.64
346.92	1708.01
347.13	1736.68
347.34	1644.52
347.55	1693.67
347.76	1677.29
347.98	1662.95
348.19	1677.29
348.40	1734.63
348.61	1730.53
348.82	1800.16
349.03	1675.24
349.24	1658.85
349.45	1843.17
349.66	1535.98
349.88	1689.57
350.09	1687.53
350.30	1689.57
350.51	1800.16
350.72	1693.67
350.93	1783.78
351.14	1644.52
351.35	1732.58
351.56	1669.09
351.77	1654.76
351.99	1740.77
352.20	1808.36
352.41	1736.68
352.62	1609.70
352.83	1656.81
353.04	1648.61
353.25	1673.19
353.46	1779.68
353.67	1740.77
353.88	1538.02
354.09	1656.81
354.30	1757.16
354.52	1732.58
354.73	1724.39
354.94	1683.43
355.15	1736.68
355.36	1722.34
355.57	1718.25
355.78	1726.44
355.99	1677.29
356.20	1775.59
356.41	1757.16
356.62	1783.78
356.83	1708.01
357.04	1800.16
357.25	1603.56
357.46	1681.38
357.68	1656.81
357.89	1691.62
358.10	1677.29
358.31	1652.71
358.52	1691.62
358.73	1636.33
358.94	1652.71
359.15	1693.67
359.36	1761.25
359.57	1697.77
359.78	1705.96
359.99	1757.16
360.20	1619.94
360.41	1628.14
360.62	1742.82
360.83	1767.40
361.04	1765.35
361.25	1722.34
361.46	1830.88
361.67	1691.62
361.88	1644.52
362.09	1814.50
362.30	1787.88
362.51	1712.10
362.72	1738.73
362.93	1734.63
363.14	1812.45
363.35	1759.21
363.56	1660.90
363.78	1767.40
363.99	1783.78
364.20	1624.04
364.41	1746.92
364.62	1810.40
364.83	1673.19
365.04	1685.48
365.25	1759.21
365.46	1834.98
365.67	1669.09
365.88	1603.56
366.09	1683.43
366.30	1656.81
366.51	1703.91
366.72	1619.94
366.93	1660.90
367.14	1646.57
367.35	1720.29
367.56	1697.77
367.77	1820.64
367.98	1767.40
368.18	1677.29
368.39	1789.92
368.60	1624.04
368.81	1746.92
369.02	1697.77
369.23	1753.06
369.44	1556.46
369.65	1660.90
369.86	1705.96
370.07	1683.43
370.28	1679.33
370.49	1779.68
370.70	1691.62
370.91	1654.76
371.12	1601.51
371.33	1771.49
371.54	1693.67
371.75	1781.73
371.96	1646.57
372.17	1767.40
372.38	1703.91
372.59	1665.00
372.80	1767.40
373.01	1665.00
373.22	1701.86
373.43	1689.57
373.64	1689.57
373.85	1810.40
374.06	1783.78
374.26	1742.82
374.47	1798.12
374.68	1773.54
374.89	1714.15
375.10	1691.62
375.31	1783.78
375.52	1685.48
375.73	1767.40
375.94	1587.18
376.15	1740.77
376.36	1658.85
376.57	1638.38
376.78	1681.38
376.99	1724.39
377.20	1722.34
377.40	1716.20
377.61	1857.51
377.82	1722.34
378.03	1806.31
378.24	1705.96
378.45	1771.49
378.66	1769.44
378.87	1552.36
379.08	1640.42
379.29	1683.43
379.50	1775.59
379.71	1701.86
379.91	1781.73
380.12	1746.92
380.33	1677.29
380.54	1722.34
380.75	1744.87
380.96	1658.85
381.17	1771.49
381.38	1650.66
381.59	1738.73
381.80	1640.42
382.00	1865.70
382.21	1701.86
382.42	1808.36
382.63	1931.23
382.84	1746.92
383.05	1783.78
383.26	1738.73
383.47	1689.57
383.68	1740.77
383.88	1744.87
384.09	1777.64
384.30	1804.26
384.51	1699.81
384.72	1703.91
384.93	1595.37
385.14	1746.92
385.35	1789.92
385.55	1677.29
385.76	1734.63
385.97	1673.19
386.18	1634.28
386.39	1669.09
386.60	1679.33
386.81	1683.43
387.02	1605.61
387.22	1681.38
387.43	1665.00
387.64	1787.88
387.85	1890.28
388.06	2213.85
388.27	4276.16
388.48	6915.99
388.68	8378.24
388.89	9535.34
389.10	9846.63
389.31	8497.02
389.52	7511.95
389.73	6743.96
389.93	6209.44
390.14	5789.61
390.35	5128.11
390.56	4634.55
390.77	3688.39
390.98	3061.71
391.18	2508.76
391.39	2119.65
391.60	1886.18
391.81	1820.64
392.02	1673.19
392.23	1873.89
392.43	1710.05
392.64	1800.16
392.85	1656.81
393.06	1837.03
393.27	1671.14
393.47	1673.19
393.68	1687.53
393.89	1734.63
394.10	1757.16
394.31	1603.56
394.52	1675.24
394.72	1751.01
394.93	1806.31
395.14	1673.19
395.35	1787.88
395.56	1701.86
395.76	1759.21
395.97	1783.78
396.18	1839.08
396.39	1828.84
396.60	1980.39
396.80	1986.53
397.01	1806.31
397.22	1804.26
397.43	1814.50
397.64	1703.91
397.84	1804.26
398.05	1832.93
398.26	1775.59
398.47	1744.87
398.67	1722.34
398.88	1781.73
399.09	1830.88
399.30	1648.61
399.51	1681.38
399.71	1736.68
399.92	1734.63
400.13	1701.86
400.34	1630.18
400.54	1648.61
400.75	1830.88
400.96	1652.71
401.17	1847.27
401.37	1662.95
401.58	1665.00
401.79	1720.29
402.00	1814.50
402.21	1988.58
402.41	1886.18
402.62	1994.72
402.83	2070.50
403.04	1974.24
403.24	2033.63
403.45	1861.60
403.66	1988.58
403.87	1804.26
404.07	1841.12
404.28	1861.60
404.49	1884.13
404.70	1740.77
404.90	1746.92
405.11	1769.44
405.32	1667.05
405.52	1656.81
405.73	1654.76
405.94	1636.33
406.15	1755.11
406.35	1738.73
406.56	1742.82
406.77	1691.62
406.98	1771.49
407.18	1744.87
407.39	1806.31
407.60	1722.34
407.80	1738.73
408.01	1685.48
408.22	1718.25
408.43	1665.00
408.63	1667.05
408.84	1710.05
409.05	1779.68
409.25	1621.99
409.46	1697.77
409.67	1738.73
409.88	1773.54
410.08	1804.26
410.29	1685.48
410.50	1781.73
410.70	1751.01
410.91	1699.81
411.12	1791.97
411.32	1710.05
411.53	1710.05
411.74	1779.68
411.95	1712.10
412.15	1746.92
412.36	1789.92
412.57	1791.97
412.77	1683.43
412.98	1722.34
413.19	1648.61
413.39	1771.49
413.60	1818.60
413.81	1777.64
414.01	1642.47
414.22	1710.05
414.43	1826.79
414.63	1687.53
414.84	1804.26
415.05	1705.96
415.25	1660.90
415.46	1753.06
415.67	1656.81
415.87	1685.48
416.08	1726.44
416.29	1730.53
416.49	1716.20
416.70	1636.33
416.91	1712.10
417.11	1681.38
417.32	1753.06
417.53	1806.31
417.73	1746.92
417.94	1650.66
418.15	1730.53
418.35	1746.92
418.56	1673.19
418.77	1802.21
418.97	1660.90
419.18	1632.23
419.38	1576.94
419.59	1619.94
419.80	1847.27
420.00	1701.86
420.21	1796.07
420.42	1742.82
420.62	1740.77
420.83	1736.68
421.04	1697.77
421.24	1705.96
421.45	1763.30
421.65	1806.31
421.86	1665.00
422.07	1722.34
422.27	1632.23
422.48	1683.43
422.69	1660.90
422.89	1669.09
423.10	1677.29
423.30	1638.38
423.51	1751.01
423.72	1773.54
423.92	1757.16
424.13	1599.46
424.33	1615.85
424.54	1789.92
424.75	1654.76
424.95	1841.12
425.16	1755.11
425.36	1705.96
425.57	1705.96
425.78	1759.21
425.98	1769.44
426.19	1734.63
426.39	1679.33
426.60	1726.44
426.81	1794.02
427.01	1697.77
427.22	1695.72
427.42	1611.75
427.63	1714.15
427.83	1798.12
428.04	1769.44
428.25	1781.73
428.45	1814.50
428.66	1785.83
428.86	1640.42
429.07	1724.39
429.28	1673.19
429.48	1642.47
429.69	1669.09
429.89	1738.73
430.10	1601.51
430.30	1834.98
430.51	1730.53
430.71	1611.75
430.92	1746.92
431.13	1697.77
431.33	1665.00
431.54	1693.67
431.74	1839.08
431.95	1767.40
432.15	1632.23
432.36	1726.44
432.56	1773.54
432.77	1853.41
432.98	1865.70
433.18	1716.20
433.39	1654.76
433.59	1646.57
433.80	1830.88
434.00	1920.99
434.21	1673.19
434.41	1683.43
434.62	1877.99
434.82	1753.06
435.03	1689.57
435.23	1705.96
435.44	1619.94
435.64	1683.43
435.85	1705.96
436.06	1716.20
436.26	1779.68
436.47	1652.71
436.67	1681.38
436.88	1683.43
437.08	1751.01
437.29	1824.74
437.49	1697.77
437.70	1732.58
437.90	1763.30
438.11	1800.16
438.31	1742.82
438.52	1818.60
438.72	1804.26
438.93	1910.75
439.13	1738.73
439.34	1886.18
439.54	1669.09
439.75	1710.05
439.95	1751.01
440.16	1697.77
440.36	1701.86
440.57	1810.40
440.77	1720.29
440.98	1732.58
441.18	1779.68
441.39	1656.81
441.59	1669.09
441.80	1798.12
442.00	1691.62
442.21	1724.39
442.41	1613.80
442.62	1761.25
442.82	1683.43
443.02	1769.44
443.23	1777.64
443.43	1685.48
443.64	1763.30
443.84	1695.72
444.05	1812.45
444.25	1710.05
444.46	1708.01
444.66	1771.49
444.87	1808.36
445.07	1708.01
445.28	1683.43
445.48	1812.45
445.69	1751.01
445.89	1843.17
446.09	1808.36
446.30	1974.24
446.50	2545.63
446.71	3682.25
446.91	4323.26
447.12	4749.24
447.32	4837.30
447.53	4335.55
447.73	3876.80
447.93	3639.24
448.14	3311.57
448.34	3301.33
448.55	2934.74
448.75	2744.28
448.96	2625.50
449.16	2529.24
449.36	2246.62
449.57	2007.01
449.77	1970.15
449.98	1804.26
450.18	1787.88
450.39	1863.65
450.59	1714.15
450.79	1781.73
451.00	1652.71
451.20	1742.82
451.41	1712.10
451.61	1722.34
451.81	1763.30
452.02	1710.05
452.22	1712.10
452.43	1726.44
452.63	1665.00
452.84	1689.57
453.04	1701.86
453.24	1720.29
453.45	1765.35
453.65	1677.29
453.86	1791.97
454.06	1724.39
454.26	1714.15
454.47	1617.90
454.67	1841.12
454.87	1703.91
455.08	1779.68
455.28	1902.56
455.49	1718.25
455.69	1695.72
455.89	1845.22
456.10	1783.78
456.30	1796.07
456.51	1718.25
456.71	1714.15
456.91	1798.12
457.12	1757.16
457.32	1701.86
457.52	1611.75
457.73	1714.15
457.93	1675.24
458.14	1691.62
458.34	1619.94
458.54	1693.67
458.75	1703.91
458.95	1822.69
459.15	1736.68
459.36	1718.25
459.56	1802.21
459.76	1779.68
459.97	1714.15
460.17	1732.58
460.37	1816.55
460.58	1638.38
460.78	1832.93
460.99	1734.63
461.19	1798.12
461.39	1685.48
461.60	1710.05
461.80	1738.73
462.00	1685.48
462.21	1644.52
462.41	1675.24
462.61	1628.14
462.82	1517.54
463.02	1699.81
463.22	1732.58
463.43	1787.88
463.63	1710.05
463.83	1816.55
464.04	1777.64
464.24	1740.77
464.44	1683.43
464.64	1714.15
464.85	1771.49
465.05	1796.07
465.25	1732.58
465.46	1718.25
465.66	1767.40
465.86	1726.44
466.07	1730.53
466.27	1708.01
466.47	1703.91
466.68	1595.37
466.88	1810.40
467.08	1730.53
467.29	1701.86
467.49	1785.83
467.69	1691.62
467.89	1791.97
468.10	1710.05
468.30	1787.88
468.50	1746.92
468.71	1656.81
468.91	1621.99
469.11	1794.02
469.31	1697.77
469.52	1642.47
469.72	1894.37
469.92	1806.31
470.13	1734.63
470.33	1665.00
470.53	1800.16
470.73	2093.02
470.94	2258.91
471.14	2318.30
471.34	2529.24
471.54	2457.56
471.75	2267.10
471.95	2150.37
472.15	2068.45
472.36	2115.55
472.56	2115.55
472.76	2109.41
472.96	1972.19
473.17	1880.04
473.37	1912.80
473.57	1779.68
473.77	1845.22
473.98	1767.40
474.18	1697.77
474.38	1970.15
474.58	1667.05
474.79	1701.86
474.99	1769.44
475.19	1763.30
475.39	1708.01
475.60	1746.92
475.80	1777.64
476.00	1736.68
476.20	1652.71
476.41	1744.87
476.61	1746.92
476.81	1785.83
477.01	1675.24
477.21	1769.44
477.42	1755.11
477.62	1714.15
477.82	1701.86
478.02	1644.52
478.23	1789.92
478.43	1615.85
478.63	1691.62
478.83	1720.29
479.03	1763.30
479.24	1779.68
479.44	1818.60
479.64	1667.05
479.84	1677.29
480.04	1628.14
480.25	1783.78
480.45	1685.48
480.65	1714.15
480.85	1765.35
481.06	1720.29
481.26	1800.16
481.46	1818.60
481.66	1710.05
481.86	1673.19
482.06	1763.30
482.27	1646.57
482.47	1742.82
482.67	1695.72
482.87	1593.32
483.07	1761.25
483.28	1683.43
483.48	1669.09
483.68	1724.39
483.88	1654.76
484.08	1624.04
484.29	1646.57
484.49	1705.96
484.69	1535.98
484.89	1765.35
485.09	1685.48
485.29	1779.68
485.50	1732.58
485.70	1626.09
485.90	1728.49
486.10	1648.61
486.30	1767.40
486.50	1810.40
486.71	1673.19
486.91	1785.83
487.11	1783.78
487.31	1640.42
487.51	1720.29
487.71	1644.52
487.91	1607.66
488.12	1617.90
488.32	1578.98
488.52	1662.95
488.72	1529.83
488.92	1753.06
489.12	1728.49
489.32	1720.29
489.53	1740.77
489.73	1646.57
489.93	1748.97
490.13	1744.87
490.33	1648.61
490.53	1748.97
490.73	1746.92
490.94	1722.34
491.14	1660.90
491.34	1773.54
491.54	2125.79
491.74	2559.96
491.94	2871.25
492.14	3033.04
492.34	3014.61
492.54	2719.70
492.75	2463.71
492.95	2396.12
493.15	2361.31
493.35	2295.77
493.55	2248.67
493.75	2160.61
493.95	2183.13
494.15	2017.25
494.35	1890.28
494.56	1744.87
494.76	1810.40
494.96	1783.78
495.16	1775.59
495.36	1763.30
495.56	1740.77
495.76	1660.90
495.96	1675.24
496.16	1650.66
496.36	1855.46
496.56	1654.76
496.77	1765.35
496.97	1775.59
497.17	1826.79
497.37	1636.33
497.57	1779.68
497.77	1701.86
497.97	1771.49
498.17	1685.48
498.37	1718.25
498.57	1751.01
498.77	1695.72
498.97	1820.64
499.17	1929.19
499.38	1710.05
499.58	1779.68
499.78	1789.92
499.98	1861.60
500.18	1759.21
500.38	1695.72
500.58	1959.91
500.78	2482.14
500.98	4532.15
501.18	5758.89
501.38	6846.36
501.58	7131.03
501.78	6721.43
501.98	5601.19
502.18	5029.81
502.38	4345.79
502.58	4216.77
502.78	3688.39
502.98	3655.62
503.18	3483.59
503.38	3170.26
503.59	2863.06
503.79	2600.92
503.99	2443.23
504.19	2258.91
504.39	2224.09
504.59	2148.32
504.79	2136.03
504.99	2050.02
505.19	1892.32
505.39	1873.89
505.59	1992.67
505.79	1902.56
505.99	1853.41
506.19	1763.30
506.39	1816.55
506.59	1751.01
506.79	1751.01
506.99	1783.78
507.19	1796.07
507.39	1802.21
507.59	1660.90
507.79	1703.91
507.99	1621.99
508.19	1701.86
508.39	1650.66
508.59	1732.58
508.79	1861.60
508.99	1800.16
509.19	1681.38
509.39	1751.01
509.59	1705.96
509.79	1703.91
509.99	1691.62
510.19	1728.49
510.39	1787.88
510.59	1777.64
510.79	1730.53
510.99	1691.62
511.19	1687.53
511.39	1783.78
511.59	1722.34
511.79	1767.40
511.99	1677.29
512.19	1820.64
512.38	1714.15
512.58	1726.44
512.78	1726.44
512.98	1791.97
513.18	1798.12
513.38	1722.34
513.58	1740.77
513.78	1656.81
513.98	1732.58
514.18	1740.77
514.38	1738.73
514.58	1701.86
514.78	1705.96
514.98	1753.06
515.18	1722.34
515.38	1730.53
515.58	1785.83
515.78	1660.90
515.98	1767.40
516.18	1669.09
516.38	1744.87
516.57	1705.96
516.77	1669.09
516.97	1728.49
517.17	1769.44
517.37	1665.00
517.57	1785.83
517.77	1730.53
517.97	1744.87
518.17	1796.07
518.37	1708.01
518.57	1687.53
518.77	1746.92
518.97	1775.59
519.16	1730.53
519.36	1757.16
519.56	1605.61
519.76	1681.38
519.96	1763.30
520.16	1816.55
520.36	1609.70
520.56	1812.45
520.76	1755.11
520.96	1705.96
521.16	1751.01
521.35	1791.97
521.55	1800.16
521.75	1685.48
521.95	1714.15
522.15	1773.54
522.35	1615.85
522.55	1675.24
522.75	1761.25
522.95	1714.15
523.14	1710.05
523.34	1720.29
523.54	1693.67
523.74	1767.40
523.94	1781.73
524.14	1624.04
524.34	1746.92
524.54	1791.97
524.73	1740.77
524.93	1769.44
525.13	1761.25
525.33	1593.32
525.53	1869.80
525.73	1787.88
525.93	1775.59
526.13	1691.62
526.32	1771.49
526.52	1828.84
526.72	1855.46
526.92	1730.53
527.12	1738.73
527.32	1607.66
527.52	1724.39
527.71	1751.01
527.91	1783.78
528.11	1675.24
528.31	1777.64
528.51	1640.42
528.71	1720.29
528.90	1744.87
529.10	1746.92
529.30	1810.40
529.50	1640.42
529.70	1755.11
529.90	1648.61
530.09	1716.20
530.29	1705.96
530.49	1742.82
530.69	1857.51
530.89	1824.74
531.09	1738.73
531.28	1699.81
531.48	1853.41
531.68	1681.38
531.88	1720.29
532.08	1718.25
532.28	1701.86
532.47	1732.58
532.67	1798.12
532.87	1810.40
533.07	1654.76
533.27	1806.31
533.46	1738.73
533.66	1728.49
533.86	1697.77
534.06	1738.73
534.26	1767.40
534.45	1621.99
534.65	1806.31
534.85	1710.05
535.05	1738.73
535.25	1791.97
535.44	1714.15
535.64	1796.07
535.84	1712.10
536.04	1652.71
536.24	1730.53
536.43	1673.19
536.63	1767.40
536.83	1701.86
537.03	1738.73
537.22	1701.86
537.42	1654.76
537.62	1763.30
537.82	1740.77
538.02	1751.01
538.21	1845.22
538.41	1902.56
538.61	1695.72
538.81	1665.00
539.00	1724.39
539.20	1658.85
539.40	1730.53
539.60	1714.15
539.79	1757.16
539.99	1736.68
540.19	1677.29
540.39	1718.25
540.58	1689.57
540.78	1746.92
540.98	1710.05
541.18	1812.45
541.37	1785.83
541.57	1742.82
541.77	1691.62
541.97	1697.77
542.16	1644.52
542.36	1708.01
542.56	1683.43
542.76	1871.84
542.95	1740.77
543.15	1798.12
543.35	1812.45
543.54	1636.33
543.74	1746.92
543.94	1806.31
544.14	1697.77
544.33	1761.25
544.53	1767.40
544.73	1722.34
544.93	1742.82
545.12	1697.77
545.32	1751.01
545.52	1695.72
545.71	1673.19
545.91	1722.34
546.11	1693.67
546.30	1626.09
546.50	1834.98
546.70	1728.49
546.90	1669.09
547.09	1689.57
547.29	1753.06
547.49	1763.30
547.68	1699.81
547.88	1685.48
548.08	1812.45
548.27	2174.94
548.47	1650.66
548.67	1601.51
548.87	1794.02
549.06	1701.86
549.26	1724.39
549.46	1742.82
549.65	1693.67
549.85	1716.20
550.05	1763.30
550.24	1652.71
550.44	1710.05
550.64	1685.48
550.83	1714.15
551.03	1783.78
551.23	1783.78
551.42	1775.59
551.62	1746.92
551.82	1802.21
552.01	1748.97
552.21	1736.68
552.41	1705.96
552.60	1808.36
552.80	1742.82
553.00	1751.01
553.19	1757.16
553.39	1798.12
553.59	1693.67
553.78	1693.67
553.98	1755.11
554.17	1673.19
554.37	1691.62
554.57	1785.83
554.76	1652.71
554.96	1732.58
555.16	1734.63
555.35	1779.68
555.55	1808.36
555.75	1804.26
555.94	1773.54
556.14	1667.05
556.33	1705.96
556.53	1720.29
556.73	1755.11
556.92	1748.97
557.12	1847.27
557.32	1814.50
557.51	1857.51
557.71	1732.58
557.90	1800.16
558.10	1767.40
558.30	1685.48
558.49	1751.01
558.69	1703.91
558.88	1681.38
559.08	1798.12
559.28	1732.58
559.47	1794.02
559.67	1800.16
559.86	1877.99
560.06	1751.01
560.26	1738.73
560.45	1785.83
560.65	1638.38
560.84	1822.69
561.04	1701.86
561.24	1769.44
561.43	1703.91
561.63	1781.73
561.82	1755.11
562.02	1744.87
562.22	1665.00
562.41	1691.62
562.61	1742.82
562.80	1636.33
563.00	1904.61
563.19	1839.08
563.39	1820.64
563.59	1742.82
563.78	1751.01
563.98	1710.05
564.17	1685.48
564.37	1650.66
564.56	1720.29
564.76	1689.57
564.96	1757.16
565.15	1730.53
565.35	1855.46
565.54	1757.16
565.74	1820.64
565.93	1718.25
566.13	1691.62
566.32	1697.77
566.52	1697.77
566.71	1808.36
566.91	1826.79
567.11	1701.86
567.30	1662.95
567.50	1716.20
567.69	1763.30
567.89	1716.20
568.08	1742.82
568.28	1775.59
568.47	1712.10
568.67	1761.25
568.86	1650.66
569.06	1755.11
569.25	1742.82
569.45	1677.29
569.64	1693.67
569.84	1685.48
570.04	1734.63
570.23	1744.87
570.43	1759.21
570.62	1736.68
570.82	1820.64
571.01	1595.37
571.21	1640.42
571.40	1656.81
571.60	1814.50
571.79	1755.11
571.99	1789.92
572.18	1697.77
572.38	1730.53
572.57	1720.29
572.77	1773.54
572.96	1822.69
573.16	1804.26
573.35	1736.68
573.55	1843.17
573.74	1699.81
573.94	1726.44
574.13	1722.34
574.33	1822.69
574.52	1730.53
574.71	1777.64
574.91	1763.30
575.10	1701.86
575.30	1728.49
575.49	1722.34
575.69	1714.15
575.88	1834.98
576.08	1791.97
576.27	1843.17
576.47	1722.34
576.66	1837.03
576.86	1798.12
577.05	1730.53
577.25	1808.36
577.44	1847.27
577.64	1697.77
577.83	1777.64
578.02	1740.77
578.22	1808.36
578.41	1847.27
578.61	1732.58
578.80	1726.44
579.00	1738.73
579.19	1785.83
579.39	1748.97
579.58	1804.26
579.77	1699.81
579.97	1847.27
580.16	1853.41
580.36	1853.41
580.55	1851.36
580.75	1828.84
580.94	1746.92
581.13	1857.51
581.33	1912.80
581.52	1759.21
581.72	1785.83
581.91	1851.36
582.11	1761.25
582.30	1777.64
582.49	1732.58
582.69	1783.78
582.88	1759.21
583.08	1765.35
583.27	1791.97
583.47	1732.58
583.66	1677.29
583.85	1615.85
584.05	1775.59
584.24	1732.58
584.44	1816.55
584.63	1834.98
584.82	1894.37
585.02	1834.98
585.21	1808.36
585.41	1863.65
585.60	1812.45
585.79	1900.52
585.99	1910.75
586.18	1812.45
586.37	2232.29
586.57	3397.58
586.76	9830.25
586.96	24415.88
587.15	34418.16
587.34	40721.81
587.54	42466.68
587.73	36654.54
587.93	26443.37
588.12	21874.35
588.31	18636.52
588.51	16377.61
588.70	15200.02
588.89	14143.27
589.09	12658.49
589.28	11030.36
589.47	9584.49
589.67	7888.78
589.86	6596.51
590.06	5009.33
590.25	3899.33
590.44	3129.30
590.64	2559.96
590.83	2228.19
591.02	2119.65
591.22	1955.81
591.41	1984.48
591.60	1892.32
591.80	1929.19
591.99	1642.47
592.18	1783.78
592.38	1845.22
592.57	1734.63
592.76	1738.73
592.96	1816.55
593.15	1775.59
593.34	1810.40
593.54	1802.21
593.73	1748.97
593.92	1796.07
594.12	1763.30
594.31	1810.40
594.50	1802.21
594.70	1730.53
594.89	1830.88
595.08	1738.73
595.28	1779.68
595.47	1929.19
595.66	1746.92
595.86	1685.48
596.05	1761.25
596.24	1699.81
596.43	1814.50
596.63	1861.60
596.82	1726.44
597.01	1710.05
597.21	1871.84
597.40	1730.53
597.59	1765.35
597.79	1832.93
597.98	1757.16
598.17	1738.73
598.36	1687.53
598.56	1787.88
598.75	1658.85
598.94	1685.48
599.14	1812.45
599.33	1734.63
599.52	1703.91
599.71	1744.87
599.91	1742.82
600.10	1794.02
600.29	1779.68
600.48	1771.49
600.68	1837.03
600.87	1730.53
601.06	1689.57
601.26	1777.64
601.45	1798.12
601.64	1638.38
601.83	1818.60
602.03	1763.30
602.22	1646.57
602.41	1683.43
602.60	1828.84
602.80	1775.59
602.99	1742.82
603.18	1710.05
603.37	1775.59
603.57	1785.83
603.76	1787.88
603.95	1814.50
604.14	1687.53
604.34	1646.57
604.53	1734.63
604.72	1732.58
604.91	1757.16
605.10	1800.16
605.30	1638.38
605.49	1853.41
605.68	1705.96
605.87	1794.02
606.07	1714.15
606.26	1730.53
606.45	1771.49
606.64	1759.21
606.84	1656.81
607.03	1652.71
607.22	1722.34
607.41	1667.05
607.60	1734.63
607.80	1802.21
607.99	1665.00
608.18	1755.11
608.37	1740.77
608.56	1718.25
608.76	1728.49
608.95	1916.90
609.14	1714.15
609.33	1767.40
609.52	1828.84
609.72	1775.59
609.91	1816.55
610.10	1720.29
610.29	1691.62
610.48	1759.21
610.68	1716.20
610.87	1765.35
611.06	1802.21
611.25	1826.79
611.44	1765.35
611.63	1675.24
611.83	1783.78
612.02	1722.34
612.21	1777.64
612.40	1685.48
612.59	1722.34
612.79	1720.29
612.98	1722.34
613.17	1851.36
613.36	1728.49
613.55	1808.36
613.74	1667.05
613.93	1697.77
614.13	1779.68
614.32	1673.19
614.51	1746.92
614.70	1609.70
614.89	1654.76
615.08	1814.50
615.28	2115.55
615.47	1699.81
615.66	1751.01
615.85	1724.39
616.04	1796.07
616.23	1720.29
616.42	1681.38
616.62	1726.44
616.81	1820.64
617.00	1773.54
617.19	1722.34
617.38	1671.14
617.57	1722.34
617.76	1687.53
617.95	1779.68
618.15	1748.97
618.34	1746.92
618.53	1671.14
618.72	1781.73
618.91	1769.44
619.10	1763.30
619.29	1656.81
619.48	1761.25
619.68	1675.24
619.87	1669.09
620.06	1665.00
620.25	1757.16
620.44	1734.63
620.63	1765.35
620.82	1683.43
621.01	1705.96
621.20	1783.78
621.39	1771.49
621.59	1769.44
621.78	1665.00
621.97	1718.25
622.16	1767.40
622.35	1740.77
622.54	1789.92
622.73	1738.73
622.92	1609.70
623.11	1781.73
623.30	1738.73
623.49	1816.55
623.68	1738.73
623.88	1701.86
624.07	1701.86
624.26	1695.72
624.45	1716.20
624.64	1695.72
624.83	1638.38
625.02	1730.53
625.21	1689.57
625.40	1650.66
625.59	1779.68
625.78	1705.96
625.97	1761.25
626.16	1755.11
626.35	1785.83
626.54	1767.40
626.74	1796.07
626.93	1644.52
627.12	1685.48
627.31	1800.16
627.50	1759.21
627.69	1757.16
627.88	1638.38
628.07	1638.38
628.26	1619.94
628.45	1691.62
628.64	1703.91
628.83	1748.97
629.02	1683.43
629.21	1794.02
629.40	1730.53
629.59	1626.09
629.78	1613.80
629.97	1759.21
630.16	1624.04
630.35	1708.01
630.54	1687.53
630.73	1648.61
630.92	1769.44
631.11	1703.91
631.30	1810.40
631.49	1779.68
631.68	1716.20
631.87	1730.53
632.06	1671.14
632.25	1849.32
632.44	1667.05
632.63	1665.00
632.82	1650.66
633.01	1730.53
633.20	1691.62
633.39	1726.44
633.58	1642.47
633.77	1660.90
633.96	1675.24
634.15	1806.31
634.34	1753.06
634.53	1751.01
634.72	1662.95
634.91	1693.67
635.10	1734.63
635.29	1777.64
635.48	1665.00
635.67	1697.77
635.86	1646.57
636.05	1771.49
636.24	1740.77
636.43	1742.82
636.62	1705.96
636.81	1542.12
637.00	1724.39
637.19	1732.58
637.38	1746.92
637.57	1708.01
637.76	1650.66
637.95	1751.01
638.14	1642.47
638.33	1769.44
638.52	1720.29
638.71	1665.00
638.89	1665.00
639.08	1859.56
639.27	1755.11
639.46	1673.19
639.65	1781.73
639.84	1794.02
640.03	1748.97
640.22	1714.15
640.41	1861.60
640.60	1714.15
640.79	1708.01
640.98	1742.82
641.17	1816.55
641.36	1763.30
641.55	1701.86
641.74	1689.57
641.92	1638.38
642.11	1730.53
642.30	1675.24
642.49	1662.95
642.68	1705.96
642.87	1701.86
643.06	1779.68
643.25	1640.42
643.44	1669.09
643.63	1738.73
643.82	1767.40
644.00	1685.48
644.19	1779.68
644.38	1605.61
644.57	1771.49
644.76	1712.10
644.95	1640.42
645.14	1689.57
645.33	1642.47
645.52	1746.92
645.71	1634.28
645.89	1679.33
646.08	1779.68
646.27	1679.33
646.46	1877.99
646.65	1607.66
646.84	1746.92
647.03	1624.04
647.22	1767.40
647.40	1791.97
647.59	1681.38
647.78	1671.14
647.97	1703.91
648.16	1665.00
648.35	1904.61
648.54	1763.30
648.73	1705.96
648.91	1804.26
649.10	1697.77
649.29	1703.91
649.48	1687.53
649.67	1691.62
649.86	1689.57
650.05	1640.42
650.23	1755.11
650.42	1601.51
650.61	1685.48
650.80	1738.73
650.99	1748.97
651.18	1832.93
651.36	1708.01
651.55	1681.38
651.74	1738.73
651.93	1748.97
652.12	1673.19
652.31	1714.15
652.49	1640.42
652.68	1669.09
652.87	1724.39
653.06	1716.20
653.25	1820.64
653.44	1718.25
653.62	1746.92
653.81	1738.73
654.00	1734.63
654.19	1718.25
654.38	1853.41
654.56	1761.25
654.75	1740.77
654.94	1742.82
655.13	1681.38
655.32	1638.38
655.51	1816.55
655.69	1734.63
655.88	1796.07
656.07	1730.53
656.26	1828.84
656.45	1665.00
656.63	1724.39
656.82	1710.05
657.01	1746.92
657.20	1658.85
657.38	1810.40
657.57	1697.77
657.76	1683.43
657.95	1728.49
658.14	1603.56
658.32	1746.92
658.51	1617.90
658.70	1742.82
658.89	1681.38
659.08	1662.95
659.26	1755.11
659.45	1640.42
659.64	1771.49
659.83	1605.61
660.01	1902.56
660.20	1730.53
660.39	1814.50
660.58	1544.17
660.76	1787.88
660.95	1630.18
661.14	1617.90
661.33	1671.14
661.51	1656.81
661.70	1671.14
661.89	1726.44
662.08	1716.20
662.26	1667.05
662.45	1636.33
662.64	1789.92
662.83	1724.39
663.01	1640.42
663.20	1710.05
663.39	1804.26
663.58	1705.96
663.76	1689.57
663.95	1742.82
664.14	1734.63
664.32	1716.20
664.51	1681.38
664.70	1628.14
664.89	1734.63
665.07	1665.00
665.26	1816.55
665.45	1665.00
665.64	1748.97
665.82	1718.25
666.01	1738.73
666.20	1656.81
666.38	1779.68
666.57	1720.29
666.76	2156.51
666.95	4386.75
667.13	10258.28
667.32	15460.12
667.51	17798.90
667.69	19007.20
667.88	18007.79
668.07	12658.49
668.25	9621.36
668.44	8175.49
668.63	7255.95
668.81	6969.24
669.00	6195.11
669.19	5799.85
669.38	5203.89
669.56	4589.50
669.75	4028.35
669.94	3368.91
670.12	2924.50
670.31	2512.86
670.50	2209.76
670.68	2080.74
670.87	1916.90
671.06	1777.64
671.24	1824.74
671.43	1820.64
671.62	1705.96
671.80	1761.25
671.99	1728.49
672.18	1785.83
672.36	1697.77
672.55	1720.29
672.74	1699.81
672.92	1748.97
673.11	1714.15
673.29	1648.61
673.48	1789.92
673.67	1701.86
673.85	1708.01
674.04	1724.39
674.23	1722.34
674.41	1849.32
674.60	1656.81
674.79	1619.94
674.97	1705.96
675.16	1679.33
675.34	1775.59
675.53	1689.57
675.72	1822.69
675.90	1837.03
676.09	1652.71
676.28	1658.85
676.46	1667.05
676.65	1708.01
676.83	1720.29
677.02	1738.73
677.21	1705.96
677.39	1708.01
677.58	1681.38
677.77	1613.80
677.95	1683.43
678.14	1677.29
678.32	1697.77
678.51	1683.43
678.70	1851.36
678.88	1712.10
679.07	1804.26
679.25	1697.77
679.44	1669.09
679.63	1583.08
679.81	1675.24
680.00	1759.21
680.18	1730.53
680.37	1779.68
680.55	1677.29
680.74	1607.66
680.93	1603.56
681.11	1740.77
681.30	1722.34
681.48	1722.34
681.67	1781.73
681.85	1705.96
682.04	1646.57
682.23	1751.01
682.41	1710.05
682.60	1675.24
682.78	1781.73
682.97	1720.29
683.15	1775.59
683.34	1718.25
683.53	1775.59
683.71	1697.77
683.90	1828.84
684.08	1720.29
684.27	1714.15
684.45	1796.07
684.64	1796.07
684.82	1753.06
685.01	1777.64
685.19	1712.10
685.38	1796.07
685.57	1728.49
685.75	1724.39
685.94	1630.18
686.12	1748.97
686.31	1708.01
686.49	1783.78
686.68	1673.19
686.86	1697.77
687.05	1687.53
687.23	1779.68
687.42	1691.62
687.60	1628.14
687.79	1789.92
687.97	1705.96
688.16	1656.81
688.34	1794.02
688.53	1607.66
688.71	1740.77
688.90	1851.36
689.08	1685.48
689.27	1662.95
689.45	1728.49
689.64	1763.30
689.82	1708.01
690.01	1759.21
690.19	1732.58
690.38	1677.29
690.56	1789.92
690.75	1695.72
690.93	1679.33
691.12	1665.00
691.30	1675.24
691.49	1613.80
691.67	1714.15
691.86	1822.69
692.04	1667.05
692.23	1658.85
692.41	1736.68
692.60	1771.49
692.78	1718.25
692.97	1640.42
693.15	1705.96
693.34	1841.12
693.52	1791.97
693.71	1720.29
693.89	1673.19
694.08	1660.90
694.26	1763.30
694.44	1726.44
694.63	1744.87
694.81	1701.86
695.00	1677.29
695.18	1798.12
695.37	1812.45
695.55	1701.86
695.74	1648.61
695.92	1650.66
696.10	1832.93
696.29	1656.81
696.47	1671.14
696.66	1689.57
696.84	1681.38
697.03	1710.05
697.21	1845.22
697.40	2314.20
697.58	1753.06
697.76	1742.82
697.95	1716.20
698.13	1591.27
698.32	1689.57
698.50	1595.37
698.68	1705.96
698.87	1751.01
699.05	1861.60
699.24	1822.69
699.42	1699.81
699.61	1765.35
699.79	1763.30
699.97	1697.77
700.16	1683.43
700.34	1656.81
700.53	1667.05
700.71	1783.78
700.89	1695.72
701.08	1669.09
701.26	1722.34
701.45	2076.64
701.63	1621.99
701.81	1683.43
702.00	1628.14
702.18	1683.43
702.37	1669.09
702.55	1740.77
702.73	1658.85
702.92	1644.52
703.10	1742.82
703.28	1761.25
703.47	1697.77
703.65	1736.68
703.84	1746.92
704.02	1650.66
704.20	1705.96
704.39	1658.85
704.57	1708.01
704.75	1787.88
704.94	1820.64
705.12	1783.78
705.30	1867.75
705.49	2172.89
705.67	4417.47
705.86	9312.11
706.04	12750.65
706.22	14739.23
706.41	15453.97
706.59	13893.42
706.77	9877.35
706.96	7313.30
707.14	6692.76
707.32	6000.55
707.51	5545.90
707.69	4951.99
707.87	4229.06
708.06	3598.28
708.24	2944.98
708.42	2455.51
708.61	2191.33
708.79	1880.04
708.97	1837.03
709.16	1818.60
709.34	1767.40
709.52	1759.21
709.71	1732.58
709.89	1800.16
710.07	1681.38
710.26	1703.91
710.44	1701.86
710.62	1730.53
710.80	1730.53
710.99	1783.78
711.17	1789.92
711.35	1667.05
711.54	1671.14
711.72	1851.36
711.90	1695.72
712.09	1746.92
712.27	1660.90
712.45	1789.92
712.63	1693.67
712.82	1751.01
713.00	1724.39
713.18	1769.44
713.37	1740.77
713.55	1757.16
713.73	1705.96
713.91	1771.49
714.10	1603.56
714.28	1773.54
714.46	1734.63
714.65	1685.48
714.83	1718.25
715.01	1720.29
715.19	1710.05
715.38	1685.48
715.56	1738.73
715.74	1640.42
715.92	1630.18
716.11	1724.39
716.29	1581.03
716.47	1740.77
716.65	1718.25
716.84	1587.18
717.02	1775.59
717.20	1548.26
717.38	1640.42
717.57	1779.68
717.75	1701.86
717.93	1748.97
718.11	1718.25
718.30	1652.71
718.48	1705.96
718.66	1722.34
718.84	1738.73
719.03	1701.86
719.21	1675.24
719.39	1785.83
719.57	1720.29
719.75	1839.08
719.94	1652.71
720.12	1687.53
720.30	1789.92
720.48	1687.53
720.67	1632.23
720.85	1697.77
721.03	1712.10
721.21	1691.62
721.39	1763.30
721.58	1712.10
721.76	1710.05
721.94	1759.21
722.12	1681.38
722.30	1822.69
722.49	1742.82
722.67	1695.72
722.85	1665.00
723.03	1589.22
723.21	1628.14
723.40	1701.86
723.58	1744.87
723.76	1685.48
723.94	1796.07
724.12	1701.86
724.30	1779.68
724.49	1669.09
724.67	1673.19
724.85	1777.64
725.03	1605.61
725.21	1714.15
725.40	1773.54
725.58	1748.97
725.76	1738.73
725.94	1673.19
726.12	1724.39
726.30	1730.53
726.49	1726.44
726.67	1714.15
726.85	1755.11
727.03	1824.74
727.21	2115.55
727.39	2889.68
727.57	3723.21
727.76	4288.45
727.94	4552.63
728.12	4476.86
728.30	3631.05
728.48	3043.28
728.66	2715.61
728.84	2490.33
729.03	2263.01
729.21	2093.02
729.39	1988.58
729.57	1748.97
729.75	1781.73
729.93	1851.36
730.11	1773.54
730.30	1669.09
730.48	1667.05
730.66	1865.70
730.84	1789.92
731.02	1685.48
731.20	1646.57
731.38	1722.34
731.56	1644.52
731.74	1611.75
731.93	1687.53
732.11	1665.00
732.29	1724.39
732.47	1603.56
732.65	1736.68
732.83	1812.45
733.01	1769.44
733.19	1654.76
733.37	1773.54
733.56	1705.96
733.74	1640.42
733.92	1714.15
734.10	1642.47
734.28	1714.15
734.46	1613.80
734.64	1665.00
734.82	1724.39
735.00	1656.81
735.18	1718.25
735.36	1654.76
735.54	1714.15
735.73	1677.29
735.91	1730.53
736.09	1775.59
736.27	1640.42
736.45	1679.33
736.63	1609.70
736.81	1658.85
736.99	1761.25
737.17	1746.92
737.35	1640.42
737.53	1611.75
737.71	1677.29
737.89	1794.02
738.07	1648.61
738.25	1683.43
738.43	1632.23
738.61	1673.19
738.80	1689.57
738.98	1648.61
739.16	1671.14
739.34	1742.82
739.52	1847.27
739.70	1681.38
739.88	1732.58
740.06	1775.59
740.24	1617.90
740.42	1751.01
740.60	1650.66
740.78	1689.57
740.96	1611.75
741.14	1642.47
741.32	1677.29
741.50	1540.07
741.68	1865.70
741.86	1705.96
742.04	1683.43
742.22	1673.19
742.40	1714.15
742.58	1746.92
742.76	1583.08
742.94	1810.40
743.12	1529.83
743.30	1734.63
743.48	1705.96
743.66	1718.25
743.84	1630.18
744.02	1673.19
744.20	1703.91
744.38	1636.33
744.56	1660.90
744.74	1886.18
744.92	1736.68
745.10	1791.97
745.28	1787.88
745.46	1767.40
745.64	1748.97
745.82	1771.49
746.00	1681.38
746.18	1712.10
746.36	1636.33
746.54	1763.30
746.72	1705.96
746.90	1609.70
747.08	1783.78
747.26	1736.68
747.44	1751.01
747.62	1726.44
747.80	1697.77
747.98	1742.82
748.15	1689.57
748.33	1761.25
748.51	1675.24
748.69	1763.30
748.87	1638.38
749.05	1738.73
749.23	1689.57
749.41	1757.16
749.59	1726.44
749.77	1781.73
749.95	1554.41
750.13	1669.09
750.31	1703.91
750.49	1679.33
750.67	1808.36
750.85	1828.84
751.03	1718.25
751.20	1839.08
751.38	1726.44
751.56	1705.96
751.74	1730.53
751.92	1660.90
752.10	1685.48
752.28	1841.12
752.46	1671.14
752.64	1669.09
752.82	1646.57
753.00	1755.11
753.18	1619.94
753.35	1718.25
753.53	1740.77
753.71	1665.00
753.89	1759.21
754.07	1738.73
754.25	1775.59
754.43	1794.02
754.61	1628.14
754.79	1798.12
754.97	1644.52
755.14	1789.92
755.32	1642.47
755.50	1617.90
755.68	1755.11
755.86	1677.29
756.04	1738.73
756.22	1578.98
756.40	1783.78
756.57	1806.31
756.75	1705.96
756.93	1791.97
757.11	1775.59
757.29	1613.80
757.47	1681.38
757.65	1683.43
757.82	1535.98
758.00	1632.23
758.18	1683.43
758.36	1613.80
758.54	1734.63
758.72	1654.76
758.90	1710.05
759.07	1705.96
759.25	1648.61
759.43	1699.81
759.61	1652.71
759.79	2197.47
759.97	1779.68
760.15	1640.42
760.32	1675.24
760.50	1683.43
760.68	1837.03
760.86	1628.14
761.04	1693.67
761.22	1701.86
761.39	1730.53
761.57	1783.78
761.75	1703.91
761.93	1708.01
762.11	1673.19
762.28	1583.08
762.46	1638.38
762.64	1697.77
762.82	1585.13
763.00	1665.00
763.18	1847.27
763.35	1585.13
763.53	1730.53
763.71	1720.29
763.89	1755.11
764.07	1628.14
764.24	1632.23
764.42	1804.26
764.60	1667.05
764.78	1740.77
764.96	1781.73
765.13	1669.09
765.31	1642.47
765.49	1791.97
765.67	1685.48
765.84	1703.91
766.02	1638.38
766.20	1660.90
766.38	1724.39
766.56	1787.88
766.73	1773.54
766.91	1714.15
767.09	1718.25
767.27	1773.54
767.44	1683.43
767.62	1763.30
767.80	1710.05
767.98	1660.90
768.15	1720.29
768.33	1769.44
768.51	1718.25
768.69	1697.77
768.87	1705.96
769.04	1728.49
769.22	1775.59
769.40	1767.40
769.58	1839.08
769.75	1712.10
769.93	1806.31
770.11	1689.57
770.28	1726.44
770.46	1722.34
770.64	1753.06
770.82	1691.62
770.99	1763.30
771.17	1677.29
771.35	1642.47
771.53	1708.01
771.70	1685.48
771.88	1761.25
772.06	1669.09
772.23	1710.05
772.41	1775.59
772.59	1662.95
772.77	1595.37
772.94	1728.49
773.12	1697.77
773.30	1691.62
773.47	1685.48
773.65	1738.73
773.83	1822.69
774.01	1697.77
774.18	1538.02
774.36	1650.66
774.54	1669.09
774.71	1761.25
774.89	1609.70
775.07	1570.79
775.24	1644.52
775.42	1660.90
775.60	1820.64
775.78	1665.00
775.95	1609.70
776.13	1597.42
776.31	1593.32
776.48	1685.48
776.66	1757.16
776.84	1660.90
777.01	1738.73
777.19	1599.46
777.37	1640.42
777.54	1705.96
777.72	1904.61
777.90	1701.86
778.07	1609.70
778.25	1855.46
778.43	1738.73
778.60	1712.10
778.78	1722.34
778.96	1730.53
779.13	1726.44
779.31	1728.49
779.49	1701.86
779.66	1759.21
779.84	1646.57
780.01	1697.77
780.19	1677.29
780.37	1714.15
780.54	1757.16
780.72	1615.85
780.90	1648.61
781.07	1710.05
781.25	1697.77
781.43	1708.01
781.60	1724.39
781.78	1798.12
781.95	1710.05
782.13	1621.99
782.31	1724.39
782.48	1613.80
782.66	1746.92
782.83	1832.93
783.01	1734.63
783.19	1751.01
783.36	1697.77
783.54	1665.00
783.72	1781.73
783.89	1714.15
784.07	1650.66
784.24	1757.16
784.42	1843.17
784.60	1703.91
784.77	1718.25
784.95	1632.23
785.12	1617.90
785.30	1634.28
785.47	1667.05
785.65	1669.09
785.83	1642.47
786.00	1681.38
786.18	1734.63
786.35	1619.94
786.53	1693.67
786.71	1720.29
786.88	1761.25
787.06	1753.06
787.23	1753.06
787.41	1632.23
787.58	1736.68
787.76	1652.71
787.94	1667.05
788.11	1716.20
788.29	1671.14
788.46	1652.71
788.64	1587.18
788.81	1640.42
788.99	1648.61
789.16	1662.95
789.34	1740.77
789.52	1693.67
789.69	1703.91
789.87	1621.99
790.04	1650.66
790.22	1705.96
790.39	1818.60
790.57	1738.73
790.74	1640.42
790.92	1679.33
791.09	1595.37
791.27	1703.91
791.44	1728.49
791.62	1660.90
791.79	1796.07
791.97	1689.57
792.15	1853.41
792.32	1718.25
792.50	1726.44
792.67	1847.27
792.85	1789.92
793.02	1722.34
793.20	1740.77
793.37	1689.57
793.55	1738.73
793.72	1681.38
793.90	1748.97
794.07	1671.14
794.25	1689.57
794.42	1740.77
794.60	1732.58
794.77	1673.19
794.95	1716.20
795.12	1722.34
795.30	1691.62
795.47	1658.85
795.65	1859.56
795.82	1775.59
796.00	1662.95
796.17	1648.61
796.34	1701.86
796.52	1685.48
796.69	1718.25
796.87	1771.49
797.04	1650.66
797.22	1746.92
797.39	1685.48
797.57	1787.88
797.74	1738.73
797.92	1677.29
798.09	1685.48
798.27	1742.82
798.44	1642.47
798.62	1675.24
798.79	1775.59
798.96	1677.29
799.14	1718.25
799.31	1816.55
799.49	1716.20
799.66	1603.56
799.84	1708.01
800.01	1607.66
800.19	1722.34
800.36	1628.14
800.53	1624.04
800.71	1681.38
800.88	1822.69
801.06	1675.24
801.23	1638.38
801.41	1665.00
801.58	1648.61
801.75	1718.25
801.93	1708.01
802.10	1742.82
802.28	1679.33
802.45	1781.73
802.63	1675.24
802.80	1740.77
802.97	1687.53
803.15	1681.38
803.32	1730.53
803.50	1669.09
803.67	1660.90
803.84	1617.90
804.02	1705.96
804.19	1759.21
804.37	1595.37
804.54	1560.55
804.71	1652.71
804.89	1718.25
805.06	1724.39
805.24	1621.99
805.41	1699.81
805.58	1689.57
805.76	1722.34
805.93	1683.43
806.10	1826.79
806.28	1763.30
806.45	1748.97
806.63	1720.29
806.80	1767.40
806.97	1675.24
807.15	1677.29
807.32	1708.01
807.49	1669.09
807.67	1589.22
807.84	1718.25
808.01	1697.77
808.19	1765.35
808.36	1728.49
808.54	1714.15
808.71	1683.43
808.88	1652.71
809.06	1783.78
809.23	1755.11
809.40	1638.38
809.58	1828.84
809.75	1703.91
809.92	1689.57
810.10	1845.22
810.27	1767.40
810.44	1734.63
810.62	1710.05
810.79	1755.11
810.96	1654.76
811.14	1681.38
811.31	1712.10
811.48	1777.64
811.66	1734.63
811.83	1787.88
812.00	1753.06
812.18	1728.49
812.35	1839.08
812.52	1638.38
812.69	1701.86
812.87	1634.28
813.04	1656.81
813.21	1650.66
813.39	1648.61
813.56	1607.66
813.73	1732.58
813.91	1652.71
814.08	1701.86
814.25	1791.97
814.42	1691.62
814.60	1636.33
814.77	1701.86
814.94	1720.29
815.12	1718.25
815.29	1710.05
815.46	1705.96
815.63	1642.47
815.81	1671.14
815.98	1669.09
816.15	1710.05
816.33	1712.10
816.50	1669.09
816.67	1667.05
816.84	1609.70
817.02	1658.85
817.19	1718.25
817.36	1685.48
817.53	1742.82
817.71	1681.38
817.88	1726.44
818.05	1746.92
818.22	1675.24
818.40	1775.59
818.57	1695.72
818.74	1701.86
818.91	1626.09
819.09	1785.83
819.26	1771.49
819.43	1609.70
819.60	1761.25
819.78	1757.16
819.95	1669.09
820.12	1609.70
820.29	1718.25
820.47	1812.45
820.64	1673.19
820.81	1595.37
820.98	1638.38
821.15	1671.14
821.33	1681.38
821.50	1628.14
821.67	1730.53
821.84	1630.18
822.02	1738.73
822.19	1642.47
822.36	1621.99
822.53	1734.63
822.70	1632.23
822.88	1701.86
823.05	1753.06
823.22	1701.86
823.39	1738.73
823.56	1703.91
823.74	1783.78
823.91	1615.85
824.08	1652.71
824.25	1628.14
824.42	1697.77
824.60	1677.29
824.77	1738.73
824.94	1642.47
825.11	1755.11
825.28	1603.56
825.45	1681.38
825.63	1669.09
825.80	1626.09
825.97	1761.25
826.14	1720.29
826.31	1699.81
826.48	1800.16
826.66	1660.90
826.83	1691.62
827.00	1662.95
827.17	1572.84
827.34	1687.53
827.51	1654.76
827.69	1681.38
827.86	1570.79
828.03	1669.09
828.20	1681.38
828.37	1691.62
828.54	1695.72
828.71	1662.95
828.89	1755.11
829.06	1714.15
829.23	1716.20
829.40	1628.14
829.57	1615.85
829.74	1712.10
829.91	1685.48
830.09	1693.67
830.26	1626.09
830.43	1753.06
830.60	1703.91
830.77	1730.53
830.94	1822.69
831.11	1736.68
831.28	1718.25
831.46	1744.87
831.63	1636.33
831.80	1832.93
831.97	1642.47
832.14	1712.10
832.31	1673.19
832.48	1765.35
832.65	1744.87
832.82	1673.19
832.99	1689.57
833.17	1665.00
833.34	1703.91
833.51	1740.77
833.68	1535.98
833.85	1718.25
834.02	1636.33
834.19	1703.91
834.36	1583.08
834.53	1705.96
834.70	1730.53
834.87	1683.43
835.04	1687.53
835.22	1644.52
835.39	1746.92
835.56	1615.85
835.73	1611.75
835.90	1777.64
836.07	1669.09
836.24	1683.43
836.41	1607.66
836.58	1605.61
836.75	1771.49
836.92	1650.66
837.09	1632.23
837.26	1771.49
837.43	1615.85
837.60	1728.49
837.77	1603.56
837.94	1740.77
838.12	1695.72
838.29	1722.34
838.46	1646.57
838.63	1716.20
838.80	1765.35
838.97	1685.48
839.14	1662.95
839.31	1669.09
839.48	1736.68
839.65	1689.57
839.82	1710.05
839.99	1732.58
840.16	1662.95
840.33	1689.57
840.50	1783.78
840.67	1638.38
840.84	1576.94
841.01	1683.43
841.18	1611.75
841.35	1703.91
841.52	1681.38
841.69	1785.83
841.86	1708.01
842.03	1679.33
842.20	1722.34
842.37	1654.76
842.54	1669.09
842.71	1658.85
842.88	1652.71
843.05	1822.69
843.22	1691.62
843.39	1718.25
843.56	1675.24
843.73	1673.19
843.90	1740.77
844.07	1746.92
844.24	1691.62
844.41	1808.36
844.58	1652.71
844.75	1720.29
844.92	1744.87
845.09	1738.73
845.26	1578.98
845.43	1746.92
845.60	1681.38
845.77	1708.01
845.94	1716.20
846.10	1722.34
846.27	1679.33
846.44	1591.27
846.61	1642.47
846.78	1708.01
846.95	1685.48
847.12	1644.52
847.29	1683.43
847.46	1632.23
847.63	1785.83
847.80	1665.00
847.97	1640.42
848.14	1812.45
848.31	1724.39
848.48	1636.33
848.65	1740.77
848.82	1710.05
848.98	1896.42
849.15	1716.20
849.32	1744.87
849.49	1771.49
849.66	1650.66
849.83	1701.86
850.00	1621.99
850.17	1714.15
850.34	1685.48
850.51	1615.85
850.68	1587.18
850.85	1738.73
851.01	1748.97
851.18	1689.57
851.35	1669.09
851.52	1771.49
851.69	1732.58
851.86	1642.47
852.03	1654.76
852.20	1759.21
852.37	1738.73
852.53	1525.74
852.70	1660.90
852.87	1667.05
853.04	1736.68
853.21	1693.67
853.38	1791.97
853.55	1779.68
853.72	1673.19
853.89	1701.86
854.05	1685.48
854.22	1656.81
854.39	1683.43
854.56	1685.48
854.73	1773.54
854.90	1562.60
855.07	1640.42
855.23	1742.82
855.40	1689.57
855.57	1636.33
855.74	1626.09
855.91	1841.12
856.08	1636.33
856.25	1685.48
856.41	1673.19
856.58	1662.95
856.75	1710.05
856.92	1669.09
857.09	1726.44
857.26	1591.27
857.42	1636.33
857.59	1650.66
857.76	1693.67
857.93	1732.58
858.10	1697.77
858.27	1589.22
858.43	1703.91
858.60	1701.86
858.77	1605.61
858.94	1683.43
859.11	1742.82
859.27	1665.00
859.44	1634.28
859.61	1759.21
859.78	1738.73
859.95	1722.34
860.12	1679.33
860.28	1880.04
860.45	1789.92
860.62	1695.72
860.79	1734.63
860.95	1732.58
861.12	1755.11
861.29	1650.66
861.46	1697.77
861.63	1751.01
861.79	1681.38
861.96	1695.72
862.13	1642.47
862.30	1736.68
862.47	1683.43
862.63	1746.92
862.80	1728.49
862.97	1769.44
863.14	1716.20
863.30	1730.53
863.47	1638.38
863.64	1767.40
863.81	1693.67
863.97	1734.63
864.14	1742.82
864.31	1587.18
864.48	1730.53
864.65	1689.57
864.81	1683.43
864.98	1746.92
865.15	1724.39
865.32	1710.05
865.48	1701.86
865.65	1697.77
865.82	1609.70
865.98	1718.25
866.15	1699.81
866.32	1667.05
866.49	1671.14
866.65	1746.92
866.82	1585.13
866.99	1732.58
867.16	1656.81
867.32	1658.85
867.49	1624.04
867.66	1656.81
867.83	1652.71
867.99	1708.01
868.16	1658.85
868.33	1705.96
868.49	1703.91
868.66	1667.05
868.83	1681.38
868.99	1665.00
869.16	1658.85
869.33	1748.97
869.50	1765.35
869.66	1675.24
869.83	1626.09
870.00	1626.09
870.16	1716.20
870.33	1636.33
870.50	1714.15
870.66	1683.43
870.83	1884.13
871.00	1722.34
871.17	1753.06
871.33	1693.67
871.50	1693.67
871.67	1671.14
871.83	1624.04
872.00	1861.60
872.17	1687.53
872.33	1777.64
872.50	1718.25
872.67	1658.85
872.83	1699.81
873.00	1767.40
873.17	1671.14
873.33	1695.72
873.50	1628.14
873.67	1589.22
873.83	1642.47
874.00	1693.67
874.16	1791.97
874.33	1748.97
874.50	1722.34
874.66	1740.77
874.83	1640.42
875.00	1767.40
875.16	1701.86
875.33	1804.26
875.50	1660.90
875.66	1701.86
875.83	1624.04
875.99	1722.34
876.16	1628.14
876.33	1601.51
876.49	1626.09
876.66	1689.57
876.83	1722.34
876.99	1624.04
877.16	1722.34
877.32	1757.16
877.49	1710.05
877.66	1787.88
877.82	1765.35
877.99	1646.57
878.15	1763.30
878.32	1634.28
878.49	1699.81
878.65	1726.44
878.82	1748.97
878.98	1665.00
879.15	1720.29
879.32	1804.26
879.48	1726.44
879.65	1654.76
879.81	1636.33
879.98	1673.19
880.15	1673.19
880.31	1652.71
880.48	1658.85
880.64	1791.97
880.81	1677.29
880.97	1757.16
881.14	1720.29
881.31	1636.33
881.47	1857.51
881.64	1658.85
881.80	1611.75
881.97	1732.58
882.13	1765.35
882.30	1671.14
882.47	1673.19
882.63	1595.37
882.80	1726.44
882.96	1683.43
883.13	1730.53
883.29	1650.66
883.46	1705.96
883.62	1783.78
883.79	1791.97
883.95	1714.15
884.12	1708.01
884.29	1697.77
884.45	1689.57
884.62	1738.73
884.78	1607.66
884.95	1748.97
885.11	1642.47
885.28	1722.34
885.44	1687.53
885.61	1638.38
885.77	1732.58
885.94	1769.44
886.10	1681.38
886.27	1738.73
886.43	1834.98
886.60	1720.29
886.76	1705.96
886.93	1708.01
887.09	1759.21
887.26	1638.38
887.42	1648.61
887.59	1761.25
887.75	1791.97
887.92	1791.97
888.08	1720.29
888.25	1828.84
888.41	1662.95
888.58	1720.29
888.74	1607.66
888.91	1683.43
>>>>>End Processed Spectral Data<<<<<
