SpectraSuite Data File
++++++++++++++++++++++++++++++++++++
Date: Mon Jun 06 13:45:57 CEST 2016
User: root
Dark Spectrum Present: No
Reference Spectrum Present: No
Number of Sampled Component Spectra: 1
Spectrometers: USB4C02835
Integration Time (usec): 100000 (USB4C02835)
Spectra Averaged: 1 (USB4C02835)
Boxcar Smoothing: 0 (USB4C02835)
Correct for Electrical Dark: No (USB4C02835)
Strobe/Lamp Enabled: No (USB4C02835)
Correct for Detector Non-linearity: No (USB4C02835)
Correct for Stray Light: No (USB4C02835)
Number of Pixels in Processed Spectrum: 3648
>>>>>Begin Processed Spectral Data<<<<<
177.47	1447.91
177.69	1447.91
177.91	1447.91
178.13	1470.44
178.36	1527.78
178.58	1673.19
178.80	1712.10
179.02	1626.09
179.24	1712.10
179.46	1685.48
179.68	1689.57
179.90	1705.96
180.13	1640.42
180.35	1644.52
180.57	1675.24
180.79	1804.26
181.01	1705.96
181.23	1789.92
181.45	1796.07
181.67	1673.19
181.90	1734.63
182.12	1685.48
182.34	1667.05
182.56	1691.62
182.78	1656.81
183.00	1763.30
183.22	1703.91
183.44	1550.31
183.66	1808.36
183.89	1724.39
184.11	1701.86
184.33	1779.68
184.55	1757.16
184.77	1712.10
184.99	1730.53
185.21	1636.33
185.43	1853.41
185.65	1601.51
185.87	1681.38
186.10	1810.40
186.32	1822.69
186.54	1697.77
186.76	1693.67
186.98	1691.62
187.20	1736.68
187.42	1671.14
187.64	1734.63
187.86	1748.97
188.08	1826.79
188.30	1675.24
188.52	1742.82
188.75	1712.10
188.97	1771.49
189.19	1705.96
189.41	1720.29
189.63	1748.97
189.85	1685.48
190.07	1652.71
190.29	1632.23
190.51	1656.81
190.73	1593.32
190.95	1701.86
191.17	1693.67
191.39	1619.94
191.61	1667.05
191.84	1640.42
192.06	1757.16
192.28	1701.86
192.50	1798.12
192.72	1734.63
192.94	1640.42
193.16	1732.58
193.38	1763.30
193.60	1656.81
193.82	1624.04
194.04	1710.05
194.26	1716.20
194.48	1738.73
194.70	1732.58
194.92	1697.77
195.14	1726.44
195.36	1691.62
195.58	1673.19
195.80	1650.66
196.02	1673.19
196.24	1693.67
196.46	1734.63
196.69	1673.19
196.91	1818.60
197.13	1656.81
197.35	1624.04
197.57	1781.73
197.79	1677.29
198.01	1736.68
198.23	1714.15
198.45	1746.92
198.67	1648.61
198.89	1755.11
199.11	1701.86
199.33	1691.62
199.55	1609.70
199.77	1781.73
199.99	1791.97
200.21	1718.25
200.43	1791.97
200.65	1648.61
200.87	1523.69
201.09	1748.97
201.31	1656.81
201.53	1693.67
201.75	1705.96
201.97	1712.10
202.19	1730.53
202.41	1771.49
202.63	1853.41
202.85	1785.83
203.07	1619.94
203.29	1615.85
203.51	1632.23
203.73	1632.23
203.95	1880.04
204.17	1677.29
204.39	1742.82
204.61	1685.48
204.83	1710.05
205.05	1738.73
205.27	1705.96
205.49	1781.73
205.71	1685.48
205.93	1673.19
206.15	1697.77
206.37	1742.82
206.59	1677.29
206.81	1585.13
207.03	1710.05
207.25	1638.38
207.47	1705.96
207.69	1667.05
207.91	1765.35
208.13	1767.40
208.34	1710.05
208.56	1542.12
208.78	1734.63
209.00	1726.44
209.22	1689.57
209.44	1718.25
209.66	1718.25
209.88	1738.73
210.10	1705.96
210.32	1708.01
210.54	1851.36
210.76	1705.96
210.98	1714.15
211.20	1587.18
211.42	1652.71
211.64	1718.25
211.86	1691.62
212.08	1759.21
212.30	1675.24
212.52	1724.39
212.74	1742.82
212.96	1724.39
213.17	1708.01
213.39	1679.33
213.61	1855.46
213.83	1642.47
214.05	1617.90
214.27	1714.15
214.49	1683.43
214.71	1712.10
214.93	1769.44
215.15	1746.92
215.37	1744.87
215.59	1701.86
215.81	1773.54
216.03	1763.30
216.24	1660.90
216.46	1671.14
216.68	1685.48
216.90	1761.25
217.12	1714.15
217.34	1679.33
217.56	1716.20
217.78	1781.73
218.00	1683.43
218.22	1693.67
218.44	1714.15
218.66	1722.34
218.87	1824.74
219.09	1687.53
219.31	1667.05
219.53	1779.68
219.75	1710.05
219.97	1689.57
220.19	1712.10
220.41	1705.96
220.63	1767.40
220.85	1681.38
221.06	1638.38
221.28	1685.48
221.50	1742.82
221.72	1736.68
221.94	1693.67
222.16	1718.25
222.38	1720.29
222.60	1796.07
222.82	1703.91
223.03	1724.39
223.25	1679.33
223.47	1679.33
223.69	1791.97
223.91	1730.53
224.13	1652.71
224.35	1677.29
224.57	1824.74
224.78	1677.29
225.00	1677.29
225.22	1652.71
225.44	1734.63
225.66	1722.34
225.88	1687.53
226.10	1767.40
226.32	1720.29
226.53	1769.44
226.75	1689.57
226.97	1679.33
227.19	1703.91
227.41	1742.82
227.63	1697.77
227.85	1605.61
228.06	1738.73
228.28	1708.01
228.50	1785.83
228.72	1650.66
228.94	1699.81
229.16	1599.46
229.37	1687.53
229.59	1685.48
229.81	1748.97
230.03	1730.53
230.25	1650.66
230.47	1615.85
230.69	1595.37
230.90	1812.45
231.12	1687.53
231.34	1697.77
231.56	1683.43
231.78	1636.33
232.00	1671.14
232.21	1669.09
232.43	1675.24
232.65	1570.79
232.87	1671.14
233.09	1595.37
233.30	1710.05
233.52	1738.73
233.74	1744.87
233.96	1652.71
234.18	1716.20
234.40	1689.57
234.61	1820.64
234.83	1671.14
235.05	1583.08
235.27	1800.16
235.49	1746.92
235.70	1710.05
235.92	1794.02
236.14	1734.63
236.36	1849.32
236.58	1619.94
236.79	1748.97
237.01	1697.77
237.23	1675.24
237.45	1763.30
237.67	1699.81
237.88	1767.40
238.10	1849.32
238.32	1681.38
238.54	1642.47
238.76	1728.49
238.97	1726.44
239.19	1568.74
239.41	1722.34
239.63	1746.92
239.85	1724.39
240.06	1724.39
240.28	1648.61
240.50	1746.92
240.72	1679.33
240.93	1673.19
241.15	1775.59
241.37	1724.39
241.59	1775.59
241.81	1738.73
242.02	1701.86
242.24	1712.10
242.46	1798.12
242.68	1585.13
242.89	1691.62
243.11	1705.96
243.33	1673.19
243.55	1597.42
243.76	1718.25
243.98	1724.39
244.20	1646.57
244.42	1697.77
244.64	1693.67
244.85	1644.52
245.07	1685.48
245.29	1695.72
245.51	1802.21
245.72	1705.96
245.94	1734.63
246.16	1656.81
246.38	1746.92
246.59	1669.09
246.81	1673.19
247.03	1662.95
247.24	1513.45
247.46	1679.33
247.68	1677.29
247.90	1714.15
248.11	1656.81
248.33	1804.26
248.55	1757.16
248.77	1697.77
248.98	1740.77
249.20	1806.31
249.42	1738.73
249.64	1708.01
249.85	1738.73
250.07	1615.85
250.29	1753.06
250.50	1789.92
250.72	1609.70
250.94	1681.38
251.16	1777.64
251.37	1742.82
251.59	1740.77
251.81	1726.44
252.02	1787.88
252.24	1599.46
252.46	1708.01
252.68	1640.42
252.89	1673.19
253.11	1550.31
253.33	1828.84
253.54	1738.73
253.76	1601.51
253.98	1632.23
254.20	1640.42
254.41	1642.47
254.63	1656.81
254.85	1687.53
255.06	1738.73
255.28	1705.96
255.50	1691.62
255.71	1589.22
255.93	1615.85
256.15	1632.23
256.36	1732.58
256.58	1675.24
256.80	1730.53
257.02	1669.09
257.23	1654.76
257.45	1638.38
257.67	1681.38
257.88	1658.85
258.10	1701.86
258.32	1712.10
258.53	1705.96
258.75	1773.54
258.97	1652.71
259.18	1658.85
259.40	1716.20
259.62	1736.68
259.83	1789.92
260.05	1701.86
260.27	1984.48
260.48	1685.48
260.70	1603.56
260.92	1621.99
261.13	1724.39
261.35	1714.15
261.57	1863.65
261.78	1624.04
262.00	1574.89
262.22	1806.31
262.43	1667.05
262.65	1734.63
262.86	1658.85
263.08	1761.25
263.30	1693.67
263.51	1597.42
263.73	1646.57
263.95	1810.40
264.16	1650.66
264.38	1669.09
264.60	1720.29
264.81	1632.23
265.03	1703.91
265.25	1751.01
265.46	1662.95
265.68	1755.11
265.89	1677.29
266.11	1630.18
266.33	1734.63
266.54	1761.25
266.76	1699.81
266.98	1779.68
267.19	1744.87
267.41	1689.57
267.62	1578.98
267.84	1554.41
268.06	1744.87
268.27	1708.01
268.49	1798.12
268.70	1785.83
268.92	1673.19
269.14	1691.62
269.35	1607.66
269.57	1613.80
269.79	1685.48
270.00	1652.71
270.22	1742.82
270.43	1642.47
270.65	1574.89
270.87	1759.21
271.08	1730.53
271.30	1738.73
271.51	1689.57
271.73	1640.42
271.95	1748.97
272.16	1730.53
272.38	1691.62
272.59	1576.94
272.81	1607.66
273.02	1685.48
273.24	1685.48
273.46	1781.73
273.67	1722.34
273.89	1607.66
274.10	1714.15
274.32	1724.39
274.54	1626.09
274.75	1742.82
274.97	1591.27
275.18	1769.44
275.40	1791.97
275.61	1673.19
275.83	1662.95
276.05	1597.42
276.26	1726.44
276.48	1685.48
276.69	1701.86
276.91	1599.46
277.12	1841.12
277.34	1712.10
277.55	1767.40
277.77	1736.68
277.99	1687.53
278.20	1648.61
278.42	1656.81
278.63	1640.42
278.85	1593.32
279.06	1654.76
279.28	1744.87
279.49	1701.86
279.71	1802.21
279.93	1656.81
280.14	1654.76
280.36	1681.38
280.57	1722.34
280.79	1746.92
281.00	1716.20
281.22	1644.52
281.43	1759.21
281.65	1681.38
281.86	1578.98
282.08	1773.54
282.29	1759.21
282.51	1644.52
282.73	1673.19
282.94	1597.42
283.16	1736.68
283.37	1775.59
283.59	1662.95
283.80	1726.44
284.02	1738.73
284.23	1738.73
284.45	1650.66
284.66	1624.04
284.88	1710.05
285.09	1660.90
285.31	1708.01
285.52	1685.48
285.74	1669.09
285.95	1730.53
286.17	1755.11
286.38	1736.68
286.60	1589.22
286.81	1697.77
287.03	1626.09
287.24	1730.53
287.46	1746.92
287.67	1716.20
287.89	1894.37
288.10	1656.81
288.32	1718.25
288.53	1804.26
288.75	1769.44
288.96	1755.11
289.18	1669.09
289.39	1681.38
289.61	1669.09
289.82	1816.55
290.04	1857.51
290.25	1605.61
290.47	1757.16
290.68	1718.25
290.90	1767.40
291.11	1669.09
291.33	1685.48
291.54	1677.29
291.76	1640.42
291.97	1703.91
292.18	1753.06
292.40	1761.25
292.61	1638.38
292.83	1834.98
293.04	1697.77
293.26	1708.01
293.47	1552.36
293.69	1642.47
293.90	1683.43
294.12	1738.73
294.33	1685.48
294.55	1710.05
294.76	1724.39
294.97	1773.54
295.19	1808.36
295.40	1681.38
295.62	1722.34
295.83	1746.92
296.05	1705.96
296.26	1742.82
296.48	1626.09
296.69	1705.96
296.90	1597.42
297.12	1783.78
297.33	1753.06
297.55	1699.81
297.76	1724.39
297.98	1718.25
298.19	1619.94
298.41	1644.52
298.62	1632.23
298.83	1769.44
299.05	1771.49
299.26	1685.48
299.48	1701.86
299.69	1746.92
299.90	1658.85
300.12	1738.73
300.33	1697.77
300.55	1669.09
300.76	1710.05
300.98	1683.43
301.19	1660.90
301.40	1638.38
301.62	1634.28
301.83	1697.77
302.05	1660.90
302.26	1673.19
302.47	1710.05
302.69	1660.90
302.90	1708.01
303.12	1650.66
303.33	1677.29
303.54	1796.07
303.76	1693.67
303.97	1755.11
304.19	1798.12
304.40	1697.77
304.61	1751.01
304.83	1738.73
305.04	1738.73
305.26	1753.06
305.47	1589.22
305.68	1679.33
305.90	1632.23
306.11	1703.91
306.33	1687.53
306.54	1648.61
306.75	1665.00
306.97	1597.42
307.18	1662.95
307.39	1593.32
307.61	1779.68
307.82	1621.99
308.04	1669.09
308.25	1658.85
308.46	1722.34
308.68	1693.67
308.89	1705.96
309.10	1724.39
309.32	1722.34
309.53	1730.53
309.74	1740.77
309.96	1687.53
310.17	1734.63
310.39	1683.43
310.60	1671.14
310.81	1687.53
311.03	1605.61
311.24	1646.57
311.45	1691.62
311.67	1773.54
311.88	1691.62
312.09	1691.62
312.31	1691.62
312.52	1601.51
312.73	1720.29
312.95	1628.14
313.16	1646.57
313.37	1708.01
313.59	1683.43
313.80	1722.34
314.01	1845.22
314.23	1603.56
314.44	1658.85
314.65	1636.33
314.87	1607.66
315.08	1656.81
315.29	1671.14
315.51	1621.99
315.72	1621.99
315.93	1753.06
316.15	1826.79
316.36	1671.14
316.57	1665.00
316.79	1662.95
317.00	1734.63
317.21	1726.44
317.43	1705.96
317.64	1740.77
317.85	1687.53
318.07	1632.23
318.28	1701.86
318.49	1824.74
318.70	1923.04
318.92	1853.41
319.13	1877.99
319.34	1865.70
319.56	1746.92
319.77	1824.74
319.98	1742.82
320.20	1757.16
320.41	1785.83
320.62	1632.23
320.83	1701.86
321.05	1767.40
321.26	1734.63
321.47	1710.05
321.69	1675.24
321.90	1691.62
322.11	1701.86
322.32	1771.49
322.54	1806.31
322.75	1689.57
322.96	1882.08
323.18	1595.37
323.39	1667.05
323.60	1640.42
323.81	1734.63
324.03	1636.33
324.24	1695.72
324.45	1730.53
324.66	1609.70
324.88	1798.12
325.09	1873.89
325.30	1677.29
325.52	1665.00
325.73	1697.77
325.94	1624.04
326.15	1595.37
326.37	1609.70
326.58	1679.33
326.79	1808.36
327.00	1640.42
327.22	1746.92
327.43	1714.15
327.64	1632.23
327.85	1689.57
328.07	1673.19
328.28	1845.22
328.49	1683.43
328.70	1732.58
328.92	1734.63
329.13	1742.82
329.34	1710.05
329.55	1773.54
329.76	1665.00
329.98	1687.53
330.19	1720.29
330.40	1648.61
330.61	1705.96
330.83	1746.92
331.04	1636.33
331.25	1638.38
331.46	1681.38
331.68	1665.00
331.89	1734.63
332.10	1648.61
332.31	1638.38
332.52	1722.34
332.74	1814.50
332.95	1679.33
333.16	1714.15
333.37	1767.40
333.58	1662.95
333.80	1740.77
334.01	1619.94
334.22	1738.73
334.43	1636.33
334.64	1593.32
334.86	1724.39
335.07	1656.81
335.28	1705.96
335.49	1654.76
335.70	1681.38
335.92	1779.68
336.13	1830.88
336.34	1722.34
336.55	1691.62
336.76	1681.38
336.98	1605.61
337.19	1697.77
337.40	1808.36
337.61	1908.71
337.82	1642.47
338.04	1689.57
338.25	1550.31
338.46	1697.77
338.67	1656.81
338.88	1642.47
339.09	1644.52
339.31	1730.53
339.52	1615.85
339.73	1669.09
339.94	1687.53
340.15	1757.16
340.36	1658.85
340.58	1628.14
340.79	1693.67
341.00	1714.15
341.21	1574.89
341.42	1806.31
341.63	1689.57
341.85	1693.67
342.06	1693.67
342.27	1574.89
342.48	1677.29
342.69	1658.85
342.90	1716.20
343.12	1757.16
343.33	1673.19
343.54	1734.63
343.75	1697.77
343.96	1669.09
344.17	1667.05
344.38	1638.38
344.60	1699.81
344.81	1660.90
345.02	1703.91
345.23	1769.44
345.44	1712.10
345.65	1708.01
345.86	1673.19
346.07	1695.72
346.29	1646.57
346.50	1642.47
346.71	1734.63
346.92	1759.21
347.13	1812.45
347.34	1660.90
347.55	1656.81
347.76	1742.82
347.98	1599.46
348.19	1642.47
348.40	1765.35
348.61	1658.85
348.82	1755.11
349.03	1783.78
349.24	1624.04
349.45	1849.32
349.66	1615.85
349.88	1650.66
350.09	1693.67
350.30	1796.07
350.51	1757.16
350.72	1724.39
350.93	1689.57
351.14	1720.29
351.35	1712.10
351.56	1644.52
351.77	1673.19
351.99	1753.06
352.20	1742.82
352.41	1724.39
352.62	1593.32
352.83	1660.90
353.04	1683.43
353.25	1683.43
353.46	1746.92
353.67	1806.31
353.88	1587.18
354.09	1716.20
354.30	1675.24
354.52	1705.96
354.73	1685.48
354.94	1624.04
355.15	1730.53
355.36	1814.50
355.57	1710.05
355.78	1726.44
355.99	1681.38
356.20	1628.14
356.41	1777.64
356.62	1742.82
356.83	1691.62
357.04	1785.83
357.25	1615.85
357.46	1716.20
357.68	1656.81
357.89	1621.99
358.10	1787.88
358.31	1716.20
358.52	1677.29
358.73	1677.29
358.94	1621.99
359.15	1691.62
359.36	1697.77
359.57	1634.28
359.78	1734.63
359.99	1767.40
360.20	1665.00
360.41	1722.34
360.62	1691.62
360.83	1773.54
361.04	1730.53
361.25	1714.15
361.46	1783.78
361.67	1759.21
361.88	1634.28
362.09	1796.07
362.30	1656.81
362.51	1626.09
362.72	1636.33
362.93	1746.92
363.14	1687.53
363.35	1703.91
363.56	1638.38
363.78	1759.21
363.99	1724.39
364.20	1718.25
364.41	1781.73
364.62	1781.73
364.83	1689.57
365.04	1609.70
365.25	1673.19
365.46	1753.06
365.67	1642.47
365.88	1691.62
366.09	1689.57
366.30	1660.90
366.51	1677.29
366.72	1632.23
366.93	1687.53
367.14	1714.15
367.35	1726.44
367.56	1701.86
367.77	1722.34
367.98	1703.91
368.18	1726.44
368.39	1701.86
368.60	1673.19
368.81	1759.21
369.02	1720.29
369.23	1748.97
369.44	1593.32
369.65	1757.16
369.86	1693.67
370.07	1794.02
370.28	1585.13
370.49	1744.87
370.70	1769.44
370.91	1660.90
371.12	1671.14
371.33	1763.30
371.54	1665.00
371.75	1796.07
371.96	1574.89
372.17	1648.61
372.38	1652.71
372.59	1755.11
372.80	1615.85
373.01	1681.38
373.22	1732.58
373.43	1726.44
373.64	1658.85
373.85	1785.83
374.06	1789.92
374.26	1744.87
374.47	1697.77
374.68	1736.68
374.89	1744.87
375.10	1683.43
375.31	1710.05
375.52	1658.85
375.73	1761.25
375.94	1669.09
376.15	1800.16
376.36	1624.04
376.57	1685.48
376.78	1673.19
376.99	1720.29
377.20	1816.55
377.40	1669.09
377.61	1837.03
377.82	1638.38
378.03	1816.55
378.24	1730.53
378.45	1673.19
378.66	1701.86
378.87	1656.81
379.08	1642.47
379.29	1662.95
379.50	1746.92
379.71	1730.53
379.91	1810.40
380.12	1697.77
380.33	1693.67
380.54	1705.96
380.75	1728.49
380.96	1685.48
381.17	1757.16
381.38	1687.53
381.59	1718.25
381.80	1742.82
382.00	1787.88
382.21	1746.92
382.42	1728.49
382.63	1828.84
382.84	1779.68
383.05	1708.01
383.26	1837.03
383.47	1705.96
383.68	1718.25
383.88	1761.25
384.09	1718.25
384.30	1771.49
384.51	1708.01
384.72	1648.61
384.93	1644.52
385.14	1687.53
385.35	1798.12
385.55	1626.09
385.76	1781.73
385.97	1652.71
386.18	1519.59
386.39	1669.09
386.60	1662.95
386.81	1705.96
387.02	1613.80
387.22	1716.20
387.43	1771.49
387.64	1763.30
387.85	1859.56
388.06	2213.85
388.27	4353.98
388.48	6780.82
388.68	8228.74
388.89	9662.32
389.10	9994.09
389.31	8660.86
389.52	7720.84
389.73	6696.86
389.93	6156.19
390.14	5990.31
390.35	5259.18
390.56	4372.41
390.77	3661.77
390.98	3008.47
391.18	2545.63
391.39	2088.93
391.60	1865.70
391.81	1767.40
392.02	1593.32
392.23	1837.03
392.43	1769.44
392.64	1767.40
392.85	1720.29
393.06	1773.54
393.27	1773.54
393.47	1703.91
393.68	1742.82
393.89	1630.18
394.10	1757.16
394.31	1626.09
394.52	1626.09
394.72	1638.38
394.93	1767.40
395.14	1619.94
395.35	1734.63
395.56	1691.62
395.76	1765.35
395.97	1888.23
396.18	1791.97
396.39	1863.65
396.60	2054.11
396.80	1869.80
397.01	1918.95
397.22	1820.64
397.43	1896.42
397.64	1710.05
397.84	1834.98
398.05	1867.75
398.26	1675.24
398.47	1759.21
398.67	1769.44
398.88	1738.73
399.09	1640.42
399.30	1726.44
399.51	1689.57
399.71	1619.94
399.92	1759.21
400.13	1746.92
400.34	1716.20
400.54	1681.38
400.75	1746.92
400.96	1691.62
401.17	1785.83
401.37	1746.92
401.58	1755.11
401.79	1720.29
402.00	1828.84
402.21	1994.72
402.41	1943.52
402.62	2021.35
402.83	2029.54
403.04	1931.23
403.24	2064.35
403.45	1841.12
403.66	1996.77
403.87	1861.60
404.07	1843.17
404.28	1888.23
404.49	1871.84
404.70	1755.11
404.90	1779.68
405.11	1736.68
405.32	1693.67
405.52	1687.53
405.73	1675.24
405.94	1656.81
406.15	1665.00
406.35	1689.57
406.56	1642.47
406.77	1710.05
406.98	1710.05
407.18	1689.57
407.39	1826.79
407.60	1671.14
407.80	1720.29
408.01	1689.57
408.22	1734.63
408.43	1697.77
408.63	1730.53
408.84	1773.54
409.05	1783.78
409.25	1677.29
409.46	1609.70
409.67	1640.42
409.88	1732.58
410.08	1708.01
410.29	1644.52
410.50	1710.05
410.70	1796.07
410.91	1597.42
411.12	1738.73
411.32	1656.81
411.53	1671.14
411.74	1849.32
411.95	1771.49
412.15	1730.53
412.36	1826.79
412.57	1781.73
412.77	1775.59
412.98	1791.97
413.19	1697.77
413.39	1791.97
413.60	1761.25
413.81	1908.71
414.01	1650.66
414.22	1720.29
414.43	1732.58
414.63	1732.58
414.84	1763.30
415.05	1677.29
415.25	1615.85
415.46	1765.35
415.67	1728.49
415.87	1722.34
416.08	1732.58
416.29	1742.82
416.49	1742.82
416.70	1626.09
416.91	1636.33
417.11	1720.29
417.32	1697.77
417.53	1710.05
417.73	1767.40
417.94	1714.15
418.15	1755.11
418.35	1757.16
418.56	1775.59
418.77	1755.11
418.97	1681.38
419.18	1671.14
419.38	1619.94
419.59	1722.34
419.80	1740.77
420.00	1722.34
420.21	1665.00
420.42	1796.07
420.62	1677.29
420.83	1603.56
421.04	1740.77
421.24	1691.62
421.45	1763.30
421.65	1716.20
421.86	1644.52
422.07	1724.39
422.27	1667.05
422.48	1720.29
422.69	1669.09
422.89	1652.71
423.10	1687.53
423.30	1703.91
423.51	1769.44
423.72	1751.01
423.92	1767.40
424.13	1646.57
424.33	1742.82
424.54	1691.62
424.75	1689.57
424.95	1810.40
425.16	1730.53
425.36	1669.09
425.57	1779.68
425.78	1753.06
425.98	1789.92
426.19	1732.58
426.39	1632.23
426.60	1710.05
426.81	1775.59
427.01	1708.01
427.22	1691.62
427.42	1617.90
427.63	1611.75
427.83	1814.50
428.04	1771.49
428.25	1755.11
428.45	1714.15
428.66	1771.49
428.86	1736.68
429.07	1644.52
429.28	1746.92
429.48	1718.25
429.69	1648.61
429.89	1728.49
430.10	1703.91
430.30	1738.73
430.51	1828.84
430.71	1648.61
430.92	1761.25
431.13	1662.95
431.33	1746.92
431.54	1738.73
431.74	1796.07
431.95	1808.36
432.15	1624.04
432.36	1759.21
432.56	1783.78
432.77	1800.16
432.98	1810.40
433.18	1714.15
433.39	1761.25
433.59	1681.38
433.80	1746.92
434.00	1886.18
434.21	1642.47
434.41	1671.14
434.62	1896.42
434.82	1681.38
435.03	1699.81
435.23	1755.11
435.44	1626.09
435.64	1726.44
435.85	1591.27
436.06	1802.21
436.26	1796.07
436.47	1730.53
436.67	1697.77
436.88	1685.48
437.08	1751.01
437.29	1779.68
437.49	1710.05
437.70	1740.77
437.90	1738.73
438.11	1845.22
438.31	1765.35
438.52	1869.80
438.72	1804.26
438.93	1896.42
439.13	1763.30
439.34	1824.74
439.54	1800.16
439.75	1806.31
439.95	1859.56
440.16	1765.35
440.36	1689.57
440.57	1787.88
440.77	1755.11
440.98	1767.40
441.18	1744.87
441.39	1701.86
441.59	1597.42
441.80	1841.12
442.00	1710.05
442.21	1814.50
442.41	1638.38
442.62	1742.82
442.82	1671.14
443.02	1697.77
443.23	1757.16
443.43	1677.29
443.64	1775.59
443.84	1689.57
444.05	1877.99
444.25	1736.68
444.46	1726.44
444.66	1679.33
444.87	1816.55
445.07	1703.91
445.28	1689.57
445.48	1816.55
445.69	1834.98
445.89	1857.51
446.09	1765.35
446.30	2095.07
446.50	2645.98
446.71	3710.92
446.91	4265.92
447.12	4837.30
447.32	4755.38
447.53	4356.03
447.73	3925.96
447.93	3463.12
448.14	3258.32
448.34	3071.95
448.55	3000.27
448.75	2813.91
448.96	2607.06
449.16	2426.84
449.36	2279.39
449.57	2035.68
449.77	2025.44
449.98	1781.73
450.18	1863.65
450.39	1791.97
450.59	1781.73
450.79	1724.39
451.00	1656.81
451.20	1841.12
451.41	1710.05
451.61	1728.49
451.81	1738.73
452.02	1675.24
452.22	1626.09
452.43	1748.97
452.63	1697.77
452.84	1773.54
453.04	1710.05
453.24	1693.67
453.45	1751.01
453.65	1669.09
453.86	1751.01
454.06	1767.40
454.26	1705.96
454.47	1742.82
454.67	1808.36
454.87	1718.25
455.08	1755.11
455.28	1810.40
455.49	1781.73
455.69	1693.67
455.89	1839.08
456.10	1832.93
456.30	1691.62
456.51	1671.14
456.71	1785.83
456.91	1775.59
457.12	1771.49
457.32	1744.87
457.52	1646.57
457.73	1814.50
457.93	1773.54
458.14	1644.52
458.34	1648.61
458.54	1732.58
458.75	1712.10
458.95	1779.68
459.15	1755.11
459.36	1746.92
459.56	1886.18
459.76	1828.84
459.97	1671.14
460.17	1708.01
460.37	1775.59
460.58	1705.96
460.78	1757.16
460.99	1687.53
461.19	1673.19
461.39	1642.47
461.60	1705.96
461.80	1771.49
462.00	1669.09
462.21	1728.49
462.41	1705.96
462.61	1701.86
462.82	1607.66
463.02	1710.05
463.22	1734.63
463.43	1871.84
463.63	1744.87
463.83	1781.73
464.04	1765.35
464.24	1734.63
464.44	1675.24
464.64	1677.29
464.85	1818.60
465.05	1804.26
465.25	1689.57
465.46	1712.10
465.66	1773.54
465.86	1791.97
466.07	1787.88
466.27	1652.71
466.47	1632.23
466.68	1665.00
466.88	1812.45
467.08	1658.85
467.29	1710.05
467.49	1734.63
467.69	1818.60
467.89	1703.91
468.10	1740.77
468.30	1691.62
468.50	1771.49
468.71	1726.44
468.91	1626.09
469.11	1902.56
469.31	1732.58
469.52	1658.85
469.72	1789.92
469.92	1931.23
470.13	1669.09
470.33	1681.38
470.53	1824.74
470.73	2131.94
470.94	2303.96
471.14	2320.35
471.34	2584.54
471.54	2383.84
471.75	2164.70
471.95	2168.80
472.15	2088.93
472.36	2070.50
472.56	2117.60
472.76	2017.25
472.96	2080.74
473.17	2019.30
473.37	1896.42
473.57	1769.44
473.77	1783.78
473.98	1765.35
474.18	1685.48
474.38	1865.70
474.58	1708.01
474.79	1658.85
474.99	1746.92
475.19	1744.87
475.39	1685.48
475.60	1705.96
475.80	1736.68
476.00	1673.19
476.20	1693.67
476.41	1779.68
476.61	1759.21
476.81	1753.06
477.01	1738.73
477.21	1851.36
477.42	1775.59
477.62	1609.70
477.82	1722.34
478.02	1703.91
478.23	1730.53
478.43	1689.57
478.63	1611.75
478.83	1718.25
479.03	1660.90
479.24	1763.30
479.44	1753.06
479.64	1714.15
479.84	1634.28
480.04	1615.85
480.25	1775.59
480.45	1703.91
480.65	1710.05
480.85	1857.51
481.06	1662.95
481.26	1697.77
481.46	1730.53
481.66	1791.97
481.86	1724.39
482.06	1742.82
482.27	1738.73
482.47	1675.24
482.67	1705.96
482.87	1617.90
483.07	1783.78
483.28	1681.38
483.48	1640.42
483.68	1693.67
483.88	1654.76
484.08	1572.84
484.29	1644.52
484.49	1646.57
484.69	1630.18
484.89	1796.07
485.09	1742.82
485.29	1785.83
485.50	1730.53
485.70	1753.06
485.90	1787.88
486.10	1669.09
486.30	1779.68
486.50	1765.35
486.71	1708.01
486.91	1742.82
487.11	1732.58
487.31	1669.09
487.51	1691.62
487.71	1718.25
487.91	1681.38
488.12	1738.73
488.32	1535.98
488.52	1669.09
488.72	1642.47
488.92	1740.77
489.12	1703.91
489.32	1806.31
489.53	1753.06
489.73	1644.52
489.93	1820.64
490.13	1728.49
490.33	1681.38
490.53	1691.62
490.73	1877.99
490.94	1607.66
491.14	1714.15
491.34	1828.84
491.54	2062.30
491.74	2666.46
491.94	2998.23
492.14	3028.95
492.34	3028.95
492.54	2791.38
492.75	2428.89
492.95	2389.98
493.15	2377.69
493.35	2353.12
493.55	2199.52
493.75	2170.85
493.95	2185.18
494.15	2002.91
494.35	1880.04
494.56	1802.21
494.76	1806.31
494.96	1767.40
495.16	1785.83
495.36	1828.84
495.56	1673.19
495.76	1759.21
495.96	1685.48
496.16	1665.00
496.36	1812.45
496.56	1691.62
496.77	1757.16
496.97	1757.16
497.17	1726.44
497.37	1671.14
497.57	1798.12
497.77	1751.01
497.97	1560.55
498.17	1781.73
498.37	1718.25
498.57	1814.50
498.77	1675.24
498.97	1730.53
499.17	1867.75
499.38	1765.35
499.58	1697.77
499.78	1779.68
499.98	1806.31
500.18	1665.00
500.38	1757.16
500.58	1947.62
500.78	2590.68
500.98	4632.51
501.18	5889.96
501.38	6903.70
501.58	7235.47
501.78	6748.06
501.98	5619.63
502.18	4904.89
502.38	4399.04
502.58	4206.53
502.78	3762.12
502.98	3715.02
503.18	3469.26
503.38	3246.03
503.59	2797.53
503.79	2713.56
503.99	2455.51
504.19	2256.86
504.39	2232.29
504.59	2242.53
504.79	2023.39
504.99	2066.40
505.19	1880.04
505.39	1892.32
505.59	1988.58
505.79	1966.05
505.99	1863.65
506.19	1787.88
506.39	1916.90
506.59	1746.92
506.79	1728.49
506.99	1757.16
507.19	1703.91
507.39	1759.21
507.59	1712.10
507.79	1665.00
507.99	1714.15
508.19	1697.77
508.39	1728.49
508.59	1728.49
508.79	1781.73
508.99	1816.55
509.19	1757.16
509.39	1773.54
509.59	1771.49
509.79	1667.05
509.99	1742.82
510.19	1769.44
510.39	1839.08
510.59	1742.82
510.79	1673.19
510.99	1654.76
511.19	1718.25
511.39	1810.40
511.59	1773.54
511.79	1751.01
511.99	1789.92
512.19	1757.16
512.38	1798.12
512.58	1677.29
512.78	1695.72
512.98	1802.21
513.18	1722.34
513.38	1591.27
513.58	1800.16
513.78	1697.77
513.98	1738.73
514.18	1656.81
514.38	1718.25
514.58	1732.58
514.78	1662.95
514.98	1720.29
515.18	1617.90
515.38	1671.14
515.58	1882.08
515.78	1660.90
515.98	1753.06
516.18	1734.63
516.38	1705.96
516.57	1705.96
516.77	1669.09
516.97	1798.12
517.17	1669.09
517.37	1595.37
517.57	1748.97
517.77	1710.05
517.97	1722.34
518.17	1716.20
518.37	1615.85
518.57	1648.61
518.77	1679.33
518.97	1769.44
519.16	1806.31
519.36	1865.70
519.56	1675.24
519.76	1656.81
519.96	1730.53
520.16	1820.64
520.36	1677.29
520.56	1834.98
520.76	1640.42
520.96	1665.00
521.16	1763.30
521.35	1746.92
521.55	1832.93
521.75	1679.33
521.95	1675.24
522.15	1597.42
522.35	1605.61
522.55	1626.09
522.75	1816.55
522.95	1665.00
523.14	1685.48
523.34	1708.01
523.54	1697.77
523.74	1718.25
523.94	1787.88
524.14	1601.51
524.34	1746.92
524.54	1818.60
524.73	1689.57
524.93	1773.54
525.13	1771.49
525.33	1695.72
525.53	1869.80
525.73	1834.98
525.93	1722.34
526.13	1683.43
526.32	1744.87
526.52	1746.92
526.72	1849.32
526.92	1763.30
527.12	1763.30
527.32	1607.66
527.52	1689.57
527.71	1708.01
527.91	1816.55
528.11	1699.81
528.31	1718.25
528.51	1613.80
528.71	1738.73
528.90	1765.35
529.10	1753.06
529.30	1763.30
529.50	1521.64
529.70	1714.15
529.90	1738.73
530.09	1826.79
530.29	1699.81
530.49	1662.95
530.69	1923.04
530.89	1753.06
531.09	1755.11
531.28	1671.14
531.48	1783.78
531.68	1802.21
531.88	1699.81
532.08	1773.54
532.28	1634.28
532.47	1757.16
532.67	1681.38
532.87	1748.97
533.07	1718.25
533.27	1757.16
533.46	1783.78
533.66	1695.72
533.86	1679.33
534.06	1658.85
534.26	1746.92
534.45	1687.53
534.65	1753.06
534.85	1656.81
535.05	1730.53
535.25	1802.21
535.44	1648.61
535.64	1767.40
535.84	1681.38
536.04	1675.24
536.24	1685.48
536.43	1720.29
536.63	1761.25
536.83	1685.48
537.03	1701.86
537.22	1628.14
537.42	1611.75
537.62	1794.02
537.82	1673.19
538.02	1806.31
538.21	1841.12
538.41	1904.61
538.61	1738.73
538.81	1665.00
539.00	1765.35
539.20	1646.57
539.40	1660.90
539.60	1853.41
539.79	1701.86
539.99	1730.53
540.19	1683.43
540.39	1744.87
540.58	1703.91
540.78	1726.44
540.98	1767.40
541.18	1812.45
541.37	1708.01
541.57	1710.05
541.77	1675.24
541.97	1671.14
542.16	1624.04
542.36	1685.48
542.56	1722.34
542.76	1931.23
542.95	1746.92
543.15	1757.16
543.35	1763.30
543.54	1628.14
543.74	1697.77
543.94	1728.49
544.14	1695.72
544.33	1869.80
544.53	1705.96
544.73	1708.01
544.93	1671.14
545.12	1697.77
545.32	1730.53
545.52	1726.44
545.71	1697.77
545.91	1757.16
546.11	1744.87
546.30	1724.39
546.50	1613.80
546.70	1781.73
546.90	1816.55
547.09	1628.14
547.29	1785.83
547.49	1763.30
547.68	1701.86
547.88	1634.28
548.08	1658.85
548.27	2121.70
548.47	1724.39
548.67	1755.11
548.87	1751.01
549.06	1746.92
549.26	1781.73
549.46	1789.92
549.65	1734.63
549.85	1699.81
550.05	1808.36
550.24	1703.91
550.44	1759.21
550.64	1748.97
550.83	1746.92
551.03	1814.50
551.23	1736.68
551.42	1744.87
551.62	1787.88
551.82	1687.53
552.01	1751.01
552.21	1710.05
552.41	1730.53
552.60	1812.45
552.80	1703.91
553.00	1761.25
553.19	1726.44
553.39	1884.13
553.59	1609.70
553.78	1714.15
553.98	1765.35
554.17	1652.71
554.37	1775.59
554.57	1810.40
554.76	1636.33
554.96	1689.57
555.16	1685.48
555.35	1767.40
555.55	1755.11
555.75	1808.36
555.94	1789.92
556.14	1699.81
556.33	1775.59
556.53	1738.73
556.73	1757.16
556.92	1775.59
557.12	1802.21
557.32	1877.99
557.51	1787.88
557.71	1748.97
557.90	1787.88
558.10	1867.75
558.30	1726.44
558.49	1724.39
558.69	1728.49
558.88	1734.63
559.08	1791.97
559.28	1779.68
559.47	1722.34
559.67	1771.49
559.86	1806.31
560.06	1742.82
560.26	1648.61
560.45	1773.54
560.65	1720.29
560.84	1720.29
561.04	1689.57
561.24	1779.68
561.43	1636.33
561.63	1830.88
561.82	1769.44
562.02	1806.31
562.22	1720.29
562.41	1648.61
562.61	1734.63
562.80	1761.25
563.00	1904.61
563.19	1736.68
563.39	1728.49
563.59	1748.97
563.78	1683.43
563.98	1617.90
564.17	1675.24
564.37	1667.05
564.56	1726.44
564.76	1701.86
564.96	1818.60
565.15	1755.11
565.35	1861.60
565.54	1683.43
565.74	1738.73
565.93	1798.12
566.13	1726.44
566.32	1736.68
566.52	1763.30
566.71	1757.16
566.91	1808.36
567.11	1681.38
567.30	1738.73
567.50	1740.77
567.69	1765.35
567.89	1710.05
568.08	1677.29
568.28	1800.16
568.47	1636.33
568.67	1728.49
568.86	1689.57
569.06	1810.40
569.25	1650.66
569.45	1681.38
569.64	1697.77
569.84	1726.44
570.04	1761.25
570.23	1720.29
570.43	1691.62
570.62	1769.44
570.82	1818.60
571.01	1716.20
571.21	1740.77
571.40	1683.43
571.60	1714.15
571.79	1724.39
571.99	1800.16
572.18	1669.09
572.38	1720.29
572.57	1656.81
572.77	1705.96
572.96	1839.08
573.16	1679.33
573.35	1691.62
573.55	1789.92
573.74	1689.57
573.94	1732.58
574.13	1665.00
574.33	1763.30
574.52	1804.26
574.71	1705.96
574.91	1783.78
575.10	1642.47
575.30	1746.92
575.49	1740.77
575.69	1681.38
575.88	1761.25
576.08	1697.77
576.27	1759.21
576.47	1757.16
576.66	1873.89
576.86	1794.02
577.05	1714.15
577.25	1769.44
577.44	1931.23
577.64	1736.68
577.83	1769.44
578.02	1732.58
578.22	1863.65
578.41	1757.16
578.61	1779.68
578.80	1689.57
579.00	1781.73
579.19	1769.44
579.39	1761.25
579.58	1888.23
579.77	1763.30
579.97	1834.98
580.16	1816.55
580.36	1816.55
580.55	1742.82
580.75	1718.25
580.94	1783.78
581.13	1869.80
581.33	1837.03
581.52	1742.82
581.72	1849.32
581.91	1841.12
582.11	1718.25
582.30	1830.88
582.49	1705.96
582.69	1783.78
582.88	1777.64
583.08	1767.40
583.27	1820.64
583.47	1839.08
583.66	1669.09
583.85	1724.39
584.05	1757.16
584.24	1787.88
584.44	1824.74
584.63	1900.52
584.82	1849.32
585.02	1804.26
585.21	1839.08
585.41	1824.74
585.60	1757.16
585.79	1976.29
585.99	1947.62
586.18	1861.60
586.37	2248.67
586.57	3413.96
586.76	9979.75
586.96	24673.93
587.15	34864.62
587.34	40338.84
587.54	42495.35
587.73	36998.60
587.93	26535.53
588.12	21690.04
588.31	18536.17
588.51	16572.16
588.70	15218.46
588.89	14173.99
589.09	12525.38
589.28	11026.26
589.47	9449.33
589.67	8071.04
589.86	6457.25
590.06	5025.72
590.25	3903.43
590.44	3119.06
590.64	2707.41
590.83	2281.44
591.02	2117.60
591.22	2002.91
591.41	1957.86
591.60	1839.08
591.80	1882.08
591.99	1669.09
592.18	1837.03
592.38	1771.49
592.57	1820.64
592.76	1875.94
592.96	1697.77
593.15	1724.39
593.34	1820.64
593.54	1691.62
593.73	1755.11
593.92	1761.25
594.12	1742.82
594.31	1779.68
594.50	1808.36
594.70	1812.45
594.89	1861.60
595.08	1710.05
595.28	1757.16
595.47	1890.28
595.66	1738.73
595.86	1691.62
596.05	1763.30
596.24	1669.09
596.43	1769.44
596.63	1779.68
596.82	1718.25
597.01	1751.01
597.21	1845.22
597.40	1757.16
597.59	1716.20
597.79	1693.67
597.98	1705.96
598.17	1708.01
598.36	1765.35
598.56	1744.87
598.75	1724.39
598.94	1746.92
599.14	1769.44
599.33	1716.20
599.52	1804.26
599.71	1748.97
599.91	1804.26
600.10	1822.69
600.29	1681.38
600.48	1759.21
600.68	1886.18
600.87	1681.38
601.06	1708.01
601.26	1730.53
601.45	1736.68
601.64	1794.02
601.83	1759.21
602.03	1732.58
602.22	1617.90
602.41	1761.25
602.60	1900.52
602.80	1818.60
602.99	1697.77
603.18	1769.44
603.37	1748.97
603.57	1748.97
603.76	1751.01
603.95	1781.73
604.14	1712.10
604.34	1599.46
604.53	1753.06
604.72	1705.96
604.91	1800.16
605.10	1759.21
605.30	1615.85
605.49	1875.94
605.68	1777.64
605.87	1800.16
606.07	1759.21
606.26	1818.60
606.45	1724.39
606.64	1755.11
606.84	1714.15
607.03	1712.10
607.22	1781.73
607.41	1705.96
607.60	1730.53
607.80	1742.82
607.99	1697.77
608.18	1757.16
608.37	1765.35
608.56	1710.05
608.76	1714.15
608.95	1869.80
609.14	1705.96
609.33	1830.88
609.52	1736.68
609.72	1746.92
609.91	1732.58
610.10	1765.35
610.29	1765.35
610.48	1806.31
610.68	1740.77
610.87	1712.10
611.06	1722.34
611.25	1679.33
611.44	1722.34
611.63	1650.66
611.83	1794.02
612.02	1636.33
612.21	1771.49
612.40	1617.90
612.59	1728.49
612.79	1583.08
612.98	1716.20
613.17	1798.12
613.36	1738.73
613.55	1683.43
613.74	1652.71
613.93	1667.05
614.13	1673.19
614.32	1794.02
614.51	1718.25
614.70	1683.43
614.89	1742.82
615.08	1787.88
615.28	2037.73
615.47	1640.42
615.66	1730.53
615.85	1728.49
616.04	1898.47
616.23	1675.24
616.42	1703.91
616.62	1718.25
616.81	1748.97
617.00	1746.92
617.19	1755.11
617.38	1650.66
617.57	1669.09
617.76	1773.54
617.95	1802.21
618.15	1669.09
618.34	1785.83
618.53	1667.05
618.72	1738.73
618.91	1796.07
619.10	1794.02
619.29	1771.49
619.48	1705.96
619.68	1697.77
619.87	1703.91
620.06	1720.29
620.25	1673.19
620.44	1695.72
620.63	1685.48
620.82	1783.78
621.01	1751.01
621.20	1703.91
621.39	1767.40
621.59	1728.49
621.78	1693.67
621.97	1755.11
622.16	1699.81
622.35	1632.23
622.54	1775.59
622.73	1816.55
622.92	1593.32
623.11	1812.45
623.30	1630.18
623.49	1775.59
623.68	1640.42
623.88	1806.31
624.07	1718.25
624.26	1716.20
624.45	1732.58
624.64	1681.38
624.83	1712.10
625.02	1636.33
625.21	1681.38
625.40	1767.40
625.59	1814.50
625.78	1759.21
625.97	1785.83
626.16	1796.07
626.35	1742.82
626.54	1703.91
626.74	1798.12
626.93	1716.20
627.12	1705.96
627.31	1740.77
627.50	1708.01
627.69	1771.49
627.88	1675.24
628.07	1660.90
628.26	1617.90
628.45	1638.38
628.64	1687.53
628.83	1716.20
629.02	1728.49
629.21	1710.05
629.40	1734.63
629.59	1626.09
629.78	1683.43
629.97	1683.43
630.16	1826.79
630.35	1658.85
630.54	1699.81
630.73	1701.86
630.92	1697.77
631.11	1667.05
631.30	1755.11
631.49	1798.12
631.68	1718.25
631.87	1695.72
632.06	1609.70
632.25	1867.75
632.44	1636.33
632.63	1671.14
632.82	1695.72
633.01	1697.77
633.20	1714.15
633.39	1683.43
633.58	1646.57
633.77	1720.29
633.96	1757.16
634.15	1802.21
634.34	1701.86
634.53	1705.96
634.72	1685.48
634.91	1595.37
635.10	1732.58
635.29	1701.86
635.48	1687.53
635.67	1636.33
635.86	1714.15
636.05	1763.30
636.24	1744.87
636.43	1675.24
636.62	1722.34
636.81	1611.75
637.00	1748.97
637.19	1703.91
637.38	1820.64
637.57	1675.24
637.76	1708.01
637.95	1728.49
638.14	1703.91
638.33	1705.96
638.52	1736.68
638.71	1759.21
638.89	1722.34
639.08	1810.40
639.27	1699.81
639.46	1701.86
639.65	1796.07
639.84	1671.14
640.03	1796.07
640.22	1634.28
640.41	1789.92
640.60	1669.09
640.79	1609.70
640.98	1669.09
641.17	1718.25
641.36	1773.54
641.55	1777.64
641.74	1632.23
641.92	1603.56
642.11	1689.57
642.30	1757.16
642.49	1738.73
642.68	1665.00
642.87	1730.53
643.06	1738.73
643.25	1748.97
643.44	1679.33
643.63	1701.86
643.82	1740.77
644.00	1644.52
644.19	1755.11
644.38	1636.33
644.57	1771.49
644.76	1705.96
644.95	1757.16
645.14	1796.07
645.33	1675.24
645.52	1671.14
645.71	1689.57
645.89	1652.71
646.08	1693.67
646.27	1710.05
646.46	1791.97
646.65	1650.66
646.84	1724.39
647.03	1669.09
647.22	1746.92
647.40	1740.77
647.59	1611.75
647.78	1652.71
647.97	1665.00
648.16	1644.52
648.35	1818.60
648.54	1773.54
648.73	1644.52
648.91	1759.21
649.10	1751.01
649.29	1763.30
649.48	1716.20
649.67	1757.16
649.86	1632.23
650.05	1665.00
650.23	1751.01
650.42	1685.48
650.61	1791.97
650.80	1710.05
650.99	1818.60
651.18	1820.64
651.36	1726.44
651.55	1714.15
651.74	1757.16
651.93	1765.35
652.12	1695.72
652.31	1787.88
652.49	1693.67
652.68	1710.05
652.87	1757.16
653.06	1630.18
653.25	1738.73
653.44	1726.44
653.62	1812.45
653.81	1667.05
654.00	1757.16
654.19	1814.50
654.38	1779.68
654.56	1728.49
654.75	1681.38
654.94	1748.97
655.13	1765.35
655.32	1681.38
655.51	1769.44
655.69	1656.81
655.88	1738.73
656.07	1716.20
656.26	1759.21
656.45	1673.19
656.63	1712.10
656.82	1746.92
657.01	1808.36
657.20	1759.21
657.38	1798.12
657.57	1595.37
657.76	1617.90
657.95	1775.59
658.14	1695.72
658.32	1734.63
658.51	1679.33
658.70	1744.87
658.89	1691.62
659.08	1740.77
659.26	1771.49
659.45	1722.34
659.64	1785.83
659.83	1730.53
660.01	1914.85
660.20	1812.45
660.39	1718.25
660.58	1665.00
660.76	1773.54
660.95	1693.67
661.14	1724.39
661.33	1660.90
661.51	1589.22
661.70	1652.71
661.89	1763.30
662.08	1705.96
662.26	1667.05
662.45	1736.68
662.64	1855.46
662.83	1773.54
663.01	1677.29
663.20	1687.53
663.39	1732.58
663.58	1724.39
663.76	1708.01
663.95	1751.01
664.14	1652.71
664.32	1697.77
664.51	1712.10
664.70	1630.18
664.89	1742.82
665.07	1636.33
665.26	1834.98
665.45	1744.87
665.64	1832.93
665.82	1748.97
666.01	1849.32
666.20	1615.85
666.38	1828.84
666.57	1802.21
666.76	2168.80
666.95	4532.15
667.13	10319.71
667.32	15365.91
667.51	17706.74
667.69	19506.90
667.88	17741.55
668.07	12357.44
668.25	9611.12
668.44	8087.43
668.63	7397.26
668.81	6795.16
669.00	6313.89
669.19	5818.28
669.38	5099.44
669.56	4591.55
669.75	4003.78
669.94	3428.30
670.12	2879.44
670.31	2500.57
670.50	2232.29
670.68	2113.50
670.87	1947.62
671.06	1853.41
671.24	1791.97
671.43	1794.02
671.62	1773.54
671.80	1712.10
671.99	1779.68
672.18	1679.33
672.36	1738.73
672.55	1703.91
672.74	1689.57
672.92	1703.91
673.11	1808.36
673.29	1675.24
673.48	1691.62
673.67	1669.09
673.85	1742.82
674.04	1757.16
674.23	1720.29
674.41	1826.79
674.60	1681.38
674.79	1652.71
674.97	1646.57
675.16	1675.24
675.34	1808.36
675.53	1599.46
675.72	1742.82
675.90	1865.70
676.09	1689.57
676.28	1771.49
676.46	1630.18
676.65	1677.29
676.83	1681.38
677.02	1660.90
677.21	1736.68
677.39	1689.57
677.58	1595.37
677.77	1687.53
677.95	1685.48
678.14	1652.71
678.32	1722.34
678.51	1650.66
678.70	1855.46
678.88	1701.86
679.07	1759.21
679.25	1732.58
679.44	1763.30
679.63	1681.38
679.81	1703.91
680.00	1765.35
680.18	1701.86
680.37	1794.02
680.55	1714.15
680.74	1585.13
680.93	1613.80
681.11	1771.49
681.30	1708.01
681.48	1720.29
681.67	1755.11
681.85	1734.63
682.04	1683.43
682.23	1800.16
682.41	1683.43
682.60	1744.87
682.78	1660.90
682.97	1636.33
683.15	1734.63
683.34	1812.45
683.53	1822.69
683.71	1644.52
683.90	1806.31
684.08	1802.21
684.27	1665.00
684.45	1716.20
684.64	1779.68
684.82	1722.34
685.01	1660.90
685.19	1677.29
685.38	1812.45
685.57	1705.96
685.75	1714.15
685.94	1673.19
686.12	1648.61
686.31	1714.15
686.49	1837.03
686.68	1630.18
686.86	1796.07
687.05	1697.77
687.23	1751.01
687.42	1689.57
687.60	1617.90
687.79	1705.96
687.97	1791.97
688.16	1759.21
688.34	1730.53
688.53	1624.04
688.71	1722.34
688.90	1783.78
689.08	1730.53
689.27	1576.94
689.45	1738.73
689.64	1699.81
689.82	1753.06
690.01	1681.38
690.19	1642.47
690.38	1675.24
690.56	1736.68
690.75	1669.09
690.93	1665.00
691.12	1683.43
691.30	1667.05
691.49	1658.85
691.67	1685.48
691.86	1830.88
692.04	1642.47
692.23	1648.61
692.41	1646.57
692.60	1834.98
692.78	1742.82
692.97	1632.23
693.15	1740.77
693.34	1806.31
693.52	1783.78
693.71	1675.24
693.89	1656.81
694.08	1611.75
694.26	1671.14
694.44	1740.77
694.63	1730.53
694.81	1640.42
695.00	1732.58
695.18	1759.21
695.37	1800.16
695.55	1687.53
695.74	1710.05
695.92	1677.29
696.10	1765.35
696.29	1621.99
696.47	1740.77
696.66	1673.19
696.84	1591.27
697.03	1687.53
697.21	1810.40
697.40	2310.11
697.58	1710.05
697.76	1701.86
697.95	1722.34
698.13	1656.81
698.32	1693.67
698.50	1691.62
698.68	1734.63
698.87	1697.77
699.05	1796.07
699.24	1665.00
699.42	1632.23
699.61	1718.25
699.79	1726.44
699.97	1615.85
700.16	1634.28
700.34	1585.13
700.53	1632.23
700.71	1767.40
700.89	1787.88
701.08	1701.86
701.26	1708.01
701.45	2099.17
701.63	1656.81
701.81	1730.53
702.00	1658.85
702.18	1701.86
702.37	1683.43
702.55	1730.53
702.73	1708.01
702.92	1621.99
703.10	1730.53
703.28	1675.24
703.47	1705.96
703.65	1802.21
703.84	1734.63
704.02	1710.05
704.20	1814.50
704.39	1644.52
704.57	1652.71
704.75	1734.63
704.94	1796.07
705.12	1728.49
705.30	1794.02
705.49	2230.24
705.67	4337.60
705.86	9310.07
706.04	12523.33
706.22	14501.67
706.41	15456.02
706.59	13909.80
706.77	9713.52
706.96	7344.02
707.14	6674.33
707.32	5982.12
707.51	5568.43
707.69	4923.32
707.87	4167.62
708.06	3491.79
708.24	2955.22
708.42	2451.42
708.61	2250.72
708.79	1957.86
708.97	1857.51
709.16	1791.97
709.34	1775.59
709.52	1689.57
709.71	1746.92
709.89	1746.92
710.07	1693.67
710.26	1626.09
710.44	1689.57
710.62	1804.26
710.80	1699.81
710.99	1732.58
711.17	1667.05
711.35	1662.95
711.54	1730.53
711.72	1789.92
711.90	1734.63
712.09	1763.30
712.27	1722.34
712.45	1808.36
712.63	1695.72
712.82	1642.47
713.00	1751.01
713.18	1716.20
713.37	1748.97
713.55	1751.01
713.73	1726.44
713.91	1718.25
714.10	1634.28
714.28	1710.05
714.46	1742.82
714.65	1789.92
714.83	1701.86
715.01	1742.82
715.19	1677.29
715.38	1652.71
715.56	1755.11
715.74	1660.90
715.92	1640.42
716.11	1710.05
716.29	1638.38
716.47	1691.62
716.65	1624.04
716.84	1628.14
717.02	1804.26
717.20	1681.38
717.38	1675.24
717.57	1712.10
717.75	1691.62
717.93	1632.23
718.11	1714.15
718.30	1632.23
718.48	1787.88
718.66	1703.91
718.84	1759.21
719.03	1691.62
719.21	1634.28
719.39	1822.69
719.57	1806.31
719.75	1777.64
719.94	1671.14
720.12	1726.44
720.30	1767.40
720.48	1742.82
720.67	1671.14
720.85	1626.09
721.03	1689.57
721.21	1650.66
721.39	1806.31
721.58	1701.86
721.76	1773.54
721.94	1744.87
722.12	1699.81
722.30	1726.44
722.49	1650.66
722.67	1748.97
722.85	1738.73
723.03	1695.72
723.21	1599.46
723.40	1677.29
723.58	1757.16
723.76	1699.81
723.94	1724.39
724.12	1695.72
724.30	1732.58
724.49	1751.01
724.67	1638.38
724.85	1759.21
725.03	1607.66
725.21	1732.58
725.40	1751.01
725.58	1708.01
725.76	1804.26
725.94	1771.49
726.12	1689.57
726.30	1669.09
726.49	1699.81
726.67	1703.91
726.85	1742.82
727.03	1806.31
727.21	2090.98
727.39	2928.60
727.57	3739.59
727.76	4161.47
727.94	4472.76
728.12	4306.88
728.30	3739.59
728.48	2932.69
728.66	2707.41
728.84	2537.43
729.03	2281.44
729.21	2107.36
729.39	2037.73
729.57	1849.32
729.75	1761.25
729.93	1873.89
730.11	1767.40
730.30	1796.07
730.48	1765.35
730.66	1834.98
730.84	1734.63
731.02	1640.42
731.20	1671.14
731.38	1689.57
731.56	1675.24
731.74	1689.57
731.93	1675.24
732.11	1720.29
732.29	1779.68
732.47	1763.30
732.65	1730.53
732.83	1656.81
733.01	1681.38
733.19	1703.91
733.37	1742.82
733.56	1738.73
733.74	1748.97
733.92	1779.68
734.10	1628.14
734.28	1751.01
734.46	1658.85
734.64	1642.47
734.82	1673.19
735.00	1662.95
735.18	1710.05
735.36	1665.00
735.54	1708.01
735.73	1683.43
735.91	1732.58
736.09	1724.39
736.27	1773.54
736.45	1705.96
736.63	1601.51
736.81	1714.15
736.99	1800.16
737.17	1789.92
737.35	1630.18
737.53	1744.87
737.71	1660.90
737.89	1796.07
738.07	1667.05
738.25	1673.19
738.43	1595.37
738.61	1714.15
738.80	1624.04
738.98	1654.76
739.16	1652.71
739.34	1658.85
739.52	1791.97
739.70	1685.48
739.88	1701.86
740.06	1798.12
740.24	1572.84
740.42	1718.25
740.60	1656.81
740.78	1687.53
740.96	1509.35
741.14	1710.05
741.32	1687.53
741.50	1667.05
741.68	1798.12
741.86	1781.73
742.04	1681.38
742.22	1679.33
742.40	1726.44
742.58	1736.68
742.76	1667.05
742.94	1789.92
743.12	1583.08
743.30	1742.82
743.48	1705.96
743.66	1677.29
743.84	1691.62
744.02	1767.40
744.20	1677.29
744.38	1673.19
744.56	1626.09
744.74	1828.84
744.92	1656.81
745.10	1769.44
745.28	1699.81
745.46	1843.17
745.64	1683.43
745.82	1736.68
746.00	1716.20
746.18	1732.58
746.36	1599.46
746.54	1695.72
746.72	1720.29
746.90	1548.26
747.08	1763.30
747.26	1693.67
747.44	1648.61
747.62	1703.91
747.80	1726.44
747.98	1804.26
748.15	1628.14
748.33	1804.26
748.51	1693.67
748.69	1650.66
748.87	1603.56
749.05	1591.27
749.23	1665.00
749.41	1716.20
749.59	1650.66
749.77	1775.59
749.95	1658.85
750.13	1628.14
750.31	1800.16
750.49	1730.53
750.67	1798.12
750.85	1787.88
751.03	1761.25
751.20	1877.99
751.38	1722.34
751.56	1673.19
751.74	1687.53
751.92	1720.29
752.10	1701.86
752.28	1773.54
752.46	1695.72
752.64	1685.48
752.82	1708.01
753.00	1785.83
753.18	1665.00
753.35	1683.43
753.53	1636.33
753.71	1683.43
753.89	1699.81
754.07	1722.34
754.25	1751.01
754.43	1693.67
754.61	1654.76
754.79	1687.53
754.97	1705.96
755.14	1761.25
755.32	1677.29
755.50	1744.87
755.68	1712.10
755.86	1691.62
756.04	1675.24
756.22	1533.93
756.40	1789.92
756.57	1800.16
756.75	1644.52
756.93	1771.49
757.11	1771.49
757.29	1724.39
757.47	1665.00
757.65	1564.65
757.82	1646.57
758.00	1624.04
758.18	1708.01
758.36	1638.38
758.54	1791.97
758.72	1646.57
758.90	1806.31
759.07	1732.58
759.25	1587.18
759.43	1769.44
759.61	1650.66
759.79	2148.32
759.97	1724.39
760.15	1607.66
760.32	1681.38
760.50	1638.38
760.68	1789.92
760.86	1607.66
761.04	1714.15
761.22	1718.25
761.39	1634.28
761.57	1759.21
761.75	1689.57
761.93	1714.15
762.11	1683.43
762.28	1716.20
762.46	1689.57
762.64	1714.15
762.82	1636.33
763.00	1734.63
763.18	1720.29
763.35	1748.97
763.53	1697.77
763.71	1691.62
763.89	1691.62
764.07	1742.82
764.24	1712.10
764.42	1791.97
764.60	1679.33
764.78	1728.49
764.96	1777.64
765.13	1734.63
765.31	1656.81
765.49	1681.38
765.67	1667.05
765.84	1617.90
766.02	1679.33
766.20	1646.57
766.38	1617.90
766.56	1759.21
766.73	1683.43
766.91	1726.44
767.09	1691.62
767.27	1699.81
767.44	1540.07
767.62	1712.10
767.80	1740.77
767.98	1632.23
768.15	1617.90
768.33	1697.77
768.51	1734.63
768.69	1718.25
768.87	1665.00
769.04	1681.38
769.22	1822.69
769.40	1800.16
769.58	1814.50
769.75	1673.19
769.93	1832.93
770.11	1708.01
770.28	1667.05
770.46	1787.88
770.64	1675.24
770.82	1703.91
770.99	1652.71
771.17	1685.48
771.35	1691.62
771.53	1697.77
771.70	1662.95
771.88	1632.23
772.06	1757.16
772.23	1705.96
772.41	1759.21
772.59	1679.33
772.77	1642.47
772.94	1658.85
773.12	1738.73
773.30	1677.29
773.47	1763.30
773.65	1581.03
773.83	1763.30
774.01	1720.29
774.18	1615.85
774.36	1644.52
774.54	1685.48
774.71	1800.16
774.89	1591.27
775.07	1654.76
775.24	1660.90
775.42	1654.76
775.60	1740.77
775.78	1673.19
775.95	1658.85
776.13	1640.42
776.31	1495.02
776.48	1738.73
776.66	1710.05
776.84	1689.57
777.01	1693.67
777.19	1687.53
777.37	1665.00
777.54	1693.67
777.72	1859.56
777.90	1669.09
778.07	1685.48
778.25	1845.22
778.43	1740.77
778.60	1648.61
778.78	1742.82
778.96	1828.84
779.13	1632.23
779.31	1787.88
779.49	1728.49
779.66	1710.05
779.84	1716.20
780.01	1601.51
780.19	1640.42
780.37	1771.49
780.54	1734.63
780.72	1656.81
780.90	1656.81
781.07	1636.33
781.25	1714.15
781.43	1751.01
781.60	1673.19
781.78	1759.21
781.95	1701.86
782.13	1708.01
782.31	1605.61
782.48	1589.22
782.66	1667.05
782.83	1810.40
783.01	1705.96
783.19	1648.61
783.36	1626.09
783.54	1708.01
783.72	1669.09
783.89	1644.52
784.07	1712.10
784.24	1710.05
784.42	1724.39
784.60	1673.19
784.77	1693.67
784.95	1628.14
785.12	1734.63
785.30	1677.29
785.47	1693.67
785.65	1626.09
785.83	1736.68
786.00	1607.66
786.18	1705.96
786.35	1595.37
786.53	1681.38
786.71	1710.05
786.88	1791.97
787.06	1640.42
787.23	1716.20
787.41	1671.14
787.58	1710.05
787.76	1662.95
787.94	1714.15
788.11	1736.68
788.29	1566.70
788.46	1681.38
788.64	1648.61
788.81	1648.61
788.99	1601.51
789.16	1621.99
789.34	1740.77
789.52	1675.24
789.69	1683.43
789.87	1583.08
790.04	1722.34
790.22	1693.67
790.39	1837.03
790.57	1656.81
790.74	1697.77
790.92	1808.36
791.09	1624.04
791.27	1683.43
791.44	1738.73
791.62	1708.01
791.79	1675.24
791.97	1726.44
792.15	1882.08
792.32	1773.54
792.50	1800.16
792.67	1789.92
792.85	1734.63
793.02	1728.49
793.20	1697.77
793.37	1595.37
793.55	1634.28
793.72	1589.22
793.90	1728.49
794.07	1638.38
794.25	1662.95
794.42	1724.39
794.60	1701.86
794.77	1677.29
794.95	1697.77
795.12	1818.60
795.30	1722.34
795.47	1617.90
795.65	1910.75
795.82	1720.29
796.00	1626.09
796.17	1675.24
796.34	1665.00
796.52	1720.29
796.69	1812.45
796.87	1761.25
797.04	1787.88
797.22	1748.97
797.39	1701.86
797.57	1685.48
797.74	1679.33
797.92	1722.34
798.09	1646.57
798.27	1759.21
798.44	1708.01
798.62	1673.19
798.79	1740.77
798.96	1673.19
799.14	1716.20
799.31	1785.83
799.49	1693.67
799.66	1730.53
799.84	1771.49
800.01	1634.28
800.19	1753.06
800.36	1669.09
800.53	1693.67
800.71	1720.29
800.88	1822.69
801.06	1646.57
801.23	1771.49
801.41	1665.00
801.58	1724.39
801.75	1660.90
801.93	1669.09
802.10	1732.58
802.28	1708.01
802.45	1656.81
802.63	1703.91
802.80	1775.59
802.97	1695.72
803.15	1701.86
803.32	1660.90
803.50	1718.25
803.67	1619.94
803.84	1628.14
804.02	1751.01
804.19	1665.00
804.37	1595.37
804.54	1642.47
804.71	1708.01
804.89	1671.14
805.06	1669.09
805.24	1744.87
805.41	1687.53
805.58	1701.86
805.76	1753.06
805.93	1681.38
806.10	1732.58
806.28	1787.88
806.45	1658.85
806.63	1705.96
806.80	1689.57
806.97	1662.95
807.15	1771.49
807.32	1763.30
807.49	1697.77
807.67	1578.98
807.84	1720.29
808.01	1597.42
808.19	1777.64
808.36	1794.02
808.54	1636.33
808.71	1687.53
808.88	1669.09
809.06	1681.38
809.23	1896.42
809.40	1628.14
809.58	1710.05
809.75	1689.57
809.92	1648.61
810.10	1798.12
810.27	1673.19
810.44	1669.09
810.62	1658.85
810.79	1712.10
810.96	1591.27
811.14	1621.99
811.31	1658.85
811.48	1748.97
811.66	1722.34
811.83	1759.21
812.00	1718.25
812.18	1738.73
812.35	1886.18
812.52	1660.90
812.69	1652.71
812.87	1695.72
813.04	1648.61
813.21	1652.71
813.39	1597.42
813.56	1640.42
813.73	1755.11
813.91	1615.85
814.08	1740.77
814.25	1724.39
814.42	1644.52
814.60	1656.81
814.77	1751.01
814.94	1701.86
815.12	1681.38
815.29	1773.54
815.46	1638.38
815.63	1673.19
815.81	1607.66
815.98	1728.49
816.15	1656.81
816.33	1708.01
816.50	1667.05
816.67	1689.57
816.84	1621.99
817.02	1624.04
817.19	1703.91
817.36	1714.15
817.53	1736.68
817.71	1687.53
817.88	1751.01
818.05	1710.05
818.22	1697.77
818.40	1845.22
818.57	1701.86
818.74	1644.52
818.91	1679.33
819.09	1654.76
819.26	1734.63
819.43	1718.25
819.60	1679.33
819.78	1757.16
819.95	1769.44
820.12	1585.13
820.29	1796.07
820.47	1708.01
820.64	1675.24
820.81	1585.13
820.98	1615.85
821.15	1679.33
821.33	1757.16
821.50	1589.22
821.67	1730.53
821.84	1583.08
822.02	1689.57
822.19	1794.02
822.36	1708.01
822.53	1748.97
822.70	1654.76
822.88	1642.47
823.05	1757.16
823.22	1671.14
823.39	1777.64
823.56	1691.62
823.74	1812.45
823.91	1599.46
824.08	1648.61
824.25	1644.52
824.42	1798.12
824.60	1699.81
824.77	1683.43
824.94	1630.18
825.11	1695.72
825.28	1703.91
825.45	1779.68
825.63	1673.19
825.80	1665.00
825.97	1744.87
826.14	1699.81
826.31	1677.29
826.48	1675.24
826.66	1660.90
826.83	1615.85
827.00	1736.68
827.17	1691.62
827.34	1710.05
827.51	1640.42
827.69	1675.24
827.86	1587.18
828.03	1689.57
828.20	1712.10
828.37	1697.77
828.54	1720.29
828.71	1703.91
828.89	1761.25
829.06	1652.71
829.23	1765.35
829.40	1572.84
829.57	1652.71
829.74	1724.39
829.91	1714.15
830.09	1675.24
830.26	1718.25
830.43	1740.77
830.60	1673.19
830.77	1802.21
830.94	1738.73
831.11	1722.34
831.28	1738.73
831.46	1730.53
831.63	1644.52
831.80	1740.77
831.97	1677.29
832.14	1730.53
832.31	1724.39
832.48	1744.87
832.65	1730.53
832.82	1720.29
832.99	1744.87
833.17	1611.75
833.34	1751.01
833.51	1710.05
833.68	1652.71
833.85	1755.11
834.02	1673.19
834.19	1675.24
834.36	1683.43
834.53	1703.91
834.70	1779.68
834.87	1857.51
835.04	1615.85
835.22	1632.23
835.39	1624.04
835.56	1609.70
835.73	1677.29
835.90	1671.14
836.07	1624.04
836.24	1673.19
836.41	1650.66
836.58	1654.76
836.75	1740.77
836.92	1724.39
837.09	1626.09
837.26	1724.39
837.43	1753.06
837.60	1705.96
837.77	1642.47
837.94	1705.96
838.12	1802.21
838.29	1720.29
838.46	1675.24
838.63	1533.93
838.80	1761.25
838.97	1724.39
839.14	1693.67
839.31	1708.01
839.48	1714.15
839.65	1681.38
839.82	1814.50
839.99	1634.28
840.16	1691.62
840.33	1656.81
840.50	1742.82
840.67	1642.47
840.84	1619.94
841.01	1708.01
841.18	1681.38
841.35	1693.67
841.52	1730.53
841.69	1775.59
841.86	1734.63
842.03	1636.33
842.20	1779.68
842.37	1693.67
842.54	1716.20
842.71	1746.92
842.88	1638.38
843.05	1755.11
843.22	1662.95
843.39	1742.82
843.56	1665.00
843.73	1697.77
843.90	1720.29
844.07	1703.91
844.24	1751.01
844.41	1800.16
844.58	1699.81
844.75	1695.72
844.92	1607.66
845.09	1703.91
845.26	1705.96
845.43	1779.68
845.60	1677.29
845.77	1820.64
845.94	1658.85
846.10	1726.44
846.27	1642.47
846.44	1638.38
846.61	1650.66
846.78	1714.15
846.95	1767.40
847.12	1693.67
847.29	1718.25
847.46	1617.90
847.63	1710.05
847.80	1724.39
847.97	1673.19
848.14	1832.93
848.31	1646.57
848.48	1638.38
848.65	1660.90
848.82	1675.24
848.98	1839.08
849.15	1781.73
849.32	1771.49
849.49	1755.11
849.66	1646.57
849.83	1677.29
850.00	1624.04
850.17	1667.05
850.34	1697.77
850.51	1677.29
850.68	1662.95
850.85	1763.30
851.01	1753.06
851.18	1669.09
851.35	1665.00
851.52	1710.05
851.69	1689.57
851.86	1660.90
852.03	1662.95
852.20	1665.00
852.37	1699.81
852.53	1652.71
852.70	1648.61
852.87	1683.43
853.04	1734.63
853.21	1695.72
853.38	1736.68
853.55	1777.64
853.72	1763.30
853.89	1611.75
854.05	1617.90
854.22	1603.56
854.39	1673.19
854.56	1650.66
854.73	1763.30
854.90	1669.09
855.07	1710.05
855.23	1665.00
855.40	1599.46
855.57	1669.09
855.74	1595.37
855.91	1882.08
856.08	1542.12
856.25	1644.52
856.41	1662.95
856.58	1673.19
856.75	1591.27
856.92	1636.33
857.09	1773.54
857.26	1650.66
857.42	1636.33
857.59	1724.39
857.76	1675.24
857.93	1734.63
858.10	1734.63
858.27	1681.38
858.43	1699.81
858.60	1683.43
858.77	1599.46
858.94	1701.86
859.11	1675.24
859.27	1699.81
859.44	1710.05
859.61	1775.59
859.78	1796.07
859.95	1724.39
860.12	1744.87
860.28	1826.79
860.45	1765.35
860.62	1624.04
860.79	1687.53
860.95	1701.86
861.12	1693.67
861.29	1671.14
861.46	1652.71
861.63	1624.04
861.79	1740.77
861.96	1681.38
862.13	1673.19
862.30	1773.54
862.47	1615.85
862.63	1617.90
862.80	1761.25
862.97	1726.44
863.14	1689.57
863.30	1701.86
863.47	1628.14
863.64	1787.88
863.81	1695.72
863.97	1640.42
864.14	1705.96
864.31	1718.25
864.48	1732.58
864.65	1720.29
864.81	1718.25
864.98	1775.59
865.15	1677.29
865.32	1775.59
865.48	1685.48
865.65	1714.15
865.82	1642.47
865.98	1644.52
866.15	1691.62
866.32	1695.72
866.49	1714.15
866.65	1742.82
866.82	1648.61
866.99	1689.57
867.16	1648.61
867.32	1683.43
867.49	1650.66
867.66	1726.44
867.83	1650.66
867.99	1603.56
868.16	1646.57
868.33	1662.95
868.49	1755.11
868.66	1646.57
868.83	1730.53
868.99	1767.40
869.16	1642.47
869.33	1726.44
869.50	1789.92
869.66	1726.44
869.83	1673.19
870.00	1615.85
870.16	1718.25
870.33	1624.04
870.50	1791.97
870.66	1675.24
870.83	1859.56
871.00	1658.85
871.17	1636.33
871.33	1722.34
871.50	1658.85
871.67	1669.09
871.83	1613.80
872.00	1773.54
872.17	1669.09
872.33	1777.64
872.50	1687.53
872.67	1710.05
872.83	1722.34
873.00	1671.14
873.17	1677.29
873.33	1773.54
873.50	1640.42
873.67	1601.51
873.83	1716.20
874.00	1611.75
874.16	1712.10
874.33	1669.09
874.50	1656.81
874.66	1757.16
874.83	1710.05
875.00	1794.02
875.16	1748.97
875.33	1724.39
875.50	1607.66
875.66	1681.38
875.83	1681.38
875.99	1738.73
876.16	1652.71
876.33	1607.66
876.49	1710.05
876.66	1789.92
876.83	1697.77
876.99	1691.62
877.16	1656.81
877.32	1675.24
877.49	1722.34
877.66	1667.05
877.82	1877.99
877.99	1740.77
878.15	1658.85
878.32	1800.16
878.49	1673.19
878.65	1681.38
878.82	1746.92
878.98	1673.19
879.15	1767.40
879.32	1767.40
879.48	1730.53
879.65	1681.38
879.81	1671.14
879.98	1644.52
880.15	1609.70
880.31	1779.68
880.48	1601.51
880.64	1759.21
880.81	1716.20
880.97	1804.26
881.14	1742.82
881.31	1603.56
881.47	1814.50
881.64	1673.19
881.80	1591.27
881.97	1708.01
882.13	1787.88
882.30	1603.56
882.47	1652.71
882.63	1654.76
882.80	1681.38
882.96	1703.91
883.13	1806.31
883.29	1699.81
883.46	1802.21
883.62	1834.98
883.79	1714.15
883.95	1773.54
884.12	1722.34
884.29	1763.30
884.45	1746.92
884.62	1767.40
884.78	1658.85
884.95	1714.15
885.11	1642.47
885.28	1703.91
885.44	1634.28
885.61	1736.68
885.77	1759.21
885.94	1667.05
886.10	1671.14
886.27	1714.15
886.43	1744.87
886.60	1693.67
886.76	1669.09
886.93	1665.00
887.09	1806.31
887.26	1665.00
887.42	1685.48
887.59	1783.78
887.75	1771.49
887.92	1730.53
888.08	1746.92
888.25	1824.74
888.41	1710.05
888.58	1650.66
888.74	1605.61
888.91	1689.57
>>>>>End Processed Spectral Data<<<<<
