SpectraSuite Data File
++++++++++++++++++++++++++++++++++++
Date: Mon Jun 06 15:35:17 CEST 2016
User: root
Dark Spectrum Present: No
Reference Spectrum Present: No
Number of Sampled Component Spectra: 1
Spectrometers: USB4C02835
Integration Time (usec): 100000 (USB4C02835)
Spectra Averaged: 1 (USB4C02835)
Boxcar Smoothing: 0 (USB4C02835)
Correct for Electrical Dark: No (USB4C02835)
Strobe/Lamp Enabled: No (USB4C02835)
Correct for Detector Non-linearity: No (USB4C02835)
Correct for Stray Light: No (USB4C02835)
Number of Pixels in Processed Spectrum: 3648
>>>>>Begin Processed Spectral Data<<<<<
177.47	1363.95
177.69	1363.95
177.91	1363.95
178.13	1452.01
178.36	1519.59
178.58	1724.39
178.80	1675.24
179.02	1617.90
179.24	1705.96
179.46	1705.96
179.68	1767.40
179.90	1732.58
180.13	1724.39
180.35	1669.09
180.57	1654.76
180.79	1783.78
181.01	1755.11
181.23	1775.59
181.45	1740.77
181.67	1714.15
181.90	1730.53
182.12	1662.95
182.34	1675.24
182.56	1724.39
182.78	1773.54
183.00	1705.96
183.22	1660.90
183.44	1574.89
183.66	1812.45
183.89	1775.59
184.11	1812.45
184.33	1757.16
184.55	1722.34
184.77	1708.01
184.99	1771.49
185.21	1669.09
185.43	1834.98
185.65	1710.05
185.87	1714.15
186.10	1869.80
186.32	1781.73
186.54	1708.01
186.76	1734.63
186.98	1751.01
187.20	1751.01
187.42	1730.53
187.64	1740.77
187.86	1779.68
188.08	1767.40
188.30	1757.16
188.52	1650.66
188.75	1810.40
188.97	1824.74
189.19	1656.81
189.41	1742.82
189.63	1695.72
189.85	1789.92
190.07	1683.43
190.29	1673.19
190.51	1734.63
190.73	1679.33
190.95	1767.40
191.17	1708.01
191.39	1652.71
191.61	1636.33
191.84	1658.85
192.06	1757.16
192.28	1601.51
192.50	1828.84
192.72	1716.20
192.94	1730.53
193.16	1730.53
193.38	1789.92
193.60	1595.37
193.82	1669.09
194.04	1742.82
194.26	1693.67
194.48	1650.66
194.70	1689.57
194.92	1716.20
195.14	1794.02
195.36	1718.25
195.58	1824.74
195.80	1681.38
196.02	1695.72
196.24	1701.86
196.46	1757.16
196.69	1763.30
196.91	1871.84
197.13	1638.38
197.35	1665.00
197.57	1804.26
197.79	1734.63
198.01	1746.92
198.23	1738.73
198.45	1794.02
198.67	1773.54
198.89	1693.67
199.11	1734.63
199.33	1673.19
199.55	1595.37
199.77	1656.81
199.99	1755.11
200.21	1697.77
200.43	1718.25
200.65	1660.90
200.87	1585.13
201.09	1730.53
201.31	1753.06
201.53	1720.29
201.75	1736.68
201.97	1683.43
202.19	1820.64
202.41	1687.53
202.63	1765.35
202.85	1767.40
203.07	1708.01
203.29	1714.15
203.51	1658.85
203.73	1753.06
203.95	1861.60
204.17	1753.06
204.39	1728.49
204.61	1726.44
204.83	1701.86
205.05	1785.83
205.27	1748.97
205.49	1857.51
205.71	1640.42
205.93	1597.42
206.15	1652.71
206.37	1761.25
206.59	1712.10
206.81	1689.57
207.03	1644.52
207.25	1634.28
207.47	1716.20
207.69	1724.39
207.91	1824.74
208.13	1753.06
208.34	1662.95
208.56	1728.49
208.78	1712.10
209.00	1683.43
209.22	1716.20
209.44	1732.58
209.66	1708.01
209.88	1763.30
210.10	1720.29
210.32	1683.43
210.54	1800.16
210.76	1716.20
210.98	1910.75
211.20	1615.85
211.42	1667.05
211.64	1781.73
211.86	1669.09
212.08	1708.01
212.30	1763.30
212.52	1705.96
212.74	1716.20
212.96	1689.57
213.17	1744.87
213.39	1742.82
213.61	1789.92
213.83	1742.82
214.05	1658.85
214.27	1783.78
214.49	1656.81
214.71	1638.38
214.93	1742.82
215.15	1781.73
215.37	1746.92
215.59	1636.33
215.81	1785.83
216.03	1832.93
216.24	1718.25
216.46	1648.61
216.68	1654.76
216.90	1701.86
217.12	1775.59
217.34	1718.25
217.56	1759.21
217.78	1738.73
218.00	1798.12
218.22	1738.73
218.44	1687.53
218.66	1738.73
218.87	1871.84
219.09	1673.19
219.31	1708.01
219.53	1779.68
219.75	1648.61
219.97	1716.20
220.19	1810.40
220.41	1689.57
220.63	1708.01
220.85	1679.33
221.06	1769.44
221.28	1759.21
221.50	1746.92
221.72	1660.90
221.94	1683.43
222.16	1656.81
222.38	1738.73
222.60	1660.90
222.82	1652.71
223.03	1742.82
223.25	1671.14
223.47	1763.30
223.69	1781.73
223.91	1824.74
224.13	1714.15
224.35	1658.85
224.57	1771.49
224.78	1751.01
225.00	1560.55
225.22	1708.01
225.44	1718.25
225.66	1794.02
225.88	1646.57
226.10	1746.92
226.32	1789.92
226.53	1773.54
226.75	1734.63
226.97	1730.53
227.19	1736.68
227.41	1701.86
227.63	1675.24
227.85	1658.85
228.06	1675.24
228.28	1736.68
228.50	1705.96
228.72	1652.71
228.94	1771.49
229.16	1587.18
229.37	1687.53
229.59	1636.33
229.81	1751.01
230.03	1687.53
230.25	1681.38
230.47	1667.05
230.69	1708.01
230.90	1759.21
231.12	1685.48
231.34	1781.73
231.56	1771.49
231.78	1722.34
232.00	1718.25
232.21	1652.71
232.43	1632.23
232.65	1574.89
232.87	1761.25
233.09	1689.57
233.30	1771.49
233.52	1820.64
233.74	1697.77
233.96	1576.94
234.18	1652.71
234.40	1726.44
234.61	1847.27
234.83	1630.18
235.05	1685.48
235.27	1894.37
235.49	1730.53
235.70	1761.25
235.92	1765.35
236.14	1724.39
236.36	1796.07
236.58	1675.24
236.79	1759.21
237.01	1658.85
237.23	1673.19
237.45	1834.98
237.67	1705.96
237.88	1730.53
238.10	1773.54
238.32	1601.51
238.54	1757.16
238.76	1736.68
238.97	1621.99
239.19	1689.57
239.41	1769.44
239.63	1744.87
239.85	1712.10
240.06	1662.95
240.28	1624.04
240.50	1771.49
240.72	1724.39
240.93	1660.90
241.15	1757.16
241.37	1718.25
241.59	1753.06
241.81	1732.58
242.02	1746.92
242.24	1820.64
242.46	1726.44
242.68	1671.14
242.89	1673.19
243.11	1767.40
243.33	1730.53
243.55	1718.25
243.76	1812.45
243.98	1679.33
244.20	1710.05
244.42	1718.25
244.64	1718.25
244.85	1667.05
245.07	1705.96
245.29	1759.21
245.51	1738.73
245.72	1705.96
245.94	1804.26
246.16	1744.87
246.38	1818.60
246.59	1628.14
246.81	1621.99
247.03	1673.19
247.24	1603.56
247.46	1693.67
247.68	1701.86
247.90	1636.33
248.11	1744.87
248.33	1767.40
248.55	1675.24
248.77	1656.81
248.98	1736.68
249.20	1787.88
249.42	1763.30
249.64	1720.29
249.85	1726.44
250.07	1646.57
250.29	1767.40
250.50	1812.45
250.72	1693.67
250.94	1695.72
251.16	1810.40
251.37	1757.16
251.59	1689.57
251.81	1753.06
252.02	1705.96
252.24	1699.81
252.46	1794.02
252.68	1730.53
252.89	1724.39
253.11	1660.90
253.33	1880.04
253.54	1869.80
253.76	1556.46
253.98	1734.63
254.20	1724.39
254.41	1595.37
254.63	1677.29
254.85	1656.81
255.06	1640.42
255.28	1726.44
255.50	1697.77
255.71	1658.85
255.93	1632.23
256.15	1669.09
256.36	1742.82
256.58	1703.91
256.80	1751.01
257.02	1746.92
257.23	1712.10
257.45	1665.00
257.67	1773.54
257.88	1712.10
258.10	1730.53
258.32	1673.19
258.53	1757.16
258.75	1796.07
258.97	1669.09
259.18	1658.85
259.40	1705.96
259.62	1865.70
259.83	1796.07
260.05	1781.73
260.27	1957.86
260.48	1742.82
260.70	1671.14
260.92	1726.44
261.13	1757.16
261.35	1738.73
261.57	1742.82
261.78	1601.51
262.00	1644.52
262.22	1708.01
262.43	1675.24
262.65	1708.01
262.86	1656.81
263.08	1857.51
263.30	1738.73
263.51	1605.61
263.73	1652.71
263.95	1820.64
264.16	1634.28
264.38	1619.94
264.60	1748.97
264.81	1751.01
265.03	1751.01
265.25	1763.30
265.46	1677.29
265.68	1837.03
265.89	1632.23
266.11	1619.94
266.33	1738.73
266.54	1744.87
266.76	1789.92
266.98	1691.62
267.19	1800.16
267.41	1714.15
267.62	1607.66
267.84	1671.14
268.06	1763.30
268.27	1804.26
268.49	1726.44
268.70	1755.11
268.92	1798.12
269.14	1640.42
269.35	1634.28
269.57	1718.25
269.79	1769.44
270.00	1703.91
270.22	1791.97
270.43	1677.29
270.65	1642.47
270.87	1730.53
271.08	1789.92
271.30	1746.92
271.51	1691.62
271.73	1708.01
271.95	1796.07
272.16	1726.44
272.38	1744.87
272.59	1701.86
272.81	1746.92
273.02	1740.77
273.24	1773.54
273.46	1687.53
273.67	1683.43
273.89	1665.00
274.10	1660.90
274.32	1753.06
274.54	1669.09
274.75	1710.05
274.97	1632.23
275.18	1767.40
275.40	1779.68
275.61	1660.90
275.83	1642.47
276.05	1656.81
276.26	1748.97
276.48	1787.88
276.69	1677.29
276.91	1626.09
277.12	1771.49
277.34	1804.26
277.55	1705.96
277.77	1691.62
277.99	1695.72
278.20	1669.09
278.42	1626.09
278.63	1712.10
278.85	1634.28
279.06	1673.19
279.28	1724.39
279.49	1787.88
279.71	1810.40
279.93	1714.15
280.14	1773.54
280.36	1671.14
280.57	1736.68
280.79	1767.40
281.00	1640.42
281.22	1708.01
281.43	1781.73
281.65	1630.18
281.86	1665.00
282.08	1675.24
282.29	1773.54
282.51	1665.00
282.73	1650.66
282.94	1611.75
283.16	1710.05
283.37	1771.49
283.59	1720.29
283.80	1826.79
284.02	1626.09
284.23	1753.06
284.45	1705.96
284.66	1669.09
284.88	1693.67
285.09	1775.59
285.31	1742.82
285.52	1753.06
285.74	1574.89
285.95	1812.45
286.17	1613.80
286.38	1791.97
286.60	1722.34
286.81	1656.81
287.03	1654.76
287.24	1748.97
287.46	1794.02
287.67	1744.87
287.89	1865.70
288.10	1716.20
288.32	1802.21
288.53	1808.36
288.75	1742.82
288.96	1712.10
289.18	1673.19
289.39	1626.09
289.61	1812.45
289.82	1855.46
290.04	1867.75
290.25	1730.53
290.47	1687.53
290.68	1693.67
290.90	1673.19
291.11	1630.18
291.33	1724.39
291.54	1689.57
291.76	1656.81
291.97	1710.05
292.18	1738.73
292.40	1636.33
292.61	1685.48
292.83	1828.84
293.04	1738.73
293.26	1681.38
293.47	1714.15
293.69	1673.19
293.90	1691.62
294.12	1785.83
294.33	1691.62
294.55	1843.17
294.76	1767.40
294.97	1783.78
295.19	1826.79
295.40	1671.14
295.62	1687.53
295.83	1767.40
296.05	1691.62
296.26	1810.40
296.48	1695.72
296.69	1677.29
296.90	1683.43
297.12	1728.49
297.33	1775.59
297.55	1732.58
297.76	1732.58
297.98	1812.45
298.19	1695.72
298.41	1785.83
298.62	1724.39
298.83	1843.17
299.05	1751.01
299.26	1605.61
299.48	1691.62
299.69	1714.15
299.90	1740.77
300.12	1746.92
300.33	1722.34
300.55	1724.39
300.76	1800.16
300.98	1634.28
301.19	1665.00
301.40	1628.14
301.62	1611.75
301.83	1746.92
302.05	1710.05
302.26	1751.01
302.47	1779.68
302.69	1632.23
302.90	1714.15
303.12	1589.22
303.33	1710.05
303.54	1771.49
303.76	1652.71
303.97	1740.77
304.19	1761.25
304.40	1626.09
304.61	1767.40
304.83	1798.12
305.04	1746.92
305.26	1761.25
305.47	1720.29
305.68	1734.63
305.90	1673.19
306.11	1763.30
306.33	1716.20
306.54	1673.19
306.75	1630.18
306.97	1601.51
307.18	1671.14
307.39	1632.23
307.61	1681.38
307.82	1726.44
308.04	1740.77
308.25	1701.86
308.46	1699.81
308.68	1722.34
308.89	1722.34
309.10	1779.68
309.32	1738.73
309.53	1814.50
309.74	1726.44
309.96	1740.77
310.17	1789.92
310.39	1675.24
310.60	1740.77
310.81	1755.11
311.03	1646.57
311.24	1759.21
311.45	1734.63
311.67	1791.97
311.88	1830.88
312.09	1716.20
312.31	1693.67
312.52	1718.25
312.73	1636.33
312.95	1665.00
313.16	1630.18
313.37	1796.07
313.59	1765.35
313.80	1773.54
314.01	1798.12
314.23	1683.43
314.44	1722.34
314.65	1636.33
314.87	1681.38
315.08	1697.77
315.29	1619.94
315.51	1667.05
315.72	1634.28
315.93	1763.30
316.15	1818.60
316.36	1662.95
316.57	1714.15
316.79	1800.16
317.00	1779.68
317.21	1785.83
317.43	1681.38
317.64	1740.77
317.85	1705.96
318.07	1736.68
318.28	1738.73
318.49	1832.93
318.70	1906.66
318.92	1912.80
319.13	1800.16
319.34	1906.66
319.56	1757.16
319.77	1845.22
319.98	1802.21
320.20	1806.31
320.41	1748.97
320.62	1644.52
320.83	1624.04
321.05	1898.47
321.26	1708.01
321.47	1751.01
321.69	1710.05
321.90	1585.13
322.11	1736.68
322.32	1812.45
322.54	1746.92
322.75	1640.42
322.96	1880.04
323.18	1624.04
323.39	1589.22
323.60	1640.42
323.81	1802.21
324.03	1718.25
324.24	1675.24
324.45	1718.25
324.66	1718.25
324.88	1757.16
325.09	1804.26
325.30	1742.82
325.52	1732.58
325.73	1816.55
325.94	1665.00
326.15	1562.60
326.37	1650.66
326.58	1804.26
326.79	1820.64
327.00	1638.38
327.22	1710.05
327.43	1765.35
327.64	1675.24
327.85	1751.01
328.07	1748.97
328.28	1845.22
328.49	1726.44
328.70	1738.73
328.92	1748.97
329.13	1650.66
329.34	1724.39
329.55	1787.88
329.76	1830.88
329.98	1714.15
330.19	1705.96
330.40	1703.91
330.61	1798.12
330.83	1742.82
331.04	1648.61
331.25	1732.58
331.46	1660.90
331.68	1611.75
331.89	1751.01
332.10	1730.53
332.31	1665.00
332.52	1693.67
332.74	1757.16
332.95	1621.99
333.16	1787.88
333.37	1673.19
333.58	1665.00
333.80	1732.58
334.01	1644.52
334.22	1689.57
334.43	1619.94
334.64	1689.57
334.86	1656.81
335.07	1650.66
335.28	1763.30
335.49	1695.72
335.70	1755.11
335.92	1726.44
336.13	1777.64
336.34	1705.96
336.55	1755.11
336.76	1710.05
336.98	1599.46
337.19	1718.25
337.40	1837.03
337.61	1863.65
337.82	1665.00
338.04	1849.32
338.25	1662.95
338.46	1689.57
338.67	1755.11
338.88	1740.77
339.09	1675.24
339.31	1632.23
339.52	1611.75
339.73	1671.14
339.94	1701.86
340.15	1794.02
340.36	1665.00
340.58	1646.57
340.79	1650.66
341.00	1701.86
341.21	1652.71
341.42	1757.16
341.63	1660.90
341.85	1732.58
342.06	1720.29
342.27	1681.38
342.48	1777.64
342.69	1615.85
342.90	1734.63
343.12	1785.83
343.33	1738.73
343.54	1755.11
343.75	1820.64
343.96	1732.58
344.17	1685.48
344.38	1705.96
344.60	1687.53
344.81	1662.95
345.02	1779.68
345.23	1828.84
345.44	1802.21
345.65	1800.16
345.86	1710.05
346.07	1660.90
346.29	1697.77
346.50	1726.44
346.71	1781.73
346.92	1775.59
347.13	1828.84
347.34	1728.49
347.55	1789.92
347.76	1693.67
347.98	1662.95
348.19	1677.29
348.40	1738.73
348.61	1726.44
348.82	1865.70
349.03	1656.81
349.24	1701.86
349.45	1877.99
349.66	1591.27
349.88	1759.21
350.09	1740.77
350.30	1744.87
350.51	1718.25
350.72	1755.11
350.93	1767.40
351.14	1656.81
351.35	1765.35
351.56	1722.34
351.77	1701.86
351.99	1726.44
352.20	1773.54
352.41	1761.25
352.62	1599.46
352.83	1710.05
353.04	1673.19
353.25	1689.57
353.46	1734.63
353.67	1763.30
353.88	1652.71
354.09	1650.66
354.30	1724.39
354.52	1687.53
354.73	1751.01
354.94	1687.53
355.15	1658.85
355.36	1886.18
355.57	1679.33
355.78	1724.39
355.99	1687.53
356.20	1712.10
356.41	1763.30
356.62	1746.92
356.83	1662.95
357.04	1791.97
357.25	1679.33
357.46	1677.29
357.68	1617.90
357.89	1687.53
358.10	1669.09
358.31	1681.38
358.52	1693.67
358.73	1701.86
358.94	1722.34
359.15	1589.22
359.36	1771.49
359.57	1730.53
359.78	1722.34
359.99	1730.53
360.20	1609.70
360.41	1775.59
360.62	1730.53
360.83	1740.77
361.04	1701.86
361.25	1732.58
361.46	1796.07
361.67	1751.01
361.88	1773.54
362.09	1794.02
362.30	1726.44
362.51	1636.33
362.72	1701.86
362.93	1718.25
363.14	1742.82
363.35	1720.29
363.56	1658.85
363.78	1726.44
363.99	1787.88
364.20	1714.15
364.41	1800.16
364.62	1808.36
364.83	1683.43
365.04	1751.01
365.25	1687.53
365.46	1789.92
365.67	1675.24
365.88	1658.85
366.09	1722.34
366.30	1648.61
366.51	1665.00
366.72	1669.09
366.93	1718.25
367.14	1699.81
367.35	1806.31
367.56	1665.00
367.77	1740.77
367.98	1699.81
368.18	1740.77
368.39	1732.58
368.60	1658.85
368.81	1751.01
369.02	1767.40
369.23	1662.95
369.44	1640.42
369.65	1648.61
369.86	1740.77
370.07	1787.88
370.28	1720.29
370.49	1751.01
370.70	1722.34
370.91	1585.13
371.12	1599.46
371.33	1746.92
371.54	1673.19
371.75	1820.64
371.96	1593.32
372.17	1734.63
372.38	1665.00
372.59	1794.02
372.80	1636.33
373.01	1722.34
373.22	1734.63
373.43	1710.05
373.64	1658.85
373.85	1796.07
374.06	1816.55
374.26	1705.96
374.47	1701.86
374.68	1818.60
374.89	1708.01
375.10	1714.15
375.31	1759.21
375.52	1708.01
375.73	1740.77
375.94	1693.67
376.15	1794.02
376.36	1767.40
376.57	1654.76
376.78	1714.15
376.99	1824.74
377.20	1853.41
377.40	1687.53
377.61	1769.44
377.82	1705.96
378.03	1767.40
378.24	1759.21
378.45	1697.77
378.66	1740.77
378.87	1574.89
379.08	1609.70
379.29	1773.54
379.50	1730.53
379.71	1679.33
379.91	1742.82
380.12	1726.44
380.33	1724.39
380.54	1699.81
380.75	1720.29
380.96	1734.63
381.17	1732.58
381.38	1695.72
381.59	1720.29
381.80	1755.11
382.00	1824.74
382.21	1751.01
382.42	1849.32
382.63	1867.75
382.84	1806.31
383.05	1849.32
383.26	1806.31
383.47	1734.63
383.68	1806.31
383.88	1785.83
384.09	1730.53
384.30	1843.17
384.51	1665.00
384.72	1632.23
384.93	1669.09
385.14	1781.73
385.35	1769.44
385.55	1626.09
385.76	1703.91
385.97	1679.33
386.18	1642.47
386.39	1675.24
386.60	1648.61
386.81	1734.63
387.02	1753.06
387.22	1667.05
387.43	1771.49
387.64	1781.73
387.85	1927.14
388.06	2209.76
388.27	4218.82
388.48	6520.73
388.68	8146.82
388.89	9322.35
389.10	9654.12
389.31	8406.91
389.52	7536.52
389.73	6719.39
389.93	6195.11
390.14	5865.38
390.35	5232.56
390.56	4485.05
390.77	3684.30
390.98	3016.66
391.18	2586.58
391.39	2150.37
391.60	1857.51
391.81	1828.84
392.02	1748.97
392.23	1812.45
392.43	1748.97
392.64	1775.59
392.85	1669.09
393.06	1851.36
393.27	1716.20
393.47	1742.82
393.68	1775.59
393.89	1755.11
394.10	1763.30
394.31	1705.96
394.52	1640.42
394.72	1673.19
394.93	1794.02
395.14	1654.76
395.35	1791.97
395.56	1679.33
395.76	1759.21
395.97	1773.54
396.18	1898.47
396.39	1773.54
396.60	1992.67
396.80	1923.04
397.01	1783.78
397.22	1804.26
397.43	1814.50
397.64	1736.68
397.84	1779.68
398.05	1818.60
398.26	1746.92
398.47	1826.79
398.67	1775.59
398.88	1714.15
399.09	1697.77
399.30	1685.48
399.51	1822.69
399.71	1656.81
399.92	1730.53
400.13	1730.53
400.34	1687.53
400.54	1677.29
400.75	1855.46
400.96	1736.68
401.17	1865.70
401.37	1757.16
401.58	1691.62
401.79	1763.30
402.00	1843.17
402.21	1976.29
402.41	1978.34
402.62	2045.92
402.83	2025.44
403.04	2099.17
403.24	2115.55
403.45	1818.60
403.66	1902.56
403.87	1859.56
404.07	1890.28
404.28	1904.61
404.49	1898.47
404.70	1718.25
404.90	1791.97
405.11	1738.73
405.32	1791.97
405.52	1685.48
405.73	1701.86
405.94	1632.23
406.15	1779.68
406.35	1673.19
406.56	1718.25
406.77	1794.02
406.98	1714.15
407.18	1658.85
407.39	1837.03
407.60	1746.92
407.80	1699.81
408.01	1660.90
408.22	1701.86
408.43	1693.67
408.63	1767.40
408.84	1738.73
409.05	1738.73
409.25	1699.81
409.46	1732.58
409.67	1730.53
409.88	1712.10
410.08	1748.97
410.29	1693.67
410.50	1677.29
410.70	1740.77
410.91	1703.91
411.12	1689.57
411.32	1658.85
411.53	1701.86
411.74	1834.98
411.95	1798.12
412.15	1789.92
412.36	1771.49
412.57	1816.55
412.77	1812.45
412.98	1675.24
413.19	1628.14
413.39	1773.54
413.60	1705.96
413.81	1783.78
414.01	1705.96
414.22	1740.77
414.43	1781.73
414.63	1671.14
414.84	1820.64
415.05	1677.29
415.25	1642.47
415.46	1753.06
415.67	1665.00
415.87	1691.62
416.08	1767.40
416.29	1724.39
416.49	1710.05
416.70	1722.34
416.91	1718.25
417.11	1708.01
417.32	1785.83
417.53	1798.12
417.73	1808.36
417.94	1726.44
418.15	1720.29
418.35	1796.07
418.56	1740.77
418.77	1880.04
418.97	1697.77
419.18	1744.87
419.38	1613.80
419.59	1638.38
419.80	1757.16
420.00	1751.01
420.21	1763.30
420.42	1837.03
420.62	1716.20
420.83	1595.37
421.04	1736.68
421.24	1669.09
421.45	1757.16
421.65	1736.68
421.86	1755.11
422.07	1753.06
422.27	1734.63
422.48	1697.77
422.69	1599.46
422.89	1695.72
423.10	1701.86
423.30	1712.10
423.51	1763.30
423.72	1748.97
423.92	1798.12
424.13	1671.14
424.33	1769.44
424.54	1787.88
424.75	1724.39
424.95	1849.32
425.16	1724.39
425.36	1705.96
425.57	1681.38
425.78	1781.73
425.98	1724.39
426.19	1732.58
426.39	1671.14
426.60	1671.14
426.81	1859.56
427.01	1736.68
427.22	1681.38
427.42	1593.32
427.63	1691.62
427.83	1755.11
428.04	1822.69
428.25	1845.22
428.45	1798.12
428.66	1783.78
428.86	1724.39
429.07	1703.91
429.28	1728.49
429.48	1665.00
429.69	1689.57
429.89	1734.63
430.10	1775.59
430.30	1695.72
430.51	1765.35
430.71	1640.42
430.92	1701.86
431.13	1697.77
431.33	1753.06
431.54	1818.60
431.74	1857.51
431.95	1806.31
432.15	1650.66
432.36	1767.40
432.56	1769.44
432.77	1882.08
432.98	1767.40
433.18	1757.16
433.39	1662.95
433.59	1669.09
433.80	1843.17
434.00	1910.75
434.21	1673.19
434.41	1621.99
434.62	1847.27
434.82	1742.82
435.03	1626.09
435.23	1724.39
435.44	1599.46
435.64	1751.01
435.85	1798.12
436.06	1718.25
436.26	1740.77
436.47	1703.91
436.67	1699.81
436.88	1673.19
437.08	1771.49
437.29	1810.40
437.49	1777.64
437.70	1763.30
437.90	1816.55
438.11	1871.84
438.31	1765.35
438.52	1906.66
438.72	1849.32
438.93	1832.93
439.13	1814.50
439.34	1867.75
439.54	1710.05
439.75	1787.88
439.95	1812.45
440.16	1728.49
440.36	1800.16
440.57	1763.30
440.77	1763.30
440.98	1794.02
441.18	1781.73
441.39	1773.54
441.59	1744.87
441.80	1847.27
442.00	1720.29
442.21	1853.41
442.41	1673.19
442.62	1742.82
442.82	1658.85
443.02	1705.96
443.23	1718.25
443.43	1742.82
443.64	1814.50
443.84	1640.42
444.05	1822.69
444.25	1654.76
444.46	1669.09
444.66	1757.16
444.87	1888.23
445.07	1757.16
445.28	1746.92
445.48	1724.39
445.69	1837.03
445.89	1873.89
446.09	1798.12
446.30	1957.86
446.50	2713.56
446.71	3692.49
446.91	4319.17
447.12	4757.43
447.32	4839.35
447.53	4290.49
447.73	3928.00
447.93	3465.16
448.14	3278.80
448.34	3205.07
448.55	2975.70
448.75	2838.48
448.96	2639.83
449.16	2484.19
449.36	2238.43
449.57	2115.55
449.77	1877.99
449.98	1818.60
450.18	1869.80
450.39	1800.16
450.59	1765.35
450.79	1769.44
451.00	1701.86
451.20	1802.21
451.41	1703.91
451.61	1794.02
451.81	1781.73
452.02	1746.92
452.22	1691.62
452.43	1673.19
452.63	1738.73
452.84	1773.54
453.04	1693.67
453.24	1679.33
453.45	1748.97
453.65	1742.82
453.86	1755.11
454.06	1761.25
454.26	1738.73
454.47	1679.33
454.67	1832.93
454.87	1728.49
455.08	1755.11
455.28	1796.07
455.49	1763.30
455.69	1746.92
455.89	1869.80
456.10	1843.17
456.30	1773.54
456.51	1810.40
456.71	1730.53
456.91	1742.82
457.12	1703.91
457.32	1734.63
457.52	1679.33
457.73	1804.26
457.93	1791.97
458.14	1738.73
458.34	1626.09
458.54	1665.00
458.75	1708.01
458.95	1798.12
459.15	1828.84
459.36	1746.92
459.56	1789.92
459.76	1837.03
459.97	1708.01
460.17	1746.92
460.37	1845.22
460.58	1669.09
460.78	1695.72
460.99	1753.06
461.19	1710.05
461.39	1787.88
461.60	1751.01
461.80	1767.40
462.00	1638.38
462.21	1742.82
462.41	1730.53
462.61	1714.15
462.82	1652.71
463.02	1832.93
463.22	1718.25
463.43	1775.59
463.63	1759.21
463.83	1759.21
464.04	1769.44
464.24	1730.53
464.44	1748.97
464.64	1798.12
464.85	1751.01
465.05	1830.88
465.25	1746.92
465.46	1724.39
465.66	1839.08
465.86	1738.73
466.07	1687.53
466.27	1826.79
466.47	1669.09
466.68	1660.90
466.88	1869.80
467.08	1695.72
467.29	1744.87
467.49	1753.06
467.69	1767.40
467.89	1759.21
468.10	1718.25
468.30	1746.92
468.50	1822.69
468.71	1755.11
468.91	1677.29
469.11	1882.08
469.31	1699.81
469.52	1693.67
469.72	1732.58
469.92	1845.22
470.13	1738.73
470.33	1748.97
470.53	1789.92
470.73	2121.70
470.94	2373.60
471.14	2346.97
471.34	2457.56
471.54	2383.84
471.75	2185.18
471.95	2125.79
472.15	2058.21
472.36	2154.46
472.56	2090.98
472.76	1996.77
472.96	2007.01
473.17	1935.33
473.37	1886.18
473.57	1796.07
473.77	1765.35
473.98	1783.78
474.18	1658.85
474.38	1939.43
474.58	1753.06
474.79	1671.14
474.99	1779.68
475.19	1720.29
475.39	1701.86
475.60	1808.36
475.80	1730.53
476.00	1757.16
476.20	1710.05
476.41	1736.68
476.61	1828.84
476.81	1748.97
477.01	1644.52
477.21	1826.79
477.42	1765.35
477.62	1691.62
477.82	1869.80
478.02	1755.11
478.23	1765.35
478.43	1710.05
478.63	1691.62
478.83	1718.25
479.03	1716.20
479.24	1873.89
479.44	1822.69
479.64	1740.77
479.84	1652.71
480.04	1703.91
480.25	1775.59
480.45	1638.38
480.65	1705.96
480.85	1816.55
481.06	1705.96
481.26	1744.87
481.46	1810.40
481.66	1712.10
481.86	1701.86
482.06	1748.97
482.27	1746.92
482.47	1689.57
482.67	1765.35
482.87	1681.38
483.07	1837.03
483.28	1775.59
483.48	1605.61
483.68	1798.12
483.88	1585.13
484.08	1585.13
484.29	1660.90
484.49	1765.35
484.69	1632.23
484.89	1865.70
485.09	1853.41
485.29	1822.69
485.50	1761.25
485.70	1658.85
485.90	1822.69
486.10	1720.29
486.30	1791.97
486.50	1779.68
486.71	1679.33
486.91	1722.34
487.11	1775.59
487.31	1726.44
487.51	1695.72
487.71	1638.38
487.91	1646.57
488.12	1693.67
488.32	1548.26
488.52	1701.86
488.72	1673.19
488.92	1718.25
489.12	1873.89
489.32	1814.50
489.53	1755.11
489.73	1716.20
489.93	1855.46
490.13	1738.73
490.33	1685.48
490.53	1734.63
490.73	1763.30
490.94	1675.24
491.14	1814.50
491.34	1908.71
491.54	2209.76
491.74	2600.92
491.94	2930.64
492.14	3098.58
492.34	3053.52
492.54	2740.18
492.75	2387.93
492.95	2443.23
493.15	2394.08
493.35	2211.81
493.55	2154.46
493.75	2138.08
493.95	2150.37
494.15	2066.40
494.35	1904.61
494.56	1890.28
494.76	1798.12
494.96	1767.40
495.16	1779.68
495.36	1769.44
495.56	1736.68
495.76	1699.81
495.96	1722.34
496.16	1660.90
496.36	1781.73
496.56	1718.25
496.77	1738.73
496.97	1669.09
497.17	1736.68
497.37	1658.85
497.57	1751.01
497.77	1777.64
497.97	1675.24
498.17	1794.02
498.37	1757.16
498.57	1693.67
498.77	1687.53
498.97	1736.68
499.17	1900.52
499.38	1757.16
499.58	1779.68
499.78	1798.12
499.98	1824.74
500.18	1685.48
500.38	1730.53
500.58	1951.71
500.78	2494.43
500.98	4573.11
501.18	5887.91
501.38	6635.42
501.58	6977.43
501.78	6555.55
501.98	5502.89
502.18	5113.78
502.38	4372.41
502.58	4063.17
502.78	3708.87
502.98	3596.23
503.18	3362.76
503.38	3088.34
503.59	2877.40
503.79	2639.83
503.99	2488.28
504.19	2279.39
504.39	2160.61
504.59	2183.13
504.79	2084.83
504.99	2023.39
505.19	1964.00
505.39	1845.22
505.59	1918.95
505.79	1931.23
505.99	1843.17
506.19	1837.03
506.39	1875.94
506.59	1800.16
506.79	1746.92
506.99	1832.93
507.19	1789.92
507.39	1775.59
507.59	1656.81
507.79	1695.72
507.99	1722.34
508.19	1765.35
508.39	1681.38
508.59	1701.86
508.79	1847.27
508.99	1783.78
509.19	1632.23
509.39	1853.41
509.59	1705.96
509.79	1693.67
509.99	1832.93
510.19	1816.55
510.39	1837.03
510.59	1705.96
510.79	1714.15
510.99	1669.09
511.19	1787.88
511.39	1822.69
511.59	1800.16
511.79	1794.02
511.99	1712.10
512.19	1839.08
512.38	1726.44
512.58	1701.86
512.78	1714.15
512.98	1908.71
513.18	1773.54
513.38	1642.47
513.58	1787.88
513.78	1759.21
513.98	1783.78
514.18	1646.57
514.38	1746.92
514.58	1722.34
514.78	1646.57
514.98	1714.15
515.18	1687.53
515.38	1714.15
515.58	1900.52
515.78	1753.06
515.98	1779.68
516.18	1865.70
516.38	1691.62
516.57	1703.91
516.77	1769.44
516.97	1777.64
517.17	1751.01
517.37	1591.27
517.57	1808.36
517.77	1710.05
517.97	1718.25
518.17	1722.34
518.37	1724.39
518.57	1654.76
518.77	1759.21
518.97	1660.90
519.16	1824.74
519.36	1769.44
519.56	1722.34
519.76	1759.21
519.96	1689.57
520.16	1841.12
520.36	1681.38
520.56	1806.31
520.76	1681.38
520.96	1710.05
521.16	1714.15
521.35	1775.59
521.55	1796.07
521.75	1716.20
521.95	1761.25
522.15	1705.96
522.35	1656.81
522.55	1722.34
522.75	1877.99
522.95	1675.24
523.14	1730.53
523.34	1701.86
523.54	1705.96
523.74	1818.60
523.94	1814.50
524.14	1634.28
524.34	1695.72
524.54	1787.88
524.73	1695.72
524.93	1789.92
525.13	1751.01
525.33	1716.20
525.53	1910.75
525.73	1796.07
525.93	1789.92
526.13	1726.44
526.32	1773.54
526.52	1832.93
526.72	1857.51
526.92	1794.02
527.12	1689.57
527.32	1683.43
527.52	1740.77
527.71	1781.73
527.91	1781.73
528.11	1734.63
528.31	1761.25
528.51	1648.61
528.71	1734.63
528.90	1755.11
529.10	1832.93
529.30	1830.88
529.50	1675.24
529.70	1714.15
529.90	1683.43
530.09	1800.16
530.29	1642.47
530.49	1605.61
530.69	1861.60
530.89	1781.73
531.09	1845.22
531.28	1757.16
531.48	1787.88
531.68	1726.44
531.88	1712.10
532.08	1810.40
532.28	1746.92
532.47	1777.64
532.67	1863.65
532.87	1740.77
533.07	1683.43
533.27	1818.60
533.46	1767.40
533.66	1720.29
533.86	1701.86
534.06	1779.68
534.26	1787.88
534.45	1714.15
534.65	1837.03
534.85	1787.88
535.05	1755.11
535.25	1824.74
535.44	1617.90
535.64	1845.22
535.84	1761.25
536.04	1726.44
536.24	1763.30
536.43	1710.05
536.63	1751.01
536.83	1759.21
537.03	1728.49
537.22	1724.39
537.42	1636.33
537.62	1757.16
537.82	1638.38
538.02	1828.84
538.21	1763.30
538.41	1949.67
538.61	1785.83
538.81	1673.19
539.00	1830.88
539.20	1619.94
539.40	1714.15
539.60	1767.40
539.79	1791.97
539.99	1708.01
540.19	1763.30
540.39	1738.73
540.58	1775.59
540.78	1875.94
540.98	1779.68
541.18	1826.79
541.37	1787.88
541.57	1763.30
541.77	1744.87
541.97	1624.04
542.16	1652.71
542.36	1767.40
542.56	1679.33
542.76	1875.94
542.95	1771.49
543.15	1800.16
543.35	1771.49
543.54	1642.47
543.74	1771.49
543.94	1738.73
544.14	1755.11
544.33	1716.20
544.53	1775.59
544.73	1726.44
544.93	1716.20
545.12	1779.68
545.32	1769.44
545.52	1744.87
545.71	1716.20
545.91	1726.44
546.11	1730.53
546.30	1765.35
546.50	1710.05
546.70	1755.11
546.90	1765.35
547.09	1728.49
547.29	1759.21
547.49	1802.21
547.68	1755.11
547.88	1716.20
548.08	1839.08
548.27	2140.13
548.47	1703.91
548.67	1699.81
548.87	1746.92
549.06	1732.58
549.26	1730.53
549.46	1699.81
549.65	1751.01
549.85	1810.40
550.05	1757.16
550.24	1679.33
550.44	1722.34
550.64	1718.25
550.83	1755.11
551.03	1859.56
551.23	1871.84
551.42	1783.78
551.62	1783.78
551.82	1785.83
552.01	1726.44
552.21	1820.64
552.41	1751.01
552.60	1808.36
552.80	1814.50
553.00	1771.49
553.19	1728.49
553.39	1820.64
553.59	1630.18
553.78	1818.60
553.98	1771.49
554.17	1654.76
554.37	1804.26
554.57	1662.95
554.76	1675.24
554.96	1757.16
555.16	1738.73
555.35	1794.02
555.55	1787.88
555.75	1712.10
555.94	1865.70
556.14	1705.96
556.33	1777.64
556.53	1724.39
556.73	1726.44
556.92	1761.25
557.12	1814.50
557.32	1910.75
557.51	1716.20
557.71	1753.06
557.90	1841.12
558.10	1820.64
558.30	1771.49
558.49	1759.21
558.69	1695.72
558.88	1732.58
559.08	1791.97
559.28	1675.24
559.47	1777.64
559.67	1783.78
559.86	1781.73
560.06	1791.97
560.26	1748.97
560.45	1785.83
560.65	1736.68
560.84	1796.07
561.04	1708.01
561.24	1857.51
561.43	1767.40
561.63	1855.46
561.82	1748.97
562.02	1847.27
562.22	1677.29
562.41	1693.67
562.61	1765.35
562.80	1669.09
563.00	1855.46
563.19	1781.73
563.39	1746.92
563.59	1820.64
563.78	1662.95
563.98	1665.00
564.17	1701.86
564.37	1607.66
564.56	1755.11
564.76	1734.63
564.96	1834.98
565.15	1779.68
565.35	1920.99
565.54	1736.68
565.74	1802.21
565.93	1781.73
566.13	1771.49
566.32	1794.02
566.52	1808.36
566.71	1757.16
566.91	1785.83
567.11	1826.79
567.30	1667.05
567.50	1697.77
567.69	1787.88
567.89	1712.10
568.08	1714.15
568.28	1742.82
568.47	1665.00
568.67	1751.01
568.86	1775.59
569.06	1779.68
569.25	1730.53
569.45	1695.72
569.64	1640.42
569.84	1667.05
570.04	1751.01
570.23	1693.67
570.43	1763.30
570.62	1738.73
570.82	1908.71
571.01	1703.91
571.21	1837.03
571.40	1722.34
571.60	1841.12
571.79	1828.84
571.99	1765.35
572.18	1830.88
572.38	1818.60
572.57	1656.81
572.77	1785.83
572.96	1894.37
573.16	1800.16
573.35	1660.90
573.55	1812.45
573.74	1845.22
573.94	1806.31
574.13	1753.06
574.33	1765.35
574.52	1753.06
574.71	1722.34
574.91	1781.73
575.10	1654.76
575.30	1791.97
575.49	1695.72
575.69	1701.86
575.88	1734.63
576.08	1675.24
576.27	1789.92
576.47	1665.00
576.66	1869.80
576.86	1820.64
577.05	1767.40
577.25	1789.92
577.44	1810.40
577.64	1759.21
577.83	1804.26
578.02	1753.06
578.22	1816.55
578.41	1837.03
578.61	1751.01
578.80	1732.58
579.00	1783.78
579.19	1748.97
579.39	1732.58
579.58	1804.26
579.77	1787.88
579.97	1824.74
580.16	1849.32
580.36	1791.97
580.55	1955.81
580.75	1730.53
580.94	1773.54
581.13	1773.54
581.33	1824.74
581.52	1693.67
581.72	1937.38
581.91	1841.12
582.11	1716.20
582.30	1773.54
582.49	1816.55
582.69	1841.12
582.88	1820.64
583.08	1804.26
583.27	1871.84
583.47	1806.31
583.66	1720.29
583.85	1722.34
584.05	1712.10
584.24	1730.53
584.44	1791.97
584.63	1820.64
584.82	1863.65
585.02	1798.12
585.21	1855.46
585.41	1800.16
585.60	1832.93
585.79	1906.66
585.99	1923.04
586.18	1847.27
586.37	2119.65
586.57	3399.63
586.76	9871.21
586.96	24465.03
587.15	34233.85
587.34	40334.74
587.54	41702.79
587.73	36079.07
587.93	25931.38
588.12	21544.63
588.31	18108.14
588.51	16137.99
588.70	15011.61
588.89	13813.55
589.09	12601.15
589.28	10850.14
589.47	9240.44
589.67	7909.26
589.86	6326.18
590.06	4775.86
590.25	3846.09
590.44	3082.19
590.64	2527.19
590.83	2199.52
591.02	2154.46
591.22	1904.61
591.41	1884.13
591.60	1767.40
591.80	1880.04
591.99	1812.45
592.18	1816.55
592.38	1900.52
592.57	1802.21
592.76	1812.45
592.96	1832.93
593.15	1724.39
593.34	1875.94
593.54	1783.78
593.73	1765.35
593.92	1818.60
594.12	1746.92
594.31	1691.62
594.50	1767.40
594.70	1771.49
594.89	1894.37
595.08	1710.05
595.28	1783.78
595.47	1968.10
595.66	1787.88
595.86	1738.73
596.05	1701.86
596.24	1712.10
596.43	1828.84
596.63	1900.52
596.82	1746.92
597.01	1650.66
597.21	1865.70
597.40	1781.73
597.59	1761.25
597.79	1671.14
597.98	1816.55
598.17	1759.21
598.36	1740.77
598.56	1814.50
598.75	1716.20
598.94	1794.02
599.14	1757.16
599.33	1763.30
599.52	1755.11
599.71	1683.43
599.91	1789.92
600.10	1796.07
600.29	1757.16
600.48	1757.16
600.68	1781.73
600.87	1873.89
601.06	1691.62
601.26	1740.77
601.45	1751.01
601.64	1757.16
601.83	1779.68
602.03	1615.85
602.22	1677.29
602.41	1796.07
602.60	1890.28
602.80	1808.36
602.99	1765.35
603.18	1660.90
603.37	1789.92
603.57	1769.44
603.76	1855.46
603.95	1787.88
604.14	1773.54
604.34	1716.20
604.53	1748.97
604.72	1681.38
604.91	1826.79
605.10	1794.02
605.30	1681.38
605.49	1841.12
605.68	1691.62
605.87	1869.80
606.07	1695.72
606.26	1773.54
606.45	1845.22
606.64	1728.49
606.84	1722.34
607.03	1839.08
607.22	1783.78
607.41	1781.73
607.60	1730.53
607.80	1861.60
607.99	1722.34
608.18	1769.44
608.37	1722.34
608.56	1742.82
608.76	1853.41
608.95	1890.28
609.14	1759.21
609.33	1765.35
609.52	1775.59
609.72	1742.82
609.91	1826.79
610.10	1710.05
610.29	1830.88
610.48	1714.15
610.68	1748.97
610.87	1736.68
611.06	1763.30
611.25	1796.07
611.44	1822.69
611.63	1761.25
611.83	1773.54
612.02	1691.62
612.21	1853.41
612.40	1638.38
612.59	1654.76
612.79	1716.20
612.98	1789.92
613.17	1832.93
613.36	1755.11
613.55	1869.80
613.74	1714.15
613.93	1671.14
614.13	1689.57
614.32	1716.20
614.51	1830.88
614.70	1748.97
614.89	1656.81
615.08	1802.21
615.28	2115.55
615.47	1638.38
615.66	1779.68
615.85	1796.07
616.04	1757.16
616.23	1804.26
616.42	1757.16
616.62	1710.05
616.81	1708.01
617.00	1699.81
617.19	1849.32
617.38	1730.53
617.57	1724.39
617.76	1785.83
617.95	1771.49
618.15	1712.10
618.34	1869.80
618.53	1703.91
618.72	1812.45
618.91	1746.92
619.10	1814.50
619.29	1759.21
619.48	1751.01
619.68	1712.10
619.87	1738.73
620.06	1632.23
620.25	1703.91
620.44	1716.20
620.63	1679.33
620.82	1693.67
621.01	1736.68
621.20	1730.53
621.39	1759.21
621.59	1771.49
621.78	1712.10
621.97	1787.88
622.16	1755.11
622.35	1710.05
622.54	1816.55
622.73	1767.40
622.92	1689.57
623.11	1746.92
623.30	1746.92
623.49	1740.77
623.68	1724.39
623.88	1769.44
624.07	1759.21
624.26	1718.25
624.45	1755.11
624.64	1728.49
624.83	1746.92
625.02	1722.34
625.21	1751.01
625.40	1730.53
625.59	1771.49
625.78	1720.29
625.97	1773.54
626.16	1777.64
626.35	1769.44
626.54	1724.39
626.74	1810.40
626.93	1728.49
627.12	1722.34
627.31	1746.92
627.50	1726.44
627.69	1738.73
627.88	1685.48
628.07	1796.07
628.26	1638.38
628.45	1695.72
628.64	1701.86
628.83	1755.11
629.02	1703.91
629.21	1740.77
629.40	1699.81
629.59	1730.53
629.78	1746.92
629.97	1744.87
630.16	1740.77
630.35	1755.11
630.54	1783.78
630.73	1705.96
630.92	1714.15
631.11	1722.34
631.30	1720.29
631.49	1779.68
631.68	1730.53
631.87	1800.16
632.06	1646.57
632.25	1875.94
632.44	1734.63
632.63	1701.86
632.82	1736.68
633.01	1665.00
633.20	1714.15
633.39	1671.14
633.58	1671.14
633.77	1714.15
633.96	1755.11
634.15	1767.40
634.34	1783.78
634.53	1810.40
634.72	1712.10
634.91	1644.52
635.10	1777.64
635.29	1701.86
635.48	1781.73
635.67	1746.92
635.86	1687.53
636.05	1828.84
636.24	1724.39
636.43	1673.19
636.62	1859.56
636.81	1632.23
637.00	1759.21
637.19	1818.60
637.38	1742.82
637.57	1712.10
637.76	1667.05
637.95	1818.60
638.14	1714.15
638.33	1724.39
638.52	1757.16
638.71	1718.25
638.89	1689.57
639.08	1869.80
639.27	1806.31
639.46	1695.72
639.65	1832.93
639.84	1705.96
640.03	1800.16
640.22	1736.68
640.41	1832.93
640.60	1695.72
640.79	1685.48
640.98	1710.05
641.17	1701.86
641.36	1775.59
641.55	1724.39
641.74	1621.99
641.92	1697.77
642.11	1583.08
642.30	1738.73
642.49	1648.61
642.68	1671.14
642.87	1753.06
643.06	1679.33
643.25	1636.33
643.44	1732.58
643.63	1708.01
643.82	1796.07
644.00	1650.66
644.19	1734.63
644.38	1611.75
644.57	1765.35
644.76	1773.54
644.95	1765.35
645.14	1716.20
645.33	1804.26
645.52	1769.44
645.71	1640.42
645.89	1708.01
646.08	1697.77
646.27	1724.39
646.46	1845.22
646.65	1646.57
646.84	1693.67
647.03	1665.00
647.22	1789.92
647.40	1701.86
647.59	1712.10
647.78	1646.57
647.97	1687.53
648.16	1685.48
648.35	1810.40
648.54	1832.93
648.73	1705.96
648.91	1771.49
649.10	1689.57
649.29	1669.09
649.48	1671.14
649.67	1740.77
649.86	1656.81
650.05	1636.33
650.23	1812.45
650.42	1685.48
650.61	1751.01
650.80	1714.15
650.99	1839.08
651.18	1763.30
651.36	1853.41
651.55	1734.63
651.74	1794.02
651.93	1779.68
652.12	1755.11
652.31	1673.19
652.49	1794.02
652.68	1726.44
652.87	1746.92
653.06	1765.35
653.25	1791.97
653.44	1689.57
653.62	1828.84
653.81	1726.44
654.00	1785.83
654.19	1777.64
654.38	1902.56
654.56	1736.68
654.75	1751.01
654.94	1880.04
655.13	1679.33
655.32	1771.49
655.51	1802.21
655.69	1714.15
655.88	1820.64
656.07	1746.92
656.26	1814.50
656.45	1638.38
656.63	1789.92
656.82	1798.12
657.01	1783.78
657.20	1656.81
657.38	1816.55
657.57	1687.53
657.76	1656.81
657.95	1777.64
658.14	1640.42
658.32	1714.15
658.51	1679.33
658.70	1705.96
658.89	1734.63
659.08	1726.44
659.26	1814.50
659.45	1632.23
659.64	1681.38
659.83	1732.58
660.01	1951.71
660.20	1716.20
660.39	1753.06
660.58	1587.18
660.76	1812.45
660.95	1685.48
661.14	1751.01
661.33	1658.85
661.51	1765.35
661.70	1732.58
661.89	1767.40
662.08	1683.43
662.26	1665.00
662.45	1671.14
662.64	1785.83
662.83	1740.77
663.01	1718.25
663.20	1673.19
663.39	1808.36
663.58	1671.14
663.76	1763.30
663.95	1796.07
664.14	1753.06
664.32	1701.86
664.51	1703.91
664.70	1697.77
664.89	1814.50
665.07	1677.29
665.26	1791.97
665.45	1630.18
665.64	1808.36
665.82	1769.44
666.01	1828.84
666.20	1699.81
666.38	1787.88
666.57	1892.32
666.76	2215.90
666.95	4554.68
667.13	10436.45
667.32	15308.57
667.51	17671.92
667.69	18898.66
667.88	17573.62
668.07	12105.54
668.25	9377.65
668.44	8011.65
668.63	7303.06
668.81	6764.44
669.00	6182.82
669.19	5679.02
669.38	4974.52
669.56	4476.86
669.75	3854.28
669.94	3389.39
670.12	2791.38
670.31	2357.21
670.50	2254.81
670.68	2133.98
670.87	1851.36
671.06	1847.27
671.24	1812.45
671.43	1865.70
671.62	1759.21
671.80	1667.05
671.99	1771.49
672.18	1746.92
672.36	1796.07
672.55	1742.82
672.74	1710.05
672.92	1722.34
673.11	1755.11
673.29	1646.57
673.48	1810.40
673.67	1710.05
673.85	1765.35
674.04	1656.81
674.23	1755.11
674.41	1824.74
674.60	1648.61
674.79	1662.95
674.97	1689.57
675.16	1777.64
675.34	1781.73
675.53	1736.68
675.72	1785.83
675.90	1851.36
676.09	1753.06
676.28	1771.49
676.46	1656.81
676.65	1714.15
676.83	1722.34
677.02	1734.63
677.21	1683.43
677.39	1730.53
677.58	1716.20
677.77	1658.85
677.95	1679.33
678.14	1738.73
678.32	1720.29
678.51	1705.96
678.70	1914.85
678.88	1744.87
679.07	1734.63
679.25	1742.82
679.44	1722.34
679.63	1609.70
679.81	1720.29
680.00	1806.31
680.18	1742.82
680.37	1787.88
680.55	1701.86
680.74	1685.48
680.93	1724.39
681.11	1775.59
681.30	1773.54
681.48	1662.95
681.67	1767.40
681.85	1693.67
682.04	1683.43
682.23	1691.62
682.41	1847.27
682.60	1609.70
682.78	1701.86
682.97	1658.85
683.15	1705.96
683.34	1669.09
683.53	1794.02
683.71	1621.99
683.90	1796.07
684.08	1791.97
684.27	1673.19
684.45	1812.45
684.64	1781.73
684.82	1734.63
685.01	1765.35
685.19	1683.43
685.38	1789.92
685.57	1669.09
685.75	1757.16
685.94	1679.33
686.12	1689.57
686.31	1714.15
686.49	1816.55
686.68	1609.70
686.86	1777.64
687.05	1748.97
687.23	1691.62
687.42	1632.23
687.60	1630.18
687.79	1736.68
687.97	1832.93
688.16	1791.97
688.34	1710.05
688.53	1703.91
688.71	1812.45
688.90	1826.79
689.08	1699.81
689.27	1632.23
689.45	1710.05
689.64	1773.54
689.82	1701.86
690.01	1759.21
690.19	1708.01
690.38	1667.05
690.56	1787.88
690.75	1658.85
690.93	1644.52
691.12	1720.29
691.30	1673.19
691.49	1669.09
691.67	1671.14
691.86	1804.26
692.04	1626.09
692.23	1742.82
692.41	1683.43
692.60	1875.94
692.78	1822.69
692.97	1718.25
693.15	1738.73
693.34	1847.27
693.52	1791.97
693.71	1677.29
693.89	1667.05
694.08	1630.18
694.26	1804.26
694.44	1740.77
694.63	1746.92
694.81	1724.39
695.00	1662.95
695.18	1755.11
695.37	1808.36
695.55	1843.17
695.74	1662.95
695.92	1628.14
696.10	1777.64
696.29	1669.09
696.47	1646.57
696.66	1665.00
696.84	1701.86
697.03	1736.68
697.21	1886.18
697.40	2408.41
697.58	1871.84
697.76	1699.81
697.95	1710.05
698.13	1650.66
698.32	1683.43
698.50	1753.06
698.68	1779.68
698.87	1728.49
699.05	1761.25
699.24	1746.92
699.42	1695.72
699.61	1714.15
699.79	1744.87
699.97	1673.19
700.16	1683.43
700.34	1677.29
700.53	1636.33
700.71	1816.55
700.89	1773.54
701.08	1660.90
701.26	1761.25
701.45	2052.06
701.63	1677.29
701.81	1669.09
702.00	1665.00
702.18	1681.38
702.37	1658.85
702.55	1736.68
702.73	1726.44
702.92	1660.90
703.10	1751.01
703.28	1695.72
703.47	1660.90
703.65	1765.35
703.84	1800.16
704.02	1705.96
704.20	1763.30
704.39	1677.29
704.57	1763.30
704.75	1779.68
704.94	1736.68
705.12	1716.20
705.30	1794.02
705.49	2357.21
705.67	4554.68
705.86	9502.58
706.04	12498.75
706.22	14362.40
706.41	15361.81
706.59	13750.06
706.77	9342.83
706.96	7333.78
707.14	6584.22
707.32	5992.36
707.51	5476.27
707.69	4972.47
707.87	4239.30
708.06	3571.66
708.24	2906.07
708.42	2265.05
708.61	2269.15
708.79	1890.28
708.97	1896.42
709.16	1802.21
709.34	1746.92
709.52	1791.97
709.71	1732.58
709.89	1814.50
710.07	1658.85
710.26	1662.95
710.44	1738.73
710.62	1785.83
710.80	1777.64
710.99	1722.34
711.17	1746.92
711.35	1665.00
711.54	1685.48
711.72	1767.40
711.90	1757.16
712.09	1783.78
712.27	1695.72
712.45	1759.21
712.63	1755.11
712.82	1660.90
713.00	1746.92
713.18	1732.58
713.37	1769.44
713.55	1677.29
713.73	1728.49
713.91	1800.16
714.10	1712.10
714.28	1685.48
714.46	1748.97
714.65	1787.88
714.83	1716.20
715.01	1691.62
715.19	1746.92
715.38	1677.29
715.56	1740.77
715.74	1673.19
715.92	1695.72
716.11	1765.35
716.29	1640.42
716.47	1771.49
716.65	1675.24
716.84	1671.14
717.02	1824.74
717.20	1603.56
717.38	1681.38
717.57	1755.11
717.75	1759.21
717.93	1757.16
718.11	1748.97
718.30	1630.18
718.48	1744.87
718.66	1748.97
718.84	1841.12
719.03	1673.19
719.21	1732.58
719.39	1785.83
719.57	1730.53
719.75	1767.40
719.94	1769.44
720.12	1724.39
720.30	1732.58
720.48	1818.60
720.67	1667.05
720.85	1677.29
721.03	1691.62
721.21	1656.81
721.39	1834.98
721.58	1773.54
721.76	1634.28
721.94	1730.53
722.12	1679.33
722.30	1763.30
722.49	1781.73
722.67	1689.57
722.85	1732.58
723.03	1683.43
723.21	1665.00
723.40	1738.73
723.58	1695.72
723.76	1775.59
723.94	1755.11
724.12	1755.11
724.30	1787.88
724.49	1808.36
724.67	1654.76
724.85	1773.54
725.03	1712.10
725.21	1755.11
725.40	1736.68
725.58	1730.53
725.76	1812.45
725.94	1718.25
726.12	1671.14
726.30	1712.10
726.49	1667.05
726.67	1705.96
726.85	1847.27
727.03	1771.49
727.21	2179.04
727.39	3016.66
727.57	3854.28
727.76	4188.10
727.94	4421.56
728.12	4339.65
728.30	3651.53
728.48	3053.52
728.66	2736.09
728.84	2521.05
729.03	2263.01
729.21	2166.75
729.39	2027.49
729.57	1812.45
729.75	1789.92
729.93	1802.21
730.11	1763.30
730.30	1687.53
730.48	1783.78
730.66	1814.50
730.84	1871.84
731.02	1722.34
731.20	1652.71
731.38	1730.53
731.56	1675.24
731.74	1652.71
731.93	1771.49
732.11	1742.82
732.29	1689.57
732.47	1695.72
732.65	1738.73
732.83	1720.29
733.01	1781.73
733.19	1703.91
733.37	1755.11
733.56	1748.97
733.74	1699.81
733.92	1787.88
734.10	1667.05
734.28	1724.39
734.46	1699.81
734.64	1667.05
734.82	1742.82
735.00	1693.67
735.18	1626.09
735.36	1787.88
735.54	1744.87
735.73	1769.44
735.91	1738.73
736.09	1771.49
736.27	1660.90
736.45	1785.83
736.63	1615.85
736.81	1681.38
736.99	1738.73
737.17	1738.73
737.35	1640.42
737.53	1724.39
737.71	1738.73
737.89	1781.73
738.07	1679.33
738.25	1648.61
738.43	1699.81
738.61	1640.42
738.80	1691.62
738.98	1603.56
739.16	1697.77
739.34	1716.20
739.52	1796.07
739.70	1652.71
739.88	1763.30
740.06	1816.55
740.24	1621.99
740.42	1814.50
740.60	1675.24
740.78	1679.33
740.96	1601.51
741.14	1675.24
741.32	1712.10
741.50	1638.38
741.68	1908.71
741.86	1822.69
742.04	1619.94
742.22	1683.43
742.40	1722.34
742.58	1658.85
742.76	1673.19
742.94	1718.25
743.12	1652.71
743.30	1687.53
743.48	1740.77
743.66	1697.77
743.84	1697.77
744.02	1685.48
744.20	1695.72
744.38	1705.96
744.56	1644.52
744.74	1800.16
744.92	1691.62
745.10	1728.49
745.28	1751.01
745.46	1839.08
745.64	1708.01
745.82	1716.20
746.00	1791.97
746.18	1740.77
746.36	1665.00
746.54	1714.15
746.72	1679.33
746.90	1665.00
747.08	1744.87
747.26	1734.63
747.44	1753.06
747.62	1734.63
747.80	1767.40
747.98	1802.21
748.15	1693.67
748.33	1796.07
748.51	1751.01
748.69	1662.95
748.87	1697.77
749.05	1683.43
749.23	1705.96
749.41	1763.30
749.59	1679.33
749.77	1787.88
749.95	1746.92
750.13	1640.42
750.31	1779.68
750.49	1720.29
750.67	1693.67
750.85	1857.51
751.03	1669.09
751.20	1882.08
751.38	1722.34
751.56	1689.57
751.74	1775.59
751.92	1687.53
752.10	1585.13
752.28	1814.50
752.46	1714.15
752.64	1681.38
752.82	1710.05
753.00	1791.97
753.18	1705.96
753.35	1732.58
753.53	1738.73
753.71	1632.23
753.89	1728.49
754.07	1638.38
754.25	1755.11
754.43	1748.97
754.61	1642.47
754.79	1734.63
754.97	1718.25
755.14	1769.44
755.32	1632.23
755.50	1753.06
755.68	1740.77
755.86	1656.81
756.04	1714.15
756.22	1634.28
756.40	1771.49
756.57	1826.79
756.75	1738.73
756.93	1783.78
757.11	1798.12
757.29	1644.52
757.47	1738.73
757.65	1621.99
757.82	1603.56
758.00	1675.24
758.18	1572.84
758.36	1761.25
758.54	1748.97
758.72	1654.76
758.90	1775.59
759.07	1734.63
759.25	1738.73
759.43	1732.58
759.61	1673.19
759.79	2265.05
759.97	1771.49
760.15	1669.09
760.32	1681.38
760.50	1751.01
760.68	1785.83
760.86	1677.29
761.04	1787.88
761.22	1724.39
761.39	1681.38
761.57	1671.14
761.75	1710.05
761.93	1802.21
762.11	1703.91
762.28	1716.20
762.46	1673.19
762.64	1722.34
762.82	1642.47
763.00	1716.20
763.18	1796.07
763.35	1595.37
763.53	1785.83
763.71	1658.85
763.89	1720.29
764.07	1718.25
764.24	1767.40
764.42	1816.55
764.60	1708.01
764.78	1781.73
764.96	1767.40
765.13	1689.57
765.31	1675.24
765.49	1710.05
765.67	1656.81
765.84	1742.82
766.02	1751.01
766.20	1689.57
766.38	1734.63
766.56	1746.92
766.73	1775.59
766.91	1779.68
767.09	1720.29
767.27	1755.11
767.44	1701.86
767.62	1748.97
767.80	1681.38
767.98	1712.10
768.15	1712.10
768.33	1746.92
768.51	1665.00
768.69	1701.86
768.87	1820.64
769.04	1748.97
769.22	1791.97
769.40	1763.30
769.58	1861.60
769.75	1753.06
769.93	1783.78
770.11	1712.10
770.28	1726.44
770.46	1695.72
770.64	1730.53
770.82	1765.35
770.99	1691.62
771.17	1757.16
771.35	1646.57
771.53	1748.97
771.70	1697.77
771.88	1675.24
772.06	1658.85
772.23	1683.43
772.41	1771.49
772.59	1726.44
772.77	1736.68
772.94	1738.73
773.12	1734.63
773.30	1757.16
773.47	1687.53
773.65	1660.90
773.83	1828.84
774.01	1660.90
774.18	1660.90
774.36	1767.40
774.54	1669.09
774.71	1759.21
774.89	1677.29
775.07	1689.57
775.24	1687.53
775.42	1607.66
775.60	1830.88
775.78	1689.57
775.95	1640.42
776.13	1675.24
776.31	1583.08
776.48	1779.68
776.66	1796.07
776.84	1656.81
777.01	1632.23
777.19	1626.09
777.37	1712.10
777.54	1765.35
777.72	1855.46
777.90	1730.53
778.07	1646.57
778.25	1832.93
778.43	1748.97
778.60	1669.09
778.78	1832.93
778.96	1703.91
779.13	1705.96
779.31	1748.97
779.49	1689.57
779.66	1779.68
779.84	1724.39
780.01	1673.19
780.19	1667.05
780.37	1779.68
780.54	1767.40
780.72	1640.42
780.90	1775.59
781.07	1693.67
781.25	1712.10
781.43	1779.68
781.60	1697.77
781.78	1830.88
781.95	1755.11
782.13	1759.21
782.31	1757.16
782.48	1632.23
782.66	1724.39
782.83	1888.23
783.01	1787.88
783.19	1777.64
783.36	1732.58
783.54	1673.19
783.72	1818.60
783.89	1716.20
784.07	1681.38
784.24	1828.84
784.42	1796.07
784.60	1751.01
784.77	1705.96
784.95	1619.94
785.12	1665.00
785.30	1679.33
785.47	1617.90
785.65	1701.86
785.83	1732.58
786.00	1673.19
786.18	1726.44
786.35	1703.91
786.53	1658.85
786.71	1781.73
786.88	1617.90
787.06	1761.25
787.23	1730.53
787.41	1636.33
787.58	1656.81
787.76	1667.05
787.94	1732.58
788.11	1802.21
788.29	1634.28
788.46	1726.44
788.64	1609.70
788.81	1681.38
788.99	1665.00
789.16	1722.34
789.34	1634.28
789.52	1724.39
789.69	1730.53
789.87	1554.41
790.04	1665.00
790.22	1667.05
790.39	1822.69
790.57	1691.62
790.74	1738.73
790.92	1746.92
791.09	1613.80
791.27	1718.25
791.44	1853.41
791.62	1744.87
791.79	1714.15
791.97	1693.67
792.15	1912.80
792.32	1720.29
792.50	1775.59
792.67	1826.79
792.85	1861.60
793.02	1746.92
793.20	1673.19
793.37	1654.76
793.55	1687.53
793.72	1574.89
793.90	1740.77
794.07	1650.66
794.25	1689.57
794.42	1669.09
794.60	1683.43
794.77	1738.73
794.95	1812.45
795.12	1783.78
795.30	1728.49
795.47	1665.00
795.65	1929.19
795.82	1781.73
796.00	1654.76
796.17	1685.48
796.34	1767.40
796.52	1708.01
796.69	1746.92
796.87	1779.68
797.04	1669.09
797.22	1738.73
797.39	1695.72
797.57	1728.49
797.74	1755.11
797.92	1710.05
798.09	1685.48
798.27	1814.50
798.44	1722.34
798.62	1585.13
798.79	1755.11
798.96	1738.73
799.14	1714.15
799.31	1867.75
799.49	1699.81
799.66	1669.09
799.84	1847.27
800.01	1630.18
800.19	1751.01
800.36	1634.28
800.53	1689.57
800.71	1669.09
800.88	1767.40
801.06	1589.22
801.23	1665.00
801.41	1746.92
801.58	1716.20
801.75	1679.33
801.93	1695.72
802.10	1759.21
802.28	1609.70
802.45	1701.86
802.63	1722.34
802.80	1791.97
802.97	1720.29
803.15	1705.96
803.32	1775.59
803.50	1662.95
803.67	1646.57
803.84	1607.66
804.02	1751.01
804.19	1669.09
804.37	1640.42
804.54	1693.67
804.71	1689.57
804.89	1703.91
805.06	1667.05
805.24	1638.38
805.41	1644.52
805.58	1736.68
805.76	1845.22
805.93	1646.57
806.10	1791.97
806.28	1710.05
806.45	1718.25
806.63	1816.55
806.80	1779.68
806.97	1728.49
807.15	1689.57
807.32	1779.68
807.49	1679.33
807.67	1669.09
807.84	1759.21
808.01	1671.14
808.19	1802.21
808.36	1712.10
808.54	1585.13
808.71	1619.94
808.88	1773.54
809.06	1759.21
809.23	1800.16
809.40	1650.66
809.58	1748.97
809.75	1705.96
809.92	1697.77
810.10	1841.12
810.27	1697.77
810.44	1761.25
810.62	1787.88
810.79	1705.96
810.96	1609.70
811.14	1599.46
811.31	1695.72
811.48	1796.07
811.66	1671.14
811.83	1839.08
812.00	1716.20
812.18	1779.68
812.35	1759.21
812.52	1773.54
812.69	1689.57
812.87	1675.24
813.04	1699.81
813.21	1759.21
813.39	1644.52
813.56	1671.14
813.73	1763.30
813.91	1656.81
814.08	1796.07
814.25	1748.97
814.42	1548.26
814.60	1675.24
814.77	1693.67
814.94	1712.10
815.12	1671.14
815.29	1861.60
815.46	1654.76
815.63	1787.88
815.81	1685.48
815.98	1701.86
816.15	1697.77
816.33	1652.71
816.50	1689.57
816.67	1751.01
816.84	1726.44
817.02	1611.75
817.19	1748.97
817.36	1687.53
817.53	1777.64
817.71	1562.60
817.88	1822.69
818.05	1753.06
818.22	1646.57
818.40	1794.02
818.57	1744.87
818.74	1744.87
818.91	1685.48
819.09	1753.06
819.26	1824.74
819.43	1609.70
819.60	1701.86
819.78	1722.34
819.95	1800.16
820.12	1689.57
820.29	1757.16
820.47	1820.64
820.64	1687.53
820.81	1621.99
820.98	1740.77
821.15	1722.34
821.33	1740.77
821.50	1656.81
821.67	1714.15
821.84	1742.82
822.02	1763.30
822.19	1763.30
822.36	1673.19
822.53	1685.48
822.70	1693.67
822.88	1660.90
823.05	1794.02
823.22	1734.63
823.39	1771.49
823.56	1718.25
823.74	1853.41
823.91	1662.95
824.08	1605.61
824.25	1648.61
824.42	1837.03
824.60	1722.34
824.77	1759.21
824.94	1677.29
825.11	1759.21
825.28	1687.53
825.45	1726.44
825.63	1693.67
825.80	1660.90
825.97	1738.73
826.14	1675.24
826.31	1654.76
826.48	1777.64
826.66	1697.77
826.83	1650.66
827.00	1757.16
827.17	1677.29
827.34	1712.10
827.51	1662.95
827.69	1679.33
827.86	1615.85
828.03	1767.40
828.20	1656.81
828.37	1699.81
828.54	1669.09
828.71	1716.20
828.89	1755.11
829.06	1705.96
829.23	1753.06
829.40	1642.47
829.57	1691.62
829.74	1669.09
829.91	1681.38
830.09	1619.94
830.26	1730.53
830.43	1800.16
830.60	1648.61
830.77	1734.63
830.94	1767.40
831.11	1785.83
831.28	1675.24
831.46	1767.40
831.63	1705.96
831.80	1728.49
831.97	1640.42
832.14	1703.91
832.31	1673.19
832.48	1775.59
832.65	1746.92
832.82	1742.82
832.99	1744.87
833.17	1671.14
833.34	1789.92
833.51	1787.88
833.68	1626.09
833.85	1724.39
834.02	1587.18
834.19	1710.05
834.36	1693.67
834.53	1712.10
834.70	1744.87
834.87	1761.25
835.04	1693.67
835.22	1697.77
835.39	1779.68
835.56	1607.66
835.73	1671.14
835.90	1847.27
836.07	1630.18
836.24	1830.88
836.41	1636.33
836.58	1708.01
836.75	1705.96
836.92	1660.90
837.09	1665.00
837.26	1710.05
837.43	1804.26
837.60	1746.92
837.77	1703.91
837.94	1779.68
838.12	1820.64
838.29	1710.05
838.46	1675.24
838.63	1650.66
838.80	1816.55
838.97	1789.92
839.14	1720.29
839.31	1697.77
839.48	1734.63
839.65	1687.53
839.82	1775.59
839.99	1736.68
840.16	1732.58
840.33	1677.29
840.50	1697.77
840.67	1615.85
840.84	1605.61
841.01	1734.63
841.18	1695.72
841.35	1726.44
841.52	1744.87
841.69	1820.64
841.86	1742.82
842.03	1726.44
842.20	1767.40
842.37	1757.16
842.54	1757.16
842.71	1689.57
842.88	1638.38
843.05	1716.20
843.22	1669.09
843.39	1820.64
843.56	1636.33
843.73	1761.25
843.90	1724.39
844.07	1667.05
844.24	1773.54
844.41	1757.16
844.58	1699.81
844.75	1699.81
844.92	1695.72
845.09	1759.21
845.26	1726.44
845.43	1722.34
845.60	1697.77
845.77	1748.97
845.94	1804.26
846.10	1841.12
846.27	1624.04
846.44	1681.38
846.61	1718.25
846.78	1718.25
846.95	1775.59
847.12	1701.86
847.29	1681.38
847.46	1681.38
847.63	1726.44
847.80	1665.00
847.97	1718.25
848.14	1810.40
848.31	1697.77
848.48	1636.33
848.65	1775.59
848.82	1714.15
848.98	1943.52
849.15	1837.03
849.32	1824.74
849.49	1714.15
849.66	1767.40
849.83	1742.82
850.00	1640.42
850.17	1769.44
850.34	1695.72
850.51	1716.20
850.68	1662.95
850.85	1800.16
851.01	1726.44
851.18	1820.64
851.35	1681.38
851.52	1736.68
851.69	1734.63
851.86	1660.90
852.03	1683.43
852.20	1724.39
852.37	1757.16
852.53	1583.08
852.70	1642.47
852.87	1791.97
853.04	1691.62
853.21	1753.06
853.38	1783.78
853.55	1746.92
853.72	1773.54
853.89	1609.70
854.05	1650.66
854.22	1728.49
854.39	1746.92
854.56	1761.25
854.73	1765.35
854.90	1667.05
855.07	1722.34
855.23	1617.90
855.40	1710.05
855.57	1683.43
855.74	1595.37
855.91	1894.37
856.08	1691.62
856.25	1613.80
856.41	1632.23
856.58	1683.43
856.75	1681.38
856.92	1617.90
857.09	1685.48
857.26	1665.00
857.42	1730.53
857.59	1771.49
857.76	1701.86
857.93	1708.01
858.10	1787.88
858.27	1738.73
858.43	1665.00
858.60	1714.15
858.77	1642.47
858.94	1691.62
859.11	1742.82
859.27	1685.48
859.44	1740.77
859.61	1759.21
859.78	1724.39
859.95	1593.32
860.12	1595.37
860.28	1800.16
860.45	1785.83
860.62	1742.82
860.79	1736.68
860.95	1712.10
861.12	1660.90
861.29	1652.71
861.46	1597.42
861.63	1701.86
861.79	1740.77
861.96	1640.42
862.13	1636.33
862.30	1769.44
862.47	1658.85
862.63	1619.94
862.80	1755.11
862.97	1748.97
863.14	1683.43
863.30	1732.58
863.47	1716.20
863.64	1789.92
863.81	1738.73
863.97	1667.05
864.14	1722.34
864.31	1644.52
864.48	1738.73
864.65	1675.24
864.81	1798.12
864.98	1671.14
865.15	1771.49
865.32	1724.39
865.48	1789.92
865.65	1718.25
865.82	1738.73
865.98	1726.44
866.15	1816.55
866.32	1708.01
866.49	1728.49
866.65	1871.84
866.82	1732.58
866.99	1724.39
867.16	1691.62
867.32	1699.81
867.49	1697.77
867.66	1734.63
867.83	1734.63
867.99	1619.94
868.16	1665.00
868.33	1648.61
868.49	1687.53
868.66	1710.05
868.83	1759.21
868.99	1646.57
869.16	1732.58
869.33	1746.92
869.50	1746.92
869.66	1755.11
869.83	1728.49
870.00	1660.90
870.16	1769.44
870.33	1683.43
870.50	1806.31
870.66	1689.57
870.83	1845.22
871.00	1689.57
871.17	1708.01
871.33	1746.92
871.50	1636.33
871.67	1679.33
871.83	1599.46
872.00	1875.94
872.17	1679.33
872.33	1744.87
872.50	1859.56
872.67	1648.61
872.83	1714.15
873.00	1726.44
873.17	1691.62
873.33	1775.59
873.50	1748.97
873.67	1691.62
873.83	1615.85
874.00	1652.71
874.16	1839.08
874.33	1708.01
874.50	1705.96
874.66	1781.73
874.83	1714.15
875.00	1740.77
875.16	1726.44
875.33	1708.01
875.50	1581.03
875.66	1710.05
875.83	1804.26
875.99	1771.49
876.16	1697.77
876.33	1605.61
876.49	1691.62
876.66	1734.63
876.83	1611.75
876.99	1613.80
877.16	1675.24
877.32	1669.09
877.49	1689.57
877.66	1742.82
877.82	1861.60
877.99	1755.11
878.15	1814.50
878.32	1660.90
878.49	1730.53
878.65	1624.04
878.82	1816.55
878.98	1724.39
879.15	1789.92
879.32	1783.78
879.48	1685.48
879.65	1673.19
879.81	1667.05
879.98	1671.14
880.15	1732.58
880.31	1755.11
880.48	1626.09
880.64	1826.79
880.81	1771.49
880.97	1818.60
881.14	1814.50
881.31	1683.43
881.47	1767.40
881.64	1718.25
881.80	1646.57
881.97	1740.77
882.13	1773.54
882.30	1652.71
882.47	1710.05
882.63	1697.77
882.80	1667.05
882.96	1685.48
883.13	1699.81
883.29	1699.81
883.46	1755.11
883.62	1902.56
883.79	1722.34
883.95	1628.14
884.12	1691.62
884.29	1808.36
884.45	1732.58
884.62	1757.16
884.78	1652.71
884.95	1783.78
885.11	1726.44
885.28	1757.16
885.44	1632.23
885.61	1779.68
885.77	1773.54
885.94	1714.15
886.10	1755.11
886.27	1665.00
886.43	1849.32
886.60	1779.68
886.76	1662.95
886.93	1642.47
887.09	1722.34
887.26	1628.14
887.42	1726.44
887.59	1701.86
887.75	1867.75
887.92	1785.83
888.08	1681.38
888.25	1806.31
888.41	1740.77
888.58	1796.07
888.74	1652.71
888.91	1783.78
>>>>>End Processed Spectral Data<<<<<
