SpectraSuite Data File
++++++++++++++++++++++++++++++++++++
Date: Mon Jun 06 16:20:57 CEST 2016
User: root
Dark Spectrum Present: No
Reference Spectrum Present: No
Number of Sampled Component Spectra: 1
Spectrometers: USB4C02835
Integration Time (usec): 100000 (USB4C02835)
Spectra Averaged: 1 (USB4C02835)
Boxcar Smoothing: 0 (USB4C02835)
Correct for Electrical Dark: No (USB4C02835)
Strobe/Lamp Enabled: No (USB4C02835)
Correct for Detector Non-linearity: No (USB4C02835)
Correct for Stray Light: No (USB4C02835)
Number of Pixels in Processed Spectrum: 3648
>>>>>Begin Processed Spectral Data<<<<<
177.47	1441.77
177.69	1441.77
177.91	1441.77
178.13	1435.63
178.36	1427.43
178.58	1615.85
178.80	1712.10
179.02	1646.57
179.24	1671.14
179.46	1740.77
179.68	1763.30
179.90	1624.04
180.13	1681.38
180.35	1650.66
180.57	1708.01
180.79	1769.44
181.01	1705.96
181.23	1691.62
181.45	1787.88
181.67	1712.10
181.90	1724.39
182.12	1724.39
182.34	1619.94
182.56	1681.38
182.78	1755.11
183.00	1738.73
183.22	1722.34
183.44	1671.14
183.66	1861.60
183.89	1753.06
184.11	1712.10
184.33	1736.68
184.55	1783.78
184.77	1652.71
184.99	1724.39
185.21	1710.05
185.43	1880.04
185.65	1751.01
185.87	1779.68
186.10	1796.07
186.32	1839.08
186.54	1720.29
186.76	1812.45
186.98	1742.82
187.20	1683.43
187.42	1669.09
187.64	1726.44
187.86	1693.67
188.08	1796.07
188.30	1824.74
188.52	1656.81
188.75	1841.12
188.97	1703.91
189.19	1656.81
189.41	1705.96
189.63	1730.53
189.85	1722.34
190.07	1662.95
190.29	1613.80
190.51	1716.20
190.73	1685.48
190.95	1773.54
191.17	1665.00
191.39	1658.85
191.61	1724.39
191.84	1710.05
192.06	1789.92
192.28	1613.80
192.50	1871.84
192.72	1693.67
192.94	1689.57
193.16	1722.34
193.38	1783.78
193.60	1705.96
193.82	1730.53
194.04	1779.68
194.26	1689.57
194.48	1744.87
194.70	1665.00
194.92	1718.25
195.14	1738.73
195.36	1716.20
195.58	1753.06
195.80	1730.53
196.02	1679.33
196.24	1703.91
196.46	1714.15
196.69	1701.86
196.91	1773.54
197.13	1712.10
197.35	1757.16
197.57	1861.60
197.79	1767.40
198.01	1705.96
198.23	1736.68
198.45	1800.16
198.67	1673.19
198.89	1740.77
199.11	1740.77
199.33	1650.66
199.55	1560.55
199.77	1673.19
199.99	1714.15
200.21	1615.85
200.43	1679.33
200.65	1613.80
200.87	1630.18
201.09	1662.95
201.31	1722.34
201.53	1781.73
201.75	1777.64
201.97	1783.78
202.19	1757.16
202.41	1708.01
202.63	1763.30
202.85	1783.78
203.07	1771.49
203.29	1683.43
203.51	1617.90
203.73	1722.34
203.95	1900.52
204.17	1734.63
204.39	1683.43
204.61	1658.85
204.83	1691.62
205.05	1646.57
205.27	1794.02
205.49	1873.89
205.71	1701.86
205.93	1642.47
206.15	1652.71
206.37	1757.16
206.59	1642.47
206.81	1675.24
207.03	1648.61
207.25	1630.18
207.47	1740.77
207.69	1640.42
207.91	1726.44
208.13	1820.64
208.34	1710.05
208.56	1677.29
208.78	1701.86
209.00	1603.56
209.22	1648.61
209.44	1708.01
209.66	1665.00
209.88	1662.95
210.10	1693.67
210.32	1660.90
210.54	1798.12
210.76	1677.29
210.98	1800.16
211.20	1611.75
211.42	1773.54
211.64	1824.74
211.86	1687.53
212.08	1689.57
212.30	1765.35
212.52	1726.44
212.74	1796.07
212.96	1628.14
213.17	1738.73
213.39	1761.25
213.61	1855.46
213.83	1787.88
214.05	1656.81
214.27	1751.01
214.49	1636.33
214.71	1646.57
214.93	1742.82
215.15	1693.67
215.37	1763.30
215.59	1640.42
215.81	1755.11
216.03	1718.25
216.24	1656.81
216.46	1695.72
216.68	1718.25
216.90	1804.26
217.12	1755.11
217.34	1765.35
217.56	1722.34
217.78	1804.26
218.00	1740.77
218.22	1775.59
218.44	1726.44
218.66	1712.10
218.87	1726.44
219.09	1703.91
219.31	1744.87
219.53	1781.73
219.75	1671.14
219.97	1650.66
220.19	1753.06
220.41	1660.90
220.63	1818.60
220.85	1775.59
221.06	1708.01
221.28	1845.22
221.50	1755.11
221.72	1681.38
221.94	1746.92
222.16	1710.05
222.38	1761.25
222.60	1798.12
222.82	1701.86
223.03	1765.35
223.25	1648.61
223.47	1796.07
223.69	1785.83
223.91	1748.97
224.13	1716.20
224.35	1665.00
224.57	1763.30
224.78	1701.86
225.00	1665.00
225.22	1703.91
225.44	1718.25
225.66	1736.68
225.88	1710.05
226.10	1695.72
226.32	1755.11
226.53	1757.16
226.75	1710.05
226.97	1710.05
227.19	1755.11
227.41	1591.27
227.63	1742.82
227.85	1642.47
228.06	1714.15
228.28	1693.67
228.50	1757.16
228.72	1669.09
228.94	1705.96
229.16	1671.14
229.37	1679.33
229.59	1734.63
229.81	1781.73
230.03	1703.91
230.25	1687.53
230.47	1703.91
230.69	1644.52
230.90	1738.73
231.12	1650.66
231.34	1763.30
231.56	1800.16
231.78	1662.95
232.00	1730.53
232.21	1691.62
232.43	1695.72
232.65	1552.36
232.87	1703.91
233.09	1624.04
233.30	1726.44
233.52	1800.16
233.74	1755.11
233.96	1779.68
234.18	1748.97
234.40	1746.92
234.61	1861.60
234.83	1695.72
235.05	1636.33
235.27	1757.16
235.49	1804.26
235.70	1642.47
235.92	1783.78
236.14	1783.78
236.36	1882.08
236.58	1624.04
236.79	1701.86
237.01	1716.20
237.23	1755.11
237.45	1804.26
237.67	1673.19
237.88	1701.86
238.10	1802.21
238.32	1673.19
238.54	1677.29
238.76	1699.81
238.97	1669.09
239.19	1689.57
239.41	1708.01
239.63	1705.96
239.85	1724.39
240.06	1683.43
240.28	1718.25
240.50	1791.97
240.72	1728.49
240.93	1703.91
241.15	1875.94
241.37	1744.87
241.59	1824.74
241.81	1718.25
242.02	1660.90
242.24	1757.16
242.46	1740.77
242.68	1673.19
242.89	1708.01
243.11	1755.11
243.33	1564.65
243.55	1718.25
243.76	1708.01
243.98	1705.96
244.20	1730.53
244.42	1746.92
244.64	1773.54
244.85	1691.62
245.07	1644.52
245.29	1712.10
245.51	1726.44
245.72	1675.24
245.94	1789.92
246.16	1673.19
246.38	1757.16
246.59	1603.56
246.81	1701.86
247.03	1677.29
247.24	1654.76
247.46	1753.06
247.68	1814.50
247.90	1742.82
248.11	1710.05
248.33	1787.88
248.55	1642.47
248.77	1691.62
248.98	1761.25
249.20	1701.86
249.42	1667.05
249.64	1824.74
249.85	1697.77
250.07	1685.48
250.29	1751.01
250.50	1796.07
250.72	1689.57
250.94	1730.53
251.16	1865.70
251.37	1718.25
251.59	1742.82
251.81	1705.96
252.02	1753.06
252.24	1691.62
252.46	1755.11
252.68	1671.14
252.89	1710.05
253.11	1611.75
253.33	1748.97
253.54	1820.64
253.76	1642.47
253.98	1708.01
254.20	1708.01
254.41	1652.71
254.63	1748.97
254.85	1730.53
255.06	1671.14
255.28	1767.40
255.50	1624.04
255.71	1726.44
255.93	1578.98
256.15	1589.22
256.36	1783.78
256.58	1595.37
256.80	1732.58
257.02	1626.09
257.23	1671.14
257.45	1695.72
257.67	1779.68
257.88	1648.61
258.10	1765.35
258.32	1810.40
258.53	1773.54
258.75	1839.08
258.97	1599.46
259.18	1642.47
259.40	1746.92
259.62	1818.60
259.83	1724.39
260.05	1800.16
260.27	1947.62
260.48	1787.88
260.70	1644.52
260.92	1714.15
261.13	1726.44
261.35	1693.67
261.57	1742.82
261.78	1697.77
262.00	1621.99
262.22	1779.68
262.43	1722.34
262.65	1662.95
262.86	1740.77
263.08	1845.22
263.30	1775.59
263.51	1581.03
263.73	1703.91
263.95	1724.39
264.16	1705.96
264.38	1658.85
264.60	1837.03
264.81	1705.96
265.03	1796.07
265.25	1710.05
265.46	1763.30
265.68	1796.07
265.89	1726.44
266.11	1599.46
266.33	1787.88
266.54	1767.40
266.76	1705.96
266.98	1738.73
267.19	1785.83
267.41	1695.72
267.62	1689.57
267.84	1640.42
268.06	1681.38
268.27	1720.29
268.49	1783.78
268.70	1796.07
268.92	1755.11
269.14	1681.38
269.35	1681.38
269.57	1697.77
269.79	1718.25
270.00	1648.61
270.22	1830.88
270.43	1667.05
270.65	1550.31
270.87	1759.21
271.08	1751.01
271.30	1800.16
271.51	1748.97
271.73	1722.34
271.95	1834.98
272.16	1771.49
272.38	1691.62
272.59	1693.67
272.81	1734.63
273.02	1746.92
273.24	1748.97
273.46	1746.92
273.67	1662.95
273.89	1675.24
274.10	1763.30
274.32	1804.26
274.54	1703.91
274.75	1687.53
274.97	1673.19
275.18	1705.96
275.40	1771.49
275.61	1716.20
275.83	1748.97
276.05	1609.70
276.26	1746.92
276.48	1728.49
276.69	1718.25
276.91	1638.38
277.12	1753.06
277.34	1755.11
277.55	1783.78
277.77	1681.38
277.99	1683.43
278.20	1656.81
278.42	1656.81
278.63	1703.91
278.85	1615.85
279.06	1665.00
279.28	1724.39
279.49	1757.16
279.71	1781.73
279.93	1767.40
280.14	1751.01
280.36	1628.14
280.57	1791.97
280.79	1740.77
281.00	1708.01
281.22	1744.87
281.43	1845.22
281.65	1570.79
281.86	1636.33
282.08	1804.26
282.29	1779.68
282.51	1589.22
282.73	1726.44
282.94	1671.14
283.16	1701.86
283.37	1812.45
283.59	1701.86
283.80	1681.38
284.02	1609.70
284.23	1687.53
284.45	1695.72
284.66	1632.23
284.88	1734.63
285.09	1804.26
285.31	1736.68
285.52	1724.39
285.74	1665.00
285.95	1720.29
286.17	1744.87
286.38	1796.07
286.60	1656.81
286.81	1712.10
287.03	1665.00
287.24	1744.87
287.46	1791.97
287.67	1763.30
287.89	1943.52
288.10	1728.49
288.32	1742.82
288.53	1759.21
288.75	1697.77
288.96	1808.36
289.18	1630.18
289.39	1710.05
289.61	1761.25
289.82	1855.46
290.04	1785.83
290.25	1609.70
290.47	1730.53
290.68	1763.30
290.90	1773.54
291.11	1656.81
291.33	1796.07
291.54	1644.52
291.76	1667.05
291.97	1726.44
292.18	1744.87
292.40	1703.91
292.61	1671.14
292.83	1861.60
293.04	1738.73
293.26	1710.05
293.47	1689.57
293.69	1617.90
293.90	1726.44
294.12	1767.40
294.33	1712.10
294.55	1673.19
294.76	1845.22
294.97	1757.16
295.19	1826.79
295.40	1640.42
295.62	1742.82
295.83	1791.97
296.05	1658.85
296.26	1740.77
296.48	1677.29
296.69	1687.53
296.90	1765.35
297.12	1785.83
297.33	1738.73
297.55	1763.30
297.76	1722.34
297.98	1828.84
298.19	1746.92
298.41	1734.63
298.62	1656.81
298.83	1781.73
299.05	1736.68
299.26	1734.63
299.48	1708.01
299.69	1734.63
299.90	1714.15
300.12	1703.91
300.33	1720.29
300.55	1755.11
300.76	1697.77
300.98	1615.85
301.19	1755.11
301.40	1691.62
301.62	1726.44
301.83	1738.73
302.05	1681.38
302.26	1755.11
302.47	1712.10
302.69	1640.42
302.90	1675.24
303.12	1607.66
303.33	1753.06
303.54	1841.12
303.76	1734.63
303.97	1722.34
304.19	1808.36
304.40	1615.85
304.61	1757.16
304.83	1849.32
305.04	1757.16
305.26	1787.88
305.47	1619.94
305.68	1673.19
305.90	1601.51
306.11	1757.16
306.33	1716.20
306.54	1669.09
306.75	1746.92
306.97	1665.00
307.18	1621.99
307.39	1636.33
307.61	1794.02
307.82	1703.91
308.04	1816.55
308.25	1734.63
308.46	1755.11
308.68	1767.40
308.89	1746.92
309.10	1773.54
309.32	1703.91
309.53	1730.53
309.74	1773.54
309.96	1722.34
310.17	1781.73
310.39	1675.24
310.60	1716.20
310.81	1708.01
311.03	1634.28
311.24	1804.26
311.45	1753.06
311.67	1783.78
311.88	1724.39
312.09	1634.28
312.31	1708.01
312.52	1740.77
312.73	1757.16
312.95	1638.38
313.16	1619.94
313.37	1769.44
313.59	1804.26
313.80	1779.68
314.01	1863.65
314.23	1693.67
314.44	1624.04
314.65	1617.90
314.87	1626.09
315.08	1691.62
315.29	1697.77
315.51	1626.09
315.72	1654.76
315.93	1765.35
316.15	1787.88
316.36	1624.04
316.57	1781.73
316.79	1724.39
317.00	1675.24
317.21	1724.39
317.43	1736.68
317.64	1759.21
317.85	1652.71
318.07	1718.25
318.28	1722.34
318.49	1800.16
318.70	1912.80
318.92	1871.84
319.13	1865.70
319.34	1904.61
319.56	1798.12
319.77	1734.63
319.98	1773.54
320.20	1771.49
320.41	1773.54
320.62	1798.12
320.83	1677.29
321.05	1875.94
321.26	1720.29
321.47	1769.44
321.69	1722.34
321.90	1624.04
322.11	1642.47
322.32	1724.39
322.54	1816.55
322.75	1730.53
322.96	1812.45
323.18	1630.18
323.39	1599.46
323.60	1665.00
323.81	1773.54
324.03	1658.85
324.24	1740.77
324.45	1720.29
324.66	1665.00
324.88	1753.06
325.09	1845.22
325.30	1720.29
325.52	1730.53
325.73	1812.45
325.94	1679.33
326.15	1669.09
326.37	1693.67
326.58	1763.30
326.79	1824.74
327.00	1685.48
327.22	1722.34
327.43	1740.77
327.64	1609.70
327.85	1779.68
328.07	1660.90
328.28	1861.60
328.49	1667.05
328.70	1718.25
328.92	1699.81
329.13	1687.53
329.34	1710.05
329.55	1798.12
329.76	1740.77
329.98	1691.62
330.19	1781.73
330.40	1771.49
330.61	1748.97
330.83	1791.97
331.04	1679.33
331.25	1693.67
331.46	1699.81
331.68	1742.82
331.89	1765.35
332.10	1728.49
332.31	1619.94
332.52	1767.40
332.74	1849.32
332.95	1673.19
333.16	1683.43
333.37	1652.71
333.58	1755.11
333.80	1732.58
334.01	1669.09
334.22	1714.15
334.43	1681.38
334.64	1693.67
334.86	1611.75
335.07	1669.09
335.28	1771.49
335.49	1640.42
335.70	1718.25
335.92	1691.62
336.13	1796.07
336.34	1746.92
336.55	1773.54
336.76	1691.62
336.98	1595.37
337.19	1710.05
337.40	1853.41
337.61	1853.41
337.82	1665.00
338.04	1677.29
338.25	1611.75
338.46	1669.09
338.67	1634.28
338.88	1654.76
339.09	1683.43
339.31	1732.58
339.52	1687.53
339.73	1656.81
339.94	1681.38
340.15	1785.83
340.36	1624.04
340.58	1722.34
340.79	1681.38
341.00	1732.58
341.21	1673.19
341.42	1896.42
341.63	1738.73
341.85	1820.64
342.06	1708.01
342.27	1621.99
342.48	1767.40
342.69	1648.61
342.90	1730.53
343.12	1763.30
343.33	1701.86
343.54	1695.72
343.75	1877.99
343.96	1714.15
344.17	1654.76
344.38	1728.49
344.60	1669.09
344.81	1556.46
345.02	1716.20
345.23	1703.91
345.44	1814.50
345.65	1710.05
345.86	1783.78
346.07	1660.90
346.29	1658.85
346.50	1744.87
346.71	1732.58
346.92	1767.40
347.13	1816.55
347.34	1716.20
347.55	1675.24
347.76	1789.92
347.98	1667.05
348.19	1656.81
348.40	1724.39
348.61	1755.11
348.82	1814.50
349.03	1728.49
349.24	1662.95
349.45	1775.59
349.66	1648.61
349.88	1730.53
350.09	1681.38
350.30	1783.78
350.51	1708.01
350.72	1726.44
350.93	1636.33
351.14	1669.09
351.35	1738.73
351.56	1753.06
351.77	1714.15
351.99	1767.40
352.20	1779.68
352.41	1824.74
352.62	1611.75
352.83	1662.95
353.04	1718.25
353.25	1730.53
353.46	1777.64
353.67	1857.51
353.88	1689.57
354.09	1724.39
354.30	1744.87
354.52	1755.11
354.73	1685.48
354.94	1681.38
355.15	1609.70
355.36	1783.78
355.57	1755.11
355.78	1724.39
355.99	1691.62
356.20	1695.72
356.41	1804.26
356.62	1689.57
356.83	1708.01
357.04	1789.92
357.25	1619.94
357.46	1705.96
357.68	1556.46
357.89	1611.75
358.10	1652.71
358.31	1746.92
358.52	1697.77
358.73	1699.81
358.94	1660.90
359.15	1626.09
359.36	1736.68
359.57	1683.43
359.78	1703.91
359.99	1693.67
360.20	1675.24
360.41	1701.86
360.62	1730.53
360.83	1744.87
361.04	1734.63
361.25	1710.05
361.46	1806.31
361.67	1673.19
361.88	1773.54
362.09	1767.40
362.30	1736.68
362.51	1697.77
362.72	1667.05
362.93	1814.50
363.14	1779.68
363.35	1753.06
363.56	1720.29
363.78	1767.40
363.99	1748.97
364.20	1669.09
364.41	1783.78
364.62	1775.59
364.83	1820.64
365.04	1699.81
365.25	1697.77
365.46	1867.75
365.67	1632.23
365.88	1669.09
366.09	1693.67
366.30	1701.86
366.51	1669.09
366.72	1630.18
366.93	1632.23
367.14	1722.34
367.35	1738.73
367.56	1814.50
367.77	1804.26
367.98	1781.73
368.18	1624.04
368.39	1742.82
368.60	1673.19
368.81	1699.81
369.02	1685.48
369.23	1673.19
369.44	1576.94
369.65	1656.81
369.86	1724.39
370.07	1777.64
370.28	1636.33
370.49	1740.77
370.70	1798.12
370.91	1615.85
371.12	1638.38
371.33	1787.88
371.54	1724.39
371.75	1796.07
371.96	1591.27
372.17	1640.42
372.38	1734.63
372.59	1722.34
372.80	1777.64
373.01	1753.06
373.22	1765.35
373.43	1736.68
373.64	1599.46
373.85	1753.06
374.06	1869.80
374.26	1767.40
374.47	1693.67
374.68	1783.78
374.89	1728.49
375.10	1759.21
375.31	1763.30
375.52	1763.30
375.73	1742.82
375.94	1673.19
376.15	1787.88
376.36	1665.00
376.57	1675.24
376.78	1673.19
376.99	1726.44
377.20	1802.21
377.40	1644.52
377.61	1773.54
377.82	1687.53
378.03	1785.83
378.24	1718.25
378.45	1658.85
378.66	1722.34
378.87	1636.33
379.08	1652.71
379.29	1673.19
379.50	1804.26
379.71	1701.86
379.91	1724.39
380.12	1728.49
380.33	1748.97
380.54	1685.48
380.75	1675.24
380.96	1722.34
381.17	1738.73
381.38	1695.72
381.59	1771.49
381.80	1699.81
382.00	1845.22
382.21	1744.87
382.42	1843.17
382.63	1888.23
382.84	1853.41
383.05	1785.83
383.26	1828.84
383.47	1724.39
383.68	1738.73
383.88	1761.25
384.09	1751.01
384.30	1820.64
384.51	1712.10
384.72	1603.56
384.93	1597.42
385.14	1683.43
385.35	1761.25
385.55	1665.00
385.76	1771.49
385.97	1624.04
386.18	1728.49
386.39	1734.63
386.60	1681.38
386.81	1669.09
387.02	1636.33
387.22	1673.19
387.43	1738.73
387.64	1820.64
387.85	1933.28
388.06	2148.32
388.27	4235.20
388.48	6688.67
388.68	8388.48
388.89	9529.20
389.10	9684.84
389.31	8591.23
389.52	7522.19
389.73	6678.43
389.93	6227.87
390.14	5787.56
390.35	5105.59
390.56	4599.74
390.77	3727.30
390.98	2977.75
391.18	2510.81
391.39	2099.17
391.60	1886.18
391.81	1884.13
392.02	1779.68
392.23	1884.13
392.43	1693.67
392.64	1834.98
392.85	1697.77
393.06	1724.39
393.27	1736.68
393.47	1595.37
393.68	1685.48
393.89	1757.16
394.10	1777.64
394.31	1605.61
394.52	1648.61
394.72	1671.14
394.93	1843.17
395.14	1650.66
395.35	1794.02
395.56	1669.09
395.76	1765.35
395.97	1783.78
396.18	1812.45
396.39	1861.60
396.60	2037.73
396.80	1839.08
397.01	1816.55
397.22	1894.37
397.43	1789.92
397.64	1658.85
397.84	1837.03
398.05	1925.09
398.26	1779.68
398.47	1742.82
398.67	1773.54
398.88	1748.97
399.09	1746.92
399.30	1687.53
399.51	1726.44
399.71	1714.15
399.92	1693.67
400.13	1759.21
400.34	1665.00
400.54	1785.83
400.75	1781.73
400.96	1742.82
401.17	1769.44
401.37	1759.21
401.58	1759.21
401.79	1660.90
402.00	1882.08
402.21	1957.86
402.41	1996.77
402.62	1970.15
402.83	2023.39
403.04	1982.43
403.24	2095.07
403.45	1804.26
403.66	1892.32
403.87	1914.85
404.07	1918.95
404.28	1894.37
404.49	1882.08
404.70	1751.01
404.90	1767.40
405.11	1712.10
405.32	1828.84
405.52	1703.91
405.73	1705.96
405.94	1726.44
406.15	1730.53
406.35	1810.40
406.56	1769.44
406.77	1753.06
406.98	1767.40
407.18	1562.60
407.39	1806.31
407.60	1738.73
407.80	1732.58
408.01	1587.18
408.22	1738.73
408.43	1730.53
408.63	1667.05
408.84	1736.68
409.05	1820.64
409.25	1654.76
409.46	1712.10
409.67	1654.76
409.88	1722.34
410.08	1814.50
410.29	1681.38
410.50	1777.64
410.70	1736.68
410.91	1693.67
411.12	1662.95
411.32	1738.73
411.53	1699.81
411.74	1828.84
411.95	1765.35
412.15	1814.50
412.36	1849.32
412.57	1865.70
412.77	1783.78
412.98	1757.16
413.19	1693.67
413.39	1853.41
413.60	1691.62
413.81	1794.02
414.01	1730.53
414.22	1753.06
414.43	1755.11
414.63	1697.77
414.84	1804.26
415.05	1648.61
415.25	1617.90
415.46	1728.49
415.67	1708.01
415.87	1671.14
416.08	1794.02
416.29	1632.23
416.49	1798.12
416.70	1736.68
416.91	1681.38
417.11	1710.05
417.32	1794.02
417.53	1781.73
417.73	1730.53
417.94	1652.71
418.15	1722.34
418.35	1767.40
418.56	1681.38
418.77	1886.18
418.97	1705.96
419.18	1648.61
419.38	1587.18
419.59	1683.43
419.80	1808.36
420.00	1634.28
420.21	1781.73
420.42	1837.03
420.62	1732.58
420.83	1662.95
421.04	1699.81
421.24	1699.81
421.45	1816.55
421.65	1689.57
421.86	1652.71
422.07	1777.64
422.27	1771.49
422.48	1763.30
422.69	1730.53
422.89	1665.00
423.10	1724.39
423.30	1646.57
423.51	1730.53
423.72	1796.07
423.92	1742.82
424.13	1681.38
424.33	1734.63
424.54	1822.69
424.75	1794.02
424.95	1853.41
425.16	1675.24
425.36	1681.38
425.57	1718.25
425.78	1779.68
425.98	1742.82
426.19	1734.63
426.39	1748.97
426.60	1705.96
426.81	1763.30
427.01	1742.82
427.22	1609.70
427.42	1640.42
427.63	1689.57
427.83	1769.44
428.04	1869.80
428.25	1787.88
428.45	1763.30
428.66	1806.31
428.86	1714.15
429.07	1751.01
429.28	1765.35
429.48	1701.86
429.69	1628.14
429.89	1738.73
430.10	1660.90
430.30	1724.39
430.51	1771.49
430.71	1703.91
430.92	1677.29
431.13	1685.48
431.33	1796.07
431.54	1755.11
431.74	1826.79
431.95	1818.60
432.15	1697.77
432.36	1728.49
432.56	1822.69
432.77	1791.97
432.98	1742.82
433.18	1722.34
433.39	1734.63
433.59	1671.14
433.80	1820.64
434.00	1984.48
434.21	1718.25
434.41	1640.42
434.62	1857.51
434.82	1640.42
435.03	1660.90
435.23	1738.73
435.44	1636.33
435.64	1695.72
435.85	1759.21
436.06	1865.70
436.26	1771.49
436.47	1775.59
436.67	1777.64
436.88	1785.83
437.08	1849.32
437.29	1822.69
437.49	1681.38
437.70	1804.26
437.90	1738.73
438.11	1939.43
438.31	1724.39
438.52	1970.15
438.72	1910.75
438.93	1904.61
439.13	1787.88
439.34	1775.59
439.54	1751.01
439.75	1794.02
439.95	1798.12
440.16	1730.53
440.36	1779.68
440.57	1826.79
440.77	1742.82
440.98	1722.34
441.18	1708.01
441.39	1718.25
441.59	1720.29
441.80	1896.42
442.00	1720.29
442.21	1822.69
442.41	1689.57
442.62	1734.63
442.82	1665.00
443.02	1708.01
443.23	1730.53
443.43	1607.66
443.64	1871.84
443.84	1675.24
444.05	1806.31
444.25	1650.66
444.46	1757.16
444.66	1736.68
444.87	1783.78
445.07	1714.15
445.28	1779.68
445.48	1718.25
445.69	1710.05
445.89	1882.08
446.09	1714.15
446.30	2088.93
446.50	2572.25
446.71	3723.21
446.91	4331.45
447.12	4698.04
447.32	4923.32
447.53	4339.65
447.73	3891.14
447.93	3463.12
448.14	3321.81
448.34	3129.30
448.55	2942.93
448.75	2858.96
448.96	2729.94
449.16	2473.95
449.36	2254.81
449.57	2009.06
449.77	1894.37
449.98	1787.88
450.18	1812.45
450.39	1783.78
450.59	1744.87
450.79	1679.33
451.00	1724.39
451.20	1822.69
451.41	1783.78
451.61	1798.12
451.81	1746.92
452.02	1705.96
452.22	1761.25
452.43	1759.21
452.63	1675.24
452.84	1730.53
453.04	1677.29
453.24	1779.68
453.45	1730.53
453.65	1812.45
453.86	1843.17
454.06	1728.49
454.26	1755.11
454.47	1658.85
454.67	1847.27
454.87	1726.44
455.08	1724.39
455.28	1955.81
455.49	1812.45
455.69	1697.77
455.89	1912.80
456.10	1775.59
456.30	1722.34
456.51	1796.07
456.71	1777.64
456.91	1767.40
457.12	1726.44
457.32	1787.88
457.52	1728.49
457.73	1820.64
457.93	1798.12
458.14	1736.68
458.34	1650.66
458.54	1683.43
458.75	1761.25
458.95	1820.64
459.15	1736.68
459.36	1853.41
459.56	1798.12
459.76	1820.64
459.97	1751.01
460.17	1736.68
460.37	1806.31
460.58	1720.29
460.78	1755.11
460.99	1777.64
461.19	1812.45
461.39	1689.57
461.60	1740.77
461.80	1812.45
462.00	1699.81
462.21	1660.90
462.41	1689.57
462.61	1708.01
462.82	1740.77
463.02	1724.39
463.22	1701.86
463.43	1851.36
463.63	1740.77
463.83	1828.84
464.04	1785.83
464.24	1767.40
464.44	1710.05
464.64	1714.15
464.85	1769.44
465.05	1800.16
465.25	1765.35
465.46	1759.21
465.66	1701.86
465.86	1853.41
466.07	1814.50
466.27	1800.16
466.47	1617.90
466.68	1708.01
466.88	1822.69
467.08	1822.69
467.29	1767.40
467.49	1701.86
467.69	1804.26
467.89	1755.11
468.10	1730.53
468.30	1746.92
468.50	1824.74
468.71	1767.40
468.91	1624.04
469.11	1837.03
469.31	1734.63
469.52	1703.91
469.72	1845.22
469.92	1824.74
470.13	1783.78
470.33	1755.11
470.53	1886.18
470.73	2201.57
470.94	2258.91
471.14	2287.58
471.34	2508.76
471.54	2398.17
471.75	2238.43
471.95	2140.13
472.15	2125.79
472.36	2133.98
472.56	2095.07
472.76	1970.15
472.96	2056.16
473.17	1925.09
473.37	1912.80
473.57	1767.40
473.77	1806.31
473.98	1779.68
474.18	1675.24
474.38	1966.05
474.58	1746.92
474.79	1726.44
474.99	1822.69
475.19	1777.64
475.39	1701.86
475.60	1759.21
475.80	1779.68
476.00	1718.25
476.20	1724.39
476.41	1703.91
476.61	1830.88
476.81	1863.65
477.01	1681.38
477.21	1867.75
477.42	1820.64
477.62	1681.38
477.82	1804.26
478.02	1681.38
478.23	1781.73
478.43	1650.66
478.63	1779.68
478.83	1714.15
479.03	1740.77
479.24	1818.60
479.44	1822.69
479.64	1683.43
479.84	1591.27
480.04	1714.15
480.25	1820.64
480.45	1703.91
480.65	1675.24
480.85	1773.54
481.06	1732.58
481.26	1716.20
481.46	1769.44
481.66	1759.21
481.86	1732.58
482.06	1851.36
482.27	1722.34
482.47	1720.29
482.67	1761.25
482.87	1697.77
483.07	1806.31
483.28	1763.30
483.48	1673.19
483.68	1714.15
483.88	1611.75
484.08	1695.72
484.29	1632.23
484.49	1710.05
484.69	1683.43
484.89	1777.64
485.09	1748.97
485.29	1808.36
485.50	1787.88
485.70	1665.00
485.90	1775.59
486.10	1781.73
486.30	1685.48
486.50	1867.75
486.71	1708.01
486.91	1837.03
487.11	1800.16
487.31	1652.71
487.51	1726.44
487.71	1673.19
487.91	1632.23
488.12	1677.29
488.32	1628.14
488.52	1751.01
488.72	1667.05
488.92	1779.68
489.12	1699.81
489.32	1777.64
489.53	1794.02
489.73	1681.38
489.93	1777.64
490.13	1722.34
490.33	1640.42
490.53	1810.40
490.73	1791.97
490.94	1685.48
491.14	1703.91
491.34	1861.60
491.54	2209.76
491.74	2500.57
491.94	2912.21
492.14	2977.75
492.34	2967.51
492.54	2740.18
492.75	2555.86
492.95	2478.04
493.15	2322.40
493.35	2375.64
493.55	2281.44
493.75	2160.61
493.95	2142.18
494.15	2058.21
494.35	1818.60
494.56	1900.52
494.76	1748.97
494.96	1845.22
495.16	1814.50
495.36	1755.11
495.56	1812.45
495.76	1736.68
495.96	1738.73
496.16	1705.96
496.36	1834.98
496.56	1765.35
496.77	1802.21
496.97	1765.35
497.17	1789.92
497.37	1638.38
497.57	1794.02
497.77	1701.86
497.97	1697.77
498.17	1718.25
498.37	1791.97
498.57	1830.88
498.77	1675.24
498.97	1834.98
499.17	1888.23
499.38	1777.64
499.58	1826.79
499.78	1820.64
499.98	1804.26
500.18	1783.78
500.38	1740.77
500.58	1898.47
500.78	2586.58
500.98	4534.20
501.18	5787.56
501.38	6682.52
501.58	7219.09
501.78	6698.91
501.98	5617.58
502.18	4917.17
502.38	4437.95
502.58	4163.52
502.78	3717.06
502.98	3629.00
503.18	3413.96
503.38	3184.59
503.59	2787.29
503.79	2600.92
503.99	2480.09
504.19	2293.72
504.39	2316.25
504.59	2260.96
504.79	2189.28
504.99	2080.74
505.19	1933.28
505.39	1849.32
505.59	2011.11
505.79	1929.19
505.99	1849.32
506.19	1763.30
506.39	1927.14
506.59	1796.07
506.79	1710.05
506.99	1759.21
507.19	1828.84
507.39	1767.40
507.59	1687.53
507.79	1701.86
507.99	1769.44
508.19	1689.57
508.39	1697.77
508.59	1746.92
508.79	1796.07
508.99	1863.65
509.19	1722.34
509.39	1714.15
509.59	1726.44
509.79	1716.20
509.99	1726.44
510.19	1822.69
510.39	1828.84
510.59	1732.58
510.79	1714.15
510.99	1691.62
511.19	1759.21
511.39	1863.65
511.59	1716.20
511.79	1865.70
511.99	1732.58
512.19	1783.78
512.38	1751.01
512.58	1787.88
512.78	1802.21
512.98	1816.55
513.18	1771.49
513.38	1662.95
513.58	1751.01
513.78	1759.21
513.98	1789.92
514.18	1767.40
514.38	1753.06
514.58	1730.53
514.78	1755.11
514.98	1671.14
515.18	1740.77
515.38	1681.38
515.58	1828.84
515.78	1695.72
515.98	1673.19
516.18	1839.08
516.38	1718.25
516.57	1677.29
516.77	1746.92
516.97	1841.12
517.17	1777.64
517.37	1648.61
517.57	1822.69
517.77	1687.53
517.97	1654.76
518.17	1779.68
518.37	1648.61
518.57	1730.53
518.77	1730.53
518.97	1763.30
519.16	1751.01
519.36	1757.16
519.56	1744.87
519.76	1738.73
519.96	1736.68
520.16	1753.06
520.36	1710.05
520.56	1832.93
520.76	1710.05
520.96	1777.64
521.16	1802.21
521.35	1830.88
521.55	1861.60
521.75	1800.16
521.95	1714.15
522.15	1753.06
522.35	1705.96
522.55	1681.38
522.75	1742.82
522.95	1726.44
523.14	1734.63
523.34	1761.25
523.54	1656.81
523.74	1742.82
523.94	1767.40
524.14	1689.57
524.34	1755.11
524.54	1806.31
524.73	1685.48
524.93	1777.64
525.13	1724.39
525.33	1677.29
525.53	1943.52
525.73	1853.41
525.93	1697.77
526.13	1783.78
526.32	1791.97
526.52	1857.51
526.72	1855.46
526.92	1746.92
527.12	1763.30
527.32	1689.57
527.52	1712.10
527.71	1763.30
527.91	1716.20
528.11	1656.81
528.31	1796.07
528.51	1714.15
528.71	1767.40
528.90	1800.16
529.10	1759.21
529.30	1830.88
529.50	1621.99
529.70	1730.53
529.90	1714.15
530.09	1796.07
530.29	1613.80
530.49	1699.81
530.69	1871.84
530.89	1759.21
531.09	1755.11
531.28	1714.15
531.48	1841.12
531.68	1691.62
531.88	1718.25
532.08	1828.84
532.28	1808.36
532.47	1748.97
532.67	1775.59
532.87	1855.46
533.07	1716.20
533.27	1783.78
533.46	1824.74
533.66	1779.68
533.86	1736.68
534.06	1738.73
534.26	1796.07
534.45	1640.42
534.65	1855.46
534.85	1740.77
535.05	1656.81
535.25	1771.49
535.44	1626.09
535.64	1728.49
535.84	1697.77
536.04	1730.53
536.24	1716.20
536.43	1755.11
536.63	1755.11
536.83	1781.73
537.03	1763.30
537.22	1675.24
537.42	1589.22
537.62	1742.82
537.82	1773.54
538.02	1796.07
538.21	1804.26
538.41	1841.12
538.61	1812.45
538.81	1734.63
539.00	1742.82
539.20	1703.91
539.40	1783.78
539.60	1767.40
539.79	1800.16
539.99	1748.97
540.19	1769.44
540.39	1716.20
540.58	1779.68
540.78	1746.92
540.98	1697.77
541.18	1845.22
541.37	1734.63
541.57	1710.05
541.77	1837.03
541.97	1732.58
542.16	1691.62
542.36	1695.72
542.56	1767.40
542.76	1828.84
542.95	1822.69
543.15	1798.12
543.35	1849.32
543.54	1714.15
543.74	1705.96
543.94	1849.32
544.14	1697.77
544.33	1753.06
544.53	1773.54
544.73	1716.20
544.93	1730.53
545.12	1714.15
545.32	1726.44
545.52	1734.63
545.71	1748.97
545.91	1738.73
546.11	1714.15
546.30	1662.95
546.50	1726.44
546.70	1767.40
546.90	1822.69
547.09	1673.19
547.29	1726.44
547.49	1822.69
547.68	1724.39
547.88	1763.30
548.08	1802.21
548.27	2226.14
548.47	1669.09
548.67	1679.33
548.87	1730.53
549.06	1722.34
549.26	1767.40
549.46	1728.49
549.65	1734.63
549.85	1703.91
550.05	1796.07
550.24	1615.85
550.44	1798.12
550.64	1796.07
550.83	1804.26
551.03	1824.74
551.23	1796.07
551.42	1746.92
551.62	1742.82
551.82	1748.97
552.01	1701.86
552.21	1904.61
552.41	1767.40
552.60	1884.13
552.80	1802.21
553.00	1742.82
553.19	1777.64
553.39	1826.79
553.59	1726.44
553.78	1769.44
553.98	1748.97
554.17	1646.57
554.37	1775.59
554.57	1847.27
554.76	1681.38
554.96	1716.20
555.16	1746.92
555.35	1779.68
555.55	1804.26
555.75	1775.59
555.94	1796.07
556.14	1656.81
556.33	1728.49
556.53	1740.77
556.73	1738.73
556.92	1751.01
557.12	1822.69
557.32	1888.23
557.51	1783.78
557.71	1734.63
557.90	1865.70
558.10	1832.93
558.30	1722.34
558.49	1726.44
558.69	1734.63
558.88	1765.35
559.08	1718.25
559.28	1765.35
559.47	1736.68
559.67	1724.39
559.86	1861.60
560.06	1773.54
560.26	1855.46
560.45	1888.23
560.65	1734.63
560.84	1906.66
561.04	1683.43
561.24	1814.50
561.43	1777.64
561.63	1828.84
561.82	1746.92
562.02	1824.74
562.22	1732.58
562.41	1679.33
562.61	1681.38
562.80	1685.48
563.00	1882.08
563.19	1753.06
563.39	1771.49
563.59	1728.49
563.78	1718.25
563.98	1724.39
564.17	1656.81
564.37	1726.44
564.56	1730.53
564.76	1679.33
564.96	1884.13
565.15	1724.39
565.35	1945.57
565.54	1728.49
565.74	1830.88
565.93	1779.68
566.13	1769.44
566.32	1777.64
566.52	1703.91
566.71	1810.40
566.91	1837.03
567.11	1746.92
567.30	1697.77
567.50	1808.36
567.69	1806.31
567.89	1755.11
568.08	1724.39
568.28	1761.25
568.47	1726.44
568.67	1744.87
568.86	1742.82
569.06	1798.12
569.25	1726.44
569.45	1652.71
569.64	1599.46
569.84	1738.73
570.04	1794.02
570.23	1759.21
570.43	1779.68
570.62	1685.48
570.82	1806.31
571.01	1732.58
571.21	1689.57
571.40	1693.67
571.60	1779.68
571.79	1757.16
571.99	1791.97
572.18	1632.23
572.38	1775.59
572.57	1681.38
572.77	1746.92
572.96	1939.43
573.16	1798.12
573.35	1796.07
573.55	1832.93
573.74	1867.75
573.94	1748.97
574.13	1789.92
574.33	1828.84
574.52	1787.88
574.71	1734.63
574.91	1671.14
575.10	1716.20
575.30	1736.68
575.49	1699.81
575.69	1734.63
575.88	1783.78
576.08	1701.86
576.27	1771.49
576.47	1708.01
576.66	1824.74
576.86	1871.84
577.05	1765.35
577.25	1800.16
577.44	1912.80
577.64	1665.00
577.83	1798.12
578.02	1726.44
578.22	1837.03
578.41	1845.22
578.61	1783.78
578.80	1703.91
579.00	1783.78
579.19	1701.86
579.39	1779.68
579.58	1808.36
579.77	1824.74
579.97	1957.86
580.16	1869.80
580.36	1837.03
580.55	1857.51
580.75	1800.16
580.94	1804.26
581.13	1841.12
581.33	1951.71
581.52	1738.73
581.72	1904.61
581.91	1826.79
582.11	1683.43
582.30	1853.41
582.49	1775.59
582.69	1812.45
582.88	1804.26
583.08	1779.68
583.27	1814.50
583.47	1667.05
583.66	1769.44
583.85	1712.10
584.05	1705.96
584.24	1826.79
584.44	1886.18
584.63	1845.22
584.82	1820.64
585.02	1941.47
585.21	1843.17
585.41	1808.36
585.60	1763.30
585.79	1968.10
585.99	1951.71
586.18	1810.40
586.37	2236.38
586.57	3360.72
586.76	10004.33
586.96	24678.02
587.15	34424.31
587.34	40242.59
587.54	42206.59
587.73	36781.52
587.93	26379.89
588.12	21427.90
588.31	18439.91
588.51	16285.45
588.70	15122.20
588.89	14122.79
589.09	12480.32
589.28	11204.44
589.47	9314.16
589.67	7925.64
589.86	6432.67
590.06	4956.08
590.25	3938.24
590.44	3082.19
590.64	2566.10
590.83	2316.25
591.02	2062.30
591.22	2004.96
591.41	1925.09
591.60	1798.12
591.80	1998.82
591.99	1761.25
592.18	1751.01
592.38	1775.59
592.57	1779.68
592.76	1781.73
592.96	1810.40
593.15	1703.91
593.34	1871.84
593.54	1708.01
593.73	1773.54
593.92	1810.40
594.12	1779.68
594.31	1714.15
594.50	1828.84
594.70	1771.49
594.89	1884.13
595.08	1699.81
595.28	1773.54
595.47	1937.38
595.66	1759.21
595.86	1742.82
596.05	1748.97
596.24	1777.64
596.43	1884.13
596.63	1865.70
596.82	1781.73
597.01	1767.40
597.21	1849.32
597.40	1775.59
597.59	1728.49
597.79	1820.64
597.98	1812.45
598.17	1789.92
598.36	1798.12
598.56	1812.45
598.75	1718.25
598.94	1822.69
599.14	1648.61
599.33	1751.01
599.52	1804.26
599.71	1759.21
599.91	1738.73
600.10	1816.55
600.29	1734.63
600.48	1783.78
600.68	1742.82
600.87	1763.30
601.06	1697.77
601.26	1636.33
601.45	1779.68
601.64	1748.97
601.83	1906.66
602.03	1740.77
602.22	1695.72
602.41	1802.21
602.60	1877.99
602.80	1808.36
602.99	1765.35
603.18	1681.38
603.37	1783.78
603.57	1763.30
603.76	1789.92
603.95	1746.92
604.14	1734.63
604.34	1734.63
604.53	1765.35
604.72	1714.15
604.91	1789.92
605.10	1779.68
605.30	1701.86
605.49	1837.03
605.68	1804.26
605.87	1800.16
606.07	1736.68
606.26	1742.82
606.45	1779.68
606.64	1742.82
606.84	1755.11
607.03	1652.71
607.22	1791.97
607.41	1714.15
607.60	1740.77
607.80	1841.12
607.99	1708.01
608.18	1738.73
608.37	1728.49
608.56	1736.68
608.76	1738.73
608.95	1849.32
609.14	1773.54
609.33	1736.68
609.52	1812.45
609.72	1712.10
609.91	1744.87
610.10	1724.39
610.29	1808.36
610.48	1806.31
610.68	1734.63
610.87	1775.59
611.06	1773.54
611.25	1759.21
611.44	1787.88
611.63	1652.71
611.83	1861.60
612.02	1658.85
612.21	1832.93
612.40	1650.66
612.59	1671.14
612.79	1675.24
612.98	1773.54
613.17	1812.45
613.36	1730.53
613.55	1816.55
613.74	1667.05
613.93	1722.34
614.13	1691.62
614.32	1818.60
614.51	1722.34
614.70	1746.92
614.89	1753.06
615.08	1777.64
615.28	2070.50
615.47	1683.43
615.66	1710.05
615.85	1738.73
616.04	1851.36
616.23	1785.83
616.42	1759.21
616.62	1765.35
616.81	1757.16
617.00	1691.62
617.19	1847.27
617.38	1730.53
617.57	1771.49
617.76	1769.44
617.95	1837.03
618.15	1789.92
618.34	1849.32
618.53	1677.29
618.72	1855.46
618.91	1880.04
619.10	1869.80
619.29	1710.05
619.48	1734.63
619.68	1654.76
619.87	1765.35
620.06	1662.95
620.25	1802.21
620.44	1628.14
620.63	1693.67
620.82	1757.16
621.01	1671.14
621.20	1712.10
621.39	1726.44
621.59	1677.29
621.78	1697.77
621.97	1767.40
622.16	1705.96
622.35	1775.59
622.54	1734.63
622.73	1730.53
622.92	1703.91
623.11	1759.21
623.30	1683.43
623.49	1822.69
623.68	1665.00
623.88	1757.16
624.07	1763.30
624.26	1785.83
624.45	1703.91
624.64	1759.21
624.83	1759.21
625.02	1718.25
625.21	1714.15
625.40	1742.82
625.59	1789.92
625.78	1701.86
625.97	1865.70
626.16	1812.45
626.35	1759.21
626.54	1718.25
626.74	1837.03
626.93	1701.86
627.12	1753.06
627.31	1824.74
627.50	1656.81
627.69	1810.40
627.88	1693.67
628.07	1691.62
628.26	1665.00
628.45	1732.58
628.64	1634.28
628.83	1740.77
629.02	1638.38
629.21	1816.55
629.40	1767.40
629.59	1648.61
629.78	1665.00
629.97	1728.49
630.16	1736.68
630.35	1691.62
630.54	1662.95
630.73	1742.82
630.92	1796.07
631.11	1667.05
631.30	1796.07
631.49	1730.53
631.68	1746.92
631.87	1712.10
632.06	1652.71
632.25	1912.80
632.44	1722.34
632.63	1773.54
632.82	1667.05
633.01	1685.48
633.20	1652.71
633.39	1763.30
633.58	1724.39
633.77	1716.20
633.96	1695.72
634.15	1802.21
634.34	1779.68
634.53	1681.38
634.72	1765.35
634.91	1658.85
635.10	1748.97
635.29	1769.44
635.48	1726.44
635.67	1681.38
635.86	1648.61
636.05	1843.17
636.24	1679.33
636.43	1693.67
636.62	1728.49
636.81	1671.14
637.00	1732.58
637.19	1767.40
637.38	1736.68
637.57	1736.68
637.76	1722.34
637.95	1787.88
638.14	1660.90
638.33	1748.97
638.52	1744.87
638.71	1695.72
638.89	1630.18
639.08	1820.64
639.27	1736.68
639.46	1677.29
639.65	1812.45
639.84	1794.02
640.03	1841.12
640.22	1769.44
640.41	1787.88
640.60	1689.57
640.79	1837.03
640.98	1665.00
641.17	1877.99
641.36	1755.11
641.55	1773.54
641.74	1650.66
641.92	1695.72
642.11	1693.67
642.30	1769.44
642.49	1703.91
642.68	1697.77
642.87	1751.01
643.06	1687.53
643.25	1710.05
643.44	1699.81
643.63	1714.15
643.82	1720.29
644.00	1662.95
644.19	1759.21
644.38	1591.27
644.57	1775.59
644.76	1777.64
644.95	1783.78
645.14	1761.25
645.33	1685.48
645.52	1656.81
645.71	1716.20
645.89	1697.77
646.08	1757.16
646.27	1763.30
646.46	1810.40
646.65	1640.42
646.84	1722.34
647.03	1716.20
647.22	1796.07
647.40	1703.91
647.59	1738.73
647.78	1646.57
647.97	1652.71
648.16	1656.81
648.35	1779.68
648.54	1843.17
648.73	1687.53
648.91	1839.08
649.10	1781.73
649.29	1646.57
649.48	1638.38
649.67	1773.54
649.86	1660.90
650.05	1748.97
650.23	1828.84
650.42	1665.00
650.61	1783.78
650.80	1787.88
650.99	1841.12
651.18	1683.43
651.36	1806.31
651.55	1640.42
651.74	1736.68
651.93	1726.44
652.12	1658.85
652.31	1695.72
652.49	1757.16
652.68	1662.95
652.87	1810.40
653.06	1732.58
653.25	1800.16
653.44	1624.04
653.62	1810.40
653.81	1716.20
654.00	1822.69
654.19	1812.45
654.38	1861.60
654.56	1648.61
654.75	1712.10
654.94	1837.03
655.13	1697.77
655.32	1677.29
655.51	1767.40
655.69	1703.91
655.88	1789.92
656.07	1660.90
656.26	1718.25
656.45	1654.76
656.63	1705.96
656.82	1757.16
657.01	1830.88
657.20	1648.61
657.38	1771.49
657.57	1675.24
657.76	1656.81
657.95	1718.25
658.14	1714.15
658.32	1699.81
658.51	1699.81
658.70	1736.68
658.89	1736.68
659.08	1726.44
659.26	1789.92
659.45	1640.42
659.64	1785.83
659.83	1648.61
660.01	1923.04
660.20	1763.30
660.39	1843.17
660.58	1628.14
660.76	1794.02
660.95	1642.47
661.14	1736.68
661.33	1640.42
661.51	1804.26
661.70	1662.95
661.89	1796.07
662.08	1734.63
662.26	1699.81
662.45	1683.43
662.64	1830.88
662.83	1734.63
663.01	1646.57
663.20	1734.63
663.39	1839.08
663.58	1732.58
663.76	1683.43
663.95	1742.82
664.14	1632.23
664.32	1720.29
664.51	1722.34
664.70	1677.29
664.89	1787.88
665.07	1636.33
665.26	1751.01
665.45	1638.38
665.64	1834.98
665.82	1751.01
666.01	1789.92
666.20	1689.57
666.38	1755.11
666.57	1832.93
666.76	2117.60
666.95	4507.58
667.13	10620.77
667.32	15374.10
667.51	18116.33
667.69	19209.95
667.88	17708.79
668.07	12420.93
668.25	9703.28
668.44	8284.03
668.63	7294.86
668.81	6686.62
669.00	6387.61
669.19	5730.22
669.38	5148.59
669.56	4556.73
669.75	4007.87
669.94	3387.34
670.12	2815.96
670.31	2451.42
670.50	2316.25
670.68	2107.36
670.87	1908.71
671.06	1818.60
671.24	1781.73
671.43	1847.27
671.62	1755.11
671.80	1742.82
671.99	1834.98
672.18	1765.35
672.36	1804.26
672.55	1798.12
672.74	1687.53
672.92	1683.43
673.11	1718.25
673.29	1603.56
673.48	1777.64
673.67	1638.38
673.85	1863.65
674.04	1759.21
674.23	1789.92
674.41	1841.12
674.60	1689.57
674.79	1705.96
674.97	1691.62
675.16	1820.64
675.34	1726.44
675.53	1685.48
675.72	1828.84
675.90	1796.07
676.09	1665.00
676.28	1697.77
676.46	1656.81
676.65	1753.06
676.83	1701.86
677.02	1667.05
677.21	1742.82
677.39	1785.83
677.58	1630.18
677.77	1728.49
677.95	1646.57
678.14	1775.59
678.32	1740.77
678.51	1677.29
678.70	1789.92
678.88	1730.53
679.07	1765.35
679.25	1689.57
679.44	1619.94
679.63	1710.05
679.81	1677.29
680.00	1791.97
680.18	1742.82
680.37	1787.88
680.55	1689.57
680.74	1617.90
680.93	1548.26
681.11	1726.44
681.30	1810.40
681.48	1806.31
681.67	1703.91
681.85	1738.73
682.04	1695.72
682.23	1806.31
682.41	1673.19
682.60	1732.58
682.78	1714.15
682.97	1761.25
683.15	1759.21
683.34	1773.54
683.53	1828.84
683.71	1695.72
683.90	1822.69
684.08	1832.93
684.27	1693.67
684.45	1806.31
684.64	1816.55
684.82	1697.77
685.01	1705.96
685.19	1771.49
685.38	1791.97
685.57	1765.35
685.75	1656.81
685.94	1673.19
686.12	1648.61
686.31	1763.30
686.49	1832.93
686.68	1624.04
686.86	1714.15
687.05	1665.00
687.23	1877.99
687.42	1675.24
687.60	1603.56
687.79	1828.84
687.97	1763.30
688.16	1812.45
688.34	1820.64
688.53	1630.18
688.71	1755.11
688.90	1783.78
689.08	1759.21
689.27	1599.46
689.45	1740.77
689.64	1775.59
689.82	1730.53
690.01	1767.40
690.19	1681.38
690.38	1734.63
690.56	1763.30
690.75	1734.63
690.93	1751.01
691.12	1662.95
691.30	1734.63
691.49	1646.57
691.67	1730.53
691.86	1820.64
692.04	1755.11
692.23	1748.97
692.41	1722.34
692.60	1832.93
692.78	1742.82
692.97	1716.20
693.15	1773.54
693.34	1804.26
693.52	1759.21
693.71	1728.49
693.89	1685.48
694.08	1628.14
694.26	1767.40
694.44	1738.73
694.63	1763.30
694.81	1705.96
695.00	1638.38
695.18	1781.73
695.37	1865.70
695.55	1763.30
695.74	1708.01
695.92	1755.11
696.10	1808.36
696.29	1595.37
696.47	1716.20
696.66	1736.68
696.84	1681.38
697.03	1669.09
697.21	1783.78
697.40	2377.69
697.58	1701.86
697.76	1654.76
697.95	1703.91
698.13	1667.05
698.32	1683.43
698.50	1705.96
698.68	1769.44
698.87	1697.77
699.05	1744.87
699.24	1767.40
699.42	1693.67
699.61	1796.07
699.79	1732.58
699.97	1710.05
700.16	1615.85
700.34	1677.29
700.53	1724.39
700.71	1804.26
700.89	1794.02
701.08	1708.01
701.26	1703.91
701.45	2080.74
701.63	1689.57
701.81	1767.40
702.00	1726.44
702.18	1740.77
702.37	1665.00
702.55	1751.01
702.73	1744.87
702.92	1681.38
703.10	1771.49
703.28	1787.88
703.47	1619.94
703.65	1791.97
703.84	1765.35
704.02	1667.05
704.20	1816.55
704.39	1662.95
704.57	1685.48
704.75	1763.30
704.94	1763.30
705.12	1781.73
705.30	1785.83
705.49	2287.58
705.67	4526.01
705.86	9598.83
706.04	12621.63
706.22	14636.83
706.41	15410.96
706.59	13748.01
706.77	9693.04
706.96	7161.75
707.14	6576.03
707.32	6096.80
707.51	5699.50
707.69	4892.60
707.87	4159.42
708.06	3438.54
708.24	2893.78
708.42	2398.17
708.61	2213.85
708.79	1951.71
708.97	1843.17
709.16	1914.85
709.34	1751.01
709.52	1691.62
709.71	1699.81
709.89	1761.25
710.07	1714.15
710.26	1693.67
710.44	1785.83
710.62	1771.49
710.80	1726.44
710.99	1781.73
711.17	1708.01
711.35	1734.63
711.54	1673.19
711.72	1738.73
711.90	1771.49
712.09	1779.68
712.27	1695.72
712.45	1718.25
712.63	1691.62
712.82	1753.06
713.00	1701.86
713.18	1804.26
713.37	1738.73
713.55	1730.53
713.73	1740.77
713.91	1767.40
714.10	1697.77
714.28	1703.91
714.46	1755.11
714.65	1779.68
714.83	1714.15
715.01	1771.49
715.19	1656.81
715.38	1681.38
715.56	1685.48
715.74	1662.95
715.92	1652.71
716.11	1820.64
716.29	1615.85
716.47	1732.58
716.65	1763.30
716.84	1597.42
717.02	1787.88
717.20	1710.05
717.38	1722.34
717.57	1699.81
717.75	1667.05
717.93	1687.53
718.11	1828.84
718.30	1755.11
718.48	1695.72
718.66	1783.78
718.84	1755.11
719.03	1710.05
719.21	1648.61
719.39	1802.21
719.57	1730.53
719.75	1775.59
719.94	1677.29
720.12	1740.77
720.30	1771.49
720.48	1759.21
720.67	1746.92
720.85	1685.48
721.03	1638.38
721.21	1722.34
721.39	1734.63
721.58	1685.48
721.76	1665.00
721.94	1759.21
722.12	1751.01
722.30	1832.93
722.49	1673.19
722.67	1751.01
722.85	1724.39
723.03	1652.71
723.21	1714.15
723.40	1785.83
723.58	1699.81
723.76	1728.49
723.94	1847.27
724.12	1726.44
724.30	1802.21
724.49	1701.86
724.67	1701.86
724.85	1834.98
725.03	1628.14
725.21	1689.57
725.40	1744.87
725.58	1701.86
725.76	1777.64
725.94	1691.62
726.12	1677.29
726.30	1699.81
726.49	1714.15
726.67	1738.73
726.85	1773.54
727.03	1816.55
727.21	2138.08
727.39	2961.36
727.57	3801.03
727.76	4224.96
727.94	4427.71
728.12	4296.64
728.30	3579.85
728.48	2838.48
728.66	2752.47
728.84	2525.15
729.03	2336.73
729.21	2156.51
729.39	2007.01
729.57	1898.47
729.75	1873.89
729.93	1898.47
730.11	1699.81
730.30	1753.06
730.48	1781.73
730.66	1875.94
730.84	1769.44
731.02	1714.15
731.20	1697.77
731.38	1687.53
731.56	1665.00
731.74	1603.56
731.93	1710.05
732.11	1769.44
732.29	1773.54
732.47	1708.01
732.65	1720.29
732.83	1863.65
733.01	1755.11
733.19	1712.10
733.37	1693.67
733.56	1841.12
733.74	1681.38
733.92	1830.88
734.10	1656.81
734.28	1726.44
734.46	1595.37
734.64	1681.38
734.82	1748.97
735.00	1621.99
735.18	1642.47
735.36	1732.58
735.54	1714.15
735.73	1773.54
735.91	1744.87
736.09	1742.82
736.27	1734.63
736.45	1705.96
736.63	1636.33
736.81	1755.11
736.99	1791.97
737.17	1738.73
737.35	1718.25
737.53	1828.84
737.71	1740.77
737.89	1703.91
738.07	1742.82
738.25	1681.38
738.43	1591.27
738.61	1691.62
738.80	1673.19
738.98	1683.43
739.16	1665.00
739.34	1775.59
739.52	1820.64
739.70	1689.57
739.88	1796.07
740.06	1781.73
740.24	1581.03
740.42	1773.54
740.60	1601.51
740.78	1665.00
740.96	1644.52
741.14	1679.33
741.32	1751.01
741.50	1660.90
741.68	1794.02
741.86	1734.63
742.04	1660.90
742.22	1624.04
742.40	1724.39
742.58	1677.29
742.76	1669.09
742.94	1789.92
743.12	1689.57
743.30	1669.09
743.48	1781.73
743.66	1679.33
743.84	1820.64
744.02	1697.77
744.20	1658.85
744.38	1617.90
744.56	1697.77
744.74	1800.16
744.92	1681.38
745.10	1773.54
745.28	1703.91
745.46	1820.64
745.64	1705.96
745.82	1732.58
746.00	1736.68
746.18	1701.86
746.36	1699.81
746.54	1783.78
746.72	1652.71
746.90	1697.77
747.08	1816.55
747.26	1703.91
747.44	1732.58
747.62	1769.44
747.80	1759.21
747.98	1783.78
748.15	1646.57
748.33	1847.27
748.51	1701.86
748.69	1730.53
748.87	1716.20
749.05	1644.52
749.23	1640.42
749.41	1783.78
749.59	1779.68
749.77	1834.98
749.95	1632.23
750.13	1644.52
750.31	1785.83
750.49	1689.57
750.67	1826.79
750.85	1775.59
751.03	1697.77
751.20	1834.98
751.38	1742.82
751.56	1685.48
751.74	1755.11
751.92	1701.86
752.10	1656.81
752.28	1800.16
752.46	1708.01
752.64	1769.44
752.82	1775.59
753.00	1820.64
753.18	1714.15
753.35	1699.81
753.53	1644.52
753.71	1714.15
753.89	1722.34
754.07	1761.25
754.25	1761.25
754.43	1656.81
754.61	1677.29
754.79	1738.73
754.97	1648.61
755.14	1824.74
755.32	1564.65
755.50	1679.33
755.68	1824.74
755.86	1693.67
756.04	1675.24
756.22	1589.22
756.40	1738.73
756.57	1896.42
756.75	1687.53
756.93	1767.40
757.11	1722.34
757.29	1742.82
757.47	1697.77
757.65	1589.22
757.82	1658.85
758.00	1691.62
758.18	1658.85
758.36	1646.57
758.54	1794.02
758.72	1636.33
758.90	1824.74
759.07	1765.35
759.25	1712.10
759.43	1671.14
759.61	1601.51
759.79	2205.66
759.97	1753.06
760.15	1693.67
760.32	1695.72
760.50	1679.33
760.68	1742.82
760.86	1703.91
761.04	1777.64
761.22	1765.35
761.39	1738.73
761.57	1730.53
761.75	1730.53
761.93	1812.45
762.11	1705.96
762.28	1710.05
762.46	1660.90
762.64	1669.09
762.82	1669.09
763.00	1654.76
763.18	1728.49
763.35	1669.09
763.53	1757.16
763.71	1734.63
763.89	1763.30
764.07	1675.24
764.24	1748.97
764.42	1738.73
764.60	1691.62
764.78	1736.68
764.96	1714.15
765.13	1771.49
765.31	1769.44
765.49	1736.68
765.67	1652.71
765.84	1703.91
766.02	1665.00
766.20	1595.37
766.38	1800.16
766.56	1720.29
766.73	1771.49
766.91	1613.80
767.09	1708.01
767.27	1675.24
767.44	1644.52
767.62	1691.62
767.80	1781.73
767.98	1648.61
768.15	1626.09
768.33	1767.40
768.51	1755.11
768.69	1722.34
768.87	1699.81
769.04	1681.38
769.22	1834.98
769.40	1781.73
769.58	1902.56
769.75	1689.57
769.93	1720.29
770.11	1705.96
770.28	1724.39
770.46	1683.43
770.64	1681.38
770.82	1755.11
770.99	1658.85
771.17	1755.11
771.35	1753.06
771.53	1675.24
771.70	1656.81
771.88	1800.16
772.06	1646.57
772.23	1701.86
772.41	1763.30
772.59	1726.44
772.77	1595.37
772.94	1660.90
773.12	1679.33
773.30	1667.05
773.47	1746.92
773.65	1679.33
773.83	1779.68
774.01	1759.21
774.18	1669.09
774.36	1669.09
774.54	1718.25
774.71	1710.05
774.89	1710.05
775.07	1705.96
775.24	1611.75
775.42	1646.57
775.60	1824.74
775.78	1683.43
775.95	1640.42
776.13	1630.18
776.31	1585.13
776.48	1777.64
776.66	1822.69
776.84	1744.87
777.01	1626.09
777.19	1716.20
777.37	1740.77
777.54	1757.16
777.72	1802.21
777.90	1691.62
778.07	1624.04
778.25	1880.04
778.43	1767.40
778.60	1644.52
778.78	1765.35
778.96	1808.36
779.13	1568.74
779.31	1796.07
779.49	1744.87
779.66	1710.05
779.84	1691.62
780.01	1691.62
780.19	1636.33
780.37	1816.55
780.54	1767.40
780.72	1650.66
780.90	1761.25
781.07	1662.95
781.25	1640.42
781.43	1759.21
781.60	1689.57
781.78	1791.97
781.95	1642.47
782.13	1748.97
782.31	1650.66
782.48	1554.41
782.66	1701.86
782.83	1806.31
783.01	1751.01
783.19	1726.44
783.36	1689.57
783.54	1681.38
783.72	1757.16
783.89	1695.72
784.07	1771.49
784.24	1718.25
784.42	1746.92
784.60	1693.67
784.77	1785.83
784.95	1632.23
785.12	1685.48
785.30	1693.67
785.47	1601.51
785.65	1632.23
785.83	1712.10
786.00	1693.67
786.18	1689.57
786.35	1646.57
786.53	1615.85
786.71	1753.06
786.88	1791.97
787.06	1695.72
787.23	1617.90
787.41	1689.57
787.58	1677.29
787.76	1703.91
787.94	1746.92
788.11	1763.30
788.29	1656.81
788.46	1722.34
788.64	1671.14
788.81	1632.23
788.99	1669.09
789.16	1677.29
789.34	1724.39
789.52	1648.61
789.69	1681.38
789.87	1572.84
790.04	1720.29
790.22	1753.06
790.39	1796.07
790.57	1650.66
790.74	1615.85
790.92	1718.25
791.09	1636.33
791.27	1763.30
791.44	1802.21
791.62	1722.34
791.79	1755.11
791.97	1722.34
792.15	1957.86
792.32	1714.15
792.50	1773.54
792.67	1855.46
792.85	1785.83
793.02	1679.33
793.20	1681.38
793.37	1720.29
793.55	1755.11
793.72	1624.04
793.90	1757.16
794.07	1628.14
794.25	1656.81
794.42	1834.98
794.60	1603.56
794.77	1656.81
794.95	1714.15
795.12	1771.49
795.30	1658.85
795.47	1634.28
795.65	1853.41
795.82	1687.53
796.00	1607.66
796.17	1695.72
796.34	1630.18
796.52	1667.05
796.69	1763.30
796.87	1726.44
797.04	1679.33
797.22	1667.05
797.39	1740.77
797.57	1791.97
797.74	1701.86
797.92	1728.49
798.09	1689.57
798.27	1738.73
798.44	1798.12
798.62	1687.53
798.79	1740.77
798.96	1751.01
799.14	1671.14
799.31	1867.75
799.49	1730.53
799.66	1710.05
799.84	1738.73
800.01	1669.09
800.19	1746.92
800.36	1636.33
800.53	1753.06
800.71	1656.81
800.88	1808.36
801.06	1599.46
801.23	1687.53
801.41	1726.44
801.58	1697.77
801.75	1669.09
801.93	1751.01
802.10	1775.59
802.28	1740.77
802.45	1705.96
802.63	1761.25
802.80	1779.68
802.97	1757.16
803.15	1677.29
803.32	1667.05
803.50	1673.19
803.67	1695.72
803.84	1638.38
804.02	1712.10
804.19	1665.00
804.37	1617.90
804.54	1660.90
804.71	1660.90
804.89	1732.58
805.06	1689.57
805.24	1679.33
805.41	1673.19
805.58	1681.38
805.76	1851.36
805.93	1695.72
806.10	1734.63
806.28	1748.97
806.45	1755.11
806.63	1681.38
806.80	1744.87
806.97	1810.40
807.15	1744.87
807.32	1726.44
807.49	1728.49
807.67	1724.39
807.84	1714.15
808.01	1607.66
808.19	1890.28
808.36	1800.16
808.54	1640.42
808.71	1626.09
808.88	1746.92
809.06	1716.20
809.23	1783.78
809.40	1652.71
809.58	1746.92
809.75	1740.77
809.92	1648.61
810.10	1808.36
810.27	1652.71
810.44	1734.63
810.62	1734.63
810.79	1740.77
810.96	1624.04
811.14	1705.96
811.31	1755.11
811.48	1738.73
811.66	1769.44
811.83	1824.74
812.00	1783.78
812.18	1718.25
812.35	1853.41
812.52	1726.44
812.69	1681.38
812.87	1673.19
813.04	1662.95
813.21	1677.29
813.39	1746.92
813.56	1658.85
813.73	1783.78
813.91	1611.75
814.08	1693.67
814.25	1722.34
814.42	1609.70
814.60	1705.96
814.77	1767.40
814.94	1759.21
815.12	1705.96
815.29	1859.56
815.46	1695.72
815.63	1763.30
815.81	1667.05
815.98	1650.66
816.15	1726.44
816.33	1769.44
816.50	1689.57
816.67	1724.39
816.84	1712.10
817.02	1642.47
817.19	1724.39
817.36	1705.96
817.53	1697.77
817.71	1662.95
817.88	1789.92
818.05	1689.57
818.22	1726.44
818.40	1837.03
818.57	1720.29
818.74	1720.29
818.91	1675.24
819.09	1681.38
819.26	1720.29
819.43	1615.85
819.60	1673.19
819.78	1736.68
819.95	1751.01
820.12	1673.19
820.29	1834.98
820.47	1785.83
820.64	1669.09
820.81	1683.43
820.98	1628.14
821.15	1728.49
821.33	1761.25
821.50	1595.37
821.67	1765.35
821.84	1716.20
822.02	1751.01
822.19	1775.59
822.36	1716.20
822.53	1679.33
822.70	1681.38
822.88	1671.14
823.05	1763.30
823.22	1665.00
823.39	1738.73
823.56	1720.29
823.74	1849.32
823.91	1656.81
824.08	1630.18
824.25	1685.48
824.42	1798.12
824.60	1591.27
824.77	1691.62
824.94	1748.97
825.11	1781.73
825.28	1679.33
825.45	1808.36
825.63	1724.39
825.80	1708.01
825.97	1708.01
826.14	1683.43
826.31	1591.27
826.48	1755.11
826.66	1703.91
826.83	1742.82
827.00	1722.34
827.17	1718.25
827.34	1703.91
827.51	1695.72
827.69	1689.57
827.86	1658.85
828.03	1789.92
828.20	1658.85
828.37	1658.85
828.54	1765.35
828.71	1681.38
828.89	1740.77
829.06	1716.20
829.23	1751.01
829.40	1648.61
829.57	1640.42
829.74	1761.25
829.91	1662.95
830.09	1595.37
830.26	1804.26
830.43	1787.88
830.60	1687.53
830.77	1767.40
830.94	1787.88
831.11	1728.49
831.28	1695.72
831.46	1800.16
831.63	1595.37
831.80	1800.16
831.97	1613.80
832.14	1730.53
832.31	1783.78
832.48	1671.14
832.65	1751.01
832.82	1736.68
832.99	1728.49
833.17	1748.97
833.34	1816.55
833.51	1734.63
833.68	1675.24
833.85	1781.73
834.02	1652.71
834.19	1695.72
834.36	1648.61
834.53	1748.97
834.70	1716.20
834.87	1769.44
835.04	1724.39
835.22	1617.90
835.39	1714.15
835.56	1693.67
835.73	1712.10
835.90	1751.01
836.07	1691.62
836.24	1724.39
836.41	1628.14
836.58	1681.38
836.75	1726.44
836.92	1736.68
837.09	1638.38
837.26	1703.91
837.43	1722.34
837.60	1697.77
837.77	1658.85
837.94	1755.11
838.12	1800.16
838.29	1683.43
838.46	1652.71
838.63	1632.23
838.80	1732.58
838.97	1687.53
839.14	1665.00
839.31	1769.44
839.48	1685.48
839.65	1650.66
839.82	1699.81
839.99	1677.29
840.16	1697.77
840.33	1648.61
840.50	1787.88
840.67	1697.77
840.84	1552.36
841.01	1656.81
841.18	1712.10
841.35	1708.01
841.52	1812.45
841.69	1824.74
841.86	1705.96
842.03	1769.44
842.20	1800.16
842.37	1765.35
842.54	1662.95
842.71	1656.81
842.88	1652.71
843.05	1771.49
843.22	1671.14
843.39	1759.21
843.56	1673.19
843.73	1669.09
843.90	1648.61
844.07	1648.61
844.24	1794.02
844.41	1763.30
844.58	1650.66
844.75	1720.29
844.92	1751.01
845.09	1726.44
845.26	1660.90
845.43	1845.22
845.60	1681.38
845.77	1787.88
845.94	1662.95
846.10	1759.21
846.27	1693.67
846.44	1646.57
846.61	1705.96
846.78	1738.73
846.95	1802.21
847.12	1712.10
847.29	1712.10
847.46	1648.61
847.63	1759.21
847.80	1648.61
847.97	1695.72
848.14	1802.21
848.31	1697.77
848.48	1675.24
848.65	1771.49
848.82	1617.90
848.98	1861.60
849.15	1820.64
849.32	1796.07
849.49	1728.49
849.66	1708.01
849.83	1710.05
850.00	1671.14
850.17	1777.64
850.34	1714.15
850.51	1644.52
850.68	1665.00
850.85	1810.40
851.01	1755.11
851.18	1744.87
851.35	1763.30
851.52	1730.53
851.69	1783.78
851.86	1527.78
852.03	1746.92
852.20	1771.49
852.37	1638.38
852.53	1697.77
852.70	1595.37
852.87	1716.20
853.04	1761.25
853.21	1728.49
853.38	1736.68
853.55	1773.54
853.72	1757.16
853.89	1621.99
854.05	1689.57
854.22	1746.92
854.39	1681.38
854.56	1658.85
854.73	1779.68
854.90	1687.53
855.07	1669.09
855.23	1738.73
855.40	1591.27
855.57	1621.99
855.74	1624.04
855.91	1861.60
856.08	1683.43
856.25	1652.71
856.41	1734.63
856.58	1624.04
856.75	1757.16
856.92	1679.33
857.09	1691.62
857.26	1593.32
857.42	1691.62
857.59	1718.25
857.76	1695.72
857.93	1683.43
858.10	1746.92
858.27	1634.28
858.43	1681.38
858.60	1648.61
858.77	1626.09
858.94	1654.76
859.11	1810.40
859.27	1689.57
859.44	1697.77
859.61	1882.08
859.78	1787.88
859.95	1667.05
860.12	1732.58
860.28	1812.45
860.45	1765.35
860.62	1771.49
860.79	1794.02
860.95	1736.68
861.12	1691.62
861.29	1628.14
861.46	1665.00
861.63	1665.00
861.79	1757.16
861.96	1673.19
862.13	1632.23
862.30	1708.01
862.47	1693.67
862.63	1671.14
862.80	1783.78
862.97	1736.68
863.14	1669.09
863.30	1757.16
863.47	1691.62
863.64	1837.03
863.81	1781.73
863.97	1683.43
864.14	1687.53
864.31	1695.72
864.48	1705.96
864.65	1691.62
864.81	1767.40
864.98	1730.53
865.15	1759.21
865.32	1787.88
865.48	1681.38
865.65	1789.92
865.82	1722.34
865.98	1716.20
866.15	1714.15
866.32	1773.54
866.49	1710.05
866.65	1802.21
866.82	1660.90
866.99	1748.97
867.16	1726.44
867.32	1705.96
867.49	1632.23
867.66	1646.57
867.83	1652.71
867.99	1640.42
868.16	1708.01
868.33	1763.30
868.49	1658.85
868.66	1746.92
868.83	1730.53
868.99	1632.23
869.16	1673.19
869.33	1794.02
869.50	1796.07
869.66	1742.82
869.83	1730.53
870.00	1691.62
870.16	1705.96
870.33	1767.40
870.50	1753.06
870.66	1697.77
870.83	1742.82
871.00	1699.81
871.17	1759.21
871.33	1816.55
871.50	1732.58
871.67	1695.72
871.83	1703.91
872.00	1814.50
872.17	1712.10
872.33	1812.45
872.50	1816.55
872.67	1660.90
872.83	1617.90
873.00	1771.49
873.17	1685.48
873.33	1726.44
873.50	1705.96
873.67	1683.43
873.83	1611.75
874.00	1660.90
874.16	1722.34
874.33	1728.49
874.50	1687.53
874.66	1718.25
874.83	1712.10
875.00	1734.63
875.16	1837.03
875.33	1816.55
875.50	1621.99
875.66	1689.57
875.83	1705.96
875.99	1730.53
876.16	1636.33
876.33	1630.18
876.49	1710.05
876.66	1804.26
876.83	1660.90
876.99	1660.90
877.16	1658.85
877.32	1652.71
877.49	1681.38
877.66	1732.58
877.82	1748.97
877.99	1724.39
878.15	1691.62
878.32	1728.49
878.49	1746.92
878.65	1732.58
878.82	1701.86
878.98	1691.62
879.15	1789.92
879.32	1791.97
879.48	1708.01
879.65	1626.09
879.81	1609.70
879.98	1636.33
880.15	1630.18
880.31	1779.68
880.48	1615.85
880.64	1822.69
880.81	1681.38
880.97	1845.22
881.14	1755.11
881.31	1673.19
881.47	1765.35
881.64	1681.38
881.80	1632.23
881.97	1759.21
882.13	1746.92
882.30	1646.57
882.47	1679.33
882.63	1677.29
882.80	1681.38
882.96	1634.28
883.13	1708.01
883.29	1679.33
883.46	1726.44
883.62	1832.93
883.79	1734.63
883.95	1736.68
884.12	1710.05
884.29	1832.93
884.45	1746.92
884.62	1830.88
884.78	1632.23
884.95	1755.11
885.11	1642.47
885.28	1800.16
885.44	1642.47
885.61	1734.63
885.77	1767.40
885.94	1787.88
886.10	1703.91
886.27	1779.68
886.43	1861.60
886.60	1740.77
886.76	1718.25
886.93	1667.05
887.09	1781.73
887.26	1689.57
887.42	1609.70
887.59	1767.40
887.75	1853.41
887.92	1718.25
888.08	1724.39
888.25	1841.12
888.41	1720.29
888.58	1755.11
888.74	1628.14
888.91	1638.38
>>>>>End Processed Spectral Data<<<<<
