SpectraSuite Data File
++++++++++++++++++++++++++++++++++++
Date: Mon Jun 06 12:33:57 CEST 2016
User: root
Dark Spectrum Present: No
Reference Spectrum Present: No
Number of Sampled Component Spectra: 1
Spectrometers: USB4C02835
Integration Time (usec): 100000 (USB4C02835)
Spectra Averaged: 1 (USB4C02835)
Boxcar Smoothing: 0 (USB4C02835)
Correct for Electrical Dark: No (USB4C02835)
Strobe/Lamp Enabled: No (USB4C02835)
Correct for Detector Non-linearity: No (USB4C02835)
Correct for Stray Light: No (USB4C02835)
Number of Pixels in Processed Spectrum: 3648
>>>>>Begin Processed Spectral Data<<<<<
177.47	1462.25
177.69	1462.25
177.91	1462.25
178.13	1478.63
178.36	1386.47
178.58	1679.33
178.80	1697.77
179.02	1587.18
179.24	1632.23
179.46	1650.66
179.68	1652.71
179.90	1671.14
180.13	1712.10
180.35	1632.23
180.57	1632.23
180.79	1703.91
181.01	1759.21
181.23	1818.60
181.45	1695.72
181.67	1726.44
181.90	1738.73
182.12	1675.24
182.34	1601.51
182.56	1783.78
182.78	1740.77
183.00	1722.34
183.22	1681.38
183.44	1570.79
183.66	1763.30
183.89	1779.68
184.11	1728.49
184.33	1669.09
184.55	1718.25
184.77	1710.05
184.99	1726.44
185.21	1683.43
185.43	1839.08
185.65	1757.16
185.87	1705.96
186.10	1839.08
186.32	1810.40
186.54	1705.96
186.76	1753.06
186.98	1701.86
187.20	1697.77
187.42	1701.86
187.64	1695.72
187.86	1695.72
188.08	1732.58
188.30	1656.81
188.52	1701.86
188.75	1832.93
188.97	1779.68
189.19	1679.33
189.41	1628.14
189.63	1736.68
189.85	1714.15
190.07	1615.85
190.29	1677.29
190.51	1759.21
190.73	1585.13
190.95	1738.73
191.17	1701.86
191.39	1605.61
191.61	1677.29
191.84	1646.57
192.06	1787.88
192.28	1660.90
192.50	1871.84
192.72	1742.82
192.94	1687.53
193.16	1728.49
193.38	1742.82
193.60	1621.99
193.82	1695.72
194.04	1714.15
194.26	1681.38
194.48	1710.05
194.70	1675.24
194.92	1759.21
195.14	1794.02
195.36	1691.62
195.58	1648.61
195.80	1634.28
196.02	1669.09
196.24	1632.23
196.46	1718.25
196.69	1607.66
196.91	1841.12
197.13	1710.05
197.35	1648.61
197.57	1755.11
197.79	1748.97
198.01	1734.63
198.23	1705.96
198.45	1738.73
198.67	1671.14
198.89	1695.72
199.11	1742.82
199.33	1636.33
199.55	1615.85
199.77	1634.28
199.99	1771.49
200.21	1718.25
200.43	1759.21
200.65	1654.76
200.87	1599.46
201.09	1722.34
201.31	1640.42
201.53	1701.86
201.75	1781.73
201.97	1697.77
202.19	1755.11
202.41	1667.05
202.63	1804.26
202.85	1763.30
203.07	1650.66
203.29	1648.61
203.51	1628.14
203.73	1695.72
203.95	1886.18
204.17	1785.83
204.39	1693.67
204.61	1658.85
204.83	1667.05
205.05	1708.01
205.27	1824.74
205.49	1794.02
205.71	1722.34
205.93	1648.61
206.15	1662.95
206.37	1644.52
206.59	1669.09
206.81	1636.33
207.03	1677.29
207.25	1624.04
207.47	1675.24
207.69	1757.16
207.91	1830.88
208.13	1808.36
208.34	1699.81
208.56	1624.04
208.78	1761.25
209.00	1708.01
209.22	1665.00
209.44	1771.49
209.66	1699.81
209.88	1640.42
210.10	1642.47
210.32	1624.04
210.54	1824.74
210.76	1656.81
210.98	1755.11
211.20	1601.51
211.42	1640.42
211.64	1779.68
211.86	1746.92
212.08	1724.39
212.30	1689.57
212.52	1648.61
212.74	1677.29
212.96	1714.15
213.17	1677.29
213.39	1751.01
213.61	1736.68
213.83	1660.90
214.05	1665.00
214.27	1736.68
214.49	1740.77
214.71	1679.33
214.93	1632.23
215.15	1714.15
215.37	1773.54
215.59	1617.90
215.81	1775.59
216.03	1724.39
216.24	1763.30
216.46	1755.11
216.68	1716.20
216.90	1748.97
217.12	1751.01
217.34	1677.29
217.56	1695.72
217.78	1777.64
218.00	1759.21
218.22	1742.82
218.44	1685.48
218.66	1783.78
218.87	1734.63
219.09	1677.29
219.31	1677.29
219.53	1701.86
219.75	1675.24
219.97	1703.91
220.19	1697.77
220.41	1718.25
220.63	1746.92
220.85	1837.03
221.06	1650.66
221.28	1720.29
221.50	1732.58
221.72	1671.14
221.94	1710.05
222.16	1708.01
222.38	1714.15
222.60	1710.05
222.82	1632.23
223.03	1695.72
223.25	1652.71
223.47	1738.73
223.69	1802.21
223.91	1671.14
224.13	1665.00
224.35	1640.42
224.57	1740.77
224.78	1730.53
225.00	1646.57
225.22	1626.09
225.44	1716.20
225.66	1730.53
225.88	1644.52
226.10	1660.90
226.32	1716.20
226.53	1794.02
226.75	1705.96
226.97	1634.28
227.19	1697.77
227.41	1595.37
227.63	1665.00
227.85	1624.04
228.06	1710.05
228.28	1656.81
228.50	1744.87
228.72	1730.53
228.94	1693.67
229.16	1595.37
229.37	1656.81
229.59	1601.51
229.81	1767.40
230.03	1656.81
230.25	1673.19
230.47	1683.43
230.69	1658.85
230.90	1712.10
231.12	1697.77
231.34	1681.38
231.56	1746.92
231.78	1599.46
232.00	1701.86
232.21	1687.53
232.43	1697.77
232.65	1595.37
232.87	1662.95
233.09	1665.00
233.30	1677.29
233.52	1728.49
233.74	1742.82
233.96	1710.05
234.18	1714.15
234.40	1673.19
234.61	1765.35
234.83	1562.60
235.05	1667.05
235.27	1898.47
235.49	1734.63
235.70	1679.33
235.92	1781.73
236.14	1710.05
236.36	1863.65
236.58	1636.33
236.79	1773.54
237.01	1732.58
237.23	1675.24
237.45	1808.36
237.67	1673.19
237.88	1712.10
238.10	1773.54
238.32	1607.66
238.54	1660.90
238.76	1673.19
238.97	1673.19
239.19	1728.49
239.41	1710.05
239.63	1765.35
239.85	1769.44
240.06	1726.44
240.28	1619.94
240.50	1742.82
240.72	1718.25
240.93	1701.86
241.15	1853.41
241.37	1677.29
241.59	1804.26
241.81	1660.90
242.02	1716.20
242.24	1703.91
242.46	1730.53
242.68	1648.61
242.89	1767.40
243.11	1730.53
243.33	1632.23
243.55	1708.01
243.76	1669.09
243.98	1615.85
244.20	1611.75
244.42	1650.66
244.64	1697.77
244.85	1656.81
245.07	1640.42
245.29	1669.09
245.51	1738.73
245.72	1761.25
245.94	1769.44
246.16	1673.19
246.38	1796.07
246.59	1673.19
246.81	1689.57
247.03	1683.43
247.24	1574.89
247.46	1677.29
247.68	1781.73
247.90	1685.48
248.11	1634.28
248.33	1728.49
248.55	1665.00
248.77	1761.25
248.98	1730.53
249.20	1814.50
249.42	1683.43
249.64	1701.86
249.85	1621.99
250.07	1660.90
250.29	1744.87
250.50	1724.39
250.72	1648.61
250.94	1689.57
251.16	1800.16
251.37	1767.40
251.59	1746.92
251.81	1718.25
252.02	1845.22
252.24	1673.19
252.46	1697.77
252.68	1681.38
252.89	1642.47
253.11	1595.37
253.33	1751.01
253.54	1861.60
253.76	1634.28
253.98	1689.57
254.20	1640.42
254.41	1636.33
254.63	1660.90
254.85	1640.42
255.06	1701.86
255.28	1644.52
255.50	1634.28
255.71	1665.00
255.93	1632.23
256.15	1744.87
256.36	1695.72
256.58	1673.19
256.80	1716.20
257.02	1716.20
257.23	1660.90
257.45	1683.43
257.67	1816.55
257.88	1599.46
258.10	1665.00
258.32	1675.24
258.53	1710.05
258.75	1791.97
258.97	1685.48
259.18	1699.81
259.40	1677.29
259.62	1777.64
259.83	1730.53
260.05	1769.44
260.27	1943.52
260.48	1658.85
260.70	1685.48
260.92	1722.34
261.13	1685.48
261.35	1665.00
261.57	1771.49
261.78	1585.13
262.00	1730.53
262.22	1693.67
262.43	1738.73
262.65	1619.94
262.86	1759.21
263.08	1855.46
263.30	1667.05
263.51	1662.95
263.73	1689.57
263.95	1779.68
264.16	1693.67
264.38	1624.04
264.60	1738.73
264.81	1626.09
265.03	1708.01
265.25	1679.33
265.46	1773.54
265.68	1746.92
265.89	1685.48
266.11	1587.18
266.33	1761.25
266.54	1710.05
266.76	1742.82
266.98	1816.55
267.19	1757.16
267.41	1781.73
267.62	1669.09
267.84	1652.71
268.06	1677.29
268.27	1751.01
268.49	1732.58
268.70	1734.63
268.92	1769.44
269.14	1697.77
269.35	1648.61
269.57	1677.29
269.79	1763.30
270.00	1685.48
270.22	1824.74
270.43	1708.01
270.65	1570.79
270.87	1673.19
271.08	1703.91
271.30	1720.29
271.51	1708.01
271.73	1748.97
271.95	1771.49
272.16	1691.62
272.38	1691.62
272.59	1693.67
272.81	1648.61
273.02	1730.53
273.24	1728.49
273.46	1828.84
273.67	1644.52
273.89	1572.84
274.10	1591.27
274.32	1755.11
274.54	1710.05
274.75	1781.73
274.97	1701.86
275.18	1742.82
275.40	1763.30
275.61	1705.96
275.83	1763.30
276.05	1650.66
276.26	1728.49
276.48	1773.54
276.69	1642.47
276.91	1634.28
277.12	1748.97
277.34	1705.96
277.55	1736.68
277.77	1683.43
277.99	1615.85
278.20	1669.09
278.42	1689.57
278.63	1626.09
278.85	1656.81
279.06	1574.89
279.28	1832.93
279.49	1837.03
279.71	1675.24
279.93	1701.86
280.14	1671.14
280.36	1640.42
280.57	1710.05
280.79	1759.21
281.00	1720.29
281.22	1658.85
281.43	1794.02
281.65	1650.66
281.86	1648.61
282.08	1767.40
282.29	1804.26
282.51	1615.85
282.73	1599.46
282.94	1656.81
283.16	1757.16
283.37	1824.74
283.59	1626.09
283.80	1691.62
284.02	1710.05
284.23	1732.58
284.45	1665.00
284.66	1621.99
284.88	1583.08
285.09	1751.01
285.31	1568.74
285.52	1734.63
285.74	1632.23
285.95	1726.44
286.17	1665.00
286.38	1728.49
286.60	1685.48
286.81	1720.29
287.03	1562.60
287.24	1701.86
287.46	1646.57
287.67	1724.39
287.89	1777.64
288.10	1634.28
288.32	1671.14
288.53	1800.16
288.75	1660.90
288.96	1753.06
289.18	1734.63
289.39	1734.63
289.61	1728.49
289.82	1759.21
290.04	1755.11
290.25	1648.61
290.47	1640.42
290.68	1730.53
290.90	1734.63
291.11	1679.33
291.33	1781.73
291.54	1669.09
291.76	1681.38
291.97	1665.00
292.18	1650.66
292.40	1665.00
292.61	1718.25
292.83	1871.84
293.04	1716.20
293.26	1624.04
293.47	1687.53
293.69	1632.23
293.90	1722.34
294.12	1730.53
294.33	1603.56
294.55	1699.81
294.76	1697.77
294.97	1791.97
295.19	1789.92
295.40	1683.43
295.62	1763.30
295.83	1718.25
296.05	1730.53
296.26	1746.92
296.48	1677.29
296.69	1660.90
296.90	1755.11
297.12	1691.62
297.33	1773.54
297.55	1693.67
297.76	1697.77
297.98	1701.86
298.19	1673.19
298.41	1705.96
298.62	1720.29
298.83	1658.85
299.05	1681.38
299.26	1681.38
299.48	1695.72
299.69	1761.25
299.90	1732.58
300.12	1597.42
300.33	1714.15
300.55	1679.33
300.76	1632.23
300.98	1552.36
301.19	1662.95
301.40	1675.24
301.62	1693.67
301.83	1705.96
302.05	1660.90
302.26	1705.96
302.47	1716.20
302.69	1621.99
302.90	1773.54
303.12	1503.21
303.33	1744.87
303.54	1773.54
303.76	1695.72
303.97	1710.05
304.19	1855.46
304.40	1591.27
304.61	1726.44
304.83	1751.01
305.04	1726.44
305.26	1724.39
305.47	1654.76
305.68	1695.72
305.90	1619.94
306.11	1761.25
306.33	1671.14
306.54	1656.81
306.75	1554.41
306.97	1695.72
307.18	1636.33
307.39	1624.04
307.61	1820.64
307.82	1650.66
308.04	1665.00
308.25	1691.62
308.46	1710.05
308.68	1687.53
308.89	1669.09
309.10	1773.54
309.32	1720.29
309.53	1697.77
309.74	1748.97
309.96	1734.63
310.17	1767.40
310.39	1701.86
310.60	1773.54
310.81	1638.38
311.03	1621.99
311.24	1734.63
311.45	1648.61
311.67	1826.79
311.88	1734.63
312.09	1687.53
312.31	1691.62
312.52	1650.66
312.73	1718.25
312.95	1619.94
313.16	1681.38
313.37	1748.97
313.59	1724.39
313.80	1730.53
314.01	1763.30
314.23	1722.34
314.44	1644.52
314.65	1621.99
314.87	1640.42
315.08	1705.96
315.29	1730.53
315.51	1587.18
315.72	1656.81
315.93	1757.16
316.15	1800.16
316.36	1691.62
316.57	1679.33
316.79	1697.77
317.00	1621.99
317.21	1773.54
317.43	1677.29
317.64	1691.62
317.85	1650.66
318.07	1697.77
318.28	1806.31
318.49	1769.44
318.70	1814.50
318.92	1869.80
319.13	1800.16
319.34	1849.32
319.56	1857.51
319.77	1779.68
319.98	1820.64
320.20	1759.21
320.41	1789.92
320.62	1742.82
320.83	1654.76
321.05	1875.94
321.26	1748.97
321.47	1640.42
321.69	1742.82
321.90	1648.61
322.11	1689.57
322.32	1691.62
322.54	1738.73
322.75	1703.91
322.96	1853.41
323.18	1544.17
323.39	1679.33
323.60	1726.44
323.81	1701.86
324.03	1652.71
324.24	1683.43
324.45	1705.96
324.66	1683.43
324.88	1693.67
325.09	1814.50
325.30	1701.86
325.52	1648.61
325.73	1683.43
325.94	1648.61
326.15	1710.05
326.37	1652.71
326.58	1767.40
326.79	1708.01
327.00	1652.71
327.22	1720.29
327.43	1650.66
327.64	1564.65
327.85	1705.96
328.07	1730.53
328.28	1800.16
328.49	1705.96
328.70	1730.53
328.92	1673.19
329.13	1652.71
329.34	1742.82
329.55	1787.88
329.76	1779.68
329.98	1683.43
330.19	1798.12
330.40	1783.78
330.61	1632.23
330.83	1697.77
331.04	1585.13
331.25	1726.44
331.46	1681.38
331.68	1644.52
331.89	1746.92
332.10	1712.10
332.31	1673.19
332.52	1726.44
332.74	1759.21
332.95	1632.23
333.16	1662.95
333.37	1781.73
333.58	1583.08
333.80	1726.44
334.01	1648.61
334.22	1640.42
334.43	1699.81
334.64	1679.33
334.86	1644.52
335.07	1703.91
335.28	1730.53
335.49	1677.29
335.70	1763.30
335.92	1712.10
336.13	1869.80
336.34	1765.35
336.55	1722.34
336.76	1718.25
336.98	1671.14
337.19	1724.39
337.40	1730.53
337.61	1867.75
337.82	1652.71
338.04	1779.68
338.25	1626.09
338.46	1589.22
338.67	1662.95
338.88	1628.14
339.09	1683.43
339.31	1662.95
339.52	1638.38
339.73	1619.94
339.94	1705.96
340.15	1742.82
340.36	1740.77
340.58	1720.29
340.79	1601.51
341.00	1722.34
341.21	1566.70
341.42	1773.54
341.63	1665.00
341.85	1712.10
342.06	1648.61
342.27	1628.14
342.48	1761.25
342.69	1646.57
342.90	1691.62
343.12	1722.34
343.33	1644.52
343.54	1802.21
343.75	1806.31
343.96	1660.90
344.17	1685.48
344.38	1665.00
344.60	1617.90
344.81	1626.09
345.02	1732.58
345.23	1787.88
345.44	1804.26
345.65	1736.68
345.86	1738.73
346.07	1687.53
346.29	1732.58
346.50	1763.30
346.71	1665.00
346.92	1673.19
347.13	1751.01
347.34	1728.49
347.55	1667.05
347.76	1708.01
347.98	1624.04
348.19	1689.57
348.40	1732.58
348.61	1693.67
348.82	1820.64
349.03	1701.86
349.24	1609.70
349.45	1847.27
349.66	1601.51
349.88	1705.96
350.09	1656.81
350.30	1746.92
350.51	1789.92
350.72	1658.85
350.93	1699.81
351.14	1703.91
351.35	1787.88
351.56	1740.77
351.77	1640.42
351.99	1701.86
352.20	1771.49
352.41	1720.29
352.62	1632.23
352.83	1667.05
353.04	1705.96
353.25	1658.85
353.46	1730.53
353.67	1710.05
353.88	1609.70
354.09	1662.95
354.30	1687.53
354.52	1718.25
354.73	1681.38
354.94	1642.47
355.15	1734.63
355.36	1738.73
355.57	1636.33
355.78	1751.01
355.99	1601.51
356.20	1646.57
356.41	1677.29
356.62	1728.49
356.83	1679.33
357.04	1755.11
357.25	1624.04
357.46	1751.01
357.68	1617.90
357.89	1609.70
358.10	1675.24
358.31	1748.97
358.52	1652.71
358.73	1658.85
358.94	1636.33
359.15	1605.61
359.36	1808.36
359.57	1763.30
359.78	1675.24
359.99	1656.81
360.20	1607.66
360.41	1671.14
360.62	1710.05
360.83	1683.43
361.04	1732.58
361.25	1703.91
361.46	1816.55
361.67	1708.01
361.88	1753.06
362.09	1763.30
362.30	1705.96
362.51	1640.42
362.72	1685.48
362.93	1818.60
363.14	1726.44
363.35	1794.02
363.56	1619.94
363.78	1744.87
363.99	1785.83
364.20	1644.52
364.41	1771.49
364.62	1777.64
364.83	1744.87
365.04	1652.71
365.25	1683.43
365.46	1808.36
365.67	1630.18
365.88	1628.14
366.09	1656.81
366.30	1720.29
366.51	1681.38
366.72	1626.09
366.93	1685.48
367.14	1726.44
367.35	1777.64
367.56	1640.42
367.77	1816.55
367.98	1699.81
368.18	1722.34
368.39	1695.72
368.60	1589.22
368.81	1697.77
369.02	1740.77
369.23	1607.66
369.44	1585.13
369.65	1683.43
369.86	1726.44
370.07	1769.44
370.28	1644.52
370.49	1765.35
370.70	1740.77
370.91	1595.37
371.12	1599.46
371.33	1816.55
371.54	1665.00
371.75	1783.78
371.96	1658.85
372.17	1738.73
372.38	1650.66
372.59	1730.53
372.80	1773.54
373.01	1685.48
373.22	1689.57
373.43	1720.29
373.64	1599.46
373.85	1796.07
374.06	1822.69
374.26	1744.87
374.47	1748.97
374.68	1734.63
374.89	1646.57
375.10	1679.33
375.31	1820.64
375.52	1695.72
375.73	1712.10
375.94	1636.33
376.15	1779.68
376.36	1689.57
376.57	1675.24
376.78	1650.66
376.99	1699.81
377.20	1669.09
377.40	1632.23
377.61	1779.68
377.82	1650.66
378.03	1699.81
378.24	1699.81
378.45	1703.91
378.66	1722.34
378.87	1603.56
379.08	1591.27
379.29	1656.81
379.50	1705.96
379.71	1642.47
379.91	1730.53
380.12	1683.43
380.33	1658.85
380.54	1671.14
380.75	1722.34
380.96	1681.38
381.17	1787.88
381.38	1673.19
381.59	1740.77
381.80	1748.97
382.00	1894.37
382.21	1808.36
382.42	1857.51
382.63	1923.04
382.84	1751.01
383.05	1740.77
383.26	1789.92
383.47	1705.96
383.68	1748.97
383.88	1732.58
384.09	1677.29
384.30	1849.32
384.51	1773.54
384.72	1687.53
384.93	1644.52
385.14	1710.05
385.35	1767.40
385.55	1675.24
385.76	1746.92
385.97	1679.33
386.18	1624.04
386.39	1673.19
386.60	1677.29
386.81	1640.42
387.02	1677.29
387.22	1658.85
387.43	1736.68
387.64	1791.97
387.85	1814.50
388.06	2138.08
388.27	4372.41
388.48	6854.55
388.68	8275.84
388.89	9621.36
389.10	9881.45
389.31	8703.87
389.52	7612.30
389.73	6723.48
389.93	6465.44
390.14	5861.29
390.35	5187.50
390.56	4534.20
390.77	3739.59
390.98	3041.23
391.18	2482.14
391.39	2115.55
391.60	1808.36
391.81	1822.69
392.02	1699.81
392.23	1839.08
392.43	1716.20
392.64	1777.64
392.85	1712.10
393.06	1843.17
393.27	1765.35
393.47	1697.77
393.68	1742.82
393.89	1677.29
394.10	1794.02
394.31	1724.39
394.52	1654.76
394.72	1644.52
394.93	1785.83
395.14	1626.09
395.35	1759.21
395.56	1677.29
395.76	1708.01
395.97	1798.12
396.18	1861.60
396.39	1845.22
396.60	2062.30
396.80	1892.32
397.01	1875.94
397.22	1820.64
397.43	1845.22
397.64	1673.19
397.84	1849.32
398.05	1882.08
398.26	1728.49
398.47	1742.82
398.67	1722.34
398.88	1794.02
399.09	1695.72
399.30	1654.76
399.51	1691.62
399.71	1587.18
399.92	1671.14
400.13	1773.54
400.34	1785.83
400.54	1677.29
400.75	1759.21
400.96	1798.12
401.17	1851.36
401.37	1759.21
401.58	1650.66
401.79	1744.87
402.00	1888.23
402.21	1939.43
402.41	1947.62
402.62	1947.62
402.83	1984.48
403.04	2058.21
403.24	2045.92
403.45	1798.12
403.66	1910.75
403.87	1906.66
404.07	1933.28
404.28	1900.52
404.49	1845.22
404.70	1677.29
404.90	1818.60
405.11	1722.34
405.32	1726.44
405.52	1640.42
405.73	1632.23
405.94	1640.42
406.15	1679.33
406.35	1728.49
406.56	1662.95
406.77	1730.53
406.98	1720.29
407.18	1640.42
407.39	1791.97
407.60	1673.19
407.80	1683.43
408.01	1650.66
408.22	1740.77
408.43	1687.53
408.63	1769.44
408.84	1777.64
409.05	1814.50
409.25	1656.81
409.46	1662.95
409.67	1705.96
409.88	1681.38
410.08	1624.04
410.29	1650.66
410.50	1742.82
410.70	1783.78
410.91	1644.52
411.12	1677.29
411.32	1656.81
411.53	1667.05
411.74	1755.11
411.95	1763.30
412.15	1742.82
412.36	1804.26
412.57	1697.77
412.77	1808.36
412.98	1662.95
413.19	1673.19
413.39	1753.06
413.60	1660.90
413.81	1847.27
414.01	1624.04
414.22	1710.05
414.43	1697.77
414.63	1724.39
414.84	1828.84
415.05	1667.05
415.25	1665.00
415.46	1640.42
415.67	1720.29
415.87	1755.11
416.08	1701.86
416.29	1675.24
416.49	1675.24
416.70	1677.29
416.91	1699.81
417.11	1658.85
417.32	1826.79
417.53	1779.68
417.73	1624.04
417.94	1712.10
418.15	1830.88
418.35	1726.44
418.56	1697.77
418.77	1761.25
418.97	1669.09
419.18	1671.14
419.38	1587.18
419.59	1708.01
419.80	1783.78
420.00	1624.04
420.21	1662.95
420.42	1751.01
420.62	1617.90
420.83	1699.81
421.04	1617.90
421.24	1779.68
421.45	1693.67
421.65	1771.49
421.86	1675.24
422.07	1712.10
422.27	1730.53
422.48	1728.49
422.69	1673.19
422.89	1689.57
423.10	1712.10
423.30	1648.61
423.51	1693.67
423.72	1832.93
423.92	1724.39
424.13	1660.90
424.33	1677.29
424.54	1769.44
424.75	1714.15
424.95	1769.44
425.16	1685.48
425.36	1701.86
425.57	1714.15
425.78	1740.77
425.98	1718.25
426.19	1628.14
426.39	1595.37
426.60	1693.67
426.81	1812.45
427.01	1730.53
427.22	1656.81
427.42	1562.60
427.63	1636.33
427.83	1722.34
428.04	1773.54
428.25	1785.83
428.45	1816.55
428.66	1693.67
428.86	1755.11
429.07	1699.81
429.28	1746.92
429.48	1697.77
429.69	1662.95
429.89	1681.38
430.10	1591.27
430.30	1738.73
430.51	1837.03
430.71	1687.53
430.92	1693.67
431.13	1695.72
431.33	1652.71
431.54	1726.44
431.74	1789.92
431.95	1837.03
432.15	1689.57
432.36	1703.91
432.56	1744.87
432.77	1783.78
432.98	1886.18
433.18	1701.86
433.39	1697.77
433.59	1834.98
433.80	1755.11
434.00	1826.79
434.21	1724.39
434.41	1679.33
434.62	1839.08
434.82	1697.77
435.03	1634.28
435.23	1708.01
435.44	1595.37
435.64	1685.48
435.85	1730.53
436.06	1779.68
436.26	1736.68
436.47	1693.67
436.67	1681.38
436.88	1726.44
437.08	1724.39
437.29	1769.44
437.49	1671.14
437.70	1712.10
437.90	1718.25
438.11	1814.50
438.31	1830.88
438.52	1820.64
438.72	1869.80
438.93	1880.04
439.13	1748.97
439.34	1796.07
439.54	1771.49
439.75	1826.79
439.95	1746.92
440.16	1738.73
440.36	1757.16
440.57	1728.49
440.77	1763.30
440.98	1740.77
441.18	1769.44
441.39	1701.86
441.59	1615.85
441.80	1718.25
442.00	1769.44
442.21	1746.92
442.41	1693.67
442.62	1779.68
442.82	1681.38
443.02	1718.25
443.23	1703.91
443.43	1705.96
443.64	1775.59
443.84	1601.51
444.05	1757.16
444.25	1761.25
444.46	1714.15
444.66	1720.29
444.87	1849.32
445.07	1662.95
445.28	1732.58
445.48	1822.69
445.69	1742.82
445.89	1851.36
446.09	1726.44
446.30	2019.30
446.50	2760.66
446.71	3794.89
446.91	4401.08
447.12	4683.70
447.32	4917.17
447.53	4310.97
447.73	3839.94
447.93	3563.47
448.14	3250.13
448.34	3129.30
448.55	2871.25
448.75	2836.44
448.96	2678.74
449.16	2410.46
449.36	2174.94
449.57	2056.16
449.77	1849.32
449.98	1710.05
450.18	1746.92
450.39	1773.54
450.59	1828.84
450.79	1791.97
451.00	1667.05
451.20	1724.39
451.41	1773.54
451.61	1746.92
451.81	1734.63
452.02	1673.19
452.22	1695.72
452.43	1746.92
452.63	1720.29
452.84	1695.72
453.04	1748.97
453.24	1744.87
453.45	1699.81
453.65	1701.86
453.86	1746.92
454.06	1746.92
454.26	1767.40
454.47	1734.63
454.67	1783.78
454.87	1779.68
455.08	1671.14
455.28	1759.21
455.49	1722.34
455.69	1685.48
455.89	1886.18
456.10	1830.88
456.30	1701.86
456.51	1791.97
456.71	1757.16
456.91	1796.07
457.12	1693.67
457.32	1789.92
457.52	1615.85
457.73	1685.48
457.93	1777.64
458.14	1773.54
458.34	1621.99
458.54	1683.43
458.75	1720.29
458.95	1751.01
459.15	1716.20
459.36	1718.25
459.56	1746.92
459.76	1871.84
459.97	1681.38
460.17	1726.44
460.37	1816.55
460.58	1705.96
460.78	1785.83
460.99	1714.15
461.19	1755.11
461.39	1650.66
461.60	1673.19
461.80	1742.82
462.00	1656.81
462.21	1742.82
462.41	1554.41
462.61	1681.38
462.82	1656.81
463.02	1738.73
463.22	1738.73
463.43	1751.01
463.63	1724.39
463.83	1787.88
464.04	1767.40
464.24	1734.63
464.44	1720.29
464.64	1765.35
464.85	1763.30
465.05	1732.58
465.25	1734.63
465.46	1730.53
465.66	1812.45
465.86	1726.44
466.07	1691.62
466.27	1712.10
466.47	1658.85
466.68	1658.85
466.88	1824.74
467.08	1710.05
467.29	1746.92
467.49	1781.73
467.69	1650.66
467.89	1751.01
468.10	1724.39
468.30	1730.53
468.50	1755.11
468.71	1767.40
468.91	1632.23
469.11	1882.08
469.31	1767.40
469.52	1599.46
469.72	1773.54
469.92	1849.32
470.13	1759.21
470.33	1710.05
470.53	1853.41
470.73	2066.40
470.94	2340.83
471.14	2373.60
471.34	2414.56
471.54	2459.61
471.75	2193.37
471.95	2115.55
472.15	2093.02
472.36	2105.31
472.56	2080.74
472.76	2041.82
472.96	2056.16
473.17	1794.02
473.37	1894.37
473.57	1742.82
473.77	1802.21
473.98	1804.26
474.18	1728.49
474.38	1857.51
474.58	1681.38
474.79	1712.10
474.99	1767.40
475.19	1755.11
475.39	1677.29
475.60	1722.34
475.80	1705.96
476.00	1716.20
476.20	1679.33
476.41	1759.21
476.61	1822.69
476.81	1802.21
477.01	1642.47
477.21	1867.75
477.42	1871.84
477.62	1683.43
477.82	1699.81
478.02	1755.11
478.23	1761.25
478.43	1595.37
478.63	1671.14
478.83	1701.86
479.03	1734.63
479.24	1699.81
479.44	1830.88
479.64	1656.81
479.84	1619.94
480.04	1609.70
480.25	1687.53
480.45	1658.85
480.65	1648.61
480.85	1779.68
481.06	1621.99
481.26	1775.59
481.46	1724.39
481.66	1677.29
481.86	1689.57
482.06	1710.05
482.27	1693.67
482.47	1673.19
482.67	1697.77
482.87	1681.38
483.07	1757.16
483.28	1656.81
483.48	1681.38
483.68	1699.81
483.88	1648.61
484.08	1603.56
484.29	1656.81
484.49	1695.72
484.69	1585.13
484.89	1775.59
485.09	1763.30
485.29	1751.01
485.50	1779.68
485.70	1671.14
485.90	1726.44
486.10	1777.64
486.30	1724.39
486.50	1806.31
486.71	1703.91
486.91	1685.48
487.11	1832.93
487.31	1736.68
487.51	1708.01
487.71	1650.66
487.91	1591.27
488.12	1634.28
488.32	1621.99
488.52	1691.62
488.72	1683.43
488.92	1734.63
489.12	1751.01
489.32	1781.73
489.53	1736.68
489.73	1662.95
489.93	1683.43
490.13	1615.85
490.33	1574.89
490.53	1734.63
490.73	1794.02
490.94	1644.52
491.14	1787.88
491.34	1837.03
491.54	2107.36
491.74	2572.25
491.94	2879.44
492.14	2998.23
492.34	3016.66
492.54	2725.85
492.75	2523.10
492.95	2392.03
493.15	2291.68
493.35	2260.96
493.55	2220.00
493.75	2107.36
493.95	2117.60
494.15	2074.59
494.35	1939.43
494.56	1771.49
494.76	1796.07
494.96	1785.83
495.16	1701.86
495.36	1722.34
495.56	1732.58
495.76	1712.10
495.96	1748.97
496.16	1662.95
496.36	1789.92
496.56	1734.63
496.77	1732.58
496.97	1673.19
497.17	1789.92
497.37	1652.71
497.57	1718.25
497.77	1662.95
497.97	1638.38
498.17	1710.05
498.37	1697.77
498.57	1767.40
498.77	1669.09
498.97	1808.36
499.17	1847.27
499.38	1785.83
499.58	1748.97
499.78	1697.77
499.98	1769.44
500.18	1742.82
500.38	1628.14
500.58	1990.63
500.78	2590.68
500.98	4396.99
501.18	5814.18
501.38	6631.32
501.58	7128.98
501.78	6606.75
501.98	5660.59
502.18	5023.67
502.38	4380.61
502.58	4116.42
502.78	3792.84
502.98	3639.24
503.18	3448.78
503.38	3092.43
503.59	2959.31
503.79	2695.13
503.99	2488.28
504.19	2193.37
504.39	2203.61
504.59	2191.33
504.79	2099.17
504.99	1980.39
505.19	1929.19
505.39	1875.94
505.59	1923.04
505.79	1951.71
505.99	1834.98
506.19	1787.88
506.39	1925.09
506.59	1740.77
506.79	1732.58
506.99	1849.32
507.19	1683.43
507.39	1726.44
507.59	1660.90
507.79	1693.67
507.99	1722.34
508.19	1732.58
508.39	1665.00
508.59	1720.29
508.79	1824.74
508.99	1865.70
509.19	1685.48
509.39	1734.63
509.59	1703.91
509.79	1718.25
509.99	1701.86
510.19	1763.30
510.39	1736.68
510.59	1691.62
510.79	1785.83
510.99	1714.15
511.19	1722.34
511.39	1869.80
511.59	1765.35
511.79	1744.87
511.99	1748.97
512.19	1857.51
512.38	1730.53
512.58	1771.49
512.78	1740.77
512.98	1775.59
513.18	1779.68
513.38	1646.57
513.58	1837.03
513.78	1716.20
513.98	1724.39
514.18	1689.57
514.38	1658.85
514.58	1796.07
514.78	1710.05
514.98	1613.80
515.18	1703.91
515.38	1640.42
515.58	1853.41
515.78	1714.15
515.98	1683.43
516.18	1783.78
516.38	1718.25
516.57	1734.63
516.77	1742.82
516.97	1810.40
517.17	1691.62
517.37	1624.04
517.57	1789.92
517.77	1703.91
517.97	1667.05
518.17	1777.64
518.37	1509.35
518.57	1705.96
518.77	1689.57
518.97	1681.38
519.16	1728.49
519.36	1777.64
519.56	1738.73
519.76	1800.16
519.96	1755.11
520.16	1796.07
520.36	1681.38
520.56	1861.60
520.76	1662.95
520.96	1683.43
521.16	1787.88
521.35	1822.69
521.55	1777.64
521.75	1738.73
521.95	1724.39
522.15	1765.35
522.35	1712.10
522.55	1716.20
522.75	1775.59
522.95	1761.25
523.14	1703.91
523.34	1712.10
523.54	1656.81
523.74	1869.80
523.94	1789.92
524.14	1679.33
524.34	1744.87
524.54	1759.21
524.73	1675.24
524.93	1732.58
525.13	1705.96
525.33	1677.29
525.53	1886.18
525.73	1767.40
525.93	1769.44
526.13	1759.21
526.32	1693.67
526.52	1787.88
526.72	1794.02
526.92	1691.62
527.12	1656.81
527.32	1591.27
527.52	1783.78
527.71	1746.92
527.91	1746.92
528.11	1638.38
528.31	1681.38
528.51	1697.77
528.71	1695.72
528.90	1699.81
529.10	1738.73
529.30	1796.07
529.50	1656.81
529.70	1636.33
529.90	1726.44
530.09	1671.14
530.29	1703.91
530.49	1601.51
530.69	1814.50
530.89	1658.85
531.09	1759.21
531.28	1671.14
531.48	1796.07
531.68	1720.29
531.88	1720.29
532.08	1697.77
532.28	1673.19
532.47	1789.92
532.67	1748.97
532.87	1679.33
533.07	1665.00
533.27	1834.98
533.46	1804.26
533.66	1775.59
533.86	1712.10
534.06	1705.96
534.26	1824.74
534.45	1648.61
534.65	1753.06
534.85	1724.39
535.05	1656.81
535.25	1789.92
535.44	1624.04
535.64	1759.21
535.84	1662.95
536.04	1691.62
536.24	1691.62
536.43	1740.77
536.63	1783.78
536.83	1681.38
537.03	1687.53
537.22	1636.33
537.42	1630.18
537.62	1736.68
537.82	1753.06
538.02	1708.01
538.21	1826.79
538.41	1900.52
538.61	1744.87
538.81	1710.05
539.00	1761.25
539.20	1576.94
539.40	1769.44
539.60	1742.82
539.79	1732.58
539.99	1775.59
540.19	1724.39
540.39	1716.20
540.58	1683.43
540.78	1783.78
540.98	1714.15
541.18	1732.58
541.37	1765.35
541.57	1699.81
541.77	1673.19
541.97	1673.19
542.16	1671.14
542.36	1675.24
542.56	1658.85
542.76	1832.93
542.95	1755.11
543.15	1767.40
543.35	1763.30
543.54	1683.43
543.74	1673.19
543.94	1814.50
544.14	1718.25
544.33	1712.10
544.53	1644.52
544.73	1773.54
544.93	1650.66
545.12	1605.61
545.32	1667.05
545.52	1732.58
545.71	1675.24
545.91	1779.68
546.11	1716.20
546.30	1638.38
546.50	1779.68
546.70	1773.54
546.90	1722.34
547.09	1558.50
547.29	1685.48
547.49	1740.77
547.68	1724.39
547.88	1716.20
548.08	1722.34
548.27	2217.95
548.47	1652.71
548.67	1693.67
548.87	1787.88
549.06	1751.01
549.26	1773.54
549.46	1798.12
549.65	1603.56
549.85	1757.16
550.05	1796.07
550.24	1681.38
550.44	1740.77
550.64	1722.34
550.83	1724.39
551.03	1849.32
551.23	1773.54
551.42	1773.54
551.62	1705.96
551.82	1751.01
552.01	1763.30
552.21	1828.84
552.41	1701.86
552.60	1751.01
552.80	1720.29
553.00	1755.11
553.19	1695.72
553.39	1882.08
553.59	1673.19
553.78	1806.31
553.98	1771.49
554.17	1667.05
554.37	1796.07
554.57	1779.68
554.76	1677.29
554.96	1683.43
555.16	1699.81
555.35	1703.91
555.55	1832.93
555.75	1730.53
555.94	1777.64
556.14	1611.75
556.33	1798.12
556.53	1665.00
556.73	1783.78
556.92	1746.92
557.12	1828.84
557.32	1832.93
557.51	1861.60
557.71	1775.59
557.90	1828.84
558.10	1779.68
558.30	1648.61
558.49	1734.63
558.69	1697.77
558.88	1791.97
559.08	1705.96
559.28	1712.10
559.47	1738.73
559.67	1736.68
559.86	1824.74
560.06	1701.86
560.26	1718.25
560.45	1734.63
560.65	1660.90
560.84	1853.41
561.04	1644.52
561.24	1769.44
561.43	1677.29
561.63	1777.64
561.82	1763.30
562.02	1810.40
562.22	1681.38
562.41	1722.34
562.61	1667.05
562.80	1726.44
563.00	1927.14
563.19	1802.21
563.39	1763.30
563.59	1789.92
563.78	1621.99
563.98	1603.56
564.17	1755.11
564.37	1660.90
564.56	1722.34
564.76	1646.57
564.96	1798.12
565.15	1740.77
565.35	1779.68
565.54	1726.44
565.74	1787.88
565.93	1724.39
566.13	1681.38
566.32	1796.07
566.52	1746.92
566.71	1785.83
566.91	1851.36
567.11	1728.49
567.30	1701.86
567.50	1781.73
567.69	1773.54
567.89	1679.33
568.08	1722.34
568.28	1794.02
568.47	1689.57
568.67	1740.77
568.86	1689.57
569.06	1812.45
569.25	1716.20
569.45	1630.18
569.64	1701.86
569.84	1724.39
570.04	1705.96
570.23	1640.42
570.43	1718.25
570.62	1718.25
570.82	1888.23
571.01	1660.90
571.21	1720.29
571.40	1636.33
571.60	1816.55
571.79	1775.59
571.99	1730.53
572.18	1738.73
572.38	1781.73
572.57	1726.44
572.77	1734.63
572.96	1871.84
573.16	1685.48
573.35	1685.48
573.55	1834.98
573.74	1824.74
573.94	1693.67
574.13	1705.96
574.33	1742.82
574.52	1814.50
574.71	1730.53
574.91	1806.31
575.10	1611.75
575.30	1677.29
575.49	1720.29
575.69	1748.97
575.88	1673.19
576.08	1710.05
576.27	1837.03
576.47	1748.97
576.66	1828.84
576.86	1861.60
577.05	1656.81
577.25	1820.64
577.44	1839.08
577.64	1722.34
577.83	1787.88
578.02	1759.21
578.22	1853.41
578.41	1931.23
578.61	1673.19
578.80	1656.81
579.00	1708.01
579.19	1732.58
579.39	1841.12
579.58	1806.31
579.77	1800.16
579.97	1816.55
580.16	1837.03
580.36	1775.59
580.55	1824.74
580.75	1777.64
580.94	1763.30
581.13	1816.55
581.33	1884.13
581.52	1738.73
581.72	1812.45
581.91	1777.64
582.11	1748.97
582.30	1796.07
582.49	1806.31
582.69	1820.64
582.88	1744.87
583.08	1767.40
583.27	1761.25
583.47	1794.02
583.66	1681.38
583.85	1683.43
584.05	1683.43
584.24	1789.92
584.44	1773.54
584.63	1839.08
584.82	1734.63
585.02	1826.79
585.21	1783.78
585.41	1888.23
585.60	1802.21
585.79	1908.71
585.99	1910.75
586.18	1886.18
586.37	2203.61
586.57	3395.53
586.76	9979.75
586.96	25245.31
587.15	35292.65
587.34	41201.04
587.54	43027.82
587.73	37195.21
587.93	26877.54
588.12	22017.71
588.31	18745.06
588.51	16568.07
588.70	15556.37
588.89	14184.23
589.09	12861.24
589.28	11163.48
589.47	9602.93
589.67	8038.28
589.86	6530.97
590.06	4964.28
590.25	4001.73
590.44	3137.49
590.64	2602.97
590.83	2295.77
591.02	2156.51
591.22	1992.67
591.41	1955.81
591.60	1912.80
591.80	1972.19
591.99	1740.77
592.18	1687.53
592.38	1775.59
592.57	1759.21
592.76	1804.26
592.96	1783.78
593.15	1779.68
593.34	1814.50
593.54	1777.64
593.73	1730.53
593.92	1886.18
594.12	1814.50
594.31	1802.21
594.50	1857.51
594.70	1759.21
594.89	1941.47
595.08	1703.91
595.28	1812.45
595.47	1822.69
595.66	1783.78
595.86	1705.96
596.05	1660.90
596.24	1658.85
596.43	1888.23
596.63	1775.59
596.82	1689.57
597.01	1845.22
597.21	1812.45
597.40	1710.05
597.59	1677.29
597.79	1710.05
597.98	1773.54
598.17	1712.10
598.36	1759.21
598.56	1734.63
598.75	1654.76
598.94	1783.78
599.14	1798.12
599.33	1759.21
599.52	1732.58
599.71	1798.12
599.91	1818.60
600.10	1742.82
600.29	1751.01
600.48	1742.82
600.68	1794.02
600.87	1710.05
601.06	1697.77
601.26	1767.40
601.45	1728.49
601.64	1785.83
601.83	1734.63
602.03	1757.16
602.22	1665.00
602.41	1808.36
602.60	1812.45
602.80	1787.88
602.99	1673.19
603.18	1667.05
603.37	1730.53
603.57	1712.10
603.76	1730.53
603.95	1746.92
604.14	1746.92
604.34	1726.44
604.53	1783.78
604.72	1730.53
604.91	1740.77
605.10	1812.45
605.30	1691.62
605.49	1839.08
605.68	1746.92
605.87	1751.01
606.07	1705.96
606.26	1748.97
606.45	1761.25
606.64	1730.53
606.84	1740.77
607.03	1714.15
607.22	1841.12
607.41	1736.68
607.60	1687.53
607.80	1781.73
607.99	1740.77
608.18	1648.61
608.37	1740.77
608.56	1753.06
608.76	1742.82
608.95	1814.50
609.14	1832.93
609.33	1798.12
609.52	1744.87
609.72	1773.54
609.91	1785.83
610.10	1703.91
610.29	1783.78
610.48	1777.64
610.68	1722.34
610.87	1718.25
611.06	1791.97
611.25	1738.73
611.44	1773.54
611.63	1708.01
611.83	1898.47
612.02	1636.33
612.21	1808.36
612.40	1634.28
612.59	1642.47
612.79	1652.71
612.98	1679.33
613.17	1804.26
613.36	1755.11
613.55	1769.44
613.74	1722.34
613.93	1726.44
614.13	1681.38
614.32	1712.10
614.51	1810.40
614.70	1699.81
614.89	1701.86
615.08	1767.40
615.28	2133.98
615.47	1648.61
615.66	1722.34
615.85	1697.77
616.04	1773.54
616.23	1656.81
616.42	1728.49
616.62	1679.33
616.81	1699.81
617.00	1748.97
617.19	1730.53
617.38	1730.53
617.57	1779.68
617.76	1714.15
617.95	1789.92
618.15	1724.39
618.34	1812.45
618.53	1662.95
618.72	1734.63
618.91	1773.54
619.10	1787.88
619.29	1748.97
619.48	1693.67
619.68	1634.28
619.87	1757.16
620.06	1624.04
620.25	1720.29
620.44	1730.53
620.63	1753.06
620.82	1705.96
621.01	1697.77
621.20	1685.48
621.39	1656.81
621.59	1697.77
621.78	1724.39
621.97	1714.15
622.16	1683.43
622.35	1759.21
622.54	1806.31
622.73	1798.12
622.92	1636.33
623.11	1746.92
623.30	1720.29
623.49	1771.49
623.68	1673.19
623.88	1726.44
624.07	1751.01
624.26	1652.71
624.45	1730.53
624.64	1642.47
624.83	1751.01
625.02	1728.49
625.21	1708.01
625.40	1652.71
625.59	1783.78
625.78	1775.59
625.97	1744.87
626.16	1765.35
626.35	1740.77
626.54	1656.81
626.74	1800.16
626.93	1697.77
627.12	1697.77
627.31	1730.53
627.50	1665.00
627.69	1771.49
627.88	1718.25
628.07	1744.87
628.26	1640.42
628.45	1685.48
628.64	1708.01
628.83	1744.87
629.02	1669.09
629.21	1736.68
629.40	1677.29
629.59	1658.85
629.78	1656.81
629.97	1705.96
630.16	1650.66
630.35	1710.05
630.54	1726.44
630.73	1759.21
630.92	1724.39
631.11	1740.77
631.30	1695.72
631.49	1783.78
631.68	1685.48
631.87	1761.25
632.06	1636.33
632.25	1896.42
632.44	1677.29
632.63	1759.21
632.82	1703.91
633.01	1660.90
633.20	1712.10
633.39	1644.52
633.58	1691.62
633.77	1695.72
633.96	1660.90
634.15	1685.48
634.34	1757.16
634.53	1785.83
634.72	1648.61
634.91	1660.90
635.10	1767.40
635.29	1757.16
635.48	1667.05
635.67	1675.24
635.86	1603.56
636.05	1669.09
636.24	1693.67
636.43	1744.87
636.62	1765.35
636.81	1587.18
637.00	1667.05
637.19	1734.63
637.38	1613.80
637.57	1656.81
637.76	1804.26
637.95	1693.67
638.14	1662.95
638.33	1718.25
638.52	1689.57
638.71	1585.13
638.89	1638.38
639.08	1877.99
639.27	1775.59
639.46	1667.05
639.65	1820.64
639.84	1669.09
640.03	1777.64
640.22	1742.82
640.41	1818.60
640.60	1654.76
640.79	1736.68
640.98	1636.33
641.17	1820.64
641.36	1769.44
641.55	1748.97
641.74	1652.71
641.92	1701.86
642.11	1587.18
642.30	1662.95
642.49	1710.05
642.68	1673.19
642.87	1683.43
643.06	1730.53
643.25	1687.53
643.44	1716.20
643.63	1652.71
643.82	1761.25
644.00	1695.72
644.19	1726.44
644.38	1634.28
644.57	1751.01
644.76	1710.05
644.95	1708.01
645.14	1794.02
645.33	1765.35
645.52	1722.34
645.71	1791.97
645.89	1619.94
646.08	1697.77
646.27	1667.05
646.46	1828.84
646.65	1611.75
646.84	1742.82
647.03	1703.91
647.22	1710.05
647.40	1730.53
647.59	1660.90
647.78	1669.09
647.97	1640.42
648.16	1705.96
648.35	1806.31
648.54	1726.44
648.73	1685.48
648.91	1771.49
649.10	1701.86
649.29	1724.39
649.48	1708.01
649.67	1814.50
649.86	1685.48
650.05	1662.95
650.23	1802.21
650.42	1687.53
650.61	1679.33
650.80	1771.49
650.99	1753.06
651.18	1718.25
651.36	1767.40
651.55	1681.38
651.74	1724.39
651.93	1689.57
652.12	1599.46
652.31	1720.29
652.49	1763.30
652.68	1650.66
652.87	1775.59
653.06	1744.87
653.25	1857.51
653.44	1673.19
653.62	1839.08
653.81	1693.67
654.00	1626.09
654.19	1726.44
654.38	1740.77
654.56	1761.25
654.75	1710.05
654.94	1775.59
655.13	1806.31
655.32	1767.40
655.51	1787.88
655.69	1695.72
655.88	1736.68
656.07	1697.77
656.26	1732.58
656.45	1673.19
656.63	1652.71
656.82	1814.50
657.01	1861.60
657.20	1628.14
657.38	1816.55
657.57	1624.04
657.76	1669.09
657.95	1755.11
658.14	1746.92
658.32	1806.31
658.51	1673.19
658.70	1722.34
658.89	1753.06
659.08	1673.19
659.26	1816.55
659.45	1634.28
659.64	1816.55
659.83	1638.38
660.01	1822.69
660.20	1660.90
660.39	1923.04
660.58	1665.00
660.76	1708.01
660.95	1654.76
661.14	1712.10
661.33	1662.95
661.51	1648.61
661.70	1654.76
661.89	1753.06
662.08	1619.94
662.26	1634.28
662.45	1621.99
662.64	1787.88
662.83	1818.60
663.01	1566.70
663.20	1626.09
663.39	1869.80
663.58	1718.25
663.76	1669.09
663.95	1738.73
664.14	1619.94
664.32	1685.48
664.51	1638.38
664.70	1656.81
664.89	1695.72
665.07	1658.85
665.26	1841.12
665.45	1585.13
665.64	1724.39
665.82	1710.05
666.01	1771.49
666.20	1703.91
666.38	1769.44
666.57	1755.11
666.76	2213.85
666.95	4718.52
667.13	10594.14
667.32	15462.16
667.51	17903.34
667.69	19191.52
667.88	17936.11
668.07	12457.79
668.25	9619.31
668.44	8073.09
668.63	7475.09
668.81	6932.37
669.00	6309.79
669.19	5992.36
669.38	5097.39
669.56	4589.50
669.75	4052.93
669.94	3336.14
670.12	2924.50
670.31	2553.82
670.50	2299.87
670.68	2072.54
670.87	1910.75
671.06	1841.12
671.24	1732.58
671.43	1779.68
671.62	1681.38
671.80	1634.28
671.99	1783.78
672.18	1712.10
672.36	1746.92
672.55	1759.21
672.74	1720.29
672.92	1710.05
673.11	1767.40
673.29	1636.33
673.48	1773.54
673.67	1751.01
673.85	1775.59
674.04	1617.90
674.23	1724.39
674.41	1785.83
674.60	1646.57
674.79	1603.56
674.97	1683.43
675.16	1671.14
675.34	1697.77
675.53	1705.96
675.72	1714.15
675.90	1724.39
676.09	1654.76
676.28	1775.59
676.46	1630.18
676.65	1669.09
676.83	1658.85
677.02	1650.66
677.21	1753.06
677.39	1685.48
677.58	1628.14
677.77	1675.24
677.95	1705.96
678.14	1738.73
678.32	1624.04
678.51	1615.85
678.70	1783.78
678.88	1703.91
679.07	1699.81
679.25	1636.33
679.44	1669.09
679.63	1654.76
679.81	1636.33
680.00	1726.44
680.18	1751.01
680.37	1773.54
680.55	1679.33
680.74	1599.46
680.93	1626.09
681.11	1718.25
681.30	1691.62
681.48	1740.77
681.67	1685.48
681.85	1765.35
682.04	1691.62
682.23	1779.68
682.41	1728.49
682.60	1662.95
682.78	1748.97
682.97	1576.94
683.15	1685.48
683.34	1755.11
683.53	1742.82
683.71	1683.43
683.90	1800.16
684.08	1802.21
684.27	1718.25
684.45	1683.43
684.64	1767.40
684.82	1665.00
685.01	1640.42
685.19	1669.09
685.38	1746.92
685.57	1720.29
685.75	1605.61
685.94	1738.73
686.12	1611.75
686.31	1648.61
686.49	1802.21
686.68	1564.65
686.86	1720.29
687.05	1718.25
687.23	1783.78
687.42	1583.08
687.60	1601.51
687.79	1773.54
687.97	1783.78
688.16	1806.31
688.34	1744.87
688.53	1552.36
688.71	1779.68
688.90	1732.58
689.08	1650.66
689.27	1556.46
689.45	1644.52
689.64	1738.73
689.82	1712.10
690.01	1712.10
690.19	1718.25
690.38	1740.77
690.56	1822.69
690.75	1593.32
690.93	1675.24
691.12	1671.14
691.30	1662.95
691.49	1718.25
691.67	1710.05
691.86	1849.32
692.04	1665.00
692.23	1697.77
692.41	1609.70
692.60	1894.37
692.78	1812.45
692.97	1671.14
693.15	1652.71
693.34	1812.45
693.52	1724.39
693.71	1736.68
693.89	1681.38
694.08	1548.26
694.26	1720.29
694.44	1742.82
694.63	1755.11
694.81	1687.53
695.00	1624.04
695.18	1746.92
695.37	1832.93
695.55	1673.19
695.74	1740.77
695.92	1675.24
696.10	1718.25
696.29	1611.75
696.47	1683.43
696.66	1619.94
696.84	1662.95
697.03	1712.10
697.21	1796.07
697.40	2258.91
697.58	1787.88
697.76	1581.03
697.95	1667.05
698.13	1605.61
698.32	1634.28
698.50	1689.57
698.68	1699.81
698.87	1703.91
699.05	1779.68
699.24	1683.43
699.42	1654.76
699.61	1712.10
699.79	1703.91
699.97	1697.77
700.16	1607.66
700.34	1677.29
700.53	1656.81
700.71	1841.12
700.89	1691.62
701.08	1740.77
701.26	1773.54
701.45	2033.63
701.63	1693.67
701.81	1683.43
702.00	1611.75
702.18	1689.57
702.37	1632.23
702.55	1738.73
702.73	1726.44
702.92	1591.27
703.10	1693.67
703.28	1771.49
703.47	1656.81
703.65	1765.35
703.84	1789.92
704.02	1726.44
704.20	1718.25
704.39	1628.14
704.57	1552.36
704.75	1804.26
704.94	1726.44
705.12	1757.16
705.30	1826.79
705.49	2242.53
705.67	4376.51
705.86	9631.60
706.04	12947.26
706.22	14608.16
706.41	15609.62
706.59	14200.62
706.77	9623.41
706.96	7466.89
707.14	6571.93
707.32	6055.84
707.51	5621.67
707.69	4902.84
707.87	4237.25
708.06	3377.10
708.24	2955.22
708.42	2447.32
708.61	2228.19
708.79	1906.66
708.97	1839.08
709.16	1783.78
709.34	1818.60
709.52	1630.18
709.71	1699.81
709.89	1794.02
710.07	1644.52
710.26	1640.42
710.44	1699.81
710.62	1769.44
710.80	1740.77
710.99	1763.30
711.17	1681.38
711.35	1619.94
711.54	1656.81
711.72	1775.59
711.90	1705.96
712.09	1665.00
712.27	1689.57
712.45	1787.88
712.63	1730.53
712.82	1708.01
713.00	1681.38
713.18	1777.64
713.37	1730.53
713.55	1718.25
713.73	1732.58
713.91	1740.77
714.10	1720.29
714.28	1748.97
714.46	1781.73
714.65	1712.10
714.83	1724.39
715.01	1613.80
715.19	1716.20
715.38	1689.57
715.56	1773.54
715.74	1654.76
715.92	1642.47
716.11	1832.93
716.29	1683.43
716.47	1642.47
716.65	1683.43
716.84	1644.52
717.02	1845.22
717.20	1595.37
717.38	1697.77
717.57	1769.44
717.75	1624.04
717.93	1636.33
718.11	1779.68
718.30	1634.28
718.48	1773.54
718.66	1845.22
718.84	1759.21
719.03	1705.96
719.21	1636.33
719.39	1869.80
719.57	1646.57
719.75	1724.39
719.94	1683.43
720.12	1644.52
720.30	1730.53
720.48	1798.12
720.67	1640.42
720.85	1628.14
721.03	1742.82
721.21	1648.61
721.39	1800.16
721.58	1773.54
721.76	1683.43
721.94	1781.73
722.12	1736.68
722.30	1779.68
722.49	1665.00
722.67	1734.63
722.85	1734.63
723.03	1634.28
723.21	1652.71
723.40	1744.87
723.58	1744.87
723.76	1667.05
723.94	1738.73
724.12	1728.49
724.30	1738.73
724.49	1779.68
724.67	1560.55
724.85	1816.55
725.03	1652.71
725.21	1687.53
725.40	1703.91
725.58	1724.39
725.76	1714.15
725.94	1691.62
726.12	1665.00
726.30	1671.14
726.49	1675.24
726.67	1650.66
726.85	1787.88
727.03	1812.45
727.21	2172.89
727.39	2877.40
727.57	3829.70
727.76	4188.10
727.94	4566.97
728.12	4390.84
728.30	3692.49
728.48	3041.23
728.66	2746.33
728.84	2531.29
729.03	2338.78
729.21	2131.94
729.39	2002.91
729.57	1794.02
729.75	1890.28
729.93	1818.60
730.11	1640.42
730.30	1673.19
730.48	1767.40
730.66	1746.92
730.84	1710.05
731.02	1714.15
731.20	1665.00
731.38	1697.77
731.56	1658.85
731.74	1656.81
731.93	1669.09
732.11	1708.01
732.29	1753.06
732.47	1675.24
732.65	1734.63
732.83	1777.64
733.01	1728.49
733.19	1662.95
733.37	1683.43
733.56	1697.77
733.74	1693.67
733.92	1734.63
734.10	1648.61
734.28	1683.43
734.46	1630.18
734.64	1681.38
734.82	1593.32
735.00	1634.28
735.18	1665.00
735.36	1640.42
735.54	1683.43
735.73	1748.97
735.91	1757.16
736.09	1689.57
736.27	1708.01
736.45	1693.67
736.63	1581.03
736.81	1744.87
736.99	1775.59
737.17	1824.74
737.35	1640.42
737.53	1685.48
737.71	1771.49
737.89	1808.36
738.07	1695.72
738.25	1621.99
738.43	1644.52
738.61	1689.57
738.80	1681.38
738.98	1646.57
739.16	1701.86
739.34	1609.70
739.52	1800.16
739.70	1648.61
739.88	1689.57
740.06	1812.45
740.24	1650.66
740.42	1681.38
740.60	1603.56
740.78	1609.70
740.96	1587.18
741.14	1628.14
741.32	1726.44
741.50	1636.33
741.68	1812.45
741.86	1787.88
742.04	1636.33
742.22	1615.85
742.40	1646.57
742.58	1771.49
742.76	1679.33
742.94	1697.77
743.12	1619.94
743.30	1746.92
743.48	1634.28
743.66	1695.72
743.84	1744.87
744.02	1683.43
744.20	1734.63
744.38	1632.23
744.56	1665.00
744.74	1775.59
744.92	1662.95
745.10	1716.20
745.28	1767.40
745.46	1873.89
745.64	1675.24
745.82	1753.06
746.00	1751.01
746.18	1757.16
746.36	1636.33
746.54	1720.29
746.72	1687.53
746.90	1615.85
747.08	1751.01
747.26	1681.38
747.44	1779.68
747.62	1710.05
747.80	1771.49
747.98	1701.86
748.15	1716.20
748.33	1814.50
748.51	1660.90
748.69	1738.73
748.87	1665.00
749.05	1691.62
749.23	1703.91
749.41	1732.58
749.59	1648.61
749.77	1755.11
749.95	1671.14
750.13	1656.81
750.31	1673.19
750.49	1683.43
750.67	1724.39
750.85	1800.16
751.03	1775.59
751.20	1783.78
751.38	1675.24
751.56	1695.72
751.74	1708.01
751.92	1681.38
752.10	1689.57
752.28	1812.45
752.46	1699.81
752.64	1671.14
752.82	1660.90
753.00	1722.34
753.18	1685.48
753.35	1730.53
753.53	1671.14
753.71	1613.80
753.89	1779.68
754.07	1687.53
754.25	1748.97
754.43	1697.77
754.61	1644.52
754.79	1708.01
754.97	1624.04
755.14	1728.49
755.32	1650.66
755.50	1703.91
755.68	1748.97
755.86	1675.24
756.04	1673.19
756.22	1671.14
756.40	1834.98
756.57	1857.51
756.75	1734.63
756.93	1816.55
757.11	1662.95
757.29	1611.75
757.47	1691.62
757.65	1617.90
757.82	1583.08
758.00	1589.22
758.18	1699.81
758.36	1650.66
758.54	1751.01
758.72	1675.24
758.90	1751.01
759.07	1630.18
759.25	1574.89
759.43	1697.77
759.61	1605.61
759.79	2131.94
759.97	1791.97
760.15	1673.19
760.32	1724.39
760.50	1701.86
760.68	1773.54
760.86	1628.14
761.04	1763.30
761.22	1712.10
761.39	1634.28
761.57	1697.77
761.75	1722.34
761.93	1763.30
762.11	1691.62
762.28	1722.34
762.46	1683.43
762.64	1693.67
762.82	1597.42
763.00	1656.81
763.18	1755.11
763.35	1593.32
763.53	1746.92
763.71	1683.43
763.89	1658.85
764.07	1787.88
764.24	1724.39
764.42	1705.96
764.60	1712.10
764.78	1621.99
764.96	1812.45
765.13	1738.73
765.31	1746.92
765.49	1693.67
765.67	1638.38
765.84	1603.56
766.02	1652.71
766.20	1599.46
766.38	1798.12
766.56	1757.16
766.73	1796.07
766.91	1671.14
767.09	1617.90
767.27	1708.01
767.44	1642.47
767.62	1720.29
767.80	1689.57
767.98	1603.56
768.15	1738.73
768.33	1705.96
768.51	1714.15
768.69	1775.59
768.87	1628.14
769.04	1802.21
769.22	1837.03
769.40	1791.97
769.58	1824.74
769.75	1699.81
769.93	1722.34
770.11	1662.95
770.28	1687.53
770.46	1712.10
770.64	1730.53
770.82	1722.34
770.99	1730.53
771.17	1722.34
771.35	1691.62
771.53	1693.67
771.70	1753.06
771.88	1652.71
772.06	1677.29
772.23	1708.01
772.41	1748.97
772.59	1660.90
772.77	1605.61
772.94	1626.09
773.12	1718.25
773.30	1718.25
773.47	1691.62
773.65	1673.19
773.83	1779.68
774.01	1720.29
774.18	1632.23
774.36	1722.34
774.54	1636.33
774.71	1669.09
774.89	1578.98
775.07	1634.28
775.24	1624.04
775.42	1619.94
775.60	1740.77
775.78	1656.81
775.95	1591.27
776.13	1710.05
776.31	1609.70
776.48	1683.43
776.66	1703.91
776.84	1716.20
777.01	1681.38
777.19	1638.38
777.37	1681.38
777.54	1716.20
777.72	1779.68
777.90	1607.66
778.07	1738.73
778.25	1888.23
778.43	1871.84
778.60	1613.80
778.78	1687.53
778.96	1763.30
779.13	1560.55
779.31	1701.86
779.49	1656.81
779.66	1746.92
779.84	1630.18
780.01	1728.49
780.19	1689.57
780.37	1705.96
780.54	1746.92
780.72	1634.28
780.90	1609.70
781.07	1646.57
781.25	1644.52
781.43	1775.59
781.60	1722.34
781.78	1804.26
781.95	1701.86
782.13	1695.72
782.31	1703.91
782.48	1656.81
782.66	1724.39
782.83	1814.50
783.01	1722.34
783.19	1759.21
783.36	1554.41
783.54	1628.14
783.72	1742.82
783.89	1699.81
784.07	1732.58
784.24	1710.05
784.42	1781.73
784.60	1656.81
784.77	1736.68
784.95	1611.75
785.12	1619.94
785.30	1687.53
785.47	1642.47
785.65	1642.47
785.83	1675.24
786.00	1644.52
786.18	1675.24
786.35	1556.46
786.53	1656.81
786.71	1806.31
786.88	1705.96
787.06	1689.57
787.23	1656.81
787.41	1652.71
787.58	1701.86
787.76	1630.18
787.94	1714.15
788.11	1681.38
788.29	1642.47
788.46	1685.48
788.64	1554.41
788.81	1712.10
788.99	1677.29
789.16	1681.38
789.34	1722.34
789.52	1656.81
789.69	1644.52
789.87	1603.56
790.04	1681.38
790.22	1742.82
790.39	1783.78
790.57	1662.95
790.74	1656.81
790.92	1800.16
791.09	1646.57
791.27	1714.15
791.44	1767.40
791.62	1751.01
791.79	1767.40
791.97	1621.99
792.15	1771.49
792.32	1687.53
792.50	1771.49
792.67	1775.59
792.85	1781.73
793.02	1746.92
793.20	1632.23
793.37	1669.09
793.55	1665.00
793.72	1595.37
793.90	1697.77
794.07	1669.09
794.25	1726.44
794.42	1665.00
794.60	1677.29
794.77	1687.53
794.95	1775.59
795.12	1800.16
795.30	1656.81
795.47	1687.53
795.65	1898.47
795.82	1742.82
796.00	1689.57
796.17	1607.66
796.34	1652.71
796.52	1746.92
796.69	1691.62
796.87	1730.53
797.04	1697.77
797.22	1736.68
797.39	1751.01
797.57	1751.01
797.74	1701.86
797.92	1722.34
798.09	1656.81
798.27	1673.19
798.44	1767.40
798.62	1638.38
798.79	1742.82
798.96	1757.16
799.14	1677.29
799.31	1849.32
799.49	1652.71
799.66	1644.52
799.84	1759.21
800.01	1630.18
800.19	1732.58
800.36	1617.90
800.53	1652.71
800.71	1658.85
800.88	1789.92
801.06	1691.62
801.23	1677.29
801.41	1693.67
801.58	1642.47
801.75	1632.23
801.93	1701.86
802.10	1806.31
802.28	1714.15
802.45	1605.61
802.63	1738.73
802.80	1824.74
802.97	1673.19
803.15	1773.54
803.32	1701.86
803.50	1626.09
803.67	1626.09
803.84	1587.18
804.02	1652.71
804.19	1632.23
804.37	1613.80
804.54	1595.37
804.71	1695.72
804.89	1658.85
805.06	1699.81
805.24	1628.14
805.41	1628.14
805.58	1607.66
805.76	1908.71
805.93	1695.72
806.10	1812.45
806.28	1759.21
806.45	1718.25
806.63	1617.90
806.80	1642.47
806.97	1734.63
807.15	1697.77
807.32	1685.48
807.49	1728.49
807.67	1578.98
807.84	1722.34
808.01	1701.86
808.19	1755.11
808.36	1728.49
808.54	1699.81
808.71	1683.43
808.88	1693.67
809.06	1701.86
809.23	1794.02
809.40	1630.18
809.58	1697.77
809.75	1701.86
809.92	1671.14
810.10	1759.21
810.27	1746.92
810.44	1665.00
810.62	1740.77
810.79	1662.95
810.96	1685.48
811.14	1634.28
811.31	1724.39
811.48	1638.38
811.66	1714.15
811.83	1697.77
812.00	1812.45
812.18	1710.05
812.35	1843.17
812.52	1638.38
812.69	1583.08
812.87	1662.95
813.04	1693.67
813.21	1710.05
813.39	1607.66
813.56	1720.29
813.73	1779.68
813.91	1642.47
814.08	1796.07
814.25	1730.53
814.42	1605.61
814.60	1658.85
814.77	1710.05
814.94	1714.15
815.12	1699.81
815.29	1777.64
815.46	1658.85
815.63	1689.57
815.81	1646.57
815.98	1681.38
816.15	1673.19
816.33	1710.05
816.50	1687.53
816.67	1689.57
816.84	1691.62
817.02	1552.36
817.19	1648.61
817.36	1662.95
817.53	1757.16
817.71	1681.38
817.88	1718.25
818.05	1619.94
818.22	1722.34
818.40	1800.16
818.57	1705.96
818.74	1796.07
818.91	1734.63
819.09	1759.21
819.26	1802.21
819.43	1685.48
819.60	1681.38
819.78	1650.66
819.95	1683.43
820.12	1632.23
820.29	1767.40
820.47	1677.29
820.64	1634.28
820.81	1613.80
820.98	1691.62
821.15	1644.52
821.33	1746.92
821.50	1679.33
821.67	1810.40
821.84	1665.00
822.02	1783.78
822.19	1726.44
822.36	1695.72
822.53	1753.06
822.70	1638.38
822.88	1685.48
823.05	1783.78
823.22	1685.48
823.39	1738.73
823.56	1718.25
823.74	1730.53
823.91	1689.57
824.08	1652.71
824.25	1675.24
824.42	1789.92
824.60	1611.75
824.77	1677.29
824.94	1597.42
825.11	1732.58
825.28	1638.38
825.45	1679.33
825.63	1658.85
825.80	1617.90
825.97	1755.11
826.14	1632.23
826.31	1648.61
826.48	1648.61
826.66	1648.61
826.83	1642.47
827.00	1695.72
827.17	1581.03
827.34	1617.90
827.51	1646.57
827.69	1669.09
827.86	1662.95
828.03	1708.01
828.20	1732.58
828.37	1619.94
828.54	1740.77
828.71	1650.66
828.89	1779.68
829.06	1630.18
829.23	1726.44
829.40	1681.38
829.57	1683.43
829.74	1652.71
829.91	1669.09
830.09	1669.09
830.26	1736.68
830.43	1679.33
830.60	1722.34
830.77	1734.63
830.94	1730.53
831.11	1773.54
831.28	1611.75
831.46	1728.49
831.63	1724.39
831.80	1689.57
831.97	1650.66
832.14	1699.81
832.31	1742.82
832.48	1665.00
832.65	1757.16
832.82	1695.72
832.99	1744.87
833.17	1671.14
833.34	1785.83
833.51	1732.58
833.68	1644.52
833.85	1701.86
834.02	1589.22
834.19	1626.09
834.36	1669.09
834.53	1683.43
834.70	1722.34
834.87	1732.58
835.04	1730.53
835.22	1681.38
835.39	1699.81
835.56	1628.14
835.73	1636.33
835.90	1806.31
836.07	1615.85
836.24	1787.88
836.41	1601.51
836.58	1615.85
836.75	1775.59
836.92	1652.71
837.09	1730.53
837.26	1720.29
837.43	1746.92
837.60	1685.48
837.77	1697.77
837.94	1712.10
838.12	1730.53
838.29	1669.09
838.46	1636.33
838.63	1708.01
838.80	1771.49
838.97	1742.82
839.14	1710.05
839.31	1732.58
839.48	1718.25
839.65	1667.05
839.82	1759.21
839.99	1742.82
840.16	1722.34
840.33	1710.05
840.50	1732.58
840.67	1593.32
840.84	1599.46
841.01	1714.15
841.18	1650.66
841.35	1699.81
841.52	1767.40
841.69	1824.74
841.86	1726.44
842.03	1626.09
842.20	1779.68
842.37	1685.48
842.54	1701.86
842.71	1646.57
842.88	1679.33
843.05	1800.16
843.22	1673.19
843.39	1724.39
843.56	1675.24
843.73	1732.58
843.90	1746.92
844.07	1726.44
844.24	1734.63
844.41	1730.53
844.58	1736.68
844.75	1685.48
844.92	1714.15
845.09	1710.05
845.26	1621.99
845.43	1773.54
845.60	1671.14
845.77	1693.67
845.94	1703.91
846.10	1697.77
846.27	1591.27
846.44	1685.48
846.61	1583.08
846.78	1671.14
846.95	1738.73
847.12	1644.52
847.29	1710.05
847.46	1644.52
847.63	1738.73
847.80	1722.34
847.97	1695.72
848.14	1834.98
848.31	1697.77
848.48	1671.14
848.65	1744.87
848.82	1691.62
848.98	1867.75
849.15	1699.81
849.32	1730.53
849.49	1617.90
849.66	1665.00
849.83	1701.86
850.00	1638.38
850.17	1722.34
850.34	1699.81
850.51	1652.71
850.68	1624.04
850.85	1839.08
851.01	1662.95
851.18	1697.77
851.35	1691.62
851.52	1761.25
851.69	1710.05
851.86	1611.75
852.03	1693.67
852.20	1677.29
852.37	1787.88
852.53	1673.19
852.70	1691.62
852.87	1689.57
853.04	1722.34
853.21	1691.62
853.38	1759.21
853.55	1738.73
853.72	1816.55
853.89	1632.23
854.05	1693.67
854.22	1728.49
854.39	1607.66
854.56	1730.53
854.73	1763.30
854.90	1652.71
855.07	1728.49
855.23	1699.81
855.40	1665.00
855.57	1665.00
855.74	1558.50
855.91	1779.68
856.08	1648.61
856.25	1665.00
856.41	1708.01
856.58	1689.57
856.75	1667.05
856.92	1644.52
857.09	1640.42
857.26	1613.80
857.42	1755.11
857.59	1701.86
857.76	1658.85
857.93	1712.10
858.10	1730.53
858.27	1517.54
858.43	1738.73
858.60	1591.27
858.77	1703.91
858.94	1685.48
859.11	1783.78
859.27	1603.56
859.44	1673.19
859.61	1777.64
859.78	1751.01
859.95	1662.95
860.12	1636.33
860.28	1742.82
860.45	1751.01
860.62	1658.85
860.79	1697.77
860.95	1722.34
861.12	1615.85
861.29	1679.33
861.46	1681.38
861.63	1714.15
861.79	1695.72
861.96	1566.70
862.13	1742.82
862.30	1771.49
862.47	1605.61
862.63	1675.24
862.80	1699.81
862.97	1765.35
863.14	1726.44
863.30	1660.90
863.47	1671.14
863.64	1773.54
863.81	1669.09
863.97	1677.29
864.14	1712.10
864.31	1714.15
864.48	1695.72
864.65	1669.09
864.81	1617.90
864.98	1718.25
865.15	1744.87
865.32	1710.05
865.48	1740.77
865.65	1871.84
865.82	1624.04
865.98	1716.20
866.15	1728.49
866.32	1669.09
866.49	1681.38
866.65	1765.35
866.82	1662.95
866.99	1654.76
867.16	1665.00
867.32	1632.23
867.49	1673.19
867.66	1701.86
867.83	1673.19
867.99	1578.98
868.16	1673.19
868.33	1640.42
868.49	1691.62
868.66	1644.52
868.83	1675.24
868.99	1628.14
869.16	1724.39
869.33	1779.68
869.50	1748.97
869.66	1626.09
869.83	1667.05
870.00	1673.19
870.16	1705.96
870.33	1703.91
870.50	1705.96
870.66	1689.57
870.83	1886.18
871.00	1671.14
871.17	1699.81
871.33	1787.88
871.50	1619.94
871.67	1748.97
871.83	1681.38
872.00	1785.83
872.17	1632.23
872.33	1841.12
872.50	1765.35
872.67	1710.05
872.83	1699.81
873.00	1679.33
873.17	1695.72
873.33	1773.54
873.50	1734.63
873.67	1636.33
873.83	1603.56
874.00	1626.09
874.16	1775.59
874.33	1697.77
874.50	1527.78
874.66	1632.23
874.83	1751.01
875.00	1785.83
875.16	1822.69
875.33	1740.77
875.50	1644.52
875.66	1660.90
875.83	1638.38
875.99	1718.25
876.16	1701.86
876.33	1628.14
876.49	1673.19
876.66	1660.90
876.83	1638.38
876.99	1581.03
877.16	1691.62
877.32	1681.38
877.49	1677.29
877.66	1761.25
877.82	1814.50
877.99	1710.05
878.15	1732.58
878.32	1673.19
878.49	1728.49
878.65	1722.34
878.82	1734.63
878.98	1697.77
879.15	1753.06
879.32	1773.54
879.48	1748.97
879.65	1697.77
879.81	1607.66
879.98	1574.89
880.15	1716.20
880.31	1738.73
880.48	1626.09
880.64	1669.09
880.81	1771.49
880.97	1828.84
881.14	1798.12
881.31	1644.52
881.47	1816.55
881.64	1683.43
881.80	1611.75
881.97	1720.29
882.13	1722.34
882.30	1662.95
882.47	1644.52
882.63	1689.57
882.80	1662.95
882.96	1691.62
883.13	1740.77
883.29	1763.30
883.46	1691.62
883.62	1812.45
883.79	1693.67
883.95	1763.30
884.12	1724.39
884.29	1738.73
884.45	1640.42
884.62	1755.11
884.78	1654.76
884.95	1722.34
885.11	1626.09
885.28	1667.05
885.44	1652.71
885.61	1748.97
885.77	1736.68
885.94	1720.29
886.10	1662.95
886.27	1675.24
886.43	1732.58
886.60	1726.44
886.76	1628.14
886.93	1675.24
887.09	1746.92
887.26	1611.75
887.42	1689.57
887.59	1732.58
887.75	1837.03
887.92	1779.68
888.08	1679.33
888.25	1789.92
888.41	1722.34
888.58	1714.15
888.74	1615.85
888.91	1617.90
>>>>>End Processed Spectral Data<<<<<
