SpectraSuite Data File
++++++++++++++++++++++++++++++++++++
Date: Mon Jun 06 17:15:37 CEST 2016
User: root
Dark Spectrum Present: No
Reference Spectrum Present: No
Number of Sampled Component Spectra: 1
Spectrometers: USB4C02835
Integration Time (usec): 100000 (USB4C02835)
Spectra Averaged: 1 (USB4C02835)
Boxcar Smoothing: 0 (USB4C02835)
Correct for Electrical Dark: No (USB4C02835)
Strobe/Lamp Enabled: No (USB4C02835)
Correct for Detector Non-linearity: No (USB4C02835)
Correct for Stray Light: No (USB4C02835)
Number of Pixels in Processed Spectrum: 3648
>>>>>Begin Processed Spectral Data<<<<<
177.47	1468.39
177.69	1468.39
177.91	1468.39
178.13	1488.87
178.36	1499.11
178.58	1665.00
178.80	1712.10
179.02	1681.38
179.24	1570.79
179.46	1636.33
179.68	1806.31
179.90	1736.68
180.13	1738.73
180.35	1699.81
180.57	1681.38
180.79	1751.01
181.01	1699.81
181.23	1796.07
181.45	1869.80
181.67	1675.24
181.90	1728.49
182.12	1638.38
182.34	1642.47
182.56	1761.25
182.78	1693.67
183.00	1746.92
183.22	1724.39
183.44	1572.84
183.66	1834.98
183.89	1736.68
184.11	1718.25
184.33	1697.77
184.55	1869.80
184.77	1720.29
184.99	1705.96
185.21	1693.67
185.43	1900.52
185.65	1654.76
185.87	1697.77
186.10	1890.28
186.32	1830.88
186.54	1761.25
186.76	1771.49
186.98	1804.26
187.20	1695.72
187.42	1658.85
187.64	1714.15
187.86	1765.35
188.08	1759.21
188.30	1767.40
188.52	1656.81
188.75	1812.45
188.97	1837.03
189.19	1734.63
189.41	1726.44
189.63	1779.68
189.85	1673.19
190.07	1654.76
190.29	1619.94
190.51	1699.81
190.73	1656.81
190.95	1814.50
191.17	1732.58
191.39	1630.18
191.61	1669.09
191.84	1671.14
192.06	1761.25
192.28	1634.28
192.50	1869.80
192.72	1648.61
192.94	1695.72
193.16	1832.93
193.38	1705.96
193.60	1607.66
193.82	1675.24
194.04	1804.26
194.26	1724.39
194.48	1726.44
194.70	1740.77
194.92	1730.53
195.14	1783.78
195.36	1628.14
195.58	1734.63
195.80	1697.77
196.02	1701.86
196.24	1726.44
196.46	1714.15
196.69	1710.05
196.91	1820.64
197.13	1769.44
197.35	1607.66
197.57	1753.06
197.79	1701.86
198.01	1771.49
198.23	1751.01
198.45	1740.77
198.67	1701.86
198.89	1740.77
199.11	1693.67
199.33	1693.67
199.55	1605.61
199.77	1730.53
199.99	1763.30
200.21	1714.15
200.43	1763.30
200.65	1677.29
200.87	1617.90
201.09	1685.48
201.31	1636.33
201.53	1697.77
201.75	1730.53
201.97	1695.72
202.19	1701.86
202.41	1773.54
202.63	1832.93
202.85	1751.01
203.07	1740.77
203.29	1654.76
203.51	1720.29
203.73	1624.04
203.95	1904.61
204.17	1767.40
204.39	1806.31
204.61	1748.97
204.83	1695.72
205.05	1732.58
205.27	1771.49
205.49	1843.17
205.71	1705.96
205.93	1601.51
206.15	1658.85
206.37	1751.01
206.59	1742.82
206.81	1699.81
207.03	1654.76
207.25	1587.18
207.47	1773.54
207.69	1730.53
207.91	1800.16
208.13	1759.21
208.34	1699.81
208.56	1724.39
208.78	1742.82
209.00	1697.77
209.22	1673.19
209.44	1742.82
209.66	1744.87
209.88	1757.16
210.10	1726.44
210.32	1693.67
210.54	1789.92
210.76	1722.34
210.98	1732.58
211.20	1613.80
211.42	1705.96
211.64	1708.01
211.86	1775.59
212.08	1791.97
212.30	1722.34
212.52	1679.33
212.74	1779.68
212.96	1722.34
213.17	1798.12
213.39	1767.40
213.61	1775.59
213.83	1716.20
214.05	1656.81
214.27	1777.64
214.49	1646.57
214.71	1716.20
214.93	1763.30
215.15	1757.16
215.37	1738.73
215.59	1734.63
215.81	1724.39
216.03	1742.82
216.24	1759.21
216.46	1660.90
216.68	1705.96
216.90	1689.57
217.12	1755.11
217.34	1765.35
217.56	1734.63
217.78	1732.58
218.00	1769.44
218.22	1736.68
218.44	1691.62
218.66	1644.52
218.87	1816.55
219.09	1617.90
219.31	1763.30
219.53	1730.53
219.75	1642.47
219.97	1691.62
220.19	1722.34
220.41	1605.61
220.63	1789.92
220.85	1794.02
221.06	1650.66
221.28	1787.88
221.50	1722.34
221.72	1783.78
221.94	1689.57
222.16	1673.19
222.38	1773.54
222.60	1837.03
222.82	1615.85
223.03	1779.68
223.25	1595.37
223.47	1671.14
223.69	1814.50
223.91	1740.77
224.13	1667.05
224.35	1644.52
224.57	1767.40
224.78	1734.63
225.00	1656.81
225.22	1757.16
225.44	1691.62
225.66	1738.73
225.88	1697.77
226.10	1753.06
226.32	1705.96
226.53	1736.68
226.75	1689.57
226.97	1677.29
227.19	1683.43
227.41	1675.24
227.63	1703.91
227.85	1595.37
228.06	1689.57
228.28	1703.91
228.50	1751.01
228.72	1738.73
228.94	1757.16
229.16	1585.13
229.37	1675.24
229.59	1650.66
229.81	1781.73
230.03	1742.82
230.25	1693.67
230.47	1671.14
230.69	1613.80
230.90	1771.49
231.12	1671.14
231.34	1726.44
231.56	1695.72
231.78	1697.77
232.00	1767.40
232.21	1654.76
232.43	1759.21
232.65	1632.23
232.87	1679.33
233.09	1710.05
233.30	1705.96
233.52	1757.16
233.74	1687.53
233.96	1726.44
234.18	1779.68
234.40	1726.44
234.61	1798.12
234.83	1609.70
235.05	1626.09
235.27	1845.22
235.49	1763.30
235.70	1654.76
235.92	1794.02
236.14	1777.64
236.36	1816.55
236.58	1646.57
236.79	1802.21
237.01	1693.67
237.23	1673.19
237.45	1759.21
237.67	1642.47
237.88	1734.63
238.10	1738.73
238.32	1681.38
238.54	1730.53
238.76	1654.76
238.97	1687.53
239.19	1656.81
239.41	1802.21
239.63	1781.73
239.85	1710.05
240.06	1671.14
240.28	1665.00
240.50	1779.68
240.72	1771.49
240.93	1691.62
241.15	1800.16
241.37	1755.11
241.59	1796.07
241.81	1710.05
242.02	1642.47
242.24	1775.59
242.46	1748.97
242.68	1607.66
242.89	1695.72
243.11	1712.10
243.33	1746.92
243.55	1718.25
243.76	1783.78
243.98	1603.56
244.20	1728.49
244.42	1720.29
244.64	1699.81
244.85	1669.09
245.07	1621.99
245.29	1705.96
245.51	1730.53
245.72	1673.19
245.94	1771.49
246.16	1781.73
246.38	1746.92
246.59	1763.30
246.81	1693.67
247.03	1734.63
247.24	1650.66
247.46	1710.05
247.68	1691.62
247.90	1587.18
248.11	1718.25
248.33	1781.73
248.55	1667.05
248.77	1720.29
248.98	1832.93
249.20	1822.69
249.42	1712.10
249.64	1779.68
249.85	1765.35
250.07	1781.73
250.29	1779.68
250.50	1751.01
250.72	1619.94
250.94	1710.05
251.16	1834.98
251.37	1769.44
251.59	1759.21
251.81	1716.20
252.02	1826.79
252.24	1658.85
252.46	1783.78
252.68	1671.14
252.89	1652.71
253.11	1626.09
253.33	1818.60
253.54	1710.05
253.76	1708.01
253.98	1673.19
254.20	1656.81
254.41	1626.09
254.63	1699.81
254.85	1636.33
255.06	1761.25
255.28	1662.95
255.50	1644.52
255.71	1673.19
255.93	1642.47
256.15	1714.15
256.36	1703.91
256.58	1630.18
256.80	1769.44
257.02	1714.15
257.23	1732.58
257.45	1730.53
257.67	1748.97
257.88	1667.05
258.10	1695.72
258.32	1759.21
258.53	1812.45
258.75	1822.69
258.97	1667.05
259.18	1718.25
259.40	1693.67
259.62	1843.17
259.83	1804.26
260.05	1757.16
260.27	2043.87
260.48	1736.68
260.70	1722.34
260.92	1761.25
261.13	1738.73
261.35	1714.15
261.57	1697.77
261.78	1656.81
262.00	1738.73
262.22	1777.64
262.43	1712.10
262.65	1726.44
262.86	1744.87
263.08	1839.08
263.30	1722.34
263.51	1656.81
263.73	1705.96
263.95	1783.78
264.16	1660.90
264.38	1607.66
264.60	1722.34
264.81	1656.81
265.03	1699.81
265.25	1621.99
265.46	1701.86
265.68	1779.68
265.89	1738.73
266.11	1660.90
266.33	1710.05
266.54	1742.82
266.76	1748.97
266.98	1742.82
267.19	1746.92
267.41	1777.64
267.62	1689.57
267.84	1621.99
268.06	1718.25
268.27	1728.49
268.49	1830.88
268.70	1759.21
268.92	1755.11
269.14	1701.86
269.35	1656.81
269.57	1683.43
269.79	1742.82
270.00	1726.44
270.22	1808.36
270.43	1722.34
270.65	1671.14
270.87	1673.19
271.08	1716.20
271.30	1742.82
271.51	1746.92
271.73	1781.73
271.95	1812.45
272.16	1693.67
272.38	1796.07
272.59	1685.48
272.81	1748.97
273.02	1785.83
273.24	1722.34
273.46	1777.64
273.67	1591.27
273.89	1660.90
274.10	1726.44
274.32	1765.35
274.54	1789.92
274.75	1751.01
274.97	1673.19
275.18	1693.67
275.40	1732.58
275.61	1746.92
275.83	1695.72
276.05	1669.09
276.26	1742.82
276.48	1718.25
276.69	1720.29
276.91	1669.09
277.12	1820.64
277.34	1824.74
277.55	1759.21
277.77	1755.11
277.99	1687.53
278.20	1648.61
278.42	1621.99
278.63	1650.66
278.85	1675.24
279.06	1669.09
279.28	1765.35
279.49	1718.25
279.71	1798.12
279.93	1796.07
280.14	1757.16
280.36	1679.33
280.57	1808.36
280.79	1734.63
281.00	1716.20
281.22	1673.19
281.43	1830.88
281.65	1634.28
281.86	1656.81
282.08	1771.49
282.29	1765.35
282.51	1630.18
282.73	1638.38
282.94	1628.14
283.16	1691.62
283.37	1789.92
283.59	1732.58
283.80	1738.73
284.02	1662.95
284.23	1781.73
284.45	1699.81
284.66	1712.10
284.88	1703.91
285.09	1785.83
285.31	1796.07
285.52	1703.91
285.74	1621.99
285.95	1748.97
286.17	1796.07
286.38	1673.19
286.60	1689.57
286.81	1613.80
287.03	1632.23
287.24	1705.96
287.46	1740.77
287.67	1761.25
287.89	1863.65
288.10	1650.66
288.32	1746.92
288.53	1757.16
288.75	1753.06
288.96	1730.53
289.18	1710.05
289.39	1701.86
289.61	1726.44
289.82	1832.93
290.04	1781.73
290.25	1683.43
290.47	1677.29
290.68	1740.77
290.90	1769.44
291.11	1624.04
291.33	1781.73
291.54	1665.00
291.76	1615.85
291.97	1732.58
292.18	1744.87
292.40	1693.67
292.61	1675.24
292.83	1804.26
293.04	1744.87
293.26	1773.54
293.47	1746.92
293.69	1685.48
293.90	1695.72
294.12	1808.36
294.33	1667.05
294.55	1710.05
294.76	1695.72
294.97	1748.97
295.19	1910.75
295.40	1675.24
295.62	1748.97
295.83	1677.29
296.05	1673.19
296.26	1769.44
296.48	1601.51
296.69	1699.81
296.90	1753.06
297.12	1763.30
297.33	1777.64
297.55	1685.48
297.76	1730.53
297.98	1730.53
298.19	1601.51
298.41	1658.85
298.62	1689.57
298.83	1806.31
299.05	1740.77
299.26	1679.33
299.48	1734.63
299.69	1748.97
299.90	1773.54
300.12	1691.62
300.33	1789.92
300.55	1681.38
300.76	1746.92
300.98	1648.61
301.19	1718.25
301.40	1656.81
301.62	1720.29
301.83	1705.96
302.05	1679.33
302.26	1677.29
302.47	1693.67
302.69	1652.71
302.90	1720.29
303.12	1687.53
303.33	1705.96
303.54	1810.40
303.76	1732.58
303.97	1744.87
304.19	1755.11
304.40	1628.14
304.61	1769.44
304.83	1822.69
305.04	1773.54
305.26	1787.88
305.47	1632.23
305.68	1701.86
305.90	1701.86
306.11	1779.68
306.33	1636.33
306.54	1685.48
306.75	1628.14
306.97	1652.71
307.18	1638.38
307.39	1761.25
307.61	1691.62
307.82	1736.68
308.04	1798.12
308.25	1705.96
308.46	1787.88
308.68	1779.68
308.89	1724.39
309.10	1757.16
309.32	1826.79
309.53	1689.57
309.74	1755.11
309.96	1681.38
310.17	1767.40
310.39	1734.63
310.60	1759.21
310.81	1794.02
311.03	1705.96
311.24	1695.72
311.45	1734.63
311.67	1908.71
311.88	1783.78
312.09	1654.76
312.31	1720.29
312.52	1669.09
312.73	1615.85
312.95	1667.05
313.16	1675.24
313.37	1810.40
313.59	1722.34
313.80	1777.64
314.01	1787.88
314.23	1710.05
314.44	1691.62
314.65	1660.90
314.87	1634.28
315.08	1701.86
315.29	1710.05
315.51	1751.01
315.72	1576.94
315.93	1810.40
316.15	1742.82
316.36	1689.57
316.57	1685.48
316.79	1738.73
317.00	1777.64
317.21	1767.40
317.43	1619.94
317.64	1714.15
317.85	1712.10
318.07	1654.76
318.28	1708.01
318.49	1832.93
318.70	1843.17
318.92	1800.16
319.13	1849.32
319.34	1837.03
319.56	1798.12
319.77	1806.31
319.98	1808.36
320.20	1845.22
320.41	1777.64
320.62	1765.35
320.83	1619.94
321.05	1832.93
321.26	1697.77
321.47	1724.39
321.69	1746.92
321.90	1640.42
322.11	1705.96
322.32	1843.17
322.54	1824.74
322.75	1703.91
322.96	1796.07
323.18	1660.90
323.39	1624.04
323.60	1654.76
323.81	1759.21
324.03	1644.52
324.24	1693.67
324.45	1660.90
324.66	1714.15
324.88	1740.77
325.09	1832.93
325.30	1642.47
325.52	1679.33
325.73	1753.06
325.94	1578.98
326.15	1673.19
326.37	1665.00
326.58	1673.19
326.79	1791.97
327.00	1652.71
327.22	1783.78
327.43	1652.71
327.64	1699.81
327.85	1669.09
328.07	1710.05
328.28	1820.64
328.49	1665.00
328.70	1732.58
328.92	1738.73
329.13	1730.53
329.34	1740.77
329.55	1775.59
329.76	1755.11
329.98	1667.05
330.19	1845.22
330.40	1734.63
330.61	1703.91
330.83	1783.78
331.04	1697.77
331.25	1808.36
331.46	1683.43
331.68	1679.33
331.89	1789.92
332.10	1769.44
332.31	1632.23
332.52	1738.73
332.74	1771.49
332.95	1634.28
333.16	1699.81
333.37	1800.16
333.58	1646.57
333.80	1714.15
334.01	1691.62
334.22	1650.66
334.43	1693.67
334.64	1724.39
334.86	1658.85
335.07	1691.62
335.28	1847.27
335.49	1619.94
335.70	1769.44
335.92	1736.68
336.13	1837.03
336.34	1744.87
336.55	1773.54
336.76	1742.82
336.98	1613.80
337.19	1755.11
337.40	1757.16
337.61	1918.95
337.82	1652.71
338.04	1742.82
338.25	1685.48
338.46	1732.58
338.67	1777.64
338.88	1677.29
339.09	1568.74
339.31	1634.28
339.52	1634.28
339.73	1681.38
339.94	1712.10
340.15	1777.64
340.36	1685.48
340.58	1695.72
340.79	1630.18
341.00	1802.21
341.21	1636.33
341.42	1888.23
341.63	1712.10
341.85	1712.10
342.06	1744.87
342.27	1693.67
342.48	1714.15
342.69	1705.96
342.90	1722.34
343.12	1771.49
343.33	1714.15
343.54	1763.30
343.75	1773.54
343.96	1720.29
344.17	1658.85
344.38	1683.43
344.60	1734.63
344.81	1660.90
345.02	1712.10
345.23	1828.84
345.44	1806.31
345.65	1746.92
345.86	1785.83
346.07	1693.67
346.29	1744.87
346.50	1789.92
346.71	1804.26
346.92	1826.79
347.13	1804.26
347.34	1746.92
347.55	1701.86
347.76	1730.53
347.98	1638.38
348.19	1716.20
348.40	1703.91
348.61	1726.44
348.82	1771.49
349.03	1785.83
349.24	1658.85
349.45	1781.73
349.66	1568.74
349.88	1765.35
350.09	1660.90
350.30	1767.40
350.51	1763.30
350.72	1673.19
350.93	1755.11
351.14	1677.29
351.35	1699.81
351.56	1695.72
351.77	1718.25
351.99	1703.91
352.20	1796.07
352.41	1746.92
352.62	1677.29
352.83	1675.24
353.04	1708.01
353.25	1794.02
353.46	1806.31
353.67	1730.53
353.88	1658.85
354.09	1759.21
354.30	1736.68
354.52	1767.40
354.73	1779.68
354.94	1691.62
355.15	1718.25
355.36	1830.88
355.57	1648.61
355.78	1753.06
355.99	1658.85
356.20	1804.26
356.41	1787.88
356.62	1716.20
356.83	1665.00
357.04	1773.54
357.25	1675.24
357.46	1667.05
357.68	1667.05
357.89	1619.94
358.10	1716.20
358.31	1710.05
358.52	1701.86
358.73	1705.96
358.94	1677.29
359.15	1767.40
359.36	1812.45
359.57	1675.24
359.78	1732.58
359.99	1662.95
360.20	1665.00
360.41	1632.23
360.62	1767.40
360.83	1751.01
361.04	1701.86
361.25	1705.96
361.46	1822.69
361.67	1744.87
361.88	1740.77
362.09	1642.47
362.30	1779.68
362.51	1628.14
362.72	1757.16
362.93	1740.77
363.14	1710.05
363.35	1791.97
363.56	1638.38
363.78	1710.05
363.99	1759.21
364.20	1669.09
364.41	1761.25
364.62	1787.88
364.83	1746.92
365.04	1695.72
365.25	1591.27
365.46	1794.02
365.67	1703.91
365.88	1640.42
366.09	1673.19
366.30	1691.62
366.51	1710.05
366.72	1542.12
366.93	1720.29
367.14	1656.81
367.35	1814.50
367.56	1742.82
367.77	1828.84
367.98	1644.52
368.18	1783.78
368.39	1785.83
368.60	1667.05
368.81	1779.68
369.02	1787.88
369.23	1708.01
369.44	1607.66
369.65	1632.23
369.86	1746.92
370.07	1753.06
370.28	1687.53
370.49	1744.87
370.70	1751.01
370.91	1650.66
371.12	1599.46
371.33	1759.21
371.54	1658.85
371.75	1781.73
371.96	1648.61
372.17	1658.85
372.38	1685.48
372.59	1763.30
372.80	1744.87
373.01	1746.92
373.22	1734.63
373.43	1673.19
373.64	1665.00
373.85	1804.26
374.06	1773.54
374.26	1755.11
374.47	1710.05
374.68	1857.51
374.89	1695.72
375.10	1691.62
375.31	1748.97
375.52	1740.77
375.73	1738.73
375.94	1685.48
376.15	1806.31
376.36	1732.58
376.57	1675.24
376.78	1712.10
376.99	1822.69
377.20	1740.77
377.40	1751.01
377.61	1767.40
377.82	1658.85
378.03	1849.32
378.24	1708.01
378.45	1708.01
378.66	1744.87
378.87	1617.90
379.08	1634.28
379.29	1705.96
379.50	1820.64
379.71	1693.67
379.91	1755.11
380.12	1740.77
380.33	1748.97
380.54	1720.29
380.75	1689.57
380.96	1736.68
381.17	1777.64
381.38	1761.25
381.59	1673.19
381.80	1767.40
382.00	1945.57
382.21	1693.67
382.42	1873.89
382.63	1873.89
382.84	1759.21
383.05	1824.74
383.26	1832.93
383.47	1740.77
383.68	1785.83
383.88	1726.44
384.09	1794.02
384.30	1884.13
384.51	1697.77
384.72	1708.01
384.93	1665.00
385.14	1669.09
385.35	1695.72
385.55	1642.47
385.76	1787.88
385.97	1703.91
386.18	1648.61
386.39	1699.81
386.60	1787.88
386.81	1755.11
387.02	1624.04
387.22	1673.19
387.43	1691.62
387.64	1800.16
387.85	1910.75
388.06	2244.57
388.27	4237.25
388.48	6696.86
388.68	8288.13
388.89	9660.27
389.10	9840.49
389.31	8689.53
389.52	7442.32
389.73	6813.59
389.93	6174.63
390.14	6016.93
390.35	5189.55
390.56	4569.02
390.77	3780.55
390.98	3090.38
391.18	2537.43
391.39	2142.18
391.60	1900.52
391.81	1742.82
392.02	1730.53
392.23	1843.17
392.43	1779.68
392.64	1853.41
392.85	1787.88
393.06	1763.30
393.27	1642.47
393.47	1722.34
393.68	1783.78
393.89	1673.19
394.10	1730.53
394.31	1714.15
394.52	1632.23
394.72	1740.77
394.93	1785.83
395.14	1695.72
395.35	1759.21
395.56	1695.72
395.76	1779.68
395.97	1746.92
396.18	1851.36
396.39	1816.55
396.60	2058.21
396.80	1923.04
397.01	1912.80
397.22	1880.04
397.43	1820.64
397.64	1669.09
397.84	1804.26
398.05	1845.22
398.26	1740.77
398.47	1853.41
398.67	1828.84
398.88	1742.82
399.09	1791.97
399.30	1689.57
399.51	1728.49
399.71	1675.24
399.92	1712.10
400.13	1708.01
400.34	1740.77
400.54	1738.73
400.75	1777.64
400.96	1716.20
401.17	1828.84
401.37	1679.33
401.58	1660.90
401.79	1759.21
402.00	1920.99
402.21	2002.91
402.41	2025.44
402.62	2007.01
402.83	1984.48
403.04	2002.91
403.24	2062.30
403.45	1857.51
403.66	2007.01
403.87	1918.95
404.07	1890.28
404.28	1867.75
404.49	1847.27
404.70	1800.16
404.90	1755.11
405.11	1818.60
405.32	1779.68
405.52	1718.25
405.73	1695.72
405.94	1689.57
406.15	1763.30
406.35	1779.68
406.56	1800.16
406.77	1699.81
406.98	1812.45
407.18	1615.85
407.39	1767.40
407.60	1714.15
407.80	1648.61
408.01	1753.06
408.22	1767.40
408.43	1681.38
408.63	1804.26
408.84	1785.83
409.05	1787.88
409.25	1730.53
409.46	1675.24
409.67	1648.61
409.88	1699.81
410.08	1744.87
410.29	1632.23
410.50	1834.98
410.70	1724.39
410.91	1681.38
411.12	1810.40
411.32	1685.48
411.53	1665.00
411.74	1845.22
411.95	1757.16
412.15	1800.16
412.36	1816.55
412.57	1775.59
412.77	1716.20
412.98	1636.33
413.19	1710.05
413.39	1726.44
413.60	1759.21
413.81	1873.89
414.01	1658.85
414.22	1814.50
414.43	1761.25
414.63	1748.97
414.84	1781.73
415.05	1775.59
415.25	1650.66
415.46	1773.54
415.67	1667.05
415.87	1705.96
416.08	1724.39
416.29	1716.20
416.49	1765.35
416.70	1755.11
416.91	1667.05
417.11	1660.90
417.32	1763.30
417.53	1746.92
417.73	1804.26
417.94	1683.43
418.15	1722.34
418.35	1667.05
418.56	1693.67
418.77	1857.51
418.97	1755.11
419.18	1689.57
419.38	1621.99
419.59	1736.68
419.80	1810.40
420.00	1693.67
420.21	1724.39
420.42	1855.46
420.62	1730.53
420.83	1685.48
421.04	1667.05
421.24	1665.00
421.45	1751.01
421.65	1789.92
421.86	1716.20
422.07	1771.49
422.27	1800.16
422.48	1761.25
422.69	1701.86
422.89	1699.81
423.10	1748.97
423.30	1673.19
423.51	1665.00
423.72	1628.14
423.92	1777.64
424.13	1624.04
424.33	1765.35
424.54	1783.78
424.75	1755.11
424.95	1794.02
425.16	1769.44
425.36	1642.47
425.57	1708.01
425.78	1738.73
425.98	1787.88
426.19	1730.53
426.39	1728.49
426.60	1720.29
426.81	1910.75
427.01	1699.81
427.22	1708.01
427.42	1589.22
427.63	1716.20
427.83	1732.58
428.04	1886.18
428.25	1765.35
428.45	1845.22
428.66	1744.87
428.86	1718.25
429.07	1834.98
429.28	1708.01
429.48	1675.24
429.69	1693.67
429.89	1722.34
430.10	1669.09
430.30	1751.01
430.51	1777.64
430.71	1730.53
430.92	1667.05
431.13	1630.18
431.33	1755.11
431.54	1746.92
431.74	1843.17
431.95	1818.60
432.15	1681.38
432.36	1724.39
432.56	1791.97
432.77	1812.45
432.98	1802.21
433.18	1738.73
433.39	1722.34
433.59	1746.92
433.80	1740.77
434.00	1918.95
434.21	1693.67
434.41	1701.86
434.62	1853.41
434.82	1671.14
435.03	1648.61
435.23	1765.35
435.44	1634.28
435.64	1763.30
435.85	1710.05
436.06	1708.01
436.26	1798.12
436.47	1685.48
436.67	1683.43
436.88	1779.68
437.08	1734.63
437.29	1796.07
437.49	1744.87
437.70	1722.34
437.90	1730.53
438.11	1869.80
438.31	1724.39
438.52	1945.57
438.72	1812.45
438.93	1816.55
439.13	1787.88
439.34	1861.60
439.54	1730.53
439.75	1888.23
439.95	1787.88
440.16	1730.53
440.36	1810.40
440.57	1771.49
440.77	1765.35
440.98	1716.20
441.18	1810.40
441.39	1712.10
441.59	1636.33
441.80	1871.84
442.00	1726.44
442.21	1875.94
442.41	1658.85
442.62	1812.45
442.82	1720.29
443.02	1730.53
443.23	1736.68
443.43	1677.29
443.64	1824.74
443.84	1671.14
444.05	1832.93
444.25	1695.72
444.46	1673.19
444.66	1808.36
444.87	1746.92
445.07	1673.19
445.28	1742.82
445.48	1882.08
445.69	1841.12
445.89	1886.18
446.09	1773.54
446.30	2004.96
446.50	2572.25
446.71	3606.47
446.91	4294.59
447.12	4677.56
447.32	4990.90
447.53	4171.71
447.73	3930.05
447.93	3579.85
448.14	3370.96
448.34	3155.92
448.55	2879.44
448.75	2871.25
448.96	2742.23
449.16	2504.67
449.36	2287.58
449.57	2047.97
449.77	1871.84
449.98	1806.31
450.18	1794.02
450.39	1871.84
450.59	1718.25
450.79	1708.01
451.00	1746.92
451.20	1791.97
451.41	1716.20
451.61	1814.50
451.81	1699.81
452.02	1644.52
452.22	1802.21
452.43	1634.28
452.63	1730.53
452.84	1748.97
453.04	1681.38
453.24	1691.62
453.45	1705.96
453.65	1734.63
453.86	1808.36
454.06	1791.97
454.26	1720.29
454.47	1736.68
454.67	1853.41
454.87	1732.58
455.08	1730.53
455.28	1855.46
455.49	1789.92
455.69	1714.15
455.89	1910.75
456.10	1810.40
456.30	1677.29
456.51	1789.92
456.71	1789.92
456.91	1755.11
457.12	1712.10
457.32	1796.07
457.52	1599.46
457.73	1853.41
457.93	1730.53
458.14	1771.49
458.34	1695.72
458.54	1755.11
458.75	1708.01
458.95	1736.68
459.15	1806.31
459.36	1744.87
459.56	1794.02
459.76	1855.46
459.97	1759.21
460.17	1691.62
460.37	1804.26
460.58	1771.49
460.78	1855.46
460.99	1746.92
461.19	1820.64
461.39	1720.29
461.60	1710.05
461.80	1820.64
462.00	1712.10
462.21	1693.67
462.41	1652.71
462.61	1755.11
462.82	1642.47
463.02	1796.07
463.22	1697.77
463.43	1839.08
463.63	1726.44
463.83	1810.40
464.04	1783.78
464.24	1685.48
464.44	1701.86
464.64	1757.16
464.85	1746.92
465.05	1751.01
465.25	1740.77
465.46	1724.39
465.66	1794.02
465.86	1787.88
466.07	1669.09
466.27	1746.92
466.47	1685.48
466.68	1589.22
466.88	1806.31
467.08	1738.73
467.29	1783.78
467.49	1757.16
467.69	1689.57
467.89	1791.97
468.10	1736.68
468.30	1763.30
468.50	1841.12
468.71	1746.92
468.91	1615.85
469.11	1824.74
469.31	1865.70
469.52	1673.19
469.72	1855.46
469.92	1791.97
470.13	1695.72
470.33	1718.25
470.53	1771.49
470.73	2193.37
470.94	2258.91
471.14	2293.72
471.34	2609.11
471.54	2424.80
471.75	2326.49
471.95	2179.04
472.15	2127.84
472.36	2068.45
472.56	2078.69
472.76	2041.82
472.96	1959.91
473.17	1910.75
473.37	1910.75
473.57	1769.44
473.77	1794.02
473.98	1720.29
474.18	1679.33
474.38	1875.94
474.58	1734.63
474.79	1710.05
474.99	1783.78
475.19	1794.02
475.39	1755.11
475.60	1828.84
475.80	1693.67
476.00	1759.21
476.20	1720.29
476.41	1740.77
476.61	1808.36
476.81	1798.12
477.01	1665.00
477.21	1857.51
477.42	1806.31
477.62	1710.05
477.82	1804.26
478.02	1679.33
478.23	1732.58
478.43	1691.62
478.63	1679.33
478.83	1771.49
479.03	1728.49
479.24	1820.64
479.44	1898.47
479.64	1693.67
479.84	1640.42
480.04	1720.29
480.25	1781.73
480.45	1660.90
480.65	1718.25
480.85	1714.15
481.06	1646.57
481.26	1679.33
481.46	1773.54
481.66	1710.05
481.86	1660.90
482.06	1818.60
482.27	1705.96
482.47	1734.63
482.67	1769.44
482.87	1703.91
483.07	1849.32
483.28	1730.53
483.48	1673.19
483.68	1667.05
483.88	1636.33
484.08	1548.26
484.29	1699.81
484.49	1736.68
484.69	1685.48
484.89	1867.75
485.09	1789.92
485.29	1730.53
485.50	1753.06
485.70	1712.10
485.90	1748.97
486.10	1738.73
486.30	1730.53
486.50	1839.08
486.71	1726.44
486.91	1773.54
487.11	1777.64
487.31	1652.71
487.51	1789.92
487.71	1626.09
487.91	1624.04
488.12	1730.53
488.32	1599.46
488.52	1716.20
488.72	1615.85
488.92	1699.81
489.12	1753.06
489.32	1859.56
489.53	1759.21
489.73	1605.61
489.93	1810.40
490.13	1679.33
490.33	1628.14
490.53	1730.53
490.73	1800.16
490.94	1724.39
491.14	1746.92
491.34	1828.84
491.54	2133.98
491.74	2512.86
491.94	2926.55
492.14	2992.08
492.34	3133.39
492.54	2777.05
492.75	2549.72
492.95	2490.33
493.15	2340.83
493.35	2269.15
493.55	2234.33
493.75	2205.66
493.95	2215.90
494.15	2037.73
494.35	1929.19
494.56	1892.32
494.76	1800.16
494.96	1820.64
495.16	1761.25
495.36	1767.40
495.56	1771.49
495.76	1771.49
495.96	1798.12
496.16	1701.86
496.36	1822.69
496.56	1712.10
496.77	1806.31
496.97	1755.11
497.17	1728.49
497.37	1658.85
497.57	1710.05
497.77	1736.68
497.97	1708.01
498.17	1689.57
498.37	1708.01
498.57	1865.70
498.77	1722.34
498.97	1808.36
499.17	1894.37
499.38	1734.63
499.58	1828.84
499.78	1761.25
499.98	1720.29
500.18	1796.07
500.38	1665.00
500.58	1943.52
500.78	2480.09
500.98	4433.85
501.18	5941.16
501.38	6858.65
501.58	7079.83
501.78	6762.39
501.98	5537.71
502.18	4970.42
502.38	4431.80
502.58	4267.97
502.78	3755.97
502.98	3680.20
503.18	3512.27
503.38	3203.02
503.59	2770.90
503.79	2643.93
503.99	2508.76
504.19	2246.62
504.39	2248.67
504.59	2111.46
504.79	2168.80
504.99	2033.63
505.19	2000.87
505.39	1894.37
505.59	1949.67
505.79	1890.28
505.99	1871.84
506.19	1869.80
506.39	1869.80
506.59	1748.97
506.79	1701.86
506.99	1916.90
507.19	1701.86
507.39	1753.06
507.59	1665.00
507.79	1681.38
507.99	1757.16
508.19	1728.49
508.39	1648.61
508.59	1695.72
508.79	1755.11
508.99	1830.88
509.19	1732.58
509.39	1877.99
509.59	1744.87
509.79	1660.90
509.99	1820.64
510.19	1771.49
510.39	1781.73
510.59	1753.06
510.79	1673.19
510.99	1726.44
511.19	1804.26
511.39	1818.60
511.59	1837.03
511.79	1816.55
511.99	1689.57
512.19	1785.83
512.38	1783.78
512.58	1691.62
512.78	1728.49
512.98	1775.59
513.18	1855.46
513.38	1726.44
513.58	1820.64
513.78	1708.01
513.98	1781.73
514.18	1701.86
514.38	1656.81
514.58	1794.02
514.78	1636.33
514.98	1660.90
515.18	1669.09
515.38	1722.34
515.58	1855.46
515.78	1724.39
515.98	1740.77
516.18	1742.82
516.38	1740.77
516.57	1767.40
516.77	1683.43
516.97	1720.29
517.17	1701.86
517.37	1617.90
517.57	1820.64
517.77	1714.15
517.97	1730.53
518.17	1830.88
518.37	1681.38
518.57	1720.29
518.77	1722.34
518.97	1804.26
519.16	1773.54
519.36	1824.74
519.56	1812.45
519.76	1718.25
519.96	1746.92
520.16	1875.94
520.36	1708.01
520.56	1742.82
520.76	1652.71
520.96	1675.24
521.16	1695.72
521.35	1824.74
521.55	1800.16
521.75	1724.39
521.95	1685.48
522.15	1701.86
522.35	1722.34
522.55	1681.38
522.75	1847.27
522.95	1830.88
523.14	1718.25
523.34	1748.97
523.54	1730.53
523.74	1781.73
523.94	1738.73
524.14	1632.23
524.34	1763.30
524.54	1794.02
524.73	1730.53
524.93	1791.97
525.13	1753.06
525.33	1660.90
525.53	1906.66
525.73	1787.88
525.93	1820.64
526.13	1771.49
526.32	1796.07
526.52	1832.93
526.72	1877.99
526.92	1765.35
527.12	1748.97
527.32	1591.27
527.52	1763.30
527.71	1734.63
527.91	1728.49
528.11	1683.43
528.31	1703.91
528.51	1769.44
528.71	1808.36
528.90	1804.26
529.10	1794.02
529.30	1757.16
529.50	1574.89
529.70	1771.49
529.90	1724.39
530.09	1708.01
530.29	1609.70
530.49	1658.85
530.69	1906.66
530.89	1742.82
531.09	1779.68
531.28	1765.35
531.48	1800.16
531.68	1712.10
531.88	1695.72
532.08	1800.16
532.28	1691.62
532.47	1796.07
532.67	1796.07
532.87	1806.31
533.07	1710.05
533.27	1763.30
533.46	1755.11
533.66	1683.43
533.86	1738.73
534.06	1669.09
534.26	1781.73
534.45	1675.24
534.65	1816.55
534.85	1734.63
535.05	1761.25
535.25	1837.03
535.44	1654.76
535.64	1763.30
535.84	1718.25
536.04	1695.72
536.24	1763.30
536.43	1705.96
536.63	1765.35
536.83	1751.01
537.03	1757.16
537.22	1689.57
537.42	1691.62
537.62	1757.16
537.82	1703.91
538.02	1748.97
538.21	1855.46
538.41	1865.70
538.61	1718.25
538.81	1746.92
539.00	1849.32
539.20	1646.57
539.40	1658.85
539.60	1693.67
539.79	1771.49
539.99	1771.49
540.19	1765.35
540.39	1796.07
540.58	1732.58
540.78	1771.49
540.98	1720.29
541.18	1861.60
541.37	1798.12
541.57	1773.54
541.77	1718.25
541.97	1701.86
542.16	1650.66
542.36	1779.68
542.56	1877.99
542.76	1816.55
542.95	1789.92
543.15	1730.53
543.35	1771.49
543.54	1742.82
543.74	1738.73
543.94	1746.92
544.14	1699.81
544.33	1728.49
544.53	1785.83
544.73	1773.54
544.93	1724.39
545.12	1656.81
545.32	1712.10
545.52	1746.92
545.71	1722.34
545.91	1808.36
546.11	1746.92
546.30	1683.43
546.50	1691.62
546.70	1757.16
546.90	1742.82
547.09	1593.32
547.29	1708.01
547.49	1808.36
547.68	1671.14
547.88	1789.92
548.08	1894.37
548.27	2197.47
548.47	1736.68
548.67	1685.48
548.87	1812.45
549.06	1726.44
549.26	1837.03
549.46	1800.16
549.65	1763.30
549.85	1796.07
550.05	1705.96
550.24	1636.33
550.44	1775.59
550.64	1755.11
550.83	1771.49
551.03	1748.97
551.23	1812.45
551.42	1871.84
551.62	1767.40
551.82	1806.31
552.01	1718.25
552.21	1849.32
552.41	1787.88
552.60	1794.02
552.80	1755.11
553.00	1685.48
553.19	1751.01
553.39	1826.79
553.59	1658.85
553.78	1751.01
553.98	1728.49
554.17	1634.28
554.37	1751.01
554.57	1773.54
554.76	1648.61
554.96	1718.25
555.16	1742.82
555.35	1857.51
555.55	1767.40
555.75	1746.92
555.94	1763.30
556.14	1679.33
556.33	1820.64
556.53	1755.11
556.73	1773.54
556.92	1800.16
557.12	1832.93
557.32	1804.26
557.51	1861.60
557.71	1763.30
557.90	1841.12
558.10	1785.83
558.30	1761.25
558.49	1665.00
558.69	1755.11
558.88	1826.79
559.08	1769.44
559.28	1740.77
559.47	1746.92
559.67	1728.49
559.86	1853.41
560.06	1771.49
560.26	1724.39
560.45	1759.21
560.65	1773.54
560.84	1853.41
561.04	1697.77
561.24	1812.45
561.43	1683.43
561.63	1927.14
561.82	1720.29
562.02	1763.30
562.22	1667.05
562.41	1736.68
562.61	1699.81
562.80	1726.44
563.00	1892.32
563.19	1773.54
563.39	1839.08
563.59	1755.11
563.78	1654.76
563.98	1609.70
564.17	1703.91
564.37	1660.90
564.56	1732.58
564.76	1748.97
564.96	1736.68
565.15	1730.53
565.35	1869.80
565.54	1714.15
565.74	1826.79
565.93	1751.01
566.13	1769.44
566.32	1775.59
566.52	1748.97
566.71	1794.02
566.91	1802.21
567.11	1796.07
567.30	1757.16
567.50	1757.16
567.69	1722.34
567.89	1740.77
568.08	1697.77
568.28	1742.82
568.47	1656.81
568.67	1769.44
568.86	1679.33
569.06	1808.36
569.25	1693.67
569.45	1683.43
569.64	1695.72
569.84	1730.53
570.04	1697.77
570.23	1746.92
570.43	1685.48
570.62	1849.32
570.82	1828.84
571.01	1703.91
571.21	1648.61
571.40	1718.25
571.60	1849.32
571.79	1763.30
571.99	1820.64
572.18	1685.48
572.38	1767.40
572.57	1728.49
572.77	1783.78
572.96	1880.04
573.16	1740.77
573.35	1726.44
573.55	1869.80
573.74	1802.21
573.94	1726.44
574.13	1724.39
574.33	1775.59
574.52	1814.50
574.71	1769.44
574.91	1771.49
575.10	1634.28
575.30	1773.54
575.49	1716.20
575.69	1685.48
575.88	1718.25
576.08	1732.58
576.27	1814.50
576.47	1687.53
576.66	1841.12
576.86	1742.82
577.05	1761.25
577.25	1804.26
577.44	1908.71
577.64	1691.62
577.83	1740.77
578.02	1738.73
578.22	1902.56
578.41	1837.03
578.61	1677.29
578.80	1716.20
579.00	1767.40
579.19	1701.86
579.39	1798.12
579.58	1826.79
579.77	1740.77
579.97	1847.27
580.16	1888.23
580.36	1824.74
580.55	1773.54
580.75	1812.45
580.94	1832.93
581.13	1810.40
581.33	1810.40
581.52	1740.77
581.72	1888.23
581.91	1910.75
582.11	1746.92
582.30	1783.78
582.49	1779.68
582.69	1902.56
582.88	1773.54
583.08	1785.83
583.27	1759.21
583.47	1751.01
583.66	1742.82
583.85	1730.53
584.05	1767.40
584.24	1759.21
584.44	1800.16
584.63	1830.88
584.82	1791.97
585.02	1748.97
585.21	1771.49
585.41	1853.41
585.60	1740.77
585.79	1961.95
585.99	1894.37
586.18	1904.61
586.37	2191.33
586.57	3246.03
586.76	9989.99
586.96	24282.77
587.15	34291.19
587.34	40091.04
587.54	41909.63
587.73	36117.98
587.93	26252.91
588.12	21325.50
588.31	18071.28
588.51	16215.82
588.70	14946.08
588.89	13967.15
589.09	12515.14
589.28	10858.33
589.47	9289.59
589.67	8013.70
589.86	6260.64
590.06	4923.32
590.25	3831.75
590.44	3147.73
590.64	2629.59
590.83	2273.25
591.02	2093.02
591.22	1992.67
591.41	1964.00
591.60	1890.28
591.80	1947.62
591.99	1730.53
592.18	1871.84
592.38	1857.51
592.57	1785.83
592.76	1744.87
592.96	1746.92
593.15	1785.83
593.34	1882.08
593.54	1789.92
593.73	1814.50
593.92	1777.64
594.12	1771.49
594.31	1804.26
594.50	1804.26
594.70	1763.30
594.89	1888.23
595.08	1695.72
595.28	1798.12
595.47	1927.14
595.66	1808.36
595.86	1683.43
596.05	1785.83
596.24	1693.67
596.43	1896.42
596.63	1814.50
596.82	1769.44
597.01	1886.18
597.21	1822.69
597.40	1859.56
597.59	1728.49
597.79	1755.11
597.98	1886.18
598.17	1804.26
598.36	1814.50
598.56	1722.34
598.75	1740.77
598.94	1763.30
599.14	1763.30
599.33	1769.44
599.52	1804.26
599.71	1679.33
599.91	1804.26
600.10	1830.88
600.29	1710.05
600.48	1769.44
600.68	1822.69
600.87	1783.78
601.06	1697.77
601.26	1781.73
601.45	1791.97
601.64	1751.01
601.83	1822.69
602.03	1742.82
602.22	1736.68
602.41	1808.36
602.60	1961.95
602.80	1853.41
602.99	1726.44
603.18	1748.97
603.37	1685.48
603.57	1794.02
603.76	1710.05
603.95	1818.60
604.14	1660.90
604.34	1658.85
604.53	1841.12
604.72	1710.05
604.91	1822.69
605.10	1769.44
605.30	1681.38
605.49	1865.70
605.68	1822.69
605.87	1710.05
606.07	1701.86
606.26	1722.34
606.45	1763.30
606.64	1785.83
606.84	1722.34
607.03	1718.25
607.22	1787.88
607.41	1783.78
607.60	1722.34
607.80	1808.36
607.99	1681.38
608.18	1630.18
608.37	1677.29
608.56	1699.81
608.76	1712.10
608.95	1781.73
609.14	1734.63
609.33	1726.44
609.52	1820.64
609.72	1789.92
609.91	1755.11
610.10	1738.73
610.29	1828.84
610.48	1806.31
610.68	1726.44
610.87	1726.44
611.06	1701.86
611.25	1781.73
611.44	1812.45
611.63	1742.82
611.83	1759.21
612.02	1697.77
612.21	1859.56
612.40	1613.80
612.59	1710.05
612.79	1632.23
612.98	1730.53
613.17	1830.88
613.36	1710.05
613.55	1820.64
613.74	1712.10
613.93	1605.61
614.13	1720.29
614.32	1730.53
614.51	1789.92
614.70	1699.81
614.89	1724.39
615.08	1806.31
615.28	2129.89
615.47	1697.77
615.66	1791.97
615.85	1771.49
616.04	1808.36
616.23	1675.24
616.42	1755.11
616.62	1746.92
616.81	1746.92
617.00	1773.54
617.19	1832.93
617.38	1691.62
617.57	1734.63
617.76	1761.25
617.95	1714.15
618.15	1685.48
618.34	1769.44
618.53	1679.33
618.72	1822.69
618.91	1816.55
619.10	1816.55
619.29	1759.21
619.48	1714.15
619.68	1701.86
619.87	1691.62
620.06	1650.66
620.25	1742.82
620.44	1673.19
620.63	1720.29
620.82	1773.54
621.01	1681.38
621.20	1796.07
621.39	1726.44
621.59	1779.68
621.78	1710.05
621.97	1808.36
622.16	1746.92
622.35	1712.10
622.54	1791.97
622.73	1849.32
622.92	1626.09
623.11	1730.53
623.30	1634.28
623.49	1791.97
623.68	1738.73
623.88	1769.44
624.07	1648.61
624.26	1734.63
624.45	1826.79
624.64	1734.63
624.83	1722.34
625.02	1775.59
625.21	1783.78
625.40	1703.91
625.59	1781.73
625.78	1738.73
625.97	1755.11
626.16	1800.16
626.35	1740.77
626.54	1708.01
626.74	1755.11
626.93	1710.05
627.12	1714.15
627.31	1767.40
627.50	1738.73
627.69	1800.16
627.88	1665.00
628.07	1746.92
628.26	1648.61
628.45	1638.38
628.64	1630.18
628.83	1755.11
629.02	1730.53
629.21	1810.40
629.40	1794.02
629.59	1691.62
629.78	1779.68
629.97	1716.20
630.16	1791.97
630.35	1705.96
630.54	1755.11
630.73	1626.09
630.92	1726.44
631.11	1734.63
631.30	1806.31
631.49	1714.15
631.68	1789.92
631.87	1765.35
632.06	1658.85
632.25	1826.79
632.44	1718.25
632.63	1734.63
632.82	1658.85
633.01	1691.62
633.20	1740.77
633.39	1712.10
633.58	1671.14
633.77	1789.92
633.96	1740.77
634.15	1693.67
634.34	1785.83
634.53	1710.05
634.72	1648.61
634.91	1619.94
635.10	1712.10
635.29	1744.87
635.48	1681.38
635.67	1763.30
635.86	1644.52
636.05	1882.08
636.24	1701.86
636.43	1761.25
636.62	1683.43
636.81	1617.90
637.00	1740.77
637.19	1730.53
637.38	1703.91
637.57	1662.95
637.76	1673.19
637.95	1720.29
638.14	1656.81
638.33	1748.97
638.52	1687.53
638.71	1687.53
638.89	1714.15
639.08	1822.69
639.27	1736.68
639.46	1744.87
639.65	1828.84
639.84	1724.39
640.03	1769.44
640.22	1683.43
640.41	1863.65
640.60	1697.77
640.79	1783.78
640.98	1660.90
641.17	1710.05
641.36	1822.69
641.55	1640.42
641.74	1728.49
641.92	1658.85
642.11	1693.67
642.30	1669.09
642.49	1744.87
642.68	1675.24
642.87	1703.91
643.06	1738.73
643.25	1636.33
643.44	1722.34
643.63	1683.43
643.82	1740.77
644.00	1681.38
644.19	1730.53
644.38	1673.19
644.57	1730.53
644.76	1753.06
644.95	1703.91
645.14	1689.57
645.33	1660.90
645.52	1730.53
645.71	1687.53
645.89	1683.43
646.08	1740.77
646.27	1697.77
646.46	1779.68
646.65	1705.96
646.84	1730.53
647.03	1591.27
647.22	1738.73
647.40	1722.34
647.59	1769.44
647.78	1595.37
647.97	1734.63
648.16	1685.48
648.35	1826.79
648.54	1802.21
648.73	1705.96
648.91	1742.82
649.10	1771.49
649.29	1697.77
649.48	1722.34
649.67	1742.82
649.86	1738.73
650.05	1671.14
650.23	1740.77
650.42	1662.95
650.61	1773.54
650.80	1714.15
650.99	1880.04
651.18	1736.68
651.36	1785.83
651.55	1699.81
651.74	1804.26
651.93	1656.81
652.12	1708.01
652.31	1730.53
652.49	1718.25
652.68	1710.05
652.87	1789.92
653.06	1689.57
653.25	1839.08
653.44	1720.29
653.62	1814.50
653.81	1732.58
654.00	1751.01
654.19	1802.21
654.38	1828.84
654.56	1777.64
654.75	1712.10
654.94	1861.60
655.13	1708.01
655.32	1693.67
655.51	1796.07
655.69	1751.01
655.88	1820.64
656.07	1712.10
656.26	1726.44
656.45	1662.95
656.63	1748.97
656.82	1767.40
657.01	1746.92
657.20	1607.66
657.38	1755.11
657.57	1722.34
657.76	1624.04
657.95	1732.58
658.14	1736.68
658.32	1757.16
658.51	1671.14
658.70	1667.05
658.89	1732.58
659.08	1722.34
659.26	1746.92
659.45	1744.87
659.64	1716.20
659.83	1669.09
660.01	1902.56
660.20	1646.57
660.39	1810.40
660.58	1648.61
660.76	1759.21
660.95	1710.05
661.14	1728.49
661.33	1613.80
661.51	1683.43
661.70	1685.48
661.89	1718.25
662.08	1699.81
662.26	1673.19
662.45	1652.71
662.64	1845.22
662.83	1843.17
663.01	1681.38
663.20	1677.29
663.39	1812.45
663.58	1718.25
663.76	1644.52
663.95	1708.01
664.14	1646.57
664.32	1671.14
664.51	1697.77
664.70	1648.61
664.89	1757.16
665.07	1615.85
665.26	1783.78
665.45	1667.05
665.64	1722.34
665.82	1722.34
666.01	1787.88
666.20	1669.09
666.38	1744.87
666.57	1832.93
666.76	2224.09
666.95	4603.83
667.13	10450.78
667.32	15476.50
667.51	17606.39
667.69	19013.34
667.88	17516.28
668.07	12488.51
668.25	9615.21
668.44	8193.92
668.63	7440.27
668.81	6801.30
669.00	6414.24
669.19	5783.46
669.38	5162.93
669.56	4593.59
669.75	3946.44
669.94	3473.36
670.12	2889.68
670.31	2613.21
670.50	2332.64
670.68	1984.48
670.87	1959.91
671.06	1742.82
671.24	1767.40
671.43	1947.62
671.62	1730.53
671.80	1777.64
671.99	1740.77
672.18	1755.11
672.36	1769.44
672.55	1765.35
672.74	1759.21
672.92	1775.59
673.11	1785.83
673.29	1726.44
673.48	1773.54
673.67	1730.53
673.85	1751.01
674.04	1726.44
674.23	1802.21
674.41	1828.84
674.60	1687.53
674.79	1578.98
674.97	1783.78
675.16	1796.07
675.34	1757.16
675.53	1652.71
675.72	1738.73
675.90	1847.27
676.09	1748.97
676.28	1779.68
676.46	1595.37
676.65	1832.93
676.83	1654.76
677.02	1771.49
677.21	1771.49
677.39	1726.44
677.58	1736.68
677.77	1689.57
677.95	1650.66
678.14	1693.67
678.32	1648.61
678.51	1681.38
678.70	1834.98
678.88	1748.97
679.07	1761.25
679.25	1775.59
679.44	1710.05
679.63	1642.47
679.81	1673.19
680.00	1728.49
680.18	1708.01
680.37	1871.84
680.55	1783.78
680.74	1583.08
680.93	1591.27
681.11	1675.24
681.30	1693.67
681.48	1746.92
681.67	1720.29
681.85	1728.49
682.04	1662.95
682.23	1763.30
682.41	1775.59
682.60	1654.76
682.78	1724.39
682.97	1632.23
683.15	1810.40
683.34	1791.97
683.53	1748.97
683.71	1734.63
683.90	1847.27
684.08	1828.84
684.27	1718.25
684.45	1753.06
684.64	1839.08
684.82	1583.08
685.01	1736.68
685.19	1697.77
685.38	1798.12
685.57	1699.81
685.75	1796.07
685.94	1722.34
686.12	1701.86
686.31	1660.90
686.49	1791.97
686.68	1595.37
686.86	1810.40
687.05	1724.39
687.23	1804.26
687.42	1695.72
687.60	1648.61
687.79	1693.67
687.97	1886.18
688.16	1744.87
688.34	1763.30
688.53	1691.62
688.71	1705.96
688.90	1871.84
689.08	1699.81
689.27	1656.81
689.45	1730.53
689.64	1820.64
689.82	1697.77
690.01	1703.91
690.19	1681.38
690.38	1761.25
690.56	1794.02
690.75	1687.53
690.93	1665.00
691.12	1660.90
691.30	1771.49
691.49	1751.01
691.67	1740.77
691.86	1763.30
692.04	1728.49
692.23	1687.53
692.41	1718.25
692.60	1812.45
692.78	1738.73
692.97	1548.26
693.15	1669.09
693.34	1763.30
693.52	1761.25
693.71	1740.77
693.89	1675.24
694.08	1611.75
694.26	1744.87
694.44	1734.63
694.63	1761.25
694.81	1681.38
695.00	1697.77
695.18	1800.16
695.37	1849.32
695.55	1732.58
695.74	1730.53
695.92	1669.09
696.10	1796.07
696.29	1630.18
696.47	1658.85
696.66	1652.71
696.84	1665.00
697.03	1751.01
697.21	1857.51
697.40	2291.68
697.58	1751.01
697.76	1724.39
697.95	1716.20
698.13	1658.85
698.32	1744.87
698.50	1695.72
698.68	1693.67
698.87	1744.87
699.05	1800.16
699.24	1691.62
699.42	1665.00
699.61	1781.73
699.79	1757.16
699.97	1695.72
700.16	1640.42
700.34	1650.66
700.53	1685.48
700.71	1822.69
700.89	1740.77
701.08	1693.67
701.26	1726.44
701.45	2074.59
701.63	1636.33
701.81	1671.14
702.00	1677.29
702.18	1748.97
702.37	1650.66
702.55	1732.58
702.73	1746.92
702.92	1665.00
703.10	1726.44
703.28	1718.25
703.47	1654.76
703.65	1738.73
703.84	1726.44
704.02	1716.20
704.20	1798.12
704.39	1654.76
704.57	1626.09
704.75	1787.88
704.94	1701.86
705.12	1675.24
705.30	1781.73
705.49	2258.91
705.67	4507.58
705.86	9394.03
706.04	12218.18
706.22	14335.78
706.41	15161.11
706.59	13346.61
706.77	9600.88
706.96	7329.68
707.14	6606.75
707.32	6033.32
707.51	5509.04
707.69	4870.07
707.87	4175.81
708.06	3534.79
708.24	2916.31
708.42	2402.27
708.61	2324.44
708.79	1900.52
708.97	1847.27
709.16	1871.84
709.34	1871.84
709.52	1767.40
709.71	1738.73
709.89	1826.79
710.07	1689.57
710.26	1695.72
710.44	1712.10
710.62	1759.21
710.80	1751.01
710.99	1751.01
711.17	1789.92
711.35	1679.33
711.54	1660.90
711.72	1837.03
711.90	1734.63
712.09	1759.21
712.27	1722.34
712.45	1705.96
712.63	1730.53
712.82	1689.57
713.00	1705.96
713.18	1742.82
713.37	1826.79
713.55	1820.64
713.73	1740.77
713.91	1765.35
714.10	1656.81
714.28	1685.48
714.46	1755.11
714.65	1732.58
714.83	1755.11
715.01	1705.96
715.19	1714.15
715.38	1695.72
715.56	1767.40
715.74	1763.30
715.92	1673.19
716.11	1853.41
716.29	1679.33
716.47	1679.33
716.65	1650.66
716.84	1619.94
717.02	1734.63
717.20	1593.32
717.38	1642.47
717.57	1789.92
717.75	1701.86
717.93	1718.25
718.11	1705.96
718.30	1626.09
718.48	1591.27
718.66	1761.25
718.84	1822.69
719.03	1617.90
719.21	1724.39
719.39	1820.64
719.57	1751.01
719.75	1824.74
719.94	1644.52
720.12	1722.34
720.30	1742.82
720.48	1763.30
720.67	1667.05
720.85	1603.56
721.03	1697.77
721.21	1714.15
721.39	1746.92
721.58	1667.05
721.76	1718.25
721.94	1767.40
722.12	1781.73
722.30	1814.50
722.49	1656.81
722.67	1744.87
722.85	1695.72
723.03	1599.46
723.21	1687.53
723.40	1769.44
723.58	1767.40
723.76	1771.49
723.94	1767.40
724.12	1738.73
724.30	1787.88
724.49	1816.55
724.67	1726.44
724.85	1710.05
725.03	1626.09
725.21	1787.88
725.40	1832.93
725.58	1687.53
725.76	1800.16
725.94	1667.05
726.12	1703.91
726.30	1746.92
726.49	1619.94
726.67	1738.73
726.85	1763.30
727.03	1781.73
727.21	2201.57
727.39	2914.26
727.57	3858.37
727.76	4319.17
727.94	4427.71
728.12	4442.04
728.30	3655.62
728.48	2971.60
728.66	2674.65
728.84	2578.39
729.03	2308.06
729.21	2234.33
729.39	2066.40
729.57	1828.84
729.75	1843.17
729.93	1890.28
730.11	1738.73
730.30	1701.86
730.48	1726.44
730.66	1763.30
730.84	1730.53
731.02	1648.61
731.20	1671.14
731.38	1785.83
731.56	1630.18
731.74	1716.20
731.93	1791.97
732.11	1658.85
732.29	1632.23
732.47	1765.35
732.65	1726.44
732.83	1804.26
733.01	1759.21
733.19	1691.62
733.37	1738.73
733.56	1673.19
733.74	1742.82
733.92	1771.49
734.10	1738.73
734.28	1705.96
734.46	1619.94
734.64	1681.38
734.82	1751.01
735.00	1658.85
735.18	1714.15
735.36	1701.86
735.54	1681.38
735.73	1728.49
735.91	1587.18
736.09	1757.16
736.27	1720.29
736.45	1728.49
736.63	1640.42
736.81	1695.72
736.99	1691.62
737.17	1701.86
737.35	1667.05
737.53	1689.57
737.71	1703.91
737.89	1812.45
738.07	1738.73
738.25	1617.90
738.43	1665.00
738.61	1693.67
738.80	1607.66
738.98	1568.74
739.16	1687.53
739.34	1583.08
739.52	1804.26
739.70	1677.29
739.88	1746.92
740.06	1740.77
740.24	1603.56
740.42	1791.97
740.60	1611.75
740.78	1640.42
740.96	1611.75
741.14	1769.44
741.32	1695.72
741.50	1669.09
741.68	1826.79
741.86	1812.45
742.04	1734.63
742.22	1701.86
742.40	1732.58
742.58	1779.68
742.76	1699.81
742.94	1816.55
743.12	1640.42
743.30	1685.48
743.48	1705.96
743.66	1677.29
743.84	1714.15
744.02	1654.76
744.20	1724.39
744.38	1665.00
744.56	1626.09
744.74	1814.50
744.92	1671.14
745.10	1796.07
745.28	1804.26
745.46	1830.88
745.64	1714.15
745.82	1714.15
746.00	1710.05
746.18	1669.09
746.36	1656.81
746.54	1812.45
746.72	1740.77
746.90	1675.24
747.08	1771.49
747.26	1703.91
747.44	1708.01
747.62	1714.15
747.80	1763.30
747.98	1667.05
748.15	1640.42
748.33	1841.12
748.51	1716.20
748.69	1767.40
748.87	1675.24
749.05	1718.25
749.23	1742.82
749.41	1660.90
749.59	1671.14
749.77	1771.49
749.95	1667.05
750.13	1759.21
750.31	1730.53
750.49	1710.05
750.67	1681.38
750.85	1830.88
751.03	1816.55
751.20	1822.69
751.38	1669.09
751.56	1710.05
751.74	1802.21
751.92	1595.37
752.10	1566.70
752.28	1732.58
752.46	1703.91
752.64	1738.73
752.82	1738.73
753.00	1740.77
753.18	1632.23
753.35	1748.97
753.53	1691.62
753.71	1703.91
753.89	1771.49
754.07	1726.44
754.25	1705.96
754.43	1763.30
754.61	1714.15
754.79	1787.88
754.97	1810.40
755.14	1804.26
755.32	1615.85
755.50	1734.63
755.68	1685.48
755.86	1705.96
756.04	1722.34
756.22	1673.19
756.40	1800.16
756.57	1773.54
756.75	1695.72
756.93	1759.21
757.11	1746.92
757.29	1638.38
757.47	1681.38
757.65	1648.61
757.82	1560.55
758.00	1644.52
758.18	1593.32
758.36	1685.48
758.54	1822.69
758.72	1591.27
758.90	1830.88
759.07	1708.01
759.25	1667.05
759.43	1783.78
759.61	1630.18
759.79	2199.52
759.97	1798.12
760.15	1654.76
760.32	1634.28
760.50	1763.30
760.68	1812.45
760.86	1662.95
761.04	1718.25
761.22	1746.92
761.39	1679.33
761.57	1722.34
761.75	1701.86
761.93	1722.34
762.11	1765.35
762.28	1708.01
762.46	1804.26
762.64	1787.88
762.82	1679.33
763.00	1708.01
763.18	1746.92
763.35	1650.66
763.53	1705.96
763.71	1722.34
763.89	1763.30
764.07	1679.33
764.24	1712.10
764.42	1798.12
764.60	1673.19
764.78	1822.69
764.96	1718.25
765.13	1693.67
765.31	1730.53
765.49	1740.77
765.67	1679.33
765.84	1656.81
766.02	1730.53
766.20	1640.42
766.38	1724.39
766.56	1794.02
766.73	1802.21
766.91	1638.38
767.09	1763.30
767.27	1765.35
767.44	1660.90
767.62	1763.30
767.80	1703.91
767.98	1677.29
768.15	1753.06
768.33	1789.92
768.51	1763.30
768.69	1693.67
768.87	1710.05
769.04	1720.29
769.22	1832.93
769.40	1789.92
769.58	1894.37
769.75	1695.72
769.93	1753.06
770.11	1746.92
770.28	1656.81
770.46	1714.15
770.64	1681.38
770.82	1667.05
770.99	1650.66
771.17	1705.96
771.35	1679.33
771.53	1679.33
771.70	1685.48
771.88	1757.16
772.06	1660.90
772.23	1621.99
772.41	1759.21
772.59	1648.61
772.77	1652.71
772.94	1660.90
773.12	1724.39
773.30	1656.81
773.47	1722.34
773.65	1673.19
773.83	1783.78
774.01	1761.25
774.18	1624.04
774.36	1734.63
774.54	1617.90
774.71	1718.25
774.89	1652.71
775.07	1730.53
775.24	1624.04
775.42	1673.19
775.60	1834.98
775.78	1656.81
775.95	1683.43
776.13	1609.70
776.31	1574.89
776.48	1763.30
776.66	1742.82
776.84	1607.66
777.01	1697.77
777.19	1662.95
777.37	1716.20
777.54	1757.16
777.72	1847.27
777.90	1685.48
778.07	1701.86
778.25	1914.85
778.43	1785.83
778.60	1699.81
778.78	1787.88
778.96	1816.55
779.13	1648.61
779.31	1775.59
779.49	1708.01
779.66	1728.49
779.84	1751.01
780.01	1722.34
780.19	1613.80
780.37	1783.78
780.54	1705.96
780.72	1730.53
780.90	1736.68
781.07	1693.67
781.25	1720.29
781.43	1783.78
781.60	1759.21
781.78	1796.07
781.95	1757.16
782.13	1665.00
782.31	1687.53
782.48	1652.71
782.66	1677.29
782.83	1845.22
783.01	1710.05
783.19	1726.44
783.36	1695.72
783.54	1648.61
783.72	1783.78
783.89	1716.20
784.07	1730.53
784.24	1751.01
784.42	1691.62
784.60	1689.57
784.77	1781.73
784.95	1656.81
785.12	1701.86
785.30	1736.68
785.47	1728.49
785.65	1652.71
785.83	1716.20
786.00	1755.11
786.18	1697.77
786.35	1636.33
786.53	1677.29
786.71	1832.93
786.88	1773.54
787.06	1769.44
787.23	1730.53
787.41	1660.90
787.58	1734.63
787.76	1611.75
787.94	1650.66
788.11	1746.92
788.29	1624.04
788.46	1693.67
788.64	1609.70
788.81	1677.29
788.99	1642.47
789.16	1591.27
789.34	1726.44
789.52	1671.14
789.69	1699.81
789.87	1619.94
790.04	1722.34
790.22	1714.15
790.39	1871.84
790.57	1671.14
790.74	1718.25
790.92	1767.40
791.09	1615.85
791.27	1730.53
791.44	1783.78
791.62	1658.85
791.79	1789.92
791.97	1781.73
792.15	1853.41
792.32	1742.82
792.50	1722.34
792.67	1804.26
792.85	1705.96
793.02	1691.62
793.20	1699.81
793.37	1621.99
793.55	1802.21
793.72	1710.05
793.90	1767.40
794.07	1658.85
794.25	1607.66
794.42	1656.81
794.60	1759.21
794.77	1732.58
794.95	1724.39
795.12	1789.92
795.30	1665.00
795.47	1656.81
795.65	1882.08
795.82	1724.39
796.00	1634.28
796.17	1697.77
796.34	1748.97
796.52	1714.15
796.69	1804.26
796.87	1724.39
797.04	1699.81
797.22	1753.06
797.39	1751.01
797.57	1724.39
797.74	1724.39
797.92	1740.77
798.09	1687.53
798.27	1728.49
798.44	1740.77
798.62	1730.53
798.79	1771.49
798.96	1644.52
799.14	1673.19
799.31	1865.70
799.49	1722.34
799.66	1644.52
799.84	1777.64
800.01	1650.66
800.19	1781.73
800.36	1658.85
800.53	1662.95
800.71	1742.82
800.88	1759.21
801.06	1652.71
801.23	1724.39
801.41	1697.77
801.58	1751.01
801.75	1689.57
801.93	1748.97
802.10	1794.02
802.28	1714.15
802.45	1728.49
802.63	1740.77
802.80	1734.63
802.97	1777.64
803.15	1705.96
803.32	1689.57
803.50	1658.85
803.67	1695.72
803.84	1617.90
804.02	1654.76
804.19	1695.72
804.37	1613.80
804.54	1656.81
804.71	1652.71
804.89	1660.90
805.06	1628.14
805.24	1560.55
805.41	1597.42
805.58	1626.09
805.76	1781.73
805.93	1689.57
806.10	1740.77
806.28	1742.82
806.45	1626.09
806.63	1650.66
806.80	1753.06
806.97	1751.01
807.15	1779.68
807.32	1765.35
807.49	1714.15
807.67	1669.09
807.84	1785.83
808.01	1583.08
808.19	1765.35
808.36	1877.99
808.54	1675.24
808.71	1642.47
808.88	1751.01
809.06	1738.73
809.23	1789.92
809.40	1626.09
809.58	1808.36
809.75	1724.39
809.92	1595.37
810.10	1728.49
810.27	1683.43
810.44	1683.43
810.62	1736.68
810.79	1718.25
810.96	1685.48
811.14	1650.66
811.31	1728.49
811.48	1781.73
811.66	1734.63
811.83	1683.43
812.00	1751.01
812.18	1722.34
812.35	1794.02
812.52	1677.29
812.69	1662.95
812.87	1755.11
813.04	1632.23
813.21	1703.91
813.39	1691.62
813.56	1718.25
813.73	1730.53
813.91	1603.56
814.08	1738.73
814.25	1693.67
814.42	1601.51
814.60	1695.72
814.77	1742.82
814.94	1697.77
815.12	1701.86
815.29	1775.59
815.46	1673.19
815.63	1779.68
815.81	1697.77
815.98	1681.38
816.15	1755.11
816.33	1771.49
816.50	1705.96
816.67	1658.85
816.84	1656.81
817.02	1660.90
817.19	1646.57
817.36	1734.63
817.53	1734.63
817.71	1660.90
817.88	1648.61
818.05	1775.59
818.22	1771.49
818.40	1845.22
818.57	1720.29
818.74	1656.81
818.91	1748.97
819.09	1779.68
819.26	1783.78
819.43	1654.76
819.60	1632.23
819.78	1794.02
819.95	1722.34
820.12	1607.66
820.29	1740.77
820.47	1691.62
820.64	1593.32
820.81	1660.90
820.98	1568.74
821.15	1726.44
821.33	1730.53
821.50	1665.00
821.67	1783.78
821.84	1705.96
822.02	1779.68
822.19	1789.92
822.36	1742.82
822.53	1693.67
822.70	1683.43
822.88	1755.11
823.05	1855.46
823.22	1669.09
823.39	1703.91
823.56	1699.81
823.74	1853.41
823.91	1644.52
824.08	1732.58
824.25	1677.29
824.42	1787.88
824.60	1540.07
824.77	1748.97
824.94	1648.61
825.11	1789.92
825.28	1654.76
825.45	1718.25
825.63	1597.42
825.80	1708.01
825.97	1742.82
826.14	1619.94
826.31	1693.67
826.48	1640.42
826.66	1599.46
826.83	1689.57
827.00	1695.72
827.17	1730.53
827.34	1710.05
827.51	1716.20
827.69	1634.28
827.86	1705.96
828.03	1705.96
828.20	1763.30
828.37	1656.81
828.54	1662.95
828.71	1683.43
828.89	1791.97
829.06	1728.49
829.23	1777.64
829.40	1654.76
829.57	1660.90
829.74	1708.01
829.91	1640.42
830.09	1683.43
830.26	1824.74
830.43	1839.08
830.60	1730.53
830.77	1693.67
830.94	1806.31
831.11	1804.26
831.28	1679.33
831.46	1777.64
831.63	1673.19
831.80	1714.15
831.97	1605.61
832.14	1646.57
832.31	1796.07
832.48	1722.34
832.65	1783.78
832.82	1710.05
832.99	1740.77
833.17	1673.19
833.34	1804.26
833.51	1691.62
833.68	1644.52
833.85	1734.63
834.02	1658.85
834.19	1675.24
834.36	1691.62
834.53	1732.58
834.70	1806.31
834.87	1794.02
835.04	1621.99
835.22	1716.20
835.39	1722.34
835.56	1658.85
835.73	1746.92
835.90	1718.25
836.07	1675.24
836.24	1800.16
836.41	1669.09
836.58	1671.14
836.75	1757.16
836.92	1703.91
837.09	1771.49
837.26	1687.53
837.43	1765.35
837.60	1796.07
837.77	1599.46
837.94	1808.36
838.12	1777.64
838.29	1734.63
838.46	1665.00
838.63	1648.61
838.80	1775.59
838.97	1744.87
839.14	1714.15
839.31	1619.94
839.48	1781.73
839.65	1705.96
839.82	1712.10
839.99	1765.35
840.16	1765.35
840.33	1669.09
840.50	1730.53
840.67	1669.09
840.84	1546.22
841.01	1701.86
841.18	1673.19
841.35	1716.20
841.52	1744.87
841.69	1794.02
841.86	1738.73
842.03	1619.94
842.20	1781.73
842.37	1714.15
842.54	1644.52
842.71	1751.01
842.88	1632.23
843.05	1781.73
843.22	1718.25
843.39	1767.40
843.56	1730.53
843.73	1722.34
843.90	1687.53
844.07	1683.43
844.24	1763.30
844.41	1736.68
844.58	1775.59
844.75	1681.38
844.92	1746.92
845.09	1730.53
845.26	1693.67
845.43	1744.87
845.60	1746.92
845.77	1734.63
845.94	1738.73
846.10	1730.53
846.27	1642.47
846.44	1738.73
846.61	1644.52
846.78	1714.15
846.95	1689.57
847.12	1751.01
847.29	1660.90
847.46	1687.53
847.63	1697.77
847.80	1662.95
847.97	1624.04
848.14	1834.98
848.31	1654.76
848.48	1552.36
848.65	1779.68
848.82	1634.28
848.98	1796.07
849.15	1791.97
849.32	1796.07
849.49	1718.25
849.66	1763.30
849.83	1638.38
850.00	1564.65
850.17	1730.53
850.34	1730.53
850.51	1726.44
850.68	1722.34
850.85	1867.75
851.01	1671.14
851.18	1619.94
851.35	1742.82
851.52	1677.29
851.69	1787.88
851.86	1675.24
852.03	1759.21
852.20	1757.16
852.37	1669.09
852.53	1572.84
852.70	1712.10
852.87	1689.57
853.04	1714.15
853.21	1691.62
853.38	1791.97
853.55	1796.07
853.72	1701.86
853.89	1636.33
854.05	1716.20
854.22	1636.33
854.39	1662.95
854.56	1785.83
854.73	1718.25
854.90	1607.66
855.07	1681.38
855.23	1728.49
855.40	1757.16
855.57	1677.29
855.74	1574.89
855.91	1857.51
856.08	1667.05
856.25	1603.56
856.41	1691.62
856.58	1644.52
856.75	1681.38
856.92	1650.66
857.09	1761.25
857.26	1617.90
857.42	1716.20
857.59	1726.44
857.76	1628.14
857.93	1789.92
858.10	1765.35
858.27	1650.66
858.43	1744.87
858.60	1669.09
858.77	1576.94
858.94	1691.62
859.11	1832.93
859.27	1636.33
859.44	1714.15
859.61	1839.08
859.78	1769.44
859.95	1697.77
860.12	1675.24
860.28	1812.45
860.45	1808.36
860.62	1691.62
860.79	1669.09
860.95	1691.62
861.12	1669.09
861.29	1626.09
861.46	1638.38
861.63	1656.81
861.79	1644.52
861.96	1693.67
862.13	1677.29
862.30	1806.31
862.47	1665.00
862.63	1726.44
862.80	1730.53
862.97	1755.11
863.14	1662.95
863.30	1720.29
863.47	1718.25
863.64	1816.55
863.81	1734.63
863.97	1755.11
864.14	1648.61
864.31	1679.33
864.48	1726.44
864.65	1687.53
864.81	1714.15
864.98	1761.25
865.15	1740.77
865.32	1767.40
865.48	1802.21
865.65	1755.11
865.82	1675.24
865.98	1708.01
866.15	1712.10
866.32	1705.96
866.49	1683.43
866.65	1781.73
866.82	1710.05
866.99	1748.97
867.16	1697.77
867.32	1656.81
867.49	1685.48
867.66	1710.05
867.83	1654.76
867.99	1665.00
868.16	1671.14
868.33	1652.71
868.49	1652.71
868.66	1753.06
868.83	1726.44
868.99	1628.14
869.16	1681.38
869.33	1681.38
869.50	1818.60
869.66	1681.38
869.83	1693.67
870.00	1628.14
870.16	1697.77
870.33	1757.16
870.50	1732.58
870.66	1646.57
870.83	1779.68
871.00	1685.48
871.17	1765.35
871.33	1775.59
871.50	1667.05
871.67	1734.63
871.83	1738.73
872.00	1746.92
872.17	1640.42
872.33	1769.44
872.50	1804.26
872.67	1662.95
872.83	1716.20
873.00	1751.01
873.17	1695.72
873.33	1779.68
873.50	1708.01
873.67	1654.76
873.83	1693.67
874.00	1697.77
874.16	1705.96
874.33	1722.34
874.50	1617.90
874.66	1724.39
874.83	1691.62
875.00	1777.64
875.16	1771.49
875.33	1771.49
875.50	1701.86
875.66	1636.33
875.83	1687.53
875.99	1763.30
876.16	1630.18
876.33	1671.14
876.49	1738.73
876.66	1720.29
876.83	1624.04
876.99	1591.27
877.16	1691.62
877.32	1685.48
877.49	1714.15
877.66	1748.97
877.82	1730.53
877.99	1675.24
878.15	1789.92
878.32	1730.53
878.49	1751.01
878.65	1701.86
878.82	1742.82
878.98	1701.86
879.15	1775.59
879.32	1839.08
879.48	1677.29
879.65	1710.05
879.81	1703.91
879.98	1667.05
880.15	1699.81
880.31	1716.20
880.48	1636.33
880.64	1802.21
880.81	1714.15
880.97	1871.84
881.14	1726.44
881.31	1624.04
881.47	1847.27
881.64	1714.15
881.80	1689.57
881.97	1763.30
882.13	1800.16
882.30	1675.24
882.47	1613.80
882.63	1650.66
882.80	1650.66
882.96	1718.25
883.13	1746.92
883.29	1646.57
883.46	1722.34
883.62	1798.12
883.79	1699.81
883.95	1804.26
884.12	1726.44
884.29	1755.11
884.45	1699.81
884.62	1789.92
884.78	1724.39
884.95	1757.16
885.11	1644.52
885.28	1703.91
885.44	1673.19
885.61	1691.62
885.77	1683.43
885.94	1775.59
886.10	1771.49
886.27	1763.30
886.43	1787.88
886.60	1660.90
886.76	1675.24
886.93	1671.14
887.09	1738.73
887.26	1654.76
887.42	1685.48
887.59	1781.73
887.75	1787.88
887.92	1791.97
888.08	1755.11
888.25	1746.92
888.41	1718.25
888.58	1726.44
888.74	1599.46
888.91	1681.38
>>>>>End Processed Spectral Data<<<<<
