SpectraSuite Data File
++++++++++++++++++++++++++++++++++++
Date: Mon Jun 06 15:57:57 CEST 2016
User: root
Dark Spectrum Present: No
Reference Spectrum Present: No
Number of Sampled Component Spectra: 1
Spectrometers: USB4C02835
Integration Time (usec): 100000 (USB4C02835)
Spectra Averaged: 1 (USB4C02835)
Boxcar Smoothing: 0 (USB4C02835)
Correct for Electrical Dark: No (USB4C02835)
Strobe/Lamp Enabled: No (USB4C02835)
Correct for Detector Non-linearity: No (USB4C02835)
Correct for Stray Light: No (USB4C02835)
Number of Pixels in Processed Spectrum: 3648
>>>>>Begin Processed Spectral Data<<<<<
177.47	1452.01
177.69	1452.01
177.91	1452.01
178.13	1435.63
178.36	1488.87
178.58	1605.61
178.80	1734.63
179.02	1644.52
179.24	1697.77
179.46	1687.53
179.68	1742.82
179.90	1677.29
180.13	1710.05
180.35	1697.77
180.57	1714.15
180.79	1656.81
181.01	1734.63
181.23	1822.69
181.45	1712.10
181.67	1824.74
181.90	1699.81
182.12	1665.00
182.34	1617.90
182.56	1763.30
182.78	1693.67
183.00	1699.81
183.22	1662.95
183.44	1630.18
183.66	1787.88
183.89	1767.40
184.11	1724.39
184.33	1746.92
184.55	1742.82
184.77	1726.44
184.99	1771.49
185.21	1728.49
185.43	1810.40
185.65	1669.09
185.87	1732.58
186.10	1804.26
186.32	1875.94
186.54	1748.97
186.76	1718.25
186.98	1800.16
187.20	1724.39
187.42	1691.62
187.64	1675.24
187.86	1742.82
188.08	1814.50
188.30	1742.82
188.52	1673.19
188.75	1832.93
188.97	1794.02
189.19	1738.73
189.41	1693.67
189.63	1753.06
189.85	1656.81
190.07	1665.00
190.29	1701.86
190.51	1665.00
190.73	1681.38
190.95	1724.39
191.17	1691.62
191.39	1636.33
191.61	1691.62
191.84	1718.25
192.06	1791.97
192.28	1611.75
192.50	1834.98
192.72	1628.14
192.94	1714.15
193.16	1701.86
193.38	1724.39
193.60	1632.23
193.82	1691.62
194.04	1851.36
194.26	1689.57
194.48	1734.63
194.70	1759.21
194.92	1701.86
195.14	1714.15
195.36	1679.33
195.58	1728.49
195.80	1759.21
196.02	1591.27
196.24	1740.77
196.46	1761.25
196.69	1705.96
196.91	1861.60
197.13	1703.91
197.35	1687.53
197.57	1738.73
197.79	1757.16
198.01	1820.64
198.23	1775.59
198.45	1755.11
198.67	1656.81
198.89	1724.39
199.11	1730.53
199.33	1685.48
199.55	1595.37
199.77	1636.33
199.99	1728.49
200.21	1716.20
200.43	1714.15
200.65	1603.56
200.87	1665.00
201.09	1724.39
201.31	1746.92
201.53	1726.44
201.75	1732.58
201.97	1753.06
202.19	1748.97
202.41	1703.91
202.63	1832.93
202.85	1787.88
203.07	1699.81
203.29	1656.81
203.51	1583.08
203.73	1691.62
203.95	1875.94
204.17	1798.12
204.39	1804.26
204.61	1728.49
204.83	1644.52
205.05	1705.96
205.27	1759.21
205.49	1787.88
205.71	1718.25
205.93	1636.33
206.15	1595.37
206.37	1687.53
206.59	1675.24
206.81	1650.66
207.03	1722.34
207.25	1662.95
207.47	1791.97
207.69	1710.05
207.91	1851.36
208.13	1796.07
208.34	1714.15
208.56	1624.04
208.78	1734.63
209.00	1685.48
209.22	1675.24
209.44	1714.15
209.66	1665.00
209.88	1683.43
210.10	1640.42
210.32	1746.92
210.54	1843.17
210.76	1718.25
210.98	1730.53
211.20	1613.80
211.42	1746.92
211.64	1738.73
211.86	1697.77
212.08	1816.55
212.30	1763.30
212.52	1687.53
212.74	1746.92
212.96	1730.53
213.17	1789.92
213.39	1728.49
213.61	1802.21
213.83	1726.44
214.05	1660.90
214.27	1781.73
214.49	1583.08
214.71	1624.04
214.93	1781.73
215.15	1781.73
215.37	1787.88
215.59	1548.26
215.81	1789.92
216.03	1753.06
216.24	1779.68
216.46	1740.77
216.68	1695.72
216.90	1722.34
217.12	1751.01
217.34	1728.49
217.56	1767.40
217.78	1777.64
218.00	1740.77
218.22	1742.82
218.44	1767.40
218.66	1732.58
218.87	1794.02
219.09	1654.76
219.31	1705.96
219.53	1683.43
219.75	1712.10
219.97	1695.72
220.19	1679.33
220.41	1742.82
220.63	1804.26
220.85	1734.63
221.06	1699.81
221.28	1785.83
221.50	1781.73
221.72	1630.18
221.94	1656.81
222.16	1734.63
222.38	1794.02
222.60	1742.82
222.82	1671.14
223.03	1728.49
223.25	1724.39
223.47	1744.87
223.69	1847.27
223.91	1689.57
224.13	1769.44
224.35	1611.75
224.57	1748.97
224.78	1779.68
225.00	1617.90
225.22	1665.00
225.44	1779.68
225.66	1757.16
225.88	1656.81
226.10	1787.88
226.32	1759.21
226.53	1769.44
226.75	1689.57
226.97	1728.49
227.19	1736.68
227.41	1720.29
227.63	1689.57
227.85	1712.10
228.06	1722.34
228.28	1687.53
228.50	1722.34
228.72	1667.05
228.94	1615.85
229.16	1611.75
229.37	1607.66
229.59	1630.18
229.81	1724.39
230.03	1679.33
230.25	1589.22
230.47	1656.81
230.69	1667.05
230.90	1757.16
231.12	1722.34
231.34	1753.06
231.56	1800.16
231.78	1693.67
232.00	1785.83
232.21	1742.82
232.43	1722.34
232.65	1548.26
232.87	1695.72
233.09	1648.61
233.30	1652.71
233.52	1732.58
233.74	1640.42
233.96	1716.20
234.18	1746.92
234.40	1693.67
234.61	1808.36
234.83	1660.90
235.05	1673.19
235.27	1820.64
235.49	1806.31
235.70	1578.98
235.92	1650.66
236.14	1656.81
236.36	1822.69
236.58	1540.07
236.79	1748.97
237.01	1681.38
237.23	1685.48
237.45	1828.84
237.67	1675.24
237.88	1720.29
238.10	1845.22
238.32	1689.57
238.54	1720.29
238.76	1619.94
238.97	1632.23
239.19	1636.33
239.41	1796.07
239.63	1740.77
239.85	1732.58
240.06	1746.92
240.28	1708.01
240.50	1763.30
240.72	1818.60
240.93	1730.53
241.15	1810.40
241.37	1755.11
241.59	1761.25
241.81	1714.15
242.02	1734.63
242.24	1742.82
242.46	1789.92
242.68	1626.09
242.89	1734.63
243.11	1687.53
243.33	1685.48
243.55	1720.29
243.76	1716.20
243.98	1615.85
244.20	1779.68
244.42	1738.73
244.64	1734.63
244.85	1714.15
245.07	1695.72
245.29	1705.96
245.51	1697.77
245.72	1748.97
245.94	1853.41
246.16	1742.82
246.38	1810.40
246.59	1648.61
246.81	1648.61
247.03	1708.01
247.24	1607.66
247.46	1685.48
247.68	1656.81
247.90	1593.32
248.11	1669.09
248.33	1751.01
248.55	1658.85
248.77	1658.85
248.98	1796.07
249.20	1837.03
249.42	1789.92
249.64	1705.96
249.85	1683.43
250.07	1654.76
250.29	1728.49
250.50	1826.79
250.72	1574.89
250.94	1794.02
251.16	1832.93
251.37	1812.45
251.59	1667.05
251.81	1705.96
252.02	1777.64
252.24	1654.76
252.46	1757.16
252.68	1621.99
252.89	1730.53
253.11	1679.33
253.33	1800.16
253.54	1804.26
253.76	1613.80
253.98	1701.86
254.20	1628.14
254.41	1619.94
254.63	1662.95
254.85	1654.76
255.06	1695.72
255.28	1724.39
255.50	1710.05
255.71	1619.94
255.93	1691.62
256.15	1728.49
256.36	1800.16
256.58	1646.57
256.80	1728.49
257.02	1697.77
257.23	1665.00
257.45	1703.91
257.67	1714.15
257.88	1660.90
258.10	1757.16
258.32	1806.31
258.53	1681.38
258.75	1828.84
258.97	1646.57
259.18	1751.01
259.40	1740.77
259.62	1798.12
259.83	1744.87
260.05	1708.01
260.27	1888.23
260.48	1740.77
260.70	1662.95
260.92	1794.02
261.13	1763.30
261.35	1669.09
261.57	1685.48
261.78	1705.96
262.00	1687.53
262.22	1695.72
262.43	1599.46
262.65	1728.49
262.86	1724.39
263.08	1789.92
263.30	1728.49
263.51	1658.85
263.73	1646.57
263.95	1716.20
264.16	1689.57
264.38	1630.18
264.60	1769.44
264.81	1677.29
265.03	1828.84
265.25	1734.63
265.46	1658.85
265.68	1787.88
265.89	1703.91
266.11	1658.85
266.33	1730.53
266.54	1779.68
266.76	1769.44
266.98	1732.58
267.19	1822.69
267.41	1679.33
267.62	1691.62
267.84	1621.99
268.06	1626.09
268.27	1728.49
268.49	1787.88
268.70	1824.74
268.92	1705.96
269.14	1689.57
269.35	1626.09
269.57	1718.25
269.79	1734.63
270.00	1662.95
270.22	1843.17
270.43	1587.18
270.65	1648.61
270.87	1677.29
271.08	1783.78
271.30	1757.16
271.51	1662.95
271.73	1763.30
271.95	1720.29
272.16	1740.77
272.38	1689.57
272.59	1742.82
272.81	1724.39
273.02	1751.01
273.24	1724.39
273.46	1789.92
273.67	1662.95
273.89	1595.37
274.10	1681.38
274.32	1830.88
274.54	1798.12
274.75	1771.49
274.97	1646.57
275.18	1732.58
275.40	1667.05
275.61	1751.01
275.83	1742.82
276.05	1574.89
276.26	1667.05
276.48	1761.25
276.69	1687.53
276.91	1736.68
277.12	1751.01
277.34	1763.30
277.55	1726.44
277.77	1761.25
277.99	1662.95
278.20	1683.43
278.42	1665.00
278.63	1644.52
278.85	1679.33
279.06	1628.14
279.28	1765.35
279.49	1771.49
279.71	1658.85
279.93	1734.63
280.14	1681.38
280.36	1644.52
280.57	1712.10
280.79	1769.44
281.00	1656.81
281.22	1740.77
281.43	1744.87
281.65	1550.31
281.86	1624.04
282.08	1675.24
282.29	1794.02
282.51	1626.09
282.73	1728.49
282.94	1589.22
283.16	1722.34
283.37	1757.16
283.59	1755.11
283.80	1734.63
284.02	1736.68
284.23	1732.58
284.45	1714.15
284.66	1628.14
284.88	1658.85
285.09	1722.34
285.31	1765.35
285.52	1769.44
285.74	1619.94
285.95	1787.88
286.17	1710.05
286.38	1642.47
286.60	1636.33
286.81	1714.15
287.03	1662.95
287.24	1730.53
287.46	1732.58
287.67	1722.34
287.89	1841.12
288.10	1744.87
288.32	1820.64
288.53	1810.40
288.75	1765.35
288.96	1773.54
289.18	1609.70
289.39	1693.67
289.61	1789.92
289.82	1800.16
290.04	1789.92
290.25	1746.92
290.47	1751.01
290.68	1703.91
290.90	1779.68
291.11	1650.66
291.33	1742.82
291.54	1712.10
291.76	1683.43
291.97	1773.54
292.18	1722.34
292.40	1624.04
292.61	1650.66
292.83	1851.36
293.04	1697.77
293.26	1728.49
293.47	1736.68
293.69	1699.81
293.90	1675.24
294.12	1808.36
294.33	1613.80
294.55	1716.20
294.76	1748.97
294.97	1679.33
295.19	1763.30
295.40	1662.95
295.62	1734.63
295.83	1775.59
296.05	1701.86
296.26	1804.26
296.48	1665.00
296.69	1652.71
296.90	1730.53
297.12	1712.10
297.33	1796.07
297.55	1689.57
297.76	1837.03
297.98	1863.65
298.19	1712.10
298.41	1726.44
298.62	1714.15
298.83	1767.40
299.05	1718.25
299.26	1689.57
299.48	1638.38
299.69	1794.02
299.90	1710.05
300.12	1652.71
300.33	1791.97
300.55	1718.25
300.76	1802.21
300.98	1669.09
301.19	1695.72
301.40	1724.39
301.62	1691.62
301.83	1681.38
302.05	1644.52
302.26	1726.44
302.47	1728.49
302.69	1621.99
302.90	1730.53
303.12	1640.42
303.33	1826.79
303.54	1767.40
303.76	1642.47
303.97	1779.68
304.19	1759.21
304.40	1673.19
304.61	1818.60
304.83	1822.69
305.04	1771.49
305.26	1755.11
305.47	1619.94
305.68	1677.29
305.90	1677.29
306.11	1728.49
306.33	1736.68
306.54	1685.48
306.75	1601.51
306.97	1699.81
307.18	1691.62
307.39	1669.09
307.61	1820.64
307.82	1671.14
308.04	1636.33
308.25	1757.16
308.46	1712.10
308.68	1699.81
308.89	1628.14
309.10	1755.11
309.32	1654.76
309.53	1740.77
309.74	1722.34
309.96	1703.91
310.17	1748.97
310.39	1656.81
310.60	1802.21
310.81	1658.85
311.03	1611.75
311.24	1753.06
311.45	1775.59
311.67	1796.07
311.88	1705.96
312.09	1660.90
312.31	1650.66
312.52	1781.73
312.73	1755.11
312.95	1609.70
313.16	1634.28
313.37	1796.07
313.59	1753.06
313.80	1722.34
314.01	1794.02
314.23	1710.05
314.44	1689.57
314.65	1695.72
314.87	1650.66
315.08	1693.67
315.29	1685.48
315.51	1638.38
315.72	1648.61
315.93	1865.70
316.15	1742.82
316.36	1671.14
316.57	1771.49
316.79	1716.20
317.00	1679.33
317.21	1775.59
317.43	1660.90
317.64	1728.49
317.85	1619.94
318.07	1705.96
318.28	1730.53
318.49	1834.98
318.70	1869.80
318.92	1763.30
319.13	1865.70
319.34	1834.98
319.56	1771.49
319.77	1785.83
319.98	1751.01
320.20	1857.51
320.41	1673.19
320.62	1722.34
320.83	1673.19
321.05	1820.64
321.26	1714.15
321.47	1818.60
321.69	1851.36
321.90	1640.42
322.11	1681.38
322.32	1748.97
322.54	1818.60
322.75	1675.24
322.96	1882.08
323.18	1589.22
323.39	1581.03
323.60	1742.82
323.81	1783.78
324.03	1644.52
324.24	1705.96
324.45	1683.43
324.66	1681.38
324.88	1765.35
325.09	1798.12
325.30	1767.40
325.52	1783.78
325.73	1761.25
325.94	1658.85
326.15	1677.29
326.37	1738.73
326.58	1804.26
326.79	1859.56
327.00	1662.95
327.22	1759.21
327.43	1681.38
327.64	1562.60
327.85	1759.21
328.07	1681.38
328.28	1779.68
328.49	1683.43
328.70	1722.34
328.92	1796.07
329.13	1714.15
329.34	1738.73
329.55	1814.50
329.76	1834.98
329.98	1697.77
330.19	1761.25
330.40	1683.43
330.61	1691.62
330.83	1703.91
331.04	1689.57
331.25	1722.34
331.46	1697.77
331.68	1677.29
331.89	1734.63
332.10	1673.19
332.31	1658.85
332.52	1646.57
332.74	1763.30
332.95	1617.90
333.16	1665.00
333.37	1728.49
333.58	1708.01
333.80	1689.57
334.01	1638.38
334.22	1601.51
334.43	1677.29
334.64	1652.71
334.86	1640.42
335.07	1722.34
335.28	1828.84
335.49	1601.51
335.70	1708.01
335.92	1843.17
336.13	1937.38
336.34	1693.67
336.55	1726.44
336.76	1777.64
336.98	1615.85
337.19	1669.09
337.40	1822.69
337.61	1904.61
337.82	1662.95
338.04	1781.73
338.25	1658.85
338.46	1626.09
338.67	1671.14
338.88	1654.76
339.09	1687.53
339.31	1685.48
339.52	1624.04
339.73	1703.91
339.94	1714.15
340.15	1730.53
340.36	1634.28
340.58	1697.77
340.79	1759.21
341.00	1648.61
341.21	1615.85
341.42	1820.64
341.63	1765.35
341.85	1695.72
342.06	1753.06
342.27	1695.72
342.48	1796.07
342.69	1648.61
342.90	1753.06
343.12	1736.68
343.33	1763.30
343.54	1787.88
343.75	1710.05
343.96	1710.05
344.17	1619.94
344.38	1689.57
344.60	1642.47
344.81	1708.01
345.02	1740.77
345.23	1886.18
345.44	1818.60
345.65	1787.88
345.86	1775.59
346.07	1644.52
346.29	1634.28
346.50	1724.39
346.71	1732.58
346.92	1886.18
347.13	1798.12
347.34	1714.15
347.55	1740.77
347.76	1726.44
347.98	1566.70
348.19	1728.49
348.40	1830.88
348.61	1683.43
348.82	1726.44
349.03	1791.97
349.24	1636.33
349.45	1824.74
349.66	1597.42
349.88	1687.53
350.09	1685.48
350.30	1781.73
350.51	1751.01
350.72	1689.57
350.93	1755.11
351.14	1738.73
351.35	1757.16
351.56	1734.63
351.77	1748.97
351.99	1746.92
352.20	1814.50
352.41	1755.11
352.62	1595.37
352.83	1683.43
353.04	1734.63
353.25	1755.11
353.46	1822.69
353.67	1722.34
353.88	1581.03
354.09	1660.90
354.30	1746.92
354.52	1800.16
354.73	1779.68
354.94	1646.57
355.15	1755.11
355.36	1824.74
355.57	1619.94
355.78	1734.63
355.99	1710.05
356.20	1673.19
356.41	1757.16
356.62	1738.73
356.83	1677.29
357.04	1783.78
357.25	1642.47
357.46	1726.44
357.68	1652.71
357.89	1652.71
358.10	1708.01
358.31	1699.81
358.52	1658.85
358.73	1675.24
358.94	1718.25
359.15	1716.20
359.36	1679.33
359.57	1701.86
359.78	1677.29
359.99	1781.73
360.20	1697.77
360.41	1634.28
360.62	1705.96
360.83	1703.91
361.04	1685.48
361.25	1726.44
361.46	1789.92
361.67	1806.31
361.88	1890.28
362.09	1693.67
362.30	1714.15
362.51	1693.67
362.72	1736.68
362.93	1816.55
363.14	1710.05
363.35	1728.49
363.56	1675.24
363.78	1787.88
363.99	1703.91
364.20	1767.40
364.41	1789.92
364.62	1822.69
364.83	1769.44
365.04	1697.77
365.25	1697.77
365.46	1886.18
365.67	1611.75
365.88	1697.77
366.09	1669.09
366.30	1689.57
366.51	1699.81
366.72	1728.49
366.93	1771.49
367.14	1798.12
367.35	1724.39
367.56	1740.77
367.77	1804.26
367.98	1779.68
368.18	1640.42
368.39	1761.25
368.60	1656.81
368.81	1761.25
369.02	1744.87
369.23	1689.57
369.44	1601.51
369.65	1722.34
369.86	1759.21
370.07	1781.73
370.28	1673.19
370.49	1757.16
370.70	1740.77
370.91	1689.57
371.12	1677.29
371.33	1722.34
371.54	1722.34
371.75	1859.56
371.96	1548.26
372.17	1722.34
372.38	1722.34
372.59	1705.96
372.80	1687.53
373.01	1730.53
373.22	1693.67
373.43	1765.35
373.64	1753.06
373.85	1787.88
374.06	1783.78
374.26	1857.51
374.47	1791.97
374.68	1820.64
374.89	1814.50
375.10	1677.29
375.31	1757.16
375.52	1691.62
375.73	1656.81
375.94	1611.75
376.15	1759.21
376.36	1679.33
376.57	1703.91
376.78	1751.01
376.99	1660.90
377.20	1785.83
377.40	1667.05
377.61	1798.12
377.82	1634.28
378.03	1818.60
378.24	1755.11
378.45	1726.44
378.66	1773.54
378.87	1708.01
379.08	1597.42
379.29	1687.53
379.50	1796.07
379.71	1710.05
379.91	1730.53
380.12	1658.85
380.33	1738.73
380.54	1767.40
380.75	1701.86
380.96	1701.86
381.17	1808.36
381.38	1736.68
381.59	1781.73
381.80	1683.43
382.00	1820.64
382.21	1779.68
382.42	1816.55
382.63	1898.47
382.84	1738.73
383.05	1875.94
383.26	1861.60
383.47	1703.91
383.68	1765.35
383.88	1757.16
384.09	1740.77
384.30	1775.59
384.51	1724.39
384.72	1714.15
384.93	1654.76
385.14	1775.59
385.35	1734.63
385.55	1689.57
385.76	1757.16
385.97	1763.30
386.18	1683.43
386.39	1652.71
386.60	1658.85
386.81	1742.82
387.02	1687.53
387.22	1611.75
387.43	1673.19
387.64	1763.30
387.85	1873.89
388.06	2289.63
388.27	4194.24
388.48	6707.10
388.68	8152.96
388.89	9461.62
389.10	9574.25
389.31	8523.65
389.52	7509.90
389.73	6655.90
389.93	5990.31
390.14	5746.60
390.35	5072.82
390.56	4544.44
390.77	3743.69
390.98	2959.31
391.18	2471.90
391.39	2074.59
391.60	1828.84
391.81	1804.26
392.02	1669.09
392.23	1857.51
392.43	1722.34
392.64	1808.36
392.85	1708.01
393.06	1931.23
393.27	1755.11
393.47	1632.23
393.68	1753.06
393.89	1697.77
394.10	1771.49
394.31	1624.04
394.52	1728.49
394.72	1689.57
394.93	1822.69
395.14	1675.24
395.35	1726.44
395.56	1642.47
395.76	1783.78
395.97	1818.60
396.18	1865.70
396.39	1804.26
396.60	1966.05
396.80	1832.93
397.01	1906.66
397.22	1789.92
397.43	1880.04
397.64	1740.77
397.84	1812.45
398.05	1925.09
398.26	1708.01
398.47	1820.64
398.67	1740.77
398.88	1789.92
399.09	1804.26
399.30	1712.10
399.51	1751.01
399.71	1613.80
399.92	1787.88
400.13	1800.16
400.34	1640.42
400.54	1705.96
400.75	1771.49
400.96	1789.92
401.17	1837.03
401.37	1773.54
401.58	1791.97
401.79	1742.82
402.00	1826.79
402.21	1996.77
402.41	2007.01
402.62	2025.44
402.83	2093.02
403.04	2007.01
403.24	2088.93
403.45	1892.32
403.66	1949.67
403.87	1892.32
404.07	1839.08
404.28	1923.04
404.49	1914.85
404.70	1763.30
404.90	1771.49
405.11	1775.59
405.32	1779.68
405.52	1712.10
405.73	1701.86
405.94	1708.01
406.15	1714.15
406.35	1800.16
406.56	1730.53
406.77	1755.11
406.98	1783.78
407.18	1716.20
407.39	1828.84
407.60	1699.81
407.80	1710.05
408.01	1742.82
408.22	1751.01
408.43	1636.33
408.63	1705.96
408.84	1826.79
409.05	1779.68
409.25	1665.00
409.46	1671.14
409.67	1638.38
409.88	1619.94
410.08	1691.62
410.29	1683.43
410.50	1671.14
410.70	1796.07
410.91	1718.25
411.12	1751.01
411.32	1732.58
411.53	1652.71
411.74	1806.31
411.95	1759.21
412.15	1748.97
412.36	1783.78
412.57	1720.29
412.77	1710.05
412.98	1730.53
413.19	1675.24
413.39	1720.29
413.60	1785.83
413.81	1767.40
414.01	1679.33
414.22	1718.25
414.43	1791.97
414.63	1701.86
414.84	1808.36
415.05	1751.01
415.25	1626.09
415.46	1808.36
415.67	1710.05
415.87	1757.16
416.08	1757.16
416.29	1697.77
416.49	1804.26
416.70	1718.25
416.91	1697.77
417.11	1722.34
417.32	1820.64
417.53	1796.07
417.73	1857.51
417.94	1714.15
418.15	1763.30
418.35	1810.40
418.56	1703.91
418.77	1820.64
418.97	1701.86
419.18	1685.48
419.38	1550.31
419.59	1738.73
419.80	1767.40
420.00	1734.63
420.21	1611.75
420.42	1779.68
420.62	1775.59
420.83	1689.57
421.04	1665.00
421.24	1695.72
421.45	1794.02
421.65	1775.59
421.86	1683.43
422.07	1759.21
422.27	1660.90
422.48	1693.67
422.69	1720.29
422.89	1705.96
423.10	1619.94
423.30	1603.56
423.51	1669.09
423.72	1779.68
423.92	1710.05
424.13	1683.43
424.33	1730.53
424.54	1783.78
424.75	1660.90
424.95	1814.50
425.16	1759.21
425.36	1665.00
425.57	1767.40
425.78	1730.53
425.98	1744.87
426.19	1761.25
426.39	1619.94
426.60	1710.05
426.81	1828.84
427.01	1687.53
427.22	1724.39
427.42	1652.71
427.63	1652.71
427.83	1824.74
428.04	1800.16
428.25	1730.53
428.45	1800.16
428.66	1724.39
428.86	1695.72
429.07	1726.44
429.28	1722.34
429.48	1630.18
429.69	1646.57
429.89	1695.72
430.10	1738.73
430.30	1701.86
430.51	1771.49
430.71	1710.05
430.92	1710.05
431.13	1654.76
431.33	1746.92
431.54	1806.31
431.74	1769.44
431.95	1873.89
432.15	1738.73
432.36	1837.03
432.56	1789.92
432.77	1890.28
432.98	1812.45
433.18	1757.16
433.39	1677.29
433.59	1740.77
433.80	1873.89
434.00	1884.13
434.21	1669.09
434.41	1699.81
434.62	1880.04
434.82	1660.90
435.03	1667.05
435.23	1751.01
435.44	1652.71
435.64	1734.63
435.85	1734.63
436.06	1755.11
436.26	1865.70
436.47	1708.01
436.67	1681.38
436.88	1724.39
437.08	1722.34
437.29	1800.16
437.49	1724.39
437.70	1726.44
437.90	1720.29
438.11	1882.08
438.31	1794.02
438.52	1886.18
438.72	1787.88
438.93	1912.80
439.13	1820.64
439.34	1841.12
439.54	1814.50
439.75	1781.73
439.95	1826.79
440.16	1757.16
440.36	1753.06
440.57	1710.05
440.77	1765.35
440.98	1722.34
441.18	1740.77
441.39	1695.72
441.59	1636.33
441.80	1892.32
442.00	1746.92
442.21	1832.93
442.41	1724.39
442.62	1767.40
442.82	1658.85
443.02	1777.64
443.23	1794.02
443.43	1730.53
443.64	1810.40
443.84	1632.23
444.05	1869.80
444.25	1679.33
444.46	1695.72
444.66	1767.40
444.87	1828.84
445.07	1621.99
445.28	1718.25
445.48	1787.88
445.69	1726.44
445.89	1916.90
446.09	1722.34
446.30	1980.39
446.50	2652.12
446.71	3571.66
446.91	4374.46
447.12	4749.24
447.32	4722.62
447.53	4272.06
447.73	3823.56
447.93	3538.89
448.14	3387.34
448.34	3160.02
448.55	2854.87
448.75	2731.99
448.96	2729.94
449.16	2492.38
449.36	2232.29
449.57	2088.93
449.77	1916.90
449.98	1841.12
450.18	1779.68
450.39	1767.40
450.59	1830.88
450.79	1738.73
451.00	1753.06
451.20	1857.51
451.41	1757.16
451.61	1806.31
451.81	1708.01
452.02	1748.97
452.22	1751.01
452.43	1675.24
452.63	1734.63
452.84	1800.16
453.04	1640.42
453.24	1814.50
453.45	1734.63
453.65	1751.01
453.86	1755.11
454.06	1796.07
454.26	1695.72
454.47	1738.73
454.67	1789.92
454.87	1824.74
455.08	1679.33
455.28	1855.46
455.49	1753.06
455.69	1691.62
455.89	1935.33
456.10	1802.21
456.30	1767.40
456.51	1763.30
456.71	1832.93
456.91	1828.84
457.12	1708.01
457.32	1640.42
457.52	1730.53
457.73	1765.35
457.93	1837.03
458.14	1679.33
458.34	1710.05
458.54	1705.96
458.75	1720.29
458.95	1800.16
459.15	1826.79
459.36	1738.73
459.56	1779.68
459.76	1884.13
459.97	1814.50
460.17	1720.29
460.37	1796.07
460.58	1757.16
460.78	1781.73
460.99	1675.24
461.19	1638.38
461.39	1691.62
461.60	1742.82
461.80	1722.34
462.00	1669.09
462.21	1695.72
462.41	1710.05
462.61	1691.62
462.82	1626.09
463.02	1806.31
463.22	1740.77
463.43	1687.53
463.63	1808.36
463.83	1810.40
464.04	1724.39
464.24	1724.39
464.44	1673.19
464.64	1779.68
464.85	1802.21
465.05	1853.41
465.25	1755.11
465.46	1669.09
465.66	1781.73
465.86	1748.97
466.07	1798.12
466.27	1783.78
466.47	1665.00
466.68	1640.42
466.88	1808.36
467.08	1820.64
467.29	1722.34
467.49	1742.82
467.69	1722.34
467.89	1712.10
468.10	1714.15
468.30	1802.21
468.50	1771.49
468.71	1851.36
468.91	1658.85
469.11	1808.36
469.31	1722.34
469.52	1763.30
469.72	1820.64
469.92	1902.56
470.13	1744.87
470.33	1724.39
470.53	1869.80
470.73	2144.22
470.94	2287.58
471.14	2293.72
471.34	2514.91
471.54	2383.84
471.75	2250.72
471.95	2160.61
472.15	2099.17
472.36	2115.55
472.56	2117.60
472.76	2045.92
472.96	2060.26
473.17	1980.39
473.37	1900.52
473.57	1800.16
473.77	1796.07
473.98	1744.87
474.18	1730.53
474.38	1865.70
474.58	1755.11
474.79	1689.57
474.99	1789.92
475.19	1884.13
475.39	1662.95
475.60	1779.68
475.80	1714.15
476.00	1681.38
476.20	1724.39
476.41	1710.05
476.61	1775.59
476.81	1767.40
477.01	1597.42
477.21	1898.47
477.42	1738.73
477.62	1718.25
477.82	1736.68
478.02	1724.39
478.23	1777.64
478.43	1693.67
478.63	1634.28
478.83	1753.06
479.03	1665.00
479.24	1798.12
479.44	1828.84
479.64	1634.28
479.84	1619.94
480.04	1689.57
480.25	1806.31
480.45	1744.87
480.65	1683.43
480.85	1832.93
481.06	1734.63
481.26	1726.44
481.46	1710.05
481.66	1746.92
481.86	1656.81
482.06	1828.84
482.27	1734.63
482.47	1730.53
482.67	1783.78
482.87	1648.61
483.07	1839.08
483.28	1695.72
483.48	1697.77
483.68	1671.14
483.88	1757.16
484.08	1687.53
484.29	1632.23
484.49	1761.25
484.69	1656.81
484.89	1820.64
485.09	1832.93
485.29	1710.05
485.50	1734.63
485.70	1748.97
485.90	1828.84
486.10	1710.05
486.30	1714.15
486.50	1757.16
486.71	1693.67
486.91	1783.78
487.11	1781.73
487.31	1697.77
487.51	1732.58
487.71	1615.85
487.91	1675.24
488.12	1705.96
488.32	1619.94
488.52	1679.33
488.72	1628.14
488.92	1787.88
489.12	1794.02
489.32	1753.06
489.53	1689.57
489.73	1722.34
489.93	1783.78
490.13	1687.53
490.33	1669.09
490.53	1751.01
490.73	1720.29
490.94	1673.19
491.14	1763.30
491.34	1714.15
491.54	2107.36
491.74	2543.58
491.94	2858.96
492.14	3037.14
492.34	2930.64
492.54	2680.79
492.75	2463.71
492.95	2451.42
493.15	2346.97
493.35	2301.92
493.55	2133.98
493.75	2217.95
493.95	2160.61
494.15	1992.67
494.35	1877.99
494.56	1880.04
494.76	1787.88
494.96	1777.64
495.16	1877.99
495.36	1736.68
495.56	1755.11
495.76	1740.77
495.96	1779.68
496.16	1667.05
496.36	1773.54
496.56	1714.15
496.77	1734.63
496.97	1683.43
497.17	1826.79
497.37	1671.14
497.57	1773.54
497.77	1767.40
497.97	1705.96
498.17	1742.82
498.37	1697.77
498.57	1734.63
498.77	1658.85
498.97	1720.29
499.17	1830.88
499.38	1697.77
499.58	1794.02
499.78	1724.39
499.98	1804.26
500.18	1789.92
500.38	1765.35
500.58	1845.22
500.78	2488.28
500.98	4583.35
501.18	5722.02
501.38	6662.04
501.58	7149.46
501.78	6596.51
501.98	5517.23
502.18	4921.27
502.38	4353.98
502.58	4054.98
502.78	3831.75
502.98	3598.28
503.18	3356.62
503.38	3256.27
503.59	2824.15
503.79	2641.88
503.99	2473.95
504.19	2172.89
504.39	2170.85
504.59	2179.04
504.79	2117.60
504.99	2070.50
505.19	1871.84
505.39	1906.66
505.59	2021.35
505.79	1929.19
505.99	1896.42
506.19	1804.26
506.39	1822.69
506.59	1755.11
506.79	1708.01
506.99	1865.70
507.19	1781.73
507.39	1771.49
507.59	1658.85
507.79	1685.48
507.99	1679.33
508.19	1730.53
508.39	1761.25
508.59	1669.09
508.79	1837.03
508.99	1814.50
509.19	1675.24
509.39	1753.06
509.59	1712.10
509.79	1722.34
509.99	1765.35
510.19	1779.68
510.39	1812.45
510.59	1748.97
510.79	1720.29
510.99	1652.71
511.19	1738.73
511.39	1800.16
511.59	1785.83
511.79	1832.93
511.99	1708.01
512.19	1802.21
512.38	1652.71
512.58	1693.67
512.78	1742.82
512.98	1814.50
513.18	1832.93
513.38	1718.25
513.58	1810.40
513.78	1689.57
513.98	1783.78
514.18	1761.25
514.38	1689.57
514.58	1753.06
514.78	1746.92
514.98	1712.10
515.18	1789.92
515.38	1722.34
515.58	1791.97
515.78	1753.06
515.98	1730.53
516.18	1744.87
516.38	1699.81
516.57	1742.82
516.77	1736.68
516.97	1789.92
517.17	1759.21
517.37	1644.52
517.57	1828.84
517.77	1767.40
517.97	1746.92
518.17	1748.97
518.37	1650.66
518.57	1724.39
518.77	1701.86
518.97	1742.82
519.16	1681.38
519.36	1863.65
519.56	1740.77
519.76	1724.39
519.96	1740.77
520.16	1894.37
520.36	1771.49
520.56	1832.93
520.76	1603.56
520.96	1703.91
521.16	1812.45
521.35	1748.97
521.55	1757.16
521.75	1730.53
521.95	1691.62
522.15	1759.21
522.35	1621.99
522.55	1660.90
522.75	1841.12
522.95	1693.67
523.14	1765.35
523.34	1763.30
523.54	1708.01
523.74	1804.26
523.94	1722.34
524.14	1660.90
524.34	1783.78
524.54	1851.36
524.73	1781.73
524.93	1687.53
525.13	1701.86
525.33	1703.91
525.53	1929.19
525.73	1794.02
525.93	1808.36
526.13	1689.57
526.32	1828.84
526.52	1853.41
526.72	1832.93
526.92	1718.25
527.12	1732.58
527.32	1681.38
527.52	1720.29
527.71	1693.67
527.91	1744.87
528.11	1726.44
528.31	1744.87
528.51	1656.81
528.71	1722.34
528.90	1763.30
529.10	1857.51
529.30	1781.73
529.50	1681.38
529.70	1726.44
529.90	1722.34
530.09	1714.15
530.29	1722.34
530.49	1656.81
530.69	1849.32
530.89	1810.40
531.09	1755.11
531.28	1695.72
531.48	1753.06
531.68	1691.62
531.88	1812.45
532.08	1769.44
532.28	1767.40
532.47	1759.21
532.67	1851.36
532.87	1824.74
533.07	1691.62
533.27	1822.69
533.46	1779.68
533.66	1781.73
533.86	1779.68
534.06	1773.54
534.26	1820.64
534.45	1671.14
534.65	1847.27
534.85	1783.78
535.05	1624.04
535.25	1773.54
535.44	1646.57
535.64	1746.92
535.84	1767.40
536.04	1701.86
536.24	1705.96
536.43	1720.29
536.63	1734.63
536.83	1765.35
537.03	1689.57
537.22	1681.38
537.42	1648.61
537.62	1728.49
537.82	1730.53
538.02	1791.97
538.21	1808.36
538.41	1931.23
538.61	1650.66
538.81	1714.15
539.00	1834.98
539.20	1644.52
539.40	1712.10
539.60	1753.06
539.79	1804.26
539.99	1703.91
540.19	1722.34
540.39	1818.60
540.58	1810.40
540.78	1765.35
540.98	1714.15
541.18	1882.08
541.37	1748.97
541.57	1724.39
541.77	1708.01
541.97	1712.10
542.16	1695.72
542.36	1644.52
542.56	1820.64
542.76	1824.74
542.95	1742.82
543.15	1771.49
543.35	1796.07
543.54	1763.30
543.74	1718.25
543.94	1847.27
544.14	1705.96
544.33	1771.49
544.53	1654.76
544.73	1742.82
544.93	1765.35
545.12	1736.68
545.32	1751.01
545.52	1779.68
545.71	1671.14
545.91	1712.10
546.11	1759.21
546.30	1652.71
546.50	1730.53
546.70	1712.10
546.90	1824.74
547.09	1685.48
547.29	1796.07
547.49	1779.68
547.68	1693.67
547.88	1701.86
548.08	1757.16
548.27	2222.05
548.47	1722.34
548.67	1726.44
548.87	1769.44
549.06	1802.21
549.26	1796.07
549.46	1751.01
549.65	1761.25
549.85	1849.32
550.05	1736.68
550.24	1621.99
550.44	1804.26
550.64	1763.30
550.83	1695.72
551.03	1783.78
551.23	1767.40
551.42	1779.68
551.62	1722.34
551.82	1714.15
552.01	1697.77
552.21	1773.54
552.41	1798.12
552.60	1812.45
552.80	1742.82
553.00	1718.25
553.19	1673.19
553.39	1916.90
553.59	1597.42
553.78	1779.68
553.98	1808.36
554.17	1683.43
554.37	1779.68
554.57	1810.40
554.76	1687.53
554.96	1697.77
555.16	1732.58
555.35	1781.73
555.55	1806.31
555.75	1779.68
555.94	1789.92
556.14	1617.90
556.33	1826.79
556.53	1705.96
556.73	1718.25
556.92	1769.44
557.12	1777.64
557.32	1796.07
557.51	1767.40
557.71	1810.40
557.90	1830.88
558.10	1830.88
558.30	1732.58
558.49	1712.10
558.69	1671.14
558.88	1755.11
559.08	1748.97
559.28	1677.29
559.47	1691.62
559.67	1826.79
559.86	1865.70
560.06	1755.11
560.26	1708.01
560.45	1808.36
560.65	1775.59
560.84	1923.04
561.04	1755.11
561.24	1773.54
561.43	1720.29
561.63	1779.68
561.82	1734.63
562.02	1771.49
562.22	1736.68
562.41	1703.91
562.61	1687.53
562.80	1673.19
563.00	1888.23
563.19	1763.30
563.39	1802.21
563.59	1845.22
563.78	1673.19
563.98	1638.38
564.17	1699.81
564.37	1630.18
564.56	1716.20
564.76	1693.67
564.96	1853.41
565.15	1695.72
565.35	1814.50
565.54	1728.49
565.74	1798.12
565.93	1845.22
566.13	1746.92
566.32	1800.16
566.52	1826.79
566.71	1669.09
566.91	1867.75
567.11	1751.01
567.30	1718.25
567.50	1763.30
567.69	1783.78
567.89	1751.01
568.08	1705.96
568.28	1765.35
568.47	1683.43
568.67	1765.35
568.86	1734.63
569.06	1816.55
569.25	1732.58
569.45	1775.59
569.64	1804.26
569.84	1769.44
570.04	1789.92
570.23	1740.77
570.43	1734.63
570.62	1824.74
570.82	1849.32
571.01	1658.85
571.21	1718.25
571.40	1667.05
571.60	1853.41
571.79	1808.36
571.99	1783.78
572.18	1751.01
572.38	1808.36
572.57	1687.53
572.77	1720.29
572.96	1898.47
573.16	1742.82
573.35	1746.92
573.55	1839.08
573.74	1806.31
573.94	1748.97
574.13	1724.39
574.33	1869.80
574.52	1777.64
574.71	1693.67
574.91	1812.45
575.10	1712.10
575.30	1648.61
575.49	1669.09
575.69	1742.82
575.88	1773.54
576.08	1665.00
576.27	1814.50
576.47	1779.68
576.66	1871.84
576.86	1798.12
577.05	1708.01
577.25	1785.83
577.44	1884.13
577.64	1685.48
577.83	1787.88
578.02	1796.07
578.22	1820.64
578.41	1839.08
578.61	1765.35
578.80	1736.68
579.00	1804.26
579.19	1800.16
579.39	1812.45
579.58	1771.49
579.77	1816.55
579.97	1890.28
580.16	1900.52
580.36	1820.64
580.55	1828.84
580.75	1748.97
580.94	1765.35
581.13	1847.27
581.33	1810.40
581.52	1720.29
581.72	1875.94
581.91	1826.79
582.11	1771.49
582.30	1798.12
582.49	1708.01
582.69	1865.70
582.88	1718.25
583.08	1742.82
583.27	1787.88
583.47	1716.20
583.66	1660.90
583.85	1728.49
584.05	1761.25
584.24	1837.03
584.44	1810.40
584.63	1755.11
584.82	1837.03
585.02	1841.12
585.21	1800.16
585.41	1818.60
585.60	1884.13
585.79	1966.05
585.99	1884.13
586.18	1941.47
586.37	2234.33
586.57	3434.44
586.76	9801.58
586.96	24243.85
587.15	33908.22
587.34	40086.94
587.54	41778.56
587.73	35935.71
587.93	25980.53
588.12	21155.52
588.31	17964.78
588.51	15732.50
588.70	14954.27
588.89	13965.10
589.09	12533.57
589.28	10903.39
589.47	9074.55
589.67	7864.20
589.86	6227.87
590.06	4851.64
590.25	3907.52
590.44	3074.00
590.64	2500.57
590.83	2183.13
591.02	2062.30
591.22	1896.42
591.41	1843.17
591.60	1820.64
591.80	1984.48
591.99	1736.68
592.18	1648.61
592.38	1789.92
592.57	1814.50
592.76	1794.02
592.96	1826.79
593.15	1800.16
593.34	1798.12
593.54	1724.39
593.73	1787.88
593.92	1714.15
594.12	1685.48
594.31	1730.53
594.50	1828.84
594.70	1845.22
594.89	1867.75
595.08	1720.29
595.28	1880.04
595.47	1986.53
595.66	1800.16
595.86	1619.94
596.05	1697.77
596.24	1697.77
596.43	1806.31
596.63	1886.18
596.82	1718.25
597.01	1794.02
597.21	1902.56
597.40	1767.40
597.59	1800.16
597.79	1783.78
597.98	1853.41
598.17	1773.54
598.36	1703.91
598.56	1761.25
598.75	1650.66
598.94	1814.50
599.14	1746.92
599.33	1738.73
599.52	1880.04
599.71	1714.15
599.91	1820.64
600.10	1820.64
600.29	1742.82
600.48	1816.55
600.68	1837.03
600.87	1826.79
601.06	1710.05
601.26	1736.68
601.45	1699.81
601.64	1759.21
601.83	1746.92
602.03	1765.35
602.22	1732.58
602.41	1740.77
602.60	1855.46
602.80	1769.44
602.99	1722.34
603.18	1755.11
603.37	1820.64
603.57	1732.58
603.76	1808.36
603.95	1814.50
604.14	1718.25
604.34	1689.57
604.53	1740.77
604.72	1757.16
604.91	1767.40
605.10	1742.82
605.30	1812.45
605.49	1771.49
605.68	1755.11
605.87	1703.91
606.07	1652.71
606.26	1785.83
606.45	1771.49
606.64	1746.92
606.84	1716.20
607.03	1722.34
607.22	1740.77
607.41	1673.19
607.60	1685.48
607.80	1730.53
607.99	1738.73
608.18	1775.59
608.37	1759.21
608.56	1675.24
608.76	1808.36
608.95	1779.68
609.14	1751.01
609.33	1773.54
609.52	1718.25
609.72	1671.14
609.91	1814.50
610.10	1695.72
610.29	1894.37
610.48	1771.49
610.68	1814.50
610.87	1677.29
611.06	1765.35
611.25	1757.16
611.44	1810.40
611.63	1755.11
611.83	1837.03
612.02	1605.61
612.21	1820.64
612.40	1619.94
612.59	1646.57
612.79	1630.18
612.98	1761.25
613.17	1775.59
613.36	1755.11
613.55	1822.69
613.74	1667.05
613.93	1759.21
614.13	1710.05
614.32	1787.88
614.51	1832.93
614.70	1781.73
614.89	1726.44
615.08	1744.87
615.28	2060.26
615.47	1662.95
615.66	1802.21
615.85	1738.73
616.04	1802.21
616.23	1722.34
616.42	1761.25
616.62	1773.54
616.81	1730.53
617.00	1791.97
617.19	1732.58
617.38	1789.92
617.57	1773.54
617.76	1791.97
617.95	1794.02
618.15	1767.40
618.34	1781.73
618.53	1644.52
618.72	1849.32
618.91	1773.54
619.10	1837.03
619.29	1691.62
619.48	1767.40
619.68	1763.30
619.87	1761.25
620.06	1693.67
620.25	1783.78
620.44	1763.30
620.63	1642.47
620.82	1654.76
621.01	1763.30
621.20	1753.06
621.39	1769.44
621.59	1732.58
621.78	1718.25
621.97	1781.73
622.16	1818.60
622.35	1734.63
622.54	1812.45
622.73	1779.68
622.92	1593.32
623.11	1812.45
623.30	1783.78
623.49	1755.11
623.68	1691.62
623.88	1769.44
624.07	1654.76
624.26	1628.14
624.45	1777.64
624.64	1732.58
624.83	1662.95
625.02	1775.59
625.21	1691.62
625.40	1785.83
625.59	1855.46
625.78	1783.78
625.97	1757.16
626.16	1828.84
626.35	1748.97
626.54	1720.29
626.74	1785.83
626.93	1775.59
627.12	1724.39
627.31	1867.75
627.50	1773.54
627.69	1744.87
627.88	1642.47
628.07	1693.67
628.26	1681.38
628.45	1638.38
628.64	1658.85
628.83	1732.58
629.02	1654.76
629.21	1796.07
629.40	1828.84
629.59	1658.85
629.78	1656.81
629.97	1753.06
630.16	1724.39
630.35	1673.19
630.54	1818.60
630.73	1705.96
630.92	1753.06
631.11	1683.43
631.30	1730.53
631.49	1779.68
631.68	1744.87
631.87	1777.64
632.06	1714.15
632.25	1898.47
632.44	1724.39
632.63	1757.16
632.82	1675.24
633.01	1722.34
633.20	1681.38
633.39	1638.38
633.58	1751.01
633.77	1755.11
633.96	1693.67
634.15	1689.57
634.34	1679.33
634.53	1808.36
634.72	1783.78
634.91	1644.52
635.10	1701.86
635.29	1787.88
635.48	1746.92
635.67	1714.15
635.86	1714.15
636.05	1761.25
636.24	1728.49
636.43	1712.10
636.62	1787.88
636.81	1617.90
637.00	1757.16
637.19	1763.30
637.38	1787.88
637.57	1708.01
637.76	1697.77
637.95	1710.05
638.14	1722.34
638.33	1748.97
638.52	1695.72
638.71	1681.38
638.89	1638.38
639.08	1908.71
639.27	1738.73
639.46	1705.96
639.65	1802.21
639.84	1769.44
640.03	1806.31
640.22	1662.95
640.41	1834.98
640.60	1585.13
640.79	1679.33
640.98	1634.28
641.17	1708.01
641.36	1757.16
641.55	1738.73
641.74	1628.14
641.92	1716.20
642.11	1681.38
642.30	1726.44
642.49	1658.85
642.68	1693.67
642.87	1820.64
643.06	1769.44
643.25	1671.14
643.44	1648.61
643.63	1712.10
643.82	1771.49
644.00	1705.96
644.19	1658.85
644.38	1624.04
644.57	1746.92
644.76	1759.21
644.95	1748.97
645.14	1744.87
645.33	1705.96
645.52	1695.72
645.71	1730.53
645.89	1634.28
646.08	1695.72
646.27	1742.82
646.46	1843.17
646.65	1703.91
646.84	1691.62
647.03	1685.48
647.22	1742.82
647.40	1759.21
647.59	1730.53
647.78	1630.18
647.97	1767.40
648.16	1701.86
648.35	1763.30
648.54	1818.60
648.73	1648.61
648.91	1767.40
649.10	1656.81
649.29	1722.34
649.48	1705.96
649.67	1693.67
649.86	1783.78
650.05	1732.58
650.23	1783.78
650.42	1617.90
650.61	1718.25
650.80	1675.24
650.99	1785.83
651.18	1732.58
651.36	1757.16
651.55	1689.57
651.74	1714.15
651.93	1703.91
652.12	1767.40
652.31	1728.49
652.49	1712.10
652.68	1757.16
652.87	1834.98
653.06	1748.97
653.25	1877.99
653.44	1695.72
653.62	1746.92
653.81	1685.48
654.00	1755.11
654.19	1810.40
654.38	1837.03
654.56	1720.29
654.75	1763.30
654.94	1773.54
655.13	1708.01
655.32	1695.72
655.51	1781.73
655.69	1710.05
655.88	1820.64
656.07	1675.24
656.26	1769.44
656.45	1621.99
656.63	1722.34
656.82	1777.64
657.01	1812.45
657.20	1660.90
657.38	1796.07
657.57	1691.62
657.76	1675.24
657.95	1773.54
658.14	1710.05
658.32	1779.68
658.51	1695.72
658.70	1839.08
658.89	1716.20
659.08	1703.91
659.26	1775.59
659.45	1683.43
659.64	1804.26
659.83	1679.33
660.01	1966.05
660.20	1710.05
660.39	1865.70
660.58	1615.85
660.76	1773.54
660.95	1746.92
661.14	1687.53
661.33	1654.76
661.51	1624.04
661.70	1742.82
661.89	1783.78
662.08	1720.29
662.26	1767.40
662.45	1665.00
662.64	1744.87
662.83	1865.70
663.01	1669.09
663.20	1705.96
663.39	1920.99
663.58	1681.38
663.76	1652.71
663.95	1738.73
664.14	1726.44
664.32	1685.48
664.51	1662.95
664.70	1654.76
664.89	1765.35
665.07	1796.07
665.26	1740.77
665.45	1660.90
665.64	1798.12
665.82	1753.06
666.01	1847.27
666.20	1646.57
666.38	1853.41
666.57	1849.32
666.76	2179.04
666.95	4603.83
667.13	10176.36
667.32	15011.61
667.51	17755.89
667.69	18648.80
667.88	17379.06
668.07	12287.81
668.25	9551.73
668.44	7987.08
668.63	7126.93
668.81	6713.24
669.00	6141.86
669.19	5736.36
669.38	5064.63
669.56	4448.19
669.75	3805.13
669.94	3317.71
670.12	2838.48
670.31	2547.67
670.50	2287.58
670.68	2064.35
670.87	1910.75
671.06	1910.75
671.24	1769.44
671.43	1843.17
671.62	1683.43
671.80	1761.25
671.99	1779.68
672.18	1734.63
672.36	1771.49
672.55	1744.87
672.74	1816.55
672.92	1736.68
673.11	1794.02
673.29	1587.18
673.48	1789.92
673.67	1640.42
673.85	1816.55
674.04	1710.05
674.23	1699.81
674.41	1800.16
674.60	1714.15
674.79	1652.71
674.97	1755.11
675.16	1695.72
675.34	1789.92
675.53	1611.75
675.72	1718.25
675.90	1796.07
676.09	1675.24
676.28	1763.30
676.46	1632.23
676.65	1748.97
676.83	1685.48
677.02	1710.05
677.21	1714.15
677.39	1751.01
677.58	1654.76
677.77	1767.40
677.95	1697.77
678.14	1644.52
678.32	1708.01
678.51	1648.61
678.70	1845.22
678.88	1703.91
679.07	1787.88
679.25	1834.98
679.44	1740.77
679.63	1687.53
679.81	1763.30
680.00	1814.50
680.18	1701.86
680.37	1822.69
680.55	1740.77
680.74	1636.33
680.93	1648.61
681.11	1767.40
681.30	1701.86
681.48	1789.92
681.67	1789.92
681.85	1726.44
682.04	1636.33
682.23	1710.05
682.41	1763.30
682.60	1718.25
682.78	1724.39
682.97	1585.13
683.15	1763.30
683.34	1751.01
683.53	1812.45
683.71	1671.14
683.90	1794.02
684.08	1865.70
684.27	1728.49
684.45	1726.44
684.64	1789.92
684.82	1705.96
685.01	1697.77
685.19	1691.62
685.38	1818.60
685.57	1724.39
685.75	1720.29
685.94	1720.29
686.12	1726.44
686.31	1722.34
686.49	1863.65
686.68	1632.23
686.86	1767.40
687.05	1662.95
687.23	1734.63
687.42	1775.59
687.60	1748.97
687.79	1789.92
687.97	1804.26
688.16	1746.92
688.34	1779.68
688.53	1640.42
688.71	1722.34
688.90	1804.26
689.08	1646.57
689.27	1621.99
689.45	1759.21
689.64	1734.63
689.82	1806.31
690.01	1730.53
690.19	1691.62
690.38	1662.95
690.56	1834.98
690.75	1708.01
690.93	1648.61
691.12	1650.66
691.30	1708.01
691.49	1675.24
691.67	1656.81
691.86	1791.97
692.04	1665.00
692.23	1673.19
692.41	1714.15
692.60	1824.74
692.78	1761.25
692.97	1675.24
693.15	1755.11
693.34	1728.49
693.52	1763.30
693.71	1681.38
693.89	1687.53
694.08	1673.19
694.26	1757.16
694.44	1748.97
694.63	1757.16
694.81	1687.53
695.00	1689.57
695.18	1755.11
695.37	1845.22
695.55	1740.77
695.74	1712.10
695.92	1644.52
696.10	1794.02
696.29	1710.05
696.47	1714.15
696.66	1615.85
696.84	1703.91
697.03	1705.96
697.21	1857.51
697.40	2306.01
697.58	1802.21
697.76	1679.33
697.95	1691.62
698.13	1675.24
698.32	1630.18
698.50	1718.25
698.68	1734.63
698.87	1755.11
699.05	1806.31
699.24	1781.73
699.42	1660.90
699.61	1755.11
699.79	1740.77
699.97	1740.77
700.16	1736.68
700.34	1679.33
700.53	1773.54
700.71	1810.40
700.89	1755.11
701.08	1660.90
701.26	1703.91
701.45	2060.26
701.63	1681.38
701.81	1763.30
702.00	1648.61
702.18	1744.87
702.37	1654.76
702.55	1714.15
702.73	1691.62
702.92	1638.38
703.10	1697.77
703.28	1738.73
703.47	1673.19
703.65	1791.97
703.84	1791.97
704.02	1703.91
704.20	1796.07
704.39	1660.90
704.57	1703.91
704.75	1814.50
704.94	1812.45
705.12	1708.01
705.30	1726.44
705.49	2263.01
705.67	4442.04
705.86	9361.27
706.04	12425.03
706.22	14313.25
706.41	15294.23
706.59	13504.31
706.77	9279.35
706.96	7188.37
707.14	6555.55
707.32	6027.17
707.51	5582.76
707.69	4820.92
707.87	4112.32
708.06	3583.95
708.24	2906.07
708.42	2422.75
708.61	2226.14
708.79	1908.71
708.97	1861.60
709.16	1890.28
709.34	1820.64
709.52	1619.94
709.71	1718.25
709.89	1755.11
710.07	1712.10
710.26	1644.52
710.44	1753.06
710.62	1841.12
710.80	1691.62
710.99	1767.40
711.17	1789.92
711.35	1730.53
711.54	1689.57
711.72	1837.03
711.90	1755.11
712.09	1703.91
712.27	1675.24
712.45	1726.44
712.63	1705.96
712.82	1720.29
713.00	1675.24
713.18	1689.57
713.37	1683.43
713.55	1705.96
713.73	1767.40
713.91	1675.24
714.10	1632.23
714.28	1679.33
714.46	1800.16
714.65	1714.15
714.83	1783.78
715.01	1759.21
715.19	1632.23
715.38	1658.85
715.56	1808.36
715.74	1714.15
715.92	1726.44
716.11	1816.55
716.29	1609.70
716.47	1742.82
716.65	1687.53
716.84	1611.75
717.02	1824.74
717.20	1599.46
717.38	1699.81
717.57	1726.44
717.75	1738.73
717.93	1744.87
718.11	1695.72
718.30	1628.14
718.48	1720.29
718.66	1787.88
718.84	1804.26
719.03	1765.35
719.21	1638.38
719.39	1851.36
719.57	1804.26
719.75	1732.58
719.94	1609.70
720.12	1728.49
720.30	1755.11
720.48	1751.01
720.67	1667.05
720.85	1646.57
721.03	1607.66
721.21	1681.38
721.39	1751.01
721.58	1708.01
721.76	1767.40
721.94	1656.81
722.12	1669.09
722.30	1867.75
722.49	1751.01
722.67	1685.48
722.85	1761.25
723.03	1632.23
723.21	1740.77
723.40	1755.11
723.58	1837.03
723.76	1718.25
723.94	1853.41
724.12	1628.14
724.30	1757.16
724.49	1693.67
724.67	1583.08
724.85	1791.97
725.03	1726.44
725.21	1689.57
725.40	1673.19
725.58	1701.86
725.76	1808.36
725.94	1720.29
726.12	1681.38
726.30	1728.49
726.49	1705.96
726.67	1632.23
726.85	1681.38
727.03	1728.49
727.21	2201.57
727.39	2969.55
727.57	3698.63
727.76	4151.23
727.94	4411.32
728.12	4306.88
728.30	3622.86
728.48	2906.07
728.66	2650.07
728.84	2469.85
729.03	2332.64
729.21	2187.23
729.39	2002.91
729.57	1826.79
729.75	1804.26
729.93	1873.89
730.11	1693.67
730.30	1681.38
730.48	1722.34
730.66	1814.50
730.84	1789.92
731.02	1671.14
731.20	1730.53
731.38	1753.06
731.56	1732.58
731.74	1703.91
731.93	1755.11
732.11	1748.97
732.29	1683.43
732.47	1724.39
732.65	1658.85
732.83	1796.07
733.01	1722.34
733.19	1609.70
733.37	1689.57
733.56	1742.82
733.74	1624.04
733.92	1771.49
734.10	1673.19
734.28	1705.96
734.46	1712.10
734.64	1660.90
734.82	1619.94
735.00	1677.29
735.18	1714.15
735.36	1675.24
735.54	1677.29
735.73	1720.29
735.91	1791.97
736.09	1697.77
736.27	1656.81
736.45	1718.25
736.63	1593.32
736.81	1691.62
736.99	1785.83
737.17	1742.82
737.35	1691.62
737.53	1755.11
737.71	1669.09
737.89	1847.27
738.07	1671.14
738.25	1656.81
738.43	1642.47
738.61	1648.61
738.80	1660.90
738.98	1687.53
739.16	1740.77
739.34	1718.25
739.52	1669.09
739.70	1773.54
739.88	1740.77
740.06	1763.30
740.24	1636.33
740.42	1751.01
740.60	1648.61
740.78	1771.49
740.96	1597.42
741.14	1681.38
741.32	1753.06
741.50	1621.99
741.68	1818.60
741.86	1779.68
742.04	1665.00
742.22	1697.77
742.40	1665.00
742.58	1738.73
742.76	1648.61
742.94	1710.05
743.12	1656.81
743.30	1658.85
743.48	1726.44
743.66	1722.34
743.84	1796.07
744.02	1775.59
744.20	1681.38
744.38	1691.62
744.56	1742.82
744.74	1740.77
744.92	1736.68
745.10	1826.79
745.28	1796.07
745.46	1820.64
745.64	1708.01
745.82	1787.88
746.00	1701.86
746.18	1720.29
746.36	1712.10
746.54	1773.54
746.72	1691.62
746.90	1724.39
747.08	1763.30
747.26	1695.72
747.44	1800.16
747.62	1693.67
747.80	1710.05
747.98	1744.87
748.15	1746.92
748.33	1705.96
748.51	1765.35
748.69	1726.44
748.87	1621.99
749.05	1783.78
749.23	1650.66
749.41	1773.54
749.59	1705.96
749.77	1763.30
749.95	1675.24
750.13	1640.42
750.31	1783.78
750.49	1669.09
750.67	1734.63
750.85	1830.88
751.03	1742.82
751.20	1806.31
751.38	1783.78
751.56	1683.43
751.74	1708.01
751.92	1708.01
752.10	1621.99
752.28	1789.92
752.46	1615.85
752.64	1740.77
752.82	1687.53
753.00	1798.12
753.18	1683.43
753.35	1712.10
753.53	1703.91
753.71	1642.47
753.89	1710.05
754.07	1806.31
754.25	1740.77
754.43	1738.73
754.61	1615.85
754.79	1710.05
754.97	1705.96
755.14	1796.07
755.32	1693.67
755.50	1718.25
755.68	1771.49
755.86	1697.77
756.04	1732.58
756.22	1669.09
756.40	1781.73
756.57	1802.21
756.75	1718.25
756.93	1742.82
757.11	1769.44
757.29	1693.67
757.47	1724.39
757.65	1652.71
757.82	1624.04
758.00	1718.25
758.18	1671.14
758.36	1691.62
758.54	1783.78
758.72	1665.00
758.90	1800.16
759.07	1755.11
759.25	1679.33
759.43	1779.68
759.61	1611.75
759.79	2174.94
759.97	1794.02
760.15	1665.00
760.32	1681.38
760.50	1722.34
760.68	1781.73
760.86	1638.38
761.04	1810.40
761.22	1763.30
761.39	1609.70
761.57	1695.72
761.75	1693.67
761.93	1712.10
762.11	1742.82
762.28	1763.30
762.46	1626.09
762.64	1826.79
762.82	1640.42
763.00	1761.25
763.18	1736.68
763.35	1591.27
763.53	1808.36
763.71	1624.04
763.89	1656.81
764.07	1736.68
764.24	1755.11
764.42	1820.64
764.60	1660.90
764.78	1718.25
764.96	1740.77
765.13	1744.87
765.31	1691.62
765.49	1820.64
765.67	1677.29
765.84	1593.32
766.02	1697.77
766.20	1665.00
766.38	1804.26
766.56	1800.16
766.73	1767.40
766.91	1734.63
767.09	1755.11
767.27	1785.83
767.44	1675.24
767.62	1789.92
767.80	1701.86
767.98	1789.92
768.15	1763.30
768.33	1777.64
768.51	1761.25
768.69	1695.72
768.87	1748.97
769.04	1665.00
769.22	1890.28
769.40	1849.32
769.58	1931.23
769.75	1746.92
769.93	1746.92
770.11	1742.82
770.28	1632.23
770.46	1796.07
770.64	1740.77
770.82	1738.73
770.99	1738.73
771.17	1732.58
771.35	1675.24
771.53	1736.68
771.70	1697.77
771.88	1814.50
772.06	1748.97
772.23	1722.34
772.41	1742.82
772.59	1644.52
772.77	1624.04
772.94	1705.96
773.12	1708.01
773.30	1726.44
773.47	1736.68
773.65	1708.01
773.83	1699.81
774.01	1738.73
774.18	1609.70
774.36	1675.24
774.54	1695.72
774.71	1716.20
774.89	1634.28
775.07	1656.81
775.24	1679.33
775.42	1714.15
775.60	1800.16
775.78	1738.73
775.95	1632.23
776.13	1613.80
776.31	1624.04
776.48	1679.33
776.66	1796.07
776.84	1665.00
777.01	1646.57
777.19	1728.49
777.37	1671.14
777.54	1771.49
777.72	1845.22
777.90	1714.15
778.07	1671.14
778.25	1955.81
778.43	1814.50
778.60	1753.06
778.78	1802.21
778.96	1783.78
779.13	1599.46
779.31	1759.21
779.49	1724.39
779.66	1710.05
779.84	1648.61
780.01	1648.61
780.19	1697.77
780.37	1720.29
780.54	1753.06
780.72	1695.72
780.90	1744.87
781.07	1742.82
781.25	1728.49
781.43	1697.77
781.60	1669.09
781.78	1791.97
781.95	1710.05
782.13	1689.57
782.31	1734.63
782.48	1632.23
782.66	1701.86
782.83	1800.16
783.01	1718.25
783.19	1791.97
783.36	1656.81
783.54	1677.29
783.72	1693.67
783.89	1708.01
784.07	1716.20
784.24	1658.85
784.42	1765.35
784.60	1730.53
784.77	1761.25
784.95	1669.09
785.12	1695.72
785.30	1744.87
785.47	1689.57
785.65	1632.23
785.83	1710.05
786.00	1732.58
786.18	1656.81
786.35	1667.05
786.53	1712.10
786.71	1746.92
786.88	1769.44
787.06	1673.19
787.23	1691.62
787.41	1669.09
787.58	1660.90
787.76	1687.53
787.94	1757.16
788.11	1740.77
788.29	1652.71
788.46	1685.48
788.64	1656.81
788.81	1667.05
788.99	1640.42
789.16	1642.47
789.34	1724.39
789.52	1658.85
789.69	1691.62
789.87	1644.52
790.04	1699.81
790.22	1693.67
790.39	1863.65
790.57	1642.47
790.74	1640.42
790.92	1695.72
791.09	1603.56
791.27	1726.44
791.44	1789.92
791.62	1720.29
791.79	1755.11
791.97	1720.29
792.15	1896.42
792.32	1734.63
792.50	1720.29
792.67	1779.68
792.85	1798.12
793.02	1759.21
793.20	1730.53
793.37	1609.70
793.55	1783.78
793.72	1662.95
793.90	1751.01
794.07	1654.76
794.25	1701.86
794.42	1697.77
794.60	1644.52
794.77	1794.02
794.95	1765.35
795.12	1683.43
795.30	1759.21
795.47	1646.57
795.65	1904.61
795.82	1689.57
796.00	1689.57
796.17	1726.44
796.34	1695.72
796.52	1693.67
796.69	1708.01
796.87	1710.05
797.04	1763.30
797.22	1785.83
797.39	1673.19
797.57	1785.83
797.74	1665.00
797.92	1738.73
798.09	1673.19
798.27	1705.96
798.44	1775.59
798.62	1699.81
798.79	1765.35
798.96	1722.34
799.14	1634.28
799.31	1867.75
799.49	1630.18
799.66	1697.77
799.84	1703.91
800.01	1703.91
800.19	1705.96
800.36	1638.38
800.53	1722.34
800.71	1699.81
800.88	1765.35
801.06	1687.53
801.23	1648.61
801.41	1677.29
801.58	1662.95
801.75	1714.15
801.93	1738.73
802.10	1722.34
802.28	1669.09
802.45	1697.77
802.63	1722.34
802.80	1730.53
802.97	1716.20
803.15	1685.48
803.32	1628.14
803.50	1718.25
803.67	1648.61
803.84	1660.90
804.02	1710.05
804.19	1667.05
804.37	1574.89
804.54	1632.23
804.71	1644.52
804.89	1744.87
805.06	1662.95
805.24	1681.38
805.41	1675.24
805.58	1728.49
805.76	1908.71
805.93	1710.05
806.10	1824.74
806.28	1736.68
806.45	1681.38
806.63	1746.92
806.80	1734.63
806.97	1783.78
807.15	1705.96
807.32	1710.05
807.49	1703.91
807.67	1576.94
807.84	1705.96
808.01	1632.23
808.19	1834.98
808.36	1744.87
808.54	1656.81
808.71	1689.57
808.88	1781.73
809.06	1705.96
809.23	1781.73
809.40	1697.77
809.58	1738.73
809.75	1658.85
809.92	1712.10
810.10	1834.98
810.27	1574.89
810.44	1763.30
810.62	1755.11
810.79	1665.00
810.96	1753.06
811.14	1693.67
811.31	1697.77
811.48	1705.96
811.66	1767.40
811.83	1693.67
812.00	1734.63
812.18	1775.59
812.35	1810.40
812.52	1730.53
812.69	1574.89
812.87	1722.34
813.04	1722.34
813.21	1708.01
813.39	1691.62
813.56	1611.75
813.73	1787.88
813.91	1662.95
814.08	1728.49
814.25	1710.05
814.42	1599.46
814.60	1697.77
814.77	1673.19
814.94	1679.33
815.12	1683.43
815.29	1869.80
815.46	1693.67
815.63	1720.29
815.81	1724.39
815.98	1634.28
816.15	1638.38
816.33	1724.39
816.50	1732.58
816.67	1677.29
816.84	1765.35
817.02	1662.95
817.19	1742.82
817.36	1718.25
817.53	1718.25
817.71	1708.01
817.88	1767.40
818.05	1679.33
818.22	1619.94
818.40	1769.44
818.57	1636.33
818.74	1703.91
818.91	1611.75
819.09	1740.77
819.26	1781.73
819.43	1673.19
819.60	1701.86
819.78	1691.62
819.95	1701.86
820.12	1650.66
820.29	1771.49
820.47	1740.77
820.64	1621.99
820.81	1624.04
820.98	1624.04
821.15	1648.61
821.33	1761.25
821.50	1685.48
821.67	1699.81
821.84	1667.05
822.02	1775.59
822.19	1796.07
822.36	1683.43
822.53	1650.66
822.70	1697.77
822.88	1667.05
823.05	1730.53
823.22	1693.67
823.39	1777.64
823.56	1703.91
823.74	1877.99
823.91	1695.72
824.08	1689.57
824.25	1642.47
824.42	1798.12
824.60	1732.58
824.77	1714.15
824.94	1679.33
825.11	1810.40
825.28	1591.27
825.45	1712.10
825.63	1681.38
825.80	1593.32
825.97	1689.57
826.14	1675.24
826.31	1554.41
826.48	1720.29
826.66	1574.89
826.83	1730.53
827.00	1701.86
827.17	1681.38
827.34	1658.85
827.51	1662.95
827.69	1697.77
827.86	1601.51
828.03	1742.82
828.20	1712.10
828.37	1732.58
828.54	1738.73
828.71	1626.09
828.89	1861.60
829.06	1736.68
829.23	1812.45
829.40	1613.80
829.57	1689.57
829.74	1738.73
829.91	1638.38
830.09	1611.75
830.26	1730.53
830.43	1753.06
830.60	1681.38
830.77	1665.00
830.94	1763.30
831.11	1697.77
831.28	1665.00
831.46	1763.30
831.63	1621.99
831.80	1712.10
831.97	1638.38
832.14	1714.15
832.31	1761.25
832.48	1742.82
832.65	1761.25
832.82	1798.12
832.99	1734.63
833.17	1734.63
833.34	1798.12
833.51	1712.10
833.68	1615.85
833.85	1798.12
834.02	1667.05
834.19	1628.14
834.36	1626.09
834.53	1669.09
834.70	1734.63
834.87	1738.73
835.04	1808.36
835.22	1634.28
835.39	1644.52
835.56	1669.09
835.73	1656.81
835.90	1751.01
836.07	1665.00
836.24	1718.25
836.41	1667.05
836.58	1665.00
836.75	1771.49
836.92	1716.20
837.09	1650.66
837.26	1736.68
837.43	1818.60
837.60	1765.35
837.77	1712.10
837.94	1755.11
838.12	1765.35
838.29	1789.92
838.46	1632.23
838.63	1585.13
838.80	1783.78
838.97	1773.54
839.14	1656.81
839.31	1728.49
839.48	1730.53
839.65	1673.19
839.82	1732.58
839.99	1708.01
840.16	1603.56
840.33	1681.38
840.50	1656.81
840.67	1630.18
840.84	1570.79
841.01	1748.97
841.18	1701.86
841.35	1683.43
841.52	1693.67
841.69	1841.12
841.86	1685.48
842.03	1652.71
842.20	1734.63
842.37	1675.24
842.54	1675.24
842.71	1648.61
842.88	1617.90
843.05	1777.64
843.22	1654.76
843.39	1728.49
843.56	1679.33
843.73	1697.77
843.90	1695.72
844.07	1662.95
844.24	1712.10
844.41	1785.83
844.58	1665.00
844.75	1650.66
844.92	1757.16
845.09	1748.97
845.26	1773.54
845.43	1800.16
845.60	1624.04
845.77	1730.53
845.94	1738.73
846.10	1732.58
846.27	1636.33
846.44	1677.29
846.61	1732.58
846.78	1730.53
846.95	1746.92
847.12	1634.28
847.29	1710.05
847.46	1728.49
847.63	1630.18
847.80	1701.86
847.97	1689.57
848.14	1816.55
848.31	1683.43
848.48	1605.61
848.65	1685.48
848.82	1621.99
848.98	1828.84
849.15	1767.40
849.32	1748.97
849.49	1751.01
849.66	1683.43
849.83	1785.83
850.00	1697.77
850.17	1746.92
850.34	1722.34
850.51	1724.39
850.68	1685.48
850.85	1787.88
851.01	1726.44
851.18	1679.33
851.35	1701.86
851.52	1802.21
851.69	1722.34
851.86	1687.53
852.03	1697.77
852.20	1740.77
852.37	1693.67
852.53	1697.77
852.70	1800.16
852.87	1726.44
853.04	1759.21
853.21	1683.43
853.38	1730.53
853.55	1787.88
853.72	1779.68
853.89	1613.80
854.05	1677.29
854.22	1683.43
854.39	1681.38
854.56	1714.15
854.73	1826.79
854.90	1751.01
855.07	1677.29
855.23	1671.14
855.40	1662.95
855.57	1646.57
855.74	1660.90
855.91	1873.89
856.08	1595.37
856.25	1722.34
856.41	1726.44
856.58	1671.14
856.75	1712.10
856.92	1703.91
857.09	1732.58
857.26	1681.38
857.42	1740.77
857.59	1710.05
857.76	1681.38
857.93	1755.11
858.10	1761.25
858.27	1665.00
858.43	1759.21
858.60	1665.00
858.77	1558.50
858.94	1697.77
859.11	1800.16
859.27	1730.53
859.44	1736.68
859.61	1757.16
859.78	1726.44
859.95	1683.43
860.12	1677.29
860.28	1779.68
860.45	1832.93
860.62	1738.73
860.79	1785.83
860.95	1697.77
861.12	1673.19
861.29	1679.33
861.46	1630.18
861.63	1679.33
861.79	1757.16
861.96	1650.66
862.13	1652.71
862.30	1759.21
862.47	1710.05
862.63	1691.62
862.80	1779.68
862.97	1736.68
863.14	1728.49
863.30	1779.68
863.47	1716.20
863.64	1738.73
863.81	1675.24
863.97	1685.48
864.14	1714.15
864.31	1689.57
864.48	1665.00
864.65	1748.97
864.81	1861.60
864.98	1695.72
865.15	1720.29
865.32	1769.44
865.48	1701.86
865.65	1736.68
865.82	1673.19
865.98	1783.78
866.15	1734.63
866.32	1695.72
866.49	1689.57
866.65	1724.39
866.82	1642.47
866.99	1714.15
867.16	1695.72
867.32	1583.08
867.49	1646.57
867.66	1697.77
867.83	1624.04
867.99	1599.46
868.16	1669.09
868.33	1587.18
868.49	1689.57
868.66	1781.73
868.83	1734.63
868.99	1708.01
869.16	1798.12
869.33	1773.54
869.50	1853.41
869.66	1699.81
869.83	1648.61
870.00	1691.62
870.16	1806.31
870.33	1724.39
870.50	1791.97
870.66	1669.09
870.83	1791.97
871.00	1728.49
871.17	1763.30
871.33	1701.86
871.50	1634.28
871.67	1677.29
871.83	1648.61
872.00	1853.41
872.17	1720.29
872.33	1744.87
872.50	1771.49
872.67	1740.77
872.83	1658.85
873.00	1714.15
873.17	1710.05
873.33	1720.29
873.50	1773.54
873.67	1669.09
873.83	1697.77
874.00	1685.48
874.16	1791.97
874.33	1732.58
874.50	1617.90
874.66	1712.10
874.83	1771.49
875.00	1757.16
875.16	1724.39
875.33	1777.64
875.50	1574.89
875.66	1675.24
875.83	1763.30
875.99	1787.88
876.16	1767.40
876.33	1619.94
876.49	1740.77
876.66	1830.88
876.83	1712.10
876.99	1683.43
877.16	1708.01
877.32	1665.00
877.49	1683.43
877.66	1763.30
877.82	1851.36
877.99	1734.63
878.15	1806.31
878.32	1683.43
878.49	1667.05
878.65	1746.92
878.82	1789.92
878.98	1683.43
879.15	1800.16
879.32	1753.06
879.48	1773.54
879.65	1665.00
879.81	1687.53
879.98	1712.10
880.15	1681.38
880.31	1785.83
880.48	1691.62
880.64	1736.68
880.81	1806.31
880.97	1763.30
881.14	1720.29
881.31	1624.04
881.47	1822.69
881.64	1685.48
881.80	1630.18
881.97	1773.54
882.13	1699.81
882.30	1701.86
882.47	1679.33
882.63	1671.14
882.80	1675.24
882.96	1648.61
883.13	1755.11
883.29	1726.44
883.46	1738.73
883.62	1832.93
883.79	1714.15
883.95	1755.11
884.12	1681.38
884.29	1789.92
884.45	1710.05
884.62	1726.44
884.78	1671.14
884.95	1726.44
885.11	1710.05
885.28	1732.58
885.44	1732.58
885.61	1656.81
885.77	1847.27
885.94	1730.53
886.10	1775.59
886.27	1767.40
886.43	1845.22
886.60	1775.59
886.76	1697.77
886.93	1611.75
887.09	1710.05
887.26	1603.56
887.42	1714.15
887.59	1798.12
887.75	1830.88
887.92	1800.16
888.08	1812.45
888.25	1839.08
888.41	1736.68
888.58	1730.53
888.74	1656.81
888.91	1648.61
>>>>>End Processed Spectral Data<<<<<
