SpectraSuite Data File
++++++++++++++++++++++++++++++++++++
Date: Mon Jun 06 12:12:57 CEST 2016
User: root
Dark Spectrum Present: No
Reference Spectrum Present: No
Number of Sampled Component Spectra: 1
Spectrometers: USB4C02835
Integration Time (usec): 100000 (USB4C02835)
Spectra Averaged: 1 (USB4C02835)
Boxcar Smoothing: 0 (USB4C02835)
Correct for Electrical Dark: No (USB4C02835)
Strobe/Lamp Enabled: No (USB4C02835)
Correct for Detector Non-linearity: No (USB4C02835)
Correct for Stray Light: No (USB4C02835)
Number of Pixels in Processed Spectrum: 3648
>>>>>Begin Processed Spectral Data<<<<<
177.47	1464.30
177.69	1464.30
177.91	1464.30
178.13	1460.20
178.36	1486.83
178.58	1656.81
178.80	1609.70
179.02	1617.90
179.24	1560.55
179.46	1669.09
179.68	1751.01
179.90	1687.53
180.13	1703.91
180.35	1710.05
180.57	1699.81
180.79	1718.25
181.01	1697.77
181.23	1689.57
181.45	1755.11
181.67	1728.49
181.90	1724.39
182.12	1632.23
182.34	1648.61
182.56	1748.97
182.78	1710.05
183.00	1687.53
183.22	1716.20
183.44	1611.75
183.66	1828.84
183.89	1808.36
184.11	1640.42
184.33	1710.05
184.55	1705.96
184.77	1785.83
184.99	1699.81
185.21	1732.58
185.43	1845.22
185.65	1642.47
185.87	1722.34
186.10	1796.07
186.32	1820.64
186.54	1699.81
186.76	1722.34
186.98	1703.91
187.20	1712.10
187.42	1669.09
187.64	1765.35
187.86	1730.53
188.08	1753.06
188.30	1675.24
188.52	1679.33
188.75	1789.92
188.97	1742.82
189.19	1669.09
189.41	1693.67
189.63	1712.10
189.85	1671.14
190.07	1624.04
190.29	1556.46
190.51	1697.77
190.73	1671.14
190.95	1710.05
191.17	1699.81
191.39	1554.41
191.61	1708.01
191.84	1669.09
192.06	1675.24
192.28	1550.31
192.50	1890.28
192.72	1734.63
192.94	1691.62
193.16	1726.44
193.38	1738.73
193.60	1687.53
193.82	1648.61
194.04	1771.49
194.26	1738.73
194.48	1683.43
194.70	1667.05
194.92	1648.61
195.14	1738.73
195.36	1605.61
195.58	1667.05
195.80	1689.57
196.02	1619.94
196.24	1697.77
196.46	1718.25
196.69	1626.09
196.91	1806.31
197.13	1638.38
197.35	1751.01
197.57	1802.21
197.79	1701.86
198.01	1662.95
198.23	1701.86
198.45	1685.48
198.67	1677.29
198.89	1693.67
199.11	1710.05
199.33	1708.01
199.55	1566.70
199.77	1665.00
199.99	1783.78
200.21	1714.15
200.43	1722.34
200.65	1667.05
200.87	1609.70
201.09	1748.97
201.31	1658.85
201.53	1753.06
201.75	1673.19
201.97	1691.62
202.19	1759.21
202.41	1820.64
202.63	1832.93
202.85	1705.96
203.07	1685.48
203.29	1675.24
203.51	1605.61
203.73	1693.67
203.95	1855.46
204.17	1724.39
204.39	1744.87
204.61	1650.66
204.83	1675.24
205.05	1679.33
205.27	1712.10
205.49	1796.07
205.71	1695.72
205.93	1652.71
206.15	1638.38
206.37	1652.71
206.59	1675.24
206.81	1677.29
207.03	1675.24
207.25	1617.90
207.47	1748.97
207.69	1611.75
207.91	1771.49
208.13	1691.62
208.34	1708.01
208.56	1595.37
208.78	1656.81
209.00	1689.57
209.22	1681.38
209.44	1634.28
209.66	1691.62
209.88	1640.42
210.10	1767.40
210.32	1658.85
210.54	1748.97
210.76	1742.82
210.98	1751.01
211.20	1542.12
211.42	1699.81
211.64	1714.15
211.86	1748.97
212.08	1675.24
212.30	1712.10
212.52	1703.91
212.74	1689.57
212.96	1658.85
213.17	1732.58
213.39	1718.25
213.61	1771.49
213.83	1828.84
214.05	1652.71
214.27	1728.49
214.49	1683.43
214.71	1630.18
214.93	1703.91
215.15	1730.53
215.37	1730.53
215.59	1662.95
215.81	1800.16
216.03	1708.01
216.24	1701.86
216.46	1683.43
216.68	1703.91
216.90	1693.67
217.12	1730.53
217.34	1691.62
217.56	1759.21
217.78	1822.69
218.00	1714.15
218.22	1679.33
218.44	1740.77
218.66	1685.48
218.87	1769.44
219.09	1626.09
219.31	1689.57
219.53	1650.66
219.75	1691.62
219.97	1751.01
220.19	1714.15
220.41	1679.33
220.63	1787.88
220.85	1697.77
221.06	1652.71
221.28	1744.87
221.50	1769.44
221.72	1695.72
221.94	1669.09
222.16	1705.96
222.38	1726.44
222.60	1722.34
222.82	1628.14
223.03	1701.86
223.25	1730.53
223.47	1716.20
223.69	1701.86
223.91	1605.61
224.13	1632.23
224.35	1689.57
224.57	1753.06
224.78	1665.00
225.00	1650.66
225.22	1652.71
225.44	1777.64
225.66	1705.96
225.88	1640.42
226.10	1732.58
226.32	1687.53
226.53	1773.54
226.75	1730.53
226.97	1621.99
227.19	1658.85
227.41	1617.90
227.63	1677.29
227.85	1597.42
228.06	1798.12
228.28	1658.85
228.50	1759.21
228.72	1628.14
228.94	1685.48
229.16	1656.81
229.37	1650.66
229.59	1632.23
229.81	1685.48
230.03	1669.09
230.25	1615.85
230.47	1705.96
230.69	1587.18
230.90	1683.43
231.12	1665.00
231.34	1740.77
231.56	1757.16
231.78	1603.56
232.00	1697.77
232.21	1748.97
232.43	1648.61
232.65	1648.61
232.87	1689.57
233.09	1636.33
233.30	1591.27
233.52	1755.11
233.74	1769.44
233.96	1734.63
234.18	1701.86
234.40	1652.71
234.61	1886.18
234.83	1679.33
235.05	1648.61
235.27	1837.03
235.49	1751.01
235.70	1785.83
235.92	1736.68
236.14	1683.43
236.36	1773.54
236.58	1630.18
236.79	1638.38
237.01	1685.48
237.23	1685.48
237.45	1763.30
237.67	1636.33
237.88	1626.09
238.10	1791.97
238.32	1574.89
238.54	1640.42
238.76	1724.39
238.97	1705.96
239.19	1572.84
239.41	1742.82
239.63	1761.25
239.85	1613.80
240.06	1703.91
240.28	1736.68
240.50	1734.63
240.72	1742.82
240.93	1681.38
241.15	1738.73
241.37	1701.86
241.59	1699.81
241.81	1656.81
242.02	1667.05
242.24	1724.39
242.46	1673.19
242.68	1648.61
242.89	1728.49
243.11	1703.91
243.33	1742.82
243.55	1710.05
243.76	1673.19
243.98	1673.19
244.20	1722.34
244.42	1753.06
244.64	1665.00
244.85	1632.23
245.07	1615.85
245.29	1740.77
245.51	1697.77
245.72	1691.62
245.94	1794.02
246.16	1648.61
246.38	1738.73
246.59	1705.96
246.81	1650.66
247.03	1722.34
247.24	1605.61
247.46	1722.34
247.68	1636.33
247.90	1583.08
248.11	1679.33
248.33	1769.44
248.55	1677.29
248.77	1705.96
248.98	1763.30
249.20	1759.21
249.42	1673.19
249.64	1712.10
249.85	1722.34
250.07	1658.85
250.29	1683.43
250.50	1705.96
250.72	1632.23
250.94	1742.82
251.16	1740.77
251.37	1798.12
251.59	1667.05
251.81	1665.00
252.02	1798.12
252.24	1677.29
252.46	1759.21
252.68	1673.19
252.89	1593.32
253.11	1630.18
253.33	1837.03
253.54	1771.49
253.76	1640.42
253.98	1656.81
254.20	1744.87
254.41	1632.23
254.63	1691.62
254.85	1621.99
255.06	1708.01
255.28	1699.81
255.50	1683.43
255.71	1703.91
255.93	1626.09
256.15	1685.48
256.36	1699.81
256.58	1628.14
256.80	1714.15
257.02	1654.76
257.23	1677.29
257.45	1673.19
257.67	1718.25
257.88	1662.95
258.10	1734.63
258.32	1695.72
258.53	1662.95
258.75	1720.29
258.97	1636.33
259.18	1660.90
259.40	1699.81
259.62	1798.12
259.83	1726.44
260.05	1730.53
260.27	2060.26
260.48	1716.20
260.70	1665.00
260.92	1699.81
261.13	1642.47
261.35	1699.81
261.57	1665.00
261.78	1599.46
262.00	1607.66
262.22	1705.96
262.43	1603.56
262.65	1705.96
262.86	1677.29
263.08	1755.11
263.30	1705.96
263.51	1570.79
263.73	1609.70
263.95	1810.40
264.16	1689.57
264.38	1632.23
264.60	1730.53
264.81	1671.14
265.03	1751.01
265.25	1787.88
265.46	1615.85
265.68	1779.68
265.89	1691.62
266.11	1611.75
266.33	1724.39
266.54	1820.64
266.76	1681.38
266.98	1730.53
267.19	1781.73
267.41	1689.57
267.62	1708.01
267.84	1640.42
268.06	1693.67
268.27	1718.25
268.49	1667.05
268.70	1705.96
268.92	1652.71
269.14	1640.42
269.35	1689.57
269.57	1636.33
269.79	1689.57
270.00	1607.66
270.22	1724.39
270.43	1636.33
270.65	1566.70
270.87	1708.01
271.08	1724.39
271.30	1789.92
271.51	1652.71
271.73	1779.68
271.95	1818.60
272.16	1761.25
272.38	1697.77
272.59	1595.37
272.81	1669.09
273.02	1687.53
273.24	1738.73
273.46	1708.01
273.67	1650.66
273.89	1636.33
274.10	1607.66
274.32	1757.16
274.54	1671.14
274.75	1679.33
274.97	1714.15
275.18	1724.39
275.40	1773.54
275.61	1671.14
275.83	1638.38
276.05	1619.94
276.26	1716.20
276.48	1728.49
276.69	1662.95
276.91	1607.66
277.12	1728.49
277.34	1812.45
277.55	1763.30
277.77	1708.01
277.99	1660.90
278.20	1683.43
278.42	1603.56
278.63	1658.85
278.85	1628.14
279.06	1656.81
279.28	1787.88
279.49	1763.30
279.71	1708.01
279.93	1683.43
280.14	1644.52
280.36	1728.49
280.57	1763.30
280.79	1746.92
281.00	1564.65
281.22	1642.47
281.43	1742.82
281.65	1632.23
281.86	1619.94
282.08	1687.53
282.29	1798.12
282.51	1656.81
282.73	1656.81
282.94	1556.46
283.16	1626.09
283.37	1757.16
283.59	1753.06
283.80	1708.01
284.02	1619.94
284.23	1753.06
284.45	1710.05
284.66	1652.71
284.88	1597.42
285.09	1669.09
285.31	1736.68
285.52	1742.82
285.74	1630.18
285.95	1656.81
286.17	1687.53
286.38	1665.00
286.60	1658.85
286.81	1646.57
287.03	1660.90
287.24	1673.19
287.46	1732.58
287.67	1673.19
287.89	1892.32
288.10	1671.14
288.32	1685.48
288.53	1699.81
288.75	1718.25
288.96	1748.97
289.18	1632.23
289.39	1689.57
289.61	1816.55
289.82	1800.16
290.04	1738.73
290.25	1665.00
290.47	1712.10
290.68	1648.61
290.90	1753.06
291.11	1583.08
291.33	1738.73
291.54	1650.66
291.76	1687.53
291.97	1708.01
292.18	1728.49
292.40	1644.52
292.61	1681.38
292.83	1796.07
293.04	1757.16
293.26	1767.40
293.47	1673.19
293.69	1591.27
293.90	1689.57
294.12	1785.83
294.33	1691.62
294.55	1685.48
294.76	1736.68
294.97	1789.92
295.19	1769.44
295.40	1675.24
295.62	1710.05
295.83	1736.68
296.05	1665.00
296.26	1755.11
296.48	1652.71
296.69	1640.42
296.90	1701.86
297.12	1701.86
297.33	1732.58
297.55	1677.29
297.76	1714.15
297.98	1703.91
298.19	1654.76
298.41	1673.19
298.62	1619.94
298.83	1744.87
299.05	1640.42
299.26	1636.33
299.48	1640.42
299.69	1755.11
299.90	1720.29
300.12	1744.87
300.33	1699.81
300.55	1722.34
300.76	1708.01
300.98	1681.38
301.19	1615.85
301.40	1640.42
301.62	1691.62
301.83	1685.48
302.05	1732.58
302.26	1658.85
302.47	1695.72
302.69	1677.29
302.90	1660.90
303.12	1644.52
303.33	1665.00
303.54	1718.25
303.76	1626.09
303.97	1738.73
304.19	1820.64
304.40	1599.46
304.61	1718.25
304.83	1847.27
305.04	1763.30
305.26	1667.05
305.47	1673.19
305.68	1699.81
305.90	1652.71
306.11	1705.96
306.33	1712.10
306.54	1648.61
306.75	1597.42
306.97	1597.42
307.18	1611.75
307.39	1581.03
307.61	1738.73
307.82	1675.24
308.04	1703.91
308.25	1710.05
308.46	1740.77
308.68	1648.61
308.89	1710.05
309.10	1740.77
309.32	1718.25
309.53	1798.12
309.74	1724.39
309.96	1648.61
310.17	1757.16
310.39	1738.73
310.60	1705.96
310.81	1714.15
311.03	1626.09
311.24	1763.30
311.45	1718.25
311.67	1818.60
311.88	1748.97
312.09	1681.38
312.31	1650.66
312.52	1710.05
312.73	1724.39
312.95	1638.38
313.16	1648.61
313.37	1718.25
313.59	1710.05
313.80	1712.10
314.01	1894.37
314.23	1646.57
314.44	1744.87
314.65	1660.90
314.87	1638.38
315.08	1714.15
315.29	1658.85
315.51	1716.20
315.72	1640.42
315.93	1785.83
316.15	1654.76
316.36	1730.53
316.57	1634.28
316.79	1789.92
317.00	1740.77
317.21	1687.53
317.43	1656.81
317.64	1646.57
317.85	1617.90
318.07	1751.01
318.28	1697.77
318.49	1720.29
318.70	1877.99
318.92	1759.21
319.13	1816.55
319.34	1841.12
319.56	1779.68
319.77	1783.78
319.98	1791.97
320.20	1742.82
320.41	1755.11
320.62	1691.62
320.83	1718.25
321.05	1855.46
321.26	1800.16
321.47	1685.48
321.69	1771.49
321.90	1591.27
322.11	1656.81
322.32	1699.81
322.54	1685.48
322.75	1615.85
322.96	1830.88
323.18	1578.98
323.39	1605.61
323.60	1683.43
323.81	1703.91
324.03	1644.52
324.24	1757.16
324.45	1712.10
324.66	1665.00
324.88	1720.29
325.09	1730.53
325.30	1671.14
325.52	1609.70
325.73	1705.96
325.94	1595.37
326.15	1650.66
326.37	1601.51
326.58	1722.34
326.79	1779.68
327.00	1619.94
327.22	1742.82
327.43	1624.04
327.64	1652.71
327.85	1728.49
328.07	1667.05
328.28	1728.49
328.49	1673.19
328.70	1671.14
328.92	1705.96
329.13	1689.57
329.34	1683.43
329.55	1710.05
329.76	1742.82
329.98	1691.62
330.19	1685.48
330.40	1769.44
330.61	1693.67
330.83	1765.35
331.04	1701.86
331.25	1652.71
331.46	1667.05
331.68	1677.29
331.89	1763.30
332.10	1746.92
332.31	1646.57
332.52	1716.20
332.74	1789.92
332.95	1576.94
333.16	1665.00
333.37	1742.82
333.58	1720.29
333.80	1632.23
334.01	1560.55
334.22	1681.38
334.43	1697.77
334.64	1673.19
334.86	1611.75
335.07	1662.95
335.28	1738.73
335.49	1624.04
335.70	1787.88
335.92	1722.34
336.13	1771.49
336.34	1767.40
336.55	1708.01
336.76	1658.85
336.98	1554.41
337.19	1720.29
337.40	1824.74
337.61	1843.17
337.82	1607.66
338.04	1736.68
338.25	1593.32
338.46	1640.42
338.67	1636.33
338.88	1699.81
339.09	1611.75
339.31	1656.81
339.52	1544.17
339.73	1630.18
339.94	1644.52
340.15	1771.49
340.36	1644.52
340.58	1673.19
340.79	1673.19
341.00	1675.24
341.21	1554.41
341.42	1751.01
341.63	1755.11
341.85	1673.19
342.06	1705.96
342.27	1644.52
342.48	1757.16
342.69	1572.84
342.90	1675.24
343.12	1689.57
343.33	1697.77
343.54	1705.96
343.75	1771.49
343.96	1615.85
344.17	1636.33
344.38	1703.91
344.60	1669.09
344.81	1658.85
345.02	1685.48
345.23	1742.82
345.44	1855.46
345.65	1746.92
345.86	1677.29
346.07	1699.81
346.29	1701.86
346.50	1730.53
346.71	1734.63
346.92	1748.97
347.13	1767.40
347.34	1755.11
347.55	1699.81
347.76	1718.25
347.98	1632.23
348.19	1656.81
348.40	1732.58
348.61	1753.06
348.82	1763.30
349.03	1675.24
349.24	1656.81
349.45	1832.93
349.66	1665.00
349.88	1662.95
350.09	1665.00
350.30	1665.00
350.51	1789.92
350.72	1681.38
350.93	1761.25
351.14	1665.00
351.35	1708.01
351.56	1650.66
351.77	1685.48
351.99	1738.73
352.20	1826.79
352.41	1755.11
352.62	1624.04
352.83	1720.29
353.04	1644.52
353.25	1595.37
353.46	1748.97
353.67	1742.82
353.88	1607.66
354.09	1757.16
354.30	1675.24
354.52	1746.92
354.73	1626.09
354.94	1673.19
355.15	1787.88
355.36	1755.11
355.57	1648.61
355.78	1767.40
355.99	1624.04
356.20	1744.87
356.41	1691.62
356.62	1656.81
356.83	1759.21
357.04	1777.64
357.25	1558.50
357.46	1660.90
357.68	1609.70
357.89	1585.13
358.10	1669.09
358.31	1636.33
358.52	1685.48
358.73	1617.90
358.94	1644.52
359.15	1607.66
359.36	1730.53
359.57	1636.33
359.78	1665.00
359.99	1693.67
360.20	1677.29
360.41	1662.95
360.62	1683.43
360.83	1697.77
361.04	1683.43
361.25	1708.01
361.46	1716.20
361.67	1712.10
361.88	1675.24
362.09	1703.91
362.30	1681.38
362.51	1693.67
362.72	1716.20
362.93	1695.72
363.14	1783.78
363.35	1650.66
363.56	1636.33
363.78	1759.21
363.99	1765.35
364.20	1671.14
364.41	1734.63
364.62	1880.04
364.83	1675.24
365.04	1742.82
365.25	1710.05
365.46	1822.69
365.67	1626.09
365.88	1650.66
366.09	1673.19
366.30	1677.29
366.51	1753.06
366.72	1626.09
366.93	1708.01
367.14	1726.44
367.35	1820.64
367.56	1679.33
367.77	1783.78
367.98	1730.53
368.18	1730.53
368.39	1714.15
368.60	1626.09
368.81	1800.16
369.02	1628.14
369.23	1648.61
369.44	1560.55
369.65	1648.61
369.86	1740.77
370.07	1748.97
370.28	1634.28
370.49	1705.96
370.70	1708.01
370.91	1626.09
371.12	1628.14
371.33	1720.29
371.54	1683.43
371.75	1753.06
371.96	1576.94
372.17	1642.47
372.38	1681.38
372.59	1705.96
372.80	1642.47
373.01	1617.90
373.22	1751.01
373.43	1656.81
373.64	1658.85
373.85	1701.86
374.06	1746.92
374.26	1710.05
374.47	1687.53
374.68	1767.40
374.89	1720.29
375.10	1662.95
375.31	1722.34
375.52	1724.39
375.73	1697.77
375.94	1665.00
376.15	1781.73
376.36	1632.23
376.57	1669.09
376.78	1742.82
376.99	1673.19
377.20	1767.40
377.40	1644.52
377.61	1839.08
377.82	1656.81
378.03	1720.29
378.24	1699.81
378.45	1759.21
378.66	1679.33
378.87	1615.85
379.08	1548.26
379.29	1703.91
379.50	1742.82
379.71	1662.95
379.91	1695.72
380.12	1583.08
380.33	1710.05
380.54	1763.30
380.75	1652.71
380.96	1687.53
381.17	1751.01
381.38	1705.96
381.59	1822.69
381.80	1671.14
382.00	1802.21
382.21	1724.39
382.42	1689.57
382.63	1789.92
382.84	1767.40
383.05	1789.92
383.26	1757.16
383.47	1728.49
383.68	1755.11
383.88	1632.23
384.09	1744.87
384.30	1720.29
384.51	1767.40
384.72	1591.27
384.93	1595.37
385.14	1751.01
385.35	1740.77
385.55	1638.38
385.76	1779.68
385.97	1691.62
386.18	1648.61
386.39	1720.29
386.60	1634.28
386.81	1703.91
387.02	1677.29
387.22	1720.29
387.43	1837.03
387.64	1769.44
387.85	1834.98
388.06	2176.99
388.27	4265.92
388.48	6829.98
388.68	8308.61
388.89	9676.65
389.10	10057.57
389.31	8650.62
389.52	7557.00
389.73	6856.60
389.93	6274.98
390.14	5728.17
390.35	5111.73
390.56	4388.80
390.77	3856.33
390.98	3041.23
391.18	2451.42
391.39	2052.06
391.60	1814.50
391.81	1777.64
392.02	1644.52
392.23	1800.16
392.43	1730.53
392.64	1779.68
392.85	1722.34
393.06	1794.02
393.27	1679.33
393.47	1662.95
393.68	1697.77
393.89	1671.14
394.10	1748.97
394.31	1595.37
394.52	1693.67
394.72	1605.61
394.93	1804.26
395.14	1652.71
395.35	1777.64
395.56	1638.38
395.76	1722.34
395.97	1753.06
396.18	1820.64
396.39	1814.50
396.60	2035.68
396.80	1857.51
397.01	1845.22
397.22	1845.22
397.43	1818.60
397.64	1710.05
397.84	1853.41
398.05	1789.92
398.26	1673.19
398.47	1746.92
398.67	1798.12
398.88	1730.53
399.09	1691.62
399.30	1642.47
399.51	1748.97
399.71	1701.86
399.92	1619.94
400.13	1660.90
400.34	1708.01
400.54	1689.57
400.75	1808.36
400.96	1638.38
401.17	1830.88
401.37	1679.33
401.58	1730.53
401.79	1677.29
402.00	1759.21
402.21	1972.19
402.41	1918.95
402.62	2037.73
402.83	1931.23
403.04	2033.63
403.24	2082.78
403.45	1810.40
403.66	1882.08
403.87	1818.60
404.07	1822.69
404.28	1845.22
404.49	1873.89
404.70	1701.86
404.90	1738.73
405.11	1718.25
405.32	1689.57
405.52	1679.33
405.73	1691.62
405.94	1654.76
406.15	1648.61
406.35	1724.39
406.56	1691.62
406.77	1658.85
406.98	1744.87
407.18	1687.53
407.39	1732.58
407.60	1724.39
407.80	1671.14
408.01	1607.66
408.22	1796.07
408.43	1665.00
408.63	1839.08
408.84	1669.09
409.05	1818.60
409.25	1667.05
409.46	1691.62
409.67	1675.24
409.88	1621.99
410.08	1738.73
410.29	1699.81
410.50	1742.82
410.70	1746.92
410.91	1619.94
411.12	1724.39
411.32	1705.96
411.53	1705.96
411.74	1753.06
411.95	1728.49
412.15	1755.11
412.36	1742.82
412.57	1763.30
412.77	1826.79
412.98	1755.11
413.19	1736.68
413.39	1722.34
413.60	1687.53
413.81	1796.07
414.01	1656.81
414.22	1693.67
414.43	1746.92
414.63	1619.94
414.84	1675.24
415.05	1724.39
415.25	1591.27
415.46	1740.77
415.67	1654.76
415.87	1677.29
416.08	1658.85
416.29	1677.29
416.49	1730.53
416.70	1697.77
416.91	1677.29
417.11	1652.71
417.32	1746.92
417.53	1673.19
417.73	1783.78
417.94	1685.48
418.15	1705.96
418.35	1720.29
418.56	1710.05
418.77	1877.99
418.97	1638.38
419.18	1667.05
419.38	1587.18
419.59	1644.52
419.80	1755.11
420.00	1669.09
420.21	1685.48
420.42	1746.92
420.62	1677.29
420.83	1732.58
421.04	1615.85
421.24	1716.20
421.45	1728.49
421.65	1722.34
421.86	1626.09
422.07	1716.20
422.27	1687.53
422.48	1673.19
422.69	1710.05
422.89	1679.33
423.10	1746.92
423.30	1665.00
423.51	1777.64
423.72	1734.63
423.92	1738.73
424.13	1699.81
424.33	1646.57
424.54	1675.24
424.75	1738.73
424.95	1773.54
425.16	1687.53
425.36	1695.72
425.57	1746.92
425.78	1742.82
425.98	1773.54
426.19	1640.42
426.39	1648.61
426.60	1693.67
426.81	1732.58
427.01	1746.92
427.22	1689.57
427.42	1593.32
427.63	1632.23
427.83	1767.40
428.04	1796.07
428.25	1834.98
428.45	1726.44
428.66	1781.73
428.86	1730.53
429.07	1695.72
429.28	1609.70
429.48	1681.38
429.69	1642.47
429.89	1693.67
430.10	1550.31
430.30	1697.77
430.51	1726.44
430.71	1568.74
430.92	1740.77
431.13	1626.09
431.33	1681.38
431.54	1638.38
431.74	1822.69
431.95	1839.08
432.15	1597.42
432.36	1708.01
432.56	1724.39
432.77	1757.16
432.98	1820.64
433.18	1730.53
433.39	1689.57
433.59	1693.67
433.80	1767.40
434.00	1804.26
434.21	1677.29
434.41	1654.76
434.62	1830.88
434.82	1570.79
435.03	1685.48
435.23	1685.48
435.44	1617.90
435.64	1628.14
435.85	1701.86
436.06	1697.77
436.26	1734.63
436.47	1718.25
436.67	1665.00
436.88	1718.25
437.08	1740.77
437.29	1812.45
437.49	1675.24
437.70	1853.41
437.90	1701.86
438.11	1845.22
438.31	1744.87
438.52	1808.36
438.72	1839.08
438.93	1812.45
439.13	1824.74
439.34	1814.50
439.54	1695.72
439.75	1734.63
439.95	1804.26
440.16	1667.05
440.36	1751.01
440.57	1826.79
440.77	1726.44
440.98	1681.38
441.18	1736.68
441.39	1679.33
441.59	1718.25
441.80	1845.22
442.00	1771.49
442.21	1773.54
442.41	1640.42
442.62	1820.64
442.82	1634.28
443.02	1755.11
443.23	1632.23
443.43	1660.90
443.64	1783.78
443.84	1640.42
444.05	1845.22
444.25	1673.19
444.46	1716.20
444.66	1693.67
444.87	1800.16
445.07	1552.36
445.28	1650.66
445.48	1724.39
445.69	1740.77
445.89	1822.69
446.09	1789.92
446.30	2019.30
446.50	2711.51
446.71	3803.08
446.91	4184.00
447.12	4706.23
447.32	4691.90
447.53	4366.27
447.73	3891.14
447.93	3536.84
448.14	3272.65
448.34	3180.50
448.55	2893.78
448.75	2850.77
448.96	2623.45
449.16	2373.60
449.36	2226.14
449.57	2054.11
449.77	1865.70
449.98	1777.64
450.18	1839.08
450.39	1767.40
450.59	1746.92
450.79	1705.96
451.00	1767.40
451.20	1771.49
451.41	1730.53
451.61	1798.12
451.81	1687.53
452.02	1738.73
452.22	1730.53
452.43	1701.86
452.63	1650.66
452.84	1689.57
453.04	1722.34
453.24	1740.77
453.45	1718.25
453.65	1708.01
453.86	1701.86
454.06	1777.64
454.26	1701.86
454.47	1593.32
454.67	1740.77
454.87	1783.78
455.08	1699.81
455.28	1796.07
455.49	1738.73
455.69	1677.29
455.89	1869.80
456.10	1828.84
456.30	1630.18
456.51	1826.79
456.71	1785.83
456.91	1701.86
457.12	1677.29
457.32	1718.25
457.52	1695.72
457.73	1744.87
457.93	1718.25
458.14	1718.25
458.34	1683.43
458.54	1695.72
458.75	1665.00
458.95	1726.44
459.15	1732.58
459.36	1718.25
459.56	1814.50
459.76	1898.47
459.97	1691.62
460.17	1660.90
460.37	1751.01
460.58	1722.34
460.78	1787.88
460.99	1667.05
461.19	1710.05
461.39	1689.57
461.60	1771.49
461.80	1624.04
462.00	1683.43
462.21	1708.01
462.41	1656.81
462.61	1751.01
462.82	1632.23
463.02	1689.57
463.22	1718.25
463.43	1779.68
463.63	1699.81
463.83	1751.01
464.04	1748.97
464.24	1683.43
464.44	1636.33
464.64	1675.24
464.85	1808.36
465.05	1847.27
465.25	1683.43
465.46	1748.97
465.66	1771.49
465.86	1691.62
466.07	1734.63
466.27	1652.71
466.47	1611.75
466.68	1599.46
466.88	1830.88
467.08	1681.38
467.29	1841.12
467.49	1724.39
467.69	1697.77
467.89	1794.02
468.10	1677.29
468.30	1660.90
468.50	1853.41
468.71	1714.15
468.91	1708.01
469.11	1837.03
469.31	1740.77
469.52	1714.15
469.72	1796.07
469.92	1914.85
470.13	1679.33
470.33	1697.77
470.53	1818.60
470.73	2125.79
470.94	2306.01
471.14	2312.16
471.34	2533.34
471.54	2416.60
471.75	2267.10
471.95	2156.51
472.15	2017.25
472.36	2021.35
472.56	2054.11
472.76	2052.06
472.96	1994.72
473.17	1910.75
473.37	1986.53
473.57	1712.10
473.77	1720.29
473.98	1705.96
474.18	1714.15
474.38	1875.94
474.58	1667.05
474.79	1656.81
474.99	1712.10
475.19	1722.34
475.39	1605.61
475.60	1746.92
475.80	1656.81
476.00	1732.58
476.20	1673.19
476.41	1626.09
476.61	1785.83
476.81	1738.73
477.01	1691.62
477.21	1839.08
477.42	1763.30
477.62	1726.44
477.82	1732.58
478.02	1638.38
478.23	1652.71
478.43	1619.94
478.63	1710.05
478.83	1746.92
479.03	1673.19
479.24	1814.50
479.44	1812.45
479.64	1671.14
479.84	1601.51
480.04	1732.58
480.25	1708.01
480.45	1650.66
480.65	1697.77
480.85	1773.54
481.06	1607.66
481.26	1732.58
481.46	1689.57
481.66	1726.44
481.86	1685.48
482.06	1767.40
482.27	1738.73
482.47	1732.58
482.67	1677.29
482.87	1656.81
483.07	1767.40
483.28	1673.19
483.48	1621.99
483.68	1763.30
483.88	1619.94
484.08	1562.60
484.29	1644.52
484.49	1671.14
484.69	1634.28
484.89	1787.88
485.09	1732.58
485.29	1712.10
485.50	1695.72
485.70	1644.52
485.90	1712.10
486.10	1734.63
486.30	1705.96
486.50	1804.26
486.71	1761.25
486.91	1714.15
487.11	1746.92
487.31	1654.76
487.51	1697.77
487.71	1658.85
487.91	1601.51
488.12	1646.57
488.32	1607.66
488.52	1658.85
488.72	1636.33
488.92	1710.05
489.12	1773.54
489.32	1763.30
489.53	1763.30
489.73	1632.23
489.93	1779.68
490.13	1689.57
490.33	1667.05
490.53	1718.25
490.73	1789.92
490.94	1601.51
491.14	1767.40
491.34	1773.54
491.54	2103.26
491.74	2523.10
491.94	2904.02
492.14	2934.74
492.34	2981.84
492.54	2746.33
492.75	2490.33
492.95	2404.32
493.15	2297.82
493.35	2205.66
493.55	2285.53
493.75	2158.56
493.95	2068.45
494.15	1988.58
494.35	1955.81
494.56	1859.56
494.76	1832.93
494.96	1763.30
495.16	1798.12
495.36	1779.68
495.56	1710.05
495.76	1722.34
495.96	1728.49
496.16	1765.35
496.36	1804.26
496.56	1761.25
496.77	1716.20
496.97	1728.49
497.17	1675.24
497.37	1679.33
497.57	1689.57
497.77	1658.85
497.97	1665.00
498.17	1775.59
498.37	1701.86
498.57	1751.01
498.77	1744.87
498.97	1726.44
499.17	1871.84
499.38	1734.63
499.58	1726.44
499.78	1746.92
499.98	1730.53
500.18	1724.39
500.38	1736.68
500.58	1894.37
500.78	2584.54
500.98	4552.63
501.18	5830.57
501.38	6844.31
501.58	7075.73
501.78	6758.30
501.98	5408.69
502.18	5031.86
502.38	4333.50
502.58	4081.60
502.78	3829.70
502.98	3583.95
503.18	3307.47
503.38	3119.06
503.59	2822.10
503.79	2697.17
503.99	2435.03
504.19	2287.58
504.39	2156.51
504.59	2183.13
504.79	2148.32
504.99	2047.97
505.19	1951.71
505.39	1853.41
505.59	2058.21
505.79	1959.91
505.99	1798.12
506.19	1755.11
506.39	1822.69
506.59	1763.30
506.79	1755.11
506.99	1744.87
507.19	1761.25
507.39	1730.53
507.59	1732.58
507.79	1728.49
507.99	1710.05
508.19	1679.33
508.39	1726.44
508.59	1761.25
508.79	1832.93
508.99	1859.56
509.19	1689.57
509.39	1828.84
509.59	1701.86
509.79	1675.24
509.99	1761.25
510.19	1738.73
510.39	1818.60
510.59	1738.73
510.79	1712.10
510.99	1628.14
511.19	1728.49
511.39	1843.17
511.59	1716.20
511.79	1832.93
511.99	1673.19
512.19	1775.59
512.38	1662.95
512.58	1701.86
512.78	1689.57
512.98	1767.40
513.18	1847.27
513.38	1619.94
513.58	1722.34
513.78	1751.01
513.98	1746.92
514.18	1705.96
514.38	1609.70
514.58	1699.81
514.78	1677.29
514.98	1642.47
515.18	1652.71
515.38	1574.89
515.58	1853.41
515.78	1689.57
515.98	1716.20
516.18	1765.35
516.38	1740.77
516.57	1636.33
516.77	1783.78
516.97	1894.37
517.17	1736.68
517.37	1667.05
517.57	1667.05
517.77	1736.68
517.97	1660.90
518.17	1724.39
518.37	1662.95
518.57	1677.29
518.77	1746.92
518.97	1732.58
519.16	1818.60
519.36	1880.04
519.56	1673.19
519.76	1671.14
519.96	1718.25
520.16	1855.46
520.36	1650.66
520.56	1791.97
520.76	1646.57
520.96	1703.91
521.16	1771.49
521.35	1769.44
521.55	1806.31
521.75	1662.95
521.95	1730.53
522.15	1650.66
522.35	1648.61
522.55	1687.53
522.75	1791.97
522.95	1734.63
523.14	1687.53
523.34	1665.00
523.54	1654.76
523.74	1765.35
523.94	1773.54
524.14	1675.24
524.34	1730.53
524.54	1791.97
524.73	1736.68
524.93	1716.20
525.13	1679.33
525.33	1603.56
525.53	1814.50
525.73	1734.63
525.93	1701.86
526.13	1691.62
526.32	1714.15
526.52	1800.16
526.72	1851.36
526.92	1656.81
527.12	1708.01
527.32	1677.29
527.52	1759.21
527.71	1755.11
527.91	1708.01
528.11	1695.72
528.31	1701.86
528.51	1619.94
528.71	1787.88
528.90	1732.58
529.10	1826.79
529.30	1791.97
529.50	1550.31
529.70	1705.96
529.90	1677.29
530.09	1726.44
530.29	1689.57
530.49	1687.53
530.69	1865.70
530.89	1767.40
531.09	1695.72
531.28	1716.20
531.48	1832.93
531.68	1757.16
531.88	1681.38
532.08	1738.73
532.28	1730.53
532.47	1781.73
532.67	1779.68
532.87	1699.81
533.07	1677.29
533.27	1781.73
533.46	1753.06
533.66	1691.62
533.86	1796.07
534.06	1779.68
534.26	1712.10
534.45	1697.77
534.65	1732.58
534.85	1759.21
535.05	1763.30
535.25	1744.87
535.44	1652.71
535.64	1734.63
535.84	1742.82
536.04	1699.81
536.24	1697.77
536.43	1703.91
536.63	1775.59
536.83	1742.82
537.03	1656.81
537.22	1683.43
537.42	1693.67
537.62	1753.06
537.82	1693.67
538.02	1746.92
538.21	1804.26
538.41	1941.47
538.61	1791.97
538.81	1742.82
539.00	1806.31
539.20	1658.85
539.40	1708.01
539.60	1738.73
539.79	1763.30
539.99	1753.06
540.19	1722.34
540.39	1769.44
540.58	1714.15
540.78	1787.88
540.98	1730.53
541.18	1703.91
541.37	1689.57
541.57	1677.29
541.77	1779.68
541.97	1656.81
542.16	1710.05
542.36	1679.33
542.56	1857.51
542.76	1812.45
542.95	1804.26
543.15	1734.63
543.35	1736.68
543.54	1705.96
543.74	1708.01
543.94	1783.78
544.14	1732.58
544.33	1824.74
544.53	1619.94
544.73	1703.91
544.93	1787.88
545.12	1720.29
545.32	1642.47
545.52	1705.96
545.71	1673.19
545.91	1730.53
546.11	1669.09
546.30	1570.79
546.50	1673.19
546.70	1757.16
546.90	1716.20
547.09	1581.03
547.29	1699.81
547.49	1830.88
547.68	1699.81
547.88	1691.62
548.08	1730.53
548.27	2068.45
548.47	1650.66
548.67	1703.91
548.87	1720.29
549.06	1697.77
549.26	1708.01
549.46	1660.90
549.65	1701.86
549.85	1783.78
550.05	1759.21
550.24	1685.48
550.44	1662.95
550.64	1755.11
550.83	1640.42
551.03	1857.51
551.23	1779.68
551.42	1710.05
551.62	1722.34
551.82	1744.87
552.01	1751.01
552.21	1806.31
552.41	1710.05
552.60	1796.07
552.80	1693.67
553.00	1705.96
553.19	1744.87
553.39	1775.59
553.59	1687.53
553.78	1767.40
553.98	1705.96
554.17	1646.57
554.37	1738.73
554.57	1712.10
554.76	1677.29
554.96	1730.53
555.16	1746.92
555.35	1740.77
555.55	1746.92
555.75	1716.20
555.94	1757.16
556.14	1628.14
556.33	1660.90
556.53	1775.59
556.73	1763.30
556.92	1744.87
557.12	1791.97
557.32	1822.69
557.51	1777.64
557.71	1701.86
557.90	1759.21
558.10	1843.17
558.30	1644.52
558.49	1718.25
558.69	1673.19
558.88	1683.43
559.08	1724.39
559.28	1777.64
559.47	1716.20
559.67	1728.49
559.86	1808.36
560.06	1757.16
560.26	1718.25
560.45	1746.92
560.65	1763.30
560.84	1849.32
561.04	1632.23
561.24	1781.73
561.43	1624.04
561.63	1710.05
561.82	1740.77
562.02	1763.30
562.22	1712.10
562.41	1679.33
562.61	1705.96
562.80	1722.34
563.00	1843.17
563.19	1789.92
563.39	1814.50
563.59	1779.68
563.78	1691.62
563.98	1658.85
564.17	1675.24
564.37	1654.76
564.56	1708.01
564.76	1650.66
564.96	1804.26
565.15	1738.73
565.35	1871.84
565.54	1744.87
565.74	1734.63
565.93	1744.87
566.13	1658.85
566.32	1734.63
566.52	1722.34
566.71	1734.63
566.91	1789.92
567.11	1660.90
567.30	1695.72
567.50	1701.86
567.69	1759.21
567.89	1730.53
568.08	1714.15
568.28	1759.21
568.47	1675.24
568.67	1804.26
568.86	1681.38
569.06	1751.01
569.25	1753.06
569.45	1708.01
569.64	1748.97
569.84	1693.67
570.04	1742.82
570.23	1720.29
570.43	1632.23
570.62	1746.92
570.82	1855.46
571.01	1650.66
571.21	1767.40
571.40	1685.48
571.60	1751.01
571.79	1734.63
571.99	1714.15
572.18	1669.09
572.38	1697.77
572.57	1705.96
572.77	1740.77
572.96	1904.61
573.16	1734.63
573.35	1691.62
573.55	1773.54
573.74	1697.77
573.94	1681.38
574.13	1712.10
574.33	1863.65
574.52	1884.13
574.71	1757.16
574.91	1779.68
575.10	1570.79
575.30	1660.90
575.49	1708.01
575.69	1689.57
575.88	1736.68
576.08	1699.81
576.27	1708.01
576.47	1691.62
576.66	1789.92
576.86	1775.59
577.05	1685.48
577.25	1777.64
577.44	1779.68
577.64	1728.49
577.83	1734.63
578.02	1705.96
578.22	1820.64
578.41	1783.78
578.61	1818.60
578.80	1640.42
579.00	1722.34
579.19	1763.30
579.39	1794.02
579.58	1832.93
579.77	1730.53
579.97	1787.88
580.16	1794.02
580.36	1814.50
580.55	1871.84
580.75	1783.78
580.94	1812.45
581.13	1800.16
581.33	1808.36
581.52	1699.81
581.72	1841.12
581.91	1763.30
582.11	1611.75
582.30	1806.31
582.49	1675.24
582.69	1826.79
582.88	1718.25
583.08	1773.54
583.27	1832.93
583.47	1753.06
583.66	1679.33
583.85	1767.40
584.05	1701.86
584.24	1812.45
584.44	1705.96
584.63	1796.07
584.82	1779.68
585.02	1857.51
585.21	1822.69
585.41	1744.87
585.60	1814.50
585.79	1886.18
585.99	1939.43
586.18	1877.99
586.37	2215.90
586.57	3323.85
586.76	9946.98
586.96	24376.97
587.15	34870.76
587.34	41022.86
587.54	42638.71
587.73	36986.32
587.93	26578.54
588.12	21833.39
588.31	18288.36
588.51	16500.48
588.70	15222.55
588.89	14249.77
589.09	12855.10
589.28	11235.16
589.47	9504.62
589.67	8005.51
589.86	6459.29
590.06	5042.10
590.25	3991.49
590.44	3139.54
590.64	2449.37
590.83	2209.76
591.02	2066.40
591.22	1935.33
591.41	1890.28
591.60	1845.22
591.80	1978.34
591.99	1681.38
592.18	1820.64
592.38	1789.92
592.57	1716.20
592.76	1771.49
592.96	1730.53
593.15	1761.25
593.34	1808.36
593.54	1703.91
593.73	1820.64
593.92	1718.25
594.12	1763.30
594.31	1753.06
594.50	1748.97
594.70	1765.35
594.89	1904.61
595.08	1691.62
595.28	1812.45
595.47	1908.71
595.66	1775.59
595.86	1621.99
596.05	1648.61
596.24	1685.48
596.43	1798.12
596.63	1841.12
596.82	1787.88
597.01	1748.97
597.21	1785.83
597.40	1705.96
597.59	1730.53
597.79	1705.96
597.98	1763.30
598.17	1716.20
598.36	1785.83
598.56	1728.49
598.75	1699.81
598.94	1830.88
599.14	1759.21
599.33	1767.40
599.52	1771.49
599.71	1705.96
599.91	1814.50
600.10	1734.63
600.29	1724.39
600.48	1775.59
600.68	1822.69
600.87	1746.92
601.06	1621.99
601.26	1703.91
601.45	1714.15
601.64	1681.38
601.83	1800.16
602.03	1728.49
602.22	1591.27
602.41	1759.21
602.60	1886.18
602.80	1779.68
602.99	1708.01
603.18	1691.62
603.37	1708.01
603.57	1718.25
603.76	1787.88
603.95	1697.77
604.14	1748.97
604.34	1705.96
604.53	1722.34
604.72	1806.31
604.91	1740.77
605.10	1785.83
605.30	1697.77
605.49	1767.40
605.68	1802.21
605.87	1718.25
606.07	1712.10
606.26	1703.91
606.45	1783.78
606.64	1703.91
606.84	1701.86
607.03	1755.11
607.22	1703.91
607.41	1798.12
607.60	1671.14
607.80	1791.97
607.99	1724.39
608.18	1675.24
608.37	1740.77
608.56	1642.47
608.76	1789.92
608.95	1755.11
609.14	1687.53
609.33	1775.59
609.52	1832.93
609.72	1718.25
609.91	1738.73
610.10	1730.53
610.29	1753.06
610.48	1695.72
610.68	1738.73
610.87	1669.09
611.06	1800.16
611.25	1730.53
611.44	1718.25
611.63	1751.01
611.83	1794.02
612.02	1710.05
612.21	1796.07
612.40	1628.14
612.59	1630.18
612.79	1583.08
612.98	1689.57
613.17	1787.88
613.36	1669.09
613.55	1755.11
613.74	1765.35
613.93	1691.62
614.13	1736.68
614.32	1691.62
614.51	1785.83
614.70	1632.23
614.89	1732.58
615.08	1705.96
615.28	2027.49
615.47	1581.03
615.66	1677.29
615.85	1703.91
616.04	1824.74
616.23	1751.01
616.42	1699.81
616.62	1730.53
616.81	1738.73
617.00	1777.64
617.19	1740.77
617.38	1730.53
617.57	1689.57
617.76	1714.15
617.95	1755.11
618.15	1724.39
618.34	1812.45
618.53	1673.19
618.72	1742.82
618.91	1730.53
619.10	1796.07
619.29	1742.82
619.48	1738.73
619.68	1611.75
619.87	1724.39
620.06	1628.14
620.25	1681.38
620.44	1677.29
620.63	1738.73
620.82	1769.44
621.01	1632.23
621.20	1660.90
621.39	1820.64
621.59	1767.40
621.78	1689.57
621.97	1660.90
622.16	1771.49
622.35	1656.81
622.54	1730.53
622.73	1751.01
622.92	1665.00
623.11	1767.40
623.30	1669.09
623.49	1804.26
623.68	1675.24
623.88	1765.35
624.07	1683.43
624.26	1720.29
624.45	1710.05
624.64	1685.48
624.83	1716.20
625.02	1722.34
625.21	1740.77
625.40	1722.34
625.59	1714.15
625.78	1746.92
625.97	1732.58
626.16	1779.68
626.35	1703.91
626.54	1703.91
626.74	1761.25
626.93	1697.77
627.12	1681.38
627.31	1767.40
627.50	1798.12
627.69	1769.44
627.88	1730.53
628.07	1691.62
628.26	1572.84
628.45	1761.25
628.64	1697.77
628.83	1624.04
629.02	1673.19
629.21	1796.07
629.40	1714.15
629.59	1662.95
629.78	1646.57
629.97	1669.09
630.16	1705.96
630.35	1697.77
630.54	1722.34
630.73	1665.00
630.92	1730.53
631.11	1665.00
631.30	1695.72
631.49	1773.54
631.68	1703.91
631.87	1781.73
632.06	1624.04
632.25	1857.51
632.44	1753.06
632.63	1685.48
632.82	1624.04
633.01	1640.42
633.20	1824.74
633.39	1624.04
633.58	1601.51
633.77	1675.24
633.96	1724.39
634.15	1751.01
634.34	1738.73
634.53	1679.33
634.72	1630.18
634.91	1644.52
635.10	1720.29
635.29	1779.68
635.48	1671.14
635.67	1648.61
635.86	1525.74
636.05	1761.25
636.24	1621.99
636.43	1740.77
636.62	1693.67
636.81	1615.85
637.00	1730.53
637.19	1673.19
637.38	1751.01
637.57	1671.14
637.76	1714.15
637.95	1779.68
638.14	1603.56
638.33	1669.09
638.52	1677.29
638.71	1632.23
638.89	1687.53
639.08	1882.08
639.27	1634.28
639.46	1683.43
639.65	1863.65
639.84	1675.24
640.03	1802.21
640.22	1687.53
640.41	1789.92
640.60	1722.34
640.79	1773.54
640.98	1665.00
641.17	1718.25
641.36	1761.25
641.55	1695.72
641.74	1681.38
641.92	1640.42
642.11	1669.09
642.30	1722.34
642.49	1734.63
642.68	1667.05
642.87	1767.40
643.06	1675.24
643.25	1677.29
643.44	1732.58
643.63	1673.19
643.82	1787.88
644.00	1624.04
644.19	1787.88
644.38	1540.07
644.57	1738.73
644.76	1808.36
644.95	1746.92
645.14	1761.25
645.33	1748.97
645.52	1665.00
645.71	1619.94
645.89	1628.14
646.08	1654.76
646.27	1683.43
646.46	1830.88
646.65	1689.57
646.84	1669.09
647.03	1599.46
647.22	1722.34
647.40	1734.63
647.59	1669.09
647.78	1613.80
647.97	1679.33
648.16	1701.86
648.35	1765.35
648.54	1728.49
648.73	1613.80
648.91	1732.58
649.10	1689.57
649.29	1648.61
649.48	1744.87
649.67	1691.62
649.86	1755.11
650.05	1757.16
650.23	1695.72
650.42	1685.48
650.61	1773.54
650.80	1667.05
650.99	1855.46
651.18	1714.15
651.36	1730.53
651.55	1613.80
651.74	1845.22
651.93	1589.22
652.12	1757.16
652.31	1632.23
652.49	1685.48
652.68	1693.67
652.87	1716.20
653.06	1732.58
653.25	1705.96
653.44	1669.09
653.62	1832.93
653.81	1695.72
654.00	1689.57
654.19	1726.44
654.38	1789.92
654.56	1751.01
654.75	1640.42
654.94	1673.19
655.13	1744.87
655.32	1712.10
655.51	1755.11
655.69	1757.16
655.88	1718.25
656.07	1673.19
656.26	1693.67
656.45	1703.91
656.63	1734.63
656.82	1751.01
657.01	1769.44
657.20	1646.57
657.38	1757.16
657.57	1693.67
657.76	1679.33
657.95	1748.97
658.14	1634.28
658.32	1763.30
658.51	1632.23
658.70	1701.86
658.89	1683.43
659.08	1744.87
659.26	1808.36
659.45	1648.61
659.64	1761.25
659.83	1681.38
660.01	1837.03
660.20	1693.67
660.39	1714.15
660.58	1677.29
660.76	1732.58
660.95	1611.75
661.14	1726.44
661.33	1656.81
661.51	1755.11
661.70	1675.24
661.89	1744.87
662.08	1603.56
662.26	1667.05
662.45	1581.03
662.64	1779.68
662.83	1796.07
663.01	1634.28
663.20	1656.81
663.39	1773.54
663.58	1761.25
663.76	1712.10
663.95	1728.49
664.14	1658.85
664.32	1716.20
664.51	1740.77
664.70	1607.66
664.89	1697.77
665.07	1617.90
665.26	1748.97
665.45	1665.00
665.64	1800.16
665.82	1714.15
666.01	1767.40
666.20	1665.00
666.38	1767.40
666.57	1748.97
666.76	2105.31
666.95	4468.67
667.13	10473.31
667.32	15466.26
667.51	17893.10
667.69	18910.94
667.88	17575.67
668.07	12541.76
668.25	9779.05
668.44	8200.07
668.63	7415.69
668.81	6997.91
669.00	6252.45
669.19	5795.75
669.38	5109.68
669.56	4560.83
669.75	3962.82
669.94	3481.55
670.12	2981.84
670.31	2568.15
670.50	2232.29
670.68	2074.59
670.87	1916.90
671.06	1820.64
671.24	1775.59
671.43	1798.12
671.62	1695.72
671.80	1681.38
671.99	1685.48
672.18	1769.44
672.36	1669.09
672.55	1685.48
672.74	1656.81
672.92	1683.43
673.11	1730.53
673.29	1611.75
673.48	1667.05
673.67	1720.29
673.85	1787.88
674.04	1681.38
674.23	1673.19
674.41	1826.79
674.60	1689.57
674.79	1611.75
674.97	1654.76
675.16	1697.77
675.34	1824.74
675.53	1591.27
675.72	1634.28
675.90	1808.36
676.09	1777.64
676.28	1730.53
676.46	1632.23
676.65	1687.53
676.83	1626.09
677.02	1630.18
677.21	1722.34
677.39	1656.81
677.58	1640.42
677.77	1669.09
677.95	1628.14
678.14	1726.44
678.32	1667.05
678.51	1689.57
678.70	1804.26
678.88	1714.15
679.07	1693.67
679.25	1640.42
679.44	1658.85
679.63	1548.26
679.81	1742.82
680.00	1746.92
680.18	1708.01
680.37	1769.44
680.55	1789.92
680.74	1624.04
680.93	1581.03
681.11	1693.67
681.30	1724.39
681.48	1742.82
681.67	1738.73
681.85	1671.14
682.04	1632.23
682.23	1767.40
682.41	1677.29
682.60	1613.80
682.78	1736.68
682.97	1550.31
683.15	1693.67
683.34	1683.43
683.53	1830.88
683.71	1689.57
683.90	1763.30
684.08	1804.26
684.27	1673.19
684.45	1683.43
684.64	1771.49
684.82	1712.10
685.01	1708.01
685.19	1671.14
685.38	1837.03
685.57	1638.38
685.75	1636.33
685.94	1730.53
686.12	1679.33
686.31	1632.23
686.49	1791.97
686.68	1669.09
686.86	1699.81
687.05	1632.23
687.23	1816.55
687.42	1703.91
687.60	1546.22
687.79	1751.01
687.97	1724.39
688.16	1781.73
688.34	1779.68
688.53	1689.57
688.71	1724.39
688.90	1812.45
689.08	1650.66
689.27	1642.47
689.45	1753.06
689.64	1726.44
689.82	1730.53
690.01	1740.77
690.19	1746.92
690.38	1681.38
690.56	1785.83
690.75	1640.42
690.93	1673.19
691.12	1648.61
691.30	1679.33
691.49	1718.25
691.67	1650.66
691.86	1683.43
692.04	1753.06
692.23	1650.66
692.41	1693.67
692.60	1871.84
692.78	1726.44
692.97	1673.19
693.15	1742.82
693.34	1851.36
693.52	1787.88
693.71	1728.49
693.89	1703.91
694.08	1669.09
694.26	1746.92
694.44	1705.96
694.63	1777.64
694.81	1572.84
695.00	1710.05
695.18	1742.82
695.37	1738.73
695.55	1720.29
695.74	1628.14
695.92	1644.52
696.10	1798.12
696.29	1642.47
696.47	1697.77
696.66	1691.62
696.84	1652.71
697.03	1744.87
697.21	1808.36
697.40	2291.68
697.58	1746.92
697.76	1689.57
697.95	1636.33
698.13	1595.37
698.32	1701.86
698.50	1769.44
698.68	1740.77
698.87	1705.96
699.05	1800.16
699.24	1730.53
699.42	1693.67
699.61	1617.90
699.79	1724.39
699.97	1746.92
700.16	1632.23
700.34	1654.76
700.53	1779.68
700.71	1763.30
700.89	1722.34
701.08	1718.25
701.26	1691.62
701.45	2062.30
701.63	1576.94
701.81	1718.25
702.00	1703.91
702.18	1697.77
702.37	1673.19
702.55	1730.53
702.73	1722.34
702.92	1591.27
703.10	1800.16
703.28	1714.15
703.47	1691.62
703.65	1691.62
703.84	1681.38
704.02	1673.19
704.20	1724.39
704.39	1675.24
704.57	1650.66
704.75	1748.97
704.94	1751.01
705.12	1773.54
705.30	1716.20
705.49	2246.62
705.67	4396.99
705.86	9533.29
706.04	12666.69
706.22	14677.79
706.41	15570.71
706.59	14133.03
706.77	9856.87
706.96	7352.21
707.14	6420.38
707.32	6131.62
707.51	5670.83
707.69	4853.69
707.87	4247.49
708.06	3512.27
708.24	2953.17
708.42	2471.90
708.61	2236.38
708.79	1933.28
708.97	1773.54
709.16	1865.70
709.34	1742.82
709.52	1781.73
709.71	1806.31
709.89	1757.16
710.07	1648.61
710.26	1687.53
710.44	1673.19
710.62	1736.68
710.80	1640.42
710.99	1755.11
711.17	1767.40
711.35	1640.42
711.54	1738.73
711.72	1773.54
711.90	1773.54
712.09	1638.38
712.27	1673.19
712.45	1773.54
712.63	1669.09
712.82	1679.33
713.00	1650.66
713.18	1751.01
713.37	1732.58
713.55	1726.44
713.73	1738.73
713.91	1660.90
714.10	1718.25
714.28	1619.94
714.46	1705.96
714.65	1662.95
714.83	1734.63
715.01	1708.01
715.19	1628.14
715.38	1642.47
715.56	1689.57
715.74	1726.44
715.92	1609.70
716.11	1769.44
716.29	1634.28
716.47	1720.29
716.65	1714.15
716.84	1562.60
717.02	1708.01
717.20	1562.60
717.38	1705.96
717.57	1748.97
717.75	1689.57
717.93	1636.33
718.11	1769.44
718.30	1626.09
718.48	1675.24
718.66	1722.34
718.84	1673.19
719.03	1681.38
719.21	1630.18
719.39	1779.68
719.57	1669.09
719.75	1671.14
719.94	1632.23
720.12	1701.86
720.30	1621.99
720.48	1712.10
720.67	1626.09
720.85	1624.04
721.03	1677.29
721.21	1640.42
721.39	1781.73
721.58	1763.30
721.76	1646.57
721.94	1689.57
722.12	1671.14
722.30	1769.44
722.49	1681.38
722.67	1718.25
722.85	1685.48
723.03	1601.51
723.21	1656.81
723.40	1726.44
723.58	1777.64
723.76	1675.24
723.94	1738.73
724.12	1665.00
724.30	1685.48
724.49	1773.54
724.67	1599.46
724.85	1746.92
725.03	1523.69
725.21	1720.29
725.40	1748.97
725.58	1695.72
725.76	1705.96
725.94	1722.34
726.12	1603.56
726.30	1701.86
726.49	1751.01
726.67	1658.85
726.85	1716.20
727.03	1763.30
727.21	2140.13
727.39	2830.29
727.57	3753.93
727.76	4202.43
727.94	4429.76
728.12	4407.23
728.30	3784.65
728.48	3004.37
728.66	2727.89
728.84	2572.25
729.03	2295.77
729.21	2160.61
729.39	1959.91
729.57	1751.01
729.75	1775.59
729.93	1841.12
730.11	1734.63
730.30	1673.19
730.48	1658.85
730.66	1853.41
730.84	1802.21
731.02	1673.19
731.20	1740.77
731.38	1701.86
731.56	1591.27
731.74	1650.66
731.93	1648.61
732.11	1646.57
732.29	1681.38
732.47	1699.81
732.65	1630.18
732.83	1734.63
733.01	1722.34
733.19	1597.42
733.37	1660.90
733.56	1701.86
733.74	1671.14
733.92	1769.44
734.10	1652.71
734.28	1777.64
734.46	1609.70
734.64	1660.90
734.82	1730.53
735.00	1658.85
735.18	1615.85
735.36	1689.57
735.54	1685.48
735.73	1742.82
735.91	1722.34
736.09	1728.49
736.27	1697.77
736.45	1753.06
736.63	1617.90
736.81	1568.74
736.99	1759.21
737.17	1734.63
737.35	1644.52
737.53	1681.38
737.71	1677.29
737.89	1806.31
738.07	1640.42
738.25	1695.72
738.43	1583.08
738.61	1685.48
738.80	1566.70
738.98	1564.65
739.16	1740.77
739.34	1640.42
739.52	1785.83
739.70	1619.94
739.88	1740.77
740.06	1757.16
740.24	1542.12
740.42	1757.16
740.60	1658.85
740.78	1646.57
740.96	1568.74
741.14	1800.16
741.32	1671.14
741.50	1628.14
741.68	1861.60
741.86	1738.73
742.04	1685.48
742.22	1683.43
742.40	1695.72
742.58	1701.86
742.76	1728.49
742.94	1689.57
743.12	1656.81
743.30	1724.39
743.48	1685.48
743.66	1597.42
743.84	1689.57
744.02	1652.71
744.20	1662.95
744.38	1669.09
744.56	1654.76
744.74	1771.49
744.92	1669.09
745.10	1775.59
745.28	1787.88
745.46	1736.68
745.64	1642.47
745.82	1738.73
746.00	1726.44
746.18	1746.92
746.36	1677.29
746.54	1679.33
746.72	1726.44
746.90	1638.38
747.08	1738.73
747.26	1656.81
747.44	1695.72
747.62	1675.24
747.80	1759.21
747.98	1710.05
748.15	1732.58
748.33	1781.73
748.51	1624.04
748.69	1714.15
748.87	1665.00
749.05	1665.00
749.23	1624.04
749.41	1753.06
749.59	1697.77
749.77	1740.77
749.95	1574.89
750.13	1669.09
750.31	1712.10
750.49	1734.63
750.67	1763.30
750.85	1853.41
751.03	1728.49
751.20	1771.49
751.38	1638.38
751.56	1671.14
751.74	1652.71
751.92	1761.25
752.10	1693.67
752.28	1722.34
752.46	1667.05
752.64	1652.71
752.82	1708.01
753.00	1748.97
753.18	1667.05
753.35	1613.80
753.53	1687.53
753.71	1595.37
753.89	1708.01
754.07	1703.91
754.25	1757.16
754.43	1665.00
754.61	1648.61
754.79	1689.57
754.97	1716.20
755.14	1839.08
755.32	1566.70
755.50	1685.48
755.68	1660.90
755.86	1683.43
756.04	1619.94
756.22	1581.03
756.40	1734.63
756.57	1744.87
756.75	1736.68
756.93	1718.25
757.11	1734.63
757.29	1632.23
757.47	1599.46
757.65	1603.56
757.82	1544.17
758.00	1724.39
758.18	1736.68
758.36	1568.74
758.54	1705.96
758.72	1660.90
758.90	1730.53
759.07	1724.39
759.25	1636.33
759.43	1701.86
759.61	1619.94
759.79	2156.51
759.97	1722.34
760.15	1689.57
760.32	1718.25
760.50	1748.97
760.68	1720.29
760.86	1617.90
761.04	1771.49
761.22	1814.50
761.39	1753.06
761.57	1763.30
761.75	1712.10
761.93	1697.77
762.11	1652.71
762.28	1679.33
762.46	1732.58
762.64	1732.58
762.82	1587.18
763.00	1708.01
763.18	1697.77
763.35	1611.75
763.53	1689.57
763.71	1699.81
763.89	1755.11
764.07	1656.81
764.24	1746.92
764.42	1619.94
764.60	1701.86
764.78	1671.14
764.96	1685.48
765.13	1746.92
765.31	1730.53
765.49	1740.77
765.67	1710.05
765.84	1742.82
766.02	1679.33
766.20	1591.27
766.38	1689.57
766.56	1783.78
766.73	1656.81
766.91	1695.72
767.09	1583.08
767.27	1699.81
767.44	1691.62
767.62	1718.25
767.80	1763.30
767.98	1671.14
768.15	1708.01
768.33	1748.97
768.51	1689.57
768.69	1669.09
768.87	1724.39
769.04	1665.00
769.22	1783.78
769.40	1748.97
769.58	1816.55
769.75	1720.29
769.93	1740.77
770.11	1712.10
770.28	1669.09
770.46	1697.77
770.64	1744.87
770.82	1642.47
770.99	1789.92
771.17	1794.02
771.35	1761.25
771.53	1662.95
771.70	1673.19
771.88	1677.29
772.06	1597.42
772.23	1708.01
772.41	1654.76
772.59	1650.66
772.77	1660.90
772.94	1681.38
773.12	1656.81
773.30	1656.81
773.47	1734.63
773.65	1679.33
773.83	1818.60
774.01	1673.19
774.18	1591.27
774.36	1675.24
774.54	1615.85
774.71	1738.73
774.89	1576.94
775.07	1705.96
775.24	1744.87
775.42	1638.38
775.60	1824.74
775.78	1654.76
775.95	1652.71
776.13	1601.51
776.31	1521.64
776.48	1818.60
776.66	1673.19
776.84	1636.33
777.01	1574.89
777.19	1595.37
777.37	1644.52
777.54	1722.34
777.72	1722.34
777.90	1789.92
778.07	1673.19
778.25	1824.74
778.43	1767.40
778.60	1699.81
778.78	1689.57
778.96	1695.72
779.13	1644.52
779.31	1691.62
779.49	1652.71
779.66	1656.81
779.84	1734.63
780.01	1730.53
780.19	1732.58
780.37	1736.68
780.54	1697.77
780.72	1728.49
780.90	1732.58
781.07	1701.86
781.25	1687.53
781.43	1730.53
781.60	1755.11
781.78	1783.78
781.95	1693.67
782.13	1665.00
782.31	1708.01
782.48	1615.85
782.66	1646.57
782.83	1845.22
783.01	1716.20
783.19	1771.49
783.36	1746.92
783.54	1671.14
783.72	1763.30
783.89	1671.14
784.07	1673.19
784.24	1628.14
784.42	1669.09
784.60	1691.62
784.77	1656.81
784.95	1566.70
785.12	1665.00
785.30	1761.25
785.47	1640.42
785.65	1673.19
785.83	1650.66
786.00	1693.67
786.18	1816.55
786.35	1603.56
786.53	1699.81
786.71	1771.49
786.88	1658.85
787.06	1683.43
787.23	1669.09
787.41	1626.09
787.58	1646.57
787.76	1669.09
787.94	1705.96
788.11	1759.21
788.29	1617.90
788.46	1650.66
788.64	1648.61
788.81	1755.11
788.99	1587.18
789.16	1685.48
789.34	1599.46
789.52	1646.57
789.69	1697.77
789.87	1533.93
790.04	1689.57
790.22	1679.33
790.39	1806.31
790.57	1644.52
790.74	1695.72
790.92	1740.77
791.09	1658.85
791.27	1634.28
791.44	1796.07
791.62	1626.09
791.79	1779.68
791.97	1669.09
792.15	1816.55
792.32	1648.61
792.50	1712.10
792.67	1773.54
792.85	1843.17
793.02	1654.76
793.20	1626.09
793.37	1607.66
793.55	1683.43
793.72	1640.42
793.90	1705.96
794.07	1599.46
794.25	1671.14
794.42	1712.10
794.60	1652.71
794.77	1728.49
794.95	1679.33
795.12	1689.57
795.30	1677.29
795.47	1615.85
795.65	1865.70
795.82	1759.21
796.00	1576.94
796.17	1638.38
796.34	1644.52
796.52	1652.71
796.69	1746.92
796.87	1662.95
797.04	1673.19
797.22	1665.00
797.39	1720.29
797.57	1722.34
797.74	1701.86
797.92	1693.67
798.09	1679.33
798.27	1710.05
798.44	1716.20
798.62	1673.19
798.79	1748.97
798.96	1644.52
799.14	1652.71
799.31	1812.45
799.49	1691.62
799.66	1615.85
799.84	1714.15
800.01	1603.56
800.19	1697.77
800.36	1654.76
800.53	1753.06
800.71	1695.72
800.88	1734.63
801.06	1665.00
801.23	1673.19
801.41	1685.48
801.58	1636.33
801.75	1705.96
801.93	1714.15
802.10	1730.53
802.28	1650.66
802.45	1734.63
802.63	1708.01
802.80	1798.12
802.97	1691.62
803.15	1642.47
803.32	1656.81
803.50	1660.90
803.67	1656.81
803.84	1644.52
804.02	1708.01
804.19	1671.14
804.37	1591.27
804.54	1632.23
804.71	1697.77
804.89	1669.09
805.06	1609.70
805.24	1624.04
805.41	1712.10
805.58	1687.53
805.76	1812.45
805.93	1611.75
806.10	1767.40
806.28	1710.05
806.45	1681.38
806.63	1697.77
806.80	1728.49
806.97	1712.10
807.15	1705.96
807.32	1523.69
807.49	1662.95
807.67	1640.42
807.84	1771.49
808.01	1626.09
808.19	1751.01
808.36	1816.55
808.54	1697.77
808.71	1599.46
808.88	1671.14
809.06	1705.96
809.23	1742.82
809.40	1740.77
809.58	1648.61
809.75	1636.33
809.92	1619.94
810.10	1826.79
810.27	1708.01
810.44	1716.20
810.62	1669.09
810.79	1722.34
810.96	1626.09
811.14	1705.96
811.31	1681.38
811.48	1722.34
811.66	1652.71
811.83	1716.20
812.00	1775.59
812.18	1638.38
812.35	1775.59
812.52	1611.75
812.69	1667.05
812.87	1632.23
813.04	1626.09
813.21	1683.43
813.39	1568.74
813.56	1636.33
813.73	1796.07
813.91	1644.52
814.08	1650.66
814.25	1648.61
814.42	1656.81
814.60	1712.10
814.77	1722.34
814.94	1697.77
815.12	1669.09
815.29	1718.25
815.46	1611.75
815.63	1638.38
815.81	1718.25
815.98	1624.04
816.15	1632.23
816.33	1736.68
816.50	1648.61
816.67	1693.67
816.84	1691.62
817.02	1665.00
817.19	1632.23
817.36	1703.91
817.53	1656.81
817.71	1810.40
817.88	1718.25
818.05	1665.00
818.22	1660.90
818.40	1755.11
818.57	1650.66
818.74	1685.48
818.91	1695.72
819.09	1800.16
819.26	1718.25
819.43	1609.70
819.60	1617.90
819.78	1708.01
819.95	1794.02
820.12	1607.66
820.29	1798.12
820.47	1828.84
820.64	1652.71
820.81	1636.33
820.98	1673.19
821.15	1697.77
821.33	1675.24
821.50	1533.93
821.67	1697.77
821.84	1742.82
822.02	1738.73
822.19	1708.01
822.36	1601.51
822.53	1650.66
822.70	1652.71
822.88	1691.62
823.05	1808.36
823.22	1687.53
823.39	1736.68
823.56	1679.33
823.74	1773.54
823.91	1619.94
824.08	1611.75
824.25	1599.46
824.42	1763.30
824.60	1652.71
824.77	1697.77
824.94	1665.00
825.11	1689.57
825.28	1621.99
825.45	1759.21
825.63	1757.16
825.80	1574.89
825.97	1640.42
826.14	1753.06
826.31	1640.42
826.48	1740.77
826.66	1583.08
826.83	1671.14
827.00	1695.72
827.17	1624.04
827.34	1648.61
827.51	1675.24
827.69	1634.28
827.86	1574.89
828.03	1662.95
828.20	1675.24
828.37	1626.09
828.54	1734.63
828.71	1714.15
828.89	1794.02
829.06	1685.48
829.23	1779.68
829.40	1660.90
829.57	1615.85
829.74	1738.73
829.91	1665.00
830.09	1615.85
830.26	1761.25
830.43	1771.49
830.60	1656.81
830.77	1689.57
830.94	1777.64
831.11	1710.05
831.28	1669.09
831.46	1837.03
831.63	1665.00
831.80	1757.16
831.97	1724.39
832.14	1617.90
832.31	1734.63
832.48	1624.04
832.65	1736.68
832.82	1669.09
832.99	1718.25
833.17	1650.66
833.34	1832.93
833.51	1677.29
833.68	1591.27
833.85	1665.00
834.02	1597.42
834.19	1683.43
834.36	1617.90
834.53	1656.81
834.70	1816.55
834.87	1732.58
835.04	1685.48
835.22	1605.61
835.39	1681.38
835.56	1599.46
835.73	1677.29
835.90	1740.77
836.07	1767.40
836.24	1714.15
836.41	1583.08
836.58	1609.70
836.75	1740.77
836.92	1724.39
837.09	1652.71
837.26	1687.53
837.43	1636.33
837.60	1771.49
837.77	1654.76
837.94	1798.12
838.12	1675.24
838.29	1665.00
838.46	1658.85
838.63	1687.53
838.80	1730.53
838.97	1685.48
839.14	1738.73
839.31	1662.95
839.48	1787.88
839.65	1667.05
839.82	1755.11
839.99	1701.86
840.16	1697.77
840.33	1578.98
840.50	1757.16
840.67	1611.75
840.84	1589.22
841.01	1730.53
841.18	1636.33
841.35	1634.28
841.52	1712.10
841.69	1798.12
841.86	1708.01
842.03	1652.71
842.20	1738.73
842.37	1701.86
842.54	1697.77
842.71	1722.34
842.88	1624.04
843.05	1693.67
843.22	1808.36
843.39	1701.86
843.56	1681.38
843.73	1630.18
843.90	1669.09
844.07	1652.71
844.24	1767.40
844.41	1710.05
844.58	1748.97
844.75	1656.81
844.92	1746.92
845.09	1656.81
845.26	1621.99
845.43	1722.34
845.60	1644.52
845.77	1607.66
845.94	1667.05
846.10	1740.77
846.27	1636.33
846.44	1667.05
846.61	1572.84
846.78	1712.10
846.95	1640.42
847.12	1701.86
847.29	1685.48
847.46	1619.94
847.63	1744.87
847.80	1624.04
847.97	1705.96
848.14	1800.16
848.31	1652.71
848.48	1644.52
848.65	1681.38
848.82	1652.71
848.98	1796.07
849.15	1720.29
849.32	1804.26
849.49	1722.34
849.66	1689.57
849.83	1683.43
850.00	1648.61
850.17	1720.29
850.34	1669.09
850.51	1630.18
850.68	1669.09
850.85	1820.64
851.01	1691.62
851.18	1691.62
851.35	1679.33
851.52	1665.00
851.69	1783.78
851.86	1578.98
852.03	1638.38
852.20	1718.25
852.37	1724.39
852.53	1607.66
852.70	1665.00
852.87	1724.39
853.04	1742.82
853.21	1712.10
853.38	1773.54
853.55	1701.86
853.72	1767.40
853.89	1617.90
854.05	1587.18
854.22	1681.38
854.39	1677.29
854.56	1718.25
854.73	1740.77
854.90	1634.28
855.07	1708.01
855.23	1683.43
855.40	1753.06
855.57	1626.09
855.74	1632.23
855.91	1873.89
856.08	1716.20
856.25	1675.24
856.41	1671.14
856.58	1689.57
856.75	1710.05
856.92	1568.74
857.09	1673.19
857.26	1652.71
857.42	1650.66
857.59	1816.55
857.76	1642.47
857.93	1679.33
858.10	1681.38
858.27	1650.66
858.43	1730.53
858.60	1513.45
858.77	1667.05
858.94	1689.57
859.11	1685.48
859.27	1687.53
859.44	1728.49
859.61	1789.92
859.78	1775.59
859.95	1677.29
860.12	1591.27
860.28	1824.74
860.45	1869.80
860.62	1634.28
860.79	1662.95
860.95	1708.01
861.12	1673.19
861.29	1671.14
861.46	1599.46
861.63	1630.18
861.79	1734.63
861.96	1628.14
862.13	1761.25
862.30	1738.73
862.47	1644.52
862.63	1638.38
862.80	1746.92
862.97	1640.42
863.14	1710.05
863.30	1710.05
863.47	1628.14
863.64	1820.64
863.81	1683.43
863.97	1716.20
864.14	1681.38
864.31	1683.43
864.48	1767.40
864.65	1679.33
864.81	1701.86
864.98	1699.81
865.15	1632.23
865.32	1742.82
865.48	1757.16
865.65	1732.58
865.82	1671.14
865.98	1654.76
866.15	1751.01
866.32	1685.48
866.49	1677.29
866.65	1810.40
866.82	1638.38
866.99	1693.67
867.16	1681.38
867.32	1628.14
867.49	1681.38
867.66	1656.81
867.83	1665.00
867.99	1607.66
868.16	1673.19
868.33	1660.90
868.49	1699.81
868.66	1677.29
868.83	1689.57
868.99	1683.43
869.16	1687.53
869.33	1796.07
869.50	1677.29
869.66	1626.09
869.83	1656.81
870.00	1538.02
870.16	1726.44
870.33	1785.83
870.50	1753.06
870.66	1703.91
870.83	1794.02
871.00	1699.81
871.17	1697.77
871.33	1703.91
871.50	1691.62
871.67	1646.57
871.83	1624.04
872.00	1757.16
872.17	1640.42
872.33	1824.74
872.50	1740.77
872.67	1583.08
872.83	1652.71
873.00	1652.71
873.17	1722.34
873.33	1687.53
873.50	1730.53
873.67	1677.29
873.83	1640.42
874.00	1695.72
874.16	1703.91
874.33	1693.67
874.50	1683.43
874.66	1708.01
874.83	1697.77
875.00	1767.40
875.16	1710.05
875.33	1740.77
875.50	1568.74
875.66	1636.33
875.83	1710.05
875.99	1751.01
876.16	1642.47
876.33	1566.70
876.49	1722.34
876.66	1755.11
876.83	1673.19
876.99	1642.47
877.16	1716.20
877.32	1667.05
877.49	1738.73
877.66	1699.81
877.82	1789.92
877.99	1691.62
878.15	1804.26
878.32	1738.73
878.49	1679.33
878.65	1654.76
878.82	1771.49
878.98	1669.09
879.15	1710.05
879.32	1757.16
879.48	1744.87
879.65	1597.42
879.81	1654.76
879.98	1708.01
880.15	1689.57
880.31	1742.82
880.48	1669.09
880.64	1767.40
880.81	1722.34
880.97	1869.80
881.14	1816.55
881.31	1701.86
881.47	1748.97
881.64	1683.43
881.80	1654.76
881.97	1724.39
882.13	1677.29
882.30	1681.38
882.47	1619.94
882.63	1648.61
882.80	1683.43
882.96	1646.57
883.13	1740.77
883.29	1656.81
883.46	1701.86
883.62	1746.92
883.79	1710.05
883.95	1769.44
884.12	1601.51
884.29	1753.06
884.45	1718.25
884.62	1734.63
884.78	1634.28
884.95	1794.02
885.11	1535.98
885.28	1693.67
885.44	1654.76
885.61	1736.68
885.77	1769.44
885.94	1740.77
886.10	1734.63
886.27	1724.39
886.43	1759.21
886.60	1732.58
886.76	1679.33
886.93	1648.61
887.09	1681.38
887.26	1599.46
887.42	1673.19
887.59	1705.96
887.75	1775.59
887.92	1802.21
888.08	1730.53
888.25	1808.36
888.41	1732.58
888.58	1652.71
888.74	1621.99
888.91	1621.99
>>>>>End Processed Spectral Data<<<<<
