SpectraSuite Data File
++++++++++++++++++++++++++++++++++++
Date: Mon Jun 06 14:28:17 CEST 2016
User: root
Dark Spectrum Present: No
Reference Spectrum Present: No
Number of Sampled Component Spectra: 1
Spectrometers: USB4C02835
Integration Time (usec): 100000 (USB4C02835)
Spectra Averaged: 1 (USB4C02835)
Boxcar Smoothing: 0 (USB4C02835)
Correct for Electrical Dark: No (USB4C02835)
Strobe/Lamp Enabled: No (USB4C02835)
Correct for Detector Non-linearity: No (USB4C02835)
Correct for Stray Light: No (USB4C02835)
Number of Pixels in Processed Spectrum: 3648
>>>>>Begin Processed Spectral Data<<<<<
177.47	1454.06
177.69	1454.06
177.91	1454.06
178.13	1497.07
178.36	1497.07
178.58	1599.46
178.80	1751.01
179.02	1611.75
179.24	1658.85
179.46	1671.14
179.68	1722.34
179.90	1708.01
180.13	1814.50
180.35	1644.52
180.57	1697.77
180.79	1732.58
181.01	1748.97
181.23	1789.92
181.45	1775.59
181.67	1667.05
181.90	1732.58
182.12	1673.19
182.34	1665.00
182.56	1697.77
182.78	1675.24
183.00	1763.30
183.22	1646.57
183.44	1648.61
183.66	1847.27
183.89	1796.07
184.11	1736.68
184.33	1677.29
184.55	1738.73
184.77	1683.43
184.99	1681.38
185.21	1728.49
185.43	1841.12
185.65	1728.49
185.87	1611.75
186.10	1789.92
186.32	1877.99
186.54	1769.44
186.76	1703.91
186.98	1724.39
187.20	1650.66
187.42	1642.47
187.64	1683.43
187.86	1644.52
188.08	1744.87
188.30	1640.42
188.52	1683.43
188.75	1771.49
188.97	1779.68
189.19	1689.57
189.41	1710.05
189.63	1736.68
189.85	1679.33
190.07	1683.43
190.29	1683.43
190.51	1757.16
190.73	1662.95
190.95	1748.97
191.17	1744.87
191.39	1529.83
191.61	1679.33
191.84	1691.62
192.06	1679.33
192.28	1673.19
192.50	1861.60
192.72	1708.01
192.94	1724.39
193.16	1769.44
193.38	1720.29
193.60	1726.44
193.82	1689.57
194.04	1746.92
194.26	1681.38
194.48	1626.09
194.70	1738.73
194.92	1613.80
195.14	1757.16
195.36	1660.90
195.58	1714.15
195.80	1685.48
196.02	1630.18
196.24	1638.38
196.46	1681.38
196.69	1624.04
196.91	1837.03
197.13	1728.49
197.35	1654.76
197.57	1826.79
197.79	1662.95
198.01	1730.53
198.23	1767.40
198.45	1665.00
198.67	1628.14
198.89	1701.86
199.11	1667.05
199.33	1748.97
199.55	1576.94
199.77	1669.09
199.99	1751.01
200.21	1691.62
200.43	1742.82
200.65	1693.67
200.87	1603.56
201.09	1687.53
201.31	1708.01
201.53	1826.79
201.75	1734.63
201.97	1753.06
202.19	1693.67
202.41	1751.01
202.63	1806.31
202.85	1708.01
203.07	1730.53
203.29	1636.33
203.51	1691.62
203.73	1626.09
203.95	1877.99
204.17	1732.58
204.39	1714.15
204.61	1712.10
204.83	1677.29
205.05	1751.01
205.27	1708.01
205.49	1843.17
205.71	1683.43
205.93	1634.28
206.15	1695.72
206.37	1660.90
206.59	1751.01
206.81	1632.23
207.03	1628.14
207.25	1646.57
207.47	1734.63
207.69	1689.57
207.91	1785.83
208.13	1787.88
208.34	1613.80
208.56	1630.18
208.78	1777.64
209.00	1722.34
209.22	1677.29
209.44	1671.14
209.66	1759.21
209.88	1603.56
210.10	1746.92
210.32	1650.66
210.54	1748.97
210.76	1673.19
210.98	1775.59
211.20	1535.98
211.42	1736.68
211.64	1755.11
211.86	1734.63
212.08	1785.83
212.30	1734.63
212.52	1701.86
212.74	1761.25
212.96	1716.20
213.17	1705.96
213.39	1767.40
213.61	1746.92
213.83	1685.48
214.05	1697.77
214.27	1757.16
214.49	1703.91
214.71	1619.94
214.93	1785.83
215.15	1746.92
215.37	1730.53
215.59	1640.42
215.81	1718.25
216.03	1763.30
216.24	1718.25
216.46	1648.61
216.68	1624.04
216.90	1722.34
217.12	1740.77
217.34	1738.73
217.56	1751.01
217.78	1794.02
218.00	1714.15
218.22	1665.00
218.44	1742.82
218.66	1695.72
218.87	1796.07
219.09	1613.80
219.31	1755.11
219.53	1671.14
219.75	1701.86
219.97	1640.42
220.19	1767.40
220.41	1693.67
220.63	1800.16
220.85	1722.34
221.06	1693.67
221.28	1753.06
221.50	1751.01
221.72	1693.67
221.94	1636.33
222.16	1693.67
222.38	1705.96
222.60	1761.25
222.82	1697.77
223.03	1626.09
223.25	1619.94
223.47	1771.49
223.69	1804.26
223.91	1759.21
224.13	1665.00
224.35	1601.51
224.57	1705.96
224.78	1787.88
225.00	1642.47
225.22	1679.33
225.44	1693.67
225.66	1761.25
225.88	1673.19
226.10	1748.97
226.32	1665.00
226.53	1845.22
226.75	1738.73
226.97	1587.18
227.19	1683.43
227.41	1714.15
227.63	1667.05
227.85	1609.70
228.06	1701.86
228.28	1763.30
228.50	1837.03
228.72	1624.04
228.94	1624.04
229.16	1615.85
229.37	1583.08
229.59	1642.47
229.81	1718.25
230.03	1632.23
230.25	1642.47
230.47	1730.53
230.69	1538.02
230.90	1753.06
231.12	1671.14
231.34	1718.25
231.56	1748.97
231.78	1652.71
232.00	1777.64
232.21	1693.67
232.43	1689.57
232.65	1556.46
232.87	1769.44
233.09	1550.31
233.30	1619.94
233.52	1724.39
233.74	1714.15
233.96	1697.77
234.18	1644.52
234.40	1648.61
234.61	1812.45
234.83	1701.86
235.05	1644.52
235.27	1900.52
235.49	1773.54
235.70	1712.10
235.92	1669.09
236.14	1658.85
236.36	1839.08
236.58	1658.85
236.79	1746.92
237.01	1724.39
237.23	1687.53
237.45	1734.63
237.67	1648.61
237.88	1718.25
238.10	1820.64
238.32	1640.42
238.54	1738.73
238.76	1669.09
238.97	1658.85
239.19	1775.59
239.41	1703.91
239.63	1828.84
239.85	1724.39
240.06	1681.38
240.28	1574.89
240.50	1730.53
240.72	1685.48
240.93	1638.38
241.15	1740.77
241.37	1701.86
241.59	1781.73
241.81	1771.49
242.02	1701.86
242.24	1699.81
242.46	1783.78
242.68	1712.10
242.89	1734.63
243.11	1798.12
243.33	1683.43
243.55	1697.77
243.76	1738.73
243.98	1710.05
244.20	1738.73
244.42	1646.57
244.64	1689.57
244.85	1683.43
245.07	1619.94
245.29	1673.19
245.51	1722.34
245.72	1773.54
245.94	1757.16
246.16	1699.81
246.38	1806.31
246.59	1699.81
246.81	1609.70
247.03	1648.61
247.24	1574.89
247.46	1572.84
247.68	1765.35
247.90	1722.34
248.11	1636.33
248.33	1779.68
248.55	1665.00
248.77	1671.14
248.98	1673.19
249.20	1771.49
249.42	1761.25
249.64	1699.81
249.85	1724.39
250.07	1722.34
250.29	1767.40
250.50	1820.64
250.72	1609.70
250.94	1744.87
251.16	1773.54
251.37	1775.59
251.59	1724.39
251.81	1759.21
252.02	1822.69
252.24	1716.20
252.46	1798.12
252.68	1669.09
252.89	1648.61
253.11	1609.70
253.33	1726.44
253.54	1697.77
253.76	1626.09
253.98	1701.86
254.20	1738.73
254.41	1673.19
254.63	1636.33
254.85	1634.28
255.06	1724.39
255.28	1689.57
255.50	1640.42
255.71	1699.81
255.93	1685.48
256.15	1703.91
256.36	1798.12
256.58	1638.38
256.80	1755.11
257.02	1650.66
257.23	1701.86
257.45	1726.44
257.67	1777.64
257.88	1650.66
258.10	1769.44
258.32	1658.85
258.53	1710.05
258.75	1789.92
258.97	1642.47
259.18	1708.01
259.40	1734.63
259.62	1837.03
259.83	1751.01
260.05	1734.63
260.27	2027.49
260.48	1697.77
260.70	1673.19
260.92	1712.10
261.13	1738.73
261.35	1701.86
261.57	1644.52
261.78	1636.33
262.00	1646.57
262.22	1753.06
262.43	1669.09
262.65	1673.19
262.86	1781.73
263.08	1837.03
263.30	1628.14
263.51	1589.22
263.73	1669.09
263.95	1763.30
264.16	1599.46
264.38	1613.80
264.60	1705.96
264.81	1677.29
265.03	1757.16
265.25	1804.26
265.46	1665.00
265.68	1699.81
265.89	1761.25
266.11	1607.66
266.33	1820.64
266.54	1746.92
266.76	1722.34
266.98	1759.21
267.19	1781.73
267.41	1691.62
267.62	1755.11
267.84	1572.84
268.06	1779.68
268.27	1720.29
268.49	1751.01
268.70	1781.73
268.92	1624.04
269.14	1683.43
269.35	1638.38
269.57	1734.63
269.79	1738.73
270.00	1673.19
270.22	1757.16
270.43	1654.76
270.65	1572.84
270.87	1732.58
271.08	1669.09
271.30	1728.49
271.51	1691.62
271.73	1740.77
271.95	1728.49
272.16	1785.83
272.38	1738.73
272.59	1779.68
272.81	1675.24
273.02	1734.63
273.24	1718.25
273.46	1705.96
273.67	1691.62
273.89	1685.48
274.10	1642.47
274.32	1726.44
274.54	1736.68
274.75	1718.25
274.97	1767.40
275.18	1716.20
275.40	1755.11
275.61	1681.38
275.83	1742.82
276.05	1617.90
276.26	1669.09
276.48	1742.82
276.69	1691.62
276.91	1660.90
277.12	1804.26
277.34	1714.15
277.55	1697.77
277.77	1738.73
277.99	1738.73
278.20	1607.66
278.42	1642.47
278.63	1632.23
278.85	1679.33
279.06	1650.66
279.28	1724.39
279.49	1779.68
279.71	1718.25
279.93	1683.43
280.14	1673.19
280.36	1669.09
280.57	1757.16
280.79	1714.15
281.00	1652.71
281.22	1691.62
281.43	1728.49
281.65	1626.09
281.86	1603.56
282.08	1757.16
282.29	1826.79
282.51	1648.61
282.73	1665.00
282.94	1630.18
283.16	1673.19
283.37	1855.46
283.59	1669.09
283.80	1748.97
284.02	1710.05
284.23	1775.59
284.45	1626.09
284.66	1660.90
284.88	1748.97
285.09	1695.72
285.31	1755.11
285.52	1699.81
285.74	1652.71
285.95	1777.64
286.17	1765.35
286.38	1804.26
286.60	1654.76
286.81	1595.37
287.03	1726.44
287.24	1748.97
287.46	1732.58
287.67	1804.26
287.89	1882.08
288.10	1734.63
288.32	1718.25
288.53	1746.92
288.75	1673.19
288.96	1703.91
289.18	1658.85
289.39	1685.48
289.61	1751.01
289.82	1763.30
290.04	1859.56
290.25	1722.34
290.47	1740.77
290.68	1716.20
290.90	1771.49
291.11	1611.75
291.33	1681.38
291.54	1591.27
291.76	1662.95
291.97	1648.61
292.18	1763.30
292.40	1685.48
292.61	1656.81
292.83	1800.16
293.04	1736.68
293.26	1748.97
293.47	1642.47
293.69	1687.53
293.90	1718.25
294.12	1748.97
294.33	1654.76
294.55	1742.82
294.76	1689.57
294.97	1724.39
295.19	1767.40
295.40	1675.24
295.62	1714.15
295.83	1791.97
296.05	1667.05
296.26	1800.16
296.48	1705.96
296.69	1681.38
296.90	1724.39
297.12	1767.40
297.33	1732.58
297.55	1675.24
297.76	1671.14
297.98	1783.78
298.19	1689.57
298.41	1683.43
298.62	1603.56
298.83	1814.50
299.05	1712.10
299.26	1673.19
299.48	1667.05
299.69	1681.38
299.90	1701.86
300.12	1685.48
300.33	1783.78
300.55	1699.81
300.76	1751.01
300.98	1585.13
301.19	1757.16
301.40	1734.63
301.62	1660.90
301.83	1740.77
302.05	1669.09
302.26	1673.19
302.47	1753.06
302.69	1687.53
302.90	1716.20
303.12	1581.03
303.33	1751.01
303.54	1800.16
303.76	1699.81
303.97	1712.10
304.19	1783.78
304.40	1628.14
304.61	1740.77
304.83	1763.30
305.04	1791.97
305.26	1777.64
305.47	1669.09
305.68	1585.13
305.90	1611.75
306.11	1791.97
306.33	1665.00
306.54	1718.25
306.75	1642.47
306.97	1550.31
307.18	1642.47
307.39	1683.43
307.61	1734.63
307.82	1632.23
308.04	1714.15
308.25	1665.00
308.46	1626.09
308.68	1714.15
308.89	1665.00
309.10	1755.11
309.32	1787.88
309.53	1726.44
309.74	1759.21
309.96	1710.05
310.17	1767.40
310.39	1574.89
310.60	1732.58
310.81	1763.30
311.03	1685.48
311.24	1710.05
311.45	1665.00
311.67	1820.64
311.88	1769.44
312.09	1665.00
312.31	1738.73
312.52	1753.06
312.73	1652.71
312.95	1624.04
313.16	1683.43
313.37	1716.20
313.59	1744.87
313.80	1720.29
314.01	1841.12
314.23	1652.71
314.44	1705.96
314.65	1697.77
314.87	1591.27
315.08	1675.24
315.29	1675.24
315.51	1761.25
315.72	1624.04
315.93	1767.40
316.15	1765.35
316.36	1671.14
316.57	1728.49
316.79	1722.34
317.00	1685.48
317.21	1634.28
317.43	1665.00
317.64	1724.39
317.85	1671.14
318.07	1679.33
318.28	1714.15
318.49	1834.98
318.70	1937.38
318.92	1789.92
319.13	1806.31
319.34	1853.41
319.56	1689.57
319.77	1824.74
319.98	1763.30
320.20	1718.25
320.41	1740.77
320.62	1722.34
320.83	1628.14
321.05	1777.64
321.26	1660.90
321.47	1693.67
321.69	1832.93
321.90	1644.52
322.11	1687.53
322.32	1736.68
322.54	1783.78
322.75	1701.86
322.96	1779.68
323.18	1656.81
323.39	1603.56
323.60	1660.90
323.81	1748.97
324.03	1636.33
324.24	1656.81
324.45	1740.77
324.66	1644.52
324.88	1818.60
325.09	1703.91
325.30	1705.96
325.52	1767.40
325.73	1691.62
325.94	1574.89
326.15	1687.53
326.37	1716.20
326.58	1742.82
326.79	1822.69
327.00	1636.33
327.22	1728.49
327.43	1699.81
327.64	1675.24
327.85	1734.63
328.07	1740.77
328.28	1728.49
328.49	1746.92
328.70	1757.16
328.92	1705.96
329.13	1626.09
329.34	1755.11
329.55	1728.49
329.76	1720.29
329.98	1724.39
330.19	1820.64
330.40	1755.11
330.61	1679.33
330.83	1748.97
331.04	1691.62
331.25	1759.21
331.46	1722.34
331.68	1626.09
331.89	1798.12
332.10	1712.10
332.31	1644.52
332.52	1708.01
332.74	1767.40
332.95	1710.05
333.16	1673.19
333.37	1748.97
333.58	1646.57
333.80	1746.92
334.01	1644.52
334.22	1728.49
334.43	1642.47
334.64	1613.80
334.86	1591.27
335.07	1677.29
335.28	1765.35
335.49	1605.61
335.70	1669.09
335.92	1808.36
336.13	1808.36
336.34	1755.11
336.55	1673.19
336.76	1708.01
336.98	1554.41
337.19	1658.85
337.40	1849.32
337.61	1869.80
337.82	1632.23
338.04	1755.11
338.25	1554.41
338.46	1699.81
338.67	1677.29
338.88	1597.42
339.09	1624.04
339.31	1675.24
339.52	1673.19
339.73	1654.76
339.94	1607.66
340.15	1802.21
340.36	1701.86
340.58	1742.82
340.79	1609.70
341.00	1755.11
341.21	1603.56
341.42	1802.21
341.63	1677.29
341.85	1767.40
342.06	1689.57
342.27	1636.33
342.48	1777.64
342.69	1652.71
342.90	1734.63
343.12	1679.33
343.33	1705.96
343.54	1751.01
343.75	1814.50
343.96	1720.29
344.17	1640.42
344.38	1777.64
344.60	1665.00
344.81	1673.19
345.02	1730.53
345.23	1775.59
345.44	1812.45
345.65	1734.63
345.86	1650.66
346.07	1650.66
346.29	1589.22
346.50	1738.73
346.71	1673.19
346.92	1748.97
347.13	1777.64
347.34	1732.58
347.55	1783.78
347.76	1638.38
347.98	1593.32
348.19	1677.29
348.40	1773.54
348.61	1638.38
348.82	1812.45
349.03	1705.96
349.24	1693.67
349.45	1748.97
349.66	1570.79
349.88	1697.77
350.09	1644.52
350.30	1814.50
350.51	1773.54
350.72	1646.57
350.93	1748.97
351.14	1681.38
351.35	1714.15
351.56	1710.05
351.77	1679.33
351.99	1736.68
352.20	1781.73
352.41	1808.36
352.62	1619.94
352.83	1726.44
353.04	1658.85
353.25	1662.95
353.46	1810.40
353.67	1677.29
353.88	1599.46
354.09	1730.53
354.30	1746.92
354.52	1722.34
354.73	1708.01
354.94	1613.80
355.15	1665.00
355.36	1755.11
355.57	1781.73
355.78	1732.58
355.99	1691.62
356.20	1669.09
356.41	1787.88
356.62	1701.86
356.83	1701.86
357.04	1767.40
357.25	1667.05
357.46	1730.53
357.68	1679.33
357.89	1630.18
358.10	1660.90
358.31	1751.01
358.52	1730.53
358.73	1595.37
358.94	1708.01
359.15	1699.81
359.36	1703.91
359.57	1683.43
359.78	1765.35
359.99	1734.63
360.20	1724.39
360.41	1712.10
360.62	1718.25
360.83	1703.91
361.04	1734.63
361.25	1839.08
361.46	1744.87
361.67	1697.77
361.88	1656.81
362.09	1656.81
362.30	1734.63
362.51	1609.70
362.72	1693.67
362.93	1718.25
363.14	1767.40
363.35	1708.01
363.56	1636.33
363.78	1699.81
363.99	1705.96
364.20	1712.10
364.41	1751.01
364.62	1806.31
364.83	1640.42
365.04	1673.19
365.25	1718.25
365.46	1775.59
365.67	1699.81
365.88	1677.29
366.09	1695.72
366.30	1705.96
366.51	1796.07
366.72	1642.47
366.93	1728.49
367.14	1677.29
367.35	1812.45
367.56	1687.53
367.77	1775.59
367.98	1658.85
368.18	1759.21
368.39	1767.40
368.60	1697.77
368.81	1773.54
369.02	1724.39
369.23	1705.96
369.44	1566.70
369.65	1667.05
369.86	1699.81
370.07	1660.90
370.28	1652.71
370.49	1730.53
370.70	1732.58
370.91	1578.98
371.12	1648.61
371.33	1753.06
371.54	1679.33
371.75	1826.79
371.96	1601.51
372.17	1732.58
372.38	1689.57
372.59	1718.25
372.80	1665.00
373.01	1673.19
373.22	1701.86
373.43	1687.53
373.64	1652.71
373.85	1808.36
374.06	1828.84
374.26	1732.58
374.47	1751.01
374.68	1740.77
374.89	1695.72
375.10	1658.85
375.31	1697.77
375.52	1701.86
375.73	1699.81
375.94	1652.71
376.15	1789.92
376.36	1742.82
376.57	1654.76
376.78	1804.26
376.99	1730.53
377.20	1687.53
377.40	1683.43
377.61	1736.68
377.82	1722.34
378.03	1804.26
378.24	1755.11
378.45	1701.86
378.66	1644.52
378.87	1611.75
379.08	1613.80
379.29	1720.29
379.50	1787.88
379.71	1753.06
379.91	1685.48
380.12	1697.77
380.33	1687.53
380.54	1746.92
380.75	1712.10
380.96	1732.58
381.17	1757.16
381.38	1701.86
381.59	1681.38
381.80	1693.67
382.00	1794.02
382.21	1791.97
382.42	1861.60
382.63	1849.32
382.84	1699.81
383.05	1734.63
383.26	1853.41
383.47	1728.49
383.68	1716.20
383.88	1798.12
384.09	1669.09
384.30	1779.68
384.51	1779.68
384.72	1658.85
384.93	1652.71
385.14	1693.67
385.35	1796.07
385.55	1648.61
385.76	1783.78
385.97	1705.96
386.18	1566.70
386.39	1722.34
386.60	1705.96
386.81	1759.21
387.02	1736.68
387.22	1636.33
387.43	1808.36
387.64	1765.35
387.85	1877.99
388.06	2207.71
388.27	4173.76
388.48	6815.64
388.68	8300.42
388.89	9836.39
389.10	10182.50
389.31	8603.52
389.52	7714.70
389.73	6629.27
389.93	6371.23
390.14	5801.90
390.35	5257.14
390.56	4532.15
390.77	3893.19
390.98	3065.81
391.18	2504.67
391.39	2127.84
391.60	1861.60
391.81	1929.19
392.02	1695.72
392.23	1808.36
392.43	1816.55
392.64	1787.88
392.85	1751.01
393.06	1742.82
393.27	1716.20
393.47	1624.04
393.68	1701.86
393.89	1744.87
394.10	1732.58
394.31	1665.00
394.52	1703.91
394.72	1677.29
394.93	1812.45
395.14	1624.04
395.35	1757.16
395.56	1687.53
395.76	1687.53
395.97	1802.21
396.18	1826.79
396.39	1845.22
396.60	1939.43
396.80	1910.75
397.01	1773.54
397.22	1794.02
397.43	1914.85
397.64	1751.01
397.84	1751.01
398.05	1929.19
398.26	1748.97
398.47	1769.44
398.67	1806.31
398.88	1763.30
399.09	1703.91
399.30	1695.72
399.51	1736.68
399.71	1605.61
399.92	1751.01
400.13	1798.12
400.34	1701.86
400.54	1679.33
400.75	1869.80
400.96	1701.86
401.17	1783.78
401.37	1730.53
401.58	1712.10
401.79	1681.38
402.00	1865.70
402.21	2027.49
402.41	1920.99
402.62	2078.69
402.83	2015.20
403.04	2011.11
403.24	2082.78
403.45	1826.79
403.66	1914.85
403.87	1822.69
404.07	1882.08
404.28	1857.51
404.49	1839.08
404.70	1781.73
404.90	1777.64
405.11	1730.53
405.32	1806.31
405.52	1701.86
405.73	1644.52
405.94	1603.56
406.15	1621.99
406.35	1712.10
406.56	1787.88
406.77	1695.72
406.98	1673.19
407.18	1660.90
407.39	1687.53
407.60	1781.73
407.80	1699.81
408.01	1722.34
408.22	1703.91
408.43	1705.96
408.63	1744.87
408.84	1730.53
409.05	1720.29
409.25	1650.66
409.46	1632.23
409.67	1759.21
409.88	1601.51
410.08	1753.06
410.29	1634.28
410.50	1720.29
410.70	1691.62
410.91	1693.67
411.12	1648.61
411.32	1722.34
411.53	1644.52
411.74	1738.73
411.95	1761.25
412.15	1775.59
412.36	1802.21
412.57	1687.53
412.77	1841.12
412.98	1693.67
413.19	1712.10
413.39	1730.53
413.60	1765.35
413.81	1759.21
414.01	1642.47
414.22	1769.44
414.43	1730.53
414.63	1677.29
414.84	1824.74
415.05	1705.96
415.25	1681.38
415.46	1726.44
415.67	1701.86
415.87	1740.77
416.08	1746.92
416.29	1607.66
416.49	1701.86
416.70	1697.77
416.91	1716.20
417.11	1683.43
417.32	1742.82
417.53	1726.44
417.73	1722.34
417.94	1785.83
418.15	1691.62
418.35	1775.59
418.56	1683.43
418.77	1787.88
418.97	1687.53
419.18	1701.86
419.38	1644.52
419.59	1654.76
419.80	1789.92
420.00	1626.09
420.21	1716.20
420.42	1767.40
420.62	1814.50
420.83	1634.28
421.04	1724.39
421.24	1662.95
421.45	1767.40
421.65	1728.49
421.86	1814.50
422.07	1708.01
422.27	1701.86
422.48	1742.82
422.69	1624.04
422.89	1785.83
423.10	1677.29
423.30	1609.70
423.51	1689.57
423.72	1767.40
423.92	1718.25
424.13	1624.04
424.33	1656.81
424.54	1712.10
424.75	1748.97
424.95	1802.21
425.16	1785.83
425.36	1599.46
425.57	1779.68
425.78	1753.06
425.98	1767.40
426.19	1701.86
426.39	1667.05
426.60	1732.58
426.81	1800.16
427.01	1757.16
427.22	1681.38
427.42	1572.84
427.63	1626.09
427.83	1771.49
428.04	1841.12
428.25	1812.45
428.45	1746.92
428.66	1763.30
428.86	1720.29
429.07	1722.34
429.28	1734.63
429.48	1654.76
429.69	1681.38
429.89	1742.82
430.10	1617.90
430.30	1714.15
430.51	1644.52
430.71	1683.43
430.92	1699.81
431.13	1693.67
431.33	1746.92
431.54	1736.68
431.74	1830.88
431.95	1767.40
432.15	1656.81
432.36	1703.91
432.56	1751.01
432.77	1796.07
432.98	1785.83
433.18	1775.59
433.39	1753.06
433.59	1732.58
433.80	1826.79
434.00	1791.97
434.21	1632.23
434.41	1605.61
434.62	1853.41
434.82	1656.81
435.03	1660.90
435.23	1710.05
435.44	1615.85
435.64	1755.11
435.85	1765.35
436.06	1732.58
436.26	1730.53
436.47	1683.43
436.67	1691.62
436.88	1748.97
437.08	1789.92
437.29	1783.78
437.49	1687.53
437.70	1789.92
437.90	1771.49
438.11	1839.08
438.31	1845.22
438.52	1826.79
438.72	1830.88
438.93	1892.32
439.13	1814.50
439.34	1822.69
439.54	1773.54
439.75	1744.87
439.95	1916.90
440.16	1710.05
440.36	1748.97
440.57	1710.05
440.77	1746.92
440.98	1652.71
441.18	1781.73
441.39	1771.49
441.59	1677.29
441.80	1873.89
442.00	1761.25
442.21	1853.41
442.41	1779.68
442.62	1763.30
442.82	1744.87
443.02	1687.53
443.23	1771.49
443.43	1742.82
443.64	1857.51
443.84	1611.75
444.05	1798.12
444.25	1720.29
444.46	1693.67
444.66	1699.81
444.87	1757.16
445.07	1728.49
445.28	1738.73
445.48	1861.60
445.69	1781.73
445.89	1787.88
446.09	1763.30
446.30	1982.43
446.50	2645.98
446.71	3760.07
446.91	4319.17
447.12	4779.96
447.32	4802.49
447.53	4421.56
447.73	3864.52
447.93	3596.23
448.14	3330.00
448.34	3139.54
448.55	2934.74
448.75	2934.74
448.96	2750.42
449.16	2496.47
449.36	2435.03
449.57	2068.45
449.77	1886.18
449.98	1742.82
450.18	1791.97
450.39	1814.50
450.59	1734.63
450.79	1693.67
451.00	1658.85
451.20	1808.36
451.41	1763.30
451.61	1679.33
451.81	1779.68
452.02	1705.96
452.22	1654.76
452.43	1673.19
452.63	1730.53
452.84	1722.34
453.04	1740.77
453.24	1775.59
453.45	1703.91
453.65	1695.72
453.86	1757.16
454.06	1691.62
454.26	1699.81
454.47	1656.81
454.67	1755.11
454.87	1720.29
455.08	1761.25
455.28	1773.54
455.49	1695.72
455.69	1671.14
455.89	1871.84
456.10	1851.36
456.30	1777.64
456.51	1742.82
456.71	1771.49
456.91	1699.81
457.12	1689.57
457.32	1751.01
457.52	1703.91
457.73	1808.36
457.93	1771.49
458.14	1699.81
458.34	1619.94
458.54	1736.68
458.75	1679.33
458.95	1769.44
459.15	1738.73
459.36	1708.01
459.56	1697.77
459.76	1781.73
459.97	1681.38
460.17	1673.19
460.37	1832.93
460.58	1757.16
460.78	1791.97
460.99	1716.20
461.19	1759.21
461.39	1652.71
461.60	1748.97
461.80	1714.15
462.00	1665.00
462.21	1791.97
462.41	1689.57
462.61	1691.62
462.82	1632.23
463.02	1767.40
463.22	1695.72
463.43	1742.82
463.63	1746.92
463.83	1830.88
464.04	1736.68
464.24	1724.39
464.44	1726.44
464.64	1705.96
464.85	1742.82
465.05	1781.73
465.25	1681.38
465.46	1660.90
465.66	1767.40
465.86	1841.12
466.07	1681.38
466.27	1724.39
466.47	1677.29
466.68	1595.37
466.88	1748.97
467.08	1716.20
467.29	1769.44
467.49	1761.25
467.69	1714.15
467.89	1794.02
468.10	1640.42
468.30	1804.26
468.50	1832.93
468.71	1685.48
468.91	1650.66
469.11	1814.50
469.31	1681.38
469.52	1662.95
469.72	1847.27
469.92	1843.17
470.13	1671.14
470.33	1716.20
470.53	1867.75
470.73	2127.84
470.94	2256.86
471.14	2269.15
471.34	2549.72
471.54	2408.41
471.75	2172.89
471.95	2109.41
472.15	2117.60
472.36	2074.59
472.56	2045.92
472.76	2062.30
472.96	1961.95
473.17	1882.08
473.37	1974.24
473.57	1740.77
473.77	1785.83
473.98	1722.34
474.18	1679.33
474.38	1902.56
474.58	1660.90
474.79	1759.21
474.99	1695.72
475.19	1761.25
475.39	1652.71
475.60	1718.25
475.80	1796.07
476.00	1736.68
476.20	1673.19
476.41	1703.91
476.61	1767.40
476.81	1791.97
477.01	1691.62
477.21	1785.83
477.42	1837.03
477.62	1646.57
477.82	1740.77
478.02	1689.57
478.23	1806.31
478.43	1640.42
478.63	1748.97
478.83	1701.86
479.03	1742.82
479.24	1886.18
479.44	1804.26
479.64	1755.11
479.84	1597.42
480.04	1720.29
480.25	1753.06
480.45	1652.71
480.65	1689.57
480.85	1728.49
481.06	1681.38
481.26	1722.34
481.46	1732.58
481.66	1771.49
481.86	1705.96
482.06	1779.68
482.27	1693.67
482.47	1712.10
482.67	1703.91
482.87	1746.92
483.07	1796.07
483.28	1685.48
483.48	1634.28
483.68	1787.88
483.88	1654.76
484.08	1642.47
484.29	1710.05
484.49	1720.29
484.69	1609.70
484.89	1740.77
485.09	1781.73
485.29	1726.44
485.50	1724.39
485.70	1699.81
485.90	1775.59
486.10	1726.44
486.30	1775.59
486.50	1800.16
486.71	1693.67
486.91	1832.93
487.11	1765.35
487.31	1640.42
487.51	1753.06
487.71	1693.67
487.91	1626.09
488.12	1642.47
488.32	1710.05
488.52	1681.38
488.72	1554.41
488.92	1773.54
489.12	1771.49
489.32	1710.05
489.53	1734.63
489.73	1593.32
489.93	1877.99
490.13	1716.20
490.33	1705.96
490.53	1736.68
490.73	1781.73
490.94	1568.74
491.14	1763.30
491.34	1877.99
491.54	2107.36
491.74	2555.86
491.94	2971.60
492.14	3110.86
492.34	2922.45
492.54	2736.09
492.75	2562.01
492.95	2533.34
493.15	2375.64
493.35	2301.92
493.55	2324.44
493.75	2201.57
493.95	2086.88
494.15	2041.82
494.35	1884.13
494.56	1886.18
494.76	1794.02
494.96	1806.31
495.16	1791.97
495.36	1705.96
495.56	1687.53
495.76	1665.00
495.96	1667.05
496.16	1673.19
496.36	1800.16
496.56	1761.25
496.77	1675.24
496.97	1730.53
497.17	1773.54
497.37	1716.20
497.57	1724.39
497.77	1775.59
497.97	1646.57
498.17	1720.29
498.37	1710.05
498.57	1830.88
498.77	1703.91
498.97	1751.01
499.17	1871.84
499.38	1720.29
499.58	1851.36
499.78	1804.26
499.98	1726.44
500.18	1691.62
500.38	1732.58
500.58	1941.47
500.78	2584.54
500.98	4593.59
501.18	5892.01
501.38	6838.17
501.58	7292.82
501.78	6791.06
501.98	5582.76
502.18	5017.52
502.38	4523.96
502.58	4147.14
502.78	3839.94
502.98	3674.06
503.18	3409.87
503.38	3176.40
503.59	2828.24
503.79	2635.74
503.99	2553.82
504.19	2283.49
504.39	2230.24
504.59	2168.80
504.79	2127.84
504.99	2088.93
505.19	1935.33
505.39	1880.04
505.59	1877.99
505.79	1968.10
505.99	1886.18
506.19	1748.97
506.39	1927.14
506.59	1742.82
506.79	1755.11
506.99	1783.78
507.19	1785.83
507.39	1837.03
507.59	1603.56
507.79	1763.30
507.99	1644.52
508.19	1765.35
508.39	1685.48
508.59	1683.43
508.79	1804.26
508.99	1814.50
509.19	1718.25
509.39	1775.59
509.59	1658.85
509.79	1716.20
509.99	1794.02
510.19	1726.44
510.39	1816.55
510.59	1808.36
510.79	1644.52
510.99	1644.52
511.19	1781.73
511.39	1890.28
511.59	1683.43
511.79	1775.59
511.99	1812.45
512.19	1812.45
512.38	1765.35
512.58	1722.34
512.78	1652.71
512.98	1765.35
513.18	1812.45
513.38	1615.85
513.58	1847.27
513.78	1699.81
513.98	1767.40
514.18	1695.72
514.38	1689.57
514.58	1806.31
514.78	1669.09
514.98	1675.24
515.18	1669.09
515.38	1677.29
515.58	1898.47
515.78	1753.06
515.98	1746.92
516.18	1832.93
516.38	1705.96
516.57	1714.15
516.77	1632.23
516.97	1810.40
517.17	1703.91
517.37	1634.28
517.57	1742.82
517.77	1748.97
517.97	1705.96
518.17	1785.83
518.37	1667.05
518.57	1705.96
518.77	1662.95
518.97	1796.07
519.16	1763.30
519.36	1773.54
519.56	1783.78
519.76	1738.73
519.96	1714.15
520.16	1832.93
520.36	1607.66
520.56	1810.40
520.76	1710.05
520.96	1611.75
521.16	1787.88
521.35	1710.05
521.55	1798.12
521.75	1761.25
521.95	1734.63
522.15	1734.63
522.35	1679.33
522.55	1660.90
522.75	1839.08
522.95	1783.78
523.14	1658.85
523.34	1726.44
523.54	1716.20
523.74	1847.27
523.94	1662.95
524.14	1701.86
524.34	1763.30
524.54	1812.45
524.73	1738.73
524.93	1720.29
525.13	1730.53
525.33	1675.24
525.53	1886.18
525.73	1757.16
525.93	1761.25
526.13	1718.25
526.32	1665.00
526.52	1796.07
526.72	1804.26
526.92	1755.11
527.12	1691.62
527.32	1621.99
527.52	1714.15
527.71	1787.88
527.91	1785.83
528.11	1703.91
528.31	1802.21
528.51	1603.56
528.71	1781.73
528.90	1794.02
529.10	1826.79
529.30	1808.36
529.50	1632.23
529.70	1699.81
529.90	1691.62
530.09	1765.35
530.29	1652.71
530.49	1626.09
530.69	1830.88
530.89	1771.49
531.09	1843.17
531.28	1724.39
531.48	1779.68
531.68	1796.07
531.88	1769.44
532.08	1763.30
532.28	1687.53
532.47	1767.40
532.67	1732.58
532.87	1794.02
533.07	1689.57
533.27	1804.26
533.46	1732.58
533.66	1800.16
533.86	1691.62
534.06	1714.15
534.26	1722.34
534.45	1730.53
534.65	1814.50
534.85	1767.40
535.05	1746.92
535.25	1771.49
535.44	1667.05
535.64	1755.11
535.84	1685.48
536.04	1728.49
536.24	1626.09
536.43	1710.05
536.63	1789.92
536.83	1759.21
537.03	1800.16
537.22	1566.70
537.42	1609.70
537.62	1736.68
537.82	1617.90
538.02	1769.44
538.21	1814.50
538.41	1927.14
538.61	1726.44
538.81	1701.86
539.00	1765.35
539.20	1679.33
539.40	1691.62
539.60	1734.63
539.79	1726.44
539.99	1730.53
540.19	1671.14
540.39	1660.90
540.58	1744.87
540.78	1738.73
540.98	1773.54
541.18	1753.06
541.37	1738.73
541.57	1759.21
541.77	1732.58
541.97	1640.42
542.16	1611.75
542.36	1718.25
542.56	1685.48
542.76	1861.60
542.95	1738.73
543.15	1804.26
543.35	1855.46
543.54	1667.05
543.74	1652.71
543.94	1812.45
544.14	1675.24
544.33	1708.01
544.53	1738.73
544.73	1669.09
544.93	1710.05
545.12	1720.29
545.32	1757.16
545.52	1640.42
545.71	1697.77
545.91	1669.09
546.11	1728.49
546.30	1675.24
546.50	1755.11
546.70	1777.64
546.90	1820.64
547.09	1646.57
547.29	1660.90
547.49	1791.97
547.68	1781.73
547.88	1679.33
548.08	1724.39
548.27	2222.05
548.47	1669.09
548.67	1744.87
548.87	1699.81
549.06	1671.14
549.26	1816.55
549.46	1726.44
549.65	1779.68
549.85	1720.29
550.05	1804.26
550.24	1691.62
550.44	1683.43
550.64	1800.16
550.83	1751.01
551.03	1775.59
551.23	1767.40
551.42	1769.44
551.62	1798.12
551.82	1775.59
552.01	1726.44
552.21	1890.28
552.41	1720.29
552.60	1746.92
552.80	1763.30
553.00	1730.53
553.19	1812.45
553.39	1867.75
553.59	1685.48
553.78	1810.40
553.98	1824.74
554.17	1673.19
554.37	1744.87
554.57	1718.25
554.76	1705.96
554.96	1675.24
555.16	1753.06
555.35	1746.92
555.55	1800.16
555.75	1751.01
555.94	1787.88
556.14	1621.99
556.33	1687.53
556.53	1746.92
556.73	1716.20
556.92	1753.06
557.12	1837.03
557.32	1855.46
557.51	1777.64
557.71	1761.25
557.90	1925.09
558.10	1802.21
558.30	1757.16
558.49	1695.72
558.69	1728.49
558.88	1728.49
559.08	1775.59
559.28	1703.91
559.47	1787.88
559.67	1787.88
559.86	1896.42
560.06	1798.12
560.26	1753.06
560.45	1714.15
560.65	1697.77
560.84	1834.98
561.04	1718.25
561.24	1814.50
561.43	1660.90
561.63	1820.64
561.82	1714.15
562.02	1771.49
562.22	1689.57
562.41	1693.67
562.61	1767.40
562.80	1660.90
563.00	1855.46
563.19	1734.63
563.39	1769.44
563.59	1730.53
563.78	1705.96
563.98	1619.94
564.17	1708.01
564.37	1587.18
564.56	1636.33
564.76	1595.37
564.96	1837.03
565.15	1708.01
565.35	1820.64
565.54	1701.86
565.74	1740.77
565.93	1730.53
566.13	1748.97
566.32	1703.91
566.52	1802.21
566.71	1724.39
566.91	1714.15
567.11	1716.20
567.30	1732.58
567.50	1804.26
567.69	1791.97
567.89	1726.44
568.08	1685.48
568.28	1730.53
568.47	1646.57
568.67	1748.97
568.86	1665.00
569.06	1796.07
569.25	1742.82
569.45	1695.72
569.64	1650.66
569.84	1763.30
570.04	1806.31
570.23	1687.53
570.43	1658.85
570.62	1802.21
570.82	1826.79
571.01	1767.40
571.21	1724.39
571.40	1705.96
571.60	1769.44
571.79	1798.12
571.99	1806.31
572.18	1654.76
572.38	1759.21
572.57	1677.29
572.77	1796.07
572.96	1777.64
573.16	1791.97
573.35	1736.68
573.55	1732.58
573.74	1818.60
573.94	1693.67
574.13	1796.07
574.33	1773.54
574.52	1814.50
574.71	1802.21
574.91	1742.82
575.10	1671.14
575.30	1650.66
575.49	1644.52
575.69	1712.10
575.88	1783.78
576.08	1748.97
576.27	1771.49
576.47	1669.09
576.66	1857.51
576.86	1734.63
577.05	1724.39
577.25	1746.92
577.44	1816.55
577.64	1759.21
577.83	1859.56
578.02	1800.16
578.22	1832.93
578.41	1857.51
578.61	1705.96
578.80	1648.61
579.00	1810.40
579.19	1771.49
579.39	1843.17
579.58	1771.49
579.77	1771.49
579.97	1834.98
580.16	1810.40
580.36	1779.68
580.55	1800.16
580.75	1783.78
580.94	1789.92
581.13	1861.60
581.33	1802.21
581.52	1734.63
581.72	1920.99
581.91	1871.84
582.11	1789.92
582.30	1755.11
582.49	1765.35
582.69	1890.28
582.88	1810.40
583.08	1814.50
583.27	1861.60
583.47	1755.11
583.66	1755.11
583.85	1701.86
584.05	1720.29
584.24	1738.73
584.44	1810.40
584.63	1861.60
584.82	1855.46
585.02	1898.47
585.21	1834.98
585.41	1839.08
585.60	1769.44
585.79	1869.80
585.99	1935.33
586.18	1869.80
586.37	2244.57
586.57	3373.00
586.76	9795.43
586.96	24751.75
587.15	35245.54
587.34	40885.65
587.54	42390.91
587.73	37266.89
587.93	26678.89
588.12	21790.39
588.31	18552.55
588.51	16615.17
588.70	15376.15
588.89	14448.42
589.09	13010.75
589.28	11013.98
589.47	9590.64
589.67	8109.96
589.86	6410.14
590.06	4911.03
590.25	4026.31
590.44	3168.21
590.64	2559.96
590.83	2226.14
591.02	2146.27
591.22	1994.72
591.41	1865.70
591.60	1869.80
591.80	1980.39
591.99	1802.21
592.18	1816.55
592.38	1894.37
592.57	1798.12
592.76	1757.16
592.96	1710.05
593.15	1744.87
593.34	1861.60
593.54	1751.01
593.73	1816.55
593.92	1771.49
594.12	1794.02
594.31	1783.78
594.50	1880.04
594.70	1779.68
594.89	1880.04
595.08	1662.95
595.28	1779.68
595.47	1925.09
595.66	1798.12
595.86	1640.42
596.05	1773.54
596.24	1720.29
596.43	1863.65
596.63	1787.88
596.82	1791.97
597.01	1720.29
597.21	1800.16
597.40	1755.11
597.59	1710.05
597.79	1734.63
597.98	1705.96
598.17	1759.21
598.36	1736.68
598.56	1712.10
598.75	1757.16
598.94	1736.68
599.14	1751.01
599.33	1726.44
599.52	1775.59
599.71	1748.97
599.91	1763.30
600.10	1712.10
600.29	1667.05
600.48	1730.53
600.68	1785.83
600.87	1761.25
601.06	1708.01
601.26	1753.06
601.45	1748.97
601.64	1677.29
601.83	1826.79
602.03	1738.73
602.22	1634.28
602.41	1824.74
602.60	1808.36
602.80	1748.97
602.99	1783.78
603.18	1703.91
603.37	1789.92
603.57	1689.57
603.76	1753.06
603.95	1755.11
604.14	1699.81
604.34	1642.47
604.53	1705.96
604.72	1753.06
604.91	1693.67
605.10	1787.88
605.30	1619.94
605.49	1853.41
605.68	1818.60
605.87	1730.53
606.07	1742.82
606.26	1783.78
606.45	1675.24
606.64	1742.82
606.84	1693.67
607.03	1736.68
607.22	1783.78
607.41	1689.57
607.60	1718.25
607.80	1757.16
607.99	1640.42
608.18	1701.86
608.37	1740.77
608.56	1689.57
608.76	1789.92
608.95	1837.03
609.14	1736.68
609.33	1744.87
609.52	1851.36
609.72	1714.15
609.91	1705.96
610.10	1681.38
610.29	1847.27
610.48	1724.39
610.68	1794.02
610.87	1708.01
611.06	1740.77
611.25	1677.29
611.44	1820.64
611.63	1701.86
611.83	1808.36
612.02	1642.47
612.21	1783.78
612.40	1640.42
612.59	1740.77
612.79	1687.53
612.98	1859.56
613.17	1789.92
613.36	1763.30
613.55	1820.64
613.74	1701.86
613.93	1689.57
614.13	1712.10
614.32	1671.14
614.51	1732.58
614.70	1740.77
614.89	1681.38
615.08	1681.38
615.28	2068.45
615.47	1734.63
615.66	1726.44
615.85	1755.11
616.04	1832.93
616.23	1650.66
616.42	1685.48
616.62	1744.87
616.81	1708.01
617.00	1757.16
617.19	1791.97
617.38	1701.86
617.57	1796.07
617.76	1781.73
617.95	1716.20
618.15	1679.33
618.34	1818.60
618.53	1660.90
618.72	1728.49
618.91	1839.08
619.10	1841.12
619.29	1677.29
619.48	1730.53
619.68	1679.33
619.87	1724.39
620.06	1710.05
620.25	1822.69
620.44	1662.95
620.63	1710.05
620.82	1665.00
621.01	1773.54
621.20	1634.28
621.39	1691.62
621.59	1759.21
621.78	1712.10
621.97	1742.82
622.16	1746.92
622.35	1724.39
622.54	1736.68
622.73	1812.45
622.92	1671.14
623.11	1800.16
623.30	1695.72
623.49	1777.64
623.68	1724.39
623.88	1779.68
624.07	1714.15
624.26	1703.91
624.45	1742.82
624.64	1695.72
624.83	1710.05
625.02	1691.62
625.21	1685.48
625.40	1671.14
625.59	1746.92
625.78	1781.73
625.97	1767.40
626.16	1744.87
626.35	1701.86
626.54	1671.14
626.74	1753.06
626.93	1742.82
627.12	1718.25
627.31	1798.12
627.50	1779.68
627.69	1824.74
627.88	1695.72
628.07	1779.68
628.26	1574.89
628.45	1720.29
628.64	1648.61
628.83	1708.01
629.02	1753.06
629.21	1757.16
629.40	1783.78
629.59	1708.01
629.78	1673.19
629.97	1656.81
630.16	1777.64
630.35	1734.63
630.54	1687.53
630.73	1697.77
630.92	1722.34
631.11	1679.33
631.30	1751.01
631.49	1757.16
631.68	1742.82
631.87	1804.26
632.06	1681.38
632.25	1800.16
632.44	1724.39
632.63	1714.15
632.82	1660.90
633.01	1640.42
633.20	1718.25
633.39	1683.43
633.58	1630.18
633.77	1697.77
633.96	1720.29
634.15	1738.73
634.34	1771.49
634.53	1753.06
634.72	1718.25
634.91	1619.94
635.10	1804.26
635.29	1834.98
635.48	1673.19
635.67	1658.85
635.86	1656.81
636.05	1759.21
636.24	1705.96
636.43	1744.87
636.62	1687.53
636.81	1501.16
637.00	1695.72
637.19	1691.62
637.38	1701.86
637.57	1613.80
637.76	1767.40
637.95	1638.38
638.14	1591.27
638.33	1615.85
638.52	1757.16
638.71	1673.19
638.89	1679.33
639.08	1863.65
639.27	1738.73
639.46	1748.97
639.65	1863.65
639.84	1763.30
640.03	1765.35
640.22	1646.57
640.41	1869.80
640.60	1656.81
640.79	1746.92
640.98	1624.04
641.17	1757.16
641.36	1712.10
641.55	1767.40
641.74	1648.61
641.92	1673.19
642.11	1734.63
642.30	1712.10
642.49	1662.95
642.68	1654.76
642.87	1755.11
643.06	1726.44
643.25	1677.29
643.44	1648.61
643.63	1697.77
643.82	1712.10
644.00	1630.18
644.19	1734.63
644.38	1656.81
644.57	1839.08
644.76	1714.15
644.95	1640.42
645.14	1730.53
645.33	1714.15
645.52	1691.62
645.71	1652.71
645.89	1673.19
646.08	1677.29
646.27	1716.20
646.46	1808.36
646.65	1695.72
646.84	1681.38
647.03	1578.98
647.22	1751.01
647.40	1730.53
647.59	1648.61
647.78	1691.62
647.97	1705.96
648.16	1681.38
648.35	1857.51
648.54	1726.44
648.73	1773.54
648.91	1773.54
649.10	1726.44
649.29	1742.82
649.48	1673.19
649.67	1695.72
649.86	1748.97
650.05	1662.95
650.23	1755.11
650.42	1619.94
650.61	1705.96
650.80	1753.06
650.99	1791.97
651.18	1732.58
651.36	1769.44
651.55	1705.96
651.74	1771.49
651.93	1701.86
652.12	1742.82
652.31	1675.24
652.49	1722.34
652.68	1689.57
652.87	1769.44
653.06	1734.63
653.25	1791.97
653.44	1607.66
653.62	1773.54
653.81	1660.90
654.00	1767.40
654.19	1701.86
654.38	1855.46
654.56	1785.83
654.75	1667.05
654.94	1703.91
655.13	1757.16
655.32	1755.11
655.51	1757.16
655.69	1630.18
655.88	1757.16
656.07	1677.29
656.26	1789.92
656.45	1656.81
656.63	1681.38
656.82	1763.30
657.01	1765.35
657.20	1658.85
657.38	1703.91
657.57	1675.24
657.76	1683.43
657.95	1808.36
658.14	1679.33
658.32	1644.52
658.51	1648.61
658.70	1695.72
658.89	1697.77
659.08	1701.86
659.26	1757.16
659.45	1695.72
659.64	1710.05
659.83	1644.52
660.01	1947.62
660.20	1738.73
660.39	1730.53
660.58	1564.65
660.76	1796.07
660.95	1738.73
661.14	1728.49
661.33	1652.71
661.51	1669.09
661.70	1677.29
661.89	1732.58
662.08	1705.96
662.26	1726.44
662.45	1677.29
662.64	1742.82
662.83	1761.25
663.01	1613.80
663.20	1798.12
663.39	1775.59
663.58	1650.66
663.76	1759.21
663.95	1654.76
664.14	1728.49
664.32	1701.86
664.51	1693.67
664.70	1601.51
664.89	1744.87
665.07	1646.57
665.26	1783.78
665.45	1679.33
665.64	1785.83
665.82	1757.16
666.01	1769.44
666.20	1669.09
666.38	1820.64
666.57	1716.20
666.76	2201.57
666.95	4556.73
667.13	10637.15
667.32	15210.26
667.51	17809.14
667.69	19406.55
667.88	17749.75
668.07	12365.64
668.25	9586.54
668.44	8138.63
668.63	7294.86
668.81	6827.93
669.00	6219.68
669.19	5795.75
669.38	5060.53
669.56	4695.99
669.75	3999.68
669.94	3495.88
670.12	2967.51
670.31	2529.24
670.50	2306.01
670.68	2017.25
670.87	1908.71
671.06	1908.71
671.24	1791.97
671.43	1822.69
671.62	1716.20
671.80	1730.53
671.99	1736.68
672.18	1740.77
672.36	1777.64
672.55	1681.38
672.74	1675.24
672.92	1736.68
673.11	1648.61
673.29	1626.09
673.48	1837.03
673.67	1699.81
673.85	1802.21
674.04	1685.48
674.23	1757.16
674.41	1816.55
674.60	1730.53
674.79	1619.94
674.97	1656.81
675.16	1726.44
675.34	1701.86
675.53	1654.76
675.72	1757.16
675.90	1892.32
676.09	1753.06
676.28	1697.77
676.46	1587.18
676.65	1703.91
676.83	1658.85
677.02	1687.53
677.21	1724.39
677.39	1652.71
677.58	1665.00
677.77	1693.67
677.95	1642.47
678.14	1679.33
678.32	1683.43
678.51	1730.53
678.70	1849.32
678.88	1689.57
679.07	1716.20
679.25	1695.72
679.44	1691.62
679.63	1652.71
679.81	1671.14
680.00	1791.97
680.18	1769.44
680.37	1855.46
680.55	1693.67
680.74	1673.19
680.93	1648.61
681.11	1656.81
681.30	1699.81
681.48	1746.92
681.67	1673.19
681.85	1697.77
682.04	1697.77
682.23	1679.33
682.41	1644.52
682.60	1665.00
682.78	1701.86
682.97	1722.34
683.15	1746.92
683.34	1773.54
683.53	1804.26
683.71	1556.46
683.90	1806.31
684.08	1867.75
684.27	1708.01
684.45	1773.54
684.64	1763.30
684.82	1734.63
685.01	1693.67
685.19	1714.15
685.38	1755.11
685.57	1781.73
685.75	1714.15
685.94	1720.29
686.12	1683.43
686.31	1652.71
686.49	1824.74
686.68	1646.57
686.86	1689.57
687.05	1728.49
687.23	1839.08
687.42	1644.52
687.60	1675.24
687.79	1767.40
687.97	1748.97
688.16	1757.16
688.34	1806.31
688.53	1640.42
688.71	1779.68
688.90	1746.92
689.08	1771.49
689.27	1683.43
689.45	1732.58
689.64	1755.11
689.82	1689.57
690.01	1691.62
690.19	1605.61
690.38	1708.01
690.56	1834.98
690.75	1705.96
690.93	1734.63
691.12	1671.14
691.30	1656.81
691.49	1656.81
691.67	1763.30
691.86	1734.63
692.04	1597.42
692.23	1742.82
692.41	1634.28
692.60	1859.56
692.78	1783.78
692.97	1648.61
693.15	1796.07
693.34	1857.51
693.52	1802.21
693.71	1671.14
693.89	1685.48
694.08	1613.80
694.26	1804.26
694.44	1685.48
694.63	1763.30
694.81	1703.91
695.00	1677.29
695.18	1775.59
695.37	1804.26
695.55	1734.63
695.74	1712.10
695.92	1662.95
696.10	1812.45
696.29	1630.18
696.47	1679.33
696.66	1636.33
696.84	1665.00
697.03	1701.86
697.21	1771.49
697.40	2252.77
697.58	1683.43
697.76	1738.73
697.95	1724.39
698.13	1642.47
698.32	1671.14
698.50	1673.19
698.68	1779.68
698.87	1705.96
699.05	1779.68
699.24	1683.43
699.42	1671.14
699.61	1703.91
699.79	1796.07
699.97	1701.86
700.16	1591.27
700.34	1644.52
700.53	1734.63
700.71	1796.07
700.89	1830.88
701.08	1714.15
701.26	1708.01
701.45	2072.54
701.63	1603.56
701.81	1691.62
702.00	1712.10
702.18	1646.57
702.37	1710.05
702.55	1660.90
702.73	1755.11
702.92	1665.00
703.10	1714.15
703.28	1669.09
703.47	1708.01
703.65	1800.16
703.84	1701.86
704.02	1742.82
704.20	1791.97
704.39	1677.29
704.57	1677.29
704.75	1712.10
704.94	1712.10
705.12	1654.76
705.30	1699.81
705.49	2316.25
705.67	4421.56
705.86	9504.62
706.04	12617.54
706.22	14493.47
706.41	15558.42
706.59	14012.20
706.77	9656.17
706.96	7425.93
707.14	6598.56
707.32	5975.97
707.51	5580.71
707.69	5038.00
707.87	4280.25
708.06	3502.03
708.24	2992.08
708.42	2478.04
708.61	2228.19
708.79	1896.42
708.97	1822.69
709.16	1816.55
709.34	1783.78
709.52	1712.10
709.71	1744.87
709.89	1765.35
710.07	1619.94
710.26	1697.77
710.44	1728.49
710.62	1738.73
710.80	1689.57
710.99	1777.64
711.17	1734.63
711.35	1675.24
711.54	1685.48
711.72	1773.54
711.90	1812.45
712.09	1746.92
712.27	1675.24
712.45	1740.77
712.63	1644.52
712.82	1705.96
713.00	1734.63
713.18	1767.40
713.37	1681.38
713.55	1736.68
713.73	1718.25
713.91	1779.68
714.10	1630.18
714.28	1720.29
714.46	1748.97
714.65	1720.29
714.83	1722.34
715.01	1693.67
715.19	1724.39
715.38	1615.85
715.56	1787.88
715.74	1746.92
715.92	1689.57
716.11	1818.60
716.29	1648.61
716.47	1679.33
716.65	1722.34
716.84	1603.56
717.02	1736.68
717.20	1650.66
717.38	1652.71
717.57	1722.34
717.75	1691.62
717.93	1703.91
718.11	1714.15
718.30	1568.74
718.48	1755.11
718.66	1767.40
718.84	1751.01
719.03	1636.33
719.21	1591.27
719.39	1814.50
719.57	1705.96
719.75	1789.92
719.94	1732.58
720.12	1619.94
720.30	1671.14
720.48	1771.49
720.67	1712.10
720.85	1679.33
721.03	1693.67
721.21	1648.61
721.39	1757.16
721.58	1677.29
721.76	1689.57
721.94	1691.62
722.12	1687.53
722.30	1798.12
722.49	1730.53
722.67	1712.10
722.85	1701.86
723.03	1640.42
723.21	1640.42
723.40	1675.24
723.58	1697.77
723.76	1648.61
723.94	1724.39
724.12	1701.86
724.30	1753.06
724.49	1751.01
724.67	1677.29
724.85	1787.88
725.03	1658.85
725.21	1708.01
725.40	1693.67
725.58	1667.05
725.76	1837.03
725.94	1779.68
726.12	1652.71
726.30	1714.15
726.49	1695.72
726.67	1677.29
726.85	1796.07
727.03	1789.92
727.21	2144.22
727.39	2910.16
727.57	3846.09
727.76	4313.02
727.94	4499.39
728.12	4310.97
728.30	3618.76
728.48	2889.68
728.66	2740.18
728.84	2615.26
729.03	2334.68
729.21	2084.83
729.39	2043.87
729.57	1855.46
729.75	1841.12
729.93	1767.40
730.11	1708.01
730.30	1662.95
730.48	1753.06
730.66	1779.68
730.84	1742.82
731.02	1701.86
731.20	1644.52
731.38	1730.53
731.56	1585.13
731.74	1640.42
731.93	1685.48
732.11	1757.16
732.29	1705.96
732.47	1773.54
732.65	1624.04
732.83	1808.36
733.01	1785.83
733.19	1722.34
733.37	1708.01
733.56	1730.53
733.74	1669.09
733.92	1853.41
734.10	1769.44
734.28	1716.20
734.46	1695.72
734.64	1644.52
734.82	1665.00
735.00	1685.48
735.18	1673.19
735.36	1665.00
735.54	1742.82
735.73	1712.10
735.91	1734.63
736.09	1767.40
736.27	1746.92
736.45	1722.34
736.63	1626.09
736.81	1665.00
736.99	1763.30
737.17	1689.57
737.35	1736.68
737.53	1726.44
737.71	1748.97
737.89	1726.44
738.07	1624.04
738.25	1595.37
738.43	1660.90
738.61	1744.87
738.80	1593.32
738.98	1712.10
739.16	1644.52
739.34	1650.66
739.52	1771.49
739.70	1753.06
739.88	1734.63
740.06	1693.67
740.24	1607.66
740.42	1687.53
740.60	1611.75
740.78	1671.14
740.96	1640.42
741.14	1679.33
741.32	1714.15
741.50	1638.38
741.68	1808.36
741.86	1753.06
742.04	1546.22
742.22	1697.77
742.40	1703.91
742.58	1738.73
742.76	1652.71
742.94	1773.54
743.12	1533.93
743.30	1656.81
743.48	1746.92
743.66	1617.90
743.84	1699.81
744.02	1665.00
744.20	1712.10
744.38	1615.85
744.56	1626.09
744.74	1808.36
744.92	1722.34
745.10	1757.16
745.28	1728.49
745.46	1714.15
745.64	1710.05
745.82	1814.50
746.00	1728.49
746.18	1720.29
746.36	1685.48
746.54	1744.87
746.72	1714.15
746.90	1695.72
747.08	1771.49
747.26	1689.57
747.44	1746.92
747.62	1632.23
747.80	1687.53
747.98	1746.92
748.15	1703.91
748.33	1814.50
748.51	1662.95
748.69	1710.05
748.87	1632.23
749.05	1693.67
749.23	1673.19
749.41	1730.53
749.59	1691.62
749.77	1767.40
749.95	1701.86
750.13	1677.29
750.31	1783.78
750.49	1689.57
750.67	1763.30
750.85	1683.43
751.03	1665.00
751.20	1839.08
751.38	1830.88
751.56	1705.96
751.74	1722.34
751.92	1675.24
752.10	1642.47
752.28	1787.88
752.46	1708.01
752.64	1656.81
752.82	1695.72
753.00	1808.36
753.18	1701.86
753.35	1716.20
753.53	1714.15
753.71	1710.05
753.89	1724.39
754.07	1736.68
754.25	1791.97
754.43	1671.14
754.61	1673.19
754.79	1724.39
754.97	1683.43
755.14	1834.98
755.32	1726.44
755.50	1705.96
755.68	1677.29
755.86	1689.57
756.04	1724.39
756.22	1626.09
756.40	1705.96
756.57	1832.93
756.75	1673.19
756.93	1781.73
757.11	1742.82
757.29	1634.28
757.47	1677.29
757.65	1658.85
757.82	1603.56
758.00	1640.42
758.18	1599.46
758.36	1693.67
758.54	1832.93
758.72	1636.33
758.90	1822.69
759.07	1718.25
759.25	1626.09
759.43	1705.96
759.61	1609.70
759.79	2146.27
759.97	1722.34
760.15	1648.61
760.32	1705.96
760.50	1736.68
760.68	1816.55
760.86	1640.42
761.04	1769.44
761.22	1720.29
761.39	1773.54
761.57	1730.53
761.75	1718.25
761.93	1781.73
762.11	1654.76
762.28	1736.68
762.46	1619.94
762.64	1720.29
762.82	1638.38
763.00	1669.09
763.18	1722.34
763.35	1566.70
763.53	1701.86
763.71	1665.00
763.89	1667.05
764.07	1734.63
764.24	1724.39
764.42	1796.07
764.60	1636.33
764.78	1734.63
764.96	1755.11
765.13	1744.87
765.31	1722.34
765.49	1824.74
765.67	1605.61
765.84	1701.86
766.02	1697.77
766.20	1605.61
766.38	1718.25
766.56	1798.12
766.73	1759.21
766.91	1679.33
767.09	1755.11
767.27	1736.68
767.44	1683.43
767.62	1654.76
767.80	1656.81
767.98	1687.53
768.15	1763.30
768.33	1687.53
768.51	1781.73
768.69	1703.91
768.87	1710.05
769.04	1669.09
769.22	1818.60
769.40	1820.64
769.58	1785.83
769.75	1660.90
769.93	1757.16
770.11	1685.48
770.28	1640.42
770.46	1701.86
770.64	1617.90
770.82	1699.81
770.99	1662.95
771.17	1730.53
771.35	1722.34
771.53	1761.25
771.70	1652.71
771.88	1681.38
772.06	1736.68
772.23	1658.85
772.41	1718.25
772.59	1673.19
772.77	1621.99
772.94	1699.81
773.12	1773.54
773.30	1697.77
773.47	1730.53
773.65	1728.49
773.83	1787.88
774.01	1665.00
774.18	1648.61
774.36	1687.53
774.54	1656.81
774.71	1794.02
774.89	1673.19
775.07	1697.77
775.24	1665.00
775.42	1683.43
775.60	1826.79
775.78	1640.42
775.95	1648.61
776.13	1638.38
776.31	1609.70
776.48	1742.82
776.66	1763.30
776.84	1673.19
777.01	1634.28
777.19	1624.04
777.37	1648.61
777.54	1796.07
777.72	1779.68
777.90	1718.25
778.07	1742.82
778.25	1966.05
778.43	1683.43
778.60	1640.42
778.78	1718.25
778.96	1759.21
779.13	1613.80
779.31	1785.83
779.49	1691.62
779.66	1695.72
779.84	1697.77
780.01	1648.61
780.19	1597.42
780.37	1726.44
780.54	1716.20
780.72	1667.05
780.90	1640.42
781.07	1742.82
781.25	1671.14
781.43	1810.40
781.60	1687.53
781.78	1695.72
781.95	1714.15
782.13	1685.48
782.31	1714.15
782.48	1640.42
782.66	1656.81
782.83	1777.64
783.01	1732.58
783.19	1761.25
783.36	1716.20
783.54	1658.85
783.72	1732.58
783.89	1673.19
784.07	1693.67
784.24	1628.14
784.42	1759.21
784.60	1658.85
784.77	1689.57
784.95	1628.14
785.12	1624.04
785.30	1732.58
785.47	1636.33
785.65	1665.00
785.83	1671.14
786.00	1710.05
786.18	1705.96
786.35	1656.81
786.53	1648.61
786.71	1705.96
786.88	1689.57
787.06	1683.43
787.23	1732.58
787.41	1619.94
787.58	1703.91
787.76	1701.86
787.94	1755.11
788.11	1724.39
788.29	1624.04
788.46	1718.25
788.64	1599.46
788.81	1716.20
788.99	1646.57
789.16	1636.33
789.34	1656.81
789.52	1593.32
789.69	1662.95
789.87	1581.03
790.04	1671.14
790.22	1691.62
790.39	1877.99
790.57	1650.66
790.74	1736.68
790.92	1734.63
791.09	1611.75
791.27	1773.54
791.44	1775.59
791.62	1726.44
791.79	1705.96
791.97	1705.96
792.15	1861.60
792.32	1814.50
792.50	1708.01
792.67	1755.11
792.85	1683.43
793.02	1775.59
793.20	1697.77
793.37	1593.32
793.55	1665.00
793.72	1613.80
793.90	1738.73
794.07	1656.81
794.25	1632.23
794.42	1660.90
794.60	1732.58
794.77	1746.92
794.95	1773.54
795.12	1691.62
795.30	1681.38
795.47	1685.48
795.65	1857.51
795.82	1748.97
796.00	1724.39
796.17	1708.01
796.34	1669.09
796.52	1656.81
796.69	1773.54
796.87	1687.53
797.04	1703.91
797.22	1701.86
797.39	1687.53
797.57	1701.86
797.74	1671.14
797.92	1728.49
798.09	1701.86
798.27	1761.25
798.44	1744.87
798.62	1671.14
798.79	1716.20
798.96	1726.44
799.14	1648.61
799.31	1798.12
799.49	1677.29
799.66	1734.63
799.84	1703.91
800.01	1613.80
800.19	1742.82
800.36	1683.43
800.53	1712.10
800.71	1669.09
800.88	1796.07
801.06	1726.44
801.23	1681.38
801.41	1677.29
801.58	1632.23
801.75	1687.53
801.93	1693.67
802.10	1722.34
802.28	1740.77
802.45	1722.34
802.63	1734.63
802.80	1783.78
802.97	1654.76
803.15	1693.67
803.32	1558.50
803.50	1685.48
803.67	1630.18
803.84	1722.34
804.02	1656.81
804.19	1738.73
804.37	1626.09
804.54	1615.85
804.71	1710.05
804.89	1667.05
805.06	1603.56
805.24	1597.42
805.41	1710.05
805.58	1656.81
805.76	1865.70
805.93	1683.43
806.10	1820.64
806.28	1742.82
806.45	1669.09
806.63	1673.19
806.80	1808.36
806.97	1691.62
807.15	1701.86
807.32	1732.58
807.49	1656.81
807.67	1597.42
807.84	1691.62
808.01	1613.80
808.19	1861.60
808.36	1781.73
808.54	1671.14
808.71	1638.38
808.88	1716.20
809.06	1710.05
809.23	1779.68
809.40	1638.38
809.58	1775.59
809.75	1667.05
809.92	1621.99
810.10	1847.27
810.27	1665.00
810.44	1673.19
810.62	1734.63
810.79	1765.35
810.96	1595.37
811.14	1587.18
811.31	1689.57
811.48	1740.77
811.66	1763.30
811.83	1759.21
812.00	1738.73
812.18	1726.44
812.35	1880.04
812.52	1722.34
812.69	1734.63
812.87	1697.77
813.04	1652.71
813.21	1685.48
813.39	1595.37
813.56	1642.47
813.73	1744.87
813.91	1570.79
814.08	1771.49
814.25	1685.48
814.42	1656.81
814.60	1738.73
814.77	1738.73
814.94	1722.34
815.12	1665.00
815.29	1714.15
815.46	1611.75
815.63	1667.05
815.81	1667.05
815.98	1671.14
816.15	1728.49
816.33	1716.20
816.50	1650.66
816.67	1714.15
816.84	1722.34
817.02	1652.71
817.19	1654.76
817.36	1701.86
817.53	1708.01
817.71	1677.29
817.88	1720.29
818.05	1619.94
818.22	1650.66
818.40	1814.50
818.57	1691.62
818.74	1699.81
818.91	1642.47
819.09	1710.05
819.26	1751.01
819.43	1634.28
819.60	1585.13
819.78	1783.78
819.95	1810.40
820.12	1675.24
820.29	1794.02
820.47	1744.87
820.64	1705.96
820.81	1685.48
820.98	1638.38
821.15	1744.87
821.33	1734.63
821.50	1576.94
821.67	1779.68
821.84	1621.99
822.02	1773.54
822.19	1800.16
822.36	1701.86
822.53	1691.62
822.70	1652.71
822.88	1630.18
823.05	1800.16
823.22	1716.20
823.39	1816.55
823.56	1632.23
823.74	1802.21
823.91	1642.47
824.08	1675.24
824.25	1640.42
824.42	1843.17
824.60	1628.14
824.77	1693.67
824.94	1617.90
825.11	1736.68
825.28	1615.85
825.45	1765.35
825.63	1722.34
825.80	1619.94
825.97	1728.49
826.14	1748.97
826.31	1591.27
826.48	1775.59
826.66	1665.00
826.83	1632.23
827.00	1638.38
827.17	1660.90
827.34	1624.04
827.51	1658.85
827.69	1660.90
827.86	1617.90
828.03	1714.15
828.20	1636.33
828.37	1724.39
828.54	1828.84
828.71	1646.57
828.89	1718.25
829.06	1730.53
829.23	1693.67
829.40	1673.19
829.57	1722.34
829.74	1783.78
829.91	1677.29
830.09	1632.23
830.26	1701.86
830.43	1779.68
830.60	1740.77
830.77	1650.66
830.94	1669.09
831.11	1736.68
831.28	1646.57
831.46	1787.88
831.63	1656.81
831.80	1718.25
831.97	1683.43
832.14	1710.05
832.31	1785.83
832.48	1744.87
832.65	1720.29
832.82	1683.43
832.99	1644.52
833.17	1595.37
833.34	1808.36
833.51	1757.16
833.68	1615.85
833.85	1812.45
834.02	1665.00
834.19	1708.01
834.36	1673.19
834.53	1699.81
834.70	1804.26
834.87	1681.38
835.04	1748.97
835.22	1759.21
835.39	1644.52
835.56	1617.90
835.73	1701.86
835.90	1800.16
836.07	1619.94
836.24	1783.78
836.41	1648.61
836.58	1621.99
836.75	1667.05
836.92	1736.68
837.09	1626.09
837.26	1744.87
837.43	1667.05
837.60	1701.86
837.77	1744.87
837.94	1708.01
838.12	1722.34
838.29	1675.24
838.46	1605.61
838.63	1624.04
838.80	1773.54
838.97	1699.81
839.14	1644.52
839.31	1701.86
839.48	1699.81
839.65	1636.33
839.82	1771.49
839.99	1744.87
840.16	1697.77
840.33	1632.23
840.50	1751.01
840.67	1654.76
840.84	1550.31
841.01	1751.01
841.18	1681.38
841.35	1720.29
841.52	1765.35
841.69	1791.97
841.86	1708.01
842.03	1724.39
842.20	1689.57
842.37	1777.64
842.54	1718.25
842.71	1685.48
842.88	1587.18
843.05	1722.34
843.22	1667.05
843.39	1634.28
843.56	1656.81
843.73	1728.49
843.90	1708.01
844.07	1748.97
844.24	1708.01
844.41	1683.43
844.58	1773.54
844.75	1716.20
844.92	1705.96
845.09	1628.14
845.26	1683.43
845.43	1665.00
845.60	1751.01
845.77	1748.97
845.94	1705.96
846.10	1695.72
846.27	1636.33
846.44	1662.95
846.61	1628.14
846.78	1656.81
846.95	1808.36
847.12	1687.53
847.29	1726.44
847.46	1679.33
847.63	1718.25
847.80	1734.63
847.97	1681.38
848.14	1808.36
848.31	1689.57
848.48	1665.00
848.65	1734.63
848.82	1734.63
848.98	1791.97
849.15	1753.06
849.32	1746.92
849.49	1693.67
849.66	1714.15
849.83	1689.57
850.00	1742.82
850.17	1806.31
850.34	1714.15
850.51	1621.99
850.68	1595.37
850.85	1816.55
851.01	1724.39
851.18	1777.64
851.35	1650.66
851.52	1726.44
851.69	1742.82
851.86	1654.76
852.03	1697.77
852.20	1722.34
852.37	1691.62
852.53	1597.42
852.70	1716.20
852.87	1705.96
853.04	1771.49
853.21	1689.57
853.38	1753.06
853.55	1841.12
853.72	1757.16
853.89	1744.87
854.05	1712.10
854.22	1601.51
854.39	1693.67
854.56	1722.34
854.73	1777.64
854.90	1771.49
855.07	1679.33
855.23	1697.77
855.40	1693.67
855.57	1689.57
855.74	1640.42
855.91	1851.36
856.08	1695.72
856.25	1691.62
856.41	1679.33
856.58	1636.33
856.75	1695.72
856.92	1662.95
857.09	1675.24
857.26	1591.27
857.42	1644.52
857.59	1794.02
857.76	1656.81
857.93	1689.57
858.10	1740.77
858.27	1646.57
858.43	1718.25
858.60	1615.85
858.77	1673.19
858.94	1619.94
859.11	1751.01
859.27	1705.96
859.44	1714.15
859.61	1787.88
859.78	1738.73
859.95	1708.01
860.12	1699.81
860.28	1755.11
860.45	1818.60
860.62	1654.76
860.79	1724.39
860.95	1697.77
861.12	1703.91
861.29	1611.75
861.46	1632.23
861.63	1714.15
861.79	1740.77
861.96	1669.09
862.13	1648.61
862.30	1789.92
862.47	1652.71
862.63	1658.85
862.80	1785.83
862.97	1742.82
863.14	1673.19
863.30	1720.29
863.47	1642.47
863.64	1853.41
863.81	1689.57
863.97	1679.33
864.14	1759.21
864.31	1736.68
864.48	1820.64
864.65	1703.91
864.81	1822.69
864.98	1705.96
865.15	1701.86
865.32	1773.54
865.48	1722.34
865.65	1753.06
865.82	1667.05
865.98	1615.85
866.15	1724.39
866.32	1687.53
866.49	1714.15
866.65	1744.87
866.82	1665.00
866.99	1671.14
867.16	1644.52
867.32	1671.14
867.49	1656.81
867.66	1708.01
867.83	1673.19
867.99	1611.75
868.16	1652.71
868.33	1656.81
868.49	1697.77
868.66	1648.61
868.83	1722.34
868.99	1634.28
869.16	1695.72
869.33	1742.82
869.50	1714.15
869.66	1691.62
869.83	1683.43
870.00	1699.81
870.16	1662.95
870.33	1607.66
870.50	1658.85
870.66	1755.11
870.83	1816.55
871.00	1712.10
871.17	1763.30
871.33	1791.97
871.50	1734.63
871.67	1632.23
871.83	1683.43
872.00	1880.04
872.17	1683.43
872.33	1718.25
872.50	1738.73
872.67	1642.47
872.83	1681.38
873.00	1734.63
873.17	1601.51
873.33	1634.28
873.50	1710.05
873.67	1658.85
873.83	1636.33
874.00	1599.46
874.16	1791.97
874.33	1642.47
874.50	1648.61
874.66	1746.92
874.83	1724.39
875.00	1738.73
875.16	1738.73
875.33	1734.63
875.50	1656.81
875.66	1675.24
875.83	1763.30
875.99	1751.01
876.16	1624.04
876.33	1665.00
876.49	1693.67
876.66	1671.14
876.83	1640.42
876.99	1619.94
877.16	1693.67
877.32	1716.20
877.49	1593.32
877.66	1695.72
877.82	1791.97
877.99	1703.91
878.15	1701.86
878.32	1751.01
878.49	1626.09
878.65	1693.67
878.82	1724.39
878.98	1650.66
879.15	1714.15
879.32	1730.53
879.48	1693.67
879.65	1779.68
879.81	1660.90
879.98	1660.90
880.15	1699.81
880.31	1740.77
880.48	1619.94
880.64	1691.62
880.81	1675.24
880.97	1804.26
881.14	1759.21
881.31	1724.39
881.47	1822.69
881.64	1720.29
881.80	1628.14
881.97	1703.91
882.13	1705.96
882.30	1689.57
882.47	1660.90
882.63	1681.38
882.80	1665.00
882.96	1599.46
883.13	1708.01
883.29	1652.71
883.46	1685.48
883.62	1794.02
883.79	1685.48
883.95	1751.01
884.12	1681.38
884.29	1771.49
884.45	1658.85
884.62	1744.87
884.78	1716.20
884.95	1800.16
885.11	1615.85
885.28	1714.15
885.44	1656.81
885.61	1658.85
885.77	1814.50
885.94	1716.20
886.10	1718.25
886.27	1642.47
886.43	1812.45
886.60	1703.91
886.76	1705.96
886.93	1669.09
887.09	1726.44
887.26	1695.72
887.42	1712.10
887.59	1712.10
887.75	1849.32
887.92	1757.16
888.08	1761.25
888.25	1771.49
888.41	1769.44
888.58	1679.33
888.74	1646.57
888.91	1669.09
>>>>>End Processed Spectral Data<<<<<
