SpectraSuite Data File
++++++++++++++++++++++++++++++++++++
Date: Mon Jun 06 15:01:57 CEST 2016
User: root
Dark Spectrum Present: No
Reference Spectrum Present: No
Number of Sampled Component Spectra: 1
Spectrometers: USB4C02835
Integration Time (usec): 100000 (USB4C02835)
Spectra Averaged: 1 (USB4C02835)
Boxcar Smoothing: 0 (USB4C02835)
Correct for Electrical Dark: No (USB4C02835)
Strobe/Lamp Enabled: No (USB4C02835)
Correct for Detector Non-linearity: No (USB4C02835)
Correct for Stray Light: No (USB4C02835)
Number of Pixels in Processed Spectrum: 3648
>>>>>Begin Processed Spectral Data<<<<<
177.47	1484.78
177.69	1484.78
177.91	1484.78
178.13	1466.35
178.36	1527.78
178.58	1652.71
178.80	1828.84
179.02	1656.81
179.24	1644.52
179.46	1744.87
179.68	1699.81
179.90	1669.09
180.13	1660.90
180.35	1628.14
180.57	1644.52
180.79	1738.73
181.01	1687.53
181.23	1714.15
181.45	1759.21
181.67	1683.43
181.90	1699.81
182.12	1609.70
182.34	1609.70
182.56	1683.43
182.78	1710.05
183.00	1734.63
183.22	1710.05
183.44	1574.89
183.66	1783.78
183.89	1841.12
184.11	1736.68
184.33	1769.44
184.55	1787.88
184.77	1728.49
184.99	1755.11
185.21	1757.16
185.43	1834.98
185.65	1677.29
185.87	1679.33
186.10	1783.78
186.32	1886.18
186.54	1744.87
186.76	1714.15
186.98	1746.92
187.20	1665.00
187.42	1699.81
187.64	1660.90
187.86	1712.10
188.08	1771.49
188.30	1669.09
188.52	1697.77
188.75	1767.40
188.97	1761.25
189.19	1642.47
189.41	1617.90
189.63	1683.43
189.85	1730.53
190.07	1595.37
190.29	1675.24
190.51	1755.11
190.73	1652.71
190.95	1751.01
191.17	1732.58
191.39	1648.61
191.61	1648.61
191.84	1660.90
192.06	1748.97
192.28	1665.00
192.50	1855.46
192.72	1654.76
192.94	1736.68
193.16	1675.24
193.38	1794.02
193.60	1642.47
193.82	1699.81
194.04	1765.35
194.26	1708.01
194.48	1787.88
194.70	1644.52
194.92	1695.72
195.14	1746.92
195.36	1628.14
195.58	1705.96
195.80	1671.14
196.02	1587.18
196.24	1675.24
196.46	1677.29
196.69	1734.63
196.91	1845.22
197.13	1650.66
197.35	1679.33
197.57	1748.97
197.79	1681.38
198.01	1742.82
198.23	1710.05
198.45	1699.81
198.67	1587.18
198.89	1681.38
199.11	1708.01
199.33	1667.05
199.55	1644.52
199.77	1763.30
199.99	1796.07
200.21	1673.19
200.43	1738.73
200.65	1632.23
200.87	1566.70
201.09	1724.39
201.31	1732.58
201.53	1683.43
201.75	1724.39
201.97	1667.05
202.19	1677.29
202.41	1724.39
202.63	1763.30
202.85	1828.84
203.07	1677.29
203.29	1777.64
203.51	1685.48
203.73	1712.10
203.95	1785.83
204.17	1681.38
204.39	1722.34
204.61	1767.40
204.83	1705.96
205.05	1656.81
205.27	1796.07
205.49	1777.64
205.71	1667.05
205.93	1621.99
206.15	1585.13
206.37	1720.29
206.59	1648.61
206.81	1615.85
207.03	1652.71
207.25	1599.46
207.47	1787.88
207.69	1689.57
207.91	1812.45
208.13	1779.68
208.34	1671.14
208.56	1638.38
208.78	1732.58
209.00	1621.99
209.22	1617.90
209.44	1656.81
209.66	1697.77
209.88	1720.29
210.10	1675.24
210.32	1576.94
210.54	1787.88
210.76	1658.85
210.98	1779.68
211.20	1550.31
211.42	1662.95
211.64	1794.02
211.86	1771.49
212.08	1755.11
212.30	1746.92
212.52	1746.92
212.74	1783.78
212.96	1695.72
213.17	1804.26
213.39	1789.92
213.61	1732.58
213.83	1628.14
214.05	1642.47
214.27	1748.97
214.49	1642.47
214.71	1685.48
214.93	1791.97
215.15	1662.95
215.37	1705.96
215.59	1488.87
215.81	1701.86
216.03	1718.25
216.24	1757.16
216.46	1703.91
216.68	1708.01
216.90	1777.64
217.12	1798.12
217.34	1679.33
217.56	1724.39
217.78	1740.77
218.00	1728.49
218.22	1667.05
218.44	1751.01
218.66	1708.01
218.87	1847.27
219.09	1697.77
219.31	1742.82
219.53	1679.33
219.75	1671.14
219.97	1654.76
220.19	1767.40
220.41	1660.90
220.63	1755.11
220.85	1658.85
221.06	1660.90
221.28	1740.77
221.50	1798.12
221.72	1734.63
221.94	1740.77
222.16	1703.91
222.38	1671.14
222.60	1710.05
222.82	1718.25
223.03	1701.86
223.25	1675.24
223.47	1779.68
223.69	1796.07
223.91	1716.20
224.13	1679.33
224.35	1701.86
224.57	1789.92
224.78	1732.58
225.00	1648.61
225.22	1712.10
225.44	1769.44
225.66	1853.41
225.88	1646.57
226.10	1744.87
226.32	1710.05
226.53	1759.21
226.75	1697.77
226.97	1689.57
227.19	1689.57
227.41	1630.18
227.63	1644.52
227.85	1662.95
228.06	1767.40
228.28	1763.30
228.50	1742.82
228.72	1699.81
228.94	1708.01
229.16	1560.55
229.37	1683.43
229.59	1720.29
229.81	1765.35
230.03	1722.34
230.25	1644.52
230.47	1611.75
230.69	1636.33
230.90	1744.87
231.12	1650.66
231.34	1722.34
231.56	1820.64
231.78	1644.52
232.00	1714.15
232.21	1748.97
232.43	1642.47
232.65	1593.32
232.87	1652.71
233.09	1660.90
233.30	1599.46
233.52	1734.63
233.74	1732.58
233.96	1650.66
234.18	1732.58
234.40	1738.73
234.61	1789.92
234.83	1591.27
235.05	1603.56
235.27	1812.45
235.49	1726.44
235.70	1708.01
235.92	1767.40
236.14	1705.96
236.36	1910.75
236.58	1695.72
236.79	1710.05
237.01	1658.85
237.23	1660.90
237.45	1781.73
237.67	1621.99
237.88	1734.63
238.10	1845.22
238.32	1695.72
238.54	1712.10
238.76	1730.53
238.97	1624.04
239.19	1636.33
239.41	1705.96
239.63	1759.21
239.85	1722.34
240.06	1673.19
240.28	1697.77
240.50	1722.34
240.72	1671.14
240.93	1679.33
241.15	1718.25
241.37	1671.14
241.59	1730.53
241.81	1732.58
242.02	1677.29
242.24	1765.35
242.46	1746.92
242.68	1648.61
242.89	1722.34
243.11	1738.73
243.33	1691.62
243.55	1681.38
243.76	1710.05
243.98	1665.00
244.20	1632.23
244.42	1703.91
244.64	1660.90
244.85	1669.09
245.07	1687.53
245.29	1769.44
245.51	1642.47
245.72	1726.44
245.94	1732.58
246.16	1724.39
246.38	1746.92
246.59	1599.46
246.81	1718.25
247.03	1730.53
247.24	1617.90
247.46	1722.34
247.68	1718.25
247.90	1656.81
248.11	1722.34
248.33	1679.33
248.55	1732.58
248.77	1722.34
248.98	1699.81
249.20	1832.93
249.42	1701.86
249.64	1771.49
249.85	1671.14
250.07	1660.90
250.29	1783.78
250.50	1763.30
250.72	1656.81
250.94	1710.05
251.16	1796.07
251.37	1791.97
251.59	1720.29
251.81	1779.68
252.02	1738.73
252.24	1677.29
252.46	1773.54
252.68	1640.42
252.89	1677.29
253.11	1648.61
253.33	1855.46
253.54	1771.49
253.76	1605.61
253.98	1638.38
254.20	1732.58
254.41	1599.46
254.63	1650.66
254.85	1564.65
255.06	1658.85
255.28	1804.26
255.50	1732.58
255.71	1619.94
255.93	1615.85
256.15	1689.57
256.36	1769.44
256.58	1652.71
256.80	1789.92
257.02	1683.43
257.23	1652.71
257.45	1609.70
257.67	1714.15
257.88	1693.67
258.10	1669.09
258.32	1751.01
258.53	1671.14
258.75	1804.26
258.97	1689.57
259.18	1781.73
259.40	1685.48
259.62	1804.26
259.83	1828.84
260.05	1673.19
260.27	1947.62
260.48	1701.86
260.70	1730.53
260.92	1755.11
261.13	1650.66
261.35	1777.64
261.57	1744.87
261.78	1595.37
262.00	1585.13
262.22	1767.40
262.43	1669.09
262.65	1695.72
262.86	1705.96
263.08	1796.07
263.30	1705.96
263.51	1630.18
263.73	1677.29
263.95	1763.30
264.16	1691.62
264.38	1640.42
264.60	1771.49
264.81	1685.48
265.03	1779.68
265.25	1771.49
265.46	1728.49
265.68	1736.68
265.89	1769.44
266.11	1576.94
266.33	1806.31
266.54	1689.57
266.76	1712.10
266.98	1714.15
267.19	1761.25
267.41	1773.54
267.62	1691.62
267.84	1624.04
268.06	1748.97
268.27	1763.30
268.49	1757.16
268.70	1787.88
268.92	1740.77
269.14	1558.50
269.35	1626.09
269.57	1611.75
269.79	1742.82
270.00	1748.97
270.22	1806.31
270.43	1648.61
270.65	1574.89
270.87	1734.63
271.08	1652.71
271.30	1730.53
271.51	1705.96
271.73	1718.25
271.95	1755.11
272.16	1681.38
272.38	1712.10
272.59	1808.36
272.81	1779.68
273.02	1736.68
273.24	1759.21
273.46	1779.68
273.67	1648.61
273.89	1665.00
274.10	1705.96
274.32	1767.40
274.54	1693.67
274.75	1671.14
274.97	1648.61
275.18	1726.44
275.40	1742.82
275.61	1611.75
275.83	1656.81
276.05	1626.09
276.26	1757.16
276.48	1699.81
276.69	1703.91
276.91	1720.29
277.12	1763.30
277.34	1728.49
277.55	1759.21
277.77	1718.25
277.99	1720.29
278.20	1703.91
278.42	1630.18
278.63	1638.38
278.85	1705.96
279.06	1689.57
279.28	1771.49
279.49	1748.97
279.71	1701.86
279.93	1652.71
280.14	1683.43
280.36	1697.77
280.57	1730.53
280.79	1742.82
281.00	1658.85
281.22	1714.15
281.43	1798.12
281.65	1581.03
281.86	1615.85
282.08	1644.52
282.29	1837.03
282.51	1578.98
282.73	1683.43
282.94	1607.66
283.16	1755.11
283.37	1824.74
283.59	1669.09
283.80	1607.66
284.02	1703.91
284.23	1726.44
284.45	1644.52
284.66	1615.85
284.88	1640.42
285.09	1695.72
285.31	1646.57
285.52	1748.97
285.74	1640.42
285.95	1791.97
286.17	1703.91
286.38	1732.58
286.60	1626.09
286.81	1677.29
287.03	1658.85
287.24	1705.96
287.46	1712.10
287.67	1669.09
287.89	1787.88
288.10	1693.67
288.32	1628.14
288.53	1818.60
288.75	1779.68
288.96	1705.96
289.18	1677.29
289.39	1710.05
289.61	1810.40
289.82	1834.98
290.04	1789.92
290.25	1683.43
290.47	1734.63
290.68	1630.18
290.90	1712.10
291.11	1683.43
291.33	1837.03
291.54	1609.70
291.76	1591.27
291.97	1675.24
292.18	1753.06
292.40	1705.96
292.61	1662.95
292.83	1847.27
293.04	1669.09
293.26	1728.49
293.47	1697.77
293.69	1619.94
293.90	1708.01
294.12	1808.36
294.33	1734.63
294.55	1697.77
294.76	1802.21
294.97	1783.78
295.19	1808.36
295.40	1667.05
295.62	1736.68
295.83	1828.84
296.05	1687.53
296.26	1722.34
296.48	1595.37
296.69	1673.19
296.90	1658.85
297.12	1796.07
297.33	1724.39
297.55	1736.68
297.76	1789.92
297.98	1771.49
298.19	1738.73
298.41	1658.85
298.62	1697.77
298.83	1839.08
299.05	1746.92
299.26	1767.40
299.48	1636.33
299.69	1753.06
299.90	1667.05
300.12	1626.09
300.33	1755.11
300.55	1712.10
300.76	1732.58
300.98	1632.23
301.19	1726.44
301.40	1673.19
301.62	1673.19
301.83	1824.74
302.05	1710.05
302.26	1656.81
302.47	1748.97
302.69	1619.94
302.90	1652.71
303.12	1669.09
303.33	1689.57
303.54	1796.07
303.76	1697.77
303.97	1740.77
304.19	1796.07
304.40	1683.43
304.61	1730.53
304.83	1775.59
305.04	1662.95
305.26	1705.96
305.47	1667.05
305.68	1689.57
305.90	1675.24
306.11	1800.16
306.33	1669.09
306.54	1669.09
306.75	1701.86
306.97	1646.57
307.18	1609.70
307.39	1619.94
307.61	1740.77
307.82	1581.03
308.04	1767.40
308.25	1636.33
308.46	1712.10
308.68	1705.96
308.89	1679.33
309.10	1806.31
309.32	1689.57
309.53	1673.19
309.74	1685.48
309.96	1673.19
310.17	1816.55
310.39	1673.19
310.60	1839.08
310.81	1736.68
311.03	1648.61
311.24	1779.68
311.45	1626.09
311.67	1781.73
311.88	1685.48
312.09	1703.91
312.31	1726.44
312.52	1705.96
312.73	1628.14
312.95	1642.47
313.16	1685.48
313.37	1779.68
313.59	1734.63
313.80	1744.87
314.01	1802.21
314.23	1708.01
314.44	1652.71
314.65	1642.47
314.87	1669.09
315.08	1781.73
315.29	1740.77
315.51	1669.09
315.72	1626.09
315.93	1761.25
316.15	1853.41
316.36	1722.34
316.57	1722.34
316.79	1673.19
317.00	1675.24
317.21	1740.77
317.43	1738.73
317.64	1730.53
317.85	1691.62
318.07	1624.04
318.28	1703.91
318.49	1751.01
318.70	1906.66
318.92	1826.79
319.13	1761.25
319.34	1849.32
319.56	1769.44
319.77	1705.96
319.98	1767.40
320.20	1769.44
320.41	1644.52
320.62	1751.01
320.83	1662.95
321.05	1826.79
321.26	1718.25
321.47	1687.53
321.69	1720.29
321.90	1634.28
322.11	1683.43
322.32	1644.52
322.54	1759.21
322.75	1642.47
322.96	1851.36
323.18	1615.85
323.39	1601.51
323.60	1650.66
323.81	1843.17
324.03	1697.77
324.24	1705.96
324.45	1708.01
324.66	1714.15
324.88	1755.11
325.09	1824.74
325.30	1748.97
325.52	1775.59
325.73	1705.96
325.94	1695.72
326.15	1636.33
326.37	1691.62
326.58	1775.59
326.79	1777.64
327.00	1687.53
327.22	1679.33
327.43	1656.81
327.64	1665.00
327.85	1748.97
328.07	1802.21
328.28	1818.60
328.49	1619.94
328.70	1736.68
328.92	1740.77
329.13	1701.86
329.34	1759.21
329.55	1773.54
329.76	1824.74
329.98	1738.73
330.19	1773.54
330.40	1748.97
330.61	1755.11
330.83	1759.21
331.04	1652.71
331.25	1665.00
331.46	1673.19
331.68	1632.23
331.89	1781.73
332.10	1691.62
332.31	1566.70
332.52	1804.26
332.74	1726.44
332.95	1628.14
333.16	1603.56
333.37	1769.44
333.58	1677.29
333.80	1648.61
334.01	1632.23
334.22	1712.10
334.43	1658.85
334.64	1646.57
334.86	1667.05
335.07	1726.44
335.28	1806.31
335.49	1542.12
335.70	1779.68
335.92	1804.26
336.13	1855.46
336.34	1728.49
336.55	1755.11
336.76	1808.36
336.98	1599.46
337.19	1685.48
337.40	1724.39
337.61	1845.22
337.82	1718.25
338.04	1765.35
338.25	1599.46
338.46	1730.53
338.67	1626.09
338.88	1630.18
339.09	1650.66
339.31	1679.33
339.52	1656.81
339.73	1656.81
339.94	1687.53
340.15	1705.96
340.36	1660.90
340.58	1669.09
340.79	1662.95
341.00	1742.82
341.21	1638.38
341.42	1738.73
341.63	1634.28
341.85	1763.30
342.06	1738.73
342.27	1601.51
342.48	1771.49
342.69	1681.38
342.90	1753.06
343.12	1728.49
343.33	1677.29
343.54	1726.44
343.75	1740.77
343.96	1691.62
344.17	1595.37
344.38	1611.75
344.60	1636.33
344.81	1609.70
345.02	1691.62
345.23	1744.87
345.44	1787.88
345.65	1744.87
345.86	1699.81
346.07	1748.97
346.29	1689.57
346.50	1710.05
346.71	1705.96
346.92	1763.30
347.13	1912.80
347.34	1681.38
347.55	1718.25
347.76	1761.25
347.98	1591.27
348.19	1693.67
348.40	1808.36
348.61	1699.81
348.82	1791.97
349.03	1736.68
349.24	1626.09
349.45	1753.06
349.66	1597.42
349.88	1681.38
350.09	1595.37
350.30	1761.25
350.51	1804.26
350.72	1671.14
350.93	1777.64
351.14	1662.95
351.35	1742.82
351.56	1630.18
351.77	1665.00
351.99	1722.34
352.20	1785.83
352.41	1724.39
352.62	1681.38
352.83	1714.15
353.04	1638.38
353.25	1652.71
353.46	1773.54
353.67	1714.15
353.88	1642.47
354.09	1638.38
354.30	1722.34
354.52	1648.61
354.73	1648.61
354.94	1626.09
355.15	1646.57
355.36	1736.68
355.57	1689.57
355.78	1763.30
355.99	1665.00
356.20	1607.66
356.41	1773.54
356.62	1660.90
356.83	1587.18
357.04	1779.68
357.25	1619.94
357.46	1621.99
357.68	1554.41
357.89	1679.33
358.10	1677.29
358.31	1669.09
358.52	1656.81
358.73	1687.53
358.94	1611.75
359.15	1695.72
359.36	1759.21
359.57	1603.56
359.78	1638.38
359.99	1773.54
360.20	1708.01
360.41	1712.10
360.62	1714.15
360.83	1726.44
361.04	1724.39
361.25	1695.72
361.46	1775.59
361.67	1673.19
361.88	1699.81
362.09	1744.87
362.30	1783.78
362.51	1679.33
362.72	1681.38
362.93	1775.59
363.14	1716.20
363.35	1720.29
363.56	1671.14
363.78	1744.87
363.99	1781.73
364.20	1650.66
364.41	1724.39
364.62	1839.08
364.83	1726.44
365.04	1703.91
365.25	1609.70
365.46	1791.97
365.67	1660.90
365.88	1636.33
366.09	1683.43
366.30	1697.77
366.51	1656.81
366.72	1621.99
366.93	1699.81
367.14	1705.96
367.35	1728.49
367.56	1724.39
367.77	1826.79
367.98	1689.57
368.18	1742.82
368.39	1687.53
368.60	1658.85
368.81	1753.06
369.02	1724.39
369.23	1728.49
369.44	1648.61
369.65	1615.85
369.86	1695.72
370.07	1669.09
370.28	1650.66
370.49	1689.57
370.70	1724.39
370.91	1540.07
371.12	1564.65
371.33	1761.25
371.54	1658.85
371.75	1716.20
371.96	1574.89
372.17	1660.90
372.38	1689.57
372.59	1783.78
372.80	1767.40
373.01	1732.58
373.22	1675.24
373.43	1658.85
373.64	1544.17
373.85	1703.91
374.06	1837.03
374.26	1646.57
374.47	1738.73
374.68	1718.25
374.89	1726.44
375.10	1673.19
375.31	1712.10
375.52	1691.62
375.73	1781.73
375.94	1640.42
376.15	1800.16
376.36	1632.23
376.57	1632.23
376.78	1671.14
376.99	1718.25
377.20	1763.30
377.40	1656.81
377.61	1849.32
377.82	1611.75
378.03	1730.53
378.24	1779.68
378.45	1628.14
378.66	1771.49
378.87	1701.86
379.08	1609.70
379.29	1781.73
379.50	1798.12
379.71	1742.82
379.91	1736.68
380.12	1714.15
380.33	1714.15
380.54	1751.01
380.75	1712.10
380.96	1673.19
381.17	1771.49
381.38	1673.19
381.59	1755.11
381.80	1765.35
382.00	1865.70
382.21	1738.73
382.42	1830.88
382.63	1884.13
382.84	1757.16
383.05	1724.39
383.26	1796.07
383.47	1740.77
383.68	1802.21
383.88	1740.77
384.09	1789.92
384.30	1759.21
384.51	1732.58
384.72	1681.38
384.93	1669.09
385.14	1714.15
385.35	1716.20
385.55	1726.44
385.76	1812.45
385.97	1689.57
386.18	1746.92
386.39	1691.62
386.60	1648.61
386.81	1654.76
387.02	1705.96
387.22	1634.28
387.43	1714.15
387.64	1765.35
387.85	1810.40
388.06	2174.94
388.27	4261.82
388.48	6535.07
388.68	8017.80
388.89	9365.36
389.10	9457.52
389.31	8324.99
389.52	7333.78
389.73	6533.02
389.93	6119.33
390.14	5629.87
390.35	5109.68
390.56	4489.15
390.77	3680.20
390.98	2957.27
391.18	2455.51
391.39	2076.64
391.60	1796.07
391.81	1845.22
392.02	1617.90
392.23	1828.84
392.43	1728.49
392.64	1800.16
392.85	1726.44
393.06	1769.44
393.27	1710.05
393.47	1746.92
393.68	1665.00
393.89	1687.53
394.10	1761.25
394.31	1619.94
394.52	1689.57
394.72	1640.42
394.93	1847.27
395.14	1632.23
395.35	1738.73
395.56	1710.05
395.76	1755.11
395.97	1773.54
396.18	1812.45
396.39	1796.07
396.60	2078.69
396.80	1875.94
397.01	1820.64
397.22	1877.99
397.43	1851.36
397.64	1665.00
397.84	1765.35
398.05	1880.04
398.26	1722.34
398.47	1716.20
398.67	1812.45
398.88	1701.86
399.09	1671.14
399.30	1728.49
399.51	1722.34
399.71	1732.58
399.92	1712.10
400.13	1730.53
400.34	1673.19
400.54	1689.57
400.75	1859.56
400.96	1771.49
401.17	1851.36
401.37	1757.16
401.58	1603.56
401.79	1683.43
402.00	1898.47
402.21	1966.05
402.41	1898.47
402.62	1968.10
402.83	2011.11
403.04	1964.00
403.24	2066.40
403.45	1822.69
403.66	1828.84
403.87	1900.52
404.07	1906.66
404.28	1884.13
404.49	1818.60
404.70	1824.74
404.90	1779.68
405.11	1841.12
405.32	1736.68
405.52	1677.29
405.73	1775.59
405.94	1685.48
406.15	1636.33
406.35	1806.31
406.56	1791.97
406.77	1673.19
406.98	1650.66
407.18	1648.61
407.39	1791.97
407.60	1689.57
407.80	1685.48
408.01	1710.05
408.22	1677.29
408.43	1714.15
408.63	1730.53
408.84	1773.54
409.05	1755.11
409.25	1695.72
409.46	1710.05
409.67	1679.33
409.88	1624.04
410.08	1716.20
410.29	1679.33
410.50	1734.63
410.70	1681.38
410.91	1597.42
411.12	1697.77
411.32	1714.15
411.53	1675.24
411.74	1779.68
411.95	1787.88
412.15	1789.92
412.36	1783.78
412.57	1720.29
412.77	1806.31
412.98	1697.77
413.19	1699.81
413.39	1767.40
413.60	1791.97
413.81	1730.53
414.01	1611.75
414.22	1673.19
414.43	1689.57
414.63	1755.11
414.84	1791.97
415.05	1789.92
415.25	1761.25
415.46	1730.53
415.67	1677.29
415.87	1734.63
416.08	1781.73
416.29	1632.23
416.49	1773.54
416.70	1638.38
416.91	1669.09
417.11	1652.71
417.32	1716.20
417.53	1734.63
417.73	1710.05
417.94	1695.72
418.15	1738.73
418.35	1730.53
418.56	1783.78
418.77	1818.60
418.97	1734.63
419.18	1634.28
419.38	1609.70
419.59	1656.81
419.80	1798.12
420.00	1675.24
420.21	1724.39
420.42	1734.63
420.62	1746.92
420.83	1632.23
421.04	1689.57
421.24	1642.47
421.45	1759.21
421.65	1775.59
421.86	1697.77
422.07	1746.92
422.27	1783.78
422.48	1796.07
422.69	1619.94
422.89	1679.33
423.10	1597.42
423.30	1607.66
423.51	1732.58
423.72	1744.87
423.92	1757.16
424.13	1593.32
424.33	1697.77
424.54	1716.20
424.75	1740.77
424.95	1798.12
425.16	1685.48
425.36	1673.19
425.57	1742.82
425.78	1720.29
425.98	1685.48
426.19	1581.03
426.39	1656.81
426.60	1705.96
426.81	1845.22
427.01	1648.61
427.22	1624.04
427.42	1628.14
427.63	1624.04
427.83	1742.82
428.04	1789.92
428.25	1763.30
428.45	1753.06
428.66	1812.45
428.86	1726.44
429.07	1693.67
429.28	1691.62
429.48	1656.81
429.69	1677.29
429.89	1753.06
430.10	1660.90
430.30	1759.21
430.51	1742.82
430.71	1687.53
430.92	1640.42
431.13	1648.61
431.33	1804.26
431.54	1775.59
431.74	1773.54
431.95	1781.73
432.15	1654.76
432.36	1665.00
432.56	1751.01
432.77	1796.07
432.98	1832.93
433.18	1806.31
433.39	1771.49
433.59	1679.33
433.80	1865.70
434.00	1810.40
434.21	1632.23
434.41	1652.71
434.62	1865.70
434.82	1589.22
435.03	1609.70
435.23	1630.18
435.44	1535.98
435.64	1720.29
435.85	1798.12
436.06	1775.59
436.26	1796.07
436.47	1708.01
436.67	1714.15
436.88	1718.25
437.08	1779.68
437.29	1806.31
437.49	1742.82
437.70	1820.64
437.90	1650.66
438.11	1839.08
438.31	1761.25
438.52	1857.51
438.72	1748.97
438.93	1890.28
439.13	1820.64
439.34	1826.79
439.54	1796.07
439.75	1740.77
439.95	1757.16
440.16	1697.77
440.36	1755.11
440.57	1779.68
440.77	1701.86
440.98	1755.11
441.18	1730.53
441.39	1730.53
441.59	1703.91
441.80	1742.82
442.00	1746.92
442.21	1875.94
442.41	1679.33
442.62	1806.31
442.82	1724.39
443.02	1759.21
443.23	1656.81
443.43	1726.44
443.64	1839.08
443.84	1646.57
444.05	1804.26
444.25	1695.72
444.46	1736.68
444.66	1695.72
444.87	1843.17
445.07	1621.99
445.28	1724.39
445.48	1800.16
445.69	1757.16
445.89	1810.40
446.09	1787.88
446.30	1990.63
446.50	2525.15
446.71	3655.62
446.91	4216.77
447.12	4704.18
447.32	4782.01
447.53	4147.14
447.73	3803.08
447.93	3463.12
448.14	3157.97
448.34	3168.21
448.55	2901.97
448.75	2772.95
448.96	2754.52
449.16	2359.26
449.36	2201.57
449.57	2013.15
449.77	1898.47
449.98	1705.96
450.18	1804.26
450.39	1873.89
450.59	1771.49
450.79	1716.20
451.00	1738.73
451.20	1730.53
451.41	1800.16
451.61	1734.63
451.81	1755.11
452.02	1646.57
452.22	1751.01
452.43	1705.96
452.63	1691.62
452.84	1714.15
453.04	1748.97
453.24	1771.49
453.45	1632.23
453.65	1705.96
453.86	1748.97
454.06	1720.29
454.26	1738.73
454.47	1730.53
454.67	1847.27
454.87	1742.82
455.08	1660.90
455.28	1755.11
455.49	1730.53
455.69	1669.09
455.89	1931.23
456.10	1888.23
456.30	1716.20
456.51	1748.97
456.71	1794.02
456.91	1763.30
457.12	1703.91
457.32	1724.39
457.52	1730.53
457.73	1751.01
457.93	1744.87
458.14	1687.53
458.34	1720.29
458.54	1724.39
458.75	1685.48
458.95	1757.16
459.15	1837.03
459.36	1718.25
459.56	1769.44
459.76	1798.12
459.97	1730.53
460.17	1742.82
460.37	1789.92
460.58	1751.01
460.78	1755.11
460.99	1640.42
461.19	1773.54
461.39	1724.39
461.60	1775.59
461.80	1746.92
462.00	1621.99
462.21	1730.53
462.41	1691.62
462.61	1628.14
462.82	1650.66
463.02	1722.34
463.22	1765.35
463.43	1845.22
463.63	1740.77
463.83	1859.56
464.04	1695.72
464.24	1732.58
464.44	1697.77
464.64	1697.77
464.85	1796.07
465.05	1818.60
465.25	1699.81
465.46	1712.10
465.66	1636.33
465.86	1816.55
466.07	1609.70
466.27	1716.20
466.47	1624.04
466.68	1665.00
466.88	1826.79
467.08	1746.92
467.29	1785.83
467.49	1759.21
467.69	1781.73
467.89	1728.49
468.10	1703.91
468.30	1767.40
468.50	1720.29
468.71	1808.36
468.91	1667.05
469.11	1775.59
469.31	1728.49
469.52	1730.53
469.72	1818.60
469.92	1865.70
470.13	1710.05
470.33	1714.15
470.53	1859.56
470.73	2185.18
470.94	2256.86
471.14	2381.79
471.34	2539.48
471.54	2430.94
471.75	2205.66
471.95	2125.79
472.15	2056.16
472.36	2142.18
472.56	2103.26
472.76	2009.06
472.96	1966.05
473.17	1943.52
473.37	1755.11
473.57	1779.68
473.77	1832.93
473.98	1812.45
474.18	1720.29
474.38	1951.71
474.58	1759.21
474.79	1673.19
474.99	1751.01
475.19	1810.40
475.39	1677.29
475.60	1765.35
475.80	1771.49
476.00	1734.63
476.20	1693.67
476.41	1732.58
476.61	1880.04
476.81	1818.60
477.01	1691.62
477.21	1898.47
477.42	1834.98
477.62	1630.18
477.82	1726.44
478.02	1716.20
478.23	1683.43
478.43	1607.66
478.63	1759.21
478.83	1712.10
479.03	1757.16
479.24	1777.64
479.44	1791.97
479.64	1607.66
479.84	1646.57
480.04	1650.66
480.25	1751.01
480.45	1650.66
480.65	1665.00
480.85	1810.40
481.06	1726.44
481.26	1691.62
481.46	1669.09
481.66	1730.53
481.86	1689.57
482.06	1761.25
482.27	1763.30
482.47	1699.81
482.67	1675.24
482.87	1730.53
483.07	1767.40
483.28	1724.39
483.48	1636.33
483.68	1703.91
483.88	1732.58
484.08	1636.33
484.29	1644.52
484.49	1671.14
484.69	1689.57
484.89	1714.15
485.09	1789.92
485.29	1689.57
485.50	1751.01
485.70	1697.77
485.90	1847.27
486.10	1796.07
486.30	1783.78
486.50	1689.57
486.71	1771.49
486.91	1665.00
487.11	1822.69
487.31	1681.38
487.51	1806.31
487.71	1636.33
487.91	1662.95
488.12	1585.13
488.32	1583.08
488.52	1677.29
488.72	1621.99
488.92	1730.53
489.12	1763.30
489.32	1773.54
489.53	1791.97
489.73	1646.57
489.93	1804.26
490.13	1718.25
490.33	1656.81
490.53	1710.05
490.73	1820.64
490.94	1644.52
491.14	1826.79
491.34	1863.65
491.54	2090.98
491.74	2570.20
491.94	2869.20
492.14	2926.55
492.34	2940.88
492.54	2705.37
492.75	2398.17
492.95	2383.84
493.15	2392.03
493.35	2213.85
493.55	2254.81
493.75	2197.47
493.95	2072.54
494.15	1984.48
494.35	1880.04
494.56	1808.36
494.76	1783.78
494.96	1888.23
495.16	1736.68
495.36	1699.81
495.56	1720.29
495.76	1685.48
495.96	1732.58
496.16	1740.77
496.36	1880.04
496.56	1619.94
496.77	1689.57
496.97	1636.33
497.17	1775.59
497.37	1605.61
497.57	1787.88
497.77	1654.76
497.97	1671.14
498.17	1697.77
498.37	1697.77
498.57	1789.92
498.77	1660.90
498.97	1740.77
499.17	1871.84
499.38	1746.92
499.58	1769.44
499.78	1843.17
499.98	1822.69
500.18	1726.44
500.38	1675.24
500.58	1834.98
500.78	2564.06
500.98	4384.70
501.18	5820.33
501.38	6444.96
501.58	6864.79
501.78	6440.86
501.98	5306.29
502.18	4847.54
502.38	4319.17
502.58	4022.21
502.78	3723.21
502.98	3559.37
503.18	3487.69
503.38	3094.48
503.59	2838.48
503.79	2639.83
503.99	2463.71
504.19	2254.81
504.39	2156.51
504.59	2093.02
504.79	2099.17
504.99	2070.50
505.19	1914.85
505.39	1894.37
505.59	1986.53
505.79	1871.84
505.99	1841.12
506.19	1826.79
506.39	1855.46
506.59	1767.40
506.79	1765.35
506.99	1804.26
507.19	1738.73
507.39	1748.97
507.59	1710.05
507.79	1687.53
507.99	1703.91
508.19	1673.19
508.39	1677.29
508.59	1681.38
508.79	1839.08
508.99	1853.41
509.19	1738.73
509.39	1740.77
509.59	1703.91
509.79	1705.96
509.99	1681.38
510.19	1728.49
510.39	1736.68
510.59	1734.63
510.79	1736.68
510.99	1710.05
511.19	1716.20
511.39	1841.12
511.59	1771.49
511.79	1865.70
511.99	1736.68
512.19	1839.08
512.38	1695.72
512.58	1652.71
512.78	1843.17
512.98	1716.20
513.18	1806.31
513.38	1562.60
513.58	1787.88
513.78	1708.01
513.98	1669.09
514.18	1665.00
514.38	1769.44
514.58	1771.49
514.78	1685.48
514.98	1677.29
515.18	1726.44
515.38	1607.66
515.58	1869.80
515.78	1703.91
515.98	1703.91
516.18	1769.44
516.38	1794.02
516.57	1710.05
516.77	1757.16
516.97	1771.49
517.17	1601.51
517.37	1679.33
517.57	1802.21
517.77	1751.01
517.97	1681.38
518.17	1761.25
518.37	1718.25
518.57	1722.34
518.77	1742.82
518.97	1685.48
519.16	1732.58
519.36	1751.01
519.56	1609.70
519.76	1738.73
519.96	1685.48
520.16	1857.51
520.36	1673.19
520.56	1845.22
520.76	1683.43
520.96	1773.54
521.16	1742.82
521.35	1847.27
521.55	1734.63
521.75	1720.29
521.95	1718.25
522.15	1734.63
522.35	1710.05
522.55	1761.25
522.75	1798.12
522.95	1705.96
523.14	1740.77
523.34	1816.55
523.54	1642.47
523.74	1740.77
523.94	1785.83
524.14	1683.43
524.34	1773.54
524.54	1761.25
524.73	1685.48
524.93	1755.11
525.13	1771.49
525.33	1587.18
525.53	1964.00
525.73	1828.84
525.93	1693.67
526.13	1691.62
526.32	1693.67
526.52	1753.06
526.72	1771.49
526.92	1740.77
527.12	1687.53
527.32	1681.38
527.52	1763.30
527.71	1734.63
527.91	1742.82
528.11	1730.53
528.31	1728.49
528.51	1703.91
528.71	1757.16
528.90	1785.83
529.10	1841.12
529.30	1810.40
529.50	1619.94
529.70	1744.87
529.90	1789.92
530.09	1789.92
530.29	1642.47
530.49	1669.09
530.69	1927.14
530.89	1744.87
531.09	1810.40
531.28	1759.21
531.48	1810.40
531.68	1837.03
531.88	1740.77
532.08	1722.34
532.28	1660.90
532.47	1742.82
532.67	1867.75
532.87	1673.19
533.07	1699.81
533.27	1753.06
533.46	1740.77
533.66	1714.15
533.86	1660.90
534.06	1726.44
534.26	1810.40
534.45	1718.25
534.65	1697.77
534.85	1724.39
535.05	1722.34
535.25	1791.97
535.44	1697.77
535.64	1806.31
535.84	1699.81
536.04	1722.34
536.24	1640.42
536.43	1779.68
536.63	1701.86
536.83	1648.61
537.03	1771.49
537.22	1724.39
537.42	1626.09
537.62	1726.44
537.82	1662.95
538.02	1804.26
538.21	1777.64
538.41	1841.12
538.61	1789.92
538.81	1689.57
539.00	1751.01
539.20	1656.81
539.40	1726.44
539.60	1755.11
539.79	1724.39
539.99	1726.44
540.19	1757.16
540.39	1744.87
540.58	1812.45
540.78	1755.11
540.98	1779.68
541.18	1720.29
541.37	1826.79
541.57	1763.30
541.77	1740.77
541.97	1648.61
542.16	1669.09
542.36	1697.77
542.56	1732.58
542.76	1804.26
542.95	1783.78
543.15	1794.02
543.35	1814.50
543.54	1689.57
543.74	1656.81
543.94	1705.96
544.14	1714.15
544.33	1763.30
544.53	1757.16
544.73	1720.29
544.93	1699.81
545.12	1701.86
545.32	1742.82
545.52	1683.43
545.71	1689.57
545.91	1693.67
546.11	1673.19
546.30	1630.18
546.50	1675.24
546.70	1785.83
546.90	1722.34
547.09	1662.95
547.29	1767.40
547.49	1779.68
547.68	1681.38
547.88	1650.66
548.08	1705.96
548.27	2158.56
548.47	1689.57
548.67	1736.68
548.87	1841.12
549.06	1716.20
549.26	1652.71
549.46	1685.48
549.65	1714.15
549.85	1820.64
550.05	1757.16
550.24	1656.81
550.44	1775.59
550.64	1687.53
550.83	1732.58
551.03	1777.64
551.23	1775.59
551.42	1763.30
551.62	1689.57
551.82	1761.25
552.01	1830.88
552.21	1804.26
552.41	1720.29
552.60	1689.57
552.80	1791.97
553.00	1710.05
553.19	1740.77
553.39	1884.13
553.59	1716.20
553.78	1734.63
553.98	1742.82
554.17	1640.42
554.37	1730.53
554.57	1757.16
554.76	1619.94
554.96	1714.15
555.16	1724.39
555.35	1748.97
555.55	1689.57
555.75	1769.44
555.94	1785.83
556.14	1648.61
556.33	1722.34
556.53	1796.07
556.73	1667.05
556.92	1753.06
557.12	1822.69
557.32	1818.60
557.51	1746.92
557.71	1806.31
557.90	1794.02
558.10	1824.74
558.30	1691.62
558.49	1681.38
558.69	1691.62
558.88	1804.26
559.08	1804.26
559.28	1705.96
559.47	1716.20
559.67	1771.49
559.86	1822.69
560.06	1769.44
560.26	1673.19
560.45	1757.16
560.65	1755.11
560.84	1843.17
561.04	1601.51
561.24	1820.64
561.43	1667.05
561.63	1767.40
561.82	1775.59
562.02	1730.53
562.22	1720.29
562.41	1683.43
562.61	1654.76
562.80	1751.01
563.00	1910.75
563.19	1710.05
563.39	1765.35
563.59	1708.01
563.78	1673.19
563.98	1595.37
564.17	1621.99
564.37	1613.80
564.56	1748.97
564.76	1689.57
564.96	1806.31
565.15	1755.11
565.35	1824.74
565.54	1728.49
565.74	1783.78
565.93	1785.83
566.13	1771.49
566.32	1648.61
566.52	1888.23
566.71	1763.30
566.91	1710.05
567.11	1732.58
567.30	1716.20
567.50	1728.49
567.69	1775.59
567.89	1822.69
568.08	1757.16
568.28	1705.96
568.47	1699.81
568.67	1816.55
568.86	1710.05
569.06	1800.16
569.25	1714.15
569.45	1726.44
569.64	1667.05
569.84	1720.29
570.04	1703.91
570.23	1753.06
570.43	1722.34
570.62	1787.88
570.82	1767.40
571.01	1710.05
571.21	1724.39
571.40	1718.25
571.60	1779.68
571.79	1783.78
571.99	1765.35
572.18	1656.81
572.38	1759.21
572.57	1716.20
572.77	1744.87
572.96	1927.14
573.16	1789.92
573.35	1646.57
573.55	1851.36
573.74	1794.02
573.94	1751.01
574.13	1763.30
574.33	1744.87
574.52	1812.45
574.71	1744.87
574.91	1732.58
575.10	1619.94
575.30	1841.12
575.49	1736.68
575.69	1732.58
575.88	1746.92
576.08	1759.21
576.27	1812.45
576.47	1730.53
576.66	1812.45
576.86	1779.68
577.05	1779.68
577.25	1773.54
577.44	1902.56
577.64	1714.15
577.83	1714.15
578.02	1763.30
578.22	1867.75
578.41	1759.21
578.61	1738.73
578.80	1703.91
579.00	1771.49
579.19	1722.34
579.39	1710.05
579.58	1923.04
579.77	1746.92
579.97	1806.31
580.16	1748.97
580.36	1783.78
580.55	1826.79
580.75	1802.21
580.94	1714.15
581.13	1916.90
581.33	1898.47
581.52	1794.02
581.72	1910.75
581.91	1826.79
582.11	1705.96
582.30	1849.32
582.49	1755.11
582.69	1789.92
582.88	1834.98
583.08	1718.25
583.27	1742.82
583.47	1746.92
583.66	1789.92
583.85	1712.10
584.05	1726.44
584.24	1791.97
584.44	1734.63
584.63	1765.35
584.82	1734.63
585.02	1804.26
585.21	1863.65
585.41	1853.41
585.60	1847.27
585.79	1914.85
585.99	1906.66
586.18	1871.84
586.37	2193.37
586.57	3274.70
586.76	9426.80
586.96	23463.58
587.15	33148.42
587.34	38802.86
587.54	40701.33
587.73	35462.63
587.93	25593.47
588.12	20604.61
588.31	17567.48
588.51	15550.23
588.70	14683.94
588.89	13670.19
589.09	12001.10
589.28	10739.55
589.47	9150.32
589.67	7585.68
589.86	6266.78
590.06	4939.70
590.25	3897.28
590.44	3088.34
590.64	2572.25
590.83	2234.33
591.02	2025.44
591.22	1937.38
591.41	1865.70
591.60	1830.88
591.80	1982.43
591.99	1761.25
592.18	1771.49
592.38	1773.54
592.57	1783.78
592.76	1828.84
592.96	1705.96
593.15	1775.59
593.34	1830.88
593.54	1716.20
593.73	1785.83
593.92	1800.16
594.12	1787.88
594.31	1724.39
594.50	1851.36
594.70	1847.27
594.89	1935.33
595.08	1646.57
595.28	1714.15
595.47	1832.93
595.66	1832.93
595.86	1730.53
596.05	1748.97
596.24	1656.81
596.43	1757.16
596.63	1837.03
596.82	1746.92
597.01	1734.63
597.21	1773.54
597.40	1775.59
597.59	1787.88
597.79	1724.39
597.98	1722.34
598.17	1804.26
598.36	1761.25
598.56	1746.92
598.75	1667.05
598.94	1701.86
599.14	1683.43
599.33	1697.77
599.52	1726.44
599.71	1767.40
599.91	1763.30
600.10	1769.44
600.29	1765.35
600.48	1808.36
600.68	1791.97
600.87	1705.96
601.06	1755.11
601.26	1671.14
601.45	1744.87
601.64	1757.16
601.83	1751.01
602.03	1720.29
602.22	1662.95
602.41	1742.82
602.60	1853.41
602.80	1804.26
602.99	1730.53
603.18	1691.62
603.37	1714.15
603.57	1806.31
603.76	1877.99
603.95	1763.30
604.14	1738.73
604.34	1726.44
604.53	1705.96
604.72	1746.92
604.91	1763.30
605.10	1787.88
605.30	1656.81
605.49	1794.02
605.68	1810.40
605.87	1744.87
606.07	1642.47
606.26	1800.16
606.45	1771.49
606.64	1767.40
606.84	1675.24
607.03	1769.44
607.22	1771.49
607.41	1658.85
607.60	1699.81
607.80	1820.64
607.99	1757.16
608.18	1726.44
608.37	1705.96
608.56	1662.95
608.76	1753.06
608.95	1808.36
609.14	1691.62
609.33	1783.78
609.52	1802.21
609.72	1771.49
609.91	1789.92
610.10	1769.44
610.29	1812.45
610.48	1771.49
610.68	1771.49
610.87	1724.39
611.06	1837.03
611.25	1755.11
611.44	1675.24
611.63	1660.90
611.83	1765.35
612.02	1734.63
612.21	1751.01
612.40	1683.43
612.59	1689.57
612.79	1710.05
612.98	1728.49
613.17	1808.36
613.36	1669.09
613.55	1814.50
613.74	1710.05
613.93	1683.43
614.13	1830.88
614.32	1742.82
614.51	1837.03
614.70	1675.24
614.89	1669.09
615.08	1759.21
615.28	2054.11
615.47	1630.18
615.66	1798.12
615.85	1708.01
616.04	1824.74
616.23	1644.52
616.42	1675.24
616.62	1722.34
616.81	1814.50
617.00	1705.96
617.19	1779.68
617.38	1753.06
617.57	1734.63
617.76	1716.20
617.95	1728.49
618.15	1705.96
618.34	1886.18
618.53	1658.85
618.72	1808.36
618.91	1834.98
619.10	1769.44
619.29	1660.90
619.48	1765.35
619.68	1708.01
619.87	1763.30
620.06	1607.66
620.25	1697.77
620.44	1642.47
620.63	1769.44
620.82	1787.88
621.01	1759.21
621.20	1757.16
621.39	1708.01
621.59	1726.44
621.78	1638.38
621.97	1669.09
622.16	1791.97
622.35	1765.35
622.54	1751.01
622.73	1796.07
622.92	1611.75
623.11	1767.40
623.30	1679.33
623.49	1681.38
623.68	1658.85
623.88	1703.91
624.07	1720.29
624.26	1746.92
624.45	1730.53
624.64	1697.77
624.83	1804.26
625.02	1646.57
625.21	1761.25
625.40	1759.21
625.59	1869.80
625.78	1736.68
625.97	1771.49
626.16	1751.01
626.35	1705.96
626.54	1691.62
626.74	1841.12
626.93	1669.09
627.12	1757.16
627.31	1775.59
627.50	1724.39
627.69	1834.98
627.88	1777.64
628.07	1734.63
628.26	1562.60
628.45	1640.42
628.64	1677.29
628.83	1689.57
629.02	1630.18
629.21	1781.73
629.40	1671.14
629.59	1673.19
629.78	1683.43
629.97	1703.91
630.16	1751.01
630.35	1689.57
630.54	1703.91
630.73	1671.14
630.92	1734.63
631.11	1728.49
631.30	1816.55
631.49	1755.11
631.68	1658.85
631.87	1732.58
632.06	1726.44
632.25	1841.12
632.44	1732.58
632.63	1742.82
632.82	1621.99
633.01	1583.08
633.20	1683.43
633.39	1714.15
633.58	1615.85
633.77	1677.29
633.96	1716.20
634.15	1798.12
634.34	1728.49
634.53	1720.29
634.72	1638.38
634.91	1607.66
635.10	1814.50
635.29	1708.01
635.48	1744.87
635.67	1691.62
635.86	1619.94
636.05	1728.49
636.24	1675.24
636.43	1708.01
636.62	1759.21
636.81	1609.70
637.00	1650.66
637.19	1701.86
637.38	1751.01
637.57	1656.81
637.76	1648.61
637.95	1726.44
638.14	1740.77
638.33	1697.77
638.52	1693.67
638.71	1658.85
638.89	1650.66
639.08	1851.36
639.27	1785.83
639.46	1742.82
639.65	1794.02
639.84	1740.77
640.03	1855.46
640.22	1632.23
640.41	1849.32
640.60	1695.72
640.79	1748.97
640.98	1744.87
641.17	1746.92
641.36	1759.21
641.55	1771.49
641.74	1660.90
641.92	1697.77
642.11	1599.46
642.30	1732.58
642.49	1679.33
642.68	1675.24
642.87	1728.49
643.06	1779.68
643.25	1677.29
643.44	1673.19
643.63	1724.39
643.82	1685.48
644.00	1685.48
644.19	1781.73
644.38	1654.76
644.57	1773.54
644.76	1744.87
644.95	1697.77
645.14	1781.73
645.33	1714.15
645.52	1689.57
645.71	1691.62
645.89	1681.38
646.08	1787.88
646.27	1632.23
646.46	1841.12
646.65	1658.85
646.84	1818.60
647.03	1619.94
647.22	1812.45
647.40	1714.15
647.59	1611.75
647.78	1671.14
647.97	1671.14
648.16	1683.43
648.35	1783.78
648.54	1804.26
648.73	1697.77
648.91	1751.01
649.10	1746.92
649.29	1714.15
649.48	1669.09
649.67	1615.85
649.86	1705.96
650.05	1665.00
650.23	1773.54
650.42	1658.85
650.61	1769.44
650.80	1720.29
650.99	1824.74
651.18	1742.82
651.36	1699.81
651.55	1656.81
651.74	1763.30
651.93	1687.53
652.12	1658.85
652.31	1667.05
652.49	1669.09
652.68	1697.77
652.87	1812.45
653.06	1748.97
653.25	1845.22
653.44	1689.57
653.62	1787.88
653.81	1646.57
654.00	1722.34
654.19	1736.68
654.38	1800.16
654.56	1748.97
654.75	1730.53
654.94	1748.97
655.13	1624.04
655.32	1791.97
655.51	1730.53
655.69	1605.61
655.88	1703.91
656.07	1718.25
656.26	1779.68
656.45	1640.42
656.63	1689.57
656.82	1775.59
657.01	1769.44
657.20	1681.38
657.38	1699.81
657.57	1683.43
657.76	1632.23
657.95	1705.96
658.14	1634.28
658.32	1660.90
658.51	1634.28
658.70	1753.06
658.89	1763.30
659.08	1712.10
659.26	1755.11
659.45	1667.05
659.64	1814.50
659.83	1675.24
660.01	1857.51
660.20	1771.49
660.39	1851.36
660.58	1660.90
660.76	1677.29
660.95	1628.14
661.14	1791.97
661.33	1681.38
661.51	1746.92
661.70	1726.44
661.89	1714.15
662.08	1761.25
662.26	1544.17
662.45	1626.09
662.64	1755.11
662.83	1753.06
663.01	1638.38
663.20	1665.00
663.39	1789.92
663.58	1746.92
663.76	1724.39
663.95	1804.26
664.14	1597.42
664.32	1644.52
664.51	1667.05
664.70	1640.42
664.89	1828.84
665.07	1615.85
665.26	1701.86
665.45	1613.80
665.64	1763.30
665.82	1736.68
666.01	1740.77
666.20	1617.90
666.38	1812.45
666.57	1763.30
666.76	2215.90
666.95	4349.89
667.13	9889.64
667.32	14778.14
667.51	17346.30
667.69	18290.41
667.88	17198.84
668.07	11964.23
668.25	9244.53
668.44	7856.01
668.63	6995.86
668.81	6743.96
669.00	6068.13
669.19	5519.28
669.38	5040.05
669.56	4460.48
669.75	3815.37
669.94	3254.22
670.12	2852.82
670.31	2488.28
670.50	2213.85
670.68	1984.48
670.87	1949.67
671.06	1847.27
671.24	1796.07
671.43	1853.41
671.62	1697.77
671.80	1650.66
671.99	1785.83
672.18	1777.64
672.36	1724.39
672.55	1667.05
672.74	1781.73
672.92	1642.47
673.11	1751.01
673.29	1597.42
673.48	1753.06
673.67	1761.25
673.85	1783.78
674.04	1726.44
674.23	1726.44
674.41	1781.73
674.60	1728.49
674.79	1683.43
674.97	1669.09
675.16	1765.35
675.34	1767.40
675.53	1726.44
675.72	1783.78
675.90	1808.36
676.09	1689.57
676.28	1720.29
676.46	1574.89
676.65	1712.10
676.83	1689.57
677.02	1705.96
677.21	1730.53
677.39	1679.33
677.58	1658.85
677.77	1732.58
677.95	1687.53
678.14	1720.29
678.32	1732.58
678.51	1658.85
678.70	1877.99
678.88	1671.14
679.07	1769.44
679.25	1693.67
679.44	1695.72
679.63	1677.29
679.81	1732.58
680.00	1800.16
680.18	1818.60
680.37	1832.93
680.55	1716.20
680.74	1665.00
680.93	1574.89
681.11	1708.01
681.30	1734.63
681.48	1751.01
681.67	1673.19
681.85	1724.39
682.04	1699.81
682.23	1814.50
682.41	1617.90
682.60	1699.81
682.78	1679.33
682.97	1638.38
683.15	1640.42
683.34	1746.92
683.53	1767.40
683.71	1621.99
683.90	1726.44
684.08	1832.93
684.27	1632.23
684.45	1695.72
684.64	1697.77
684.82	1718.25
685.01	1757.16
685.19	1724.39
685.38	1769.44
685.57	1667.05
685.75	1732.58
685.94	1644.52
686.12	1748.97
686.31	1652.71
686.49	1847.27
686.68	1693.67
686.86	1771.49
687.05	1562.60
687.23	1791.97
687.42	1683.43
687.60	1634.28
687.79	1767.40
687.97	1796.07
688.16	1794.02
688.34	1824.74
688.53	1556.46
688.71	1703.91
688.90	1695.72
689.08	1796.07
689.27	1660.90
689.45	1742.82
689.64	1720.29
689.82	1687.53
690.01	1697.77
690.19	1644.52
690.38	1738.73
690.56	1804.26
690.75	1570.79
690.93	1708.01
691.12	1673.19
691.30	1667.05
691.49	1677.29
691.67	1710.05
691.86	1794.02
692.04	1687.53
692.23	1689.57
692.41	1650.66
692.60	1748.97
692.78	1740.77
692.97	1748.97
693.15	1724.39
693.34	1859.56
693.52	1767.40
693.71	1667.05
693.89	1656.81
694.08	1611.75
694.26	1742.82
694.44	1732.58
694.63	1751.01
694.81	1714.15
695.00	1714.15
695.18	1753.06
695.37	1791.97
695.55	1751.01
695.74	1697.77
695.92	1613.80
696.10	1697.77
696.29	1605.61
696.47	1742.82
696.66	1621.99
696.84	1687.53
697.03	1736.68
697.21	1888.23
697.40	2256.86
697.58	1726.44
697.76	1720.29
697.95	1773.54
698.13	1656.81
698.32	1746.92
698.50	1732.58
698.68	1789.92
698.87	1726.44
699.05	1738.73
699.24	1744.87
699.42	1662.95
699.61	1718.25
699.79	1742.82
699.97	1748.97
700.16	1665.00
700.34	1665.00
700.53	1695.72
700.71	1820.64
700.89	1728.49
701.08	1701.86
701.26	1714.15
701.45	2099.17
701.63	1740.77
701.81	1726.44
702.00	1701.86
702.18	1722.34
702.37	1716.20
702.55	1683.43
702.73	1681.38
702.92	1480.68
703.10	1789.92
703.28	1740.77
703.47	1578.98
703.65	1714.15
703.84	1753.06
704.02	1660.90
704.20	1820.64
704.39	1658.85
704.57	1673.19
704.75	1789.92
704.94	1701.86
705.12	1714.15
705.30	1820.64
705.49	2222.05
705.67	4179.90
705.86	8968.06
706.04	12101.45
706.22	14020.39
706.41	14772.00
706.59	13307.70
706.77	9445.23
706.96	7114.64
707.14	6508.44
707.32	5771.18
707.51	5445.55
707.69	4745.14
707.87	4147.14
708.06	3446.73
708.24	2830.29
708.42	2375.64
708.61	2271.20
708.79	1882.08
708.97	1845.22
709.16	1791.97
709.34	1781.73
709.52	1691.62
709.71	1685.48
709.89	1681.38
710.07	1703.91
710.26	1636.33
710.44	1742.82
710.62	1798.12
710.80	1740.77
710.99	1748.97
711.17	1761.25
711.35	1671.14
711.54	1687.53
711.72	1699.81
711.90	1787.88
712.09	1738.73
712.27	1626.09
712.45	1708.01
712.63	1669.09
712.82	1679.33
713.00	1718.25
713.18	1783.78
713.37	1814.50
713.55	1710.05
713.73	1726.44
713.91	1722.34
714.10	1699.81
714.28	1742.82
714.46	1718.25
714.65	1665.00
714.83	1697.77
715.01	1695.72
715.19	1685.48
715.38	1654.76
715.56	1794.02
715.74	1710.05
715.92	1646.57
716.11	1812.45
716.29	1601.51
716.47	1746.92
716.65	1624.04
716.84	1648.61
717.02	1781.73
717.20	1605.61
717.38	1667.05
717.57	1697.77
717.75	1673.19
717.93	1677.29
718.11	1742.82
718.30	1611.75
718.48	1644.52
718.66	1824.74
718.84	1794.02
719.03	1712.10
719.21	1617.90
719.39	1783.78
719.57	1777.64
719.75	1794.02
719.94	1636.33
720.12	1701.86
720.30	1742.82
720.48	1755.11
720.67	1650.66
720.85	1693.67
721.03	1718.25
721.21	1703.91
721.39	1697.77
721.58	1746.92
721.76	1757.16
721.94	1703.91
722.12	1681.38
722.30	1763.30
722.49	1658.85
722.67	1783.78
722.85	1728.49
723.03	1613.80
723.21	1703.91
723.40	1726.44
723.58	1748.97
723.76	1679.33
723.94	1787.88
724.12	1695.72
724.30	1751.01
724.49	1796.07
724.67	1656.81
724.85	1726.44
725.03	1581.03
725.21	1726.44
725.40	1765.35
725.58	1632.23
725.76	1765.35
725.94	1769.44
726.12	1677.29
726.30	1660.90
726.49	1726.44
726.67	1673.19
726.85	1748.97
727.03	1783.78
727.21	2082.78
727.39	2777.05
727.57	3674.06
727.76	4073.41
727.94	4143.04
728.12	4313.02
728.30	3561.42
728.48	2932.69
728.66	2713.56
728.84	2512.86
729.03	2252.77
729.21	2246.62
729.39	1929.19
729.57	1806.31
729.75	1791.97
729.93	1794.02
730.11	1736.68
730.30	1724.39
730.48	1722.34
730.66	1773.54
730.84	1714.15
731.02	1714.15
731.20	1699.81
731.38	1744.87
731.56	1585.13
731.74	1617.90
731.93	1693.67
732.11	1714.15
732.29	1718.25
732.47	1757.16
732.65	1769.44
732.83	1683.43
733.01	1693.67
733.19	1660.90
733.37	1773.54
733.56	1794.02
733.74	1732.58
733.92	1740.77
734.10	1648.61
734.28	1740.77
734.46	1574.89
734.64	1742.82
734.82	1665.00
735.00	1652.71
735.18	1646.57
735.36	1748.97
735.54	1669.09
735.73	1697.77
735.91	1716.20
736.09	1806.31
736.27	1708.01
736.45	1765.35
736.63	1593.32
736.81	1687.53
736.99	1808.36
737.17	1755.11
737.35	1642.47
737.53	1708.01
737.71	1636.33
737.89	1888.23
738.07	1683.43
738.25	1671.14
738.43	1552.36
738.61	1591.27
738.80	1669.09
738.98	1644.52
739.16	1648.61
739.34	1734.63
739.52	1837.03
739.70	1671.14
739.88	1732.58
740.06	1785.83
740.24	1617.90
740.42	1742.82
740.60	1634.28
740.78	1673.19
740.96	1658.85
741.14	1697.77
741.32	1693.67
741.50	1660.90
741.68	1787.88
741.86	1804.26
742.04	1738.73
742.22	1705.96
742.40	1732.58
742.58	1712.10
742.76	1695.72
742.94	1761.25
743.12	1591.27
743.30	1730.53
743.48	1744.87
743.66	1652.71
743.84	1708.01
744.02	1753.06
744.20	1722.34
744.38	1632.23
744.56	1722.34
744.74	1716.20
744.92	1689.57
745.10	1761.25
745.28	1714.15
745.46	1746.92
745.64	1687.53
745.82	1855.46
746.00	1714.15
746.18	1748.97
746.36	1669.09
746.54	1703.91
746.72	1693.67
746.90	1607.66
747.08	1732.58
747.26	1695.72
747.44	1755.11
747.62	1769.44
747.80	1724.39
747.98	1726.44
748.15	1681.38
748.33	1789.92
748.51	1677.29
748.69	1669.09
748.87	1714.15
749.05	1679.33
749.23	1718.25
749.41	1800.16
749.59	1691.62
749.77	1689.57
749.95	1701.86
750.13	1777.64
750.31	1769.44
750.49	1640.42
750.67	1732.58
750.85	1785.83
751.03	1732.58
751.20	1865.70
751.38	1734.63
751.56	1640.42
751.74	1740.77
751.92	1697.77
752.10	1626.09
752.28	1810.40
752.46	1679.33
752.64	1671.14
752.82	1693.67
753.00	1771.49
753.18	1689.57
753.35	1673.19
753.53	1751.01
753.71	1679.33
753.89	1695.72
754.07	1734.63
754.25	1812.45
754.43	1683.43
754.61	1644.52
754.79	1714.15
754.97	1648.61
755.14	1800.16
755.32	1662.95
755.50	1736.68
755.68	1693.67
755.86	1615.85
756.04	1640.42
756.22	1591.27
756.40	1771.49
756.57	1771.49
756.75	1652.71
756.93	1806.31
757.11	1675.24
757.29	1648.61
757.47	1640.42
757.65	1603.56
757.82	1640.42
758.00	1683.43
758.18	1695.72
758.36	1681.38
758.54	1875.94
758.72	1583.08
758.90	1744.87
759.07	1687.53
759.25	1658.85
759.43	1738.73
759.61	1683.43
759.79	2183.13
759.97	1687.53
760.15	1730.53
760.32	1755.11
760.50	1705.96
760.68	1822.69
760.86	1648.61
761.04	1759.21
761.22	1822.69
761.39	1722.34
761.57	1845.22
761.75	1716.20
761.93	1808.36
762.11	1626.09
762.28	1634.28
762.46	1667.05
762.64	1640.42
762.82	1634.28
763.00	1691.62
763.18	1710.05
763.35	1683.43
763.53	1755.11
763.71	1640.42
763.89	1689.57
764.07	1789.92
764.24	1619.94
764.42	1732.58
764.60	1683.43
764.78	1703.91
764.96	1771.49
765.13	1763.30
765.31	1718.25
765.49	1746.92
765.67	1644.52
765.84	1650.66
766.02	1767.40
766.20	1644.52
766.38	1794.02
766.56	1763.30
766.73	1775.59
766.91	1679.33
767.09	1652.71
767.27	1710.05
767.44	1652.71
767.62	1732.58
767.80	1732.58
767.98	1683.43
768.15	1693.67
768.33	1740.77
768.51	1726.44
768.69	1691.62
768.87	1718.25
769.04	1716.20
769.22	1783.78
769.40	1789.92
769.58	1832.93
769.75	1683.43
769.93	1718.25
770.11	1775.59
770.28	1628.14
770.46	1755.11
770.64	1798.12
770.82	1677.29
770.99	1671.14
771.17	1730.53
771.35	1738.73
771.53	1742.82
771.70	1712.10
771.88	1714.15
772.06	1755.11
772.23	1742.82
772.41	1738.73
772.59	1636.33
772.77	1603.56
772.94	1701.86
773.12	1755.11
773.30	1761.25
773.47	1636.33
773.65	1675.24
773.83	1769.44
774.01	1714.15
774.18	1595.37
774.36	1621.99
774.54	1681.38
774.71	1675.24
774.89	1617.90
775.07	1640.42
775.24	1650.66
775.42	1654.76
775.60	1847.27
775.78	1646.57
775.95	1636.33
776.13	1689.57
776.31	1574.89
776.48	1716.20
776.66	1763.30
776.84	1621.99
777.01	1669.09
777.19	1701.86
777.37	1693.67
777.54	1744.87
777.72	1816.55
777.90	1689.57
778.07	1576.94
778.25	1855.46
778.43	1779.68
778.60	1693.67
778.78	1705.96
778.96	1804.26
779.13	1605.61
779.31	1775.59
779.49	1718.25
779.66	1656.81
779.84	1607.66
780.01	1691.62
780.19	1667.05
780.37	1746.92
780.54	1699.81
780.72	1656.81
780.90	1667.05
781.07	1650.66
781.25	1652.71
781.43	1673.19
781.60	1671.14
781.78	1740.77
781.95	1777.64
782.13	1644.52
782.31	1748.97
782.48	1617.90
782.66	1730.53
782.83	1720.29
783.01	1785.83
783.19	1732.58
783.36	1673.19
783.54	1656.81
783.72	1783.78
783.89	1685.48
784.07	1642.47
784.24	1673.19
784.42	1779.68
784.60	1691.62
784.77	1748.97
784.95	1581.03
785.12	1660.90
785.30	1646.57
785.47	1671.14
785.65	1710.05
785.83	1742.82
786.00	1681.38
786.18	1652.71
786.35	1648.61
786.53	1603.56
786.71	1712.10
786.88	1773.54
787.06	1695.72
787.23	1783.78
787.41	1624.04
787.58	1628.14
787.76	1636.33
787.94	1734.63
788.11	1667.05
788.29	1591.27
788.46	1665.00
788.64	1621.99
788.81	1742.82
788.99	1566.70
789.16	1755.11
789.34	1703.91
789.52	1660.90
789.69	1667.05
789.87	1677.29
790.04	1697.77
790.22	1712.10
790.39	1742.82
790.57	1636.33
790.74	1722.34
790.92	1734.63
791.09	1564.65
791.27	1695.72
791.44	1755.11
791.62	1693.67
791.79	1800.16
791.97	1730.53
792.15	1877.99
792.32	1658.85
792.50	1761.25
792.67	1779.68
792.85	1703.91
793.02	1789.92
793.20	1695.72
793.37	1640.42
793.55	1693.67
793.72	1587.18
793.90	1660.90
794.07	1708.01
794.25	1611.75
794.42	1689.57
794.60	1648.61
794.77	1691.62
794.95	1748.97
795.12	1662.95
795.30	1736.68
795.47	1581.03
795.65	1839.08
795.82	1691.62
796.00	1712.10
796.17	1693.67
796.34	1705.96
796.52	1701.86
796.69	1736.68
796.87	1677.29
797.04	1714.15
797.22	1744.87
797.39	1683.43
797.57	1710.05
797.74	1644.52
797.92	1701.86
798.09	1660.90
798.27	1701.86
798.44	1759.21
798.62	1769.44
798.79	1662.95
798.96	1734.63
799.14	1689.57
799.31	1888.23
799.49	1777.64
799.66	1724.39
799.84	1757.16
800.01	1585.13
800.19	1665.00
800.36	1599.46
800.53	1755.11
800.71	1740.77
800.88	1785.83
801.06	1656.81
801.23	1677.29
801.41	1726.44
801.58	1646.57
801.75	1705.96
801.93	1658.85
802.10	1820.64
802.28	1611.75
802.45	1728.49
802.63	1681.38
802.80	1785.83
802.97	1699.81
803.15	1720.29
803.32	1687.53
803.50	1673.19
803.67	1615.85
803.84	1624.04
804.02	1648.61
804.19	1650.66
804.37	1611.75
804.54	1617.90
804.71	1669.09
804.89	1675.24
805.06	1685.48
805.24	1742.82
805.41	1654.76
805.58	1607.66
805.76	1865.70
805.93	1652.71
806.10	1720.29
806.28	1720.29
806.45	1691.62
806.63	1724.39
806.80	1742.82
806.97	1787.88
807.15	1787.88
807.32	1693.67
807.49	1669.09
807.67	1624.04
807.84	1699.81
808.01	1624.04
808.19	1808.36
808.36	1826.79
808.54	1701.86
808.71	1632.23
808.88	1740.77
809.06	1662.95
809.23	1822.69
809.40	1638.38
809.58	1726.44
809.75	1695.72
809.92	1626.09
810.10	1796.07
810.27	1691.62
810.44	1726.44
810.62	1714.15
810.79	1773.54
810.96	1689.57
811.14	1624.04
811.31	1636.33
811.48	1767.40
811.66	1652.71
811.83	1802.21
812.00	1742.82
812.18	1708.01
812.35	1826.79
812.52	1681.38
812.69	1685.48
812.87	1744.87
813.04	1718.25
813.21	1656.81
813.39	1658.85
813.56	1595.37
813.73	1775.59
813.91	1644.52
814.08	1726.44
814.25	1705.96
814.42	1595.37
814.60	1691.62
814.77	1718.25
814.94	1652.71
815.12	1660.90
815.29	1767.40
815.46	1677.29
815.63	1677.29
815.81	1689.57
815.98	1708.01
816.15	1738.73
816.33	1683.43
816.50	1695.72
816.67	1689.57
816.84	1640.42
817.02	1624.04
817.19	1740.77
817.36	1693.67
817.53	1773.54
817.71	1703.91
817.88	1718.25
818.05	1646.57
818.22	1691.62
818.40	1828.84
818.57	1650.66
818.74	1726.44
818.91	1656.81
819.09	1726.44
819.26	1738.73
819.43	1724.39
819.60	1650.66
819.78	1746.92
819.95	1828.84
820.12	1624.04
820.29	1730.53
820.47	1861.60
820.64	1689.57
820.81	1679.33
820.98	1615.85
821.15	1710.05
821.33	1691.62
821.50	1595.37
821.67	1705.96
821.84	1656.81
822.02	1724.39
822.19	1753.06
822.36	1660.90
822.53	1632.23
822.70	1644.52
822.88	1617.90
823.05	1738.73
823.22	1652.71
823.39	1699.81
823.56	1665.00
823.74	1748.97
823.91	1621.99
824.08	1632.23
824.25	1658.85
824.42	1832.93
824.60	1626.09
824.77	1718.25
824.94	1644.52
825.11	1683.43
825.28	1632.23
825.45	1736.68
825.63	1722.34
825.80	1658.85
825.97	1665.00
826.14	1740.77
826.31	1675.24
826.48	1751.01
826.66	1621.99
826.83	1677.29
827.00	1720.29
827.17	1673.19
827.34	1695.72
827.51	1726.44
827.69	1714.15
827.86	1662.95
828.03	1667.05
828.20	1697.77
828.37	1644.52
828.54	1656.81
828.71	1634.28
828.89	1808.36
829.06	1660.90
829.23	1867.75
829.40	1599.46
829.57	1646.57
829.74	1716.20
829.91	1671.14
830.09	1701.86
830.26	1755.11
830.43	1855.46
830.60	1783.78
830.77	1757.16
830.94	1808.36
831.11	1675.24
831.28	1648.61
831.46	1804.26
831.63	1656.81
831.80	1798.12
831.97	1718.25
832.14	1691.62
832.31	1728.49
832.48	1748.97
832.65	1736.68
832.82	1650.66
832.99	1665.00
833.17	1611.75
833.34	1771.49
833.51	1761.25
833.68	1624.04
833.85	1759.21
834.02	1660.90
834.19	1658.85
834.36	1613.80
834.53	1687.53
834.70	1773.54
834.87	1796.07
835.04	1665.00
835.22	1685.48
835.39	1628.14
835.56	1667.05
835.73	1742.82
835.90	1683.43
836.07	1656.81
836.24	1771.49
836.41	1703.91
836.58	1726.44
836.75	1728.49
836.92	1716.20
837.09	1701.86
837.26	1710.05
837.43	1705.96
837.60	1685.48
837.77	1665.00
837.94	1820.64
838.12	1732.58
838.29	1687.53
838.46	1644.52
838.63	1681.38
838.80	1834.98
838.97	1765.35
839.14	1701.86
839.31	1626.09
839.48	1769.44
839.65	1714.15
839.82	1722.34
839.99	1665.00
840.16	1665.00
840.33	1683.43
840.50	1724.39
840.67	1611.75
840.84	1640.42
841.01	1730.53
841.18	1673.19
841.35	1671.14
841.52	1738.73
841.69	1746.92
841.86	1708.01
842.03	1740.77
842.20	1736.68
842.37	1746.92
842.54	1712.10
842.71	1753.06
842.88	1587.18
843.05	1710.05
843.22	1691.62
843.39	1736.68
843.56	1748.97
843.73	1751.01
843.90	1751.01
844.07	1742.82
844.24	1708.01
844.41	1705.96
844.58	1705.96
844.75	1593.32
844.92	1791.97
845.09	1695.72
845.26	1605.61
845.43	1669.09
845.60	1730.53
845.77	1636.33
845.94	1693.67
846.10	1730.53
846.27	1705.96
846.44	1630.18
846.61	1619.94
846.78	1695.72
846.95	1794.02
847.12	1685.48
847.29	1673.19
847.46	1671.14
847.63	1720.29
847.80	1564.65
847.97	1748.97
848.14	1804.26
848.31	1671.14
848.48	1665.00
848.65	1658.85
848.82	1687.53
848.98	1822.69
849.15	1771.49
849.32	1662.95
849.49	1730.53
849.66	1599.46
849.83	1708.01
850.00	1687.53
850.17	1724.39
850.34	1712.10
850.51	1685.48
850.68	1654.76
850.85	1877.99
851.01	1697.77
851.18	1722.34
851.35	1658.85
851.52	1691.62
851.69	1789.92
851.86	1615.85
852.03	1609.70
852.20	1755.11
852.37	1730.53
852.53	1640.42
852.70	1693.67
852.87	1748.97
853.04	1685.48
853.21	1630.18
853.38	1755.11
853.55	1710.05
853.72	1804.26
853.89	1626.09
854.05	1648.61
854.22	1687.53
854.39	1716.20
854.56	1658.85
854.73	1763.30
854.90	1619.94
855.07	1738.73
855.23	1693.67
855.40	1640.42
855.57	1714.15
855.74	1605.61
855.91	1798.12
856.08	1554.41
856.25	1607.66
856.41	1675.24
856.58	1677.29
856.75	1675.24
856.92	1599.46
857.09	1699.81
857.26	1648.61
857.42	1634.28
857.59	1744.87
857.76	1697.77
857.93	1738.73
858.10	1763.30
858.27	1615.85
858.43	1685.48
858.60	1581.03
858.77	1642.47
858.94	1621.99
859.11	1757.16
859.27	1570.79
859.44	1679.33
859.61	1804.26
859.78	1728.49
859.95	1679.33
860.12	1722.34
860.28	1785.83
860.45	1810.40
860.62	1683.43
860.79	1748.97
860.95	1693.67
861.12	1648.61
861.29	1685.48
861.46	1689.57
861.63	1708.01
861.79	1767.40
861.96	1681.38
862.13	1650.66
862.30	1781.73
862.47	1699.81
862.63	1724.39
862.80	1705.96
862.97	1769.44
863.14	1640.42
863.30	1638.38
863.47	1679.33
863.64	1683.43
863.81	1783.78
863.97	1595.37
864.14	1718.25
864.31	1638.38
864.48	1796.07
864.65	1716.20
864.81	1822.69
864.98	1748.97
865.15	1685.48
865.32	1839.08
865.48	1712.10
865.65	1828.84
865.82	1644.52
865.98	1757.16
866.15	1708.01
866.32	1626.09
866.49	1703.91
866.65	1753.06
866.82	1724.39
866.99	1748.97
867.16	1695.72
867.32	1679.33
867.49	1695.72
867.66	1619.94
867.83	1634.28
867.99	1609.70
868.16	1681.38
868.33	1572.84
868.49	1757.16
868.66	1691.62
868.83	1773.54
868.99	1703.91
869.16	1705.96
869.33	1849.32
869.50	1800.16
869.66	1656.81
869.83	1695.72
870.00	1646.57
870.16	1767.40
870.33	1685.48
870.50	1740.77
870.66	1703.91
870.83	1806.31
871.00	1669.09
871.17	1689.57
871.33	1615.85
871.50	1724.39
871.67	1718.25
871.83	1599.46
872.00	1734.63
872.17	1685.48
872.33	1761.25
872.50	1757.16
872.67	1748.97
872.83	1566.70
873.00	1728.49
873.17	1705.96
873.33	1748.97
873.50	1748.97
873.67	1697.77
873.83	1595.37
874.00	1710.05
874.16	1720.29
874.33	1701.86
874.50	1796.07
874.66	1705.96
874.83	1730.53
875.00	1699.81
875.16	1734.63
875.33	1730.53
875.50	1538.02
875.66	1708.01
875.83	1773.54
875.99	1662.95
876.16	1689.57
876.33	1726.44
876.49	1759.21
876.66	1742.82
876.83	1791.97
876.99	1583.08
877.16	1654.76
877.32	1740.77
877.49	1624.04
877.66	1748.97
877.82	1845.22
877.99	1689.57
878.15	1769.44
878.32	1693.67
878.49	1773.54
878.65	1619.94
878.82	1773.54
878.98	1658.85
879.15	1869.80
879.32	1779.68
879.48	1736.68
879.65	1621.99
879.81	1667.05
879.98	1677.29
880.15	1656.81
880.31	1744.87
880.48	1650.66
880.64	1738.73
880.81	1738.73
880.97	1771.49
881.14	1736.68
881.31	1644.52
881.47	1832.93
881.64	1773.54
881.80	1546.22
881.97	1726.44
882.13	1781.73
882.30	1640.42
882.47	1685.48
882.63	1640.42
882.80	1736.68
882.96	1638.38
883.13	1785.83
883.29	1660.90
883.46	1681.38
883.62	1763.30
883.79	1742.82
883.95	1787.88
884.12	1761.25
884.29	1753.06
884.45	1724.39
884.62	1798.12
884.78	1699.81
884.95	1820.64
885.11	1691.62
885.28	1767.40
885.44	1681.38
885.61	1742.82
885.77	1697.77
885.94	1738.73
886.10	1720.29
886.27	1708.01
886.43	1755.11
886.60	1804.26
886.76	1578.98
886.93	1617.90
887.09	1773.54
887.26	1566.70
887.42	1736.68
887.59	1732.58
887.75	1753.06
887.92	1814.50
888.08	1734.63
888.25	1714.15
888.41	1718.25
888.58	1695.72
888.74	1636.33
888.91	1755.11
>>>>>End Processed Spectral Data<<<<<
