SpectraSuite Data File
++++++++++++++++++++++++++++++++++++
Date: Mon Jun 06 13:46:17 CEST 2016
User: root
Dark Spectrum Present: No
Reference Spectrum Present: No
Number of Sampled Component Spectra: 1
Spectrometers: USB4C02835
Integration Time (usec): 100000 (USB4C02835)
Spectra Averaged: 1 (USB4C02835)
Boxcar Smoothing: 0 (USB4C02835)
Correct for Electrical Dark: No (USB4C02835)
Strobe/Lamp Enabled: No (USB4C02835)
Correct for Detector Non-linearity: No (USB4C02835)
Correct for Stray Light: No (USB4C02835)
Number of Pixels in Processed Spectrum: 3648
>>>>>Begin Processed Spectral Data<<<<<
177.47	1411.05
177.69	1411.05
177.91	1411.05
178.13	1470.44
178.36	1390.57
178.58	1650.66
178.80	1783.78
179.02	1613.80
179.24	1714.15
179.46	1634.28
179.68	1720.29
179.90	1710.05
180.13	1716.20
180.35	1648.61
180.57	1777.64
180.79	1755.11
181.01	1689.57
181.23	1683.43
181.45	1767.40
181.67	1720.29
181.90	1808.36
182.12	1597.42
182.34	1609.70
182.56	1705.96
182.78	1796.07
183.00	1699.81
183.22	1699.81
183.44	1650.66
183.66	1822.69
183.89	1718.25
184.11	1783.78
184.33	1783.78
184.55	1763.30
184.77	1685.48
184.99	1712.10
185.21	1607.66
185.43	1759.21
185.65	1628.14
185.87	1677.29
186.10	1773.54
186.32	1857.51
186.54	1751.01
186.76	1703.91
186.98	1710.05
187.20	1746.92
187.42	1701.86
187.64	1677.29
187.86	1708.01
188.08	1796.07
188.30	1628.14
188.52	1677.29
188.75	1703.91
188.97	1751.01
189.19	1720.29
189.41	1609.70
189.63	1714.15
189.85	1626.09
190.07	1662.95
190.29	1630.18
190.51	1705.96
190.73	1607.66
190.95	1779.68
191.17	1615.85
191.39	1648.61
191.61	1654.76
191.84	1744.87
192.06	1730.53
192.28	1548.26
192.50	1845.22
192.72	1714.15
192.94	1642.47
193.16	1691.62
193.38	1740.77
193.60	1611.75
193.82	1587.18
194.04	1751.01
194.26	1738.73
194.48	1785.83
194.70	1681.38
194.92	1712.10
195.14	1722.34
195.36	1757.16
195.58	1787.88
195.80	1677.29
196.02	1652.71
196.24	1726.44
196.46	1716.20
196.69	1632.23
196.91	1834.98
197.13	1757.16
197.35	1603.56
197.57	1783.78
197.79	1718.25
198.01	1742.82
198.23	1722.34
198.45	1751.01
198.67	1630.18
198.89	1730.53
199.11	1732.58
199.33	1638.38
199.55	1556.46
199.77	1695.72
199.99	1796.07
200.21	1718.25
200.43	1763.30
200.65	1656.81
200.87	1560.55
201.09	1708.01
201.31	1628.14
201.53	1759.21
201.75	1718.25
201.97	1703.91
202.19	1705.96
202.41	1734.63
202.63	1816.55
202.85	1798.12
203.07	1785.83
203.29	1665.00
203.51	1613.80
203.73	1642.47
203.95	1849.32
204.17	1695.72
204.39	1724.39
204.61	1585.13
204.83	1720.29
205.05	1779.68
205.27	1710.05
205.49	1867.75
205.71	1642.47
205.93	1632.23
206.15	1658.85
206.37	1705.96
206.59	1693.67
206.81	1644.52
207.03	1646.57
207.25	1654.76
207.47	1748.97
207.69	1726.44
207.91	1689.57
208.13	1771.49
208.34	1587.18
208.56	1679.33
208.78	1703.91
209.00	1746.92
209.22	1646.57
209.44	1642.47
209.66	1771.49
209.88	1671.14
210.10	1714.15
210.32	1677.29
210.54	1775.59
210.76	1578.98
210.98	1724.39
211.20	1531.88
211.42	1626.09
211.64	1816.55
211.86	1732.58
212.08	1740.77
212.30	1777.64
212.52	1681.38
212.74	1693.67
212.96	1746.92
213.17	1673.19
213.39	1652.71
213.61	1757.16
213.83	1683.43
214.05	1669.09
214.27	1724.39
214.49	1607.66
214.71	1677.29
214.93	1767.40
215.15	1720.29
215.37	1796.07
215.59	1519.59
215.81	1710.05
216.03	1783.78
216.24	1697.77
216.46	1763.30
216.68	1687.53
216.90	1708.01
217.12	1701.86
217.34	1669.09
217.56	1701.86
217.78	1798.12
218.00	1697.77
218.22	1652.71
218.44	1734.63
218.66	1742.82
218.87	1761.25
219.09	1677.29
219.31	1738.73
219.53	1691.62
219.75	1722.34
219.97	1697.77
220.19	1722.34
220.41	1685.48
220.63	1818.60
220.85	1703.91
221.06	1705.96
221.28	1789.92
221.50	1701.86
221.72	1722.34
221.94	1724.39
222.16	1718.25
222.38	1726.44
222.60	1769.44
222.82	1662.95
223.03	1710.05
223.25	1626.09
223.47	1726.44
223.69	1773.54
223.91	1751.01
224.13	1701.86
224.35	1695.72
224.57	1677.29
224.78	1722.34
225.00	1683.43
225.22	1689.57
225.44	1773.54
225.66	1748.97
225.88	1665.00
226.10	1738.73
226.32	1705.96
226.53	1796.07
226.75	1634.28
226.97	1650.66
227.19	1662.95
227.41	1621.99
227.63	1628.14
227.85	1671.14
228.06	1683.43
228.28	1705.96
228.50	1708.01
228.72	1599.46
228.94	1667.05
229.16	1660.90
229.37	1652.71
229.59	1673.19
229.81	1800.16
230.03	1757.16
230.25	1691.62
230.47	1677.29
230.69	1648.61
230.90	1771.49
231.12	1597.42
231.34	1748.97
231.56	1697.77
231.78	1654.76
232.00	1763.30
232.21	1732.58
232.43	1624.04
232.65	1605.61
232.87	1662.95
233.09	1669.09
233.30	1652.71
233.52	1699.81
233.74	1650.66
233.96	1742.82
234.18	1705.96
234.40	1681.38
234.61	1800.16
234.83	1642.47
235.05	1669.09
235.27	1826.79
235.49	1783.78
235.70	1650.66
235.92	1773.54
236.14	1724.39
236.36	1779.68
236.58	1636.33
236.79	1755.11
237.01	1658.85
237.23	1693.67
237.45	1796.07
237.67	1640.42
237.88	1652.71
238.10	1798.12
238.32	1648.61
238.54	1634.28
238.76	1730.53
238.97	1650.66
239.19	1671.14
239.41	1796.07
239.63	1742.82
239.85	1636.33
240.06	1767.40
240.28	1658.85
240.50	1746.92
240.72	1718.25
240.93	1660.90
241.15	1730.53
241.37	1683.43
241.59	1773.54
241.81	1658.85
242.02	1687.53
242.24	1748.97
242.46	1701.86
242.68	1714.15
242.89	1695.72
243.11	1681.38
243.33	1695.72
243.55	1683.43
243.76	1726.44
243.98	1671.14
244.20	1673.19
244.42	1624.04
244.64	1714.15
244.85	1621.99
245.07	1640.42
245.29	1755.11
245.51	1648.61
245.72	1783.78
245.94	1800.16
246.16	1724.39
246.38	1683.43
246.59	1658.85
246.81	1632.23
247.03	1689.57
247.24	1597.42
247.46	1662.95
247.68	1617.90
247.90	1695.72
248.11	1718.25
248.33	1742.82
248.55	1722.34
248.77	1673.19
248.98	1732.58
249.20	1765.35
249.42	1652.71
249.64	1757.16
249.85	1693.67
250.07	1652.71
250.29	1710.05
250.50	1681.38
250.72	1613.80
250.94	1738.73
251.16	1798.12
251.37	1763.30
251.59	1748.97
251.81	1712.10
252.02	1783.78
252.24	1617.90
252.46	1804.26
252.68	1671.14
252.89	1656.81
253.11	1648.61
253.33	1791.97
253.54	1800.16
253.76	1644.52
253.98	1736.68
254.20	1679.33
254.41	1671.14
254.63	1673.19
254.85	1665.00
255.06	1689.57
255.28	1679.33
255.50	1662.95
255.71	1689.57
255.93	1705.96
256.15	1626.09
256.36	1679.33
256.58	1611.75
256.80	1671.14
257.02	1724.39
257.23	1695.72
257.45	1763.30
257.67	1806.31
257.88	1697.77
258.10	1660.90
258.32	1667.05
258.53	1669.09
258.75	1769.44
258.97	1667.05
259.18	1759.21
259.40	1662.95
259.62	1789.92
259.83	1783.78
260.05	1722.34
260.27	1953.76
260.48	1773.54
260.70	1636.33
260.92	1724.39
261.13	1746.92
261.35	1697.77
261.57	1736.68
261.78	1626.09
262.00	1705.96
262.22	1740.77
262.43	1624.04
262.65	1685.48
262.86	1667.05
263.08	1753.06
263.30	1712.10
263.51	1611.75
263.73	1652.71
263.95	1820.64
264.16	1689.57
264.38	1679.33
264.60	1648.61
264.81	1650.66
265.03	1796.07
265.25	1779.68
265.46	1708.01
265.68	1802.21
265.89	1763.30
266.11	1638.38
266.33	1722.34
266.54	1783.78
266.76	1732.58
266.98	1669.09
267.19	1802.21
267.41	1708.01
267.62	1662.95
267.84	1636.33
268.06	1714.15
268.27	1755.11
268.49	1767.40
268.70	1689.57
268.92	1769.44
269.14	1644.52
269.35	1705.96
269.57	1697.77
269.79	1765.35
270.00	1740.77
270.22	1724.39
270.43	1665.00
270.65	1615.85
270.87	1710.05
271.08	1728.49
271.30	1789.92
271.51	1708.01
271.73	1718.25
271.95	1791.97
272.16	1724.39
272.38	1753.06
272.59	1648.61
272.81	1777.64
273.02	1677.29
273.24	1675.24
273.46	1759.21
273.67	1603.56
273.89	1656.81
274.10	1691.62
274.32	1834.98
274.54	1773.54
274.75	1699.81
274.97	1638.38
275.18	1769.44
275.40	1779.68
275.61	1693.67
275.83	1718.25
276.05	1589.22
276.26	1697.77
276.48	1746.92
276.69	1718.25
276.91	1587.18
277.12	1740.77
277.34	1802.21
277.55	1783.78
277.77	1691.62
277.99	1753.06
278.20	1658.85
278.42	1640.42
278.63	1595.37
278.85	1630.18
279.06	1636.33
279.28	1703.91
279.49	1714.15
279.71	1740.77
279.93	1673.19
280.14	1695.72
280.36	1638.38
280.57	1804.26
280.79	1718.25
281.00	1615.85
281.22	1693.67
281.43	1724.39
281.65	1656.81
281.86	1636.33
282.08	1683.43
282.29	1730.53
282.51	1632.23
282.73	1591.27
282.94	1644.52
283.16	1677.29
283.37	1791.97
283.59	1660.90
283.80	1730.53
284.02	1671.14
284.23	1818.60
284.45	1730.53
284.66	1640.42
284.88	1599.46
285.09	1742.82
285.31	1738.73
285.52	1746.92
285.74	1595.37
285.95	1777.64
286.17	1759.21
286.38	1746.92
286.60	1628.14
286.81	1726.44
287.03	1640.42
287.24	1636.33
287.46	1687.53
287.67	1710.05
287.89	1804.26
288.10	1705.96
288.32	1785.83
288.53	1755.11
288.75	1714.15
288.96	1726.44
289.18	1720.29
289.39	1724.39
289.61	1685.48
289.82	1814.50
290.04	1767.40
290.25	1687.53
290.47	1716.20
290.68	1712.10
290.90	1753.06
291.11	1597.42
291.33	1763.30
291.54	1595.37
291.76	1605.61
291.97	1662.95
292.18	1710.05
292.40	1718.25
292.61	1714.15
292.83	1847.27
293.04	1673.19
293.26	1691.62
293.47	1714.15
293.69	1644.52
293.90	1683.43
294.12	1726.44
294.33	1730.53
294.55	1724.39
294.76	1759.21
294.97	1808.36
295.19	1871.84
295.40	1601.51
295.62	1701.86
295.83	1701.86
296.05	1705.96
296.26	1710.05
296.48	1675.24
296.69	1677.29
296.90	1648.61
297.12	1794.02
297.33	1783.78
297.55	1656.81
297.76	1757.16
297.98	1695.72
298.19	1677.29
298.41	1652.71
298.62	1589.22
298.83	1791.97
299.05	1728.49
299.26	1638.38
299.48	1734.63
299.69	1734.63
299.90	1646.57
300.12	1599.46
300.33	1708.01
300.55	1761.25
300.76	1738.73
300.98	1617.90
301.19	1677.29
301.40	1665.00
301.62	1636.33
301.83	1746.92
302.05	1728.49
302.26	1781.73
302.47	1767.40
302.69	1724.39
302.90	1744.87
303.12	1558.50
303.33	1714.15
303.54	1791.97
303.76	1728.49
303.97	1757.16
304.19	1828.84
304.40	1701.86
304.61	1720.29
304.83	1800.16
305.04	1765.35
305.26	1744.87
305.47	1624.04
305.68	1611.75
305.90	1650.66
306.11	1746.92
306.33	1654.76
306.54	1665.00
306.75	1652.71
306.97	1630.18
307.18	1621.99
307.39	1611.75
307.61	1763.30
307.82	1615.85
308.04	1781.73
308.25	1671.14
308.46	1724.39
308.68	1798.12
308.89	1687.53
309.10	1759.21
309.32	1619.94
309.53	1662.95
309.74	1757.16
309.96	1724.39
310.17	1777.64
310.39	1669.09
310.60	1722.34
310.81	1722.34
311.03	1638.38
311.24	1777.64
311.45	1673.19
311.67	1714.15
311.88	1693.67
312.09	1642.47
312.31	1640.42
312.52	1708.01
312.73	1658.85
312.95	1667.05
313.16	1619.94
313.37	1654.76
313.59	1822.69
313.80	1777.64
314.01	1767.40
314.23	1642.47
314.44	1708.01
314.65	1640.42
314.87	1607.66
315.08	1697.77
315.29	1646.57
315.51	1636.33
315.72	1681.38
315.93	1783.78
316.15	1703.91
316.36	1658.85
316.57	1695.72
316.79	1691.62
317.00	1654.76
317.21	1757.16
317.43	1691.62
317.64	1701.86
317.85	1640.42
318.07	1615.85
318.28	1738.73
318.49	1724.39
318.70	1961.95
318.92	1806.31
319.13	1855.46
319.34	1820.64
319.56	1740.77
319.77	1800.16
319.98	1720.29
320.20	1681.38
320.41	1714.15
320.62	1757.16
320.83	1683.43
321.05	1818.60
321.26	1705.96
321.47	1724.39
321.69	1783.78
321.90	1609.70
322.11	1675.24
322.32	1740.77
322.54	1748.97
322.75	1714.15
322.96	1804.26
323.18	1554.41
323.39	1699.81
323.60	1667.05
323.81	1791.97
324.03	1648.61
324.24	1718.25
324.45	1667.05
324.66	1705.96
324.88	1714.15
325.09	1806.31
325.30	1671.14
325.52	1730.53
325.73	1656.81
325.94	1599.46
326.15	1615.85
326.37	1708.01
326.58	1757.16
326.79	1712.10
327.00	1658.85
327.22	1708.01
327.43	1669.09
327.64	1636.33
327.85	1720.29
328.07	1675.24
328.28	1789.92
328.49	1648.61
328.70	1695.72
328.92	1712.10
329.13	1714.15
329.34	1669.09
329.55	1794.02
329.76	1689.57
329.98	1607.66
330.19	1783.78
330.40	1757.16
330.61	1724.39
330.83	1722.34
331.04	1679.33
331.25	1671.14
331.46	1667.05
331.68	1617.90
331.89	1701.86
332.10	1628.14
332.31	1689.57
332.52	1759.21
332.74	1800.16
332.95	1687.53
333.16	1732.58
333.37	1732.58
333.58	1714.15
333.80	1726.44
334.01	1648.61
334.22	1671.14
334.43	1619.94
334.64	1710.05
334.86	1630.18
335.07	1607.66
335.28	1806.31
335.49	1652.71
335.70	1751.01
335.92	1771.49
336.13	1800.16
336.34	1650.66
336.55	1763.30
336.76	1685.48
336.98	1566.70
337.19	1738.73
337.40	1794.02
337.61	1877.99
337.82	1695.72
338.04	1820.64
338.25	1617.90
338.46	1730.53
338.67	1675.24
338.88	1621.99
339.09	1624.04
339.31	1673.19
339.52	1656.81
339.73	1658.85
339.94	1716.20
340.15	1673.19
340.36	1621.99
340.58	1681.38
340.79	1646.57
341.00	1744.87
341.21	1679.33
341.42	1839.08
341.63	1755.11
341.85	1755.11
342.06	1624.04
342.27	1636.33
342.48	1685.48
342.69	1673.19
342.90	1716.20
343.12	1730.53
343.33	1667.05
343.54	1757.16
343.75	1771.49
343.96	1695.72
344.17	1677.29
344.38	1701.86
344.60	1607.66
344.81	1716.20
345.02	1714.15
345.23	1783.78
345.44	1732.58
345.65	1724.39
345.86	1742.82
346.07	1665.00
346.29	1738.73
346.50	1761.25
346.71	1705.96
346.92	1818.60
347.13	1810.40
347.34	1783.78
347.55	1665.00
347.76	1763.30
347.98	1679.33
348.19	1685.48
348.40	1718.25
348.61	1712.10
348.82	1808.36
349.03	1726.44
349.24	1634.28
349.45	1791.97
349.66	1617.90
349.88	1757.16
350.09	1624.04
350.30	1757.16
350.51	1761.25
350.72	1720.29
350.93	1718.25
351.14	1705.96
351.35	1771.49
351.56	1693.67
351.77	1705.96
351.99	1789.92
352.20	1783.78
352.41	1636.33
352.62	1646.57
352.83	1744.87
353.04	1804.26
353.25	1619.94
353.46	1763.30
353.67	1757.16
353.88	1544.17
354.09	1693.67
354.30	1728.49
354.52	1765.35
354.73	1722.34
354.94	1746.92
355.15	1667.05
355.36	1763.30
355.57	1630.18
355.78	1767.40
355.99	1675.24
356.20	1634.28
356.41	1791.97
356.62	1759.21
356.83	1673.19
357.04	1708.01
357.25	1599.46
357.46	1650.66
357.68	1648.61
357.89	1640.42
358.10	1714.15
358.31	1726.44
358.52	1751.01
358.73	1710.05
358.94	1683.43
359.15	1695.72
359.36	1796.07
359.57	1624.04
359.78	1695.72
359.99	1675.24
360.20	1695.72
360.41	1611.75
360.62	1640.42
360.83	1693.67
361.04	1660.90
361.25	1677.29
361.46	1755.11
361.67	1665.00
361.88	1802.21
362.09	1701.86
362.30	1675.24
362.51	1656.81
362.72	1667.05
362.93	1671.14
363.14	1732.58
363.35	1765.35
363.56	1630.18
363.78	1810.40
363.99	1693.67
364.20	1697.77
364.41	1726.44
364.62	1740.77
364.83	1636.33
365.04	1769.44
365.25	1660.90
365.46	1857.51
365.67	1642.47
365.88	1611.75
366.09	1681.38
366.30	1734.63
366.51	1693.67
366.72	1662.95
366.93	1699.81
367.14	1689.57
367.35	1800.16
367.56	1726.44
367.77	1781.73
367.98	1734.63
368.18	1753.06
368.39	1677.29
368.60	1624.04
368.81	1687.53
369.02	1671.14
369.23	1708.01
369.44	1636.33
369.65	1648.61
369.86	1699.81
370.07	1777.64
370.28	1718.25
370.49	1660.90
370.70	1712.10
370.91	1648.61
371.12	1677.29
371.33	1718.25
371.54	1613.80
371.75	1746.92
371.96	1583.08
372.17	1689.57
372.38	1656.81
372.59	1746.92
372.80	1691.62
373.01	1693.67
373.22	1710.05
373.43	1640.42
373.64	1730.53
373.85	1740.77
374.06	1685.48
374.26	1732.58
374.47	1767.40
374.68	1806.31
374.89	1753.06
375.10	1621.99
375.31	1798.12
375.52	1808.36
375.73	1665.00
375.94	1640.42
376.15	1734.63
376.36	1685.48
376.57	1697.77
376.78	1667.05
376.99	1716.20
377.20	1832.93
377.40	1689.57
377.61	1724.39
377.82	1624.04
378.03	1732.58
378.24	1742.82
378.45	1640.42
378.66	1677.29
378.87	1595.37
379.08	1597.42
379.29	1673.19
379.50	1769.44
379.71	1687.53
379.91	1740.77
380.12	1738.73
380.33	1708.01
380.54	1718.25
380.75	1693.67
380.96	1691.62
381.17	1665.00
381.38	1724.39
381.59	1705.96
381.80	1751.01
382.00	1808.36
382.21	1691.62
382.42	1794.02
382.63	1869.80
382.84	1695.72
383.05	1710.05
383.26	1830.88
383.47	1716.20
383.68	1757.16
383.88	1722.34
384.09	1687.53
384.30	1779.68
384.51	1755.11
384.72	1665.00
384.93	1646.57
385.14	1669.09
385.35	1681.38
385.55	1589.22
385.76	1769.44
385.97	1675.24
386.18	1624.04
386.39	1681.38
386.60	1675.24
386.81	1710.05
387.02	1636.33
387.22	1638.38
387.43	1738.73
387.64	1785.83
387.85	1796.07
388.06	2254.81
388.27	4349.89
388.48	6924.18
388.68	8361.86
388.89	9707.37
389.10	9815.91
389.31	8726.39
389.52	7708.55
389.73	6698.91
389.93	6260.64
390.14	6096.80
390.35	5240.75
390.56	4599.74
390.77	3903.43
390.98	3045.33
391.18	2451.42
391.39	2105.31
391.60	1847.27
391.81	1832.93
392.02	1740.77
392.23	1843.17
392.43	1730.53
392.64	1863.65
392.85	1718.25
393.06	1744.87
393.27	1732.58
393.47	1652.71
393.68	1640.42
393.89	1669.09
394.10	1728.49
394.31	1732.58
394.52	1718.25
394.72	1699.81
394.93	1824.74
395.14	1613.80
395.35	1746.92
395.56	1724.39
395.76	1712.10
395.97	1763.30
396.18	1841.12
396.39	1740.77
396.60	2007.01
396.80	1927.14
397.01	1812.45
397.22	1828.84
397.43	1884.13
397.64	1710.05
397.84	1738.73
398.05	1890.28
398.26	1708.01
398.47	1804.26
398.67	1746.92
398.88	1628.14
399.09	1714.15
399.30	1691.62
399.51	1703.91
399.71	1699.81
399.92	1632.23
400.13	1714.15
400.34	1660.90
400.54	1703.91
400.75	1787.88
400.96	1779.68
401.17	1787.88
401.37	1791.97
401.58	1767.40
401.79	1697.77
402.00	1920.99
402.21	2050.02
402.41	1925.09
402.62	1925.09
402.83	2013.15
403.04	2007.01
403.24	2064.35
403.45	1806.31
403.66	1820.64
403.87	1855.46
404.07	1918.95
404.28	1931.23
404.49	1867.75
404.70	1761.25
404.90	1714.15
405.11	1796.07
405.32	1767.40
405.52	1650.66
405.73	1683.43
405.94	1728.49
406.15	1738.73
406.35	1726.44
406.56	1673.19
406.77	1789.92
406.98	1689.57
407.18	1624.04
407.39	1853.41
407.60	1656.81
407.80	1656.81
408.01	1687.53
408.22	1742.82
408.43	1632.23
408.63	1681.38
408.84	1759.21
409.05	1687.53
409.25	1638.38
409.46	1683.43
409.67	1685.48
409.88	1708.01
410.08	1683.43
410.29	1644.52
410.50	1689.57
410.70	1775.59
410.91	1677.29
411.12	1714.15
411.32	1654.76
411.53	1697.77
411.74	1918.95
411.95	1800.16
412.15	1710.05
412.36	1759.21
412.57	1708.01
412.77	1748.97
412.98	1767.40
413.19	1746.92
413.39	1742.82
413.60	1687.53
413.81	1791.97
414.01	1619.94
414.22	1677.29
414.43	1681.38
414.63	1767.40
414.84	1787.88
415.05	1667.05
415.25	1669.09
415.46	1806.31
415.67	1660.90
415.87	1691.62
416.08	1687.53
416.29	1624.04
416.49	1753.06
416.70	1734.63
416.91	1724.39
417.11	1656.81
417.32	1720.29
417.53	1673.19
417.73	1732.58
417.94	1697.77
418.15	1740.77
418.35	1656.81
418.56	1773.54
418.77	1861.60
418.97	1665.00
419.18	1742.82
419.38	1603.56
419.59	1677.29
419.80	1804.26
420.00	1658.85
420.21	1650.66
420.42	1755.11
420.62	1783.78
420.83	1624.04
421.04	1710.05
421.24	1677.29
421.45	1742.82
421.65	1712.10
421.86	1644.52
422.07	1744.87
422.27	1689.57
422.48	1730.53
422.69	1683.43
422.89	1662.95
423.10	1667.05
423.30	1624.04
423.51	1685.48
423.72	1726.44
423.92	1765.35
424.13	1632.23
424.33	1689.57
424.54	1753.06
424.75	1691.62
424.95	1779.68
425.16	1812.45
425.36	1720.29
425.57	1759.21
425.78	1689.57
425.98	1865.70
426.19	1669.09
426.39	1673.19
426.60	1683.43
426.81	1757.16
427.01	1714.15
427.22	1701.86
427.42	1621.99
427.63	1595.37
427.83	1681.38
428.04	1796.07
428.25	1832.93
428.45	1796.07
428.66	1712.10
428.86	1667.05
429.07	1656.81
429.28	1740.77
429.48	1652.71
429.69	1648.61
429.89	1720.29
430.10	1669.09
430.30	1734.63
430.51	1783.78
430.71	1716.20
430.92	1691.62
431.13	1697.77
431.33	1681.38
431.54	1779.68
431.74	1853.41
431.95	1857.51
432.15	1658.85
432.36	1650.66
432.56	1763.30
432.77	1814.50
432.98	1839.08
433.18	1722.34
433.39	1636.33
433.59	1611.75
433.80	1816.55
434.00	1808.36
434.21	1724.39
434.41	1710.05
434.62	1818.60
434.82	1689.57
435.03	1640.42
435.23	1759.21
435.44	1556.46
435.64	1710.05
435.85	1724.39
436.06	1714.15
436.26	1708.01
436.47	1665.00
436.67	1718.25
436.88	1656.81
437.08	1710.05
437.29	1820.64
437.49	1746.92
437.70	1775.59
437.90	1753.06
438.11	1826.79
438.31	1841.12
438.52	1851.36
438.72	1845.22
438.93	1888.23
439.13	1787.88
439.34	1802.21
439.54	1753.06
439.75	1734.63
439.95	1781.73
440.16	1742.82
440.36	1816.55
440.57	1755.11
440.77	1628.14
440.98	1703.91
441.18	1779.68
441.39	1665.00
441.59	1658.85
441.80	1767.40
442.00	1800.16
442.21	1785.83
442.41	1673.19
442.62	1841.12
442.82	1683.43
443.02	1724.39
443.23	1755.11
443.43	1697.77
443.64	1869.80
443.84	1751.01
444.05	1814.50
444.25	1746.92
444.46	1748.97
444.66	1669.09
444.87	1798.12
445.07	1562.60
445.28	1802.21
445.48	1779.68
445.69	1812.45
445.89	1884.13
446.09	1740.77
446.30	1986.53
446.50	2611.16
446.71	3788.74
446.91	4288.45
447.12	4863.93
447.32	4827.06
447.53	4294.59
447.73	3938.24
447.93	3516.36
448.14	3395.53
448.34	3266.51
448.55	2967.51
448.75	2815.96
448.96	2738.13
449.16	2443.23
449.36	2295.77
449.57	2074.59
449.77	1867.75
449.98	1837.03
450.18	1759.21
450.39	1771.49
450.59	1779.68
450.79	1751.01
451.00	1714.15
451.20	1810.40
451.41	1740.77
451.61	1687.53
451.81	1724.39
452.02	1648.61
452.22	1660.90
452.43	1763.30
452.63	1667.05
452.84	1771.49
453.04	1779.68
453.24	1738.73
453.45	1681.38
453.65	1714.15
453.86	1730.53
454.06	1800.16
454.26	1740.77
454.47	1689.57
454.67	1812.45
454.87	1716.20
455.08	1814.50
455.28	1855.46
455.49	1777.64
455.69	1685.48
455.89	1853.41
456.10	1734.63
456.30	1679.33
456.51	1701.86
456.71	1712.10
456.91	1757.16
457.12	1763.30
457.32	1775.59
457.52	1611.75
457.73	1820.64
457.93	1771.49
458.14	1757.16
458.34	1640.42
458.54	1677.29
458.75	1665.00
458.95	1755.11
459.15	1800.16
459.36	1751.01
459.56	1738.73
459.76	1853.41
459.97	1748.97
460.17	1767.40
460.37	1796.07
460.58	1779.68
460.78	1806.31
460.99	1693.67
461.19	1732.58
461.39	1703.91
461.60	1691.62
461.80	1716.20
462.00	1646.57
462.21	1738.73
462.41	1648.61
462.61	1716.20
462.82	1636.33
463.02	1699.81
463.22	1722.34
463.43	1783.78
463.63	1724.39
463.83	1806.31
464.04	1783.78
464.24	1718.25
464.44	1714.15
464.64	1734.63
464.85	1742.82
465.05	1757.16
465.25	1648.61
465.46	1746.92
465.66	1716.20
465.86	1755.11
466.07	1720.29
466.27	1695.72
466.47	1667.05
466.68	1710.05
466.88	1853.41
467.08	1785.83
467.29	1822.69
467.49	1701.86
467.69	1673.19
467.89	1738.73
468.10	1734.63
468.30	1748.97
468.50	1777.64
468.71	1730.53
468.91	1677.29
469.11	1806.31
469.31	1751.01
469.52	1619.94
469.72	1820.64
469.92	1824.74
470.13	1689.57
470.33	1705.96
470.53	1763.30
470.73	2086.88
470.94	2316.25
471.14	2297.82
471.34	2461.66
471.54	2432.99
471.75	2220.00
471.95	2105.31
472.15	2035.68
472.36	2105.31
472.56	2043.87
472.76	2017.25
472.96	1900.52
473.17	1986.53
473.37	1884.13
473.57	1824.74
473.77	1849.32
473.98	1689.57
474.18	1712.10
474.38	1923.04
474.58	1720.29
474.79	1705.96
474.99	1787.88
475.19	1779.68
475.39	1691.62
475.60	1615.85
475.80	1689.57
476.00	1626.09
476.20	1746.92
476.41	1755.11
476.61	1738.73
476.81	1849.32
477.01	1662.95
477.21	1820.64
477.42	1857.51
477.62	1632.23
477.82	1746.92
478.02	1697.77
478.23	1816.55
478.43	1689.57
478.63	1693.67
478.83	1644.52
479.03	1720.29
479.24	1763.30
479.44	1849.32
479.64	1701.86
479.84	1656.81
480.04	1642.47
480.25	1818.60
480.45	1638.38
480.65	1708.01
480.85	1789.92
481.06	1708.01
481.26	1730.53
481.46	1730.53
481.66	1757.16
481.86	1677.29
482.06	1773.54
482.27	1683.43
482.47	1746.92
482.67	1746.92
482.87	1712.10
483.07	1755.11
483.28	1646.57
483.48	1650.66
483.68	1751.01
483.88	1650.66
484.08	1601.51
484.29	1624.04
484.49	1691.62
484.69	1667.05
484.89	1824.74
485.09	1761.25
485.29	1691.62
485.50	1779.68
485.70	1570.79
485.90	1787.88
486.10	1730.53
486.30	1746.92
486.50	1746.92
486.71	1691.62
486.91	1734.63
487.11	1796.07
487.31	1677.29
487.51	1732.58
487.71	1681.38
487.91	1636.33
488.12	1650.66
488.32	1587.18
488.52	1722.34
488.72	1652.71
488.92	1654.76
489.12	1771.49
489.32	1722.34
489.53	1771.49
489.73	1710.05
489.93	1714.15
490.13	1683.43
490.33	1691.62
490.53	1755.11
490.73	1738.73
490.94	1650.66
491.14	1744.87
491.34	1849.32
491.54	2107.36
491.74	2588.63
491.94	2918.36
492.14	3108.82
492.34	3045.33
492.54	2803.67
492.75	2527.19
492.95	2496.47
493.15	2334.68
493.35	2273.25
493.55	2164.70
493.75	2148.32
493.95	2138.08
494.15	2025.44
494.35	1992.67
494.56	1791.97
494.76	1773.54
494.96	1773.54
495.16	1787.88
495.36	1710.05
495.56	1740.77
495.76	1703.91
495.96	1644.52
496.16	1650.66
496.36	1816.55
496.56	1728.49
496.77	1755.11
496.97	1767.40
497.17	1740.77
497.37	1632.23
497.57	1767.40
497.77	1726.44
497.97	1665.00
498.17	1775.59
498.37	1607.66
498.57	1712.10
498.77	1685.48
498.97	1785.83
499.17	1861.60
499.38	1751.01
499.58	1777.64
499.78	1738.73
499.98	1736.68
500.18	1720.29
500.38	1724.39
500.58	1941.47
500.78	2574.30
500.98	4650.94
501.18	5785.51
501.38	6895.51
501.58	7038.87
501.78	6578.08
501.98	5642.15
502.18	4951.99
502.38	4501.44
502.58	4196.29
502.78	3796.93
502.98	3758.02
503.18	3499.98
503.38	3205.07
503.59	2875.35
503.79	2691.03
503.99	2516.95
504.19	2365.40
504.39	2166.75
504.59	2189.28
504.79	2097.12
504.99	2109.41
505.19	1914.85
505.39	1861.60
505.59	1935.33
505.79	1923.04
505.99	1867.75
506.19	1818.60
506.39	1947.62
506.59	1701.86
506.79	1689.57
506.99	1839.08
507.19	1787.88
507.39	1763.30
507.59	1675.24
507.79	1656.81
507.99	1710.05
508.19	1726.44
508.39	1689.57
508.59	1693.67
508.79	1855.46
508.99	1806.31
509.19	1665.00
509.39	1748.97
509.59	1673.19
509.79	1683.43
509.99	1755.11
510.19	1708.01
510.39	1759.21
510.59	1636.33
510.79	1691.62
510.99	1714.15
511.19	1701.86
511.39	1880.04
511.59	1777.64
511.79	1837.03
511.99	1726.44
512.19	1800.16
512.38	1748.97
512.58	1673.19
512.78	1689.57
512.98	1783.78
513.18	1855.46
513.38	1671.14
513.58	1738.73
513.78	1714.15
513.98	1613.80
514.18	1722.34
514.38	1648.61
514.58	1699.81
514.78	1726.44
514.98	1673.19
515.18	1636.33
515.38	1703.91
515.58	1841.12
515.78	1757.16
515.98	1665.00
516.18	1806.31
516.38	1716.20
516.57	1753.06
516.77	1724.39
516.97	1734.63
517.17	1716.20
517.37	1611.75
517.57	1708.01
517.77	1734.63
517.97	1726.44
518.17	1759.21
518.37	1722.34
518.57	1714.15
518.77	1697.77
518.97	1781.73
519.16	1695.72
519.36	1839.08
519.56	1638.38
519.76	1703.91
519.96	1703.91
520.16	1804.26
520.36	1697.77
520.56	1804.26
520.76	1726.44
520.96	1677.29
521.16	1796.07
521.35	1769.44
521.55	1828.84
521.75	1697.77
521.95	1685.48
522.15	1724.39
522.35	1685.48
522.55	1712.10
522.75	1789.92
522.95	1781.73
523.14	1773.54
523.34	1736.68
523.54	1724.39
523.74	1808.36
523.94	1759.21
524.14	1681.38
524.34	1736.68
524.54	1814.50
524.73	1785.83
524.93	1755.11
525.13	1683.43
525.33	1687.53
525.53	1847.27
525.73	1748.97
525.93	1675.24
526.13	1771.49
526.32	1726.44
526.52	1841.12
526.72	1736.68
526.92	1708.01
527.12	1720.29
527.32	1675.24
527.52	1720.29
527.71	1736.68
527.91	1710.05
528.11	1708.01
528.31	1693.67
528.51	1662.95
528.71	1685.48
528.90	1775.59
529.10	1804.26
529.30	1832.93
529.50	1587.18
529.70	1738.73
529.90	1673.19
530.09	1751.01
530.29	1615.85
530.49	1677.29
530.69	1890.28
530.89	1710.05
531.09	1787.88
531.28	1591.27
531.48	1828.84
531.68	1720.29
531.88	1781.73
532.08	1787.88
532.28	1748.97
532.47	1771.49
532.67	1794.02
532.87	1740.77
533.07	1703.91
533.27	1755.11
533.46	1783.78
533.66	1679.33
533.86	1773.54
534.06	1677.29
534.26	1800.16
534.45	1771.49
534.65	1779.68
534.85	1714.15
535.05	1730.53
535.25	1732.58
535.44	1609.70
535.64	1800.16
535.84	1695.72
536.04	1742.82
536.24	1705.96
536.43	1636.33
536.63	1746.92
536.83	1783.78
537.03	1755.11
537.22	1603.56
537.42	1628.14
537.62	1734.63
537.82	1656.81
538.02	1843.17
538.21	1779.68
538.41	1892.32
538.61	1783.78
538.81	1708.01
539.00	1818.60
539.20	1597.42
539.40	1662.95
539.60	1796.07
539.79	1837.03
539.99	1687.53
540.19	1767.40
540.39	1808.36
540.58	1769.44
540.78	1818.60
540.98	1732.58
541.18	1816.55
541.37	1779.68
541.57	1662.95
541.77	1722.34
541.97	1646.57
542.16	1624.04
542.36	1767.40
542.56	1691.62
542.76	1826.79
542.95	1763.30
543.15	1658.85
543.35	1683.43
543.54	1683.43
543.74	1660.90
543.94	1773.54
544.14	1658.85
544.33	1781.73
544.53	1714.15
544.73	1722.34
544.93	1679.33
545.12	1732.58
545.32	1742.82
545.52	1734.63
545.71	1691.62
545.91	1703.91
546.11	1708.01
546.30	1667.05
546.50	1665.00
546.70	1796.07
546.90	1734.63
547.09	1683.43
547.29	1808.36
547.49	1783.78
547.68	1757.16
547.88	1697.77
548.08	1773.54
548.27	2174.94
548.47	1701.86
548.67	1746.92
548.87	1742.82
549.06	1710.05
549.26	1785.83
549.46	1806.31
549.65	1658.85
549.85	1763.30
550.05	1757.16
550.24	1667.05
550.44	1718.25
550.64	1701.86
550.83	1722.34
551.03	1810.40
551.23	1824.74
551.42	1736.68
551.62	1763.30
551.82	1734.63
552.01	1689.57
552.21	1775.59
552.41	1755.11
552.60	1783.78
552.80	1759.21
553.00	1724.39
553.19	1763.30
553.39	1804.26
553.59	1708.01
553.78	1845.22
553.98	1744.87
554.17	1714.15
554.37	1714.15
554.57	1738.73
554.76	1740.77
554.96	1624.04
555.16	1720.29
555.35	1753.06
555.55	1687.53
555.75	1837.03
555.94	1695.72
556.14	1615.85
556.33	1708.01
556.53	1695.72
556.73	1705.96
556.92	1695.72
557.12	1824.74
557.32	1826.79
557.51	1841.12
557.71	1787.88
557.90	1845.22
558.10	1843.17
558.30	1730.53
558.49	1777.64
558.69	1665.00
558.88	1720.29
559.08	1791.97
559.28	1697.77
559.47	1714.15
559.67	1691.62
559.86	1841.12
560.06	1777.64
560.26	1671.14
560.45	1753.06
560.65	1710.05
560.84	1861.60
561.04	1615.85
561.24	1781.73
561.43	1689.57
561.63	1845.22
561.82	1806.31
562.02	1769.44
562.22	1685.48
562.41	1679.33
562.61	1773.54
562.80	1730.53
563.00	1853.41
563.19	1804.26
563.39	1773.54
563.59	1710.05
563.78	1644.52
563.98	1685.48
564.17	1697.77
564.37	1624.04
564.56	1771.49
564.76	1656.81
564.96	1791.97
565.15	1687.53
565.35	1818.60
565.54	1732.58
565.74	1806.31
565.93	1748.97
566.13	1677.29
566.32	1761.25
566.52	1794.02
566.71	1716.20
566.91	1757.16
567.11	1769.44
567.30	1679.33
567.50	1781.73
567.69	1765.35
567.89	1796.07
568.08	1708.01
568.28	1736.68
568.47	1587.18
568.67	1767.40
568.86	1755.11
569.06	1726.44
569.25	1755.11
569.45	1660.90
569.64	1722.34
569.84	1712.10
570.04	1763.30
570.23	1703.91
570.43	1755.11
570.62	1724.39
570.82	1822.69
571.01	1724.39
571.21	1697.77
571.40	1677.29
571.60	1724.39
571.79	1689.57
571.99	1740.77
572.18	1677.29
572.38	1818.60
572.57	1722.34
572.77	1783.78
572.96	1843.17
573.16	1705.96
573.35	1693.67
573.55	1814.50
573.74	1767.40
573.94	1783.78
574.13	1714.15
574.33	1740.77
574.52	1812.45
574.71	1714.15
574.91	1759.21
575.10	1769.44
575.30	1714.15
575.49	1648.61
575.69	1736.68
575.88	1730.53
576.08	1683.43
576.27	1802.21
576.47	1755.11
576.66	1828.84
576.86	1806.31
577.05	1798.12
577.25	1763.30
577.44	1855.46
577.64	1607.66
577.83	1761.25
578.02	1703.91
578.22	1859.56
578.41	1826.79
578.61	1765.35
578.80	1730.53
579.00	1771.49
579.19	1703.91
579.39	1781.73
579.58	1759.21
579.77	1748.97
579.97	1789.92
580.16	1871.84
580.36	1822.69
580.55	1830.88
580.75	1720.29
580.94	1703.91
581.13	1853.41
581.33	1791.97
581.52	1689.57
581.72	1804.26
581.91	1920.99
582.11	1724.39
582.30	1812.45
582.49	1816.55
582.69	1771.49
582.88	1820.64
583.08	1781.73
583.27	1837.03
583.47	1767.40
583.66	1710.05
583.85	1673.19
584.05	1732.58
584.24	1757.16
584.44	1753.06
584.63	1773.54
584.82	1855.46
585.02	1800.16
585.21	1863.65
585.41	1904.61
585.60	1783.78
585.79	1955.81
585.99	1871.84
586.18	1830.88
586.37	2252.77
586.57	3401.68
586.76	10116.97
586.96	24960.64
587.15	35313.13
587.34	41463.18
587.54	42849.65
587.73	37064.14
587.93	26740.33
588.12	21857.97
588.31	18611.94
588.51	16703.23
588.70	15251.22
588.89	14466.85
589.09	12646.21
589.28	11294.55
589.47	9639.79
589.67	7923.59
589.86	6559.64
590.06	5105.59
590.25	3964.87
590.44	3114.96
590.64	2602.97
590.83	2281.44
591.02	2093.02
591.22	1904.61
591.41	1918.95
591.60	1775.59
591.80	1902.56
591.99	1777.64
592.18	1806.31
592.38	1818.60
592.57	1738.73
592.76	1767.40
592.96	1679.33
593.15	1775.59
593.34	1800.16
593.54	1740.77
593.73	1761.25
593.92	1761.25
594.12	1763.30
594.31	1800.16
594.50	1828.84
594.70	1744.87
594.89	1906.66
595.08	1675.24
595.28	1822.69
595.47	1824.74
595.66	1794.02
595.86	1681.38
596.05	1662.95
596.24	1761.25
596.43	1771.49
596.63	1757.16
596.82	1724.39
597.01	1669.09
597.21	1886.18
597.40	1787.88
597.59	1710.05
597.79	1730.53
597.98	1759.21
598.17	1712.10
598.36	1753.06
598.56	1701.86
598.75	1675.24
598.94	1759.21
599.14	1769.44
599.33	1740.77
599.52	1718.25
599.71	1740.77
599.91	1728.49
600.10	1806.31
600.29	1746.92
600.48	1763.30
600.68	1800.16
600.87	1722.34
601.06	1640.42
601.26	1736.68
601.45	1734.63
601.64	1738.73
601.83	1888.23
602.03	1712.10
602.22	1714.15
602.41	1810.40
602.60	1855.46
602.80	1824.74
602.99	1748.97
603.18	1695.72
603.37	1767.40
603.57	1708.01
603.76	1695.72
603.95	1830.88
604.14	1708.01
604.34	1730.53
604.53	1689.57
604.72	1722.34
604.91	1796.07
605.10	1767.40
605.30	1683.43
605.49	1822.69
605.68	1755.11
605.87	1796.07
606.07	1665.00
606.26	1722.34
606.45	1769.44
606.64	1775.59
606.84	1685.48
607.03	1714.15
607.22	1802.21
607.41	1710.05
607.60	1689.57
607.80	1812.45
607.99	1724.39
608.18	1708.01
608.37	1660.90
608.56	1699.81
608.76	1775.59
608.95	1832.93
609.14	1744.87
609.33	1740.77
609.52	1759.21
609.72	1669.09
609.91	1767.40
610.10	1712.10
610.29	1814.50
610.48	1787.88
610.68	1751.01
610.87	1673.19
611.06	1748.97
611.25	1763.30
611.44	1779.68
611.63	1716.20
611.83	1691.62
612.02	1681.38
612.21	1781.73
612.40	1636.33
612.59	1697.77
612.79	1701.86
612.98	1779.68
613.17	1890.28
613.36	1726.44
613.55	1798.12
613.74	1660.90
613.93	1742.82
614.13	1675.24
614.32	1822.69
614.51	1751.01
614.70	1708.01
614.89	1705.96
615.08	1718.25
615.28	2025.44
615.47	1603.56
615.66	1712.10
615.85	1675.24
616.04	1806.31
616.23	1787.88
616.42	1685.48
616.62	1697.77
616.81	1775.59
617.00	1796.07
617.19	1794.02
617.38	1669.09
617.57	1638.38
617.76	1771.49
617.95	1794.02
618.15	1736.68
618.34	1730.53
618.53	1689.57
618.72	1738.73
618.91	1783.78
619.10	1814.50
619.29	1726.44
619.48	1701.86
619.68	1683.43
619.87	1691.62
620.06	1667.05
620.25	1720.29
620.44	1652.71
620.63	1699.81
620.82	1679.33
621.01	1732.58
621.20	1683.43
621.39	1751.01
621.59	1728.49
621.78	1665.00
621.97	1720.29
622.16	1748.97
622.35	1720.29
622.54	1771.49
622.73	1697.77
622.92	1665.00
623.11	1757.16
623.30	1613.80
623.49	1834.98
623.68	1716.20
623.88	1785.83
624.07	1751.01
624.26	1767.40
624.45	1701.86
624.64	1798.12
624.83	1746.92
625.02	1681.38
625.21	1736.68
625.40	1794.02
625.59	1785.83
625.78	1744.87
625.97	1767.40
626.16	1757.16
626.35	1816.55
626.54	1669.09
626.74	1783.78
626.93	1734.63
627.12	1705.96
627.31	1757.16
627.50	1689.57
627.69	1771.49
627.88	1687.53
628.07	1689.57
628.26	1677.29
628.45	1744.87
628.64	1683.43
628.83	1683.43
629.02	1683.43
629.21	1787.88
629.40	1693.67
629.59	1599.46
629.78	1783.78
629.97	1777.64
630.16	1722.34
630.35	1714.15
630.54	1736.68
630.73	1683.43
630.92	1695.72
631.11	1665.00
631.30	1722.34
631.49	1759.21
631.68	1726.44
631.87	1699.81
632.06	1673.19
632.25	1826.79
632.44	1699.81
632.63	1699.81
632.82	1710.05
633.01	1630.18
633.20	1667.05
633.39	1634.28
633.58	1634.28
633.77	1728.49
633.96	1697.77
634.15	1738.73
634.34	1753.06
634.53	1720.29
634.72	1695.72
634.91	1632.23
635.10	1748.97
635.29	1769.44
635.48	1683.43
635.67	1648.61
635.86	1583.08
636.05	1851.36
636.24	1718.25
636.43	1804.26
636.62	1746.92
636.81	1546.22
637.00	1755.11
637.19	1738.73
637.38	1734.63
637.57	1742.82
637.76	1718.25
637.95	1751.01
638.14	1632.23
638.33	1693.67
638.52	1650.66
638.71	1656.81
638.89	1601.51
639.08	1845.22
639.27	1730.53
639.46	1685.48
639.65	1728.49
639.84	1714.15
640.03	1689.57
640.22	1644.52
640.41	1755.11
640.60	1656.81
640.79	1777.64
640.98	1728.49
641.17	1732.58
641.36	1769.44
641.55	1685.48
641.74	1685.48
641.92	1681.38
642.11	1652.71
642.30	1718.25
642.49	1660.90
642.68	1685.48
642.87	1712.10
643.06	1744.87
643.25	1685.48
643.44	1708.01
643.63	1736.68
643.82	1763.30
644.00	1650.66
644.19	1615.85
644.38	1621.99
644.57	1724.39
644.76	1724.39
644.95	1722.34
645.14	1701.86
645.33	1681.38
645.52	1662.95
645.71	1636.33
645.89	1650.66
646.08	1675.24
646.27	1677.29
646.46	1828.84
646.65	1554.41
646.84	1753.06
647.03	1632.23
647.22	1892.32
647.40	1748.97
647.59	1730.53
647.78	1673.19
647.97	1673.19
648.16	1703.91
648.35	1714.15
648.54	1730.53
648.73	1716.20
648.91	1779.68
649.10	1757.16
649.29	1724.39
649.48	1753.06
649.67	1728.49
649.86	1716.20
650.05	1660.90
650.23	1738.73
650.42	1648.61
650.61	1759.21
650.80	1705.96
650.99	1837.03
651.18	1796.07
651.36	1716.20
651.55	1720.29
651.74	1722.34
651.93	1679.33
652.12	1656.81
652.31	1720.29
652.49	1679.33
652.68	1693.67
652.87	1740.77
653.06	1734.63
653.25	1751.01
653.44	1714.15
653.62	1800.16
653.81	1675.24
654.00	1728.49
654.19	1769.44
654.38	1849.32
654.56	1738.73
654.75	1662.95
654.94	1789.92
655.13	1708.01
655.32	1679.33
655.51	1744.87
655.69	1693.67
655.88	1751.01
656.07	1687.53
656.26	1759.21
656.45	1644.52
656.63	1660.90
656.82	1708.01
657.01	1736.68
657.20	1644.52
657.38	1787.88
657.57	1744.87
657.76	1648.61
657.95	1781.73
658.14	1726.44
658.32	1691.62
658.51	1673.19
658.70	1771.49
658.89	1789.92
659.08	1673.19
659.26	1748.97
659.45	1607.66
659.64	1736.68
659.83	1671.14
660.01	1882.08
660.20	1742.82
660.39	1714.15
660.58	1603.56
660.76	1722.34
660.95	1591.27
661.14	1746.92
661.33	1642.47
661.51	1671.14
661.70	1755.11
661.89	1796.07
662.08	1804.26
662.26	1658.85
662.45	1705.96
662.64	1857.51
662.83	1677.29
663.01	1583.08
663.20	1771.49
663.39	1667.05
663.58	1693.67
663.76	1720.29
663.95	1691.62
664.14	1751.01
664.32	1748.97
664.51	1759.21
664.70	1552.36
664.89	1763.30
665.07	1677.29
665.26	1853.41
665.45	1671.14
665.64	1751.01
665.82	1679.33
666.01	1716.20
666.20	1740.77
666.38	1849.32
666.57	1728.49
666.76	2156.51
666.95	4530.11
667.13	10581.85
667.32	15458.07
667.51	18122.48
667.69	19162.84
667.88	17880.82
668.07	12652.35
668.25	9785.19
668.44	8314.75
668.63	7550.86
668.81	6799.26
669.00	6338.46
669.19	5869.48
669.38	5121.97
669.56	4679.61
669.75	4026.31
669.94	3495.88
670.12	2910.16
670.31	2576.34
670.50	2281.44
670.68	2105.31
670.87	1863.65
671.06	1855.46
671.24	1783.78
671.43	1816.55
671.62	1697.77
671.80	1673.19
671.99	1740.77
672.18	1685.48
672.36	1845.22
672.55	1689.57
672.74	1757.16
672.92	1693.67
673.11	1712.10
673.29	1691.62
673.48	1800.16
673.67	1712.10
673.85	1873.89
674.04	1658.85
674.23	1677.29
674.41	1810.40
674.60	1630.18
674.79	1634.28
674.97	1652.71
675.16	1751.01
675.34	1742.82
675.53	1650.66
675.72	1765.35
675.90	1804.26
676.09	1712.10
676.28	1771.49
676.46	1587.18
676.65	1759.21
676.83	1728.49
677.02	1728.49
677.21	1714.15
677.39	1730.53
677.58	1615.85
677.77	1599.46
677.95	1675.24
678.14	1646.57
678.32	1779.68
678.51	1634.28
678.70	1830.88
678.88	1636.33
679.07	1697.77
679.25	1738.73
679.44	1712.10
679.63	1601.51
679.81	1732.58
680.00	1775.59
680.18	1710.05
680.37	1810.40
680.55	1701.86
680.74	1654.76
680.93	1634.28
681.11	1732.58
681.30	1722.34
681.48	1800.16
681.67	1648.61
681.85	1718.25
682.04	1710.05
682.23	1730.53
682.41	1779.68
682.60	1660.90
682.78	1646.57
682.97	1650.66
683.15	1685.48
683.34	1669.09
683.53	1755.11
683.71	1669.09
683.90	1839.08
684.08	1716.20
684.27	1722.34
684.45	1736.68
684.64	1798.12
684.82	1624.04
685.01	1714.15
685.19	1675.24
685.38	1826.79
685.57	1746.92
685.75	1615.85
685.94	1738.73
686.12	1630.18
686.31	1716.20
686.49	1814.50
686.68	1613.80
686.86	1714.15
687.05	1691.62
687.23	1755.11
687.42	1632.23
687.60	1626.09
687.79	1689.57
687.97	1746.92
688.16	1712.10
688.34	1656.81
688.53	1665.00
688.71	1744.87
688.90	1806.31
689.08	1763.30
689.27	1665.00
689.45	1767.40
689.64	1779.68
689.82	1765.35
690.01	1761.25
690.19	1753.06
690.38	1777.64
690.56	1775.59
690.75	1624.04
690.93	1695.72
691.12	1705.96
691.30	1798.12
691.49	1662.95
691.67	1732.58
691.86	1812.45
692.04	1636.33
692.23	1621.99
692.41	1726.44
692.60	1851.36
692.78	1830.88
692.97	1738.73
693.15	1669.09
693.34	1834.98
693.52	1767.40
693.71	1667.05
693.89	1658.85
694.08	1607.66
694.26	1773.54
694.44	1738.73
694.63	1732.58
694.81	1660.90
695.00	1701.86
695.18	1732.58
695.37	1880.04
695.55	1757.16
695.74	1710.05
695.92	1751.01
696.10	1839.08
696.29	1617.90
696.47	1660.90
696.66	1585.13
696.84	1613.80
697.03	1697.77
697.21	1902.56
697.40	2353.12
697.58	1761.25
697.76	1636.33
697.95	1685.48
698.13	1683.43
698.32	1673.19
698.50	1734.63
698.68	1773.54
698.87	1673.19
699.05	1761.25
699.24	1677.29
699.42	1605.61
699.61	1677.29
699.79	1730.53
699.97	1734.63
700.16	1667.05
700.34	1665.00
700.53	1779.68
700.71	1767.40
700.89	1777.64
701.08	1703.91
701.26	1761.25
701.45	2103.26
701.63	1574.89
701.81	1699.81
702.00	1572.84
702.18	1691.62
702.37	1689.57
702.55	1781.73
702.73	1656.81
702.92	1601.51
703.10	1730.53
703.28	1740.77
703.47	1652.71
703.65	1726.44
703.84	1710.05
704.02	1691.62
704.20	1814.50
704.39	1681.38
704.57	1638.38
704.75	1814.50
704.94	1665.00
705.12	1689.57
705.30	1746.92
705.49	2263.01
705.67	4435.90
705.86	9561.97
706.04	12660.54
706.22	14690.08
706.41	15722.26
706.59	14122.79
706.77	9678.70
706.96	7600.01
707.14	6821.78
707.32	6055.84
707.51	5679.02
707.69	4888.50
707.87	4302.78
708.06	3610.57
708.24	3063.76
708.42	2357.21
708.61	2232.29
708.79	1859.56
708.97	1859.56
709.16	1724.39
709.34	1769.44
709.52	1753.06
709.71	1724.39
709.89	1783.78
710.07	1665.00
710.26	1636.33
710.44	1718.25
710.62	1796.07
710.80	1689.57
710.99	1744.87
711.17	1812.45
711.35	1675.24
711.54	1738.73
711.72	1705.96
711.90	1712.10
712.09	1720.29
712.27	1607.66
712.45	1722.34
712.63	1699.81
712.82	1665.00
713.00	1695.72
713.18	1722.34
713.37	1746.92
713.55	1656.81
713.73	1705.96
713.91	1728.49
714.10	1660.90
714.28	1693.67
714.46	1599.46
714.65	1714.15
714.83	1722.34
715.01	1705.96
715.19	1783.78
715.38	1662.95
715.56	1681.38
715.74	1710.05
715.92	1626.09
716.11	1867.75
716.29	1607.66
716.47	1671.14
716.65	1683.43
716.84	1597.42
717.02	1802.21
717.20	1603.56
717.38	1585.13
717.57	1757.16
717.75	1722.34
717.93	1683.43
718.11	1722.34
718.30	1599.46
718.48	1783.78
718.66	1742.82
718.84	1705.96
719.03	1693.67
719.21	1634.28
719.39	1783.78
719.57	1777.64
719.75	1800.16
719.94	1615.85
720.12	1697.77
720.30	1650.66
720.48	1767.40
720.67	1679.33
720.85	1581.03
721.03	1630.18
721.21	1662.95
721.39	1761.25
721.58	1724.39
721.76	1642.47
721.94	1716.20
722.12	1744.87
722.30	1820.64
722.49	1761.25
722.67	1722.34
722.85	1775.59
723.03	1638.38
723.21	1687.53
723.40	1687.53
723.58	1761.25
723.76	1681.38
723.94	1791.97
724.12	1632.23
724.30	1748.97
724.49	1728.49
724.67	1648.61
724.85	1759.21
725.03	1636.33
725.21	1679.33
725.40	1763.30
725.58	1626.09
725.76	1806.31
725.94	1726.44
726.12	1671.14
726.30	1660.90
726.49	1703.91
726.67	1757.16
726.85	1677.29
727.03	1658.85
727.21	2215.90
727.39	2934.74
727.57	3839.94
727.76	4255.68
727.94	4528.06
728.12	4331.45
728.30	3755.97
728.48	2914.26
728.66	2783.19
728.84	2510.81
729.03	2232.29
729.21	2115.55
729.39	1972.19
729.57	1820.64
729.75	1826.79
729.93	1843.17
730.11	1722.34
730.30	1728.49
730.48	1658.85
730.66	1859.56
730.84	1789.92
731.02	1687.53
731.20	1734.63
731.38	1736.68
731.56	1626.09
731.74	1642.47
731.93	1751.01
732.11	1626.09
732.29	1708.01
732.47	1705.96
732.65	1689.57
732.83	1708.01
733.01	1665.00
733.19	1677.29
733.37	1730.53
733.56	1802.21
733.74	1683.43
733.92	1820.64
734.10	1646.57
734.28	1693.67
734.46	1589.22
734.64	1697.77
734.82	1644.52
735.00	1626.09
735.18	1662.95
735.36	1685.48
735.54	1683.43
735.73	1665.00
735.91	1734.63
736.09	1773.54
736.27	1681.38
736.45	1742.82
736.63	1595.37
736.81	1634.28
736.99	1761.25
737.17	1800.16
737.35	1722.34
737.53	1705.96
737.71	1673.19
737.89	1781.73
738.07	1660.90
738.25	1658.85
738.43	1638.38
738.61	1708.01
738.80	1632.23
738.98	1646.57
739.16	1683.43
739.34	1646.57
739.52	1730.53
739.70	1648.61
739.88	1730.53
740.06	1794.02
740.24	1636.33
740.42	1691.62
740.60	1603.56
740.78	1718.25
740.96	1624.04
741.14	1712.10
741.32	1763.30
741.50	1621.99
741.68	1804.26
741.86	1771.49
742.04	1619.94
742.22	1646.57
742.40	1671.14
742.58	1697.77
742.76	1665.00
742.94	1759.21
743.12	1628.14
743.30	1685.48
743.48	1781.73
743.66	1605.61
743.84	1847.27
744.02	1669.09
744.20	1732.58
744.38	1656.81
744.56	1689.57
744.74	1791.97
744.92	1705.96
745.10	1781.73
745.28	1730.53
745.46	1832.93
745.64	1677.29
745.82	1699.81
746.00	1722.34
746.18	1712.10
746.36	1560.55
746.54	1736.68
746.72	1730.53
746.90	1638.38
747.08	1689.57
747.26	1675.24
747.44	1724.39
747.62	1744.87
747.80	1757.16
747.98	1767.40
748.15	1650.66
748.33	1775.59
748.51	1718.25
748.69	1804.26
748.87	1669.09
749.05	1617.90
749.23	1671.14
749.41	1746.92
749.59	1728.49
749.77	1738.73
749.95	1720.29
750.13	1607.66
750.31	1712.10
750.49	1675.24
750.67	1773.54
750.85	1746.92
751.03	1697.77
751.20	1882.08
751.38	1634.28
751.56	1640.42
751.74	1667.05
751.92	1673.19
752.10	1626.09
752.28	1751.01
752.46	1675.24
752.64	1656.81
752.82	1722.34
753.00	1736.68
753.18	1624.04
753.35	1724.39
753.53	1683.43
753.71	1667.05
753.89	1652.71
754.07	1751.01
754.25	1728.49
754.43	1740.77
754.61	1701.86
754.79	1732.58
754.97	1640.42
755.14	1742.82
755.32	1632.23
755.50	1630.18
755.68	1632.23
755.86	1695.72
756.04	1679.33
756.22	1630.18
756.40	1808.36
756.57	1839.08
756.75	1615.85
756.93	1755.11
757.11	1765.35
757.29	1679.33
757.47	1607.66
757.65	1599.46
757.82	1615.85
758.00	1718.25
758.18	1642.47
758.36	1619.94
758.54	1796.07
758.72	1613.80
758.90	1812.45
759.07	1685.48
759.25	1685.48
759.43	1687.53
759.61	1632.23
759.79	2271.20
759.97	1705.96
760.15	1699.81
760.32	1722.34
760.50	1677.29
760.68	1849.32
760.86	1642.47
761.04	1812.45
761.22	1701.86
761.39	1689.57
761.57	1759.21
761.75	1619.94
761.93	1806.31
762.11	1683.43
762.28	1673.19
762.46	1632.23
762.64	1677.29
762.82	1601.51
763.00	1660.90
763.18	1822.69
763.35	1650.66
763.53	1767.40
763.71	1748.97
763.89	1712.10
764.07	1658.85
764.24	1669.09
764.42	1710.05
764.60	1609.70
764.78	1726.44
764.96	1763.30
765.13	1839.08
765.31	1728.49
765.49	1742.82
765.67	1642.47
765.84	1628.14
766.02	1611.75
766.20	1638.38
766.38	1730.53
766.56	1773.54
766.73	1732.58
766.91	1677.29
767.09	1658.85
767.27	1744.87
767.44	1634.28
767.62	1755.11
767.80	1714.15
767.98	1665.00
768.15	1738.73
768.33	1705.96
768.51	1767.40
768.69	1742.82
768.87	1783.78
769.04	1630.18
769.22	1820.64
769.40	1718.25
769.58	1861.60
769.75	1689.57
769.93	1751.01
770.11	1646.57
770.28	1632.23
770.46	1730.53
770.64	1720.29
770.82	1712.10
770.99	1671.14
771.17	1656.81
771.35	1681.38
771.53	1710.05
771.70	1679.33
771.88	1767.40
772.06	1742.82
772.23	1634.28
772.41	1652.71
772.59	1722.34
772.77	1699.81
772.94	1669.09
773.12	1712.10
773.30	1609.70
773.47	1656.81
773.65	1730.53
773.83	1857.51
774.01	1671.14
774.18	1609.70
774.36	1771.49
774.54	1650.66
774.71	1734.63
774.89	1665.00
775.07	1599.46
775.24	1658.85
775.42	1636.33
775.60	1804.26
775.78	1697.77
775.95	1605.61
776.13	1574.89
776.31	1560.55
776.48	1669.09
776.66	1779.68
776.84	1644.52
777.01	1609.70
777.19	1708.01
777.37	1681.38
777.54	1722.34
777.72	1746.92
777.90	1734.63
778.07	1615.85
778.25	1859.56
778.43	1751.01
778.60	1681.38
778.78	1771.49
778.96	1714.15
779.13	1665.00
779.31	1681.38
779.49	1570.79
779.66	1667.05
779.84	1740.77
780.01	1730.53
780.19	1677.29
780.37	1734.63
780.54	1720.29
780.72	1691.62
780.90	1685.48
781.07	1658.85
781.25	1751.01
781.43	1710.05
781.60	1724.39
781.78	1755.11
781.95	1683.43
782.13	1691.62
782.31	1660.90
782.48	1581.03
782.66	1648.61
782.83	1800.16
783.01	1712.10
783.19	1763.30
783.36	1705.96
783.54	1656.81
783.72	1720.29
783.89	1703.91
784.07	1697.77
784.24	1705.96
784.42	1765.35
784.60	1658.85
784.77	1693.67
784.95	1607.66
785.12	1662.95
785.30	1677.29
785.47	1634.28
785.65	1640.42
785.83	1732.58
786.00	1671.14
786.18	1687.53
786.35	1550.31
786.53	1687.53
786.71	1699.81
786.88	1736.68
787.06	1677.29
787.23	1677.29
787.41	1667.05
787.58	1634.28
787.76	1660.90
787.94	1693.67
788.11	1642.47
788.29	1646.57
788.46	1611.75
788.64	1710.05
788.81	1724.39
788.99	1679.33
789.16	1642.47
789.34	1693.67
789.52	1671.14
789.69	1648.61
789.87	1605.61
790.04	1648.61
790.22	1644.52
790.39	1816.55
790.57	1665.00
790.74	1642.47
790.92	1720.29
791.09	1581.03
791.27	1765.35
791.44	1779.68
791.62	1652.71
791.79	1728.49
791.97	1646.57
792.15	1910.75
792.32	1742.82
792.50	1744.87
792.67	1847.27
792.85	1798.12
793.02	1681.38
793.20	1619.94
793.37	1681.38
793.55	1722.34
793.72	1681.38
793.90	1732.58
794.07	1613.80
794.25	1748.97
794.42	1644.52
794.60	1681.38
794.77	1742.82
794.95	1658.85
795.12	1718.25
795.30	1679.33
795.47	1599.46
795.65	1841.12
795.82	1681.38
796.00	1648.61
796.17	1730.53
796.34	1665.00
796.52	1738.73
796.69	1685.48
796.87	1673.19
797.04	1789.92
797.22	1685.48
797.39	1777.64
797.57	1732.58
797.74	1697.77
797.92	1662.95
798.09	1654.76
798.27	1775.59
798.44	1769.44
798.62	1689.57
798.79	1681.38
798.96	1724.39
799.14	1705.96
799.31	1804.26
799.49	1730.53
799.66	1703.91
799.84	1673.19
800.01	1667.05
800.19	1621.99
800.36	1570.79
800.53	1640.42
800.71	1732.58
800.88	1775.59
801.06	1660.90
801.23	1585.13
801.41	1691.62
801.58	1685.48
801.75	1646.57
801.93	1683.43
802.10	1726.44
802.28	1710.05
802.45	1585.13
802.63	1724.39
802.80	1755.11
802.97	1640.42
803.15	1765.35
803.32	1667.05
803.50	1617.90
803.67	1656.81
803.84	1632.23
804.02	1714.15
804.19	1701.86
804.37	1564.65
804.54	1630.18
804.71	1689.57
804.89	1753.06
805.06	1593.32
805.24	1609.70
805.41	1658.85
805.58	1703.91
805.76	1828.84
805.93	1693.67
806.10	1757.16
806.28	1771.49
806.45	1703.91
806.63	1740.77
806.80	1699.81
806.97	1759.21
807.15	1705.96
807.32	1710.05
807.49	1734.63
807.67	1656.81
807.84	1710.05
808.01	1576.94
808.19	1839.08
808.36	1800.16
808.54	1671.14
808.71	1718.25
808.88	1810.40
809.06	1757.16
809.23	1738.73
809.40	1681.38
809.58	1804.26
809.75	1677.29
809.92	1652.71
810.10	1818.60
810.27	1705.96
810.44	1705.96
810.62	1683.43
810.79	1712.10
810.96	1638.38
811.14	1617.90
811.31	1757.16
811.48	1789.92
811.66	1685.48
811.83	1794.02
812.00	1751.01
812.18	1767.40
812.35	1830.88
812.52	1632.23
812.69	1701.86
812.87	1683.43
813.04	1679.33
813.21	1689.57
813.39	1652.71
813.56	1652.71
813.73	1722.34
813.91	1566.70
814.08	1662.95
814.25	1687.53
814.42	1619.94
814.60	1619.94
814.77	1681.38
814.94	1652.71
815.12	1689.57
815.29	1740.77
815.46	1687.53
815.63	1730.53
815.81	1679.33
815.98	1740.77
816.15	1673.19
816.33	1703.91
816.50	1681.38
816.67	1671.14
816.84	1775.59
817.02	1658.85
817.19	1605.61
817.36	1722.34
817.53	1730.53
817.71	1658.85
817.88	1767.40
818.05	1695.72
818.22	1665.00
818.40	1787.88
818.57	1656.81
818.74	1675.24
818.91	1644.52
819.09	1716.20
819.26	1787.88
819.43	1744.87
819.60	1656.81
819.78	1683.43
819.95	1853.41
820.12	1679.33
820.29	1763.30
820.47	1728.49
820.64	1667.05
820.81	1583.08
820.98	1621.99
821.15	1681.38
821.33	1732.58
821.50	1665.00
821.67	1646.57
821.84	1603.56
822.02	1787.88
822.19	1761.25
822.36	1660.90
822.53	1712.10
822.70	1701.86
822.88	1683.43
823.05	1759.21
823.22	1732.58
823.39	1755.11
823.56	1695.72
823.74	1847.27
823.91	1650.66
824.08	1632.23
824.25	1656.81
824.42	1794.02
824.60	1568.74
824.77	1722.34
824.94	1683.43
825.11	1716.20
825.28	1691.62
825.45	1708.01
825.63	1689.57
825.80	1669.09
825.97	1601.51
826.14	1679.33
826.31	1601.51
826.48	1722.34
826.66	1679.33
826.83	1669.09
827.00	1660.90
827.17	1634.28
827.34	1716.20
827.51	1689.57
827.69	1710.05
827.86	1644.52
828.03	1669.09
828.20	1748.97
828.37	1730.53
828.54	1712.10
828.71	1638.38
828.89	1832.93
829.06	1656.81
829.23	1814.50
829.40	1693.67
829.57	1628.14
829.74	1759.21
829.91	1615.85
830.09	1742.82
830.26	1716.20
830.43	1808.36
830.60	1665.00
830.77	1744.87
830.94	1660.90
831.11	1751.01
831.28	1714.15
831.46	1720.29
831.63	1691.62
831.80	1794.02
831.97	1669.09
832.14	1720.29
832.31	1767.40
832.48	1720.29
832.65	1763.30
832.82	1697.77
832.99	1677.29
833.17	1607.66
833.34	1789.92
833.51	1730.53
833.68	1609.70
833.85	1796.07
834.02	1621.99
834.19	1656.81
834.36	1648.61
834.53	1658.85
834.70	1736.68
834.87	1746.92
835.04	1708.01
835.22	1669.09
835.39	1669.09
835.56	1624.04
835.73	1658.85
835.90	1734.63
836.07	1648.61
836.24	1732.58
836.41	1673.19
836.58	1669.09
836.75	1665.00
836.92	1691.62
837.09	1722.34
837.26	1677.29
837.43	1722.34
837.60	1705.96
837.77	1634.28
837.94	1716.20
838.12	1751.01
838.29	1685.48
838.46	1636.33
838.63	1638.38
838.80	1773.54
838.97	1796.07
839.14	1669.09
839.31	1685.48
839.48	1695.72
839.65	1720.29
839.82	1712.10
839.99	1667.05
840.16	1777.64
840.33	1687.53
840.50	1650.66
840.67	1599.46
840.84	1595.37
841.01	1685.48
841.18	1611.75
841.35	1689.57
841.52	1787.88
841.69	1828.84
841.86	1769.44
842.03	1695.72
842.20	1734.63
842.37	1695.72
842.54	1665.00
842.71	1697.77
842.88	1574.89
843.05	1699.81
843.22	1607.66
843.39	1742.82
843.56	1695.72
843.73	1673.19
843.90	1681.38
844.07	1662.95
844.24	1748.97
844.41	1726.44
844.58	1699.81
844.75	1673.19
844.92	1781.73
845.09	1701.86
845.26	1615.85
845.43	1751.01
845.60	1613.80
845.77	1753.06
845.94	1697.77
846.10	1736.68
846.27	1624.04
846.44	1640.42
846.61	1671.14
846.78	1726.44
846.95	1757.16
847.12	1699.81
847.29	1667.05
847.46	1695.72
847.63	1742.82
847.80	1712.10
847.97	1628.14
848.14	1867.75
848.31	1705.96
848.48	1585.13
848.65	1662.95
848.82	1656.81
848.98	1728.49
849.15	1718.25
849.32	1683.43
849.49	1751.01
849.66	1722.34
849.83	1720.29
850.00	1583.08
850.17	1751.01
850.34	1660.90
850.51	1669.09
850.68	1689.57
850.85	1714.15
851.01	1726.44
851.18	1726.44
851.35	1720.29
851.52	1746.92
851.69	1855.46
851.86	1673.19
852.03	1607.66
852.20	1755.11
852.37	1656.81
852.53	1628.14
852.70	1642.47
852.87	1730.53
853.04	1667.05
853.21	1636.33
853.38	1757.16
853.55	1789.92
853.72	1798.12
853.89	1638.38
854.05	1654.76
854.22	1628.14
854.39	1714.15
854.56	1736.68
854.73	1740.77
854.90	1669.09
855.07	1699.81
855.23	1632.23
855.40	1708.01
855.57	1720.29
855.74	1632.23
855.91	1910.75
856.08	1650.66
856.25	1646.57
856.41	1714.15
856.58	1679.33
856.75	1679.33
856.92	1599.46
857.09	1718.25
857.26	1599.46
857.42	1673.19
857.59	1742.82
857.76	1656.81
857.93	1753.06
858.10	1689.57
858.27	1652.71
858.43	1740.77
858.60	1564.65
858.77	1634.28
858.94	1662.95
859.11	1789.92
859.27	1718.25
859.44	1751.01
859.61	1818.60
859.78	1724.39
859.95	1685.48
860.12	1658.85
860.28	1712.10
860.45	1798.12
860.62	1658.85
860.79	1712.10
860.95	1763.30
861.12	1703.91
861.29	1716.20
861.46	1656.81
861.63	1632.23
861.79	1728.49
861.96	1591.27
862.13	1697.77
862.30	1771.49
862.47	1705.96
862.63	1636.33
862.80	1695.72
862.97	1742.82
863.14	1720.29
863.30	1751.01
863.47	1628.14
863.64	1746.92
863.81	1777.64
863.97	1648.61
864.14	1650.66
864.31	1646.57
864.48	1701.86
864.65	1681.38
864.81	1751.01
864.98	1697.77
865.15	1740.77
865.32	1775.59
865.48	1685.48
865.65	1732.58
865.82	1593.32
865.98	1679.33
866.15	1812.45
866.32	1658.85
866.49	1736.68
866.65	1753.06
866.82	1689.57
866.99	1738.73
867.16	1681.38
867.32	1677.29
867.49	1652.71
867.66	1716.20
867.83	1630.18
867.99	1550.31
868.16	1656.81
868.33	1583.08
868.49	1697.77
868.66	1636.33
868.83	1685.48
868.99	1728.49
869.16	1667.05
869.33	1759.21
869.50	1742.82
869.66	1728.49
869.83	1697.77
870.00	1621.99
870.16	1748.97
870.33	1644.52
870.50	1665.00
870.66	1697.77
870.83	1812.45
871.00	1734.63
871.17	1779.68
871.33	1732.58
871.50	1665.00
871.67	1693.67
871.83	1656.81
872.00	1785.83
872.17	1636.33
872.33	1777.64
872.50	1751.01
872.67	1667.05
872.83	1701.86
873.00	1701.86
873.17	1667.05
873.33	1757.16
873.50	1753.06
873.67	1665.00
873.83	1736.68
874.00	1759.21
874.16	1691.62
874.33	1642.47
874.50	1691.62
874.66	1658.85
874.83	1667.05
875.00	1773.54
875.16	1716.20
875.33	1787.88
875.50	1574.89
875.66	1665.00
875.83	1738.73
875.99	1730.53
876.16	1681.38
876.33	1615.85
876.49	1736.68
876.66	1738.73
876.83	1734.63
876.99	1648.61
877.16	1656.81
877.32	1683.43
877.49	1615.85
877.66	1679.33
877.82	1685.48
877.99	1705.96
878.15	1718.25
878.32	1687.53
878.49	1673.19
878.65	1681.38
878.82	1765.35
878.98	1634.28
879.15	1789.92
879.32	1718.25
879.48	1769.44
879.65	1708.01
879.81	1712.10
879.98	1691.62
880.15	1667.05
880.31	1773.54
880.48	1634.28
880.64	1701.86
880.81	1718.25
880.97	1841.12
881.14	1710.05
881.31	1585.13
881.47	1771.49
881.64	1716.20
881.80	1513.45
881.97	1691.62
882.13	1781.73
882.30	1652.71
882.47	1609.70
882.63	1621.99
882.80	1691.62
882.96	1638.38
883.13	1755.11
883.29	1658.85
883.46	1673.19
883.62	1794.02
883.79	1710.05
883.95	1779.68
884.12	1712.10
884.29	1740.77
884.45	1779.68
884.62	1775.59
884.78	1673.19
884.95	1767.40
885.11	1619.94
885.28	1732.58
885.44	1638.38
885.61	1683.43
885.77	1775.59
885.94	1677.29
886.10	1716.20
886.27	1730.53
886.43	1726.44
886.60	1775.59
886.76	1650.66
886.93	1654.76
887.09	1757.16
887.26	1591.27
887.42	1722.34
887.59	1718.25
887.75	1837.03
887.92	1794.02
888.08	1662.95
888.25	1791.97
888.41	1677.29
888.58	1740.77
888.74	1660.90
888.91	1585.13
>>>>>End Processed Spectral Data<<<<<
