SpectraSuite Data File
++++++++++++++++++++++++++++++++++++
Date: Mon Jun 06 16:03:37 CEST 2016
User: root
Dark Spectrum Present: No
Reference Spectrum Present: No
Number of Sampled Component Spectra: 1
Spectrometers: USB4C02835
Integration Time (usec): 100000 (USB4C02835)
Spectra Averaged: 1 (USB4C02835)
Boxcar Smoothing: 0 (USB4C02835)
Correct for Electrical Dark: No (USB4C02835)
Strobe/Lamp Enabled: No (USB4C02835)
Correct for Detector Non-linearity: No (USB4C02835)
Correct for Stray Light: No (USB4C02835)
Number of Pixels in Processed Spectrum: 3648
>>>>>Begin Processed Spectral Data<<<<<
177.47	1492.97
177.69	1492.97
177.91	1492.97
178.13	1468.39
178.36	1452.01
178.58	1687.53
178.80	1660.90
179.02	1669.09
179.24	1574.89
179.46	1726.44
179.68	1837.03
179.90	1679.33
180.13	1697.77
180.35	1716.20
180.57	1730.53
180.79	1718.25
181.01	1734.63
181.23	1824.74
181.45	1884.13
181.67	1726.44
181.90	1804.26
182.12	1667.05
182.34	1689.57
182.56	1665.00
182.78	1708.01
183.00	1648.61
183.22	1714.15
183.44	1716.20
183.66	1806.31
183.89	1847.27
184.11	1759.21
184.33	1703.91
184.55	1777.64
184.77	1816.55
184.99	1703.91
185.21	1728.49
185.43	1857.51
185.65	1691.62
185.87	1708.01
186.10	1830.88
186.32	1837.03
186.54	1748.97
186.76	1751.01
186.98	1773.54
187.20	1695.72
187.42	1642.47
187.64	1665.00
187.86	1738.73
188.08	1783.78
188.30	1628.14
188.52	1714.15
188.75	1783.78
188.97	1726.44
189.19	1621.99
189.41	1660.90
189.63	1738.73
189.85	1642.47
190.07	1605.61
190.29	1617.90
190.51	1722.34
190.73	1644.52
190.95	1761.25
191.17	1746.92
191.39	1626.09
191.61	1710.05
191.84	1718.25
192.06	1791.97
192.28	1576.94
192.50	1925.09
192.72	1730.53
192.94	1714.15
193.16	1791.97
193.38	1703.91
193.60	1660.90
193.82	1703.91
194.04	1753.06
194.26	1716.20
194.48	1710.05
194.70	1642.47
194.92	1689.57
195.14	1779.68
195.36	1605.61
195.58	1787.88
195.80	1652.71
196.02	1652.71
196.24	1714.15
196.46	1738.73
196.69	1759.21
196.91	1781.73
197.13	1689.57
197.35	1736.68
197.57	1781.73
197.79	1693.67
198.01	1779.68
198.23	1732.58
198.45	1794.02
198.67	1613.80
198.89	1626.09
199.11	1730.53
199.33	1687.53
199.55	1554.41
199.77	1714.15
199.99	1796.07
200.21	1708.01
200.43	1695.72
200.65	1679.33
200.87	1572.84
201.09	1740.77
201.31	1710.05
201.53	1812.45
201.75	1771.49
201.97	1710.05
202.19	1726.44
202.41	1708.01
202.63	1853.41
202.85	1738.73
203.07	1734.63
203.29	1689.57
203.51	1689.57
203.73	1716.20
203.95	1869.80
204.17	1718.25
204.39	1705.96
204.61	1757.16
204.83	1728.49
205.05	1705.96
205.27	1804.26
205.49	1824.74
205.71	1695.72
205.93	1630.18
206.15	1593.32
206.37	1621.99
206.59	1755.11
206.81	1656.81
207.03	1644.52
207.25	1658.85
207.47	1826.79
207.69	1683.43
207.91	1830.88
208.13	1718.25
208.34	1720.29
208.56	1671.14
208.78	1677.29
209.00	1693.67
209.22	1689.57
209.44	1619.94
209.66	1599.46
209.88	1763.30
210.10	1738.73
210.32	1662.95
210.54	1837.03
210.76	1675.24
210.98	1820.64
211.20	1714.15
211.42	1669.09
211.64	1779.68
211.86	1718.25
212.08	1798.12
212.30	1755.11
212.52	1726.44
212.74	1710.05
212.96	1779.68
213.17	1751.01
213.39	1742.82
213.61	1722.34
213.83	1820.64
214.05	1660.90
214.27	1746.92
214.49	1644.52
214.71	1722.34
214.93	1773.54
215.15	1775.59
215.37	1703.91
215.59	1626.09
215.81	1685.48
216.03	1808.36
216.24	1746.92
216.46	1794.02
216.68	1701.86
216.90	1763.30
217.12	1746.92
217.34	1734.63
217.56	1714.15
217.78	1814.50
218.00	1687.53
218.22	1779.68
218.44	1701.86
218.66	1650.66
218.87	1849.32
219.09	1648.61
219.31	1714.15
219.53	1712.10
219.75	1693.67
219.97	1703.91
220.19	1734.63
220.41	1683.43
220.63	1783.78
220.85	1683.43
221.06	1701.86
221.28	1810.40
221.50	1718.25
221.72	1705.96
221.94	1685.48
222.16	1687.53
222.38	1767.40
222.60	1734.63
222.82	1767.40
223.03	1671.14
223.25	1687.53
223.47	1708.01
223.69	1810.40
223.91	1726.44
224.13	1660.90
224.35	1654.76
224.57	1822.69
224.78	1779.68
225.00	1689.57
225.22	1726.44
225.44	1773.54
225.66	1708.01
225.88	1591.27
226.10	1771.49
226.32	1783.78
226.53	1861.60
226.75	1693.67
226.97	1734.63
227.19	1697.77
227.41	1656.81
227.63	1660.90
227.85	1673.19
228.06	1781.73
228.28	1675.24
228.50	1863.65
228.72	1677.29
228.94	1685.48
229.16	1660.90
229.37	1605.61
229.59	1734.63
229.81	1767.40
230.03	1718.25
230.25	1656.81
230.47	1607.66
230.69	1662.95
230.90	1816.55
231.12	1689.57
231.34	1705.96
231.56	1828.84
231.78	1621.99
232.00	1712.10
232.21	1753.06
232.43	1691.62
232.65	1546.22
232.87	1798.12
233.09	1652.71
233.30	1675.24
233.52	1742.82
233.74	1726.44
233.96	1734.63
234.18	1611.75
234.40	1742.82
234.61	1855.46
234.83	1615.85
235.05	1652.71
235.27	1859.56
235.49	1789.92
235.70	1781.73
235.92	1822.69
236.14	1746.92
236.36	1787.88
236.58	1677.29
236.79	1728.49
237.01	1734.63
237.23	1724.39
237.45	1773.54
237.67	1691.62
237.88	1714.15
238.10	1787.88
238.32	1734.63
238.54	1746.92
238.76	1714.15
238.97	1624.04
239.19	1636.33
239.41	1763.30
239.63	1738.73
239.85	1753.06
240.06	1710.05
240.28	1683.43
240.50	1824.74
240.72	1785.83
240.93	1667.05
241.15	1806.31
241.37	1691.62
241.59	1751.01
241.81	1716.20
242.02	1689.57
242.24	1669.09
242.46	1800.16
242.68	1695.72
242.89	1724.39
243.11	1734.63
243.33	1652.71
243.55	1744.87
243.76	1712.10
243.98	1652.71
244.20	1722.34
244.42	1755.11
244.64	1705.96
244.85	1697.77
245.07	1687.53
245.29	1748.97
245.51	1769.44
245.72	1775.59
245.94	1701.86
246.16	1748.97
246.38	1730.53
246.59	1658.85
246.81	1726.44
247.03	1689.57
247.24	1621.99
247.46	1681.38
247.68	1695.72
247.90	1669.09
248.11	1609.70
248.33	1732.58
248.55	1738.73
248.77	1689.57
248.98	1759.21
249.20	1877.99
249.42	1798.12
249.64	1753.06
249.85	1689.57
250.07	1607.66
250.29	1738.73
250.50	1718.25
250.72	1656.81
250.94	1755.11
251.16	1863.65
251.37	1730.53
251.59	1738.73
251.81	1800.16
252.02	1781.73
252.24	1720.29
252.46	1791.97
252.68	1693.67
252.89	1722.34
253.11	1679.33
253.33	1738.73
253.54	1710.05
253.76	1646.57
253.98	1695.72
254.20	1693.67
254.41	1550.31
254.63	1748.97
254.85	1619.94
255.06	1695.72
255.28	1708.01
255.50	1689.57
255.71	1660.90
255.93	1689.57
256.15	1716.20
256.36	1714.15
256.58	1650.66
256.80	1642.47
257.02	1681.38
257.23	1708.01
257.45	1722.34
257.67	1765.35
257.88	1589.22
258.10	1775.59
258.32	1804.26
258.53	1697.77
258.75	1738.73
258.97	1697.77
259.18	1705.96
259.40	1755.11
259.62	1828.84
259.83	1798.12
260.05	1722.34
260.27	1925.09
260.48	1765.35
260.70	1568.74
260.92	1634.28
261.13	1673.19
261.35	1742.82
261.57	1732.58
261.78	1603.56
262.00	1628.14
262.22	1640.42
262.43	1601.51
262.65	1710.05
262.86	1771.49
263.08	1845.22
263.30	1746.92
263.51	1677.29
263.73	1755.11
263.95	1779.68
264.16	1662.95
264.38	1648.61
264.60	1722.34
264.81	1701.86
265.03	1810.40
265.25	1765.35
265.46	1656.81
265.68	1779.68
265.89	1751.01
266.11	1681.38
266.33	1705.96
266.54	1728.49
266.76	1683.43
266.98	1746.92
267.19	1804.26
267.41	1710.05
267.62	1718.25
267.84	1628.14
268.06	1697.77
268.27	1761.25
268.49	1794.02
268.70	1767.40
268.92	1724.39
269.14	1628.14
269.35	1675.24
269.57	1753.06
269.79	1748.97
270.00	1667.05
270.22	1818.60
270.43	1687.53
270.65	1544.17
270.87	1693.67
271.08	1816.55
271.30	1804.26
271.51	1755.11
271.73	1695.72
271.95	1787.88
272.16	1697.77
272.38	1802.21
272.59	1708.01
272.81	1695.72
273.02	1693.67
273.24	1765.35
273.46	1718.25
273.67	1703.91
273.89	1705.96
274.10	1681.38
274.32	1742.82
274.54	1675.24
274.75	1693.67
274.97	1734.63
275.18	1722.34
275.40	1771.49
275.61	1767.40
275.83	1677.29
276.05	1691.62
276.26	1736.68
276.48	1761.25
276.69	1720.29
276.91	1689.57
277.12	1746.92
277.34	1798.12
277.55	1783.78
277.77	1781.73
277.99	1636.33
278.20	1701.86
278.42	1705.96
278.63	1591.27
278.85	1681.38
279.06	1669.09
279.28	1732.58
279.49	1755.11
279.71	1728.49
279.93	1679.33
280.14	1634.28
280.36	1636.33
280.57	1771.49
280.79	1751.01
281.00	1746.92
281.22	1685.48
281.43	1826.79
281.65	1603.56
281.86	1665.00
282.08	1798.12
282.29	1867.75
282.51	1605.61
282.73	1658.85
282.94	1662.95
283.16	1730.53
283.37	1779.68
283.59	1667.05
283.80	1806.31
284.02	1767.40
284.23	1722.34
284.45	1710.05
284.66	1697.77
284.88	1687.53
285.09	1726.44
285.31	1798.12
285.52	1736.68
285.74	1632.23
285.95	1742.82
286.17	1796.07
286.38	1769.44
286.60	1720.29
286.81	1675.24
287.03	1568.74
287.24	1662.95
287.46	1738.73
287.67	1800.16
287.89	1824.74
288.10	1648.61
288.32	1718.25
288.53	1716.20
288.75	1738.73
288.96	1755.11
289.18	1595.37
289.39	1724.39
289.61	1789.92
289.82	1806.31
290.04	1814.50
290.25	1689.57
290.47	1693.67
290.68	1630.18
290.90	1796.07
291.11	1677.29
291.33	1740.77
291.54	1599.46
291.76	1595.37
291.97	1734.63
292.18	1701.86
292.40	1630.18
292.61	1703.91
292.83	1845.22
293.04	1746.92
293.26	1767.40
293.47	1658.85
293.69	1636.33
293.90	1681.38
294.12	1771.49
294.33	1710.05
294.55	1591.27
294.76	1685.48
294.97	1800.16
295.19	1871.84
295.40	1687.53
295.62	1714.15
295.83	1808.36
296.05	1689.57
296.26	1804.26
296.48	1681.38
296.69	1701.86
296.90	1689.57
297.12	1779.68
297.33	1789.92
297.55	1755.11
297.76	1787.88
297.98	1783.78
298.19	1746.92
298.41	1738.73
298.62	1691.62
298.83	1791.97
299.05	1746.92
299.26	1730.53
299.48	1660.90
299.69	1671.14
299.90	1716.20
300.12	1648.61
300.33	1705.96
300.55	1769.44
300.76	1724.39
300.98	1652.71
301.19	1761.25
301.40	1634.28
301.62	1638.38
301.83	1771.49
302.05	1671.14
302.26	1734.63
302.47	1669.09
302.69	1722.34
302.90	1718.25
303.12	1626.09
303.33	1742.82
303.54	1832.93
303.76	1665.00
303.97	1787.88
304.19	1814.50
304.40	1636.33
304.61	1744.87
304.83	1865.70
305.04	1751.01
305.26	1726.44
305.47	1660.90
305.68	1679.33
305.90	1642.47
306.11	1701.86
306.33	1738.73
306.54	1634.28
306.75	1650.66
306.97	1634.28
307.18	1619.94
307.39	1683.43
307.61	1720.29
307.82	1697.77
308.04	1695.72
308.25	1675.24
308.46	1724.39
308.68	1701.86
308.89	1675.24
309.10	1828.84
309.32	1656.81
309.53	1669.09
309.74	1761.25
309.96	1632.23
310.17	1787.88
310.39	1658.85
310.60	1761.25
310.81	1742.82
311.03	1560.55
311.24	1689.57
311.45	1724.39
311.67	1841.12
311.88	1714.15
312.09	1673.19
312.31	1714.15
312.52	1687.53
312.73	1697.77
312.95	1712.10
313.16	1636.33
313.37	1812.45
313.59	1824.74
313.80	1746.92
314.01	1880.04
314.23	1789.92
314.44	1658.85
314.65	1599.46
314.87	1632.23
315.08	1759.21
315.29	1626.09
315.51	1660.90
315.72	1662.95
315.93	1814.50
316.15	1744.87
316.36	1691.62
316.57	1789.92
316.79	1751.01
317.00	1691.62
317.21	1757.16
317.43	1654.76
317.64	1714.15
317.85	1675.24
318.07	1650.66
318.28	1648.61
318.49	1763.30
318.70	1925.09
318.92	1896.42
319.13	1773.54
319.34	1863.65
319.56	1732.58
319.77	1824.74
319.98	1804.26
320.20	1882.08
320.41	1806.31
320.62	1787.88
320.83	1636.33
321.05	1933.28
321.26	1755.11
321.47	1687.53
321.69	1746.92
321.90	1605.61
322.11	1716.20
322.32	1751.01
322.54	1773.54
322.75	1783.78
322.96	1800.16
323.18	1667.05
323.39	1642.47
323.60	1665.00
323.81	1765.35
324.03	1646.57
324.24	1722.34
324.45	1746.92
324.66	1644.52
324.88	1744.87
325.09	1837.03
325.30	1734.63
325.52	1689.57
325.73	1779.68
325.94	1640.42
326.15	1581.03
326.37	1753.06
326.58	1755.11
326.79	1730.53
327.00	1615.85
327.22	1726.44
327.43	1767.40
327.64	1703.91
327.85	1681.38
328.07	1720.29
328.28	1787.88
328.49	1673.19
328.70	1640.42
328.92	1716.20
329.13	1697.77
329.34	1687.53
329.55	1794.02
329.76	1841.12
329.98	1759.21
330.19	1796.07
330.40	1744.87
330.61	1710.05
330.83	1757.16
331.04	1607.66
331.25	1751.01
331.46	1697.77
331.68	1691.62
331.89	1808.36
332.10	1689.57
332.31	1642.47
332.52	1673.19
332.74	1759.21
332.95	1687.53
333.16	1669.09
333.37	1765.35
333.58	1642.47
333.80	1716.20
334.01	1658.85
334.22	1712.10
334.43	1705.96
334.64	1632.23
334.86	1632.23
335.07	1644.52
335.28	1837.03
335.49	1636.33
335.70	1730.53
335.92	1834.98
336.13	1904.61
336.34	1642.47
336.55	1779.68
336.76	1781.73
336.98	1656.81
337.19	1697.77
337.40	1824.74
337.61	1800.16
337.82	1679.33
338.04	1816.55
338.25	1599.46
338.46	1736.68
338.67	1796.07
338.88	1681.38
339.09	1642.47
339.31	1726.44
339.52	1599.46
339.73	1736.68
339.94	1665.00
340.15	1732.58
340.36	1724.39
340.58	1654.76
340.79	1667.05
341.00	1744.87
341.21	1617.90
341.42	1869.80
341.63	1685.48
341.85	1771.49
342.06	1769.44
342.27	1603.56
342.48	1777.64
342.69	1677.29
342.90	1730.53
343.12	1748.97
343.33	1708.01
343.54	1734.63
343.75	1779.68
343.96	1677.29
344.17	1701.86
344.38	1699.81
344.60	1701.86
344.81	1624.04
345.02	1662.95
345.23	1781.73
345.44	1785.83
345.65	1798.12
345.86	1755.11
346.07	1726.44
346.29	1718.25
346.50	1738.73
346.71	1738.73
346.92	1761.25
347.13	1818.60
347.34	1730.53
347.55	1738.73
347.76	1736.68
347.98	1697.77
348.19	1660.90
348.40	1759.21
348.61	1734.63
348.82	1751.01
349.03	1748.97
349.24	1650.66
349.45	1804.26
349.66	1626.09
349.88	1722.34
350.09	1765.35
350.30	1818.60
350.51	1726.44
350.72	1628.14
350.93	1777.64
351.14	1632.23
351.35	1828.84
351.56	1691.62
351.77	1724.39
351.99	1718.25
352.20	1837.03
352.41	1783.78
352.62	1630.18
352.83	1714.15
353.04	1712.10
353.25	1722.34
353.46	1695.72
353.67	1744.87
353.88	1646.57
354.09	1695.72
354.30	1671.14
354.52	1730.53
354.73	1705.96
354.94	1642.47
355.15	1740.77
355.36	1810.40
355.57	1712.10
355.78	1746.92
355.99	1771.49
356.20	1730.53
356.41	1773.54
356.62	1751.01
356.83	1665.00
357.04	1791.97
357.25	1632.23
357.46	1800.16
357.68	1587.18
357.89	1650.66
358.10	1726.44
358.31	1703.91
358.52	1693.67
358.73	1665.00
358.94	1621.99
359.15	1685.48
359.36	1796.07
359.57	1679.33
359.78	1763.30
359.99	1830.88
360.20	1650.66
360.41	1730.53
360.62	1716.20
360.83	1654.76
361.04	1775.59
361.25	1697.77
361.46	1834.98
361.67	1689.57
361.88	1804.26
362.09	1773.54
362.30	1722.34
362.51	1693.67
362.72	1718.25
362.93	1740.77
363.14	1714.15
363.35	1693.67
363.56	1677.29
363.78	1781.73
363.99	1767.40
364.20	1605.61
364.41	1746.92
364.62	1771.49
364.83	1669.09
365.04	1826.79
365.25	1730.53
365.46	1855.46
365.67	1714.15
365.88	1646.57
366.09	1722.34
366.30	1691.62
366.51	1662.95
366.72	1646.57
366.93	1730.53
367.14	1800.16
367.35	1820.64
367.56	1703.91
367.77	1779.68
367.98	1757.16
368.18	1771.49
368.39	1775.59
368.60	1689.57
368.81	1654.76
369.02	1695.72
369.23	1740.77
369.44	1642.47
369.65	1738.73
369.86	1765.35
370.07	1755.11
370.28	1638.38
370.49	1720.29
370.70	1820.64
370.91	1712.10
371.12	1652.71
371.33	1726.44
371.54	1734.63
371.75	1800.16
371.96	1609.70
372.17	1710.05
372.38	1679.33
372.59	1730.53
372.80	1722.34
373.01	1677.29
373.22	1714.15
373.43	1656.81
373.64	1685.48
373.85	1744.87
374.06	1865.70
374.26	1787.88
374.47	1765.35
374.68	1826.79
374.89	1705.96
375.10	1718.25
375.31	1810.40
375.52	1716.20
375.73	1759.21
375.94	1665.00
376.15	1714.15
376.36	1683.43
376.57	1662.95
376.78	1624.04
376.99	1679.33
377.20	1726.44
377.40	1675.24
377.61	1804.26
377.82	1621.99
378.03	1802.21
378.24	1763.30
378.45	1708.01
378.66	1791.97
378.87	1665.00
379.08	1671.14
379.29	1710.05
379.50	1863.65
379.71	1697.77
379.91	1728.49
380.12	1691.62
380.33	1746.92
380.54	1669.09
380.75	1738.73
380.96	1683.43
381.17	1820.64
381.38	1703.91
381.59	1757.16
381.80	1738.73
382.00	1798.12
382.21	1757.16
382.42	1841.12
382.63	1849.32
382.84	1712.10
383.05	1755.11
383.26	1847.27
383.47	1775.59
383.68	1746.92
383.88	1734.63
384.09	1675.24
384.30	1865.70
384.51	1789.92
384.72	1699.81
384.93	1587.18
385.14	1763.30
385.35	1755.11
385.55	1683.43
385.76	1785.83
385.97	1693.67
386.18	1621.99
386.39	1734.63
386.60	1697.77
386.81	1689.57
387.02	1691.62
387.22	1730.53
387.43	1814.50
387.64	1738.73
387.85	1959.91
388.06	2213.85
388.27	4200.38
388.48	6686.62
388.68	8066.95
388.89	9361.27
389.10	9637.74
389.31	8257.41
389.52	7360.40
389.73	6721.43
389.93	6098.85
390.14	5740.46
390.35	5091.25
390.56	4517.82
390.77	3837.89
390.98	2961.36
391.18	2500.57
391.39	2170.85
391.60	1761.25
391.81	1822.69
392.02	1691.62
392.23	1863.65
392.43	1728.49
392.64	1826.79
392.85	1732.58
393.06	1855.46
393.27	1771.49
393.47	1652.71
393.68	1738.73
393.89	1693.67
394.10	1839.08
394.31	1662.95
394.52	1665.00
394.72	1677.29
394.93	1740.77
395.14	1667.05
395.35	1742.82
395.56	1742.82
395.76	1753.06
395.97	1800.16
396.18	1853.41
396.39	1869.80
396.60	2002.91
396.80	1892.32
397.01	1853.41
397.22	1843.17
397.43	1918.95
397.64	1783.78
397.84	1798.12
398.05	1914.85
398.26	1722.34
398.47	1716.20
398.67	1798.12
398.88	1736.68
399.09	1740.77
399.30	1722.34
399.51	1755.11
399.71	1763.30
399.92	1751.01
400.13	1716.20
400.34	1689.57
400.54	1720.29
400.75	1806.31
400.96	1796.07
401.17	1847.27
401.37	1701.86
401.58	1710.05
401.79	1757.16
402.00	1859.56
402.21	1974.24
402.41	1951.71
402.62	2047.97
402.83	1964.00
403.04	1957.86
403.24	2037.73
403.45	1898.47
403.66	1916.90
403.87	1888.23
404.07	1990.63
404.28	1880.04
404.49	1863.65
404.70	1763.30
404.90	1757.16
405.11	1746.92
405.32	1767.40
405.52	1652.71
405.73	1687.53
405.94	1714.15
406.15	1710.05
406.35	1783.78
406.56	1769.44
406.77	1767.40
406.98	1716.20
407.18	1769.44
407.39	1773.54
407.60	1681.38
407.80	1738.73
408.01	1763.30
408.22	1732.58
408.43	1728.49
408.63	1685.48
408.84	1810.40
409.05	1767.40
409.25	1771.49
409.46	1689.57
409.67	1718.25
409.88	1681.38
410.08	1693.67
410.29	1753.06
410.50	1763.30
410.70	1759.21
410.91	1669.09
411.12	1751.01
411.32	1830.88
411.53	1703.91
411.74	1808.36
411.95	1730.53
412.15	1746.92
412.36	1765.35
412.57	1738.73
412.77	1798.12
412.98	1785.83
413.19	1744.87
413.39	1759.21
413.60	1763.30
413.81	1814.50
414.01	1718.25
414.22	1742.82
414.43	1824.74
414.63	1697.77
414.84	1830.88
415.05	1708.01
415.25	1718.25
415.46	1767.40
415.67	1687.53
415.87	1781.73
416.08	1773.54
416.29	1773.54
416.49	1828.84
416.70	1675.24
416.91	1697.77
417.11	1691.62
417.32	1746.92
417.53	1765.35
417.73	1726.44
417.94	1720.29
418.15	1718.25
418.35	1683.43
418.56	1648.61
418.77	1824.74
418.97	1656.81
419.18	1751.01
419.38	1654.76
419.59	1683.43
419.80	1849.32
420.00	1640.42
420.21	1753.06
420.42	1783.78
420.62	1751.01
420.83	1675.24
421.04	1708.01
421.24	1708.01
421.45	1759.21
421.65	1669.09
421.86	1687.53
422.07	1705.96
422.27	1738.73
422.48	1705.96
422.69	1634.28
422.89	1687.53
423.10	1757.16
423.30	1628.14
423.51	1740.77
423.72	1705.96
423.92	1800.16
424.13	1630.18
424.33	1755.11
424.54	1779.68
424.75	1755.11
424.95	1753.06
425.16	1769.44
425.36	1757.16
425.57	1779.68
425.78	1767.40
425.98	1728.49
426.19	1728.49
426.39	1642.47
426.60	1771.49
426.81	1886.18
427.01	1718.25
427.22	1701.86
427.42	1560.55
427.63	1763.30
427.83	1732.58
428.04	1837.03
428.25	1789.92
428.45	1759.21
428.66	1744.87
428.86	1689.57
429.07	1710.05
429.28	1718.25
429.48	1748.97
429.69	1642.47
429.89	1695.72
430.10	1701.86
430.30	1798.12
430.51	1732.58
430.71	1718.25
430.92	1746.92
431.13	1677.29
431.33	1775.59
431.54	1728.49
431.74	1791.97
431.95	1832.93
432.15	1648.61
432.36	1740.77
432.56	1884.13
432.77	1871.84
432.98	1808.36
433.18	1785.83
433.39	1689.57
433.59	1732.58
433.80	1759.21
434.00	1771.49
434.21	1730.53
434.41	1632.23
434.62	1738.73
434.82	1708.01
435.03	1662.95
435.23	1736.68
435.44	1648.61
435.64	1681.38
435.85	1767.40
436.06	1800.16
436.26	1818.60
436.47	1644.52
436.67	1685.48
436.88	1736.68
437.08	1777.64
437.29	1808.36
437.49	1732.58
437.70	1814.50
437.90	1726.44
438.11	1785.83
438.31	1845.22
438.52	1912.80
438.72	1837.03
438.93	1908.71
439.13	1925.09
439.34	1789.92
439.54	1761.25
439.75	1802.21
439.95	1769.44
440.16	1732.58
440.36	1812.45
440.57	1781.73
440.77	1787.88
440.98	1710.05
441.18	1744.87
441.39	1746.92
441.59	1718.25
441.80	1863.65
442.00	1810.40
442.21	1806.31
442.41	1689.57
442.62	1822.69
442.82	1695.72
443.02	1732.58
443.23	1751.01
443.43	1730.53
443.64	1863.65
443.84	1648.61
444.05	1832.93
444.25	1759.21
444.46	1642.47
444.66	1751.01
444.87	1794.02
445.07	1724.39
445.28	1703.91
445.48	1775.59
445.69	1837.03
445.89	1884.13
446.09	1703.91
446.30	1949.67
446.50	2695.13
446.71	3706.82
446.91	4265.92
447.12	4800.44
447.32	4835.25
447.53	4157.38
447.73	3844.04
447.93	3489.74
448.14	3338.19
448.34	3364.81
448.55	2873.30
448.75	2895.83
448.96	2691.03
449.16	2428.89
449.36	2265.05
449.57	2064.35
449.77	1851.36
449.98	1826.79
450.18	1859.56
450.39	1830.88
450.59	1763.30
450.79	1783.78
451.00	1705.96
451.20	1738.73
451.41	1726.44
451.61	1753.06
451.81	1755.11
452.02	1716.20
452.22	1740.77
452.43	1755.11
452.63	1673.19
452.84	1738.73
453.04	1779.68
453.24	1773.54
453.45	1718.25
453.65	1759.21
453.86	1775.59
454.06	1769.44
454.26	1765.35
454.47	1685.48
454.67	1849.32
454.87	1769.44
455.08	1732.58
455.28	1791.97
455.49	1785.83
455.69	1705.96
455.89	1789.92
456.10	1818.60
456.30	1751.01
456.51	1771.49
456.71	1785.83
456.91	1783.78
457.12	1746.92
457.32	1837.03
457.52	1703.91
457.73	1804.26
457.93	1732.58
458.14	1714.15
458.34	1617.90
458.54	1693.67
458.75	1703.91
458.95	1796.07
459.15	1755.11
459.36	1816.55
459.56	1824.74
459.76	1857.51
459.97	1771.49
460.17	1812.45
460.37	1742.82
460.58	1812.45
460.78	1722.34
460.99	1742.82
461.19	1710.05
461.39	1763.30
461.60	1714.15
461.80	1841.12
462.00	1710.05
462.21	1734.63
462.41	1650.66
462.61	1636.33
462.82	1624.04
463.02	1791.97
463.22	1757.16
463.43	1775.59
463.63	1685.48
463.83	1759.21
464.04	1779.68
464.24	1775.59
464.44	1693.67
464.64	1804.26
464.85	1693.67
465.05	1808.36
465.25	1701.86
465.46	1689.57
465.66	1781.73
465.86	1798.12
466.07	1748.97
466.27	1705.96
466.47	1712.10
466.68	1769.44
466.88	1841.12
467.08	1802.21
467.29	1808.36
467.49	1720.29
467.69	1724.39
467.89	1714.15
468.10	1710.05
468.30	1689.57
468.50	1798.12
468.71	1781.73
468.91	1714.15
469.11	1830.88
469.31	1757.16
469.52	1689.57
469.72	1834.98
469.92	1857.51
470.13	1767.40
470.33	1720.29
470.53	1853.41
470.73	2062.30
470.94	2275.29
471.14	2389.98
471.34	2525.15
471.54	2418.65
471.75	2258.91
471.95	2211.81
472.15	2039.78
472.36	2101.22
472.56	2056.16
472.76	2084.83
472.96	2002.91
473.17	1929.19
473.37	1990.63
473.57	1755.11
473.77	1880.04
473.98	1736.68
474.18	1642.47
474.38	1882.08
474.58	1757.16
474.79	1705.96
474.99	1785.83
475.19	1855.46
475.39	1685.48
475.60	1708.01
475.80	1757.16
476.00	1685.48
476.20	1697.77
476.41	1683.43
476.61	1828.84
476.81	1802.21
477.01	1765.35
477.21	1847.27
477.42	1812.45
477.62	1636.33
477.82	1757.16
478.02	1609.70
478.23	1802.21
478.43	1689.57
478.63	1705.96
478.83	1675.24
479.03	1726.44
479.24	1789.92
479.44	1757.16
479.64	1687.53
479.84	1656.81
480.04	1652.71
480.25	1746.92
480.45	1652.71
480.65	1646.57
480.85	1824.74
481.06	1650.66
481.26	1726.44
481.46	1736.68
481.66	1800.16
481.86	1675.24
482.06	1812.45
482.27	1753.06
482.47	1621.99
482.67	1720.29
482.87	1755.11
483.07	1724.39
483.28	1757.16
483.48	1658.85
483.68	1654.76
483.88	1710.05
484.08	1632.23
484.29	1673.19
484.49	1671.14
484.69	1656.81
484.89	1728.49
485.09	1791.97
485.29	1796.07
485.50	1718.25
485.70	1746.92
485.90	1888.23
486.10	1773.54
486.30	1775.59
486.50	1787.88
486.71	1775.59
486.91	1798.12
487.11	1832.93
487.31	1613.80
487.51	1744.87
487.71	1720.29
487.91	1677.29
488.12	1748.97
488.32	1632.23
488.52	1626.09
488.72	1624.04
488.92	1695.72
489.12	1806.31
489.32	1861.60
489.53	1822.69
489.73	1644.52
489.93	1964.00
490.13	1718.25
490.33	1535.98
490.53	1738.73
490.73	1812.45
490.94	1691.62
491.14	1761.25
491.34	1834.98
491.54	2107.36
491.74	2627.54
491.94	2803.67
492.14	2885.59
492.34	3102.67
492.54	2772.95
492.75	2566.10
492.95	2506.71
493.15	2254.81
493.35	2254.81
493.55	2172.89
493.75	2117.60
493.95	2086.88
494.15	1978.34
494.35	1968.10
494.56	1904.61
494.76	1806.31
494.96	1834.98
495.16	1820.64
495.36	1763.30
495.56	1716.20
495.76	1732.58
495.96	1722.34
496.16	1740.77
496.36	1906.66
496.56	1746.92
496.77	1763.30
496.97	1708.01
497.17	1800.16
497.37	1638.38
497.57	1779.68
497.77	1787.88
497.97	1714.15
498.17	1744.87
498.37	1775.59
498.57	1761.25
498.77	1734.63
498.97	1691.62
499.17	1802.21
499.38	1812.45
499.58	1761.25
499.78	1871.84
499.98	1810.40
500.18	1796.07
500.38	1738.73
500.58	1984.48
500.78	2516.95
500.98	4423.61
501.18	5920.68
501.38	6791.06
501.58	6895.51
501.78	6533.02
501.98	5525.42
502.18	5007.28
502.38	4388.80
502.58	4034.50
502.78	3696.58
502.98	3565.51
503.18	3407.82
503.38	3307.47
503.59	2772.95
503.79	2697.17
503.99	2461.66
504.19	2306.01
504.39	2172.89
504.59	2148.32
504.79	2146.27
504.99	2009.06
505.19	1900.52
505.39	1824.74
505.59	1982.43
505.79	1964.00
505.99	1933.28
506.19	1859.56
506.39	1787.88
506.59	1834.98
506.79	1753.06
506.99	1857.51
507.19	1812.45
507.39	1746.92
507.59	1675.24
507.79	1726.44
507.99	1708.01
508.19	1744.87
508.39	1730.53
508.59	1755.11
508.79	1800.16
508.99	1816.55
509.19	1681.38
509.39	1773.54
509.59	1708.01
509.79	1712.10
509.99	1705.96
510.19	1834.98
510.39	1871.84
510.59	1767.40
510.79	1718.25
510.99	1650.66
511.19	1757.16
511.39	1855.46
511.59	1853.41
511.79	1888.23
511.99	1751.01
512.19	1767.40
512.38	1718.25
512.58	1738.73
512.78	1720.29
512.98	1841.12
513.18	1849.32
513.38	1677.29
513.58	1789.92
513.78	1812.45
513.98	1802.21
514.18	1738.73
514.38	1753.06
514.58	1759.21
514.78	1722.34
514.98	1722.34
515.18	1648.61
515.38	1630.18
515.58	1880.04
515.78	1714.15
515.98	1738.73
516.18	1794.02
516.38	1767.40
516.57	1751.01
516.77	1652.71
516.97	1744.87
517.17	1732.58
517.37	1671.14
517.57	1791.97
517.77	1796.07
517.97	1685.48
518.17	1689.57
518.37	1658.85
518.57	1716.20
518.77	1652.71
518.97	1718.25
519.16	1773.54
519.36	1740.77
519.56	1726.44
519.76	1718.25
519.96	1779.68
520.16	1814.50
520.36	1677.29
520.56	1820.64
520.76	1703.91
520.96	1769.44
521.16	1753.06
521.35	1773.54
521.55	1837.03
521.75	1781.73
521.95	1781.73
522.15	1710.05
522.35	1630.18
522.55	1722.34
522.75	1751.01
522.95	1689.57
523.14	1708.01
523.34	1730.53
523.54	1781.73
523.74	1791.97
523.94	1730.53
524.14	1652.71
524.34	1720.29
524.54	1812.45
524.73	1757.16
524.93	1804.26
525.13	1730.53
525.33	1591.27
525.53	1906.66
525.73	1748.97
525.93	1699.81
526.13	1669.09
526.32	1732.58
526.52	1744.87
526.72	1837.03
526.92	1763.30
527.12	1695.72
527.32	1652.71
527.52	1697.77
527.71	1818.60
527.91	1665.00
528.11	1773.54
528.31	1767.40
528.51	1628.14
528.71	1742.82
528.90	1769.44
529.10	1740.77
529.30	1773.54
529.50	1650.66
529.70	1748.97
529.90	1730.53
530.09	1738.73
530.29	1699.81
530.49	1730.53
530.69	1802.21
530.89	1724.39
531.09	1828.84
531.28	1722.34
531.48	1834.98
531.68	1800.16
531.88	1845.22
532.08	1808.36
532.28	1738.73
532.47	1736.68
532.67	1865.70
532.87	1732.58
533.07	1697.77
533.27	1796.07
533.46	1712.10
533.66	1779.68
533.86	1755.11
534.06	1718.25
534.26	1726.44
534.45	1771.49
534.65	1798.12
534.85	1746.92
535.05	1705.96
535.25	1771.49
535.44	1632.23
535.64	1724.39
535.84	1708.01
536.04	1656.81
536.24	1716.20
536.43	1679.33
536.63	1775.59
536.83	1658.85
537.03	1771.49
537.22	1720.29
537.42	1648.61
537.62	1781.73
537.82	1736.68
538.02	1796.07
538.21	1802.21
538.41	1902.56
538.61	1759.21
538.81	1695.72
539.00	1748.97
539.20	1685.48
539.40	1742.82
539.60	1810.40
539.79	1791.97
539.99	1791.97
540.19	1697.77
540.39	1814.50
540.58	1751.01
540.78	1705.96
540.98	1757.16
541.18	1816.55
541.37	1753.06
541.57	1683.43
541.77	1773.54
541.97	1630.18
542.16	1642.47
542.36	1710.05
542.56	1822.69
542.76	1855.46
542.95	1767.40
543.15	1742.82
543.35	1779.68
543.54	1740.77
543.74	1679.33
543.94	1781.73
544.14	1755.11
544.33	1742.82
544.53	1722.34
544.73	1705.96
544.93	1697.77
545.12	1767.40
545.32	1830.88
545.52	1724.39
545.71	1646.57
545.91	1785.83
546.11	1701.86
546.30	1658.85
546.50	1781.73
546.70	1738.73
546.90	1683.43
547.09	1693.67
547.29	1779.68
547.49	1830.88
547.68	1681.38
547.88	1779.68
548.08	1746.92
548.27	2144.22
548.47	1732.58
548.67	1804.26
548.87	1787.88
549.06	1751.01
549.26	1779.68
549.46	1824.74
549.65	1718.25
549.85	1736.68
550.05	1822.69
550.24	1755.11
550.44	1755.11
550.64	1779.68
550.83	1695.72
551.03	1871.84
551.23	1834.98
551.42	1804.26
551.62	1802.21
551.82	1767.40
552.01	1748.97
552.21	1775.59
552.41	1800.16
552.60	1779.68
552.80	1712.10
553.00	1757.16
553.19	1757.16
553.39	1855.46
553.59	1677.29
553.78	1730.53
553.98	1773.54
554.17	1675.24
554.37	1822.69
554.57	1757.16
554.76	1613.80
554.96	1724.39
555.16	1746.92
555.35	1736.68
555.55	1767.40
555.75	1873.89
555.94	1798.12
556.14	1691.62
556.33	1830.88
556.53	1708.01
556.73	1746.92
556.92	1767.40
557.12	1789.92
557.32	1830.88
557.51	1820.64
557.71	1751.01
557.90	1861.60
558.10	1832.93
558.30	1757.16
558.49	1785.83
558.69	1738.73
558.88	1728.49
559.08	1738.73
559.28	1773.54
559.47	1785.83
559.67	1746.92
559.86	1800.16
560.06	1748.97
560.26	1714.15
560.45	1810.40
560.65	1755.11
560.84	1834.98
561.04	1701.86
561.24	1722.34
561.43	1675.24
561.63	1789.92
561.82	1767.40
562.02	1759.21
562.22	1687.53
562.41	1718.25
562.61	1726.44
562.80	1751.01
563.00	1861.60
563.19	1736.68
563.39	1736.68
563.59	1800.16
563.78	1671.14
563.98	1613.80
564.17	1679.33
564.37	1705.96
564.56	1830.88
564.76	1710.05
564.96	1804.26
565.15	1720.29
565.35	1824.74
565.54	1753.06
565.74	1812.45
565.93	1794.02
566.13	1718.25
566.32	1746.92
566.52	1816.55
566.71	1769.44
566.91	1767.40
567.11	1703.91
567.30	1753.06
567.50	1781.73
567.69	1753.06
567.89	1679.33
568.08	1708.01
568.28	1740.77
568.47	1699.81
568.67	1826.79
568.86	1769.44
569.06	1818.60
569.25	1738.73
569.45	1767.40
569.64	1665.00
569.84	1734.63
570.04	1763.30
570.23	1665.00
570.43	1697.77
570.62	1822.69
570.82	1857.51
571.01	1693.67
571.21	1701.86
571.40	1712.10
571.60	1787.88
571.79	1773.54
571.99	1791.97
572.18	1665.00
572.38	1742.82
572.57	1728.49
572.77	1755.11
572.96	1900.52
573.16	1791.97
573.35	1726.44
573.55	1914.85
573.74	1791.97
573.94	1783.78
574.13	1748.97
574.33	1808.36
574.52	1865.70
574.71	1779.68
574.91	1781.73
575.10	1654.76
575.30	1789.92
575.49	1675.24
575.69	1705.96
575.88	1877.99
576.08	1789.92
576.27	1802.21
576.47	1759.21
576.66	1914.85
576.86	1830.88
577.05	1855.46
577.25	1779.68
577.44	1834.98
577.64	1716.20
577.83	1796.07
578.02	1730.53
578.22	1882.08
578.41	1834.98
578.61	1742.82
578.80	1703.91
579.00	1839.08
579.19	1716.20
579.39	1865.70
579.58	1771.49
579.77	1742.82
579.97	1869.80
580.16	1791.97
580.36	1779.68
580.55	1877.99
580.75	1822.69
580.94	1828.84
581.13	1906.66
581.33	1896.42
581.52	1726.44
581.72	1822.69
581.91	1902.56
582.11	1763.30
582.30	1820.64
582.49	1800.16
582.69	1843.17
582.88	1888.23
583.08	1775.59
583.27	1761.25
583.47	1818.60
583.66	1761.25
583.85	1759.21
584.05	1665.00
584.24	1800.16
584.44	1800.16
584.63	1818.60
584.82	1839.08
585.02	1904.61
585.21	1843.17
585.41	1828.84
585.60	1783.78
585.79	1861.60
585.99	1888.23
586.18	1841.12
586.37	2197.47
586.57	3418.06
586.76	9895.78
586.96	24632.97
587.15	33990.14
587.34	39490.98
587.54	41465.22
587.73	36195.80
587.93	25814.65
588.12	21214.91
588.31	17993.45
588.51	15994.64
588.70	14913.31
588.89	13926.19
589.09	12437.31
589.28	10714.97
589.47	9148.28
589.67	7708.55
589.86	6238.11
590.06	4665.27
590.25	3837.89
590.44	3166.16
590.64	2578.39
590.83	2287.58
591.02	2117.60
591.22	1982.43
591.41	1929.19
591.60	1847.27
591.80	1978.34
591.99	1742.82
592.18	1773.54
592.38	1798.12
592.57	1894.37
592.76	1757.16
592.96	1808.36
593.15	1705.96
593.34	1859.56
593.54	1730.53
593.73	1804.26
593.92	1720.29
594.12	1822.69
594.31	1800.16
594.50	1804.26
594.70	1763.30
594.89	1851.36
595.08	1636.33
595.28	1781.73
595.47	1935.33
595.66	1773.54
595.86	1675.24
596.05	1755.11
596.24	1746.92
596.43	1794.02
596.63	1859.56
596.82	1765.35
597.01	1753.06
597.21	1859.56
597.40	1767.40
597.59	1734.63
597.79	1767.40
597.98	1787.88
598.17	1759.21
598.36	1738.73
598.56	1806.31
598.75	1681.38
598.94	1806.31
599.14	1769.44
599.33	1703.91
599.52	1753.06
599.71	1861.60
599.91	1812.45
600.10	1726.44
600.29	1710.05
600.48	1818.60
600.68	1761.25
600.87	1841.12
601.06	1736.68
601.26	1722.34
601.45	1763.30
601.64	1695.72
601.83	1830.88
602.03	1726.44
602.22	1697.77
602.41	1804.26
602.60	1988.58
602.80	1742.82
602.99	1738.73
603.18	1673.19
603.37	1751.01
603.57	1808.36
603.76	1755.11
603.95	1769.44
604.14	1759.21
604.34	1671.14
604.53	1796.07
604.72	1710.05
604.91	1824.74
605.10	1802.21
605.30	1757.16
605.49	1880.04
605.68	1828.84
605.87	1845.22
606.07	1765.35
606.26	1814.50
606.45	1728.49
606.64	1796.07
606.84	1726.44
607.03	1759.21
607.22	1796.07
607.41	1746.92
607.60	1777.64
607.80	1787.88
607.99	1642.47
608.18	1839.08
608.37	1722.34
608.56	1726.44
608.76	1880.04
608.95	1861.60
609.14	1746.92
609.33	1798.12
609.52	1732.58
609.72	1761.25
609.91	1751.01
610.10	1773.54
610.29	1767.40
610.48	1849.32
610.68	1765.35
610.87	1751.01
611.06	1783.78
611.25	1734.63
611.44	1800.16
611.63	1724.39
611.83	1845.22
612.02	1665.00
612.21	1871.84
612.40	1701.86
612.59	1667.05
612.79	1603.56
612.98	1849.32
613.17	1824.74
613.36	1728.49
613.55	1861.60
613.74	1787.88
613.93	1689.57
614.13	1705.96
614.32	1740.77
614.51	1781.73
614.70	1689.57
614.89	1703.91
615.08	1767.40
615.28	2172.89
615.47	1691.62
615.66	1832.93
615.85	1689.57
616.04	1828.84
616.23	1742.82
616.42	1710.05
616.62	1728.49
616.81	1794.02
617.00	1759.21
617.19	1755.11
617.38	1642.47
617.57	1728.49
617.76	1744.87
617.95	1810.40
618.15	1800.16
618.34	1810.40
618.53	1681.38
618.72	1800.16
618.91	1822.69
619.10	1773.54
619.29	1767.40
619.48	1748.97
619.68	1742.82
619.87	1652.71
620.06	1748.97
620.25	1662.95
620.44	1673.19
620.63	1705.96
620.82	1726.44
621.01	1757.16
621.20	1665.00
621.39	1798.12
621.59	1742.82
621.78	1759.21
621.97	1603.56
622.16	1755.11
622.35	1708.01
622.54	1748.97
622.73	1824.74
622.92	1626.09
623.11	1730.53
623.30	1765.35
623.49	1720.29
623.68	1726.44
623.88	1785.83
624.07	1728.49
624.26	1738.73
624.45	1773.54
624.64	1695.72
624.83	1730.53
625.02	1648.61
625.21	1728.49
625.40	1734.63
625.59	1796.07
625.78	1697.77
625.97	1781.73
626.16	1748.97
626.35	1759.21
626.54	1693.67
626.74	1894.37
626.93	1722.34
627.12	1665.00
627.31	1769.44
627.50	1683.43
627.69	1808.36
627.88	1632.23
628.07	1718.25
628.26	1648.61
628.45	1695.72
628.64	1660.90
628.83	1738.73
629.02	1652.71
629.21	1736.68
629.40	1720.29
629.59	1722.34
629.78	1726.44
629.97	1779.68
630.16	1796.07
630.35	1748.97
630.54	1734.63
630.73	1679.33
630.92	1773.54
631.11	1669.09
631.30	1773.54
631.49	1812.45
631.68	1753.06
631.87	1814.50
632.06	1722.34
632.25	1828.84
632.44	1777.64
632.63	1656.81
632.82	1787.88
633.01	1697.77
633.20	1687.53
633.39	1705.96
633.58	1611.75
633.77	1710.05
633.96	1808.36
634.15	1767.40
634.34	1732.58
634.53	1685.48
634.72	1734.63
634.91	1587.18
635.10	1738.73
635.29	1716.20
635.48	1744.87
635.67	1736.68
635.86	1632.23
636.05	1843.17
636.24	1781.73
636.43	1787.88
636.62	1722.34
636.81	1578.98
637.00	1765.35
637.19	1767.40
637.38	1648.61
637.57	1677.29
637.76	1699.81
637.95	1716.20
638.14	1650.66
638.33	1650.66
638.52	1726.44
638.71	1583.08
638.89	1677.29
639.08	1900.52
639.27	1720.29
639.46	1648.61
639.65	1839.08
639.84	1746.92
640.03	1865.70
640.22	1804.26
640.41	1804.26
640.60	1630.18
640.79	1705.96
640.98	1791.97
641.17	1814.50
641.36	1714.15
641.55	1759.21
641.74	1652.71
641.92	1689.57
642.11	1650.66
642.30	1722.34
642.49	1689.57
642.68	1779.68
642.87	1769.44
643.06	1796.07
643.25	1630.18
643.44	1681.38
643.63	1738.73
643.82	1818.60
644.00	1544.17
644.19	1724.39
644.38	1677.29
644.57	1761.25
644.76	1761.25
644.95	1669.09
645.14	1705.96
645.33	1697.77
645.52	1839.08
645.71	1662.95
645.89	1712.10
646.08	1708.01
646.27	1759.21
646.46	1828.84
646.65	1701.86
646.84	1710.05
647.03	1626.09
647.22	1808.36
647.40	1769.44
647.59	1740.77
647.78	1632.23
647.97	1716.20
648.16	1712.10
648.35	1849.32
648.54	1826.79
648.73	1685.48
648.91	1773.54
649.10	1724.39
649.29	1665.00
649.48	1669.09
649.67	1722.34
649.86	1742.82
650.05	1722.34
650.23	1837.03
650.42	1644.52
650.61	1775.59
650.80	1757.16
650.99	1875.94
651.18	1798.12
651.36	1812.45
651.55	1695.72
651.74	1865.70
651.93	1720.29
652.12	1665.00
652.31	1771.49
652.49	1675.24
652.68	1687.53
652.87	1880.04
653.06	1689.57
653.25	1873.89
653.44	1703.91
653.62	1730.53
653.81	1695.72
654.00	1740.77
654.19	1748.97
654.38	1820.64
654.56	1765.35
654.75	1714.15
654.94	1712.10
655.13	1724.39
655.32	1767.40
655.51	1796.07
655.69	1730.53
655.88	1753.06
656.07	1640.42
656.26	1656.81
656.45	1705.96
656.63	1738.73
656.82	1806.31
657.01	1775.59
657.20	1677.29
657.38	1779.68
657.57	1751.01
657.76	1673.19
657.95	1755.11
658.14	1681.38
658.32	1714.15
658.51	1689.57
658.70	1791.97
658.89	1773.54
659.08	1677.29
659.26	1800.16
659.45	1683.43
659.64	1738.73
659.83	1675.24
660.01	1945.57
660.20	1736.68
660.39	1796.07
660.58	1665.00
660.76	1710.05
660.95	1648.61
661.14	1728.49
661.33	1626.09
661.51	1683.43
661.70	1652.71
661.89	1804.26
662.08	1722.34
662.26	1701.86
662.45	1677.29
662.64	1859.56
662.83	1753.06
663.01	1669.09
663.20	1714.15
663.39	1728.49
663.58	1658.85
663.76	1722.34
663.95	1791.97
664.14	1708.01
664.32	1683.43
664.51	1656.81
664.70	1695.72
664.89	1832.93
665.07	1603.56
665.26	1738.73
665.45	1640.42
665.64	1882.08
665.82	1708.01
666.01	1742.82
666.20	1714.15
666.38	1808.36
666.57	1757.16
666.76	2203.61
666.95	4421.56
667.13	10291.04
667.32	15230.74
667.51	17450.74
667.69	18753.25
667.88	17508.08
668.07	12218.18
668.25	9453.42
668.44	7946.12
668.63	7258.00
668.81	6766.49
669.00	6180.77
669.19	5652.39
669.38	5111.73
669.56	4609.98
669.75	4085.70
669.94	3381.20
670.12	2836.44
670.31	2504.67
670.50	2260.96
670.68	2068.45
670.87	1910.75
671.06	1791.97
671.24	1787.88
671.43	1890.28
671.62	1759.21
671.80	1689.57
671.99	1777.64
672.18	1693.67
672.36	1730.53
672.55	1763.30
672.74	1681.38
672.92	1693.67
673.11	1748.97
673.29	1695.72
673.48	1798.12
673.67	1736.68
673.85	1839.08
674.04	1730.53
674.23	1806.31
674.41	1824.74
674.60	1595.37
674.79	1628.14
674.97	1722.34
675.16	1744.87
675.34	1826.79
675.53	1718.25
675.72	1783.78
675.90	1773.54
676.09	1718.25
676.28	1720.29
676.46	1689.57
676.65	1759.21
676.83	1599.46
677.02	1751.01
677.21	1724.39
677.39	1705.96
677.58	1712.10
677.77	1689.57
677.95	1624.04
678.14	1720.29
678.32	1607.66
678.51	1755.11
678.70	1839.08
678.88	1615.85
679.07	1744.87
679.25	1732.58
679.44	1785.83
679.63	1693.67
679.81	1671.14
680.00	1751.01
680.18	1812.45
680.37	1769.44
680.55	1693.67
680.74	1699.81
680.93	1624.04
681.11	1769.44
681.30	1732.58
681.48	1724.39
681.67	1632.23
681.85	1738.73
682.04	1705.96
682.23	1714.15
682.41	1765.35
682.60	1714.15
682.78	1800.16
682.97	1669.09
683.15	1763.30
683.34	1757.16
683.53	1834.98
683.71	1673.19
683.90	1787.88
684.08	1843.17
684.27	1732.58
684.45	1683.43
684.64	1814.50
684.82	1679.33
685.01	1708.01
685.19	1650.66
685.38	1736.68
685.57	1665.00
685.75	1697.77
685.94	1722.34
686.12	1683.43
686.31	1701.86
686.49	1804.26
686.68	1630.18
686.86	1730.53
687.05	1720.29
687.23	1882.08
687.42	1722.34
687.60	1642.47
687.79	1736.68
687.97	1812.45
688.16	1777.64
688.34	1832.93
688.53	1568.74
688.71	1697.77
688.90	1810.40
689.08	1767.40
689.27	1626.09
689.45	1791.97
689.64	1736.68
689.82	1728.49
690.01	1738.73
690.19	1681.38
690.38	1757.16
690.56	1804.26
690.75	1681.38
690.93	1685.48
691.12	1640.42
691.30	1685.48
691.49	1730.53
691.67	1695.72
691.86	1808.36
692.04	1636.33
692.23	1673.19
692.41	1613.80
692.60	1880.04
692.78	1779.68
692.97	1718.25
693.15	1742.82
693.34	1859.56
693.52	1689.57
693.71	1697.77
693.89	1681.38
694.08	1701.86
694.26	1798.12
694.44	1714.15
694.63	1822.69
694.81	1660.90
695.00	1728.49
695.18	1802.21
695.37	1746.92
695.55	1769.44
695.74	1656.81
695.92	1619.94
696.10	1783.78
696.29	1626.09
696.47	1648.61
696.66	1673.19
696.84	1679.33
697.03	1767.40
697.21	1847.27
697.40	2340.83
697.58	1708.01
697.76	1660.90
697.95	1683.43
698.13	1705.96
698.32	1708.01
698.50	1699.81
698.68	1722.34
698.87	1763.30
699.05	1843.17
699.24	1699.81
699.42	1744.87
699.61	1789.92
699.79	1748.97
699.97	1742.82
700.16	1675.24
700.34	1689.57
700.53	1738.73
700.71	1824.74
700.89	1685.48
701.08	1761.25
701.26	1667.05
701.45	2054.11
701.63	1673.19
701.81	1730.53
702.00	1726.44
702.18	1658.85
702.37	1736.68
702.55	1740.77
702.73	1757.16
702.92	1648.61
703.10	1841.12
703.28	1718.25
703.47	1615.85
703.65	1708.01
703.84	1851.36
704.02	1695.72
704.20	1800.16
704.39	1681.38
704.57	1669.09
704.75	1791.97
704.94	1771.49
705.12	1675.24
705.30	1804.26
705.49	2293.72
705.67	4528.06
705.86	9418.61
706.04	12400.45
706.22	14323.49
706.41	15087.39
706.59	13354.80
706.77	9273.20
706.96	7200.66
707.14	6512.54
707.32	5846.95
707.51	5445.55
707.69	4661.18
707.87	4106.18
708.06	3510.22
708.24	2906.07
708.42	2498.52
708.61	2215.90
708.79	1949.67
708.97	1886.18
709.16	1857.51
709.34	1728.49
709.52	1726.44
709.71	1746.92
709.89	1783.78
710.07	1665.00
710.26	1695.72
710.44	1730.53
710.62	1787.88
710.80	1761.25
710.99	1785.83
711.17	1732.58
711.35	1746.92
711.54	1662.95
711.72	1757.16
711.90	1755.11
712.09	1753.06
712.27	1728.49
712.45	1748.97
712.63	1710.05
712.82	1730.53
713.00	1751.01
713.18	1699.81
713.37	1734.63
713.55	1773.54
713.73	1716.20
713.91	1812.45
714.10	1626.09
714.28	1732.58
714.46	1789.92
714.65	1708.01
714.83	1810.40
715.01	1693.67
715.19	1675.24
715.38	1644.52
715.56	1755.11
715.74	1734.63
715.92	1697.77
716.11	1761.25
716.29	1597.42
716.47	1681.38
716.65	1724.39
716.84	1667.05
717.02	1818.60
717.20	1587.18
717.38	1748.97
717.57	1699.81
717.75	1697.77
717.93	1710.05
718.11	1767.40
718.30	1708.01
718.48	1722.34
718.66	1796.07
718.84	1796.07
719.03	1699.81
719.21	1665.00
719.39	1806.31
719.57	1726.44
719.75	1791.97
719.94	1683.43
720.12	1667.05
720.30	1689.57
720.48	1761.25
720.67	1662.95
720.85	1613.80
721.03	1689.57
721.21	1703.91
721.39	1732.58
721.58	1742.82
721.76	1757.16
721.94	1773.54
722.12	1748.97
722.30	1814.50
722.49	1767.40
722.67	1785.83
722.85	1736.68
723.03	1691.62
723.21	1755.11
723.40	1759.21
723.58	1699.81
723.76	1687.53
723.94	1769.44
724.12	1697.77
724.30	1802.21
724.49	1732.58
724.67	1697.77
724.85	1781.73
725.03	1681.38
725.21	1738.73
725.40	1806.31
725.58	1689.57
725.76	1902.56
725.94	1767.40
726.12	1677.29
726.30	1751.01
726.49	1677.29
726.67	1669.09
726.85	1775.59
727.03	1826.79
727.21	2152.42
727.39	2981.84
727.57	3751.88
727.76	4263.87
727.94	4437.95
728.12	4257.73
728.30	3626.95
728.48	2983.89
728.66	2734.04
728.84	2535.39
729.03	2314.20
729.21	2117.60
729.39	1968.10
729.57	1873.89
729.75	1796.07
729.93	1884.13
730.11	1722.34
730.30	1755.11
730.48	1740.77
730.66	1816.55
730.84	1683.43
731.02	1732.58
731.20	1679.33
731.38	1732.58
731.56	1642.47
731.74	1617.90
731.93	1703.91
732.11	1705.96
732.29	1675.24
732.47	1834.98
732.65	1755.11
732.83	1783.78
733.01	1779.68
733.19	1722.34
733.37	1718.25
733.56	1767.40
733.74	1714.15
733.92	1791.97
734.10	1718.25
734.28	1759.21
734.46	1619.94
734.64	1748.97
734.82	1705.96
735.00	1691.62
735.18	1693.67
735.36	1718.25
735.54	1714.15
735.73	1697.77
735.91	1779.68
736.09	1771.49
736.27	1705.96
736.45	1710.05
736.63	1652.71
736.81	1673.19
736.99	1718.25
737.17	1834.98
737.35	1673.19
737.53	1685.48
737.71	1693.67
737.89	1839.08
738.07	1630.18
738.25	1685.48
738.43	1607.66
738.61	1746.92
738.80	1626.09
738.98	1615.85
739.16	1738.73
739.34	1691.62
739.52	1777.64
739.70	1642.47
739.88	1753.06
740.06	1837.03
740.24	1568.74
740.42	1847.27
740.60	1697.77
740.78	1683.43
740.96	1581.03
741.14	1665.00
741.32	1763.30
741.50	1658.85
741.68	1822.69
741.86	1771.49
742.04	1615.85
742.22	1613.80
742.40	1779.68
742.58	1744.87
742.76	1630.18
742.94	1783.78
743.12	1673.19
743.30	1691.62
743.48	1718.25
743.66	1587.18
743.84	1591.27
744.02	1771.49
744.20	1740.77
744.38	1708.01
744.56	1738.73
744.74	1824.74
744.92	1804.26
745.10	1810.40
745.28	1800.16
745.46	1839.08
745.64	1673.19
745.82	1763.30
746.00	1658.85
746.18	1701.86
746.36	1685.48
746.54	1761.25
746.72	1669.09
746.90	1665.00
747.08	1742.82
747.26	1656.81
747.44	1773.54
747.62	1773.54
747.80	1708.01
747.98	1742.82
748.15	1665.00
748.33	1804.26
748.51	1730.53
748.69	1736.68
748.87	1646.57
749.05	1697.77
749.23	1751.01
749.41	1769.44
749.59	1705.96
749.77	1726.44
749.95	1652.71
750.13	1648.61
750.31	1753.06
750.49	1677.29
750.67	1755.11
750.85	1798.12
751.03	1736.68
751.20	1873.89
751.38	1720.29
751.56	1683.43
751.74	1718.25
751.92	1722.34
752.10	1640.42
752.28	1826.79
752.46	1732.58
752.64	1720.29
752.82	1787.88
753.00	1791.97
753.18	1736.68
753.35	1742.82
753.53	1701.86
753.71	1662.95
753.89	1767.40
754.07	1656.81
754.25	1816.55
754.43	1753.06
754.61	1748.97
754.79	1753.06
754.97	1767.40
755.14	1763.30
755.32	1667.05
755.50	1759.21
755.68	1781.73
755.86	1636.33
756.04	1701.86
756.22	1687.53
756.40	1738.73
756.57	1791.97
756.75	1658.85
756.93	1781.73
757.11	1740.77
757.29	1640.42
757.47	1724.39
757.65	1603.56
757.82	1617.90
758.00	1650.66
758.18	1685.48
758.36	1716.20
758.54	1791.97
758.72	1617.90
758.90	1744.87
759.07	1724.39
759.25	1576.94
759.43	1691.62
759.61	1687.53
759.79	2207.71
759.97	1789.92
760.15	1689.57
760.32	1615.85
760.50	1712.10
760.68	1736.68
760.86	1624.04
761.04	1796.07
761.22	1697.77
761.39	1650.66
761.57	1753.06
761.75	1718.25
761.93	1755.11
762.11	1746.92
762.28	1740.77
762.46	1714.15
762.64	1730.53
762.82	1654.76
763.00	1759.21
763.18	1738.73
763.35	1689.57
763.53	1791.97
763.71	1722.34
763.89	1744.87
764.07	1640.42
764.24	1771.49
764.42	1773.54
764.60	1701.86
764.78	1708.01
764.96	1757.16
765.13	1716.20
765.31	1675.24
765.49	1773.54
765.67	1699.81
765.84	1677.29
766.02	1722.34
766.20	1583.08
766.38	1751.01
766.56	1722.34
766.73	1746.92
766.91	1687.53
767.09	1667.05
767.27	1773.54
767.44	1660.90
767.62	1728.49
767.80	1718.25
767.98	1732.58
768.15	1691.62
768.33	1669.09
768.51	1671.14
768.69	1781.73
768.87	1681.38
769.04	1736.68
769.22	1816.55
769.40	1759.21
769.58	1890.28
769.75	1753.06
769.93	1779.68
770.11	1771.49
770.28	1599.46
770.46	1794.02
770.64	1783.78
770.82	1724.39
770.99	1683.43
771.17	1734.63
771.35	1722.34
771.53	1634.28
771.70	1642.47
771.88	1699.81
772.06	1789.92
772.23	1732.58
772.41	1796.07
772.59	1609.70
772.77	1628.14
772.94	1728.49
773.12	1789.92
773.30	1693.67
773.47	1798.12
773.65	1699.81
773.83	1783.78
774.01	1757.16
774.18	1648.61
774.36	1681.38
774.54	1736.68
774.71	1714.15
774.89	1572.84
775.07	1646.57
775.24	1679.33
775.42	1644.52
775.60	1828.84
775.78	1726.44
775.95	1662.95
776.13	1669.09
776.31	1636.33
776.48	1779.68
776.66	1794.02
776.84	1738.73
777.01	1634.28
777.19	1656.81
777.37	1722.34
777.54	1843.17
777.72	1875.94
777.90	1714.15
778.07	1609.70
778.25	1834.98
778.43	1820.64
778.60	1701.86
778.78	1740.77
778.96	1746.92
779.13	1669.09
779.31	1857.51
779.49	1718.25
779.66	1787.88
779.84	1662.95
780.01	1714.15
780.19	1671.14
780.37	1718.25
780.54	1806.31
780.72	1644.52
780.90	1769.44
781.07	1660.90
781.25	1740.77
781.43	1804.26
781.60	1708.01
781.78	1755.11
781.95	1734.63
782.13	1648.61
782.31	1634.28
782.48	1595.37
782.66	1701.86
782.83	1789.92
783.01	1724.39
783.19	1728.49
783.36	1746.92
783.54	1732.58
783.72	1757.16
783.89	1689.57
784.07	1677.29
784.24	1748.97
784.42	1777.64
784.60	1718.25
784.77	1724.39
784.95	1632.23
785.12	1718.25
785.30	1681.38
785.47	1671.14
785.65	1665.00
785.83	1718.25
786.00	1611.75
786.18	1738.73
786.35	1662.95
786.53	1607.66
786.71	1800.16
786.88	1775.59
787.06	1755.11
787.23	1785.83
787.41	1650.66
787.58	1708.01
787.76	1630.18
787.94	1738.73
788.11	1734.63
788.29	1683.43
788.46	1679.33
788.64	1646.57
788.81	1642.47
788.99	1689.57
789.16	1566.70
789.34	1746.92
789.52	1675.24
789.69	1738.73
789.87	1599.46
790.04	1669.09
790.22	1695.72
790.39	1843.17
790.57	1624.04
790.74	1669.09
790.92	1755.11
791.09	1634.28
791.27	1705.96
791.44	1779.68
791.62	1716.20
791.79	1705.96
791.97	1742.82
792.15	1884.13
792.32	1742.82
792.50	1822.69
792.67	1738.73
792.85	1755.11
793.02	1710.05
793.20	1724.39
793.37	1609.70
793.55	1697.77
793.72	1617.90
793.90	1761.25
794.07	1607.66
794.25	1662.95
794.42	1701.86
794.60	1630.18
794.77	1736.68
794.95	1697.77
795.12	1665.00
795.30	1648.61
795.47	1593.32
795.65	1853.41
795.82	1636.33
796.00	1636.33
796.17	1667.05
796.34	1722.34
796.52	1748.97
796.69	1728.49
796.87	1773.54
797.04	1652.71
797.22	1769.44
797.39	1699.81
797.57	1646.57
797.74	1705.96
797.92	1734.63
798.09	1726.44
798.27	1769.44
798.44	1742.82
798.62	1683.43
798.79	1720.29
798.96	1781.73
799.14	1789.92
799.31	1802.21
799.49	1640.42
799.66	1718.25
799.84	1787.88
800.01	1640.42
800.19	1761.25
800.36	1605.61
800.53	1718.25
800.71	1804.26
800.88	1789.92
801.06	1714.15
801.23	1660.90
801.41	1718.25
801.58	1708.01
801.75	1699.81
801.93	1685.48
802.10	1791.97
802.28	1683.43
802.45	1685.48
802.63	1798.12
802.80	1740.77
802.97	1667.05
803.15	1665.00
803.32	1699.81
803.50	1654.76
803.67	1705.96
803.84	1681.38
804.02	1693.67
804.19	1705.96
804.37	1544.17
804.54	1615.85
804.71	1644.52
804.89	1716.20
805.06	1587.18
805.24	1675.24
805.41	1726.44
805.58	1638.38
805.76	1841.12
805.93	1761.25
806.10	1789.92
806.28	1736.68
806.45	1746.92
806.63	1710.05
806.80	1722.34
806.97	1662.95
807.15	1697.77
807.32	1689.57
807.49	1675.24
807.67	1757.16
807.84	1722.34
808.01	1638.38
808.19	1882.08
808.36	1882.08
808.54	1724.39
808.71	1675.24
808.88	1710.05
809.06	1755.11
809.23	1734.63
809.40	1658.85
809.58	1763.30
809.75	1724.39
809.92	1734.63
810.10	1796.07
810.27	1673.19
810.44	1826.79
810.62	1783.78
810.79	1730.53
810.96	1689.57
811.14	1701.86
811.31	1763.30
811.48	1828.84
811.66	1673.19
811.83	1802.21
812.00	1742.82
812.18	1720.29
812.35	1818.60
812.52	1699.81
812.69	1683.43
812.87	1759.21
813.04	1654.76
813.21	1695.72
813.39	1718.25
813.56	1726.44
813.73	1755.11
813.91	1638.38
814.08	1705.96
814.25	1695.72
814.42	1626.09
814.60	1705.96
814.77	1724.39
814.94	1759.21
815.12	1660.90
815.29	1839.08
815.46	1667.05
815.63	1771.49
815.81	1703.91
815.98	1687.53
816.15	1753.06
816.33	1677.29
816.50	1685.48
816.67	1746.92
816.84	1718.25
817.02	1615.85
817.19	1685.48
817.36	1677.29
817.53	1656.81
817.71	1679.33
817.88	1806.31
818.05	1665.00
818.22	1705.96
818.40	1781.73
818.57	1710.05
818.74	1718.25
818.91	1712.10
819.09	1730.53
819.26	1718.25
819.43	1728.49
819.60	1646.57
819.78	1759.21
819.95	1683.43
820.12	1691.62
820.29	1781.73
820.47	1738.73
820.64	1662.95
820.81	1650.66
820.98	1699.81
821.15	1681.38
821.33	1751.01
821.50	1683.43
821.67	1759.21
821.84	1636.33
822.02	1732.58
822.19	1748.97
822.36	1695.72
822.53	1685.48
822.70	1685.48
822.88	1691.62
823.05	1812.45
823.22	1722.34
823.39	1722.34
823.56	1703.91
823.74	1794.02
823.91	1660.90
824.08	1644.52
824.25	1568.74
824.42	1789.92
824.60	1632.23
824.77	1757.16
824.94	1734.63
825.11	1720.29
825.28	1605.61
825.45	1671.14
825.63	1679.33
825.80	1632.23
825.97	1705.96
826.14	1687.53
826.31	1638.38
826.48	1689.57
826.66	1675.24
826.83	1761.25
827.00	1740.77
827.17	1628.14
827.34	1718.25
827.51	1693.67
827.69	1603.56
827.86	1595.37
828.03	1646.57
828.20	1765.35
828.37	1771.49
828.54	1648.61
828.71	1617.90
828.89	1824.74
829.06	1722.34
829.23	1816.55
829.40	1609.70
829.57	1675.24
829.74	1695.72
829.91	1732.58
830.09	1632.23
830.26	1746.92
830.43	1875.94
830.60	1693.67
830.77	1681.38
830.94	1763.30
831.11	1730.53
831.28	1732.58
831.46	1748.97
831.63	1673.19
831.80	1675.24
831.97	1615.85
832.14	1734.63
832.31	1753.06
832.48	1660.90
832.65	1783.78
832.82	1660.90
832.99	1769.44
833.17	1599.46
833.34	1810.40
833.51	1705.96
833.68	1595.37
833.85	1794.02
834.02	1658.85
834.19	1681.38
834.36	1724.39
834.53	1697.77
834.70	1818.60
834.87	1751.01
835.04	1679.33
835.22	1665.00
835.39	1646.57
835.56	1654.76
835.73	1646.57
835.90	1755.11
836.07	1626.09
836.24	1773.54
836.41	1728.49
836.58	1650.66
836.75	1779.68
836.92	1726.44
837.09	1648.61
837.26	1730.53
837.43	1689.57
837.60	1785.83
837.77	1638.38
837.94	1718.25
838.12	1691.62
838.29	1705.96
838.46	1677.29
838.63	1673.19
838.80	1761.25
838.97	1789.92
839.14	1740.77
839.31	1800.16
839.48	1726.44
839.65	1685.48
839.82	1845.22
839.99	1695.72
840.16	1724.39
840.33	1689.57
840.50	1662.95
840.67	1693.67
840.84	1628.14
841.01	1712.10
841.18	1673.19
841.35	1697.77
841.52	1751.01
841.69	1794.02
841.86	1730.53
842.03	1730.53
842.20	1722.34
842.37	1716.20
842.54	1695.72
842.71	1734.63
842.88	1626.09
843.05	1800.16
843.22	1710.05
843.39	1736.68
843.56	1665.00
843.73	1689.57
843.90	1716.20
844.07	1677.29
844.24	1699.81
844.41	1748.97
844.58	1771.49
844.75	1724.39
844.92	1781.73
845.09	1689.57
845.26	1691.62
845.43	1781.73
845.60	1720.29
845.77	1773.54
845.94	1699.81
846.10	1691.62
846.27	1665.00
846.44	1681.38
846.61	1724.39
846.78	1734.63
846.95	1785.83
847.12	1673.19
847.29	1695.72
847.46	1658.85
847.63	1730.53
847.80	1648.61
847.97	1716.20
848.14	1849.32
848.31	1648.61
848.48	1642.47
848.65	1681.38
848.82	1634.28
848.98	1882.08
849.15	1765.35
849.32	1763.30
849.49	1781.73
849.66	1777.64
849.83	1675.24
850.00	1656.81
850.17	1669.09
850.34	1742.82
850.51	1665.00
850.68	1665.00
850.85	1779.68
851.01	1761.25
851.18	1658.85
851.35	1742.82
851.52	1759.21
851.69	1796.07
851.86	1728.49
852.03	1697.77
852.20	1726.44
852.37	1798.12
852.53	1554.41
852.70	1751.01
852.87	1732.58
853.04	1791.97
853.21	1720.29
853.38	1814.50
853.55	1767.40
853.72	1755.11
853.89	1716.20
854.05	1724.39
854.22	1660.90
854.39	1675.24
854.56	1742.82
854.73	1714.15
854.90	1644.52
855.07	1724.39
855.23	1654.76
855.40	1660.90
855.57	1671.14
855.74	1705.96
855.91	1886.18
856.08	1652.71
856.25	1703.91
856.41	1687.53
856.58	1646.57
856.75	1757.16
856.92	1673.19
857.09	1785.83
857.26	1636.33
857.42	1675.24
857.59	1665.00
857.76	1693.67
857.93	1765.35
858.10	1755.11
858.27	1671.14
858.43	1703.91
858.60	1656.81
858.77	1535.98
858.94	1699.81
859.11	1814.50
859.27	1685.48
859.44	1640.42
859.61	1804.26
859.78	1722.34
859.95	1646.57
860.12	1640.42
860.28	1812.45
860.45	1783.78
860.62	1740.77
860.79	1699.81
860.95	1720.29
861.12	1615.85
861.29	1665.00
861.46	1697.77
861.63	1783.78
861.79	1732.58
861.96	1660.90
862.13	1615.85
862.30	1845.22
862.47	1697.77
862.63	1642.47
862.80	1761.25
862.97	1738.73
863.14	1726.44
863.30	1628.14
863.47	1738.73
863.64	1814.50
863.81	1677.29
863.97	1689.57
864.14	1683.43
864.31	1667.05
864.48	1763.30
864.65	1705.96
864.81	1849.32
864.98	1775.59
865.15	1734.63
865.32	1718.25
865.48	1679.33
865.65	1767.40
865.82	1765.35
865.98	1705.96
866.15	1705.96
866.32	1708.01
866.49	1761.25
866.65	1759.21
866.82	1726.44
866.99	1718.25
867.16	1710.05
867.32	1665.00
867.49	1687.53
867.66	1632.23
867.83	1703.91
867.99	1650.66
868.16	1652.71
868.33	1595.37
868.49	1791.97
868.66	1714.15
868.83	1730.53
868.99	1687.53
869.16	1697.77
869.33	1769.44
869.50	1800.16
869.66	1783.78
869.83	1767.40
870.00	1687.53
870.16	1746.92
870.33	1699.81
870.50	1826.79
870.66	1720.29
870.83	1877.99
871.00	1787.88
871.17	1765.35
871.33	1789.92
871.50	1710.05
871.67	1697.77
871.83	1746.92
872.00	1830.88
872.17	1720.29
872.33	1820.64
872.50	1773.54
872.67	1746.92
872.83	1644.52
873.00	1701.86
873.17	1726.44
873.33	1808.36
873.50	1796.07
873.67	1714.15
873.83	1640.42
874.00	1687.53
874.16	1783.78
874.33	1681.38
874.50	1720.29
874.66	1740.77
874.83	1710.05
875.00	1746.92
875.16	1785.83
875.33	1751.01
875.50	1636.33
875.66	1636.33
875.83	1695.72
875.99	1759.21
876.16	1701.86
876.33	1642.47
876.49	1724.39
876.66	1658.85
876.83	1742.82
876.99	1650.66
877.16	1685.48
877.32	1677.29
877.49	1742.82
877.66	1722.34
877.82	1814.50
877.99	1689.57
878.15	1800.16
878.32	1730.53
878.49	1738.73
878.65	1710.05
878.82	1705.96
878.98	1628.14
879.15	1748.97
879.32	1708.01
879.48	1779.68
879.65	1738.73
879.81	1615.85
879.98	1781.73
880.15	1683.43
880.31	1751.01
880.48	1644.52
880.64	1757.16
880.81	1740.77
880.97	1796.07
881.14	1708.01
881.31	1615.85
881.47	1890.28
881.64	1695.72
881.80	1697.77
881.97	1771.49
882.13	1763.30
882.30	1669.09
882.47	1697.77
882.63	1720.29
882.80	1689.57
882.96	1720.29
883.13	1714.15
883.29	1650.66
883.46	1714.15
883.62	1837.03
883.79	1681.38
883.95	1771.49
884.12	1718.25
884.29	1771.49
884.45	1714.15
884.62	1720.29
884.78	1683.43
884.95	1755.11
885.11	1695.72
885.28	1693.67
885.44	1660.90
885.61	1773.54
885.77	1806.31
885.94	1769.44
886.10	1689.57
886.27	1730.53
886.43	1869.80
886.60	1816.55
886.76	1679.33
886.93	1609.70
887.09	1648.61
887.26	1671.14
887.42	1763.30
887.59	1785.83
887.75	1832.93
887.92	1804.26
888.08	1814.50
888.25	1787.88
888.41	1763.30
888.58	1732.58
888.74	1667.05
888.91	1687.53
>>>>>End Processed Spectral Data<<<<<
