SpectraSuite Data File
++++++++++++++++++++++++++++++++++++
Date: Mon Jun 06 13:42:37 CEST 2016
User: root
Dark Spectrum Present: No
Reference Spectrum Present: No
Number of Sampled Component Spectra: 1
Spectrometers: USB4C02835
Integration Time (usec): 100000 (USB4C02835)
Spectra Averaged: 1 (USB4C02835)
Boxcar Smoothing: 0 (USB4C02835)
Correct for Electrical Dark: No (USB4C02835)
Strobe/Lamp Enabled: No (USB4C02835)
Correct for Detector Non-linearity: No (USB4C02835)
Correct for Stray Light: No (USB4C02835)
Number of Pixels in Processed Spectrum: 3648
>>>>>Begin Processed Spectral Data<<<<<
177.47	1472.49
177.69	1472.49
177.91	1472.49
178.13	1427.43
178.36	1460.20
178.58	1654.76
178.80	1753.06
179.02	1640.42
179.24	1611.75
179.46	1673.19
179.68	1742.82
179.90	1673.19
180.13	1689.57
180.35	1648.61
180.57	1695.72
180.79	1720.29
181.01	1742.82
181.23	1714.15
181.45	1757.16
181.67	1744.87
181.90	1748.97
182.12	1691.62
182.34	1642.47
182.56	1697.77
182.78	1687.53
183.00	1718.25
183.22	1677.29
183.44	1619.94
183.66	1843.17
183.89	1869.80
184.11	1714.15
184.33	1779.68
184.55	1761.25
184.77	1791.97
184.99	1714.15
185.21	1691.62
185.43	1779.68
185.65	1708.01
185.87	1751.01
186.10	1832.93
186.32	1830.88
186.54	1742.82
186.76	1779.68
186.98	1763.30
187.20	1658.85
187.42	1630.18
187.64	1683.43
187.86	1730.53
188.08	1779.68
188.30	1703.91
188.52	1800.16
188.75	1705.96
188.97	1712.10
189.19	1685.48
189.41	1669.09
189.63	1800.16
189.85	1660.90
190.07	1617.90
190.29	1617.90
190.51	1738.73
190.73	1615.85
190.95	1800.16
191.17	1650.66
191.39	1593.32
191.61	1656.81
191.84	1628.14
192.06	1722.34
192.28	1599.46
192.50	1873.89
192.72	1701.86
192.94	1724.39
193.16	1734.63
193.38	1751.01
193.60	1787.88
193.82	1681.38
194.04	1742.82
194.26	1724.39
194.48	1734.63
194.70	1673.19
194.92	1740.77
195.14	1708.01
195.36	1642.47
195.58	1681.38
195.80	1662.95
196.02	1665.00
196.24	1677.29
196.46	1697.77
196.69	1660.90
196.91	1849.32
197.13	1720.29
197.35	1687.53
197.57	1753.06
197.79	1699.81
198.01	1787.88
198.23	1675.24
198.45	1724.39
198.67	1636.33
198.89	1708.01
199.11	1705.96
199.33	1576.94
199.55	1587.18
199.77	1748.97
199.99	1724.39
200.21	1658.85
200.43	1720.29
200.65	1621.99
200.87	1505.26
201.09	1708.01
201.31	1665.00
201.53	1669.09
201.75	1681.38
201.97	1724.39
202.19	1697.77
202.41	1699.81
202.63	1816.55
202.85	1703.91
203.07	1705.96
203.29	1751.01
203.51	1554.41
203.73	1626.09
203.95	1890.28
204.17	1673.19
204.39	1775.59
204.61	1740.77
204.83	1656.81
205.05	1759.21
205.27	1765.35
205.49	1769.44
205.71	1681.38
205.93	1644.52
206.15	1621.99
206.37	1718.25
206.59	1781.73
206.81	1665.00
207.03	1685.48
207.25	1583.08
207.47	1820.64
207.69	1708.01
207.91	1724.39
208.13	1777.64
208.34	1650.66
208.56	1656.81
208.78	1699.81
209.00	1695.72
209.22	1660.90
209.44	1724.39
209.66	1658.85
209.88	1718.25
210.10	1640.42
210.32	1669.09
210.54	1818.60
210.76	1724.39
210.98	1742.82
211.20	1609.70
211.42	1726.44
211.64	1775.59
211.86	1734.63
212.08	1751.01
212.30	1734.63
212.52	1654.76
212.74	1751.01
212.96	1660.90
213.17	1742.82
213.39	1767.40
213.61	1699.81
213.83	1660.90
214.05	1603.56
214.27	1744.87
214.49	1683.43
214.71	1626.09
214.93	1740.77
215.15	1703.91
215.37	1753.06
215.59	1648.61
215.81	1693.67
216.03	1722.34
216.24	1693.67
216.46	1638.38
216.68	1744.87
216.90	1665.00
217.12	1718.25
217.34	1679.33
217.56	1783.78
217.78	1775.59
218.00	1742.82
218.22	1642.47
218.44	1677.29
218.66	1736.68
218.87	1830.88
219.09	1734.63
219.31	1685.48
219.53	1648.61
219.75	1689.57
219.97	1636.33
220.19	1742.82
220.41	1724.39
220.63	1716.20
220.85	1662.95
221.06	1660.90
221.28	1759.21
221.50	1710.05
221.72	1671.14
221.94	1693.67
222.16	1613.80
222.38	1732.58
222.60	1730.53
222.82	1691.62
223.03	1804.26
223.25	1648.61
223.47	1767.40
223.69	1785.83
223.91	1720.29
224.13	1732.58
224.35	1689.57
224.57	1791.97
224.78	1759.21
225.00	1611.75
225.22	1644.52
225.44	1611.75
225.66	1751.01
225.88	1693.67
226.10	1757.16
226.32	1736.68
226.53	1720.29
226.75	1687.53
226.97	1705.96
227.19	1644.52
227.41	1656.81
227.63	1679.33
227.85	1603.56
228.06	1697.77
228.28	1732.58
228.50	1732.58
228.72	1675.24
228.94	1722.34
229.16	1566.70
229.37	1640.42
229.59	1681.38
229.81	1779.68
230.03	1658.85
230.25	1611.75
230.47	1617.90
230.69	1564.65
230.90	1720.29
231.12	1669.09
231.34	1697.77
231.56	1724.39
231.78	1681.38
232.00	1658.85
232.21	1722.34
232.43	1673.19
232.65	1615.85
232.87	1726.44
233.09	1599.46
233.30	1708.01
233.52	1755.11
233.74	1646.57
233.96	1669.09
234.18	1769.44
234.40	1658.85
234.61	1740.77
234.83	1644.52
235.05	1578.98
235.27	1841.12
235.49	1773.54
235.70	1679.33
235.92	1798.12
236.14	1695.72
236.36	1794.02
236.58	1591.27
236.79	1763.30
237.01	1654.76
237.23	1683.43
237.45	1820.64
237.67	1626.09
237.88	1769.44
238.10	1837.03
238.32	1636.33
238.54	1757.16
238.76	1701.86
238.97	1726.44
239.19	1636.33
239.41	1746.92
239.63	1685.48
239.85	1619.94
240.06	1701.86
240.28	1697.77
240.50	1757.16
240.72	1683.43
240.93	1662.95
241.15	1820.64
241.37	1660.90
241.59	1783.78
241.81	1667.05
242.02	1656.81
242.24	1710.05
242.46	1751.01
242.68	1621.99
242.89	1691.62
243.11	1775.59
243.33	1697.77
243.55	1710.05
243.76	1742.82
243.98	1632.23
244.20	1761.25
244.42	1705.96
244.64	1689.57
244.85	1671.14
245.07	1628.14
245.29	1619.94
245.51	1626.09
245.72	1714.15
245.94	1763.30
246.16	1759.21
246.38	1746.92
246.59	1673.19
246.81	1728.49
247.03	1728.49
247.24	1626.09
247.46	1628.14
247.68	1703.91
247.90	1681.38
248.11	1638.38
248.33	1677.29
248.55	1710.05
248.77	1669.09
248.98	1705.96
249.20	1767.40
249.42	1732.58
249.64	1759.21
249.85	1703.91
250.07	1578.98
250.29	1751.01
250.50	1755.11
250.72	1634.28
250.94	1728.49
251.16	1769.44
251.37	1730.53
251.59	1755.11
251.81	1742.82
252.02	1834.98
252.24	1677.29
252.46	1699.81
252.68	1642.47
252.89	1628.14
253.11	1591.27
253.33	1763.30
253.54	1751.01
253.76	1619.94
253.98	1740.77
254.20	1662.95
254.41	1662.95
254.63	1714.15
254.85	1646.57
255.06	1705.96
255.28	1755.11
255.50	1763.30
255.71	1644.52
255.93	1550.31
256.15	1712.10
256.36	1785.83
256.58	1648.61
256.80	1671.14
257.02	1669.09
257.23	1634.28
257.45	1693.67
257.67	1728.49
257.88	1667.05
258.10	1685.48
258.32	1638.38
258.53	1714.15
258.75	1785.83
258.97	1675.24
259.18	1689.57
259.40	1681.38
259.62	1798.12
259.83	1740.77
260.05	1744.87
260.27	1970.15
260.48	1744.87
260.70	1660.90
260.92	1679.33
261.13	1734.63
261.35	1746.92
261.57	1685.48
261.78	1593.32
262.00	1574.89
262.22	1744.87
262.43	1574.89
262.65	1685.48
262.86	1687.53
263.08	1724.39
263.30	1685.48
263.51	1591.27
263.73	1656.81
263.95	1712.10
264.16	1654.76
264.38	1650.66
264.60	1738.73
264.81	1650.66
265.03	1679.33
265.25	1781.73
265.46	1705.96
265.68	1716.20
265.89	1718.25
266.11	1591.27
266.33	1722.34
266.54	1769.44
266.76	1705.96
266.98	1722.34
267.19	1789.92
267.41	1705.96
267.62	1755.11
267.84	1605.61
268.06	1697.77
268.27	1732.58
268.49	1746.92
268.70	1701.86
268.92	1722.34
269.14	1626.09
269.35	1656.81
269.57	1642.47
269.79	1734.63
270.00	1697.77
270.22	1759.21
270.43	1675.24
270.65	1497.07
270.87	1687.53
271.08	1693.67
271.30	1722.34
271.51	1673.19
271.73	1775.59
271.95	1757.16
272.16	1697.77
272.38	1804.26
272.59	1615.85
272.81	1771.49
273.02	1699.81
273.24	1796.07
273.46	1775.59
273.67	1667.05
273.89	1593.32
274.10	1691.62
274.32	1773.54
274.54	1652.71
274.75	1669.09
274.97	1689.57
275.18	1728.49
275.40	1697.77
275.61	1665.00
275.83	1699.81
276.05	1681.38
276.26	1646.57
276.48	1710.05
276.69	1701.86
276.91	1671.14
277.12	1714.15
277.34	1716.20
277.55	1701.86
277.77	1753.06
277.99	1611.75
278.20	1667.05
278.42	1617.90
278.63	1617.90
278.85	1607.66
279.06	1636.33
279.28	1701.86
279.49	1748.97
279.71	1732.58
279.93	1660.90
280.14	1640.42
280.36	1654.76
280.57	1794.02
280.79	1757.16
281.00	1628.14
281.22	1687.53
281.43	1810.40
281.65	1562.60
281.86	1603.56
282.08	1748.97
282.29	1791.97
282.51	1615.85
282.73	1744.87
282.94	1621.99
283.16	1724.39
283.37	1761.25
283.59	1759.21
283.80	1689.57
284.02	1751.01
284.23	1751.01
284.45	1640.42
284.66	1648.61
284.88	1619.94
285.09	1697.77
285.31	1714.15
285.52	1679.33
285.74	1630.18
285.95	1736.68
286.17	1748.97
286.38	1718.25
286.60	1634.28
286.81	1601.51
287.03	1675.24
287.24	1716.20
287.46	1740.77
287.67	1789.92
287.89	1798.12
288.10	1720.29
288.32	1722.34
288.53	1824.74
288.75	1701.86
288.96	1734.63
289.18	1705.96
289.39	1673.19
289.61	1765.35
289.82	1763.30
290.04	1781.73
290.25	1587.18
290.47	1716.20
290.68	1769.44
290.90	1705.96
291.11	1587.18
291.33	1722.34
291.54	1630.18
291.76	1660.90
291.97	1613.80
292.18	1787.88
292.40	1691.62
292.61	1626.09
292.83	1771.49
293.04	1724.39
293.26	1679.33
293.47	1701.86
293.69	1685.48
293.90	1742.82
294.12	1787.88
294.33	1742.82
294.55	1607.66
294.76	1791.97
294.97	1726.44
295.19	1847.27
295.40	1658.85
295.62	1673.19
295.83	1691.62
296.05	1679.33
296.26	1712.10
296.48	1671.14
296.69	1718.25
296.90	1734.63
297.12	1763.30
297.33	1826.79
297.55	1720.29
297.76	1759.21
297.98	1798.12
298.19	1628.14
298.41	1669.09
298.62	1697.77
298.83	1759.21
299.05	1695.72
299.26	1660.90
299.48	1601.51
299.69	1798.12
299.90	1718.25
300.12	1662.95
300.33	1759.21
300.55	1708.01
300.76	1705.96
300.98	1621.99
301.19	1710.05
301.40	1689.57
301.62	1675.24
301.83	1734.63
302.05	1767.40
302.26	1714.15
302.47	1724.39
302.69	1654.76
302.90	1691.62
303.12	1593.32
303.33	1804.26
303.54	1802.21
303.76	1708.01
303.97	1761.25
304.19	1753.06
304.40	1658.85
304.61	1632.23
304.83	1789.92
305.04	1726.44
305.26	1679.33
305.47	1642.47
305.68	1654.76
305.90	1675.24
306.11	1753.06
306.33	1656.81
306.54	1656.81
306.75	1677.29
306.97	1609.70
307.18	1662.95
307.39	1693.67
307.61	1720.29
307.82	1626.09
308.04	1763.30
308.25	1640.42
308.46	1718.25
308.68	1701.86
308.89	1669.09
309.10	1742.82
309.32	1720.29
309.53	1656.81
309.74	1736.68
309.96	1683.43
310.17	1759.21
310.39	1681.38
310.60	1722.34
310.81	1656.81
311.03	1642.47
311.24	1738.73
311.45	1677.29
311.67	1757.16
311.88	1726.44
312.09	1697.77
312.31	1667.05
312.52	1720.29
312.73	1708.01
312.95	1595.37
313.16	1640.42
313.37	1740.77
313.59	1710.05
313.80	1820.64
314.01	1701.86
314.23	1652.71
314.44	1669.09
314.65	1603.56
314.87	1648.61
315.08	1683.43
315.29	1683.43
315.51	1621.99
315.72	1609.70
315.93	1830.88
316.15	1839.08
316.36	1689.57
316.57	1701.86
316.79	1697.77
317.00	1669.09
317.21	1712.10
317.43	1648.61
317.64	1685.48
317.85	1609.70
318.07	1601.51
318.28	1718.25
318.49	1804.26
318.70	1902.56
318.92	1830.88
319.13	1902.56
319.34	1841.12
319.56	1738.73
319.77	1785.83
319.98	1738.73
320.20	1701.86
320.41	1789.92
320.62	1691.62
320.83	1656.81
321.05	1908.71
321.26	1693.67
321.47	1724.39
321.69	1738.73
321.90	1654.76
322.11	1656.81
322.32	1705.96
322.54	1746.92
322.75	1755.11
322.96	1904.61
323.18	1695.72
323.39	1621.99
323.60	1667.05
323.81	1806.31
324.03	1712.10
324.24	1665.00
324.45	1685.48
324.66	1695.72
324.88	1722.34
325.09	1722.34
325.30	1673.19
325.52	1658.85
325.73	1703.91
325.94	1697.77
326.15	1574.89
326.37	1718.25
326.58	1662.95
326.79	1726.44
327.00	1626.09
327.22	1710.05
327.43	1679.33
327.64	1665.00
327.85	1695.72
328.07	1728.49
328.28	1814.50
328.49	1726.44
328.70	1714.15
328.92	1740.77
329.13	1695.72
329.34	1755.11
329.55	1853.41
329.76	1796.07
329.98	1687.53
330.19	1802.21
330.40	1755.11
330.61	1734.63
330.83	1665.00
331.04	1652.71
331.25	1626.09
331.46	1675.24
331.68	1662.95
331.89	1695.72
332.10	1681.38
332.31	1644.52
332.52	1734.63
332.74	1708.01
332.95	1656.81
333.16	1710.05
333.37	1677.29
333.58	1658.85
333.80	1722.34
334.01	1581.03
334.22	1697.77
334.43	1683.43
334.64	1691.62
334.86	1632.23
335.07	1607.66
335.28	1730.53
335.49	1613.80
335.70	1685.48
335.92	1738.73
336.13	1892.32
336.34	1746.92
336.55	1746.92
336.76	1693.67
336.98	1638.38
337.19	1662.95
337.40	1796.07
337.61	1916.90
337.82	1665.00
338.04	1738.73
338.25	1615.85
338.46	1671.14
338.67	1652.71
338.88	1654.76
339.09	1617.90
339.31	1660.90
339.52	1652.71
339.73	1671.14
339.94	1689.57
340.15	1775.59
340.36	1699.81
340.58	1701.86
340.79	1669.09
341.00	1765.35
341.21	1673.19
341.42	1751.01
341.63	1693.67
341.85	1710.05
342.06	1701.86
342.27	1619.94
342.48	1791.97
342.69	1636.33
342.90	1687.53
343.12	1665.00
343.33	1734.63
343.54	1718.25
343.75	1779.68
343.96	1722.34
344.17	1632.23
344.38	1679.33
344.60	1630.18
344.81	1683.43
345.02	1697.77
345.23	1722.34
345.44	1765.35
345.65	1746.92
345.86	1605.61
346.07	1601.51
346.29	1609.70
346.50	1710.05
346.71	1722.34
346.92	1771.49
347.13	1812.45
347.34	1701.86
347.55	1675.24
347.76	1699.81
347.98	1613.80
348.19	1669.09
348.40	1787.88
348.61	1712.10
348.82	1779.68
349.03	1714.15
349.24	1703.91
349.45	1771.49
349.66	1681.38
349.88	1681.38
350.09	1640.42
350.30	1763.30
350.51	1802.21
350.72	1660.90
350.93	1656.81
351.14	1619.94
351.35	1738.73
351.56	1658.85
351.77	1714.15
351.99	1615.85
352.20	1806.31
352.41	1738.73
352.62	1562.60
352.83	1710.05
353.04	1705.96
353.25	1685.48
353.46	1644.52
353.67	1742.82
353.88	1550.31
354.09	1746.92
354.30	1697.77
354.52	1712.10
354.73	1632.23
354.94	1626.09
355.15	1697.77
355.36	1771.49
355.57	1636.33
355.78	1748.97
355.99	1746.92
356.20	1691.62
356.41	1722.34
356.62	1697.77
356.83	1744.87
357.04	1806.31
357.25	1593.32
357.46	1658.85
357.68	1593.32
357.89	1759.21
358.10	1658.85
358.31	1683.43
358.52	1671.14
358.73	1705.96
358.94	1611.75
359.15	1640.42
359.36	1728.49
359.57	1748.97
359.78	1730.53
359.99	1681.38
360.20	1640.42
360.41	1728.49
360.62	1654.76
360.83	1677.29
361.04	1673.19
361.25	1791.97
361.46	1804.26
361.67	1728.49
361.88	1724.39
362.09	1785.83
362.30	1695.72
362.51	1742.82
362.72	1808.36
362.93	1669.09
363.14	1689.57
363.35	1785.83
363.56	1656.81
363.78	1671.14
363.99	1787.88
364.20	1636.33
364.41	1755.11
364.62	1742.82
364.83	1734.63
365.04	1677.29
365.25	1705.96
365.46	1808.36
365.67	1738.73
365.88	1601.51
366.09	1683.43
366.30	1648.61
366.51	1611.75
366.72	1636.33
366.93	1695.72
367.14	1710.05
367.35	1816.55
367.56	1712.10
367.77	1828.84
367.98	1675.24
368.18	1685.48
368.39	1705.96
368.60	1615.85
368.81	1781.73
369.02	1699.81
369.23	1660.90
369.44	1638.38
369.65	1669.09
369.86	1650.66
370.07	1755.11
370.28	1656.81
370.49	1724.39
370.70	1699.81
370.91	1636.33
371.12	1593.32
371.33	1726.44
371.54	1705.96
371.75	1777.64
371.96	1585.13
372.17	1740.77
372.38	1601.51
372.59	1730.53
372.80	1644.52
373.01	1683.43
373.22	1673.19
373.43	1742.82
373.64	1683.43
373.85	1777.64
374.06	1789.92
374.26	1773.54
374.47	1687.53
374.68	1761.25
374.89	1658.85
375.10	1662.95
375.31	1705.96
375.52	1773.54
375.73	1724.39
375.94	1673.19
376.15	1798.12
376.36	1736.68
376.57	1669.09
376.78	1665.00
376.99	1759.21
377.20	1751.01
377.40	1722.34
377.61	1757.16
377.82	1615.85
378.03	1834.98
378.24	1753.06
378.45	1699.81
378.66	1773.54
378.87	1593.32
379.08	1599.46
379.29	1689.57
379.50	1781.73
379.71	1697.77
379.91	1779.68
380.12	1593.32
380.33	1673.19
380.54	1640.42
380.75	1703.91
380.96	1740.77
381.17	1740.77
381.38	1744.87
381.59	1673.19
381.80	1732.58
382.00	1853.41
382.21	1720.29
382.42	1890.28
382.63	1832.93
382.84	1718.25
383.05	1818.60
383.26	1787.88
383.47	1738.73
383.68	1769.44
383.88	1738.73
384.09	1783.78
384.30	1769.44
384.51	1779.68
384.72	1681.38
384.93	1710.05
385.14	1662.95
385.35	1738.73
385.55	1589.22
385.76	1820.64
385.97	1748.97
386.18	1656.81
386.39	1699.81
386.60	1714.15
386.81	1675.24
387.02	1650.66
387.22	1652.71
387.43	1732.58
387.64	1751.01
387.85	1882.08
388.06	2234.33
388.27	4335.55
388.48	6733.72
388.68	8226.69
388.89	9471.86
389.10	9820.01
389.31	8611.71
389.52	7706.51
389.73	6801.30
389.93	6322.08
390.14	6061.99
390.35	5302.19
390.56	4548.54
390.77	3968.96
390.98	3028.95
391.18	2574.30
391.39	2133.98
391.60	1832.93
391.81	1757.16
392.02	1757.16
392.23	1808.36
392.43	1687.53
392.64	1710.05
392.85	1753.06
393.06	1751.01
393.27	1638.38
393.47	1640.42
393.68	1691.62
393.89	1724.39
394.10	1751.01
394.31	1681.38
394.52	1636.33
394.72	1667.05
394.93	1779.68
395.14	1662.95
395.35	1689.57
395.56	1720.29
395.76	1720.29
395.97	1712.10
396.18	1828.84
396.39	1781.73
396.60	2052.06
396.80	1814.50
397.01	1808.36
397.22	1808.36
397.43	1794.02
397.64	1757.16
397.84	1824.74
398.05	1824.74
398.26	1724.39
398.47	1810.40
398.67	1781.73
398.88	1699.81
399.09	1779.68
399.30	1714.15
399.51	1718.25
399.71	1644.52
399.92	1712.10
400.13	1703.91
400.34	1665.00
400.54	1736.68
400.75	1787.88
400.96	1660.90
401.17	1851.36
401.37	1687.53
401.58	1728.49
401.79	1695.72
402.00	1791.97
402.21	1947.62
402.41	1945.57
402.62	1964.00
402.83	1886.18
403.04	1943.52
403.24	2054.11
403.45	1832.93
403.66	1927.14
403.87	1841.12
404.07	1912.80
404.28	1861.60
404.49	1818.60
404.70	1763.30
404.90	1712.10
405.11	1691.62
405.32	1748.97
405.52	1648.61
405.73	1634.28
405.94	1650.66
406.15	1671.14
406.35	1710.05
406.56	1767.40
406.77	1757.16
406.98	1791.97
407.18	1718.25
407.39	1775.59
407.60	1724.39
407.80	1677.29
408.01	1671.14
408.22	1732.58
408.43	1621.99
408.63	1738.73
408.84	1787.88
409.05	1714.15
409.25	1732.58
409.46	1679.33
409.67	1656.81
409.88	1652.71
410.08	1746.92
410.29	1658.85
410.50	1679.33
410.70	1732.58
410.91	1632.23
411.12	1742.82
411.32	1691.62
411.53	1632.23
411.74	1814.50
411.95	1759.21
412.15	1742.82
412.36	1722.34
412.57	1769.44
412.77	1814.50
412.98	1665.00
413.19	1738.73
413.39	1794.02
413.60	1800.16
413.81	1781.73
414.01	1675.24
414.22	1765.35
414.43	1753.06
414.63	1705.96
414.84	1783.78
415.05	1742.82
415.25	1630.18
415.46	1726.44
415.67	1693.67
415.87	1701.86
416.08	1771.49
416.29	1665.00
416.49	1708.01
416.70	1681.38
416.91	1669.09
417.11	1697.77
417.32	1724.39
417.53	1777.64
417.73	1771.49
417.94	1658.85
418.15	1710.05
418.35	1677.29
418.56	1703.91
418.77	1927.14
418.97	1662.95
419.18	1675.24
419.38	1581.03
419.59	1662.95
419.80	1779.68
420.00	1630.18
420.21	1771.49
420.42	1730.53
420.62	1708.01
420.83	1648.61
421.04	1615.85
421.24	1628.14
421.45	1763.30
421.65	1662.95
421.86	1656.81
422.07	1695.72
422.27	1697.77
422.48	1650.66
422.69	1660.90
422.89	1646.57
423.10	1636.33
423.30	1607.66
423.51	1669.09
423.72	1742.82
423.92	1720.29
424.13	1624.04
424.33	1607.66
424.54	1673.19
424.75	1695.72
424.95	1820.64
425.16	1800.16
425.36	1619.94
425.57	1814.50
425.78	1740.77
425.98	1718.25
426.19	1761.25
426.39	1656.81
426.60	1738.73
426.81	1730.53
427.01	1748.97
427.22	1705.96
427.42	1603.56
427.63	1615.85
427.83	1755.11
428.04	1771.49
428.25	1730.53
428.45	1765.35
428.66	1701.86
428.86	1714.15
429.07	1697.77
429.28	1693.67
429.48	1624.04
429.69	1642.47
429.89	1714.15
430.10	1667.05
430.30	1697.77
430.51	1744.87
430.71	1697.77
430.92	1730.53
431.13	1671.14
431.33	1703.91
431.54	1671.14
431.74	1779.68
431.95	1851.36
432.15	1642.47
432.36	1783.78
432.56	1773.54
432.77	1794.02
432.98	1738.73
433.18	1695.72
433.39	1718.25
433.59	1665.00
433.80	1773.54
434.00	1884.13
434.21	1624.04
434.41	1619.94
434.62	1877.99
434.82	1638.38
435.03	1687.53
435.23	1734.63
435.44	1665.00
435.64	1759.21
435.85	1722.34
436.06	1789.92
436.26	1734.63
436.47	1624.04
436.67	1712.10
436.88	1695.72
437.08	1697.77
437.29	1753.06
437.49	1730.53
437.70	1753.06
437.90	1687.53
438.11	1880.04
438.31	1744.87
438.52	1816.55
438.72	1783.78
438.93	1908.71
439.13	1734.63
439.34	1730.53
439.54	1738.73
439.75	1791.97
439.95	1808.36
440.16	1730.53
440.36	1673.19
440.57	1832.93
440.77	1638.38
440.98	1701.86
441.18	1787.88
441.39	1730.53
441.59	1648.61
441.80	1816.55
442.00	1769.44
442.21	1796.07
442.41	1685.48
442.62	1736.68
442.82	1632.23
443.02	1699.81
443.23	1730.53
443.43	1753.06
443.64	1849.32
443.84	1667.05
444.05	1808.36
444.25	1781.73
444.46	1681.38
444.66	1722.34
444.87	1787.88
445.07	1654.76
445.28	1697.77
445.48	1744.87
445.69	1769.44
445.89	1861.60
446.09	1779.68
446.30	2027.49
446.50	2715.61
446.71	3807.17
446.91	4360.13
447.12	4816.82
447.32	4896.69
447.53	4294.59
447.73	3962.82
447.93	3629.00
448.14	3321.81
448.34	3250.13
448.55	2879.44
448.75	2918.36
448.96	2582.49
449.16	2387.93
449.36	2338.78
449.57	2088.93
449.77	1910.75
449.98	1814.50
450.18	1777.64
450.39	1781.73
450.59	1763.30
450.79	1691.62
451.00	1687.53
451.20	1796.07
451.41	1705.96
451.61	1722.34
451.81	1796.07
452.02	1710.05
452.22	1726.44
452.43	1658.85
452.63	1673.19
452.84	1757.16
453.04	1734.63
453.24	1734.63
453.45	1624.04
453.65	1693.67
453.86	1746.92
454.06	1705.96
454.26	1736.68
454.47	1660.90
454.67	1773.54
454.87	1759.21
455.08	1697.77
455.28	1824.74
455.49	1710.05
455.69	1681.38
455.89	1822.69
456.10	1751.01
456.30	1687.53
456.51	1796.07
456.71	1687.53
456.91	1755.11
457.12	1671.14
457.32	1773.54
457.52	1716.20
457.73	1708.01
457.93	1753.06
458.14	1773.54
458.34	1611.75
458.54	1724.39
458.75	1630.18
458.95	1832.93
459.15	1695.72
459.36	1703.91
459.56	1820.64
459.76	1800.16
459.97	1703.91
460.17	1658.85
460.37	1759.21
460.58	1775.59
460.78	1796.07
460.99	1710.05
461.19	1718.25
461.39	1703.91
461.60	1734.63
461.80	1710.05
462.00	1642.47
462.21	1701.86
462.41	1626.09
462.61	1675.24
462.82	1648.61
463.02	1746.92
463.22	1677.29
463.43	1820.64
463.63	1738.73
463.83	1849.32
464.04	1755.11
464.24	1730.53
464.44	1693.67
464.64	1748.97
464.85	1669.09
465.05	1773.54
465.25	1820.64
465.46	1693.67
465.66	1769.44
465.86	1697.77
466.07	1777.64
466.27	1726.44
466.47	1656.81
466.68	1617.90
466.88	1814.50
467.08	1732.58
467.29	1769.44
467.49	1748.97
467.69	1669.09
467.89	1665.00
468.10	1738.73
468.30	1705.96
468.50	1812.45
468.71	1746.92
468.91	1675.24
469.11	1818.60
469.31	1695.72
469.52	1681.38
469.72	1777.64
469.92	1820.64
470.13	1724.39
470.33	1724.39
470.53	1853.41
470.73	2019.30
470.94	2332.64
471.14	2334.68
471.34	2600.92
471.54	2385.88
471.75	2168.80
471.95	2103.26
472.15	2086.88
472.36	2164.70
472.56	2068.45
472.76	2015.20
472.96	1984.48
473.17	1970.15
473.37	1785.83
473.57	1779.68
473.77	1767.40
473.98	1740.77
474.18	1697.77
474.38	1951.71
474.58	1748.97
474.79	1640.42
474.99	1732.58
475.19	1761.25
475.39	1691.62
475.60	1808.36
475.80	1685.48
476.00	1720.29
476.20	1648.61
476.41	1689.57
476.61	1806.31
476.81	1826.79
477.01	1654.76
477.21	1859.56
477.42	1785.83
477.62	1630.18
477.82	1789.92
478.02	1753.06
478.23	1765.35
478.43	1626.09
478.63	1716.20
478.83	1695.72
479.03	1716.20
479.24	1781.73
479.44	1843.17
479.64	1626.09
479.84	1570.79
480.04	1671.14
480.25	1771.49
480.45	1710.05
480.65	1720.29
480.85	1730.53
481.06	1669.09
481.26	1806.31
481.46	1775.59
481.66	1763.30
481.86	1667.05
482.06	1730.53
482.27	1685.48
482.47	1630.18
482.67	1734.63
482.87	1665.00
483.07	1722.34
483.28	1691.62
483.48	1650.66
483.68	1697.77
483.88	1613.80
484.08	1624.04
484.29	1609.70
484.49	1693.67
484.69	1615.85
484.89	1820.64
485.09	1722.34
485.29	1746.92
485.50	1732.58
485.70	1705.96
485.90	1818.60
486.10	1724.39
486.30	1722.34
486.50	1710.05
486.71	1722.34
486.91	1787.88
487.11	1748.97
487.31	1683.43
487.51	1730.53
487.71	1654.76
487.91	1640.42
488.12	1615.85
488.32	1585.13
488.52	1669.09
488.72	1609.70
488.92	1660.90
489.12	1761.25
489.32	1714.15
489.53	1720.29
489.73	1687.53
489.93	1796.07
490.13	1724.39
490.33	1495.02
490.53	1730.53
490.73	1753.06
490.94	1669.09
491.14	1814.50
491.34	1783.78
491.54	2199.52
491.74	2674.65
491.94	2940.88
492.14	3160.02
492.34	3016.66
492.54	2707.41
492.75	2449.37
492.95	2439.13
493.15	2263.01
493.35	2338.78
493.55	2271.20
493.75	2088.93
493.95	2138.08
494.15	1992.67
494.35	1861.60
494.56	1890.28
494.76	1843.17
494.96	1794.02
495.16	1779.68
495.36	1636.33
495.56	1824.74
495.76	1736.68
495.96	1691.62
496.16	1687.53
496.36	1859.56
496.56	1800.16
496.77	1705.96
496.97	1708.01
497.17	1806.31
497.37	1648.61
497.57	1724.39
497.77	1677.29
497.97	1675.24
498.17	1722.34
498.37	1660.90
498.57	1701.86
498.77	1732.58
498.97	1810.40
499.17	1738.73
499.38	1787.88
499.58	1816.55
499.78	1791.97
499.98	1783.78
500.18	1699.81
500.38	1675.24
500.58	1834.98
500.78	2697.17
500.98	4517.82
501.18	5830.57
501.38	6805.40
501.58	6991.77
501.78	6842.26
501.98	5578.67
502.18	5019.57
502.38	4530.11
502.58	4106.18
502.78	3829.70
502.98	3688.39
503.18	3436.49
503.38	3203.02
503.59	2795.48
503.79	2695.13
503.99	2545.63
504.19	2340.83
504.39	2179.04
504.59	2217.95
504.79	2201.57
504.99	2033.63
505.19	1976.29
505.39	1945.57
505.59	1968.10
505.79	1949.67
505.99	1882.08
506.19	1798.12
506.39	1882.08
506.59	1755.11
506.79	1755.11
506.99	1771.49
507.19	1697.77
507.39	1800.16
507.59	1658.85
507.79	1671.14
507.99	1656.81
508.19	1722.34
508.39	1697.77
508.59	1740.77
508.79	1812.45
508.99	1875.94
509.19	1697.77
509.39	1824.74
509.59	1652.71
509.79	1763.30
509.99	1724.39
510.19	1769.44
510.39	1734.63
510.59	1783.78
510.79	1718.25
510.99	1697.77
511.19	1726.44
511.39	1841.12
511.59	1814.50
511.79	1640.42
511.99	1834.98
512.19	1771.49
512.38	1742.82
512.58	1638.38
512.78	1703.91
512.98	1767.40
513.18	1759.21
513.38	1685.48
513.58	1742.82
513.78	1671.14
513.98	1660.90
514.18	1730.53
514.38	1697.77
514.58	1785.83
514.78	1712.10
514.98	1611.75
515.18	1716.20
515.38	1652.71
515.58	1761.25
515.78	1632.23
515.98	1755.11
516.18	1738.73
516.38	1753.06
516.57	1658.85
516.77	1683.43
516.97	1781.73
517.17	1691.62
517.37	1708.01
517.57	1822.69
517.77	1683.43
517.97	1775.59
518.17	1716.20
518.37	1673.19
518.57	1656.81
518.77	1669.09
518.97	1689.57
519.16	1724.39
519.36	1767.40
519.56	1691.62
519.76	1751.01
519.96	1675.24
520.16	1755.11
520.36	1673.19
520.56	1871.84
520.76	1697.77
520.96	1701.86
521.16	1869.80
521.35	1748.97
521.55	1822.69
521.75	1699.81
521.95	1728.49
522.15	1675.24
522.35	1644.52
522.55	1669.09
522.75	1828.84
522.95	1675.24
523.14	1730.53
523.34	1742.82
523.54	1669.09
523.74	1789.92
523.94	1726.44
524.14	1632.23
524.34	1705.96
524.54	1837.03
524.73	1738.73
524.93	1716.20
525.13	1708.01
525.33	1638.38
525.53	1804.26
525.73	1802.21
525.93	1722.34
526.13	1699.81
526.32	1728.49
526.52	1767.40
526.72	1710.05
526.92	1724.39
527.12	1757.16
527.32	1613.80
527.52	1712.10
527.71	1800.16
527.91	1667.05
528.11	1728.49
528.31	1796.07
528.51	1751.01
528.71	1751.01
528.90	1779.68
529.10	1837.03
529.30	1869.80
529.50	1603.56
529.70	1765.35
529.90	1685.48
530.09	1730.53
530.29	1662.95
530.49	1619.94
530.69	1865.70
530.89	1699.81
531.09	1718.25
531.28	1732.58
531.48	1773.54
531.68	1722.34
531.88	1771.49
532.08	1816.55
532.28	1691.62
532.47	1810.40
532.67	1830.88
532.87	1673.19
533.07	1732.58
533.27	1761.25
533.46	1753.06
533.66	1720.29
533.86	1730.53
534.06	1695.72
534.26	1796.07
534.45	1712.10
534.65	1857.51
534.85	1753.06
535.05	1665.00
535.25	1748.97
535.44	1611.75
535.64	1730.53
535.84	1691.62
536.04	1728.49
536.24	1691.62
536.43	1740.77
536.63	1814.50
536.83	1730.53
537.03	1673.19
537.22	1626.09
537.42	1662.95
537.62	1697.77
537.82	1744.87
538.02	1818.60
538.21	1791.97
538.41	1869.80
538.61	1783.78
538.81	1755.11
539.00	1740.77
539.20	1714.15
539.40	1742.82
539.60	1705.96
539.79	1830.88
539.99	1710.05
540.19	1603.56
540.39	1748.97
540.58	1779.68
540.78	1761.25
540.98	1732.58
541.18	1767.40
541.37	1746.92
541.57	1755.11
541.77	1738.73
541.97	1634.28
542.16	1652.71
542.36	1718.25
542.56	1757.16
542.76	1812.45
542.95	1789.92
543.15	1722.34
543.35	1787.88
543.54	1703.91
543.74	1675.24
543.94	1804.26
544.14	1732.58
544.33	1705.96
544.53	1742.82
544.73	1701.86
544.93	1681.38
545.12	1830.88
545.32	1681.38
545.52	1816.55
545.71	1708.01
545.91	1746.92
546.11	1748.97
546.30	1697.77
546.50	1699.81
546.70	1832.93
546.90	1669.09
547.09	1656.81
547.29	1773.54
547.49	1751.01
547.68	1650.66
547.88	1757.16
548.08	1773.54
548.27	2131.94
548.47	1691.62
548.67	1701.86
548.87	1761.25
549.06	1695.72
549.26	1652.71
549.46	1855.46
549.65	1656.81
549.85	1744.87
550.05	1771.49
550.24	1677.29
550.44	1734.63
550.64	1806.31
550.83	1755.11
551.03	1818.60
551.23	1732.58
551.42	1740.77
551.62	1728.49
551.82	1804.26
552.01	1785.83
552.21	1779.68
552.41	1701.86
552.60	1759.21
552.80	1689.57
553.00	1781.73
553.19	1724.39
553.39	1820.64
553.59	1628.14
553.78	1822.69
553.98	1716.20
554.17	1728.49
554.37	1718.25
554.57	1757.16
554.76	1673.19
554.96	1679.33
555.16	1662.95
555.35	1798.12
555.55	1748.97
555.75	1761.25
555.94	1826.79
556.14	1591.27
556.33	1687.53
556.53	1714.15
556.73	1689.57
556.92	1830.88
557.12	1880.04
557.32	1880.04
557.51	1800.16
557.71	1806.31
557.90	1708.01
558.10	1816.55
558.30	1751.01
558.49	1630.18
558.69	1808.36
558.88	1751.01
559.08	1699.81
559.28	1734.63
559.47	1765.35
559.67	1710.05
559.86	1824.74
560.06	1785.83
560.26	1697.77
560.45	1744.87
560.65	1718.25
560.84	1828.84
561.04	1667.05
561.24	1818.60
561.43	1724.39
561.63	1851.36
561.82	1800.16
562.02	1746.92
562.22	1667.05
562.41	1734.63
562.61	1728.49
562.80	1679.33
563.00	1906.66
563.19	1763.30
563.39	1769.44
563.59	1771.49
563.78	1617.90
563.98	1679.33
564.17	1699.81
564.37	1716.20
564.56	1785.83
564.76	1699.81
564.96	1820.64
565.15	1724.39
565.35	1873.89
565.54	1607.66
565.74	1753.06
565.93	1744.87
566.13	1693.67
566.32	1757.16
566.52	1697.77
566.71	1779.68
566.91	1798.12
567.11	1720.29
567.30	1724.39
567.50	1783.78
567.69	1773.54
567.89	1673.19
568.08	1679.33
568.28	1824.74
568.47	1683.43
568.67	1740.77
568.86	1728.49
569.06	1800.16
569.25	1650.66
569.45	1648.61
569.64	1703.91
569.84	1708.01
570.04	1751.01
570.23	1687.53
570.43	1669.09
570.62	1669.09
570.82	1837.03
571.01	1742.82
571.21	1722.34
571.40	1736.68
571.60	1863.65
571.79	1693.67
571.99	1746.92
572.18	1681.38
572.38	1761.25
572.57	1744.87
572.77	1771.49
572.96	1841.12
573.16	1726.44
573.35	1677.29
573.55	1896.42
573.74	1705.96
573.94	1761.25
574.13	1687.53
574.33	1812.45
574.52	1818.60
574.71	1734.63
574.91	1679.33
575.10	1677.29
575.30	1722.34
575.49	1636.33
575.69	1656.81
575.88	1841.12
576.08	1765.35
576.27	1748.97
576.47	1740.77
576.66	1859.56
576.86	1785.83
577.05	1810.40
577.25	1820.64
577.44	1880.04
577.64	1800.16
577.83	1769.44
578.02	1728.49
578.22	1783.78
578.41	1742.82
578.61	1730.53
578.80	1738.73
579.00	1753.06
579.19	1691.62
579.39	1812.45
579.58	1798.12
579.77	1744.87
579.97	1751.01
580.16	1845.22
580.36	1947.62
580.55	1779.68
580.75	1718.25
580.94	1781.73
581.13	1832.93
581.33	1816.55
581.52	1740.77
581.72	1861.60
581.91	1949.67
582.11	1648.61
582.30	1871.84
582.49	1779.68
582.69	1808.36
582.88	1763.30
583.08	1765.35
583.27	1824.74
583.47	1785.83
583.66	1730.53
583.85	1720.29
584.05	1806.31
584.24	1787.88
584.44	1783.78
584.63	1871.84
584.82	1806.31
585.02	1892.32
585.21	1771.49
585.41	1863.65
585.60	1791.97
585.79	1937.38
585.99	1884.13
586.18	1826.79
586.37	2086.88
586.57	3465.16
586.76	10102.63
586.96	24850.05
587.15	34942.44
587.34	40844.69
587.54	42919.28
587.73	37201.35
587.93	26410.60
588.12	21753.52
588.31	18562.79
588.51	16592.64
588.70	15238.94
588.89	14245.67
589.09	12734.27
589.28	11069.27
589.47	9568.11
589.67	8040.33
589.86	6506.40
590.06	4911.03
590.25	3895.24
590.44	3112.91
590.64	2521.05
590.83	2285.53
591.02	2162.66
591.22	1953.76
591.41	1810.40
591.60	1843.17
591.80	1976.29
591.99	1716.20
592.18	1748.97
592.38	1755.11
592.57	1769.44
592.76	1828.84
592.96	1800.16
593.15	1773.54
593.34	1777.64
593.54	1820.64
593.73	1742.82
593.92	1787.88
594.12	1789.92
594.31	1746.92
594.50	1789.92
594.70	1759.21
594.89	1802.21
595.08	1703.91
595.28	1722.34
595.47	1789.92
595.66	1771.49
595.86	1691.62
596.05	1708.01
596.24	1687.53
596.43	1824.74
596.63	1875.94
596.82	1757.16
597.01	1734.63
597.21	1755.11
597.40	1720.29
597.59	1701.86
597.79	1759.21
597.98	1802.21
598.17	1697.77
598.36	1742.82
598.56	1687.53
598.75	1681.38
598.94	1808.36
599.14	1736.68
599.33	1656.81
599.52	1767.40
599.71	1738.73
599.91	1751.01
600.10	1732.58
600.29	1736.68
600.48	1839.08
600.68	1699.81
600.87	1744.87
601.06	1806.31
601.26	1740.77
601.45	1759.21
601.64	1720.29
601.83	1869.80
602.03	1644.52
602.22	1673.19
602.41	1828.84
602.60	1800.16
602.80	1808.36
602.99	1701.86
603.18	1697.77
603.37	1677.29
603.57	1710.05
603.76	1773.54
603.95	1845.22
604.14	1697.77
604.34	1617.90
604.53	1677.29
604.72	1726.44
604.91	1705.96
605.10	1738.73
605.30	1677.29
605.49	1869.80
605.68	1693.67
605.87	1734.63
606.07	1671.14
606.26	1765.35
606.45	1802.21
606.64	1744.87
606.84	1708.01
607.03	1650.66
607.22	1781.73
607.41	1652.71
607.60	1757.16
607.80	1804.26
607.99	1736.68
608.18	1744.87
608.37	1738.73
608.56	1699.81
608.76	1748.97
608.95	1804.26
609.14	1757.16
609.33	1736.68
609.52	1822.69
609.72	1726.44
609.91	1824.74
610.10	1703.91
610.29	1806.31
610.48	1751.01
610.68	1820.64
610.87	1751.01
611.06	1802.21
611.25	1759.21
611.44	1716.20
611.63	1736.68
611.83	1773.54
612.02	1638.38
612.21	1742.82
612.40	1640.42
612.59	1669.09
612.79	1656.81
612.98	1751.01
613.17	1765.35
613.36	1701.86
613.55	1830.88
613.74	1712.10
613.93	1726.44
614.13	1652.71
614.32	1773.54
614.51	1777.64
614.70	1699.81
614.89	1599.46
615.08	1695.72
615.28	2097.12
615.47	1615.85
615.66	1744.87
615.85	1705.96
616.04	1800.16
616.23	1740.77
616.42	1687.53
616.62	1736.68
616.81	1783.78
617.00	1771.49
617.19	1812.45
617.38	1673.19
617.57	1775.59
617.76	1810.40
617.95	1708.01
618.15	1869.80
618.34	1837.03
618.53	1734.63
618.72	1656.81
618.91	1753.06
619.10	1820.64
619.29	1736.68
619.48	1701.86
619.68	1701.86
619.87	1746.92
620.06	1691.62
620.25	1701.86
620.44	1701.86
620.63	1757.16
620.82	1656.81
621.01	1751.01
621.20	1656.81
621.39	1736.68
621.59	1746.92
621.78	1738.73
621.97	1621.99
622.16	1705.96
622.35	1632.23
622.54	1767.40
622.73	1751.01
622.92	1630.18
623.11	1783.78
623.30	1701.86
623.49	1730.53
623.68	1640.42
623.88	1759.21
624.07	1681.38
624.26	1720.29
624.45	1724.39
624.64	1677.29
624.83	1689.57
625.02	1708.01
625.21	1716.20
625.40	1734.63
625.59	1853.41
625.78	1740.77
625.97	1724.39
626.16	1818.60
626.35	1800.16
626.54	1730.53
626.74	1804.26
626.93	1718.25
627.12	1775.59
627.31	1796.07
627.50	1740.77
627.69	1771.49
627.88	1648.61
628.07	1665.00
628.26	1730.53
628.45	1691.62
628.64	1677.29
628.83	1650.66
629.02	1701.86
629.21	1777.64
629.40	1804.26
629.59	1601.51
629.78	1685.48
629.97	1691.62
630.16	1708.01
630.35	1685.48
630.54	1720.29
630.73	1673.19
630.92	1730.53
631.11	1753.06
631.30	1771.49
631.49	1771.49
631.68	1710.05
631.87	1677.29
632.06	1718.25
632.25	1787.88
632.44	1734.63
632.63	1734.63
632.82	1621.99
633.01	1695.72
633.20	1628.14
633.39	1656.81
633.58	1671.14
633.77	1759.21
633.96	1802.21
634.15	1714.15
634.34	1746.92
634.53	1714.15
634.72	1730.53
634.91	1701.86
635.10	1705.96
635.29	1712.10
635.48	1683.43
635.67	1687.53
635.86	1619.94
636.05	1802.21
636.24	1642.47
636.43	1722.34
636.62	1701.86
636.81	1599.46
637.00	1693.67
637.19	1818.60
637.38	1697.77
637.57	1644.52
637.76	1693.67
637.95	1755.11
638.14	1685.48
638.33	1669.09
638.52	1716.20
638.71	1673.19
638.89	1671.14
639.08	1787.88
639.27	1718.25
639.46	1617.90
639.65	1800.16
639.84	1693.67
640.03	1734.63
640.22	1681.38
640.41	1789.92
640.60	1652.71
640.79	1691.62
640.98	1697.77
641.17	1763.30
641.36	1691.62
641.55	1755.11
641.74	1648.61
641.92	1644.52
642.11	1650.66
642.30	1742.82
642.49	1581.03
642.68	1568.74
642.87	1748.97
643.06	1714.15
643.25	1630.18
643.44	1689.57
643.63	1697.77
643.82	1716.20
644.00	1716.20
644.19	1671.14
644.38	1693.67
644.57	1701.86
644.76	1773.54
644.95	1697.77
645.14	1650.66
645.33	1724.39
645.52	1609.70
645.71	1669.09
645.89	1767.40
646.08	1693.67
646.27	1667.05
646.46	1787.88
646.65	1611.75
646.84	1697.77
647.03	1634.28
647.22	1812.45
647.40	1773.54
647.59	1662.95
647.78	1583.08
647.97	1671.14
648.16	1638.38
648.35	1781.73
648.54	1824.74
648.73	1681.38
648.91	1777.64
649.10	1638.38
649.29	1640.42
649.48	1722.34
649.67	1722.34
649.86	1751.01
650.05	1703.91
650.23	1701.86
650.42	1646.57
650.61	1708.01
650.80	1755.11
650.99	1798.12
651.18	1751.01
651.36	1796.07
651.55	1675.24
651.74	1812.45
651.93	1634.28
652.12	1669.09
652.31	1787.88
652.49	1685.48
652.68	1714.15
652.87	1730.53
653.06	1708.01
653.25	1837.03
653.44	1738.73
653.62	1834.98
653.81	1710.05
654.00	1740.77
654.19	1773.54
654.38	1826.79
654.56	1800.16
654.75	1724.39
654.94	1841.12
655.13	1779.68
655.32	1705.96
655.51	1724.39
655.69	1658.85
655.88	1810.40
656.07	1701.86
656.26	1726.44
656.45	1585.13
656.63	1705.96
656.82	1705.96
657.01	1751.01
657.20	1632.23
657.38	1703.91
657.57	1751.01
657.76	1685.48
657.95	1755.11
658.14	1691.62
658.32	1691.62
658.51	1619.94
658.70	1662.95
658.89	1767.40
659.08	1732.58
659.26	1724.39
659.45	1665.00
659.64	1742.82
659.83	1652.71
660.01	1877.99
660.20	1761.25
660.39	1841.12
660.58	1636.33
660.76	1714.15
660.95	1658.85
661.14	1644.52
661.33	1630.18
661.51	1587.18
661.70	1691.62
661.89	1771.49
662.08	1667.05
662.26	1634.28
662.45	1695.72
662.64	1791.97
662.83	1806.31
663.01	1640.42
663.20	1779.68
663.39	1857.51
663.58	1759.21
663.76	1638.38
663.95	1789.92
664.14	1673.19
664.32	1740.77
664.51	1621.99
664.70	1619.94
664.89	1738.73
665.07	1665.00
665.26	1685.48
665.45	1640.42
665.64	1730.53
665.82	1689.57
666.01	1720.29
666.20	1677.29
666.38	1763.30
666.57	1728.49
666.76	2240.48
666.95	4446.14
667.13	10428.26
667.32	15224.60
667.51	17854.19
667.69	19154.65
667.88	17782.51
668.07	12330.82
668.25	9535.34
668.44	8028.04
668.63	7403.41
668.81	6780.82
669.00	6311.84
669.19	5719.98
669.38	5097.39
669.56	4663.22
669.75	4050.88
669.94	3313.61
670.12	2887.64
670.31	2600.92
670.50	2277.34
670.68	2035.68
670.87	2021.35
671.06	1777.64
671.24	1806.31
671.43	1849.32
671.62	1775.59
671.80	1624.04
671.99	1638.38
672.18	1748.97
672.36	1732.58
672.55	1781.73
672.74	1703.91
672.92	1734.63
673.11	1726.44
673.29	1654.76
673.48	1701.86
673.67	1693.67
673.85	1787.88
674.04	1712.10
674.23	1665.00
674.41	1890.28
674.60	1611.75
674.79	1638.38
674.97	1658.85
675.16	1716.20
675.34	1732.58
675.53	1687.53
675.72	1722.34
675.90	1779.68
676.09	1640.42
676.28	1720.29
676.46	1613.80
676.65	1751.01
676.83	1607.66
677.02	1693.67
677.21	1751.01
677.39	1769.44
677.58	1669.09
677.77	1703.91
677.95	1667.05
678.14	1665.00
678.32	1714.15
678.51	1720.29
678.70	1791.97
678.88	1691.62
679.07	1708.01
679.25	1710.05
679.44	1675.24
679.63	1761.25
679.81	1720.29
680.00	1771.49
680.18	1740.77
680.37	1789.92
680.55	1708.01
680.74	1650.66
680.93	1660.90
681.11	1771.49
681.30	1671.14
681.48	1767.40
681.67	1691.62
681.85	1746.92
682.04	1636.33
682.23	1787.88
682.41	1718.25
682.60	1695.72
682.78	1689.57
682.97	1605.61
683.15	1632.23
683.34	1705.96
683.53	1771.49
683.71	1681.38
683.90	1744.87
684.08	1789.92
684.27	1654.76
684.45	1662.95
684.64	1740.77
684.82	1654.76
685.01	1701.86
685.19	1736.68
685.38	1781.73
685.57	1671.14
685.75	1683.43
685.94	1630.18
686.12	1685.48
686.31	1654.76
686.49	1808.36
686.68	1619.94
686.86	1771.49
687.05	1689.57
687.23	1814.50
687.42	1691.62
687.60	1673.19
687.79	1722.34
687.97	1812.45
688.16	1798.12
688.34	1759.21
688.53	1617.90
688.71	1787.88
688.90	1720.29
689.08	1718.25
689.27	1572.84
689.45	1656.81
689.64	1720.29
689.82	1677.29
690.01	1796.07
690.19	1759.21
690.38	1787.88
690.56	1794.02
690.75	1650.66
690.93	1669.09
691.12	1558.50
691.30	1730.53
691.49	1708.01
691.67	1710.05
691.86	1869.80
692.04	1675.24
692.23	1644.52
692.41	1730.53
692.60	1771.49
692.78	1773.54
692.97	1681.38
693.15	1705.96
693.34	1781.73
693.52	1767.40
693.71	1585.13
693.89	1599.46
694.08	1720.29
694.26	1767.40
694.44	1701.86
694.63	1724.39
694.81	1593.32
695.00	1662.95
695.18	1751.01
695.37	1851.36
695.55	1779.68
695.74	1691.62
695.92	1681.38
696.10	1736.68
696.29	1607.66
696.47	1671.14
696.66	1570.79
696.84	1652.71
697.03	1769.44
697.21	1771.49
697.40	2308.06
697.58	1787.88
697.76	1632.23
697.95	1624.04
698.13	1669.09
698.32	1697.77
698.50	1665.00
698.68	1738.73
698.87	1748.97
699.05	1748.97
699.24	1716.20
699.42	1695.72
699.61	1726.44
699.79	1824.74
699.97	1742.82
700.16	1685.48
700.34	1665.00
700.53	1734.63
700.71	1798.12
700.89	1804.26
701.08	1724.39
701.26	1738.73
701.45	2031.58
701.63	1632.23
701.81	1652.71
702.00	1669.09
702.18	1648.61
702.37	1640.42
702.55	1730.53
702.73	1726.44
702.92	1566.70
703.10	1732.58
703.28	1763.30
703.47	1669.09
703.65	1746.92
703.84	1740.77
704.02	1695.72
704.20	1722.34
704.39	1642.47
704.57	1714.15
704.75	1787.88
704.94	1796.07
705.12	1742.82
705.30	1802.21
705.49	2248.67
705.67	4388.80
705.86	9465.71
706.04	12937.02
706.22	14837.53
706.41	15609.62
706.59	14024.49
706.77	9770.86
706.96	7567.24
707.14	6705.05
707.32	6133.67
707.51	5742.50
707.69	4911.03
707.87	4247.49
708.06	3530.70
708.24	2861.01
708.42	2482.14
708.61	2234.33
708.79	1957.86
708.97	1877.99
709.16	1812.45
709.34	1800.16
709.52	1765.35
709.71	1673.19
709.89	1775.59
710.07	1681.38
710.26	1650.66
710.44	1699.81
710.62	1759.21
710.80	1761.25
710.99	1781.73
711.17	1718.25
711.35	1736.68
711.54	1638.38
711.72	1753.06
711.90	1757.16
712.09	1767.40
712.27	1634.28
712.45	1781.73
712.63	1667.05
712.82	1736.68
713.00	1699.81
713.18	1798.12
713.37	1736.68
713.55	1626.09
713.73	1781.73
713.91	1742.82
714.10	1710.05
714.28	1718.25
714.46	1654.76
714.65	1755.11
714.83	1798.12
715.01	1650.66
715.19	1697.77
715.38	1624.04
715.56	1769.44
715.74	1652.71
715.92	1554.41
716.11	1886.18
716.29	1595.37
716.47	1685.48
716.65	1685.48
716.84	1630.18
717.02	1685.48
717.20	1566.70
717.38	1624.04
717.57	1705.96
717.75	1720.29
717.93	1673.19
718.11	1742.82
718.30	1621.99
718.48	1718.25
718.66	1794.02
718.84	1710.05
719.03	1652.71
719.21	1652.71
719.39	1808.36
719.57	1820.64
719.75	1705.96
719.94	1628.14
720.12	1671.14
720.30	1673.19
720.48	1753.06
720.67	1660.90
720.85	1718.25
721.03	1677.29
721.21	1632.23
721.39	1740.77
721.58	1677.29
721.76	1695.72
721.94	1718.25
722.12	1714.15
722.30	1802.21
722.49	1716.20
722.67	1699.81
722.85	1726.44
723.03	1675.24
723.21	1693.67
723.40	1718.25
723.58	1726.44
723.76	1644.52
723.94	1822.69
724.12	1724.39
724.30	1806.31
724.49	1656.81
724.67	1675.24
724.85	1783.78
725.03	1603.56
725.21	1705.96
725.40	1748.97
725.58	1621.99
725.76	1761.25
725.94	1753.06
726.12	1595.37
726.30	1744.87
726.49	1718.25
726.67	1650.66
726.85	1759.21
727.03	1769.44
727.21	2162.66
727.39	2916.31
727.57	3647.43
727.76	4112.32
727.94	4452.28
728.12	4325.31
728.30	3813.32
728.48	2981.84
728.66	2697.17
728.84	2619.35
729.03	2275.29
729.21	2183.13
729.39	1937.38
729.57	1810.40
729.75	1834.98
729.93	1832.93
730.11	1742.82
730.30	1656.81
730.48	1726.44
730.66	1882.08
730.84	1746.92
731.02	1597.42
731.20	1724.39
731.38	1804.26
731.56	1603.56
731.74	1621.99
731.93	1787.88
732.11	1695.72
732.29	1619.94
732.47	1777.64
732.65	1720.29
732.83	1753.06
733.01	1753.06
733.19	1619.94
733.37	1806.31
733.56	1781.73
733.74	1665.00
733.92	1798.12
734.10	1726.44
734.28	1767.40
734.46	1628.14
734.64	1693.67
734.82	1685.48
735.00	1703.91
735.18	1730.53
735.36	1728.49
735.54	1712.10
735.73	1751.01
735.91	1779.68
736.09	1755.11
736.27	1677.29
736.45	1781.73
736.63	1558.50
736.81	1691.62
736.99	1691.62
737.17	1802.21
737.35	1712.10
737.53	1695.72
737.71	1699.81
737.89	1763.30
738.07	1708.01
738.25	1675.24
738.43	1644.52
738.61	1714.15
738.80	1611.75
738.98	1665.00
739.16	1652.71
739.34	1703.91
739.52	1740.77
739.70	1744.87
739.88	1748.97
740.06	1804.26
740.24	1615.85
740.42	1746.92
740.60	1609.70
740.78	1652.71
740.96	1628.14
741.14	1687.53
741.32	1621.99
741.50	1685.48
741.68	1826.79
741.86	1759.21
742.04	1689.57
742.22	1669.09
742.40	1673.19
742.58	1775.59
742.76	1656.81
742.94	1689.57
743.12	1681.38
743.30	1705.96
743.48	1724.39
743.66	1669.09
743.84	1718.25
744.02	1736.68
744.20	1765.35
744.38	1744.87
744.56	1632.23
744.74	1783.78
744.92	1781.73
745.10	1791.97
745.28	1730.53
745.46	1787.88
745.64	1667.05
745.82	1759.21
746.00	1701.86
746.18	1724.39
746.36	1628.14
746.54	1730.53
746.72	1703.91
746.90	1732.58
747.08	1724.39
747.26	1689.57
747.44	1779.68
747.62	1619.94
747.80	1710.05
747.98	1697.77
748.15	1654.76
748.33	1796.07
748.51	1681.38
748.69	1843.17
748.87	1675.24
749.05	1683.43
749.23	1632.23
749.41	1757.16
749.59	1646.57
749.77	1724.39
749.95	1646.57
750.13	1746.92
750.31	1769.44
750.49	1642.47
750.67	1791.97
750.85	1675.24
751.03	1714.15
751.20	1785.83
751.38	1767.40
751.56	1734.63
751.74	1718.25
751.92	1642.47
752.10	1593.32
752.28	1796.07
752.46	1703.91
752.64	1677.29
752.82	1736.68
753.00	1812.45
753.18	1705.96
753.35	1648.61
753.53	1652.71
753.71	1636.33
753.89	1722.34
754.07	1636.33
754.25	1736.68
754.43	1710.05
754.61	1611.75
754.79	1740.77
754.97	1693.67
755.14	1804.26
755.32	1667.05
755.50	1728.49
755.68	1755.11
755.86	1640.42
756.04	1630.18
756.22	1640.42
756.40	1705.96
756.57	1761.25
756.75	1703.91
756.93	1708.01
757.11	1769.44
757.29	1728.49
757.47	1697.77
757.65	1646.57
757.82	1550.31
758.00	1703.91
758.18	1693.67
758.36	1658.85
758.54	1812.45
758.72	1556.46
758.90	1812.45
759.07	1695.72
759.25	1648.61
759.43	1701.86
759.61	1699.81
759.79	2150.37
759.97	1712.10
760.15	1791.97
760.32	1716.20
760.50	1724.39
760.68	1779.68
760.86	1648.61
761.04	1748.97
761.22	1705.96
761.39	1748.97
761.57	1718.25
761.75	1671.14
761.93	1757.16
762.11	1665.00
762.28	1720.29
762.46	1638.38
762.64	1781.73
762.82	1644.52
763.00	1626.09
763.18	1785.83
763.35	1636.33
763.53	1703.91
763.71	1654.76
763.89	1699.81
764.07	1718.25
764.24	1648.61
764.42	1677.29
764.60	1665.00
764.78	1763.30
764.96	1734.63
765.13	1779.68
765.31	1681.38
765.49	1699.81
765.67	1619.94
765.84	1667.05
766.02	1722.34
766.20	1619.94
766.38	1726.44
766.56	1755.11
766.73	1777.64
766.91	1722.34
767.09	1681.38
767.27	1708.01
767.44	1601.51
767.62	1669.09
767.80	1615.85
767.98	1685.48
768.15	1632.23
768.33	1755.11
768.51	1755.11
768.69	1703.91
768.87	1798.12
769.04	1681.38
769.22	1845.22
769.40	1728.49
769.58	1804.26
769.75	1755.11
769.93	1724.39
770.11	1736.68
770.28	1691.62
770.46	1693.67
770.64	1732.58
770.82	1748.97
770.99	1615.85
771.17	1740.77
771.35	1683.43
771.53	1693.67
771.70	1630.18
771.88	1791.97
772.06	1683.43
772.23	1693.67
772.41	1775.59
772.59	1728.49
772.77	1679.33
772.94	1722.34
773.12	1759.21
773.30	1712.10
773.47	1712.10
773.65	1728.49
773.83	1763.30
774.01	1720.29
774.18	1570.79
774.36	1652.71
774.54	1583.08
774.71	1701.86
774.89	1634.28
775.07	1671.14
775.24	1628.14
775.42	1701.86
775.60	1767.40
775.78	1640.42
775.95	1652.71
776.13	1605.61
776.31	1648.61
776.48	1673.19
776.66	1806.31
776.84	1712.10
777.01	1595.37
777.19	1599.46
777.37	1650.66
777.54	1607.66
777.72	1812.45
777.90	1720.29
778.07	1710.05
778.25	1890.28
778.43	1767.40
778.60	1628.14
778.78	1718.25
778.96	1769.44
779.13	1679.33
779.31	1775.59
779.49	1609.70
779.66	1746.92
779.84	1712.10
780.01	1626.09
780.19	1656.81
780.37	1847.27
780.54	1736.68
780.72	1621.99
780.90	1675.24
781.07	1759.21
781.25	1718.25
781.43	1769.44
781.60	1660.90
781.78	1734.63
781.95	1665.00
782.13	1642.47
782.31	1662.95
782.48	1587.18
782.66	1687.53
782.83	1822.69
783.01	1675.24
783.19	1744.87
783.36	1681.38
783.54	1601.51
783.72	1779.68
783.89	1742.82
784.07	1732.58
784.24	1718.25
784.42	1808.36
784.60	1742.82
784.77	1748.97
784.95	1587.18
785.12	1587.18
785.30	1689.57
785.47	1703.91
785.65	1628.14
785.83	1697.77
786.00	1628.14
786.18	1681.38
786.35	1601.51
786.53	1650.66
786.71	1701.86
786.88	1761.25
787.06	1689.57
787.23	1685.48
787.41	1636.33
787.58	1665.00
787.76	1621.99
787.94	1734.63
788.11	1716.20
788.29	1714.15
788.46	1652.71
788.64	1583.08
788.81	1703.91
788.99	1689.57
789.16	1630.18
789.34	1736.68
789.52	1673.19
789.69	1683.43
789.87	1529.83
790.04	1695.72
790.22	1724.39
790.39	1798.12
790.57	1648.61
790.74	1607.66
790.92	1703.91
791.09	1607.66
791.27	1728.49
791.44	1810.40
791.62	1656.81
791.79	1716.20
791.97	1671.14
792.15	1822.69
792.32	1712.10
792.50	1746.92
792.67	1773.54
792.85	1816.55
793.02	1636.33
793.20	1708.01
793.37	1605.61
793.55	1697.77
793.72	1642.47
793.90	1728.49
794.07	1644.52
794.25	1683.43
794.42	1683.43
794.60	1742.82
794.77	1714.15
794.95	1724.39
795.12	1726.44
795.30	1628.14
795.47	1667.05
795.65	1939.43
795.82	1681.38
796.00	1634.28
796.17	1607.66
796.34	1669.09
796.52	1736.68
796.69	1691.62
796.87	1656.81
797.04	1695.72
797.22	1775.59
797.39	1699.81
797.57	1724.39
797.74	1738.73
797.92	1652.71
798.09	1724.39
798.27	1806.31
798.44	1660.90
798.62	1671.14
798.79	1730.53
798.96	1642.47
799.14	1662.95
799.31	1828.84
799.49	1695.72
799.66	1638.38
799.84	1685.48
800.01	1597.42
800.19	1728.49
800.36	1576.94
800.53	1787.88
800.71	1701.86
800.88	1826.79
801.06	1638.38
801.23	1689.57
801.41	1634.28
801.58	1646.57
801.75	1736.68
801.93	1724.39
802.10	1714.15
802.28	1642.47
802.45	1640.42
802.63	1746.92
802.80	1855.46
802.97	1624.04
803.15	1734.63
803.32	1654.76
803.50	1703.91
803.67	1546.22
803.84	1648.61
804.02	1705.96
804.19	1695.72
804.37	1634.28
804.54	1587.18
804.71	1646.57
804.89	1724.39
805.06	1681.38
805.24	1624.04
805.41	1619.94
805.58	1675.24
805.76	1820.64
805.93	1710.05
806.10	1779.68
806.28	1734.63
806.45	1728.49
806.63	1703.91
806.80	1736.68
806.97	1710.05
807.15	1697.77
807.32	1710.05
807.49	1644.52
807.67	1628.14
807.84	1771.49
808.01	1578.98
808.19	1802.21
808.36	1802.21
808.54	1654.76
808.71	1613.80
808.88	1701.86
809.06	1779.68
809.23	1761.25
809.40	1603.56
809.58	1818.60
809.75	1636.33
809.92	1640.42
810.10	1808.36
810.27	1665.00
810.44	1685.48
810.62	1755.11
810.79	1763.30
810.96	1648.61
811.14	1642.47
811.31	1665.00
811.48	1779.68
811.66	1624.04
811.83	1753.06
812.00	1691.62
812.18	1796.07
812.35	1765.35
812.52	1640.42
812.69	1730.53
812.87	1636.33
813.04	1609.70
813.21	1605.61
813.39	1660.90
813.56	1566.70
813.73	1730.53
813.91	1566.70
814.08	1724.39
814.25	1658.85
814.42	1603.56
814.60	1646.57
814.77	1740.77
814.94	1679.33
815.12	1656.81
815.29	1779.68
815.46	1662.95
815.63	1742.82
815.81	1665.00
815.98	1660.90
816.15	1712.10
816.33	1746.92
816.50	1628.14
816.67	1695.72
816.84	1783.78
817.02	1626.09
817.19	1712.10
817.36	1681.38
817.53	1665.00
817.71	1689.57
817.88	1787.88
818.05	1679.33
818.22	1701.86
818.40	1718.25
818.57	1705.96
818.74	1687.53
818.91	1626.09
819.09	1730.53
819.26	1677.29
819.43	1689.57
819.60	1677.29
819.78	1714.15
819.95	1820.64
820.12	1644.52
820.29	1757.16
820.47	1722.34
820.64	1689.57
820.81	1685.48
820.98	1667.05
821.15	1628.14
821.33	1751.01
821.50	1621.99
821.67	1794.02
821.84	1669.09
822.02	1724.39
822.19	1726.44
822.36	1722.34
822.53	1673.19
822.70	1628.14
822.88	1701.86
823.05	1779.68
823.22	1693.67
823.39	1728.49
823.56	1740.77
823.74	1773.54
823.91	1654.76
824.08	1662.95
824.25	1701.86
824.42	1703.91
824.60	1607.66
824.77	1759.21
824.94	1671.14
825.11	1697.77
825.28	1591.27
825.45	1783.78
825.63	1644.52
825.80	1562.60
825.97	1708.01
826.14	1742.82
826.31	1636.33
826.48	1753.06
826.66	1605.61
826.83	1755.11
827.00	1736.68
827.17	1669.09
827.34	1689.57
827.51	1679.33
827.69	1665.00
827.86	1652.71
828.03	1695.72
828.20	1714.15
828.37	1685.48
828.54	1738.73
828.71	1632.23
828.89	1724.39
829.06	1640.42
829.23	1732.58
829.40	1607.66
829.57	1693.67
829.74	1726.44
829.91	1671.14
830.09	1634.28
830.26	1677.29
830.43	1791.97
830.60	1581.03
830.77	1712.10
830.94	1779.68
831.11	1720.29
831.28	1675.24
831.46	1720.29
831.63	1669.09
831.80	1779.68
831.97	1562.60
832.14	1705.96
832.31	1755.11
832.48	1697.77
832.65	1701.86
832.82	1679.33
832.99	1781.73
833.17	1656.81
833.34	1808.36
833.51	1734.63
833.68	1630.18
833.85	1781.73
834.02	1621.99
834.19	1615.85
834.36	1630.18
834.53	1673.19
834.70	1716.20
834.87	1693.67
835.04	1710.05
835.22	1695.72
835.39	1718.25
835.56	1708.01
835.73	1671.14
835.90	1759.21
836.07	1556.46
836.24	1738.73
836.41	1611.75
836.58	1689.57
836.75	1720.29
836.92	1734.63
837.09	1683.43
837.26	1718.25
837.43	1732.58
837.60	1685.48
837.77	1642.47
837.94	1783.78
838.12	1742.82
838.29	1724.39
838.46	1554.41
838.63	1587.18
838.80	1775.59
838.97	1753.06
839.14	1794.02
839.31	1693.67
839.48	1759.21
839.65	1634.28
839.82	1705.96
839.99	1720.29
840.16	1708.01
840.33	1673.19
840.50	1777.64
840.67	1673.19
840.84	1583.08
841.01	1794.02
841.18	1658.85
841.35	1738.73
841.52	1720.29
841.69	1830.88
841.86	1703.91
842.03	1710.05
842.20	1781.73
842.37	1662.95
842.54	1654.76
842.71	1710.05
842.88	1574.89
843.05	1785.83
843.22	1675.24
843.39	1695.72
843.56	1654.76
843.73	1820.64
843.90	1634.28
844.07	1687.53
844.24	1730.53
844.41	1677.29
844.58	1650.66
844.75	1660.90
844.92	1673.19
845.09	1689.57
845.26	1648.61
845.43	1689.57
845.60	1751.01
845.77	1761.25
845.94	1650.66
846.10	1697.77
846.27	1599.46
846.44	1636.33
846.61	1583.08
846.78	1781.73
846.95	1791.97
847.12	1687.53
847.29	1689.57
847.46	1613.80
847.63	1775.59
847.80	1705.96
847.97	1658.85
848.14	1734.63
848.31	1730.53
848.48	1566.70
848.65	1667.05
848.82	1726.44
848.98	1834.98
849.15	1734.63
849.32	1701.86
849.49	1701.86
849.66	1689.57
849.83	1701.86
850.00	1585.13
850.17	1662.95
850.34	1710.05
850.51	1640.42
850.68	1613.80
850.85	1816.55
851.01	1738.73
851.18	1826.79
851.35	1693.67
851.52	1710.05
851.69	1738.73
851.86	1619.94
852.03	1648.61
852.20	1738.73
852.37	1658.85
852.53	1673.19
852.70	1665.00
852.87	1665.00
853.04	1771.49
853.21	1638.38
853.38	1796.07
853.55	1730.53
853.72	1736.68
853.89	1619.94
854.05	1554.41
854.22	1748.97
854.39	1662.95
854.56	1679.33
854.73	1763.30
854.90	1609.70
855.07	1656.81
855.23	1679.33
855.40	1669.09
855.57	1677.29
855.74	1529.83
855.91	1804.26
856.08	1675.24
856.25	1654.76
856.41	1685.48
856.58	1683.43
856.75	1748.97
856.92	1662.95
857.09	1740.77
857.26	1673.19
857.42	1763.30
857.59	1693.67
857.76	1730.53
857.93	1658.85
858.10	1722.34
858.27	1705.96
858.43	1646.57
858.60	1636.33
858.77	1597.42
858.94	1681.38
859.11	1779.68
859.27	1683.43
859.44	1656.81
859.61	1775.59
859.78	1728.49
859.95	1716.20
860.12	1644.52
860.28	1765.35
860.45	1808.36
860.62	1615.85
860.79	1656.81
860.95	1632.23
861.12	1677.29
861.29	1730.53
861.46	1697.77
861.63	1681.38
861.79	1679.33
861.96	1642.47
862.13	1673.19
862.30	1767.40
862.47	1593.32
862.63	1691.62
862.80	1724.39
862.97	1761.25
863.14	1656.81
863.30	1712.10
863.47	1705.96
863.64	1796.07
863.81	1677.29
863.97	1656.81
864.14	1689.57
864.31	1685.48
864.48	1681.38
864.65	1626.09
864.81	1724.39
864.98	1701.86
865.15	1705.96
865.32	1701.86
865.48	1814.50
865.65	1798.12
865.82	1677.29
865.98	1726.44
866.15	1734.63
866.32	1718.25
866.49	1714.15
866.65	1763.30
866.82	1611.75
866.99	1669.09
867.16	1679.33
867.32	1673.19
867.49	1740.77
867.66	1714.15
867.83	1683.43
867.99	1650.66
868.16	1665.00
868.33	1646.57
868.49	1705.96
868.66	1605.61
868.83	1765.35
868.99	1689.57
869.16	1615.85
869.33	1724.39
869.50	1693.67
869.66	1734.63
869.83	1697.77
870.00	1548.26
870.16	1742.82
870.33	1636.33
870.50	1761.25
870.66	1728.49
870.83	1806.31
871.00	1722.34
871.17	1726.44
871.33	1683.43
871.50	1738.73
871.67	1710.05
871.83	1628.14
872.00	1724.39
872.17	1648.61
872.33	1748.97
872.50	1757.16
872.67	1685.48
872.83	1724.39
873.00	1683.43
873.17	1636.33
873.33	1734.63
873.50	1738.73
873.67	1642.47
873.83	1699.81
874.00	1667.05
874.16	1767.40
874.33	1691.62
874.50	1626.09
874.66	1738.73
874.83	1699.81
875.00	1744.87
875.16	1738.73
875.33	1779.68
875.50	1572.84
875.66	1603.56
875.83	1669.09
875.99	1751.01
876.16	1617.90
876.33	1716.20
876.49	1656.81
876.66	1693.67
876.83	1658.85
876.99	1544.17
877.16	1607.66
877.32	1662.95
877.49	1607.66
877.66	1726.44
877.82	1751.01
877.99	1671.14
878.15	1714.15
878.32	1658.85
878.49	1755.11
878.65	1660.90
878.82	1738.73
878.98	1652.71
879.15	1640.42
879.32	1710.05
879.48	1669.09
879.65	1736.68
879.81	1716.20
879.98	1669.09
880.15	1691.62
880.31	1802.21
880.48	1624.04
880.64	1834.98
880.81	1701.86
880.97	1800.16
881.14	1783.78
881.31	1636.33
881.47	1822.69
881.64	1638.38
881.80	1646.57
881.97	1671.14
882.13	1781.73
882.30	1626.09
882.47	1632.23
882.63	1609.70
882.80	1722.34
882.96	1640.42
883.13	1718.25
883.29	1705.96
883.46	1685.48
883.62	1763.30
883.79	1646.57
883.95	1728.49
884.12	1677.29
884.29	1658.85
884.45	1656.81
884.62	1744.87
884.78	1687.53
884.95	1855.46
885.11	1650.66
885.28	1705.96
885.44	1744.87
885.61	1665.00
885.77	1769.44
885.94	1757.16
886.10	1716.20
886.27	1726.44
886.43	1847.27
886.60	1738.73
886.76	1626.09
886.93	1689.57
887.09	1705.96
887.26	1638.38
887.42	1617.90
887.59	1796.07
887.75	1824.74
887.92	1769.44
888.08	1722.34
888.25	1779.68
888.41	1734.63
888.58	1656.81
888.74	1634.28
888.91	1669.09
>>>>>End Processed Spectral Data<<<<<
