SpectraSuite Data File
++++++++++++++++++++++++++++++++++++
Date: Mon Jun 06 16:32:17 CEST 2016
User: root
Dark Spectrum Present: No
Reference Spectrum Present: No
Number of Sampled Component Spectra: 1
Spectrometers: USB4C02835
Integration Time (usec): 100000 (USB4C02835)
Spectra Averaged: 1 (USB4C02835)
Boxcar Smoothing: 0 (USB4C02835)
Correct for Electrical Dark: No (USB4C02835)
Strobe/Lamp Enabled: No (USB4C02835)
Correct for Detector Non-linearity: No (USB4C02835)
Correct for Stray Light: No (USB4C02835)
Number of Pixels in Processed Spectrum: 3648
>>>>>Begin Processed Spectral Data<<<<<
177.47	1468.39
177.69	1468.39
177.91	1468.39
178.13	1425.39
178.36	1472.49
178.58	1619.94
178.80	1722.34
179.02	1562.60
179.24	1708.01
179.46	1648.61
179.68	1763.30
179.90	1767.40
180.13	1820.64
180.35	1722.34
180.57	1652.71
180.79	1710.05
181.01	1630.18
181.23	1773.54
181.45	1853.41
181.67	1740.77
181.90	1771.49
182.12	1705.96
182.34	1669.09
182.56	1769.44
182.78	1640.42
183.00	1705.96
183.22	1656.81
183.44	1669.09
183.66	1816.55
183.89	1732.58
184.11	1675.24
184.33	1779.68
184.55	1744.87
184.77	1705.96
184.99	1662.95
185.21	1671.14
185.43	1767.40
185.65	1705.96
185.87	1730.53
186.10	1851.36
186.32	1904.61
186.54	1712.10
186.76	1777.64
186.98	1769.44
187.20	1734.63
187.42	1617.90
187.64	1718.25
187.86	1669.09
188.08	1767.40
188.30	1742.82
188.52	1765.35
188.75	1757.16
188.97	1816.55
189.19	1705.96
189.41	1662.95
189.63	1777.64
189.85	1632.23
190.07	1601.51
190.29	1652.71
190.51	1701.86
190.73	1720.29
190.95	1800.16
191.17	1693.67
191.39	1605.61
191.61	1787.88
191.84	1685.48
192.06	1746.92
192.28	1630.18
192.50	1806.31
192.72	1810.40
192.94	1673.19
193.16	1748.97
193.38	1677.29
193.60	1632.23
193.82	1677.29
194.04	1779.68
194.26	1689.57
194.48	1767.40
194.70	1683.43
194.92	1621.99
195.14	1775.59
195.36	1705.96
195.58	1732.58
195.80	1646.57
196.02	1624.04
196.24	1695.72
196.46	1798.12
196.69	1593.32
196.91	1847.27
197.13	1726.44
197.35	1738.73
197.57	1767.40
197.79	1767.40
198.01	1658.85
198.23	1714.15
198.45	1705.96
198.67	1599.46
198.89	1632.23
199.11	1693.67
199.33	1710.05
199.55	1621.99
199.77	1738.73
199.99	1753.06
200.21	1722.34
200.43	1771.49
200.65	1730.53
200.87	1535.98
201.09	1779.68
201.31	1714.15
201.53	1781.73
201.75	1642.47
201.97	1785.83
202.19	1791.97
202.41	1685.48
202.63	1820.64
202.85	1736.68
203.07	1730.53
203.29	1667.05
203.51	1705.96
203.73	1650.66
203.95	1865.70
204.17	1771.49
204.39	1710.05
204.61	1677.29
204.83	1703.91
205.05	1775.59
205.27	1736.68
205.49	1767.40
205.71	1705.96
205.93	1644.52
206.15	1722.34
206.37	1705.96
206.59	1759.21
206.81	1687.53
207.03	1710.05
207.25	1603.56
207.47	1757.16
207.69	1746.92
207.91	1810.40
208.13	1742.82
208.34	1705.96
208.56	1708.01
208.78	1701.86
209.00	1662.95
209.22	1695.72
209.44	1726.44
209.66	1742.82
209.88	1679.33
210.10	1714.15
210.32	1701.86
210.54	1781.73
210.76	1613.80
210.98	1781.73
211.20	1581.03
211.42	1736.68
211.64	1736.68
211.86	1763.30
212.08	1691.62
212.30	1730.53
212.52	1658.85
212.74	1771.49
212.96	1740.77
213.17	1669.09
213.39	1765.35
213.61	1724.39
213.83	1701.86
214.05	1652.71
214.27	1789.92
214.49	1650.66
214.71	1699.81
214.93	1796.07
215.15	1748.97
215.37	1794.02
215.59	1654.76
215.81	1742.82
216.03	1697.77
216.24	1732.58
216.46	1705.96
216.68	1730.53
216.90	1771.49
217.12	1822.69
217.34	1673.19
217.56	1718.25
217.78	1820.64
218.00	1777.64
218.22	1699.81
218.44	1679.33
218.66	1712.10
218.87	1853.41
219.09	1693.67
219.31	1755.11
219.53	1759.21
219.75	1615.85
219.97	1642.47
220.19	1716.20
220.41	1693.67
220.63	1814.50
220.85	1763.30
221.06	1699.81
221.28	1767.40
221.50	1765.35
221.72	1701.86
221.94	1714.15
222.16	1669.09
222.38	1658.85
222.60	1734.63
222.82	1714.15
223.03	1781.73
223.25	1591.27
223.47	1791.97
223.69	1783.78
223.91	1708.01
224.13	1673.19
224.35	1644.52
224.57	1732.58
224.78	1716.20
225.00	1714.15
225.22	1708.01
225.44	1746.92
225.66	1748.97
225.88	1685.48
226.10	1734.63
226.32	1705.96
226.53	1771.49
226.75	1708.01
226.97	1742.82
227.19	1665.00
227.41	1656.81
227.63	1634.28
227.85	1599.46
228.06	1714.15
228.28	1720.29
228.50	1685.48
228.72	1613.80
228.94	1755.11
229.16	1632.23
229.37	1705.96
229.59	1693.67
229.81	1746.92
230.03	1636.33
230.25	1630.18
230.47	1634.28
230.69	1665.00
230.90	1761.25
231.12	1615.85
231.34	1759.21
231.56	1806.31
231.78	1701.86
232.00	1689.57
232.21	1703.91
232.43	1701.86
232.65	1576.94
232.87	1703.91
233.09	1624.04
233.30	1685.48
233.52	1791.97
233.74	1673.19
233.96	1691.62
234.18	1705.96
234.40	1744.87
234.61	1830.88
234.83	1689.57
235.05	1593.32
235.27	1851.36
235.49	1742.82
235.70	1753.06
235.92	1794.02
236.14	1683.43
236.36	1927.14
236.58	1699.81
236.79	1787.88
237.01	1660.90
237.23	1708.01
237.45	1808.36
237.67	1648.61
237.88	1712.10
238.10	1841.12
238.32	1648.61
238.54	1697.77
238.76	1685.48
238.97	1658.85
239.19	1642.47
239.41	1853.41
239.63	1738.73
239.85	1671.14
240.06	1828.84
240.28	1785.83
240.50	1796.07
240.72	1712.10
240.93	1703.91
241.15	1775.59
241.37	1695.72
241.59	1759.21
241.81	1673.19
242.02	1656.81
242.24	1718.25
242.46	1736.68
242.68	1640.42
242.89	1738.73
243.11	1753.06
243.33	1667.05
243.55	1697.77
243.76	1710.05
243.98	1755.11
244.20	1691.62
244.42	1687.53
244.64	1628.14
244.85	1718.25
245.07	1619.94
245.29	1767.40
245.51	1626.09
245.72	1740.77
245.94	1732.58
246.16	1695.72
246.38	1724.39
246.59	1585.13
246.81	1689.57
247.03	1646.57
247.24	1587.18
247.46	1687.53
247.68	1767.40
247.90	1765.35
248.11	1583.08
248.33	1779.68
248.55	1705.96
248.77	1769.44
248.98	1699.81
249.20	1834.98
249.42	1679.33
249.64	1720.29
249.85	1687.53
250.07	1744.87
250.29	1726.44
250.50	1839.08
250.72	1673.19
250.94	1783.78
251.16	1841.12
251.37	1787.88
251.59	1732.58
251.81	1710.05
252.02	1798.12
252.24	1701.86
252.46	1814.50
252.68	1646.57
252.89	1689.57
253.11	1597.42
253.33	1828.84
253.54	1779.68
253.76	1593.32
253.98	1646.57
254.20	1740.77
254.41	1693.67
254.63	1671.14
254.85	1677.29
255.06	1660.90
255.28	1748.97
255.50	1701.86
255.71	1615.85
255.93	1662.95
256.15	1638.38
256.36	1789.92
256.58	1683.43
256.80	1728.49
257.02	1679.33
257.23	1685.48
257.45	1771.49
257.67	1734.63
257.88	1636.33
258.10	1671.14
258.32	1677.29
258.53	1624.04
258.75	1779.68
258.97	1671.14
259.18	1669.09
259.40	1658.85
259.62	1787.88
259.83	1703.91
260.05	1740.77
260.27	1961.95
260.48	1761.25
260.70	1656.81
260.92	1669.09
261.13	1742.82
261.35	1701.86
261.57	1771.49
261.78	1611.75
262.00	1656.81
262.22	1740.77
262.43	1640.42
262.65	1685.48
262.86	1691.62
263.08	1832.93
263.30	1703.91
263.51	1597.42
263.73	1613.80
263.95	1722.34
264.16	1730.53
264.38	1673.19
264.60	1687.53
264.81	1716.20
265.03	1789.92
265.25	1738.73
265.46	1699.81
265.68	1804.26
265.89	1724.39
266.11	1589.22
266.33	1755.11
266.54	1810.40
266.76	1710.05
266.98	1724.39
267.19	1816.55
267.41	1755.11
267.62	1742.82
267.84	1560.55
268.06	1814.50
268.27	1718.25
268.49	1767.40
268.70	1830.88
268.92	1697.77
269.14	1701.86
269.35	1615.85
269.57	1695.72
269.79	1732.58
270.00	1738.73
270.22	1826.79
270.43	1695.72
270.65	1624.04
270.87	1734.63
271.08	1746.92
271.30	1738.73
271.51	1718.25
271.73	1720.29
271.95	1759.21
272.16	1714.15
272.38	1644.52
272.59	1695.72
272.81	1796.07
273.02	1632.23
273.24	1757.16
273.46	1834.98
273.67	1681.38
273.89	1648.61
274.10	1714.15
274.32	1722.34
274.54	1740.77
274.75	1753.06
274.97	1705.96
275.18	1685.48
275.40	1677.29
275.61	1714.15
275.83	1677.29
276.05	1634.28
276.26	1722.34
276.48	1714.15
276.69	1660.90
276.91	1662.95
277.12	1794.02
277.34	1753.06
277.55	1738.73
277.77	1730.53
277.99	1634.28
278.20	1624.04
278.42	1640.42
278.63	1624.04
278.85	1673.19
279.06	1665.00
279.28	1673.19
279.49	1761.25
279.71	1773.54
279.93	1699.81
280.14	1677.29
280.36	1667.05
280.57	1726.44
280.79	1683.43
281.00	1714.15
281.22	1677.29
281.43	1677.29
281.65	1601.51
281.86	1660.90
282.08	1734.63
282.29	1781.73
282.51	1619.94
282.73	1624.04
282.94	1607.66
283.16	1759.21
283.37	1732.58
283.59	1671.14
283.80	1761.25
284.02	1755.11
284.23	1724.39
284.45	1738.73
284.66	1638.38
284.88	1619.94
285.09	1712.10
285.31	1740.77
285.52	1673.19
285.74	1595.37
285.95	1736.68
286.17	1744.87
286.38	1751.01
286.60	1630.18
286.81	1665.00
287.03	1710.05
287.24	1654.76
287.46	1763.30
287.67	1652.71
287.89	1806.31
288.10	1718.25
288.32	1714.15
288.53	1804.26
288.75	1701.86
288.96	1777.64
289.18	1611.75
289.39	1705.96
289.61	1714.15
289.82	1812.45
290.04	1830.88
290.25	1683.43
290.47	1648.61
290.68	1691.62
290.90	1837.03
291.11	1630.18
291.33	1796.07
291.54	1638.38
291.76	1763.30
291.97	1689.57
292.18	1689.57
292.40	1689.57
292.61	1669.09
292.83	1849.32
293.04	1689.57
293.26	1769.44
293.47	1667.05
293.69	1669.09
293.90	1679.33
294.12	1796.07
294.33	1669.09
294.55	1671.14
294.76	1697.77
294.97	1787.88
295.19	1839.08
295.40	1748.97
295.62	1765.35
295.83	1783.78
296.05	1675.24
296.26	1796.07
296.48	1640.42
296.69	1699.81
296.90	1646.57
297.12	1767.40
297.33	1755.11
297.55	1699.81
297.76	1775.59
297.98	1771.49
298.19	1744.87
298.41	1722.34
298.62	1691.62
298.83	1834.98
299.05	1767.40
299.26	1691.62
299.48	1693.67
299.69	1734.63
299.90	1654.76
300.12	1724.39
300.33	1753.06
300.55	1730.53
300.76	1757.16
300.98	1712.10
301.19	1779.68
301.40	1703.91
301.62	1734.63
301.83	1722.34
302.05	1732.58
302.26	1689.57
302.47	1708.01
302.69	1738.73
302.90	1755.11
303.12	1673.19
303.33	1783.78
303.54	1753.06
303.76	1765.35
303.97	1701.86
304.19	1787.88
304.40	1673.19
304.61	1744.87
304.83	1824.74
305.04	1824.74
305.26	1708.01
305.47	1734.63
305.68	1605.61
305.90	1640.42
306.11	1724.39
306.33	1763.30
306.54	1636.33
306.75	1693.67
306.97	1652.71
307.18	1615.85
307.39	1671.14
307.61	1765.35
307.82	1722.34
308.04	1699.81
308.25	1617.90
308.46	1779.68
308.68	1710.05
308.89	1708.01
309.10	1751.01
309.32	1693.67
309.53	1724.39
309.74	1736.68
309.96	1671.14
310.17	1738.73
310.39	1648.61
310.60	1730.53
310.81	1691.62
311.03	1632.23
311.24	1685.48
311.45	1798.12
311.67	1779.68
311.88	1757.16
312.09	1708.01
312.31	1695.72
312.52	1718.25
312.73	1619.94
312.95	1650.66
313.16	1687.53
313.37	1824.74
313.59	1691.62
313.80	1763.30
314.01	1773.54
314.23	1718.25
314.44	1665.00
314.65	1654.76
314.87	1667.05
315.08	1624.04
315.29	1699.81
315.51	1630.18
315.72	1658.85
315.93	1845.22
316.15	1787.88
316.36	1763.30
316.57	1777.64
316.79	1791.97
317.00	1650.66
317.21	1742.82
317.43	1636.33
317.64	1718.25
317.85	1714.15
318.07	1703.91
318.28	1701.86
318.49	1789.92
318.70	1929.19
318.92	1834.98
319.13	1859.56
319.34	1779.68
319.56	1851.36
319.77	1734.63
319.98	1730.53
320.20	1775.59
320.41	1816.55
320.62	1781.73
320.83	1609.70
321.05	1808.36
321.26	1746.92
321.47	1710.05
321.69	1820.64
321.90	1673.19
322.11	1677.29
322.32	1699.81
322.54	1777.64
322.75	1734.63
322.96	1822.69
323.18	1691.62
323.39	1656.81
323.60	1691.62
323.81	1718.25
324.03	1691.62
324.24	1687.53
324.45	1753.06
324.66	1755.11
324.88	1781.73
325.09	1767.40
325.30	1771.49
325.52	1697.77
325.73	1726.44
325.94	1673.19
326.15	1615.85
326.37	1751.01
326.58	1757.16
326.79	1724.39
327.00	1593.32
327.22	1757.16
327.43	1650.66
327.64	1726.44
327.85	1734.63
328.07	1662.95
328.28	1841.12
328.49	1728.49
328.70	1654.76
328.92	1669.09
329.13	1619.94
329.34	1714.15
329.55	1806.31
329.76	1798.12
329.98	1675.24
330.19	1769.44
330.40	1732.58
330.61	1720.29
330.83	1740.77
331.04	1626.09
331.25	1658.85
331.46	1628.14
331.68	1683.43
331.89	1716.20
332.10	1646.57
332.31	1650.66
332.52	1689.57
332.74	1714.15
332.95	1605.61
333.16	1679.33
333.37	1765.35
333.58	1689.57
333.80	1767.40
334.01	1648.61
334.22	1665.00
334.43	1765.35
334.64	1765.35
334.86	1599.46
335.07	1648.61
335.28	1765.35
335.49	1572.84
335.70	1689.57
335.92	1724.39
336.13	1849.32
336.34	1732.58
336.55	1689.57
336.76	1714.15
336.98	1628.14
337.19	1710.05
337.40	1830.88
337.61	1794.02
337.82	1667.05
338.04	1732.58
338.25	1558.50
338.46	1662.95
338.67	1714.15
338.88	1697.77
339.09	1636.33
339.31	1662.95
339.52	1650.66
339.73	1640.42
339.94	1775.59
340.15	1804.26
340.36	1701.86
340.58	1697.77
340.79	1654.76
341.00	1730.53
341.21	1617.90
341.42	1849.32
341.63	1652.71
341.85	1765.35
342.06	1769.44
342.27	1658.85
342.48	1722.34
342.69	1601.51
342.90	1746.92
343.12	1796.07
343.33	1746.92
343.54	1681.38
343.75	1783.78
343.96	1740.77
344.17	1683.43
344.38	1726.44
344.60	1640.42
344.81	1654.76
345.02	1693.67
345.23	1822.69
345.44	1808.36
345.65	1789.92
345.86	1724.39
346.07	1716.20
346.29	1742.82
346.50	1755.11
346.71	1763.30
346.92	1834.98
347.13	1796.07
347.34	1667.05
347.55	1699.81
347.76	1693.67
347.98	1628.14
348.19	1705.96
348.40	1710.05
348.61	1757.16
348.82	1820.64
349.03	1777.64
349.24	1634.28
349.45	1824.74
349.66	1611.75
349.88	1800.16
350.09	1691.62
350.30	1834.98
350.51	1753.06
350.72	1681.38
350.93	1761.25
351.14	1708.01
351.35	1814.50
351.56	1662.95
351.77	1683.43
351.99	1734.63
352.20	1888.23
352.41	1763.30
352.62	1648.61
352.83	1710.05
353.04	1705.96
353.25	1673.19
353.46	1820.64
353.67	1832.93
353.88	1609.70
354.09	1708.01
354.30	1710.05
354.52	1685.48
354.73	1677.29
354.94	1636.33
355.15	1730.53
355.36	1701.86
355.57	1697.77
355.78	1730.53
355.99	1656.81
356.20	1722.34
356.41	1783.78
356.62	1732.58
356.83	1744.87
357.04	1791.97
357.25	1646.57
357.46	1656.81
357.68	1691.62
357.89	1603.56
358.10	1775.59
358.31	1736.68
358.52	1609.70
358.73	1679.33
358.94	1646.57
359.15	1662.95
359.36	1785.83
359.57	1697.77
359.78	1712.10
359.99	1726.44
360.20	1675.24
360.41	1767.40
360.62	1763.30
360.83	1744.87
361.04	1734.63
361.25	1722.34
361.46	1798.12
361.67	1740.77
361.88	1683.43
362.09	1810.40
362.30	1683.43
362.51	1740.77
362.72	1746.92
362.93	1714.15
363.14	1804.26
363.35	1791.97
363.56	1636.33
363.78	1734.63
363.99	1794.02
364.20	1726.44
364.41	1667.05
364.62	1804.26
364.83	1665.00
365.04	1728.49
365.25	1763.30
365.46	1816.55
365.67	1656.81
365.88	1740.77
366.09	1695.72
366.30	1673.19
366.51	1716.20
366.72	1648.61
366.93	1665.00
367.14	1638.38
367.35	1767.40
367.56	1699.81
367.77	1765.35
367.98	1669.09
368.18	1673.19
368.39	1798.12
368.60	1718.25
368.81	1753.06
369.02	1740.77
369.23	1675.24
369.44	1644.52
369.65	1665.00
369.86	1703.91
370.07	1748.97
370.28	1722.34
370.49	1722.34
370.70	1716.20
370.91	1593.32
371.12	1634.28
371.33	1767.40
371.54	1722.34
371.75	1826.79
371.96	1626.09
372.17	1748.97
372.38	1648.61
372.59	1722.34
372.80	1744.87
373.01	1724.39
373.22	1740.77
373.43	1656.81
373.64	1685.48
373.85	1798.12
374.06	1802.21
374.26	1734.63
374.47	1763.30
374.68	1724.39
374.89	1705.96
375.10	1718.25
375.31	1755.11
375.52	1759.21
375.73	1714.15
375.94	1650.66
376.15	1771.49
376.36	1691.62
376.57	1697.77
376.78	1683.43
376.99	1710.05
377.20	1832.93
377.40	1650.66
377.61	1859.56
377.82	1652.71
378.03	1728.49
378.24	1744.87
378.45	1705.96
378.66	1763.30
378.87	1638.38
379.08	1609.70
379.29	1654.76
379.50	1798.12
379.71	1705.96
379.91	1677.29
380.12	1689.57
380.33	1648.61
380.54	1683.43
380.75	1724.39
380.96	1634.28
381.17	1804.26
381.38	1736.68
381.59	1724.39
381.80	1722.34
382.00	1875.94
382.21	1785.83
382.42	1857.51
382.63	1859.56
382.84	1681.38
383.05	1798.12
383.26	1822.69
383.47	1783.78
383.68	1695.72
383.88	1708.01
384.09	1794.02
384.30	1781.73
384.51	1734.63
384.72	1730.53
384.93	1665.00
385.14	1781.73
385.35	1832.93
385.55	1677.29
385.76	1732.58
385.97	1734.63
386.18	1673.19
386.39	1687.53
386.60	1710.05
386.81	1724.39
387.02	1787.88
387.22	1742.82
387.43	1689.57
387.64	1869.80
387.85	1875.94
388.06	2189.28
388.27	4155.33
388.48	6715.29
388.68	8333.18
388.89	9772.91
389.10	9967.46
389.31	8634.24
389.52	7618.44
389.73	6780.82
389.93	6279.07
390.14	5941.16
390.35	5164.98
390.56	4591.55
390.77	3702.73
390.98	3090.38
391.18	2455.51
391.39	2117.60
391.60	1869.80
391.81	1804.26
392.02	1744.87
392.23	1855.46
392.43	1689.57
392.64	1730.53
392.85	1759.21
393.06	1816.55
393.27	1755.11
393.47	1624.04
393.68	1779.68
393.89	1720.29
394.10	1738.73
394.31	1740.77
394.52	1658.85
394.72	1677.29
394.93	1912.80
395.14	1710.05
395.35	1669.09
395.56	1736.68
395.76	1781.73
395.97	1814.50
396.18	1843.17
396.39	1869.80
396.60	2035.68
396.80	1902.56
397.01	1851.36
397.22	1830.88
397.43	1871.84
397.64	1785.83
397.84	1798.12
398.05	1908.71
398.26	1818.60
398.47	1796.07
398.67	1771.49
398.88	1755.11
399.09	1683.43
399.30	1697.77
399.51	1822.69
399.71	1687.53
399.92	1736.68
400.13	1769.44
400.34	1617.90
400.54	1728.49
400.75	1798.12
400.96	1787.88
401.17	1837.03
401.37	1759.21
401.58	1662.95
401.79	1757.16
402.00	1927.14
402.21	1980.39
402.41	1902.56
402.62	1931.23
402.83	2000.87
403.04	1945.57
403.24	2021.35
403.45	1857.51
403.66	1927.14
403.87	1865.70
404.07	1933.28
404.28	1834.98
404.49	1875.94
404.70	1830.88
404.90	1830.88
405.11	1724.39
405.32	1701.86
405.52	1691.62
405.73	1671.14
405.94	1681.38
406.15	1687.53
406.35	1730.53
406.56	1665.00
406.77	1767.40
406.98	1728.49
407.18	1662.95
407.39	1869.80
407.60	1705.96
407.80	1732.58
408.01	1683.43
408.22	1751.01
408.43	1662.95
408.63	1728.49
408.84	1722.34
409.05	1724.39
409.25	1652.71
409.46	1646.57
409.67	1712.10
409.88	1658.85
410.08	1767.40
410.29	1697.77
410.50	1736.68
410.70	1730.53
410.91	1603.56
411.12	1832.93
411.32	1759.21
411.53	1697.77
411.74	1804.26
411.95	1832.93
412.15	1722.34
412.36	1757.16
412.57	1779.68
412.77	1910.75
412.98	1701.86
413.19	1730.53
413.39	1759.21
413.60	1771.49
413.81	1865.70
414.01	1738.73
414.22	1746.92
414.43	1740.77
414.63	1742.82
414.84	1726.44
415.05	1746.92
415.25	1611.75
415.46	1710.05
415.67	1677.29
415.87	1775.59
416.08	1691.62
416.29	1701.86
416.49	1757.16
416.70	1714.15
416.91	1632.23
417.11	1708.01
417.32	1808.36
417.53	1726.44
417.73	1718.25
417.94	1789.92
418.15	1687.53
418.35	1746.92
418.56	1763.30
418.77	1820.64
418.97	1744.87
419.18	1714.15
419.38	1615.85
419.59	1734.63
419.80	1767.40
420.00	1730.53
420.21	1720.29
420.42	1708.01
420.62	1724.39
420.83	1687.53
421.04	1722.34
421.24	1765.35
421.45	1720.29
421.65	1828.84
421.86	1751.01
422.07	1736.68
422.27	1699.81
422.48	1746.92
422.69	1646.57
422.89	1783.78
423.10	1705.96
423.30	1644.52
423.51	1677.29
423.72	1669.09
423.92	1708.01
424.13	1648.61
424.33	1687.53
424.54	1720.29
424.75	1732.58
424.95	1773.54
425.16	1767.40
425.36	1609.70
425.57	1769.44
425.78	1744.87
425.98	1800.16
426.19	1683.43
426.39	1665.00
426.60	1796.07
426.81	1771.49
427.01	1783.78
427.22	1658.85
427.42	1671.14
427.63	1632.23
427.83	1755.11
428.04	1777.64
428.25	1759.21
428.45	1800.16
428.66	1802.21
428.86	1734.63
429.07	1724.39
429.28	1728.49
429.48	1662.95
429.69	1695.72
429.89	1767.40
430.10	1617.90
430.30	1759.21
430.51	1794.02
430.71	1671.14
430.92	1695.72
431.13	1560.55
431.33	1697.77
431.54	1771.49
431.74	1773.54
431.95	1830.88
432.15	1730.53
432.36	1800.16
432.56	1771.49
432.77	1769.44
432.98	1767.40
433.18	1710.05
433.39	1685.48
433.59	1767.40
433.80	1779.68
434.00	1892.32
434.21	1644.52
434.41	1728.49
434.62	1755.11
434.82	1677.29
435.03	1630.18
435.23	1675.24
435.44	1667.05
435.64	1689.57
435.85	1751.01
436.06	1734.63
436.26	1755.11
436.47	1640.42
436.67	1689.57
436.88	1693.67
437.08	1740.77
437.29	1818.60
437.49	1730.53
437.70	1732.58
437.90	1724.39
438.11	1837.03
438.31	1808.36
438.52	1806.31
438.72	1796.07
438.93	1877.99
439.13	1777.64
439.34	1865.70
439.54	1775.59
439.75	1781.73
439.95	1820.64
440.16	1724.39
440.36	1746.92
440.57	1763.30
440.77	1732.58
440.98	1718.25
441.18	1740.77
441.39	1730.53
441.59	1683.43
441.80	1787.88
442.00	1724.39
442.21	1861.60
442.41	1751.01
442.62	1748.97
442.82	1687.53
443.02	1806.31
443.23	1738.73
443.43	1779.68
443.64	1849.32
443.84	1601.51
444.05	1816.55
444.25	1705.96
444.46	1789.92
444.66	1806.31
444.87	1830.88
445.07	1638.38
445.28	1724.39
445.48	1783.78
445.69	1751.01
445.89	1820.64
446.09	1677.29
446.30	2080.74
446.50	2713.56
446.71	3813.32
446.91	4351.93
447.12	4851.64
447.32	4855.73
447.53	4487.10
447.73	3864.52
447.93	3557.32
448.14	3262.41
448.34	3254.22
448.55	2867.16
448.75	2836.44
448.96	2725.85
449.16	2432.99
449.36	2287.58
449.57	2095.07
449.77	1802.21
449.98	1839.08
450.18	1773.54
450.39	1748.97
450.59	1783.78
450.79	1685.48
451.00	1716.20
451.20	1720.29
451.41	1669.09
451.61	1773.54
451.81	1636.33
452.02	1761.25
452.22	1712.10
452.43	1722.34
452.63	1716.20
452.84	1738.73
453.04	1771.49
453.24	1789.92
453.45	1730.53
453.65	1697.77
453.86	1751.01
454.06	1771.49
454.26	1757.16
454.47	1644.52
454.67	1820.64
454.87	1755.11
455.08	1710.05
455.28	1849.32
455.49	1816.55
455.69	1714.15
455.89	1892.32
456.10	1818.60
456.30	1746.92
456.51	1732.58
456.71	1828.84
456.91	1771.49
457.12	1796.07
457.32	1744.87
457.52	1628.14
457.73	1775.59
457.93	1820.64
458.14	1718.25
458.34	1642.47
458.54	1746.92
458.75	1751.01
458.95	1777.64
459.15	1753.06
459.36	1699.81
459.56	1822.69
459.76	1818.60
459.97	1791.97
460.17	1701.86
460.37	1849.32
460.58	1718.25
460.78	1718.25
460.99	1726.44
461.19	1738.73
461.39	1693.67
461.60	1740.77
461.80	1781.73
462.00	1716.20
462.21	1775.59
462.41	1718.25
462.61	1634.28
462.82	1634.28
463.02	1726.44
463.22	1763.30
463.43	1812.45
463.63	1730.53
463.83	1753.06
464.04	1804.26
464.24	1773.54
464.44	1671.14
464.64	1753.06
464.85	1834.98
465.05	1791.97
465.25	1697.77
465.46	1738.73
465.66	1695.72
465.86	1777.64
466.07	1740.77
466.27	1759.21
466.47	1642.47
466.68	1658.85
466.88	1759.21
467.08	1830.88
467.29	1761.25
467.49	1812.45
467.69	1716.20
467.89	1794.02
468.10	1693.67
468.30	1810.40
468.50	1718.25
468.71	1767.40
468.91	1669.09
469.11	1853.41
469.31	1695.72
469.52	1685.48
469.72	1837.03
469.92	1937.38
470.13	1714.15
470.33	1726.44
470.53	1904.61
470.73	2107.36
470.94	2361.31
471.14	2334.68
471.34	2545.63
471.54	2430.94
471.75	2199.52
471.95	2271.20
472.15	2066.40
472.36	2197.47
472.56	2062.30
472.76	2031.58
472.96	1996.77
473.17	2031.58
473.37	1970.15
473.57	1783.78
473.77	1822.69
473.98	1800.16
474.18	1777.64
474.38	1824.74
474.58	1708.01
474.79	1691.62
474.99	1705.96
475.19	1732.58
475.39	1652.71
475.60	1761.25
475.80	1630.18
476.00	1779.68
476.20	1667.05
476.41	1734.63
476.61	1851.36
476.81	1789.92
477.01	1687.53
477.21	1791.97
477.42	1847.27
477.62	1705.96
477.82	1677.29
478.02	1800.16
478.23	1787.88
478.43	1712.10
478.63	1738.73
478.83	1712.10
479.03	1794.02
479.24	1773.54
479.44	1877.99
479.64	1720.29
479.84	1648.61
480.04	1689.57
480.25	1791.97
480.45	1691.62
480.65	1748.97
480.85	1824.74
481.06	1787.88
481.26	1701.86
481.46	1804.26
481.66	1724.39
481.86	1751.01
482.06	1736.68
482.27	1697.77
482.47	1644.52
482.67	1757.16
482.87	1693.67
483.07	1759.21
483.28	1593.32
483.48	1681.38
483.68	1710.05
483.88	1656.81
484.08	1607.66
484.29	1695.72
484.49	1685.48
484.69	1691.62
484.89	1751.01
485.09	1759.21
485.29	1718.25
485.50	1734.63
485.70	1705.96
485.90	1767.40
486.10	1757.16
486.30	1753.06
486.50	1763.30
486.71	1710.05
486.91	1818.60
487.11	1789.92
487.31	1609.70
487.51	1738.73
487.71	1755.11
487.91	1662.95
488.12	1714.15
488.32	1564.65
488.52	1689.57
488.72	1628.14
488.92	1683.43
489.12	1761.25
489.32	1753.06
489.53	1824.74
489.73	1665.00
489.93	1818.60
490.13	1726.44
490.33	1632.23
490.53	1693.67
490.73	1826.79
490.94	1611.75
491.14	1800.16
491.34	1875.94
491.54	2136.03
491.74	2570.20
491.94	2908.12
492.14	3033.04
492.34	3069.91
492.54	2756.57
492.75	2473.95
492.95	2351.07
493.15	2275.29
493.35	2324.44
493.55	2318.30
493.75	2154.46
493.95	2150.37
494.15	2025.44
494.35	1886.18
494.56	1812.45
494.76	1800.16
494.96	1818.60
495.16	1810.40
495.36	1728.49
495.56	1796.07
495.76	1753.06
495.96	1763.30
496.16	1673.19
496.36	1808.36
496.56	1691.62
496.77	1802.21
496.97	1710.05
497.17	1802.21
497.37	1675.24
497.57	1779.68
497.77	1736.68
497.97	1699.81
498.17	1710.05
498.37	1697.77
498.57	1763.30
498.77	1677.29
498.97	1734.63
499.17	1888.23
499.38	1767.40
499.58	1769.44
499.78	1757.16
499.98	1877.99
500.18	1769.44
500.38	1718.25
500.58	1929.19
500.78	2523.10
500.98	4659.13
501.18	5758.89
501.38	6836.12
501.58	7223.19
501.78	6784.92
501.98	5527.47
502.18	5105.59
502.38	4491.20
502.58	4153.28
502.78	3850.18
502.98	3688.39
503.18	3461.07
503.38	3164.11
503.59	2881.49
503.79	2756.57
503.99	2449.37
504.19	2398.17
504.39	2269.15
504.59	2236.38
504.79	2095.07
504.99	2060.26
505.19	1961.95
505.39	1943.52
505.59	1988.58
505.79	1970.15
505.99	1861.60
506.19	1751.01
506.39	1894.37
506.59	1798.12
506.79	1734.63
506.99	1871.84
507.19	1800.16
507.39	1773.54
507.59	1744.87
507.79	1683.43
507.99	1753.06
508.19	1734.63
508.39	1642.47
508.59	1703.91
508.79	1783.78
508.99	1843.17
509.19	1734.63
509.39	1834.98
509.59	1691.62
509.79	1716.20
509.99	1718.25
510.19	1802.21
510.39	1863.65
510.59	1705.96
510.79	1742.82
510.99	1751.01
511.19	1734.63
511.39	1839.08
511.59	1751.01
511.79	1816.55
511.99	1812.45
512.19	1822.69
512.38	1689.57
512.58	1726.44
512.78	1718.25
512.98	1742.82
513.18	1865.70
513.38	1685.48
513.58	1802.21
513.78	1714.15
513.98	1779.68
514.18	1734.63
514.38	1738.73
514.58	1732.58
514.78	1701.86
514.98	1660.90
515.18	1775.59
515.38	1683.43
515.58	1884.13
515.78	1712.10
515.98	1710.05
516.18	1742.82
516.38	1722.34
516.57	1687.53
516.77	1687.53
516.97	1746.92
517.17	1718.25
517.37	1689.57
517.57	1832.93
517.77	1742.82
517.97	1675.24
518.17	1783.78
518.37	1667.05
518.57	1718.25
518.77	1740.77
518.97	1693.67
519.16	1748.97
519.36	1779.68
519.56	1701.86
519.76	1732.58
519.96	1734.63
520.16	1826.79
520.36	1720.29
520.56	1796.07
520.76	1755.11
520.96	1658.85
521.16	1759.21
521.35	1812.45
521.55	1800.16
521.75	1742.82
521.95	1806.31
522.15	1761.25
522.35	1726.44
522.55	1679.33
522.75	1847.27
522.95	1763.30
523.14	1746.92
523.34	1728.49
523.54	1742.82
523.74	1736.68
523.94	1796.07
524.14	1652.71
524.34	1746.92
524.54	1755.11
524.73	1689.57
524.93	1732.58
525.13	1705.96
525.33	1738.73
525.53	1814.50
525.73	1773.54
525.93	1708.01
526.13	1714.15
526.32	1755.11
526.52	1703.91
526.72	1755.11
526.92	1732.58
527.12	1716.20
527.32	1634.28
527.52	1728.49
527.71	1818.60
527.91	1701.86
528.11	1710.05
528.31	1708.01
528.51	1732.58
528.71	1806.31
528.90	1734.63
529.10	1783.78
529.30	1832.93
529.50	1636.33
529.70	1644.52
529.90	1726.44
530.09	1697.77
530.29	1687.53
530.49	1710.05
530.69	1853.41
530.89	1734.63
531.09	1798.12
531.28	1697.77
531.48	1785.83
531.68	1710.05
531.88	1794.02
532.08	1789.92
532.28	1730.53
532.47	1773.54
532.67	1765.35
532.87	1740.77
533.07	1636.33
533.27	1716.20
533.46	1763.30
533.66	1798.12
533.86	1763.30
534.06	1724.39
534.26	1800.16
534.45	1601.51
534.65	1777.64
534.85	1751.01
535.05	1566.70
535.25	1779.68
535.44	1720.29
535.64	1789.92
535.84	1679.33
536.04	1810.40
536.24	1712.10
536.43	1728.49
536.63	1794.02
536.83	1773.54
537.03	1718.25
537.22	1710.05
537.42	1673.19
537.62	1710.05
537.82	1710.05
538.02	1767.40
538.21	1822.69
538.41	1877.99
538.61	1695.72
538.81	1730.53
539.00	1812.45
539.20	1685.48
539.40	1677.29
539.60	1777.64
539.79	1843.17
539.99	1794.02
540.19	1632.23
540.39	1734.63
540.58	1708.01
540.78	1771.49
540.98	1677.29
541.18	1781.73
541.37	1759.21
541.57	1779.68
541.77	1701.86
541.97	1720.29
542.16	1681.38
542.36	1726.44
542.56	1830.88
542.76	1847.27
542.95	1759.21
543.15	1738.73
543.35	1765.35
543.54	1718.25
543.74	1705.96
543.94	1787.88
544.14	1671.14
544.33	1771.49
544.53	1675.24
544.73	1701.86
544.93	1681.38
545.12	1755.11
545.32	1740.77
545.52	1734.63
545.71	1619.94
545.91	1703.91
546.11	1689.57
546.30	1611.75
546.50	1695.72
546.70	1804.26
546.90	1798.12
547.09	1675.24
547.29	1726.44
547.49	1820.64
547.68	1732.58
547.88	1730.53
548.08	1742.82
548.27	2224.09
548.47	1740.77
548.67	1718.25
548.87	1822.69
549.06	1767.40
549.26	1724.39
549.46	1785.83
549.65	1701.86
549.85	1861.60
550.05	1794.02
550.24	1714.15
550.44	1736.68
550.64	1798.12
550.83	1773.54
551.03	1845.22
551.23	1726.44
551.42	1781.73
551.62	1740.77
551.82	1759.21
552.01	1755.11
552.21	1787.88
552.41	1736.68
552.60	1804.26
552.80	1757.16
553.00	1624.04
553.19	1808.36
553.39	1847.27
553.59	1712.10
553.78	1810.40
553.98	1705.96
554.17	1673.19
554.37	1710.05
554.57	1781.73
554.76	1667.05
554.96	1687.53
555.16	1787.88
555.35	1812.45
555.55	1771.49
555.75	1724.39
555.94	1775.59
556.14	1630.18
556.33	1806.31
556.53	1738.73
556.73	1753.06
556.92	1728.49
557.12	1828.84
557.32	1775.59
557.51	1806.31
557.71	1783.78
557.90	1802.21
558.10	1822.69
558.30	1736.68
558.49	1693.67
558.69	1755.11
558.88	1714.15
559.08	1806.31
559.28	1771.49
559.47	1771.49
559.67	1814.50
559.86	1810.40
560.06	1781.73
560.26	1820.64
560.45	1748.97
560.65	1695.72
560.84	1761.25
561.04	1742.82
561.24	1767.40
561.43	1775.59
561.63	1851.36
561.82	1763.30
562.02	1763.30
562.22	1734.63
562.41	1693.67
562.61	1767.40
562.80	1621.99
563.00	1857.51
563.19	1806.31
563.39	1757.16
563.59	1753.06
563.78	1722.34
563.98	1703.91
564.17	1691.62
564.37	1671.14
564.56	1665.00
564.76	1669.09
564.96	1746.92
565.15	1765.35
565.35	1853.41
565.54	1787.88
565.74	1748.97
565.93	1726.44
566.13	1773.54
566.32	1826.79
566.52	1769.44
566.71	1753.06
566.91	1751.01
567.11	1804.26
567.30	1691.62
567.50	1771.49
567.69	1800.16
567.89	1751.01
568.08	1705.96
568.28	1861.60
568.47	1695.72
568.67	1777.64
568.86	1714.15
569.06	1796.07
569.25	1722.34
569.45	1685.48
569.64	1710.05
569.84	1734.63
570.04	1777.64
570.23	1679.33
570.43	1681.38
570.62	1761.25
570.82	1845.22
571.01	1640.42
571.21	1665.00
571.40	1687.53
571.60	1849.32
571.79	1757.16
571.99	1806.31
572.18	1697.77
572.38	1832.93
572.57	1732.58
572.77	1798.12
572.96	1894.37
573.16	1783.78
573.35	1767.40
573.55	1824.74
573.74	1779.68
573.94	1738.73
574.13	1724.39
574.33	1824.74
574.52	1812.45
574.71	1841.12
574.91	1730.53
575.10	1744.87
575.30	1763.30
575.49	1699.81
575.69	1785.83
575.88	1779.68
576.08	1615.85
576.27	1828.84
576.47	1701.86
576.66	1880.04
576.86	1841.12
577.05	1726.44
577.25	1738.73
577.44	1863.65
577.64	1716.20
577.83	1826.79
578.02	1800.16
578.22	1863.65
578.41	1812.45
578.61	1796.07
578.80	1716.20
579.00	1695.72
579.19	1675.24
579.39	1853.41
579.58	1763.30
579.77	1779.68
579.97	1857.51
580.16	1824.74
580.36	1814.50
580.55	1828.84
580.75	1787.88
580.94	1689.57
581.13	1843.17
581.33	1888.23
581.52	1775.59
581.72	1894.37
581.91	1746.92
582.11	1753.06
582.30	1783.78
582.49	1757.16
582.69	1810.40
582.88	1800.16
583.08	1767.40
583.27	1765.35
583.47	1714.15
583.66	1669.09
583.85	1691.62
584.05	1742.82
584.24	1843.17
584.44	1822.69
584.63	1804.26
584.82	1820.64
585.02	1824.74
585.21	1796.07
585.41	1853.41
585.60	1796.07
585.79	1908.71
585.99	1951.71
586.18	1959.91
586.37	2246.62
586.57	3356.62
586.76	9914.22
586.96	24434.32
587.15	34901.48
587.34	40570.26
587.54	42614.13
587.73	37053.90
587.93	26797.67
588.12	21642.93
588.31	18538.21
588.51	16592.64
588.70	15402.77
588.89	14331.69
589.09	12762.94
589.28	11175.77
589.47	9693.04
589.67	8034.18
589.86	6410.14
590.06	5113.78
590.25	3903.43
590.44	3119.06
590.64	2652.12
590.83	2242.53
591.02	2088.93
591.22	1920.99
591.41	1937.38
591.60	1877.99
591.80	1931.23
591.99	1804.26
592.18	1804.26
592.38	1824.74
592.57	1822.69
592.76	1791.97
592.96	1802.21
593.15	1695.72
593.34	1851.36
593.54	1656.81
593.73	1767.40
593.92	1857.51
594.12	1775.59
594.31	1771.49
594.50	1810.40
594.70	1759.21
594.89	1886.18
595.08	1679.33
595.28	1798.12
595.47	1964.00
595.66	1779.68
595.86	1732.58
596.05	1800.16
596.24	1738.73
596.43	1845.22
596.63	1810.40
596.82	1822.69
597.01	1777.64
597.21	1867.75
597.40	1802.21
597.59	1785.83
597.79	1734.63
597.98	1742.82
598.17	1769.44
598.36	1806.31
598.56	1775.59
598.75	1689.57
598.94	1734.63
599.14	1695.72
599.33	1624.04
599.52	1832.93
599.71	1769.44
599.91	1787.88
600.10	1775.59
600.29	1771.49
600.48	1746.92
600.68	1818.60
600.87	1695.72
601.06	1722.34
601.26	1722.34
601.45	1742.82
601.64	1777.64
601.83	1806.31
602.03	1718.25
602.22	1644.52
602.41	1791.97
602.60	1959.91
602.80	1863.65
602.99	1732.58
603.18	1710.05
603.37	1794.02
603.57	1714.15
603.76	1820.64
603.95	1855.46
604.14	1783.78
604.34	1789.92
604.53	1751.01
604.72	1748.97
604.91	1853.41
605.10	1847.27
605.30	1724.39
605.49	1851.36
605.68	1785.83
605.87	1804.26
606.07	1740.77
606.26	1675.24
606.45	1796.07
606.64	1738.73
606.84	1699.81
607.03	1677.29
607.22	1765.35
607.41	1722.34
607.60	1804.26
607.80	1804.26
607.99	1751.01
608.18	1796.07
608.37	1728.49
608.56	1673.19
608.76	1769.44
608.95	1877.99
609.14	1732.58
609.33	1740.77
609.52	1763.30
609.72	1765.35
609.91	1828.84
610.10	1732.58
610.29	1855.46
610.48	1806.31
610.68	1705.96
610.87	1765.35
611.06	1802.21
611.25	1775.59
611.44	1806.31
611.63	1677.29
611.83	1765.35
612.02	1669.09
612.21	1746.92
612.40	1683.43
612.59	1699.81
612.79	1710.05
612.98	1699.81
613.17	1855.46
613.36	1751.01
613.55	1822.69
613.74	1705.96
613.93	1710.05
614.13	1726.44
614.32	1669.09
614.51	1734.63
614.70	1814.50
614.89	1669.09
615.08	1783.78
615.28	2017.25
615.47	1714.15
615.66	1751.01
615.85	1708.01
616.04	1798.12
616.23	1738.73
616.42	1763.30
616.62	1736.68
616.81	1748.97
617.00	1654.76
617.19	1785.83
617.38	1665.00
617.57	1763.30
617.76	1843.17
617.95	1679.33
618.15	1746.92
618.34	1830.88
618.53	1642.47
618.72	1703.91
618.91	1853.41
619.10	1826.79
619.29	1791.97
619.48	1691.62
619.68	1683.43
619.87	1695.72
620.06	1642.47
620.25	1705.96
620.44	1712.10
620.63	1843.17
620.82	1671.14
621.01	1765.35
621.20	1763.30
621.39	1681.38
621.59	1763.30
621.78	1703.91
621.97	1736.68
622.16	1794.02
622.35	1773.54
622.54	1761.25
622.73	1759.21
622.92	1650.66
623.11	1753.06
623.30	1740.77
623.49	1781.73
623.68	1708.01
623.88	1916.90
624.07	1771.49
624.26	1699.81
624.45	1748.97
624.64	1720.29
624.83	1718.25
625.02	1662.95
625.21	1660.90
625.40	1804.26
625.59	1783.78
625.78	1703.91
625.97	1814.50
626.16	1753.06
626.35	1806.31
626.54	1738.73
626.74	1769.44
626.93	1652.71
627.12	1685.48
627.31	1712.10
627.50	1789.92
627.69	1777.64
627.88	1681.38
628.07	1751.01
628.26	1710.05
628.45	1650.66
628.64	1701.86
628.83	1675.24
629.02	1714.15
629.21	1808.36
629.40	1718.25
629.59	1736.68
629.78	1722.34
629.97	1783.78
630.16	1701.86
630.35	1701.86
630.54	1738.73
630.73	1697.77
630.92	1708.01
631.11	1710.05
631.30	1689.57
631.49	1828.84
631.68	1748.97
631.87	1751.01
632.06	1642.47
632.25	1789.92
632.44	1822.69
632.63	1660.90
632.82	1644.52
633.01	1640.42
633.20	1724.39
633.39	1662.95
633.58	1681.38
633.77	1732.58
633.96	1746.92
634.15	1781.73
634.34	1699.81
634.53	1728.49
634.72	1691.62
634.91	1626.09
635.10	1806.31
635.29	1757.16
635.48	1746.92
635.67	1665.00
635.86	1650.66
636.05	1845.22
636.24	1656.81
636.43	1708.01
636.62	1783.78
636.81	1613.80
637.00	1673.19
637.19	1779.68
637.38	1773.54
637.57	1710.05
637.76	1681.38
637.95	1771.49
638.14	1634.28
638.33	1714.15
638.52	1798.12
638.71	1640.42
638.89	1652.71
639.08	1847.27
639.27	1777.64
639.46	1646.57
639.65	1777.64
639.84	1746.92
640.03	1843.17
640.22	1699.81
640.41	1781.73
640.60	1712.10
640.79	1693.67
640.98	1712.10
641.17	1800.16
641.36	1710.05
641.55	1751.01
641.74	1728.49
641.92	1660.90
642.11	1697.77
642.30	1689.57
642.49	1708.01
642.68	1738.73
642.87	1798.12
643.06	1738.73
643.25	1591.27
643.44	1699.81
643.63	1742.82
643.82	1714.15
644.00	1701.86
644.19	1722.34
644.38	1624.04
644.57	1791.97
644.76	1751.01
644.95	1738.73
645.14	1703.91
645.33	1724.39
645.52	1681.38
645.71	1599.46
645.89	1570.79
646.08	1728.49
646.27	1648.61
646.46	1806.31
646.65	1626.09
646.84	1654.76
647.03	1646.57
647.22	1761.25
647.40	1765.35
647.59	1787.88
647.78	1673.19
647.97	1673.19
648.16	1734.63
648.35	1757.16
648.54	1832.93
648.73	1740.77
648.91	1724.39
649.10	1693.67
649.29	1724.39
649.48	1724.39
649.67	1701.86
649.86	1703.91
650.05	1658.85
650.23	1755.11
650.42	1611.75
650.61	1777.64
650.80	1759.21
650.99	1802.21
651.18	1748.97
651.36	1828.84
651.55	1683.43
651.74	1802.21
651.93	1669.09
652.12	1667.05
652.31	1730.53
652.49	1748.97
652.68	1710.05
652.87	1785.83
653.06	1734.63
653.25	1734.63
653.44	1816.55
653.62	1855.46
653.81	1773.54
654.00	1701.86
654.19	1767.40
654.38	1916.90
654.56	1763.30
654.75	1738.73
654.94	1751.01
655.13	1748.97
655.32	1691.62
655.51	1783.78
655.69	1791.97
655.88	1759.21
656.07	1650.66
656.26	1812.45
656.45	1665.00
656.63	1701.86
656.82	1796.07
657.01	1812.45
657.20	1720.29
657.38	1787.88
657.57	1734.63
657.76	1603.56
657.95	1732.58
658.14	1699.81
658.32	1759.21
658.51	1689.57
658.70	1734.63
658.89	1744.87
659.08	1730.53
659.26	1820.64
659.45	1708.01
659.64	1689.57
659.83	1693.67
660.01	1820.64
660.20	1701.86
660.39	1898.47
660.58	1605.61
660.76	1765.35
660.95	1628.14
661.14	1738.73
661.33	1673.19
661.51	1699.81
661.70	1681.38
661.89	1804.26
662.08	1746.92
662.26	1648.61
662.45	1708.01
662.64	1865.70
662.83	1742.82
663.01	1576.94
663.20	1736.68
663.39	1714.15
663.58	1767.40
663.76	1755.11
663.95	1708.01
664.14	1652.71
664.32	1652.71
664.51	1665.00
664.70	1636.33
664.89	1755.11
665.07	1648.61
665.26	1751.01
665.45	1607.66
665.64	1791.97
665.82	1779.68
666.01	1773.54
666.20	1617.90
666.38	1824.74
666.57	1808.36
666.76	2236.38
666.95	4564.92
667.13	10403.68
667.32	15372.05
667.51	18097.90
667.69	19211.99
667.88	17831.66
668.07	12767.04
668.25	9695.08
668.44	8118.15
668.63	7548.81
668.81	7014.29
669.00	6381.47
669.19	5765.03
669.38	5070.77
669.56	4661.18
669.75	3985.35
669.94	3540.94
670.12	2914.26
670.31	2539.48
670.50	2271.20
670.68	2148.32
670.87	1920.99
671.06	1816.55
671.24	1830.88
671.43	1777.64
671.62	1824.74
671.80	1693.67
671.99	1769.44
672.18	1695.72
672.36	1753.06
672.55	1718.25
672.74	1787.88
672.92	1712.10
673.11	1785.83
673.29	1681.38
673.48	1740.77
673.67	1724.39
673.85	1785.83
674.04	1705.96
674.23	1740.77
674.41	1755.11
674.60	1675.24
674.79	1636.33
674.97	1685.48
675.16	1677.29
675.34	1767.40
675.53	1677.29
675.72	1746.92
675.90	1808.36
676.09	1634.28
676.28	1748.97
676.46	1615.85
676.65	1716.20
676.83	1621.99
677.02	1710.05
677.21	1689.57
677.39	1730.53
677.58	1705.96
677.77	1722.34
677.95	1638.38
678.14	1675.24
678.32	1697.77
678.51	1691.62
678.70	1841.12
678.88	1718.25
679.07	1722.34
679.25	1744.87
679.44	1681.38
679.63	1660.90
679.81	1818.60
680.00	1824.74
680.18	1722.34
680.37	1773.54
680.55	1724.39
680.74	1667.05
680.93	1574.89
681.11	1703.91
681.30	1712.10
681.48	1748.97
681.67	1718.25
681.85	1748.97
682.04	1730.53
682.23	1775.59
682.41	1757.16
682.60	1701.86
682.78	1724.39
682.97	1701.86
683.15	1685.48
683.34	1742.82
683.53	1742.82
683.71	1611.75
683.90	1837.03
684.08	1767.40
684.27	1677.29
684.45	1769.44
684.64	1738.73
684.82	1695.72
685.01	1755.11
685.19	1744.87
685.38	1863.65
685.57	1796.07
685.75	1624.04
685.94	1720.29
686.12	1738.73
686.31	1718.25
686.49	1818.60
686.68	1630.18
686.86	1822.69
687.05	1654.76
687.23	1820.64
687.42	1624.04
687.60	1654.76
687.79	1708.01
687.97	1791.97
688.16	1886.18
688.34	1730.53
688.53	1617.90
688.71	1783.78
688.90	1777.64
689.08	1669.09
689.27	1652.71
689.45	1779.68
689.64	1648.61
689.82	1757.16
690.01	1701.86
690.19	1740.77
690.38	1675.24
690.56	1808.36
690.75	1648.61
690.93	1685.48
691.12	1665.00
691.30	1685.48
691.49	1689.57
691.67	1615.85
691.86	1834.98
692.04	1642.47
692.23	1673.19
692.41	1685.48
692.60	1783.78
692.78	1693.67
692.97	1716.20
693.15	1742.82
693.34	1789.92
693.52	1703.91
693.71	1714.15
693.89	1644.52
694.08	1640.42
694.26	1744.87
694.44	1763.30
694.63	1785.83
694.81	1595.37
695.00	1693.67
695.18	1740.77
695.37	1877.99
695.55	1787.88
695.74	1724.39
695.92	1697.77
696.10	1744.87
696.29	1673.19
696.47	1724.39
696.66	1560.55
696.84	1695.72
697.03	1724.39
697.21	1847.27
697.40	2334.68
697.58	1736.68
697.76	1742.82
697.95	1689.57
698.13	1705.96
698.32	1765.35
698.50	1712.10
698.68	1728.49
698.87	1740.77
699.05	1775.59
699.24	1677.29
699.42	1669.09
699.61	1718.25
699.79	1740.77
699.97	1738.73
700.16	1697.77
700.34	1650.66
700.53	1826.79
700.71	1748.97
700.89	1730.53
701.08	1705.96
701.26	1722.34
701.45	2064.35
701.63	1683.43
701.81	1751.01
702.00	1701.86
702.18	1728.49
702.37	1665.00
702.55	1757.16
702.73	1701.86
702.92	1617.90
703.10	1724.39
703.28	1730.53
703.47	1607.66
703.65	1767.40
703.84	1822.69
704.02	1636.33
704.20	1771.49
704.39	1703.91
704.57	1732.58
704.75	1806.31
704.94	1783.78
705.12	1751.01
705.30	1767.40
705.49	2258.91
705.67	4458.43
705.86	9459.57
706.04	12805.95
706.22	14712.61
706.41	15748.88
706.59	14008.11
706.77	9625.45
706.96	7214.99
707.14	6629.27
707.32	6059.94
707.51	5605.29
707.69	4927.41
707.87	4272.06
708.06	3569.61
708.24	2947.03
708.42	2457.56
708.61	2279.39
708.79	1869.80
708.97	1818.60
709.16	1843.17
709.34	1773.54
709.52	1732.58
709.71	1769.44
709.89	1785.83
710.07	1660.90
710.26	1658.85
710.44	1726.44
710.62	1736.68
710.80	1748.97
710.99	1869.80
711.17	1771.49
711.35	1646.57
711.54	1753.06
711.72	1841.12
711.90	1705.96
712.09	1662.95
712.27	1716.20
712.45	1785.83
712.63	1722.34
712.82	1705.96
713.00	1691.62
713.18	1763.30
713.37	1783.78
713.55	1746.92
713.73	1755.11
713.91	1697.77
714.10	1671.14
714.28	1740.77
714.46	1726.44
714.65	1716.20
714.83	1796.07
715.01	1652.71
715.19	1708.01
715.38	1669.09
715.56	1705.96
715.74	1611.75
715.92	1714.15
716.11	1845.22
716.29	1636.33
716.47	1681.38
716.65	1691.62
716.84	1642.47
717.02	1734.63
717.20	1644.52
717.38	1665.00
717.57	1787.88
717.75	1699.81
717.93	1675.24
718.11	1751.01
718.30	1632.23
718.48	1718.25
718.66	1865.70
718.84	1769.44
719.03	1728.49
719.21	1630.18
719.39	1705.96
719.57	1800.16
719.75	1751.01
719.94	1722.34
720.12	1685.48
720.30	1646.57
720.48	1732.58
720.67	1695.72
720.85	1708.01
721.03	1673.19
721.21	1683.43
721.39	1787.88
721.58	1736.68
721.76	1646.57
721.94	1708.01
722.12	1732.58
722.30	1808.36
722.49	1714.15
722.67	1675.24
722.85	1720.29
723.03	1636.33
723.21	1714.15
723.40	1781.73
723.58	1695.72
723.76	1695.72
723.94	1820.64
724.12	1726.44
724.30	1732.58
724.49	1779.68
724.67	1660.90
724.85	1767.40
725.03	1630.18
725.21	1789.92
725.40	1812.45
725.58	1589.22
725.76	1781.73
725.94	1724.39
726.12	1617.90
726.30	1726.44
726.49	1763.30
726.67	1693.67
726.85	1767.40
727.03	1822.69
727.21	2176.99
727.39	2983.89
727.57	3784.65
727.76	4290.49
727.94	4526.01
728.12	4431.80
728.30	3762.12
728.48	3028.95
728.66	2721.75
728.84	2502.62
729.03	2338.78
729.21	2193.37
729.39	1933.28
729.57	1800.16
729.75	1777.64
729.93	1818.60
730.11	1689.57
730.30	1708.01
730.48	1816.55
730.66	1748.97
730.84	1716.20
731.02	1746.92
731.20	1601.51
731.38	1751.01
731.56	1701.86
731.74	1751.01
731.93	1763.30
732.11	1730.53
732.29	1718.25
732.47	1746.92
732.65	1714.15
732.83	1753.06
733.01	1755.11
733.19	1675.24
733.37	1691.62
733.56	1714.15
733.74	1656.81
733.92	1773.54
734.10	1708.01
734.28	1722.34
734.46	1599.46
734.64	1755.11
734.82	1740.77
735.00	1675.24
735.18	1648.61
735.36	1732.58
735.54	1773.54
735.73	1751.01
735.91	1677.29
736.09	1732.58
736.27	1656.81
736.45	1767.40
736.63	1675.24
736.81	1730.53
736.99	1761.25
737.17	1837.03
737.35	1646.57
737.53	1695.72
737.71	1712.10
737.89	1796.07
738.07	1638.38
738.25	1593.32
738.43	1667.05
738.61	1683.43
738.80	1628.14
738.98	1617.90
739.16	1720.29
739.34	1615.85
739.52	1855.46
739.70	1634.28
739.88	1800.16
740.06	1693.67
740.24	1568.74
740.42	1789.92
740.60	1529.83
740.78	1605.61
740.96	1621.99
741.14	1628.14
741.32	1716.20
741.50	1673.19
741.68	1851.36
741.86	1847.27
742.04	1685.48
742.22	1671.14
742.40	1767.40
742.58	1724.39
742.76	1679.33
742.94	1775.59
743.12	1546.22
743.30	1681.38
743.48	1804.26
743.66	1701.86
743.84	1789.92
744.02	1673.19
744.20	1748.97
744.38	1665.00
744.56	1626.09
744.74	1763.30
744.92	1775.59
745.10	1744.87
745.28	1716.20
745.46	1837.03
745.64	1658.85
745.82	1734.63
746.00	1771.49
746.18	1761.25
746.36	1636.33
746.54	1734.63
746.72	1689.57
746.90	1605.61
747.08	1744.87
747.26	1660.90
747.44	1796.07
747.62	1701.86
747.80	1724.39
747.98	1761.25
748.15	1662.95
748.33	1746.92
748.51	1708.01
748.69	1746.92
748.87	1634.28
749.05	1699.81
749.23	1740.77
749.41	1703.91
749.59	1677.29
749.77	1804.26
749.95	1597.42
750.13	1730.53
750.31	1779.68
750.49	1669.09
750.67	1787.88
750.85	1845.22
751.03	1671.14
751.20	1841.12
751.38	1679.33
751.56	1669.09
751.74	1685.48
751.92	1669.09
752.10	1658.85
752.28	1783.78
752.46	1705.96
752.64	1683.43
752.82	1665.00
753.00	1810.40
753.18	1677.29
753.35	1691.62
753.53	1642.47
753.71	1669.09
753.89	1724.39
754.07	1699.81
754.25	1757.16
754.43	1722.34
754.61	1644.52
754.79	1769.44
754.97	1667.05
755.14	1822.69
755.32	1681.38
755.50	1681.38
755.68	1728.49
755.86	1630.18
756.04	1669.09
756.22	1667.05
756.40	1802.21
756.57	1875.94
756.75	1740.77
756.93	1882.08
757.11	1730.53
757.29	1669.09
757.47	1691.62
757.65	1574.89
757.82	1613.80
758.00	1718.25
758.18	1656.81
758.36	1683.43
758.54	1771.49
758.72	1640.42
758.90	1755.11
759.07	1767.40
759.25	1669.09
759.43	1746.92
759.61	1624.04
759.79	2283.49
759.97	1753.06
760.15	1671.14
760.32	1621.99
760.50	1710.05
760.68	1822.69
760.86	1669.09
761.04	1763.30
761.22	1757.16
761.39	1751.01
761.57	1791.97
761.75	1718.25
761.93	1705.96
762.11	1675.24
762.28	1673.19
762.46	1724.39
762.64	1701.86
762.82	1607.66
763.00	1787.88
763.18	1798.12
763.35	1665.00
763.53	1744.87
763.71	1689.57
763.89	1720.29
764.07	1755.11
764.24	1759.21
764.42	1730.53
764.60	1759.21
764.78	1738.73
764.96	1798.12
765.13	1716.20
765.31	1683.43
765.49	1697.77
765.67	1646.57
765.84	1617.90
766.02	1718.25
766.20	1634.28
766.38	1759.21
766.56	1683.43
766.73	1771.49
766.91	1710.05
767.09	1765.35
767.27	1783.78
767.44	1636.33
767.62	1787.88
767.80	1654.76
767.98	1675.24
768.15	1691.62
768.33	1720.29
768.51	1761.25
768.69	1705.96
768.87	1783.78
769.04	1740.77
769.22	1882.08
769.40	1767.40
769.58	1812.45
769.75	1675.24
769.93	1742.82
770.11	1748.97
770.28	1716.20
770.46	1732.58
770.64	1705.96
770.82	1730.53
770.99	1697.77
771.17	1740.77
771.35	1642.47
771.53	1710.05
771.70	1765.35
771.88	1751.01
772.06	1630.18
772.23	1691.62
772.41	1775.59
772.59	1689.57
772.77	1667.05
772.94	1751.01
773.12	1693.67
773.30	1650.66
773.47	1730.53
773.65	1685.48
773.83	1800.16
774.01	1748.97
774.18	1621.99
774.36	1740.77
774.54	1685.48
774.71	1669.09
774.89	1632.23
775.07	1603.56
775.24	1640.42
775.42	1658.85
775.60	1759.21
775.78	1712.10
775.95	1611.75
776.13	1636.33
776.31	1660.90
776.48	1746.92
776.66	1769.44
776.84	1665.00
777.01	1738.73
777.19	1736.68
777.37	1685.48
777.54	1718.25
777.72	1839.08
777.90	1751.01
778.07	1681.38
778.25	1910.75
778.43	1699.81
778.60	1603.56
778.78	1679.33
778.96	1820.64
779.13	1667.05
779.31	1738.73
779.49	1644.52
779.66	1714.15
779.84	1732.58
780.01	1693.67
780.19	1642.47
780.37	1777.64
780.54	1720.29
780.72	1646.57
780.90	1665.00
781.07	1732.58
781.25	1665.00
781.43	1751.01
781.60	1726.44
781.78	1781.73
781.95	1703.91
782.13	1708.01
782.31	1667.05
782.48	1720.29
782.66	1724.39
782.83	1808.36
783.01	1673.19
783.19	1740.77
783.36	1583.08
783.54	1654.76
783.72	1748.97
783.89	1607.66
784.07	1751.01
784.24	1765.35
784.42	1818.60
784.60	1675.24
784.77	1763.30
784.95	1621.99
785.12	1728.49
785.30	1779.68
785.47	1675.24
785.65	1720.29
785.83	1630.18
786.00	1728.49
786.18	1755.11
786.35	1650.66
786.53	1697.77
786.71	1802.21
786.88	1660.90
787.06	1740.77
787.23	1658.85
787.41	1673.19
787.58	1722.34
787.76	1648.61
787.94	1671.14
788.11	1708.01
788.29	1644.52
788.46	1626.09
788.64	1650.66
788.81	1681.38
788.99	1646.57
789.16	1574.89
789.34	1722.34
789.52	1703.91
789.69	1636.33
789.87	1630.18
790.04	1701.86
790.22	1773.54
790.39	1824.74
790.57	1630.18
790.74	1759.21
790.92	1771.49
791.09	1658.85
791.27	1728.49
791.44	1839.08
791.62	1656.81
791.79	1693.67
791.97	1697.77
792.15	1869.80
792.32	1710.05
792.50	1724.39
792.67	1802.21
792.85	1834.98
793.02	1693.67
793.20	1728.49
793.37	1673.19
793.55	1765.35
793.72	1619.94
793.90	1753.06
794.07	1589.22
794.25	1726.44
794.42	1705.96
794.60	1738.73
794.77	1720.29
794.95	1746.92
795.12	1781.73
795.30	1726.44
795.47	1634.28
795.65	1904.61
795.82	1781.73
796.00	1687.53
796.17	1667.05
796.34	1650.66
796.52	1710.05
796.69	1763.30
796.87	1757.16
797.04	1669.09
797.22	1755.11
797.39	1679.33
797.57	1814.50
797.74	1681.38
797.92	1755.11
798.09	1673.19
798.27	1697.77
798.44	1751.01
798.62	1722.34
798.79	1732.58
798.96	1732.58
799.14	1681.38
799.31	1880.04
799.49	1724.39
799.66	1648.61
799.84	1695.72
800.01	1630.18
800.19	1753.06
800.36	1628.14
800.53	1746.92
800.71	1675.24
800.88	1814.50
801.06	1699.81
801.23	1705.96
801.41	1691.62
801.58	1677.29
801.75	1697.77
801.93	1705.96
802.10	1720.29
802.28	1697.77
802.45	1681.38
802.63	1791.97
802.80	1796.07
802.97	1761.25
803.15	1746.92
803.32	1646.57
803.50	1734.63
803.67	1624.04
803.84	1656.81
804.02	1761.25
804.19	1660.90
804.37	1578.98
804.54	1656.81
804.71	1642.47
804.89	1665.00
805.06	1587.18
805.24	1593.32
805.41	1679.33
805.58	1738.73
805.76	1875.94
805.93	1716.20
806.10	1767.40
806.28	1808.36
806.45	1679.33
806.63	1714.15
806.80	1720.29
806.97	1636.33
807.15	1771.49
807.32	1693.67
807.49	1718.25
807.67	1628.14
807.84	1765.35
808.01	1613.80
808.19	1773.54
808.36	1828.84
808.54	1667.05
808.71	1691.62
808.88	1746.92
809.06	1701.86
809.23	1773.54
809.40	1734.63
809.58	1734.63
809.75	1718.25
809.92	1642.47
810.10	1871.84
810.27	1665.00
810.44	1763.30
810.62	1810.40
810.79	1728.49
810.96	1714.15
811.14	1693.67
811.31	1679.33
811.48	1742.82
811.66	1736.68
811.83	1796.07
812.00	1722.34
812.18	1775.59
812.35	1820.64
812.52	1744.87
812.69	1640.42
812.87	1738.73
813.04	1675.24
813.21	1673.19
813.39	1679.33
813.56	1644.52
813.73	1839.08
813.91	1650.66
814.08	1794.02
814.25	1662.95
814.42	1626.09
814.60	1691.62
814.77	1751.01
814.94	1763.30
815.12	1660.90
815.29	1791.97
815.46	1734.63
815.63	1753.06
815.81	1683.43
815.98	1591.27
816.15	1685.48
816.33	1806.31
816.50	1626.09
816.67	1677.29
816.84	1802.21
817.02	1677.29
817.19	1675.24
817.36	1714.15
817.53	1716.20
817.71	1538.02
817.88	1710.05
818.05	1677.29
818.22	1718.25
818.40	1783.78
818.57	1693.67
818.74	1746.92
818.91	1683.43
819.09	1759.21
819.26	1751.01
819.43	1732.58
819.60	1656.81
819.78	1794.02
819.95	1763.30
820.12	1675.24
820.29	1767.40
820.47	1744.87
820.64	1681.38
820.81	1630.18
820.98	1755.11
821.15	1644.52
821.33	1789.92
821.50	1673.19
821.67	1773.54
821.84	1685.48
822.02	1775.59
822.19	1757.16
822.36	1671.14
822.53	1673.19
822.70	1667.05
822.88	1708.01
823.05	1763.30
823.22	1763.30
823.39	1726.44
823.56	1685.48
823.74	1773.54
823.91	1648.61
824.08	1673.19
824.25	1607.66
824.42	1814.50
824.60	1630.18
824.77	1636.33
824.94	1568.74
825.11	1701.86
825.28	1636.33
825.45	1730.53
825.63	1708.01
825.80	1642.47
825.97	1791.97
826.14	1712.10
826.31	1603.56
826.48	1732.58
826.66	1689.57
826.83	1667.05
827.00	1755.11
827.17	1669.09
827.34	1732.58
827.51	1730.53
827.69	1712.10
827.86	1652.71
828.03	1697.77
828.20	1681.38
828.37	1689.57
828.54	1679.33
828.71	1722.34
828.89	1800.16
829.06	1728.49
829.23	1834.98
829.40	1677.29
829.57	1660.90
829.74	1679.33
829.91	1640.42
830.09	1550.31
830.26	1734.63
830.43	1755.11
830.60	1720.29
830.77	1671.14
830.94	1773.54
831.11	1726.44
831.28	1714.15
831.46	1759.21
831.63	1689.57
831.80	1791.97
831.97	1695.72
832.14	1634.28
832.31	1781.73
832.48	1701.86
832.65	1787.88
832.82	1712.10
832.99	1732.58
833.17	1644.52
833.34	1744.87
833.51	1699.81
833.68	1535.98
833.85	1753.06
834.02	1665.00
834.19	1607.66
834.36	1708.01
834.53	1687.53
834.70	1767.40
834.87	1728.49
835.04	1665.00
835.22	1652.71
835.39	1689.57
835.56	1654.76
835.73	1712.10
835.90	1718.25
836.07	1687.53
836.24	1753.06
836.41	1624.04
836.58	1642.47
836.75	1808.36
836.92	1714.15
837.09	1716.20
837.26	1736.68
837.43	1687.53
837.60	1787.88
837.77	1658.85
837.94	1761.25
838.12	1791.97
838.29	1705.96
838.46	1648.61
838.63	1705.96
838.80	1814.50
838.97	1724.39
839.14	1740.77
839.31	1755.11
839.48	1839.08
839.65	1665.00
839.82	1740.77
839.99	1742.82
840.16	1718.25
840.33	1660.90
840.50	1703.91
840.67	1648.61
840.84	1671.14
841.01	1826.79
841.18	1714.15
841.35	1708.01
841.52	1779.68
841.69	1804.26
841.86	1769.44
842.03	1638.38
842.20	1712.10
842.37	1820.64
842.54	1732.58
842.71	1738.73
842.88	1708.01
843.05	1683.43
843.22	1677.29
843.39	1675.24
843.56	1619.94
843.73	1740.77
843.90	1710.05
844.07	1802.21
844.24	1757.16
844.41	1724.39
844.58	1728.49
844.75	1669.09
844.92	1693.67
845.09	1634.28
845.26	1669.09
845.43	1683.43
845.60	1699.81
845.77	1769.44
845.94	1687.53
846.10	1724.39
846.27	1619.94
846.44	1691.62
846.61	1581.03
846.78	1722.34
846.95	1757.16
847.12	1677.29
847.29	1691.62
847.46	1687.53
847.63	1800.16
847.80	1660.90
847.97	1673.19
848.14	1806.31
848.31	1742.82
848.48	1638.38
848.65	1660.90
848.82	1611.75
848.98	1800.16
849.15	1724.39
849.32	1730.53
849.49	1718.25
849.66	1730.53
849.83	1681.38
850.00	1648.61
850.17	1650.66
850.34	1681.38
850.51	1658.85
850.68	1652.71
850.85	1880.04
851.01	1757.16
851.18	1751.01
851.35	1740.77
851.52	1716.20
851.69	1695.72
851.86	1599.46
852.03	1648.61
852.20	1802.21
852.37	1681.38
852.53	1611.75
852.70	1714.15
852.87	1734.63
853.04	1734.63
853.21	1708.01
853.38	1796.07
853.55	1777.64
853.72	1796.07
853.89	1685.48
854.05	1644.52
854.22	1742.82
854.39	1634.28
854.56	1677.29
854.73	1761.25
854.90	1677.29
855.07	1779.68
855.23	1644.52
855.40	1755.11
855.57	1708.01
855.74	1628.14
855.91	1888.23
856.08	1726.44
856.25	1720.29
856.41	1691.62
856.58	1708.01
856.75	1634.28
856.92	1617.90
857.09	1755.11
857.26	1642.47
857.42	1677.29
857.59	1714.15
857.76	1746.92
857.93	1693.67
858.10	1714.15
858.27	1667.05
858.43	1722.34
858.60	1669.09
858.77	1683.43
858.94	1697.77
859.11	1800.16
859.27	1734.63
859.44	1697.77
859.61	1837.03
859.78	1703.91
859.95	1662.95
860.12	1708.01
860.28	1759.21
860.45	1834.98
860.62	1648.61
860.79	1740.77
860.95	1617.90
861.12	1689.57
861.29	1646.57
861.46	1660.90
861.63	1656.81
861.79	1675.24
861.96	1671.14
862.13	1595.37
862.30	1804.26
862.47	1748.97
862.63	1658.85
862.80	1775.59
862.97	1730.53
863.14	1748.97
863.30	1808.36
863.47	1675.24
863.64	1830.88
863.81	1679.33
863.97	1632.23
864.14	1730.53
864.31	1677.29
864.48	1746.92
864.65	1744.87
864.81	1824.74
864.98	1742.82
865.15	1724.39
865.32	1802.21
865.48	1804.26
865.65	1832.93
865.82	1703.91
865.98	1679.33
866.15	1800.16
866.32	1716.20
866.49	1703.91
866.65	1701.86
866.82	1562.60
866.99	1640.42
867.16	1757.16
867.32	1650.66
867.49	1705.96
867.66	1689.57
867.83	1787.88
867.99	1665.00
868.16	1710.05
868.33	1642.47
868.49	1777.64
868.66	1673.19
868.83	1720.29
868.99	1662.95
869.16	1755.11
869.33	1703.91
869.50	1738.73
869.66	1736.68
869.83	1722.34
870.00	1605.61
870.16	1767.40
870.33	1724.39
870.50	1789.92
870.66	1705.96
870.83	1798.12
871.00	1689.57
871.17	1689.57
871.33	1736.68
871.50	1673.19
871.67	1708.01
871.83	1609.70
872.00	1757.16
872.17	1699.81
872.33	1794.02
872.50	1794.02
872.67	1685.48
872.83	1654.76
873.00	1714.15
873.17	1703.91
873.33	1787.88
873.50	1689.57
873.67	1658.85
873.83	1718.25
874.00	1716.20
874.16	1732.58
874.33	1724.39
874.50	1597.42
874.66	1761.25
874.83	1646.57
875.00	1710.05
875.16	1820.64
875.33	1701.86
875.50	1603.56
875.66	1703.91
875.83	1708.01
875.99	1687.53
876.16	1712.10
876.33	1712.10
876.49	1748.97
876.66	1722.34
876.83	1699.81
876.99	1656.81
877.16	1716.20
877.32	1671.14
877.49	1691.62
877.66	1791.97
877.82	1746.92
877.99	1660.90
878.15	1775.59
878.32	1636.33
878.49	1714.15
878.65	1710.05
878.82	1740.77
878.98	1646.57
879.15	1718.25
879.32	1800.16
879.48	1691.62
879.65	1744.87
879.81	1638.38
879.98	1636.33
880.15	1675.24
880.31	1726.44
880.48	1677.29
880.64	1714.15
880.81	1730.53
880.97	1847.27
881.14	1828.84
881.31	1681.38
881.47	1857.51
881.64	1714.15
881.80	1667.05
881.97	1708.01
882.13	1841.12
882.30	1728.49
882.47	1681.38
882.63	1665.00
882.80	1660.90
882.96	1753.06
883.13	1765.35
883.29	1714.15
883.46	1736.68
883.62	1828.84
883.79	1728.49
883.95	1691.62
884.12	1740.77
884.29	1732.58
884.45	1744.87
884.62	1757.16
884.78	1691.62
884.95	1783.78
885.11	1634.28
885.28	1734.63
885.44	1658.85
885.61	1703.91
885.77	1746.92
885.94	1705.96
886.10	1755.11
886.27	1710.05
886.43	1734.63
886.60	1785.83
886.76	1701.86
886.93	1662.95
887.09	1701.86
887.26	1644.52
887.42	1699.81
887.59	1751.01
887.75	1751.01
887.92	1818.60
888.08	1732.58
888.25	1765.35
888.41	1779.68
888.58	1673.19
888.74	1685.48
888.91	1683.43
>>>>>End Processed Spectral Data<<<<<
