SpectraSuite Data File
++++++++++++++++++++++++++++++++++++
Date: Mon Jun 06 12:36:37 CEST 2016
User: root
Dark Spectrum Present: No
Reference Spectrum Present: No
Number of Sampled Component Spectra: 1
Spectrometers: USB4C02835
Integration Time (usec): 100000 (USB4C02835)
Spectra Averaged: 1 (USB4C02835)
Boxcar Smoothing: 0 (USB4C02835)
Correct for Electrical Dark: No (USB4C02835)
Strobe/Lamp Enabled: No (USB4C02835)
Correct for Detector Non-linearity: No (USB4C02835)
Correct for Stray Light: No (USB4C02835)
Number of Pixels in Processed Spectrum: 3648
>>>>>Begin Processed Spectral Data<<<<<
177.47	1409.00
177.69	1409.00
177.91	1409.00
178.13	1406.95
178.36	1429.48
178.58	1654.76
178.80	1742.82
179.02	1595.37
179.24	1611.75
179.46	1720.29
179.68	1695.72
179.90	1617.90
180.13	1693.67
180.35	1628.14
180.57	1673.19
180.79	1624.04
181.01	1718.25
181.23	1763.30
181.45	1718.25
181.67	1740.77
181.90	1710.05
182.12	1648.61
182.34	1619.94
182.56	1730.53
182.78	1753.06
183.00	1660.90
183.22	1687.53
183.44	1658.85
183.66	1884.13
183.89	1734.63
184.11	1724.39
184.33	1769.44
184.55	1849.32
184.77	1718.25
184.99	1767.40
185.21	1660.90
185.43	1857.51
185.65	1624.04
185.87	1658.85
186.10	1855.46
186.32	1798.12
186.54	1697.77
186.76	1701.86
186.98	1767.40
187.20	1681.38
187.42	1628.14
187.64	1679.33
187.86	1738.73
188.08	1728.49
188.30	1734.63
188.52	1687.53
188.75	1730.53
188.97	1767.40
189.19	1708.01
189.41	1746.92
189.63	1781.73
189.85	1697.77
190.07	1687.53
190.29	1736.68
190.51	1728.49
190.73	1621.99
190.95	1755.11
191.17	1665.00
191.39	1648.61
191.61	1683.43
191.84	1685.48
192.06	1738.73
192.28	1585.13
192.50	1904.61
192.72	1683.43
192.94	1705.96
193.16	1687.53
193.38	1738.73
193.60	1677.29
193.82	1646.57
194.04	1736.68
194.26	1695.72
194.48	1736.68
194.70	1603.56
194.92	1662.95
195.14	1714.15
195.36	1626.09
195.58	1753.06
195.80	1669.09
196.02	1634.28
196.24	1740.77
196.46	1755.11
196.69	1638.38
196.91	1851.36
197.13	1701.86
197.35	1675.24
197.57	1837.03
197.79	1724.39
198.01	1669.09
198.23	1703.91
198.45	1757.16
198.67	1669.09
198.89	1703.91
199.11	1748.97
199.33	1675.24
199.55	1613.80
199.77	1648.61
199.99	1822.69
200.21	1677.29
200.43	1775.59
200.65	1601.51
200.87	1601.51
201.09	1767.40
201.31	1654.76
201.53	1705.96
201.75	1681.38
201.97	1693.67
202.19	1660.90
202.41	1763.30
202.63	1818.60
202.85	1748.97
203.07	1683.43
203.29	1714.15
203.51	1667.05
203.73	1662.95
203.95	1920.99
204.17	1665.00
204.39	1757.16
204.61	1710.05
204.83	1716.20
205.05	1736.68
205.27	1798.12
205.49	1771.49
205.71	1587.18
205.93	1595.37
206.15	1693.67
206.37	1662.95
206.59	1708.01
206.81	1650.66
207.03	1621.99
207.25	1619.94
207.47	1689.57
207.69	1679.33
207.91	1773.54
208.13	1832.93
208.34	1693.67
208.56	1753.06
208.78	1748.97
209.00	1595.37
209.22	1718.25
209.44	1660.90
209.66	1697.77
209.88	1642.47
210.10	1683.43
210.32	1636.33
210.54	1763.30
210.76	1693.67
210.98	1787.88
211.20	1535.98
211.42	1710.05
211.64	1765.35
211.86	1736.68
212.08	1728.49
212.30	1714.15
212.52	1654.76
212.74	1708.01
212.96	1724.39
213.17	1769.44
213.39	1710.05
213.61	1748.97
213.83	1640.42
214.05	1609.70
214.27	1857.51
214.49	1626.09
214.71	1630.18
214.93	1771.49
215.15	1708.01
215.37	1773.54
215.59	1492.97
215.81	1724.39
216.03	1771.49
216.24	1816.55
216.46	1648.61
216.68	1775.59
216.90	1787.88
217.12	1728.49
217.34	1667.05
217.56	1712.10
217.78	1806.31
218.00	1779.68
218.22	1705.96
218.44	1765.35
218.66	1685.48
218.87	1787.88
219.09	1675.24
219.31	1681.38
219.53	1662.95
219.75	1712.10
219.97	1687.53
220.19	1710.05
220.41	1697.77
220.63	1679.33
220.85	1730.53
221.06	1691.62
221.28	1742.82
221.50	1765.35
221.72	1732.58
221.94	1722.34
222.16	1699.81
222.38	1794.02
222.60	1751.01
222.82	1656.81
223.03	1753.06
223.25	1558.50
223.47	1728.49
223.69	1789.92
223.91	1722.34
224.13	1656.81
224.35	1642.47
224.57	1816.55
224.78	1667.05
225.00	1671.14
225.22	1714.15
225.44	1734.63
225.66	1732.58
225.88	1710.05
226.10	1757.16
226.32	1757.16
226.53	1728.49
226.75	1626.09
226.97	1691.62
227.19	1714.15
227.41	1611.75
227.63	1642.47
227.85	1654.76
228.06	1648.61
228.28	1673.19
228.50	1816.55
228.72	1636.33
228.94	1691.62
229.16	1710.05
229.37	1609.70
229.59	1689.57
229.81	1705.96
230.03	1689.57
230.25	1562.60
230.47	1652.71
230.69	1705.96
230.90	1730.53
231.12	1669.09
231.34	1673.19
231.56	1759.21
231.78	1640.42
232.00	1781.73
232.21	1691.62
232.43	1689.57
232.65	1574.89
232.87	1738.73
233.09	1658.85
233.30	1681.38
233.52	1755.11
233.74	1730.53
233.96	1626.09
234.18	1726.44
234.40	1705.96
234.61	1796.07
234.83	1652.71
235.05	1611.75
235.27	1810.40
235.49	1771.49
235.70	1648.61
235.92	1751.01
236.14	1796.07
236.36	1812.45
236.58	1697.77
236.79	1740.77
237.01	1701.86
237.23	1699.81
237.45	1761.25
237.67	1701.86
237.88	1658.85
238.10	1763.30
238.32	1634.28
238.54	1722.34
238.76	1677.29
238.97	1679.33
239.19	1621.99
239.41	1763.30
239.63	1798.12
239.85	1652.71
240.06	1710.05
240.28	1742.82
240.50	1693.67
240.72	1685.48
240.93	1697.77
241.15	1861.60
241.37	1697.77
241.59	1708.01
241.81	1667.05
242.02	1630.18
242.24	1693.67
242.46	1677.29
242.68	1675.24
242.89	1748.97
243.11	1720.29
243.33	1648.61
243.55	1695.72
243.76	1740.77
243.98	1671.14
244.20	1689.57
244.42	1691.62
244.64	1697.77
244.85	1665.00
245.07	1648.61
245.29	1703.91
245.51	1607.66
245.72	1658.85
245.94	1712.10
246.16	1705.96
246.38	1734.63
246.59	1640.42
246.81	1652.71
247.03	1681.38
247.24	1619.94
247.46	1638.38
247.68	1691.62
247.90	1685.48
248.11	1673.19
248.33	1701.86
248.55	1687.53
248.77	1751.01
248.98	1654.76
249.20	1746.92
249.42	1613.80
249.64	1738.73
249.85	1724.39
250.07	1673.19
250.29	1812.45
250.50	1773.54
250.72	1566.70
250.94	1677.29
251.16	1837.03
251.37	1777.64
251.59	1857.51
251.81	1701.86
252.02	1818.60
252.24	1677.29
252.46	1759.21
252.68	1677.29
252.89	1699.81
253.11	1632.23
253.33	1808.36
253.54	1730.53
253.76	1574.89
253.98	1677.29
254.20	1701.86
254.41	1578.98
254.63	1638.38
254.85	1566.70
255.06	1712.10
255.28	1685.48
255.50	1728.49
255.71	1644.52
255.93	1677.29
256.15	1673.19
256.36	1761.25
256.58	1681.38
256.80	1718.25
257.02	1705.96
257.23	1691.62
257.45	1705.96
257.67	1757.16
257.88	1677.29
258.10	1742.82
258.32	1722.34
258.53	1781.73
258.75	1757.16
258.97	1646.57
259.18	1722.34
259.40	1734.63
259.62	1892.32
259.83	1785.83
260.05	1681.38
260.27	1869.80
260.48	1798.12
260.70	1671.14
260.92	1652.71
261.13	1796.07
261.35	1732.58
261.57	1767.40
261.78	1529.83
262.00	1656.81
262.22	1820.64
262.43	1724.39
262.65	1705.96
262.86	1708.01
263.08	1853.41
263.30	1710.05
263.51	1593.32
263.73	1687.53
263.95	1761.25
264.16	1665.00
264.38	1665.00
264.60	1751.01
264.81	1624.04
265.03	1740.77
265.25	1757.16
265.46	1656.81
265.68	1761.25
265.89	1665.00
266.11	1677.29
266.33	1742.82
266.54	1763.30
266.76	1751.01
266.98	1632.23
267.19	1755.11
267.41	1757.16
267.62	1710.05
267.84	1585.13
268.06	1775.59
268.27	1677.29
268.49	1712.10
268.70	1656.81
268.92	1701.86
269.14	1648.61
269.35	1693.67
269.57	1691.62
269.79	1683.43
270.00	1701.86
270.22	1746.92
270.43	1675.24
270.65	1624.04
270.87	1726.44
271.08	1781.73
271.30	1753.06
271.51	1675.24
271.73	1779.68
271.95	1798.12
272.16	1699.81
272.38	1687.53
272.59	1660.90
272.81	1732.58
273.02	1748.97
273.24	1775.59
273.46	1828.84
273.67	1656.81
273.89	1695.72
274.10	1697.77
274.32	1798.12
274.54	1697.77
274.75	1753.06
274.97	1687.53
275.18	1677.29
275.40	1705.96
275.61	1665.00
275.83	1730.53
276.05	1648.61
276.26	1675.24
276.48	1742.82
276.69	1701.86
276.91	1640.42
277.12	1820.64
277.34	1742.82
277.55	1730.53
277.77	1695.72
277.99	1681.38
278.20	1583.08
278.42	1689.57
278.63	1581.03
278.85	1671.14
279.06	1638.38
279.28	1650.66
279.49	1773.54
279.71	1646.57
279.93	1675.24
280.14	1718.25
280.36	1660.90
280.57	1773.54
280.79	1791.97
281.00	1642.47
281.22	1679.33
281.43	1806.31
281.65	1609.70
281.86	1677.29
282.08	1695.72
282.29	1789.92
282.51	1533.93
282.73	1687.53
282.94	1564.65
283.16	1781.73
283.37	1800.16
283.59	1681.38
283.80	1746.92
284.02	1652.71
284.23	1732.58
284.45	1761.25
284.66	1607.66
284.88	1646.57
285.09	1722.34
285.31	1736.68
285.52	1699.81
285.74	1603.56
285.95	1785.83
286.17	1691.62
286.38	1710.05
286.60	1701.86
286.81	1708.01
287.03	1576.94
287.24	1660.90
287.46	1732.58
287.67	1644.52
287.89	1812.45
288.10	1722.34
288.32	1636.33
288.53	1716.20
288.75	1759.21
288.96	1740.77
289.18	1660.90
289.39	1716.20
289.61	1787.88
289.82	1777.64
290.04	1781.73
290.25	1675.24
290.47	1720.29
290.68	1650.66
290.90	1763.30
291.11	1605.61
291.33	1714.15
291.54	1673.19
291.76	1636.33
291.97	1724.39
292.18	1687.53
292.40	1701.86
292.61	1710.05
292.83	1808.36
293.04	1646.57
293.26	1767.40
293.47	1689.57
293.69	1638.38
293.90	1695.72
294.12	1808.36
294.33	1683.43
294.55	1769.44
294.76	1832.93
294.97	1804.26
295.19	1851.36
295.40	1624.04
295.62	1705.96
295.83	1755.11
296.05	1589.22
296.26	1740.77
296.48	1644.52
296.69	1775.59
296.90	1771.49
297.12	1701.86
297.33	1714.15
297.55	1642.47
297.76	1742.82
297.98	1779.68
298.19	1607.66
298.41	1710.05
298.62	1636.33
298.83	1791.97
299.05	1650.66
299.26	1712.10
299.48	1708.01
299.69	1701.86
299.90	1671.14
300.12	1665.00
300.33	1744.87
300.55	1734.63
300.76	1718.25
300.98	1611.75
301.19	1779.68
301.40	1658.85
301.62	1724.39
301.83	1777.64
302.05	1751.01
302.26	1722.34
302.47	1738.73
302.69	1632.23
302.90	1744.87
303.12	1617.90
303.33	1628.14
303.54	1791.97
303.76	1646.57
303.97	1798.12
304.19	1753.06
304.40	1665.00
304.61	1808.36
304.83	1812.45
305.04	1734.63
305.26	1683.43
305.47	1671.14
305.68	1673.19
305.90	1693.67
306.11	1765.35
306.33	1673.19
306.54	1660.90
306.75	1673.19
306.97	1652.71
307.18	1617.90
307.39	1564.65
307.61	1791.97
307.82	1640.42
308.04	1720.29
308.25	1716.20
308.46	1798.12
308.68	1714.15
308.89	1669.09
309.10	1771.49
309.32	1722.34
309.53	1679.33
309.74	1685.48
309.96	1710.05
310.17	1775.59
310.39	1734.63
310.60	1675.24
310.81	1693.67
311.03	1681.38
311.24	1777.64
311.45	1746.92
311.67	1824.74
311.88	1748.97
312.09	1628.14
312.31	1712.10
312.52	1708.01
312.73	1656.81
312.95	1630.18
313.16	1607.66
313.37	1695.72
313.59	1703.91
313.80	1746.92
314.01	1812.45
314.23	1734.63
314.44	1748.97
314.65	1656.81
314.87	1654.76
315.08	1734.63
315.29	1656.81
315.51	1673.19
315.72	1660.90
315.93	1818.60
316.15	1714.15
316.36	1701.86
316.57	1689.57
316.79	1740.77
317.00	1779.68
317.21	1728.49
317.43	1691.62
317.64	1691.62
317.85	1626.09
318.07	1683.43
318.28	1720.29
318.49	1877.99
318.70	1857.51
318.92	1771.49
319.13	1796.07
319.34	1820.64
319.56	1769.44
319.77	1779.68
319.98	1800.16
320.20	1740.77
320.41	1740.77
320.62	1724.39
320.83	1677.29
321.05	1744.87
321.26	1673.19
321.47	1787.88
321.69	1796.07
321.90	1656.81
322.11	1683.43
322.32	1712.10
322.54	1736.68
322.75	1681.38
322.96	1853.41
323.18	1650.66
323.39	1527.78
323.60	1691.62
323.81	1794.02
324.03	1669.09
324.24	1691.62
324.45	1746.92
324.66	1648.61
324.88	1753.06
325.09	1824.74
325.30	1677.29
325.52	1796.07
325.73	1660.90
325.94	1681.38
326.15	1658.85
326.37	1699.81
326.58	1697.77
326.79	1769.44
327.00	1615.85
327.22	1658.85
327.43	1681.38
327.64	1689.57
327.85	1730.53
328.07	1753.06
328.28	1779.68
328.49	1683.43
328.70	1673.19
328.92	1681.38
329.13	1656.81
329.34	1779.68
329.55	1832.93
329.76	1832.93
329.98	1705.96
330.19	1726.44
330.40	1714.15
330.61	1705.96
330.83	1710.05
331.04	1638.38
331.25	1765.35
331.46	1665.00
331.68	1624.04
331.89	1748.97
332.10	1693.67
332.31	1671.14
332.52	1617.90
332.74	1771.49
332.95	1640.42
333.16	1693.67
333.37	1791.97
333.58	1669.09
333.80	1603.56
334.01	1624.04
334.22	1650.66
334.43	1685.48
334.64	1705.96
334.86	1605.61
335.07	1650.66
335.28	1783.78
335.49	1585.13
335.70	1746.92
335.92	1812.45
336.13	1834.98
336.34	1748.97
336.55	1732.58
336.76	1640.42
336.98	1615.85
337.19	1677.29
337.40	1837.03
337.61	1843.17
337.82	1634.28
338.04	1787.88
338.25	1609.70
338.46	1660.90
338.67	1624.04
338.88	1601.51
339.09	1705.96
339.31	1632.23
339.52	1615.85
339.73	1671.14
339.94	1751.01
340.15	1681.38
340.36	1611.75
340.58	1748.97
340.79	1640.42
341.00	1691.62
341.21	1669.09
341.42	1828.84
341.63	1742.82
341.85	1783.78
342.06	1710.05
342.27	1648.61
342.48	1685.48
342.69	1667.05
342.90	1722.34
343.12	1775.59
343.33	1712.10
343.54	1736.68
343.75	1843.17
343.96	1740.77
344.17	1630.18
344.38	1665.00
344.60	1712.10
344.81	1632.23
345.02	1697.77
345.23	1769.44
345.44	1738.73
345.65	1767.40
345.86	1656.81
346.07	1667.05
346.29	1728.49
346.50	1679.33
346.71	1671.14
346.92	1757.16
347.13	1755.11
347.34	1681.38
347.55	1718.25
347.76	1681.38
347.98	1662.95
348.19	1617.90
348.40	1855.46
348.61	1712.10
348.82	1824.74
349.03	1781.73
349.24	1628.14
349.45	1714.15
349.66	1546.22
349.88	1685.48
350.09	1636.33
350.30	1724.39
350.51	1781.73
350.72	1671.14
350.93	1734.63
351.14	1640.42
351.35	1771.49
351.56	1710.05
351.77	1660.90
351.99	1716.20
352.20	1808.36
352.41	1771.49
352.62	1662.95
352.83	1779.68
353.04	1675.24
353.25	1632.23
353.46	1748.97
353.67	1736.68
353.88	1572.84
354.09	1708.01
354.30	1759.21
354.52	1746.92
354.73	1679.33
354.94	1650.66
355.15	1742.82
355.36	1808.36
355.57	1718.25
355.78	1640.42
355.99	1626.09
356.20	1710.05
356.41	1779.68
356.62	1722.34
356.83	1736.68
357.04	1820.64
357.25	1558.50
357.46	1738.73
357.68	1658.85
357.89	1599.46
358.10	1654.76
358.31	1607.66
358.52	1685.48
358.73	1703.91
358.94	1609.70
359.15	1677.29
359.36	1771.49
359.57	1697.77
359.78	1681.38
359.99	1683.43
360.20	1587.18
360.41	1675.24
360.62	1740.77
360.83	1634.28
361.04	1726.44
361.25	1734.63
361.46	1773.54
361.67	1689.57
361.88	1673.19
362.09	1673.19
362.30	1738.73
362.51	1615.85
362.72	1701.86
362.93	1660.90
363.14	1679.33
363.35	1701.86
363.56	1619.94
363.78	1771.49
363.99	1624.04
364.20	1642.47
364.41	1673.19
364.62	1773.54
364.83	1701.86
365.04	1626.09
365.25	1734.63
365.46	1767.40
365.67	1566.70
365.88	1673.19
366.09	1585.13
366.30	1654.76
366.51	1701.86
366.72	1603.56
366.93	1720.29
367.14	1744.87
367.35	1763.30
367.56	1777.64
367.77	1777.64
367.98	1699.81
368.18	1748.97
368.39	1773.54
368.60	1644.52
368.81	1734.63
369.02	1679.33
369.23	1720.29
369.44	1675.24
369.65	1703.91
369.86	1716.20
370.07	1689.57
370.28	1593.32
370.49	1648.61
370.70	1683.43
370.91	1630.18
371.12	1617.90
371.33	1740.77
371.54	1687.53
371.75	1773.54
371.96	1591.27
372.17	1677.29
372.38	1714.15
372.59	1667.05
372.80	1671.14
373.01	1722.34
373.22	1724.39
373.43	1697.77
373.64	1701.86
373.85	1744.87
374.06	1773.54
374.26	1726.44
374.47	1710.05
374.68	1804.26
374.89	1773.54
375.10	1677.29
375.31	1753.06
375.52	1705.96
375.73	1705.96
375.94	1662.95
376.15	1751.01
376.36	1632.23
376.57	1667.05
376.78	1593.32
376.99	1652.71
377.20	1779.68
377.40	1660.90
377.61	1789.92
377.82	1638.38
378.03	1710.05
378.24	1683.43
378.45	1720.29
378.66	1736.68
378.87	1578.98
379.08	1591.27
379.29	1644.52
379.50	1679.33
379.71	1673.19
379.91	1714.15
380.12	1716.20
380.33	1740.77
380.54	1708.01
380.75	1703.91
380.96	1671.14
381.17	1714.15
381.38	1705.96
381.59	1806.31
381.80	1687.53
382.00	1947.62
382.21	1740.77
382.42	1757.16
382.63	1900.52
382.84	1759.21
383.05	1804.26
383.26	1804.26
383.47	1759.21
383.68	1708.01
383.88	1689.57
384.09	1718.25
384.30	1814.50
384.51	1757.16
384.72	1591.27
384.93	1642.47
385.14	1742.82
385.35	1779.68
385.55	1677.29
385.76	1740.77
385.97	1701.86
386.18	1560.55
386.39	1603.56
386.60	1730.53
386.81	1603.56
387.02	1613.80
387.22	1652.71
387.43	1767.40
387.64	1718.25
387.85	1871.84
388.06	2205.66
388.27	4292.54
388.48	7026.58
388.68	8284.03
388.89	9977.70
389.10	10004.33
389.31	8689.53
389.52	7669.64
389.73	6848.41
389.93	6406.05
390.14	5871.53
390.35	5240.75
390.56	4640.70
390.77	3854.28
390.98	3067.86
391.18	2492.38
391.39	2127.84
391.60	1789.92
391.81	1834.98
392.02	1748.97
392.23	1763.30
392.43	1705.96
392.64	1753.06
392.85	1769.44
393.06	1839.08
393.27	1689.57
393.47	1687.53
393.68	1673.19
393.89	1730.53
394.10	1753.06
394.31	1665.00
394.52	1660.90
394.72	1716.20
394.93	1839.08
395.14	1660.90
395.35	1687.53
395.56	1609.70
395.76	1699.81
395.97	1757.16
396.18	1800.16
396.39	1810.40
396.60	1970.15
396.80	1884.13
397.01	1877.99
397.22	1722.34
397.43	1820.64
397.64	1736.68
397.84	1789.92
398.05	1871.84
398.26	1757.16
398.47	1841.12
398.67	1826.79
398.88	1718.25
399.09	1689.57
399.30	1660.90
399.51	1710.05
399.71	1656.81
399.92	1746.92
400.13	1781.73
400.34	1679.33
400.54	1726.44
400.75	1785.83
400.96	1630.18
401.17	1779.68
401.37	1744.87
401.58	1652.71
401.79	1646.57
402.00	1902.56
402.21	1888.23
402.41	1974.24
402.62	2025.44
402.83	2009.06
403.04	2004.96
403.24	2078.69
403.45	1863.65
403.66	1906.66
403.87	1845.22
404.07	1791.97
404.28	1898.47
404.49	1904.61
404.70	1751.01
404.90	1779.68
405.11	1720.29
405.32	1738.73
405.52	1687.53
405.73	1783.78
405.94	1656.81
406.15	1718.25
406.35	1763.30
406.56	1773.54
406.77	1689.57
406.98	1705.96
407.18	1753.06
407.39	1761.25
407.60	1712.10
407.80	1771.49
408.01	1632.23
408.22	1730.53
408.43	1683.43
408.63	1667.05
408.84	1759.21
409.05	1755.11
409.25	1634.28
409.46	1718.25
409.67	1693.67
409.88	1611.75
410.08	1691.62
410.29	1724.39
410.50	1697.77
410.70	1658.85
410.91	1576.94
411.12	1708.01
411.32	1687.53
411.53	1714.15
411.74	1787.88
411.95	1667.05
412.15	1746.92
412.36	1783.78
412.57	1771.49
412.77	1804.26
412.98	1701.86
413.19	1607.66
413.39	1763.30
413.60	1738.73
413.81	1796.07
414.01	1687.53
414.22	1673.19
414.43	1753.06
414.63	1619.94
414.84	1738.73
415.05	1722.34
415.25	1638.38
415.46	1705.96
415.67	1619.94
415.87	1781.73
416.08	1628.14
416.29	1652.71
416.49	1722.34
416.70	1695.72
416.91	1658.85
417.11	1722.34
417.32	1765.35
417.53	1773.54
417.73	1716.20
417.94	1701.86
418.15	1761.25
418.35	1714.15
418.56	1726.44
418.77	1724.39
418.97	1703.91
419.18	1714.15
419.38	1570.79
419.59	1683.43
419.80	1808.36
420.00	1621.99
420.21	1714.15
420.42	1814.50
420.62	1789.92
420.83	1613.80
421.04	1667.05
421.24	1730.53
421.45	1736.68
421.65	1685.48
421.86	1800.16
422.07	1712.10
422.27	1802.21
422.48	1777.64
422.69	1716.20
422.89	1710.05
423.10	1681.38
423.30	1652.71
423.51	1697.77
423.72	1701.86
423.92	1710.05
424.13	1648.61
424.33	1748.97
424.54	1765.35
424.75	1656.81
424.95	1800.16
425.16	1785.83
425.36	1685.48
425.57	1734.63
425.78	1824.74
425.98	1771.49
426.19	1742.82
426.39	1648.61
426.60	1773.54
426.81	1820.64
427.01	1708.01
427.22	1669.09
427.42	1705.96
427.63	1693.67
427.83	1701.86
428.04	1763.30
428.25	1769.44
428.45	1771.49
428.66	1771.49
428.86	1703.91
429.07	1757.16
429.28	1671.14
429.48	1681.38
429.69	1644.52
429.89	1742.82
430.10	1705.96
430.30	1742.82
430.51	1804.26
430.71	1675.24
430.92	1748.97
431.13	1619.94
431.33	1693.67
431.54	1746.92
431.74	1740.77
431.95	1830.88
432.15	1646.57
432.36	1703.91
432.56	1796.07
432.77	1849.32
432.98	1796.07
433.18	1708.01
433.39	1718.25
433.59	1648.61
433.80	1751.01
434.00	1849.32
434.21	1683.43
434.41	1683.43
434.62	1785.83
434.82	1714.15
435.03	1611.75
435.23	1652.71
435.44	1634.28
435.64	1791.97
435.85	1753.06
436.06	1748.97
436.26	1802.21
436.47	1660.90
436.67	1716.20
436.88	1777.64
437.08	1728.49
437.29	1791.97
437.49	1683.43
437.70	1705.96
437.90	1685.48
438.11	1828.84
438.31	1738.73
438.52	1808.36
438.72	1812.45
438.93	1953.76
439.13	1718.25
439.34	1832.93
439.54	1734.63
439.75	1798.12
439.95	1816.55
440.16	1701.86
440.36	1701.86
440.57	1753.06
440.77	1691.62
440.98	1710.05
441.18	1757.16
441.39	1613.80
441.59	1673.19
441.80	1865.70
442.00	1763.30
442.21	1806.31
442.41	1650.66
442.62	1755.11
442.82	1693.67
443.02	1691.62
443.23	1671.14
443.43	1662.95
443.64	1853.41
443.84	1621.99
444.05	1810.40
444.25	1673.19
444.46	1695.72
444.66	1722.34
444.87	1820.64
445.07	1689.57
445.28	1755.11
445.48	1808.36
445.69	1787.88
445.89	1914.85
446.09	1742.82
446.30	2064.35
446.50	2602.97
446.71	3807.17
446.91	4276.16
447.12	4652.98
447.32	4861.88
447.53	4319.17
447.73	3880.90
447.93	3598.28
448.14	3350.48
448.34	3243.98
448.55	2906.07
448.75	2908.12
448.96	2676.70
449.16	2428.89
449.36	2361.31
449.57	2074.59
449.77	1947.62
449.98	1800.16
450.18	1812.45
450.39	1804.26
450.59	1767.40
450.79	1677.29
451.00	1732.58
451.20	1759.21
451.41	1701.86
451.61	1800.16
451.81	1724.39
452.02	1714.15
452.22	1708.01
452.43	1646.57
452.63	1724.39
452.84	1685.48
453.04	1722.34
453.24	1734.63
453.45	1681.38
453.65	1738.73
453.86	1697.77
454.06	1710.05
454.26	1716.20
454.47	1644.52
454.67	1812.45
454.87	1736.68
455.08	1734.63
455.28	1789.92
455.49	1794.02
455.69	1699.81
455.89	1798.12
456.10	1761.25
456.30	1765.35
456.51	1886.18
456.71	1720.29
456.91	1755.11
457.12	1748.97
457.32	1771.49
457.52	1617.90
457.73	1746.92
457.93	1767.40
458.14	1673.19
458.34	1685.48
458.54	1716.20
458.75	1746.92
458.95	1769.44
459.15	1669.09
459.36	1779.68
459.56	1759.21
459.76	1806.31
459.97	1714.15
460.17	1683.43
460.37	1742.82
460.58	1732.58
460.78	1808.36
460.99	1794.02
461.19	1722.34
461.39	1748.97
461.60	1679.33
461.80	1753.06
462.00	1755.11
462.21	1714.15
462.41	1603.56
462.61	1665.00
462.82	1597.42
463.02	1824.74
463.22	1783.78
463.43	1763.30
463.63	1740.77
463.83	1789.92
464.04	1710.05
464.24	1665.00
464.44	1671.14
464.64	1701.86
464.85	1791.97
465.05	1710.05
465.25	1624.04
465.46	1656.81
465.66	1789.92
465.86	1726.44
466.07	1794.02
466.27	1738.73
466.47	1642.47
466.68	1693.67
466.88	1912.80
467.08	1845.22
467.29	1763.30
467.49	1763.30
467.69	1730.53
467.89	1751.01
468.10	1734.63
468.30	1742.82
468.50	1841.12
468.71	1802.21
468.91	1673.19
469.11	1783.78
469.31	1763.30
469.52	1638.38
469.72	1785.83
469.92	1802.21
470.13	1771.49
470.33	1689.57
470.53	1853.41
470.73	2033.63
470.94	2308.06
471.14	2346.97
471.34	2512.86
471.54	2357.21
471.75	2293.72
471.95	2150.37
472.15	2013.15
472.36	2095.07
472.56	2033.63
472.76	2029.54
472.96	2076.64
473.17	1927.14
473.37	1931.23
473.57	1787.88
473.77	1804.26
473.98	1763.30
474.18	1673.19
474.38	1824.74
474.58	1710.05
474.79	1671.14
474.99	1804.26
475.19	1820.64
475.39	1691.62
475.60	1697.77
475.80	1691.62
476.00	1785.83
476.20	1667.05
476.41	1644.52
476.61	1806.31
476.81	1777.64
477.01	1681.38
477.21	1834.98
477.42	1857.51
477.62	1677.29
477.82	1775.59
478.02	1742.82
478.23	1718.25
478.43	1701.86
478.63	1695.72
478.83	1648.61
479.03	1689.57
479.24	1847.27
479.44	1775.59
479.64	1593.32
479.84	1597.42
480.04	1689.57
480.25	1812.45
480.45	1673.19
480.65	1675.24
480.85	1908.71
481.06	1701.86
481.26	1767.40
481.46	1767.40
481.66	1679.33
481.86	1652.71
482.06	1720.29
482.27	1738.73
482.47	1673.19
482.67	1736.68
482.87	1609.70
483.07	1763.30
483.28	1781.73
483.48	1603.56
483.68	1722.34
483.88	1732.58
484.08	1574.89
484.29	1609.70
484.49	1714.15
484.69	1652.71
484.89	1767.40
485.09	1808.36
485.29	1710.05
485.50	1695.72
485.70	1701.86
485.90	1806.31
486.10	1722.34
486.30	1744.87
486.50	1761.25
486.71	1773.54
486.91	1718.25
487.11	1669.09
487.31	1689.57
487.51	1783.78
487.71	1712.10
487.91	1660.90
488.12	1673.19
488.32	1583.08
488.52	1708.01
488.72	1634.28
488.92	1802.21
489.12	1787.88
489.32	1771.49
489.53	1720.29
489.73	1611.75
489.93	1773.54
490.13	1671.14
490.33	1615.85
490.53	1724.39
490.73	1794.02
490.94	1644.52
491.14	1748.97
491.34	1834.98
491.54	2160.61
491.74	2441.18
491.94	2934.74
492.14	3041.23
492.34	2992.08
492.54	2801.62
492.75	2500.57
492.95	2414.56
493.15	2308.06
493.35	2303.96
493.55	2244.57
493.75	2168.80
493.95	2107.36
494.15	2025.44
494.35	1888.23
494.56	1834.98
494.76	1755.11
494.96	1681.38
495.16	1732.58
495.36	1744.87
495.56	1726.44
495.76	1652.71
495.96	1732.58
496.16	1769.44
496.36	1830.88
496.56	1714.15
496.77	1746.92
496.97	1654.76
497.17	1736.68
497.37	1619.94
497.57	1783.78
497.77	1736.68
497.97	1708.01
498.17	1662.95
498.37	1665.00
498.57	1722.34
498.77	1673.19
498.97	1660.90
499.17	1804.26
499.38	1783.78
499.58	1841.12
499.78	1802.21
499.98	1789.92
500.18	1767.40
500.38	1660.90
500.58	1896.42
500.78	2564.06
500.98	4495.29
501.18	5842.85
501.38	6686.62
501.58	7118.74
501.78	6733.72
501.98	5623.72
502.18	5138.35
502.38	4523.96
502.58	4173.76
502.78	3735.50
502.98	3731.40
503.18	3487.69
503.38	3098.58
503.59	2752.47
503.79	2631.64
503.99	2549.72
504.19	2324.44
504.39	2260.96
504.59	2166.75
504.79	2109.41
504.99	2080.74
505.19	1775.59
505.39	1894.37
505.59	1931.23
505.79	1837.03
505.99	1859.56
506.19	1761.25
506.39	1861.60
506.59	1716.20
506.79	1681.38
506.99	1877.99
507.19	1736.68
507.39	1718.25
507.59	1658.85
507.79	1658.85
507.99	1665.00
508.19	1699.81
508.39	1681.38
508.59	1828.84
508.79	1816.55
508.99	1804.26
509.19	1683.43
509.39	1757.16
509.59	1683.43
509.79	1677.29
509.99	1765.35
510.19	1837.03
510.39	1765.35
510.59	1718.25
510.79	1716.20
510.99	1638.38
511.19	1791.97
511.39	1839.08
511.59	1763.30
511.79	1785.83
511.99	1730.53
512.19	1810.40
512.38	1732.58
512.58	1636.33
512.78	1619.94
512.98	1810.40
513.18	1816.55
513.38	1677.29
513.58	1751.01
513.78	1748.97
513.98	1708.01
514.18	1705.96
514.38	1718.25
514.58	1701.86
514.78	1726.44
514.98	1724.39
515.18	1751.01
515.38	1671.14
515.58	1880.04
515.78	1671.14
515.98	1730.53
516.18	1759.21
516.38	1753.06
516.57	1753.06
516.77	1773.54
516.97	1751.01
517.17	1638.38
517.37	1634.28
517.57	1843.17
517.77	1681.38
517.97	1691.62
518.17	1814.50
518.37	1677.29
518.57	1751.01
518.77	1644.52
518.97	1751.01
519.16	1705.96
519.36	1761.25
519.56	1710.05
519.76	1712.10
519.96	1710.05
520.16	1882.08
520.36	1642.47
520.56	1783.78
520.76	1722.34
520.96	1685.48
521.16	1720.29
521.35	1748.97
521.55	1785.83
521.75	1689.57
521.95	1677.29
522.15	1679.33
522.35	1632.23
522.55	1773.54
522.75	1791.97
522.95	1691.62
523.14	1585.13
523.34	1798.12
523.54	1732.58
523.74	1693.67
523.94	1832.93
524.14	1630.18
524.34	1732.58
524.54	1781.73
524.73	1683.43
524.93	1748.97
525.13	1681.38
525.33	1626.09
525.53	1857.51
525.73	1820.64
525.93	1765.35
526.13	1691.62
526.32	1734.63
526.52	1828.84
526.72	1800.16
526.92	1738.73
527.12	1722.34
527.32	1673.19
527.52	1755.11
527.71	1787.88
527.91	1722.34
528.11	1761.25
528.31	1685.48
528.51	1732.58
528.71	1812.45
528.90	1767.40
529.10	1857.51
529.30	1720.29
529.50	1607.66
529.70	1714.15
529.90	1699.81
530.09	1746.92
530.29	1677.29
530.49	1615.85
530.69	1894.37
530.89	1781.73
531.09	1753.06
531.28	1726.44
531.48	1791.97
531.68	1767.40
531.88	1765.35
532.08	1839.08
532.28	1640.42
532.47	1824.74
532.67	1839.08
532.87	1789.92
533.07	1691.62
533.27	1839.08
533.46	1796.07
533.66	1757.16
533.86	1757.16
534.06	1697.77
534.26	1742.82
534.45	1714.15
534.65	1816.55
534.85	1751.01
535.05	1673.19
535.25	1736.68
535.44	1621.99
535.64	1746.92
535.84	1718.25
536.04	1732.58
536.24	1738.73
536.43	1697.77
536.63	1755.11
536.83	1675.24
537.03	1771.49
537.22	1607.66
537.42	1644.52
537.62	1681.38
537.82	1656.81
538.02	1767.40
538.21	1789.92
538.41	1896.42
538.61	1824.74
538.81	1757.16
539.00	1810.40
539.20	1632.23
539.40	1654.76
539.60	1789.92
539.79	1736.68
539.99	1685.48
540.19	1687.53
540.39	1701.86
540.58	1746.92
540.78	1724.39
540.98	1665.00
541.18	1769.44
541.37	1757.16
541.57	1689.57
541.77	1740.77
541.97	1710.05
542.16	1640.42
542.36	1738.73
542.56	1685.48
542.76	1877.99
542.95	1712.10
543.15	1814.50
543.35	1736.68
543.54	1736.68
543.74	1640.42
543.94	1814.50
544.14	1628.14
544.33	1818.60
544.53	1746.92
544.73	1755.11
544.93	1697.77
545.12	1742.82
545.32	1843.17
545.52	1726.44
545.71	1720.29
545.91	1648.61
546.11	1775.59
546.30	1701.86
546.50	1689.57
546.70	1781.73
546.90	1701.86
547.09	1636.33
547.29	1757.16
547.49	1767.40
547.68	1794.02
547.88	1693.67
548.08	1728.49
548.27	2248.67
548.47	1722.34
548.67	1671.14
548.87	1765.35
549.06	1847.27
549.26	1791.97
549.46	1748.97
549.65	1757.16
549.85	1771.49
550.05	1738.73
550.24	1648.61
550.44	1705.96
550.64	1703.91
550.83	1751.01
551.03	1773.54
551.23	1853.41
551.42	1724.39
551.62	1759.21
551.82	1701.86
552.01	1730.53
552.21	1785.83
552.41	1710.05
552.60	1781.73
552.80	1763.30
553.00	1605.61
553.19	1734.63
553.39	1736.68
553.59	1636.33
553.78	1724.39
553.98	1771.49
554.17	1599.46
554.37	1771.49
554.57	1726.44
554.76	1578.98
554.96	1732.58
555.16	1736.68
555.35	1742.82
555.55	1796.07
555.75	1744.87
555.94	1837.03
556.14	1615.85
556.33	1761.25
556.53	1740.77
556.73	1658.85
556.92	1796.07
557.12	1771.49
557.32	1859.56
557.51	1800.16
557.71	1796.07
557.90	1800.16
558.10	1877.99
558.30	1669.09
558.49	1777.64
558.69	1718.25
558.88	1800.16
559.08	1751.01
559.28	1724.39
559.47	1740.77
559.67	1732.58
559.86	1800.16
560.06	1773.54
560.26	1730.53
560.45	1845.22
560.65	1744.87
560.84	1812.45
561.04	1591.27
561.24	1787.88
561.43	1611.75
561.63	1804.26
561.82	1763.30
562.02	1791.97
562.22	1689.57
562.41	1652.71
562.61	1738.73
562.80	1691.62
563.00	1843.17
563.19	1728.49
563.39	1753.06
563.59	1802.21
563.78	1716.20
563.98	1679.33
564.17	1777.64
564.37	1652.71
564.56	1699.81
564.76	1681.38
564.96	1810.40
565.15	1753.06
565.35	1841.12
565.54	1701.86
565.74	1796.07
565.93	1759.21
566.13	1820.64
566.32	1759.21
566.52	1791.97
566.71	1724.39
566.91	1837.03
567.11	1699.81
567.30	1720.29
567.50	1738.73
567.69	1753.06
567.89	1660.90
568.08	1693.67
568.28	1818.60
568.47	1644.52
568.67	1732.58
568.86	1652.71
569.06	1763.30
569.25	1679.33
569.45	1722.34
569.64	1777.64
569.84	1673.19
570.04	1763.30
570.23	1732.58
570.43	1665.00
570.62	1722.34
570.82	1802.21
571.01	1671.14
571.21	1710.05
571.40	1640.42
571.60	1798.12
571.79	1791.97
571.99	1816.55
572.18	1660.90
572.38	1814.50
572.57	1763.30
572.77	1685.48
572.96	1923.04
573.16	1675.24
573.35	1703.91
573.55	1859.56
573.74	1718.25
573.94	1693.67
574.13	1769.44
574.33	1841.12
574.52	1777.64
574.71	1708.01
574.91	1728.49
575.10	1691.62
575.30	1654.76
575.49	1710.05
575.69	1640.42
575.88	1746.92
576.08	1685.48
576.27	1738.73
576.47	1732.58
576.66	1886.18
576.86	1732.58
577.05	1763.30
577.25	1789.92
577.44	1759.21
577.64	1710.05
577.83	1789.92
578.02	1714.15
578.22	1826.79
578.41	1785.83
578.61	1746.92
578.80	1650.66
579.00	1777.64
579.19	1783.78
579.39	1781.73
579.58	1794.02
579.77	1753.06
579.97	1839.08
580.16	1787.88
580.36	1830.88
580.55	1746.92
580.75	1738.73
580.94	1771.49
581.13	1791.97
581.33	1816.55
581.52	1697.77
581.72	1875.94
581.91	1851.36
582.11	1738.73
582.30	1703.91
582.49	1837.03
582.69	1904.61
582.88	1783.78
583.08	1728.49
583.27	1785.83
583.47	1779.68
583.66	1617.90
583.85	1777.64
584.05	1767.40
584.24	1777.64
584.44	1822.69
584.63	1812.45
584.82	1824.74
585.02	1789.92
585.21	1822.69
585.41	1804.26
585.60	1720.29
585.79	1871.84
585.99	1845.22
586.18	1857.51
586.37	2234.33
586.57	3377.10
586.76	10219.36
586.96	24833.67
587.15	35685.86
587.34	41155.98
587.54	43072.88
587.73	37629.38
587.93	27100.77
588.12	21935.79
588.31	18759.39
588.51	16903.93
588.70	15716.11
588.89	14583.59
589.09	12918.59
589.28	11556.69
589.47	9705.32
589.67	8150.92
589.86	6539.16
590.06	4968.37
590.25	3999.68
590.44	3035.09
590.64	2521.05
590.83	2242.53
591.02	2103.26
591.22	1959.91
591.41	1894.37
591.60	1775.59
591.80	1976.29
591.99	1746.92
592.18	1812.45
592.38	1804.26
592.57	1697.77
592.76	1810.40
592.96	1761.25
593.15	1767.40
593.34	1880.04
593.54	1703.91
593.73	1794.02
593.92	1791.97
594.12	1724.39
594.31	1802.21
594.50	1773.54
594.70	1748.97
594.89	1847.27
595.08	1685.48
595.28	1785.83
595.47	1892.32
595.66	1837.03
595.86	1718.25
596.05	1759.21
596.24	1689.57
596.43	1861.60
596.63	1796.07
596.82	1779.68
597.01	1742.82
597.21	1865.70
597.40	1810.40
597.59	1685.48
597.79	1796.07
597.98	1746.92
598.17	1779.68
598.36	1791.97
598.56	1746.92
598.75	1685.48
598.94	1699.81
599.14	1767.40
599.33	1757.16
599.52	1773.54
599.71	1720.29
599.91	1775.59
600.10	1757.16
600.29	1638.38
600.48	1810.40
600.68	1755.11
600.87	1820.64
601.06	1710.05
601.26	1724.39
601.45	1730.53
601.64	1759.21
601.83	1783.78
602.03	1658.85
602.22	1726.44
602.41	1804.26
602.60	1841.12
602.80	1783.78
602.99	1781.73
603.18	1695.72
603.37	1716.20
603.57	1748.97
603.76	1781.73
603.95	1849.32
604.14	1699.81
604.34	1691.62
604.53	1748.97
604.72	1748.97
604.91	1771.49
605.10	1841.12
605.30	1705.96
605.49	1796.07
605.68	1820.64
605.87	1728.49
606.07	1710.05
606.26	1697.77
606.45	1658.85
606.64	1781.73
606.84	1720.29
607.03	1742.82
607.22	1791.97
607.41	1646.57
607.60	1675.24
607.80	1796.07
607.99	1693.67
608.18	1775.59
608.37	1742.82
608.56	1658.85
608.76	1806.31
608.95	1806.31
609.14	1816.55
609.33	1681.38
609.52	1767.40
609.72	1724.39
609.91	1851.36
610.10	1695.72
610.29	1806.31
610.48	1742.82
610.68	1763.30
610.87	1671.14
611.06	1730.53
611.25	1812.45
611.44	1820.64
611.63	1712.10
611.83	1863.65
612.02	1638.38
612.21	1810.40
612.40	1660.90
612.59	1701.86
612.79	1673.19
612.98	1765.35
613.17	1832.93
613.36	1665.00
613.55	1787.88
613.74	1720.29
613.93	1607.66
614.13	1730.53
614.32	1816.55
614.51	1726.44
614.70	1662.95
614.89	1685.48
615.08	1812.45
615.28	2033.63
615.47	1712.10
615.66	1732.58
615.85	1712.10
616.04	1853.41
616.23	1738.73
616.42	1701.86
616.62	1732.58
616.81	1767.40
617.00	1677.29
617.19	1730.53
617.38	1777.64
617.57	1753.06
617.76	1697.77
617.95	1775.59
618.15	1777.64
618.34	1787.88
618.53	1636.33
618.72	1757.16
618.91	1851.36
619.10	1794.02
619.29	1726.44
619.48	1728.49
619.68	1732.58
619.87	1628.14
620.06	1669.09
620.25	1783.78
620.44	1691.62
620.63	1687.53
620.82	1757.16
621.01	1703.91
621.20	1744.87
621.39	1617.90
621.59	1724.39
621.78	1681.38
621.97	1703.91
622.16	1755.11
622.35	1695.72
622.54	1746.92
622.73	1808.36
622.92	1591.27
623.11	1779.68
623.30	1689.57
623.49	1685.48
623.68	1755.11
623.88	1755.11
624.07	1726.44
624.26	1777.64
624.45	1734.63
624.64	1705.96
624.83	1675.24
625.02	1771.49
625.21	1689.57
625.40	1740.77
625.59	1804.26
625.78	1781.73
625.97	1779.68
626.16	1763.30
626.35	1818.60
626.54	1675.24
626.74	1806.31
626.93	1730.53
627.12	1665.00
627.31	1736.68
627.50	1685.48
627.69	1851.36
627.88	1689.57
628.07	1671.14
628.26	1644.52
628.45	1689.57
628.64	1691.62
628.83	1767.40
629.02	1613.80
629.21	1726.44
629.40	1763.30
629.59	1710.05
629.78	1689.57
629.97	1730.53
630.16	1730.53
630.35	1691.62
630.54	1654.76
630.73	1697.77
630.92	1662.95
631.11	1634.28
631.30	1691.62
631.49	1734.63
631.68	1710.05
631.87	1806.31
632.06	1669.09
632.25	1800.16
632.44	1683.43
632.63	1683.43
632.82	1730.53
633.01	1716.20
633.20	1671.14
633.39	1654.76
633.58	1613.80
633.77	1732.58
633.96	1724.39
634.15	1761.25
634.34	1765.35
634.53	1755.11
634.72	1644.52
634.91	1665.00
635.10	1767.40
635.29	1746.92
635.48	1679.33
635.67	1708.01
635.86	1665.00
636.05	1810.40
636.24	1773.54
636.43	1705.96
636.62	1683.43
636.81	1613.80
637.00	1689.57
637.19	1691.62
637.38	1773.54
637.57	1669.09
637.76	1669.09
637.95	1744.87
638.14	1646.57
638.33	1685.48
638.52	1738.73
638.71	1724.39
638.89	1638.38
639.08	1830.88
639.27	1718.25
639.46	1693.67
639.65	1828.84
639.84	1761.25
640.03	1759.21
640.22	1730.53
640.41	1837.03
640.60	1632.23
640.79	1665.00
640.98	1712.10
641.17	1685.48
641.36	1722.34
641.55	1767.40
641.74	1660.90
641.92	1720.29
642.11	1675.24
642.30	1697.77
642.49	1656.81
642.68	1673.19
642.87	1695.72
643.06	1675.24
643.25	1691.62
643.44	1769.44
643.63	1724.39
643.82	1828.84
644.00	1624.04
644.19	1751.01
644.38	1693.67
644.57	1734.63
644.76	1681.38
644.95	1675.24
645.14	1734.63
645.33	1728.49
645.52	1705.96
645.71	1626.09
645.89	1660.90
646.08	1675.24
646.27	1679.33
646.46	1839.08
646.65	1660.90
646.84	1603.56
647.03	1595.37
647.22	1751.01
647.40	1646.57
647.59	1578.98
647.78	1652.71
647.97	1697.77
648.16	1634.28
648.35	1828.84
648.54	1753.06
648.73	1638.38
648.91	1775.59
649.10	1753.06
649.29	1683.43
649.48	1763.30
649.67	1703.91
649.86	1675.24
650.05	1660.90
650.23	1798.12
650.42	1677.29
650.61	1691.62
650.80	1724.39
650.99	1798.12
651.18	1748.97
651.36	1654.76
651.55	1740.77
651.74	1791.97
651.93	1675.24
652.12	1691.62
652.31	1695.72
652.49	1751.01
652.68	1630.18
652.87	1796.07
653.06	1712.10
653.25	1812.45
653.44	1699.81
653.62	1820.64
653.81	1718.25
654.00	1646.57
654.19	1736.68
654.38	1861.60
654.56	1783.78
654.75	1679.33
654.94	1798.12
655.13	1716.20
655.32	1683.43
655.51	1748.97
655.69	1677.29
655.88	1826.79
656.07	1578.98
656.26	1763.30
656.45	1667.05
656.63	1718.25
656.82	1744.87
657.01	1738.73
657.20	1691.62
657.38	1841.12
657.57	1679.33
657.76	1630.18
657.95	1761.25
658.14	1730.53
658.32	1718.25
658.51	1652.71
658.70	1693.67
658.89	1648.61
659.08	1734.63
659.26	1841.12
659.45	1652.71
659.64	1642.47
659.83	1634.28
660.01	1851.36
660.20	1697.77
660.39	1837.03
660.58	1636.33
660.76	1705.96
660.95	1634.28
661.14	1656.81
661.33	1617.90
661.51	1675.24
661.70	1652.71
661.89	1734.63
662.08	1652.71
662.26	1650.66
662.45	1599.46
662.64	1843.17
662.83	1816.55
663.01	1599.46
663.20	1665.00
663.39	1916.90
663.58	1687.53
663.76	1683.43
663.95	1705.96
664.14	1576.94
664.32	1714.15
664.51	1691.62
664.70	1609.70
664.89	1748.97
665.07	1695.72
665.26	1730.53
665.45	1701.86
665.64	1703.91
665.82	1746.92
666.01	1716.20
666.20	1689.57
666.38	1736.68
666.57	1804.26
666.76	2183.13
666.95	4648.89
667.13	10637.15
667.32	15400.72
667.51	18058.99
667.69	19230.43
667.88	17946.35
668.07	12384.07
668.25	9752.43
668.44	8179.59
668.63	7522.19
668.81	6995.86
669.00	6340.51
669.19	5773.22
669.38	5150.64
669.56	4677.56
669.75	4024.26
669.94	3426.25
670.12	2926.55
670.31	2564.06
670.50	2287.58
670.68	1996.77
670.87	1888.23
671.06	1787.88
671.24	1785.83
671.43	1767.40
671.62	1718.25
671.80	1636.33
671.99	1710.05
672.18	1695.72
672.36	1710.05
672.55	1791.97
672.74	1763.30
672.92	1699.81
673.11	1732.58
673.29	1689.57
673.48	1796.07
673.67	1667.05
673.85	1714.15
674.04	1742.82
674.23	1671.14
674.41	1851.36
674.60	1679.33
674.79	1660.90
674.97	1710.05
675.16	1806.31
675.34	1767.40
675.53	1722.34
675.72	1791.97
675.90	1791.97
676.09	1755.11
676.28	1671.14
676.46	1665.00
676.65	1802.21
676.83	1665.00
677.02	1658.85
677.21	1773.54
677.39	1759.21
677.58	1654.76
677.77	1681.38
677.95	1677.29
678.14	1708.01
678.32	1626.09
678.51	1683.43
678.70	1751.01
678.88	1601.51
679.07	1746.92
679.25	1705.96
679.44	1730.53
679.63	1640.42
679.81	1710.05
680.00	1718.25
680.18	1734.63
680.37	1787.88
680.55	1652.71
680.74	1667.05
680.93	1736.68
681.11	1660.90
681.30	1722.34
681.48	1724.39
681.67	1730.53
681.85	1726.44
682.04	1685.48
682.23	1742.82
682.41	1740.77
682.60	1640.42
682.78	1740.77
682.97	1560.55
683.15	1660.90
683.34	1685.48
683.53	1796.07
683.71	1599.46
683.90	1781.73
684.08	1755.11
684.27	1683.43
684.45	1728.49
684.64	1751.01
684.82	1701.86
685.01	1683.43
685.19	1683.43
685.38	1820.64
685.57	1611.75
685.75	1746.92
685.94	1697.77
686.12	1628.14
686.31	1570.79
686.49	1798.12
686.68	1675.24
686.86	1755.11
687.05	1669.09
687.23	1806.31
687.42	1605.61
687.60	1648.61
687.79	1767.40
687.97	1820.64
688.16	1753.06
688.34	1765.35
688.53	1652.71
688.71	1740.77
688.90	1818.60
689.08	1658.85
689.27	1611.75
689.45	1804.26
689.64	1785.83
689.82	1740.77
690.01	1701.86
690.19	1744.87
690.38	1697.77
690.56	1785.83
690.75	1638.38
690.93	1656.81
691.12	1624.04
691.30	1691.62
691.49	1710.05
691.67	1695.72
691.86	1800.16
692.04	1619.94
692.23	1626.09
692.41	1642.47
692.60	1802.21
692.78	1757.16
692.97	1619.94
693.15	1763.30
693.34	1802.21
693.52	1683.43
693.71	1628.14
693.89	1560.55
694.08	1621.99
694.26	1748.97
694.44	1767.40
694.63	1662.95
694.81	1652.71
695.00	1607.66
695.18	1761.25
695.37	1900.52
695.55	1712.10
695.74	1705.96
695.92	1652.71
696.10	1759.21
696.29	1624.04
696.47	1660.90
696.66	1636.33
696.84	1628.14
697.03	1683.43
697.21	1785.83
697.40	2314.20
697.58	1791.97
697.76	1665.00
697.95	1654.76
698.13	1615.85
698.32	1648.61
698.50	1730.53
698.68	1822.69
698.87	1697.77
699.05	1755.11
699.24	1691.62
699.42	1714.15
699.61	1738.73
699.79	1644.52
699.97	1738.73
700.16	1656.81
700.34	1669.09
700.53	1755.11
700.71	1779.68
700.89	1681.38
701.08	1624.04
701.26	1705.96
701.45	2166.75
701.63	1665.00
701.81	1660.90
702.00	1615.85
702.18	1665.00
702.37	1648.61
702.55	1763.30
702.73	1742.82
702.92	1636.33
703.10	1806.31
703.28	1677.29
703.47	1640.42
703.65	1777.64
703.84	1703.91
704.02	1710.05
704.20	1765.35
704.39	1724.39
704.57	1669.09
704.75	1812.45
704.94	1757.16
705.12	1691.62
705.30	1851.36
705.49	2324.44
705.67	4581.31
705.86	9647.98
706.04	12861.24
706.22	14808.86
706.41	16103.18
706.59	14049.07
706.77	9852.78
706.96	7505.81
707.14	6793.11
707.32	6082.47
707.51	5722.02
707.69	4968.37
707.87	4290.49
708.06	3571.66
708.24	2928.60
708.42	2410.46
708.61	2236.38
708.79	1945.57
708.97	1812.45
709.16	1839.08
709.34	1722.34
709.52	1679.33
709.71	1734.63
709.89	1767.40
710.07	1673.19
710.26	1644.52
710.44	1689.57
710.62	1753.06
710.80	1730.53
710.99	1716.20
711.17	1685.48
711.35	1632.23
711.54	1683.43
711.72	1732.58
711.90	1769.44
712.09	1708.01
712.27	1619.94
712.45	1740.77
712.63	1683.43
712.82	1732.58
713.00	1703.91
713.18	1748.97
713.37	1806.31
713.55	1761.25
713.73	1732.58
713.91	1755.11
714.10	1603.56
714.28	1650.66
714.46	1693.67
714.65	1751.01
714.83	1748.97
715.01	1740.77
715.19	1744.87
715.38	1675.24
715.56	1632.23
715.74	1705.96
715.92	1677.29
716.11	1794.02
716.29	1644.52
716.47	1644.52
716.65	1687.53
716.84	1587.18
717.02	1748.97
717.20	1624.04
717.38	1675.24
717.57	1728.49
717.75	1626.09
717.93	1644.52
718.11	1718.25
718.30	1703.91
718.48	1724.39
718.66	1730.53
718.84	1736.68
719.03	1695.72
719.21	1626.09
719.39	1857.51
719.57	1732.58
719.75	1777.64
719.94	1681.38
720.12	1642.47
720.30	1755.11
720.48	1800.16
720.67	1681.38
720.85	1671.14
721.03	1613.80
721.21	1648.61
721.39	1771.49
721.58	1658.85
721.76	1732.58
721.94	1730.53
722.12	1742.82
722.30	1802.21
722.49	1656.81
722.67	1673.19
722.85	1757.16
723.03	1642.47
723.21	1691.62
723.40	1802.21
723.58	1738.73
723.76	1624.04
723.94	1724.39
724.12	1734.63
724.30	1695.72
724.49	1685.48
724.67	1701.86
724.85	1820.64
725.03	1644.52
725.21	1781.73
725.40	1697.77
725.58	1652.71
725.76	1773.54
725.94	1710.05
726.12	1660.90
726.30	1742.82
726.49	1673.19
726.67	1591.27
726.85	1712.10
727.03	1853.41
727.21	2140.13
727.39	2912.21
727.57	3874.76
727.76	4210.62
727.94	4556.73
728.12	4474.81
728.30	3760.07
728.48	2979.79
728.66	2777.05
728.84	2473.95
729.03	2428.89
729.21	2115.55
729.39	1951.71
729.57	1834.98
729.75	1800.16
729.93	1808.36
730.11	1636.33
730.30	1730.53
730.48	1632.23
730.66	1783.78
730.84	1734.63
731.02	1632.23
731.20	1624.04
731.38	1683.43
731.56	1652.71
731.74	1574.89
731.93	1712.10
732.11	1691.62
732.29	1691.62
732.47	1816.55
732.65	1714.15
732.83	1771.49
733.01	1722.34
733.19	1570.79
733.37	1753.06
733.56	1746.92
733.74	1654.76
733.92	1800.16
734.10	1626.09
734.28	1744.87
734.46	1578.98
734.64	1601.51
734.82	1730.53
735.00	1677.29
735.18	1716.20
735.36	1736.68
735.54	1769.44
735.73	1734.63
735.91	1689.57
736.09	1665.00
736.27	1757.16
736.45	1648.61
736.63	1652.71
736.81	1714.15
736.99	1759.21
737.17	1753.06
737.35	1671.14
737.53	1753.06
737.71	1677.29
737.89	1804.26
738.07	1628.14
738.25	1679.33
738.43	1546.22
738.61	1701.86
738.80	1689.57
738.98	1642.47
739.16	1726.44
739.34	1601.51
739.52	1763.30
739.70	1695.72
739.88	1812.45
740.06	1822.69
740.24	1677.29
740.42	1787.88
740.60	1693.67
740.78	1681.38
740.96	1566.70
741.14	1685.48
741.32	1740.77
741.50	1646.57
741.68	1820.64
741.86	1775.59
742.04	1648.61
742.22	1611.75
742.40	1714.15
742.58	1775.59
742.76	1593.32
742.94	1748.97
743.12	1587.18
743.30	1787.88
743.48	1742.82
743.66	1712.10
743.84	1710.05
744.02	1716.20
744.20	1619.94
744.38	1689.57
744.56	1705.96
744.74	1753.06
744.92	1665.00
745.10	1818.60
745.28	1724.39
745.46	1742.82
745.64	1708.01
745.82	1812.45
746.00	1703.91
746.18	1693.67
746.36	1693.67
746.54	1646.57
746.72	1650.66
746.90	1673.19
747.08	1832.93
747.26	1722.34
747.44	1757.16
747.62	1761.25
747.80	1746.92
747.98	1785.83
748.15	1671.14
748.33	1744.87
748.51	1673.19
748.69	1767.40
748.87	1673.19
749.05	1669.09
749.23	1642.47
749.41	1714.15
749.59	1603.56
749.77	1712.10
749.95	1667.05
750.13	1681.38
750.31	1748.97
750.49	1675.24
750.67	1669.09
750.85	1814.50
751.03	1699.81
751.20	1734.63
751.38	1755.11
751.56	1658.85
751.74	1689.57
751.92	1648.61
752.10	1642.47
752.28	1693.67
752.46	1658.85
752.64	1665.00
752.82	1673.19
753.00	1738.73
753.18	1693.67
753.35	1681.38
753.53	1658.85
753.71	1669.09
753.89	1740.77
754.07	1742.82
754.25	1714.15
754.43	1697.77
754.61	1624.04
754.79	1753.06
754.97	1578.98
755.14	1818.60
755.32	1673.19
755.50	1642.47
755.68	1669.09
755.86	1681.38
756.04	1673.19
756.22	1609.70
756.40	1730.53
756.57	1794.02
756.75	1677.29
756.93	1751.01
757.11	1730.53
757.29	1648.61
757.47	1656.81
757.65	1615.85
757.82	1552.36
758.00	1740.77
758.18	1755.11
758.36	1613.80
758.54	1693.67
758.72	1654.76
758.90	1755.11
759.07	1683.43
759.25	1638.38
759.43	1728.49
759.61	1681.38
759.79	2142.18
759.97	1718.25
760.15	1640.42
760.32	1665.00
760.50	1738.73
760.68	1748.97
760.86	1665.00
761.04	1757.16
761.22	1710.05
761.39	1740.77
761.57	1710.05
761.75	1642.47
761.93	1693.67
762.11	1689.57
762.28	1714.15
762.46	1667.05
762.64	1789.92
762.82	1601.51
763.00	1697.77
763.18	1761.25
763.35	1632.23
763.53	1851.36
763.71	1712.10
763.89	1675.24
764.07	1679.33
764.24	1644.52
764.42	1744.87
764.60	1656.81
764.78	1726.44
764.96	1705.96
765.13	1767.40
765.31	1671.14
765.49	1701.86
765.67	1736.68
765.84	1699.81
766.02	1634.28
766.20	1617.90
766.38	1636.33
766.56	1759.21
766.73	1736.68
766.91	1671.14
767.09	1673.19
767.27	1732.58
767.44	1636.33
767.62	1734.63
767.80	1705.96
767.98	1697.77
768.15	1705.96
768.33	1697.77
768.51	1775.59
768.69	1681.38
768.87	1740.77
769.04	1640.42
769.22	1828.84
769.40	1818.60
769.58	1802.21
769.75	1742.82
769.93	1726.44
770.11	1714.15
770.28	1619.94
770.46	1708.01
770.64	1716.20
770.82	1662.95
770.99	1681.38
771.17	1628.14
771.35	1685.48
771.53	1687.53
771.70	1675.24
771.88	1777.64
772.06	1681.38
772.23	1619.94
772.41	1644.52
772.59	1757.16
772.77	1673.19
772.94	1722.34
773.12	1714.15
773.30	1683.43
773.47	1658.85
773.65	1619.94
773.83	1837.03
774.01	1689.57
774.18	1564.65
774.36	1665.00
774.54	1652.71
774.71	1730.53
774.89	1533.93
775.07	1607.66
775.24	1673.19
775.42	1626.09
775.60	1816.55
775.78	1701.86
775.95	1658.85
776.13	1615.85
776.31	1617.90
776.48	1685.48
776.66	1728.49
776.84	1701.86
777.01	1703.91
777.19	1644.52
777.37	1673.19
777.54	1722.34
777.72	1798.12
777.90	1726.44
778.07	1683.43
778.25	1896.42
778.43	1730.53
778.60	1710.05
778.78	1691.62
778.96	1785.83
779.13	1626.09
779.31	1791.97
779.49	1656.81
779.66	1681.38
779.84	1671.14
780.01	1603.56
780.19	1634.28
780.37	1728.49
780.54	1714.15
780.72	1665.00
780.90	1722.34
781.07	1587.18
781.25	1660.90
781.43	1722.34
781.60	1722.34
781.78	1796.07
781.95	1681.38
782.13	1656.81
782.31	1742.82
782.48	1581.03
782.66	1642.47
782.83	1757.16
783.01	1746.92
783.19	1740.77
783.36	1712.10
783.54	1607.66
783.72	1757.16
783.89	1677.29
784.07	1710.05
784.24	1724.39
784.42	1705.96
784.60	1708.01
784.77	1791.97
784.95	1552.36
785.12	1667.05
785.30	1734.63
785.47	1648.61
785.65	1636.33
785.83	1658.85
786.00	1751.01
786.18	1794.02
786.35	1638.38
786.53	1689.57
786.71	1714.15
786.88	1771.49
787.06	1640.42
787.23	1755.11
787.41	1632.23
787.58	1748.97
787.76	1687.53
787.94	1665.00
788.11	1656.81
788.29	1632.23
788.46	1695.72
788.64	1656.81
788.81	1763.30
788.99	1689.57
789.16	1671.14
789.34	1730.53
789.52	1677.29
789.69	1654.76
789.87	1550.31
790.04	1689.57
790.22	1753.06
790.39	1822.69
790.57	1621.99
790.74	1648.61
790.92	1818.60
791.09	1701.86
791.27	1722.34
791.44	1763.30
791.62	1662.95
791.79	1781.73
791.97	1724.39
792.15	1822.69
792.32	1689.57
792.50	1738.73
792.67	1779.68
792.85	1808.36
793.02	1683.43
793.20	1671.14
793.37	1603.56
793.55	1669.09
793.72	1714.15
793.90	1671.14
794.07	1660.90
794.25	1611.75
794.42	1769.44
794.60	1697.77
794.77	1716.20
794.95	1712.10
795.12	1728.49
795.30	1646.57
795.47	1505.26
795.65	1759.21
795.82	1714.15
796.00	1660.90
796.17	1699.81
796.34	1685.48
796.52	1726.44
796.69	1654.76
796.87	1748.97
797.04	1753.06
797.22	1638.38
797.39	1689.57
797.57	1714.15
797.74	1673.19
797.92	1687.53
798.09	1746.92
798.27	1722.34
798.44	1730.53
798.62	1652.71
798.79	1689.57
798.96	1699.81
799.14	1716.20
799.31	1783.78
799.49	1665.00
799.66	1765.35
799.84	1634.28
800.01	1558.50
800.19	1677.29
800.36	1660.90
800.53	1699.81
800.71	1714.15
800.88	1830.88
801.06	1638.38
801.23	1677.29
801.41	1724.39
801.58	1693.67
801.75	1660.90
801.93	1763.30
802.10	1751.01
802.28	1611.75
802.45	1624.04
802.63	1740.77
802.80	1791.97
802.97	1705.96
803.15	1634.28
803.32	1673.19
803.50	1683.43
803.67	1605.61
803.84	1656.81
804.02	1673.19
804.19	1732.58
804.37	1640.42
804.54	1667.05
804.71	1673.19
804.89	1626.09
805.06	1687.53
805.24	1597.42
805.41	1601.51
805.58	1603.56
805.76	1839.08
805.93	1720.29
806.10	1785.83
806.28	1779.68
806.45	1722.34
806.63	1722.34
806.80	1724.39
806.97	1710.05
807.15	1736.68
807.32	1710.05
807.49	1732.58
807.67	1626.09
807.84	1720.29
808.01	1595.37
808.19	1814.50
808.36	1769.44
808.54	1632.23
808.71	1671.14
808.88	1748.97
809.06	1701.86
809.23	1783.78
809.40	1640.42
809.58	1791.97
809.75	1722.34
809.92	1615.85
810.10	1824.74
810.27	1732.58
810.44	1722.34
810.62	1675.24
810.79	1730.53
810.96	1675.24
811.14	1722.34
811.31	1773.54
811.48	1677.29
811.66	1767.40
811.83	1748.97
812.00	1697.77
812.18	1712.10
812.35	1783.78
812.52	1656.81
812.69	1693.67
812.87	1718.25
813.04	1687.53
813.21	1728.49
813.39	1624.04
813.56	1603.56
813.73	1759.21
813.91	1667.05
814.08	1705.96
814.25	1640.42
814.42	1560.55
814.60	1746.92
814.77	1714.15
814.94	1691.62
815.12	1656.81
815.29	1769.44
815.46	1626.09
815.63	1703.91
815.81	1613.80
815.98	1759.21
816.15	1642.47
816.33	1677.29
816.50	1691.62
816.67	1673.19
816.84	1677.29
817.02	1662.95
817.19	1675.24
817.36	1728.49
817.53	1716.20
817.71	1634.28
817.88	1748.97
818.05	1701.86
818.22	1701.86
818.40	1761.25
818.57	1656.81
818.74	1673.19
818.91	1652.71
819.09	1724.39
819.26	1673.19
819.43	1665.00
819.60	1695.72
819.78	1724.39
819.95	1753.06
820.12	1683.43
820.29	1787.88
820.47	1720.29
820.64	1701.86
820.81	1699.81
820.98	1624.04
821.15	1738.73
821.33	1748.97
821.50	1615.85
821.67	1773.54
821.84	1681.38
822.02	1681.38
822.19	1720.29
822.36	1710.05
822.53	1677.29
822.70	1632.23
822.88	1648.61
823.05	1732.58
823.22	1728.49
823.39	1753.06
823.56	1656.81
823.74	1808.36
823.91	1535.98
824.08	1587.18
824.25	1630.18
824.42	1796.07
824.60	1603.56
824.77	1771.49
824.94	1691.62
825.11	1740.77
825.28	1591.27
825.45	1628.14
825.63	1689.57
825.80	1609.70
825.97	1699.81
826.14	1720.29
826.31	1705.96
826.48	1740.77
826.66	1652.71
826.83	1710.05
827.00	1716.20
827.17	1693.67
827.34	1658.85
827.51	1691.62
827.69	1728.49
827.86	1619.94
828.03	1703.91
828.20	1763.30
828.37	1595.37
828.54	1685.48
828.71	1689.57
828.89	1800.16
829.06	1701.86
829.23	1779.68
829.40	1642.47
829.57	1646.57
829.74	1689.57
829.91	1656.81
830.09	1615.85
830.26	1697.77
830.43	1714.15
830.60	1697.77
830.77	1767.40
830.94	1720.29
831.11	1738.73
831.28	1656.81
831.46	1685.48
831.63	1628.14
831.80	1775.59
831.97	1667.05
832.14	1738.73
832.31	1775.59
832.48	1699.81
832.65	1722.34
832.82	1705.96
832.99	1658.85
833.17	1591.27
833.34	1681.38
833.51	1755.11
833.68	1597.42
833.85	1779.68
834.02	1642.47
834.19	1609.70
834.36	1605.61
834.53	1619.94
834.70	1757.16
834.87	1832.93
835.04	1712.10
835.22	1599.46
835.39	1665.00
835.56	1656.81
835.73	1615.85
835.90	1740.77
836.07	1605.61
836.24	1796.07
836.41	1574.89
836.58	1712.10
836.75	1771.49
836.92	1777.64
837.09	1646.57
837.26	1753.06
837.43	1697.77
837.60	1720.29
837.77	1695.72
837.94	1697.77
838.12	1748.97
838.29	1705.96
838.46	1638.38
838.63	1619.94
838.80	1824.74
838.97	1718.25
839.14	1691.62
839.31	1714.15
839.48	1708.01
839.65	1662.95
839.82	1722.34
839.99	1658.85
840.16	1650.66
840.33	1636.33
840.50	1689.57
840.67	1652.71
840.84	1511.40
841.01	1708.01
841.18	1689.57
841.35	1730.53
841.52	1726.44
841.69	1800.16
841.86	1667.05
842.03	1652.71
842.20	1726.44
842.37	1705.96
842.54	1699.81
842.71	1693.67
842.88	1689.57
843.05	1673.19
843.22	1699.81
843.39	1705.96
843.56	1693.67
843.73	1755.11
843.90	1667.05
844.07	1695.72
844.24	1708.01
844.41	1658.85
844.58	1693.67
844.75	1724.39
844.92	1755.11
845.09	1654.76
845.26	1695.72
845.43	1712.10
845.60	1656.81
845.77	1703.91
845.94	1671.14
846.10	1767.40
846.27	1583.08
846.44	1730.53
846.61	1665.00
846.78	1675.24
846.95	1738.73
847.12	1644.52
847.29	1673.19
847.46	1708.01
847.63	1740.77
847.80	1652.71
847.97	1689.57
848.14	1847.27
848.31	1738.73
848.48	1591.27
848.65	1726.44
848.82	1644.52
848.98	1718.25
849.15	1720.29
849.32	1738.73
849.49	1687.53
849.66	1673.19
849.83	1687.53
850.00	1615.85
850.17	1810.40
850.34	1673.19
850.51	1587.18
850.68	1665.00
850.85	1734.63
851.01	1718.25
851.18	1642.47
851.35	1697.77
851.52	1701.86
851.69	1746.92
851.86	1654.76
852.03	1673.19
852.20	1689.57
852.37	1701.86
852.53	1609.70
852.70	1624.04
852.87	1708.01
853.04	1679.33
853.21	1722.34
853.38	1708.01
853.55	1765.35
853.72	1828.84
853.89	1697.77
854.05	1619.94
854.22	1726.44
854.39	1632.23
854.56	1738.73
854.73	1728.49
854.90	1644.52
855.07	1628.14
855.23	1632.23
855.40	1691.62
855.57	1638.38
855.74	1546.22
855.91	1871.84
856.08	1609.70
856.25	1562.60
856.41	1722.34
856.58	1722.34
856.75	1660.90
856.92	1628.14
857.09	1794.02
857.26	1705.96
857.42	1642.47
857.59	1748.97
857.76	1671.14
857.93	1716.20
858.10	1724.39
858.27	1621.99
858.43	1699.81
858.60	1607.66
858.77	1681.38
858.94	1648.61
859.11	1767.40
859.27	1642.47
859.44	1705.96
859.61	1783.78
859.78	1720.29
859.95	1722.34
860.12	1673.19
860.28	1779.68
860.45	1853.41
860.62	1691.62
860.79	1671.14
860.95	1740.77
861.12	1615.85
861.29	1685.48
861.46	1638.38
861.63	1617.90
861.79	1636.33
861.96	1677.29
862.13	1726.44
862.30	1779.68
862.47	1703.91
862.63	1646.57
862.80	1812.45
862.97	1708.01
863.14	1701.86
863.30	1730.53
863.47	1632.23
863.64	1857.51
863.81	1730.53
863.97	1681.38
864.14	1665.00
864.31	1734.63
864.48	1748.97
864.65	1697.77
864.81	1740.77
864.98	1726.44
865.15	1785.83
865.32	1746.92
865.48	1730.53
865.65	1751.01
865.82	1642.47
865.98	1740.77
866.15	1783.78
866.32	1683.43
866.49	1679.33
866.65	1761.25
866.82	1619.94
866.99	1712.10
867.16	1722.34
867.32	1667.05
867.49	1638.38
867.66	1671.14
867.83	1632.23
867.99	1626.09
868.16	1681.38
868.33	1667.05
868.49	1763.30
868.66	1710.05
868.83	1677.29
868.99	1671.14
869.16	1667.05
869.33	1753.06
869.50	1755.11
869.66	1667.05
869.83	1605.61
870.00	1615.85
870.16	1628.14
870.33	1650.66
870.50	1775.59
870.66	1679.33
870.83	1767.40
871.00	1683.43
871.17	1767.40
871.33	1765.35
871.50	1734.63
871.67	1665.00
871.83	1607.66
872.00	1697.77
872.17	1597.42
872.33	1800.16
872.50	1710.05
872.67	1757.16
872.83	1648.61
873.00	1751.01
873.17	1742.82
873.33	1724.39
873.50	1777.64
873.67	1722.34
873.83	1636.33
874.00	1748.97
874.16	1748.97
874.33	1724.39
874.50	1667.05
874.66	1697.77
874.83	1693.67
875.00	1789.92
875.16	1748.97
875.33	1834.98
875.50	1570.79
875.66	1722.34
875.83	1705.96
875.99	1738.73
876.16	1695.72
876.33	1609.70
876.49	1701.86
876.66	1710.05
876.83	1753.06
876.99	1619.94
877.16	1611.75
877.32	1757.16
877.49	1669.09
877.66	1712.10
877.82	1730.53
877.99	1669.09
878.15	1732.58
878.32	1710.05
878.49	1777.64
878.65	1679.33
878.82	1732.58
878.98	1640.42
879.15	1703.91
879.32	1804.26
879.48	1708.01
879.65	1665.00
879.81	1675.24
879.98	1669.09
880.15	1677.29
880.31	1732.58
880.48	1587.18
880.64	1753.06
880.81	1695.72
880.97	1789.92
881.14	1773.54
881.31	1673.19
881.47	1775.59
881.64	1763.30
881.80	1687.53
881.97	1720.29
882.13	1687.53
882.30	1611.75
882.47	1738.73
882.63	1646.57
882.80	1665.00
882.96	1687.53
883.13	1734.63
883.29	1683.43
883.46	1718.25
883.62	1755.11
883.79	1714.15
883.95	1740.77
884.12	1615.85
884.29	1738.73
884.45	1705.96
884.62	1669.09
884.78	1642.47
884.95	1818.60
885.11	1644.52
885.28	1763.30
885.44	1677.29
885.61	1705.96
885.77	1769.44
885.94	1726.44
886.10	1689.57
886.27	1701.86
886.43	1794.02
886.60	1732.58
886.76	1615.85
886.93	1617.90
887.09	1703.91
887.26	1621.99
887.42	1765.35
887.59	1738.73
887.75	1886.18
887.92	1755.11
888.08	1712.10
888.25	1810.40
888.41	1673.19
888.58	1714.15
888.74	1732.58
888.91	1699.81
>>>>>End Processed Spectral Data<<<<<
