SpectraSuite Data File
++++++++++++++++++++++++++++++++++++
Date: Mon Jun 06 13:17:17 CEST 2016
User: root
Dark Spectrum Present: No
Reference Spectrum Present: No
Number of Sampled Component Spectra: 1
Spectrometers: USB4C02835
Integration Time (usec): 100000 (USB4C02835)
Spectra Averaged: 1 (USB4C02835)
Boxcar Smoothing: 0 (USB4C02835)
Correct for Electrical Dark: No (USB4C02835)
Strobe/Lamp Enabled: No (USB4C02835)
Correct for Detector Non-linearity: No (USB4C02835)
Correct for Stray Light: No (USB4C02835)
Number of Pixels in Processed Spectrum: 3648
>>>>>Begin Processed Spectral Data<<<<<
177.47	1443.82
177.69	1443.82
177.91	1443.82
178.13	1456.11
178.36	1460.20
178.58	1650.66
178.80	1773.54
179.02	1617.90
179.24	1662.95
179.46	1755.11
179.68	1771.49
179.90	1619.94
180.13	1710.05
180.35	1638.38
180.57	1705.96
180.79	1679.33
181.01	1714.15
181.23	1712.10
181.45	1734.63
181.67	1722.34
181.90	1697.77
182.12	1714.15
182.34	1642.47
182.56	1714.15
182.78	1695.72
183.00	1693.67
183.22	1849.32
183.44	1601.51
183.66	1791.97
183.89	1685.48
184.11	1693.67
184.33	1732.58
184.55	1802.21
184.77	1740.77
184.99	1734.63
185.21	1626.09
185.43	1839.08
185.65	1685.48
185.87	1634.28
186.10	1781.73
186.32	1822.69
186.54	1748.97
186.76	1779.68
186.98	1732.58
187.20	1705.96
187.42	1607.66
187.64	1671.14
187.86	1701.86
188.08	1767.40
188.30	1726.44
188.52	1695.72
188.75	1753.06
188.97	1800.16
189.19	1634.28
189.41	1562.60
189.63	1691.62
189.85	1658.85
190.07	1648.61
190.29	1636.33
190.51	1771.49
190.73	1562.60
190.95	1734.63
191.17	1732.58
191.39	1589.22
191.61	1699.81
191.84	1695.72
192.06	1673.19
192.28	1617.90
192.50	1857.51
192.72	1785.83
192.94	1703.91
193.16	1757.16
193.38	1771.49
193.60	1732.58
193.82	1732.58
194.04	1787.88
194.26	1767.40
194.48	1730.53
194.70	1640.42
194.92	1626.09
195.14	1681.38
195.36	1714.15
195.58	1769.44
195.80	1681.38
196.02	1681.38
196.24	1726.44
196.46	1736.68
196.69	1675.24
196.91	1798.12
197.13	1644.52
197.35	1689.57
197.57	1751.01
197.79	1779.68
198.01	1794.02
198.23	1765.35
198.45	1777.64
198.67	1699.81
198.89	1650.66
199.11	1712.10
199.33	1679.33
199.55	1533.93
199.77	1628.14
199.99	1820.64
200.21	1677.29
200.43	1669.09
200.65	1535.98
200.87	1587.18
201.09	1665.00
201.31	1730.53
201.53	1716.20
201.75	1730.53
201.97	1726.44
202.19	1734.63
202.41	1701.86
202.63	1849.32
202.85	1794.02
203.07	1726.44
203.29	1751.01
203.51	1624.04
203.73	1673.19
203.95	1816.55
204.17	1785.83
204.39	1705.96
204.61	1677.29
204.83	1740.77
205.05	1785.83
205.27	1798.12
205.49	1755.11
205.71	1726.44
205.93	1701.86
206.15	1642.47
206.37	1689.57
206.59	1693.67
206.81	1644.52
207.03	1669.09
207.25	1660.90
207.47	1703.91
207.69	1699.81
207.91	1806.31
208.13	1800.16
208.34	1722.34
208.56	1656.81
208.78	1759.21
209.00	1689.57
209.22	1734.63
209.44	1652.71
209.66	1636.33
209.88	1646.57
210.10	1574.89
210.32	1734.63
210.54	1798.12
210.76	1644.52
210.98	1751.01
211.20	1583.08
211.42	1724.39
211.64	1806.31
211.86	1710.05
212.08	1769.44
212.30	1785.83
212.52	1685.48
212.74	1757.16
212.96	1736.68
213.17	1710.05
213.39	1718.25
213.61	1791.97
213.83	1779.68
214.05	1677.29
214.27	1738.73
214.49	1644.52
214.71	1712.10
214.93	1718.25
215.15	1789.92
215.37	1705.96
215.59	1599.46
215.81	1724.39
216.03	1751.01
216.24	1679.33
216.46	1732.58
216.68	1701.86
216.90	1757.16
217.12	1703.91
217.34	1767.40
217.56	1722.34
217.78	1751.01
218.00	1689.57
218.22	1728.49
218.44	1724.39
218.66	1724.39
218.87	1777.64
219.09	1691.62
219.31	1746.92
219.53	1675.24
219.75	1675.24
219.97	1650.66
220.19	1681.38
220.41	1765.35
220.63	1720.29
220.85	1695.72
221.06	1652.71
221.28	1828.84
221.50	1712.10
221.72	1683.43
221.94	1667.05
222.16	1660.90
222.38	1722.34
222.60	1708.01
222.82	1771.49
223.03	1683.43
223.25	1587.18
223.47	1798.12
223.69	1812.45
223.91	1716.20
224.13	1675.24
224.35	1724.39
224.57	1738.73
224.78	1740.77
225.00	1607.66
225.22	1748.97
225.44	1658.85
225.66	1759.21
225.88	1615.85
226.10	1746.92
226.32	1671.14
226.53	1716.20
226.75	1732.58
226.97	1730.53
227.19	1710.05
227.41	1656.81
227.63	1660.90
227.85	1644.52
228.06	1730.53
228.28	1730.53
228.50	1732.58
228.72	1714.15
228.94	1687.53
229.16	1630.18
229.37	1589.22
229.59	1669.09
229.81	1767.40
230.03	1691.62
230.25	1578.98
230.47	1603.56
230.69	1615.85
230.90	1701.86
231.12	1689.57
231.34	1669.09
231.56	1773.54
231.78	1671.14
232.00	1800.16
232.21	1617.90
232.43	1634.28
232.65	1619.94
232.87	1738.73
233.09	1652.71
233.30	1640.42
233.52	1691.62
233.74	1644.52
233.96	1689.57
234.18	1667.05
234.40	1716.20
234.61	1906.66
234.83	1607.66
235.05	1669.09
235.27	1802.21
235.49	1843.17
235.70	1587.18
235.92	1785.83
236.14	1665.00
236.36	1804.26
236.58	1628.14
236.79	1777.64
237.01	1679.33
237.23	1689.57
237.45	1746.92
237.67	1624.04
237.88	1689.57
238.10	1834.98
238.32	1611.75
238.54	1624.04
238.76	1746.92
238.97	1597.42
239.19	1652.71
239.41	1722.34
239.63	1771.49
239.85	1658.85
240.06	1640.42
240.28	1712.10
240.50	1779.68
240.72	1695.72
240.93	1673.19
241.15	1781.73
241.37	1644.52
241.59	1845.22
241.81	1775.59
242.02	1638.38
242.24	1789.92
242.46	1771.49
242.68	1589.22
242.89	1685.48
243.11	1654.76
243.33	1783.78
243.55	1826.79
243.76	1724.39
243.98	1693.67
244.20	1665.00
244.42	1697.77
244.64	1708.01
244.85	1695.72
245.07	1640.42
245.29	1847.27
245.51	1671.14
245.72	1751.01
245.94	1830.88
246.16	1712.10
246.38	1748.97
246.59	1626.09
246.81	1648.61
247.03	1685.48
247.24	1615.85
247.46	1697.77
247.68	1722.34
247.90	1646.57
248.11	1710.05
248.33	1722.34
248.55	1683.43
248.77	1720.29
248.98	1757.16
249.20	1779.68
249.42	1708.01
249.64	1746.92
249.85	1644.52
250.07	1646.57
250.29	1656.81
250.50	1718.25
250.72	1640.42
250.94	1732.58
251.16	1771.49
251.37	1824.74
251.59	1746.92
251.81	1632.23
252.02	1828.84
252.24	1636.33
252.46	1755.11
252.68	1677.29
252.89	1583.08
253.11	1593.32
253.33	1742.82
253.54	1814.50
253.76	1624.04
253.98	1716.20
254.20	1642.47
254.41	1619.94
254.63	1656.81
254.85	1650.66
255.06	1703.91
255.28	1744.87
255.50	1675.24
255.71	1619.94
255.93	1701.86
256.15	1617.90
256.36	1800.16
256.58	1652.71
256.80	1746.92
257.02	1593.32
257.23	1677.29
257.45	1761.25
257.67	1810.40
257.88	1595.37
258.10	1740.77
258.32	1667.05
258.53	1697.77
258.75	1806.31
258.97	1693.67
259.18	1712.10
259.40	1650.66
259.62	1804.26
259.83	1855.46
260.05	1701.86
260.27	1927.14
260.48	1687.53
260.70	1728.49
260.92	1693.67
261.13	1744.87
261.35	1714.15
261.57	1810.40
261.78	1667.05
262.00	1699.81
262.22	1656.81
262.43	1619.94
262.65	1728.49
262.86	1687.53
263.08	1808.36
263.30	1746.92
263.51	1568.74
263.73	1650.66
263.95	1843.17
264.16	1574.89
264.38	1658.85
264.60	1781.73
264.81	1701.86
265.03	1730.53
265.25	1730.53
265.46	1703.91
265.68	1742.82
265.89	1759.21
266.11	1607.66
266.33	1746.92
266.54	1755.11
266.76	1738.73
266.98	1724.39
267.19	1701.86
267.41	1732.58
267.62	1665.00
267.84	1658.85
268.06	1685.48
268.27	1628.14
268.49	1669.09
268.70	1806.31
268.92	1748.97
269.14	1654.76
269.35	1591.27
269.57	1796.07
269.79	1708.01
270.00	1679.33
270.22	1726.44
270.43	1617.90
270.65	1515.50
270.87	1757.16
271.08	1791.97
271.30	1767.40
271.51	1673.19
271.73	1757.16
271.95	1703.91
272.16	1742.82
272.38	1689.57
272.59	1640.42
272.81	1705.96
273.02	1679.33
273.24	1802.21
273.46	1722.34
273.67	1599.46
273.89	1683.43
274.10	1665.00
274.32	1763.30
274.54	1724.39
274.75	1710.05
274.97	1794.02
275.18	1746.92
275.40	1691.62
275.61	1722.34
275.83	1738.73
276.05	1607.66
276.26	1638.38
276.48	1769.44
276.69	1689.57
276.91	1662.95
277.12	1712.10
277.34	1785.83
277.55	1669.09
277.77	1734.63
277.99	1640.42
278.20	1669.09
278.42	1669.09
278.63	1675.24
278.85	1660.90
279.06	1607.66
279.28	1775.59
279.49	1787.88
279.71	1791.97
279.93	1705.96
280.14	1701.86
280.36	1654.76
280.57	1761.25
280.79	1775.59
281.00	1673.19
281.22	1562.60
281.43	1773.54
281.65	1552.36
281.86	1624.04
282.08	1783.78
282.29	1740.77
282.51	1660.90
282.73	1673.19
282.94	1648.61
283.16	1720.29
283.37	1822.69
283.59	1730.53
283.80	1693.67
284.02	1718.25
284.23	1800.16
284.45	1687.53
284.66	1615.85
284.88	1638.38
285.09	1673.19
285.31	1662.95
285.52	1728.49
285.74	1634.28
285.95	1753.06
286.17	1658.85
286.38	1744.87
286.60	1626.09
286.81	1669.09
287.03	1705.96
287.24	1634.28
287.46	1708.01
287.67	1644.52
287.89	1771.49
288.10	1660.90
288.32	1705.96
288.53	1771.49
288.75	1714.15
288.96	1755.11
289.18	1675.24
289.39	1662.95
289.61	1757.16
289.82	1816.55
290.04	1880.04
290.25	1675.24
290.47	1656.81
290.68	1656.81
290.90	1665.00
291.11	1583.08
291.33	1708.01
291.54	1609.70
291.76	1624.04
291.97	1701.86
292.18	1675.24
292.40	1695.72
292.61	1669.09
292.83	1857.51
293.04	1779.68
293.26	1701.86
293.47	1736.68
293.69	1615.85
293.90	1783.78
294.12	1726.44
294.33	1640.42
294.55	1705.96
294.76	1765.35
294.97	1736.68
295.19	1791.97
295.40	1646.57
295.62	1773.54
295.83	1763.30
296.05	1730.53
296.26	1730.53
296.48	1722.34
296.69	1603.56
296.90	1767.40
297.12	1744.87
297.33	1757.16
297.55	1738.73
297.76	1800.16
297.98	1748.97
298.19	1701.86
298.41	1683.43
298.62	1605.61
298.83	1845.22
299.05	1669.09
299.26	1652.71
299.48	1636.33
299.69	1759.21
299.90	1712.10
300.12	1656.81
300.33	1701.86
300.55	1685.48
300.76	1669.09
300.98	1609.70
301.19	1667.05
301.40	1650.66
301.62	1681.38
301.83	1826.79
302.05	1665.00
302.26	1691.62
302.47	1744.87
302.69	1732.58
302.90	1621.99
303.12	1593.32
303.33	1732.58
303.54	1808.36
303.76	1673.19
303.97	1687.53
304.19	1843.17
304.40	1691.62
304.61	1767.40
304.83	1787.88
305.04	1722.34
305.26	1708.01
305.47	1658.85
305.68	1669.09
305.90	1662.95
306.11	1742.82
306.33	1693.67
306.54	1662.95
306.75	1689.57
306.97	1640.42
307.18	1587.18
307.39	1638.38
307.61	1755.11
307.82	1736.68
308.04	1701.86
308.25	1660.90
308.46	1693.67
308.68	1710.05
308.89	1656.81
309.10	1705.96
309.32	1722.34
309.53	1810.40
309.74	1648.61
309.96	1685.48
310.17	1816.55
310.39	1632.23
310.60	1771.49
310.81	1718.25
311.03	1613.80
311.24	1738.73
311.45	1708.01
311.67	1855.46
311.88	1617.90
312.09	1773.54
312.31	1652.71
312.52	1685.48
312.73	1665.00
312.95	1632.23
313.16	1673.19
313.37	1716.20
313.59	1658.85
313.80	1669.09
314.01	1767.40
314.23	1693.67
314.44	1640.42
314.65	1648.61
314.87	1617.90
315.08	1693.67
315.29	1687.53
315.51	1675.24
315.72	1613.80
315.93	1806.31
316.15	1732.58
316.36	1587.18
316.57	1648.61
316.79	1716.20
317.00	1642.47
317.21	1720.29
317.43	1710.05
317.64	1744.87
317.85	1656.81
318.07	1722.34
318.28	1691.62
318.49	1794.02
318.70	1865.70
318.92	1734.63
319.13	1910.75
319.34	1804.26
319.56	1787.88
319.77	1781.73
319.98	1779.68
320.20	1787.88
320.41	1761.25
320.62	1720.29
320.83	1599.46
321.05	1837.03
321.26	1654.76
321.47	1714.15
321.69	1761.25
321.90	1599.46
322.11	1662.95
322.32	1751.01
322.54	1751.01
322.75	1658.85
322.96	1781.73
323.18	1585.13
323.39	1574.89
323.60	1759.21
323.81	1714.15
324.03	1673.19
324.24	1642.47
324.45	1660.90
324.66	1677.29
324.88	1783.78
325.09	1779.68
325.30	1761.25
325.52	1677.29
325.73	1724.39
325.94	1675.24
326.15	1613.80
326.37	1695.72
326.58	1720.29
326.79	1765.35
327.00	1636.33
327.22	1671.14
327.43	1697.77
327.64	1613.80
327.85	1718.25
328.07	1708.01
328.28	1742.82
328.49	1712.10
328.70	1634.28
328.92	1691.62
329.13	1621.99
329.34	1771.49
329.55	1716.20
329.76	1714.15
329.98	1738.73
330.19	1802.21
330.40	1783.78
330.61	1730.53
330.83	1703.91
331.04	1697.77
331.25	1705.96
331.46	1609.70
331.68	1646.57
331.89	1699.81
332.10	1695.72
332.31	1621.99
332.52	1734.63
332.74	1746.92
332.95	1669.09
333.16	1660.90
333.37	1689.57
333.58	1691.62
333.80	1732.58
334.01	1628.14
334.22	1685.48
334.43	1695.72
334.64	1687.53
334.86	1628.14
335.07	1695.72
335.28	1789.92
335.49	1644.52
335.70	1677.29
335.92	1755.11
336.13	1863.65
336.34	1738.73
336.55	1677.29
336.76	1716.20
336.98	1628.14
337.19	1650.66
337.40	1800.16
337.61	1798.12
337.82	1656.81
338.04	1748.97
338.25	1626.09
338.46	1712.10
338.67	1693.67
338.88	1632.23
339.09	1654.76
339.31	1619.94
339.52	1638.38
339.73	1751.01
339.94	1716.20
340.15	1736.68
340.36	1621.99
340.58	1677.29
340.79	1658.85
341.00	1634.28
341.21	1624.04
341.42	1841.12
341.63	1665.00
341.85	1751.01
342.06	1701.86
342.27	1675.24
342.48	1740.77
342.69	1636.33
342.90	1746.92
343.12	1679.33
343.33	1710.05
343.54	1822.69
343.75	1753.06
343.96	1654.76
344.17	1669.09
344.38	1632.23
344.60	1648.61
344.81	1595.37
345.02	1693.67
345.23	1660.90
345.44	1785.83
345.65	1718.25
345.86	1724.39
346.07	1673.19
346.29	1648.61
346.50	1714.15
346.71	1738.73
346.92	1769.44
347.13	1830.88
347.34	1669.09
347.55	1705.96
347.76	1718.25
347.98	1693.67
348.19	1665.00
348.40	1736.68
348.61	1701.86
348.82	1818.60
349.03	1732.58
349.24	1685.48
349.45	1724.39
349.66	1570.79
349.88	1728.49
350.09	1667.05
350.30	1818.60
350.51	1783.78
350.72	1710.05
350.93	1701.86
351.14	1656.81
351.35	1699.81
351.56	1656.81
351.77	1703.91
351.99	1748.97
352.20	1841.12
352.41	1806.31
352.62	1601.51
352.83	1609.70
353.04	1722.34
353.25	1665.00
353.46	1720.29
353.67	1781.73
353.88	1578.98
354.09	1748.97
354.30	1683.43
354.52	1787.88
354.73	1724.39
354.94	1697.77
355.15	1691.62
355.36	1757.16
355.57	1677.29
355.78	1699.81
355.99	1619.94
356.20	1693.67
356.41	1751.01
356.62	1712.10
356.83	1765.35
357.04	1751.01
357.25	1607.66
357.46	1667.05
357.68	1583.08
357.89	1609.70
358.10	1730.53
358.31	1708.01
358.52	1705.96
358.73	1564.65
358.94	1677.29
359.15	1701.86
359.36	1699.81
359.57	1705.96
359.78	1669.09
359.99	1648.61
360.20	1591.27
360.41	1634.28
360.62	1728.49
360.83	1671.14
361.04	1699.81
361.25	1744.87
361.46	1779.68
361.67	1679.33
361.88	1763.30
362.09	1757.16
362.30	1742.82
362.51	1578.98
362.72	1675.24
362.93	1759.21
363.14	1705.96
363.35	1687.53
363.56	1677.29
363.78	1757.16
363.99	1763.30
364.20	1658.85
364.41	1773.54
364.62	1652.71
364.83	1742.82
365.04	1654.76
365.25	1740.77
365.46	1849.32
365.67	1675.24
365.88	1574.89
366.09	1628.14
366.30	1722.34
366.51	1728.49
366.72	1644.52
366.93	1677.29
367.14	1693.67
367.35	1726.44
367.56	1742.82
367.77	1751.01
367.98	1730.53
368.18	1708.01
368.39	1693.67
368.60	1628.14
368.81	1648.61
369.02	1736.68
369.23	1705.96
369.44	1609.70
369.65	1697.77
369.86	1691.62
370.07	1761.25
370.28	1632.23
370.49	1767.40
370.70	1748.97
370.91	1701.86
371.12	1628.14
371.33	1759.21
371.54	1658.85
371.75	1828.84
371.96	1599.46
372.17	1662.95
372.38	1746.92
372.59	1650.66
372.80	1783.78
373.01	1591.27
373.22	1703.91
373.43	1744.87
373.64	1644.52
373.85	1685.48
374.06	1779.68
374.26	1673.19
374.47	1679.33
374.68	1814.50
374.89	1753.06
375.10	1634.28
375.31	1834.98
375.52	1712.10
375.73	1716.20
375.94	1626.09
376.15	1771.49
376.36	1632.23
376.57	1648.61
376.78	1667.05
376.99	1740.77
377.20	1771.49
377.40	1652.71
377.61	1787.88
377.82	1640.42
378.03	1675.24
378.24	1777.64
378.45	1771.49
378.66	1658.85
378.87	1626.09
379.08	1615.85
379.29	1652.71
379.50	1804.26
379.71	1648.61
379.91	1771.49
380.12	1730.53
380.33	1736.68
380.54	1630.18
380.75	1689.57
380.96	1662.95
381.17	1820.64
381.38	1763.30
381.59	1779.68
381.80	1703.91
382.00	1746.92
382.21	1718.25
382.42	1828.84
382.63	1886.18
382.84	1763.30
383.05	1753.06
383.26	1755.11
383.47	1660.90
383.68	1751.01
383.88	1767.40
384.09	1636.33
384.30	1802.21
384.51	1722.34
384.72	1638.38
384.93	1675.24
385.14	1691.62
385.35	1738.73
385.55	1595.37
385.76	1787.88
385.97	1693.67
386.18	1705.96
386.39	1619.94
386.60	1681.38
386.81	1660.90
387.02	1607.66
387.22	1572.84
387.43	1777.64
387.64	1759.21
387.85	1861.60
388.06	2252.77
388.27	4331.45
388.48	6918.04
388.68	8140.68
388.89	9742.19
389.10	9637.74
389.31	8630.14
389.52	7550.86
389.73	6662.04
389.93	6166.43
390.14	5840.81
390.35	5314.48
390.56	4542.39
390.77	3825.61
390.98	2983.89
391.18	2490.33
391.39	2076.64
391.60	1845.22
391.81	1925.09
392.02	1742.82
392.23	1816.55
392.43	1800.16
392.64	1847.27
392.85	1716.20
393.06	1787.88
393.27	1685.48
393.47	1665.00
393.68	1708.01
393.89	1722.34
394.10	1773.54
394.31	1697.77
394.52	1650.66
394.72	1671.14
394.93	1824.74
395.14	1718.25
395.35	1757.16
395.56	1705.96
395.76	1665.00
395.97	1832.93
396.18	1806.31
396.39	1816.55
396.60	1945.57
396.80	1859.56
397.01	1826.79
397.22	1779.68
397.43	1826.79
397.64	1771.49
397.84	1796.07
398.05	1828.84
398.26	1763.30
398.47	1851.36
398.67	1767.40
398.88	1693.67
399.09	1763.30
399.30	1634.28
399.51	1775.59
399.71	1621.99
399.92	1732.58
400.13	1685.48
400.34	1781.73
400.54	1677.29
400.75	1818.60
400.96	1785.83
401.17	1814.50
401.37	1683.43
401.58	1665.00
401.79	1681.38
402.00	1871.84
402.21	2076.64
402.41	1951.71
402.62	1982.43
402.83	2056.16
403.04	1976.29
403.24	2039.78
403.45	1904.61
403.66	1925.09
403.87	1898.47
404.07	1937.38
404.28	1894.37
404.49	1816.55
404.70	1796.07
404.90	1716.20
405.11	1710.05
405.32	1742.82
405.52	1708.01
405.73	1675.24
405.94	1630.18
406.15	1681.38
406.35	1720.29
406.56	1755.11
406.77	1726.44
406.98	1742.82
407.18	1685.48
407.39	1773.54
407.60	1699.81
407.80	1751.01
408.01	1673.19
408.22	1744.87
408.43	1687.53
408.63	1738.73
408.84	1773.54
409.05	1771.49
409.25	1652.71
409.46	1650.66
409.67	1640.42
409.88	1658.85
410.08	1683.43
410.29	1630.18
410.50	1736.68
410.70	1730.53
410.91	1585.13
411.12	1794.02
411.32	1681.38
411.53	1642.47
411.74	1800.16
411.95	1744.87
412.15	1693.67
412.36	1763.30
412.57	1839.08
412.77	1818.60
412.98	1763.30
413.19	1652.71
413.39	1779.68
413.60	1708.01
413.81	1759.21
414.01	1685.48
414.22	1763.30
414.43	1689.57
414.63	1691.62
414.84	1712.10
415.05	1730.53
415.25	1558.50
415.46	1746.92
415.67	1714.15
415.87	1744.87
416.08	1677.29
416.29	1632.23
416.49	1748.97
416.70	1665.00
416.91	1652.71
417.11	1603.56
417.32	1720.29
417.53	1832.93
417.73	1689.57
417.94	1640.42
418.15	1722.34
418.35	1724.39
418.56	1697.77
418.77	1826.79
418.97	1697.77
419.18	1687.53
419.38	1636.33
419.59	1669.09
419.80	1791.97
420.00	1681.38
420.21	1708.01
420.42	1769.44
420.62	1691.62
420.83	1636.33
421.04	1677.29
421.24	1708.01
421.45	1740.77
421.65	1742.82
421.86	1738.73
422.07	1693.67
422.27	1722.34
422.48	1693.67
422.69	1617.90
422.89	1712.10
423.10	1763.30
423.30	1648.61
423.51	1669.09
423.72	1740.77
423.92	1757.16
424.13	1748.97
424.33	1738.73
424.54	1785.83
424.75	1699.81
424.95	1751.01
425.16	1744.87
425.36	1681.38
425.57	1748.97
425.78	1710.05
425.98	1757.16
426.19	1755.11
426.39	1701.86
426.60	1685.48
426.81	1712.10
427.01	1724.39
427.22	1685.48
427.42	1570.79
427.63	1609.70
427.83	1644.52
428.04	1798.12
428.25	1781.73
428.45	1685.48
428.66	1767.40
428.86	1634.28
429.07	1714.15
429.28	1714.15
429.48	1658.85
429.69	1624.04
429.89	1667.05
430.10	1656.81
430.30	1738.73
430.51	1738.73
430.71	1722.34
430.92	1734.63
431.13	1714.15
431.33	1773.54
431.54	1808.36
431.74	1689.57
431.95	1828.84
432.15	1658.85
432.36	1714.15
432.56	1791.97
432.77	1804.26
432.98	1775.59
433.18	1738.73
433.39	1742.82
433.59	1767.40
433.80	1834.98
434.00	1851.36
434.21	1662.95
434.41	1632.23
434.62	1779.68
434.82	1642.47
435.03	1652.71
435.23	1728.49
435.44	1562.60
435.64	1710.05
435.85	1685.48
436.06	1720.29
436.26	1740.77
436.47	1703.91
436.67	1658.85
436.88	1697.77
437.08	1753.06
437.29	1779.68
437.49	1634.28
437.70	1789.92
437.90	1681.38
438.11	1900.52
438.31	1804.26
438.52	1845.22
438.72	1738.73
438.93	1871.84
439.13	1779.68
439.34	1832.93
439.54	1714.15
439.75	1779.68
439.95	1804.26
440.16	1656.81
440.36	1695.72
440.57	1765.35
440.77	1775.59
440.98	1691.62
441.18	1763.30
441.39	1679.33
441.59	1691.62
441.80	1808.36
442.00	1755.11
442.21	1832.93
442.41	1732.58
442.62	1824.74
442.82	1621.99
443.02	1755.11
443.23	1734.63
443.43	1755.11
443.64	1796.07
443.84	1646.57
444.05	1849.32
444.25	1726.44
444.46	1724.39
444.66	1679.33
444.87	1800.16
445.07	1634.28
445.28	1679.33
445.48	1812.45
445.69	1748.97
445.89	1910.75
446.09	1718.25
446.30	2054.11
446.50	2656.22
446.71	3725.26
446.91	4179.90
447.12	4759.48
447.32	4814.77
447.53	4263.87
447.73	3885.00
447.93	3502.03
448.14	3291.09
448.34	3190.74
448.55	2852.82
448.75	2801.62
448.96	2650.07
449.16	2553.82
449.36	2271.20
449.57	2039.78
449.77	1947.62
449.98	1808.36
450.18	1798.12
450.39	1849.32
450.59	1691.62
450.79	1751.01
451.00	1699.81
451.20	1814.50
451.41	1628.14
451.61	1761.25
451.81	1689.57
452.02	1699.81
452.22	1658.85
452.43	1689.57
452.63	1665.00
452.84	1796.07
453.04	1763.30
453.24	1791.97
453.45	1693.67
453.65	1734.63
453.86	1812.45
454.06	1800.16
454.26	1712.10
454.47	1687.53
454.67	1834.98
454.87	1714.15
455.08	1703.91
455.28	1753.06
455.49	1730.53
455.69	1636.33
455.89	1837.03
456.10	1769.44
456.30	1705.96
456.51	1796.07
456.71	1740.77
456.91	1775.59
457.12	1667.05
457.32	1724.39
457.52	1642.47
457.73	1718.25
457.93	1798.12
458.14	1755.11
458.34	1677.29
458.54	1654.76
458.75	1712.10
458.95	1763.30
459.15	1755.11
459.36	1771.49
459.56	1763.30
459.76	1822.69
459.97	1769.44
460.17	1773.54
460.37	1732.58
460.58	1712.10
460.78	1703.91
460.99	1632.23
461.19	1656.81
461.39	1716.20
461.60	1683.43
461.80	1843.17
462.00	1665.00
462.21	1796.07
462.41	1681.38
462.61	1665.00
462.82	1667.05
463.02	1767.40
463.22	1767.40
463.43	1759.21
463.63	1763.30
463.83	1718.25
464.04	1748.97
464.24	1708.01
464.44	1632.23
464.64	1705.96
464.85	1767.40
465.05	1808.36
465.25	1730.53
465.46	1714.15
465.66	1753.06
465.86	1685.48
466.07	1808.36
466.27	1621.99
466.47	1671.14
466.68	1646.57
466.88	1789.92
467.08	1630.18
467.29	1763.30
467.49	1787.88
467.69	1748.97
467.89	1744.87
468.10	1753.06
468.30	1742.82
468.50	1726.44
468.71	1796.07
468.91	1667.05
469.11	1896.42
469.31	1718.25
469.52	1597.42
469.72	1851.36
469.92	1785.83
470.13	1728.49
470.33	1681.38
470.53	1804.26
470.73	2088.93
470.94	2279.39
471.14	2334.68
471.34	2521.05
471.54	2346.97
471.75	2246.62
471.95	2148.32
472.15	2086.88
472.36	2002.91
472.56	2031.58
472.76	2076.64
472.96	1953.76
473.17	1941.47
473.37	1933.28
473.57	1773.54
473.77	1730.53
473.98	1839.08
474.18	1701.86
474.38	1996.77
474.58	1615.85
474.79	1699.81
474.99	1804.26
475.19	1742.82
475.39	1685.48
475.60	1728.49
475.80	1781.73
476.00	1681.38
476.20	1703.91
476.41	1697.77
476.61	1775.59
476.81	1796.07
477.01	1611.75
477.21	1767.40
477.42	1822.69
477.62	1673.19
477.82	1816.55
478.02	1660.90
478.23	1759.21
478.43	1675.24
478.63	1646.57
478.83	1621.99
479.03	1681.38
479.24	1755.11
479.44	1884.13
479.64	1687.53
479.84	1628.14
480.04	1624.04
480.25	1753.06
480.45	1708.01
480.65	1675.24
480.85	1802.21
481.06	1658.85
481.26	1775.59
481.46	1697.77
481.66	1683.43
481.86	1683.43
482.06	1834.98
482.27	1763.30
482.47	1662.95
482.67	1724.39
482.87	1675.24
483.07	1732.58
483.28	1703.91
483.48	1566.70
483.68	1628.14
483.88	1755.11
484.08	1587.18
484.29	1615.85
484.49	1767.40
484.69	1775.59
484.89	1753.06
485.09	1779.68
485.29	1783.78
485.50	1685.48
485.70	1679.33
485.90	1755.11
486.10	1746.92
486.30	1746.92
486.50	1671.14
486.71	1746.92
486.91	1794.02
487.11	1839.08
487.31	1640.42
487.51	1746.92
487.71	1691.62
487.91	1626.09
488.12	1656.81
488.32	1615.85
488.52	1763.30
488.72	1626.09
488.92	1787.88
489.12	1771.49
489.32	1839.08
489.53	1701.86
489.73	1669.09
489.93	1849.32
490.13	1677.29
490.33	1646.57
490.53	1693.67
490.73	1730.53
490.94	1697.77
491.14	1710.05
491.34	1837.03
491.54	2123.74
491.74	2572.25
491.94	2863.06
492.14	3016.66
492.34	2869.20
492.54	2684.89
492.75	2535.39
492.95	2437.08
493.15	2338.78
493.35	2240.48
493.55	2332.64
493.75	2172.89
493.95	2140.13
494.15	1964.00
494.35	1935.33
494.56	1771.49
494.76	1826.79
494.96	1875.94
495.16	1779.68
495.36	1753.06
495.56	1787.88
495.76	1728.49
495.96	1673.19
496.16	1603.56
496.36	1800.16
496.56	1771.49
496.77	1753.06
496.97	1734.63
497.17	1824.74
497.37	1617.90
497.57	1740.77
497.77	1798.12
497.97	1718.25
498.17	1775.59
498.37	1630.18
498.57	1722.34
498.77	1712.10
498.97	1734.63
499.17	1804.26
499.38	1626.09
499.58	1751.01
499.78	1877.99
499.98	1769.44
500.18	1710.05
500.38	1781.73
500.58	1841.12
500.78	2590.68
500.98	4499.39
501.18	5765.03
501.38	6885.27
501.58	7098.26
501.78	6627.23
501.98	5470.12
502.18	4984.76
502.38	4276.16
502.58	4190.14
502.78	3698.63
502.98	3594.19
503.18	3493.83
503.38	3155.92
503.59	2848.72
503.79	2672.60
503.99	2437.08
504.19	2310.11
504.39	2244.57
504.59	2181.09
504.79	2115.55
504.99	2074.59
505.19	1925.09
505.39	1894.37
505.59	2011.11
505.79	1798.12
505.99	1798.12
506.19	1886.18
506.39	1859.56
506.59	1777.64
506.79	1732.58
506.99	1798.12
507.19	1757.16
507.39	1771.49
507.59	1689.57
507.79	1687.53
507.99	1748.97
508.19	1675.24
508.39	1658.85
508.59	1701.86
508.79	1814.50
508.99	1888.23
509.19	1652.71
509.39	1779.68
509.59	1701.86
509.79	1728.49
509.99	1742.82
510.19	1767.40
510.39	1775.59
510.59	1685.48
510.79	1695.72
510.99	1769.44
511.19	1701.86
511.39	1845.22
511.59	1796.07
511.79	1853.41
511.99	1685.48
512.19	1779.68
512.38	1783.78
512.58	1796.07
512.78	1765.35
512.98	1898.47
513.18	1722.34
513.38	1667.05
513.58	1796.07
513.78	1732.58
513.98	1724.39
514.18	1726.44
514.38	1699.81
514.58	1732.58
514.78	1730.53
514.98	1701.86
515.18	1751.01
515.38	1693.67
515.58	1861.60
515.78	1748.97
515.98	1681.38
516.18	1759.21
516.38	1722.34
516.57	1712.10
516.77	1714.15
516.97	1785.83
517.17	1667.05
517.37	1597.42
517.57	1734.63
517.77	1701.86
517.97	1734.63
518.17	1763.30
518.37	1656.81
518.57	1722.34
518.77	1753.06
518.97	1697.77
519.16	1757.16
519.36	1775.59
519.56	1705.96
519.76	1660.90
519.96	1732.58
520.16	1882.08
520.36	1695.72
520.56	1763.30
520.76	1681.38
520.96	1708.01
521.16	1714.15
521.35	1816.55
521.55	1785.83
521.75	1761.25
521.95	1742.82
522.15	1732.58
522.35	1660.90
522.55	1722.34
522.75	1742.82
522.95	1773.54
523.14	1689.57
523.34	1718.25
523.54	1730.53
523.74	1779.68
523.94	1742.82
524.14	1599.46
524.34	1781.73
524.54	1722.34
524.73	1738.73
524.93	1794.02
525.13	1716.20
525.33	1632.23
525.53	1888.23
525.73	1789.92
525.93	1769.44
526.13	1699.81
526.32	1667.05
526.52	1828.84
526.72	1681.38
526.92	1751.01
527.12	1740.77
527.32	1667.05
527.52	1751.01
527.71	1777.64
527.91	1724.39
528.11	1714.15
528.31	1712.10
528.51	1712.10
528.71	1814.50
528.90	1755.11
529.10	1806.31
529.30	1855.46
529.50	1587.18
529.70	1650.66
529.90	1710.05
530.09	1714.15
530.29	1632.23
530.49	1732.58
530.69	1841.12
530.89	1726.44
531.09	1814.50
531.28	1665.00
531.48	1814.50
531.68	1632.23
531.88	1730.53
532.08	1814.50
532.28	1851.36
532.47	1810.40
532.67	1769.44
532.87	1761.25
533.07	1574.89
533.27	1783.78
533.46	1697.77
533.66	1761.25
533.86	1691.62
534.06	1609.70
534.26	1687.53
534.45	1695.72
534.65	1849.32
534.85	1708.01
535.05	1742.82
535.25	1798.12
535.44	1607.66
535.64	1863.65
535.84	1669.09
536.04	1748.97
536.24	1658.85
536.43	1693.67
536.63	1722.34
536.83	1624.04
537.03	1734.63
537.22	1705.96
537.42	1634.28
537.62	1775.59
537.82	1697.77
538.02	1843.17
538.21	1814.50
538.41	1865.70
538.61	1759.21
538.81	1687.53
539.00	1820.64
539.20	1771.49
539.40	1705.96
539.60	1791.97
539.79	1828.84
539.99	1771.49
540.19	1640.42
540.39	1685.48
540.58	1736.68
540.78	1781.73
540.98	1738.73
541.18	1775.59
541.37	1759.21
541.57	1693.67
541.77	1677.29
541.97	1595.37
542.16	1669.09
542.36	1765.35
542.56	1751.01
542.76	1822.69
542.95	1730.53
543.15	1718.25
543.35	1730.53
543.54	1740.77
543.74	1681.38
543.94	1806.31
544.14	1712.10
544.33	1716.20
544.53	1746.92
544.73	1685.48
544.93	1755.11
545.12	1716.20
545.32	1718.25
545.52	1730.53
545.71	1615.85
545.91	1714.15
546.11	1701.86
546.30	1744.87
546.50	1701.86
546.70	1751.01
546.90	1771.49
547.09	1640.42
547.29	1771.49
547.49	1787.88
547.68	1777.64
547.88	1636.33
548.08	1781.73
548.27	2185.18
548.47	1656.81
548.67	1736.68
548.87	1777.64
549.06	1712.10
549.26	1738.73
549.46	1701.86
549.65	1638.38
549.85	1816.55
550.05	1804.26
550.24	1730.53
550.44	1701.86
550.64	1665.00
550.83	1671.14
551.03	1802.21
551.23	1767.40
551.42	1726.44
551.62	1755.11
551.82	1732.58
552.01	1740.77
552.21	1826.79
552.41	1804.26
552.60	1808.36
552.80	1765.35
553.00	1662.95
553.19	1693.67
553.39	1783.78
553.59	1662.95
553.78	1632.23
553.98	1728.49
554.17	1716.20
554.37	1767.40
554.57	1789.92
554.76	1662.95
554.96	1677.29
555.16	1740.77
555.35	1699.81
555.55	1783.78
555.75	1804.26
555.94	1757.16
556.14	1693.67
556.33	1796.07
556.53	1697.77
556.73	1814.50
556.92	1730.53
557.12	1847.27
557.32	1806.31
557.51	1806.31
557.71	1814.50
557.90	1761.25
558.10	1841.12
558.30	1677.29
558.49	1724.39
558.69	1740.77
558.88	1804.26
559.08	1730.53
559.28	1677.29
559.47	1714.15
559.67	1761.25
559.86	1781.73
560.06	1601.51
560.26	1714.15
560.45	1755.11
560.65	1751.01
560.84	1796.07
561.04	1675.24
561.24	1763.30
561.43	1685.48
561.63	1781.73
561.82	1730.53
562.02	1703.91
562.22	1685.48
562.41	1693.67
562.61	1691.62
562.80	1767.40
563.00	1855.46
563.19	1712.10
563.39	1796.07
563.59	1779.68
563.78	1677.29
563.98	1626.09
564.17	1650.66
564.37	1685.48
564.56	1708.01
564.76	1656.81
564.96	1894.37
565.15	1812.45
565.35	1816.55
565.54	1726.44
565.74	1787.88
565.93	1769.44
566.13	1636.33
566.32	1779.68
566.52	1759.21
566.71	1714.15
566.91	1779.68
567.11	1748.97
567.30	1658.85
567.50	1708.01
567.69	1728.49
567.89	1775.59
568.08	1628.14
568.28	1794.02
568.47	1613.80
568.67	1724.39
568.86	1685.48
569.06	1796.07
569.25	1755.11
569.45	1751.01
569.64	1796.07
569.84	1679.33
570.04	1765.35
570.23	1656.81
570.43	1722.34
570.62	1789.92
570.82	1708.01
571.01	1624.04
571.21	1730.53
571.40	1656.81
571.60	1769.44
571.79	1785.83
571.99	1734.63
572.18	1689.57
572.38	1763.30
572.57	1734.63
572.77	1794.02
572.96	1914.85
573.16	1732.58
573.35	1777.64
573.55	1722.34
573.74	1714.15
573.94	1665.00
574.13	1656.81
574.33	1744.87
574.52	1812.45
574.71	1824.74
574.91	1742.82
575.10	1697.77
575.30	1710.05
575.49	1734.63
575.69	1753.06
575.88	1775.59
576.08	1716.20
576.27	1687.53
576.47	1791.97
576.66	1787.88
576.86	1812.45
577.05	1697.77
577.25	1791.97
577.44	1818.60
577.64	1740.77
577.83	1853.41
578.02	1777.64
578.22	1714.15
578.41	1816.55
578.61	1769.44
578.80	1732.58
579.00	1755.11
579.19	1734.63
579.39	1796.07
579.58	1826.79
579.77	1751.01
579.97	1849.32
580.16	1890.28
580.36	1804.26
580.55	1785.83
580.75	1765.35
580.94	1759.21
581.13	1882.08
581.33	1884.13
581.52	1728.49
581.72	1816.55
581.91	1912.80
582.11	1775.59
582.30	1771.49
582.49	1724.39
582.69	1789.92
582.88	1789.92
583.08	1724.39
583.27	1767.40
583.47	1773.54
583.66	1726.44
583.85	1673.19
584.05	1732.58
584.24	1804.26
584.44	1796.07
584.63	1824.74
584.82	1869.80
585.02	1869.80
585.21	1826.79
585.41	1812.45
585.60	1841.12
585.79	1980.39
585.99	1937.38
586.18	1867.75
586.37	2201.57
586.57	3342.28
586.76	9789.29
586.96	24293.01
587.15	34385.40
587.34	40830.35
587.54	42323.32
587.73	36197.85
587.93	26590.83
588.12	21677.75
588.31	18511.59
588.51	16437.00
588.70	15058.71
588.89	14147.37
589.09	12578.62
589.28	11054.94
589.47	9289.59
589.67	7896.97
589.86	6559.64
590.06	4984.76
590.25	3946.44
590.44	3127.25
590.64	2535.39
590.83	2244.57
591.02	2019.30
591.22	1943.52
591.41	1871.84
591.60	1802.21
591.80	1957.86
591.99	1728.49
592.18	1769.44
592.38	1871.84
592.57	1779.68
592.76	1845.22
592.96	1837.03
593.15	1769.44
593.34	1828.84
593.54	1789.92
593.73	1791.97
593.92	1720.29
594.12	1759.21
594.31	1748.97
594.50	1810.40
594.70	1834.98
594.89	1847.27
595.08	1636.33
595.28	1812.45
595.47	1900.52
595.66	1732.58
595.86	1656.81
596.05	1738.73
596.24	1642.47
596.43	1757.16
596.63	1763.30
596.82	1820.64
597.01	1705.96
597.21	1830.88
597.40	1740.77
597.59	1761.25
597.79	1763.30
597.98	1773.54
598.17	1759.21
598.36	1755.11
598.56	1789.92
598.75	1691.62
598.94	1777.64
599.14	1728.49
599.33	1683.43
599.52	1785.83
599.71	1763.30
599.91	1769.44
600.10	1720.29
600.29	1787.88
600.48	1730.53
600.68	1736.68
600.87	1765.35
601.06	1689.57
601.26	1726.44
601.45	1710.05
601.64	1681.38
601.83	1781.73
602.03	1744.87
602.22	1624.04
602.41	1757.16
602.60	1849.32
602.80	1796.07
602.99	1765.35
603.18	1636.33
603.37	1759.21
603.57	1759.21
603.76	1765.35
603.95	1816.55
604.14	1714.15
604.34	1748.97
604.53	1751.01
604.72	1753.06
604.91	1845.22
605.10	1785.83
605.30	1681.38
605.49	1808.36
605.68	1722.34
605.87	1755.11
606.07	1574.89
606.26	1800.16
606.45	1755.11
606.64	1695.72
606.84	1757.16
607.03	1648.61
607.22	1763.30
607.41	1697.77
607.60	1656.81
607.80	1726.44
607.99	1724.39
608.18	1710.05
608.37	1761.25
608.56	1656.81
608.76	1828.84
608.95	1789.92
609.14	1732.58
609.33	1705.96
609.52	1898.47
609.72	1708.01
609.91	1847.27
610.10	1722.34
610.29	1822.69
610.48	1722.34
610.68	1708.01
610.87	1652.71
611.06	1722.34
611.25	1703.91
611.44	1769.44
611.63	1665.00
611.83	1771.49
612.02	1677.29
612.21	1882.08
612.40	1574.89
612.59	1673.19
612.79	1691.62
612.98	1746.92
613.17	1845.22
613.36	1802.21
613.55	1845.22
613.74	1705.96
613.93	1652.71
614.13	1630.18
614.32	1720.29
614.51	1761.25
614.70	1648.61
614.89	1755.11
615.08	1714.15
615.28	2117.60
615.47	1695.72
615.66	1697.77
615.85	1705.96
616.04	1822.69
616.23	1695.72
616.42	1748.97
616.62	1726.44
616.81	1794.02
617.00	1759.21
617.19	1814.50
617.38	1794.02
617.57	1718.25
617.76	1714.15
617.95	1757.16
618.15	1689.57
618.34	1826.79
618.53	1601.51
618.72	1853.41
618.91	1832.93
619.10	1771.49
619.29	1767.40
619.48	1718.25
619.68	1609.70
619.87	1714.15
620.06	1621.99
620.25	1810.40
620.44	1693.67
620.63	1677.29
620.82	1730.53
621.01	1701.86
621.20	1726.44
621.39	1714.15
621.59	1740.77
621.78	1757.16
621.97	1785.83
622.16	1720.29
622.35	1738.73
622.54	1722.34
622.73	1775.59
622.92	1636.33
623.11	1730.53
623.30	1683.43
623.49	1796.07
623.68	1693.67
623.88	1802.21
624.07	1708.01
624.26	1759.21
624.45	1804.26
624.64	1689.57
624.83	1742.82
625.02	1744.87
625.21	1802.21
625.40	1705.96
625.59	1824.74
625.78	1705.96
625.97	1816.55
626.16	1697.77
626.35	1665.00
626.54	1740.77
626.74	1753.06
626.93	1630.18
627.12	1656.81
627.31	1816.55
627.50	1730.53
627.69	1679.33
627.88	1665.00
628.07	1724.39
628.26	1638.38
628.45	1724.39
628.64	1675.24
628.83	1787.88
629.02	1644.52
629.21	1677.29
629.40	1716.20
629.59	1679.33
629.78	1710.05
629.97	1683.43
630.16	1628.14
630.35	1796.07
630.54	1767.40
630.73	1636.33
630.92	1722.34
631.11	1656.81
631.30	1703.91
631.49	1771.49
631.68	1722.34
631.87	1691.62
632.06	1613.80
632.25	1855.46
632.44	1667.05
632.63	1732.58
632.82	1685.48
633.01	1673.19
633.20	1679.33
633.39	1675.24
633.58	1638.38
633.77	1726.44
633.96	1744.87
634.15	1746.92
634.34	1728.49
634.53	1736.68
634.72	1769.44
634.91	1665.00
635.10	1730.53
635.29	1746.92
635.48	1714.15
635.67	1628.14
635.86	1689.57
636.05	1728.49
636.24	1673.19
636.43	1767.40
636.62	1763.30
636.81	1507.30
637.00	1767.40
637.19	1773.54
637.38	1736.68
637.57	1695.72
637.76	1728.49
637.95	1785.83
638.14	1685.48
638.33	1744.87
638.52	1679.33
638.71	1646.57
638.89	1578.98
639.08	1925.09
639.27	1763.30
639.46	1665.00
639.65	1802.21
639.84	1705.96
640.03	1722.34
640.22	1714.15
640.41	1765.35
640.60	1730.53
640.79	1677.29
640.98	1687.53
641.17	1753.06
641.36	1761.25
641.55	1767.40
641.74	1652.71
641.92	1636.33
642.11	1665.00
642.30	1732.58
642.49	1662.95
642.68	1746.92
642.87	1738.73
643.06	1662.95
643.25	1689.57
643.44	1703.91
643.63	1673.19
643.82	1779.68
644.00	1681.38
644.19	1728.49
644.38	1703.91
644.57	1769.44
644.76	1652.71
644.95	1716.20
645.14	1701.86
645.33	1687.53
645.52	1718.25
645.71	1726.44
645.89	1626.09
646.08	1734.63
646.27	1730.53
646.46	1822.69
646.65	1591.27
646.84	1677.29
647.03	1611.75
647.22	1824.74
647.40	1746.92
647.59	1681.38
647.78	1646.57
647.97	1548.26
648.16	1642.47
648.35	1800.16
648.54	1736.68
648.73	1648.61
648.91	1802.21
649.10	1658.85
649.29	1703.91
649.48	1753.06
649.67	1791.97
649.86	1748.97
650.05	1730.53
650.23	1701.86
650.42	1566.70
650.61	1732.58
650.80	1742.82
650.99	1810.40
651.18	1742.82
651.36	1806.31
651.55	1658.85
651.74	1769.44
651.93	1626.09
652.12	1675.24
652.31	1671.14
652.49	1697.77
652.68	1691.62
652.87	1763.30
653.06	1675.24
653.25	1816.55
653.44	1701.86
653.62	1796.07
653.81	1695.72
654.00	1685.48
654.19	1751.01
654.38	1832.93
654.56	1701.86
654.75	1675.24
654.94	1769.44
655.13	1724.39
655.32	1779.68
655.51	1755.11
655.69	1619.94
655.88	1751.01
656.07	1669.09
656.26	1748.97
656.45	1626.09
656.63	1675.24
656.82	1800.16
657.01	1789.92
657.20	1683.43
657.38	1769.44
657.57	1703.91
657.76	1585.13
657.95	1791.97
658.14	1763.30
658.32	1689.57
658.51	1687.53
658.70	1732.58
658.89	1701.86
659.08	1732.58
659.26	1732.58
659.45	1658.85
659.64	1736.68
659.83	1603.56
660.01	1937.38
660.20	1804.26
660.39	1773.54
660.58	1611.75
660.76	1787.88
660.95	1648.61
661.14	1705.96
661.33	1638.38
661.51	1683.43
661.70	1720.29
661.89	1720.29
662.08	1748.97
662.26	1650.66
662.45	1662.95
662.64	1794.02
662.83	1728.49
663.01	1636.33
663.20	1714.15
663.39	1828.84
663.58	1687.53
663.76	1681.38
663.95	1814.50
664.14	1615.85
664.32	1744.87
664.51	1658.85
664.70	1665.00
664.89	1734.63
665.07	1593.32
665.26	1802.21
665.45	1673.19
665.64	1722.34
665.82	1775.59
666.01	1820.64
666.20	1724.39
666.38	1796.07
666.57	1755.11
666.76	2168.80
666.95	4605.88
667.13	10493.79
667.32	15316.76
667.51	17684.21
667.69	18945.76
667.88	17852.14
668.07	12363.59
668.25	9572.21
668.44	8005.51
668.63	7270.29
668.81	6709.15
669.00	6229.92
669.19	5676.97
669.38	5097.39
669.56	4536.25
669.75	4057.03
669.94	3428.30
670.12	2934.74
670.31	2566.10
670.50	2295.77
670.68	2109.41
670.87	1968.10
671.06	1796.07
671.24	1673.19
671.43	1857.51
671.62	1705.96
671.80	1720.29
671.99	1777.64
672.18	1742.82
672.36	1757.16
672.55	1714.15
672.74	1722.34
672.92	1742.82
673.11	1779.68
673.29	1683.43
673.48	1705.96
673.67	1660.90
673.85	1722.34
674.04	1687.53
674.23	1775.59
674.41	1853.41
674.60	1669.09
674.79	1648.61
674.97	1648.61
675.16	1730.53
675.34	1787.88
675.53	1701.86
675.72	1710.05
675.90	1873.89
676.09	1667.05
676.28	1726.44
676.46	1626.09
676.65	1771.49
676.83	1638.38
677.02	1677.29
677.21	1710.05
677.39	1755.11
677.58	1662.95
677.77	1697.77
677.95	1697.77
678.14	1642.47
678.32	1746.92
678.51	1714.15
678.70	1771.49
678.88	1675.24
679.07	1705.96
679.25	1697.77
679.44	1814.50
679.63	1636.33
679.81	1701.86
680.00	1806.31
680.18	1777.64
680.37	1787.88
680.55	1734.63
680.74	1644.52
680.93	1601.51
681.11	1767.40
681.30	1650.66
681.48	1730.53
681.67	1667.05
681.85	1681.38
682.04	1683.43
682.23	1732.58
682.41	1705.96
682.60	1681.38
682.78	1689.57
682.97	1673.19
683.15	1748.97
683.34	1695.72
683.53	1783.78
683.71	1607.66
683.90	1837.03
684.08	1757.16
684.27	1722.34
684.45	1742.82
684.64	1730.53
684.82	1669.09
685.01	1714.15
685.19	1744.87
685.38	1742.82
685.57	1615.85
685.75	1693.67
685.94	1642.47
686.12	1701.86
686.31	1695.72
686.49	1847.27
686.68	1621.99
686.86	1701.86
687.05	1740.77
687.23	1787.88
687.42	1730.53
687.60	1718.25
687.79	1714.15
687.97	1787.88
688.16	1751.01
688.34	1765.35
688.53	1636.33
688.71	1662.95
688.90	1798.12
689.08	1689.57
689.27	1591.27
689.45	1705.96
689.64	1650.66
689.82	1648.61
690.01	1685.48
690.19	1708.01
690.38	1656.81
690.56	1757.16
690.75	1689.57
690.93	1667.05
691.12	1636.33
691.30	1705.96
691.49	1636.33
691.67	1591.27
691.86	1871.84
692.04	1662.95
692.23	1609.70
692.41	1630.18
692.60	1859.56
692.78	1642.47
692.97	1593.32
693.15	1708.01
693.34	1808.36
693.52	1746.92
693.71	1685.48
693.89	1630.18
694.08	1624.04
694.26	1757.16
694.44	1779.68
694.63	1683.43
694.81	1603.56
695.00	1650.66
695.18	1771.49
695.37	1929.19
695.55	1781.73
695.74	1738.73
695.92	1650.66
696.10	1822.69
696.29	1591.27
696.47	1679.33
696.66	1611.75
696.84	1667.05
697.03	1677.29
697.21	1798.12
697.40	2330.59
697.58	1863.65
697.76	1687.53
697.95	1636.33
698.13	1619.94
698.32	1677.29
698.50	1642.47
698.68	1714.15
698.87	1726.44
699.05	1783.78
699.24	1777.64
699.42	1755.11
699.61	1699.81
699.79	1783.78
699.97	1673.19
700.16	1669.09
700.34	1550.31
700.53	1771.49
700.71	1820.64
700.89	1720.29
701.08	1673.19
701.26	1640.42
701.45	2086.88
701.63	1630.18
701.81	1671.14
702.00	1646.57
702.18	1712.10
702.37	1613.80
702.55	1732.58
702.73	1642.47
702.92	1591.27
703.10	1726.44
703.28	1628.14
703.47	1615.85
703.65	1744.87
703.84	1773.54
704.02	1712.10
704.20	1751.01
704.39	1689.57
704.57	1714.15
704.75	1816.55
704.94	1722.34
705.12	1720.29
705.30	1787.88
705.49	2252.77
705.67	4388.80
705.86	9222.00
706.04	12754.75
706.22	14597.92
706.41	15243.03
706.59	13868.84
706.77	9600.88
706.96	7493.52
707.14	6598.56
707.32	6160.29
707.51	5547.95
707.69	4810.68
707.87	4263.87
708.06	3557.32
708.24	2994.13
708.42	2457.56
708.61	2201.57
708.79	1892.32
708.97	1785.83
709.16	1910.75
709.34	1822.69
709.52	1681.38
709.71	1769.44
709.89	1812.45
710.07	1697.77
710.26	1708.01
710.44	1615.85
710.62	1791.97
710.80	1736.68
710.99	1718.25
711.17	1771.49
711.35	1751.01
711.54	1675.24
711.72	1753.06
711.90	1689.57
712.09	1703.91
712.27	1728.49
712.45	1714.15
712.63	1675.24
712.82	1705.96
713.00	1679.33
713.18	1714.15
713.37	1771.49
713.55	1746.92
713.73	1732.58
713.91	1736.68
714.10	1730.53
714.28	1652.71
714.46	1710.05
714.65	1765.35
714.83	1734.63
715.01	1724.39
715.19	1708.01
715.38	1712.10
715.56	1669.09
715.74	1695.72
715.92	1656.81
716.11	1783.78
716.29	1679.33
716.47	1662.95
716.65	1746.92
716.84	1611.75
717.02	1726.44
717.20	1574.89
717.38	1662.95
717.57	1673.19
717.75	1671.14
717.93	1667.05
718.11	1773.54
718.30	1642.47
718.48	1701.86
718.66	1783.78
718.84	1748.97
719.03	1746.92
719.21	1677.29
719.39	1826.79
719.57	1701.86
719.75	1736.68
719.94	1673.19
720.12	1710.05
720.30	1779.68
720.48	1763.30
720.67	1662.95
720.85	1673.19
721.03	1662.95
721.21	1597.42
721.39	1757.16
721.58	1705.96
721.76	1658.85
721.94	1732.58
722.12	1732.58
722.30	1716.20
722.49	1697.77
722.67	1714.15
722.85	1640.42
723.03	1665.00
723.21	1662.95
723.40	1734.63
723.58	1714.15
723.76	1753.06
723.94	1796.07
724.12	1640.42
724.30	1748.97
724.49	1738.73
724.67	1642.47
724.85	1798.12
725.03	1562.60
725.21	1744.87
725.40	1742.82
725.58	1673.19
725.76	1759.21
725.94	1693.67
726.12	1656.81
726.30	1720.29
726.49	1746.92
726.67	1710.05
726.85	1677.29
727.03	1710.05
727.21	2203.61
727.39	2906.07
727.57	3833.80
727.76	4200.38
727.94	4530.11
728.12	4337.60
728.30	3561.42
728.48	2873.30
728.66	2766.81
728.84	2566.10
729.03	2396.12
729.21	2191.33
729.39	1976.29
729.57	1867.75
729.75	1890.28
729.93	1902.56
730.11	1757.16
730.30	1726.44
730.48	1705.96
730.66	1773.54
730.84	1791.97
731.02	1634.28
731.20	1667.05
731.38	1757.16
731.56	1640.42
731.74	1660.90
731.93	1685.48
732.11	1703.91
732.29	1640.42
732.47	1708.01
732.65	1656.81
732.83	1773.54
733.01	1730.53
733.19	1767.40
733.37	1783.78
733.56	1771.49
733.74	1714.15
733.92	1777.64
734.10	1714.15
734.28	1787.88
734.46	1660.90
734.64	1611.75
734.82	1691.62
735.00	1734.63
735.18	1681.38
735.36	1685.48
735.54	1730.53
735.73	1732.58
735.91	1732.58
736.09	1710.05
736.27	1658.85
736.45	1759.21
736.63	1669.09
736.81	1687.53
736.99	1791.97
737.17	1818.60
737.35	1656.81
737.53	1642.47
737.71	1648.61
737.89	1759.21
738.07	1644.52
738.25	1621.99
738.43	1554.41
738.61	1697.77
738.80	1660.90
738.98	1656.81
739.16	1648.61
739.34	1681.38
739.52	1755.11
739.70	1722.34
739.88	1699.81
740.06	1773.54
740.24	1601.51
740.42	1753.06
740.60	1609.70
740.78	1697.77
740.96	1564.65
741.14	1710.05
741.32	1761.25
741.50	1630.18
741.68	1783.78
741.86	1718.25
742.04	1671.14
742.22	1677.29
742.40	1693.67
742.58	1730.53
742.76	1673.19
742.94	1783.78
743.12	1619.94
743.30	1634.28
743.48	1808.36
743.66	1621.99
743.84	1783.78
744.02	1677.29
744.20	1730.53
744.38	1685.48
744.56	1716.20
744.74	1816.55
744.92	1722.34
745.10	1777.64
745.28	1804.26
745.46	1722.34
745.64	1708.01
745.82	1665.00
746.00	1746.92
746.18	1708.01
746.36	1695.72
746.54	1814.50
746.72	1712.10
746.90	1646.57
747.08	1814.50
747.26	1658.85
747.44	1753.06
747.62	1703.91
747.80	1716.20
747.98	1818.60
748.15	1726.44
748.33	1804.26
748.51	1619.94
748.69	1697.77
748.87	1748.97
749.05	1609.70
749.23	1634.28
749.41	1765.35
749.59	1650.66
749.77	1705.96
749.95	1671.14
750.13	1718.25
750.31	1687.53
750.49	1679.33
750.67	1720.29
750.85	1783.78
751.03	1714.15
751.20	1755.11
751.38	1697.77
751.56	1714.15
751.74	1722.34
751.92	1708.01
752.10	1675.24
752.28	1775.59
752.46	1630.18
752.64	1665.00
752.82	1734.63
753.00	1816.55
753.18	1732.58
753.35	1708.01
753.53	1665.00
753.71	1673.19
753.89	1767.40
754.07	1708.01
754.25	1779.68
754.43	1718.25
754.61	1601.51
754.79	1701.86
754.97	1683.43
755.14	1759.21
755.32	1656.81
755.50	1697.77
755.68	1636.33
755.86	1601.51
756.04	1669.09
756.22	1630.18
756.40	1779.68
756.57	1773.54
756.75	1689.57
756.93	1736.68
757.11	1785.83
757.29	1667.05
757.47	1705.96
757.65	1585.13
757.82	1640.42
758.00	1648.61
758.18	1648.61
758.36	1763.30
758.54	1812.45
758.72	1646.57
758.90	1779.68
759.07	1660.90
759.25	1652.71
759.43	1701.86
759.61	1691.62
759.79	2222.05
759.97	1730.53
760.15	1687.53
760.32	1660.90
760.50	1720.29
760.68	1845.22
760.86	1599.46
761.04	1818.60
761.22	1759.21
761.39	1679.33
761.57	1744.87
761.75	1691.62
761.93	1632.23
762.11	1736.68
762.28	1669.09
762.46	1607.66
762.64	1740.77
762.82	1746.92
763.00	1683.43
763.18	1773.54
763.35	1642.47
763.53	1701.86
763.71	1646.57
763.89	1744.87
764.07	1617.90
764.24	1619.94
764.42	1757.16
764.60	1681.38
764.78	1673.19
764.96	1757.16
765.13	1732.58
765.31	1669.09
765.49	1705.96
765.67	1615.85
765.84	1714.15
766.02	1607.66
766.20	1652.71
766.38	1695.72
766.56	1650.66
766.73	1722.34
766.91	1740.77
767.09	1716.20
767.27	1812.45
767.44	1708.01
767.62	1726.44
767.80	1701.86
767.98	1648.61
768.15	1697.77
768.33	1757.16
768.51	1681.38
768.69	1699.81
768.87	1712.10
769.04	1671.14
769.22	1773.54
769.40	1777.64
769.58	1789.92
769.75	1767.40
769.93	1785.83
770.11	1730.53
770.28	1601.51
770.46	1755.11
770.64	1738.73
770.82	1708.01
770.99	1722.34
771.17	1728.49
771.35	1669.09
771.53	1638.38
771.70	1669.09
771.88	1673.19
772.06	1699.81
772.23	1689.57
772.41	1722.34
772.59	1636.33
772.77	1722.34
772.94	1685.48
773.12	1640.42
773.30	1677.29
773.47	1634.28
773.65	1660.90
773.83	1736.68
774.01	1705.96
774.18	1601.51
774.36	1658.85
774.54	1583.08
774.71	1716.20
774.89	1568.74
775.07	1636.33
775.24	1638.38
775.42	1671.14
775.60	1796.07
775.78	1681.38
775.95	1705.96
776.13	1533.93
776.31	1552.36
776.48	1734.63
776.66	1802.21
776.84	1640.42
777.01	1751.01
777.19	1677.29
777.37	1716.20
777.54	1773.54
777.72	1845.22
777.90	1763.30
778.07	1679.33
778.25	1953.76
778.43	1791.97
778.60	1576.94
778.78	1679.33
778.96	1705.96
779.13	1662.95
779.31	1689.57
779.49	1730.53
779.66	1720.29
779.84	1746.92
780.01	1667.05
780.19	1585.13
780.37	1662.95
780.54	1691.62
780.72	1759.21
780.90	1640.42
781.07	1654.76
781.25	1683.43
781.43	1726.44
781.60	1673.19
781.78	1744.87
781.95	1701.86
782.13	1648.61
782.31	1687.53
782.48	1595.37
782.66	1658.85
782.83	1820.64
783.01	1740.77
783.19	1769.44
783.36	1689.57
783.54	1710.05
783.72	1814.50
783.89	1562.60
784.07	1714.15
784.24	1712.10
784.42	1806.31
784.60	1769.44
784.77	1748.97
784.95	1581.03
785.12	1615.85
785.30	1744.87
785.47	1734.63
785.65	1714.15
785.83	1599.46
786.00	1628.14
786.18	1701.86
786.35	1697.77
786.53	1648.61
786.71	1791.97
786.88	1730.53
787.06	1761.25
787.23	1693.67
787.41	1712.10
787.58	1701.86
787.76	1669.09
787.94	1744.87
788.11	1730.53
788.29	1581.03
788.46	1699.81
788.64	1609.70
788.81	1697.77
788.99	1636.33
789.16	1689.57
789.34	1642.47
789.52	1613.80
789.69	1701.86
789.87	1605.61
790.04	1621.99
790.22	1603.56
790.39	1757.16
790.57	1646.57
790.74	1640.42
790.92	1759.21
791.09	1617.90
791.27	1779.68
791.44	1781.73
791.62	1697.77
791.79	1767.40
791.97	1718.25
792.15	1882.08
792.32	1708.01
792.50	1767.40
792.67	1771.49
792.85	1804.26
793.02	1665.00
793.20	1712.10
793.37	1597.42
793.55	1748.97
793.72	1626.09
793.90	1726.44
794.07	1613.80
794.25	1628.14
794.42	1738.73
794.60	1679.33
794.77	1681.38
794.95	1665.00
795.12	1722.34
795.30	1699.81
795.47	1609.70
795.65	1894.37
795.82	1710.05
796.00	1697.77
796.17	1687.53
796.34	1703.91
796.52	1675.24
796.69	1751.01
796.87	1746.92
797.04	1705.96
797.22	1742.82
797.39	1640.42
797.57	1648.61
797.74	1718.25
797.92	1767.40
798.09	1636.33
798.27	1701.86
798.44	1685.48
798.62	1599.46
798.79	1701.86
798.96	1677.29
799.14	1710.05
799.31	1849.32
799.49	1681.38
799.66	1605.61
799.84	1650.66
800.01	1636.33
800.19	1742.82
800.36	1597.42
800.53	1753.06
800.71	1740.77
800.88	1796.07
801.06	1679.33
801.23	1677.29
801.41	1685.48
801.58	1673.19
801.75	1624.04
801.93	1755.11
802.10	1710.05
802.28	1683.43
802.45	1669.09
802.63	1691.62
802.80	1767.40
802.97	1615.85
803.15	1714.15
803.32	1640.42
803.50	1677.29
803.67	1656.81
803.84	1644.52
804.02	1775.59
804.19	1681.38
804.37	1556.46
804.54	1605.61
804.71	1695.72
804.89	1650.66
805.06	1701.86
805.24	1660.90
805.41	1556.46
805.58	1673.19
805.76	1830.88
805.93	1671.14
806.10	1767.40
806.28	1751.01
806.45	1708.01
806.63	1732.58
806.80	1671.14
806.97	1671.14
807.15	1697.77
807.32	1761.25
807.49	1746.92
807.67	1652.71
807.84	1775.59
808.01	1609.70
808.19	1779.68
808.36	1771.49
808.54	1611.75
808.71	1613.80
808.88	1722.34
809.06	1769.44
809.23	1726.44
809.40	1648.61
809.58	1712.10
809.75	1685.48
809.92	1685.48
810.10	1898.47
810.27	1685.48
810.44	1726.44
810.62	1751.01
810.79	1687.53
810.96	1638.38
811.14	1650.66
811.31	1640.42
811.48	1685.48
811.66	1697.77
811.83	1726.44
812.00	1652.71
812.18	1685.48
812.35	1824.74
812.52	1671.14
812.69	1669.09
812.87	1699.81
813.04	1640.42
813.21	1695.72
813.39	1679.33
813.56	1617.90
813.73	1779.68
813.91	1615.85
814.08	1687.53
814.25	1699.81
814.42	1638.38
814.60	1679.33
814.77	1718.25
814.94	1728.49
815.12	1671.14
815.29	1855.46
815.46	1691.62
815.63	1681.38
815.81	1677.29
815.98	1701.86
816.15	1732.58
816.33	1794.02
816.50	1636.33
816.67	1624.04
816.84	1665.00
817.02	1644.52
817.19	1683.43
817.36	1748.97
817.53	1726.44
817.71	1621.99
817.88	1761.25
818.05	1699.81
818.22	1587.18
818.40	1787.88
818.57	1691.62
818.74	1728.49
818.91	1648.61
819.09	1710.05
819.26	1693.67
819.43	1693.67
819.60	1681.38
819.78	1732.58
819.95	1730.53
820.12	1624.04
820.29	1751.01
820.47	1724.39
820.64	1726.44
820.81	1593.32
820.98	1669.09
821.15	1679.33
821.33	1742.82
821.50	1667.05
821.67	1683.43
821.84	1710.05
822.02	1789.92
822.19	1744.87
822.36	1669.09
822.53	1740.77
822.70	1701.86
822.88	1626.09
823.05	1841.12
823.22	1708.01
823.39	1712.10
823.56	1761.25
823.74	1822.69
823.91	1626.09
824.08	1619.94
824.25	1587.18
824.42	1804.26
824.60	1591.27
824.77	1753.06
824.94	1726.44
825.11	1777.64
825.28	1650.66
825.45	1746.92
825.63	1675.24
825.80	1673.19
825.97	1759.21
826.14	1662.95
826.31	1568.74
826.48	1677.29
826.66	1613.80
826.83	1732.58
827.00	1638.38
827.17	1689.57
827.34	1669.09
827.51	1705.96
827.69	1695.72
827.86	1648.61
828.03	1648.61
828.20	1665.00
828.37	1673.19
828.54	1785.83
828.71	1593.32
828.89	1779.68
829.06	1712.10
829.23	1837.03
829.40	1646.57
829.57	1656.81
829.74	1681.38
829.91	1667.05
830.09	1646.57
830.26	1730.53
830.43	1710.05
830.60	1656.81
830.77	1644.52
830.94	1738.73
831.11	1796.07
831.28	1675.24
831.46	1751.01
831.63	1650.66
831.80	1826.79
831.97	1708.01
832.14	1630.18
832.31	1732.58
832.48	1748.97
832.65	1701.86
832.82	1671.14
832.99	1744.87
833.17	1662.95
833.34	1781.73
833.51	1771.49
833.68	1599.46
833.85	1789.92
834.02	1640.42
834.19	1708.01
834.36	1589.22
834.53	1662.95
834.70	1757.16
834.87	1802.21
835.04	1689.57
835.22	1603.56
835.39	1644.52
835.56	1691.62
835.73	1699.81
835.90	1710.05
836.07	1632.23
836.24	1732.58
836.41	1642.47
836.58	1624.04
836.75	1761.25
836.92	1660.90
837.09	1656.81
837.26	1703.91
837.43	1757.16
837.60	1701.86
837.77	1638.38
837.94	1703.91
838.12	1796.07
838.29	1716.20
838.46	1693.67
838.63	1636.33
838.80	1730.53
838.97	1736.68
839.14	1742.82
839.31	1665.00
839.48	1732.58
839.65	1683.43
839.82	1751.01
839.99	1646.57
840.16	1667.05
840.33	1685.48
840.50	1746.92
840.67	1703.91
840.84	1566.70
841.01	1800.16
841.18	1648.61
841.35	1646.57
841.52	1744.87
841.69	1785.83
841.86	1777.64
842.03	1632.23
842.20	1765.35
842.37	1675.24
842.54	1705.96
842.71	1720.29
842.88	1699.81
843.05	1753.06
843.22	1648.61
843.39	1779.68
843.56	1722.34
843.73	1710.05
843.90	1691.62
844.07	1673.19
844.24	1724.39
844.41	1705.96
844.58	1720.29
844.75	1701.86
844.92	1708.01
845.09	1626.09
845.26	1632.23
845.43	1654.76
845.60	1695.72
845.77	1679.33
845.94	1718.25
846.10	1767.40
846.27	1609.70
846.44	1660.90
846.61	1662.95
846.78	1738.73
846.95	1699.81
847.12	1693.67
847.29	1691.62
847.46	1638.38
847.63	1757.16
847.80	1634.28
847.97	1714.15
848.14	1781.73
848.31	1773.54
848.48	1679.33
848.65	1773.54
848.82	1683.43
848.98	1880.04
849.15	1691.62
849.32	1796.07
849.49	1806.31
849.66	1679.33
849.83	1642.47
850.00	1650.66
850.17	1708.01
850.34	1724.39
850.51	1673.19
850.68	1660.90
850.85	1828.84
851.01	1671.14
851.18	1703.91
851.35	1691.62
851.52	1689.57
851.69	1761.25
851.86	1624.04
852.03	1699.81
852.20	1699.81
852.37	1685.48
852.53	1603.56
852.70	1714.15
852.87	1710.05
853.04	1744.87
853.21	1667.05
853.38	1720.29
853.55	1734.63
853.72	1798.12
853.89	1632.23
854.05	1603.56
854.22	1718.25
854.39	1654.76
854.56	1718.25
854.73	1773.54
854.90	1632.23
855.07	1710.05
855.23	1724.39
855.40	1669.09
855.57	1675.24
855.74	1642.47
855.91	1828.84
856.08	1628.14
856.25	1683.43
856.41	1685.48
856.58	1738.73
856.75	1777.64
856.92	1667.05
857.09	1712.10
857.26	1665.00
857.42	1701.86
857.59	1724.39
857.76	1751.01
857.93	1652.71
858.10	1679.33
858.27	1640.42
858.43	1705.96
858.60	1669.09
858.77	1591.27
858.94	1648.61
859.11	1775.59
859.27	1714.15
859.44	1662.95
859.61	1802.21
859.78	1757.16
859.95	1679.33
860.12	1665.00
860.28	1820.64
860.45	1763.30
860.62	1691.62
860.79	1726.44
860.95	1673.19
861.12	1648.61
861.29	1669.09
861.46	1621.99
861.63	1630.18
861.79	1738.73
861.96	1595.37
862.13	1677.29
862.30	1740.77
862.47	1630.18
862.63	1638.38
862.80	1710.05
862.97	1720.29
863.14	1730.53
863.30	1771.49
863.47	1675.24
863.64	1732.58
863.81	1763.30
863.97	1689.57
864.14	1660.90
864.31	1681.38
864.48	1789.92
864.65	1642.47
864.81	1779.68
864.98	1705.96
865.15	1746.92
865.32	1734.63
865.48	1765.35
865.65	1738.73
865.82	1624.04
865.98	1691.62
866.15	1761.25
866.32	1658.85
866.49	1665.00
866.65	1742.82
866.82	1634.28
866.99	1701.86
867.16	1681.38
867.32	1656.81
867.49	1683.43
867.66	1722.34
867.83	1699.81
867.99	1607.66
868.16	1697.77
868.33	1638.38
868.49	1710.05
868.66	1658.85
868.83	1712.10
868.99	1683.43
869.16	1708.01
869.33	1761.25
869.50	1787.88
869.66	1687.53
869.83	1683.43
870.00	1617.90
870.16	1699.81
870.33	1624.04
870.50	1751.01
870.66	1603.56
870.83	1853.41
871.00	1638.38
871.17	1683.43
871.33	1748.97
871.50	1640.42
871.67	1710.05
871.83	1656.81
872.00	1742.82
872.17	1724.39
872.33	1769.44
872.50	1638.38
872.67	1667.05
872.83	1660.90
873.00	1724.39
873.17	1701.86
873.33	1675.24
873.50	1765.35
873.67	1665.00
873.83	1617.90
874.00	1638.38
874.16	1787.88
874.33	1662.95
874.50	1595.37
874.66	1769.44
874.83	1662.95
875.00	1767.40
875.16	1726.44
875.33	1701.86
875.50	1591.27
875.66	1697.77
875.83	1679.33
875.99	1738.73
876.16	1691.62
876.33	1638.38
876.49	1720.29
876.66	1687.53
876.83	1699.81
876.99	1632.23
877.16	1660.90
877.32	1691.62
877.49	1624.04
877.66	1654.76
877.82	1775.59
877.99	1626.09
878.15	1699.81
878.32	1646.57
878.49	1693.67
878.65	1636.33
878.82	1742.82
878.98	1697.77
879.15	1724.39
879.32	1675.24
879.48	1746.92
879.65	1578.98
879.81	1617.90
879.98	1632.23
880.15	1753.06
880.31	1730.53
880.48	1556.46
880.64	1734.63
880.81	1773.54
880.97	1783.78
881.14	1748.97
881.31	1630.18
881.47	1847.27
881.64	1701.86
881.80	1599.46
881.97	1710.05
882.13	1783.78
882.30	1562.60
882.47	1599.46
882.63	1636.33
882.80	1632.23
882.96	1662.95
883.13	1765.35
883.29	1734.63
883.46	1726.44
883.62	1710.05
883.79	1673.19
883.95	1685.48
884.12	1695.72
884.29	1744.87
884.45	1720.29
884.62	1720.29
884.78	1691.62
884.95	1759.21
885.11	1730.53
885.28	1777.64
885.44	1611.75
885.61	1724.39
885.77	1757.16
885.94	1789.92
886.10	1572.84
886.27	1771.49
886.43	1806.31
886.60	1771.49
886.76	1660.90
886.93	1708.01
887.09	1763.30
887.26	1583.08
887.42	1648.61
887.59	1755.11
887.75	1787.88
887.92	1748.97
888.08	1689.57
888.25	1824.74
888.41	1716.20
888.58	1701.86
888.74	1628.14
888.91	1716.20
>>>>>End Processed Spectral Data<<<<<
