SpectraSuite Data File
++++++++++++++++++++++++++++++++++++
Date: Mon Jun 06 14:34:37 CEST 2016
User: root
Dark Spectrum Present: No
Reference Spectrum Present: No
Number of Sampled Component Spectra: 1
Spectrometers: USB4C02835
Integration Time (usec): 100000 (USB4C02835)
Spectra Averaged: 1 (USB4C02835)
Boxcar Smoothing: 0 (USB4C02835)
Correct for Electrical Dark: No (USB4C02835)
Strobe/Lamp Enabled: No (USB4C02835)
Correct for Detector Non-linearity: No (USB4C02835)
Correct for Stray Light: No (USB4C02835)
Number of Pixels in Processed Spectrum: 3648
>>>>>Begin Processed Spectral Data<<<<<
177.47	1454.06
177.69	1454.06
177.91	1454.06
178.13	1429.48
178.36	1501.16
178.58	1570.79
178.80	1726.44
179.02	1638.38
179.24	1634.28
179.46	1687.53
179.68	1683.43
179.90	1638.38
180.13	1740.77
180.35	1640.42
180.57	1677.29
180.79	1812.45
181.01	1679.33
181.23	1787.88
181.45	1816.55
181.67	1759.21
181.90	1812.45
182.12	1683.43
182.34	1621.99
182.56	1773.54
182.78	1732.58
183.00	1675.24
183.22	1730.53
183.44	1554.41
183.66	1830.88
183.89	1839.08
184.11	1667.05
184.33	1691.62
184.55	1755.11
184.77	1732.58
184.99	1789.92
185.21	1626.09
185.43	1863.65
185.65	1654.76
185.87	1726.44
186.10	1781.73
186.32	1789.92
186.54	1746.92
186.76	1814.50
186.98	1730.53
187.20	1675.24
187.42	1638.38
187.64	1640.42
187.86	1693.67
188.08	1769.44
188.30	1742.82
188.52	1763.30
188.75	1751.01
188.97	1742.82
189.19	1652.71
189.41	1587.18
189.63	1693.67
189.85	1656.81
190.07	1673.19
190.29	1603.56
190.51	1777.64
190.73	1665.00
190.95	1703.91
191.17	1671.14
191.39	1603.56
191.61	1624.04
191.84	1642.47
192.06	1673.19
192.28	1611.75
192.50	1828.84
192.72	1748.97
192.94	1609.70
193.16	1769.44
193.38	1714.15
193.60	1730.53
193.82	1765.35
194.04	1722.34
194.26	1705.96
194.48	1748.97
194.70	1652.71
194.92	1621.99
195.14	1802.21
195.36	1720.29
195.58	1701.86
195.80	1675.24
196.02	1677.29
196.24	1738.73
196.46	1689.57
196.69	1669.09
196.91	1845.22
197.13	1607.66
197.35	1701.86
197.57	1771.49
197.79	1763.30
198.01	1712.10
198.23	1722.34
198.45	1669.09
198.67	1632.23
198.89	1736.68
199.11	1757.16
199.33	1576.94
199.55	1611.75
199.77	1673.19
199.99	1834.98
200.21	1673.19
200.43	1712.10
200.65	1624.04
200.87	1597.42
201.09	1638.38
201.31	1681.38
201.53	1697.77
201.75	1767.40
201.97	1701.86
202.19	1665.00
202.41	1697.77
202.63	1720.29
202.85	1775.59
203.07	1671.14
203.29	1662.95
203.51	1701.86
203.73	1677.29
203.95	1822.69
204.17	1742.82
204.39	1779.68
204.61	1726.44
204.83	1732.58
205.05	1828.84
205.27	1830.88
205.49	1814.50
205.71	1732.58
205.93	1650.66
206.15	1667.05
206.37	1738.73
206.59	1722.34
206.81	1669.09
207.03	1687.53
207.25	1701.86
207.47	1697.77
207.69	1626.09
207.91	1748.97
208.13	1826.79
208.34	1640.42
208.56	1652.71
208.78	1703.91
209.00	1712.10
209.22	1703.91
209.44	1710.05
209.66	1705.96
209.88	1730.53
210.10	1675.24
210.32	1701.86
210.54	1779.68
210.76	1681.38
210.98	1761.25
211.20	1607.66
211.42	1773.54
211.64	1796.07
211.86	1796.07
212.08	1689.57
212.30	1771.49
212.52	1652.71
212.74	1691.62
212.96	1738.73
213.17	1767.40
213.39	1757.16
213.61	1804.26
213.83	1738.73
214.05	1619.94
214.27	1775.59
214.49	1683.43
214.71	1624.04
214.93	1716.20
215.15	1691.62
215.37	1796.07
215.59	1628.14
215.81	1746.92
216.03	1771.49
216.24	1730.53
216.46	1669.09
216.68	1617.90
216.90	1757.16
217.12	1763.30
217.34	1714.15
217.56	1775.59
217.78	1722.34
218.00	1771.49
218.22	1638.38
218.44	1791.97
218.66	1824.74
218.87	1847.27
219.09	1744.87
219.31	1730.53
219.53	1693.67
219.75	1693.67
219.97	1712.10
220.19	1650.66
220.41	1699.81
220.63	1683.43
220.85	1677.29
221.06	1751.01
221.28	1755.11
221.50	1691.62
221.72	1652.71
221.94	1730.53
222.16	1720.29
222.38	1716.20
222.60	1744.87
222.82	1665.00
223.03	1724.39
223.25	1660.90
223.47	1683.43
223.69	1791.97
223.91	1748.97
224.13	1693.67
224.35	1693.67
224.57	1779.68
224.78	1652.71
225.00	1652.71
225.22	1693.67
225.44	1632.23
225.66	1638.38
225.88	1603.56
226.10	1730.53
226.32	1705.96
226.53	1669.09
226.75	1691.62
226.97	1689.57
227.19	1751.01
227.41	1703.91
227.63	1708.01
227.85	1642.47
228.06	1714.15
228.28	1716.20
228.50	1787.88
228.72	1605.61
228.94	1710.05
229.16	1607.66
229.37	1662.95
229.59	1652.71
229.81	1763.30
230.03	1654.76
230.25	1619.94
230.47	1654.76
230.69	1728.49
230.90	1720.29
231.12	1681.38
231.34	1746.92
231.56	1787.88
231.78	1630.18
232.00	1746.92
232.21	1605.61
232.43	1683.43
232.65	1566.70
232.87	1712.10
233.09	1687.53
233.30	1658.85
233.52	1738.73
233.74	1714.15
233.96	1611.75
234.18	1654.76
234.40	1703.91
234.61	1888.23
234.83	1628.14
235.05	1660.90
235.27	1800.16
235.49	1822.69
235.70	1728.49
235.92	1714.15
236.14	1791.97
236.36	1808.36
236.58	1624.04
236.79	1759.21
237.01	1689.57
237.23	1685.48
237.45	1787.88
237.67	1656.81
237.88	1669.09
238.10	1673.19
238.32	1689.57
238.54	1662.95
238.76	1679.33
238.97	1642.47
239.19	1675.24
239.41	1744.87
239.63	1810.40
239.85	1712.10
240.06	1708.01
240.28	1705.96
240.50	1708.01
240.72	1722.34
240.93	1734.63
241.15	1730.53
241.37	1677.29
241.59	1748.97
241.81	1703.91
242.02	1632.23
242.24	1742.82
242.46	1755.11
242.68	1677.29
242.89	1708.01
243.11	1857.51
243.33	1714.15
243.55	1693.67
243.76	1742.82
243.98	1763.30
244.20	1675.24
244.42	1689.57
244.64	1673.19
244.85	1730.53
245.07	1710.05
245.29	1759.21
245.51	1722.34
245.72	1710.05
245.94	1720.29
246.16	1802.21
246.38	1748.97
246.59	1572.84
246.81	1650.66
247.03	1693.67
247.24	1554.41
247.46	1617.90
247.68	1796.07
247.90	1665.00
248.11	1708.01
248.33	1779.68
248.55	1724.39
248.77	1726.44
248.98	1708.01
249.20	1820.64
249.42	1693.67
249.64	1693.67
249.85	1675.24
250.07	1718.25
250.29	1654.76
250.50	1701.86
250.72	1576.94
250.94	1718.25
251.16	1808.36
251.37	1746.92
251.59	1697.77
251.81	1681.38
252.02	1740.77
252.24	1726.44
252.46	1845.22
252.68	1654.76
252.89	1656.81
253.11	1652.71
253.33	1791.97
253.54	1708.01
253.76	1587.18
253.98	1642.47
254.20	1646.57
254.41	1644.52
254.63	1708.01
254.85	1632.23
255.06	1783.78
255.28	1708.01
255.50	1609.70
255.71	1699.81
255.93	1624.04
256.15	1734.63
256.36	1802.21
256.58	1675.24
256.80	1722.34
257.02	1714.15
257.23	1691.62
257.45	1726.44
257.67	1769.44
257.88	1652.71
258.10	1685.48
258.32	1734.63
258.53	1720.29
258.75	1859.56
258.97	1603.56
259.18	1775.59
259.40	1673.19
259.62	1824.74
259.83	1800.16
260.05	1681.38
260.27	1976.29
260.48	1777.64
260.70	1611.75
260.92	1728.49
261.13	1703.91
261.35	1710.05
261.57	1681.38
261.78	1568.74
262.00	1636.33
262.22	1798.12
262.43	1642.47
262.65	1730.53
262.86	1654.76
263.08	1873.89
263.30	1685.48
263.51	1603.56
263.73	1683.43
263.95	1837.03
264.16	1685.48
264.38	1701.86
264.60	1710.05
264.81	1669.09
265.03	1677.29
265.25	1748.97
265.46	1652.71
265.68	1783.78
265.89	1644.52
266.11	1591.27
266.33	1742.82
266.54	1777.64
266.76	1703.91
266.98	1665.00
267.19	1730.53
267.41	1701.86
267.62	1728.49
267.84	1587.18
268.06	1775.59
268.27	1722.34
268.49	1740.77
268.70	1736.68
268.92	1697.77
269.14	1595.37
269.35	1601.51
269.57	1708.01
269.79	1796.07
270.00	1697.77
270.22	1759.21
270.43	1650.66
270.65	1546.22
270.87	1695.72
271.08	1744.87
271.30	1785.83
271.51	1714.15
271.73	1654.76
271.95	1804.26
272.16	1675.24
272.38	1794.02
272.59	1650.66
272.81	1746.92
273.02	1607.66
273.24	1753.06
273.46	1673.19
273.67	1607.66
273.89	1669.09
274.10	1656.81
274.32	1742.82
274.54	1734.63
274.75	1701.86
274.97	1689.57
275.18	1687.53
275.40	1783.78
275.61	1675.24
275.83	1648.61
276.05	1660.90
276.26	1669.09
276.48	1767.40
276.69	1703.91
276.91	1738.73
277.12	1814.50
277.34	1685.48
277.55	1763.30
277.77	1687.53
277.99	1658.85
278.20	1693.67
278.42	1624.04
278.63	1681.38
278.85	1691.62
279.06	1621.99
279.28	1771.49
279.49	1802.21
279.71	1642.47
279.93	1705.96
280.14	1634.28
280.36	1701.86
280.57	1757.16
280.79	1763.30
281.00	1681.38
281.22	1648.61
281.43	1714.15
281.65	1513.45
281.86	1683.43
282.08	1751.01
282.29	1826.79
282.51	1589.22
282.73	1656.81
282.94	1677.29
283.16	1728.49
283.37	1845.22
283.59	1773.54
283.80	1720.29
284.02	1718.25
284.23	1673.19
284.45	1658.85
284.66	1644.52
284.88	1626.09
285.09	1662.95
285.31	1746.92
285.52	1685.48
285.74	1613.80
285.95	1710.05
286.17	1658.85
286.38	1767.40
286.60	1597.42
286.81	1660.90
287.03	1675.24
287.24	1736.68
287.46	1748.97
287.67	1597.42
287.89	1855.46
288.10	1736.68
288.32	1726.44
288.53	1771.49
288.75	1779.68
288.96	1708.01
289.18	1648.61
289.39	1691.62
289.61	1777.64
289.82	1769.44
290.04	1777.64
290.25	1681.38
290.47	1656.81
290.68	1683.43
290.90	1712.10
291.11	1609.70
291.33	1742.82
291.54	1605.61
291.76	1677.29
291.97	1742.82
292.18	1734.63
292.40	1669.09
292.61	1636.33
292.83	1839.08
293.04	1771.49
293.26	1730.53
293.47	1648.61
293.69	1695.72
293.90	1716.20
294.12	1794.02
294.33	1732.58
294.55	1667.05
294.76	1736.68
294.97	1777.64
295.19	1796.07
295.40	1677.29
295.62	1726.44
295.83	1724.39
296.05	1640.42
296.26	1751.01
296.48	1708.01
296.69	1710.05
296.90	1732.58
297.12	1744.87
297.33	1726.44
297.55	1705.96
297.76	1732.58
297.98	1753.06
298.19	1660.90
298.41	1738.73
298.62	1611.75
298.83	1779.68
299.05	1632.23
299.26	1683.43
299.48	1619.94
299.69	1771.49
299.90	1683.43
300.12	1650.66
300.33	1742.82
300.55	1646.57
300.76	1685.48
300.98	1658.85
301.19	1761.25
301.40	1705.96
301.62	1587.18
301.83	1734.63
302.05	1681.38
302.26	1714.15
302.47	1740.77
302.69	1648.61
302.90	1654.76
303.12	1632.23
303.33	1767.40
303.54	1773.54
303.76	1673.19
303.97	1716.20
304.19	1832.93
304.40	1730.53
304.61	1775.59
304.83	1748.97
305.04	1773.54
305.26	1714.15
305.47	1644.52
305.68	1683.43
305.90	1591.27
306.11	1705.96
306.33	1703.91
306.54	1726.44
306.75	1693.67
306.97	1591.27
307.18	1581.03
307.39	1691.62
307.61	1710.05
307.82	1609.70
308.04	1683.43
308.25	1679.33
308.46	1673.19
308.68	1757.16
308.89	1652.71
309.10	1781.73
309.32	1757.16
309.53	1662.95
309.74	1714.15
309.96	1660.90
310.17	1771.49
310.39	1695.72
310.60	1751.01
310.81	1634.28
311.03	1624.04
311.24	1675.24
311.45	1730.53
311.67	1777.64
311.88	1671.14
312.09	1701.86
312.31	1652.71
312.52	1648.61
312.73	1634.28
312.95	1667.05
313.16	1685.48
313.37	1800.16
313.59	1691.62
313.80	1753.06
314.01	1722.34
314.23	1632.23
314.44	1601.51
314.65	1714.15
314.87	1699.81
315.08	1765.35
315.29	1646.57
315.51	1662.95
315.72	1591.27
315.93	1871.84
316.15	1791.97
316.36	1689.57
316.57	1691.62
316.79	1681.38
317.00	1714.15
317.21	1693.67
317.43	1634.28
317.64	1734.63
317.85	1679.33
318.07	1677.29
318.28	1775.59
318.49	1763.30
318.70	2017.25
318.92	1834.98
319.13	1830.88
319.34	1871.84
319.56	1751.01
319.77	1859.56
319.98	1787.88
320.20	1785.83
320.41	1734.63
320.62	1755.11
320.83	1746.92
321.05	1910.75
321.26	1646.57
321.47	1673.19
321.69	1687.53
321.90	1626.09
322.11	1703.91
322.32	1751.01
322.54	1777.64
322.75	1708.01
322.96	1800.16
323.18	1658.85
323.39	1599.46
323.60	1699.81
323.81	1728.49
324.03	1669.09
324.24	1673.19
324.45	1667.05
324.66	1689.57
324.88	1814.50
325.09	1781.73
325.30	1726.44
325.52	1740.77
325.73	1769.44
325.94	1595.37
326.15	1562.60
326.37	1687.53
326.58	1767.40
326.79	1779.68
327.00	1648.61
327.22	1710.05
327.43	1701.86
327.64	1626.09
327.85	1775.59
328.07	1683.43
328.28	1796.07
328.49	1681.38
328.70	1673.19
328.92	1673.19
329.13	1699.81
329.34	1728.49
329.55	1763.30
329.76	1697.77
329.98	1722.34
330.19	1701.86
330.40	1720.29
330.61	1665.00
330.83	1685.48
331.04	1703.91
331.25	1667.05
331.46	1701.86
331.68	1665.00
331.89	1761.25
332.10	1705.96
332.31	1591.27
332.52	1634.28
332.74	1757.16
332.95	1599.46
333.16	1718.25
333.37	1701.86
333.58	1642.47
333.80	1685.48
334.01	1656.81
334.22	1683.43
334.43	1654.76
334.64	1669.09
334.86	1621.99
335.07	1675.24
335.28	1796.07
335.49	1607.66
335.70	1720.29
335.92	1777.64
336.13	1730.53
336.34	1796.07
336.55	1648.61
336.76	1716.20
336.98	1519.59
337.19	1695.72
337.40	1783.78
337.61	1841.12
337.82	1626.09
338.04	1806.31
338.25	1603.56
338.46	1677.29
338.67	1593.32
338.88	1624.04
339.09	1660.90
339.31	1607.66
339.52	1673.19
339.73	1650.66
339.94	1677.29
340.15	1701.86
340.36	1708.01
340.58	1693.67
340.79	1656.81
341.00	1703.91
341.21	1722.34
341.42	1783.78
341.63	1720.29
341.85	1716.20
342.06	1742.82
342.27	1675.24
342.48	1730.53
342.69	1593.32
342.90	1710.05
343.12	1703.91
343.33	1728.49
343.54	1787.88
343.75	1738.73
343.96	1708.01
344.17	1705.96
344.38	1597.42
344.60	1640.42
344.81	1687.53
345.02	1681.38
345.23	1791.97
345.44	1783.78
345.65	1771.49
345.86	1738.73
346.07	1718.25
346.29	1654.76
346.50	1687.53
346.71	1740.77
346.92	1726.44
347.13	1769.44
347.34	1630.18
347.55	1701.86
347.76	1763.30
347.98	1646.57
348.19	1669.09
348.40	1753.06
348.61	1732.58
348.82	1755.11
349.03	1761.25
349.24	1628.14
349.45	1781.73
349.66	1646.57
349.88	1677.29
350.09	1646.57
350.30	1791.97
350.51	1751.01
350.72	1722.34
350.93	1769.44
351.14	1673.19
351.35	1687.53
351.56	1705.96
351.77	1744.87
351.99	1789.92
352.20	1746.92
352.41	1716.20
352.62	1624.04
352.83	1697.77
353.04	1708.01
353.25	1626.09
353.46	1742.82
353.67	1779.68
353.88	1669.09
354.09	1650.66
354.30	1738.73
354.52	1640.42
354.73	1738.73
354.94	1701.86
355.15	1748.97
355.36	1781.73
355.57	1646.57
355.78	1798.12
355.99	1671.14
356.20	1691.62
356.41	1814.50
356.62	1621.99
356.83	1708.01
357.04	1791.97
357.25	1621.99
357.46	1587.18
357.68	1578.98
357.89	1667.05
358.10	1675.24
358.31	1775.59
358.52	1769.44
358.73	1648.61
358.94	1613.80
359.15	1705.96
359.36	1705.96
359.57	1669.09
359.78	1695.72
359.99	1744.87
360.20	1599.46
360.41	1652.71
360.62	1695.72
360.83	1720.29
361.04	1677.29
361.25	1746.92
361.46	1818.60
361.67	1712.10
361.88	1751.01
362.09	1785.83
362.30	1730.53
362.51	1642.47
362.72	1718.25
362.93	1753.06
363.14	1738.73
363.35	1728.49
363.56	1673.19
363.78	1757.16
363.99	1783.78
364.20	1726.44
364.41	1746.92
364.62	1744.87
364.83	1791.97
365.04	1658.85
365.25	1716.20
365.46	1787.88
365.67	1677.29
365.88	1615.85
366.09	1638.38
366.30	1697.77
366.51	1726.44
366.72	1632.23
366.93	1720.29
367.14	1644.52
367.35	1740.77
367.56	1689.57
367.77	1816.55
367.98	1716.20
368.18	1687.53
368.39	1685.48
368.60	1681.38
368.81	1732.58
369.02	1669.09
369.23	1660.90
369.44	1603.56
369.65	1656.81
369.86	1757.16
370.07	1710.05
370.28	1703.91
370.49	1787.88
370.70	1783.78
370.91	1652.71
371.12	1667.05
371.33	1871.84
371.54	1619.94
371.75	1744.87
371.96	1585.13
372.17	1697.77
372.38	1650.66
372.59	1736.68
372.80	1640.42
373.01	1697.77
373.22	1630.18
373.43	1695.72
373.64	1656.81
373.85	1779.68
374.06	1826.79
374.26	1720.29
374.47	1658.85
374.68	1722.34
374.89	1753.06
375.10	1636.33
375.31	1759.21
375.52	1763.30
375.73	1720.29
375.94	1529.83
376.15	1740.77
376.36	1689.57
376.57	1683.43
376.78	1595.37
376.99	1732.58
377.20	1710.05
377.40	1777.64
377.61	1765.35
377.82	1624.04
378.03	1828.84
378.24	1712.10
378.45	1679.33
378.66	1765.35
378.87	1607.66
379.08	1607.66
379.29	1658.85
379.50	1761.25
379.71	1679.33
379.91	1705.96
380.12	1685.48
380.33	1703.91
380.54	1675.24
380.75	1648.61
380.96	1695.72
381.17	1712.10
381.38	1738.73
381.59	1753.06
381.80	1683.43
382.00	1941.47
382.21	1662.95
382.42	1765.35
382.63	1837.03
382.84	1798.12
383.05	1746.92
383.26	1851.36
383.47	1701.86
383.68	1740.77
383.88	1671.14
384.09	1783.78
384.30	1837.03
384.51	1755.11
384.72	1691.62
384.93	1687.53
385.14	1724.39
385.35	1789.92
385.55	1640.42
385.76	1791.97
385.97	1648.61
386.18	1595.37
386.39	1662.95
386.60	1808.36
386.81	1671.14
387.02	1669.09
387.22	1685.48
387.43	1761.25
387.64	1744.87
387.85	1853.41
388.06	2195.42
388.27	4274.11
388.48	6784.92
388.68	8054.66
388.89	9498.48
389.10	9824.11
389.31	8546.17
389.52	7475.09
389.73	6760.34
389.93	6285.22
390.14	5902.25
390.35	5337.01
390.56	4622.27
390.77	3870.66
390.98	3098.58
391.18	2469.85
391.39	2107.36
391.60	1822.69
391.81	1865.70
392.02	1685.48
392.23	1820.64
392.43	1767.40
392.64	1759.21
392.85	1714.15
393.06	1863.65
393.27	1673.19
393.47	1593.32
393.68	1738.73
393.89	1673.19
394.10	1830.88
394.31	1689.57
394.52	1677.29
394.72	1712.10
394.93	1773.54
395.14	1644.52
395.35	1718.25
395.56	1708.01
395.76	1761.25
395.97	1755.11
396.18	1865.70
396.39	1927.14
396.60	1988.58
396.80	1814.50
397.01	1886.18
397.22	1841.12
397.43	1882.08
397.64	1650.66
397.84	1781.73
398.05	1841.12
398.26	1689.57
398.47	1810.40
398.67	1771.49
398.88	1757.16
399.09	1738.73
399.30	1687.53
399.51	1738.73
399.71	1691.62
399.92	1798.12
400.13	1746.92
400.34	1683.43
400.54	1665.00
400.75	1710.05
400.96	1785.83
401.17	1728.49
401.37	1771.49
401.58	1624.04
401.79	1765.35
402.00	1855.46
402.21	1988.58
402.41	1910.75
402.62	2002.91
402.83	2076.64
403.04	1949.67
403.24	2062.30
403.45	1877.99
403.66	1945.57
403.87	1871.84
404.07	1939.43
404.28	1867.75
404.49	1894.37
404.70	1798.12
404.90	1724.39
405.11	1738.73
405.32	1693.67
405.52	1662.95
405.73	1611.75
405.94	1685.48
406.15	1757.16
406.35	1740.77
406.56	1636.33
406.77	1660.90
406.98	1740.77
407.18	1703.91
407.39	1814.50
407.60	1708.01
407.80	1746.92
408.01	1744.87
408.22	1716.20
408.43	1662.95
408.63	1730.53
408.84	1732.58
409.05	1746.92
409.25	1652.71
409.46	1701.86
409.67	1671.14
409.88	1691.62
410.08	1771.49
410.29	1708.01
410.50	1746.92
410.70	1697.77
410.91	1660.90
411.12	1787.88
411.32	1759.21
411.53	1697.77
411.74	1806.31
411.95	1849.32
412.15	1740.77
412.36	1736.68
412.57	1751.01
412.77	1816.55
412.98	1820.64
413.19	1642.47
413.39	1703.91
413.60	1787.88
413.81	1783.78
414.01	1677.29
414.22	1738.73
414.43	1746.92
414.63	1697.77
414.84	1738.73
415.05	1703.91
415.25	1595.37
415.46	1767.40
415.67	1677.29
415.87	1708.01
416.08	1738.73
416.29	1654.76
416.49	1767.40
416.70	1730.53
416.91	1673.19
417.11	1724.39
417.32	1783.78
417.53	1751.01
417.73	1697.77
417.94	1710.05
418.15	1701.86
418.35	1714.15
418.56	1685.48
418.77	1789.92
418.97	1712.10
419.18	1695.72
419.38	1607.66
419.59	1583.08
419.80	1759.21
420.00	1640.42
420.21	1730.53
420.42	1810.40
420.62	1724.39
420.83	1685.48
421.04	1716.20
421.24	1630.18
421.45	1767.40
421.65	1708.01
421.86	1718.25
422.07	1718.25
422.27	1722.34
422.48	1689.57
422.69	1695.72
422.89	1675.24
423.10	1669.09
423.30	1699.81
423.51	1699.81
423.72	1708.01
423.92	1724.39
424.13	1617.90
424.33	1791.97
424.54	1757.16
424.75	1796.07
424.95	1746.92
425.16	1705.96
425.36	1681.38
425.57	1767.40
425.78	1777.64
425.98	1724.39
426.19	1640.42
426.39	1710.05
426.60	1712.10
426.81	1773.54
427.01	1728.49
427.22	1673.19
427.42	1566.70
427.63	1738.73
427.83	1712.10
428.04	1816.55
428.25	1808.36
428.45	1759.21
428.66	1689.57
428.86	1767.40
429.07	1703.91
429.28	1806.31
429.48	1691.62
429.69	1720.29
429.89	1712.10
430.10	1617.90
430.30	1740.77
430.51	1667.05
430.71	1687.53
430.92	1701.86
431.13	1714.15
431.33	1761.25
431.54	1751.01
431.74	1837.03
431.95	1816.55
432.15	1703.91
432.36	1691.62
432.56	1738.73
432.77	1775.59
432.98	1802.21
433.18	1667.05
433.39	1691.62
433.59	1705.96
433.80	1892.32
434.00	1857.51
434.21	1710.05
434.41	1654.76
434.62	1791.97
434.82	1652.71
435.03	1705.96
435.23	1726.44
435.44	1578.98
435.64	1685.48
435.85	1726.44
436.06	1812.45
436.26	1701.86
436.47	1689.57
436.67	1699.81
436.88	1685.48
437.08	1699.81
437.29	1777.64
437.49	1775.59
437.70	1789.92
437.90	1732.58
438.11	1871.84
438.31	1773.54
438.52	1800.16
438.72	1828.84
438.93	1896.42
439.13	1724.39
439.34	1869.80
439.54	1730.53
439.75	1810.40
439.95	1791.97
440.16	1697.77
440.36	1693.67
440.57	1740.77
440.77	1738.73
440.98	1740.77
441.18	1746.92
441.39	1679.33
441.59	1710.05
441.80	1798.12
442.00	1763.30
442.21	1802.21
442.41	1626.09
442.62	1771.49
442.82	1708.01
443.02	1722.34
443.23	1771.49
443.43	1744.87
443.64	1785.83
443.84	1697.77
444.05	1748.97
444.25	1697.77
444.46	1734.63
444.66	1708.01
444.87	1839.08
445.07	1703.91
445.28	1728.49
445.48	1787.88
445.69	1726.44
445.89	1882.08
446.09	1746.92
446.30	1996.77
446.50	2648.02
446.71	3725.26
446.91	4331.45
447.12	4775.86
447.32	4818.87
447.53	4280.25
447.73	3819.46
447.93	3448.78
448.14	3393.48
448.34	3139.54
448.55	2928.60
448.75	2918.36
448.96	2707.41
449.16	2381.79
449.36	2293.72
449.57	2047.97
449.77	1855.46
449.98	1800.16
450.18	1808.36
450.39	1834.98
450.59	1693.67
450.79	1685.48
451.00	1703.91
451.20	1771.49
451.41	1746.92
451.61	1841.12
451.81	1748.97
452.02	1728.49
452.22	1681.38
452.43	1746.92
452.63	1714.15
452.84	1746.92
453.04	1705.96
453.24	1800.16
453.45	1665.00
453.65	1802.21
453.86	1757.16
454.06	1791.97
454.26	1710.05
454.47	1675.24
454.67	1785.83
454.87	1781.73
455.08	1687.53
455.28	1841.12
455.49	1767.40
455.69	1689.57
455.89	1779.68
456.10	1779.68
456.30	1726.44
456.51	1712.10
456.71	1763.30
456.91	1824.74
457.12	1718.25
457.32	1734.63
457.52	1783.78
457.73	1771.49
457.93	1720.29
458.14	1669.09
458.34	1632.23
458.54	1691.62
458.75	1681.38
458.95	1806.31
459.15	1746.92
459.36	1736.68
459.56	1761.25
459.76	1824.74
459.97	1732.58
460.17	1722.34
460.37	1867.75
460.58	1714.15
460.78	1804.26
460.99	1671.14
461.19	1720.29
461.39	1603.56
461.60	1746.92
461.80	1728.49
462.00	1615.85
462.21	1656.81
462.41	1701.86
462.61	1681.38
462.82	1701.86
463.02	1753.06
463.22	1796.07
463.43	1789.92
463.63	1710.05
463.83	1841.12
464.04	1791.97
464.24	1697.77
464.44	1669.09
464.64	1677.29
464.85	1687.53
465.05	1742.82
465.25	1742.82
465.46	1714.15
465.66	1808.36
465.86	1839.08
466.07	1656.81
466.27	1716.20
466.47	1630.18
466.68	1613.80
466.88	1810.40
467.08	1804.26
467.29	1771.49
467.49	1769.44
467.69	1714.15
467.89	1765.35
468.10	1728.49
468.30	1662.95
468.50	1873.89
468.71	1761.25
468.91	1599.46
469.11	1841.12
469.31	1675.24
469.52	1667.05
469.72	1757.16
469.92	1800.16
470.13	1673.19
470.33	1708.01
470.53	1822.69
470.73	2109.41
470.94	2308.06
471.14	2238.43
471.34	2432.99
471.54	2361.31
471.75	2230.24
471.95	2111.46
472.15	2076.64
472.36	2117.60
472.56	2107.36
472.76	2033.63
472.96	1890.28
473.17	2029.54
473.37	1865.70
473.57	1783.78
473.77	1812.45
473.98	1810.40
474.18	1675.24
474.38	1857.51
474.58	1693.67
474.79	1761.25
474.99	1806.31
475.19	1728.49
475.39	1681.38
475.60	1755.11
475.80	1765.35
476.00	1718.25
476.20	1683.43
476.41	1769.44
476.61	1699.81
476.81	1867.75
477.01	1744.87
477.21	1830.88
477.42	1783.78
477.62	1669.09
477.82	1708.01
478.02	1791.97
478.23	1763.30
478.43	1691.62
478.63	1724.39
478.83	1736.68
479.03	1632.23
479.24	1814.50
479.44	1816.55
479.64	1646.57
479.84	1572.84
480.04	1730.53
480.25	1771.49
480.45	1679.33
480.65	1703.91
480.85	1791.97
481.06	1716.20
481.26	1738.73
481.46	1812.45
481.66	1687.53
481.86	1701.86
482.06	1814.50
482.27	1687.53
482.47	1767.40
482.67	1726.44
482.87	1722.34
483.07	1755.11
483.28	1648.61
483.48	1685.48
483.68	1753.06
483.88	1636.33
484.08	1589.22
484.29	1621.99
484.49	1691.62
484.69	1665.00
484.89	1775.59
485.09	1806.31
485.29	1765.35
485.50	1746.92
485.70	1763.30
485.90	1798.12
486.10	1701.86
486.30	1740.77
486.50	1855.46
486.71	1777.64
486.91	1748.97
487.11	1730.53
487.31	1621.99
487.51	1744.87
487.71	1673.19
487.91	1574.89
488.12	1667.05
488.32	1621.99
488.52	1757.16
488.72	1632.23
488.92	1671.14
489.12	1785.83
489.32	1767.40
489.53	1802.21
489.73	1654.76
489.93	1806.31
490.13	1626.09
490.33	1615.85
490.53	1742.82
490.73	1861.60
490.94	1617.90
491.14	1740.77
491.34	1814.50
491.54	2113.50
491.74	2529.24
491.94	2965.46
492.14	3004.37
492.34	3049.43
492.54	2738.13
492.75	2471.90
492.95	2349.02
493.15	2220.00
493.35	2295.77
493.55	2222.05
493.75	2127.84
493.95	2215.90
494.15	2009.06
494.35	1966.05
494.56	1865.70
494.76	1806.31
494.96	1804.26
495.16	1796.07
495.36	1691.62
495.56	1662.95
495.76	1718.25
495.96	1755.11
496.16	1654.76
496.36	1882.08
496.56	1791.97
496.77	1748.97
496.97	1652.71
497.17	1697.77
497.37	1681.38
497.57	1759.21
497.77	1685.48
497.97	1753.06
498.17	1806.31
498.37	1646.57
498.57	1791.97
498.77	1722.34
498.97	1763.30
499.17	1820.64
499.38	1742.82
499.58	1744.87
499.78	1693.67
499.98	1800.16
500.18	1757.16
500.38	1757.16
500.58	1871.84
500.78	2525.15
500.98	4575.16
501.18	5830.57
501.38	6821.78
501.58	7303.06
501.78	6723.48
501.98	5476.27
502.18	4997.04
502.38	4351.93
502.58	4128.70
502.78	3755.97
502.98	3618.76
503.18	3481.55
503.38	3225.55
503.59	2809.81
503.79	2670.55
503.99	2455.51
504.19	2205.66
504.39	2310.11
504.59	2193.37
504.79	2142.18
504.99	2097.12
505.19	1933.28
505.39	1855.46
505.59	1959.91
505.79	1863.65
505.99	1931.23
506.19	1794.02
506.39	1886.18
506.59	1656.81
506.79	1771.49
506.99	1814.50
507.19	1812.45
507.39	1740.77
507.59	1640.42
507.79	1654.76
507.99	1646.57
508.19	1738.73
508.39	1665.00
508.59	1718.25
508.79	1734.63
508.99	1710.05
509.19	1738.73
509.39	1720.29
509.59	1658.85
509.79	1691.62
509.99	1734.63
510.19	1744.87
510.39	1769.44
510.59	1810.40
510.79	1718.25
510.99	1662.95
511.19	1683.43
511.39	1873.89
511.59	1824.74
511.79	1845.22
511.99	1732.58
512.19	1720.29
512.38	1771.49
512.58	1685.48
512.78	1730.53
512.98	1744.87
513.18	1855.46
513.38	1689.57
513.58	1804.26
513.78	1687.53
513.98	1722.34
514.18	1722.34
514.38	1755.11
514.58	1746.92
514.78	1611.75
514.98	1734.63
515.18	1714.15
515.38	1708.01
515.58	1773.54
515.78	1654.76
515.98	1638.38
516.18	1748.97
516.38	1714.15
516.57	1705.96
516.77	1697.77
516.97	1785.83
517.17	1730.53
517.37	1621.99
517.57	1816.55
517.77	1753.06
517.97	1714.15
518.17	1789.92
518.37	1705.96
518.57	1675.24
518.77	1736.68
518.97	1730.53
519.16	1669.09
519.36	1732.58
519.56	1746.92
519.76	1720.29
519.96	1757.16
520.16	1769.44
520.36	1691.62
520.56	1861.60
520.76	1734.63
520.96	1757.16
521.16	1820.64
521.35	1816.55
521.55	1822.69
521.75	1701.86
521.95	1748.97
522.15	1783.78
522.35	1669.09
522.55	1695.72
522.75	1726.44
522.95	1683.43
523.14	1751.01
523.34	1712.10
523.54	1728.49
523.74	1744.87
523.94	1798.12
524.14	1628.14
524.34	1746.92
524.54	1769.44
524.73	1671.14
524.93	1691.62
525.13	1726.44
525.33	1671.14
525.53	1898.47
525.73	1783.78
525.93	1781.73
526.13	1742.82
526.32	1732.58
526.52	1697.77
526.72	1730.53
526.92	1746.92
527.12	1777.64
527.32	1632.23
527.52	1753.06
527.71	1722.34
527.91	1771.49
528.11	1705.96
528.31	1734.63
528.51	1734.63
528.71	1751.01
528.90	1800.16
529.10	1771.49
529.30	1845.22
529.50	1642.47
529.70	1720.29
529.90	1789.92
530.09	1789.92
530.29	1710.05
530.49	1726.44
530.69	1820.64
530.89	1759.21
531.09	1738.73
531.28	1724.39
531.48	1785.83
531.68	1757.16
531.88	1671.14
532.08	1738.73
532.28	1705.96
532.47	1804.26
532.67	1787.88
532.87	1665.00
533.07	1648.61
533.27	1742.82
533.46	1708.01
533.66	1710.05
533.86	1705.96
534.06	1693.67
534.26	1738.73
534.45	1718.25
534.65	1820.64
534.85	1734.63
535.05	1722.34
535.25	1751.01
535.44	1673.19
535.64	1837.03
535.84	1720.29
536.04	1746.92
536.24	1691.62
536.43	1685.48
536.63	1703.91
536.83	1712.10
537.03	1730.53
537.22	1652.71
537.42	1681.38
537.62	1777.64
537.82	1734.63
538.02	1812.45
538.21	1822.69
538.41	1918.95
538.61	1818.60
538.81	1779.68
539.00	1834.98
539.20	1691.62
539.40	1681.38
539.60	1765.35
539.79	1787.88
539.99	1701.86
540.19	1658.85
540.39	1648.61
540.58	1697.77
540.78	1769.44
540.98	1808.36
541.18	1730.53
541.37	1777.64
541.57	1710.05
541.77	1697.77
541.97	1740.77
542.16	1638.38
542.36	1748.97
542.56	1652.71
542.76	1804.26
542.95	1714.15
543.15	1703.91
543.35	1791.97
543.54	1728.49
543.74	1714.15
543.94	1746.92
544.14	1755.11
544.33	1728.49
544.53	1730.53
544.73	1667.05
544.93	1705.96
545.12	1734.63
545.32	1744.87
545.52	1656.81
545.71	1673.19
545.91	1656.81
546.11	1673.19
546.30	1681.38
546.50	1728.49
546.70	1708.01
546.90	1746.92
547.09	1701.86
547.29	1755.11
547.49	1699.81
547.68	1751.01
547.88	1718.25
548.08	1767.40
548.27	2164.70
548.47	1638.38
548.67	1781.73
548.87	1722.34
549.06	1812.45
549.26	1765.35
549.46	1691.62
549.65	1738.73
549.85	1734.63
550.05	1738.73
550.24	1673.19
550.44	1621.99
550.64	1783.78
550.83	1779.68
551.03	1826.79
551.23	1740.77
551.42	1814.50
551.62	1769.44
551.82	1710.05
552.01	1726.44
552.21	1816.55
552.41	1656.81
552.60	1738.73
552.80	1656.81
553.00	1693.67
553.19	1777.64
553.39	1861.60
553.59	1654.76
553.78	1798.12
553.98	1658.85
554.17	1585.13
554.37	1718.25
554.57	1679.33
554.76	1751.01
554.96	1630.18
555.16	1767.40
555.35	1691.62
555.55	1751.01
555.75	1691.62
555.94	1765.35
556.14	1718.25
556.33	1753.06
556.53	1734.63
556.73	1763.30
556.92	1738.73
557.12	1789.92
557.32	1845.22
557.51	1785.83
557.71	1697.77
557.90	1853.41
558.10	1822.69
558.30	1667.05
558.49	1746.92
558.69	1714.15
558.88	1796.07
559.08	1708.01
559.28	1734.63
559.47	1734.63
559.67	1728.49
559.86	1865.70
560.06	1734.63
560.26	1677.29
560.45	1755.11
560.65	1703.91
560.84	1804.26
561.04	1689.57
561.24	1763.30
561.43	1667.05
561.63	1828.84
561.82	1744.87
562.02	1742.82
562.22	1699.81
562.41	1636.33
562.61	1720.29
562.80	1722.34
563.00	1834.98
563.19	1806.31
563.39	1738.73
563.59	1708.01
563.78	1748.97
563.98	1613.80
564.17	1669.09
564.37	1621.99
564.56	1740.77
564.76	1599.46
564.96	1837.03
565.15	1834.98
565.35	1908.71
565.54	1691.62
565.74	1751.01
565.93	1693.67
566.13	1724.39
566.32	1732.58
566.52	1802.21
566.71	1753.06
566.91	1755.11
567.11	1703.91
567.30	1728.49
567.50	1839.08
567.69	1814.50
567.89	1751.01
568.08	1763.30
568.28	1722.34
568.47	1658.85
568.67	1814.50
568.86	1687.53
569.06	1781.73
569.25	1701.86
569.45	1714.15
569.64	1730.53
569.84	1724.39
570.04	1757.16
570.23	1644.52
570.43	1681.38
570.62	1730.53
570.82	1755.11
571.01	1767.40
571.21	1697.77
571.40	1695.72
571.60	1769.44
571.79	1753.06
571.99	1783.78
572.18	1673.19
572.38	1722.34
572.57	1769.44
572.77	1828.84
572.96	1912.80
573.16	1759.21
573.35	1722.34
573.55	1865.70
573.74	1818.60
573.94	1673.19
574.13	1748.97
574.33	1773.54
574.52	1804.26
574.71	1773.54
574.91	1746.92
575.10	1738.73
575.30	1722.34
575.49	1720.29
575.69	1812.45
575.88	1720.29
576.08	1804.26
576.27	1800.16
576.47	1708.01
576.66	1873.89
576.86	1832.93
577.05	1771.49
577.25	1779.68
577.44	1826.79
577.64	1697.77
577.83	1767.40
578.02	1775.59
578.22	1763.30
578.41	1873.89
578.61	1699.81
578.80	1710.05
579.00	1773.54
579.19	1759.21
579.39	1830.88
579.58	1904.61
579.77	1730.53
579.97	1849.32
580.16	1828.84
580.36	1857.51
580.55	1763.30
580.75	1875.94
580.94	1742.82
581.13	1855.46
581.33	1923.04
581.52	1703.91
581.72	1877.99
581.91	1783.78
582.11	1730.53
582.30	1804.26
582.49	1769.44
582.69	1802.21
582.88	1845.22
583.08	1800.16
583.27	1775.59
583.47	1812.45
583.66	1738.73
583.85	1722.34
584.05	1779.68
584.24	1824.74
584.44	1824.74
584.63	1767.40
584.82	1839.08
585.02	1900.52
585.21	1841.12
585.41	1814.50
585.60	1847.27
585.79	1865.70
585.99	1892.32
586.18	1865.70
586.37	2181.09
586.57	3391.44
586.76	9865.07
586.96	24675.98
587.15	34737.65
587.34	40363.42
587.54	42438.01
587.73	36922.83
587.93	26443.37
588.12	21606.07
588.31	18540.26
588.51	16703.23
588.70	15163.16
588.89	14026.54
589.09	12529.47
589.28	11079.51
589.47	9469.81
589.67	8015.75
589.86	6518.68
590.06	5072.82
590.25	3991.49
590.44	3123.15
590.64	2635.74
590.83	2293.72
591.02	2129.89
591.22	1961.95
591.41	1935.33
591.60	1859.56
591.80	1896.42
591.99	1695.72
592.18	1757.16
592.38	1794.02
592.57	1742.82
592.76	1773.54
592.96	1675.24
593.15	1734.63
593.34	1796.07
593.54	1748.97
593.73	1843.17
593.92	1677.29
594.12	1720.29
594.31	1726.44
594.50	1804.26
594.70	1828.84
594.89	1841.12
595.08	1716.20
595.28	1779.68
595.47	1953.76
595.66	1826.79
595.86	1761.25
596.05	1748.97
596.24	1701.86
596.43	1851.36
596.63	1779.68
596.82	1767.40
597.01	1755.11
597.21	1906.66
597.40	1808.36
597.59	1802.21
597.79	1681.38
597.98	1855.46
598.17	1705.96
598.36	1708.01
598.56	1804.26
598.75	1804.26
598.94	1724.39
599.14	1724.39
599.33	1705.96
599.52	1746.92
599.71	1734.63
599.91	1800.16
600.10	1755.11
600.29	1751.01
600.48	1753.06
600.68	1699.81
600.87	1732.58
601.06	1726.44
601.26	1705.96
601.45	1740.77
601.64	1705.96
601.83	1759.21
602.03	1734.63
602.22	1716.20
602.41	1703.91
602.60	1834.98
602.80	1759.21
602.99	1761.25
603.18	1607.66
603.37	1761.25
603.57	1806.31
603.76	1757.16
603.95	1740.77
604.14	1738.73
604.34	1818.60
604.53	1724.39
604.72	1771.49
604.91	1800.16
605.10	1689.57
605.30	1648.61
605.49	1853.41
605.68	1810.40
605.87	1783.78
606.07	1685.48
606.26	1734.63
606.45	1765.35
606.64	1726.44
606.84	1615.85
607.03	1742.82
607.22	1738.73
607.41	1720.29
607.60	1714.15
607.80	1820.64
607.99	1767.40
608.18	1726.44
608.37	1693.67
608.56	1681.38
608.76	1812.45
608.95	1863.65
609.14	1837.03
609.33	1771.49
609.52	1763.30
609.72	1701.86
609.91	1873.89
610.10	1697.77
610.29	1802.21
610.48	1806.31
610.68	1730.53
610.87	1656.81
611.06	1730.53
611.25	1648.61
611.44	1822.69
611.63	1720.29
611.83	1812.45
612.02	1681.38
612.21	1773.54
612.40	1697.77
612.59	1628.14
612.79	1677.29
612.98	1722.34
613.17	1841.12
613.36	1732.58
613.55	1812.45
613.74	1673.19
613.93	1720.29
614.13	1675.24
614.32	1773.54
614.51	1796.07
614.70	1640.42
614.89	1636.33
615.08	1769.44
615.28	2047.97
615.47	1636.33
615.66	1761.25
615.85	1771.49
616.04	1763.30
616.23	1705.96
616.42	1714.15
616.62	1744.87
616.81	1804.26
617.00	1677.29
617.19	1742.82
617.38	1626.09
617.57	1722.34
617.76	1742.82
617.95	1816.55
618.15	1802.21
618.34	1769.44
618.53	1626.09
618.72	1804.26
618.91	1822.69
619.10	1732.58
619.29	1708.01
619.48	1712.10
619.68	1640.42
619.87	1771.49
620.06	1675.24
620.25	1796.07
620.44	1705.96
620.63	1691.62
620.82	1660.90
621.01	1746.92
621.20	1742.82
621.39	1728.49
621.59	1781.73
621.78	1697.77
621.97	1712.10
622.16	1775.59
622.35	1753.06
622.54	1771.49
622.73	1789.92
622.92	1648.61
623.11	1777.64
623.30	1640.42
623.49	1755.11
623.68	1699.81
623.88	1767.40
624.07	1693.67
624.26	1751.01
624.45	1769.44
624.64	1730.53
624.83	1755.11
625.02	1830.88
625.21	1771.49
625.40	1771.49
625.59	1712.10
625.78	1742.82
625.97	1794.02
626.16	1800.16
626.35	1740.77
626.54	1699.81
626.74	1781.73
626.93	1636.33
627.12	1685.48
627.31	1716.20
627.50	1705.96
627.69	1800.16
627.88	1665.00
628.07	1755.11
628.26	1652.71
628.45	1660.90
628.64	1705.96
628.83	1722.34
629.02	1685.48
629.21	1773.54
629.40	1789.92
629.59	1656.81
629.78	1681.38
629.97	1662.95
630.16	1761.25
630.35	1665.00
630.54	1677.29
630.73	1703.91
630.92	1765.35
631.11	1628.14
631.30	1744.87
631.49	1761.25
631.68	1728.49
631.87	1714.15
632.06	1681.38
632.25	1861.60
632.44	1728.49
632.63	1759.21
632.82	1658.85
633.01	1656.81
633.20	1703.91
633.39	1673.19
633.58	1691.62
633.77	1724.39
633.96	1708.01
634.15	1728.49
634.34	1775.59
634.53	1648.61
634.72	1728.49
634.91	1636.33
635.10	1675.24
635.29	1775.59
635.48	1703.91
635.67	1644.52
635.86	1714.15
636.05	1744.87
636.24	1740.77
636.43	1687.53
636.62	1791.97
636.81	1591.27
637.00	1769.44
637.19	1753.06
637.38	1740.77
637.57	1642.47
637.76	1689.57
637.95	1730.53
638.14	1642.47
638.33	1675.24
638.52	1734.63
638.71	1705.96
638.89	1701.86
639.08	1875.94
639.27	1779.68
639.46	1759.21
639.65	1824.74
639.84	1687.53
640.03	1814.50
640.22	1726.44
640.41	1800.16
640.60	1660.90
640.79	1714.15
640.98	1679.33
641.17	1667.05
641.36	1638.38
641.55	1804.26
641.74	1621.99
641.92	1593.32
642.11	1626.09
642.30	1677.29
642.49	1681.38
642.68	1714.15
642.87	1767.40
643.06	1867.75
643.25	1675.24
643.44	1615.85
643.63	1740.77
643.82	1769.44
644.00	1669.09
644.19	1681.38
644.38	1652.71
644.57	1705.96
644.76	1724.39
644.95	1728.49
645.14	1689.57
645.33	1726.44
645.52	1708.01
645.71	1660.90
645.89	1660.90
646.08	1626.09
646.27	1726.44
646.46	1853.41
646.65	1665.00
646.84	1699.81
647.03	1632.23
647.22	1781.73
647.40	1677.29
647.59	1730.53
647.78	1687.53
647.97	1652.71
648.16	1626.09
648.35	1757.16
648.54	1734.63
648.73	1687.53
648.91	1732.58
649.10	1703.91
649.29	1656.81
649.48	1665.00
649.67	1712.10
649.86	1748.97
650.05	1630.18
650.23	1753.06
650.42	1671.14
650.61	1785.83
650.80	1673.19
650.99	1859.56
651.18	1726.44
651.36	1757.16
651.55	1671.14
651.74	1796.07
651.93	1667.05
652.12	1679.33
652.31	1687.53
652.49	1734.63
652.68	1665.00
652.87	1761.25
653.06	1710.05
653.25	1796.07
653.44	1712.10
653.62	1796.07
653.81	1753.06
654.00	1705.96
654.19	1802.21
654.38	1904.61
654.56	1755.11
654.75	1665.00
654.94	1761.25
655.13	1726.44
655.32	1734.63
655.51	1746.92
655.69	1755.11
655.88	1691.62
656.07	1607.66
656.26	1785.83
656.45	1683.43
656.63	1738.73
656.82	1697.77
657.01	1751.01
657.20	1667.05
657.38	1767.40
657.57	1722.34
657.76	1648.61
657.95	1742.82
658.14	1705.96
658.32	1724.39
658.51	1660.90
658.70	1746.92
658.89	1789.92
659.08	1675.24
659.26	1751.01
659.45	1681.38
659.64	1755.11
659.83	1585.13
660.01	1910.75
660.20	1746.92
660.39	1757.16
660.58	1626.09
660.76	1697.77
660.95	1644.52
661.14	1794.02
661.33	1675.24
661.51	1712.10
661.70	1679.33
661.89	1716.20
662.08	1746.92
662.26	1626.09
662.45	1683.43
662.64	1882.08
662.83	1732.58
663.01	1624.04
663.20	1683.43
663.39	1855.46
663.58	1644.52
663.76	1791.97
663.95	1703.91
664.14	1669.09
664.32	1654.76
664.51	1689.57
664.70	1648.61
664.89	1767.40
665.07	1656.81
665.26	1812.45
665.45	1681.38
665.64	1722.34
665.82	1705.96
666.01	1724.39
666.20	1673.19
666.38	1845.22
666.57	1847.27
666.76	2271.20
666.95	4540.35
667.13	10577.76
667.32	15099.67
667.51	17831.66
667.69	19150.56
667.88	17979.12
668.07	12504.90
668.25	9817.96
668.44	8069.00
668.63	7346.06
668.81	6768.54
669.00	6203.30
669.19	5765.03
669.38	5160.88
669.56	4462.52
669.75	4048.83
669.94	3448.78
670.12	2858.96
670.31	2543.58
670.50	2224.09
670.68	2050.02
670.87	1996.77
671.06	1800.16
671.24	1834.98
671.43	1769.44
671.62	1830.88
671.80	1636.33
671.99	1773.54
672.18	1703.91
672.36	1800.16
672.55	1755.11
672.74	1708.01
672.92	1687.53
673.11	1804.26
673.29	1669.09
673.48	1761.25
673.67	1669.09
673.85	1718.25
674.04	1728.49
674.23	1761.25
674.41	1779.68
674.60	1673.19
674.79	1642.47
674.97	1712.10
675.16	1769.44
675.34	1746.92
675.53	1634.28
675.72	1783.78
675.90	1783.78
676.09	1732.58
676.28	1744.87
676.46	1646.57
676.65	1771.49
676.83	1667.05
677.02	1738.73
677.21	1654.76
677.39	1810.40
677.58	1611.75
677.77	1667.05
677.95	1691.62
678.14	1683.43
678.32	1724.39
678.51	1624.04
678.70	1882.08
678.88	1751.01
679.07	1681.38
679.25	1675.24
679.44	1718.25
679.63	1574.89
679.81	1724.39
680.00	1734.63
680.18	1796.07
680.37	1769.44
680.55	1679.33
680.74	1726.44
680.93	1609.70
681.11	1636.33
681.30	1748.97
681.48	1724.39
681.67	1730.53
681.85	1697.77
682.04	1619.94
682.23	1734.63
682.41	1683.43
682.60	1656.81
682.78	1652.71
682.97	1656.81
683.15	1681.38
683.34	1705.96
683.53	1781.73
683.71	1722.34
683.90	1763.30
684.08	1689.57
684.27	1736.68
684.45	1742.82
684.64	1791.97
684.82	1681.38
685.01	1740.77
685.19	1722.34
685.38	1826.79
685.57	1693.67
685.75	1658.85
685.94	1734.63
686.12	1638.38
686.31	1683.43
686.49	1757.16
686.68	1564.65
686.86	1810.40
687.05	1691.62
687.23	1783.78
687.42	1726.44
687.60	1640.42
687.79	1767.40
687.97	1738.73
688.16	1791.97
688.34	1781.73
688.53	1578.98
688.71	1691.62
688.90	1814.50
689.08	1728.49
689.27	1646.57
689.45	1787.88
689.64	1761.25
689.82	1742.82
690.01	1656.81
690.19	1783.78
690.38	1689.57
690.56	1759.21
690.75	1634.28
690.93	1775.59
691.12	1687.53
691.30	1748.97
691.49	1650.66
691.67	1656.81
691.86	1822.69
692.04	1615.85
692.23	1714.15
692.41	1681.38
692.60	1765.35
692.78	1732.58
692.97	1746.92
693.15	1773.54
693.34	1779.68
693.52	1757.16
693.71	1665.00
693.89	1726.44
694.08	1564.65
694.26	1726.44
694.44	1720.29
694.63	1677.29
694.81	1630.18
695.00	1687.53
695.18	1751.01
695.37	1845.22
695.55	1673.19
695.74	1751.01
695.92	1708.01
696.10	1730.53
696.29	1660.90
696.47	1708.01
696.66	1640.42
696.84	1642.47
697.03	1710.05
697.21	1759.21
697.40	2267.10
697.58	1779.68
697.76	1650.66
697.95	1615.85
698.13	1636.33
698.32	1779.68
698.50	1767.40
698.68	1816.55
698.87	1775.59
699.05	1783.78
699.24	1742.82
699.42	1673.19
699.61	1744.87
699.79	1724.39
699.97	1703.91
700.16	1644.52
700.34	1712.10
700.53	1746.92
700.71	1777.64
700.89	1740.77
701.08	1720.29
701.26	1753.06
701.45	2050.02
701.63	1679.33
701.81	1714.15
702.00	1701.86
702.18	1685.48
702.37	1626.09
702.55	1718.25
702.73	1697.77
702.92	1710.05
703.10	1744.87
703.28	1767.40
703.47	1656.81
703.65	1757.16
703.84	1716.20
704.02	1669.09
704.20	1744.87
704.39	1628.14
704.57	1673.19
704.75	1744.87
704.94	1759.21
705.12	1628.14
705.30	1755.11
705.49	2187.23
705.67	4280.25
705.86	9465.71
706.04	12724.03
706.22	14718.75
706.41	15406.87
706.59	13897.52
706.77	9695.08
706.96	7403.41
707.14	6600.60
707.32	6043.56
707.51	5597.10
707.69	4958.13
707.87	4286.40
708.06	3608.52
708.24	2949.08
708.42	2373.60
708.61	2316.25
708.79	1906.66
708.97	1865.70
709.16	1865.70
709.34	1753.06
709.52	1714.15
709.71	1722.34
709.89	1751.01
710.07	1726.44
710.26	1669.09
710.44	1728.49
710.62	1796.07
710.80	1665.00
710.99	1804.26
711.17	1755.11
711.35	1720.29
711.54	1617.90
711.72	1748.97
711.90	1740.77
712.09	1675.24
712.27	1677.29
712.45	1736.68
712.63	1722.34
712.82	1763.30
713.00	1771.49
713.18	1701.86
713.37	1791.97
713.55	1757.16
713.73	1681.38
713.91	1728.49
714.10	1718.25
714.28	1724.39
714.46	1748.97
714.65	1726.44
714.83	1699.81
715.01	1789.92
715.19	1759.21
715.38	1669.09
715.56	1718.25
715.74	1673.19
715.92	1656.81
716.11	1734.63
716.29	1681.38
716.47	1697.77
716.65	1712.10
716.84	1615.85
717.02	1800.16
717.20	1617.90
717.38	1675.24
717.57	1742.82
717.75	1738.73
717.93	1693.67
718.11	1722.34
718.30	1652.71
718.48	1632.23
718.66	1748.97
718.84	1701.86
719.03	1703.91
719.21	1652.71
719.39	1755.11
719.57	1734.63
719.75	1712.10
719.94	1699.81
720.12	1652.71
720.30	1777.64
720.48	1847.27
720.67	1675.24
720.85	1654.76
721.03	1665.00
721.21	1626.09
721.39	1765.35
721.58	1732.58
721.76	1728.49
721.94	1742.82
722.12	1685.48
722.30	1775.59
722.49	1671.14
722.67	1669.09
722.85	1662.95
723.03	1595.37
723.21	1658.85
723.40	1712.10
723.58	1675.24
723.76	1726.44
723.94	1734.63
724.12	1722.34
724.30	1773.54
724.49	1763.30
724.67	1587.18
724.85	1834.98
725.03	1642.47
725.21	1781.73
725.40	1753.06
725.58	1671.14
725.76	1824.74
725.94	1708.01
726.12	1687.53
726.30	1761.25
726.49	1697.77
726.67	1662.95
726.85	1712.10
727.03	1736.68
727.21	2127.84
727.39	2973.65
727.57	3811.27
727.76	4161.47
727.94	4411.32
728.12	4421.56
728.30	3741.64
728.48	3008.47
728.66	2752.47
728.84	2533.34
729.03	2285.53
729.21	2160.61
729.39	1966.05
729.57	1920.99
729.75	1839.08
729.93	1787.88
730.11	1681.38
730.30	1720.29
730.48	1665.00
730.66	1789.92
730.84	1716.20
731.02	1746.92
731.20	1673.19
731.38	1685.48
731.56	1636.33
731.74	1626.09
731.93	1757.16
732.11	1726.44
732.29	1687.53
732.47	1781.73
732.65	1685.48
732.83	1779.68
733.01	1705.96
733.19	1683.43
733.37	1722.34
733.56	1740.77
733.74	1656.81
733.92	1816.55
734.10	1673.19
734.28	1685.48
734.46	1665.00
734.64	1652.71
734.82	1726.44
735.00	1669.09
735.18	1708.01
735.36	1683.43
735.54	1697.77
735.73	1695.72
735.91	1708.01
736.09	1740.77
736.27	1667.05
736.45	1748.97
736.63	1603.56
736.81	1656.81
736.99	1767.40
737.17	1794.02
737.35	1662.95
737.53	1728.49
737.71	1675.24
737.89	1808.36
738.07	1624.04
738.25	1613.80
738.43	1587.18
738.61	1576.94
738.80	1595.37
738.98	1671.14
739.16	1681.38
739.34	1650.66
739.52	1755.11
739.70	1665.00
739.88	1728.49
740.06	1765.35
740.24	1660.90
740.42	1726.44
740.60	1634.28
740.78	1683.43
740.96	1613.80
741.14	1673.19
741.32	1671.14
741.50	1640.42
741.68	1812.45
741.86	1759.21
742.04	1712.10
742.22	1685.48
742.40	1724.39
742.58	1751.01
742.76	1609.70
742.94	1746.92
743.12	1636.33
743.30	1703.91
743.48	1791.97
743.66	1652.71
743.84	1705.96
744.02	1658.85
744.20	1718.25
744.38	1595.37
744.56	1644.52
744.74	1867.75
744.92	1730.53
745.10	1816.55
745.28	1765.35
745.46	1800.16
745.64	1646.57
745.82	1804.26
746.00	1673.19
746.18	1800.16
746.36	1636.33
746.54	1695.72
746.72	1654.76
746.90	1648.61
747.08	1771.49
747.26	1710.05
747.44	1812.45
747.62	1703.91
747.80	1669.09
747.98	1820.64
748.15	1617.90
748.33	1732.58
748.51	1656.81
748.69	1791.97
748.87	1615.85
749.05	1654.76
749.23	1740.77
749.41	1718.25
749.59	1660.90
749.77	1712.10
749.95	1675.24
750.13	1681.38
750.31	1734.63
750.49	1705.96
750.67	1710.05
750.85	1732.58
751.03	1705.96
751.20	1806.31
751.38	1662.95
751.56	1681.38
751.74	1726.44
751.92	1726.44
752.10	1730.53
752.28	1763.30
752.46	1695.72
752.64	1693.67
752.82	1710.05
753.00	1794.02
753.18	1662.95
753.35	1683.43
753.53	1714.15
753.71	1703.91
753.89	1734.63
754.07	1744.87
754.25	1757.16
754.43	1736.68
754.61	1624.04
754.79	1660.90
754.97	1626.09
755.14	1732.58
755.32	1716.20
755.50	1783.78
755.68	1771.49
755.86	1705.96
756.04	1611.75
756.22	1642.47
756.40	1720.29
756.57	1822.69
756.75	1632.23
756.93	1796.07
757.11	1746.92
757.29	1646.57
757.47	1626.09
757.65	1701.86
757.82	1562.60
758.00	1738.73
758.18	1619.94
758.36	1665.00
758.54	1757.16
758.72	1675.24
758.90	1769.44
759.07	1730.53
759.25	1703.91
759.43	1769.44
759.61	1576.94
759.79	2238.43
759.97	1742.82
760.15	1652.71
760.32	1687.53
760.50	1763.30
760.68	1841.12
760.86	1603.56
761.04	1746.92
761.22	1708.01
761.39	1740.77
761.57	1755.11
761.75	1677.29
761.93	1751.01
762.11	1630.18
762.28	1728.49
762.46	1708.01
762.64	1767.40
762.82	1574.89
763.00	1677.29
763.18	1779.68
763.35	1615.85
763.53	1716.20
763.71	1683.43
763.89	1697.77
764.07	1681.38
764.24	1656.81
764.42	1746.92
764.60	1701.86
764.78	1734.63
764.96	1742.82
765.13	1775.59
765.31	1720.29
765.49	1718.25
765.67	1658.85
765.84	1673.19
766.02	1609.70
766.20	1642.47
766.38	1744.87
766.56	1736.68
766.73	1783.78
766.91	1708.01
767.09	1697.77
767.27	1679.33
767.44	1619.94
767.62	1691.62
767.80	1673.19
767.98	1673.19
768.15	1718.25
768.33	1759.21
768.51	1718.25
768.69	1765.35
768.87	1722.34
769.04	1583.08
769.22	1814.50
769.40	1808.36
769.58	1896.42
769.75	1714.15
769.93	1863.65
770.11	1667.05
770.28	1638.38
770.46	1736.68
770.64	1718.25
770.82	1738.73
770.99	1683.43
771.17	1734.63
771.35	1587.18
771.53	1636.33
771.70	1648.61
771.88	1724.39
772.06	1687.53
772.23	1714.15
772.41	1720.29
772.59	1607.66
772.77	1624.04
772.94	1722.34
773.12	1769.44
773.30	1640.42
773.47	1667.05
773.65	1621.99
773.83	1886.18
774.01	1624.04
774.18	1781.73
774.36	1710.05
774.54	1746.92
774.71	1701.86
774.89	1550.31
775.07	1658.85
775.24	1609.70
775.42	1695.72
775.60	1812.45
775.78	1703.91
775.95	1667.05
776.13	1609.70
776.31	1531.88
776.48	1748.97
776.66	1746.92
776.84	1695.72
777.01	1650.66
777.19	1658.85
777.37	1642.47
777.54	1779.68
777.72	1841.12
777.90	1718.25
778.07	1673.19
778.25	1912.80
778.43	1736.68
778.60	1611.75
778.78	1705.96
778.96	1748.97
779.13	1613.80
779.31	1771.49
779.49	1681.38
779.66	1675.24
779.84	1746.92
780.01	1703.91
780.19	1685.48
780.37	1796.07
780.54	1710.05
780.72	1724.39
780.90	1650.66
781.07	1652.71
781.25	1632.23
781.43	1789.92
781.60	1681.38
781.78	1777.64
781.95	1665.00
782.13	1667.05
782.31	1751.01
782.48	1583.08
782.66	1607.66
782.83	1734.63
783.01	1748.97
783.19	1832.93
783.36	1705.96
783.54	1679.33
783.72	1712.10
783.89	1681.38
784.07	1710.05
784.24	1728.49
784.42	1861.60
784.60	1763.30
784.77	1689.57
784.95	1585.13
785.12	1628.14
785.30	1648.61
785.47	1619.94
785.65	1646.57
785.83	1744.87
786.00	1636.33
786.18	1761.25
786.35	1724.39
786.53	1669.09
786.71	1699.81
786.88	1613.80
787.06	1783.78
787.23	1710.05
787.41	1705.96
787.58	1714.15
787.76	1669.09
787.94	1736.68
788.11	1744.87
788.29	1656.81
788.46	1669.09
788.64	1648.61
788.81	1619.94
788.99	1718.25
789.16	1660.90
789.34	1710.05
789.52	1708.01
789.69	1718.25
789.87	1611.75
790.04	1660.90
790.22	1667.05
790.39	1732.58
790.57	1669.09
790.74	1597.42
790.92	1791.97
791.09	1605.61
791.27	1726.44
791.44	1769.44
791.62	1652.71
791.79	1802.21
791.97	1789.92
792.15	1804.26
792.32	1751.01
792.50	1755.11
792.67	1763.30
792.85	1738.73
793.02	1724.39
793.20	1728.49
793.37	1570.79
793.55	1675.24
793.72	1621.99
793.90	1736.68
794.07	1658.85
794.25	1644.52
794.42	1675.24
794.60	1665.00
794.77	1765.35
794.95	1689.57
795.12	1759.21
795.30	1705.96
795.47	1624.04
795.65	1865.70
795.82	1744.87
796.00	1630.18
796.17	1658.85
796.34	1652.71
796.52	1677.29
796.69	1767.40
796.87	1716.20
797.04	1730.53
797.22	1740.77
797.39	1744.87
797.57	1677.29
797.74	1660.90
797.92	1724.39
798.09	1724.39
798.27	1722.34
798.44	1705.96
798.62	1701.86
798.79	1665.00
798.96	1734.63
799.14	1632.23
799.31	1855.46
799.49	1703.91
799.66	1669.09
799.84	1789.92
800.01	1660.90
800.19	1685.48
800.36	1669.09
800.53	1710.05
800.71	1675.24
800.88	1771.49
801.06	1628.14
801.23	1662.95
801.41	1712.10
801.58	1667.05
801.75	1689.57
801.93	1697.77
802.10	1761.25
802.28	1671.14
802.45	1646.57
802.63	1777.64
802.80	1771.49
802.97	1681.38
803.15	1628.14
803.32	1669.09
803.50	1611.75
803.67	1552.36
803.84	1632.23
804.02	1769.44
804.19	1781.73
804.37	1558.50
804.54	1599.46
804.71	1757.16
804.89	1697.77
805.06	1644.52
805.24	1665.00
805.41	1757.16
805.58	1716.20
805.76	1830.88
805.93	1683.43
806.10	1783.78
806.28	1693.67
806.45	1730.53
806.63	1712.10
806.80	1677.29
806.97	1691.62
807.15	1728.49
807.32	1773.54
807.49	1720.29
807.67	1626.09
807.84	1748.97
808.01	1619.94
808.19	1787.88
808.36	1822.69
808.54	1615.85
808.71	1615.85
808.88	1798.12
809.06	1746.92
809.23	1769.44
809.40	1603.56
809.58	1759.21
809.75	1689.57
809.92	1587.18
810.10	1820.64
810.27	1710.05
810.44	1691.62
810.62	1724.39
810.79	1695.72
810.96	1681.38
811.14	1671.14
811.31	1771.49
811.48	1763.30
811.66	1712.10
811.83	1759.21
812.00	1744.87
812.18	1730.53
812.35	1781.73
812.52	1634.28
812.69	1734.63
812.87	1697.77
813.04	1699.81
813.21	1658.85
813.39	1642.47
813.56	1617.90
813.73	1708.01
813.91	1640.42
814.08	1744.87
814.25	1634.28
814.42	1632.23
814.60	1748.97
814.77	1662.95
814.94	1697.77
815.12	1777.64
815.29	1703.91
815.46	1632.23
815.63	1699.81
815.81	1638.38
815.98	1705.96
816.15	1714.15
816.33	1699.81
816.50	1675.24
816.67	1667.05
816.84	1673.19
817.02	1621.99
817.19	1583.08
817.36	1775.59
817.53	1759.21
817.71	1578.98
817.88	1718.25
818.05	1724.39
818.22	1714.15
818.40	1779.68
818.57	1714.15
818.74	1783.78
818.91	1595.37
819.09	1769.44
819.26	1708.01
819.43	1599.46
819.60	1607.66
819.78	1779.68
819.95	1734.63
820.12	1570.79
820.29	1755.11
820.47	1789.92
820.64	1681.38
820.81	1632.23
820.98	1689.57
821.15	1617.90
821.33	1724.39
821.50	1587.18
821.67	1755.11
821.84	1640.42
822.02	1712.10
822.19	1798.12
822.36	1693.67
822.53	1720.29
822.70	1658.85
822.88	1763.30
823.05	1771.49
823.22	1708.01
823.39	1742.82
823.56	1693.67
823.74	1744.87
823.91	1660.90
824.08	1570.79
824.25	1572.84
824.42	1716.20
824.60	1679.33
824.77	1679.33
824.94	1624.04
825.11	1685.48
825.28	1630.18
825.45	1718.25
825.63	1705.96
825.80	1626.09
825.97	1689.57
826.14	1728.49
826.31	1638.38
826.48	1763.30
826.66	1595.37
826.83	1728.49
827.00	1724.39
827.17	1693.67
827.34	1683.43
827.51	1732.58
827.69	1660.90
827.86	1609.70
828.03	1710.05
828.20	1703.91
828.37	1609.70
828.54	1681.38
828.71	1691.62
828.89	1771.49
829.06	1710.05
829.23	1779.68
829.40	1630.18
829.57	1619.94
829.74	1703.91
829.91	1599.46
830.09	1628.14
830.26	1693.67
830.43	1767.40
830.60	1652.71
830.77	1787.88
830.94	1775.59
831.11	1800.16
831.28	1710.05
831.46	1738.73
831.63	1673.19
831.80	1726.44
831.97	1675.24
832.14	1675.24
832.31	1691.62
832.48	1689.57
832.65	1714.15
832.82	1714.15
832.99	1718.25
833.17	1572.84
833.34	1798.12
833.51	1718.25
833.68	1552.36
833.85	1753.06
834.02	1652.71
834.19	1632.23
834.36	1665.00
834.53	1708.01
834.70	1751.01
834.87	1703.91
835.04	1642.47
835.22	1687.53
835.39	1568.74
835.56	1630.18
835.73	1632.23
835.90	1726.44
836.07	1656.81
836.24	1810.40
836.41	1628.14
836.58	1572.84
836.75	1658.85
836.92	1755.11
837.09	1679.33
837.26	1671.14
837.43	1718.25
837.60	1679.33
837.77	1685.48
837.94	1765.35
838.12	1798.12
838.29	1687.53
838.46	1626.09
838.63	1548.26
838.80	1726.44
838.97	1679.33
839.14	1726.44
839.31	1732.58
839.48	1736.68
839.65	1630.18
839.82	1734.63
839.99	1703.91
840.16	1650.66
840.33	1630.18
840.50	1755.11
840.67	1636.33
840.84	1566.70
841.01	1712.10
841.18	1710.05
841.35	1669.09
841.52	1693.67
841.69	1789.92
841.86	1697.77
842.03	1734.63
842.20	1699.81
842.37	1658.85
842.54	1675.24
842.71	1656.81
842.88	1619.94
843.05	1691.62
843.22	1705.96
843.39	1726.44
843.56	1697.77
843.73	1697.77
843.90	1785.83
844.07	1748.97
844.24	1763.30
844.41	1763.30
844.58	1677.29
844.75	1683.43
844.92	1751.01
845.09	1724.39
845.26	1650.66
845.43	1632.23
845.60	1648.61
845.77	1736.68
845.94	1726.44
846.10	1779.68
846.27	1689.57
846.44	1665.00
846.61	1652.71
846.78	1724.39
846.95	1671.14
847.12	1640.42
847.29	1675.24
847.46	1601.51
847.63	1632.23
847.80	1677.29
847.97	1691.62
848.14	1777.64
848.31	1779.68
848.48	1640.42
848.65	1679.33
848.82	1587.18
848.98	1785.83
849.15	1656.81
849.32	1726.44
849.49	1701.86
849.66	1675.24
849.83	1771.49
850.00	1617.90
850.17	1738.73
850.34	1638.38
850.51	1679.33
850.68	1681.38
850.85	1859.56
851.01	1697.77
851.18	1673.19
851.35	1652.71
851.52	1730.53
851.69	1761.25
851.86	1585.13
852.03	1689.57
852.20	1757.16
852.37	1685.48
852.53	1636.33
852.70	1728.49
852.87	1662.95
853.04	1734.63
853.21	1714.15
853.38	1714.15
853.55	1857.51
853.72	1710.05
853.89	1677.29
854.05	1656.81
854.22	1642.47
854.39	1685.48
854.56	1753.06
854.73	1755.11
854.90	1617.90
855.07	1705.96
855.23	1734.63
855.40	1665.00
855.57	1742.82
855.74	1646.57
855.91	1877.99
856.08	1724.39
856.25	1632.23
856.41	1671.14
856.58	1726.44
856.75	1695.72
856.92	1632.23
857.09	1732.58
857.26	1644.52
857.42	1695.72
857.59	1757.16
857.76	1732.58
857.93	1783.78
858.10	1673.19
858.27	1603.56
858.43	1714.15
858.60	1624.04
858.77	1658.85
858.94	1687.53
859.11	1730.53
859.27	1689.57
859.44	1634.28
859.61	1812.45
859.78	1755.11
859.95	1605.61
860.12	1560.55
860.28	1851.36
860.45	1771.49
860.62	1599.46
860.79	1742.82
860.95	1716.20
861.12	1654.76
861.29	1593.32
861.46	1689.57
861.63	1703.91
861.79	1667.05
861.96	1697.77
862.13	1718.25
862.30	1712.10
862.47	1667.05
862.63	1619.94
862.80	1681.38
862.97	1726.44
863.14	1667.05
863.30	1773.54
863.47	1652.71
863.64	1779.68
863.81	1746.92
863.97	1703.91
864.14	1689.57
864.31	1626.09
864.48	1644.52
864.65	1687.53
864.81	1732.58
864.98	1736.68
865.15	1710.05
865.32	1753.06
865.48	1755.11
865.65	1779.68
865.82	1671.14
865.98	1726.44
866.15	1705.96
866.32	1607.66
866.49	1685.48
866.65	1796.07
866.82	1685.48
866.99	1679.33
867.16	1609.70
867.32	1748.97
867.49	1701.86
867.66	1669.09
867.83	1683.43
867.99	1648.61
868.16	1673.19
868.33	1669.09
868.49	1683.43
868.66	1695.72
868.83	1738.73
868.99	1720.29
869.16	1675.24
869.33	1703.91
869.50	1748.97
869.66	1624.04
869.83	1755.11
870.00	1652.71
870.16	1812.45
870.33	1652.71
870.50	1755.11
870.66	1646.57
870.83	1787.88
871.00	1693.67
871.17	1689.57
871.33	1726.44
871.50	1722.34
871.67	1691.62
871.83	1656.81
872.00	1796.07
872.17	1611.75
872.33	1748.97
872.50	1730.53
872.67	1658.85
872.83	1689.57
873.00	1779.68
873.17	1667.05
873.33	1714.15
873.50	1732.58
873.67	1679.33
873.83	1683.43
874.00	1679.33
874.16	1779.68
874.33	1716.20
874.50	1648.61
874.66	1736.68
874.83	1714.15
875.00	1810.40
875.16	1755.11
875.33	1722.34
875.50	1576.94
875.66	1695.72
875.83	1757.16
875.99	1816.55
876.16	1660.90
876.33	1607.66
876.49	1689.57
876.66	1671.14
876.83	1705.96
876.99	1640.42
877.16	1681.38
877.32	1705.96
877.49	1724.39
877.66	1763.30
877.82	1728.49
877.99	1685.48
878.15	1765.35
878.32	1656.81
878.49	1667.05
878.65	1722.34
878.82	1746.92
878.98	1708.01
879.15	1665.00
879.32	1773.54
879.48	1722.34
879.65	1671.14
879.81	1683.43
879.98	1701.86
880.15	1648.61
880.31	1740.77
880.48	1656.81
880.64	1693.67
880.81	1742.82
880.97	1775.59
881.14	1789.92
881.31	1718.25
881.47	1820.64
881.64	1679.33
881.80	1601.51
881.97	1744.87
882.13	1662.95
882.30	1669.09
882.47	1669.09
882.63	1619.94
882.80	1628.14
882.96	1705.96
883.13	1789.92
883.29	1740.77
883.46	1656.81
883.62	1761.25
883.79	1761.25
883.95	1759.21
884.12	1763.30
884.29	1738.73
884.45	1671.14
884.62	1669.09
884.78	1613.80
884.95	1794.02
885.11	1667.05
885.28	1732.58
885.44	1712.10
885.61	1761.25
885.77	1742.82
885.94	1738.73
886.10	1697.77
886.27	1656.81
886.43	1771.49
886.60	1722.34
886.76	1638.38
886.93	1679.33
887.09	1689.57
887.26	1632.23
887.42	1671.14
887.59	1695.72
887.75	1898.47
887.92	1839.08
888.08	1812.45
888.25	1767.40
888.41	1828.84
888.58	1705.96
888.74	1658.85
888.91	1646.57
>>>>>End Processed Spectral Data<<<<<
