SpectraSuite Data File
++++++++++++++++++++++++++++++++++++
Date: Mon Jun 06 13:24:57 CEST 2016
User: root
Dark Spectrum Present: No
Reference Spectrum Present: No
Number of Sampled Component Spectra: 1
Spectrometers: USB4C02835
Integration Time (usec): 100000 (USB4C02835)
Spectra Averaged: 1 (USB4C02835)
Boxcar Smoothing: 0 (USB4C02835)
Correct for Electrical Dark: No (USB4C02835)
Strobe/Lamp Enabled: No (USB4C02835)
Correct for Detector Non-linearity: No (USB4C02835)
Correct for Stray Light: No (USB4C02835)
Number of Pixels in Processed Spectrum: 3648
>>>>>Begin Processed Spectral Data<<<<<
177.47	1464.30
177.69	1464.30
177.91	1464.30
178.13	1447.91
178.36	1415.15
178.58	1683.43
178.80	1716.20
179.02	1591.27
179.24	1673.19
179.46	1638.38
179.68	1779.68
179.90	1638.38
180.13	1722.34
180.35	1701.86
180.57	1695.72
180.79	1718.25
181.01	1708.01
181.23	1675.24
181.45	1726.44
181.67	1759.21
181.90	1742.82
182.12	1685.48
182.34	1615.85
182.56	1669.09
182.78	1669.09
183.00	1662.95
183.22	1726.44
183.44	1658.85
183.66	1812.45
183.89	1734.63
184.11	1710.05
184.33	1712.10
184.55	1787.88
184.77	1753.06
184.99	1710.05
185.21	1617.90
185.43	1787.88
185.65	1703.91
185.87	1742.82
186.10	1779.68
186.32	1910.75
186.54	1773.54
186.76	1677.29
186.98	1837.03
187.20	1671.14
187.42	1611.75
187.64	1712.10
187.86	1691.62
188.08	1734.63
188.30	1685.48
188.52	1728.49
188.75	1789.92
188.97	1785.83
189.19	1722.34
189.41	1656.81
189.63	1699.81
189.85	1736.68
190.07	1646.57
190.29	1648.61
190.51	1701.86
190.73	1660.90
190.95	1775.59
191.17	1777.64
191.39	1601.51
191.61	1646.57
191.84	1626.09
192.06	1716.20
192.28	1595.37
192.50	1861.60
192.72	1720.29
192.94	1695.72
193.16	1734.63
193.38	1740.77
193.60	1673.19
193.82	1712.10
194.04	1701.86
194.26	1642.47
194.48	1683.43
194.70	1634.28
194.92	1630.18
195.14	1701.86
195.36	1714.15
195.58	1695.72
195.80	1677.29
196.02	1755.11
196.24	1710.05
196.46	1732.58
196.69	1648.61
196.91	1800.16
197.13	1689.57
197.35	1624.04
197.57	1720.29
197.79	1710.05
198.01	1724.39
198.23	1771.49
198.45	1724.39
198.67	1587.18
198.89	1722.34
199.11	1765.35
199.33	1652.71
199.55	1574.89
199.77	1763.30
199.99	1828.84
200.21	1693.67
200.43	1734.63
200.65	1675.24
200.87	1552.36
201.09	1648.61
201.31	1650.66
201.53	1771.49
201.75	1644.52
201.97	1710.05
202.19	1720.29
202.41	1736.68
202.63	1818.60
202.85	1697.77
203.07	1714.15
203.29	1681.38
203.51	1654.76
203.73	1689.57
203.95	1886.18
204.17	1816.55
204.39	1787.88
204.61	1675.24
204.83	1730.53
205.05	1773.54
205.27	1703.91
205.49	1806.31
205.71	1617.90
205.93	1609.70
206.15	1683.43
206.37	1619.94
206.59	1652.71
206.81	1652.71
207.03	1648.61
207.25	1648.61
207.47	1728.49
207.69	1681.38
207.91	1746.92
208.13	1701.86
208.34	1683.43
208.56	1628.14
208.78	1744.87
209.00	1593.32
209.22	1642.47
209.44	1744.87
209.66	1609.70
209.88	1751.01
210.10	1609.70
210.32	1748.97
210.54	1798.12
210.76	1724.39
210.98	1716.20
211.20	1658.85
211.42	1685.48
211.64	1763.30
211.86	1734.63
212.08	1759.21
212.30	1660.90
212.52	1710.05
212.74	1738.73
212.96	1728.49
213.17	1773.54
213.39	1732.58
213.61	1763.30
213.83	1751.01
214.05	1685.48
214.27	1759.21
214.49	1617.90
214.71	1642.47
214.93	1751.01
215.15	1693.67
215.37	1806.31
215.59	1578.98
215.81	1742.82
216.03	1742.82
216.24	1624.04
216.46	1742.82
216.68	1763.30
216.90	1794.02
217.12	1814.50
217.34	1716.20
217.56	1728.49
217.78	1808.36
218.00	1648.61
218.22	1722.34
218.44	1748.97
218.66	1744.87
218.87	1787.88
219.09	1703.91
219.31	1703.91
219.53	1681.38
219.75	1699.81
219.97	1710.05
220.19	1765.35
220.41	1740.77
220.63	1781.73
220.85	1705.96
221.06	1679.33
221.28	1779.68
221.50	1724.39
221.72	1691.62
221.94	1621.99
222.16	1730.53
222.38	1751.01
222.60	1789.92
222.82	1685.48
223.03	1742.82
223.25	1632.23
223.47	1775.59
223.69	1773.54
223.91	1812.45
224.13	1640.42
224.35	1703.91
224.57	1701.86
224.78	1689.57
225.00	1648.61
225.22	1675.24
225.44	1716.20
225.66	1759.21
225.88	1636.33
226.10	1775.59
226.32	1677.29
226.53	1767.40
226.75	1636.33
226.97	1677.29
227.19	1724.39
227.41	1652.71
227.63	1636.33
227.85	1611.75
228.06	1677.29
228.28	1689.57
228.50	1779.68
228.72	1708.01
228.94	1634.28
229.16	1673.19
229.37	1619.94
229.59	1619.94
229.81	1763.30
230.03	1697.77
230.25	1587.18
230.47	1603.56
230.69	1660.90
230.90	1712.10
231.12	1777.64
231.34	1734.63
231.56	1681.38
231.78	1624.04
232.00	1673.19
232.21	1652.71
232.43	1667.05
232.65	1552.36
232.87	1783.78
233.09	1583.08
233.30	1714.15
233.52	1798.12
233.74	1710.05
233.96	1695.72
234.18	1640.42
234.40	1671.14
234.61	1806.31
234.83	1665.00
235.05	1615.85
235.27	1785.83
235.49	1738.73
235.70	1662.95
235.92	1806.31
236.14	1720.29
236.36	1834.98
236.58	1658.85
236.79	1677.29
237.01	1703.91
237.23	1679.33
237.45	1763.30
237.67	1705.96
237.88	1730.53
238.10	1839.08
238.32	1599.46
238.54	1740.77
238.76	1687.53
238.97	1669.09
239.19	1595.37
239.41	1746.92
239.63	1791.97
239.85	1673.19
240.06	1753.06
240.28	1710.05
240.50	1710.05
240.72	1771.49
240.93	1710.05
241.15	1775.59
241.37	1699.81
241.59	1857.51
241.81	1646.57
242.02	1722.34
242.24	1687.53
242.46	1691.62
242.68	1710.05
242.89	1826.79
243.11	1755.11
243.33	1716.20
243.55	1640.42
243.76	1746.92
243.98	1644.52
244.20	1751.01
244.42	1703.91
244.64	1740.77
244.85	1658.85
245.07	1644.52
245.29	1730.53
245.51	1630.18
245.72	1712.10
245.94	1775.59
246.16	1777.64
246.38	1605.61
246.59	1646.57
246.81	1607.66
247.03	1683.43
247.24	1617.90
247.46	1632.23
247.68	1714.15
247.90	1751.01
248.11	1671.14
248.33	1771.49
248.55	1746.92
248.77	1722.34
248.98	1806.31
249.20	1804.26
249.42	1640.42
249.64	1701.86
249.85	1712.10
250.07	1638.38
250.29	1810.40
250.50	1785.83
250.72	1597.42
250.94	1632.23
251.16	1832.93
251.37	1832.93
251.59	1763.30
251.81	1681.38
252.02	1730.53
252.24	1701.86
252.46	1796.07
252.68	1677.29
252.89	1687.53
253.11	1507.30
253.33	1861.60
253.54	1734.63
253.76	1611.75
253.98	1679.33
254.20	1689.57
254.41	1587.18
254.63	1699.81
254.85	1644.52
255.06	1755.11
255.28	1654.76
255.50	1705.96
255.71	1589.22
255.93	1597.42
256.15	1642.47
256.36	1691.62
256.58	1648.61
256.80	1693.67
257.02	1626.09
257.23	1738.73
257.45	1683.43
257.67	1806.31
257.88	1597.42
258.10	1726.44
258.32	1716.20
258.53	1656.81
258.75	1771.49
258.97	1708.01
259.18	1628.14
259.40	1720.29
259.62	1808.36
259.83	1791.97
260.05	1794.02
260.27	1976.29
260.48	1767.40
260.70	1697.77
260.92	1718.25
261.13	1699.81
261.35	1679.33
261.57	1804.26
261.78	1630.18
262.00	1648.61
262.22	1660.90
262.43	1658.85
262.65	1677.29
262.86	1640.42
263.08	1832.93
263.30	1718.25
263.51	1558.50
263.73	1605.61
263.95	1708.01
264.16	1624.04
264.38	1671.14
264.60	1744.87
264.81	1665.00
265.03	1714.15
265.25	1759.21
265.46	1722.34
265.68	1779.68
265.89	1814.50
266.11	1660.90
266.33	1757.16
266.54	1726.44
266.76	1687.53
266.98	1722.34
267.19	1777.64
267.41	1712.10
267.62	1679.33
267.84	1669.09
268.06	1751.01
268.27	1679.33
268.49	1757.16
268.70	1689.57
268.92	1677.29
269.14	1599.46
269.35	1628.14
269.57	1595.37
269.79	1708.01
270.00	1603.56
270.22	1753.06
270.43	1581.03
270.65	1554.41
270.87	1689.57
271.08	1738.73
271.30	1742.82
271.51	1689.57
271.73	1662.95
271.95	1814.50
272.16	1689.57
272.38	1697.77
272.59	1632.23
272.81	1761.25
273.02	1640.42
273.24	1783.78
273.46	1734.63
273.67	1679.33
273.89	1658.85
274.10	1654.76
274.32	1710.05
274.54	1656.81
274.75	1671.14
274.97	1656.81
275.18	1726.44
275.40	1716.20
275.61	1724.39
275.83	1695.72
276.05	1640.42
276.26	1689.57
276.48	1697.77
276.69	1685.48
276.91	1658.85
277.12	1775.59
277.34	1734.63
277.55	1759.21
277.77	1730.53
277.99	1603.56
278.20	1675.24
278.42	1677.29
278.63	1603.56
278.85	1589.22
279.06	1658.85
279.28	1681.38
279.49	1804.26
279.71	1746.92
279.93	1732.58
280.14	1685.48
280.36	1648.61
280.57	1667.05
280.79	1744.87
281.00	1681.38
281.22	1660.90
281.43	1826.79
281.65	1607.66
281.86	1689.57
282.08	1755.11
282.29	1667.05
282.51	1636.33
282.73	1624.04
282.94	1679.33
283.16	1693.67
283.37	1777.64
283.59	1718.25
283.80	1632.23
284.02	1669.09
284.23	1718.25
284.45	1615.85
284.66	1619.94
284.88	1648.61
285.09	1740.77
285.31	1730.53
285.52	1763.30
285.74	1607.66
285.95	1701.86
286.17	1677.29
286.38	1656.81
286.60	1642.47
286.81	1701.86
287.03	1699.81
287.24	1712.10
287.46	1781.73
287.67	1736.68
287.89	1845.22
288.10	1656.81
288.32	1714.15
288.53	1761.25
288.75	1724.39
288.96	1744.87
289.18	1650.66
289.39	1628.14
289.61	1665.00
289.82	1828.84
290.04	1869.80
290.25	1621.99
290.47	1716.20
290.68	1669.09
290.90	1769.44
291.11	1572.84
291.33	1734.63
291.54	1730.53
291.76	1648.61
291.97	1744.87
292.18	1791.97
292.40	1624.04
292.61	1621.99
292.83	1871.84
293.04	1753.06
293.26	1689.57
293.47	1656.81
293.69	1603.56
293.90	1710.05
294.12	1810.40
294.33	1738.73
294.55	1683.43
294.76	1753.06
294.97	1767.40
295.19	1808.36
295.40	1673.19
295.62	1681.38
295.83	1736.68
296.05	1689.57
296.26	1777.64
296.48	1593.32
296.69	1662.95
296.90	1697.77
297.12	1658.85
297.33	1765.35
297.55	1673.19
297.76	1689.57
297.98	1755.11
298.19	1726.44
298.41	1662.95
298.62	1669.09
298.83	1767.40
299.05	1648.61
299.26	1716.20
299.48	1687.53
299.69	1697.77
299.90	1689.57
300.12	1726.44
300.33	1689.57
300.55	1724.39
300.76	1755.11
300.98	1595.37
301.19	1738.73
301.40	1699.81
301.62	1748.97
301.83	1718.25
302.05	1679.33
302.26	1687.53
302.47	1685.48
302.69	1679.33
302.90	1673.19
303.12	1583.08
303.33	1697.77
303.54	1804.26
303.76	1732.58
303.97	1695.72
304.19	1753.06
304.40	1658.85
304.61	1755.11
304.83	1800.16
305.04	1740.77
305.26	1740.77
305.47	1636.33
305.68	1644.52
305.90	1646.57
306.11	1781.73
306.33	1732.58
306.54	1673.19
306.75	1609.70
306.97	1621.99
307.18	1585.13
307.39	1669.09
307.61	1755.11
307.82	1705.96
308.04	1685.48
308.25	1648.61
308.46	1689.57
308.68	1759.21
308.89	1771.49
309.10	1763.30
309.32	1736.68
309.53	1677.29
309.74	1642.47
309.96	1656.81
310.17	1777.64
310.39	1710.05
310.60	1683.43
310.81	1712.10
311.03	1683.43
311.24	1746.92
311.45	1742.82
311.67	1808.36
311.88	1644.52
312.09	1630.18
312.31	1695.72
312.52	1785.83
312.73	1585.13
312.95	1599.46
313.16	1593.32
313.37	1820.64
313.59	1675.24
313.80	1761.25
314.01	1830.88
314.23	1621.99
314.44	1777.64
314.65	1630.18
314.87	1656.81
315.08	1699.81
315.29	1683.43
315.51	1638.38
315.72	1619.94
315.93	1800.16
316.15	1695.72
316.36	1681.38
316.57	1738.73
316.79	1738.73
317.00	1662.95
317.21	1775.59
317.43	1732.58
317.64	1779.68
317.85	1732.58
318.07	1734.63
318.28	1730.53
318.49	1787.88
318.70	1837.03
318.92	1771.49
319.13	1820.64
319.34	1886.18
319.56	1796.07
319.77	1730.53
319.98	1753.06
320.20	1765.35
320.41	1714.15
320.62	1740.77
320.83	1611.75
321.05	1818.60
321.26	1714.15
321.47	1658.85
321.69	1740.77
321.90	1609.70
322.11	1677.29
322.32	1722.34
322.54	1841.12
322.75	1677.29
322.96	1773.54
323.18	1587.18
323.39	1673.19
323.60	1607.66
323.81	1748.97
324.03	1595.37
324.24	1697.77
324.45	1613.80
324.66	1695.72
324.88	1716.20
325.09	1781.73
325.30	1759.21
325.52	1738.73
325.73	1679.33
325.94	1640.42
326.15	1644.52
326.37	1685.48
326.58	1746.92
326.79	1853.41
327.00	1597.42
327.22	1771.49
327.43	1701.86
327.64	1665.00
327.85	1759.21
328.07	1689.57
328.28	1816.55
328.49	1744.87
328.70	1687.53
328.92	1619.94
329.13	1728.49
329.34	1697.77
329.55	1746.92
329.76	1660.90
329.98	1734.63
330.19	1695.72
330.40	1693.67
330.61	1804.26
330.83	1744.87
331.04	1652.71
331.25	1744.87
331.46	1714.15
331.68	1550.31
331.89	1667.05
332.10	1712.10
332.31	1587.18
332.52	1783.78
332.74	1828.84
332.95	1619.94
333.16	1677.29
333.37	1691.62
333.58	1718.25
333.80	1757.16
334.01	1632.23
334.22	1693.67
334.43	1691.62
334.64	1660.90
334.86	1650.66
335.07	1656.81
335.28	1785.83
335.49	1619.94
335.70	1712.10
335.92	1724.39
336.13	1773.54
336.34	1665.00
336.55	1617.90
336.76	1755.11
336.98	1621.99
337.19	1660.90
337.40	1753.06
337.61	1976.29
337.82	1652.71
338.04	1779.68
338.25	1619.94
338.46	1683.43
338.67	1689.57
338.88	1605.61
339.09	1642.47
339.31	1640.42
339.52	1634.28
339.73	1683.43
339.94	1722.34
340.15	1740.77
340.36	1658.85
340.58	1685.48
340.79	1646.57
341.00	1722.34
341.21	1710.05
341.42	1822.69
341.63	1658.85
341.85	1740.77
342.06	1730.53
342.27	1644.52
342.48	1718.25
342.69	1624.04
342.90	1695.72
343.12	1794.02
343.33	1640.42
343.54	1781.73
343.75	1736.68
343.96	1597.42
344.17	1662.95
344.38	1685.48
344.60	1638.38
344.81	1665.00
345.02	1669.09
345.23	1822.69
345.44	1755.11
345.65	1763.30
345.86	1722.34
346.07	1617.90
346.29	1712.10
346.50	1718.25
346.71	1718.25
346.92	1773.54
347.13	1824.74
347.34	1734.63
347.55	1665.00
347.76	1673.19
347.98	1607.66
348.19	1667.05
348.40	1755.11
348.61	1693.67
348.82	1705.96
349.03	1703.91
349.24	1687.53
349.45	1796.07
349.66	1568.74
349.88	1726.44
350.09	1742.82
350.30	1841.12
350.51	1847.27
350.72	1767.40
350.93	1714.15
351.14	1720.29
351.35	1748.97
351.56	1714.15
351.77	1712.10
351.99	1755.11
352.20	1843.17
352.41	1693.67
352.62	1644.52
352.83	1736.68
353.04	1646.57
353.25	1695.72
353.46	1783.78
353.67	1777.64
353.88	1607.66
354.09	1658.85
354.30	1699.81
354.52	1669.09
354.73	1697.77
354.94	1703.91
355.15	1665.00
355.36	1734.63
355.57	1650.66
355.78	1718.25
355.99	1722.34
356.20	1744.87
356.41	1753.06
356.62	1746.92
356.83	1650.66
357.04	1732.58
357.25	1648.61
357.46	1705.96
357.68	1681.38
357.89	1665.00
358.10	1691.62
358.31	1734.63
358.52	1693.67
358.73	1570.79
358.94	1574.89
359.15	1685.48
359.36	1765.35
359.57	1615.85
359.78	1730.53
359.99	1759.21
360.20	1708.01
360.41	1665.00
360.62	1746.92
360.83	1710.05
361.04	1665.00
361.25	1753.06
361.46	1834.98
361.67	1744.87
361.88	1779.68
362.09	1736.68
362.30	1724.39
362.51	1597.42
362.72	1689.57
362.93	1738.73
363.14	1775.59
363.35	1679.33
363.56	1634.28
363.78	1763.30
363.99	1720.29
364.20	1683.43
364.41	1617.90
364.62	1740.77
364.83	1693.67
365.04	1748.97
365.25	1691.62
365.46	1748.97
365.67	1691.62
365.88	1615.85
366.09	1673.19
366.30	1697.77
366.51	1681.38
366.72	1669.09
366.93	1726.44
367.14	1693.67
367.35	1746.92
367.56	1599.46
367.77	1837.03
367.98	1789.92
368.18	1636.33
368.39	1746.92
368.60	1603.56
368.81	1751.01
369.02	1650.66
369.23	1603.56
369.44	1615.85
369.65	1687.53
369.86	1738.73
370.07	1761.25
370.28	1634.28
370.49	1734.63
370.70	1714.15
370.91	1574.89
371.12	1558.50
371.33	1736.68
371.54	1724.39
371.75	1871.84
371.96	1621.99
372.17	1767.40
372.38	1724.39
372.59	1841.12
372.80	1691.62
373.01	1759.21
373.22	1687.53
373.43	1755.11
373.64	1673.19
373.85	1796.07
374.06	1800.16
374.26	1800.16
374.47	1679.33
374.68	1759.21
374.89	1693.67
375.10	1714.15
375.31	1710.05
375.52	1677.29
375.73	1734.63
375.94	1699.81
376.15	1761.25
376.36	1640.42
376.57	1640.42
376.78	1691.62
376.99	1650.66
377.20	1771.49
377.40	1732.58
377.61	1851.36
377.82	1738.73
378.03	1837.03
378.24	1730.53
378.45	1755.11
378.66	1693.67
378.87	1566.70
379.08	1644.52
379.29	1697.77
379.50	1791.97
379.71	1693.67
379.91	1691.62
380.12	1683.43
380.33	1691.62
380.54	1677.29
380.75	1632.23
380.96	1624.04
381.17	1757.16
381.38	1683.43
381.59	1730.53
381.80	1732.58
382.00	1798.12
382.21	1781.73
382.42	1787.88
382.63	1875.94
382.84	1763.30
383.05	1826.79
383.26	1810.40
383.47	1779.68
383.68	1755.11
383.88	1710.05
384.09	1648.61
384.30	1812.45
384.51	1687.53
384.72	1703.91
384.93	1644.52
385.14	1654.76
385.35	1732.58
385.55	1619.94
385.76	1816.55
385.97	1710.05
386.18	1710.05
386.39	1640.42
386.60	1697.77
386.81	1648.61
387.02	1693.67
387.22	1601.51
387.43	1777.64
387.64	1734.63
387.85	1824.74
388.06	2248.67
388.27	4210.62
388.48	6756.25
388.68	8195.97
388.89	9711.47
389.10	9641.84
389.31	8435.58
389.52	7534.48
389.73	6573.98
389.93	6170.53
390.14	5728.17
390.35	5289.90
390.56	4521.92
390.77	3770.31
390.98	3037.14
391.18	2463.71
391.39	2123.74
391.60	1871.84
391.81	1855.46
392.02	1708.01
392.23	1849.32
392.43	1855.46
392.64	1753.06
392.85	1697.77
393.06	1816.55
393.27	1695.72
393.47	1650.66
393.68	1708.01
393.89	1667.05
394.10	1822.69
394.31	1679.33
394.52	1638.38
394.72	1667.05
394.93	1808.36
395.14	1613.80
395.35	1767.40
395.56	1710.05
395.76	1730.53
395.97	1845.22
396.18	1822.69
396.39	1812.45
396.60	1968.10
396.80	1898.47
397.01	1810.40
397.22	1783.78
397.43	1853.41
397.64	1689.57
397.84	1830.88
398.05	1826.79
398.26	1791.97
398.47	1703.91
398.67	1802.21
398.88	1738.73
399.09	1789.92
399.30	1726.44
399.51	1740.77
399.71	1679.33
399.92	1658.85
400.13	1771.49
400.34	1714.15
400.54	1718.25
400.75	1751.01
400.96	1685.48
401.17	1779.68
401.37	1695.72
401.58	1716.20
401.79	1646.57
402.00	1884.13
402.21	2023.39
402.41	1947.62
402.62	1953.76
402.83	2060.26
403.04	2007.01
403.24	2004.96
403.45	1824.74
403.66	1931.23
403.87	1847.27
404.07	1849.32
404.28	1900.52
404.49	1884.13
404.70	1818.60
404.90	1798.12
405.11	1728.49
405.32	1699.81
405.52	1689.57
405.73	1574.89
405.94	1693.67
406.15	1771.49
406.35	1660.90
406.56	1789.92
406.77	1738.73
406.98	1767.40
407.18	1697.77
407.39	1755.11
407.60	1689.57
407.80	1665.00
408.01	1669.09
408.22	1732.58
408.43	1626.09
408.63	1746.92
408.84	1728.49
409.05	1726.44
409.25	1683.43
409.46	1624.04
409.67	1662.95
409.88	1734.63
410.08	1746.92
410.29	1665.00
410.50	1828.84
410.70	1732.58
410.91	1617.90
411.12	1775.59
411.32	1724.39
411.53	1687.53
411.74	1826.79
411.95	1787.88
412.15	1781.73
412.36	1748.97
412.57	1781.73
412.77	1775.59
412.98	1746.92
413.19	1673.19
413.39	1820.64
413.60	1691.62
413.81	1740.77
414.01	1671.14
414.22	1746.92
414.43	1710.05
414.63	1769.44
414.84	1773.54
415.05	1753.06
415.25	1581.03
415.46	1771.49
415.67	1658.85
415.87	1673.19
416.08	1656.81
416.29	1710.05
416.49	1751.01
416.70	1726.44
416.91	1593.32
417.11	1710.05
417.32	1675.24
417.53	1740.77
417.73	1753.06
417.94	1683.43
418.15	1660.90
418.35	1753.06
418.56	1767.40
418.77	1824.74
418.97	1695.72
419.18	1673.19
419.38	1628.14
419.59	1689.57
419.80	1822.69
420.00	1736.68
420.21	1697.77
420.42	1679.33
420.62	1722.34
420.83	1648.61
421.04	1634.28
421.24	1726.44
421.45	1716.20
421.65	1673.19
421.86	1744.87
422.07	1697.77
422.27	1800.16
422.48	1716.20
422.69	1681.38
422.89	1773.54
423.10	1669.09
423.30	1660.90
423.51	1708.01
423.72	1708.01
423.92	1775.59
424.13	1576.94
424.33	1679.33
424.54	1708.01
424.75	1794.02
424.95	1865.70
425.16	1728.49
425.36	1660.90
425.57	1755.11
425.78	1757.16
425.98	1748.97
426.19	1697.77
426.39	1583.08
426.60	1746.92
426.81	1769.44
427.01	1751.01
427.22	1628.14
427.42	1566.70
427.63	1624.04
427.83	1759.21
428.04	1785.83
428.25	1751.01
428.45	1837.03
428.66	1734.63
428.86	1708.01
429.07	1693.67
429.28	1689.57
429.48	1689.57
429.69	1673.19
429.89	1656.81
430.10	1646.57
430.30	1794.02
430.51	1746.92
430.71	1640.42
430.92	1767.40
431.13	1695.72
431.33	1689.57
431.54	1703.91
431.74	1789.92
431.95	1857.51
432.15	1599.46
432.36	1738.73
432.56	1656.81
432.77	1796.07
432.98	1777.64
433.18	1701.86
433.39	1738.73
433.59	1691.62
433.80	1839.08
434.00	1859.56
434.21	1716.20
434.41	1640.42
434.62	1740.77
434.82	1638.38
435.03	1626.09
435.23	1755.11
435.44	1617.90
435.64	1755.11
435.85	1654.76
436.06	1757.16
436.26	1734.63
436.47	1699.81
436.67	1675.24
436.88	1677.29
437.08	1763.30
437.29	1837.03
437.49	1775.59
437.70	1714.15
437.90	1705.96
438.11	1849.32
438.31	1771.49
438.52	1775.59
438.72	1822.69
438.93	1859.56
439.13	1763.30
439.34	1826.79
439.54	1765.35
439.75	1714.15
439.95	1804.26
440.16	1710.05
440.36	1746.92
440.57	1740.77
440.77	1759.21
440.98	1681.38
441.18	1738.73
441.39	1662.95
441.59	1648.61
441.80	1812.45
442.00	1755.11
442.21	1779.68
442.41	1720.29
442.62	1746.92
442.82	1787.88
443.02	1777.64
443.23	1769.44
443.43	1640.42
443.64	1775.59
443.84	1658.85
444.05	1773.54
444.25	1736.68
444.46	1742.82
444.66	1650.66
444.87	1818.60
445.07	1708.01
445.28	1720.29
445.48	1839.08
445.69	1767.40
445.89	1841.12
446.09	1722.34
446.30	2039.78
446.50	2658.26
446.71	3655.62
446.91	4200.38
447.12	4708.28
447.32	4663.22
447.53	4335.55
447.73	3821.51
447.93	3391.44
448.14	3231.69
448.34	3248.08
448.55	2850.77
448.75	2922.45
448.96	2645.98
449.16	2379.74
449.36	2279.39
449.57	2068.45
449.77	1804.26
449.98	1822.69
450.18	1781.73
450.39	1830.88
450.59	1775.59
450.79	1781.73
451.00	1738.73
451.20	1781.73
451.41	1705.96
451.61	1738.73
451.81	1761.25
452.02	1722.34
452.22	1648.61
452.43	1722.34
452.63	1687.53
452.84	1748.97
453.04	1697.77
453.24	1736.68
453.45	1673.19
453.65	1742.82
453.86	1789.92
454.06	1732.58
454.26	1716.20
454.47	1675.24
454.67	1763.30
454.87	1849.32
455.08	1796.07
455.28	1783.78
455.49	1765.35
455.69	1712.10
455.89	1853.41
456.10	1810.40
456.30	1695.72
456.51	1798.12
456.71	1806.31
456.91	1767.40
457.12	1755.11
457.32	1753.06
457.52	1595.37
457.73	1763.30
457.93	1765.35
458.14	1609.70
458.34	1634.28
458.54	1683.43
458.75	1734.63
458.95	1763.30
459.15	1728.49
459.36	1728.49
459.56	1742.82
459.76	1820.64
459.97	1742.82
460.17	1759.21
460.37	1802.21
460.58	1638.38
460.78	1779.68
460.99	1646.57
461.19	1699.81
461.39	1636.33
461.60	1771.49
461.80	1714.15
462.00	1685.48
462.21	1726.44
462.41	1669.09
462.61	1730.53
462.82	1669.09
463.02	1751.01
463.22	1699.81
463.43	1773.54
463.63	1691.62
463.83	1857.51
464.04	1759.21
464.24	1757.16
464.44	1667.05
464.64	1761.25
464.85	1705.96
465.05	1773.54
465.25	1755.11
465.46	1781.73
465.66	1808.36
465.86	1755.11
466.07	1763.30
466.27	1710.05
466.47	1593.32
466.68	1720.29
466.88	1826.79
467.08	1779.68
467.29	1763.30
467.49	1748.97
467.69	1705.96
467.89	1722.34
468.10	1744.87
468.30	1718.25
468.50	1773.54
468.71	1824.74
468.91	1591.27
469.11	1826.79
469.31	1765.35
469.52	1677.29
469.72	1869.80
469.92	1845.22
470.13	1724.39
470.33	1734.63
470.53	1789.92
470.73	2076.64
470.94	2289.63
471.14	2244.57
471.34	2418.65
471.54	2408.41
471.75	2197.47
471.95	2125.79
472.15	2039.78
472.36	2088.93
472.56	2019.30
472.76	1998.82
472.96	1998.82
473.17	1964.00
473.37	1947.62
473.57	1757.16
473.77	1841.12
473.98	1736.68
474.18	1746.92
474.38	1861.60
474.58	1722.34
474.79	1679.33
474.99	1771.49
475.19	1775.59
475.39	1701.86
475.60	1755.11
475.80	1718.25
476.00	1716.20
476.20	1705.96
476.41	1728.49
476.61	1771.49
476.81	1804.26
477.01	1687.53
477.21	1796.07
477.42	1816.55
477.62	1689.57
477.82	1757.16
478.02	1693.67
478.23	1724.39
478.43	1626.09
478.63	1652.71
478.83	1757.16
479.03	1683.43
479.24	1716.20
479.44	1839.08
479.64	1679.33
479.84	1626.09
480.04	1673.19
480.25	1736.68
480.45	1644.52
480.65	1710.05
480.85	1744.87
481.06	1679.33
481.26	1710.05
481.46	1765.35
481.66	1699.81
481.86	1718.25
482.06	1771.49
482.27	1662.95
482.47	1648.61
482.67	1820.64
482.87	1742.82
483.07	1804.26
483.28	1558.50
483.48	1685.48
483.68	1714.15
483.88	1644.52
484.08	1609.70
484.29	1638.38
484.49	1634.28
484.69	1638.38
484.89	1791.97
485.09	1763.30
485.29	1763.30
485.50	1656.81
485.70	1712.10
485.90	1771.49
486.10	1738.73
486.30	1697.77
486.50	1777.64
486.71	1744.87
486.91	1746.92
487.11	1853.41
487.31	1693.67
487.51	1746.92
487.71	1683.43
487.91	1677.29
488.12	1644.52
488.32	1624.04
488.52	1654.76
488.72	1640.42
488.92	1720.29
489.12	1767.40
489.32	1779.68
489.53	1826.79
489.73	1630.18
489.93	1796.07
490.13	1738.73
490.33	1660.90
490.53	1759.21
490.73	1710.05
490.94	1605.61
491.14	1796.07
491.34	1767.40
491.54	2125.79
491.74	2555.86
491.94	2863.06
492.14	3028.95
492.34	2822.10
492.54	2693.08
492.75	2471.90
492.95	2531.29
493.15	2246.62
493.35	2244.57
493.55	2209.76
493.75	2146.27
493.95	2082.78
494.15	2009.06
494.35	1882.08
494.56	1734.63
494.76	1738.73
494.96	1775.59
495.16	1759.21
495.36	1742.82
495.56	1685.48
495.76	1679.33
495.96	1800.16
496.16	1619.94
496.36	1837.03
496.56	1699.81
496.77	1757.16
496.97	1708.01
497.17	1753.06
497.37	1662.95
497.57	1763.30
497.77	1767.40
497.97	1619.94
498.17	1665.00
498.37	1710.05
498.57	1746.92
498.77	1683.43
498.97	1718.25
499.17	1779.68
499.38	1738.73
499.58	1761.25
499.78	1791.97
499.98	1787.88
500.18	1697.77
500.38	1751.01
500.58	1892.32
500.78	2547.67
500.98	4462.52
501.18	5691.31
501.38	6586.27
501.58	6897.56
501.78	6469.53
501.98	5519.28
502.18	4857.78
502.38	4429.76
502.58	4136.90
502.78	3719.11
502.98	3606.47
503.18	3454.92
503.38	3221.45
503.59	2910.16
503.79	2697.17
503.99	2451.42
504.19	2293.72
504.39	2176.99
504.59	2170.85
504.79	2152.42
504.99	2113.50
505.19	1920.99
505.39	1859.56
505.59	1951.71
505.79	1877.99
505.99	1824.74
506.19	1828.84
506.39	1810.40
506.59	1701.86
506.79	1769.44
506.99	1804.26
507.19	1738.73
507.39	1691.62
507.59	1665.00
507.79	1632.23
507.99	1710.05
508.19	1685.48
508.39	1724.39
508.59	1673.19
508.79	1863.65
508.99	1785.83
509.19	1732.58
509.39	1730.53
509.59	1648.61
509.79	1617.90
509.99	1701.86
510.19	1763.30
510.39	1742.82
510.59	1746.92
510.79	1734.63
510.99	1671.14
511.19	1757.16
511.39	1802.21
511.59	1777.64
511.79	1796.07
511.99	1720.29
512.19	1816.55
512.38	1746.92
512.58	1701.86
512.78	1705.96
512.98	1761.25
513.18	1834.98
513.38	1669.09
513.58	1753.06
513.78	1730.53
513.98	1699.81
514.18	1736.68
514.38	1677.29
514.58	1769.44
514.78	1658.85
514.98	1789.92
515.18	1746.92
515.38	1644.52
515.58	1787.88
515.78	1734.63
515.98	1691.62
516.18	1759.21
516.38	1769.44
516.57	1783.78
516.77	1724.39
516.97	1703.91
517.17	1697.77
517.37	1615.85
517.57	1779.68
517.77	1791.97
517.97	1710.05
518.17	1751.01
518.37	1685.48
518.57	1636.33
518.77	1744.87
518.97	1755.11
519.16	1769.44
519.36	1728.49
519.56	1732.58
519.76	1757.16
519.96	1734.63
520.16	1828.84
520.36	1675.24
520.56	1755.11
520.76	1736.68
520.96	1726.44
521.16	1738.73
521.35	1763.30
521.55	1865.70
521.75	1693.67
521.95	1658.85
522.15	1726.44
522.35	1621.99
522.55	1730.53
522.75	1744.87
522.95	1730.53
523.14	1677.29
523.34	1767.40
523.54	1689.57
523.74	1830.88
523.94	1742.82
524.14	1595.37
524.34	1771.49
524.54	1781.73
524.73	1710.05
524.93	1755.11
525.13	1689.57
525.33	1589.22
525.53	1828.84
525.73	1675.24
525.93	1697.77
526.13	1665.00
526.32	1740.77
526.52	1736.68
526.72	1810.40
526.92	1759.21
527.12	1699.81
527.32	1759.21
527.52	1732.58
527.71	1718.25
527.91	1714.15
528.11	1679.33
528.31	1730.53
528.51	1615.85
528.71	1775.59
528.90	1718.25
529.10	1869.80
529.30	1722.34
529.50	1636.33
529.70	1708.01
529.90	1640.42
530.09	1753.06
530.29	1669.09
530.49	1730.53
530.69	1804.26
530.89	1744.87
531.09	1789.92
531.28	1775.59
531.48	1826.79
531.68	1789.92
531.88	1724.39
532.08	1755.11
532.28	1720.29
532.47	1724.39
532.67	1824.74
532.87	1806.31
533.07	1628.14
533.27	1798.12
533.46	1822.69
533.66	1777.64
533.86	1669.09
534.06	1732.58
534.26	1642.47
534.45	1708.01
534.65	1757.16
534.85	1759.21
535.05	1660.90
535.25	1685.48
535.44	1687.53
535.64	1789.92
535.84	1738.73
536.04	1708.01
536.24	1675.24
536.43	1740.77
536.63	1798.12
536.83	1712.10
537.03	1740.77
537.22	1628.14
537.42	1626.09
537.62	1845.22
537.82	1712.10
538.02	1796.07
538.21	1847.27
538.41	1904.61
538.61	1734.63
538.81	1701.86
539.00	1814.50
539.20	1660.90
539.40	1689.57
539.60	1697.77
539.79	1816.55
539.99	1748.97
540.19	1681.38
540.39	1695.72
540.58	1746.92
540.78	1832.93
540.98	1767.40
541.18	1808.36
541.37	1738.73
541.57	1648.61
541.77	1816.55
541.97	1671.14
542.16	1677.29
542.36	1660.90
542.56	1701.86
542.76	1834.98
542.95	1748.97
543.15	1728.49
543.35	1751.01
543.54	1755.11
543.74	1681.38
543.94	1845.22
544.14	1658.85
544.33	1767.40
544.53	1710.05
544.73	1730.53
544.93	1708.01
545.12	1660.90
545.32	1789.92
545.52	1722.34
545.71	1658.85
545.91	1710.05
546.11	1734.63
546.30	1603.56
546.50	1716.20
546.70	1789.92
546.90	1740.77
547.09	1503.21
547.29	1759.21
547.49	1689.57
547.68	1691.62
547.88	1693.67
548.08	1828.84
548.27	2099.17
548.47	1662.95
548.67	1683.43
548.87	1773.54
549.06	1742.82
549.26	1763.30
549.46	1763.30
549.65	1705.96
549.85	1781.73
550.05	1738.73
550.24	1695.72
550.44	1714.15
550.64	1755.11
550.83	1755.11
551.03	1779.68
551.23	1853.41
551.42	1695.72
551.62	1767.40
551.82	1714.15
552.01	1732.58
552.21	1732.58
552.41	1742.82
552.60	1732.58
552.80	1718.25
553.00	1703.91
553.19	1753.06
553.39	1804.26
553.59	1595.37
553.78	1765.35
553.98	1761.25
554.17	1685.48
554.37	1679.33
554.57	1779.68
554.76	1673.19
554.96	1710.05
555.16	1785.83
555.35	1710.05
555.55	1724.39
555.75	1722.34
555.94	1759.21
556.14	1609.70
556.33	1728.49
556.53	1765.35
556.73	1714.15
556.92	1777.64
557.12	1853.41
557.32	1851.36
557.51	1867.75
557.71	1771.49
557.90	1820.64
558.10	1746.92
558.30	1728.49
558.49	1822.69
558.69	1796.07
558.88	1716.20
559.08	1806.31
559.28	1759.21
559.47	1720.29
559.67	1753.06
559.86	1859.56
560.06	1742.82
560.26	1677.29
560.45	1769.44
560.65	1765.35
560.84	1783.78
561.04	1771.49
561.24	1742.82
561.43	1705.96
561.63	1804.26
561.82	1771.49
562.02	1769.44
562.22	1691.62
562.41	1691.62
562.61	1703.91
562.80	1697.77
563.00	1845.22
563.19	1794.02
563.39	1689.57
563.59	1804.26
563.78	1615.85
563.98	1669.09
564.17	1671.14
564.37	1681.38
564.56	1751.01
564.76	1689.57
564.96	1877.99
565.15	1753.06
565.35	1843.17
565.54	1642.47
565.74	1755.11
565.93	1806.31
566.13	1730.53
566.32	1808.36
566.52	1734.63
566.71	1730.53
566.91	1794.02
567.11	1662.95
567.30	1685.48
567.50	1785.83
567.69	1755.11
567.89	1730.53
568.08	1738.73
568.28	1748.97
568.47	1726.44
568.67	1812.45
568.86	1673.19
569.06	1777.64
569.25	1746.92
569.45	1716.20
569.64	1693.67
569.84	1759.21
570.04	1685.48
570.23	1732.58
570.43	1624.04
570.62	1705.96
570.82	1808.36
571.01	1740.77
571.21	1669.09
571.40	1662.95
571.60	1738.73
571.79	1736.68
571.99	1798.12
572.18	1716.20
572.38	1726.44
572.57	1689.57
572.77	1763.30
572.96	1863.65
573.16	1730.53
573.35	1726.44
573.55	1882.08
573.74	1726.44
573.94	1798.12
574.13	1714.15
574.33	1802.21
574.52	1822.69
574.71	1677.29
574.91	1787.88
575.10	1677.29
575.30	1644.52
575.49	1650.66
575.69	1701.86
575.88	1693.67
576.08	1757.16
576.27	1779.68
576.47	1751.01
576.66	1855.46
576.86	1834.98
577.05	1798.12
577.25	1746.92
577.44	1824.74
577.64	1595.37
577.83	1839.08
578.02	1740.77
578.22	1859.56
578.41	1812.45
578.61	1693.67
578.80	1662.95
579.00	1703.91
579.19	1826.79
579.39	1681.38
579.58	1822.69
579.77	1775.59
579.97	1757.16
580.16	1783.78
580.36	1779.68
580.55	1771.49
580.75	1822.69
580.94	1689.57
581.13	1820.64
581.33	1886.18
581.52	1751.01
581.72	1861.60
581.91	1839.08
582.11	1812.45
582.30	1761.25
582.49	1781.73
582.69	1851.36
582.88	1820.64
583.08	1818.60
583.27	1757.16
583.47	1748.97
583.66	1710.05
583.85	1609.70
584.05	1724.39
584.24	1712.10
584.44	1796.07
584.63	1834.98
584.82	1828.84
585.02	1810.40
585.21	1841.12
585.41	1775.59
585.60	1830.88
585.79	1970.15
585.99	1890.28
586.18	1832.93
586.37	2234.33
586.57	3311.57
586.76	9686.89
586.96	24123.02
587.15	33969.66
587.34	40129.95
587.54	41876.86
587.73	36117.98
587.93	26107.51
588.12	21227.20
588.31	18126.57
588.51	15980.30
588.70	15154.97
588.89	13915.95
589.09	12568.38
589.28	10944.34
589.47	9406.32
589.67	7948.17
589.86	6473.63
590.06	4833.21
590.25	3839.94
590.44	3047.38
590.64	2707.41
590.83	2265.05
591.02	2197.47
591.22	1947.62
591.41	1961.95
591.60	1818.60
591.80	1982.43
591.99	1691.62
592.18	1710.05
592.38	1759.21
592.57	1765.35
592.76	1771.49
592.96	1800.16
593.15	1763.30
593.34	1849.32
593.54	1740.77
593.73	1744.87
593.92	1748.97
594.12	1794.02
594.31	1773.54
594.50	1904.61
594.70	1720.29
594.89	1884.13
595.08	1671.14
595.28	1851.36
595.47	1949.67
595.66	1845.22
595.86	1656.81
596.05	1640.42
596.24	1736.68
596.43	1789.92
596.63	1791.97
596.82	1712.10
597.01	1744.87
597.21	1855.46
597.40	1708.01
597.59	1757.16
597.79	1724.39
597.98	1834.98
598.17	1810.40
598.36	1687.53
598.56	1853.41
598.75	1718.25
598.94	1718.25
599.14	1802.21
599.33	1714.15
599.52	1783.78
599.71	1708.01
599.91	1796.07
600.10	1742.82
600.29	1773.54
600.48	1734.63
600.68	1779.68
600.87	1685.48
601.06	1708.01
601.26	1679.33
601.45	1714.15
601.64	1789.92
601.83	1814.50
602.03	1740.77
602.22	1701.86
602.41	1871.84
602.60	1789.92
602.80	1820.64
602.99	1728.49
603.18	1691.62
603.37	1781.73
603.57	1724.39
603.76	1699.81
603.95	1779.68
604.14	1650.66
604.34	1736.68
604.53	1705.96
604.72	1820.64
604.91	1738.73
605.10	1710.05
605.30	1636.33
605.49	1837.03
605.68	1841.12
605.87	1787.88
606.07	1677.29
606.26	1794.02
606.45	1748.97
606.64	1740.77
606.84	1665.00
607.03	1701.86
607.22	1769.44
607.41	1785.83
607.60	1640.42
607.80	1759.21
607.99	1697.77
608.18	1755.11
608.37	1701.86
608.56	1689.57
608.76	1771.49
608.95	1789.92
609.14	1697.77
609.33	1736.68
609.52	1726.44
609.72	1742.82
609.91	1880.04
610.10	1636.33
610.29	1804.26
610.48	1685.48
610.68	1796.07
610.87	1683.43
611.06	1806.31
611.25	1742.82
611.44	1812.45
611.63	1746.92
611.83	1816.55
612.02	1658.85
612.21	1789.92
612.40	1650.66
612.59	1658.85
612.79	1576.94
612.98	1705.96
613.17	1791.97
613.36	1740.77
613.55	1751.01
613.74	1722.34
613.93	1697.77
614.13	1714.15
614.32	1744.87
614.51	1708.01
614.70	1710.05
614.89	1742.82
615.08	1714.15
615.28	2093.02
615.47	1718.25
615.66	1800.16
615.85	1693.67
616.04	1845.22
616.23	1669.09
616.42	1703.91
616.62	1773.54
616.81	1796.07
617.00	1681.38
617.19	1722.34
617.38	1710.05
617.57	1667.05
617.76	1685.48
617.95	1728.49
618.15	1771.49
618.34	1808.36
618.53	1677.29
618.72	1789.92
618.91	1910.75
619.10	1865.70
619.29	1781.73
619.48	1734.63
619.68	1671.14
619.87	1665.00
620.06	1624.04
620.25	1812.45
620.44	1689.57
620.63	1738.73
620.82	1697.77
621.01	1732.58
621.20	1673.19
621.39	1738.73
621.59	1673.19
621.78	1740.77
621.97	1712.10
622.16	1748.97
622.35	1761.25
622.54	1761.25
622.73	1808.36
622.92	1665.00
623.11	1804.26
623.30	1763.30
623.49	1744.87
623.68	1677.29
623.88	1828.84
624.07	1691.62
624.26	1691.62
624.45	1794.02
624.64	1675.24
624.83	1765.35
625.02	1773.54
625.21	1697.77
625.40	1779.68
625.59	1779.68
625.78	1656.81
625.97	1802.21
626.16	1857.51
626.35	1728.49
626.54	1769.44
626.74	1830.88
626.93	1736.68
627.12	1779.68
627.31	1787.88
627.50	1806.31
627.69	1744.87
627.88	1585.13
628.07	1683.43
628.26	1652.71
628.45	1591.27
628.64	1685.48
628.83	1701.86
629.02	1791.97
629.21	1738.73
629.40	1789.92
629.59	1646.57
629.78	1675.24
629.97	1767.40
630.16	1738.73
630.35	1746.92
630.54	1628.14
630.73	1591.27
630.92	1771.49
631.11	1705.96
631.30	1703.91
631.49	1820.64
631.68	1708.01
631.87	1769.44
632.06	1626.09
632.25	1843.17
632.44	1761.25
632.63	1683.43
632.82	1675.24
633.01	1714.15
633.20	1738.73
633.39	1642.47
633.58	1554.41
633.77	1748.97
633.96	1685.48
634.15	1779.68
634.34	1763.30
634.53	1771.49
634.72	1708.01
634.91	1675.24
635.10	1683.43
635.29	1812.45
635.48	1665.00
635.67	1738.73
635.86	1662.95
636.05	1794.02
636.24	1718.25
636.43	1701.86
636.62	1804.26
636.81	1601.51
637.00	1683.43
637.19	1708.01
637.38	1632.23
637.57	1669.09
637.76	1626.09
637.95	1708.01
638.14	1642.47
638.33	1683.43
638.52	1722.34
638.71	1650.66
638.89	1601.51
639.08	1804.26
639.27	1665.00
639.46	1732.58
639.65	1759.21
639.84	1693.67
640.03	1824.74
640.22	1714.15
640.41	1865.70
640.60	1638.38
640.79	1697.77
640.98	1722.34
641.17	1759.21
641.36	1718.25
641.55	1722.34
641.74	1638.38
641.92	1611.75
642.11	1621.99
642.30	1654.76
642.49	1673.19
642.68	1626.09
642.87	1736.68
643.06	1740.77
643.25	1722.34
643.44	1648.61
643.63	1660.90
643.82	1787.88
644.00	1640.42
644.19	1685.48
644.38	1624.04
644.57	1753.06
644.76	1746.92
644.95	1648.61
645.14	1787.88
645.33	1751.01
645.52	1667.05
645.71	1574.89
645.89	1658.85
646.08	1685.48
646.27	1683.43
646.46	1740.77
646.65	1624.04
646.84	1697.77
647.03	1646.57
647.22	1808.36
647.40	1718.25
647.59	1640.42
647.78	1667.05
647.97	1660.90
648.16	1681.38
648.35	1746.92
648.54	1779.68
648.73	1683.43
648.91	1712.10
649.10	1744.87
649.29	1710.05
649.48	1714.15
649.67	1775.59
649.86	1675.24
650.05	1652.71
650.23	1771.49
650.42	1613.80
650.61	1757.16
650.80	1714.15
650.99	1826.79
651.18	1820.64
651.36	1853.41
651.55	1665.00
651.74	1748.97
651.93	1669.09
652.12	1736.68
652.31	1658.85
652.49	1650.66
652.68	1669.09
652.87	1806.31
653.06	1679.33
653.25	1796.07
653.44	1699.81
653.62	1736.68
653.81	1695.72
654.00	1726.44
654.19	1794.02
654.38	1851.36
654.56	1761.25
654.75	1720.29
654.94	1765.35
655.13	1722.34
655.32	1644.52
655.51	1751.01
655.69	1646.57
655.88	1765.35
656.07	1656.81
656.26	1765.35
656.45	1628.14
656.63	1732.58
656.82	1748.97
657.01	1748.97
657.20	1607.66
657.38	1775.59
657.57	1781.73
657.76	1597.42
657.95	1755.11
658.14	1677.29
658.32	1685.48
658.51	1652.71
658.70	1734.63
658.89	1763.30
659.08	1669.09
659.26	1714.15
659.45	1691.62
659.64	1742.82
659.83	1665.00
660.01	1861.60
660.20	1744.87
660.39	1738.73
660.58	1671.14
660.76	1812.45
660.95	1673.19
661.14	1759.21
661.33	1671.14
661.51	1677.29
661.70	1652.71
661.89	1675.24
662.08	1683.43
662.26	1689.57
662.45	1693.67
662.64	1804.26
662.83	1781.73
663.01	1640.42
663.20	1671.14
663.39	1796.07
663.58	1681.38
663.76	1640.42
663.95	1714.15
664.14	1691.62
664.32	1654.76
664.51	1716.20
664.70	1677.29
664.89	1705.96
665.07	1687.53
665.26	1773.54
665.45	1718.25
665.64	1751.01
665.82	1697.77
666.01	1746.92
666.20	1640.42
666.38	1751.01
666.57	1806.31
666.76	2133.98
666.95	4382.65
667.13	10151.78
667.32	14917.40
667.51	17510.13
667.69	18769.63
667.88	17217.27
668.07	12173.13
668.25	9348.98
668.44	8071.04
668.63	7245.71
668.81	6778.78
669.00	6272.93
669.19	5644.20
669.38	5154.74
669.56	4577.21
669.75	4024.26
669.94	3340.24
670.12	2942.93
670.31	2525.15
670.50	2269.15
670.68	1978.34
670.87	1951.71
671.06	1789.92
671.24	1779.68
671.43	1830.88
671.62	1751.01
671.80	1708.01
671.99	1722.34
672.18	1679.33
672.36	1763.30
672.55	1712.10
672.74	1794.02
672.92	1742.82
673.11	1751.01
673.29	1652.71
673.48	1777.64
673.67	1681.38
673.85	1820.64
674.04	1599.46
674.23	1730.53
674.41	1812.45
674.60	1656.81
674.79	1642.47
674.97	1654.76
675.16	1740.77
675.34	1787.88
675.53	1660.90
675.72	1730.53
675.90	1806.31
676.09	1730.53
676.28	1710.05
676.46	1658.85
676.65	1748.97
676.83	1654.76
677.02	1771.49
677.21	1732.58
677.39	1699.81
677.58	1671.14
677.77	1617.90
677.95	1732.58
678.14	1746.92
678.32	1613.80
678.51	1624.04
678.70	1824.74
678.88	1701.86
679.07	1679.33
679.25	1738.73
679.44	1722.34
679.63	1634.28
679.81	1638.38
680.00	1783.78
680.18	1705.96
680.37	1755.11
680.55	1710.05
680.74	1652.71
680.93	1591.27
681.11	1665.00
681.30	1714.15
681.48	1734.63
681.67	1759.21
681.85	1634.28
682.04	1669.09
682.23	1820.64
682.41	1820.64
682.60	1699.81
682.78	1675.24
682.97	1605.61
683.15	1644.52
683.34	1730.53
683.53	1810.40
683.71	1708.01
683.90	1869.80
684.08	1839.08
684.27	1652.71
684.45	1783.78
684.64	1697.77
684.82	1705.96
685.01	1742.82
685.19	1671.14
685.38	1820.64
685.57	1685.48
685.75	1691.62
685.94	1675.24
686.12	1611.75
686.31	1685.48
686.49	1744.87
686.68	1628.14
686.86	1710.05
687.05	1763.30
687.23	1718.25
687.42	1621.99
687.60	1669.09
687.79	1755.11
687.97	1677.29
688.16	1783.78
688.34	1779.68
688.53	1665.00
688.71	1697.77
688.90	1767.40
689.08	1662.95
689.27	1626.09
689.45	1740.77
689.64	1789.92
689.82	1732.58
690.01	1619.94
690.19	1621.99
690.38	1673.19
690.56	1734.63
690.75	1683.43
690.93	1613.80
691.12	1615.85
691.30	1710.05
691.49	1683.43
691.67	1660.90
691.86	1755.11
692.04	1736.68
692.23	1681.38
692.41	1734.63
692.60	1841.12
692.78	1763.30
692.97	1665.00
693.15	1773.54
693.34	1800.16
693.52	1769.44
693.71	1660.90
693.89	1677.29
694.08	1607.66
694.26	1755.11
694.44	1726.44
694.63	1746.92
694.81	1697.77
695.00	1646.57
695.18	1755.11
695.37	1824.74
695.55	1806.31
695.74	1744.87
695.92	1714.15
696.10	1753.06
696.29	1656.81
696.47	1701.86
696.66	1583.08
696.84	1632.23
697.03	1724.39
697.21	1843.17
697.40	2344.92
697.58	1763.30
697.76	1628.14
697.95	1675.24
698.13	1691.62
698.32	1630.18
698.50	1730.53
698.68	1767.40
698.87	1710.05
699.05	1802.21
699.24	1734.63
699.42	1634.28
699.61	1671.14
699.79	1708.01
699.97	1671.14
700.16	1695.72
700.34	1601.51
700.53	1683.43
700.71	1800.16
700.89	1697.77
701.08	1656.81
701.26	1763.30
701.45	2023.39
701.63	1611.75
701.81	1708.01
702.00	1648.61
702.18	1738.73
702.37	1656.81
702.55	1771.49
702.73	1675.24
702.92	1648.61
703.10	1757.16
703.28	1656.81
703.47	1652.71
703.65	1814.50
703.84	1746.92
704.02	1701.86
704.20	1853.41
704.39	1660.90
704.57	1683.43
704.75	1804.26
704.94	1708.01
705.12	1769.44
705.30	1896.42
705.49	2176.99
705.67	4204.48
705.86	9119.60
706.04	12279.62
706.22	14176.04
706.41	15378.20
706.59	13688.62
706.77	9555.82
706.96	7229.33
707.14	6518.68
707.32	5799.85
707.51	5466.03
707.69	4829.11
707.87	4315.07
708.06	3571.66
708.24	2955.22
708.42	2508.76
708.61	2265.05
708.79	1888.23
708.97	1837.03
709.16	1783.78
709.34	1742.82
709.52	1726.44
709.71	1705.96
709.89	1722.34
710.07	1624.04
710.26	1652.71
710.44	1787.88
710.62	1791.97
710.80	1755.11
710.99	1787.88
711.17	1808.36
711.35	1675.24
711.54	1734.63
711.72	1744.87
711.90	1732.58
712.09	1714.15
712.27	1697.77
712.45	1683.43
712.63	1744.87
712.82	1718.25
713.00	1677.29
713.18	1757.16
713.37	1789.92
713.55	1775.59
713.73	1714.15
713.91	1794.02
714.10	1710.05
714.28	1734.63
714.46	1740.77
714.65	1755.11
714.83	1695.72
715.01	1740.77
715.19	1681.38
715.38	1646.57
715.56	1744.87
715.74	1705.96
715.92	1642.47
716.11	1830.88
716.29	1560.55
716.47	1685.48
716.65	1665.00
716.84	1609.70
717.02	1714.15
717.20	1617.90
717.38	1671.14
717.57	1634.28
717.75	1677.29
717.93	1683.43
718.11	1665.00
718.30	1648.61
718.48	1730.53
718.66	1718.25
718.84	1710.05
719.03	1693.67
719.21	1601.51
719.39	1732.58
719.57	1753.06
719.75	1714.15
719.94	1654.76
720.12	1710.05
720.30	1642.47
720.48	1767.40
720.67	1691.62
720.85	1597.42
721.03	1644.52
721.21	1658.85
721.39	1703.91
721.58	1697.77
721.76	1662.95
721.94	1769.44
722.12	1726.44
722.30	1763.30
722.49	1634.28
722.67	1738.73
722.85	1712.10
723.03	1546.22
723.21	1626.09
723.40	1751.01
723.58	1783.78
723.76	1722.34
723.94	1738.73
724.12	1714.15
724.30	1761.25
724.49	1685.48
724.67	1626.09
724.85	1800.16
725.03	1638.38
725.21	1712.10
725.40	1783.78
725.58	1759.21
725.76	1712.10
725.94	1705.96
726.12	1632.23
726.30	1716.20
726.49	1662.95
726.67	1705.96
726.85	1693.67
727.03	1826.79
727.21	2119.65
727.39	2887.64
727.57	3696.58
727.76	4030.40
727.94	4372.41
728.12	4349.89
728.30	3545.03
728.48	2908.12
728.66	2660.31
728.84	2514.91
729.03	2299.87
729.21	2179.04
729.39	1951.71
729.57	1804.26
729.75	1847.27
729.93	1849.32
730.11	1724.39
730.30	1656.81
730.48	1611.75
730.66	1755.11
730.84	1667.05
731.02	1748.97
731.20	1673.19
731.38	1781.73
731.56	1611.75
731.74	1650.66
731.93	1718.25
732.11	1748.97
732.29	1669.09
732.47	1681.38
732.65	1740.77
732.83	1701.86
733.01	1697.77
733.19	1648.61
733.37	1746.92
733.56	1726.44
733.74	1603.56
733.92	1779.68
734.10	1697.77
734.28	1769.44
734.46	1589.22
734.64	1638.38
734.82	1660.90
735.00	1679.33
735.18	1587.18
735.36	1677.29
735.54	1681.38
735.73	1677.29
735.91	1732.58
736.09	1693.67
736.27	1742.82
736.45	1705.96
736.63	1599.46
736.81	1673.19
736.99	1724.39
737.17	1738.73
737.35	1677.29
737.53	1687.53
737.71	1714.15
737.89	1693.67
738.07	1652.71
738.25	1726.44
738.43	1628.14
738.61	1634.28
738.80	1703.91
738.98	1621.99
739.16	1683.43
739.34	1640.42
739.52	1699.81
739.70	1646.57
739.88	1746.92
740.06	1812.45
740.24	1601.51
740.42	1740.77
740.60	1648.61
740.78	1648.61
740.96	1558.50
741.14	1695.72
741.32	1732.58
741.50	1601.51
741.68	1859.56
741.86	1767.40
742.04	1665.00
742.22	1630.18
742.40	1710.05
742.58	1777.64
742.76	1656.81
742.94	1726.44
743.12	1570.79
743.30	1640.42
743.48	1681.38
743.66	1652.71
743.84	1691.62
744.02	1716.20
744.20	1714.15
744.38	1671.14
744.56	1695.72
744.74	1812.45
744.92	1757.16
745.10	1841.12
745.28	1732.58
745.46	1828.84
745.64	1724.39
745.82	1710.05
746.00	1669.09
746.18	1773.54
746.36	1683.43
746.54	1617.90
746.72	1689.57
746.90	1636.33
747.08	1808.36
747.26	1656.81
747.44	1712.10
747.62	1701.86
747.80	1798.12
747.98	1695.72
748.15	1697.77
748.33	1757.16
748.51	1695.72
748.69	1767.40
748.87	1650.66
749.05	1728.49
749.23	1667.05
749.41	1759.21
749.59	1751.01
749.77	1777.64
749.95	1669.09
750.13	1710.05
750.31	1751.01
750.49	1693.67
750.67	1783.78
750.85	1771.49
751.03	1703.91
751.20	1855.46
751.38	1679.33
751.56	1724.39
751.74	1757.16
751.92	1742.82
752.10	1607.66
752.28	1714.15
752.46	1675.24
752.64	1658.85
752.82	1695.72
753.00	1689.57
753.18	1714.15
753.35	1667.05
753.53	1724.39
753.71	1689.57
753.89	1679.33
754.07	1734.63
754.25	1787.88
754.43	1746.92
754.61	1687.53
754.79	1718.25
754.97	1693.67
755.14	1669.09
755.32	1673.19
755.50	1691.62
755.68	1748.97
755.86	1642.47
756.04	1658.85
756.22	1558.50
756.40	1773.54
756.57	1794.02
756.75	1658.85
756.93	1826.79
757.11	1669.09
757.29	1642.47
757.47	1658.85
757.65	1550.31
757.82	1552.36
758.00	1710.05
758.18	1671.14
758.36	1636.33
758.54	1767.40
758.72	1636.33
758.90	1771.49
759.07	1689.57
759.25	1677.29
759.43	1763.30
759.61	1708.01
759.79	2187.23
759.97	1816.55
760.15	1675.24
760.32	1714.15
760.50	1683.43
760.68	1763.30
760.86	1611.75
761.04	1722.34
761.22	1779.68
761.39	1701.86
761.57	1787.88
761.75	1673.19
761.93	1738.73
762.11	1673.19
762.28	1708.01
762.46	1632.23
762.64	1746.92
762.82	1603.56
763.00	1673.19
763.18	1728.49
763.35	1673.19
763.53	1740.77
763.71	1781.73
763.89	1667.05
764.07	1744.87
764.24	1738.73
764.42	1779.68
764.60	1662.95
764.78	1697.77
764.96	1736.68
765.13	1751.01
765.31	1699.81
765.49	1628.14
765.67	1708.01
765.84	1650.66
766.02	1722.34
766.20	1593.32
766.38	1757.16
766.56	1746.92
766.73	1738.73
766.91	1669.09
767.09	1740.77
767.27	1781.73
767.44	1595.37
767.62	1689.57
767.80	1845.22
767.98	1617.90
768.15	1722.34
768.33	1759.21
768.51	1718.25
768.69	1802.21
768.87	1777.64
769.04	1697.77
769.22	1800.16
769.40	1755.11
769.58	1787.88
769.75	1695.72
769.93	1732.58
770.11	1667.05
770.28	1648.61
770.46	1810.40
770.64	1703.91
770.82	1720.29
770.99	1693.67
771.17	1712.10
771.35	1701.86
771.53	1628.14
771.70	1626.09
771.88	1644.52
772.06	1642.47
772.23	1691.62
772.41	1773.54
772.59	1660.90
772.77	1665.00
772.94	1679.33
773.12	1830.88
773.30	1681.38
773.47	1626.09
773.65	1685.48
773.83	1724.39
774.01	1732.58
774.18	1660.90
774.36	1671.14
774.54	1632.23
774.71	1667.05
774.89	1607.66
775.07	1654.76
775.24	1708.01
775.42	1720.29
775.60	1755.11
775.78	1683.43
775.95	1636.33
776.13	1646.57
776.31	1630.18
776.48	1701.86
776.66	1683.43
776.84	1708.01
777.01	1634.28
777.19	1615.85
777.37	1589.22
777.54	1757.16
777.72	1794.02
777.90	1628.14
778.07	1669.09
778.25	1781.73
778.43	1746.92
778.60	1648.61
778.78	1683.43
778.96	1703.91
779.13	1642.47
779.31	1697.77
779.49	1673.19
779.66	1701.86
779.84	1652.71
780.01	1630.18
780.19	1679.33
780.37	1710.05
780.54	1695.72
780.72	1572.84
780.90	1755.11
781.07	1626.09
781.25	1576.94
781.43	1767.40
781.60	1681.38
781.78	1736.68
781.95	1636.33
782.13	1699.81
782.31	1701.86
782.48	1619.94
782.66	1718.25
782.83	1724.39
783.01	1685.48
783.19	1744.87
783.36	1710.05
783.54	1683.43
783.72	1734.63
783.89	1658.85
784.07	1699.81
784.24	1714.15
784.42	1751.01
784.60	1781.73
784.77	1697.77
784.95	1624.04
785.12	1673.19
785.30	1652.71
785.47	1615.85
785.65	1689.57
785.83	1746.92
786.00	1695.72
786.18	1718.25
786.35	1634.28
786.53	1644.52
786.71	1724.39
786.88	1734.63
787.06	1740.77
787.23	1677.29
787.41	1660.90
787.58	1632.23
787.76	1734.63
787.94	1705.96
788.11	1701.86
788.29	1660.90
788.46	1630.18
788.64	1675.24
788.81	1689.57
788.99	1652.71
789.16	1685.48
789.34	1626.09
789.52	1566.70
789.69	1726.44
789.87	1538.02
790.04	1683.43
790.22	1654.76
790.39	1800.16
790.57	1650.66
790.74	1748.97
790.92	1724.39
791.09	1642.47
791.27	1716.20
791.44	1789.92
791.62	1712.10
791.79	1748.97
791.97	1656.81
792.15	1882.08
792.32	1746.92
792.50	1732.58
792.67	1728.49
792.85	1826.79
793.02	1773.54
793.20	1759.21
793.37	1607.66
793.55	1691.62
793.72	1570.79
793.90	1615.85
794.07	1646.57
794.25	1693.67
794.42	1734.63
794.60	1753.06
794.77	1658.85
794.95	1718.25
795.12	1679.33
795.30	1714.15
795.47	1656.81
795.65	1841.12
795.82	1714.15
796.00	1693.67
796.17	1755.11
796.34	1648.61
796.52	1734.63
796.69	1757.16
796.87	1638.38
797.04	1759.21
797.22	1746.92
797.39	1724.39
797.57	1722.34
797.74	1738.73
797.92	1720.29
798.09	1642.47
798.27	1746.92
798.44	1720.29
798.62	1632.23
798.79	1632.23
798.96	1699.81
799.14	1714.15
799.31	1816.55
799.49	1685.48
799.66	1607.66
799.84	1738.73
800.01	1685.48
800.19	1671.14
800.36	1540.07
800.53	1716.20
800.71	1716.20
800.88	1796.07
801.06	1656.81
801.23	1697.77
801.41	1705.96
801.58	1685.48
801.75	1689.57
801.93	1736.68
802.10	1730.53
802.28	1681.38
802.45	1681.38
802.63	1816.55
802.80	1841.12
802.97	1701.86
803.15	1740.77
803.32	1634.28
803.50	1603.56
803.67	1599.46
803.84	1615.85
804.02	1683.43
804.19	1632.23
804.37	1603.56
804.54	1587.18
804.71	1630.18
804.89	1669.09
805.06	1689.57
805.24	1589.22
805.41	1646.57
805.58	1724.39
805.76	1757.16
805.93	1673.19
806.10	1800.16
806.28	1658.85
806.45	1671.14
806.63	1722.34
806.80	1716.20
806.97	1763.30
807.15	1767.40
807.32	1697.77
807.49	1609.70
807.67	1611.75
807.84	1740.77
808.01	1601.51
808.19	1816.55
808.36	1796.07
808.54	1667.05
808.71	1619.94
808.88	1689.57
809.06	1685.48
809.23	1804.26
809.40	1613.80
809.58	1802.21
809.75	1736.68
809.92	1626.09
810.10	1834.98
810.27	1697.77
810.44	1687.53
810.62	1693.67
810.79	1669.09
810.96	1687.53
811.14	1646.57
811.31	1619.94
811.48	1734.63
811.66	1710.05
811.83	1740.77
812.00	1683.43
812.18	1730.53
812.35	1824.74
812.52	1714.15
812.69	1640.42
812.87	1710.05
813.04	1656.81
813.21	1619.94
813.39	1701.86
813.56	1644.52
813.73	1746.92
813.91	1621.99
814.08	1738.73
814.25	1722.34
814.42	1599.46
814.60	1667.05
814.77	1708.01
814.94	1662.95
815.12	1697.77
815.29	1773.54
815.46	1722.34
815.63	1693.67
815.81	1773.54
815.98	1660.90
816.15	1660.90
816.33	1691.62
816.50	1722.34
816.67	1675.24
816.84	1730.53
817.02	1695.72
817.19	1671.14
817.36	1730.53
817.53	1730.53
817.71	1658.85
817.88	1798.12
818.05	1718.25
818.22	1736.68
818.40	1824.74
818.57	1689.57
818.74	1724.39
818.91	1669.09
819.09	1755.11
819.26	1759.21
819.43	1734.63
819.60	1660.90
819.78	1789.92
819.95	1832.93
820.12	1624.04
820.29	1703.91
820.47	1781.73
820.64	1665.00
820.81	1662.95
820.98	1636.33
821.15	1648.61
821.33	1744.87
821.50	1632.23
821.67	1789.92
821.84	1669.09
822.02	1716.20
822.19	1751.01
822.36	1665.00
822.53	1687.53
822.70	1617.90
822.88	1611.75
823.05	1757.16
823.22	1669.09
823.39	1736.68
823.56	1722.34
823.74	1755.11
823.91	1597.42
824.08	1665.00
824.25	1652.71
824.42	1783.78
824.60	1574.89
824.77	1693.67
824.94	1626.09
825.11	1746.92
825.28	1642.47
825.45	1763.30
825.63	1714.15
825.80	1609.70
825.97	1726.44
826.14	1699.81
826.31	1603.56
826.48	1783.78
826.66	1632.23
826.83	1714.15
827.00	1689.57
827.17	1685.48
827.34	1640.42
827.51	1665.00
827.69	1738.73
827.86	1656.81
828.03	1775.59
828.20	1624.04
828.37	1683.43
828.54	1773.54
828.71	1697.77
828.89	1779.68
829.06	1658.85
829.23	1738.73
829.40	1634.28
829.57	1665.00
829.74	1736.68
829.91	1748.97
830.09	1708.01
830.26	1714.15
830.43	1746.92
830.60	1681.38
830.77	1716.20
830.94	1718.25
831.11	1734.63
831.28	1613.80
831.46	1777.64
831.63	1687.53
831.80	1732.58
831.97	1665.00
832.14	1679.33
832.31	1738.73
832.48	1728.49
832.65	1701.86
832.82	1705.96
832.99	1769.44
833.17	1671.14
833.34	1787.88
833.51	1693.67
833.68	1609.70
833.85	1714.15
834.02	1624.04
834.19	1667.05
834.36	1708.01
834.53	1677.29
834.70	1812.45
834.87	1773.54
835.04	1693.67
835.22	1677.29
835.39	1693.67
835.56	1640.42
835.73	1697.77
835.90	1761.25
836.07	1609.70
836.24	1710.05
836.41	1648.61
836.58	1648.61
836.75	1656.81
836.92	1665.00
837.09	1609.70
837.26	1685.48
837.43	1671.14
837.60	1722.34
837.77	1660.90
837.94	1703.91
838.12	1789.92
838.29	1730.53
838.46	1677.29
838.63	1691.62
838.80	1757.16
838.97	1757.16
839.14	1695.72
839.31	1691.62
839.48	1724.39
839.65	1619.94
839.82	1828.84
839.99	1759.21
840.16	1660.90
840.33	1638.38
840.50	1708.01
840.67	1630.18
840.84	1626.09
841.01	1722.34
841.18	1708.01
841.35	1660.90
841.52	1765.35
841.69	1812.45
841.86	1761.25
842.03	1746.92
842.20	1738.73
842.37	1656.81
842.54	1714.15
842.71	1642.47
842.88	1656.81
843.05	1753.06
843.22	1681.38
843.39	1736.68
843.56	1681.38
843.73	1701.86
843.90	1779.68
844.07	1685.48
844.24	1757.16
844.41	1685.48
844.58	1777.64
844.75	1638.38
844.92	1652.71
845.09	1703.91
845.26	1671.14
845.43	1740.77
845.60	1687.53
845.77	1796.07
845.94	1681.38
846.10	1761.25
846.27	1691.62
846.44	1646.57
846.61	1642.47
846.78	1763.30
846.95	1757.16
847.12	1687.53
847.29	1710.05
847.46	1708.01
847.63	1734.63
847.80	1599.46
847.97	1703.91
848.14	1914.85
848.31	1687.53
848.48	1665.00
848.65	1697.77
848.82	1595.37
848.98	1800.16
849.15	1691.62
849.32	1761.25
849.49	1665.00
849.66	1701.86
849.83	1693.67
850.00	1640.42
850.17	1777.64
850.34	1699.81
850.51	1578.98
850.68	1691.62
850.85	1875.94
851.01	1718.25
851.18	1718.25
851.35	1742.82
851.52	1728.49
851.69	1861.60
851.86	1648.61
852.03	1662.95
852.20	1726.44
852.37	1718.25
852.53	1556.46
852.70	1722.34
852.87	1724.39
853.04	1689.57
853.21	1691.62
853.38	1759.21
853.55	1730.53
853.72	1779.68
853.89	1630.18
854.05	1656.81
854.22	1652.71
854.39	1703.91
854.56	1748.97
854.73	1691.62
854.90	1652.71
855.07	1656.81
855.23	1589.22
855.40	1697.77
855.57	1654.76
855.74	1535.98
855.91	1779.68
856.08	1570.79
856.25	1591.27
856.41	1673.19
856.58	1654.76
856.75	1732.58
856.92	1720.29
857.09	1804.26
857.26	1617.90
857.42	1730.53
857.59	1746.92
857.76	1613.80
857.93	1636.33
858.10	1722.34
858.27	1720.29
858.43	1751.01
858.60	1628.14
858.77	1685.48
858.94	1712.10
859.11	1703.91
859.27	1693.67
859.44	1665.00
859.61	1757.16
859.78	1755.11
859.95	1732.58
860.12	1685.48
860.28	1824.74
860.45	1818.60
860.62	1677.29
860.79	1746.92
860.95	1665.00
861.12	1617.90
861.29	1689.57
861.46	1654.76
861.63	1638.38
861.79	1675.24
861.96	1654.76
862.13	1601.51
862.30	1810.40
862.47	1671.14
862.63	1681.38
862.80	1798.12
862.97	1722.34
863.14	1619.94
863.30	1746.92
863.47	1660.90
863.64	1755.11
863.81	1708.01
863.97	1734.63
864.14	1656.81
864.31	1632.23
864.48	1703.91
864.65	1603.56
864.81	1679.33
864.98	1697.77
865.15	1710.05
865.32	1726.44
865.48	1701.86
865.65	1734.63
865.82	1630.18
865.98	1658.85
866.15	1746.92
866.32	1697.77
866.49	1660.90
866.65	1703.91
866.82	1665.00
866.99	1736.68
867.16	1687.53
867.32	1591.27
867.49	1693.67
867.66	1710.05
867.83	1648.61
867.99	1669.09
868.16	1701.86
868.33	1648.61
868.49	1593.32
868.66	1689.57
868.83	1675.24
868.99	1734.63
869.16	1656.81
869.33	1787.88
869.50	1798.12
869.66	1677.29
869.83	1724.39
870.00	1615.85
870.16	1697.77
870.33	1683.43
870.50	1718.25
870.66	1697.77
870.83	1859.56
871.00	1724.39
871.17	1742.82
871.33	1777.64
871.50	1697.77
871.67	1681.38
871.83	1632.23
872.00	1802.21
872.17	1673.19
872.33	1816.55
872.50	1759.21
872.67	1665.00
872.83	1677.29
873.00	1710.05
873.17	1681.38
873.33	1699.81
873.50	1771.49
873.67	1638.38
873.83	1681.38
874.00	1703.91
874.16	1773.54
874.33	1718.25
874.50	1632.23
874.66	1720.29
874.83	1699.81
875.00	1736.68
875.16	1740.77
875.33	1740.77
875.50	1644.52
875.66	1644.52
875.83	1732.58
875.99	1683.43
876.16	1724.39
876.33	1605.61
876.49	1574.89
876.66	1677.29
876.83	1718.25
876.99	1654.76
877.16	1722.34
877.32	1648.61
877.49	1724.39
877.66	1658.85
877.82	1816.55
877.99	1695.72
878.15	1800.16
878.32	1734.63
878.49	1724.39
878.65	1611.75
878.82	1755.11
878.98	1621.99
879.15	1697.77
879.32	1755.11
879.48	1693.67
879.65	1576.94
879.81	1693.67
879.98	1691.62
880.15	1679.33
880.31	1675.24
880.48	1660.90
880.64	1753.06
880.81	1804.26
880.97	1781.73
881.14	1724.39
881.31	1677.29
881.47	1701.86
881.64	1667.05
881.80	1552.36
881.97	1710.05
882.13	1718.25
882.30	1683.43
882.47	1718.25
882.63	1652.71
882.80	1722.34
882.96	1654.76
883.13	1738.73
883.29	1708.01
883.46	1703.91
883.62	1767.40
883.79	1685.48
883.95	1693.67
884.12	1730.53
884.29	1767.40
884.45	1648.61
884.62	1751.01
884.78	1632.23
884.95	1800.16
885.11	1572.84
885.28	1632.23
885.44	1648.61
885.61	1685.48
885.77	1804.26
885.94	1681.38
886.10	1695.72
886.27	1720.29
886.43	1834.98
886.60	1822.69
886.76	1652.71
886.93	1605.61
887.09	1669.09
887.26	1632.23
887.42	1740.77
887.59	1751.01
887.75	1798.12
887.92	1710.05
888.08	1746.92
888.25	1822.69
888.41	1828.84
888.58	1640.42
888.74	1587.18
888.91	1656.81
>>>>>End Processed Spectral Data<<<<<
