SpectraSuite Data File
++++++++++++++++++++++++++++++++++++
Date: Mon Jun 06 17:09:57 CEST 2016
User: root
Dark Spectrum Present: No
Reference Spectrum Present: No
Number of Sampled Component Spectra: 1
Spectrometers: USB4C02835
Integration Time (usec): 100000 (USB4C02835)
Spectra Averaged: 1 (USB4C02835)
Boxcar Smoothing: 0 (USB4C02835)
Correct for Electrical Dark: No (USB4C02835)
Strobe/Lamp Enabled: No (USB4C02835)
Correct for Detector Non-linearity: No (USB4C02835)
Correct for Stray Light: No (USB4C02835)
Number of Pixels in Processed Spectrum: 3648
>>>>>Begin Processed Spectral Data<<<<<
177.47	1460.20
177.69	1460.20
177.91	1460.20
178.13	1517.54
178.36	1558.50
178.58	1685.48
178.80	1738.73
179.02	1607.66
179.24	1699.81
179.46	1665.00
179.68	1771.49
179.90	1683.43
180.13	1683.43
180.35	1613.80
180.57	1718.25
180.79	1697.77
181.01	1681.38
181.23	1744.87
181.45	1742.82
181.67	1800.16
181.90	1730.53
182.12	1757.16
182.34	1611.75
182.56	1691.62
182.78	1781.73
183.00	1722.34
183.22	1722.34
183.44	1630.18
183.66	1884.13
183.89	1789.92
184.11	1708.01
184.33	1740.77
184.55	1746.92
184.77	1716.20
184.99	1753.06
185.21	1624.04
185.43	1810.40
185.65	1689.57
185.87	1728.49
186.10	1904.61
186.32	1826.79
186.54	1736.68
186.76	1746.92
186.98	1718.25
187.20	1734.63
187.42	1681.38
187.64	1718.25
187.86	1693.67
188.08	1759.21
188.30	1693.67
188.52	1716.20
188.75	1755.11
188.97	1781.73
189.19	1687.53
189.41	1648.61
189.63	1703.91
189.85	1642.47
190.07	1611.75
190.29	1632.23
190.51	1687.53
190.73	1648.61
190.95	1814.50
191.17	1634.28
191.39	1648.61
191.61	1632.23
191.84	1736.68
192.06	1687.53
192.28	1595.37
192.50	1826.79
192.72	1777.64
192.94	1689.57
193.16	1777.64
193.38	1775.59
193.60	1640.42
193.82	1691.62
194.04	1800.16
194.26	1722.34
194.48	1726.44
194.70	1753.06
194.92	1695.72
195.14	1759.21
195.36	1687.53
195.58	1685.48
195.80	1716.20
196.02	1697.77
196.24	1714.15
196.46	1656.81
196.69	1665.00
196.91	1804.26
197.13	1724.39
197.35	1632.23
197.57	1738.73
197.79	1773.54
198.01	1736.68
198.23	1791.97
198.45	1718.25
198.67	1593.32
198.89	1722.34
199.11	1693.67
199.33	1714.15
199.55	1640.42
199.77	1701.86
199.99	1730.53
200.21	1720.29
200.43	1714.15
200.65	1691.62
200.87	1540.07
201.09	1738.73
201.31	1669.09
201.53	1755.11
201.75	1714.15
201.97	1722.34
202.19	1738.73
202.41	1773.54
202.63	1888.23
202.85	1744.87
203.07	1716.20
203.29	1681.38
203.51	1697.77
203.73	1652.71
203.95	1890.28
204.17	1765.35
204.39	1726.44
204.61	1712.10
204.83	1681.38
205.05	1818.60
205.27	1708.01
205.49	1882.08
205.71	1710.05
205.93	1685.48
206.15	1689.57
206.37	1648.61
206.59	1724.39
206.81	1669.09
207.03	1716.20
207.25	1601.51
207.47	1716.20
207.69	1701.86
207.91	1777.64
208.13	1738.73
208.34	1773.54
208.56	1636.33
208.78	1746.92
209.00	1681.38
209.22	1689.57
209.44	1724.39
209.66	1701.86
209.88	1708.01
210.10	1683.43
210.32	1722.34
210.54	1787.88
210.76	1601.51
210.98	1769.44
211.20	1572.84
211.42	1703.91
211.64	1732.58
211.86	1734.63
212.08	1757.16
212.30	1644.52
212.52	1656.81
212.74	1730.53
212.96	1728.49
213.17	1724.39
213.39	1677.29
213.61	1757.16
213.83	1808.36
214.05	1697.77
214.27	1748.97
214.49	1642.47
214.71	1595.37
214.93	1800.16
215.15	1736.68
215.37	1746.92
215.59	1662.95
215.81	1773.54
216.03	1785.83
216.24	1748.97
216.46	1624.04
216.68	1759.21
216.90	1701.86
217.12	1722.34
217.34	1681.38
217.56	1714.15
217.78	1812.45
218.00	1677.29
218.22	1777.64
218.44	1658.85
218.66	1771.49
218.87	1777.64
219.09	1615.85
219.31	1753.06
219.53	1812.45
219.75	1681.38
219.97	1705.96
220.19	1646.57
220.41	1654.76
220.63	1742.82
220.85	1671.14
221.06	1714.15
221.28	1802.21
221.50	1748.97
221.72	1716.20
221.94	1726.44
222.16	1753.06
222.38	1689.57
222.60	1693.67
222.82	1751.01
223.03	1761.25
223.25	1583.08
223.47	1650.66
223.69	1857.51
223.91	1798.12
224.13	1753.06
224.35	1642.47
224.57	1853.41
224.78	1746.92
225.00	1705.96
225.22	1675.24
225.44	1691.62
225.66	1701.86
225.88	1722.34
226.10	1744.87
226.32	1673.19
226.53	1847.27
226.75	1726.44
226.97	1658.85
227.19	1732.58
227.41	1687.53
227.63	1705.96
227.85	1687.53
228.06	1794.02
228.28	1720.29
228.50	1759.21
228.72	1689.57
228.94	1665.00
229.16	1636.33
229.37	1585.13
229.59	1751.01
229.81	1832.93
230.03	1724.39
230.25	1656.81
230.47	1638.38
230.69	1624.04
230.90	1718.25
231.12	1611.75
231.34	1828.84
231.56	1767.40
231.78	1701.86
232.00	1796.07
232.21	1761.25
232.43	1724.39
232.65	1603.56
232.87	1718.25
233.09	1626.09
233.30	1701.86
233.52	1763.30
233.74	1650.66
233.96	1695.72
234.18	1736.68
234.40	1681.38
234.61	1787.88
234.83	1673.19
235.05	1632.23
235.27	1914.85
235.49	1705.96
235.70	1722.34
235.92	1763.30
236.14	1777.64
236.36	1834.98
236.58	1681.38
236.79	1769.44
237.01	1675.24
237.23	1685.48
237.45	1781.73
237.67	1640.42
237.88	1693.67
238.10	1855.46
238.32	1671.14
238.54	1689.57
238.76	1710.05
238.97	1646.57
239.19	1656.81
239.41	1755.11
239.63	1773.54
239.85	1767.40
240.06	1673.19
240.28	1740.77
240.50	1738.73
240.72	1730.53
240.93	1703.91
241.15	1710.05
241.37	1779.68
241.59	1812.45
241.81	1724.39
242.02	1716.20
242.24	1628.14
242.46	1714.15
242.68	1648.61
242.89	1695.72
243.11	1800.16
243.33	1755.11
243.55	1746.92
243.76	1777.64
243.98	1720.29
244.20	1751.01
244.42	1710.05
244.64	1712.10
244.85	1689.57
245.07	1724.39
245.29	1783.78
245.51	1734.63
245.72	1693.67
245.94	1804.26
246.16	1644.52
246.38	1771.49
246.59	1695.72
246.81	1685.48
247.03	1658.85
247.24	1662.95
247.46	1652.71
247.68	1685.48
247.90	1757.16
248.11	1689.57
248.33	1718.25
248.55	1753.06
248.77	1697.77
248.98	1765.35
249.20	1771.49
249.42	1720.29
249.64	1751.01
249.85	1619.94
250.07	1583.08
250.29	1806.31
250.50	1818.60
250.72	1626.09
250.94	1748.97
251.16	1828.84
251.37	1726.44
251.59	1720.29
251.81	1724.39
252.02	1820.64
252.24	1789.92
252.46	1814.50
252.68	1677.29
252.89	1685.48
253.11	1603.56
253.33	1828.84
253.54	1794.02
253.76	1578.98
253.98	1722.34
254.20	1671.14
254.41	1642.47
254.63	1744.87
254.85	1617.90
255.06	1683.43
255.28	1683.43
255.50	1669.09
255.71	1669.09
255.93	1656.81
256.15	1665.00
256.36	1695.72
256.58	1636.33
256.80	1779.68
257.02	1648.61
257.23	1724.39
257.45	1757.16
257.67	1738.73
257.88	1636.33
258.10	1746.92
258.32	1724.39
258.53	1734.63
258.75	1781.73
258.97	1687.53
259.18	1730.53
259.40	1738.73
259.62	1777.64
259.83	1824.74
260.05	1687.53
260.27	1982.43
260.48	1718.25
260.70	1609.70
260.92	1734.63
261.13	1695.72
261.35	1718.25
261.57	1732.58
261.78	1646.57
262.00	1626.09
262.22	1718.25
262.43	1791.97
262.65	1679.33
262.86	1742.82
263.08	1832.93
263.30	1818.60
263.51	1558.50
263.73	1640.42
263.95	1796.07
264.16	1605.61
264.38	1617.90
264.60	1701.86
264.81	1765.35
265.03	1777.64
265.25	1789.92
265.46	1716.20
265.68	1775.59
265.89	1849.32
266.11	1587.18
266.33	1738.73
266.54	1767.40
266.76	1773.54
266.98	1794.02
267.19	1748.97
267.41	1843.17
267.62	1683.43
267.84	1738.73
268.06	1765.35
268.27	1751.01
268.49	1732.58
268.70	1802.21
268.92	1751.01
269.14	1648.61
269.35	1654.76
269.57	1806.31
269.79	1714.15
270.00	1720.29
270.22	1773.54
270.43	1658.85
270.65	1581.03
270.87	1726.44
271.08	1740.77
271.30	1732.58
271.51	1703.91
271.73	1677.29
271.95	1816.55
272.16	1701.86
272.38	1703.91
272.59	1726.44
272.81	1722.34
273.02	1683.43
273.24	1767.40
273.46	1769.44
273.67	1634.28
273.89	1712.10
274.10	1738.73
274.32	1679.33
274.54	1667.05
274.75	1775.59
274.97	1669.09
275.18	1794.02
275.40	1769.44
275.61	1710.05
275.83	1738.73
276.05	1581.03
276.26	1761.25
276.48	1724.39
276.69	1669.09
276.91	1656.81
277.12	1789.92
277.34	1771.49
277.55	1755.11
277.77	1798.12
277.99	1689.57
278.20	1726.44
278.42	1701.86
278.63	1640.42
278.85	1716.20
279.06	1624.04
279.28	1718.25
279.49	1755.11
279.71	1771.49
279.93	1726.44
280.14	1679.33
280.36	1648.61
280.57	1767.40
280.79	1800.16
281.00	1644.52
281.22	1730.53
281.43	1759.21
281.65	1626.09
281.86	1652.71
282.08	1671.14
282.29	1755.11
282.51	1609.70
282.73	1665.00
282.94	1648.61
283.16	1755.11
283.37	1759.21
283.59	1689.57
283.80	1814.50
284.02	1724.39
284.23	1710.05
284.45	1689.57
284.66	1697.77
284.88	1654.76
285.09	1748.97
285.31	1798.12
285.52	1775.59
285.74	1640.42
285.95	1779.68
286.17	1718.25
286.38	1720.29
286.60	1638.38
286.81	1671.14
287.03	1624.04
287.24	1751.01
287.46	1769.44
287.67	1681.38
287.89	1857.51
288.10	1740.77
288.32	1722.34
288.53	1769.44
288.75	1667.05
288.96	1753.06
289.18	1656.81
289.39	1685.48
289.61	1796.07
289.82	1847.27
290.04	1794.02
290.25	1654.76
290.47	1642.47
290.68	1662.95
290.90	1759.21
291.11	1593.32
291.33	1734.63
291.54	1658.85
291.76	1712.10
291.97	1708.01
292.18	1708.01
292.40	1728.49
292.61	1701.86
292.83	1812.45
293.04	1710.05
293.26	1765.35
293.47	1677.29
293.69	1628.14
293.90	1734.63
294.12	1828.84
294.33	1763.30
294.55	1693.67
294.76	1822.69
294.97	1736.68
295.19	1832.93
295.40	1673.19
295.62	1648.61
295.83	1736.68
296.05	1781.73
296.26	1826.79
296.48	1683.43
296.69	1712.10
296.90	1689.57
297.12	1726.44
297.33	1828.84
297.55	1685.48
297.76	1722.34
297.98	1699.81
298.19	1828.84
298.41	1671.14
298.62	1634.28
298.83	1802.21
299.05	1710.05
299.26	1695.72
299.48	1595.37
299.69	1740.77
299.90	1828.84
300.12	1710.05
300.33	1736.68
300.55	1701.86
300.76	1710.05
300.98	1687.53
301.19	1765.35
301.40	1722.34
301.62	1767.40
301.83	1787.88
302.05	1703.91
302.26	1712.10
302.47	1722.34
302.69	1691.62
302.90	1746.92
303.12	1576.94
303.33	1734.63
303.54	1886.18
303.76	1634.28
303.97	1753.06
304.19	1753.06
304.40	1718.25
304.61	1832.93
304.83	1812.45
305.04	1751.01
305.26	1779.68
305.47	1697.77
305.68	1796.07
305.90	1712.10
306.11	1800.16
306.33	1761.25
306.54	1658.85
306.75	1642.47
306.97	1611.75
307.18	1595.37
307.39	1693.67
307.61	1742.82
307.82	1748.97
308.04	1693.67
308.25	1701.86
308.46	1742.82
308.68	1691.62
308.89	1677.29
309.10	1800.16
309.32	1722.34
309.53	1710.05
309.74	1746.92
309.96	1740.77
310.17	1800.16
310.39	1685.48
310.60	1779.68
310.81	1665.00
311.03	1634.28
311.24	1736.68
311.45	1748.97
311.67	1726.44
311.88	1751.01
312.09	1691.62
312.31	1675.24
312.52	1699.81
312.73	1798.12
312.95	1581.03
313.16	1607.66
313.37	1763.30
313.59	1714.15
313.80	1714.15
314.01	1834.98
314.23	1689.57
314.44	1683.43
314.65	1740.77
314.87	1740.77
315.08	1673.19
315.29	1726.44
315.51	1662.95
315.72	1720.29
315.93	1810.40
316.15	1675.24
316.36	1738.73
316.57	1701.86
316.79	1722.34
317.00	1708.01
317.21	1685.48
317.43	1708.01
317.64	1757.16
317.85	1669.09
318.07	1699.81
318.28	1796.07
318.49	1767.40
318.70	1912.80
318.92	1826.79
319.13	1841.12
319.34	1794.02
319.56	1787.88
319.77	1763.30
319.98	1816.55
320.20	1855.46
320.41	1804.26
320.62	1685.48
320.83	1775.59
321.05	1830.88
321.26	1761.25
321.47	1677.29
321.69	1791.97
321.90	1613.80
322.11	1681.38
322.32	1746.92
322.54	1787.88
322.75	1693.67
322.96	1812.45
323.18	1585.13
323.39	1636.33
323.60	1730.53
323.81	1744.87
324.03	1648.61
324.24	1722.34
324.45	1708.01
324.66	1636.33
324.88	1746.92
325.09	1748.97
325.30	1742.82
325.52	1787.88
325.73	1679.33
325.94	1624.04
326.15	1599.46
326.37	1742.82
326.58	1828.84
326.79	1775.59
327.00	1738.73
327.22	1769.44
327.43	1673.19
327.64	1738.73
327.85	1746.92
328.07	1775.59
328.28	1853.41
328.49	1726.44
328.70	1765.35
328.92	1718.25
329.13	1775.59
329.34	1746.92
329.55	1789.92
329.76	1740.77
329.98	1775.59
330.19	1791.97
330.40	1730.53
330.61	1701.86
330.83	1734.63
331.04	1703.91
331.25	1662.95
331.46	1689.57
331.68	1701.86
331.89	1730.53
332.10	1693.67
332.31	1615.85
332.52	1724.39
332.74	1742.82
332.95	1669.09
333.16	1730.53
333.37	1755.11
333.58	1734.63
333.80	1697.77
334.01	1574.89
334.22	1634.28
334.43	1648.61
334.64	1689.57
334.86	1658.85
335.07	1701.86
335.28	1683.43
335.49	1660.90
335.70	1671.14
335.92	1718.25
336.13	1972.19
336.34	1718.25
336.55	1724.39
336.76	1720.29
336.98	1660.90
337.19	1718.25
337.40	1742.82
337.61	1865.70
337.82	1673.19
338.04	1773.54
338.25	1646.57
338.46	1759.21
338.67	1746.92
338.88	1609.70
339.09	1581.03
339.31	1677.29
339.52	1583.08
339.73	1734.63
339.94	1681.38
340.15	1802.21
340.36	1699.81
340.58	1701.86
340.79	1626.09
341.00	1720.29
341.21	1617.90
341.42	1841.12
341.63	1652.71
341.85	1697.77
342.06	1734.63
342.27	1626.09
342.48	1734.63
342.69	1660.90
342.90	1697.77
343.12	1740.77
343.33	1695.72
343.54	1732.58
343.75	1789.92
343.96	1712.10
344.17	1705.96
344.38	1619.94
344.60	1644.52
344.81	1697.77
345.02	1673.19
345.23	1765.35
345.44	1865.70
345.65	1761.25
345.86	1726.44
346.07	1767.40
346.29	1746.92
346.50	1714.15
346.71	1767.40
346.92	1746.92
347.13	1808.36
347.34	1679.33
347.55	1685.48
347.76	1728.49
347.98	1636.33
348.19	1710.05
348.40	1732.58
348.61	1734.63
348.82	1761.25
349.03	1802.21
349.24	1724.39
349.45	1771.49
349.66	1605.61
349.88	1771.49
350.09	1705.96
350.30	1804.26
350.51	1751.01
350.72	1615.85
350.93	1779.68
351.14	1738.73
351.35	1744.87
351.56	1681.38
351.77	1718.25
351.99	1767.40
352.20	1791.97
352.41	1718.25
352.62	1724.39
352.83	1685.48
353.04	1687.53
353.25	1644.52
353.46	1789.92
353.67	1683.43
353.88	1615.85
354.09	1665.00
354.30	1767.40
354.52	1755.11
354.73	1724.39
354.94	1660.90
355.15	1734.63
355.36	1769.44
355.57	1632.23
355.78	1714.15
355.99	1656.81
356.20	1724.39
356.41	1767.40
356.62	1691.62
356.83	1806.31
357.04	1779.68
357.25	1652.71
357.46	1656.81
357.68	1630.18
357.89	1712.10
358.10	1687.53
358.31	1681.38
358.52	1722.34
358.73	1687.53
358.94	1636.33
359.15	1722.34
359.36	1718.25
359.57	1699.81
359.78	1746.92
359.99	1751.01
360.20	1607.66
360.41	1679.33
360.62	1722.34
360.83	1624.04
361.04	1675.24
361.25	1736.68
361.46	1822.69
361.67	1755.11
361.88	1757.16
362.09	1812.45
362.30	1677.29
362.51	1673.19
362.72	1751.01
362.93	1683.43
363.14	1789.92
363.35	1667.05
363.56	1730.53
363.78	1802.21
363.99	1787.88
364.20	1712.10
364.41	1732.58
364.62	1796.07
364.83	1724.39
365.04	1673.19
365.25	1781.73
365.46	1810.40
365.67	1736.68
365.88	1724.39
366.09	1578.98
366.30	1689.57
366.51	1775.59
366.72	1632.23
366.93	1685.48
367.14	1671.14
367.35	1738.73
367.56	1751.01
367.77	1837.03
367.98	1630.18
368.18	1787.88
368.39	1705.96
368.60	1705.96
368.81	1755.11
369.02	1738.73
369.23	1716.20
369.44	1671.14
369.65	1703.91
369.86	1746.92
370.07	1755.11
370.28	1656.81
370.49	1748.97
370.70	1722.34
370.91	1644.52
371.12	1621.99
371.33	1808.36
371.54	1732.58
371.75	1800.16
371.96	1599.46
372.17	1705.96
372.38	1695.72
372.59	1724.39
372.80	1654.76
373.01	1730.53
373.22	1714.15
373.43	1726.44
373.64	1646.57
373.85	1824.74
374.06	1771.49
374.26	1791.97
374.47	1677.29
374.68	1808.36
374.89	1681.38
375.10	1787.88
375.31	1755.11
375.52	1720.29
375.73	1644.52
375.94	1722.34
376.15	1816.55
376.36	1648.61
376.57	1640.42
376.78	1673.19
376.99	1716.20
377.20	1748.97
377.40	1705.96
377.61	1748.97
377.82	1646.57
378.03	1783.78
378.24	1791.97
378.45	1667.05
378.66	1720.29
378.87	1636.33
379.08	1615.85
379.29	1697.77
379.50	1779.68
379.71	1689.57
379.91	1837.03
380.12	1693.67
380.33	1791.97
380.54	1783.78
380.75	1728.49
380.96	1638.38
381.17	1765.35
381.38	1720.29
381.59	1687.53
381.80	1718.25
382.00	1845.22
382.21	1746.92
382.42	1843.17
382.63	1837.03
382.84	1755.11
383.05	1824.74
383.26	1751.01
383.47	1665.00
383.68	1812.45
383.88	1785.83
384.09	1722.34
384.30	1828.84
384.51	1759.21
384.72	1656.81
384.93	1601.51
385.14	1728.49
385.35	1794.02
385.55	1617.90
385.76	1718.25
385.97	1712.10
386.18	1642.47
386.39	1712.10
386.60	1710.05
386.81	1705.96
387.02	1693.67
387.22	1634.28
387.43	1726.44
387.64	1757.16
387.85	1882.08
388.06	2133.98
388.27	4290.49
388.48	6883.22
388.68	8152.96
388.89	9697.13
389.10	10102.63
389.31	8617.85
389.52	7792.52
389.73	6850.46
389.93	6328.22
390.14	5916.58
390.35	5277.62
390.56	4638.65
390.77	3874.76
390.98	3211.22
391.18	2559.96
391.39	2068.45
391.60	1814.50
391.81	1847.27
392.02	1687.53
392.23	1890.28
392.43	1804.26
392.64	1865.70
392.85	1634.28
393.06	1857.51
393.27	1705.96
393.47	1673.19
393.68	1740.77
393.89	1695.72
394.10	1740.77
394.31	1759.21
394.52	1699.81
394.72	1650.66
394.93	1791.97
395.14	1632.23
395.35	1714.15
395.56	1671.14
395.76	1755.11
395.97	1828.84
396.18	1920.99
396.39	1771.49
396.60	2015.20
396.80	1888.23
397.01	1882.08
397.22	1841.12
397.43	1951.71
397.64	1746.92
397.84	1771.49
398.05	1843.17
398.26	1771.49
398.47	1767.40
398.67	1804.26
398.88	1861.60
399.09	1773.54
399.30	1642.47
399.51	1742.82
399.71	1650.66
399.92	1701.86
400.13	1787.88
400.34	1695.72
400.54	1796.07
400.75	1927.14
400.96	1781.73
401.17	1816.55
401.37	1757.16
401.58	1708.01
401.79	1751.01
402.00	1826.79
402.21	2125.79
402.41	1980.39
402.62	1978.34
402.83	2062.30
403.04	2019.30
403.24	2084.83
403.45	1845.22
403.66	1945.57
403.87	1873.89
404.07	1847.27
404.28	1961.95
404.49	1855.46
404.70	1748.97
404.90	1812.45
405.11	1746.92
405.32	1765.35
405.52	1699.81
405.73	1644.52
405.94	1648.61
406.15	1755.11
406.35	1830.88
406.56	1751.01
406.77	1726.44
406.98	1667.05
407.18	1744.87
407.39	1757.16
407.60	1718.25
407.80	1730.53
408.01	1710.05
408.22	1744.87
408.43	1701.86
408.63	1693.67
408.84	1785.83
409.05	1699.81
409.25	1669.09
409.46	1697.77
409.67	1716.20
409.88	1693.67
410.08	1794.02
410.29	1689.57
410.50	1787.88
410.70	1705.96
410.91	1626.09
411.12	1652.71
411.32	1667.05
411.53	1675.24
411.74	1697.77
411.95	1794.02
412.15	1732.58
412.36	1806.31
412.57	1769.44
412.77	1783.78
412.98	1710.05
413.19	1685.48
413.39	1791.97
413.60	1771.49
413.81	1808.36
414.01	1648.61
414.22	1730.53
414.43	1771.49
414.63	1665.00
414.84	1806.31
415.05	1712.10
415.25	1634.28
415.46	1767.40
415.67	1724.39
415.87	1730.53
416.08	1755.11
416.29	1691.62
416.49	1724.39
416.70	1714.15
416.91	1689.57
417.11	1720.29
417.32	1751.01
417.53	1859.56
417.73	1720.29
417.94	1742.82
418.15	1744.87
418.35	1683.43
418.56	1673.19
418.77	1824.74
418.97	1722.34
419.18	1710.05
419.38	1607.66
419.59	1656.81
419.80	1783.78
420.00	1718.25
420.21	1691.62
420.42	1794.02
420.62	1769.44
420.83	1712.10
421.04	1720.29
421.24	1726.44
421.45	1730.53
421.65	1783.78
421.86	1705.96
422.07	1812.45
422.27	1714.15
422.48	1718.25
422.69	1642.47
422.89	1753.06
423.10	1738.73
423.30	1679.33
423.51	1691.62
423.72	1765.35
423.92	1744.87
424.13	1634.28
424.33	1708.01
424.54	1732.58
424.75	1722.34
424.95	1779.68
425.16	1730.53
425.36	1667.05
425.57	1693.67
425.78	1783.78
425.98	1703.91
426.19	1681.38
426.39	1609.70
426.60	1699.81
426.81	1814.50
427.01	1701.86
427.22	1628.14
427.42	1630.18
427.63	1628.14
427.83	1722.34
428.04	1824.74
428.25	1800.16
428.45	1826.79
428.66	1716.20
428.86	1691.62
429.07	1650.66
429.28	1742.82
429.48	1656.81
429.69	1654.76
429.89	1730.53
430.10	1599.46
430.30	1769.44
430.51	1757.16
430.71	1624.04
430.92	1796.07
431.13	1685.48
431.33	1744.87
431.54	1650.66
431.74	1785.83
431.95	1873.89
432.15	1640.42
432.36	1662.95
432.56	1765.35
432.77	1728.49
432.98	1787.88
433.18	1751.01
433.39	1816.55
433.59	1763.30
433.80	1834.98
434.00	1857.51
434.21	1699.81
434.41	1722.34
434.62	1789.92
434.82	1695.72
435.03	1638.38
435.23	1701.86
435.44	1658.85
435.64	1730.53
435.85	1718.25
436.06	1693.67
436.26	1753.06
436.47	1724.39
436.67	1728.49
436.88	1740.77
437.08	1710.05
437.29	1826.79
437.49	1720.29
437.70	1746.92
437.90	1701.86
438.11	1824.74
438.31	1841.12
438.52	1896.42
438.72	1824.74
438.93	1818.60
439.13	1847.27
439.34	1814.50
439.54	1785.83
439.75	1816.55
439.95	1843.17
440.16	1751.01
440.36	1730.53
440.57	1734.63
440.77	1810.40
440.98	1751.01
441.18	1736.68
441.39	1767.40
441.59	1683.43
441.80	1818.60
442.00	1716.20
442.21	1800.16
442.41	1689.57
442.62	1687.53
442.82	1642.47
443.02	1751.01
443.23	1714.15
443.43	1761.25
443.64	1865.70
443.84	1736.68
444.05	1779.68
444.25	1763.30
444.46	1808.36
444.66	1753.06
444.87	1814.50
445.07	1710.05
445.28	1818.60
445.48	1828.84
445.69	1837.03
445.89	1855.46
446.09	1804.26
446.30	2072.54
446.50	2695.13
446.71	3725.26
446.91	4478.91
447.12	4741.05
447.32	4847.54
447.53	4331.45
447.73	3966.92
447.93	3637.19
448.14	3293.13
448.34	3241.93
448.55	2893.78
448.75	2893.78
448.96	2729.94
449.16	2447.32
449.36	2236.38
449.57	2070.50
449.77	1910.75
449.98	1818.60
450.18	1808.36
450.39	1843.17
450.59	1822.69
450.79	1759.21
451.00	1681.38
451.20	1822.69
451.41	1691.62
451.61	1849.32
451.81	1685.48
452.02	1779.68
452.22	1777.64
452.43	1720.29
452.63	1714.15
452.84	1654.76
453.04	1738.73
453.24	1818.60
453.45	1703.91
453.65	1769.44
453.86	1748.97
454.06	1820.64
454.26	1726.44
454.47	1710.05
454.67	1839.08
454.87	1820.64
455.08	1740.77
455.28	1773.54
455.49	1806.31
455.69	1755.11
455.89	1886.18
456.10	1830.88
456.30	1761.25
456.51	1761.25
456.71	1771.49
456.91	1773.54
457.12	1720.29
457.32	1720.29
457.52	1675.24
457.73	1787.88
457.93	1720.29
458.14	1736.68
458.34	1673.19
458.54	1759.21
458.75	1693.67
458.95	1877.99
459.15	1794.02
459.36	1808.36
459.56	1855.46
459.76	1869.80
459.97	1783.78
460.17	1746.92
460.37	1769.44
460.58	1705.96
460.78	1746.92
460.99	1818.60
461.19	1730.53
461.39	1685.48
461.60	1628.14
461.80	1728.49
462.00	1636.33
462.21	1724.39
462.41	1724.39
462.61	1671.14
462.82	1652.71
463.02	1767.40
463.22	1724.39
463.43	1828.84
463.63	1650.66
463.83	1718.25
464.04	1857.51
464.24	1675.24
464.44	1685.48
464.64	1775.59
464.85	1783.78
465.05	1779.68
465.25	1777.64
465.46	1644.52
465.66	1751.01
465.86	1783.78
466.07	1675.24
466.27	1667.05
466.47	1644.52
466.68	1656.81
466.88	1853.41
467.08	1765.35
467.29	1796.07
467.49	1687.53
467.69	1767.40
467.89	1757.16
468.10	1708.01
468.30	1789.92
468.50	1785.83
468.71	1810.40
468.91	1640.42
469.11	1843.17
469.31	1705.96
469.52	1669.09
469.72	1771.49
469.92	1882.08
470.13	1722.34
470.33	1697.77
470.53	1832.93
470.73	2080.74
470.94	2277.34
471.14	2361.31
471.34	2502.62
471.54	2346.97
471.75	2242.53
471.95	2187.23
472.15	2068.45
472.36	2060.26
472.56	2176.99
472.76	2066.40
472.96	1982.43
473.17	1929.19
473.37	1912.80
473.57	1796.07
473.77	1724.39
473.98	1716.20
474.18	1808.36
474.38	1918.95
474.58	1730.53
474.79	1648.61
474.99	1722.34
475.19	1802.21
475.39	1705.96
475.60	1755.11
475.80	1755.11
476.00	1724.39
476.20	1681.38
476.41	1693.67
476.61	1820.64
476.81	1767.40
477.01	1675.24
477.21	1933.28
477.42	1775.59
477.62	1603.56
477.82	1808.36
478.02	1693.67
478.23	1861.60
478.43	1669.09
478.63	1763.30
478.83	1765.35
479.03	1724.39
479.24	1824.74
479.44	1808.36
479.64	1617.90
479.84	1572.84
480.04	1701.86
480.25	1826.79
480.45	1708.01
480.65	1712.10
480.85	1839.08
481.06	1648.61
481.26	1849.32
481.46	1794.02
481.66	1841.12
481.86	1728.49
482.06	1771.49
482.27	1740.77
482.47	1734.63
482.67	1804.26
482.87	1720.29
483.07	1798.12
483.28	1689.57
483.48	1572.84
483.68	1699.81
483.88	1708.01
484.08	1646.57
484.29	1677.29
484.49	1656.81
484.69	1669.09
484.89	1777.64
485.09	1785.83
485.29	1779.68
485.50	1804.26
485.70	1769.44
485.90	1816.55
486.10	1765.35
486.30	1783.78
486.50	1783.78
486.71	1767.40
486.91	1808.36
487.11	1845.22
487.31	1710.05
487.51	1771.49
487.71	1683.43
487.91	1665.00
488.12	1677.29
488.32	1628.14
488.52	1662.95
488.72	1650.66
488.92	1708.01
489.12	1796.07
489.32	1724.39
489.53	1730.53
489.73	1636.33
489.93	1867.75
490.13	1720.29
490.33	1685.48
490.53	1652.71
490.73	1806.31
490.94	1660.90
491.14	1779.68
491.34	1914.85
491.54	2121.70
491.74	2584.54
491.94	2947.03
492.14	3057.62
492.34	3061.71
492.54	2815.96
492.75	2570.20
492.95	2447.32
493.15	2428.89
493.35	2236.38
493.55	2197.47
493.75	2136.03
493.95	2176.99
494.15	2002.91
494.35	1910.75
494.56	1855.46
494.76	1787.88
494.96	1863.65
495.16	1828.84
495.36	1777.64
495.56	1740.77
495.76	1654.76
495.96	1695.72
496.16	1708.01
496.36	1806.31
496.56	1728.49
496.77	1757.16
496.97	1759.21
497.17	1796.07
497.37	1636.33
497.57	1697.77
497.77	1738.73
497.97	1716.20
498.17	1681.38
498.37	1697.77
498.57	1882.08
498.77	1673.19
498.97	1769.44
499.17	1912.80
499.38	1677.29
499.58	1806.31
499.78	1828.84
499.98	1816.55
500.18	1673.19
500.38	1722.34
500.58	1918.95
500.78	2521.05
500.98	4562.87
501.18	5881.77
501.38	7008.15
501.58	7241.62
501.78	6815.64
501.98	5654.44
502.18	5056.43
502.38	4437.95
502.58	4149.18
502.78	3803.08
502.98	3690.44
503.18	3413.96
503.38	3362.76
503.59	2922.45
503.79	2615.26
503.99	2527.19
504.19	2303.96
504.39	2246.62
504.59	2207.71
504.79	2052.06
504.99	2017.25
505.19	1925.09
505.39	1914.85
505.59	1970.15
505.79	1949.67
505.99	1898.47
506.19	1787.88
506.39	1912.80
506.59	1767.40
506.79	1751.01
506.99	1886.18
507.19	1779.68
507.39	1767.40
507.59	1597.42
507.79	1777.64
507.99	1673.19
508.19	1683.43
508.39	1679.33
508.59	1728.49
508.79	1796.07
508.99	1867.75
509.19	1763.30
509.39	1802.21
509.59	1705.96
509.79	1714.15
509.99	1763.30
510.19	1820.64
510.39	1822.69
510.59	1783.78
510.79	1746.92
510.99	1677.29
511.19	1660.90
511.39	1757.16
511.59	1839.08
511.79	1751.01
511.99	1701.86
512.19	1841.12
512.38	1716.20
512.58	1675.24
512.78	1732.58
512.98	1798.12
513.18	1789.92
513.38	1681.38
513.58	1779.68
513.78	1730.53
513.98	1716.20
514.18	1783.78
514.38	1658.85
514.58	1818.60
514.78	1642.47
514.98	1691.62
515.18	1783.78
515.38	1644.52
515.58	1824.74
515.78	1718.25
515.98	1677.29
516.18	1746.92
516.38	1699.81
516.57	1632.23
516.77	1708.01
516.97	1755.11
517.17	1710.05
517.37	1656.81
517.57	1837.03
517.77	1738.73
517.97	1695.72
518.17	1761.25
518.37	1757.16
518.57	1685.48
518.77	1695.72
518.97	1718.25
519.16	1765.35
519.36	1853.41
519.56	1751.01
519.76	1783.78
519.96	1714.15
520.16	1845.22
520.36	1806.31
520.56	1843.17
520.76	1703.91
520.96	1660.90
521.16	1783.78
521.35	1771.49
521.55	1734.63
521.75	1675.24
521.95	1730.53
522.15	1656.81
522.35	1650.66
522.55	1660.90
522.75	1771.49
522.95	1773.54
523.14	1761.25
523.34	1730.53
523.54	1728.49
523.74	1849.32
523.94	1751.01
524.14	1644.52
524.34	1757.16
524.54	1785.83
524.73	1791.97
524.93	1732.58
525.13	1685.48
525.33	1615.85
525.53	1806.31
525.73	1675.24
525.93	1652.71
526.13	1740.77
526.32	1769.44
526.52	1855.46
526.72	1746.92
526.92	1771.49
527.12	1726.44
527.32	1660.90
527.52	1705.96
527.71	1798.12
527.91	1716.20
528.11	1685.48
528.31	1775.59
528.51	1759.21
528.71	1781.73
528.90	1732.58
529.10	1847.27
529.30	1779.68
529.50	1554.41
529.70	1732.58
529.90	1728.49
530.09	1755.11
530.29	1683.43
530.49	1671.14
530.69	1882.08
530.89	1728.49
531.09	1789.92
531.28	1722.34
531.48	1834.98
531.68	1761.25
531.88	1683.43
532.08	1810.40
532.28	1697.77
532.47	1769.44
532.67	1822.69
532.87	1734.63
533.07	1667.05
533.27	1701.86
533.46	1773.54
533.66	1757.16
533.86	1783.78
534.06	1728.49
534.26	1769.44
534.45	1726.44
534.65	1853.41
534.85	1771.49
535.05	1687.53
535.25	1775.59
535.44	1648.61
535.64	1759.21
535.84	1728.49
536.04	1699.81
536.24	1697.77
536.43	1652.71
536.63	1757.16
536.83	1755.11
537.03	1804.26
537.22	1638.38
537.42	1718.25
537.62	1789.92
537.82	1767.40
538.02	1755.11
538.21	1918.95
538.41	2002.91
538.61	1787.88
538.81	1740.77
539.00	1779.68
539.20	1689.57
539.40	1714.15
539.60	1890.28
539.79	1746.92
539.99	1763.30
540.19	1738.73
540.39	1724.39
540.58	1785.83
540.78	1781.73
540.98	1654.76
541.18	1800.16
541.37	1757.16
541.57	1783.78
541.77	1787.88
541.97	1699.81
542.16	1681.38
542.36	1660.90
542.56	1755.11
542.76	1871.84
542.95	1857.51
543.15	1718.25
543.35	1843.17
543.54	1771.49
543.74	1767.40
543.94	1865.70
544.14	1683.43
544.33	1824.74
544.53	1710.05
544.73	1734.63
544.93	1736.68
545.12	1691.62
545.32	1714.15
545.52	1720.29
545.71	1683.43
545.91	1748.97
546.11	1697.77
546.30	1697.77
546.50	1687.53
546.70	1746.92
546.90	1773.54
547.09	1665.00
547.29	1701.86
547.49	1781.73
547.68	1804.26
547.88	1695.72
548.08	1853.41
548.27	2107.36
548.47	1656.81
548.67	1730.53
548.87	1824.74
549.06	1808.36
549.26	1806.31
549.46	1716.20
549.65	1658.85
549.85	1736.68
550.05	1775.59
550.24	1595.37
550.44	1720.29
550.64	1712.10
550.83	1777.64
551.03	1822.69
551.23	1761.25
551.42	1812.45
551.62	1761.25
551.82	1716.20
552.01	1757.16
552.21	1810.40
552.41	1822.69
552.60	1882.08
552.80	1728.49
553.00	1769.44
553.19	1742.82
553.39	1779.68
553.59	1773.54
553.78	1773.54
553.98	1708.01
554.17	1662.95
554.37	1693.67
554.57	1826.79
554.76	1746.92
554.96	1689.57
555.16	1787.88
555.35	1757.16
555.55	1769.44
555.75	1742.82
555.94	1744.87
556.14	1636.33
556.33	1746.92
556.53	1734.63
556.73	1734.63
556.92	1728.49
557.12	1812.45
557.32	1839.08
557.51	1808.36
557.71	1783.78
557.90	1753.06
558.10	1855.46
558.30	1683.43
558.49	1724.39
558.69	1802.21
558.88	1738.73
559.08	1769.44
559.28	1720.29
559.47	1681.38
559.67	1783.78
559.86	1802.21
560.06	1681.38
560.26	1730.53
560.45	1736.68
560.65	1814.50
560.84	1847.27
561.04	1662.95
561.24	1744.87
561.43	1677.29
561.63	1890.28
561.82	1830.88
562.02	1812.45
562.22	1740.77
562.41	1773.54
562.61	1724.39
562.80	1673.19
563.00	1906.66
563.19	1775.59
563.39	1806.31
563.59	1751.01
563.78	1648.61
563.98	1611.75
564.17	1722.34
564.37	1728.49
564.56	1736.68
564.76	1693.67
564.96	1816.55
565.15	1740.77
565.35	1871.84
565.54	1806.31
565.74	1738.73
565.93	1699.81
566.13	1767.40
566.32	1779.68
566.52	1845.22
566.71	1730.53
566.91	1796.07
567.11	1718.25
567.30	1734.63
567.50	1740.77
567.69	1857.51
567.89	1718.25
568.08	1722.34
568.28	1638.38
568.47	1689.57
568.67	1744.87
568.86	1804.26
569.06	1800.16
569.25	1839.08
569.45	1648.61
569.64	1648.61
569.84	1714.15
570.04	1771.49
570.23	1755.11
570.43	1765.35
570.62	1746.92
570.82	1806.31
571.01	1718.25
571.21	1708.01
571.40	1689.57
571.60	1849.32
571.79	1771.49
571.99	1791.97
572.18	1685.48
572.38	1824.74
572.57	1755.11
572.77	1693.67
572.96	1900.52
573.16	1779.68
573.35	1699.81
573.55	1812.45
573.74	1777.64
573.94	1746.92
574.13	1705.96
574.33	1796.07
574.52	1746.92
574.71	1791.97
574.91	1781.73
575.10	1697.77
575.30	1734.63
575.49	1710.05
575.69	1746.92
575.88	1720.29
576.08	1732.58
576.27	1718.25
576.47	1742.82
576.66	1861.60
576.86	1708.01
577.05	1775.59
577.25	1822.69
577.44	1882.08
577.64	1722.34
577.83	1898.47
578.02	1728.49
578.22	1873.89
578.41	1810.40
578.61	1697.77
578.80	1710.05
579.00	1800.16
579.19	1724.39
579.39	1746.92
579.58	1832.93
579.77	1804.26
579.97	1849.32
580.16	1900.52
580.36	1882.08
580.55	1812.45
580.75	1728.49
580.94	1822.69
581.13	1818.60
581.33	1826.79
581.52	1691.62
581.72	1896.42
581.91	1892.32
582.11	1765.35
582.30	1808.36
582.49	1722.34
582.69	1808.36
582.88	1814.50
583.08	1796.07
583.27	1789.92
583.47	1810.40
583.66	1660.90
583.85	1693.67
584.05	1830.88
584.24	1773.54
584.44	1742.82
584.63	1818.60
584.82	1839.08
585.02	1822.69
585.21	1855.46
585.41	1853.41
585.60	1880.04
585.79	1957.86
585.99	1941.47
586.18	1941.47
586.37	2207.71
586.57	3352.52
586.76	9758.57
586.96	24860.29
587.15	35005.93
587.34	40967.57
587.54	42378.62
587.73	37029.32
587.93	26527.34
588.12	21823.16
588.31	18388.71
588.51	16389.89
588.70	15308.57
588.89	14380.84
589.09	12625.73
589.28	11355.99
589.47	9500.53
589.67	8075.14
589.86	6569.88
590.06	4954.04
590.25	4009.92
590.44	3045.33
590.64	2621.40
590.83	2318.30
591.02	2121.70
591.22	1900.52
591.41	1910.75
591.60	1773.54
591.80	1978.34
591.99	1834.98
592.18	1796.07
592.38	1847.27
592.57	1814.50
592.76	1765.35
592.96	1751.01
593.15	1814.50
593.34	1744.87
593.54	1767.40
593.73	1834.98
593.92	1714.15
594.12	1759.21
594.31	1800.16
594.50	1751.01
594.70	1841.12
594.89	1976.29
595.08	1673.19
595.28	1824.74
595.47	1908.71
595.66	1841.12
595.86	1693.67
596.05	1802.21
596.24	1783.78
596.43	1892.32
596.63	1832.93
596.82	1781.73
597.01	1783.78
597.21	1834.98
597.40	1781.73
597.59	1730.53
597.79	1726.44
597.98	1734.63
598.17	1738.73
598.36	1732.58
598.56	1796.07
598.75	1703.91
598.94	1753.06
599.14	1810.40
599.33	1753.06
599.52	1769.44
599.71	1789.92
599.91	1851.36
600.10	1783.78
600.29	1679.33
600.48	1830.88
600.68	1738.73
600.87	1796.07
601.06	1650.66
601.26	1802.21
601.45	1791.97
601.64	1787.88
601.83	1808.36
602.03	1789.92
602.22	1650.66
602.41	1734.63
602.60	1869.80
602.80	1818.60
602.99	1783.78
603.18	1697.77
603.37	1718.25
603.57	1759.21
603.76	1806.31
603.95	1798.12
604.14	1681.38
604.34	1697.77
604.53	1791.97
604.72	1689.57
604.91	1746.92
605.10	1765.35
605.30	1746.92
605.49	1863.65
605.68	1759.21
605.87	1806.31
606.07	1712.10
606.26	1673.19
606.45	1781.73
606.64	1724.39
606.84	1697.77
607.03	1726.44
607.22	1738.73
607.41	1677.29
607.60	1738.73
607.80	1763.30
607.99	1761.25
608.18	1681.38
608.37	1781.73
608.56	1832.93
608.76	1812.45
608.95	1796.07
609.14	1734.63
609.33	1681.38
609.52	1861.60
609.72	1751.01
609.91	1816.55
610.10	1751.01
610.29	1837.03
610.48	1796.07
610.68	1738.73
610.87	1712.10
611.06	1806.31
611.25	1798.12
611.44	1845.22
611.63	1724.39
611.83	1791.97
612.02	1583.08
612.21	1888.23
612.40	1617.90
612.59	1642.47
612.79	1660.90
612.98	1697.77
613.17	1839.08
613.36	1708.01
613.55	1816.55
613.74	1697.77
613.93	1687.53
614.13	1757.16
614.32	1736.68
614.51	1722.34
614.70	1697.77
614.89	1751.01
615.08	1759.21
615.28	2004.96
615.47	1558.50
615.66	1783.78
615.85	1716.20
616.04	1763.30
616.23	1734.63
616.42	1708.01
616.62	1769.44
616.81	1734.63
617.00	1648.61
617.19	1763.30
617.38	1736.68
617.57	1658.85
617.76	1818.60
617.95	1779.68
618.15	1773.54
618.34	1787.88
618.53	1652.71
618.72	1877.99
618.91	1787.88
619.10	1929.19
619.29	1703.91
619.48	1716.20
619.68	1699.81
619.87	1728.49
620.06	1677.29
620.25	1755.11
620.44	1710.05
620.63	1646.57
620.82	1630.18
621.01	1730.53
621.20	1675.24
621.39	1736.68
621.59	1789.92
621.78	1724.39
621.97	1642.47
622.16	1890.28
622.35	1699.81
622.54	1796.07
622.73	1802.21
622.92	1671.14
623.11	1777.64
623.30	1755.11
623.49	1712.10
623.68	1695.72
623.88	1810.40
624.07	1755.11
624.26	1816.55
624.45	1728.49
624.64	1722.34
624.83	1832.93
625.02	1767.40
625.21	1683.43
625.40	1746.92
625.59	1777.64
625.78	1730.53
625.97	1751.01
626.16	1851.36
626.35	1796.07
626.54	1644.52
626.74	1806.31
626.93	1638.38
627.12	1712.10
627.31	1722.34
627.50	1753.06
627.69	1794.02
627.88	1708.01
628.07	1724.39
628.26	1697.77
628.45	1656.81
628.64	1662.95
628.83	1689.57
629.02	1669.09
629.21	1679.33
629.40	1751.01
629.59	1636.33
629.78	1656.81
629.97	1689.57
630.16	1703.91
630.35	1710.05
630.54	1714.15
630.73	1701.86
630.92	1777.64
631.11	1714.15
631.30	1759.21
631.49	1757.16
631.68	1701.86
631.87	1732.58
632.06	1665.00
632.25	1886.18
632.44	1751.01
632.63	1742.82
632.82	1705.96
633.01	1734.63
633.20	1763.30
633.39	1656.81
633.58	1640.42
633.77	1673.19
633.96	1656.81
634.15	1757.16
634.34	1759.21
634.53	1675.24
634.72	1751.01
634.91	1615.85
635.10	1798.12
635.29	1677.29
635.48	1751.01
635.67	1673.19
635.86	1689.57
636.05	1812.45
636.24	1765.35
636.43	1791.97
636.62	1753.06
636.81	1658.85
637.00	1775.59
637.19	1728.49
637.38	1755.11
637.57	1697.77
637.76	1781.73
637.95	1716.20
638.14	1718.25
638.33	1720.29
638.52	1693.67
638.71	1714.15
638.89	1671.14
639.08	1937.38
639.27	1787.88
639.46	1697.77
639.65	1789.92
639.84	1697.77
640.03	1830.88
640.22	1673.19
640.41	1851.36
640.60	1681.38
640.79	1728.49
640.98	1667.05
641.17	1724.39
641.36	1662.95
641.55	1804.26
641.74	1699.81
641.92	1689.57
642.11	1646.57
642.30	1636.33
642.49	1687.53
642.68	1697.77
642.87	1781.73
643.06	1759.21
643.25	1722.34
643.44	1691.62
643.63	1722.34
643.82	1714.15
644.00	1689.57
644.19	1718.25
644.38	1667.05
644.57	1837.03
644.76	1701.86
644.95	1673.19
645.14	1800.16
645.33	1738.73
645.52	1689.57
645.71	1681.38
645.89	1652.71
646.08	1703.91
646.27	1677.29
646.46	1894.37
646.65	1617.90
646.84	1716.20
647.03	1638.38
647.22	1763.30
647.40	1675.24
647.59	1751.01
647.78	1597.42
647.97	1599.46
648.16	1611.75
648.35	1767.40
648.54	1796.07
648.73	1714.15
648.91	1732.58
649.10	1730.53
649.29	1654.76
649.48	1849.32
649.67	1794.02
649.86	1726.44
650.05	1660.90
650.23	1820.64
650.42	1681.38
650.61	1849.32
650.80	1714.15
650.99	1832.93
651.18	1828.84
651.36	1845.22
651.55	1679.33
651.74	1759.21
651.93	1748.97
652.12	1738.73
652.31	1755.11
652.49	1693.67
652.68	1673.19
652.87	1794.02
653.06	1832.93
653.25	1757.16
653.44	1701.86
653.62	1832.93
653.81	1757.16
654.00	1697.77
654.19	1818.60
654.38	1812.45
654.56	1728.49
654.75	1722.34
654.94	1808.36
655.13	1759.21
655.32	1746.92
655.51	1734.63
655.69	1667.05
655.88	1710.05
656.07	1685.48
656.26	1765.35
656.45	1613.80
656.63	1671.14
656.82	1757.16
657.01	1783.78
657.20	1718.25
657.38	1855.46
657.57	1716.20
657.76	1642.47
657.95	1751.01
658.14	1667.05
658.32	1757.16
658.51	1759.21
658.70	1693.67
658.89	1761.25
659.08	1740.77
659.26	1740.77
659.45	1685.48
659.64	1734.63
659.83	1716.20
660.01	1902.56
660.20	1738.73
660.39	1851.36
660.58	1654.76
660.76	1751.01
660.95	1634.28
661.14	1736.68
661.33	1617.90
661.51	1683.43
661.70	1804.26
661.89	1834.98
662.08	1710.05
662.26	1697.77
662.45	1726.44
662.64	1826.79
662.83	1787.88
663.01	1665.00
663.20	1769.44
663.39	1830.88
663.58	1691.62
663.76	1781.73
663.95	1740.77
664.14	1675.24
664.32	1624.04
664.51	1800.16
664.70	1677.29
664.89	1796.07
665.07	1650.66
665.26	1814.50
665.45	1691.62
665.64	1767.40
665.82	1781.73
666.01	1722.34
666.20	1806.31
666.38	1802.21
666.57	1845.22
666.76	2183.13
666.95	4470.72
667.13	10686.30
667.32	15398.68
667.51	18091.76
667.69	19201.76
667.88	18069.23
668.07	12390.21
668.25	9600.88
668.44	8271.75
668.63	7380.88
668.81	6948.76
669.00	6360.99
669.19	5754.79
669.38	5164.98
669.56	4614.07
669.75	4034.50
669.94	3495.88
670.12	2879.44
670.31	2623.45
670.50	2285.53
670.68	2021.35
670.87	1929.19
671.06	1830.88
671.24	1853.41
671.43	1849.32
671.62	1771.49
671.80	1716.20
671.99	1767.40
672.18	1701.86
672.36	1789.92
672.55	1703.91
672.74	1746.92
672.92	1701.86
673.11	1759.21
673.29	1699.81
673.48	1730.53
673.67	1769.44
673.85	1757.16
674.04	1705.96
674.23	1751.01
674.41	1779.68
674.60	1697.77
674.79	1603.56
674.97	1714.15
675.16	1759.21
675.34	1755.11
675.53	1669.09
675.72	1771.49
675.90	1755.11
676.09	1708.01
676.28	1783.78
676.46	1656.81
676.65	1824.74
676.83	1595.37
677.02	1722.34
677.21	1800.16
677.39	1720.29
677.58	1665.00
677.77	1603.56
677.95	1665.00
678.14	1685.48
678.32	1693.67
678.51	1665.00
678.70	1843.17
678.88	1777.64
679.07	1695.72
679.25	1769.44
679.44	1701.86
679.63	1650.66
679.81	1755.11
680.00	1808.36
680.18	1751.01
680.37	1787.88
680.55	1753.06
680.74	1693.67
680.93	1624.04
681.11	1755.11
681.30	1732.58
681.48	1703.91
681.67	1675.24
681.85	1705.96
682.04	1730.53
682.23	1785.83
682.41	1669.09
682.60	1603.56
682.78	1689.57
682.97	1691.62
683.15	1732.58
683.34	1740.77
683.53	1769.44
683.71	1697.77
683.90	1861.60
684.08	1888.23
684.27	1738.73
684.45	1751.01
684.64	1755.11
684.82	1705.96
685.01	1742.82
685.19	1726.44
685.38	1853.41
685.57	1693.67
685.75	1665.00
685.94	1705.96
686.12	1652.71
686.31	1615.85
686.49	1751.01
686.68	1654.76
686.86	1789.92
687.05	1683.43
687.23	1820.64
687.42	1699.81
687.60	1679.33
687.79	1763.30
687.97	1736.68
688.16	1783.78
688.34	1728.49
688.53	1669.09
688.71	1751.01
688.90	1710.05
689.08	1724.39
689.27	1562.60
689.45	1677.29
689.64	1701.86
689.82	1722.34
690.01	1769.44
690.19	1771.49
690.38	1708.01
690.56	1732.58
690.75	1720.29
690.93	1646.57
691.12	1665.00
691.30	1699.81
691.49	1609.70
691.67	1703.91
691.86	1806.31
692.04	1681.38
692.23	1740.77
692.41	1726.44
692.60	1757.16
692.78	1748.97
692.97	1712.10
693.15	1699.81
693.34	1834.98
693.52	1744.87
693.71	1726.44
693.89	1712.10
694.08	1632.23
694.26	1777.64
694.44	1871.84
694.63	1742.82
694.81	1615.85
695.00	1757.16
695.18	1738.73
695.37	1933.28
695.55	1683.43
695.74	1783.78
695.92	1677.29
696.10	1845.22
696.29	1615.85
696.47	1626.09
696.66	1644.52
696.84	1689.57
697.03	1708.01
697.21	1771.49
697.40	2312.16
697.58	1847.27
697.76	1681.38
697.95	1587.18
698.13	1691.62
698.32	1710.05
698.50	1650.66
698.68	1699.81
698.87	1726.44
699.05	1800.16
699.24	1669.09
699.42	1626.09
699.61	1740.77
699.79	1765.35
699.97	1757.16
700.16	1658.85
700.34	1587.18
700.53	1720.29
700.71	1787.88
700.89	1824.74
701.08	1693.67
701.26	1746.92
701.45	2084.83
701.63	1718.25
701.81	1775.59
702.00	1724.39
702.18	1718.25
702.37	1693.67
702.55	1794.02
702.73	1673.19
702.92	1699.81
703.10	1751.01
703.28	1683.43
703.47	1599.46
703.65	1822.69
703.84	1718.25
704.02	1710.05
704.20	1761.25
704.39	1703.91
704.57	1697.77
704.75	1740.77
704.94	1785.83
705.12	1730.53
705.30	1847.27
705.49	2220.00
705.67	4573.11
705.86	9418.61
706.04	12758.85
706.22	14540.58
706.41	15765.26
706.59	13922.09
706.77	9770.86
706.96	7348.11
707.14	6604.70
707.32	6059.94
707.51	5679.02
707.69	4943.80
707.87	4263.87
708.06	3575.75
708.24	2953.17
708.42	2514.91
708.61	2244.57
708.79	1957.86
708.97	1865.70
709.16	1796.07
709.34	1740.77
709.52	1849.32
709.71	1798.12
709.89	1712.10
710.07	1710.05
710.26	1607.66
710.44	1662.95
710.62	1748.97
710.80	1710.05
710.99	1843.17
711.17	1824.74
711.35	1648.61
711.54	1691.62
711.72	1781.73
711.90	1771.49
712.09	1726.44
712.27	1685.48
712.45	1810.40
712.63	1691.62
712.82	1781.73
713.00	1626.09
713.18	1697.77
713.37	1689.57
713.55	1787.88
713.73	1730.53
713.91	1757.16
714.10	1615.85
714.28	1755.11
714.46	1779.68
714.65	1755.11
714.83	1714.15
715.01	1695.72
715.19	1759.21
715.38	1722.34
715.56	1773.54
715.74	1710.05
715.92	1583.08
716.11	1779.68
716.29	1613.80
716.47	1705.96
716.65	1660.90
716.84	1695.72
717.02	1701.86
717.20	1626.09
717.38	1632.23
717.57	1759.21
717.75	1759.21
717.93	1658.85
718.11	1753.06
718.30	1646.57
718.48	1667.05
718.66	1781.73
718.84	1708.01
719.03	1634.28
719.21	1630.18
719.39	1841.12
719.57	1742.82
719.75	1802.21
719.94	1718.25
720.12	1712.10
720.30	1779.68
720.48	1734.63
720.67	1611.75
720.85	1734.63
721.03	1652.71
721.21	1658.85
721.39	1820.64
721.58	1660.90
721.76	1779.68
721.94	1720.29
722.12	1710.05
722.30	1777.64
722.49	1744.87
722.67	1740.77
722.85	1746.92
723.03	1636.33
723.21	1722.34
723.40	1699.81
723.58	1761.25
723.76	1712.10
723.94	1689.57
724.12	1732.58
724.30	1722.34
724.49	1775.59
724.67	1634.28
724.85	1779.68
725.03	1597.42
725.21	1785.83
725.40	1769.44
725.58	1652.71
725.76	1787.88
725.94	1724.39
726.12	1650.66
726.30	1705.96
726.49	1687.53
726.67	1650.66
726.85	1681.38
727.03	1748.97
727.21	2111.46
727.39	3016.66
727.57	3821.51
727.76	4212.67
727.94	4542.39
728.12	4413.37
728.30	3805.13
728.48	3024.85
728.66	2777.05
728.84	2459.61
729.03	2318.30
729.21	2211.81
729.39	1984.48
729.57	1863.65
729.75	1861.60
729.93	1820.64
730.11	1830.88
730.30	1658.85
730.48	1744.87
730.66	1808.36
730.84	1699.81
731.02	1724.39
731.20	1626.09
731.38	1689.57
731.56	1705.96
731.74	1732.58
731.93	1724.39
732.11	1730.53
732.29	1742.82
732.47	1761.25
732.65	1703.91
732.83	1863.65
733.01	1755.11
733.19	1691.62
733.37	1746.92
733.56	1755.11
733.74	1650.66
733.92	1800.16
734.10	1669.09
734.28	1681.38
734.46	1603.56
734.64	1691.62
734.82	1787.88
735.00	1693.67
735.18	1708.01
735.36	1685.48
735.54	1669.09
735.73	1761.25
735.91	1740.77
736.09	1785.83
736.27	1685.48
736.45	1701.86
736.63	1648.61
736.81	1669.09
736.99	1773.54
737.17	1751.01
737.35	1769.44
737.53	1681.38
737.71	1677.29
737.89	1767.40
738.07	1636.33
738.25	1652.71
738.43	1691.62
738.61	1703.91
738.80	1632.23
738.98	1712.10
739.16	1656.81
739.34	1662.95
739.52	1806.31
739.70	1785.83
739.88	1828.84
740.06	1771.49
740.24	1617.90
740.42	1736.68
740.60	1615.85
740.78	1689.57
740.96	1519.59
741.14	1673.19
741.32	1742.82
741.50	1646.57
741.68	1853.41
741.86	1843.17
742.04	1677.29
742.22	1687.53
742.40	1699.81
742.58	1775.59
742.76	1736.68
742.94	1718.25
743.12	1636.33
743.30	1773.54
743.48	1785.83
743.66	1640.42
743.84	1775.59
744.02	1734.63
744.20	1718.25
744.38	1605.61
744.56	1665.00
744.74	1710.05
744.92	1652.71
745.10	1818.60
745.28	1771.49
745.46	1884.13
745.64	1724.39
745.82	1755.11
746.00	1759.21
746.18	1759.21
746.36	1695.72
746.54	1765.35
746.72	1681.38
746.90	1710.05
747.08	1787.88
747.26	1728.49
747.44	1757.16
747.62	1718.25
747.80	1755.11
747.98	1693.67
748.15	1691.62
748.33	1808.36
748.51	1673.19
748.69	1759.21
748.87	1660.90
749.05	1765.35
749.23	1667.05
749.41	1755.11
749.59	1718.25
749.77	1763.30
749.95	1710.05
750.13	1646.57
750.31	1798.12
750.49	1628.14
750.67	1820.64
750.85	1751.01
751.03	1769.44
751.20	1789.92
751.38	1726.44
751.56	1708.01
751.74	1697.77
751.92	1687.53
752.10	1697.77
752.28	1759.21
752.46	1656.81
752.64	1783.78
752.82	1675.24
753.00	1832.93
753.18	1716.20
753.35	1697.77
753.53	1714.15
753.71	1724.39
753.89	1683.43
754.07	1710.05
754.25	1746.92
754.43	1796.07
754.61	1628.14
754.79	1687.53
754.97	1763.30
755.14	1843.17
755.32	1669.09
755.50	1699.81
755.68	1742.82
755.86	1738.73
756.04	1667.05
756.22	1595.37
756.40	1638.38
756.57	1849.32
756.75	1638.38
756.93	1826.79
757.11	1861.60
757.29	1660.90
757.47	1662.95
757.65	1595.37
757.82	1544.17
758.00	1660.90
758.18	1718.25
758.36	1656.81
758.54	1794.02
758.72	1679.33
758.90	1791.97
759.07	1685.48
759.25	1665.00
759.43	1708.01
759.61	1673.19
759.79	2228.19
759.97	1769.44
760.15	1640.42
760.32	1736.68
760.50	1753.06
760.68	1791.97
760.86	1662.95
761.04	1683.43
761.22	1740.77
761.39	1652.71
761.57	1710.05
761.75	1695.72
761.93	1734.63
762.11	1724.39
762.28	1679.33
762.46	1642.47
762.64	1708.01
762.82	1722.34
763.00	1718.25
763.18	1726.44
763.35	1638.38
763.53	1701.86
763.71	1773.54
763.89	1640.42
764.07	1726.44
764.24	1720.29
764.42	1775.59
764.60	1701.86
764.78	1734.63
764.96	1802.21
765.13	1794.02
765.31	1722.34
765.49	1724.39
765.67	1673.19
765.84	1701.86
766.02	1640.42
766.20	1574.89
766.38	1767.40
766.56	1796.07
766.73	1730.53
766.91	1683.43
767.09	1732.58
767.27	1708.01
767.44	1648.61
767.62	1730.53
767.80	1740.77
767.98	1660.90
768.15	1656.81
768.33	1810.40
768.51	1748.97
768.69	1720.29
768.87	1800.16
769.04	1726.44
769.22	1812.45
769.40	1798.12
769.58	1783.78
769.75	1730.53
769.93	1773.54
770.11	1701.86
770.28	1681.38
770.46	1791.97
770.64	1730.53
770.82	1693.67
770.99	1652.71
771.17	1712.10
771.35	1644.52
771.53	1652.71
771.70	1665.00
771.88	1673.19
772.06	1710.05
772.23	1724.39
772.41	1841.12
772.59	1701.86
772.77	1705.96
772.94	1734.63
773.12	1746.92
773.30	1591.27
773.47	1710.05
773.65	1640.42
773.83	1816.55
774.01	1679.33
774.18	1640.42
774.36	1646.57
774.54	1642.47
774.71	1736.68
774.89	1665.00
775.07	1685.48
775.24	1626.09
775.42	1691.62
775.60	1800.16
775.78	1611.75
775.95	1681.38
776.13	1570.79
776.31	1576.94
776.48	1767.40
776.66	1832.93
776.84	1748.97
777.01	1603.56
777.19	1658.85
777.37	1708.01
777.54	1746.92
777.72	1748.97
777.90	1720.29
778.07	1673.19
778.25	1888.23
778.43	1769.44
778.60	1615.85
778.78	1755.11
778.96	1810.40
779.13	1617.90
779.31	1703.91
779.49	1742.82
779.66	1718.25
779.84	1693.67
780.01	1728.49
780.19	1660.90
780.37	1791.97
780.54	1662.95
780.72	1662.95
780.90	1720.29
781.07	1677.29
781.25	1656.81
781.43	1761.25
781.60	1724.39
781.78	1765.35
781.95	1789.92
782.13	1699.81
782.31	1718.25
782.48	1615.85
782.66	1677.29
782.83	1783.78
783.01	1775.59
783.19	1755.11
783.36	1681.38
783.54	1652.71
783.72	1699.81
783.89	1662.95
784.07	1791.97
784.24	1744.87
784.42	1845.22
784.60	1722.34
784.77	1748.97
784.95	1626.09
785.12	1699.81
785.30	1660.90
785.47	1753.06
785.65	1626.09
785.83	1730.53
786.00	1710.05
786.18	1681.38
786.35	1691.62
786.53	1617.90
786.71	1726.44
786.88	1791.97
787.06	1654.76
787.23	1701.86
787.41	1646.57
787.58	1691.62
787.76	1613.80
787.94	1781.73
788.11	1621.99
788.29	1652.71
788.46	1665.00
788.64	1673.19
788.81	1654.76
788.99	1654.76
789.16	1634.28
789.34	1708.01
789.52	1701.86
789.69	1724.39
789.87	1607.66
790.04	1691.62
790.22	1708.01
790.39	1902.56
790.57	1630.18
790.74	1650.66
790.92	1800.16
791.09	1583.08
791.27	1708.01
791.44	1802.21
791.62	1746.92
791.79	1744.87
791.97	1656.81
792.15	1877.99
792.32	1783.78
792.50	1705.96
792.67	1787.88
792.85	1751.01
793.02	1751.01
793.20	1689.57
793.37	1640.42
793.55	1740.77
793.72	1626.09
793.90	1716.20
794.07	1675.24
794.25	1656.81
794.42	1759.21
794.60	1665.00
794.77	1773.54
794.95	1769.44
795.12	1726.44
795.30	1599.46
795.47	1644.52
795.65	1892.32
795.82	1728.49
796.00	1648.61
796.17	1763.30
796.34	1619.94
796.52	1675.24
796.69	1824.74
796.87	1767.40
797.04	1658.85
797.22	1736.68
797.39	1728.49
797.57	1722.34
797.74	1677.29
797.92	1714.15
798.09	1708.01
798.27	1753.06
798.44	1763.30
798.62	1699.81
798.79	1798.12
798.96	1734.63
799.14	1693.67
799.31	1855.46
799.49	1734.63
799.66	1775.59
799.84	1677.29
800.01	1595.37
800.19	1685.48
800.36	1654.76
800.53	1710.05
800.71	1703.91
800.88	1804.26
801.06	1746.92
801.23	1615.85
801.41	1691.62
801.58	1712.10
801.75	1685.48
801.93	1753.06
802.10	1712.10
802.28	1671.14
802.45	1656.81
802.63	1800.16
802.80	1796.07
802.97	1732.58
803.15	1755.11
803.32	1757.16
803.50	1689.57
803.67	1624.04
803.84	1665.00
804.02	1722.34
804.19	1716.20
804.37	1611.75
804.54	1650.66
804.71	1687.53
804.89	1740.77
805.06	1626.09
805.24	1630.18
805.41	1683.43
805.58	1691.62
805.76	1740.77
805.93	1763.30
806.10	1714.15
806.28	1773.54
806.45	1609.70
806.63	1703.91
806.80	1720.29
806.97	1769.44
807.15	1714.15
807.32	1683.43
807.49	1730.53
807.67	1679.33
807.84	1710.05
808.01	1638.38
808.19	1785.83
808.36	1814.50
808.54	1677.29
808.71	1660.90
808.88	1722.34
809.06	1703.91
809.23	1857.51
809.40	1675.24
809.58	1751.01
809.75	1652.71
809.92	1613.80
810.10	1789.92
810.27	1748.97
810.44	1716.20
810.62	1744.87
810.79	1685.48
810.96	1681.38
811.14	1683.43
811.31	1761.25
811.48	1720.29
811.66	1761.25
811.83	1765.35
812.00	1822.69
812.18	1734.63
812.35	1822.69
812.52	1720.29
812.69	1652.71
812.87	1712.10
813.04	1603.56
813.21	1677.29
813.39	1683.43
813.56	1650.66
813.73	1810.40
813.91	1597.42
814.08	1718.25
814.25	1732.58
814.42	1683.43
814.60	1683.43
814.77	1748.97
814.94	1667.05
815.12	1746.92
815.29	1755.11
815.46	1759.21
815.63	1746.92
815.81	1640.42
815.98	1730.53
816.15	1685.48
816.33	1650.66
816.50	1705.96
816.67	1744.87
816.84	1689.57
817.02	1636.33
817.19	1685.48
817.36	1732.58
817.53	1802.21
817.71	1699.81
817.88	1744.87
818.05	1705.96
818.22	1703.91
818.40	1832.93
818.57	1722.34
818.74	1648.61
818.91	1679.33
819.09	1773.54
819.26	1769.44
819.43	1640.42
819.60	1673.19
819.78	1765.35
819.95	1798.12
820.12	1687.53
820.29	1789.92
820.47	1728.49
820.64	1593.32
820.81	1646.57
820.98	1665.00
821.15	1689.57
821.33	1738.73
821.50	1628.14
821.67	1769.44
821.84	1687.53
822.02	1746.92
822.19	1652.71
822.36	1689.57
822.53	1654.76
822.70	1687.53
822.88	1652.71
823.05	1839.08
823.22	1648.61
823.39	1722.34
823.56	1796.07
823.74	1759.21
823.91	1638.38
824.08	1677.29
824.25	1665.00
824.42	1798.12
824.60	1568.74
824.77	1726.44
824.94	1687.53
825.11	1763.30
825.28	1615.85
825.45	1718.25
825.63	1673.19
825.80	1673.19
825.97	1781.73
826.14	1691.62
826.31	1611.75
826.48	1748.97
826.66	1683.43
826.83	1783.78
827.00	1710.05
827.17	1697.77
827.34	1693.67
827.51	1669.09
827.69	1712.10
827.86	1617.90
828.03	1728.49
828.20	1685.48
828.37	1632.23
828.54	1789.92
828.71	1656.81
828.89	1886.18
829.06	1660.90
829.23	1708.01
829.40	1697.77
829.57	1724.39
829.74	1677.29
829.91	1726.44
830.09	1689.57
830.26	1683.43
830.43	1794.02
830.60	1652.71
830.77	1740.77
830.94	1755.11
831.11	1767.40
831.28	1720.29
831.46	1683.43
831.63	1712.10
831.80	1728.49
831.97	1765.35
832.14	1734.63
832.31	1732.58
832.48	1726.44
832.65	1748.97
832.82	1728.49
832.99	1681.38
833.17	1675.24
833.34	1806.31
833.51	1740.77
833.68	1624.04
833.85	1769.44
834.02	1642.47
834.19	1683.43
834.36	1703.91
834.53	1732.58
834.70	1751.01
834.87	1738.73
835.04	1712.10
835.22	1640.42
835.39	1705.96
835.56	1630.18
835.73	1708.01
835.90	1734.63
836.07	1681.38
836.24	1765.35
836.41	1640.42
836.58	1648.61
836.75	1714.15
836.92	1742.82
837.09	1658.85
837.26	1804.26
837.43	1769.44
837.60	1697.77
837.77	1673.19
837.94	1734.63
838.12	1759.21
838.29	1718.25
838.46	1642.47
838.63	1609.70
838.80	1787.88
838.97	1746.92
839.14	1744.87
839.31	1693.67
839.48	1681.38
839.65	1759.21
839.82	1716.20
839.99	1681.38
840.16	1701.86
840.33	1617.90
840.50	1755.11
840.67	1681.38
840.84	1552.36
841.01	1736.68
841.18	1761.25
841.35	1677.29
841.52	1763.30
841.69	1810.40
841.86	1759.21
842.03	1689.57
842.20	1755.11
842.37	1650.66
842.54	1724.39
842.71	1767.40
842.88	1673.19
843.05	1734.63
843.22	1681.38
843.39	1732.58
843.56	1644.52
843.73	1646.57
843.90	1656.81
844.07	1744.87
844.24	1751.01
844.41	1740.77
844.58	1689.57
844.75	1660.90
844.92	1804.26
845.09	1656.81
845.26	1617.90
845.43	1751.01
845.60	1605.61
845.77	1751.01
845.94	1738.73
846.10	1716.20
846.27	1675.24
846.44	1699.81
846.61	1693.67
846.78	1662.95
846.95	1712.10
847.12	1673.19
847.29	1656.81
847.46	1728.49
847.63	1744.87
847.80	1734.63
847.97	1720.29
848.14	1804.26
848.31	1738.73
848.48	1624.04
848.65	1826.79
848.82	1701.86
848.98	1861.60
849.15	1720.29
849.32	1697.77
849.49	1755.11
849.66	1734.63
849.83	1699.81
850.00	1595.37
850.17	1697.77
850.34	1675.24
850.51	1685.48
850.68	1632.23
850.85	1798.12
851.01	1724.39
851.18	1718.25
851.35	1720.29
851.52	1763.30
851.69	1785.83
851.86	1605.61
852.03	1736.68
852.20	1730.53
852.37	1665.00
852.53	1615.85
852.70	1703.91
852.87	1789.92
853.04	1787.88
853.21	1740.77
853.38	1708.01
853.55	1697.77
853.72	1787.88
853.89	1691.62
854.05	1675.24
854.22	1714.15
854.39	1658.85
854.56	1708.01
854.73	1728.49
854.90	1683.43
855.07	1695.72
855.23	1710.05
855.40	1652.71
855.57	1705.96
855.74	1568.74
855.91	1812.45
856.08	1583.08
856.25	1652.71
856.41	1669.09
856.58	1695.72
856.75	1677.29
856.92	1675.24
857.09	1783.78
857.26	1630.18
857.42	1675.24
857.59	1757.16
857.76	1714.15
857.93	1753.06
858.10	1740.77
858.27	1613.80
858.43	1673.19
858.60	1722.34
858.77	1593.32
858.94	1740.77
859.11	1746.92
859.27	1726.44
859.44	1667.05
859.61	1824.74
859.78	1755.11
859.95	1718.25
860.12	1607.66
860.28	1808.36
860.45	1834.98
860.62	1736.68
860.79	1720.29
860.95	1687.53
861.12	1662.95
861.29	1665.00
861.46	1771.49
861.63	1675.24
861.79	1734.63
861.96	1613.80
862.13	1613.80
862.30	1818.60
862.47	1656.81
862.63	1716.20
862.80	1763.30
862.97	1783.78
863.14	1730.53
863.30	1759.21
863.47	1687.53
863.64	1730.53
863.81	1689.57
863.97	1714.15
864.14	1660.90
864.31	1669.09
864.48	1779.68
864.65	1714.15
864.81	1734.63
864.98	1718.25
865.15	1675.24
865.32	1732.58
865.48	1753.06
865.65	1742.82
865.82	1691.62
865.98	1822.69
866.15	1777.64
866.32	1718.25
866.49	1675.24
866.65	1837.03
866.82	1718.25
866.99	1699.81
867.16	1689.57
867.32	1722.34
867.49	1648.61
867.66	1689.57
867.83	1687.53
867.99	1703.91
868.16	1724.39
868.33	1648.61
868.49	1794.02
868.66	1724.39
868.83	1724.39
868.99	1781.73
869.16	1701.86
869.33	1738.73
869.50	1800.16
869.66	1671.14
869.83	1726.44
870.00	1624.04
870.16	1789.92
870.33	1695.72
870.50	1748.97
870.66	1755.11
870.83	1806.31
871.00	1705.96
871.17	1683.43
871.33	1734.63
871.50	1701.86
871.67	1671.14
871.83	1673.19
872.00	1751.01
872.17	1681.38
872.33	1794.02
872.50	1791.97
872.67	1632.23
872.83	1740.77
873.00	1632.23
873.17	1687.53
873.33	1767.40
873.50	1751.01
873.67	1591.27
873.83	1689.57
874.00	1730.53
874.16	1757.16
874.33	1779.68
874.50	1679.33
874.66	1789.92
874.83	1648.61
875.00	1796.07
875.16	1763.30
875.33	1734.63
875.50	1632.23
875.66	1685.48
875.83	1761.25
875.99	1763.30
876.16	1714.15
876.33	1560.55
876.49	1677.29
876.66	1779.68
876.83	1740.77
876.99	1671.14
877.16	1722.34
877.32	1781.73
877.49	1714.15
877.66	1712.10
877.82	1767.40
877.99	1708.01
878.15	1732.58
878.32	1734.63
878.49	1701.86
878.65	1734.63
878.82	1724.39
878.98	1679.33
879.15	1765.35
879.32	1703.91
879.48	1722.34
879.65	1720.29
879.81	1705.96
879.98	1658.85
880.15	1675.24
880.31	1769.44
880.48	1708.01
880.64	1769.44
880.81	1732.58
880.97	1763.30
881.14	1746.92
881.31	1705.96
881.47	1818.60
881.64	1732.58
881.80	1581.03
881.97	1669.09
882.13	1744.87
882.30	1644.52
882.47	1714.15
882.63	1675.24
882.80	1630.18
882.96	1628.14
883.13	1787.88
883.29	1652.71
883.46	1757.16
883.62	1816.55
883.79	1763.30
883.95	1740.77
884.12	1730.53
884.29	1710.05
884.45	1681.38
884.62	1673.19
884.78	1615.85
884.95	1765.35
885.11	1648.61
885.28	1769.44
885.44	1691.62
885.61	1712.10
885.77	1773.54
885.94	1755.11
886.10	1673.19
886.27	1689.57
886.43	1796.07
886.60	1763.30
886.76	1683.43
886.93	1669.09
887.09	1785.83
887.26	1624.04
887.42	1720.29
887.59	1755.11
887.75	1802.21
887.92	1808.36
888.08	1726.44
888.25	1781.73
888.41	1736.68
888.58	1755.11
888.74	1599.46
888.91	1656.81
>>>>>End Processed Spectral Data<<<<<
