SpectraSuite Data File
++++++++++++++++++++++++++++++++++++
Date: Mon Jun 06 13:30:37 CEST 2016
User: root
Dark Spectrum Present: No
Reference Spectrum Present: No
Number of Sampled Component Spectra: 1
Spectrometers: USB4C02835
Integration Time (usec): 100000 (USB4C02835)
Spectra Averaged: 1 (USB4C02835)
Boxcar Smoothing: 0 (USB4C02835)
Correct for Electrical Dark: No (USB4C02835)
Strobe/Lamp Enabled: No (USB4C02835)
Correct for Detector Non-linearity: No (USB4C02835)
Correct for Stray Light: No (USB4C02835)
Number of Pixels in Processed Spectrum: 3648
>>>>>Begin Processed Spectral Data<<<<<
177.47	1421.29
177.69	1421.29
177.91	1421.29
178.13	1454.06
178.36	1478.63
178.58	1634.28
178.80	1677.29
179.02	1607.66
179.24	1658.85
179.46	1703.91
179.68	1726.44
179.90	1757.16
180.13	1628.14
180.35	1597.42
180.57	1687.53
180.79	1767.40
181.01	1712.10
181.23	1656.81
181.45	1820.64
181.67	1660.90
181.90	1710.05
182.12	1652.71
182.34	1626.09
182.56	1769.44
182.78	1734.63
183.00	1728.49
183.22	1703.91
183.44	1613.80
183.66	1910.75
183.89	1763.30
184.11	1693.67
184.33	1740.77
184.55	1718.25
184.77	1683.43
184.99	1779.68
185.21	1624.04
185.43	1818.60
185.65	1652.71
185.87	1654.76
186.10	1865.70
186.32	1869.80
186.54	1691.62
186.76	1705.96
186.98	1794.02
187.20	1742.82
187.42	1667.05
187.64	1671.14
187.86	1810.40
188.08	1765.35
188.30	1679.33
188.52	1705.96
188.75	1748.97
188.97	1763.30
189.19	1640.42
189.41	1695.72
189.63	1705.96
189.85	1714.15
190.07	1628.14
190.29	1583.08
190.51	1771.49
190.73	1636.33
190.95	1808.36
191.17	1636.33
191.39	1564.65
191.61	1724.39
191.84	1746.92
192.06	1783.78
192.28	1650.66
192.50	1867.75
192.72	1712.10
192.94	1632.23
193.16	1796.07
193.38	1681.38
193.60	1687.53
193.82	1732.58
194.04	1740.77
194.26	1732.58
194.48	1699.81
194.70	1671.14
194.92	1693.67
195.14	1744.87
195.36	1718.25
195.58	1681.38
195.80	1712.10
196.02	1677.29
196.24	1671.14
196.46	1755.11
196.69	1708.01
196.91	1781.73
197.13	1662.95
197.35	1595.37
197.57	1746.92
197.79	1716.20
198.01	1607.66
198.23	1734.63
198.45	1714.15
198.67	1630.18
198.89	1722.34
199.11	1740.77
199.33	1669.09
199.55	1583.08
199.77	1701.86
199.99	1701.86
200.21	1665.00
200.43	1763.30
200.65	1667.05
200.87	1554.41
201.09	1710.05
201.31	1603.56
201.53	1771.49
201.75	1724.39
201.97	1699.81
202.19	1695.72
202.41	1767.40
202.63	1832.93
202.85	1746.92
203.07	1775.59
203.29	1658.85
203.51	1687.53
203.73	1652.71
203.95	1906.66
204.17	1728.49
204.39	1714.15
204.61	1658.85
204.83	1630.18
205.05	1748.97
205.27	1746.92
205.49	1744.87
205.71	1785.83
205.93	1576.94
206.15	1677.29
206.37	1685.48
206.59	1693.67
206.81	1615.85
207.03	1607.66
207.25	1609.70
207.47	1675.24
207.69	1724.39
207.91	1810.40
208.13	1767.40
208.34	1617.90
208.56	1757.16
208.78	1683.43
209.00	1681.38
209.22	1693.67
209.44	1744.87
209.66	1648.61
209.88	1722.34
210.10	1605.61
210.32	1591.27
210.54	1763.30
210.76	1628.14
210.98	1773.54
211.20	1587.18
211.42	1716.20
211.64	1761.25
211.86	1744.87
212.08	1753.06
212.30	1714.15
212.52	1660.90
212.74	1652.71
212.96	1785.83
213.17	1738.73
213.39	1738.73
213.61	1830.88
213.83	1640.42
214.05	1689.57
214.27	1800.16
214.49	1662.95
214.71	1640.42
214.93	1798.12
215.15	1744.87
215.37	1751.01
215.59	1533.93
215.81	1769.44
216.03	1714.15
216.24	1665.00
216.46	1732.58
216.68	1716.20
216.90	1679.33
217.12	1851.36
217.34	1746.92
217.56	1730.53
217.78	1773.54
218.00	1826.79
218.22	1636.33
218.44	1753.06
218.66	1757.16
218.87	1757.16
219.09	1720.29
219.31	1730.53
219.53	1724.39
219.75	1605.61
219.97	1677.29
220.19	1738.73
220.41	1708.01
220.63	1722.34
220.85	1660.90
221.06	1583.08
221.28	1759.21
221.50	1642.47
221.72	1724.39
221.94	1697.77
222.16	1689.57
222.38	1742.82
222.60	1763.30
222.82	1773.54
223.03	1720.29
223.25	1587.18
223.47	1710.05
223.69	1794.02
223.91	1771.49
224.13	1757.16
224.35	1640.42
224.57	1753.06
224.78	1658.85
225.00	1667.05
225.22	1595.37
225.44	1724.39
225.66	1701.86
225.88	1626.09
226.10	1722.34
226.32	1673.19
226.53	1849.32
226.75	1597.42
226.97	1697.77
227.19	1738.73
227.41	1705.96
227.63	1650.66
227.85	1632.23
228.06	1701.86
228.28	1781.73
228.50	1755.11
228.72	1662.95
228.94	1679.33
229.16	1613.80
229.37	1679.33
229.59	1665.00
229.81	1771.49
230.03	1648.61
230.25	1564.65
230.47	1652.71
230.69	1619.94
230.90	1763.30
231.12	1642.47
231.34	1638.38
231.56	1755.11
231.78	1644.52
232.00	1650.66
232.21	1722.34
232.43	1617.90
232.65	1581.03
232.87	1703.91
233.09	1656.81
233.30	1740.77
233.52	1714.15
233.74	1699.81
233.96	1714.15
234.18	1689.57
234.40	1634.28
234.61	1855.46
234.83	1648.61
235.05	1548.26
235.27	1841.12
235.49	1775.59
235.70	1714.15
235.92	1755.11
236.14	1613.80
236.36	1796.07
236.58	1650.66
236.79	1742.82
237.01	1714.15
237.23	1652.71
237.45	1771.49
237.67	1644.52
237.88	1740.77
238.10	1789.92
238.32	1574.89
238.54	1619.94
238.76	1669.09
238.97	1642.47
239.19	1662.95
239.41	1742.82
239.63	1687.53
239.85	1640.42
240.06	1685.48
240.28	1652.71
240.50	1806.31
240.72	1755.11
240.93	1626.09
241.15	1740.77
241.37	1718.25
241.59	1710.05
241.81	1710.05
242.02	1705.96
242.24	1722.34
242.46	1701.86
242.68	1630.18
242.89	1783.78
243.11	1718.25
243.33	1714.15
243.55	1705.96
243.76	1714.15
243.98	1626.09
244.20	1738.73
244.42	1621.99
244.64	1699.81
244.85	1632.23
245.07	1677.29
245.29	1744.87
245.51	1593.32
245.72	1779.68
245.94	1851.36
246.16	1648.61
246.38	1705.96
246.59	1726.44
246.81	1652.71
247.03	1658.85
247.24	1615.85
247.46	1681.38
247.68	1691.62
247.90	1759.21
248.11	1691.62
248.33	1708.01
248.55	1738.73
248.77	1724.39
248.98	1742.82
249.20	1806.31
249.42	1611.75
249.64	1748.97
249.85	1730.53
250.07	1658.85
250.29	1714.15
250.50	1761.25
250.72	1705.96
250.94	1660.90
251.16	1771.49
251.37	1818.60
251.59	1765.35
251.81	1732.58
252.02	1748.97
252.24	1654.76
252.46	1720.29
252.68	1673.19
252.89	1656.81
253.11	1650.66
253.33	1726.44
253.54	1757.16
253.76	1626.09
253.98	1587.18
254.20	1665.00
254.41	1726.44
254.63	1679.33
254.85	1644.52
255.06	1703.91
255.28	1771.49
255.50	1677.29
255.71	1626.09
255.93	1636.33
256.15	1636.33
256.36	1726.44
256.58	1662.95
256.80	1710.05
257.02	1673.19
257.23	1636.33
257.45	1669.09
257.67	1785.83
257.88	1660.90
258.10	1699.81
258.32	1648.61
258.53	1771.49
258.75	1816.55
258.97	1722.34
259.18	1685.48
259.40	1665.00
259.62	1824.74
259.83	1761.25
260.05	1660.90
260.27	2004.96
260.48	1783.78
260.70	1609.70
260.92	1650.66
261.13	1628.14
261.35	1726.44
261.57	1732.58
261.78	1697.77
262.00	1705.96
262.22	1710.05
262.43	1607.66
262.65	1630.18
262.86	1699.81
263.08	1814.50
263.30	1714.15
263.51	1599.46
263.73	1689.57
263.95	1882.08
264.16	1656.81
264.38	1640.42
264.60	1716.20
264.81	1708.01
265.03	1753.06
265.25	1671.14
265.46	1746.92
265.68	1834.98
265.89	1710.05
266.11	1617.90
266.33	1820.64
266.54	1738.73
266.76	1732.58
266.98	1710.05
267.19	1767.40
267.41	1789.92
267.62	1683.43
267.84	1644.52
268.06	1779.68
268.27	1701.86
268.49	1767.40
268.70	1798.12
268.92	1751.01
269.14	1665.00
269.35	1613.80
269.57	1697.77
269.79	1691.62
270.00	1675.24
270.22	1802.21
270.43	1669.09
270.65	1701.86
270.87	1624.04
271.08	1732.58
271.30	1742.82
271.51	1757.16
271.73	1724.39
271.95	1771.49
272.16	1753.06
272.38	1724.39
272.59	1632.23
272.81	1841.12
273.02	1736.68
273.24	1710.05
273.46	1742.82
273.67	1697.77
273.89	1607.66
274.10	1642.47
274.32	1683.43
274.54	1761.25
274.75	1720.29
274.97	1638.38
275.18	1761.25
275.40	1705.96
275.61	1759.21
275.83	1771.49
276.05	1691.62
276.26	1691.62
276.48	1759.21
276.69	1650.66
276.91	1685.48
277.12	1720.29
277.34	1755.11
277.55	1761.25
277.77	1662.95
277.99	1671.14
278.20	1626.09
278.42	1611.75
278.63	1642.47
278.85	1681.38
279.06	1640.42
279.28	1687.53
279.49	1738.73
279.71	1738.73
279.93	1738.73
280.14	1665.00
280.36	1679.33
280.57	1789.92
280.79	1732.58
281.00	1648.61
281.22	1681.38
281.43	1789.92
281.65	1572.84
281.86	1617.90
282.08	1736.68
282.29	1787.88
282.51	1656.81
282.73	1687.53
282.94	1646.57
283.16	1732.58
283.37	1789.92
283.59	1652.71
283.80	1714.15
284.02	1703.91
284.23	1785.83
284.45	1658.85
284.66	1695.72
284.88	1589.22
285.09	1763.30
285.31	1771.49
285.52	1753.06
285.74	1648.61
285.95	1691.62
286.17	1665.00
286.38	1820.64
286.60	1636.33
286.81	1677.29
287.03	1705.96
287.24	1671.14
287.46	1697.77
287.67	1755.11
287.89	1810.40
288.10	1679.33
288.32	1722.34
288.53	1822.69
288.75	1722.34
288.96	1710.05
289.18	1742.82
289.39	1632.23
289.61	1761.25
289.82	1791.97
290.04	1761.25
290.25	1613.80
290.47	1714.15
290.68	1685.48
290.90	1658.85
291.11	1667.05
291.33	1687.53
291.54	1609.70
291.76	1705.96
291.97	1744.87
292.18	1611.75
292.40	1681.38
292.61	1603.56
292.83	1808.36
293.04	1665.00
293.26	1753.06
293.47	1652.71
293.69	1632.23
293.90	1699.81
294.12	1781.73
294.33	1724.39
294.55	1654.76
294.76	1796.07
294.97	1701.86
295.19	1837.03
295.40	1642.47
295.62	1736.68
295.83	1759.21
296.05	1632.23
296.26	1789.92
296.48	1613.80
296.69	1726.44
296.90	1656.81
297.12	1726.44
297.33	1714.15
297.55	1714.15
297.76	1734.63
297.98	1710.05
298.19	1714.15
298.41	1705.96
298.62	1658.85
298.83	1701.86
299.05	1734.63
299.26	1656.81
299.48	1683.43
299.69	1751.01
299.90	1712.10
300.12	1640.42
300.33	1720.29
300.55	1640.42
300.76	1736.68
300.98	1665.00
301.19	1796.07
301.40	1619.94
301.62	1738.73
301.83	1728.49
302.05	1669.09
302.26	1748.97
302.47	1691.62
302.69	1724.39
302.90	1699.81
303.12	1636.33
303.33	1746.92
303.54	1820.64
303.76	1740.77
303.97	1771.49
304.19	1708.01
304.40	1673.19
304.61	1677.29
304.83	1820.64
305.04	1732.58
305.26	1849.32
305.47	1665.00
305.68	1722.34
305.90	1511.40
306.11	1734.63
306.33	1691.62
306.54	1658.85
306.75	1626.09
306.97	1609.70
307.18	1722.34
307.39	1726.44
307.61	1714.15
307.82	1634.28
308.04	1746.92
308.25	1656.81
308.46	1779.68
308.68	1695.72
308.89	1794.02
309.10	1708.01
309.32	1714.15
309.53	1644.52
309.74	1710.05
309.96	1654.76
310.17	1769.44
310.39	1800.16
310.60	1763.30
310.81	1599.46
311.03	1601.51
311.24	1691.62
311.45	1654.76
311.67	1828.84
311.88	1691.62
312.09	1722.34
312.31	1740.77
312.52	1716.20
312.73	1632.23
312.95	1628.14
313.16	1701.86
313.37	1824.74
313.59	1693.67
313.80	1748.97
314.01	1798.12
314.23	1650.66
314.44	1646.57
314.65	1654.76
314.87	1660.90
315.08	1734.63
315.29	1626.09
315.51	1624.04
315.72	1617.90
315.93	1798.12
316.15	1777.64
316.36	1724.39
316.57	1675.24
316.79	1714.15
317.00	1691.62
317.21	1701.86
317.43	1650.66
317.64	1683.43
317.85	1613.80
318.07	1691.62
318.28	1771.49
318.49	1773.54
318.70	1914.85
318.92	1869.80
319.13	1902.56
319.34	1855.46
319.56	1863.65
319.77	1822.69
319.98	1736.68
320.20	1800.16
320.41	1734.63
320.62	1759.21
320.83	1662.95
321.05	1855.46
321.26	1783.78
321.47	1708.01
321.69	1779.68
321.90	1720.29
322.11	1689.57
322.32	1697.77
322.54	1730.53
322.75	1648.61
322.96	1781.73
323.18	1662.95
323.39	1585.13
323.60	1656.81
323.81	1785.83
324.03	1681.38
324.24	1656.81
324.45	1718.25
324.66	1693.67
324.88	1800.16
325.09	1705.96
325.30	1734.63
325.52	1699.81
325.73	1730.53
325.94	1675.24
326.15	1654.76
326.37	1685.48
326.58	1791.97
326.79	1734.63
327.00	1648.61
327.22	1683.43
327.43	1656.81
327.64	1642.47
327.85	1701.86
328.07	1636.33
328.28	1794.02
328.49	1695.72
328.70	1703.91
328.92	1642.47
329.13	1753.06
329.34	1685.48
329.55	1816.55
329.76	1812.45
329.98	1728.49
330.19	1775.59
330.40	1773.54
330.61	1681.38
330.83	1748.97
331.04	1652.71
331.25	1644.52
331.46	1683.43
331.68	1632.23
331.89	1699.81
332.10	1757.16
332.31	1632.23
332.52	1728.49
332.74	1726.44
332.95	1603.56
333.16	1650.66
333.37	1738.73
333.58	1695.72
333.80	1636.33
334.01	1644.52
334.22	1646.57
334.43	1662.95
334.64	1677.29
334.86	1542.12
335.07	1609.70
335.28	1765.35
335.49	1611.75
335.70	1689.57
335.92	1779.68
336.13	1759.21
336.34	1699.81
336.55	1736.68
336.76	1789.92
336.98	1611.75
337.19	1695.72
337.40	1796.07
337.61	1845.22
337.82	1624.04
338.04	1703.91
338.25	1630.18
338.46	1708.01
338.67	1701.86
338.88	1642.47
339.09	1630.18
339.31	1628.14
339.52	1630.18
339.73	1585.13
339.94	1724.39
340.15	1787.88
340.36	1730.53
340.58	1609.70
340.79	1691.62
341.00	1720.29
341.21	1599.46
341.42	1726.44
341.63	1669.09
341.85	1765.35
342.06	1658.85
342.27	1695.72
342.48	1814.50
342.69	1593.32
342.90	1722.34
343.12	1726.44
343.33	1718.25
343.54	1751.01
343.75	1679.33
343.96	1755.11
344.17	1640.42
344.38	1763.30
344.60	1667.05
344.81	1662.95
345.02	1642.47
345.23	1720.29
345.44	1697.77
345.65	1742.82
345.86	1738.73
346.07	1748.97
346.29	1644.52
346.50	1683.43
346.71	1671.14
346.92	1748.97
347.13	1861.60
347.34	1746.92
347.55	1697.77
347.76	1755.11
347.98	1624.04
348.19	1617.90
348.40	1703.91
348.61	1609.70
348.82	1796.07
349.03	1806.31
349.24	1619.94
349.45	1763.30
349.66	1605.61
349.88	1695.72
350.09	1667.05
350.30	1783.78
350.51	1814.50
350.72	1765.35
350.93	1705.96
351.14	1595.37
351.35	1693.67
351.56	1722.34
351.77	1744.87
351.99	1748.97
352.20	1757.16
352.41	1800.16
352.62	1607.66
352.83	1673.19
353.04	1722.34
353.25	1681.38
353.46	1806.31
353.67	1740.77
353.88	1624.04
354.09	1691.62
354.30	1722.34
354.52	1720.29
354.73	1736.68
354.94	1634.28
355.15	1748.97
355.36	1812.45
355.57	1689.57
355.78	1796.07
355.99	1673.19
356.20	1689.57
356.41	1763.30
356.62	1699.81
356.83	1753.06
357.04	1794.02
357.25	1599.46
357.46	1624.04
357.68	1613.80
357.89	1665.00
358.10	1617.90
358.31	1710.05
358.52	1667.05
358.73	1634.28
358.94	1615.85
359.15	1662.95
359.36	1720.29
359.57	1683.43
359.78	1712.10
359.99	1701.86
360.20	1624.04
360.41	1710.05
360.62	1787.88
360.83	1761.25
361.04	1740.77
361.25	1701.86
361.46	1798.12
361.67	1716.20
361.88	1722.34
362.09	1763.30
362.30	1722.34
362.51	1701.86
362.72	1697.77
362.93	1773.54
363.14	1755.11
363.35	1751.01
363.56	1626.09
363.78	1742.82
363.99	1724.39
364.20	1640.42
364.41	1708.01
364.62	1810.40
364.83	1740.77
365.04	1697.77
365.25	1656.81
365.46	1841.12
365.67	1601.51
365.88	1632.23
366.09	1708.01
366.30	1650.66
366.51	1708.01
366.72	1693.67
366.93	1693.67
367.14	1665.00
367.35	1705.96
367.56	1716.20
367.77	1726.44
367.98	1632.23
368.18	1730.53
368.39	1722.34
368.60	1687.53
368.81	1732.58
369.02	1697.77
369.23	1665.00
369.44	1689.57
369.65	1642.47
369.86	1626.09
370.07	1708.01
370.28	1570.79
370.49	1789.92
370.70	1722.34
370.91	1626.09
371.12	1656.81
371.33	1660.90
371.54	1660.90
371.75	1789.92
371.96	1542.12
372.17	1658.85
372.38	1583.08
372.59	1736.68
372.80	1665.00
373.01	1687.53
373.22	1669.09
373.43	1724.39
373.64	1632.23
373.85	1742.82
374.06	1789.92
374.26	1804.26
374.47	1722.34
374.68	1783.78
374.89	1648.61
375.10	1634.28
375.31	1740.77
375.52	1710.05
375.73	1699.81
375.94	1650.66
376.15	1796.07
376.36	1746.92
376.57	1693.67
376.78	1652.71
376.99	1718.25
377.20	1773.54
377.40	1613.80
377.61	1787.88
377.82	1621.99
378.03	1759.21
378.24	1755.11
378.45	1626.09
378.66	1781.73
378.87	1638.38
379.08	1607.66
379.29	1722.34
379.50	1732.58
379.71	1626.09
379.91	1722.34
380.12	1695.72
380.33	1689.57
380.54	1679.33
380.75	1693.67
380.96	1628.14
381.17	1751.01
381.38	1724.39
381.59	1691.62
381.80	1642.47
382.00	1849.32
382.21	1691.62
382.42	1765.35
382.63	1849.32
382.84	1699.81
383.05	1746.92
383.26	1757.16
383.47	1787.88
383.68	1771.49
383.88	1740.77
384.09	1716.20
384.30	1822.69
384.51	1705.96
384.72	1548.26
384.93	1632.23
385.14	1617.90
385.35	1796.07
385.55	1656.81
385.76	1787.88
385.97	1689.57
386.18	1615.85
386.39	1675.24
386.60	1665.00
386.81	1644.52
387.02	1658.85
387.22	1640.42
387.43	1777.64
387.64	1775.59
387.85	1923.04
388.06	2205.66
388.27	4245.44
388.48	6698.91
388.68	7976.84
388.89	9445.23
389.10	9643.88
389.31	8650.62
389.52	7395.22
389.73	6678.43
389.93	6072.23
390.14	5762.98
390.35	5124.02
390.56	4585.40
390.77	3792.84
390.98	2938.84
391.18	2435.03
391.39	2107.36
391.60	1830.88
391.81	1832.93
392.02	1656.81
392.23	1779.68
392.43	1718.25
392.64	1742.82
392.85	1714.15
393.06	1730.53
393.27	1720.29
393.47	1714.15
393.68	1708.01
393.89	1763.30
394.10	1714.15
394.31	1699.81
394.52	1607.66
394.72	1683.43
394.93	1814.50
395.14	1566.70
395.35	1720.29
395.56	1644.52
395.76	1685.48
395.97	1787.88
396.18	1822.69
396.39	1800.16
396.60	2070.50
396.80	1886.18
397.01	1761.25
397.22	1830.88
397.43	1832.93
397.64	1640.42
397.84	1849.32
398.05	1804.26
398.26	1705.96
398.47	1732.58
398.67	1804.26
398.88	1763.30
399.09	1685.48
399.30	1687.53
399.51	1839.08
399.71	1681.38
399.92	1689.57
400.13	1671.14
400.34	1789.92
400.54	1679.33
400.75	1794.02
400.96	1683.43
401.17	1742.82
401.37	1697.77
401.58	1656.81
401.79	1722.34
402.00	1824.74
402.21	1947.62
402.41	1976.29
402.62	2013.15
402.83	2017.25
403.04	1959.91
403.24	2033.63
403.45	1851.36
403.66	1918.95
403.87	1857.51
404.07	1845.22
404.28	1980.39
404.49	1871.84
404.70	1812.45
404.90	1783.78
405.11	1775.59
405.32	1753.06
405.52	1714.15
405.73	1685.48
405.94	1591.27
406.15	1699.81
406.35	1755.11
406.56	1757.16
406.77	1730.53
406.98	1773.54
407.18	1609.70
407.39	1796.07
407.60	1734.63
407.80	1759.21
408.01	1632.23
408.22	1697.77
408.43	1644.52
408.63	1689.57
408.84	1658.85
409.05	1722.34
409.25	1708.01
409.46	1691.62
409.67	1716.20
409.88	1626.09
410.08	1683.43
410.29	1724.39
410.50	1767.40
410.70	1746.92
410.91	1621.99
411.12	1697.77
411.32	1726.44
411.53	1665.00
411.74	1755.11
411.95	1812.45
412.15	1718.25
412.36	1718.25
412.57	1742.82
412.77	1773.54
412.98	1753.06
413.19	1730.53
413.39	1699.81
413.60	1783.78
413.81	1771.49
414.01	1626.09
414.22	1757.16
414.43	1755.11
414.63	1658.85
414.84	1771.49
415.05	1728.49
415.25	1665.00
415.46	1665.00
415.67	1724.39
415.87	1755.11
416.08	1677.29
416.29	1683.43
416.49	1775.59
416.70	1632.23
416.91	1708.01
417.11	1712.10
417.32	1765.35
417.53	1759.21
417.73	1667.05
417.94	1736.68
418.15	1697.77
418.35	1718.25
418.56	1677.29
418.77	1783.78
418.97	1771.49
419.18	1685.48
419.38	1626.09
419.59	1662.95
419.80	1751.01
420.00	1667.05
420.21	1722.34
420.42	1728.49
420.62	1712.10
420.83	1669.09
421.04	1757.16
421.24	1675.24
421.45	1802.21
421.65	1685.48
421.86	1738.73
422.07	1718.25
422.27	1730.53
422.48	1728.49
422.69	1703.91
422.89	1744.87
423.10	1689.57
423.30	1624.04
423.51	1708.01
423.72	1746.92
423.92	1677.29
424.13	1671.14
424.33	1691.62
424.54	1748.97
424.75	1734.63
424.95	1873.89
425.16	1712.10
425.36	1652.71
425.57	1697.77
425.78	1759.21
425.98	1771.49
426.19	1685.48
426.39	1644.52
426.60	1748.97
426.81	1791.97
427.01	1695.72
427.22	1599.46
427.42	1634.28
427.63	1640.42
427.83	1728.49
428.04	1751.01
428.25	1859.56
428.45	1796.07
428.66	1755.11
428.86	1646.57
429.07	1726.44
429.28	1675.24
429.48	1730.53
429.69	1689.57
429.89	1712.10
430.10	1621.99
430.30	1699.81
430.51	1757.16
430.71	1697.77
430.92	1732.58
431.13	1714.15
431.33	1781.73
431.54	1775.59
431.74	1802.21
431.95	1837.03
432.15	1724.39
432.36	1763.30
432.56	1716.20
432.77	1794.02
432.98	1882.08
433.18	1773.54
433.39	1748.97
433.59	1599.46
433.80	1757.16
434.00	1841.12
434.21	1634.28
434.41	1658.85
434.62	1861.60
434.82	1673.19
435.03	1693.67
435.23	1742.82
435.44	1683.43
435.64	1734.63
435.85	1703.91
436.06	1691.62
436.26	1730.53
436.47	1669.09
436.67	1685.48
436.88	1738.73
437.08	1687.53
437.29	1787.88
437.49	1710.05
437.70	1755.11
437.90	1777.64
438.11	1861.60
438.31	1757.16
438.52	1839.08
438.72	1824.74
438.93	1898.47
439.13	1857.51
439.34	1820.64
439.54	1710.05
439.75	1736.68
439.95	1773.54
440.16	1679.33
440.36	1722.34
440.57	1705.96
440.77	1710.05
440.98	1681.38
441.18	1730.53
441.39	1736.68
441.59	1640.42
441.80	1787.88
442.00	1687.53
442.21	1785.83
442.41	1624.04
442.62	1742.82
442.82	1703.91
443.02	1761.25
443.23	1830.88
443.43	1705.96
443.64	1726.44
443.84	1669.09
444.05	1839.08
444.25	1710.05
444.46	1597.42
444.66	1775.59
444.87	1718.25
445.07	1746.92
445.28	1775.59
445.48	1775.59
445.69	1736.68
445.89	1810.40
446.09	1791.97
446.30	2017.25
446.50	2648.02
446.71	3590.09
446.91	4083.65
447.12	4540.35
447.32	4802.49
447.53	4245.44
447.73	3862.47
447.93	3413.96
448.14	3196.88
448.34	3190.74
448.55	2965.46
448.75	2916.31
448.96	2602.97
449.16	2351.07
449.36	2193.37
449.57	2062.30
449.77	1888.23
449.98	1779.68
450.18	1732.58
450.39	1748.97
450.59	1779.68
450.79	1695.72
451.00	1736.68
451.20	1796.07
451.41	1740.77
451.61	1730.53
451.81	1755.11
452.02	1748.97
452.22	1722.34
452.43	1701.86
452.63	1652.71
452.84	1738.73
453.04	1769.44
453.24	1775.59
453.45	1705.96
453.65	1785.83
453.86	1701.86
454.06	1691.62
454.26	1705.96
454.47	1630.18
454.67	1789.92
454.87	1722.34
455.08	1738.73
455.28	1851.36
455.49	1705.96
455.69	1767.40
455.89	1880.04
456.10	1755.11
456.30	1734.63
456.51	1798.12
456.71	1759.21
456.91	1822.69
457.12	1695.72
457.32	1777.64
457.52	1730.53
457.73	1773.54
457.93	1816.55
458.14	1679.33
458.34	1660.90
458.54	1736.68
458.75	1720.29
458.95	1763.30
459.15	1724.39
459.36	1712.10
459.56	1787.88
459.76	1810.40
459.97	1773.54
460.17	1779.68
460.37	1841.12
460.58	1740.77
460.78	1738.73
460.99	1775.59
461.19	1857.51
461.39	1673.19
461.60	1685.48
461.80	1744.87
462.00	1689.57
462.21	1689.57
462.41	1728.49
462.61	1648.61
462.82	1626.09
463.02	1800.16
463.22	1714.15
463.43	1765.35
463.63	1691.62
463.83	1832.93
464.04	1705.96
464.24	1714.15
464.44	1648.61
464.64	1757.16
464.85	1738.73
465.05	1726.44
465.25	1765.35
465.46	1652.71
465.66	1714.15
465.86	1777.64
466.07	1685.48
466.27	1726.44
466.47	1593.32
466.68	1650.66
466.88	1853.41
467.08	1748.97
467.29	1779.68
467.49	1708.01
467.69	1703.91
467.89	1759.21
468.10	1744.87
468.30	1722.34
468.50	1779.68
468.71	1732.58
468.91	1581.03
469.11	1834.98
469.31	1755.11
469.52	1628.14
469.72	1771.49
469.92	1863.65
470.13	1755.11
470.33	1697.77
470.53	1845.22
470.73	2127.84
470.94	2256.86
471.14	2326.49
471.34	2463.71
471.54	2439.13
471.75	2222.05
471.95	2056.16
472.15	2021.35
472.36	2047.97
472.56	2045.92
472.76	2037.73
472.96	2037.73
473.17	1941.47
473.37	1968.10
473.57	1826.79
473.77	1843.17
473.98	1683.43
474.18	1599.46
474.38	1861.60
474.58	1720.29
474.79	1742.82
474.99	1695.72
475.19	1712.10
475.39	1673.19
475.60	1689.57
475.80	1665.00
476.00	1689.57
476.20	1628.14
476.41	1736.68
476.61	1730.53
476.81	1771.49
477.01	1640.42
477.21	1763.30
477.42	1832.93
477.62	1730.53
477.82	1759.21
478.02	1701.86
478.23	1652.71
478.43	1658.85
478.63	1728.49
478.83	1689.57
479.03	1689.57
479.24	1834.98
479.44	1839.08
479.64	1738.73
479.84	1679.33
480.04	1640.42
480.25	1759.21
480.45	1642.47
480.65	1648.61
480.85	1779.68
481.06	1724.39
481.26	1775.59
481.46	1714.15
481.66	1697.77
481.86	1767.40
482.06	1802.21
482.27	1705.96
482.47	1652.71
482.67	1660.90
482.87	1732.58
483.07	1882.08
483.28	1667.05
483.48	1628.14
483.68	1644.52
483.88	1656.81
484.08	1613.80
484.29	1642.47
484.49	1708.01
484.69	1669.09
484.89	1779.68
485.09	1693.67
485.29	1716.20
485.50	1738.73
485.70	1603.56
485.90	1771.49
486.10	1677.29
486.30	1759.21
486.50	1775.59
486.71	1687.53
486.91	1798.12
487.11	1765.35
487.31	1693.67
487.51	1681.38
487.71	1679.33
487.91	1593.32
488.12	1640.42
488.32	1642.47
488.52	1736.68
488.72	1648.61
488.92	1640.42
489.12	1765.35
489.32	1785.83
489.53	1722.34
489.73	1599.46
489.93	1796.07
490.13	1642.47
490.33	1626.09
490.53	1722.34
490.73	1738.73
490.94	1689.57
491.14	1722.34
491.34	1855.46
491.54	2066.40
491.74	2541.53
491.94	2877.40
492.14	3018.71
492.34	2961.36
492.54	2738.13
492.75	2428.89
492.95	2377.69
493.15	2326.49
493.35	2287.58
493.55	2297.82
493.75	2125.79
493.95	2066.40
494.15	1959.91
494.35	1966.05
494.56	1861.60
494.76	1728.49
494.96	1761.25
495.16	1779.68
495.36	1679.33
495.56	1822.69
495.76	1763.30
495.96	1669.09
496.16	1681.38
496.36	1837.03
496.56	1755.11
496.77	1763.30
496.97	1767.40
497.17	1779.68
497.37	1658.85
497.57	1763.30
497.77	1693.67
497.97	1632.23
498.17	1716.20
498.37	1703.91
498.57	1771.49
498.77	1705.96
498.97	1804.26
499.17	1849.32
499.38	1701.86
499.58	1699.81
499.78	1818.60
499.98	1822.69
500.18	1705.96
500.38	1681.38
500.58	1947.62
500.78	2566.10
500.98	4515.77
501.18	5679.02
501.38	6657.95
501.58	7038.87
501.78	6627.23
501.98	5533.61
502.18	4890.55
502.38	4310.97
502.58	4151.23
502.78	3739.59
502.98	3612.62
503.18	3454.92
503.38	3141.58
503.59	2891.73
503.79	2629.59
503.99	2459.61
504.19	2312.16
504.39	2078.69
504.59	2199.52
504.79	2189.28
504.99	2037.73
505.19	1923.04
505.39	1849.32
505.59	1871.84
505.79	1912.80
505.99	1834.98
506.19	1826.79
506.39	1925.09
506.59	1806.31
506.79	1730.53
506.99	1738.73
507.19	1744.87
507.39	1730.53
507.59	1583.08
507.79	1636.33
507.99	1710.05
508.19	1693.67
508.39	1718.25
508.59	1681.38
508.79	1736.68
508.99	1734.63
509.19	1669.09
509.39	1755.11
509.59	1699.81
509.79	1701.86
509.99	1794.02
510.19	1800.16
510.39	1730.53
510.59	1652.71
510.79	1705.96
510.99	1648.61
511.19	1759.21
511.39	1841.12
511.59	1800.16
511.79	1757.16
511.99	1708.01
512.19	1738.73
512.38	1697.77
512.58	1714.15
512.78	1660.90
512.98	1800.16
513.18	1763.30
513.38	1624.04
513.58	1726.44
513.78	1716.20
513.98	1720.29
514.18	1679.33
514.38	1767.40
514.58	1751.01
514.78	1701.86
514.98	1689.57
515.18	1728.49
515.38	1636.33
515.58	1785.83
515.78	1605.61
515.98	1746.92
516.18	1820.64
516.38	1714.15
516.57	1595.37
516.77	1675.24
516.97	1734.63
517.17	1685.48
517.37	1630.18
517.57	1738.73
517.77	1648.61
517.97	1710.05
518.17	1771.49
518.37	1710.05
518.57	1656.81
518.77	1683.43
518.97	1740.77
519.16	1796.07
519.36	1806.31
519.56	1728.49
519.76	1716.20
519.96	1746.92
520.16	1705.96
520.36	1599.46
520.56	1839.08
520.76	1634.28
520.96	1710.05
521.16	1732.58
521.35	1759.21
521.55	1798.12
521.75	1800.16
521.95	1689.57
522.15	1669.09
522.35	1613.80
522.55	1722.34
522.75	1828.84
522.95	1710.05
523.14	1773.54
523.34	1697.77
523.54	1705.96
523.74	1742.82
523.94	1855.46
524.14	1652.71
524.34	1716.20
524.54	1783.78
524.73	1732.58
524.93	1708.01
525.13	1681.38
525.33	1665.00
525.53	1828.84
525.73	1789.92
525.93	1746.92
526.13	1726.44
526.32	1718.25
526.52	1779.68
526.72	1798.12
526.92	1691.62
527.12	1691.62
527.32	1656.81
527.52	1800.16
527.71	1761.25
527.91	1665.00
528.11	1640.42
528.31	1708.01
528.51	1634.28
528.71	1771.49
528.90	1767.40
529.10	1779.68
529.30	1816.55
529.50	1607.66
529.70	1751.01
529.90	1703.91
530.09	1681.38
530.29	1644.52
530.49	1677.29
530.69	1804.26
530.89	1781.73
531.09	1828.84
531.28	1744.87
531.48	1798.12
531.68	1767.40
531.88	1763.30
532.08	1746.92
532.28	1722.34
532.47	1724.39
532.67	1820.64
532.87	1746.92
533.07	1626.09
533.27	1791.97
533.46	1751.01
533.66	1742.82
533.86	1665.00
534.06	1671.14
534.26	1744.87
534.45	1734.63
534.65	1763.30
534.85	1705.96
535.05	1665.00
535.25	1720.29
535.44	1656.81
535.64	1738.73
535.84	1726.44
536.04	1665.00
536.24	1675.24
536.43	1662.95
536.63	1724.39
536.83	1640.42
537.03	1714.15
537.22	1654.76
537.42	1619.94
537.62	1818.60
537.82	1718.25
538.02	1734.63
538.21	1863.65
538.41	1843.17
538.61	1738.73
538.81	1685.48
539.00	1773.54
539.20	1667.05
539.40	1798.12
539.60	1777.64
539.79	1818.60
539.99	1783.78
540.19	1660.90
540.39	1767.40
540.58	1730.53
540.78	1800.16
540.98	1697.77
541.18	1732.58
541.37	1773.54
541.57	1744.87
541.77	1783.78
541.97	1730.53
542.16	1675.24
542.36	1677.29
542.56	1714.15
542.76	1808.36
542.95	1734.63
543.15	1738.73
543.35	1730.53
543.54	1689.57
543.74	1701.86
543.94	1871.84
544.14	1675.24
544.33	1751.01
544.53	1667.05
544.73	1726.44
544.93	1687.53
545.12	1728.49
545.32	1734.63
545.52	1701.86
545.71	1650.66
545.91	1785.83
546.11	1738.73
546.30	1658.85
546.50	1703.91
546.70	1761.25
546.90	1775.59
547.09	1660.90
547.29	1753.06
547.49	1703.91
547.68	1689.57
547.88	1662.95
548.08	1804.26
548.27	2254.81
548.47	1687.53
548.67	1710.05
548.87	1753.06
549.06	1773.54
549.26	1744.87
549.46	1765.35
549.65	1714.15
549.85	1755.11
550.05	1773.54
550.24	1656.81
550.44	1769.44
550.64	1710.05
550.83	1773.54
551.03	1800.16
551.23	1722.34
551.42	1738.73
551.62	1691.62
551.82	1771.49
552.01	1673.19
552.21	1777.64
552.41	1746.92
552.60	1724.39
552.80	1763.30
553.00	1712.10
553.19	1755.11
553.39	1812.45
553.59	1667.05
553.78	1798.12
553.98	1781.73
554.17	1669.09
554.37	1767.40
554.57	1734.63
554.76	1656.81
554.96	1685.48
555.16	1712.10
555.35	1730.53
555.55	1740.77
555.75	1781.73
555.94	1787.88
556.14	1693.67
556.33	1724.39
556.53	1759.21
556.73	1695.72
556.92	1755.11
557.12	1873.89
557.32	1843.17
557.51	1757.16
557.71	1703.91
557.90	1826.79
558.10	1789.92
558.30	1705.96
558.49	1660.90
558.69	1767.40
558.88	1748.97
559.08	1781.73
559.28	1716.20
559.47	1755.11
559.67	1777.64
559.86	1828.84
560.06	1738.73
560.26	1640.42
560.45	1736.68
560.65	1775.59
560.84	1814.50
561.04	1697.77
561.24	1808.36
561.43	1660.90
561.63	1812.45
561.82	1736.68
562.02	1785.83
562.22	1650.66
562.41	1714.15
562.61	1738.73
562.80	1769.44
563.00	1761.25
563.19	1755.11
563.39	1791.97
563.59	1767.40
563.78	1718.25
563.98	1613.80
564.17	1677.29
564.37	1628.14
564.56	1742.82
564.76	1679.33
564.96	1894.37
565.15	1757.16
565.35	1910.75
565.54	1650.66
565.74	1800.16
565.93	1662.95
566.13	1730.53
566.32	1714.15
566.52	1849.32
566.71	1734.63
566.91	1855.46
567.11	1726.44
567.30	1714.15
567.50	1779.68
567.69	1748.97
567.89	1677.29
568.08	1640.42
568.28	1748.97
568.47	1697.77
568.67	1724.39
568.86	1683.43
569.06	1820.64
569.25	1710.05
569.45	1681.38
569.64	1693.67
569.84	1613.80
570.04	1787.88
570.23	1718.25
570.43	1751.01
570.62	1742.82
570.82	1808.36
571.01	1675.24
571.21	1673.19
571.40	1759.21
571.60	1681.38
571.79	1798.12
571.99	1767.40
572.18	1609.70
572.38	1755.11
572.57	1728.49
572.77	1781.73
572.96	1873.89
573.16	1757.16
573.35	1730.53
573.55	1863.65
573.74	1806.31
573.94	1746.92
574.13	1777.64
574.33	1798.12
574.52	1714.15
574.71	1794.02
574.91	1761.25
575.10	1615.85
575.30	1728.49
575.49	1746.92
575.69	1689.57
575.88	1689.57
576.08	1675.24
576.27	1779.68
576.47	1675.24
576.66	1888.23
576.86	1800.16
577.05	1759.21
577.25	1800.16
577.44	1904.61
577.64	1751.01
577.83	1785.83
578.02	1708.01
578.22	1785.83
578.41	1808.36
578.61	1746.92
578.80	1671.14
579.00	1783.78
579.19	1726.44
579.39	1863.65
579.58	1814.50
579.77	1662.95
579.97	1886.18
580.16	1859.56
580.36	1753.06
580.55	1763.30
580.75	1699.81
580.94	1759.21
581.13	1875.94
581.33	1839.08
581.52	1726.44
581.72	1906.66
581.91	1888.23
582.11	1746.92
582.30	1744.87
582.49	1751.01
582.69	1794.02
582.88	1753.06
583.08	1769.44
583.27	1773.54
583.47	1800.16
583.66	1636.33
583.85	1728.49
584.05	1726.44
584.24	1804.26
584.44	1851.36
584.63	1695.72
584.82	1853.41
585.02	1804.26
585.21	1804.26
585.41	1865.70
585.60	1820.64
585.79	1996.77
585.99	1947.62
586.18	1886.18
586.37	2133.98
586.57	3305.42
586.76	9615.21
586.96	24045.20
587.15	33713.66
587.34	39718.31
587.54	41768.32
587.73	36025.82
587.93	25962.10
588.12	21331.64
588.31	18157.29
588.51	16043.79
588.70	14958.36
588.89	13809.45
589.09	12455.75
589.28	10913.63
589.47	9351.03
589.67	7882.63
589.86	6348.70
590.06	4906.93
590.25	3891.14
590.44	3092.43
590.64	2574.30
590.83	2326.49
591.02	2107.36
591.22	1941.47
591.41	1992.67
591.60	1804.26
591.80	1968.10
591.99	1703.91
592.18	1732.58
592.38	1794.02
592.57	1798.12
592.76	1742.82
592.96	1755.11
593.15	1767.40
593.34	1789.92
593.54	1781.73
593.73	1886.18
593.92	1791.97
594.12	1751.01
594.31	1755.11
594.50	1779.68
594.70	1810.40
594.89	1837.03
595.08	1640.42
595.28	1802.21
595.47	1927.14
595.66	1783.78
595.86	1697.77
596.05	1685.48
596.24	1705.96
596.43	1806.31
596.63	1812.45
596.82	1816.55
597.01	1802.21
597.21	1841.12
597.40	1781.73
597.59	1744.87
597.79	1716.20
597.98	1718.25
598.17	1824.74
598.36	1738.73
598.56	1781.73
598.75	1710.05
598.94	1740.77
599.14	1748.97
599.33	1665.00
599.52	1763.30
599.71	1689.57
599.91	1757.16
600.10	1796.07
600.29	1771.49
600.48	1728.49
600.68	1720.29
600.87	1746.92
601.06	1628.14
601.26	1724.39
601.45	1808.36
601.64	1726.44
601.83	1804.26
602.03	1697.77
602.22	1697.77
602.41	1841.12
602.60	1830.88
602.80	1832.93
602.99	1634.28
603.18	1730.53
603.37	1689.57
603.57	1767.40
603.76	1759.21
603.95	1757.16
604.14	1751.01
604.34	1673.19
604.53	1728.49
604.72	1755.11
604.91	1779.68
605.10	1746.92
605.30	1652.71
605.49	1902.56
605.68	1796.07
605.87	1726.44
606.07	1679.33
606.26	1716.20
606.45	1736.68
606.64	1669.09
606.84	1626.09
607.03	1683.43
607.22	1705.96
607.41	1701.86
607.60	1675.24
607.80	1804.26
607.99	1789.92
608.18	1720.29
608.37	1828.84
608.56	1636.33
608.76	1753.06
608.95	1740.77
609.14	1761.25
609.33	1748.97
609.52	1781.73
609.72	1705.96
609.91	1755.11
610.10	1775.59
610.29	1808.36
610.48	1828.84
610.68	1705.96
610.87	1753.06
611.06	1732.58
611.25	1708.01
611.44	1753.06
611.63	1777.64
611.83	1781.73
612.02	1669.09
612.21	1724.39
612.40	1601.51
612.59	1736.68
612.79	1703.91
612.98	1796.07
613.17	1800.16
613.36	1798.12
613.55	1775.59
613.74	1652.71
613.93	1669.09
614.13	1695.72
614.32	1691.62
614.51	1798.12
614.70	1734.63
614.89	1689.57
615.08	1798.12
615.28	2099.17
615.47	1595.37
615.66	1734.63
615.85	1761.25
616.04	1800.16
616.23	1753.06
616.42	1701.86
616.62	1736.68
616.81	1716.20
617.00	1714.15
617.19	1765.35
617.38	1738.73
617.57	1665.00
617.76	1806.31
617.95	1763.30
618.15	1722.34
618.34	1845.22
618.53	1634.28
618.72	1789.92
618.91	1880.04
619.10	1751.01
619.29	1767.40
619.48	1781.73
619.68	1740.77
619.87	1660.90
620.06	1628.14
620.25	1611.75
620.44	1611.75
620.63	1771.49
620.82	1720.29
621.01	1761.25
621.20	1724.39
621.39	1697.77
621.59	1710.05
621.78	1732.58
621.97	1779.68
622.16	1714.15
622.35	1781.73
622.54	1820.64
622.73	1802.21
622.92	1675.24
623.11	1810.40
623.30	1722.34
623.49	1746.92
623.68	1677.29
623.88	1720.29
624.07	1675.24
624.26	1722.34
624.45	1656.81
624.64	1665.00
624.83	1738.73
625.02	1705.96
625.21	1671.14
625.40	1714.15
625.59	1826.79
625.78	1753.06
625.97	1765.35
626.16	1773.54
626.35	1751.01
626.54	1701.86
626.74	1794.02
626.93	1689.57
627.12	1746.92
627.31	1755.11
627.50	1714.15
627.69	1748.97
627.88	1689.57
628.07	1716.20
628.26	1710.05
628.45	1687.53
628.64	1726.44
628.83	1665.00
629.02	1699.81
629.21	1673.19
629.40	1734.63
629.59	1648.61
629.78	1742.82
629.97	1773.54
630.16	1677.29
630.35	1667.05
630.54	1675.24
630.73	1687.53
630.92	1636.33
631.11	1693.67
631.30	1671.14
631.49	1810.40
631.68	1640.42
631.87	1714.15
632.06	1595.37
632.25	1841.12
632.44	1740.77
632.63	1675.24
632.82	1699.81
633.01	1669.09
633.20	1761.25
633.39	1607.66
633.58	1675.24
633.77	1609.70
633.96	1691.62
634.15	1826.79
634.34	1724.39
634.53	1689.57
634.72	1648.61
634.91	1581.03
635.10	1736.68
635.29	1775.59
635.48	1689.57
635.67	1673.19
635.86	1701.86
636.05	1798.12
636.24	1679.33
636.43	1708.01
636.62	1705.96
636.81	1554.41
637.00	1773.54
637.19	1703.91
637.38	1701.86
637.57	1681.38
637.76	1650.66
637.95	1693.67
638.14	1693.67
638.33	1728.49
638.52	1683.43
638.71	1708.01
638.89	1632.23
639.08	1808.36
639.27	1679.33
639.46	1671.14
639.65	1830.88
639.84	1734.63
640.03	1796.07
640.22	1681.38
640.41	1886.18
640.60	1642.47
640.79	1742.82
640.98	1695.72
641.17	1744.87
641.36	1673.19
641.55	1781.73
641.74	1669.09
641.92	1677.29
642.11	1669.09
642.30	1789.92
642.49	1701.86
642.68	1734.63
642.87	1708.01
643.06	1746.92
643.25	1632.23
643.44	1667.05
643.63	1685.48
643.82	1759.21
644.00	1665.00
644.19	1673.19
644.38	1648.61
644.57	1763.30
644.76	1748.97
644.95	1667.05
645.14	1660.90
645.33	1685.48
645.52	1740.77
645.71	1722.34
645.89	1677.29
646.08	1705.96
646.27	1693.67
646.46	1837.03
646.65	1642.47
646.84	1687.53
647.03	1599.46
647.22	1843.17
647.40	1730.53
647.59	1658.85
647.78	1562.60
647.97	1779.68
648.16	1603.56
648.35	1757.16
648.54	1775.59
648.73	1718.25
648.91	1785.83
649.10	1697.77
649.29	1777.64
649.48	1646.57
649.67	1718.25
649.86	1748.97
650.05	1615.85
650.23	1718.25
650.42	1701.86
650.61	1748.97
650.80	1699.81
650.99	1828.84
651.18	1777.64
651.36	1796.07
651.55	1669.09
651.74	1724.39
651.93	1687.53
652.12	1718.25
652.31	1683.43
652.49	1714.15
652.68	1621.99
652.87	1787.88
653.06	1677.29
653.25	1814.50
653.44	1796.07
653.62	1705.96
653.81	1705.96
654.00	1755.11
654.19	1753.06
654.38	1865.70
654.56	1742.82
654.75	1632.23
654.94	1781.73
655.13	1677.29
655.32	1728.49
655.51	1820.64
655.69	1701.86
655.88	1787.88
656.07	1632.23
656.26	1732.58
656.45	1648.61
656.63	1732.58
656.82	1763.30
657.01	1796.07
657.20	1617.90
657.38	1787.88
657.57	1640.42
657.76	1654.76
657.95	1822.69
658.14	1619.94
658.32	1730.53
658.51	1648.61
658.70	1681.38
658.89	1673.19
659.08	1646.57
659.26	1802.21
659.45	1665.00
659.64	1800.16
659.83	1630.18
660.01	1902.56
660.20	1773.54
660.39	1767.40
660.58	1609.70
660.76	1765.35
660.95	1601.51
661.14	1644.52
661.33	1658.85
661.51	1724.39
661.70	1705.96
661.89	1755.11
662.08	1675.24
662.26	1685.48
662.45	1730.53
662.64	1716.20
662.83	1722.34
663.01	1632.23
663.20	1632.23
663.39	1804.26
663.58	1681.38
663.76	1720.29
663.95	1757.16
664.14	1656.81
664.32	1732.58
664.51	1630.18
664.70	1597.42
664.89	1742.82
665.07	1642.47
665.26	1740.77
665.45	1652.71
665.64	1773.54
665.82	1740.77
666.01	1652.71
666.20	1683.43
666.38	1781.73
666.57	1816.55
666.76	2174.94
666.95	4353.98
667.13	10055.53
667.32	14960.41
667.51	17544.95
667.69	18732.77
667.88	17286.90
668.07	12121.93
668.25	9246.58
668.44	7917.45
668.63	7217.04
668.81	6694.81
669.00	6236.06
669.19	5601.19
669.38	5097.39
669.56	4493.24
669.75	3948.48
669.94	3373.00
670.12	2865.11
670.31	2516.95
670.50	2224.09
670.68	2009.06
670.87	1912.80
671.06	1839.08
671.24	1757.16
671.43	1880.04
671.62	1740.77
671.80	1716.20
671.99	1824.74
672.18	1708.01
672.36	1748.97
672.55	1767.40
672.74	1765.35
672.92	1722.34
673.11	1708.01
673.29	1669.09
673.48	1746.92
673.67	1736.68
673.85	1828.84
674.04	1665.00
674.23	1687.53
674.41	1814.50
674.60	1683.43
674.79	1714.15
674.97	1595.37
675.16	1667.05
675.34	1734.63
675.53	1734.63
675.72	1771.49
675.90	1757.16
676.09	1734.63
676.28	1779.68
676.46	1632.23
676.65	1746.92
676.83	1660.90
677.02	1728.49
677.21	1730.53
677.39	1759.21
677.58	1617.90
677.77	1689.57
677.95	1699.81
678.14	1695.72
678.32	1689.57
678.51	1726.44
678.70	1826.79
678.88	1718.25
679.07	1669.09
679.25	1603.56
679.44	1708.01
679.63	1654.76
679.81	1701.86
680.00	1834.98
680.18	1691.62
680.37	1767.40
680.55	1748.97
680.74	1626.09
680.93	1683.43
681.11	1720.29
681.30	1693.67
681.48	1718.25
681.67	1675.24
681.85	1726.44
682.04	1652.71
682.23	1781.73
682.41	1656.81
682.60	1650.66
682.78	1714.15
682.97	1640.42
683.15	1724.39
683.34	1712.10
683.53	1724.39
683.71	1665.00
683.90	1757.16
684.08	1804.26
684.27	1638.38
684.45	1697.77
684.64	1726.44
684.82	1675.24
685.01	1705.96
685.19	1787.88
685.38	1816.55
685.57	1753.06
685.75	1626.09
685.94	1689.57
686.12	1695.72
686.31	1697.77
686.49	1794.02
686.68	1535.98
686.86	1734.63
687.05	1757.16
687.23	1796.07
687.42	1677.29
687.60	1624.04
687.79	1755.11
687.97	1777.64
688.16	1775.59
688.34	1714.15
688.53	1605.61
688.71	1726.44
688.90	1761.25
689.08	1710.05
689.27	1660.90
689.45	1695.72
689.64	1824.74
689.82	1724.39
690.01	1755.11
690.19	1722.34
690.38	1654.76
690.56	1757.16
690.75	1683.43
690.93	1658.85
691.12	1710.05
691.30	1736.68
691.49	1638.38
691.67	1687.53
691.86	1763.30
692.04	1671.14
692.23	1560.55
692.41	1677.29
692.60	1880.04
692.78	1765.35
692.97	1638.38
693.15	1751.01
693.34	1843.17
693.52	1746.92
693.71	1732.58
693.89	1685.48
694.08	1609.70
694.26	1779.68
694.44	1697.77
694.63	1687.53
694.81	1646.57
695.00	1736.68
695.18	1720.29
695.37	1828.84
695.55	1699.81
695.74	1669.09
695.92	1681.38
696.10	1779.68
696.29	1714.15
696.47	1640.42
696.66	1654.76
696.84	1632.23
697.03	1714.15
697.21	1861.60
697.40	2273.25
697.58	1781.73
697.76	1689.57
697.95	1669.09
698.13	1587.18
698.32	1665.00
698.50	1751.01
698.68	1753.06
698.87	1777.64
699.05	1824.74
699.24	1652.71
699.42	1681.38
699.61	1736.68
699.79	1712.10
699.97	1720.29
700.16	1595.37
700.34	1658.85
700.53	1677.29
700.71	1751.01
700.89	1769.44
701.08	1710.05
701.26	1712.10
701.45	2133.98
701.63	1632.23
701.81	1716.20
702.00	1658.85
702.18	1634.28
702.37	1720.29
702.55	1757.16
702.73	1642.47
702.92	1681.38
703.10	1775.59
703.28	1683.43
703.47	1636.33
703.65	1773.54
703.84	1748.97
704.02	1701.86
704.20	1779.68
704.39	1658.85
704.57	1681.38
704.75	1771.49
704.94	1740.77
705.12	1736.68
705.30	1808.36
705.49	2265.05
705.67	4310.97
705.86	9310.07
706.04	12341.06
706.22	14343.97
706.41	15324.95
706.59	13379.38
706.77	9598.83
706.96	7219.09
707.14	6383.52
707.32	5898.15
707.51	5668.78
707.69	4931.51
707.87	4237.25
708.06	3633.10
708.24	2953.17
708.42	2402.27
708.61	2148.32
708.79	1968.10
708.97	1843.17
709.16	1779.68
709.34	1791.97
709.52	1763.30
709.71	1730.53
709.89	1789.92
710.07	1728.49
710.26	1591.27
710.44	1689.57
710.62	1708.01
710.80	1677.29
710.99	1722.34
711.17	1783.78
711.35	1718.25
711.54	1710.05
711.72	1785.83
711.90	1781.73
712.09	1691.62
712.27	1654.76
712.45	1759.21
712.63	1628.14
712.82	1724.39
713.00	1763.30
713.18	1724.39
713.37	1722.34
713.55	1708.01
713.73	1722.34
713.91	1708.01
714.10	1660.90
714.28	1681.38
714.46	1751.01
714.65	1677.29
714.83	1732.58
715.01	1720.29
715.19	1718.25
715.38	1654.76
715.56	1585.13
715.74	1568.74
715.92	1669.09
716.11	1730.53
716.29	1609.70
716.47	1722.34
716.65	1716.20
716.84	1667.05
717.02	1746.92
717.20	1595.37
717.38	1615.85
717.57	1726.44
717.75	1708.01
717.93	1689.57
718.11	1722.34
718.30	1566.70
718.48	1720.29
718.66	1785.83
718.84	1814.50
719.03	1710.05
719.21	1656.81
719.39	1814.50
719.57	1738.73
719.75	1769.44
719.94	1720.29
720.12	1665.00
720.30	1656.81
720.48	1767.40
720.67	1662.95
720.85	1624.04
721.03	1665.00
721.21	1650.66
721.39	1781.73
721.58	1716.20
721.76	1722.34
721.94	1703.91
722.12	1785.83
722.30	1787.88
722.49	1687.53
722.67	1675.24
722.85	1716.20
723.03	1626.09
723.21	1665.00
723.40	1673.19
723.58	1675.24
723.76	1753.06
723.94	1751.01
724.12	1689.57
724.30	1726.44
724.49	1777.64
724.67	1665.00
724.85	1867.75
725.03	1601.51
725.21	1626.09
725.40	1712.10
725.58	1650.66
725.76	1777.64
725.94	1708.01
726.12	1701.86
726.30	1662.95
726.49	1642.47
726.67	1689.57
726.85	1712.10
727.03	1730.53
727.21	2133.98
727.39	2947.03
727.57	3743.69
727.76	4212.67
727.94	4317.12
728.12	4243.39
728.30	3608.52
728.48	2906.07
728.66	2654.17
728.84	2490.33
729.03	2371.55
729.21	2086.88
729.39	2017.25
729.57	1859.56
729.75	1761.25
729.93	1847.27
730.11	1732.58
730.30	1685.48
730.48	1730.53
730.66	1863.65
730.84	1753.06
731.02	1740.77
731.20	1708.01
731.38	1753.06
731.56	1738.73
731.74	1617.90
731.93	1718.25
732.11	1646.57
732.29	1701.86
732.47	1691.62
732.65	1693.67
732.83	1726.44
733.01	1699.81
733.19	1634.28
733.37	1710.05
733.56	1687.53
733.74	1703.91
733.92	1744.87
734.10	1714.15
734.28	1714.15
734.46	1609.70
734.64	1720.29
734.82	1728.49
735.00	1701.86
735.18	1689.57
735.36	1669.09
735.54	1640.42
735.73	1732.58
735.91	1714.15
736.09	1677.29
736.27	1701.86
736.45	1669.09
736.63	1650.66
736.81	1634.28
736.99	1773.54
737.17	1783.78
737.35	1630.18
737.53	1759.21
737.71	1728.49
737.89	1728.49
738.07	1669.09
738.25	1615.85
738.43	1568.74
738.61	1658.85
738.80	1757.16
738.98	1626.09
739.16	1660.90
739.34	1742.82
739.52	1751.01
739.70	1621.99
739.88	1742.82
740.06	1773.54
740.24	1630.18
740.42	1761.25
740.60	1619.94
740.78	1636.33
740.96	1691.62
741.14	1617.90
741.32	1689.57
741.50	1581.03
741.68	1775.59
741.86	1761.25
742.04	1693.67
742.22	1689.57
742.40	1691.62
742.58	1671.14
742.76	1667.05
742.94	1761.25
743.12	1607.66
743.30	1716.20
743.48	1705.96
743.66	1677.29
743.84	1718.25
744.02	1697.77
744.20	1673.19
744.38	1665.00
744.56	1636.33
744.74	1843.17
744.92	1730.53
745.10	1775.59
745.28	1748.97
745.46	1777.64
745.64	1710.05
745.82	1773.54
746.00	1705.96
746.18	1703.91
746.36	1640.42
746.54	1722.34
746.72	1775.59
746.90	1640.42
747.08	1796.07
747.26	1650.66
747.44	1732.58
747.62	1681.38
747.80	1806.31
747.98	1791.97
748.15	1658.85
748.33	1796.07
748.51	1642.47
748.69	1828.84
748.87	1605.61
749.05	1742.82
749.23	1714.15
749.41	1681.38
749.59	1722.34
749.77	1742.82
749.95	1665.00
750.13	1701.86
750.31	1646.57
750.49	1677.29
750.67	1746.92
750.85	1789.92
751.03	1828.84
751.20	1701.86
751.38	1718.25
751.56	1658.85
751.74	1673.19
751.92	1634.28
752.10	1570.79
752.28	1738.73
752.46	1595.37
752.64	1675.24
752.82	1685.48
753.00	1804.26
753.18	1615.85
753.35	1701.86
753.53	1669.09
753.71	1726.44
753.89	1814.50
754.07	1681.38
754.25	1796.07
754.43	1728.49
754.61	1628.14
754.79	1716.20
754.97	1718.25
755.14	1720.29
755.32	1613.80
755.50	1701.86
755.68	1673.19
755.86	1669.09
756.04	1654.76
756.22	1607.66
756.40	1691.62
756.57	1820.64
756.75	1632.23
756.93	1701.86
757.11	1730.53
757.29	1667.05
757.47	1648.61
757.65	1634.28
757.82	1595.37
758.00	1714.15
758.18	1693.67
758.36	1607.66
758.54	1695.72
758.72	1566.70
758.90	1726.44
759.07	1720.29
759.25	1640.42
759.43	1761.25
759.61	1621.99
759.79	2181.09
759.97	1794.02
760.15	1699.81
760.32	1628.14
760.50	1720.29
760.68	1804.26
760.86	1689.57
761.04	1765.35
761.22	1777.64
761.39	1710.05
761.57	1751.01
761.75	1710.05
761.93	1716.20
762.11	1683.43
762.28	1705.96
762.46	1705.96
762.64	1675.24
762.82	1656.81
763.00	1726.44
763.18	1769.44
763.35	1554.41
763.53	1791.97
763.71	1738.73
763.89	1695.72
764.07	1722.34
764.24	1761.25
764.42	1757.16
764.60	1654.76
764.78	1705.96
764.96	1818.60
765.13	1693.67
765.31	1705.96
765.49	1705.96
765.67	1601.51
765.84	1644.52
766.02	1693.67
766.20	1626.09
766.38	1718.25
766.56	1759.21
766.73	1679.33
766.91	1654.76
767.09	1650.66
767.27	1665.00
767.44	1667.05
767.62	1703.91
767.80	1708.01
767.98	1697.77
768.15	1705.96
768.33	1740.77
768.51	1757.16
768.69	1726.44
768.87	1714.15
769.04	1734.63
769.22	1810.40
769.40	1718.25
769.58	1789.92
769.75	1734.63
769.93	1775.59
770.11	1644.52
770.28	1718.25
770.46	1742.82
770.64	1769.44
770.82	1708.01
770.99	1693.67
771.17	1642.47
771.35	1732.58
771.53	1746.92
771.70	1718.25
771.88	1701.86
772.06	1732.58
772.23	1615.85
772.41	1728.49
772.59	1734.63
772.77	1632.23
772.94	1695.72
773.12	1773.54
773.30	1689.57
773.47	1640.42
773.65	1628.14
773.83	1748.97
774.01	1708.01
774.18	1689.57
774.36	1726.44
774.54	1544.17
774.71	1800.16
774.89	1632.23
775.07	1640.42
775.24	1681.38
775.42	1650.66
775.60	1794.02
775.78	1673.19
775.95	1529.83
776.13	1581.03
776.31	1626.09
776.48	1755.11
776.66	1736.68
776.84	1681.38
777.01	1691.62
777.19	1673.19
777.37	1677.29
777.54	1687.53
777.72	1789.92
777.90	1710.05
778.07	1689.57
778.25	1927.14
778.43	1654.76
778.60	1652.71
778.78	1763.30
778.96	1785.83
779.13	1642.47
779.31	1712.10
779.49	1665.00
779.66	1701.86
779.84	1738.73
780.01	1665.00
780.19	1667.05
780.37	1701.86
780.54	1734.63
780.72	1599.46
780.90	1673.19
781.07	1730.53
781.25	1640.42
781.43	1808.36
781.60	1720.29
781.78	1693.67
781.95	1728.49
782.13	1675.24
782.31	1718.25
782.48	1691.62
782.66	1736.68
782.83	1736.68
783.01	1767.40
783.19	1755.11
783.36	1665.00
783.54	1677.29
783.72	1742.82
783.89	1617.90
784.07	1662.95
784.24	1714.15
784.42	1740.77
784.60	1636.33
784.77	1703.91
784.95	1542.12
785.12	1673.19
785.30	1765.35
785.47	1648.61
785.65	1695.72
785.83	1681.38
786.00	1621.99
786.18	1673.19
786.35	1646.57
786.53	1695.72
786.71	1730.53
786.88	1665.00
787.06	1695.72
787.23	1648.61
787.41	1607.66
787.58	1685.48
787.76	1628.14
787.94	1677.29
788.11	1705.96
788.29	1642.47
788.46	1660.90
788.64	1529.83
788.81	1613.80
788.99	1669.09
789.16	1652.71
789.34	1642.47
789.52	1685.48
789.69	1687.53
789.87	1578.98
790.04	1705.96
790.22	1658.85
790.39	1742.82
790.57	1529.83
790.74	1642.47
790.92	1765.35
791.09	1624.04
791.27	1763.30
791.44	1763.30
791.62	1687.53
791.79	1767.40
791.97	1730.53
792.15	1845.22
792.32	1732.58
792.50	1699.81
792.67	1732.58
792.85	1746.92
793.02	1722.34
793.20	1656.81
793.37	1640.42
793.55	1624.04
793.72	1662.95
793.90	1789.92
794.07	1683.43
794.25	1652.71
794.42	1699.81
794.60	1718.25
794.77	1681.38
794.95	1726.44
795.12	1761.25
795.30	1720.29
795.47	1648.61
795.65	1800.16
795.82	1718.25
796.00	1597.42
796.17	1652.71
796.34	1697.77
796.52	1650.66
796.69	1648.61
796.87	1734.63
797.04	1689.57
797.22	1679.33
797.39	1646.57
797.57	1724.39
797.74	1718.25
797.92	1755.11
798.09	1632.23
798.27	1669.09
798.44	1701.86
798.62	1708.01
798.79	1736.68
798.96	1724.39
799.14	1746.92
799.31	1867.75
799.49	1656.81
799.66	1681.38
799.84	1699.81
800.01	1544.17
800.19	1730.53
800.36	1621.99
800.53	1712.10
800.71	1689.57
800.88	1755.11
801.06	1658.85
801.23	1599.46
801.41	1716.20
801.58	1689.57
801.75	1621.99
801.93	1710.05
802.10	1677.29
802.28	1742.82
802.45	1646.57
802.63	1679.33
802.80	1787.88
802.97	1669.09
803.15	1617.90
803.32	1656.81
803.50	1660.90
803.67	1718.25
803.84	1595.37
804.02	1681.38
804.19	1638.38
804.37	1548.26
804.54	1660.90
804.71	1609.70
804.89	1687.53
805.06	1583.08
805.24	1632.23
805.41	1640.42
805.58	1654.76
805.76	1746.92
805.93	1699.81
806.10	1787.88
806.28	1675.24
806.45	1691.62
806.63	1748.97
806.80	1646.57
806.97	1669.09
807.15	1773.54
807.32	1671.14
807.49	1683.43
807.67	1560.55
807.84	1675.24
808.01	1632.23
808.19	1800.16
808.36	1867.75
808.54	1681.38
808.71	1693.67
808.88	1619.94
809.06	1650.66
809.23	1755.11
809.40	1710.05
809.58	1753.06
809.75	1742.82
809.92	1607.66
810.10	1841.12
810.27	1626.09
810.44	1687.53
810.62	1771.49
810.79	1777.64
810.96	1642.47
811.14	1738.73
811.31	1720.29
811.48	1687.53
811.66	1646.57
811.83	1720.29
812.00	1607.66
812.18	1689.57
812.35	1863.65
812.52	1800.16
812.69	1673.19
812.87	1701.86
813.04	1595.37
813.21	1669.09
813.39	1617.90
813.56	1556.46
813.73	1689.57
813.91	1646.57
814.08	1675.24
814.25	1619.94
814.42	1697.77
814.60	1568.74
814.77	1701.86
814.94	1695.72
815.12	1683.43
815.29	1791.97
815.46	1708.01
815.63	1751.01
815.81	1662.95
815.98	1648.61
816.15	1667.05
816.33	1751.01
816.50	1617.90
816.67	1746.92
816.84	1652.71
817.02	1669.09
817.19	1597.42
817.36	1675.24
817.53	1783.78
817.71	1691.62
817.88	1806.31
818.05	1626.09
818.22	1697.77
818.40	1796.07
818.57	1691.62
818.74	1669.09
818.91	1705.96
819.09	1685.48
819.26	1660.90
819.43	1683.43
819.60	1732.58
819.78	1738.73
819.95	1796.07
820.12	1621.99
820.29	1716.20
820.47	1705.96
820.64	1691.62
820.81	1589.22
820.98	1617.90
821.15	1644.52
821.33	1722.34
821.50	1558.50
821.67	1642.47
821.84	1611.75
822.02	1748.97
822.19	1820.64
822.36	1572.84
822.53	1705.96
822.70	1648.61
822.88	1683.43
823.05	1753.06
823.22	1624.04
823.39	1722.34
823.56	1640.42
823.74	1783.78
823.91	1566.70
824.08	1628.14
824.25	1568.74
824.42	1765.35
824.60	1535.98
824.77	1732.58
824.94	1642.47
825.11	1722.34
825.28	1603.56
825.45	1718.25
825.63	1726.44
825.80	1601.51
825.97	1773.54
826.14	1662.95
826.31	1595.37
826.48	1714.15
826.66	1662.95
826.83	1652.71
827.00	1624.04
827.17	1693.67
827.34	1712.10
827.51	1746.92
827.69	1669.09
827.86	1642.47
828.03	1724.39
828.20	1730.53
828.37	1650.66
828.54	1710.05
828.71	1675.24
828.89	1742.82
829.06	1689.57
829.23	1742.82
829.40	1628.14
829.57	1673.19
829.74	1708.01
829.91	1681.38
830.09	1669.09
830.26	1755.11
830.43	1771.49
830.60	1763.30
830.77	1665.00
830.94	1787.88
831.11	1697.77
831.28	1671.14
831.46	1787.88
831.63	1601.51
831.80	1720.29
831.97	1708.01
832.14	1673.19
832.31	1732.58
832.48	1632.23
832.65	1740.77
832.82	1708.01
832.99	1660.90
833.17	1636.33
833.34	1796.07
833.51	1718.25
833.68	1642.47
833.85	1755.11
834.02	1691.62
834.19	1652.71
834.36	1581.03
834.53	1675.24
834.70	1767.40
834.87	1714.15
835.04	1689.57
835.22	1687.53
835.39	1607.66
835.56	1742.82
835.73	1665.00
835.90	1742.82
836.07	1669.09
836.24	1796.07
836.41	1624.04
836.58	1671.14
836.75	1740.77
836.92	1665.00
837.09	1673.19
837.26	1740.77
837.43	1626.09
837.60	1738.73
837.77	1638.38
837.94	1714.15
838.12	1705.96
838.29	1734.63
838.46	1671.14
838.63	1652.71
838.80	1746.92
838.97	1646.57
839.14	1679.33
839.31	1701.86
839.48	1675.24
839.65	1644.52
839.82	1736.68
839.99	1667.05
840.16	1710.05
840.33	1630.18
840.50	1708.01
840.67	1624.04
840.84	1628.14
841.01	1722.34
841.18	1650.66
841.35	1675.24
841.52	1697.77
841.69	1773.54
841.86	1642.47
842.03	1615.85
842.20	1734.63
842.37	1644.52
842.54	1685.48
842.71	1675.24
842.88	1585.13
843.05	1722.34
843.22	1681.38
843.39	1755.11
843.56	1679.33
843.73	1701.86
843.90	1658.85
844.07	1748.97
844.24	1724.39
844.41	1697.77
844.58	1722.34
844.75	1679.33
844.92	1763.30
845.09	1652.71
845.26	1667.05
845.43	1718.25
845.60	1685.48
845.77	1830.88
845.94	1630.18
846.10	1724.39
846.27	1656.81
846.44	1560.55
846.61	1597.42
846.78	1722.34
846.95	1769.44
847.12	1689.57
847.29	1705.96
847.46	1689.57
847.63	1783.78
847.80	1593.32
847.97	1705.96
848.14	1806.31
848.31	1632.23
848.48	1591.27
848.65	1736.68
848.82	1654.76
848.98	1773.54
849.15	1714.15
849.32	1783.78
849.49	1738.73
849.66	1810.40
849.83	1683.43
850.00	1654.76
850.17	1703.91
850.34	1730.53
850.51	1652.71
850.68	1693.67
850.85	1769.44
851.01	1730.53
851.18	1710.05
851.35	1640.42
851.52	1687.53
851.69	1773.54
851.86	1576.94
852.03	1648.61
852.20	1785.83
852.37	1624.04
852.53	1687.53
852.70	1710.05
852.87	1691.62
853.04	1701.86
853.21	1763.30
853.38	1775.59
853.55	1820.64
853.72	1806.31
853.89	1687.53
854.05	1611.75
854.22	1677.29
854.39	1628.14
854.56	1689.57
854.73	1791.97
854.90	1624.04
855.07	1699.81
855.23	1773.54
855.40	1691.62
855.57	1665.00
855.74	1624.04
855.91	1847.27
856.08	1667.05
856.25	1656.81
856.41	1660.90
856.58	1740.77
856.75	1751.01
856.92	1638.38
857.09	1791.97
857.26	1605.61
857.42	1748.97
857.59	1738.73
857.76	1695.72
857.93	1806.31
858.10	1748.97
858.27	1619.94
858.43	1789.92
858.60	1665.00
858.77	1591.27
858.94	1665.00
859.11	1726.44
859.27	1648.61
859.44	1689.57
859.61	1802.21
859.78	1753.06
859.95	1634.28
860.12	1705.96
860.28	1697.77
860.45	1800.16
860.62	1644.52
860.79	1699.81
860.95	1708.01
861.12	1697.77
861.29	1648.61
861.46	1642.47
861.63	1671.14
861.79	1681.38
861.96	1650.66
862.13	1718.25
862.30	1767.40
862.47	1630.18
862.63	1656.81
862.80	1738.73
862.97	1769.44
863.14	1746.92
863.30	1708.01
863.47	1679.33
863.64	1755.11
863.81	1703.91
863.97	1753.06
864.14	1738.73
864.31	1693.67
864.48	1720.29
864.65	1638.38
864.81	1804.26
864.98	1730.53
865.15	1794.02
865.32	1755.11
865.48	1738.73
865.65	1730.53
865.82	1648.61
865.98	1753.06
866.15	1691.62
866.32	1722.34
866.49	1669.09
866.65	1720.29
866.82	1632.23
866.99	1701.86
867.16	1677.29
867.32	1662.95
867.49	1701.86
867.66	1701.86
867.83	1689.57
867.99	1597.42
868.16	1697.77
868.33	1626.09
868.49	1738.73
868.66	1617.90
868.83	1640.42
868.99	1662.95
869.16	1669.09
869.33	1677.29
869.50	1769.44
869.66	1677.29
869.83	1687.53
870.00	1683.43
870.16	1744.87
870.33	1626.09
870.50	1765.35
870.66	1712.10
870.83	1726.44
871.00	1736.68
871.17	1720.29
871.33	1714.15
871.50	1656.81
871.67	1687.53
871.83	1765.35
872.00	1777.64
872.17	1714.15
872.33	1773.54
872.50	1771.49
872.67	1708.01
872.83	1679.33
873.00	1701.86
873.17	1697.77
873.33	1677.29
873.50	1714.15
873.67	1585.13
873.83	1681.38
874.00	1689.57
874.16	1740.77
874.33	1669.09
874.50	1677.29
874.66	1734.63
874.83	1701.86
875.00	1708.01
875.16	1728.49
875.33	1710.05
875.50	1605.61
875.66	1611.75
875.83	1746.92
875.99	1691.62
876.16	1712.10
876.33	1609.70
876.49	1656.81
876.66	1726.44
876.83	1665.00
876.99	1581.03
877.16	1693.67
877.32	1687.53
877.49	1710.05
877.66	1712.10
877.82	1804.26
877.99	1722.34
878.15	1695.72
878.32	1751.01
878.49	1724.39
878.65	1652.71
878.82	1755.11
878.98	1705.96
879.15	1689.57
879.32	1689.57
879.48	1712.10
879.65	1576.94
879.81	1675.24
879.98	1665.00
880.15	1601.51
880.31	1685.48
880.48	1654.76
880.64	1732.58
880.81	1703.91
880.97	1779.68
881.14	1755.11
881.31	1601.51
881.47	1812.45
881.64	1708.01
881.80	1593.32
881.97	1683.43
882.13	1732.58
882.30	1695.72
882.47	1697.77
882.63	1724.39
882.80	1671.14
882.96	1595.37
883.13	1738.73
883.29	1658.85
883.46	1703.91
883.62	1732.58
883.79	1638.38
883.95	1748.97
884.12	1658.85
884.29	1724.39
884.45	1642.47
884.62	1777.64
884.78	1714.15
884.95	1753.06
885.11	1636.33
885.28	1789.92
885.44	1654.76
885.61	1681.38
885.77	1710.05
885.94	1732.58
886.10	1673.19
886.27	1677.29
886.43	1714.15
886.60	1722.34
886.76	1693.67
886.93	1644.52
887.09	1757.16
887.26	1646.57
887.42	1753.06
887.59	1783.78
887.75	1781.73
887.92	1732.58
888.08	1736.68
888.25	1730.53
888.41	1701.86
888.58	1699.81
888.74	1705.96
888.91	1638.38
>>>>>End Processed Spectral Data<<<<<
