SpectraSuite Data File
++++++++++++++++++++++++++++++++++++
Date: Mon Jun 06 16:15:57 CEST 2016
User: root
Dark Spectrum Present: No
Reference Spectrum Present: No
Number of Sampled Component Spectra: 1
Spectrometers: USB4C02835
Integration Time (usec): 100000 (USB4C02835)
Spectra Averaged: 1 (USB4C02835)
Boxcar Smoothing: 0 (USB4C02835)
Correct for Electrical Dark: No (USB4C02835)
Strobe/Lamp Enabled: No (USB4C02835)
Correct for Detector Non-linearity: No (USB4C02835)
Correct for Stray Light: No (USB4C02835)
Number of Pixels in Processed Spectrum: 3648
>>>>>Begin Processed Spectral Data<<<<<
177.47	1501.16
177.69	1501.16
177.91	1501.16
178.13	1509.35
178.36	1437.67
178.58	1679.33
178.80	1738.73
179.02	1701.86
179.24	1744.87
179.46	1716.20
179.68	1787.88
179.90	1730.53
180.13	1775.59
180.35	1667.05
180.57	1779.68
180.79	1753.06
181.01	1720.29
181.23	1802.21
181.45	1800.16
181.67	1671.14
181.90	1751.01
182.12	1677.29
182.34	1624.04
182.56	1726.44
182.78	1701.86
183.00	1701.86
183.22	1644.52
183.44	1658.85
183.66	1892.32
183.89	1851.36
184.11	1708.01
184.33	1718.25
184.55	1691.62
184.77	1710.05
184.99	1697.77
185.21	1679.33
185.43	1820.64
185.65	1742.82
185.87	1677.29
186.10	1818.60
186.32	1806.31
186.54	1736.68
186.76	1779.68
186.98	1822.69
187.20	1667.05
187.42	1734.63
187.64	1646.57
187.86	1740.77
188.08	1748.97
188.30	1681.38
188.52	1779.68
188.75	1724.39
188.97	1751.01
189.19	1755.11
189.41	1697.77
189.63	1718.25
189.85	1716.20
190.07	1679.33
190.29	1681.38
190.51	1771.49
190.73	1654.76
190.95	1800.16
191.17	1683.43
191.39	1703.91
191.61	1665.00
191.84	1732.58
192.06	1763.30
192.28	1599.46
192.50	1802.21
192.72	1681.38
192.94	1738.73
193.16	1699.81
193.38	1791.97
193.60	1652.71
193.82	1671.14
194.04	1748.97
194.26	1691.62
194.48	1685.48
194.70	1726.44
194.92	1708.01
195.14	1785.83
195.36	1736.68
195.58	1640.42
195.80	1753.06
196.02	1703.91
196.24	1779.68
196.46	1728.49
196.69	1714.15
196.91	1865.70
197.13	1701.86
197.35	1673.19
197.57	1771.49
197.79	1730.53
198.01	1736.68
198.23	1761.25
198.45	1742.82
198.67	1671.14
198.89	1769.44
199.11	1753.06
199.33	1710.05
199.55	1505.26
199.77	1628.14
199.99	1816.55
200.21	1732.58
200.43	1738.73
200.65	1626.09
200.87	1535.98
201.09	1755.11
201.31	1718.25
201.53	1769.44
201.75	1695.72
201.97	1691.62
202.19	1724.39
202.41	1708.01
202.63	1834.98
202.85	1759.21
203.07	1722.34
203.29	1773.54
203.51	1662.95
203.73	1693.67
203.95	1927.14
204.17	1697.77
204.39	1785.83
204.61	1724.39
204.83	1687.53
205.05	1800.16
205.27	1804.26
205.49	1832.93
205.71	1730.53
205.93	1648.61
206.15	1751.01
206.37	1677.29
206.59	1675.24
206.81	1724.39
207.03	1720.29
207.25	1615.85
207.47	1736.68
207.69	1699.81
207.91	1806.31
208.13	1759.21
208.34	1679.33
208.56	1679.33
208.78	1837.03
209.00	1605.61
209.22	1765.35
209.44	1626.09
209.66	1689.57
209.88	1714.15
210.10	1710.05
210.32	1632.23
210.54	1867.75
210.76	1708.01
210.98	1705.96
211.20	1648.61
211.42	1722.34
211.64	1769.44
211.86	1740.77
212.08	1771.49
212.30	1732.58
212.52	1685.48
212.74	1730.53
212.96	1689.57
213.17	1777.64
213.39	1705.96
213.61	1742.82
213.83	1789.92
214.05	1710.05
214.27	1759.21
214.49	1658.85
214.71	1648.61
214.93	1736.68
215.15	1722.34
215.37	1773.54
215.59	1581.03
215.81	1699.81
216.03	1798.12
216.24	1746.92
216.46	1693.67
216.68	1644.52
216.90	1804.26
217.12	1865.70
217.34	1701.86
217.56	1728.49
217.78	1806.31
218.00	1740.77
218.22	1796.07
218.44	1751.01
218.66	1689.57
218.87	1769.44
219.09	1726.44
219.31	1683.43
219.53	1740.77
219.75	1718.25
219.97	1751.01
220.19	1755.11
220.41	1671.14
220.63	1736.68
220.85	1773.54
221.06	1730.53
221.28	1806.31
221.50	1828.84
221.72	1689.57
221.94	1648.61
222.16	1748.97
222.38	1830.88
222.60	1777.64
222.82	1626.09
223.03	1804.26
223.25	1671.14
223.47	1716.20
223.69	1820.64
223.91	1775.59
224.13	1652.71
224.35	1734.63
224.57	1796.07
224.78	1665.00
225.00	1613.80
225.22	1712.10
225.44	1687.53
225.66	1720.29
225.88	1693.67
226.10	1791.97
226.32	1705.96
226.53	1816.55
226.75	1712.10
226.97	1703.91
227.19	1710.05
227.41	1615.85
227.63	1714.15
227.85	1638.38
228.06	1714.15
228.28	1726.44
228.50	1710.05
228.72	1689.57
228.94	1753.06
229.16	1636.33
229.37	1648.61
229.59	1705.96
229.81	1783.78
230.03	1720.29
230.25	1624.04
230.47	1693.67
230.69	1603.56
230.90	1757.16
231.12	1677.29
231.34	1771.49
231.56	1722.34
231.78	1718.25
232.00	1720.29
232.21	1769.44
232.43	1708.01
232.65	1621.99
232.87	1763.30
233.09	1638.38
233.30	1662.95
233.52	1722.34
233.74	1718.25
233.96	1705.96
234.18	1751.01
234.40	1689.57
234.61	1822.69
234.83	1601.51
235.05	1619.94
235.27	1791.97
235.49	1740.77
235.70	1718.25
235.92	1865.70
236.14	1740.77
236.36	1841.12
236.58	1624.04
236.79	1720.29
237.01	1738.73
237.23	1671.14
237.45	1773.54
237.67	1681.38
237.88	1771.49
238.10	1761.25
238.32	1693.67
238.54	1746.92
238.76	1691.62
238.97	1699.81
239.19	1681.38
239.41	1816.55
239.63	1816.55
239.85	1716.20
240.06	1720.29
240.28	1697.77
240.50	1814.50
240.72	1714.15
240.93	1673.19
241.15	1757.16
241.37	1728.49
241.59	1806.31
241.81	1681.38
242.02	1689.57
242.24	1712.10
242.46	1759.21
242.68	1669.09
242.89	1681.38
243.11	1804.26
243.33	1660.90
243.55	1708.01
243.76	1746.92
243.98	1751.01
244.20	1744.87
244.42	1681.38
244.64	1773.54
244.85	1665.00
245.07	1646.57
245.29	1820.64
245.51	1722.34
245.72	1757.16
245.94	1779.68
246.16	1759.21
246.38	1738.73
246.59	1695.72
246.81	1665.00
247.03	1814.50
247.24	1628.14
247.46	1689.57
247.68	1685.48
247.90	1720.29
248.11	1609.70
248.33	1828.84
248.55	1701.86
248.77	1669.09
248.98	1787.88
249.20	1816.55
249.42	1740.77
249.64	1665.00
249.85	1671.14
250.07	1681.38
250.29	1759.21
250.50	1705.96
250.72	1566.70
250.94	1734.63
251.16	1839.08
251.37	1746.92
251.59	1705.96
251.81	1740.77
252.02	1771.49
252.24	1685.48
252.46	1740.77
252.68	1654.76
252.89	1740.77
253.11	1589.22
253.33	1779.68
253.54	1742.82
253.76	1603.56
253.98	1736.68
254.20	1683.43
254.41	1624.04
254.63	1714.15
254.85	1662.95
255.06	1687.53
255.28	1693.67
255.50	1712.10
255.71	1724.39
255.93	1681.38
256.15	1660.90
256.36	1712.10
256.58	1679.33
256.80	1751.01
257.02	1677.29
257.23	1740.77
257.45	1693.67
257.67	1755.11
257.88	1726.44
258.10	1771.49
258.32	1691.62
258.53	1722.34
258.75	1783.78
258.97	1705.96
259.18	1681.38
259.40	1759.21
259.62	1839.08
259.83	1847.27
260.05	1771.49
260.27	1980.39
260.48	1767.40
260.70	1576.94
260.92	1652.71
261.13	1693.67
261.35	1753.06
261.57	1779.68
261.78	1683.43
262.00	1615.85
262.22	1681.38
262.43	1634.28
262.65	1667.05
262.86	1765.35
263.08	1845.22
263.30	1728.49
263.51	1544.17
263.73	1660.90
263.95	1740.77
264.16	1599.46
264.38	1701.86
264.60	1718.25
264.81	1742.82
265.03	1748.97
265.25	1714.15
265.46	1742.82
265.68	1759.21
265.89	1734.63
266.11	1648.61
266.33	1691.62
266.54	1748.97
266.76	1730.53
266.98	1794.02
267.19	1787.88
267.41	1755.11
267.62	1734.63
267.84	1677.29
268.06	1701.86
268.27	1695.72
268.49	1703.91
268.70	1736.68
268.92	1716.20
269.14	1671.14
269.35	1667.05
269.57	1681.38
269.79	1763.30
270.00	1615.85
270.22	1869.80
270.43	1642.47
270.65	1597.42
270.87	1800.16
271.08	1746.92
271.30	1736.68
271.51	1730.53
271.73	1701.86
271.95	1777.64
272.16	1697.77
272.38	1716.20
272.59	1695.72
272.81	1769.44
273.02	1767.40
273.24	1787.88
273.46	1818.60
273.67	1658.85
273.89	1667.05
274.10	1683.43
274.32	1798.12
274.54	1759.21
274.75	1742.82
274.97	1640.42
275.18	1689.57
275.40	1722.34
275.61	1757.16
275.83	1695.72
276.05	1701.86
276.26	1763.30
276.48	1673.19
276.69	1699.81
276.91	1615.85
277.12	1810.40
277.34	1679.33
277.55	1759.21
277.77	1675.24
277.99	1648.61
278.20	1697.77
278.42	1685.48
278.63	1669.09
278.85	1691.62
279.06	1671.14
279.28	1744.87
279.49	1757.16
279.71	1718.25
279.93	1660.90
280.14	1681.38
280.36	1662.95
280.57	1779.68
280.79	1828.84
281.00	1714.15
281.22	1730.53
281.43	1771.49
281.65	1595.37
281.86	1607.66
282.08	1765.35
282.29	1800.16
282.51	1662.95
282.73	1656.81
282.94	1642.47
283.16	1796.07
283.37	1781.73
283.59	1734.63
283.80	1738.73
284.02	1753.06
284.23	1802.21
284.45	1677.29
284.66	1646.57
284.88	1703.91
285.09	1742.82
285.31	1763.30
285.52	1697.77
285.74	1642.47
285.95	1740.77
286.17	1755.11
286.38	1734.63
286.60	1656.81
286.81	1597.42
287.03	1611.75
287.24	1738.73
287.46	1755.11
287.67	1654.76
287.89	1818.60
288.10	1617.90
288.32	1734.63
288.53	1787.88
288.75	1683.43
288.96	1714.15
289.18	1673.19
289.39	1701.86
289.61	1759.21
289.82	1861.60
290.04	1853.41
290.25	1671.14
290.47	1736.68
290.68	1665.00
290.90	1742.82
291.11	1619.94
291.33	1804.26
291.54	1697.77
291.76	1660.90
291.97	1689.57
292.18	1740.77
292.40	1759.21
292.61	1722.34
292.83	1880.04
293.04	1724.39
293.26	1693.67
293.47	1652.71
293.69	1673.19
293.90	1732.58
294.12	1773.54
294.33	1683.43
294.55	1736.68
294.76	1796.07
294.97	1794.02
295.19	1818.60
295.40	1726.44
295.62	1771.49
295.83	1751.01
296.05	1665.00
296.26	1736.68
296.48	1667.05
296.69	1779.68
296.90	1689.57
297.12	1738.73
297.33	1771.49
297.55	1681.38
297.76	1738.73
297.98	1767.40
298.19	1703.91
298.41	1681.38
298.62	1738.73
298.83	1794.02
299.05	1767.40
299.26	1789.92
299.48	1665.00
299.69	1775.59
299.90	1757.16
300.12	1673.19
300.33	1753.06
300.55	1673.19
300.76	1722.34
300.98	1669.09
301.19	1652.71
301.40	1673.19
301.62	1710.05
301.83	1701.86
302.05	1730.53
302.26	1701.86
302.47	1742.82
302.69	1675.24
302.90	1730.53
303.12	1624.04
303.33	1591.27
303.54	1828.84
303.76	1718.25
303.97	1648.61
304.19	1812.45
304.40	1636.33
304.61	1746.92
304.83	1730.53
305.04	1757.16
305.26	1759.21
305.47	1701.86
305.68	1665.00
305.90	1624.04
306.11	1783.78
306.33	1740.77
306.54	1699.81
306.75	1712.10
306.97	1660.90
307.18	1646.57
307.39	1677.29
307.61	1753.06
307.82	1660.90
308.04	1763.30
308.25	1697.77
308.46	1748.97
308.68	1654.76
308.89	1634.28
309.10	1759.21
309.32	1718.25
309.53	1699.81
309.74	1710.05
309.96	1724.39
310.17	1820.64
310.39	1662.95
310.60	1724.39
310.81	1724.39
311.03	1652.71
311.24	1791.97
311.45	1751.01
311.67	1867.75
311.88	1738.73
312.09	1652.71
312.31	1675.24
312.52	1646.57
312.73	1697.77
312.95	1603.56
313.16	1619.94
313.37	1779.68
313.59	1708.01
313.80	1845.22
314.01	1824.74
314.23	1677.29
314.44	1740.77
314.65	1671.14
314.87	1693.67
315.08	1746.92
315.29	1673.19
315.51	1630.18
315.72	1605.61
315.93	1837.03
316.15	1828.84
316.36	1675.24
316.57	1703.91
316.79	1759.21
317.00	1695.72
317.21	1667.05
317.43	1626.09
317.64	1677.29
317.85	1703.91
318.07	1685.48
318.28	1693.67
318.49	1869.80
318.70	1918.95
318.92	1877.99
319.13	1877.99
319.34	1841.12
319.56	1763.30
319.77	1798.12
319.98	1710.05
320.20	1771.49
320.41	1812.45
320.62	1769.44
320.83	1685.48
321.05	1816.55
321.26	1751.01
321.47	1724.39
321.69	1775.59
321.90	1626.09
322.11	1687.53
322.32	1736.68
322.54	1769.44
322.75	1740.77
322.96	1886.18
323.18	1636.33
323.39	1544.17
323.60	1646.57
323.81	1736.68
324.03	1677.29
324.24	1673.19
324.45	1748.97
324.66	1691.62
324.88	1767.40
325.09	1859.56
325.30	1644.52
325.52	1708.01
325.73	1767.40
325.94	1722.34
326.15	1564.65
326.37	1710.05
326.58	1738.73
326.79	1851.36
327.00	1626.09
327.22	1691.62
327.43	1693.67
327.64	1660.90
327.85	1775.59
328.07	1740.77
328.28	1767.40
328.49	1628.14
328.70	1701.86
328.92	1751.01
329.13	1685.48
329.34	1726.44
329.55	1761.25
329.76	1703.91
329.98	1642.47
330.19	1816.55
330.40	1785.83
330.61	1714.15
330.83	1751.01
331.04	1630.18
331.25	1609.70
331.46	1683.43
331.68	1634.28
331.89	1818.60
332.10	1748.97
332.31	1624.04
332.52	1701.86
332.74	1822.69
332.95	1658.85
333.16	1720.29
333.37	1781.73
333.58	1669.09
333.80	1730.53
334.01	1599.46
334.22	1703.91
334.43	1701.86
334.64	1722.34
334.86	1626.09
335.07	1650.66
335.28	1861.60
335.49	1669.09
335.70	1701.86
335.92	1800.16
336.13	1867.75
336.34	1761.25
336.55	1761.25
336.76	1671.14
336.98	1609.70
337.19	1673.19
337.40	1812.45
337.61	1857.51
337.82	1658.85
338.04	1779.68
338.25	1626.09
338.46	1708.01
338.67	1722.34
338.88	1667.05
339.09	1658.85
339.31	1601.51
339.52	1734.63
339.73	1751.01
339.94	1765.35
340.15	1734.63
340.36	1714.15
340.58	1716.20
340.79	1650.66
341.00	1806.31
341.21	1593.32
341.42	1834.98
341.63	1691.62
341.85	1667.05
342.06	1773.54
342.27	1744.87
342.48	1755.11
342.69	1619.94
342.90	1746.92
343.12	1716.20
343.33	1712.10
343.54	1832.93
343.75	1814.50
343.96	1804.26
344.17	1605.61
344.38	1669.09
344.60	1652.71
344.81	1656.81
345.02	1658.85
345.23	1746.92
345.44	1740.77
345.65	1767.40
345.86	1708.01
346.07	1781.73
346.29	1740.77
346.50	1722.34
346.71	1714.15
346.92	1759.21
347.13	1828.84
347.34	1712.10
347.55	1708.01
347.76	1708.01
347.98	1550.31
348.19	1705.96
348.40	1765.35
348.61	1675.24
348.82	1789.92
349.03	1755.11
349.24	1687.53
349.45	1783.78
349.66	1611.75
349.88	1624.04
350.09	1656.81
350.30	1753.06
350.51	1755.11
350.72	1765.35
350.93	1742.82
351.14	1632.23
351.35	1722.34
351.56	1603.56
351.77	1689.57
351.99	1812.45
352.20	1849.32
352.41	1775.59
352.62	1648.61
352.83	1808.36
353.04	1730.53
353.25	1722.34
353.46	1767.40
353.67	1763.30
353.88	1601.51
354.09	1710.05
354.30	1730.53
354.52	1740.77
354.73	1701.86
354.94	1691.62
355.15	1748.97
355.36	1771.49
355.57	1759.21
355.78	1632.23
355.99	1730.53
356.20	1699.81
356.41	1832.93
356.62	1722.34
356.83	1710.05
357.04	1722.34
357.25	1546.22
357.46	1683.43
357.68	1640.42
357.89	1583.08
358.10	1761.25
358.31	1712.10
358.52	1683.43
358.73	1632.23
358.94	1646.57
359.15	1646.57
359.36	1716.20
359.57	1748.97
359.78	1628.14
359.99	1734.63
360.20	1710.05
360.41	1730.53
360.62	1683.43
360.83	1714.15
361.04	1718.25
361.25	1783.78
361.46	1789.92
361.67	1730.53
361.88	1775.59
362.09	1712.10
362.30	1763.30
362.51	1697.77
362.72	1771.49
362.93	1806.31
363.14	1767.40
363.35	1710.05
363.56	1689.57
363.78	1716.20
363.99	1783.78
364.20	1656.81
364.41	1683.43
364.62	1828.84
364.83	1746.92
365.04	1701.86
365.25	1716.20
365.46	1845.22
365.67	1699.81
365.88	1673.19
366.09	1748.97
366.30	1619.94
366.51	1712.10
366.72	1703.91
366.93	1656.81
367.14	1710.05
367.35	1783.78
367.56	1765.35
367.77	1787.88
367.98	1771.49
368.18	1724.39
368.39	1705.96
368.60	1654.76
368.81	1785.83
369.02	1660.90
369.23	1679.33
369.44	1630.18
369.65	1652.71
369.86	1679.33
370.07	1794.02
370.28	1595.37
370.49	1755.11
370.70	1753.06
370.91	1679.33
371.12	1619.94
371.33	1732.58
371.54	1783.78
371.75	1820.64
371.96	1531.88
372.17	1693.67
372.38	1683.43
372.59	1796.07
372.80	1701.86
373.01	1607.66
373.22	1714.15
373.43	1796.07
373.64	1621.99
373.85	1861.60
374.06	1755.11
374.26	1648.61
374.47	1697.77
374.68	1818.60
374.89	1751.01
375.10	1708.01
375.31	1779.68
375.52	1738.73
375.73	1677.29
375.94	1652.71
376.15	1804.26
376.36	1683.43
376.57	1681.38
376.78	1677.29
376.99	1761.25
377.20	1755.11
377.40	1640.42
377.61	1763.30
377.82	1703.91
378.03	1765.35
378.24	1816.55
378.45	1738.73
378.66	1697.77
378.87	1619.94
379.08	1654.76
379.29	1703.91
379.50	1763.30
379.71	1669.09
379.91	1820.64
380.12	1697.77
380.33	1730.53
380.54	1708.01
380.75	1679.33
380.96	1701.86
381.17	1806.31
381.38	1777.64
381.59	1798.12
381.80	1761.25
382.00	1869.80
382.21	1677.29
382.42	1875.94
382.63	1886.18
382.84	1779.68
383.05	1791.97
383.26	1802.21
383.47	1720.29
383.68	1779.68
383.88	1730.53
384.09	1765.35
384.30	1773.54
384.51	1785.83
384.72	1685.48
384.93	1669.09
385.14	1734.63
385.35	1742.82
385.55	1679.33
385.76	1718.25
385.97	1617.90
386.18	1632.23
386.39	1619.94
386.60	1712.10
386.81	1669.09
387.02	1689.57
387.22	1718.25
387.43	1710.05
387.64	1822.69
387.85	1908.71
388.06	2217.95
388.27	4255.68
388.48	6678.43
388.68	8161.16
388.89	9639.79
389.10	9586.54
389.31	8568.70
389.52	7630.73
389.73	6623.13
389.93	6111.14
390.14	5652.39
390.35	5171.12
390.56	4532.15
390.77	3753.93
390.98	2998.23
391.18	2445.27
391.39	2074.59
391.60	1859.56
391.81	1884.13
392.02	1755.11
392.23	1882.08
392.43	1708.01
392.64	1761.25
392.85	1714.15
393.06	1794.02
393.27	1736.68
393.47	1728.49
393.68	1777.64
393.89	1681.38
394.10	1871.84
394.31	1714.15
394.52	1671.14
394.72	1734.63
394.93	1802.21
395.14	1683.43
395.35	1740.77
395.56	1660.90
395.76	1732.58
395.97	1814.50
396.18	1888.23
396.39	1849.32
396.60	2072.54
396.80	1898.47
397.01	1796.07
397.22	1820.64
397.43	1847.27
397.64	1845.22
397.84	1769.44
398.05	1771.49
398.26	1787.88
398.47	1832.93
398.67	1816.55
398.88	1724.39
399.09	1734.63
399.30	1744.87
399.51	1763.30
399.71	1671.14
399.92	1710.05
400.13	1773.54
400.34	1705.96
400.54	1730.53
400.75	1785.83
400.96	1712.10
401.17	1914.85
401.37	1759.21
401.58	1648.61
401.79	1769.44
402.00	1824.74
402.21	2021.35
402.41	1974.24
402.62	2021.35
402.83	1992.67
403.04	1945.57
403.24	2054.11
403.45	1837.03
403.66	1910.75
403.87	1906.66
404.07	1976.29
404.28	1896.42
404.49	1886.18
404.70	1886.18
404.90	1779.68
405.11	1761.25
405.32	1734.63
405.52	1634.28
405.73	1681.38
405.94	1603.56
406.15	1718.25
406.35	1767.40
406.56	1742.82
406.77	1708.01
406.98	1714.15
407.18	1660.90
407.39	1804.26
407.60	1710.05
407.80	1767.40
408.01	1650.66
408.22	1734.63
408.43	1746.92
408.63	1728.49
408.84	1773.54
409.05	1847.27
409.25	1642.47
409.46	1693.67
409.67	1779.68
409.88	1742.82
410.08	1740.77
410.29	1699.81
410.50	1761.25
410.70	1757.16
410.91	1683.43
411.12	1796.07
411.32	1734.63
411.53	1716.20
411.74	1800.16
411.95	1806.31
412.15	1765.35
412.36	1785.83
412.57	1757.16
412.77	1791.97
412.98	1718.25
413.19	1783.78
413.39	1710.05
413.60	1794.02
413.81	1867.75
414.01	1667.05
414.22	1744.87
414.43	1781.73
414.63	1693.67
414.84	1771.49
415.05	1679.33
415.25	1654.76
415.46	1701.86
415.67	1681.38
415.87	1798.12
416.08	1757.16
416.29	1669.09
416.49	1734.63
416.70	1673.19
416.91	1720.29
417.11	1667.05
417.32	1822.69
417.53	1808.36
417.73	1769.44
417.94	1718.25
418.15	1691.62
418.35	1775.59
418.56	1763.30
418.77	1824.74
418.97	1734.63
419.18	1718.25
419.38	1611.75
419.59	1740.77
419.80	1808.36
420.00	1658.85
420.21	1767.40
420.42	1814.50
420.62	1734.63
420.83	1683.43
421.04	1738.73
421.24	1736.68
421.45	1804.26
421.65	1724.39
421.86	1587.18
422.07	1783.78
422.27	1759.21
422.48	1720.29
422.69	1601.51
422.89	1728.49
423.10	1738.73
423.30	1693.67
423.51	1714.15
423.72	1673.19
423.92	1746.92
424.13	1683.43
424.33	1722.34
424.54	1781.73
424.75	1675.24
424.95	1798.12
425.16	1714.15
425.36	1658.85
425.57	1857.51
425.78	1697.77
425.98	1771.49
426.19	1759.21
426.39	1671.14
426.60	1705.96
426.81	1781.73
427.01	1695.72
427.22	1665.00
427.42	1716.20
427.63	1705.96
427.83	1710.05
428.04	1773.54
428.25	1728.49
428.45	1777.64
428.66	1767.40
428.86	1716.20
429.07	1724.39
429.28	1773.54
429.48	1697.77
429.69	1708.01
429.89	1740.77
430.10	1669.09
430.30	1683.43
430.51	1796.07
430.71	1660.90
430.92	1810.40
431.13	1648.61
431.33	1724.39
431.54	1773.54
431.74	1877.99
431.95	1841.12
432.15	1712.10
432.36	1761.25
432.56	1753.06
432.77	1828.84
432.98	1781.73
433.18	1705.96
433.39	1691.62
433.59	1716.20
433.80	1845.22
434.00	1914.85
434.21	1697.77
434.41	1619.94
434.62	1826.79
434.82	1607.66
435.03	1673.19
435.23	1759.21
435.44	1658.85
435.64	1701.86
435.85	1775.59
436.06	1746.92
436.26	1732.58
436.47	1681.38
436.67	1712.10
436.88	1699.81
437.08	1761.25
437.29	1861.60
437.49	1626.09
437.70	1789.92
437.90	1763.30
438.11	1923.04
438.31	1673.19
438.52	1861.60
438.72	1789.92
438.93	1955.81
439.13	1783.78
439.34	1808.36
439.54	1755.11
439.75	1841.12
439.95	1832.93
440.16	1798.12
440.36	1757.16
440.57	1834.98
440.77	1794.02
440.98	1753.06
441.18	1734.63
441.39	1687.53
441.59	1705.96
441.80	1894.37
442.00	1726.44
442.21	1837.03
442.41	1667.05
442.62	1714.15
442.82	1691.62
443.02	1771.49
443.23	1691.62
443.43	1828.84
443.64	1732.58
443.84	1683.43
444.05	1779.68
444.25	1761.25
444.46	1765.35
444.66	1683.43
444.87	1863.65
445.07	1667.05
445.28	1767.40
445.48	1777.64
445.69	1757.16
445.89	1953.76
446.09	1720.29
446.30	2015.20
446.50	2588.63
446.71	3712.97
446.91	4321.21
447.12	4714.42
447.32	4859.83
447.53	4237.25
447.73	3827.65
447.93	3499.98
448.14	3213.26
448.34	3276.75
448.55	2799.57
448.75	2865.11
448.96	2680.79
449.16	2455.51
449.36	2355.16
449.57	2125.79
449.77	1957.86
449.98	1802.21
450.18	1781.73
450.39	1800.16
450.59	1787.88
450.79	1732.58
451.00	1708.01
451.20	1816.55
451.41	1736.68
451.61	1722.34
451.81	1783.78
452.02	1642.47
452.22	1751.01
452.43	1683.43
452.63	1693.67
452.84	1705.96
453.04	1720.29
453.24	1759.21
453.45	1710.05
453.65	1755.11
453.86	1779.68
454.06	1822.69
454.26	1755.11
454.47	1685.48
454.67	1785.83
454.87	1767.40
455.08	1771.49
455.28	1896.42
455.49	1765.35
455.69	1726.44
455.89	1896.42
456.10	1834.98
456.30	1650.66
456.51	1800.16
456.71	1826.79
456.91	1736.68
457.12	1710.05
457.32	1816.55
457.52	1759.21
457.73	1763.30
457.93	1828.84
458.14	1720.29
458.34	1607.66
458.54	1701.86
458.75	1726.44
458.95	1867.75
459.15	1777.64
459.36	1736.68
459.56	1796.07
459.76	1763.30
459.97	1734.63
460.17	1748.97
460.37	1771.49
460.58	1785.83
460.78	1699.81
460.99	1736.68
461.19	1769.44
461.39	1693.67
461.60	1701.86
461.80	1886.18
462.00	1642.47
462.21	1660.90
462.41	1814.50
462.61	1708.01
462.82	1681.38
463.02	1851.36
463.22	1816.55
463.43	1777.64
463.63	1791.97
463.83	1757.16
464.04	1716.20
464.24	1767.40
464.44	1677.29
464.64	1728.49
464.85	1832.93
465.05	1761.25
465.25	1619.94
465.46	1744.87
465.66	1742.82
465.86	1687.53
466.07	1839.08
466.27	1734.63
466.47	1705.96
466.68	1679.33
466.88	1783.78
467.08	1798.12
467.29	1724.39
467.49	1779.68
467.69	1708.01
467.89	1720.29
468.10	1753.06
468.30	1781.73
468.50	1791.97
468.71	1871.84
468.91	1585.13
469.11	1837.03
469.31	1769.44
469.52	1675.24
469.72	1834.98
469.92	1906.66
470.13	1695.72
470.33	1800.16
470.53	1800.16
470.73	2142.18
470.94	2293.72
471.14	2301.92
471.34	2512.86
471.54	2435.03
471.75	2238.43
471.95	2226.14
472.15	2066.40
472.36	2125.79
472.56	2090.98
472.76	2004.96
472.96	1986.53
473.17	1955.81
473.37	1923.04
473.57	1763.30
473.77	1896.42
473.98	1818.60
474.18	1757.16
474.38	1959.91
474.58	1767.40
474.79	1679.33
474.99	1810.40
475.19	1812.45
475.39	1699.81
475.60	1837.03
475.80	1791.97
476.00	1751.01
476.20	1665.00
476.41	1742.82
476.61	1851.36
476.81	1767.40
477.01	1665.00
477.21	1791.97
477.42	1894.37
477.62	1646.57
477.82	1791.97
478.02	1722.34
478.23	1658.85
478.43	1671.14
478.63	1757.16
478.83	1736.68
479.03	1804.26
479.24	1810.40
479.44	1755.11
479.64	1763.30
479.84	1603.56
480.04	1720.29
480.25	1779.68
480.45	1669.09
480.65	1687.53
480.85	1843.17
481.06	1730.53
481.26	1781.73
481.46	1759.21
481.66	1767.40
481.86	1660.90
482.06	1812.45
482.27	1720.29
482.47	1714.15
482.67	1724.39
482.87	1753.06
483.07	1781.73
483.28	1738.73
483.48	1648.61
483.68	1830.88
483.88	1689.57
484.08	1710.05
484.29	1628.14
484.49	1753.06
484.69	1669.09
484.89	1798.12
485.09	1746.92
485.29	1769.44
485.50	1714.15
485.70	1718.25
485.90	1775.59
486.10	1748.97
486.30	1736.68
486.50	1695.72
486.71	1779.68
486.91	1791.97
487.11	1730.53
487.31	1603.56
487.51	1767.40
487.71	1619.94
487.91	1626.09
488.12	1742.82
488.32	1656.81
488.52	1701.86
488.72	1615.85
488.92	1757.16
489.12	1837.03
489.32	1802.21
489.53	1839.08
489.73	1638.38
489.93	1808.36
490.13	1714.15
490.33	1628.14
490.53	1839.08
490.73	1875.94
490.94	1660.90
491.14	1783.78
491.34	1855.46
491.54	2074.59
491.74	2613.21
491.94	2955.22
492.14	3057.62
492.34	2994.13
492.54	2805.72
492.75	2453.47
492.95	2441.18
493.15	2301.92
493.35	2324.44
493.55	2140.13
493.75	2148.32
493.95	2181.09
494.15	2033.63
494.35	1939.43
494.56	1847.27
494.76	1847.27
494.96	1771.49
495.16	1841.12
495.36	1755.11
495.56	1763.30
495.76	1740.77
495.96	1724.39
496.16	1695.72
496.36	1820.64
496.56	1785.83
496.77	1714.15
496.97	1705.96
497.17	1802.21
497.37	1621.99
497.57	1779.68
497.77	1718.25
497.97	1703.91
498.17	1738.73
498.37	1701.86
498.57	1710.05
498.77	1662.95
498.97	1738.73
499.17	1828.84
499.38	1701.86
499.58	1785.83
499.78	1777.64
499.98	1816.55
500.18	1753.06
500.38	1697.77
500.58	1918.95
500.78	2559.96
500.98	4450.24
501.18	5705.64
501.38	6729.63
501.58	6983.57
501.78	6823.83
501.98	5572.52
502.18	4919.22
502.38	4327.36
502.58	4184.00
502.78	3723.21
502.98	3706.82
503.18	3409.87
503.38	3012.56
503.59	2863.06
503.79	2602.97
503.99	2521.05
504.19	2273.25
504.39	2172.89
504.59	2185.18
504.79	2166.75
504.99	2004.96
505.19	1898.47
505.39	1877.99
505.59	2002.91
505.79	1931.23
505.99	1812.45
506.19	1767.40
506.39	1900.52
506.59	1753.06
506.79	1740.77
506.99	1828.84
507.19	1802.21
507.39	1720.29
507.59	1714.15
507.79	1673.19
507.99	1767.40
508.19	1685.48
508.39	1701.86
508.59	1775.59
508.79	1839.08
508.99	1789.92
509.19	1812.45
509.39	1779.68
509.59	1681.38
509.79	1708.01
509.99	1802.21
510.19	1759.21
510.39	1761.25
510.59	1761.25
510.79	1726.44
510.99	1701.86
511.19	1806.31
511.39	1857.51
511.59	1806.31
511.79	1869.80
511.99	1693.67
512.19	1834.98
512.38	1730.53
512.58	1705.96
512.78	1765.35
512.98	1808.36
513.18	1794.02
513.38	1619.94
513.58	1779.68
513.78	1712.10
513.98	1742.82
514.18	1728.49
514.38	1710.05
514.58	1689.57
514.78	1742.82
514.98	1624.04
515.18	1785.83
515.38	1695.72
515.58	1822.69
515.78	1726.44
515.98	1757.16
516.18	1783.78
516.38	1740.77
516.57	1781.73
516.77	1724.39
516.97	1724.39
517.17	1738.73
517.37	1693.67
517.57	1837.03
517.77	1812.45
517.97	1669.09
518.17	1818.60
518.37	1701.86
518.57	1652.71
518.77	1748.97
518.97	1679.33
519.16	1802.21
519.36	1810.40
519.56	1695.72
519.76	1701.86
519.96	1804.26
520.16	1865.70
520.36	1732.58
520.56	1787.88
520.76	1777.64
520.96	1708.01
521.16	1789.92
521.35	1775.59
521.55	1845.22
521.75	1804.26
521.95	1710.05
522.15	1751.01
522.35	1605.61
522.55	1716.20
522.75	1843.17
522.95	1710.05
523.14	1679.33
523.34	1773.54
523.54	1685.48
523.74	1818.60
523.94	1808.36
524.14	1679.33
524.34	1738.73
524.54	1871.84
524.73	1740.77
524.93	1785.83
525.13	1732.58
525.33	1677.29
525.53	1839.08
525.73	1753.06
525.93	1740.77
526.13	1687.53
526.32	1753.06
526.52	1843.17
526.72	1824.74
526.92	1699.81
527.12	1742.82
527.32	1712.10
527.52	1705.96
527.71	1804.26
527.91	1755.11
528.11	1705.96
528.31	1746.92
528.51	1669.09
528.71	1736.68
528.90	1742.82
529.10	1777.64
529.30	1806.31
529.50	1570.79
529.70	1763.30
529.90	1755.11
530.09	1834.98
530.29	1732.58
530.49	1708.01
530.69	1904.61
530.89	1734.63
531.09	1785.83
531.28	1769.44
531.48	1789.92
531.68	1769.44
531.88	1806.31
532.08	1755.11
532.28	1734.63
532.47	1783.78
532.67	1841.12
532.87	1746.92
533.07	1783.78
533.27	1794.02
533.46	1820.64
533.66	1773.54
533.86	1751.01
534.06	1755.11
534.26	1665.00
534.45	1767.40
534.65	1730.53
534.85	1712.10
535.05	1697.77
535.25	1828.84
535.44	1712.10
535.64	1761.25
535.84	1746.92
536.04	1744.87
536.24	1783.78
536.43	1675.24
536.63	1798.12
536.83	1705.96
537.03	1701.86
537.22	1644.52
537.42	1691.62
537.62	1673.19
537.82	1728.49
538.02	1828.84
538.21	1847.27
538.41	1859.56
538.61	1824.74
538.81	1736.68
539.00	1796.07
539.20	1648.61
539.40	1722.34
539.60	1779.68
539.79	1796.07
539.99	1757.16
540.19	1763.30
540.39	1818.60
540.58	1748.97
540.78	1845.22
540.98	1724.39
541.18	1863.65
541.37	1855.46
541.57	1753.06
541.77	1804.26
541.97	1683.43
542.16	1695.72
542.36	1787.88
542.56	1732.58
542.76	1859.56
542.95	1755.11
543.15	1791.97
543.35	1773.54
543.54	1654.76
543.74	1785.83
543.94	1761.25
544.14	1718.25
544.33	1769.44
544.53	1742.82
544.73	1744.87
544.93	1669.09
545.12	1724.39
545.32	1755.11
545.52	1738.73
545.71	1667.05
545.91	1691.62
546.11	1748.97
546.30	1656.81
546.50	1765.35
546.70	1839.08
546.90	1765.35
547.09	1626.09
547.29	1767.40
547.49	1791.97
547.68	1759.21
547.88	1703.91
548.08	1824.74
548.27	2205.66
548.47	1751.01
548.67	1697.77
548.87	1808.36
549.06	1744.87
549.26	1839.08
549.46	1732.58
549.65	1703.91
549.85	1681.38
550.05	1808.36
550.24	1695.72
550.44	1744.87
550.64	1689.57
550.83	1779.68
551.03	1796.07
551.23	1828.84
551.42	1771.49
551.62	1744.87
551.82	1716.20
552.01	1710.05
552.21	1798.12
552.41	1779.68
552.60	1857.51
552.80	1812.45
553.00	1687.53
553.19	1767.40
553.39	1798.12
553.59	1648.61
553.78	1777.64
553.98	1812.45
554.17	1681.38
554.37	1798.12
554.57	1816.55
554.76	1650.66
554.96	1740.77
555.16	1669.09
555.35	1787.88
555.55	1744.87
555.75	1730.53
555.94	1779.68
556.14	1708.01
556.33	1812.45
556.53	1685.48
556.73	1705.96
556.92	1791.97
557.12	1871.84
557.32	1798.12
557.51	1771.49
557.71	1742.82
557.90	1882.08
558.10	1865.70
558.30	1730.53
558.49	1716.20
558.69	1730.53
558.88	1767.40
559.08	1755.11
559.28	1771.49
559.47	1744.87
559.67	1716.20
559.86	1890.28
560.06	1837.03
560.26	1683.43
560.45	1785.83
560.65	1677.29
560.84	1847.27
561.04	1656.81
561.24	1720.29
561.43	1662.95
561.63	1867.75
561.82	1779.68
562.02	1759.21
562.22	1783.78
562.41	1708.01
562.61	1689.57
562.80	1730.53
563.00	1857.51
563.19	1794.02
563.39	1736.68
563.59	1708.01
563.78	1746.92
563.98	1705.96
564.17	1759.21
564.37	1609.70
564.56	1753.06
564.76	1667.05
564.96	1771.49
565.15	1832.93
565.35	1920.99
565.54	1730.53
565.74	1804.26
565.93	1832.93
566.13	1771.49
566.32	1787.88
566.52	1748.97
566.71	1804.26
566.91	1812.45
567.11	1771.49
567.30	1724.39
567.50	1849.32
567.69	1869.80
567.89	1679.33
568.08	1705.96
568.28	1808.36
568.47	1755.11
568.67	1794.02
568.86	1744.87
569.06	1796.07
569.25	1787.88
569.45	1740.77
569.64	1761.25
569.84	1726.44
570.04	1767.40
570.23	1695.72
570.43	1755.11
570.62	1751.01
570.82	1865.70
571.01	1669.09
571.21	1705.96
571.40	1697.77
571.60	1824.74
571.79	1812.45
571.99	1681.38
572.18	1703.91
572.38	1759.21
572.57	1665.00
572.77	1796.07
572.96	1914.85
573.16	1689.57
573.35	1769.44
573.55	1794.02
573.74	1783.78
573.94	1669.09
574.13	1734.63
574.33	1798.12
574.52	1812.45
574.71	1751.01
574.91	1783.78
575.10	1673.19
575.30	1693.67
575.49	1695.72
575.69	1650.66
575.88	1736.68
576.08	1730.53
576.27	1816.55
576.47	1761.25
576.66	1779.68
576.86	1843.17
577.05	1808.36
577.25	1783.78
577.44	1902.56
577.64	1742.82
577.83	1798.12
578.02	1738.73
578.22	1863.65
578.41	1814.50
578.61	1767.40
578.80	1667.05
579.00	1687.53
579.19	1765.35
579.39	1814.50
579.58	1742.82
579.77	1779.68
579.97	1867.75
580.16	1834.98
580.36	1818.60
580.55	1877.99
580.75	1787.88
580.94	1775.59
581.13	1908.71
581.33	1855.46
581.52	1767.40
581.72	1906.66
581.91	1898.47
582.11	1724.39
582.30	1806.31
582.49	1771.49
582.69	1820.64
582.88	1857.51
583.08	1837.03
583.27	1830.88
583.47	1812.45
583.66	1751.01
583.85	1728.49
584.05	1798.12
584.24	1810.40
584.44	1806.31
584.63	1800.16
584.82	1837.03
585.02	1865.70
585.21	1834.98
585.41	1751.01
585.60	1798.12
585.79	1951.71
585.99	1998.82
586.18	1841.12
586.37	2156.51
586.57	3305.42
586.76	9793.39
586.96	23996.05
587.15	33771.00
587.34	39626.15
587.54	41600.39
587.73	36160.98
587.93	26070.64
588.12	21225.15
588.31	18159.34
588.51	16103.18
588.70	15021.85
588.89	13793.07
589.09	12595.01
589.28	11163.48
589.47	9168.76
589.67	7681.93
589.86	6424.48
590.06	4802.49
590.25	3909.57
590.44	3006.42
590.64	2607.06
590.83	2203.61
591.02	2066.40
591.22	2019.30
591.41	1898.47
591.60	1837.03
591.80	1976.29
591.99	1787.88
592.18	1877.99
592.38	1849.32
592.57	1755.11
592.76	1724.39
592.96	1742.82
593.15	1767.40
593.34	1861.60
593.54	1767.40
593.73	1847.27
593.92	1804.26
594.12	1712.10
594.31	1742.82
594.50	1826.79
594.70	1810.40
594.89	1927.14
595.08	1687.53
595.28	1744.87
595.47	1916.90
595.66	1798.12
595.86	1734.63
596.05	1699.81
596.24	1787.88
596.43	1931.23
596.63	1818.60
596.82	1724.39
597.01	1806.31
597.21	1869.80
597.40	1812.45
597.59	1718.25
597.79	1826.79
597.98	1771.49
598.17	1781.73
598.36	1794.02
598.56	1730.53
598.75	1722.34
598.94	1746.92
599.14	1771.49
599.33	1712.10
599.52	1837.03
599.71	1814.50
599.91	1775.59
600.10	1810.40
600.29	1755.11
600.48	1837.03
600.68	1767.40
600.87	1779.68
601.06	1660.90
601.26	1671.14
601.45	1734.63
601.64	1794.02
601.83	1822.69
602.03	1744.87
602.22	1648.61
602.41	1763.30
602.60	1806.31
602.80	1748.97
602.99	1781.73
603.18	1703.91
603.37	1863.65
603.57	1800.16
603.76	1837.03
603.95	1814.50
604.14	1751.01
604.34	1679.33
604.53	1742.82
604.72	1732.58
604.91	1751.01
605.10	1773.54
605.30	1689.57
605.49	1820.64
605.68	1798.12
605.87	1818.60
606.07	1699.81
606.26	1734.63
606.45	1685.48
606.64	1685.48
606.84	1742.82
607.03	1740.77
607.22	1787.88
607.41	1712.10
607.60	1751.01
607.80	1804.26
607.99	1716.20
608.18	1744.87
608.37	1634.28
608.56	1726.44
608.76	1802.21
608.95	1849.32
609.14	1689.57
609.33	1785.83
609.52	1775.59
609.72	1683.43
609.91	1839.08
610.10	1755.11
610.29	1853.41
610.48	1791.97
610.68	1837.03
610.87	1751.01
611.06	1730.53
611.25	1746.92
611.44	1738.73
611.63	1730.53
611.83	1794.02
612.02	1679.33
612.21	1818.60
612.40	1597.42
612.59	1677.29
612.79	1689.57
612.98	1787.88
613.17	1808.36
613.36	1746.92
613.55	1798.12
613.74	1644.52
613.93	1656.81
614.13	1677.29
614.32	1742.82
614.51	1789.92
614.70	1708.01
614.89	1705.96
615.08	1810.40
615.28	2043.87
615.47	1716.20
615.66	1751.01
615.85	1665.00
616.04	1820.64
616.23	1781.73
616.42	1757.16
616.62	1767.40
616.81	1730.53
617.00	1751.01
617.19	1828.84
617.38	1638.38
617.57	1724.39
617.76	1767.40
617.95	1755.11
618.15	1697.77
618.34	1751.01
618.53	1683.43
618.72	1863.65
618.91	1910.75
619.10	1873.89
619.29	1744.87
619.48	1763.30
619.68	1683.43
619.87	1746.92
620.06	1667.05
620.25	1832.93
620.44	1724.39
620.63	1679.33
620.82	1708.01
621.01	1730.53
621.20	1738.73
621.39	1738.73
621.59	1816.55
621.78	1730.53
621.97	1730.53
622.16	1796.07
622.35	1703.91
622.54	1828.84
622.73	1787.88
622.92	1628.14
623.11	1796.07
623.30	1656.81
623.49	1730.53
623.68	1638.38
623.88	1808.36
624.07	1697.77
624.26	1726.44
624.45	1728.49
624.64	1685.48
624.83	1705.96
625.02	1697.77
625.21	1787.88
625.40	1769.44
625.59	1751.01
625.78	1783.78
625.97	1726.44
626.16	1824.74
626.35	1820.64
626.54	1718.25
626.74	1861.60
626.93	1693.67
627.12	1730.53
627.31	1812.45
627.50	1748.97
627.69	1763.30
627.88	1648.61
628.07	1720.29
628.26	1662.95
628.45	1640.42
628.64	1689.57
628.83	1728.49
629.02	1697.77
629.21	1798.12
629.40	1742.82
629.59	1726.44
629.78	1800.16
629.97	1730.53
630.16	1705.96
630.35	1679.33
630.54	1691.62
630.73	1736.68
630.92	1845.22
631.11	1726.44
631.30	1699.81
631.49	1765.35
631.68	1714.15
631.87	1759.21
632.06	1679.33
632.25	1839.08
632.44	1689.57
632.63	1748.97
632.82	1712.10
633.01	1718.25
633.20	1705.96
633.39	1701.86
633.58	1673.19
633.77	1705.96
633.96	1767.40
634.15	1748.97
634.34	1746.92
634.53	1806.31
634.72	1687.53
634.91	1691.62
635.10	1710.05
635.29	1785.83
635.48	1740.77
635.67	1660.90
635.86	1691.62
636.05	1832.93
636.24	1742.82
636.43	1722.34
636.62	1755.11
636.81	1540.07
637.00	1781.73
637.19	1785.83
637.38	1662.95
637.57	1689.57
637.76	1734.63
637.95	1800.16
638.14	1710.05
638.33	1710.05
638.52	1732.58
638.71	1656.81
638.89	1689.57
639.08	1845.22
639.27	1730.53
639.46	1710.05
639.65	1810.40
639.84	1761.25
640.03	1755.11
640.22	1773.54
640.41	1816.55
640.60	1683.43
640.79	1841.12
640.98	1728.49
641.17	1791.97
641.36	1716.20
641.55	1783.78
641.74	1671.14
641.92	1710.05
642.11	1673.19
642.30	1712.10
642.49	1587.18
642.68	1732.58
642.87	1761.25
643.06	1744.87
643.25	1644.52
643.44	1617.90
643.63	1732.58
643.82	1685.48
644.00	1636.33
644.19	1728.49
644.38	1654.76
644.57	1732.58
644.76	1775.59
644.95	1708.01
645.14	1738.73
645.33	1757.16
645.52	1689.57
645.71	1642.47
645.89	1660.90
646.08	1783.78
646.27	1718.25
646.46	1748.97
646.65	1673.19
646.84	1716.20
647.03	1675.24
647.22	1708.01
647.40	1785.83
647.59	1722.34
647.78	1589.22
647.97	1722.34
648.16	1677.29
648.35	1828.84
648.54	1800.16
648.73	1767.40
648.91	1781.73
649.10	1773.54
649.29	1650.66
649.48	1730.53
649.67	1716.20
649.86	1712.10
650.05	1714.15
650.23	1775.59
650.42	1665.00
650.61	1800.16
650.80	1748.97
650.99	1744.87
651.18	1763.30
651.36	1791.97
651.55	1785.83
651.74	1757.16
651.93	1724.39
652.12	1712.10
652.31	1765.35
652.49	1685.48
652.68	1703.91
652.87	1746.92
653.06	1703.91
653.25	1830.88
653.44	1736.68
653.62	1880.04
653.81	1718.25
654.00	1771.49
654.19	1779.68
654.38	1943.52
654.56	1767.40
654.75	1701.86
654.94	1722.34
655.13	1662.95
655.32	1748.97
655.51	1761.25
655.69	1730.53
655.88	1845.22
656.07	1714.15
656.26	1710.05
656.45	1599.46
656.63	1662.95
656.82	1779.68
657.01	1755.11
657.20	1660.90
657.38	1787.88
657.57	1689.57
657.76	1677.29
657.95	1822.69
658.14	1722.34
658.32	1834.98
658.51	1689.57
658.70	1738.73
658.89	1722.34
659.08	1699.81
659.26	1773.54
659.45	1662.95
659.64	1775.59
659.83	1703.91
660.01	1869.80
660.20	1779.68
660.39	1853.41
660.58	1593.32
660.76	1751.01
660.95	1642.47
661.14	1724.39
661.33	1671.14
661.51	1689.57
661.70	1759.21
661.89	1736.68
662.08	1738.73
662.26	1685.48
662.45	1738.73
662.64	1898.47
662.83	1777.64
663.01	1640.42
663.20	1703.91
663.39	1824.74
663.58	1791.97
663.76	1722.34
663.95	1814.50
664.14	1662.95
664.32	1761.25
664.51	1667.05
664.70	1650.66
664.89	1794.02
665.07	1665.00
665.26	1773.54
665.45	1660.90
665.64	1791.97
665.82	1722.34
666.01	1820.64
666.20	1665.00
666.38	1824.74
666.57	1806.31
666.76	2197.47
666.95	4472.76
667.13	10342.24
667.32	15193.88
667.51	17884.91
667.69	18704.10
667.88	17688.31
668.07	12207.94
668.25	9346.93
668.44	8040.33
668.63	7274.38
668.81	6743.96
669.00	6176.67
669.19	5746.60
669.38	5060.53
669.56	4505.53
669.75	3893.19
669.94	3434.44
670.12	2891.73
670.31	2619.35
670.50	2258.91
670.68	2045.92
670.87	1927.14
671.06	1851.36
671.24	1824.74
671.43	1847.27
671.62	1685.48
671.80	1652.71
671.99	1746.92
672.18	1802.21
672.36	1824.74
672.55	1624.04
672.74	1761.25
672.92	1703.91
673.11	1787.88
673.29	1662.95
673.48	1691.62
673.67	1644.52
673.85	1851.36
674.04	1646.57
674.23	1742.82
674.41	1841.12
674.60	1644.52
674.79	1576.94
674.97	1724.39
675.16	1730.53
675.34	1816.55
675.53	1677.29
675.72	1689.57
675.90	1828.84
676.09	1673.19
676.28	1759.21
676.46	1617.90
676.65	1716.20
676.83	1710.05
677.02	1716.20
677.21	1757.16
677.39	1685.48
677.58	1667.05
677.77	1757.16
677.95	1636.33
678.14	1628.14
678.32	1691.62
678.51	1724.39
678.70	1820.64
678.88	1689.57
679.07	1716.20
679.25	1761.25
679.44	1753.06
679.63	1650.66
679.81	1724.39
680.00	1814.50
680.18	1773.54
680.37	1820.64
680.55	1742.82
680.74	1669.09
680.93	1720.29
681.11	1802.21
681.30	1773.54
681.48	1671.14
681.67	1677.29
681.85	1734.63
682.04	1718.25
682.23	1810.40
682.41	1720.29
682.60	1710.05
682.78	1769.44
682.97	1683.43
683.15	1714.15
683.34	1759.21
683.53	1804.26
683.71	1712.10
683.90	1837.03
684.08	1888.23
684.27	1712.10
684.45	1685.48
684.64	1738.73
684.82	1595.37
685.01	1746.92
685.19	1691.62
685.38	1759.21
685.57	1738.73
685.75	1708.01
685.94	1712.10
686.12	1634.28
686.31	1613.80
686.49	1820.64
686.68	1648.61
686.86	1740.77
687.05	1697.77
687.23	1822.69
687.42	1677.29
687.60	1638.38
687.79	1689.57
687.97	1800.16
688.16	1800.16
688.34	1843.17
688.53	1689.57
688.71	1753.06
688.90	1808.36
689.08	1724.39
689.27	1667.05
689.45	1820.64
689.64	1718.25
689.82	1726.44
690.01	1785.83
690.19	1802.21
690.38	1677.29
690.56	1771.49
690.75	1720.29
690.93	1646.57
691.12	1681.38
691.30	1730.53
691.49	1685.48
691.67	1675.24
691.86	1714.15
692.04	1783.78
692.23	1632.23
692.41	1804.26
692.60	1853.41
692.78	1722.34
692.97	1632.23
693.15	1697.77
693.34	1824.74
693.52	1773.54
693.71	1728.49
693.89	1675.24
694.08	1740.77
694.26	1742.82
694.44	1763.30
694.63	1714.15
694.81	1710.05
695.00	1656.81
695.18	1843.17
695.37	1867.75
695.55	1714.15
695.74	1746.92
695.92	1675.24
696.10	1802.21
696.29	1619.94
696.47	1691.62
696.66	1632.23
696.84	1652.71
697.03	1679.33
697.21	1824.74
697.40	2379.74
697.58	1751.01
697.76	1808.36
697.95	1730.53
698.13	1660.90
698.32	1699.81
698.50	1746.92
698.68	1802.21
698.87	1779.68
699.05	1787.88
699.24	1777.64
699.42	1724.39
699.61	1693.67
699.79	1757.16
699.97	1656.81
700.16	1695.72
700.34	1710.05
700.53	1816.55
700.71	1847.27
700.89	1742.82
701.08	1673.19
701.26	1695.72
701.45	2041.82
701.63	1697.77
701.81	1671.14
702.00	1689.57
702.18	1757.16
702.37	1722.34
702.55	1748.97
702.73	1685.48
702.92	1572.84
703.10	1712.10
703.28	1757.16
703.47	1617.90
703.65	1779.68
703.84	1791.97
704.02	1748.97
704.20	1837.03
704.39	1679.33
704.57	1738.73
704.75	1767.40
704.94	1757.16
705.12	1728.49
705.30	1808.36
705.49	2275.29
705.67	4519.87
705.86	9541.49
706.04	12445.51
706.22	14251.81
706.41	15101.72
706.59	13518.64
706.77	9375.60
706.96	7305.10
707.14	6426.53
707.32	5932.97
707.51	5478.32
707.69	4835.25
707.87	4050.88
708.06	3497.93
708.24	2918.36
708.42	2402.27
708.61	2236.38
708.79	1953.76
708.97	1902.56
709.16	1859.56
709.34	1789.92
709.52	1806.31
709.71	1708.01
709.89	1781.73
710.07	1658.85
710.26	1660.90
710.44	1744.87
710.62	1759.21
710.80	1671.14
710.99	1767.40
711.17	1798.12
711.35	1730.53
711.54	1722.34
711.72	1800.16
711.90	1736.68
712.09	1771.49
712.27	1695.72
712.45	1761.25
712.63	1624.04
712.82	1656.81
713.00	1708.01
713.18	1808.36
713.37	1857.51
713.55	1783.78
713.73	1652.71
713.91	1812.45
714.10	1628.14
714.28	1689.57
714.46	1751.01
714.65	1726.44
714.83	1740.77
715.01	1685.48
715.19	1730.53
715.38	1695.72
715.56	1722.34
715.74	1648.61
715.92	1728.49
716.11	1777.64
716.29	1611.75
716.47	1746.92
716.65	1699.81
716.84	1681.38
717.02	1759.21
717.20	1578.98
717.38	1716.20
717.57	1753.06
717.75	1763.30
717.93	1667.05
718.11	1785.83
718.30	1665.00
718.48	1800.16
718.66	1718.25
718.84	1802.21
719.03	1716.20
719.21	1621.99
719.39	1828.84
719.57	1777.64
719.75	1841.12
719.94	1718.25
720.12	1660.90
720.30	1683.43
720.48	1767.40
720.67	1736.68
720.85	1724.39
721.03	1669.09
721.21	1677.29
721.39	1806.31
721.58	1794.02
721.76	1761.25
721.94	1679.33
722.12	1730.53
722.30	1804.26
722.49	1673.19
722.67	1738.73
722.85	1697.77
723.03	1632.23
723.21	1658.85
723.40	1761.25
723.58	1757.16
723.76	1703.91
723.94	1845.22
724.12	1767.40
724.30	1748.97
724.49	1689.57
724.67	1662.95
724.85	1757.16
725.03	1726.44
725.21	1748.97
725.40	1785.83
725.58	1662.95
725.76	1716.20
725.94	1791.97
726.12	1705.96
726.30	1783.78
726.49	1751.01
726.67	1746.92
726.85	1730.53
727.03	1783.78
727.21	2181.09
727.39	2990.03
727.57	3897.28
727.76	4155.33
727.94	4536.25
728.12	4366.27
728.30	3626.95
728.48	2979.79
728.66	2746.33
728.84	2631.64
729.03	2340.83
729.21	2115.55
729.39	2011.11
729.57	1826.79
729.75	1849.32
729.93	1892.32
730.11	1734.63
730.30	1724.39
730.48	1718.25
730.66	1859.56
730.84	1810.40
731.02	1753.06
731.20	1730.53
731.38	1726.44
731.56	1689.57
731.74	1691.62
731.93	1681.38
732.11	1791.97
732.29	1761.25
732.47	1732.58
732.65	1683.43
732.83	1734.63
733.01	1871.84
733.19	1613.80
733.37	1800.16
733.56	1736.68
733.74	1771.49
733.92	1822.69
734.10	1685.48
734.28	1730.53
734.46	1562.60
734.64	1726.44
734.82	1689.57
735.00	1619.94
735.18	1716.20
735.36	1699.81
735.54	1677.29
735.73	1746.92
735.91	1796.07
736.09	1714.15
736.27	1681.38
736.45	1712.10
736.63	1640.42
736.81	1785.83
736.99	1773.54
737.17	1777.64
737.35	1710.05
737.53	1806.31
737.71	1660.90
737.89	1847.27
738.07	1652.71
738.25	1781.73
738.43	1628.14
738.61	1628.14
738.80	1648.61
738.98	1603.56
739.16	1705.96
739.34	1597.42
739.52	1845.22
739.70	1708.01
739.88	1746.92
740.06	1808.36
740.24	1560.55
740.42	1765.35
740.60	1640.42
740.78	1640.42
740.96	1578.98
741.14	1689.57
741.32	1740.77
741.50	1640.42
741.68	1812.45
741.86	1761.25
742.04	1685.48
742.22	1699.81
742.40	1691.62
742.58	1789.92
742.76	1658.85
742.94	1755.11
743.12	1656.81
743.30	1685.48
743.48	1720.29
743.66	1654.76
743.84	1748.97
744.02	1687.53
744.20	1777.64
744.38	1585.13
744.56	1681.38
744.74	1773.54
744.92	1714.15
745.10	1796.07
745.28	1740.77
745.46	1851.36
745.64	1748.97
745.82	1755.11
746.00	1675.24
746.18	1681.38
746.36	1689.57
746.54	1714.15
746.72	1656.81
746.90	1654.76
747.08	1781.73
747.26	1677.29
747.44	1785.83
747.62	1738.73
747.80	1740.77
747.98	1783.78
748.15	1689.57
748.33	1812.45
748.51	1740.77
748.69	1726.44
748.87	1722.34
749.05	1705.96
749.23	1679.33
749.41	1810.40
749.59	1783.78
749.77	1769.44
749.95	1656.81
750.13	1701.86
750.31	1779.68
750.49	1730.53
750.67	1701.86
750.85	1814.50
751.03	1710.05
751.20	1853.41
751.38	1699.81
751.56	1763.30
751.74	1761.25
751.92	1652.71
752.10	1689.57
752.28	1759.21
752.46	1685.48
752.64	1740.77
752.82	1677.29
753.00	1800.16
753.18	1677.29
753.35	1775.59
753.53	1697.77
753.71	1675.24
753.89	1732.58
754.07	1734.63
754.25	1695.72
754.43	1710.05
754.61	1640.42
754.79	1763.30
754.97	1685.48
755.14	1812.45
755.32	1650.66
755.50	1720.29
755.68	1787.88
755.86	1728.49
756.04	1656.81
756.22	1634.28
756.40	1701.86
756.57	1812.45
756.75	1677.29
756.93	1798.12
757.11	1771.49
757.29	1642.47
757.47	1701.86
757.65	1630.18
757.82	1574.89
758.00	1667.05
758.18	1652.71
758.36	1613.80
758.54	1837.03
758.72	1587.18
758.90	1748.97
759.07	1783.78
759.25	1544.17
759.43	1759.21
759.61	1669.09
759.79	2199.52
759.97	1742.82
760.15	1646.57
760.32	1675.24
760.50	1673.19
760.68	1824.74
760.86	1732.58
761.04	1785.83
761.22	1763.30
761.39	1724.39
761.57	1746.92
761.75	1683.43
761.93	1777.64
762.11	1734.63
762.28	1675.24
762.46	1671.14
762.64	1783.78
762.82	1583.08
763.00	1705.96
763.18	1830.88
763.35	1599.46
763.53	1736.68
763.71	1724.39
763.89	1677.29
764.07	1740.77
764.24	1708.01
764.42	1751.01
764.60	1716.20
764.78	1744.87
764.96	1814.50
765.13	1734.63
765.31	1703.91
765.49	1763.30
765.67	1658.85
765.84	1708.01
766.02	1693.67
766.20	1570.79
766.38	1734.63
766.56	1755.11
766.73	1734.63
766.91	1740.77
767.09	1642.47
767.27	1720.29
767.44	1617.90
767.62	1642.47
767.80	1658.85
767.98	1677.29
768.15	1757.16
768.33	1728.49
768.51	1730.53
768.69	1699.81
768.87	1697.77
769.04	1742.82
769.22	1859.56
769.40	1812.45
769.58	1773.54
769.75	1705.96
769.93	1742.82
770.11	1677.29
770.28	1693.67
770.46	1742.82
770.64	1738.73
770.82	1689.57
770.99	1695.72
771.17	1738.73
771.35	1710.05
771.53	1718.25
771.70	1722.34
771.88	1753.06
772.06	1724.39
772.23	1728.49
772.41	1771.49
772.59	1726.44
772.77	1652.71
772.94	1685.48
773.12	1710.05
773.30	1718.25
773.47	1763.30
773.65	1634.28
773.83	1806.31
774.01	1753.06
774.18	1535.98
774.36	1691.62
774.54	1613.80
774.71	1806.31
774.89	1615.85
775.07	1722.34
775.24	1722.34
775.42	1695.72
775.60	1773.54
775.78	1621.99
775.95	1744.87
776.13	1662.95
776.31	1591.27
776.48	1753.06
776.66	1789.92
776.84	1693.67
777.01	1667.05
777.19	1693.67
777.37	1617.90
777.54	1791.97
777.72	1863.65
777.90	1714.15
778.07	1685.48
778.25	1898.47
778.43	1734.63
778.60	1753.06
778.78	1828.84
778.96	1722.34
779.13	1632.23
779.31	1744.87
779.49	1759.21
779.66	1730.53
779.84	1673.19
780.01	1624.04
780.19	1601.51
780.37	1789.92
780.54	1740.77
780.72	1705.96
780.90	1714.15
781.07	1683.43
781.25	1681.38
781.43	1787.88
781.60	1626.09
781.78	1804.26
781.95	1773.54
782.13	1621.99
782.31	1753.06
782.48	1650.66
782.66	1763.30
782.83	1804.26
783.01	1728.49
783.19	1724.39
783.36	1742.82
783.54	1648.61
783.72	1746.92
783.89	1669.09
784.07	1648.61
784.24	1710.05
784.42	1779.68
784.60	1748.97
784.77	1751.01
784.95	1632.23
785.12	1736.68
785.30	1679.33
785.47	1626.09
785.65	1683.43
785.83	1693.67
786.00	1585.13
786.18	1726.44
786.35	1613.80
786.53	1681.38
786.71	1746.92
786.88	1769.44
787.06	1785.83
787.23	1740.77
787.41	1691.62
787.58	1757.16
787.76	1662.95
787.94	1767.40
788.11	1748.97
788.29	1671.14
788.46	1685.48
788.64	1730.53
788.81	1726.44
788.99	1716.20
789.16	1658.85
789.34	1662.95
789.52	1640.42
789.69	1679.33
789.87	1636.33
790.04	1644.52
790.22	1738.73
790.39	1781.73
790.57	1667.05
790.74	1658.85
790.92	1716.20
791.09	1607.66
791.27	1730.53
791.44	1808.36
791.62	1617.90
791.79	1771.49
791.97	1722.34
792.15	1837.03
792.32	1744.87
792.50	1677.29
792.67	1736.68
792.85	1771.49
793.02	1695.72
793.20	1701.86
793.37	1675.24
793.55	1763.30
793.72	1630.18
793.90	1722.34
794.07	1728.49
794.25	1695.72
794.42	1701.86
794.60	1705.96
794.77	1767.40
794.95	1724.39
795.12	1693.67
795.30	1763.30
795.47	1628.14
795.65	1961.95
795.82	1748.97
796.00	1617.90
796.17	1673.19
796.34	1724.39
796.52	1746.92
796.69	1789.92
796.87	1791.97
797.04	1716.20
797.22	1732.58
797.39	1701.86
797.57	1767.40
797.74	1662.95
797.92	1714.15
798.09	1640.42
798.27	1763.30
798.44	1736.68
798.62	1671.14
798.79	1677.29
798.96	1759.21
799.14	1705.96
799.31	1918.95
799.49	1722.34
799.66	1755.11
799.84	1769.44
800.01	1632.23
800.19	1681.38
800.36	1638.38
800.53	1669.09
800.71	1744.87
800.88	1746.92
801.06	1732.58
801.23	1677.29
801.41	1669.09
801.58	1681.38
801.75	1701.86
801.93	1755.11
802.10	1705.96
802.28	1693.67
802.45	1695.72
802.63	1720.29
802.80	1853.41
802.97	1665.00
803.15	1695.72
803.32	1662.95
803.50	1689.57
803.67	1728.49
803.84	1677.29
804.02	1699.81
804.19	1675.24
804.37	1611.75
804.54	1650.66
804.71	1675.24
804.89	1687.53
805.06	1677.29
805.24	1656.81
805.41	1722.34
805.58	1669.09
805.76	1896.42
805.93	1652.71
806.10	1798.12
806.28	1751.01
806.45	1718.25
806.63	1714.15
806.80	1724.39
806.97	1765.35
807.15	1662.95
807.32	1767.40
807.49	1701.86
807.67	1722.34
807.84	1742.82
808.01	1568.74
808.19	1867.75
808.36	1830.88
808.54	1697.77
808.71	1603.56
808.88	1765.35
809.06	1746.92
809.23	1789.92
809.40	1718.25
809.58	1705.96
809.75	1646.57
809.92	1699.81
810.10	1851.36
810.27	1646.57
810.44	1689.57
810.62	1755.11
810.79	1671.14
810.96	1742.82
811.14	1646.57
811.31	1773.54
811.48	1773.54
811.66	1730.53
811.83	1816.55
812.00	1759.21
812.18	1660.90
812.35	1816.55
812.52	1683.43
812.69	1675.24
812.87	1705.96
813.04	1611.75
813.21	1677.29
813.39	1675.24
813.56	1660.90
813.73	1798.12
813.91	1609.70
814.08	1705.96
814.25	1794.02
814.42	1746.92
814.60	1720.29
814.77	1757.16
814.94	1718.25
815.12	1665.00
815.29	1716.20
815.46	1681.38
815.63	1734.63
815.81	1673.19
815.98	1691.62
816.15	1734.63
816.33	1771.49
816.50	1677.29
816.67	1708.01
816.84	1669.09
817.02	1658.85
817.19	1689.57
817.36	1796.07
817.53	1724.39
817.71	1638.38
817.88	1738.73
818.05	1753.06
818.22	1695.72
818.40	1753.06
818.57	1630.18
818.74	1654.76
818.91	1710.05
819.09	1738.73
819.26	1765.35
819.43	1689.57
819.60	1667.05
819.78	1728.49
819.95	1775.59
820.12	1660.90
820.29	1824.74
820.47	1748.97
820.64	1732.58
820.81	1667.05
820.98	1665.00
821.15	1648.61
821.33	1742.82
821.50	1638.38
821.67	1744.87
821.84	1648.61
822.02	1789.92
822.19	1763.30
822.36	1712.10
822.53	1617.90
822.70	1677.29
822.88	1712.10
823.05	1740.77
823.22	1703.91
823.39	1771.49
823.56	1722.34
823.74	1810.40
823.91	1712.10
824.08	1640.42
824.25	1673.19
824.42	1759.21
824.60	1636.33
824.77	1726.44
824.94	1705.96
825.11	1726.44
825.28	1656.81
825.45	1701.86
825.63	1730.53
825.80	1632.23
825.97	1753.06
826.14	1724.39
826.31	1650.66
826.48	1714.15
826.66	1613.80
826.83	1638.38
827.00	1767.40
827.17	1710.05
827.34	1740.77
827.51	1679.33
827.69	1720.29
827.86	1613.80
828.03	1697.77
828.20	1744.87
828.37	1722.34
828.54	1705.96
828.71	1687.53
828.89	1832.93
829.06	1697.77
829.23	1722.34
829.40	1662.95
829.57	1667.05
829.74	1742.82
829.91	1648.61
830.09	1708.01
830.26	1732.58
830.43	1794.02
830.60	1757.16
830.77	1695.72
830.94	1787.88
831.11	1744.87
831.28	1556.46
831.46	1699.81
831.63	1705.96
831.80	1716.20
831.97	1755.11
832.14	1654.76
832.31	1705.96
832.48	1714.15
832.65	1742.82
832.82	1740.77
832.99	1753.06
833.17	1632.23
833.34	1759.21
833.51	1775.59
833.68	1564.65
833.85	1755.11
834.02	1759.21
834.19	1712.10
834.36	1697.77
834.53	1697.77
834.70	1753.06
834.87	1763.30
835.04	1730.53
835.22	1603.56
835.39	1681.38
835.56	1599.46
835.73	1566.70
835.90	1689.57
836.07	1681.38
836.24	1775.59
836.41	1621.99
836.58	1660.90
836.75	1755.11
836.92	1751.01
837.09	1761.25
837.26	1779.68
837.43	1679.33
837.60	1699.81
837.77	1677.29
837.94	1751.01
838.12	1820.64
838.29	1777.64
838.46	1607.66
838.63	1568.74
838.80	1785.83
838.97	1722.34
839.14	1658.85
839.31	1714.15
839.48	1744.87
839.65	1626.09
839.82	1755.11
839.99	1675.24
840.16	1636.33
840.33	1708.01
840.50	1650.66
840.67	1673.19
840.84	1652.71
841.01	1693.67
841.18	1669.09
841.35	1685.48
841.52	1789.92
841.69	1824.74
841.86	1660.90
842.03	1773.54
842.20	1759.21
842.37	1671.14
842.54	1765.35
842.71	1652.71
842.88	1574.89
843.05	1714.15
843.22	1697.77
843.39	1789.92
843.56	1654.76
843.73	1714.15
843.90	1685.48
844.07	1728.49
844.24	1773.54
844.41	1753.06
844.58	1755.11
844.75	1689.57
844.92	1722.34
845.09	1798.12
845.26	1746.92
845.43	1746.92
845.60	1626.09
845.77	1744.87
845.94	1665.00
846.10	1789.92
846.27	1658.85
846.44	1671.14
846.61	1578.98
846.78	1699.81
846.95	1781.73
847.12	1665.00
847.29	1685.48
847.46	1697.77
847.63	1683.43
847.80	1710.05
847.97	1677.29
848.14	1873.89
848.31	1705.96
848.48	1636.33
848.65	1673.19
848.82	1656.81
848.98	1826.79
849.15	1720.29
849.32	1726.44
849.49	1765.35
849.66	1738.73
849.83	1691.62
850.00	1693.67
850.17	1726.44
850.34	1636.33
850.51	1710.05
850.68	1640.42
850.85	1849.32
851.01	1695.72
851.18	1728.49
851.35	1683.43
851.52	1757.16
851.69	1814.50
851.86	1617.90
852.03	1757.16
852.20	1757.16
852.37	1742.82
852.53	1617.90
852.70	1738.73
852.87	1751.01
853.04	1757.16
853.21	1691.62
853.38	1724.39
853.55	1789.92
853.72	1830.88
853.89	1697.77
854.05	1619.94
854.22	1656.81
854.39	1720.29
854.56	1771.49
854.73	1742.82
854.90	1624.04
855.07	1665.00
855.23	1695.72
855.40	1703.91
855.57	1697.77
855.74	1605.61
855.91	1820.64
856.08	1632.23
856.25	1703.91
856.41	1677.29
856.58	1662.95
856.75	1734.63
856.92	1576.94
857.09	1775.59
857.26	1667.05
857.42	1691.62
857.59	1689.57
857.76	1746.92
857.93	1730.53
858.10	1718.25
858.27	1636.33
858.43	1765.35
858.60	1681.38
858.77	1593.32
858.94	1683.43
859.11	1771.49
859.27	1609.70
859.44	1736.68
859.61	1814.50
859.78	1708.01
859.95	1669.09
860.12	1609.70
860.28	1837.03
860.45	1787.88
860.62	1693.67
860.79	1785.83
860.95	1732.58
861.12	1636.33
861.29	1693.67
861.46	1718.25
861.63	1656.81
861.79	1712.10
861.96	1712.10
862.13	1652.71
862.30	1781.73
862.47	1628.14
862.63	1583.08
862.80	1777.64
862.97	1771.49
863.14	1726.44
863.30	1783.78
863.47	1703.91
863.64	1765.35
863.81	1757.16
863.97	1677.29
864.14	1718.25
864.31	1744.87
864.48	1722.34
864.65	1636.33
864.81	1779.68
864.98	1732.58
865.15	1800.16
865.32	1781.73
865.48	1730.53
865.65	1744.87
865.82	1683.43
865.98	1708.01
866.15	1716.20
866.32	1783.78
866.49	1652.71
866.65	1732.58
866.82	1656.81
866.99	1705.96
867.16	1740.77
867.32	1708.01
867.49	1679.33
867.66	1746.92
867.83	1710.05
867.99	1619.94
868.16	1712.10
868.33	1605.61
868.49	1773.54
868.66	1665.00
868.83	1781.73
868.99	1777.64
869.16	1738.73
869.33	1755.11
869.50	1773.54
869.66	1769.44
869.83	1726.44
870.00	1677.29
870.16	1783.78
870.33	1671.14
870.50	1691.62
870.66	1638.38
870.83	1771.49
871.00	1654.76
871.17	1744.87
871.33	1742.82
871.50	1673.19
871.67	1753.06
871.83	1687.53
872.00	1837.03
872.17	1638.38
872.33	1808.36
872.50	1900.52
872.67	1705.96
872.83	1689.57
873.00	1714.15
873.17	1689.57
873.33	1808.36
873.50	1673.19
873.67	1660.90
873.83	1619.94
874.00	1701.86
874.16	1755.11
874.33	1615.85
874.50	1689.57
874.66	1785.83
874.83	1796.07
875.00	1701.86
875.16	1841.12
875.33	1703.91
875.50	1515.50
875.66	1665.00
875.83	1710.05
875.99	1736.68
876.16	1724.39
876.33	1660.90
876.49	1695.72
876.66	1722.34
876.83	1667.05
876.99	1636.33
877.16	1791.97
877.32	1679.33
877.49	1642.47
877.66	1703.91
877.82	1832.93
877.99	1699.81
878.15	1765.35
878.32	1755.11
878.49	1714.15
878.65	1708.01
878.82	1761.25
878.98	1716.20
879.15	1763.30
879.32	1746.92
879.48	1697.77
879.65	1732.58
879.81	1699.81
879.98	1665.00
880.15	1671.14
880.31	1771.49
880.48	1673.19
880.64	1748.97
880.81	1767.40
880.97	1822.69
881.14	1771.49
881.31	1658.85
881.47	1767.40
881.64	1697.77
881.80	1630.18
881.97	1722.34
882.13	1769.44
882.30	1613.80
882.47	1697.77
882.63	1650.66
882.80	1642.47
882.96	1687.53
883.13	1708.01
883.29	1697.77
883.46	1773.54
883.62	1816.55
883.79	1769.44
883.95	1814.50
884.12	1712.10
884.29	1712.10
884.45	1681.38
884.62	1722.34
884.78	1732.58
884.95	1818.60
885.11	1624.04
885.28	1740.77
885.44	1695.72
885.61	1720.29
885.77	1804.26
885.94	1837.03
886.10	1718.25
886.27	1695.72
886.43	1818.60
886.60	1669.09
886.76	1673.19
886.93	1589.22
887.09	1781.73
887.26	1603.56
887.42	1744.87
887.59	1798.12
887.75	1789.92
887.92	1785.83
888.08	1777.64
888.25	1791.97
888.41	1718.25
888.58	1689.57
888.74	1710.05
888.91	1679.33
>>>>>End Processed Spectral Data<<<<<
