SpectraSuite Data File
++++++++++++++++++++++++++++++++++++
Date: Mon Jun 06 16:54:37 CEST 2016
User: root
Dark Spectrum Present: No
Reference Spectrum Present: No
Number of Sampled Component Spectra: 1
Spectrometers: USB4C02835
Integration Time (usec): 100000 (USB4C02835)
Spectra Averaged: 1 (USB4C02835)
Boxcar Smoothing: 0 (USB4C02835)
Correct for Electrical Dark: No (USB4C02835)
Strobe/Lamp Enabled: No (USB4C02835)
Correct for Detector Non-linearity: No (USB4C02835)
Correct for Stray Light: No (USB4C02835)
Number of Pixels in Processed Spectrum: 3648
>>>>>Begin Processed Spectral Data<<<<<
177.47	1462.25
177.69	1462.25
177.91	1462.25
178.13	1464.30
178.36	1406.95
178.58	1677.29
178.80	1755.11
179.02	1660.90
179.24	1685.48
179.46	1615.85
179.68	1783.78
179.90	1634.28
180.13	1753.06
180.35	1701.86
180.57	1662.95
180.79	1757.16
181.01	1777.64
181.23	1761.25
181.45	1748.97
181.67	1744.87
181.90	1701.86
182.12	1556.46
182.34	1656.81
182.56	1744.87
182.78	1675.24
183.00	1789.92
183.22	1689.57
183.44	1595.37
183.66	1800.16
183.89	1765.35
184.11	1646.57
184.33	1697.77
184.55	1710.05
184.77	1767.40
184.99	1738.73
185.21	1710.05
185.43	1861.60
185.65	1632.23
185.87	1646.57
186.10	1789.92
186.32	1802.21
186.54	1759.21
186.76	1810.40
186.98	1783.78
187.20	1695.72
187.42	1624.04
187.64	1746.92
187.86	1722.34
188.08	1710.05
188.30	1708.01
188.52	1722.34
188.75	1757.16
188.97	1882.08
189.19	1662.95
189.41	1654.76
189.63	1722.34
189.85	1738.73
190.07	1593.32
190.29	1621.99
190.51	1689.57
190.73	1665.00
190.95	1724.39
191.17	1683.43
191.39	1624.04
191.61	1658.85
191.84	1714.15
192.06	1744.87
192.28	1601.51
192.50	1830.88
192.72	1712.10
192.94	1722.34
193.16	1712.10
193.38	1650.66
193.60	1628.14
193.82	1632.23
194.04	1755.11
194.26	1769.44
194.48	1677.29
194.70	1710.05
194.92	1660.90
195.14	1734.63
195.36	1740.77
195.58	1722.34
195.80	1683.43
196.02	1624.04
196.24	1667.05
196.46	1734.63
196.69	1603.56
196.91	1804.26
197.13	1654.76
197.35	1630.18
197.57	1759.21
197.79	1669.09
198.01	1669.09
198.23	1689.57
198.45	1726.44
198.67	1626.09
198.89	1648.61
199.11	1726.44
199.33	1679.33
199.55	1552.36
199.77	1738.73
199.99	1687.53
200.21	1697.77
200.43	1751.01
200.65	1689.57
200.87	1615.85
201.09	1693.67
201.31	1605.61
201.53	1810.40
201.75	1742.82
201.97	1746.92
202.19	1667.05
202.41	1722.34
202.63	1888.23
202.85	1755.11
203.07	1718.25
203.29	1654.76
203.51	1681.38
203.73	1697.77
203.95	1830.88
204.17	1673.19
204.39	1681.38
204.61	1708.01
204.83	1662.95
205.05	1763.30
205.27	1714.15
205.49	1783.78
205.71	1685.48
205.93	1699.81
206.15	1644.52
206.37	1785.83
206.59	1601.51
206.81	1685.48
207.03	1730.53
207.25	1599.46
207.47	1757.16
207.69	1736.68
207.91	1826.79
208.13	1859.56
208.34	1656.81
208.56	1673.19
208.78	1724.39
209.00	1718.25
209.22	1574.89
209.44	1748.97
209.66	1634.28
209.88	1607.66
210.10	1640.42
210.32	1718.25
210.54	1769.44
210.76	1665.00
210.98	1746.92
211.20	1644.52
211.42	1724.39
211.64	1722.34
211.86	1753.06
212.08	1802.21
212.30	1673.19
212.52	1691.62
212.74	1675.24
212.96	1699.81
213.17	1730.53
213.39	1787.88
213.61	1763.30
213.83	1718.25
214.05	1570.79
214.27	1785.83
214.49	1703.91
214.71	1705.96
214.93	1832.93
215.15	1744.87
215.37	1665.00
215.59	1566.70
215.81	1701.86
216.03	1734.63
216.24	1730.53
216.46	1710.05
216.68	1679.33
216.90	1699.81
217.12	1751.01
217.34	1701.86
217.56	1740.77
217.78	1730.53
218.00	1728.49
218.22	1728.49
218.44	1732.58
218.66	1765.35
218.87	1830.88
219.09	1624.04
219.31	1746.92
219.53	1746.92
219.75	1701.86
219.97	1693.67
220.19	1705.96
220.41	1669.09
220.63	1755.11
220.85	1744.87
221.06	1765.35
221.28	1763.30
221.50	1677.29
221.72	1658.85
221.94	1677.29
222.16	1775.59
222.38	1714.15
222.60	1773.54
222.82	1705.96
223.03	1648.61
223.25	1669.09
223.47	1765.35
223.69	1845.22
223.91	1714.15
224.13	1720.29
224.35	1638.38
224.57	1791.97
224.78	1816.55
225.00	1658.85
225.22	1734.63
225.44	1609.70
225.66	1769.44
225.88	1693.67
226.10	1753.06
226.32	1748.97
226.53	1746.92
226.75	1751.01
226.97	1740.77
227.19	1714.15
227.41	1757.16
227.63	1683.43
227.85	1648.61
228.06	1730.53
228.28	1642.47
228.50	1757.16
228.72	1648.61
228.94	1632.23
229.16	1662.95
229.37	1617.90
229.59	1705.96
229.81	1783.78
230.03	1658.85
230.25	1638.38
230.47	1675.24
230.69	1638.38
230.90	1720.29
231.12	1681.38
231.34	1724.39
231.56	1748.97
231.78	1650.66
232.00	1662.95
232.21	1699.81
232.43	1685.48
232.65	1591.27
232.87	1697.77
233.09	1607.66
233.30	1685.48
233.52	1822.69
233.74	1599.46
233.96	1646.57
234.18	1718.25
234.40	1740.77
234.61	1771.49
234.83	1685.48
235.05	1705.96
235.27	1841.12
235.49	1703.91
235.70	1755.11
235.92	1787.88
236.14	1687.53
236.36	1873.89
236.58	1712.10
236.79	1806.31
237.01	1681.38
237.23	1714.15
237.45	1863.65
237.67	1658.85
237.88	1763.30
238.10	1828.84
238.32	1677.29
238.54	1650.66
238.76	1734.63
238.97	1675.24
239.19	1746.92
239.41	1732.58
239.63	1769.44
239.85	1691.62
240.06	1652.71
240.28	1681.38
240.50	1757.16
240.72	1710.05
240.93	1701.86
241.15	1769.44
241.37	1818.60
241.59	1806.31
241.81	1669.09
242.02	1744.87
242.24	1728.49
242.46	1685.48
242.68	1656.81
242.89	1677.29
243.11	1759.21
243.33	1738.73
243.55	1718.25
243.76	1765.35
243.98	1693.67
244.20	1705.96
244.42	1816.55
244.64	1724.39
244.85	1638.38
245.07	1693.67
245.29	1687.53
245.51	1710.05
245.72	1714.15
245.94	1722.34
246.16	1781.73
246.38	1744.87
246.59	1615.85
246.81	1603.56
247.03	1673.19
247.24	1634.28
247.46	1646.57
247.68	1740.77
247.90	1693.67
248.11	1650.66
248.33	1771.49
248.55	1624.04
248.77	1708.01
248.98	1785.83
249.20	1796.07
249.42	1718.25
249.64	1738.73
249.85	1638.38
250.07	1736.68
250.29	1822.69
250.50	1662.95
250.72	1634.28
250.94	1789.92
251.16	1841.12
251.37	1724.39
251.59	1746.92
251.81	1804.26
252.02	1755.11
252.24	1734.63
252.46	1724.39
252.68	1685.48
252.89	1599.46
253.11	1644.52
253.33	1767.40
253.54	1730.53
253.76	1572.84
253.98	1705.96
254.20	1687.53
254.41	1695.72
254.63	1671.14
254.85	1673.19
255.06	1658.85
255.28	1687.53
255.50	1665.00
255.71	1695.72
255.93	1617.90
256.15	1718.25
256.36	1824.74
256.58	1640.42
256.80	1705.96
257.02	1660.90
257.23	1669.09
257.45	1718.25
257.67	1751.01
257.88	1691.62
258.10	1742.82
258.32	1777.64
258.53	1712.10
258.75	1882.08
258.97	1705.96
259.18	1687.53
259.40	1701.86
259.62	1728.49
259.83	1877.99
260.05	1771.49
260.27	2017.25
260.48	1753.06
260.70	1652.71
260.92	1644.52
261.13	1753.06
261.35	1665.00
261.57	1775.59
261.78	1669.09
262.00	1658.85
262.22	1669.09
262.43	1701.86
262.65	1697.77
262.86	1673.19
263.08	1781.73
263.30	1775.59
263.51	1605.61
263.73	1697.77
263.95	1781.73
264.16	1642.47
264.38	1640.42
264.60	1796.07
264.81	1665.00
265.03	1773.54
265.25	1779.68
265.46	1667.05
265.68	1804.26
265.89	1763.30
266.11	1634.28
266.33	1796.07
266.54	1724.39
266.76	1712.10
266.98	1785.83
267.19	1779.68
267.41	1763.30
267.62	1697.77
267.84	1699.81
268.06	1712.10
268.27	1673.19
268.49	1755.11
268.70	1734.63
268.92	1769.44
269.14	1667.05
269.35	1675.24
269.57	1734.63
269.79	1779.68
270.00	1662.95
270.22	1843.17
270.43	1691.62
270.65	1558.50
270.87	1695.72
271.08	1775.59
271.30	1757.16
271.51	1634.28
271.73	1767.40
271.95	1767.40
272.16	1730.53
272.38	1712.10
272.59	1718.25
272.81	1687.53
273.02	1736.68
273.24	1761.25
273.46	1806.31
273.67	1665.00
273.89	1708.01
274.10	1652.71
274.32	1802.21
274.54	1744.87
274.75	1687.53
274.97	1665.00
275.18	1763.30
275.40	1757.16
275.61	1705.96
275.83	1660.90
276.05	1632.23
276.26	1656.81
276.48	1730.53
276.69	1619.94
276.91	1730.53
277.12	1783.78
277.34	1665.00
277.55	1742.82
277.77	1701.86
277.99	1724.39
278.20	1636.33
278.42	1726.44
278.63	1722.34
278.85	1675.24
279.06	1615.85
279.28	1693.67
279.49	1765.35
279.71	1808.36
279.93	1689.57
280.14	1697.77
280.36	1681.38
280.57	1701.86
280.79	1705.96
281.00	1763.30
281.22	1640.42
281.43	1771.49
281.65	1566.70
281.86	1626.09
282.08	1779.68
282.29	1802.21
282.51	1650.66
282.73	1701.86
282.94	1662.95
283.16	1667.05
283.37	1789.92
283.59	1691.62
283.80	1775.59
284.02	1722.34
284.23	1693.67
284.45	1675.24
284.66	1599.46
284.88	1687.53
285.09	1697.77
285.31	1722.34
285.52	1656.81
285.74	1665.00
285.95	1826.79
286.17	1746.92
286.38	1755.11
286.60	1599.46
286.81	1656.81
287.03	1701.86
287.24	1738.73
287.46	1763.30
287.67	1734.63
287.89	1849.32
288.10	1779.68
288.32	1732.58
288.53	1828.84
288.75	1789.92
288.96	1773.54
289.18	1665.00
289.39	1724.39
289.61	1734.63
289.82	1847.27
290.04	1787.88
290.25	1638.38
290.47	1613.80
290.68	1650.66
290.90	1740.77
291.11	1652.71
291.33	1726.44
291.54	1605.61
291.76	1640.42
291.97	1775.59
292.18	1724.39
292.40	1708.01
292.61	1691.62
292.83	1845.22
293.04	1720.29
293.26	1701.86
293.47	1710.05
293.69	1726.44
293.90	1695.72
294.12	1757.16
294.33	1658.85
294.55	1703.91
294.76	1746.92
294.97	1834.98
295.19	1761.25
295.40	1728.49
295.62	1740.77
295.83	1736.68
296.05	1638.38
296.26	1794.02
296.48	1650.66
296.69	1726.44
296.90	1714.15
297.12	1806.31
297.33	1800.16
297.55	1685.48
297.76	1685.48
297.98	1755.11
298.19	1726.44
298.41	1691.62
298.62	1695.72
298.83	1794.02
299.05	1791.97
299.26	1677.29
299.48	1648.61
299.69	1705.96
299.90	1738.73
300.12	1681.38
300.33	1796.07
300.55	1660.90
300.76	1724.39
300.98	1687.53
301.19	1769.44
301.40	1665.00
301.62	1665.00
301.83	1738.73
302.05	1746.92
302.26	1636.33
302.47	1691.62
302.69	1689.57
302.90	1699.81
303.12	1593.32
303.33	1705.96
303.54	1755.11
303.76	1738.73
303.97	1757.16
304.19	1822.69
304.40	1648.61
304.61	1673.19
304.83	1849.32
305.04	1812.45
305.26	1736.68
305.47	1568.74
305.68	1808.36
305.90	1636.33
306.11	1708.01
306.33	1667.05
306.54	1636.33
306.75	1679.33
306.97	1583.08
307.18	1642.47
307.39	1652.71
307.61	1781.73
307.82	1708.01
308.04	1753.06
308.25	1714.15
308.46	1740.77
308.68	1722.34
308.89	1656.81
309.10	1773.54
309.32	1759.21
309.53	1679.33
309.74	1679.33
309.96	1640.42
310.17	1863.65
310.39	1703.91
310.60	1701.86
310.81	1697.77
311.03	1691.62
311.24	1718.25
311.45	1685.48
311.67	1775.59
311.88	1724.39
312.09	1701.86
312.31	1722.34
312.52	1646.57
312.73	1714.15
312.95	1671.14
313.16	1650.66
313.37	1730.53
313.59	1779.68
313.80	1785.83
314.01	1722.34
314.23	1671.14
314.44	1708.01
314.65	1693.67
314.87	1648.61
315.08	1720.29
315.29	1687.53
315.51	1689.57
315.72	1656.81
315.93	1789.92
316.15	1804.26
316.36	1654.76
316.57	1619.94
316.79	1628.14
317.00	1744.87
317.21	1806.31
317.43	1675.24
317.64	1716.20
317.85	1714.15
318.07	1650.66
318.28	1759.21
318.49	1818.60
318.70	1943.52
318.92	1818.60
319.13	1822.69
319.34	1933.28
319.56	1808.36
319.77	1763.30
319.98	1869.80
320.20	1773.54
320.41	1761.25
320.62	1734.63
320.83	1648.61
321.05	1896.42
321.26	1751.01
321.47	1718.25
321.69	1771.49
321.90	1656.81
322.11	1648.61
322.32	1722.34
322.54	1845.22
322.75	1603.56
322.96	1871.84
323.18	1656.81
323.39	1603.56
323.60	1742.82
323.81	1816.55
324.03	1636.33
324.24	1693.67
324.45	1742.82
324.66	1687.53
324.88	1771.49
325.09	1730.53
325.30	1693.67
325.52	1595.37
325.73	1689.57
325.94	1615.85
326.15	1601.51
326.37	1683.43
326.58	1761.25
326.79	1779.68
327.00	1578.98
327.22	1714.15
327.43	1708.01
327.64	1652.71
327.85	1763.30
328.07	1644.52
328.28	1818.60
328.49	1679.33
328.70	1691.62
328.92	1685.48
329.13	1673.19
329.34	1716.20
329.55	1796.07
329.76	1818.60
329.98	1689.57
330.19	1765.35
330.40	1744.87
330.61	1677.29
330.83	1824.74
331.04	1660.90
331.25	1701.86
331.46	1705.96
331.68	1587.18
331.89	1748.97
332.10	1726.44
332.31	1632.23
332.52	1697.77
332.74	1789.92
332.95	1658.85
333.16	1640.42
333.37	1712.10
333.58	1650.66
333.80	1626.09
334.01	1595.37
334.22	1748.97
334.43	1576.94
334.64	1654.76
334.86	1628.14
335.07	1701.86
335.28	1675.24
335.49	1574.89
335.70	1701.86
335.92	1779.68
336.13	1865.70
336.34	1777.64
336.55	1708.01
336.76	1726.44
336.98	1636.33
337.19	1736.68
337.40	1765.35
337.61	1865.70
337.82	1705.96
338.04	1820.64
338.25	1630.18
338.46	1775.59
338.67	1691.62
338.88	1671.14
339.09	1697.77
339.31	1767.40
339.52	1566.70
339.73	1722.34
339.94	1658.85
340.15	1738.73
340.36	1658.85
340.58	1730.53
340.79	1683.43
341.00	1746.92
341.21	1742.82
341.42	1873.89
341.63	1705.96
341.85	1781.73
342.06	1761.25
342.27	1638.38
342.48	1761.25
342.69	1662.95
342.90	1705.96
343.12	1722.34
343.33	1712.10
343.54	1748.97
343.75	1732.58
343.96	1712.10
344.17	1671.14
344.38	1736.68
344.60	1714.15
344.81	1742.82
345.02	1646.57
345.23	1697.77
345.44	1796.07
345.65	1806.31
345.86	1757.16
346.07	1708.01
346.29	1740.77
346.50	1808.36
346.71	1677.29
346.92	1763.30
347.13	1828.84
347.34	1697.77
347.55	1691.62
347.76	1724.39
347.98	1662.95
348.19	1675.24
348.40	1798.12
348.61	1724.39
348.82	1796.07
349.03	1753.06
349.24	1675.24
349.45	1738.73
349.66	1546.22
349.88	1730.53
350.09	1648.61
350.30	1812.45
350.51	1738.73
350.72	1753.06
350.93	1769.44
351.14	1734.63
351.35	1742.82
351.56	1699.81
351.77	1738.73
351.99	1710.05
352.20	1796.07
352.41	1730.53
352.62	1669.09
352.83	1693.67
353.04	1724.39
353.25	1681.38
353.46	1767.40
353.67	1824.74
353.88	1619.94
354.09	1759.21
354.30	1730.53
354.52	1697.77
354.73	1685.48
354.94	1765.35
355.15	1746.92
355.36	1859.56
355.57	1691.62
355.78	1695.72
355.99	1708.01
356.20	1685.48
356.41	1791.97
356.62	1759.21
356.83	1695.72
357.04	1716.20
357.25	1662.95
357.46	1724.39
357.68	1665.00
357.89	1599.46
358.10	1667.05
358.31	1660.90
358.52	1781.73
358.73	1667.05
358.94	1708.01
359.15	1599.46
359.36	1730.53
359.57	1722.34
359.78	1710.05
359.99	1748.97
360.20	1662.95
360.41	1648.61
360.62	1767.40
360.83	1740.77
361.04	1695.72
361.25	1775.59
361.46	1849.32
361.67	1746.92
361.88	1619.94
362.09	1773.54
362.30	1683.43
362.51	1632.23
362.72	1679.33
362.93	1730.53
363.14	1673.19
363.35	1730.53
363.56	1621.99
363.78	1718.25
363.99	1746.92
364.20	1660.90
364.41	1701.86
364.62	1734.63
364.83	1636.33
365.04	1636.33
365.25	1746.92
365.46	1873.89
365.67	1658.85
365.88	1615.85
366.09	1683.43
366.30	1656.81
366.51	1722.34
366.72	1712.10
366.93	1726.44
367.14	1697.77
367.35	1757.16
367.56	1796.07
367.77	1771.49
367.98	1691.62
368.18	1734.63
368.39	1789.92
368.60	1654.76
368.81	1765.35
369.02	1677.29
369.23	1671.14
369.44	1568.74
369.65	1818.60
369.86	1665.00
370.07	1779.68
370.28	1701.86
370.49	1748.97
370.70	1773.54
370.91	1626.09
371.12	1595.37
371.33	1849.32
371.54	1730.53
371.75	1826.79
371.96	1480.68
372.17	1714.15
372.38	1644.52
372.59	1716.20
372.80	1687.53
373.01	1695.72
373.22	1773.54
373.43	1712.10
373.64	1628.14
373.85	1783.78
374.06	1718.25
374.26	1738.73
374.47	1744.87
374.68	1812.45
374.89	1681.38
375.10	1734.63
375.31	1791.97
375.52	1718.25
375.73	1769.44
375.94	1607.66
376.15	1896.42
376.36	1673.19
376.57	1662.95
376.78	1681.38
376.99	1716.20
377.20	1798.12
377.40	1667.05
377.61	1732.58
377.82	1626.09
378.03	1822.69
378.24	1691.62
378.45	1712.10
378.66	1697.77
378.87	1605.61
379.08	1642.47
379.29	1640.42
379.50	1765.35
379.71	1777.64
379.91	1714.15
380.12	1714.15
380.33	1714.15
380.54	1736.68
380.75	1712.10
380.96	1802.21
381.17	1802.21
381.38	1722.34
381.59	1667.05
381.80	1755.11
382.00	1896.42
382.21	1748.97
382.42	1742.82
382.63	1869.80
382.84	1820.64
383.05	1744.87
383.26	1751.01
383.47	1714.15
383.68	1753.06
383.88	1695.72
384.09	1757.16
384.30	1791.97
384.51	1669.09
384.72	1658.85
384.93	1609.70
385.14	1714.15
385.35	1722.34
385.55	1638.38
385.76	1820.64
385.97	1701.86
386.18	1609.70
386.39	1662.95
386.60	1689.57
386.81	1734.63
387.02	1665.00
387.22	1630.18
387.43	1851.36
387.64	1751.01
387.85	1841.12
388.06	2226.14
388.27	4333.50
388.48	6680.47
388.68	8198.02
388.89	9641.84
389.10	9946.98
389.31	8443.78
389.52	7718.79
389.73	6596.51
389.93	6320.03
390.14	5984.16
390.35	5183.41
390.56	4532.15
390.77	3823.56
390.98	2981.84
391.18	2541.53
391.39	2242.53
391.60	1888.23
391.81	1902.56
392.02	1689.57
392.23	1886.18
392.43	1742.82
392.64	1802.21
392.85	1755.11
393.06	1755.11
393.27	1658.85
393.47	1699.81
393.68	1753.06
393.89	1701.86
394.10	1822.69
394.31	1771.49
394.52	1724.39
394.72	1701.86
394.93	1796.07
395.14	1656.81
395.35	1722.34
395.56	1699.81
395.76	1783.78
395.97	1802.21
396.18	1884.13
396.39	1875.94
396.60	2041.82
396.80	1902.56
397.01	1828.84
397.22	1738.73
397.43	1771.49
397.64	1798.12
397.84	1834.98
398.05	1828.84
398.26	1753.06
398.47	1830.88
398.67	1748.97
398.88	1726.44
399.09	1746.92
399.30	1681.38
399.51	1783.78
399.71	1632.23
399.92	1650.66
400.13	1779.68
400.34	1673.19
400.54	1716.20
400.75	1845.22
400.96	1771.49
401.17	1783.78
401.37	1755.11
401.58	1673.19
401.79	1748.97
402.00	1832.93
402.21	1988.58
402.41	1890.28
402.62	1974.24
402.83	2015.20
403.04	2043.87
403.24	2031.58
403.45	1863.65
403.66	1902.56
403.87	1812.45
404.07	1824.74
404.28	1847.27
404.49	1853.41
404.70	1785.83
404.90	1787.88
405.11	1730.53
405.32	1734.63
405.52	1654.76
405.73	1658.85
405.94	1636.33
406.15	1748.97
406.35	1798.12
406.56	1746.92
406.77	1740.77
406.98	1779.68
407.18	1734.63
407.39	1722.34
407.60	1740.77
407.80	1785.83
408.01	1640.42
408.22	1710.05
408.43	1644.52
408.63	1675.24
408.84	1767.40
409.05	1757.16
409.25	1697.77
409.46	1677.29
409.67	1632.23
409.88	1714.15
410.08	1785.83
410.29	1763.30
410.50	1767.40
410.70	1650.66
410.91	1740.77
411.12	1738.73
411.32	1712.10
411.53	1685.48
411.74	1845.22
411.95	1746.92
412.15	1783.78
412.36	1820.64
412.57	1806.31
412.77	1771.49
412.98	1746.92
413.19	1771.49
413.39	1789.92
413.60	1738.73
413.81	1828.84
414.01	1665.00
414.22	1828.84
414.43	1783.78
414.63	1673.19
414.84	1748.97
415.05	1785.83
415.25	1615.85
415.46	1769.44
415.67	1705.96
415.87	1701.86
416.08	1738.73
416.29	1632.23
416.49	1789.92
416.70	1726.44
416.91	1638.38
417.11	1687.53
417.32	1718.25
417.53	1701.86
417.73	1767.40
417.94	1675.24
418.15	1767.40
418.35	1703.91
418.56	1720.29
418.77	1839.08
418.97	1642.47
419.18	1787.88
419.38	1560.55
419.59	1718.25
419.80	1853.41
420.00	1716.20
420.21	1806.31
420.42	1781.73
420.62	1755.11
420.83	1701.86
421.04	1667.05
421.24	1667.05
421.45	1765.35
421.65	1771.49
421.86	1695.72
422.07	1701.86
422.27	1746.92
422.48	1701.86
422.69	1724.39
422.89	1679.33
423.10	1658.85
423.30	1648.61
423.51	1769.44
423.72	1710.05
423.92	1722.34
424.13	1615.85
424.33	1718.25
424.54	1742.82
424.75	1732.58
424.95	1873.89
425.16	1771.49
425.36	1648.61
425.57	1724.39
425.78	1744.87
425.98	1769.44
426.19	1636.33
426.39	1644.52
426.60	1761.25
426.81	1748.97
427.01	1746.92
427.22	1691.62
427.42	1603.56
427.63	1703.91
427.83	1861.60
428.04	1777.64
428.25	1841.12
428.45	1787.88
428.66	1779.68
428.86	1726.44
429.07	1632.23
429.28	1720.29
429.48	1812.45
429.69	1697.77
429.89	1744.87
430.10	1671.14
430.30	1714.15
430.51	1781.73
430.71	1624.04
430.92	1714.15
431.13	1769.44
431.33	1736.68
431.54	1720.29
431.74	1841.12
431.95	1834.98
432.15	1607.66
432.36	1734.63
432.56	1767.40
432.77	1812.45
432.98	1851.36
433.18	1712.10
433.39	1730.53
433.59	1681.38
433.80	1785.83
434.00	1828.84
434.21	1708.01
434.41	1621.99
434.62	1886.18
434.82	1705.96
435.03	1691.62
435.23	1761.25
435.44	1667.05
435.64	1748.97
435.85	1779.68
436.06	1818.60
436.26	1783.78
436.47	1732.58
436.67	1673.19
436.88	1654.76
437.08	1767.40
437.29	1808.36
437.49	1759.21
437.70	1837.03
437.90	1730.53
438.11	1849.32
438.31	1779.68
438.52	1890.28
438.72	1849.32
438.93	1912.80
439.13	1851.36
439.34	1802.21
439.54	1738.73
439.75	1767.40
439.95	1794.02
440.16	1767.40
440.36	1763.30
440.57	1751.01
440.77	1755.11
440.98	1796.07
441.18	1785.83
441.39	1634.28
441.59	1673.19
441.80	1837.03
442.00	1832.93
442.21	1787.88
442.41	1656.81
442.62	1859.56
442.82	1640.42
443.02	1734.63
443.23	1789.92
443.43	1740.77
443.64	1806.31
443.84	1656.81
444.05	1742.82
444.25	1705.96
444.46	1691.62
444.66	1738.73
444.87	1730.53
445.07	1626.09
445.28	1796.07
445.48	1761.25
445.69	1806.31
445.89	1818.60
446.09	1785.83
446.30	1955.81
446.50	2615.26
446.71	3700.68
446.91	4282.30
447.12	4655.03
447.32	4892.60
447.53	4341.69
447.73	3876.80
447.93	3452.88
448.14	3354.57
448.34	3196.88
448.55	2910.16
448.75	2863.06
448.96	2703.32
449.16	2439.13
449.36	2320.35
449.57	2076.64
449.77	1970.15
449.98	1744.87
450.18	1841.12
450.39	1820.64
450.59	1771.49
450.79	1728.49
451.00	1699.81
451.20	1800.16
451.41	1796.07
451.61	1769.44
451.81	1769.44
452.02	1748.97
452.22	1699.81
452.43	1705.96
452.63	1789.92
452.84	1710.05
453.04	1679.33
453.24	1763.30
453.45	1736.68
453.65	1794.02
453.86	1699.81
454.06	1722.34
454.26	1738.73
454.47	1757.16
454.67	1822.69
454.87	1804.26
455.08	1726.44
455.28	1904.61
455.49	1738.73
455.69	1798.12
455.89	1834.98
456.10	1751.01
456.30	1708.01
456.51	1738.73
456.71	1730.53
456.91	1761.25
457.12	1806.31
457.32	1763.30
457.52	1699.81
457.73	1798.12
457.93	1746.92
458.14	1701.86
458.34	1550.31
458.54	1673.19
458.75	1656.81
458.95	1794.02
459.15	1705.96
459.36	1787.88
459.56	1755.11
459.76	1880.04
459.97	1757.16
460.17	1824.74
460.37	1810.40
460.58	1673.19
460.78	1710.05
460.99	1755.11
461.19	1763.30
461.39	1716.20
461.60	1693.67
461.80	1732.58
462.00	1712.10
462.21	1701.86
462.41	1665.00
462.61	1712.10
462.82	1683.43
463.02	1802.21
463.22	1708.01
463.43	1728.49
463.63	1753.06
463.83	1828.84
464.04	1837.03
464.24	1705.96
464.44	1722.34
464.64	1724.39
464.85	1779.68
465.05	1779.68
465.25	1757.16
465.46	1753.06
465.66	1796.07
465.86	1808.36
466.07	1771.49
466.27	1679.33
466.47	1648.61
466.68	1673.19
466.88	1748.97
467.08	1804.26
467.29	1675.24
467.49	1751.01
467.69	1716.20
467.89	1755.11
468.10	1787.88
468.30	1722.34
468.50	1796.07
468.71	1802.21
468.91	1701.86
469.11	1812.45
469.31	1763.30
469.52	1683.43
469.72	1837.03
469.92	1888.23
470.13	1677.29
470.33	1773.54
470.53	1804.26
470.73	2103.26
470.94	2322.40
471.14	2353.12
471.34	2457.56
471.54	2443.23
471.75	2287.58
471.95	2140.13
472.15	2146.27
472.36	2133.98
472.56	2125.79
472.76	2062.30
472.96	2056.16
473.17	1914.85
473.37	1927.14
473.57	1771.49
473.77	1822.69
473.98	1720.29
474.18	1712.10
474.38	1970.15
474.58	1665.00
474.79	1644.52
474.99	1771.49
475.19	1765.35
475.39	1720.29
475.60	1755.11
475.80	1804.26
476.00	1679.33
476.20	1691.62
476.41	1808.36
476.61	1812.45
476.81	1804.26
477.01	1697.77
477.21	1806.31
477.42	1742.82
477.62	1697.77
477.82	1828.84
478.02	1687.53
478.23	1667.05
478.43	1720.29
478.63	1720.29
478.83	1695.72
479.03	1724.39
479.24	1753.06
479.44	1841.12
479.64	1759.21
479.84	1607.66
480.04	1710.05
480.25	1826.79
480.45	1728.49
480.65	1724.39
480.85	1837.03
481.06	1783.78
481.26	1689.57
481.46	1779.68
481.66	1781.73
481.86	1689.57
482.06	1832.93
482.27	1742.82
482.47	1751.01
482.67	1726.44
482.87	1712.10
483.07	1736.68
483.28	1689.57
483.48	1675.24
483.68	1675.24
483.88	1746.92
484.08	1634.28
484.29	1665.00
484.49	1804.26
484.69	1652.71
484.89	1767.40
485.09	1791.97
485.29	1712.10
485.50	1652.71
485.70	1660.90
485.90	1859.56
486.10	1763.30
486.30	1705.96
486.50	1748.97
486.71	1763.30
486.91	1771.49
487.11	1791.97
487.31	1687.53
487.51	1708.01
487.71	1665.00
487.91	1634.28
488.12	1693.67
488.32	1546.22
488.52	1665.00
488.72	1595.37
488.92	1757.16
489.12	1761.25
489.32	1820.64
489.53	1748.97
489.73	1665.00
489.93	1857.51
490.13	1720.29
490.33	1697.77
490.53	1734.63
490.73	1820.64
490.94	1632.23
491.14	1718.25
491.34	1839.08
491.54	2099.17
491.74	2525.15
491.94	2858.96
492.14	3016.66
492.34	3020.75
492.54	2740.18
492.75	2490.33
492.95	2381.79
493.15	2279.39
493.35	2258.91
493.55	2252.77
493.75	2076.64
493.95	2140.13
494.15	1996.77
494.35	1974.24
494.56	1966.05
494.76	1732.58
494.96	1816.55
495.16	1804.26
495.36	1783.78
495.56	1705.96
495.76	1761.25
495.96	1781.73
496.16	1677.29
496.36	1849.32
496.56	1759.21
496.77	1773.54
496.97	1689.57
497.17	1771.49
497.37	1609.70
497.57	1718.25
497.77	1730.53
497.97	1677.29
498.17	1718.25
498.37	1624.04
498.57	1773.54
498.77	1667.05
498.97	1791.97
499.17	1837.03
499.38	1771.49
499.58	1808.36
499.78	1771.49
499.98	1824.74
500.18	1746.92
500.38	1693.67
500.58	1939.43
500.78	2617.30
500.98	4573.11
501.18	5871.53
501.38	6739.87
501.58	7085.97
501.78	6746.01
501.98	5572.52
502.18	4917.17
502.38	4329.41
502.58	4249.54
502.78	3743.69
502.98	3721.16
503.18	3434.44
503.38	3196.88
503.59	2738.13
503.79	2729.94
503.99	2566.10
504.19	2277.34
504.39	2156.51
504.59	2164.70
504.79	2113.50
504.99	2078.69
505.19	1955.81
505.39	1867.75
505.59	1939.43
505.79	1923.04
505.99	1914.85
506.19	1748.97
506.39	1824.74
506.59	1765.35
506.79	1834.98
506.99	1759.21
507.19	1755.11
507.39	1697.77
507.59	1601.51
507.79	1691.62
507.99	1748.97
508.19	1748.97
508.39	1740.77
508.59	1718.25
508.79	1871.84
508.99	1877.99
509.19	1714.15
509.39	1810.40
509.59	1683.43
509.79	1697.77
509.99	1718.25
510.19	1763.30
510.39	1863.65
510.59	1734.63
510.79	1722.34
510.99	1730.53
511.19	1808.36
511.39	1839.08
511.59	1785.83
511.79	1791.97
511.99	1894.37
512.19	1798.12
512.38	1753.06
512.58	1746.92
512.78	1775.59
512.98	1751.01
513.18	1806.31
513.38	1626.09
513.58	1673.19
513.78	1742.82
513.98	1726.44
514.18	1742.82
514.38	1679.33
514.58	1728.49
514.78	1712.10
514.98	1703.91
515.18	1742.82
515.38	1632.23
515.58	1812.45
515.78	1701.86
515.98	1765.35
516.18	1785.83
516.38	1781.73
516.57	1673.19
516.77	1787.88
516.97	1726.44
517.17	1763.30
517.37	1634.28
517.57	1775.59
517.77	1732.58
517.97	1716.20
518.17	1779.68
518.37	1718.25
518.57	1667.05
518.77	1710.05
518.97	1720.29
519.16	1759.21
519.36	1769.44
519.56	1689.57
519.76	1689.57
519.96	1785.83
520.16	1816.55
520.36	1751.01
520.56	1794.02
520.76	1714.15
520.96	1748.97
521.16	1902.56
521.35	1814.50
521.55	1853.41
521.75	1746.92
521.95	1699.81
522.15	1724.39
522.35	1691.62
522.55	1621.99
522.75	1783.78
522.95	1722.34
523.14	1683.43
523.34	1716.20
523.54	1685.48
523.74	1794.02
523.94	1730.53
524.14	1724.39
524.34	1828.84
524.54	1869.80
524.73	1720.29
524.93	1705.96
525.13	1730.53
525.33	1714.15
525.53	1890.28
525.73	1796.07
525.93	1724.39
526.13	1708.01
526.32	1734.63
526.52	1796.07
526.72	1787.88
526.92	1728.49
527.12	1712.10
527.32	1679.33
527.52	1775.59
527.71	1816.55
527.91	1658.85
528.11	1660.90
528.31	1742.82
528.51	1681.38
528.71	1777.64
528.90	1732.58
529.10	1839.08
529.30	1791.97
529.50	1630.18
529.70	1665.00
529.90	1658.85
530.09	1796.07
530.29	1757.16
530.49	1673.19
530.69	1945.57
530.89	1710.05
531.09	1798.12
531.28	1746.92
531.48	1785.83
531.68	1751.01
531.88	1697.77
532.08	1808.36
532.28	1759.21
532.47	1712.10
532.67	1800.16
532.87	1751.01
533.07	1634.28
533.27	1830.88
533.46	1759.21
533.66	1720.29
533.86	1767.40
534.06	1681.38
534.26	1710.05
534.45	1718.25
534.65	1759.21
534.85	1796.07
535.05	1775.59
535.25	1824.74
535.44	1607.66
535.64	1839.08
535.84	1705.96
536.04	1652.71
536.24	1669.09
536.43	1718.25
536.63	1746.92
536.83	1755.11
537.03	1734.63
537.22	1691.62
537.42	1755.11
537.62	1773.54
537.82	1732.58
538.02	1734.63
538.21	1839.08
538.41	1841.12
538.61	1843.17
538.81	1710.05
539.00	1837.03
539.20	1648.61
539.40	1783.78
539.60	1822.69
539.79	1830.88
539.99	1757.16
540.19	1746.92
540.39	1771.49
540.58	1734.63
540.78	1861.60
540.98	1746.92
541.18	1794.02
541.37	1726.44
541.57	1796.07
541.77	1759.21
541.97	1656.81
542.16	1720.29
542.36	1630.18
542.56	1746.92
542.76	1849.32
542.95	1767.40
543.15	1814.50
543.35	1759.21
543.54	1669.09
543.74	1714.15
543.94	1798.12
544.14	1710.05
544.33	1787.88
544.53	1779.68
544.73	1759.21
544.93	1708.01
545.12	1736.68
545.32	1765.35
545.52	1761.25
545.71	1607.66
545.91	1697.77
546.11	1724.39
546.30	1630.18
546.50	1730.53
546.70	1828.84
546.90	1767.40
547.09	1718.25
547.29	1802.21
547.49	1798.12
547.68	1816.55
547.88	1611.75
548.08	1742.82
548.27	2158.56
548.47	1656.81
548.67	1691.62
548.87	1714.15
549.06	1681.38
549.26	1746.92
549.46	1816.55
549.65	1720.29
549.85	1705.96
550.05	1695.72
550.24	1617.90
550.44	1720.29
550.64	1710.05
550.83	1728.49
551.03	1779.68
551.23	1783.78
551.42	1742.82
551.62	1687.53
551.82	1759.21
552.01	1767.40
552.21	1806.31
552.41	1736.68
552.60	1837.03
552.80	1785.83
553.00	1642.47
553.19	1665.00
553.39	1802.21
553.59	1648.61
553.78	1816.55
553.98	1759.21
554.17	1603.56
554.37	1732.58
554.57	1775.59
554.76	1652.71
554.96	1703.91
555.16	1787.88
555.35	1708.01
555.55	1701.86
555.75	1722.34
555.94	1863.65
556.14	1665.00
556.33	1744.87
556.53	1763.30
556.73	1810.40
556.92	1730.53
557.12	1779.68
557.32	1810.40
557.51	1812.45
557.71	1726.44
557.90	1789.92
558.10	1804.26
558.30	1748.97
558.49	1703.91
558.69	1669.09
558.88	1804.26
559.08	1726.44
559.28	1695.72
559.47	1730.53
559.67	1781.73
559.86	1810.40
560.06	1722.34
560.26	1677.29
560.45	1748.97
560.65	1716.20
560.84	1843.17
561.04	1652.71
561.24	1806.31
561.43	1687.53
561.63	1818.60
561.82	1740.77
562.02	1785.83
562.22	1701.86
562.41	1789.92
562.61	1746.92
562.80	1617.90
563.00	1880.04
563.19	1716.20
563.39	1732.58
563.59	1832.93
563.78	1726.44
563.98	1628.14
564.17	1693.67
564.37	1673.19
564.56	1738.73
564.76	1697.77
564.96	1744.87
565.15	1691.62
565.35	1890.28
565.54	1748.97
565.74	1753.06
565.93	1779.68
566.13	1675.24
566.32	1769.44
566.52	1781.73
566.71	1738.73
566.91	1839.08
567.11	1738.73
567.30	1693.67
567.50	1822.69
567.69	1759.21
567.89	1718.25
568.08	1716.20
568.28	1814.50
568.47	1650.66
568.67	1751.01
568.86	1701.86
569.06	1796.07
569.25	1703.91
569.45	1730.53
569.64	1775.59
569.84	1746.92
570.04	1734.63
570.23	1728.49
570.43	1708.01
570.62	1757.16
570.82	1812.45
571.01	1708.01
571.21	1712.10
571.40	1699.81
571.60	1767.40
571.79	1722.34
571.99	1812.45
572.18	1681.38
572.38	1834.98
572.57	1734.63
572.77	1755.11
572.96	1912.80
573.16	1714.15
573.35	1751.01
573.55	1834.98
573.74	1779.68
573.94	1740.77
574.13	1720.29
574.33	1888.23
574.52	1791.97
574.71	1757.16
574.91	1802.21
575.10	1703.91
575.30	1757.16
575.49	1746.92
575.69	1728.49
575.88	1714.15
576.08	1785.83
576.27	1800.16
576.47	1740.77
576.66	1779.68
576.86	1814.50
577.05	1742.82
577.25	1748.97
577.44	1925.09
577.64	1730.53
577.83	1783.78
578.02	1791.97
578.22	1886.18
578.41	1882.08
578.61	1726.44
578.80	1669.09
579.00	1763.30
579.19	1771.49
579.39	1794.02
579.58	1787.88
579.77	1679.33
579.97	1894.37
580.16	1888.23
580.36	1796.07
580.55	1800.16
580.75	1851.36
580.94	1738.73
581.13	1845.22
581.33	1779.68
581.52	1742.82
581.72	1918.95
581.91	1763.30
582.11	1777.64
582.30	1898.47
582.49	1722.34
582.69	1845.22
582.88	1841.12
583.08	1746.92
583.27	1822.69
583.47	1742.82
583.66	1839.08
583.85	1738.73
584.05	1740.77
584.24	1746.92
584.44	1798.12
584.63	1779.68
584.82	1877.99
585.02	1902.56
585.21	1861.60
585.41	1859.56
585.60	1841.12
585.79	1880.04
585.99	1906.66
586.18	1884.13
586.37	2209.76
586.57	3452.88
586.76	9873.26
586.96	23987.86
587.15	34272.76
587.34	40250.78
587.54	41973.12
587.73	36312.53
587.93	26136.18
588.12	21448.38
588.31	18114.28
588.51	16404.23
588.70	15222.55
588.89	13909.80
589.09	12685.12
589.28	11112.28
589.47	9482.10
589.67	7948.17
589.86	6420.38
590.06	4808.63
590.25	3901.38
590.44	3168.21
590.64	2600.92
590.83	2336.73
591.02	2090.98
591.22	1996.77
591.41	1968.10
591.60	1841.12
591.80	1918.95
591.99	1812.45
592.18	1785.83
592.38	1871.84
592.57	1757.16
592.76	1701.86
592.96	1763.30
593.15	1777.64
593.34	1822.69
593.54	1818.60
593.73	1791.97
593.92	1728.49
594.12	1794.02
594.31	1767.40
594.50	1851.36
594.70	1822.69
594.89	1927.14
595.08	1699.81
595.28	1789.92
595.47	1929.19
595.66	1834.98
595.86	1701.86
596.05	1746.92
596.24	1699.81
596.43	1753.06
596.63	1757.16
596.82	1767.40
597.01	1730.53
597.21	1785.83
597.40	1751.01
597.59	1740.77
597.79	1710.05
597.98	1855.46
598.17	1734.63
598.36	1724.39
598.56	1775.59
598.75	1753.06
598.94	1781.73
599.14	1718.25
599.33	1738.73
599.52	1828.84
599.71	1763.30
599.91	1843.17
600.10	1808.36
600.29	1779.68
600.48	1804.26
600.68	1812.45
600.87	1675.24
601.06	1763.30
601.26	1701.86
601.45	1830.88
601.64	1708.01
601.83	1796.07
602.03	1683.43
602.22	1660.90
602.41	1812.45
602.60	1849.32
602.80	1761.25
602.99	1783.78
603.18	1710.05
603.37	1828.84
603.57	1734.63
603.76	1779.68
603.95	1755.11
604.14	1789.92
604.34	1705.96
604.53	1761.25
604.72	1773.54
604.91	1765.35
605.10	1773.54
605.30	1652.71
605.49	1902.56
605.68	1773.54
605.87	1812.45
606.07	1765.35
606.26	1748.97
606.45	1820.64
606.64	1763.30
606.84	1796.07
607.03	1656.81
607.22	1773.54
607.41	1697.77
607.60	1736.68
607.80	1740.77
607.99	1730.53
608.18	1679.33
608.37	1773.54
608.56	1705.96
608.76	1796.07
608.95	1877.99
609.14	1665.00
609.33	1740.77
609.52	1843.17
609.72	1738.73
609.91	1763.30
610.10	1738.73
610.29	1812.45
610.48	1714.15
610.68	1726.44
610.87	1679.33
611.06	1759.21
611.25	1691.62
611.44	1826.79
611.63	1734.63
611.83	1877.99
612.02	1660.90
612.21	1783.78
612.40	1685.48
612.59	1675.24
612.79	1748.97
612.98	1742.82
613.17	1791.97
613.36	1751.01
613.55	1877.99
613.74	1667.05
613.93	1658.85
614.13	1738.73
614.32	1744.87
614.51	1773.54
614.70	1736.68
614.89	1718.25
615.08	1820.64
615.28	2021.35
615.47	1634.28
615.66	1732.58
615.85	1761.25
616.04	1851.36
616.23	1701.86
616.42	1681.38
616.62	1744.87
616.81	1740.77
617.00	1724.39
617.19	1822.69
617.38	1705.96
617.57	1753.06
617.76	1726.44
617.95	1759.21
618.15	1800.16
618.34	1828.84
618.53	1636.33
618.72	1757.16
618.91	1812.45
619.10	1796.07
619.29	1740.77
619.48	1724.39
619.68	1564.65
619.87	1767.40
620.06	1665.00
620.25	1738.73
620.44	1736.68
620.63	1679.33
620.82	1712.10
621.01	1751.01
621.20	1683.43
621.39	1783.78
621.59	1675.24
621.78	1685.48
621.97	1665.00
622.16	1722.34
622.35	1650.66
622.54	1806.31
622.73	1839.08
622.92	1689.57
623.11	1775.59
623.30	1726.44
623.49	1787.88
623.68	1671.14
623.88	1812.45
624.07	1744.87
624.26	1714.15
624.45	1775.59
624.64	1730.53
624.83	1701.86
625.02	1746.92
625.21	1740.77
625.40	1746.92
625.59	1816.55
625.78	1771.49
625.97	1705.96
626.16	1753.06
626.35	1771.49
626.54	1699.81
626.74	1806.31
626.93	1593.32
627.12	1748.97
627.31	1753.06
627.50	1724.39
627.69	1773.54
627.88	1658.85
628.07	1701.86
628.26	1650.66
628.45	1675.24
628.64	1689.57
628.83	1734.63
629.02	1714.15
629.21	1800.16
629.40	1697.77
629.59	1705.96
629.78	1746.92
629.97	1667.05
630.16	1763.30
630.35	1765.35
630.54	1759.21
630.73	1640.42
630.92	1712.10
631.11	1679.33
631.30	1677.29
631.49	1753.06
631.68	1708.01
631.87	1681.38
632.06	1658.85
632.25	1834.98
632.44	1734.63
632.63	1710.05
632.82	1734.63
633.01	1642.47
633.20	1755.11
633.39	1669.09
633.58	1619.94
633.77	1759.21
633.96	1751.01
634.15	1738.73
634.34	1791.97
634.53	1730.53
634.72	1656.81
634.91	1677.29
635.10	1732.58
635.29	1767.40
635.48	1718.25
635.67	1667.05
635.86	1656.81
636.05	1814.50
636.24	1726.44
636.43	1779.68
636.62	1742.82
636.81	1636.33
637.00	1759.21
637.19	1796.07
637.38	1660.90
637.57	1656.81
637.76	1656.81
637.95	1673.19
638.14	1695.72
638.33	1718.25
638.52	1718.25
638.71	1642.47
638.89	1603.56
639.08	1822.69
639.27	1804.26
639.46	1638.38
639.65	1828.84
639.84	1759.21
640.03	1810.40
640.22	1714.15
640.41	1884.13
640.60	1673.19
640.79	1630.18
640.98	1695.72
641.17	1777.64
641.36	1767.40
641.55	1781.73
641.74	1687.53
641.92	1662.95
642.11	1669.09
642.30	1730.53
642.49	1689.57
642.68	1689.57
642.87	1708.01
643.06	1771.49
643.25	1658.85
643.44	1599.46
643.63	1796.07
643.82	1722.34
644.00	1708.01
644.19	1691.62
644.38	1703.91
644.57	1826.79
644.76	1761.25
644.95	1665.00
645.14	1703.91
645.33	1642.47
645.52	1753.06
645.71	1624.04
645.89	1640.42
646.08	1703.91
646.27	1665.00
646.46	1787.88
646.65	1667.05
646.84	1673.19
647.03	1691.62
647.22	1806.31
647.40	1662.95
647.59	1708.01
647.78	1658.85
647.97	1703.91
648.16	1630.18
648.35	1763.30
648.54	1732.58
648.73	1714.15
648.91	1804.26
649.10	1736.68
649.29	1722.34
649.48	1779.68
649.67	1673.19
649.86	1648.61
650.05	1609.70
650.23	1755.11
650.42	1703.91
650.61	1763.30
650.80	1703.91
650.99	1931.23
651.18	1736.68
651.36	1701.86
651.55	1703.91
651.74	1714.15
651.93	1732.58
652.12	1654.76
652.31	1742.82
652.49	1714.15
652.68	1724.39
652.87	1775.59
653.06	1718.25
653.25	1789.92
653.44	1763.30
653.62	1759.21
653.81	1730.53
654.00	1740.77
654.19	1818.60
654.38	1898.47
654.56	1685.48
654.75	1708.01
654.94	1787.88
655.13	1671.14
655.32	1685.48
655.51	1791.97
655.69	1718.25
655.88	1732.58
656.07	1652.71
656.26	1787.88
656.45	1660.90
656.63	1734.63
656.82	1724.39
657.01	1824.74
657.20	1701.86
657.38	1738.73
657.57	1691.62
657.76	1570.79
657.95	1851.36
658.14	1726.44
658.32	1808.36
658.51	1619.94
658.70	1730.53
658.89	1708.01
659.08	1712.10
659.26	1828.84
659.45	1646.57
659.64	1775.59
659.83	1656.81
660.01	1910.75
660.20	1683.43
660.39	1873.89
660.58	1574.89
660.76	1705.96
660.95	1677.29
661.14	1718.25
661.33	1693.67
661.51	1763.30
661.70	1705.96
661.89	1681.38
662.08	1763.30
662.26	1671.14
662.45	1611.75
662.64	1828.84
662.83	1845.22
663.01	1581.03
663.20	1677.29
663.39	1767.40
663.58	1716.20
663.76	1697.77
663.95	1804.26
664.14	1630.18
664.32	1730.53
664.51	1724.39
664.70	1689.57
664.89	1748.97
665.07	1632.23
665.26	1753.06
665.45	1681.38
665.64	1798.12
665.82	1712.10
666.01	1804.26
666.20	1732.58
666.38	1806.31
666.57	1685.48
666.76	2269.15
666.95	4536.25
667.13	10485.60
667.32	15288.09
667.51	17755.89
667.69	18876.13
667.88	17923.82
668.07	12359.49
668.25	9432.94
668.44	8007.56
668.63	7272.34
668.81	6793.11
669.00	6256.54
669.19	5672.87
669.38	5191.60
669.56	4544.44
669.75	4018.11
669.94	3528.65
670.12	2901.97
670.31	2545.63
670.50	2336.73
670.68	2127.84
670.87	1988.58
671.06	1826.79
671.24	1761.25
671.43	1816.55
671.62	1712.10
671.80	1691.62
671.99	1796.07
672.18	1732.58
672.36	1781.73
672.55	1787.88
672.74	1755.11
672.92	1656.81
673.11	1748.97
673.29	1632.23
673.48	1769.44
673.67	1730.53
673.85	1804.26
674.04	1708.01
674.23	1736.68
674.41	1810.40
674.60	1652.71
674.79	1630.18
674.97	1656.81
675.16	1724.39
675.34	1787.88
675.53	1722.34
675.72	1748.97
675.90	1789.92
676.09	1679.33
676.28	1693.67
676.46	1658.85
676.65	1736.68
676.83	1638.38
677.02	1726.44
677.21	1726.44
677.39	1742.82
677.58	1665.00
677.77	1712.10
677.95	1697.77
678.14	1699.81
678.32	1648.61
678.51	1693.67
678.70	1873.89
678.88	1759.21
679.07	1714.15
679.25	1734.63
679.44	1693.67
679.63	1630.18
679.81	1656.81
680.00	1751.01
680.18	1738.73
680.37	1783.78
680.55	1679.33
680.74	1599.46
680.93	1601.51
681.11	1744.87
681.30	1751.01
681.48	1656.81
681.67	1642.47
681.85	1722.34
682.04	1667.05
682.23	1689.57
682.41	1724.39
682.60	1722.34
682.78	1726.44
682.97	1673.19
683.15	1667.05
683.34	1734.63
683.53	1730.53
683.71	1650.66
683.90	1912.80
684.08	1724.39
684.27	1632.23
684.45	1734.63
684.64	1857.51
684.82	1728.49
685.01	1697.77
685.19	1720.29
685.38	1757.16
685.57	1748.97
685.75	1656.81
685.94	1730.53
686.12	1675.24
686.31	1685.48
686.49	1861.60
686.68	1630.18
686.86	1673.19
687.05	1685.48
687.23	1853.41
687.42	1710.05
687.60	1646.57
687.79	1789.92
687.97	1830.88
688.16	1748.97
688.34	1734.63
688.53	1665.00
688.71	1697.77
688.90	1806.31
689.08	1718.25
689.27	1671.14
689.45	1777.64
689.64	1695.72
689.82	1718.25
690.01	1806.31
690.19	1755.11
690.38	1712.10
690.56	1837.03
690.75	1601.51
690.93	1710.05
691.12	1660.90
691.30	1634.28
691.49	1648.61
691.67	1701.86
691.86	1785.83
692.04	1669.09
692.23	1681.38
692.41	1677.29
692.60	1814.50
692.78	1685.48
692.97	1703.91
693.15	1798.12
693.34	1775.59
693.52	1763.30
693.71	1695.72
693.89	1722.34
694.08	1658.85
694.26	1759.21
694.44	1767.40
694.63	1810.40
694.81	1669.09
695.00	1716.20
695.18	1767.40
695.37	1820.64
695.55	1724.39
695.74	1738.73
695.92	1621.99
696.10	1755.11
696.29	1558.50
696.47	1751.01
696.66	1693.67
696.84	1701.86
697.03	1665.00
697.21	1812.45
697.40	2344.92
697.58	1783.78
697.76	1681.38
697.95	1693.67
698.13	1652.71
698.32	1689.57
698.50	1652.71
698.68	1689.57
698.87	1662.95
699.05	1724.39
699.24	1703.91
699.42	1769.44
699.61	1779.68
699.79	1718.25
699.97	1675.24
700.16	1685.48
700.34	1689.57
700.53	1689.57
700.71	1812.45
700.89	1841.12
701.08	1689.57
701.26	1685.48
701.45	2103.26
701.63	1640.42
701.81	1677.29
702.00	1681.38
702.18	1689.57
702.37	1714.15
702.55	1763.30
702.73	1753.06
702.92	1556.46
703.10	1800.16
703.28	1740.77
703.47	1675.24
703.65	1828.84
703.84	1722.34
704.02	1751.01
704.20	1746.92
704.39	1697.77
704.57	1667.05
704.75	1757.16
704.94	1757.16
705.12	1621.99
705.30	1732.58
705.49	2252.77
705.67	4470.72
705.86	9277.30
706.04	12345.16
706.22	14468.90
706.41	15234.84
706.59	13682.48
706.77	9615.21
706.96	7313.30
707.14	6641.56
707.32	5939.11
707.51	5603.24
707.69	4863.93
707.87	4231.10
708.06	3577.80
708.24	2975.70
708.42	2432.99
708.61	2236.38
708.79	1896.42
708.97	1773.54
709.16	1832.93
709.34	1748.97
709.52	1746.92
709.71	1746.92
709.89	1783.78
710.07	1755.11
710.26	1669.09
710.44	1724.39
710.62	1724.39
710.80	1714.15
710.99	1845.22
711.17	1775.59
711.35	1673.19
711.54	1708.01
711.72	1722.34
711.90	1705.96
712.09	1724.39
712.27	1746.92
712.45	1720.29
712.63	1722.34
712.82	1734.63
713.00	1746.92
713.18	1796.07
713.37	1794.02
713.55	1802.21
713.73	1800.16
713.91	1691.62
714.10	1656.81
714.28	1685.48
714.46	1732.58
714.65	1746.92
714.83	1714.15
715.01	1742.82
715.19	1697.77
715.38	1626.09
715.56	1789.92
715.74	1599.46
715.92	1665.00
716.11	1794.02
716.29	1648.61
716.47	1697.77
716.65	1634.28
716.84	1572.84
717.02	1820.64
717.20	1574.89
717.38	1697.77
717.57	1761.25
717.75	1710.05
717.93	1742.82
718.11	1757.16
718.30	1621.99
718.48	1804.26
718.66	1789.92
718.84	1759.21
719.03	1724.39
719.21	1652.71
719.39	1775.59
719.57	1779.68
719.75	1703.91
719.94	1724.39
720.12	1744.87
720.30	1726.44
720.48	1783.78
720.67	1695.72
720.85	1667.05
721.03	1669.09
721.21	1636.33
721.39	1839.08
721.58	1761.25
721.76	1746.92
721.94	1746.92
722.12	1716.20
722.30	1806.31
722.49	1691.62
722.67	1734.63
722.85	1761.25
723.03	1671.14
723.21	1765.35
723.40	1728.49
723.58	1722.34
723.76	1695.72
723.94	1765.35
724.12	1787.88
724.30	1837.03
724.49	1718.25
724.67	1599.46
724.85	1751.01
725.03	1652.71
725.21	1746.92
725.40	1710.05
725.58	1648.61
725.76	1812.45
725.94	1781.73
726.12	1636.33
726.30	1753.06
726.49	1753.06
726.67	1636.33
726.85	1722.34
727.03	1804.26
727.21	2176.99
727.39	2998.23
727.57	3878.85
727.76	4315.07
727.94	4431.80
728.12	4376.51
728.30	3794.89
728.48	2959.31
728.66	2656.22
728.84	2566.10
729.03	2242.53
729.21	2146.27
729.39	1988.58
729.57	1849.32
729.75	1873.89
729.93	1855.46
730.11	1665.00
730.30	1654.76
730.48	1779.68
730.66	1828.84
730.84	1742.82
731.02	1742.82
731.20	1630.18
731.38	1662.95
731.56	1583.08
731.74	1628.14
731.93	1685.48
732.11	1748.97
732.29	1693.67
732.47	1701.86
732.65	1726.44
732.83	1826.79
733.01	1748.97
733.19	1687.53
733.37	1724.39
733.56	1726.44
733.74	1644.52
733.92	1789.92
734.10	1687.53
734.28	1718.25
734.46	1640.42
734.64	1796.07
734.82	1677.29
735.00	1689.57
735.18	1693.67
735.36	1718.25
735.54	1677.29
735.73	1691.62
735.91	1738.73
736.09	1759.21
736.27	1744.87
736.45	1734.63
736.63	1638.38
736.81	1644.52
736.99	1742.82
737.17	1746.92
737.35	1665.00
737.53	1703.91
737.71	1773.54
737.89	1771.49
738.07	1660.90
738.25	1654.76
738.43	1671.14
738.61	1679.33
738.80	1632.23
738.98	1619.94
739.16	1617.90
739.34	1697.77
739.52	1787.88
739.70	1665.00
739.88	1734.63
740.06	1775.59
740.24	1599.46
740.42	1800.16
740.60	1607.66
740.78	1724.39
740.96	1648.61
741.14	1636.33
741.32	1779.68
741.50	1564.65
741.68	1800.16
741.86	1773.54
742.04	1689.57
742.22	1640.42
742.40	1689.57
742.58	1779.68
742.76	1662.95
742.94	1769.44
743.12	1689.57
743.30	1703.91
743.48	1683.43
743.66	1705.96
743.84	1720.29
744.02	1615.85
744.20	1695.72
744.38	1673.19
744.56	1662.95
744.74	1820.64
744.92	1730.53
745.10	1798.12
745.28	1753.06
745.46	1808.36
745.64	1728.49
745.82	1851.36
746.00	1748.97
746.18	1718.25
746.36	1673.19
746.54	1791.97
746.72	1677.29
746.90	1771.49
747.08	1755.11
747.26	1712.10
747.44	1734.63
747.62	1677.29
747.80	1751.01
747.98	1751.01
748.15	1669.09
748.33	1808.36
748.51	1699.81
748.69	1734.63
748.87	1658.85
749.05	1652.71
749.23	1783.78
749.41	1783.78
749.59	1740.77
749.77	1810.40
749.95	1708.01
750.13	1654.76
750.31	1736.68
750.49	1695.72
750.67	1710.05
750.85	1832.93
751.03	1667.05
751.20	1753.06
751.38	1697.77
751.56	1685.48
751.74	1738.73
751.92	1775.59
752.10	1632.23
752.28	1748.97
752.46	1683.43
752.64	1677.29
752.82	1699.81
753.00	1701.86
753.18	1619.94
753.35	1669.09
753.53	1667.05
753.71	1658.85
753.89	1712.10
754.07	1722.34
754.25	1736.68
754.43	1740.77
754.61	1642.47
754.79	1761.25
754.97	1720.29
755.14	1796.07
755.32	1669.09
755.50	1769.44
755.68	1759.21
755.86	1687.53
756.04	1642.47
756.22	1650.66
756.40	1738.73
756.57	1820.64
756.75	1652.71
756.93	1806.31
757.11	1816.55
757.29	1689.57
757.47	1685.48
757.65	1609.70
757.82	1605.61
758.00	1660.90
758.18	1691.62
758.36	1697.77
758.54	1761.25
758.72	1665.00
758.90	1783.78
759.07	1755.11
759.25	1691.62
759.43	1722.34
759.61	1718.25
759.79	2291.68
759.97	1728.49
760.15	1677.29
760.32	1646.57
760.50	1658.85
760.68	1857.51
760.86	1632.23
761.04	1759.21
761.22	1746.92
761.39	1720.29
761.57	1767.40
761.75	1660.90
761.93	1720.29
762.11	1759.21
762.28	1644.52
762.46	1646.57
762.64	1738.73
762.82	1665.00
763.00	1767.40
763.18	1697.77
763.35	1665.00
763.53	1755.11
763.71	1689.57
763.89	1695.72
764.07	1703.91
764.24	1789.92
764.42	1726.44
764.60	1681.38
764.78	1728.49
764.96	1769.44
765.13	1757.16
765.31	1802.21
765.49	1746.92
765.67	1683.43
765.84	1671.14
766.02	1677.29
766.20	1578.98
766.38	1779.68
766.56	1685.48
766.73	1738.73
766.91	1667.05
767.09	1681.38
767.27	1716.20
767.44	1667.05
767.62	1617.90
767.80	1722.34
767.98	1681.38
768.15	1689.57
768.33	1712.10
768.51	1826.79
768.69	1693.67
768.87	1689.57
769.04	1716.20
769.22	1837.03
769.40	1798.12
769.58	1832.93
769.75	1691.62
769.93	1789.92
770.11	1714.15
770.28	1710.05
770.46	1712.10
770.64	1720.29
770.82	1677.29
770.99	1759.21
771.17	1699.81
771.35	1630.18
771.53	1705.96
771.70	1587.18
771.88	1701.86
772.06	1642.47
772.23	1705.96
772.41	1779.68
772.59	1738.73
772.77	1703.91
772.94	1640.42
773.12	1677.29
773.30	1736.68
773.47	1705.96
773.65	1691.62
773.83	1816.55
774.01	1744.87
774.18	1566.70
774.36	1671.14
774.54	1763.30
774.71	1787.88
774.89	1609.70
775.07	1679.33
775.24	1665.00
775.42	1744.87
775.60	1814.50
775.78	1660.90
775.95	1658.85
776.13	1599.46
776.31	1558.50
776.48	1689.57
776.66	1812.45
776.84	1660.90
777.01	1689.57
777.19	1730.53
777.37	1689.57
777.54	1718.25
777.72	1814.50
777.90	1779.68
778.07	1632.23
778.25	1884.13
778.43	1744.87
778.60	1722.34
778.78	1820.64
778.96	1832.93
779.13	1660.90
779.31	1791.97
779.49	1669.09
779.66	1691.62
779.84	1718.25
780.01	1716.20
780.19	1683.43
780.37	1757.16
780.54	1787.88
780.72	1734.63
780.90	1662.95
781.07	1777.64
781.25	1648.61
781.43	1802.21
781.60	1683.43
781.78	1806.31
781.95	1665.00
782.13	1650.66
782.31	1619.94
782.48	1603.56
782.66	1683.43
782.83	1865.70
783.01	1710.05
783.19	1757.16
783.36	1673.19
783.54	1607.66
783.72	1773.54
783.89	1689.57
784.07	1738.73
784.24	1675.24
784.42	1730.53
784.60	1703.91
784.77	1730.53
784.95	1632.23
785.12	1636.33
785.30	1755.11
785.47	1744.87
785.65	1644.52
785.83	1689.57
786.00	1617.90
786.18	1841.12
786.35	1720.29
786.53	1593.32
786.71	1775.59
786.88	1665.00
787.06	1724.39
787.23	1740.77
787.41	1652.71
787.58	1767.40
787.76	1605.61
787.94	1640.42
788.11	1751.01
788.29	1626.09
788.46	1708.01
788.64	1615.85
788.81	1689.57
788.99	1701.86
789.16	1665.00
789.34	1654.76
789.52	1644.52
789.69	1683.43
789.87	1648.61
790.04	1746.92
790.22	1656.81
790.39	1877.99
790.57	1650.66
790.74	1628.14
790.92	1794.02
791.09	1671.14
791.27	1703.91
791.44	1763.30
791.62	1744.87
791.79	1775.59
791.97	1759.21
792.15	1847.27
792.32	1703.91
792.50	1736.68
792.67	1761.25
792.85	1794.02
793.02	1712.10
793.20	1708.01
793.37	1644.52
793.55	1660.90
793.72	1665.00
793.90	1771.49
794.07	1703.91
794.25	1683.43
794.42	1710.05
794.60	1755.11
794.77	1714.15
794.95	1708.01
795.12	1718.25
795.30	1671.14
795.47	1599.46
795.65	1927.14
795.82	1753.06
796.00	1691.62
796.17	1658.85
796.34	1724.39
796.52	1681.38
796.69	1751.01
796.87	1753.06
797.04	1716.20
797.22	1800.16
797.39	1703.91
797.57	1751.01
797.74	1718.25
797.92	1771.49
798.09	1632.23
798.27	1910.75
798.44	1722.34
798.62	1660.90
798.79	1685.48
798.96	1691.62
799.14	1746.92
799.31	1800.16
799.49	1685.48
799.66	1693.67
799.84	1789.92
800.01	1609.70
800.19	1791.97
800.36	1607.66
800.53	1716.20
800.71	1734.63
800.88	1824.74
801.06	1642.47
801.23	1703.91
801.41	1673.19
801.58	1607.66
801.75	1705.96
801.93	1695.72
802.10	1722.34
802.28	1685.48
802.45	1718.25
802.63	1671.14
802.80	1744.87
802.97	1689.57
803.15	1824.74
803.32	1671.14
803.50	1689.57
803.67	1646.57
803.84	1654.76
804.02	1732.58
804.19	1685.48
804.37	1589.22
804.54	1673.19
804.71	1595.37
804.89	1724.39
805.06	1628.14
805.24	1712.10
805.41	1626.09
805.58	1636.33
805.76	1855.46
805.93	1667.05
806.10	1796.07
806.28	1804.26
806.45	1675.24
806.63	1658.85
806.80	1722.34
806.97	1701.86
807.15	1714.15
807.32	1660.90
807.49	1705.96
807.67	1636.33
807.84	1718.25
808.01	1595.37
808.19	1781.73
808.36	1787.88
808.54	1640.42
808.71	1689.57
808.88	1628.14
809.06	1683.43
809.23	1763.30
809.40	1595.37
809.58	1718.25
809.75	1636.33
809.92	1615.85
810.10	1863.65
810.27	1673.19
810.44	1714.15
810.62	1691.62
810.79	1697.77
810.96	1669.09
811.14	1624.04
811.31	1783.78
811.48	1734.63
811.66	1716.20
811.83	1716.20
812.00	1681.38
812.18	1705.96
812.35	1802.21
812.52	1615.85
812.69	1722.34
812.87	1665.00
813.04	1621.99
813.21	1695.72
813.39	1705.96
813.56	1673.19
813.73	1753.06
813.91	1640.42
814.08	1789.92
814.25	1652.71
814.42	1593.32
814.60	1724.39
814.77	1740.77
814.94	1751.01
815.12	1685.48
815.29	1732.58
815.46	1619.94
815.63	1732.58
815.81	1722.34
815.98	1712.10
816.15	1722.34
816.33	1771.49
816.50	1722.34
816.67	1691.62
816.84	1718.25
817.02	1660.90
817.19	1642.47
817.36	1744.87
817.53	1820.64
817.71	1667.05
817.88	1773.54
818.05	1642.47
818.22	1748.97
818.40	1839.08
818.57	1658.85
818.74	1751.01
818.91	1724.39
819.09	1669.09
819.26	1769.44
819.43	1730.53
819.60	1697.77
819.78	1656.81
819.95	1730.53
820.12	1697.77
820.29	1732.58
820.47	1761.25
820.64	1673.19
820.81	1708.01
820.98	1677.29
821.15	1673.19
821.33	1697.77
821.50	1640.42
821.67	1820.64
821.84	1665.00
822.02	1751.01
822.19	1761.25
822.36	1699.81
822.53	1683.43
822.70	1597.42
822.88	1656.81
823.05	1763.30
823.22	1660.90
823.39	1742.82
823.56	1761.25
823.74	1818.60
823.91	1687.53
824.08	1669.09
824.25	1720.29
824.42	1849.32
824.60	1689.57
824.77	1746.92
824.94	1734.63
825.11	1746.92
825.28	1624.04
825.45	1728.49
825.63	1744.87
825.80	1626.09
825.97	1783.78
826.14	1714.15
826.31	1650.66
826.48	1730.53
826.66	1673.19
826.83	1609.70
827.00	1763.30
827.17	1656.81
827.34	1662.95
827.51	1662.95
827.69	1708.01
827.86	1632.23
828.03	1683.43
828.20	1677.29
828.37	1605.61
828.54	1734.63
828.71	1671.14
828.89	1771.49
829.06	1665.00
829.23	1812.45
829.40	1601.51
829.57	1703.91
829.74	1685.48
829.91	1708.01
830.09	1652.71
830.26	1726.44
830.43	1865.70
830.60	1673.19
830.77	1714.15
830.94	1773.54
831.11	1773.54
831.28	1662.95
831.46	1775.59
831.63	1656.81
831.80	1724.39
831.97	1677.29
832.14	1648.61
832.31	1673.19
832.48	1701.86
832.65	1708.01
832.82	1730.53
832.99	1712.10
833.17	1619.94
833.34	1769.44
833.51	1748.97
833.68	1679.33
833.85	1710.05
834.02	1683.43
834.19	1648.61
834.36	1656.81
834.53	1683.43
834.70	1744.87
834.87	1730.53
835.04	1798.12
835.22	1630.18
835.39	1693.67
835.56	1595.37
835.73	1701.86
835.90	1791.97
836.07	1578.98
836.24	1726.44
836.41	1724.39
836.58	1687.53
836.75	1738.73
836.92	1767.40
837.09	1654.76
837.26	1769.44
837.43	1804.26
837.60	1695.72
837.77	1648.61
837.94	1705.96
838.12	1732.58
838.29	1794.02
838.46	1578.98
838.63	1632.23
838.80	1740.77
838.97	1738.73
839.14	1751.01
839.31	1683.43
839.48	1685.48
839.65	1630.18
839.82	1738.73
839.99	1718.25
840.16	1660.90
840.33	1689.57
840.50	1753.06
840.67	1683.43
840.84	1568.74
841.01	1681.38
841.18	1675.24
841.35	1679.33
841.52	1648.61
841.69	1828.84
841.86	1697.77
842.03	1699.81
842.20	1779.68
842.37	1699.81
842.54	1701.86
842.71	1714.15
842.88	1605.61
843.05	1755.11
843.22	1755.11
843.39	1773.54
843.56	1650.66
843.73	1710.05
843.90	1683.43
844.07	1693.67
844.24	1724.39
844.41	1800.16
844.58	1724.39
844.75	1714.15
844.92	1755.11
845.09	1746.92
845.26	1658.85
845.43	1705.96
845.60	1726.44
845.77	1761.25
845.94	1773.54
846.10	1742.82
846.27	1646.57
846.44	1675.24
846.61	1695.72
846.78	1662.95
846.95	1748.97
847.12	1636.33
847.29	1718.25
847.46	1646.57
847.63	1748.97
847.80	1697.77
847.97	1683.43
848.14	1822.69
848.31	1669.09
848.48	1679.33
848.65	1697.77
848.82	1662.95
848.98	1781.73
849.15	1685.48
849.32	1740.77
849.49	1814.50
849.66	1728.49
849.83	1691.62
850.00	1673.19
850.17	1677.29
850.34	1701.86
850.51	1632.23
850.68	1619.94
850.85	1845.22
851.01	1691.62
851.18	1775.59
851.35	1671.14
851.52	1771.49
851.69	1783.78
851.86	1599.46
852.03	1730.53
852.20	1748.97
852.37	1767.40
852.53	1683.43
852.70	1712.10
852.87	1685.48
853.04	1746.92
853.21	1677.29
853.38	1734.63
853.55	1791.97
853.72	1757.16
853.89	1613.80
854.05	1656.81
854.22	1679.33
854.39	1679.33
854.56	1658.85
854.73	1830.88
854.90	1646.57
855.07	1834.98
855.23	1619.94
855.40	1632.23
855.57	1640.42
855.74	1589.22
855.91	1890.28
856.08	1576.94
856.25	1708.01
856.41	1699.81
856.58	1703.91
856.75	1712.10
856.92	1652.71
857.09	1691.62
857.26	1634.28
857.42	1685.48
857.59	1667.05
857.76	1636.33
857.93	1789.92
858.10	1738.73
858.27	1634.28
858.43	1767.40
858.60	1656.81
858.77	1601.51
858.94	1638.38
859.11	1746.92
859.27	1703.91
859.44	1726.44
859.61	1814.50
859.78	1679.33
859.95	1685.48
860.12	1714.15
860.28	1851.36
860.45	1882.08
860.62	1720.29
860.79	1724.39
860.95	1726.44
861.12	1654.76
861.29	1677.29
861.46	1591.27
861.63	1624.04
861.79	1699.81
861.96	1662.95
862.13	1751.01
862.30	1775.59
862.47	1712.10
862.63	1665.00
862.80	1751.01
862.97	1681.38
863.14	1765.35
863.30	1740.77
863.47	1597.42
863.64	1777.64
863.81	1699.81
863.97	1658.85
864.14	1716.20
864.31	1701.86
864.48	1695.72
864.65	1724.39
864.81	1689.57
864.98	1671.14
865.15	1738.73
865.32	1689.57
865.48	1736.68
865.65	1826.79
865.82	1591.27
865.98	1767.40
866.15	1796.07
866.32	1658.85
866.49	1730.53
866.65	1753.06
866.82	1685.48
866.99	1714.15
867.16	1728.49
867.32	1665.00
867.49	1640.42
867.66	1773.54
867.83	1695.72
867.99	1640.42
868.16	1728.49
868.33	1656.81
868.49	1693.67
868.66	1634.28
868.83	1763.30
868.99	1720.29
869.16	1732.58
869.33	1728.49
869.50	1783.78
869.66	1738.73
869.83	1675.24
870.00	1587.18
870.16	1746.92
870.33	1669.09
870.50	1755.11
870.66	1732.58
870.83	1808.36
871.00	1791.97
871.17	1654.76
871.33	1726.44
871.50	1767.40
871.67	1701.86
871.83	1753.06
872.00	1738.73
872.17	1624.04
872.33	1759.21
872.50	1701.86
872.67	1658.85
872.83	1720.29
873.00	1648.61
873.17	1673.19
873.33	1773.54
873.50	1722.34
873.67	1693.67
873.83	1656.81
874.00	1722.34
874.16	1693.67
874.33	1650.66
874.50	1632.23
874.66	1740.77
874.83	1658.85
875.00	1847.27
875.16	1755.11
875.33	1816.55
875.50	1624.04
875.66	1701.86
875.83	1685.48
875.99	1775.59
876.16	1662.95
876.33	1597.42
876.49	1656.81
876.66	1775.59
876.83	1644.52
876.99	1626.09
877.16	1691.62
877.32	1751.01
877.49	1683.43
877.66	1701.86
877.82	1837.03
877.99	1697.77
878.15	1714.15
878.32	1693.67
878.49	1714.15
878.65	1634.28
878.82	1751.01
878.98	1656.81
879.15	1730.53
879.32	1802.21
879.48	1738.73
879.65	1689.57
879.81	1689.57
879.98	1626.09
880.15	1662.95
880.31	1724.39
880.48	1654.76
880.64	1791.97
880.81	1734.63
880.97	1791.97
881.14	1757.16
881.31	1675.24
881.47	1832.93
881.64	1695.72
881.80	1667.05
881.97	1685.48
882.13	1712.10
882.30	1638.38
882.47	1697.77
882.63	1640.42
882.80	1705.96
882.96	1683.43
883.13	1800.16
883.29	1738.73
883.46	1738.73
883.62	1753.06
883.79	1744.87
883.95	1701.86
884.12	1667.05
884.29	1791.97
884.45	1734.63
884.62	1767.40
884.78	1583.08
884.95	1853.41
885.11	1628.14
885.28	1789.92
885.44	1665.00
885.61	1740.77
885.77	1789.92
885.94	1705.96
886.10	1740.77
886.27	1748.97
886.43	1857.51
886.60	1714.15
886.76	1687.53
886.93	1648.61
887.09	1728.49
887.26	1665.00
887.42	1693.67
887.59	1771.49
887.75	1880.04
887.92	1753.06
888.08	1746.92
888.25	1832.93
888.41	1748.97
888.58	1726.44
888.74	1652.71
888.91	1728.49
>>>>>End Processed Spectral Data<<<<<
