SpectraSuite Data File
++++++++++++++++++++++++++++++++++++
Date: Mon Jun 06 17:00:17 CEST 2016
User: root
Dark Spectrum Present: No
Reference Spectrum Present: No
Number of Sampled Component Spectra: 1
Spectrometers: USB4C02835
Integration Time (usec): 100000 (USB4C02835)
Spectra Averaged: 1 (USB4C02835)
Boxcar Smoothing: 0 (USB4C02835)
Correct for Electrical Dark: No (USB4C02835)
Strobe/Lamp Enabled: No (USB4C02835)
Correct for Detector Non-linearity: No (USB4C02835)
Correct for Stray Light: No (USB4C02835)
Number of Pixels in Processed Spectrum: 3648
>>>>>Begin Processed Spectral Data<<<<<
177.47	1402.86
177.69	1402.86
177.91	1402.86
178.13	1445.87
178.36	1507.30
178.58	1636.33
178.80	1816.55
179.02	1568.74
179.24	1679.33
179.46	1710.05
179.68	1812.45
179.90	1677.29
180.13	1724.39
180.35	1656.81
180.57	1699.81
180.79	1802.21
181.01	1669.09
181.23	1669.09
181.45	1783.78
181.67	1787.88
181.90	1685.48
182.12	1624.04
182.34	1699.81
182.56	1689.57
182.78	1708.01
183.00	1679.33
183.22	1710.05
183.44	1548.26
183.66	1771.49
183.89	1755.11
184.11	1738.73
184.33	1714.15
184.55	1816.55
184.77	1808.36
184.99	1703.91
185.21	1746.92
185.43	1708.01
185.65	1677.29
185.87	1667.05
186.10	1812.45
186.32	1910.75
186.54	1677.29
186.76	1732.58
186.98	1779.68
187.20	1708.01
187.42	1687.53
187.64	1708.01
187.86	1656.81
188.08	1736.68
188.30	1689.57
188.52	1685.48
188.75	1841.12
188.97	1757.16
189.19	1671.14
189.41	1705.96
189.63	1753.06
189.85	1675.24
190.07	1669.09
190.29	1660.90
190.51	1783.78
190.73	1615.85
190.95	1800.16
191.17	1730.53
191.39	1597.42
191.61	1662.95
191.84	1712.10
192.06	1738.73
192.28	1630.18
192.50	1898.47
192.72	1693.67
192.94	1773.54
193.16	1689.57
193.38	1654.76
193.60	1677.29
193.82	1648.61
194.04	1787.88
194.26	1714.15
194.48	1679.33
194.70	1736.68
194.92	1646.57
195.14	1732.58
195.36	1695.72
195.58	1791.97
195.80	1710.05
196.02	1599.46
196.24	1687.53
196.46	1738.73
196.69	1685.48
196.91	1814.50
197.13	1640.42
197.35	1695.72
197.57	1779.68
197.79	1746.92
198.01	1714.15
198.23	1800.16
198.45	1599.46
198.67	1718.25
198.89	1714.15
199.11	1685.48
199.33	1654.76
199.55	1665.00
199.77	1642.47
199.99	1804.26
200.21	1705.96
200.43	1736.68
200.65	1595.37
200.87	1619.94
201.09	1640.42
201.31	1716.20
201.53	1769.44
201.75	1783.78
201.97	1761.25
202.19	1683.43
202.41	1800.16
202.63	1869.80
202.85	1757.16
203.07	1679.33
203.29	1646.57
203.51	1656.81
203.73	1611.75
203.95	1853.41
204.17	1714.15
204.39	1773.54
204.61	1761.25
204.83	1726.44
205.05	1665.00
205.27	1746.92
205.49	1824.74
205.71	1669.09
205.93	1642.47
206.15	1599.46
206.37	1746.92
206.59	1673.19
206.81	1720.29
207.03	1679.33
207.25	1724.39
207.47	1748.97
207.69	1712.10
207.91	1771.49
208.13	1748.97
208.34	1669.09
208.56	1701.86
208.78	1779.68
209.00	1693.67
209.22	1660.90
209.44	1710.05
209.66	1683.43
209.88	1683.43
210.10	1681.38
210.32	1660.90
210.54	1796.07
210.76	1673.19
210.98	1771.49
211.20	1585.13
211.42	1714.15
211.64	1771.49
211.86	1708.01
212.08	1759.21
212.30	1742.82
212.52	1761.25
212.74	1679.33
212.96	1771.49
213.17	1703.91
213.39	1705.96
213.61	1861.60
213.83	1675.24
214.05	1656.81
214.27	1705.96
214.49	1675.24
214.71	1671.14
214.93	1767.40
215.15	1724.39
215.37	1697.77
215.59	1683.43
215.81	1787.88
216.03	1775.59
216.24	1634.28
216.46	1642.47
216.68	1794.02
216.90	1724.39
217.12	1775.59
217.34	1671.14
217.56	1742.82
217.78	1775.59
218.00	1726.44
218.22	1728.49
218.44	1761.25
218.66	1669.09
218.87	1814.50
219.09	1636.33
219.31	1746.92
219.53	1718.25
219.75	1677.29
219.97	1775.59
220.19	1746.92
220.41	1734.63
220.63	1877.99
220.85	1761.25
221.06	1757.16
221.28	1779.68
221.50	1740.77
221.72	1669.09
221.94	1701.86
222.16	1724.39
222.38	1775.59
222.60	1691.62
222.82	1724.39
223.03	1861.60
223.25	1673.19
223.47	1677.29
223.69	1810.40
223.91	1726.44
224.13	1730.53
224.35	1681.38
224.57	1787.88
224.78	1695.72
225.00	1589.22
225.22	1650.66
225.44	1652.71
225.66	1656.81
225.88	1691.62
226.10	1781.73
226.32	1748.97
226.53	1820.64
226.75	1718.25
226.97	1740.77
227.19	1726.44
227.41	1693.67
227.63	1642.47
227.85	1665.00
228.06	1673.19
228.28	1718.25
228.50	1785.83
228.72	1654.76
228.94	1673.19
229.16	1568.74
229.37	1662.95
229.59	1673.19
229.81	1757.16
230.03	1656.81
230.25	1730.53
230.47	1644.52
230.69	1644.52
230.90	1785.83
231.12	1693.67
231.34	1789.92
231.56	1755.11
231.78	1689.57
232.00	1724.39
232.21	1693.67
232.43	1738.73
232.65	1640.42
232.87	1763.30
233.09	1634.28
233.30	1652.71
233.52	1742.82
233.74	1642.47
233.96	1656.81
234.18	1730.53
234.40	1652.71
234.61	1855.46
234.83	1640.42
235.05	1681.38
235.27	1896.42
235.49	1781.73
235.70	1716.20
235.92	1767.40
236.14	1787.88
236.36	1841.12
236.58	1746.92
236.79	1800.16
237.01	1683.43
237.23	1726.44
237.45	1828.84
237.67	1621.99
237.88	1677.29
238.10	1728.49
238.32	1601.51
238.54	1695.72
238.76	1650.66
238.97	1703.91
239.19	1695.72
239.41	1787.88
239.63	1769.44
239.85	1691.62
240.06	1677.29
240.28	1650.66
240.50	1697.77
240.72	1726.44
240.93	1693.67
241.15	1730.53
241.37	1646.57
241.59	1759.21
241.81	1697.77
242.02	1730.53
242.24	1746.92
242.46	1716.20
242.68	1703.91
242.89	1763.30
243.11	1859.56
243.33	1714.15
243.55	1740.77
243.76	1775.59
243.98	1687.53
244.20	1740.77
244.42	1619.94
244.64	1644.52
244.85	1669.09
245.07	1624.04
245.29	1652.71
245.51	1744.87
245.72	1726.44
245.94	1767.40
246.16	1689.57
246.38	1714.15
246.59	1652.71
246.81	1611.75
247.03	1669.09
247.24	1607.66
247.46	1683.43
247.68	1710.05
247.90	1716.20
248.11	1708.01
248.33	1689.57
248.55	1738.73
248.77	1705.96
248.98	1875.94
249.20	1796.07
249.42	1769.44
249.64	1738.73
249.85	1742.82
250.07	1701.86
250.29	1816.55
250.50	1675.24
250.72	1624.04
250.94	1677.29
251.16	1814.50
251.37	1765.35
251.59	1705.96
251.81	1744.87
252.02	1759.21
252.24	1730.53
252.46	1736.68
252.68	1652.71
252.89	1656.81
253.11	1613.80
253.33	1873.89
253.54	1777.64
253.76	1578.98
253.98	1636.33
254.20	1646.57
254.41	1660.90
254.63	1675.24
254.85	1705.96
255.06	1742.82
255.28	1699.81
255.50	1685.48
255.71	1701.86
255.93	1630.18
256.15	1701.86
256.36	1755.11
256.58	1658.85
256.80	1722.34
257.02	1638.38
257.23	1722.34
257.45	1687.53
257.67	1667.05
257.88	1736.68
258.10	1718.25
258.32	1691.62
258.53	1728.49
258.75	1740.77
258.97	1667.05
259.18	1742.82
259.40	1785.83
259.62	1787.88
259.83	1779.68
260.05	1732.58
260.27	1978.34
260.48	1693.67
260.70	1634.28
260.92	1656.81
261.13	1681.38
261.35	1730.53
261.57	1716.20
261.78	1675.24
262.00	1646.57
262.22	1796.07
262.43	1662.95
262.65	1705.96
262.86	1689.57
263.08	1834.98
263.30	1789.92
263.51	1638.38
263.73	1574.89
263.95	1859.56
264.16	1656.81
264.38	1699.81
264.60	1705.96
264.81	1673.19
265.03	1767.40
265.25	1748.97
265.46	1761.25
265.68	1845.22
265.89	1722.34
266.11	1644.52
266.33	1783.78
266.54	1814.50
266.76	1740.77
266.98	1837.03
267.19	1773.54
267.41	1701.86
267.62	1751.01
267.84	1607.66
268.06	1763.30
268.27	1683.43
268.49	1787.88
268.70	1730.53
268.92	1722.34
269.14	1640.42
269.35	1619.94
269.57	1751.01
269.79	1755.11
270.00	1738.73
270.22	1845.22
270.43	1726.44
270.65	1581.03
270.87	1726.44
271.08	1773.54
271.30	1732.58
271.51	1628.14
271.73	1632.23
271.95	1810.40
272.16	1732.58
272.38	1705.96
272.59	1714.15
272.81	1738.73
273.02	1718.25
273.24	1734.63
273.46	1804.26
273.67	1660.90
273.89	1677.29
274.10	1673.19
274.32	1791.97
274.54	1658.85
274.75	1810.40
274.97	1560.55
275.18	1787.88
275.40	1726.44
275.61	1621.99
275.83	1765.35
276.05	1695.72
276.26	1728.49
276.48	1746.92
276.69	1644.52
276.91	1630.18
277.12	1720.29
277.34	1767.40
277.55	1863.65
277.77	1710.05
277.99	1621.99
278.20	1658.85
278.42	1738.73
278.63	1583.08
278.85	1703.91
279.06	1642.47
279.28	1753.06
279.49	1740.77
279.71	1787.88
279.93	1722.34
280.14	1755.11
280.36	1640.42
280.57	1736.68
280.79	1748.97
281.00	1638.38
281.22	1652.71
281.43	1718.25
281.65	1624.04
281.86	1562.60
282.08	1722.34
282.29	1757.16
282.51	1585.13
282.73	1634.28
282.94	1556.46
283.16	1736.68
283.37	1763.30
283.59	1705.96
283.80	1710.05
284.02	1714.15
284.23	1619.94
284.45	1718.25
284.66	1685.48
284.88	1740.77
285.09	1693.67
285.31	1757.16
285.52	1761.25
285.74	1615.85
285.95	1736.68
286.17	1703.91
286.38	1763.30
286.60	1685.48
286.81	1648.61
287.03	1693.67
287.24	1681.38
287.46	1757.16
287.67	1781.73
287.89	1789.92
288.10	1722.34
288.32	1785.83
288.53	1806.31
288.75	1738.73
288.96	1673.19
289.18	1744.87
289.39	1703.91
289.61	1761.25
289.82	1791.97
290.04	1761.25
290.25	1654.76
290.47	1699.81
290.68	1685.48
290.90	1791.97
291.11	1710.05
291.33	1765.35
291.54	1665.00
291.76	1681.38
291.97	1763.30
292.18	1714.15
292.40	1716.20
292.61	1658.85
292.83	1886.18
293.04	1681.38
293.26	1824.74
293.47	1675.24
293.69	1607.66
293.90	1673.19
294.12	1820.64
294.33	1716.20
294.55	1681.38
294.76	1775.59
294.97	1755.11
295.19	1796.07
295.40	1626.09
295.62	1710.05
295.83	1763.30
296.05	1605.61
296.26	1767.40
296.48	1644.52
296.69	1761.25
296.90	1691.62
297.12	1742.82
297.33	1781.73
297.55	1701.86
297.76	1730.53
297.98	1714.15
298.19	1671.14
298.41	1744.87
298.62	1681.38
298.83	1812.45
299.05	1742.82
299.26	1669.09
299.48	1681.38
299.69	1765.35
299.90	1697.77
300.12	1638.38
300.33	1738.73
300.55	1669.09
300.76	1767.40
300.98	1591.27
301.19	1746.92
301.40	1667.05
301.62	1710.05
301.83	1691.62
302.05	1738.73
302.26	1740.77
302.47	1746.92
302.69	1669.09
302.90	1642.47
303.12	1650.66
303.33	1734.63
303.54	1767.40
303.76	1669.09
303.97	1716.20
304.19	1787.88
304.40	1710.05
304.61	1753.06
304.83	1798.12
305.04	1718.25
305.26	1789.92
305.47	1642.47
305.68	1658.85
305.90	1673.19
306.11	1726.44
306.33	1716.20
306.54	1683.43
306.75	1665.00
306.97	1589.22
307.18	1693.67
307.39	1599.46
307.61	1804.26
307.82	1697.77
308.04	1746.92
308.25	1621.99
308.46	1699.81
308.68	1724.39
308.89	1667.05
309.10	1798.12
309.32	1720.29
309.53	1710.05
309.74	1738.73
309.96	1644.52
310.17	1705.96
310.39	1617.90
310.60	1769.44
310.81	1673.19
311.03	1656.81
311.24	1724.39
311.45	1689.57
311.67	1865.70
311.88	1728.49
312.09	1630.18
312.31	1689.57
312.52	1699.81
312.73	1722.34
312.95	1712.10
313.16	1656.81
313.37	1804.26
313.59	1701.86
313.80	1738.73
314.01	1806.31
314.23	1816.55
314.44	1656.81
314.65	1644.52
314.87	1624.04
315.08	1705.96
315.29	1677.29
315.51	1660.90
315.72	1687.53
315.93	1736.68
316.15	1746.92
316.36	1740.77
316.57	1689.57
316.79	1806.31
317.00	1679.33
317.21	1699.81
317.43	1710.05
317.64	1687.53
317.85	1683.43
318.07	1665.00
318.28	1685.48
318.49	1742.82
318.70	2033.63
318.92	1787.88
319.13	1791.97
319.34	1826.79
319.56	1777.64
319.77	1761.25
319.98	1773.54
320.20	1781.73
320.41	1789.92
320.62	1761.25
320.83	1716.20
321.05	1855.46
321.26	1732.58
321.47	1689.57
321.69	1816.55
321.90	1654.76
322.11	1705.96
322.32	1642.47
322.54	1773.54
322.75	1693.67
322.96	1830.88
323.18	1634.28
323.39	1646.57
323.60	1673.19
323.81	1804.26
324.03	1720.29
324.24	1710.05
324.45	1693.67
324.66	1701.86
324.88	1804.26
325.09	1794.02
325.30	1681.38
325.52	1773.54
325.73	1744.87
325.94	1705.96
326.15	1619.94
326.37	1667.05
326.58	1832.93
326.79	1789.92
327.00	1677.29
327.22	1708.01
327.43	1665.00
327.64	1660.90
327.85	1767.40
328.07	1714.15
328.28	1757.16
328.49	1697.77
328.70	1636.33
328.92	1734.63
329.13	1705.96
329.34	1679.33
329.55	1787.88
329.76	1794.02
329.98	1665.00
330.19	1789.92
330.40	1720.29
330.61	1755.11
330.83	1791.97
331.04	1662.95
331.25	1669.09
331.46	1677.29
331.68	1662.95
331.89	1796.07
332.10	1728.49
332.31	1656.81
332.52	1665.00
332.74	1812.45
332.95	1669.09
333.16	1753.06
333.37	1802.21
333.58	1638.38
333.80	1767.40
334.01	1708.01
334.22	1748.97
334.43	1669.09
334.64	1716.20
334.86	1646.57
335.07	1632.23
335.28	1777.64
335.49	1656.81
335.70	1769.44
335.92	1687.53
336.13	1845.22
336.34	1722.34
336.55	1640.42
336.76	1722.34
336.98	1566.70
337.19	1681.38
337.40	1871.84
337.61	1884.13
337.82	1705.96
338.04	1759.21
338.25	1640.42
338.46	1734.63
338.67	1669.09
338.88	1619.94
339.09	1591.27
339.31	1753.06
339.52	1665.00
339.73	1619.94
339.94	1742.82
340.15	1771.49
340.36	1638.38
340.58	1791.97
340.79	1691.62
341.00	1705.96
341.21	1722.34
341.42	1759.21
341.63	1734.63
341.85	1767.40
342.06	1681.38
342.27	1691.62
342.48	1771.49
342.69	1636.33
342.90	1738.73
343.12	1724.39
343.33	1648.61
343.54	1724.39
343.75	1789.92
343.96	1708.01
344.17	1708.01
344.38	1777.64
344.60	1615.85
344.81	1703.91
345.02	1687.53
345.23	1658.85
345.44	1783.78
345.65	1697.77
345.86	1777.64
346.07	1746.92
346.29	1656.81
346.50	1767.40
346.71	1710.05
346.92	1769.44
347.13	1841.12
347.34	1632.23
347.55	1697.77
347.76	1611.75
347.98	1654.76
348.19	1640.42
348.40	1812.45
348.61	1617.90
348.82	1791.97
349.03	1853.41
349.24	1656.81
349.45	1828.84
349.66	1566.70
349.88	1705.96
350.09	1716.20
350.30	1886.18
350.51	1669.09
350.72	1763.30
350.93	1771.49
351.14	1712.10
351.35	1722.34
351.56	1675.24
351.77	1699.81
351.99	1679.33
352.20	1841.12
352.41	1724.39
352.62	1615.85
352.83	1701.86
353.04	1736.68
353.25	1671.14
353.46	1751.01
353.67	1816.55
353.88	1585.13
354.09	1701.86
354.30	1714.15
354.52	1748.97
354.73	1740.77
354.94	1742.82
355.15	1654.76
355.36	1771.49
355.57	1748.97
355.78	1796.07
355.99	1724.39
356.20	1736.68
356.41	1781.73
356.62	1710.05
356.83	1724.39
357.04	1720.29
357.25	1599.46
357.46	1613.80
357.68	1615.85
357.89	1648.61
358.10	1685.48
358.31	1730.53
358.52	1724.39
358.73	1667.05
358.94	1665.00
359.15	1615.85
359.36	1716.20
359.57	1740.77
359.78	1708.01
359.99	1849.32
360.20	1656.81
360.41	1691.62
360.62	1816.55
360.83	1781.73
361.04	1742.82
361.25	1804.26
361.46	1779.68
361.67	1738.73
361.88	1769.44
362.09	1783.78
362.30	1726.44
362.51	1679.33
362.72	1722.34
362.93	1669.09
363.14	1724.39
363.35	1734.63
363.56	1656.81
363.78	1814.50
363.99	1703.91
364.20	1681.38
364.41	1689.57
364.62	1859.56
364.83	1753.06
365.04	1681.38
365.25	1720.29
365.46	1785.83
365.67	1667.05
365.88	1634.28
366.09	1626.09
366.30	1652.71
366.51	1667.05
366.72	1658.85
366.93	1699.81
367.14	1740.77
367.35	1783.78
367.56	1636.33
367.77	1822.69
367.98	1710.05
368.18	1718.25
368.39	1736.68
368.60	1601.51
368.81	1730.53
369.02	1714.15
369.23	1658.85
369.44	1603.56
369.65	1665.00
369.86	1718.25
370.07	1789.92
370.28	1712.10
370.49	1783.78
370.70	1779.68
370.91	1646.57
371.12	1669.09
371.33	1834.98
371.54	1763.30
371.75	1740.77
371.96	1595.37
372.17	1710.05
372.38	1708.01
372.59	1755.11
372.80	1677.29
373.01	1722.34
373.22	1681.38
373.43	1710.05
373.64	1642.47
373.85	1794.02
374.06	1820.64
374.26	1828.84
374.47	1746.92
374.68	1734.63
374.89	1667.05
375.10	1687.53
375.31	1718.25
375.52	1771.49
375.73	1677.29
375.94	1634.28
376.15	1755.11
376.36	1689.57
376.57	1632.23
376.78	1689.57
376.99	1646.57
377.20	1767.40
377.40	1714.15
377.61	1873.89
377.82	1621.99
378.03	1816.55
378.24	1677.29
378.45	1740.77
378.66	1751.01
378.87	1613.80
379.08	1626.09
379.29	1759.21
379.50	1853.41
379.71	1716.20
379.91	1748.97
380.12	1689.57
380.33	1677.29
380.54	1658.85
380.75	1718.25
380.96	1665.00
381.17	1753.06
381.38	1789.92
381.59	1746.92
381.80	1705.96
382.00	1822.69
382.21	1759.21
382.42	1818.60
382.63	1914.85
382.84	1800.16
383.05	1787.88
383.26	1757.16
383.47	1687.53
383.68	1763.30
383.88	1816.55
384.09	1763.30
384.30	1783.78
384.51	1861.60
384.72	1765.35
384.93	1671.14
385.14	1665.00
385.35	1783.78
385.55	1665.00
385.76	1718.25
385.97	1789.92
386.18	1603.56
386.39	1585.13
386.60	1763.30
386.81	1665.00
387.02	1679.33
387.22	1644.52
387.43	1810.40
387.64	1832.93
387.85	1906.66
388.06	2226.14
388.27	4274.11
388.48	6893.46
388.68	8214.40
388.89	9756.52
389.10	9865.07
389.31	8701.82
389.52	7585.68
389.73	6762.39
389.93	6219.68
390.14	5930.92
390.35	5308.34
390.56	4605.88
390.77	3852.23
390.98	3043.28
391.18	2492.38
391.39	2111.46
391.60	1933.28
391.81	1855.46
392.02	1689.57
392.23	1871.84
392.43	1746.92
392.64	1832.93
392.85	1718.25
393.06	1828.84
393.27	1773.54
393.47	1681.38
393.68	1693.67
393.89	1624.04
394.10	1740.77
394.31	1730.53
394.52	1624.04
394.72	1644.52
394.93	1787.88
395.14	1617.90
395.35	1748.97
395.56	1703.91
395.76	1767.40
395.97	1763.30
396.18	1779.68
396.39	1863.65
396.60	2035.68
396.80	1855.46
397.01	1834.98
397.22	1841.12
397.43	1904.61
397.64	1740.77
397.84	1798.12
398.05	1837.03
398.26	1720.29
398.47	1828.84
398.67	1830.88
398.88	1748.97
399.09	1689.57
399.30	1742.82
399.51	1804.26
399.71	1644.52
399.92	1755.11
400.13	1771.49
400.34	1636.33
400.54	1720.29
400.75	1783.78
400.96	1660.90
401.17	1812.45
401.37	1775.59
401.58	1703.91
401.79	1683.43
402.00	1863.65
402.21	1982.43
402.41	2017.25
402.62	2107.36
402.83	2041.82
403.04	1984.48
403.24	2121.70
403.45	1800.16
403.66	1990.63
403.87	1869.80
404.07	1851.36
404.28	1953.76
404.49	1873.89
404.70	1769.44
404.90	1771.49
405.11	1763.30
405.32	1765.35
405.52	1583.08
405.73	1724.39
405.94	1662.95
406.15	1703.91
406.35	1712.10
406.56	1796.07
406.77	1753.06
406.98	1705.96
407.18	1703.91
407.39	1828.84
407.60	1671.14
407.80	1789.92
408.01	1681.38
408.22	1742.82
408.43	1681.38
408.63	1742.82
408.84	1681.38
409.05	1789.92
409.25	1726.44
409.46	1697.77
409.67	1681.38
409.88	1742.82
410.08	1742.82
410.29	1781.73
410.50	1769.44
410.70	1785.83
410.91	1597.42
411.12	1757.16
411.32	1775.59
411.53	1613.80
411.74	1826.79
411.95	1789.92
412.15	1726.44
412.36	1730.53
412.57	1757.16
412.77	1884.13
412.98	1742.82
413.19	1683.43
413.39	1722.34
413.60	1789.92
413.81	1822.69
414.01	1665.00
414.22	1683.43
414.43	1800.16
414.63	1712.10
414.84	1771.49
415.05	1705.96
415.25	1669.09
415.46	1738.73
415.67	1705.96
415.87	1781.73
416.08	1705.96
416.29	1732.58
416.49	1720.29
416.70	1679.33
416.91	1656.81
417.11	1687.53
417.32	1789.92
417.53	1826.79
417.73	1796.07
417.94	1728.49
418.15	1724.39
418.35	1708.01
418.56	1732.58
418.77	1824.74
418.97	1642.47
419.18	1617.90
419.38	1603.56
419.59	1683.43
419.80	1763.30
420.00	1642.47
420.21	1779.68
420.42	1738.73
420.62	1744.87
420.83	1628.14
421.04	1677.29
421.24	1736.68
421.45	1765.35
421.65	1794.02
421.86	1628.14
422.07	1722.34
422.27	1775.59
422.48	1710.05
422.69	1675.24
422.89	1652.71
423.10	1716.20
423.30	1736.68
423.51	1693.67
423.72	1736.68
423.92	1794.02
424.13	1617.90
424.33	1753.06
424.54	1769.44
424.75	1748.97
424.95	1869.80
425.16	1765.35
425.36	1720.29
425.57	1728.49
425.78	1767.40
425.98	1824.74
426.19	1783.78
426.39	1605.61
426.60	1703.91
426.81	1779.68
427.01	1769.44
427.22	1708.01
427.42	1671.14
427.63	1624.04
427.83	1689.57
428.04	1732.58
428.25	1806.31
428.45	1718.25
428.66	1783.78
428.86	1751.01
429.07	1632.23
429.28	1693.67
429.48	1681.38
429.69	1751.01
429.89	1824.74
430.10	1615.85
430.30	1751.01
430.51	1769.44
430.71	1701.86
430.92	1673.19
431.13	1652.71
431.33	1808.36
431.54	1767.40
431.74	1806.31
431.95	1779.68
432.15	1726.44
432.36	1705.96
432.56	1800.16
432.77	1798.12
432.98	1755.11
433.18	1763.30
433.39	1718.25
433.59	1685.48
433.80	1855.46
434.00	1867.75
434.21	1726.44
434.41	1611.75
434.62	1845.22
434.82	1681.38
435.03	1675.24
435.23	1720.29
435.44	1591.27
435.64	1757.16
435.85	1703.91
436.06	1810.40
436.26	1804.26
436.47	1662.95
436.67	1630.18
436.88	1787.88
437.08	1783.78
437.29	1832.93
437.49	1785.83
437.70	1814.50
437.90	1808.36
438.11	1808.36
438.31	1794.02
438.52	1769.44
438.72	1837.03
438.93	1941.47
439.13	1777.64
439.34	1800.16
439.54	1779.68
439.75	1761.25
439.95	1886.18
440.16	1693.67
440.36	1665.00
440.57	1753.06
440.77	1763.30
440.98	1716.20
441.18	1751.01
441.39	1703.91
441.59	1626.09
441.80	1869.80
442.00	1757.16
442.21	1824.74
442.41	1718.25
442.62	1869.80
442.82	1787.88
443.02	1732.58
443.23	1728.49
443.43	1716.20
443.64	1818.60
443.84	1683.43
444.05	1873.89
444.25	1785.83
444.46	1763.30
444.66	1738.73
444.87	1808.36
445.07	1732.58
445.28	1695.72
445.48	1812.45
445.69	1781.73
445.89	1857.51
446.09	1710.05
446.30	2015.20
446.50	2701.27
446.71	3815.37
446.91	4249.54
447.12	4769.72
447.32	4863.93
447.53	4562.87
447.73	3831.75
447.93	3598.28
448.14	3332.05
448.34	3231.69
448.55	2942.93
448.75	2893.78
448.96	2697.17
449.16	2377.69
449.36	2215.90
449.57	2017.25
449.77	1951.71
449.98	1726.44
450.18	1769.44
450.39	1857.51
450.59	1804.26
450.79	1736.68
451.00	1736.68
451.20	1767.40
451.41	1791.97
451.61	1781.73
451.81	1683.43
452.02	1705.96
452.22	1703.91
452.43	1773.54
452.63	1746.92
452.84	1658.85
453.04	1767.40
453.24	1804.26
453.45	1699.81
453.65	1775.59
453.86	1787.88
454.06	1679.33
454.26	1691.62
454.47	1736.68
454.67	1845.22
454.87	1744.87
455.08	1699.81
455.28	1861.60
455.49	1804.26
455.69	1755.11
455.89	1806.31
456.10	1791.97
456.30	1724.39
456.51	1791.97
456.71	1746.92
456.91	1716.20
457.12	1714.15
457.32	1798.12
457.52	1724.39
457.73	1773.54
457.93	1777.64
458.14	1720.29
458.34	1714.15
458.54	1658.85
458.75	1740.77
458.95	1847.27
459.15	1755.11
459.36	1734.63
459.56	1787.88
459.76	1847.27
459.97	1744.87
460.17	1726.44
460.37	1814.50
460.58	1755.11
460.78	1800.16
460.99	1708.01
461.19	1736.68
461.39	1771.49
461.60	1785.83
461.80	1814.50
462.00	1714.15
462.21	1716.20
462.41	1748.97
462.61	1673.19
462.82	1658.85
463.02	1751.01
463.22	1804.26
463.43	1781.73
463.63	1665.00
463.83	1810.40
464.04	1761.25
464.24	1740.77
464.44	1632.23
464.64	1730.53
464.85	1779.68
465.05	1744.87
465.25	1808.36
465.46	1708.01
465.66	1791.97
465.86	1767.40
466.07	1722.34
466.27	1693.67
466.47	1669.09
466.68	1705.96
466.88	1845.22
467.08	1796.07
467.29	1798.12
467.49	1746.92
467.69	1708.01
467.89	1742.82
468.10	1759.21
468.30	1779.68
468.50	1794.02
468.71	1787.88
468.91	1669.09
469.11	1798.12
469.31	1751.01
469.52	1652.71
469.72	1808.36
469.92	1818.60
470.13	1740.77
470.33	1791.97
470.53	1894.37
470.73	2154.46
470.94	2244.57
471.14	2312.16
471.34	2531.29
471.54	2490.33
471.75	2269.15
471.95	2152.42
472.15	2144.22
472.36	2084.83
472.56	2111.46
472.76	2084.83
472.96	2009.06
473.17	1955.81
473.37	1857.51
473.57	1796.07
473.77	1834.98
473.98	1820.64
474.18	1755.11
474.38	1810.40
474.58	1724.39
474.79	1675.24
474.99	1759.21
475.19	1794.02
475.39	1609.70
475.60	1740.77
475.80	1759.21
476.00	1761.25
476.20	1716.20
476.41	1705.96
476.61	1861.60
476.81	1755.11
477.01	1701.86
477.21	1851.36
477.42	1853.41
477.62	1683.43
477.82	1736.68
478.02	1712.10
478.23	1787.88
478.43	1751.01
478.63	1718.25
478.83	1701.86
479.03	1746.92
479.24	1828.84
479.44	1826.79
479.64	1587.18
479.84	1621.99
480.04	1640.42
480.25	1804.26
480.45	1634.28
480.65	1685.48
480.85	1849.32
481.06	1626.09
481.26	1728.49
481.46	1689.57
481.66	1724.39
481.86	1634.28
482.06	1787.88
482.27	1722.34
482.47	1695.72
482.67	1705.96
482.87	1722.34
483.07	1837.03
483.28	1667.05
483.48	1665.00
483.68	1689.57
483.88	1708.01
484.08	1576.94
484.29	1640.42
484.49	1710.05
484.69	1652.71
484.89	1839.08
485.09	1779.68
485.29	1777.64
485.50	1722.34
485.70	1665.00
485.90	1826.79
486.10	1767.40
486.30	1804.26
486.50	1806.31
486.71	1880.04
486.91	1732.58
487.11	1736.68
487.31	1589.22
487.51	1748.97
487.71	1626.09
487.91	1679.33
488.12	1703.91
488.32	1662.95
488.52	1699.81
488.72	1669.09
488.92	1681.38
489.12	1769.44
489.32	1834.98
489.53	1751.01
489.73	1675.24
489.93	1816.55
490.13	1697.77
490.33	1740.77
490.53	1763.30
490.73	1777.64
490.94	1675.24
491.14	1826.79
491.34	1802.21
491.54	2119.65
491.74	2523.10
491.94	3051.47
492.14	3008.47
492.34	3131.34
492.54	2721.75
492.75	2527.19
492.95	2473.95
493.15	2308.06
493.35	2263.01
493.55	2260.96
493.75	2099.17
493.95	2168.80
494.15	2027.49
494.35	1896.42
494.56	1843.17
494.76	1800.16
494.96	1777.64
495.16	1798.12
495.36	1751.01
495.56	1771.49
495.76	1695.72
495.96	1744.87
496.16	1751.01
496.36	1810.40
496.56	1697.77
496.77	1781.73
496.97	1714.15
497.17	1853.41
497.37	1689.57
497.57	1736.68
497.77	1761.25
497.97	1681.38
498.17	1687.53
498.37	1722.34
498.57	1765.35
498.77	1703.91
498.97	1740.77
499.17	1867.75
499.38	1744.87
499.58	1765.35
499.78	1787.88
499.98	1837.03
500.18	1722.34
500.38	1679.33
500.58	1880.04
500.78	2574.30
500.98	4499.39
501.18	5808.04
501.38	6815.64
501.58	7188.37
501.78	6748.06
501.98	5681.07
502.18	5019.57
502.38	4454.33
502.58	4288.45
502.78	3815.37
502.98	3739.59
503.18	3483.59
503.38	3235.79
503.59	2836.44
503.79	2691.03
503.99	2418.65
504.19	2303.96
504.39	2187.23
504.59	2156.51
504.79	2115.55
504.99	2062.30
505.19	1943.52
505.39	1859.56
505.59	2025.44
505.79	1941.47
505.99	1845.22
506.19	1777.64
506.39	1916.90
506.59	1791.97
506.79	1728.49
506.99	1802.21
507.19	1814.50
507.39	1800.16
507.59	1720.29
507.79	1640.42
507.99	1652.71
508.19	1761.25
508.39	1744.87
508.59	1705.96
508.79	1820.64
508.99	1851.36
509.19	1740.77
509.39	1761.25
509.59	1746.92
509.79	1710.05
509.99	1683.43
510.19	1759.21
510.39	1851.36
510.59	1679.33
510.79	1714.15
510.99	1654.76
511.19	1724.39
511.39	1753.06
511.59	1722.34
511.79	1837.03
511.99	1757.16
512.19	1802.21
512.38	1796.07
512.58	1724.39
512.78	1691.62
512.98	1826.79
513.18	1781.73
513.38	1636.33
513.58	1740.77
513.78	1746.92
513.98	1744.87
514.18	1724.39
514.38	1675.24
514.58	1771.49
514.78	1656.81
514.98	1652.71
515.18	1703.91
515.38	1683.43
515.58	1810.40
515.78	1716.20
515.98	1744.87
516.18	1785.83
516.38	1701.86
516.57	1697.77
516.77	1767.40
516.97	1845.22
517.17	1787.88
517.37	1665.00
517.57	1796.07
517.77	1814.50
517.97	1671.14
518.17	1724.39
518.37	1746.92
518.57	1689.57
518.77	1708.01
518.97	1691.62
519.16	1757.16
519.36	1728.49
519.56	1726.44
519.76	1720.29
519.96	1720.29
520.16	1855.46
520.36	1621.99
520.56	1800.16
520.76	1751.01
520.96	1648.61
521.16	1751.01
521.35	1777.64
521.55	1861.60
521.75	1724.39
521.95	1738.73
522.15	1658.85
522.35	1632.23
522.55	1714.15
522.75	1685.48
522.95	1732.58
523.14	1699.81
523.34	1744.87
523.54	1755.11
523.74	1755.11
523.94	1708.01
524.14	1611.75
524.34	1796.07
524.54	1791.97
524.73	1710.05
524.93	1718.25
525.13	1730.53
525.33	1732.58
525.53	1904.61
525.73	1937.38
525.93	1787.88
526.13	1742.82
526.32	1683.43
526.52	1777.64
526.72	1757.16
526.92	1751.01
527.12	1712.10
527.32	1615.85
527.52	1771.49
527.71	1730.53
527.91	1849.32
528.11	1697.77
528.31	1789.92
528.51	1679.33
528.71	1769.44
528.90	1779.68
529.10	1816.55
529.30	1744.87
529.50	1675.24
529.70	1683.43
529.90	1669.09
530.09	1695.72
530.29	1761.25
530.49	1658.85
530.69	1861.60
530.89	1703.91
531.09	1705.96
531.28	1712.10
531.48	1724.39
531.68	1777.64
531.88	1759.21
532.08	1744.87
532.28	1755.11
532.47	1773.54
532.67	1757.16
532.87	1773.54
533.07	1712.10
533.27	1755.11
533.46	1779.68
533.66	1785.83
533.86	1669.09
534.06	1744.87
534.26	1771.49
534.45	1714.15
534.65	1828.84
534.85	1759.21
535.05	1779.68
535.25	1759.21
535.44	1624.04
535.64	1753.06
535.84	1671.14
536.04	1777.64
536.24	1658.85
536.43	1648.61
536.63	1818.60
536.83	1804.26
537.03	1691.62
537.22	1669.09
537.42	1740.77
537.62	1681.38
537.82	1742.82
538.02	1871.84
538.21	1849.32
538.41	1867.75
538.61	1775.59
538.81	1837.03
539.00	1765.35
539.20	1671.14
539.40	1740.77
539.60	1755.11
539.79	1667.05
539.99	1744.87
540.19	1734.63
540.39	1720.29
540.58	1761.25
540.78	1791.97
540.98	1742.82
541.18	1816.55
541.37	1781.73
541.57	1755.11
541.77	1720.29
541.97	1732.58
542.16	1689.57
542.36	1759.21
542.56	1740.77
542.76	1843.17
542.95	1798.12
543.15	1724.39
543.35	1798.12
543.54	1730.53
543.74	1683.43
543.94	1818.60
544.14	1761.25
544.33	1789.92
544.53	1685.48
544.73	1687.53
544.93	1759.21
545.12	1726.44
545.32	1730.53
545.52	1714.15
545.71	1679.33
545.91	1667.05
546.11	1728.49
546.30	1685.48
546.50	1812.45
546.70	1740.77
546.90	1722.34
547.09	1665.00
547.29	1812.45
547.49	1759.21
547.68	1748.97
547.88	1798.12
548.08	1748.97
548.27	2199.52
548.47	1755.11
548.67	1638.38
548.87	1785.83
549.06	1679.33
549.26	1718.25
549.46	1714.15
549.65	1699.81
549.85	1785.83
550.05	1839.08
550.24	1705.96
550.44	1771.49
550.64	1624.04
550.83	1697.77
551.03	1748.97
551.23	1738.73
551.42	1769.44
551.62	1693.67
551.82	1728.49
552.01	1716.20
552.21	1806.31
552.41	1783.78
552.60	1742.82
552.80	1771.49
553.00	1665.00
553.19	1671.14
553.39	1796.07
553.59	1658.85
553.78	1742.82
553.98	1753.06
554.17	1716.20
554.37	1767.40
554.57	1773.54
554.76	1665.00
554.96	1777.64
555.16	1730.53
555.35	1771.49
555.55	1759.21
555.75	1767.40
555.94	1779.68
556.14	1667.05
556.33	1740.77
556.53	1701.86
556.73	1685.48
556.92	1773.54
557.12	1832.93
557.32	1796.07
557.51	1916.90
557.71	1742.82
557.90	1767.40
558.10	1814.50
558.30	1724.39
558.49	1738.73
558.69	1658.85
558.88	1779.68
559.08	1730.53
559.28	1738.73
559.47	1787.88
559.67	1746.92
559.86	1849.32
560.06	1794.02
560.26	1746.92
560.45	1832.93
560.65	1716.20
560.84	1744.87
561.04	1763.30
561.24	1804.26
561.43	1732.58
561.63	1861.60
561.82	1738.73
562.02	1751.01
562.22	1691.62
562.41	1667.05
562.61	1755.11
562.80	1708.01
563.00	1871.84
563.19	1716.20
563.39	1828.84
563.59	1777.64
563.78	1689.57
563.98	1691.62
564.17	1681.38
564.37	1654.76
564.56	1679.33
564.76	1720.29
564.96	1804.26
565.15	1771.49
565.35	1853.41
565.54	1652.71
565.74	1777.64
565.93	1722.34
566.13	1732.58
566.32	1720.29
566.52	1767.40
566.71	1759.21
566.91	1812.45
567.11	1775.59
567.30	1722.34
567.50	1714.15
567.69	1796.07
567.89	1683.43
568.08	1720.29
568.28	1773.54
568.47	1665.00
568.67	1748.97
568.86	1738.73
569.06	1775.59
569.25	1738.73
569.45	1740.77
569.64	1699.81
569.84	1728.49
570.04	1757.16
570.23	1683.43
570.43	1738.73
570.62	1724.39
570.82	1810.40
571.01	1705.96
571.21	1691.62
571.40	1761.25
571.60	1804.26
571.79	1724.39
571.99	1816.55
572.18	1730.53
572.38	1798.12
572.57	1736.68
572.77	1771.49
572.96	1869.80
573.16	1787.88
573.35	1724.39
573.55	1826.79
573.74	1802.21
573.94	1714.15
574.13	1724.39
574.33	1845.22
574.52	1687.53
574.71	1710.05
574.91	1791.97
575.10	1695.72
575.30	1716.20
575.49	1722.34
575.69	1722.34
575.88	1730.53
576.08	1769.44
576.27	1769.44
576.47	1724.39
576.66	1873.89
576.86	1783.78
577.05	1683.43
577.25	1798.12
577.44	1832.93
577.64	1689.57
577.83	1843.17
578.02	1763.30
578.22	1863.65
578.41	1814.50
578.61	1730.53
578.80	1724.39
579.00	1751.01
579.19	1830.88
579.39	1849.32
579.58	1843.17
579.77	1681.38
579.97	1875.94
580.16	1763.30
580.36	1812.45
580.55	1841.12
580.75	1794.02
580.94	1755.11
581.13	1839.08
581.33	1845.22
581.52	1775.59
581.72	1886.18
581.91	1849.32
582.11	1791.97
582.30	1814.50
582.49	1771.49
582.69	1867.75
582.88	1751.01
583.08	1759.21
583.27	1812.45
583.47	1714.15
583.66	1681.38
583.85	1701.86
584.05	1783.78
584.24	1794.02
584.44	1759.21
584.63	1867.75
584.82	1791.97
585.02	1853.41
585.21	1834.98
585.41	1814.50
585.60	1808.36
585.79	1949.67
585.99	1884.13
586.18	1902.56
586.37	2146.27
586.57	3442.64
586.76	10004.33
586.96	24723.08
587.15	34696.69
587.34	41059.73
587.54	42677.62
587.73	36998.60
587.93	26766.95
588.12	21722.80
588.31	18306.79
588.51	16555.78
588.70	15316.76
588.89	14223.14
589.09	12920.63
589.28	11202.39
589.47	9555.82
589.67	8218.50
589.86	6526.88
590.06	4806.58
590.25	3991.49
590.44	3059.67
590.64	2605.02
590.83	2346.97
591.02	2199.52
591.22	1955.81
591.41	1888.23
591.60	1834.98
591.80	1964.00
591.99	1812.45
592.18	1777.64
592.38	1918.95
592.57	1714.15
592.76	1773.54
592.96	1755.11
593.15	1736.68
593.34	1832.93
593.54	1746.92
593.73	1701.86
593.92	1771.49
594.12	1708.01
594.31	1779.68
594.50	1806.31
594.70	1806.31
594.89	1898.47
595.08	1757.16
595.28	1810.40
595.47	1902.56
595.66	1841.12
595.86	1691.62
596.05	1716.20
596.24	1720.29
596.43	1869.80
596.63	1773.54
596.82	1755.11
597.01	1748.97
597.21	1863.65
597.40	1845.22
597.59	1689.57
597.79	1685.48
597.98	1847.27
598.17	1775.59
598.36	1751.01
598.56	1714.15
598.75	1769.44
598.94	1816.55
599.14	1796.07
599.33	1718.25
599.52	1822.69
599.71	1773.54
599.91	1765.35
600.10	1791.97
600.29	1775.59
600.48	1798.12
600.68	1804.26
600.87	1730.53
601.06	1783.78
601.26	1734.63
601.45	1800.16
601.64	1755.11
601.83	1794.02
602.03	1718.25
602.22	1687.53
602.41	1775.59
602.60	1877.99
602.80	1794.02
602.99	1751.01
603.18	1751.01
603.37	1757.16
603.57	1783.78
603.76	1824.74
603.95	1800.16
604.14	1689.57
604.34	1677.29
604.53	1755.11
604.72	1767.40
604.91	1787.88
605.10	1761.25
605.30	1689.57
605.49	1808.36
605.68	1767.40
605.87	1748.97
606.07	1660.90
606.26	1738.73
606.45	1787.88
606.64	1677.29
606.84	1710.05
607.03	1703.91
607.22	1695.72
607.41	1556.46
607.60	1746.92
607.80	1773.54
607.99	1644.52
608.18	1804.26
608.37	1746.92
608.56	1728.49
608.76	1800.16
608.95	1873.89
609.14	1757.16
609.33	1724.39
609.52	1828.84
609.72	1783.78
609.91	1806.31
610.10	1841.12
610.29	1767.40
610.48	1738.73
610.68	1779.68
610.87	1783.78
611.06	1800.16
611.25	1693.67
611.44	1789.92
611.63	1732.58
611.83	1828.84
612.02	1636.33
612.21	1724.39
612.40	1660.90
612.59	1705.96
612.79	1685.48
612.98	1744.87
613.17	1751.01
613.36	1779.68
613.55	1775.59
613.74	1728.49
613.93	1734.63
614.13	1783.78
614.32	1748.97
614.51	1722.34
614.70	1646.57
614.89	1718.25
615.08	1744.87
615.28	2136.03
615.47	1650.66
615.66	1847.27
615.85	1777.64
616.04	1814.50
616.23	1736.68
616.42	1753.06
616.62	1763.30
616.81	1787.88
617.00	1718.25
617.19	1777.64
617.38	1767.40
617.57	1722.34
617.76	1798.12
617.95	1726.44
618.15	1738.73
618.34	1837.03
618.53	1640.42
618.72	1779.68
618.91	1841.12
619.10	1843.17
619.29	1742.82
619.48	1712.10
619.68	1656.81
619.87	1808.36
620.06	1673.19
620.25	1732.58
620.44	1693.67
620.63	1673.19
620.82	1685.48
621.01	1759.21
621.20	1691.62
621.39	1732.58
621.59	1818.60
621.78	1703.91
621.97	1679.33
622.16	1746.92
622.35	1736.68
622.54	1798.12
622.73	1794.02
622.92	1718.25
623.11	1785.83
623.30	1746.92
623.49	1820.64
623.68	1740.77
623.88	1843.17
624.07	1689.57
624.26	1738.73
624.45	1732.58
624.64	1724.39
624.83	1697.77
625.02	1716.20
625.21	1716.20
625.40	1755.11
625.59	1781.73
625.78	1712.10
625.97	1789.92
626.16	1755.11
626.35	1787.88
626.54	1767.40
626.74	1843.17
626.93	1787.88
627.12	1722.34
627.31	1753.06
627.50	1714.15
627.69	1781.73
627.88	1740.77
628.07	1687.53
628.26	1626.09
628.45	1730.53
628.64	1634.28
628.83	1791.97
629.02	1722.34
629.21	1722.34
629.40	1722.34
629.59	1695.72
629.78	1753.06
629.97	1689.57
630.16	1724.39
630.35	1679.33
630.54	1705.96
630.73	1718.25
630.92	1767.40
631.11	1632.23
631.30	1740.77
631.49	1771.49
631.68	1796.07
631.87	1675.24
632.06	1703.91
632.25	1785.83
632.44	1734.63
632.63	1812.45
632.82	1691.62
633.01	1669.09
633.20	1812.45
633.39	1724.39
633.58	1638.38
633.77	1802.21
633.96	1779.68
634.15	1744.87
634.34	1875.94
634.53	1720.29
634.72	1679.33
634.91	1660.90
635.10	1667.05
635.29	1832.93
635.48	1710.05
635.67	1777.64
635.86	1673.19
636.05	1728.49
636.24	1730.53
636.43	1751.01
636.62	1683.43
636.81	1566.70
637.00	1812.45
637.19	1785.83
637.38	1728.49
637.57	1705.96
637.76	1751.01
637.95	1734.63
638.14	1650.66
638.33	1615.85
638.52	1726.44
638.71	1611.75
638.89	1720.29
639.08	1783.78
639.27	1730.53
639.46	1724.39
639.65	1828.84
639.84	1728.49
640.03	1757.16
640.22	1693.67
640.41	1783.78
640.60	1599.46
640.79	1748.97
640.98	1673.19
641.17	1738.73
641.36	1693.67
641.55	1759.21
641.74	1675.24
641.92	1615.85
642.11	1718.25
642.30	1757.16
642.49	1683.43
642.68	1691.62
642.87	1710.05
643.06	1759.21
643.25	1689.57
643.44	1660.90
643.63	1699.81
643.82	1720.29
644.00	1679.33
644.19	1734.63
644.38	1660.90
644.57	1830.88
644.76	1746.92
644.95	1691.62
645.14	1740.77
645.33	1732.58
645.52	1738.73
645.71	1646.57
645.89	1656.81
646.08	1730.53
646.27	1714.15
646.46	1820.64
646.65	1677.29
646.84	1736.68
647.03	1701.86
647.22	1783.78
647.40	1742.82
647.59	1697.77
647.78	1644.52
647.97	1738.73
648.16	1701.86
648.35	1818.60
648.54	1755.11
648.73	1683.43
648.91	1777.64
649.10	1675.24
649.29	1695.72
649.48	1701.86
649.67	1789.92
649.86	1691.62
650.05	1607.66
650.23	1755.11
650.42	1617.90
650.61	1761.25
650.80	1742.82
650.99	1820.64
651.18	1765.35
651.36	1798.12
651.55	1720.29
651.74	1761.25
651.93	1748.97
652.12	1665.00
652.31	1728.49
652.49	1689.57
652.68	1628.14
652.87	1816.55
653.06	1730.53
653.25	1892.32
653.44	1671.14
653.62	1781.73
653.81	1685.48
654.00	1720.29
654.19	1699.81
654.38	1824.74
654.56	1759.21
654.75	1710.05
654.94	1757.16
655.13	1751.01
655.32	1746.92
655.51	1783.78
655.69	1681.38
655.88	1773.54
656.07	1722.34
656.26	1798.12
656.45	1652.71
656.63	1738.73
656.82	1716.20
657.01	1804.26
657.20	1714.15
657.38	1740.77
657.57	1677.29
657.76	1634.28
657.95	1783.78
658.14	1718.25
658.32	1705.96
658.51	1640.42
658.70	1771.49
658.89	1732.58
659.08	1824.74
659.26	1871.84
659.45	1695.72
659.64	1740.77
659.83	1726.44
660.01	1961.95
660.20	1798.12
660.39	1800.16
660.58	1660.90
660.76	1744.87
660.95	1660.90
661.14	1710.05
661.33	1628.14
661.51	1687.53
661.70	1689.57
661.89	1775.59
662.08	1660.90
662.26	1611.75
662.45	1652.71
662.64	1818.60
662.83	1773.54
663.01	1687.53
663.20	1681.38
663.39	1785.83
663.58	1681.38
663.76	1769.44
663.95	1736.68
664.14	1728.49
664.32	1687.53
664.51	1660.90
664.70	1619.94
664.89	1785.83
665.07	1673.19
665.26	1771.49
665.45	1697.77
665.64	1798.12
665.82	1757.16
666.01	1763.30
666.20	1714.15
666.38	1775.59
666.57	1875.94
666.76	2271.20
666.95	4507.58
667.13	10659.68
667.32	15339.29
667.51	18110.19
667.69	19117.79
667.88	18073.32
668.07	12689.21
668.25	9801.58
668.44	8202.11
668.63	7448.46
668.81	6825.88
669.00	6317.98
669.19	5744.55
669.38	5187.50
669.56	4614.07
669.75	3938.24
669.94	3397.58
670.12	2926.55
670.31	2498.52
670.50	2277.34
670.68	2109.41
670.87	1935.33
671.06	1882.08
671.24	1853.41
671.43	1898.47
671.62	1738.73
671.80	1728.49
671.99	1650.66
672.18	1705.96
672.36	1822.69
672.55	1808.36
672.74	1652.71
672.92	1740.77
673.11	1703.91
673.29	1673.19
673.48	1777.64
673.67	1691.62
673.85	1785.83
674.04	1732.58
674.23	1804.26
674.41	1849.32
674.60	1708.01
674.79	1642.47
674.97	1619.94
675.16	1796.07
675.34	1787.88
675.53	1703.91
675.72	1771.49
675.90	1783.78
676.09	1740.77
676.28	1755.11
676.46	1656.81
676.65	1738.73
676.83	1665.00
677.02	1732.58
677.21	1804.26
677.39	1683.43
677.58	1644.52
677.77	1697.77
677.95	1677.29
678.14	1644.52
678.32	1650.66
678.51	1751.01
678.70	1877.99
678.88	1685.48
679.07	1775.59
679.25	1689.57
679.44	1708.01
679.63	1654.76
679.81	1714.15
680.00	1771.49
680.18	1777.64
680.37	1800.16
680.55	1771.49
680.74	1591.27
680.93	1687.53
681.11	1732.58
681.30	1738.73
681.48	1746.92
681.67	1722.34
681.85	1757.16
682.04	1617.90
682.23	1701.86
682.41	1738.73
682.60	1691.62
682.78	1705.96
682.97	1669.09
683.15	1746.92
683.34	1755.11
683.53	1843.17
683.71	1644.52
683.90	1839.08
684.08	1861.60
684.27	1726.44
684.45	1746.92
684.64	1820.64
684.82	1679.33
685.01	1751.01
685.19	1673.19
685.38	1746.92
685.57	1703.91
685.75	1708.01
685.94	1736.68
686.12	1587.18
686.31	1708.01
686.49	1804.26
686.68	1681.38
686.86	1693.67
687.05	1693.67
687.23	1853.41
687.42	1722.34
687.60	1595.37
687.79	1796.07
687.97	1759.21
688.16	1751.01
688.34	1732.58
688.53	1669.09
688.71	1740.77
688.90	1757.16
689.08	1667.05
689.27	1624.04
689.45	1777.64
689.64	1812.45
689.82	1708.01
690.01	1755.11
690.19	1755.11
690.38	1726.44
690.56	1726.44
690.75	1656.81
690.93	1736.68
691.12	1660.90
691.30	1730.53
691.49	1697.77
691.67	1720.29
691.86	1832.93
692.04	1673.19
692.23	1716.20
692.41	1671.14
692.60	1861.60
692.78	1705.96
692.97	1613.80
693.15	1791.97
693.34	1812.45
693.52	1820.64
693.71	1636.33
693.89	1789.92
694.08	1646.57
694.26	1769.44
694.44	1710.05
694.63	1734.63
694.81	1628.14
695.00	1624.04
695.18	1740.77
695.37	1794.02
695.55	1746.92
695.74	1679.33
695.92	1650.66
696.10	1834.98
696.29	1732.58
696.47	1718.25
696.66	1728.49
696.84	1693.67
697.03	1736.68
697.21	1861.60
697.40	2416.60
697.58	1718.25
697.76	1722.34
697.95	1732.58
698.13	1654.76
698.32	1722.34
698.50	1718.25
698.68	1740.77
698.87	1726.44
699.05	1832.93
699.24	1767.40
699.42	1695.72
699.61	1746.92
699.79	1695.72
699.97	1734.63
700.16	1673.19
700.34	1718.25
700.53	1738.73
700.71	1791.97
700.89	1755.11
701.08	1796.07
701.26	1736.68
701.45	2123.74
701.63	1632.23
701.81	1716.20
702.00	1697.77
702.18	1708.01
702.37	1722.34
702.55	1794.02
702.73	1730.53
702.92	1654.76
703.10	1755.11
703.28	1691.62
703.47	1724.39
703.65	1875.94
703.84	1800.16
704.02	1695.72
704.20	1757.16
704.39	1728.49
704.57	1718.25
704.75	1783.78
704.94	1818.60
705.12	1710.05
705.30	1718.25
705.49	2332.64
705.67	4462.52
705.86	9551.73
706.04	12707.65
706.22	14604.07
706.41	15832.85
706.59	13889.32
706.77	9744.24
706.96	7514.00
707.14	6731.67
707.32	6018.98
707.51	5623.72
707.69	4902.84
707.87	4179.90
708.06	3514.31
708.24	3086.29
708.42	2535.39
708.61	2267.10
708.79	1875.94
708.97	1869.80
709.16	1869.80
709.34	1820.64
709.52	1726.44
709.71	1773.54
709.89	1708.01
710.07	1624.04
710.26	1716.20
710.44	1689.57
710.62	1732.58
710.80	1771.49
710.99	1791.97
711.17	1771.49
711.35	1669.09
711.54	1724.39
711.72	1763.30
711.90	1693.67
712.09	1722.34
712.27	1730.53
712.45	1755.11
712.63	1691.62
712.82	1640.42
713.00	1718.25
713.18	1802.21
713.37	1685.48
713.55	1841.12
713.73	1734.63
713.91	1773.54
714.10	1708.01
714.28	1691.62
714.46	1712.10
714.65	1775.59
714.83	1732.58
715.01	1736.68
715.19	1730.53
715.38	1673.19
715.56	1759.21
715.74	1746.92
715.92	1679.33
716.11	1830.88
716.29	1593.32
716.47	1617.90
716.65	1660.90
716.84	1648.61
717.02	1761.25
717.20	1634.28
717.38	1732.58
717.57	1687.53
717.75	1775.59
717.93	1599.46
718.11	1705.96
718.30	1660.90
718.48	1722.34
718.66	1761.25
718.84	1732.58
719.03	1689.57
719.21	1638.38
719.39	1802.21
719.57	1687.53
719.75	1820.64
719.94	1662.95
720.12	1701.86
720.30	1673.19
720.48	1771.49
720.67	1669.09
720.85	1617.90
721.03	1677.29
721.21	1691.62
721.39	1847.27
721.58	1732.58
721.76	1699.81
721.94	1847.27
722.12	1761.25
722.30	1804.26
722.49	1669.09
722.67	1640.42
722.85	1763.30
723.03	1632.23
723.21	1640.42
723.40	1693.67
723.58	1779.68
723.76	1783.78
723.94	1806.31
724.12	1753.06
724.30	1765.35
724.49	1755.11
724.67	1712.10
724.85	1800.16
725.03	1681.38
725.21	1744.87
725.40	1718.25
725.58	1673.19
725.76	1726.44
725.94	1767.40
726.12	1634.28
726.30	1671.14
726.49	1699.81
726.67	1667.05
726.85	1748.97
727.03	1818.60
727.21	2129.89
727.39	2926.55
727.57	3780.55
727.76	4384.70
727.94	4597.69
728.12	4569.02
728.30	3762.12
728.48	2959.31
728.66	2711.51
728.84	2465.75
729.03	2365.40
729.21	2131.94
729.39	2015.20
729.57	1892.32
729.75	1834.98
729.93	1845.22
730.11	1691.62
730.30	1675.24
730.48	1724.39
730.66	1712.10
730.84	1759.21
731.02	1773.54
731.20	1703.91
731.38	1726.44
731.56	1689.57
731.74	1683.43
731.93	1691.62
732.11	1710.05
732.29	1685.48
732.47	1767.40
732.65	1746.92
732.83	1781.73
733.01	1785.83
733.19	1716.20
733.37	1728.49
733.56	1783.78
733.74	1685.48
733.92	1808.36
734.10	1720.29
734.28	1724.39
734.46	1636.33
734.64	1697.77
734.82	1669.09
735.00	1644.52
735.18	1660.90
735.36	1675.24
735.54	1697.77
735.73	1765.35
735.91	1660.90
736.09	1806.31
736.27	1708.01
736.45	1769.44
736.63	1689.57
736.81	1712.10
736.99	1804.26
737.17	1787.88
737.35	1712.10
737.53	1720.29
737.71	1701.86
737.89	1808.36
738.07	1667.05
738.25	1693.67
738.43	1652.71
738.61	1656.81
738.80	1611.75
738.98	1650.66
739.16	1683.43
739.34	1607.66
739.52	1769.44
739.70	1691.62
739.88	1738.73
740.06	1765.35
740.24	1566.70
740.42	1796.07
740.60	1599.46
740.78	1701.86
740.96	1665.00
741.14	1681.38
741.32	1730.53
741.50	1669.09
741.68	1861.60
741.86	1812.45
742.04	1710.05
742.22	1687.53
742.40	1779.68
742.58	1722.34
742.76	1671.14
742.94	1757.16
743.12	1640.42
743.30	1736.68
743.48	1742.82
743.66	1660.90
743.84	1703.91
744.02	1705.96
744.20	1693.67
744.38	1636.33
744.56	1693.67
744.74	1843.17
744.92	1791.97
745.10	1771.49
745.28	1783.78
745.46	1794.02
745.64	1681.38
745.82	1738.73
746.00	1693.67
746.18	1716.20
746.36	1716.20
746.54	1681.38
746.72	1738.73
746.90	1677.29
747.08	1865.70
747.26	1701.86
747.44	1787.88
747.62	1734.63
747.80	1705.96
747.98	1808.36
748.15	1701.86
748.33	1812.45
748.51	1699.81
748.69	1683.43
748.87	1638.38
749.05	1687.53
749.23	1703.91
749.41	1748.97
749.59	1738.73
749.77	1701.86
749.95	1597.42
750.13	1726.44
750.31	1751.01
750.49	1628.14
750.67	1761.25
750.85	1730.53
751.03	1781.73
751.20	1861.60
751.38	1710.05
751.56	1656.81
751.74	1712.10
751.92	1689.57
752.10	1673.19
752.28	1748.97
752.46	1701.86
752.64	1724.39
752.82	1701.86
753.00	1791.97
753.18	1718.25
753.35	1685.48
753.53	1712.10
753.71	1648.61
753.89	1763.30
754.07	1720.29
754.25	1812.45
754.43	1767.40
754.61	1689.57
754.79	1697.77
754.97	1675.24
755.14	1826.79
755.32	1677.29
755.50	1742.82
755.68	1751.01
755.86	1681.38
756.04	1769.44
756.22	1609.70
756.40	1765.35
756.57	1814.50
756.75	1757.16
756.93	1791.97
757.11	1742.82
757.29	1611.75
757.47	1619.94
757.65	1693.67
757.82	1632.23
758.00	1640.42
758.18	1662.95
758.36	1615.85
758.54	1863.65
758.72	1740.77
758.90	1755.11
759.07	1726.44
759.25	1640.42
759.43	1787.88
759.61	1646.57
759.79	2246.62
759.97	1769.44
760.15	1730.53
760.32	1634.28
760.50	1720.29
760.68	1814.50
760.86	1654.76
761.04	1685.48
761.22	1728.49
761.39	1751.01
761.57	1730.53
761.75	1636.33
761.93	1785.83
762.11	1679.33
762.28	1712.10
762.46	1669.09
762.64	1736.68
762.82	1656.81
763.00	1734.63
763.18	1859.56
763.35	1628.14
763.53	1722.34
763.71	1728.49
763.89	1703.91
764.07	1716.20
764.24	1720.29
764.42	1726.44
764.60	1763.30
764.78	1683.43
764.96	1816.55
765.13	1667.05
765.31	1708.01
765.49	1759.21
765.67	1675.24
765.84	1695.72
766.02	1748.97
766.20	1611.75
766.38	1712.10
766.56	1773.54
766.73	1732.58
766.91	1691.62
767.09	1763.30
767.27	1722.34
767.44	1681.38
767.62	1691.62
767.80	1759.21
767.98	1650.66
768.15	1751.01
768.33	1699.81
768.51	1730.53
768.69	1703.91
768.87	1656.81
769.04	1759.21
769.22	1841.12
769.40	1841.12
769.58	1837.03
769.75	1636.33
769.93	1779.68
770.11	1746.92
770.28	1634.28
770.46	1736.68
770.64	1765.35
770.82	1712.10
770.99	1636.33
771.17	1771.49
771.35	1607.66
771.53	1667.05
771.70	1656.81
771.88	1654.76
772.06	1777.64
772.23	1665.00
772.41	1732.58
772.59	1679.33
772.77	1654.76
772.94	1683.43
773.12	1669.09
773.30	1691.62
773.47	1689.57
773.65	1617.90
773.83	1806.31
774.01	1669.09
774.18	1673.19
774.36	1681.38
774.54	1574.89
774.71	1755.11
774.89	1570.79
775.07	1597.42
775.24	1708.01
775.42	1712.10
775.60	1816.55
775.78	1687.53
775.95	1650.66
776.13	1660.90
776.31	1585.13
776.48	1751.01
776.66	1767.40
776.84	1679.33
777.01	1699.81
777.19	1650.66
777.37	1652.71
777.54	1708.01
777.72	1824.74
777.90	1753.06
778.07	1703.91
778.25	1865.70
778.43	1787.88
778.60	1734.63
778.78	1851.36
778.96	1828.84
779.13	1648.61
779.31	1771.49
779.49	1677.29
779.66	1652.71
779.84	1710.05
780.01	1744.87
780.19	1689.57
780.37	1767.40
780.54	1791.97
780.72	1712.10
780.90	1714.15
781.07	1697.77
781.25	1599.46
781.43	1675.24
781.60	1699.81
781.78	1818.60
781.95	1800.16
782.13	1701.86
782.31	1746.92
782.48	1609.70
782.66	1732.58
782.83	1757.16
783.01	1722.34
783.19	1755.11
783.36	1693.67
783.54	1630.18
783.72	1822.69
783.89	1705.96
784.07	1736.68
784.24	1710.05
784.42	1751.01
784.60	1708.01
784.77	1695.72
784.95	1533.93
785.12	1652.71
785.30	1652.71
785.47	1658.85
785.65	1695.72
785.83	1691.62
786.00	1705.96
786.18	1718.25
786.35	1695.72
786.53	1681.38
786.71	1730.53
786.88	1814.50
787.06	1691.62
787.23	1734.63
787.41	1611.75
787.58	1724.39
787.76	1611.75
787.94	1757.16
788.11	1689.57
788.29	1677.29
788.46	1630.18
788.64	1656.81
788.81	1689.57
788.99	1701.86
789.16	1673.19
789.34	1658.85
789.52	1736.68
789.69	1652.71
789.87	1595.37
790.04	1660.90
790.22	1691.62
790.39	1796.07
790.57	1632.23
790.74	1634.28
790.92	1796.07
791.09	1677.29
791.27	1705.96
791.44	1798.12
791.62	1734.63
791.79	1771.49
791.97	1689.57
792.15	1855.46
792.32	1722.34
792.50	1695.72
792.67	1853.41
792.85	1734.63
793.02	1734.63
793.20	1693.67
793.37	1605.61
793.55	1619.94
793.72	1634.28
793.90	1839.08
794.07	1724.39
794.25	1722.34
794.42	1775.59
794.60	1689.57
794.77	1720.29
794.95	1796.07
795.12	1689.57
795.30	1593.32
795.47	1595.37
795.65	1863.65
795.82	1701.86
796.00	1650.66
796.17	1775.59
796.34	1648.61
796.52	1791.97
796.69	1685.48
796.87	1730.53
797.04	1673.19
797.22	1796.07
797.39	1636.33
797.57	1738.73
797.74	1732.58
797.92	1705.96
798.09	1701.86
798.27	1812.45
798.44	1757.16
798.62	1691.62
798.79	1693.67
798.96	1730.53
799.14	1689.57
799.31	1822.69
799.49	1710.05
799.66	1701.86
799.84	1746.92
800.01	1726.44
800.19	1736.68
800.36	1583.08
800.53	1765.35
800.71	1726.44
800.88	1843.17
801.06	1603.56
801.23	1675.24
801.41	1746.92
801.58	1597.42
801.75	1679.33
801.93	1744.87
802.10	1710.05
802.28	1677.29
802.45	1757.16
802.63	1779.68
802.80	1763.30
802.97	1681.38
803.15	1697.77
803.32	1669.09
803.50	1691.62
803.67	1634.28
803.84	1691.62
804.02	1734.63
804.19	1765.35
804.37	1566.70
804.54	1640.42
804.71	1722.34
804.89	1773.54
805.06	1695.72
805.24	1632.23
805.41	1638.38
805.58	1642.47
805.76	1851.36
805.93	1654.76
806.10	1794.02
806.28	1726.44
806.45	1738.73
806.63	1779.68
806.80	1722.34
806.97	1736.68
807.15	1693.67
807.32	1742.82
807.49	1730.53
807.67	1701.86
807.84	1787.88
808.01	1572.84
808.19	1794.02
808.36	1820.64
808.54	1730.53
808.71	1673.19
808.88	1767.40
809.06	1693.67
809.23	1732.58
809.40	1679.33
809.58	1843.17
809.75	1708.01
809.92	1587.18
810.10	1841.12
810.27	1726.44
810.44	1759.21
810.62	1798.12
810.79	1722.34
810.96	1697.77
811.14	1630.18
811.31	1742.82
811.48	1734.63
811.66	1699.81
811.83	1789.92
812.00	1751.01
812.18	1673.19
812.35	1853.41
812.52	1689.57
812.69	1697.77
812.87	1673.19
813.04	1644.52
813.21	1697.77
813.39	1634.28
813.56	1701.86
813.73	1708.01
813.91	1724.39
814.08	1740.77
814.25	1738.73
814.42	1693.67
814.60	1685.48
814.77	1834.98
814.94	1710.05
815.12	1679.33
815.29	1771.49
815.46	1671.14
815.63	1730.53
815.81	1714.15
815.98	1675.24
816.15	1671.14
816.33	1644.52
816.50	1673.19
816.67	1718.25
816.84	1710.05
817.02	1671.14
817.19	1679.33
817.36	1671.14
817.53	1716.20
817.71	1693.67
817.88	1744.87
818.05	1675.24
818.22	1685.48
818.40	1806.31
818.57	1644.52
818.74	1718.25
818.91	1693.67
819.09	1718.25
819.26	1738.73
819.43	1628.14
819.60	1714.15
819.78	1744.87
819.95	1695.72
820.12	1673.19
820.29	1728.49
820.47	1769.44
820.64	1681.38
820.81	1665.00
820.98	1675.24
821.15	1589.22
821.33	1804.26
821.50	1644.52
821.67	1654.76
821.84	1689.57
822.02	1763.30
822.19	1734.63
822.36	1724.39
822.53	1681.38
822.70	1654.76
822.88	1712.10
823.05	1859.56
823.22	1716.20
823.39	1720.29
823.56	1718.25
823.74	1779.68
823.91	1646.57
824.08	1669.09
824.25	1714.15
824.42	1802.21
824.60	1634.28
824.77	1748.97
824.94	1662.95
825.11	1773.54
825.28	1671.14
825.45	1660.90
825.63	1699.81
825.80	1654.76
825.97	1771.49
826.14	1683.43
826.31	1626.09
826.48	1718.25
826.66	1697.77
826.83	1732.58
827.00	1726.44
827.17	1667.05
827.34	1695.72
827.51	1685.48
827.69	1685.48
827.86	1689.57
828.03	1599.46
828.20	1771.49
828.37	1681.38
828.54	1746.92
828.71	1665.00
828.89	1714.15
829.06	1759.21
829.23	1828.84
829.40	1595.37
829.57	1718.25
829.74	1689.57
829.91	1667.05
830.09	1685.48
830.26	1734.63
830.43	1779.68
830.60	1708.01
830.77	1765.35
830.94	1806.31
831.11	1705.96
831.28	1742.82
831.46	1683.43
831.63	1724.39
831.80	1787.88
831.97	1607.66
832.14	1665.00
832.31	1718.25
832.48	1665.00
832.65	1777.64
832.82	1714.15
832.99	1681.38
833.17	1658.85
833.34	1771.49
833.51	1761.25
833.68	1640.42
833.85	1720.29
834.02	1681.38
834.19	1634.28
834.36	1722.34
834.53	1701.86
834.70	1728.49
834.87	1785.83
835.04	1701.86
835.22	1624.04
835.39	1634.28
835.56	1691.62
835.73	1734.63
835.90	1779.68
836.07	1638.38
836.24	1767.40
836.41	1673.19
836.58	1654.76
836.75	1705.96
836.92	1726.44
837.09	1722.34
837.26	1740.77
837.43	1679.33
837.60	1759.21
837.77	1730.53
837.94	1730.53
838.12	1662.95
838.29	1775.59
838.46	1599.46
838.63	1722.34
838.80	1812.45
838.97	1744.87
839.14	1681.38
839.31	1708.01
839.48	1656.81
839.65	1732.58
839.82	1759.21
839.99	1724.39
840.16	1705.96
840.33	1589.22
840.50	1751.01
840.67	1644.52
840.84	1572.84
841.01	1765.35
841.18	1748.97
841.35	1681.38
841.52	1697.77
841.69	1841.12
841.86	1744.87
842.03	1732.58
842.20	1748.97
842.37	1701.86
842.54	1796.07
842.71	1734.63
842.88	1658.85
843.05	1804.26
843.22	1658.85
843.39	1755.11
843.56	1681.38
843.73	1703.91
843.90	1740.77
844.07	1781.73
844.24	1748.97
844.41	1734.63
844.58	1703.91
844.75	1757.16
844.92	1736.68
845.09	1712.10
845.26	1609.70
845.43	1746.92
845.60	1656.81
845.77	1806.31
845.94	1708.01
846.10	1800.16
846.27	1644.52
846.44	1660.90
846.61	1603.56
846.78	1695.72
846.95	1746.92
847.12	1712.10
847.29	1712.10
847.46	1685.48
847.63	1761.25
847.80	1685.48
847.97	1767.40
848.14	1742.82
848.31	1599.46
848.48	1658.85
848.65	1755.11
848.82	1708.01
848.98	1798.12
849.15	1767.40
849.32	1773.54
849.49	1742.82
849.66	1736.68
849.83	1632.23
850.00	1701.86
850.17	1724.39
850.34	1683.43
850.51	1658.85
850.68	1652.71
850.85	1806.31
851.01	1714.15
851.18	1771.49
851.35	1671.14
851.52	1736.68
851.69	1822.69
851.86	1619.94
852.03	1753.06
852.20	1867.75
852.37	1734.63
852.53	1615.85
852.70	1650.66
852.87	1697.77
853.04	1779.68
853.21	1652.71
853.38	1757.16
853.55	1857.51
853.72	1779.68
853.89	1652.71
854.05	1626.09
854.22	1689.57
854.39	1683.43
854.56	1759.21
854.73	1763.30
854.90	1652.71
855.07	1744.87
855.23	1675.24
855.40	1640.42
855.57	1701.86
855.74	1644.52
855.91	1869.80
856.08	1591.27
856.25	1591.27
856.41	1671.14
856.58	1726.44
856.75	1683.43
856.92	1669.09
857.09	1705.96
857.26	1669.09
857.42	1730.53
857.59	1777.64
857.76	1759.21
857.93	1685.48
858.10	1691.62
858.27	1628.14
858.43	1757.16
858.60	1665.00
858.77	1646.57
858.94	1675.24
859.11	1744.87
859.27	1679.33
859.44	1685.48
859.61	1822.69
859.78	1732.58
859.95	1724.39
860.12	1652.71
860.28	1787.88
860.45	1783.78
860.62	1652.71
860.79	1701.86
860.95	1609.70
861.12	1560.55
861.29	1683.43
861.46	1699.81
861.63	1740.77
861.79	1693.67
861.96	1675.24
862.13	1685.48
862.30	1728.49
862.47	1726.44
862.63	1619.94
862.80	1796.07
862.97	1636.33
863.14	1732.58
863.30	1640.42
863.47	1691.62
863.64	1771.49
863.81	1779.68
863.97	1689.57
864.14	1705.96
864.31	1677.29
864.48	1734.63
864.65	1748.97
864.81	1748.97
864.98	1763.30
865.15	1687.53
865.32	1767.40
865.48	1751.01
865.65	1783.78
865.82	1634.28
865.98	1724.39
866.15	1787.88
866.32	1759.21
866.49	1738.73
866.65	1742.82
866.82	1677.29
866.99	1658.85
867.16	1669.09
867.32	1642.47
867.49	1703.91
867.66	1726.44
867.83	1652.71
867.99	1583.08
868.16	1689.57
868.33	1624.04
868.49	1687.53
868.66	1628.14
868.83	1736.68
868.99	1636.33
869.16	1703.91
869.33	1742.82
869.50	1767.40
869.66	1656.81
869.83	1687.53
870.00	1632.23
870.16	1730.53
870.33	1626.09
870.50	1708.01
870.66	1708.01
870.83	1779.68
871.00	1681.38
871.17	1740.77
871.33	1779.68
871.50	1673.19
871.67	1703.91
871.83	1687.53
872.00	1837.03
872.17	1599.46
872.33	1740.77
872.50	1761.25
872.67	1662.95
872.83	1705.96
873.00	1728.49
873.17	1689.57
873.33	1763.30
873.50	1736.68
873.67	1685.48
873.83	1665.00
874.00	1714.15
874.16	1779.68
874.33	1746.92
874.50	1648.61
874.66	1822.69
874.83	1660.90
875.00	1748.97
875.16	1746.92
875.33	1783.78
875.50	1621.99
875.66	1644.52
875.83	1734.63
875.99	1751.01
876.16	1734.63
876.33	1619.94
876.49	1667.05
876.66	1751.01
876.83	1697.77
876.99	1636.33
877.16	1681.38
877.32	1683.43
877.49	1656.81
877.66	1710.05
877.82	1787.88
877.99	1736.68
878.15	1832.93
878.32	1687.53
878.49	1796.07
878.65	1667.05
878.82	1773.54
878.98	1693.67
879.15	1761.25
879.32	1691.62
879.48	1759.21
879.65	1693.67
879.81	1697.77
879.98	1673.19
880.15	1742.82
880.31	1773.54
880.48	1730.53
880.64	1720.29
880.81	1732.58
880.97	1757.16
881.14	1779.68
881.31	1660.90
881.47	1798.12
881.64	1769.44
881.80	1642.47
881.97	1746.92
882.13	1781.73
882.30	1609.70
882.47	1574.89
882.63	1681.38
882.80	1619.94
882.96	1675.24
883.13	1757.16
883.29	1683.43
883.46	1716.20
883.62	1804.26
883.79	1681.38
883.95	1796.07
884.12	1751.01
884.29	1701.86
884.45	1740.77
884.62	1732.58
884.78	1636.33
884.95	1771.49
885.11	1689.57
885.28	1691.62
885.44	1714.15
885.61	1767.40
885.77	1785.83
885.94	1683.43
886.10	1687.53
886.27	1712.10
886.43	1783.78
886.60	1810.40
886.76	1701.86
886.93	1609.70
887.09	1718.25
887.26	1636.33
887.42	1634.28
887.59	1824.74
887.75	1894.37
887.92	1814.50
888.08	1718.25
888.25	1816.55
888.41	1820.64
888.58	1742.82
888.74	1656.81
888.91	1644.52
>>>>>End Processed Spectral Data<<<<<
