SpectraSuite Data File
++++++++++++++++++++++++++++++++++++
Date: Mon Jun 06 17:08:37 CEST 2016
User: root
Dark Spectrum Present: No
Reference Spectrum Present: No
Number of Sampled Component Spectra: 1
Spectrometers: USB4C02835
Integration Time (usec): 100000 (USB4C02835)
Spectra Averaged: 1 (USB4C02835)
Boxcar Smoothing: 0 (USB4C02835)
Correct for Electrical Dark: No (USB4C02835)
Strobe/Lamp Enabled: No (USB4C02835)
Correct for Detector Non-linearity: No (USB4C02835)
Correct for Stray Light: No (USB4C02835)
Number of Pixels in Processed Spectrum: 3648
>>>>>Begin Processed Spectral Data<<<<<
177.47	1452.01
177.69	1452.01
177.91	1452.01
178.13	1413.10
178.36	1445.87
178.58	1636.33
178.80	1693.67
179.02	1621.99
179.24	1689.57
179.46	1689.57
179.68	1722.34
179.90	1732.58
180.13	1675.24
180.35	1673.19
180.57	1751.01
180.79	1687.53
181.01	1738.73
181.23	1798.12
181.45	1746.92
181.67	1789.92
181.90	1710.05
182.12	1683.43
182.34	1673.19
182.56	1736.68
182.78	1703.91
183.00	1665.00
183.22	1703.91
183.44	1615.85
183.66	1925.09
183.89	1748.97
184.11	1691.62
184.33	1744.87
184.55	1740.77
184.77	1734.63
184.99	1673.19
185.21	1665.00
185.43	1857.51
185.65	1597.42
185.87	1683.43
186.10	1806.31
186.32	1873.89
186.54	1804.26
186.76	1732.58
186.98	1796.07
187.20	1757.16
187.42	1681.38
187.64	1718.25
187.86	1748.97
188.08	1779.68
188.30	1669.09
188.52	1765.35
188.75	1791.97
188.97	1822.69
189.19	1761.25
189.41	1691.62
189.63	1724.39
189.85	1679.33
190.07	1644.52
190.29	1679.33
190.51	1665.00
190.73	1665.00
190.95	1800.16
191.17	1802.21
191.39	1679.33
191.61	1718.25
191.84	1740.77
192.06	1804.26
192.28	1615.85
192.50	1824.74
192.72	1712.10
192.94	1691.62
193.16	1767.40
193.38	1722.34
193.60	1583.08
193.82	1662.95
194.04	1714.15
194.26	1724.39
194.48	1791.97
194.70	1624.04
194.92	1660.90
195.14	1771.49
195.36	1597.42
195.58	1695.72
195.80	1726.44
196.02	1714.15
196.24	1710.05
196.46	1761.25
196.69	1615.85
196.91	1816.55
197.13	1771.49
197.35	1722.34
197.57	1767.40
197.79	1794.02
198.01	1712.10
198.23	1808.36
198.45	1857.51
198.67	1705.96
198.89	1671.14
199.11	1693.67
199.33	1712.10
199.55	1593.32
199.77	1794.02
199.99	1746.92
200.21	1673.19
200.43	1763.30
200.65	1691.62
200.87	1667.05
201.09	1636.33
201.31	1697.77
201.53	1724.39
201.75	1724.39
201.97	1742.82
202.19	1724.39
202.41	1771.49
202.63	1822.69
202.85	1716.20
203.07	1734.63
203.29	1665.00
203.51	1607.66
203.73	1593.32
203.95	1847.27
204.17	1662.95
204.39	1771.49
204.61	1689.57
204.83	1632.23
205.05	1759.21
205.27	1759.21
205.49	1916.90
205.71	1701.86
205.93	1611.75
206.15	1652.71
206.37	1726.44
206.59	1710.05
206.81	1566.70
207.03	1667.05
207.25	1619.94
207.47	1763.30
207.69	1705.96
207.91	1757.16
208.13	1898.47
208.34	1640.42
208.56	1652.71
208.78	1720.29
209.00	1710.05
209.22	1683.43
209.44	1710.05
209.66	1644.52
209.88	1722.34
210.10	1687.53
210.32	1658.85
210.54	1775.59
210.76	1701.86
210.98	1693.67
211.20	1538.02
211.42	1730.53
211.64	1812.45
211.86	1734.63
212.08	1621.99
212.30	1798.12
212.52	1722.34
212.74	1697.77
212.96	1730.53
213.17	1771.49
213.39	1841.12
213.61	1830.88
213.83	1777.64
214.05	1621.99
214.27	1804.26
214.49	1699.81
214.71	1634.28
214.93	1732.58
215.15	1683.43
215.37	1781.73
215.59	1628.14
215.81	1746.92
216.03	1748.97
216.24	1675.24
216.46	1734.63
216.68	1779.68
216.90	1701.86
217.12	1724.39
217.34	1722.34
217.56	1693.67
217.78	1728.49
218.00	1667.05
218.22	1736.68
218.44	1656.81
218.66	1718.25
218.87	1822.69
219.09	1628.14
219.31	1765.35
219.53	1714.15
219.75	1697.77
219.97	1669.09
220.19	1691.62
220.41	1650.66
220.63	1767.40
220.85	1763.30
221.06	1665.00
221.28	1892.32
221.50	1763.30
221.72	1683.43
221.94	1755.11
222.16	1705.96
222.38	1814.50
222.60	1728.49
222.82	1669.09
223.03	1732.58
223.25	1609.70
223.47	1675.24
223.69	1871.84
223.91	1755.11
224.13	1744.87
224.35	1671.14
224.57	1771.49
224.78	1699.81
225.00	1726.44
225.22	1740.77
225.44	1699.81
225.66	1755.11
225.88	1718.25
226.10	1730.53
226.32	1630.18
226.53	1804.26
226.75	1718.25
226.97	1748.97
227.19	1705.96
227.41	1693.67
227.63	1658.85
227.85	1671.14
228.06	1708.01
228.28	1724.39
228.50	1759.21
228.72	1652.71
228.94	1716.20
229.16	1648.61
229.37	1675.24
229.59	1714.15
229.81	1834.98
230.03	1626.09
230.25	1679.33
230.47	1685.48
230.69	1599.46
230.90	1738.73
231.12	1667.05
231.34	1740.77
231.56	1773.54
231.78	1716.20
232.00	1757.16
232.21	1660.90
232.43	1687.53
232.65	1570.79
232.87	1820.64
233.09	1595.37
233.30	1728.49
233.52	1730.53
233.74	1726.44
233.96	1638.38
234.18	1607.66
234.40	1685.48
234.61	1834.98
234.83	1634.28
235.05	1607.66
235.27	1826.79
235.49	1775.59
235.70	1724.39
235.92	1802.21
236.14	1730.53
236.36	1869.80
236.58	1660.90
236.79	1730.53
237.01	1699.81
237.23	1730.53
237.45	1816.55
237.67	1740.77
237.88	1658.85
238.10	1824.74
238.32	1652.71
238.54	1609.70
238.76	1632.23
238.97	1681.38
239.19	1691.62
239.41	1826.79
239.63	1691.62
239.85	1699.81
240.06	1652.71
240.28	1728.49
240.50	1798.12
240.72	1779.68
240.93	1683.43
241.15	1769.44
241.37	1673.19
241.59	1759.21
241.81	1740.77
242.02	1652.71
242.24	1751.01
242.46	1763.30
242.68	1644.52
242.89	1685.48
243.11	1755.11
243.33	1701.86
243.55	1744.87
243.76	1771.49
243.98	1748.97
244.20	1710.05
244.42	1673.19
244.64	1705.96
244.85	1699.81
245.07	1693.67
245.29	1726.44
245.51	1703.91
245.72	1763.30
245.94	1736.68
246.16	1763.30
246.38	1722.34
246.59	1791.97
246.81	1665.00
247.03	1681.38
247.24	1675.24
247.46	1689.57
247.68	1746.92
247.90	1732.58
248.11	1783.78
248.33	1734.63
248.55	1636.33
248.77	1689.57
248.98	1777.64
249.20	1802.21
249.42	1665.00
249.64	1726.44
249.85	1722.34
250.07	1603.56
250.29	1755.11
250.50	1771.49
250.72	1636.33
250.94	1736.68
251.16	1865.70
251.37	1746.92
251.59	1761.25
251.81	1681.38
252.02	1746.92
252.24	1673.19
252.46	1820.64
252.68	1660.90
252.89	1648.61
253.11	1624.04
253.33	1765.35
253.54	1732.58
253.76	1652.71
253.98	1710.05
254.20	1705.96
254.41	1673.19
254.63	1701.86
254.85	1630.18
255.06	1675.24
255.28	1798.12
255.50	1714.15
255.71	1660.90
255.93	1656.81
256.15	1693.67
256.36	1714.15
256.58	1683.43
256.80	1765.35
257.02	1681.38
257.23	1652.71
257.45	1800.16
257.67	1767.40
257.88	1652.71
258.10	1779.68
258.32	1738.73
258.53	1716.20
258.75	1763.30
258.97	1757.16
259.18	1656.81
259.40	1683.43
259.62	1796.07
259.83	1816.55
260.05	1753.06
260.27	1943.52
260.48	1773.54
260.70	1718.25
260.92	1705.96
261.13	1724.39
261.35	1701.86
261.57	1697.77
261.78	1599.46
262.00	1624.04
262.22	1765.35
262.43	1701.86
262.65	1734.63
262.86	1667.05
263.08	1830.88
263.30	1732.58
263.51	1626.09
263.73	1621.99
263.95	1783.78
264.16	1662.95
264.38	1673.19
264.60	1720.29
264.81	1755.11
265.03	1746.92
265.25	1787.88
265.46	1714.15
265.68	1812.45
265.89	1771.49
266.11	1607.66
266.33	1779.68
266.54	1787.88
266.76	1712.10
266.98	1714.15
267.19	1794.02
267.41	1716.20
267.62	1679.33
267.84	1665.00
268.06	1665.00
268.27	1708.01
268.49	1773.54
268.70	1787.88
268.92	1791.97
269.14	1740.77
269.35	1726.44
269.57	1761.25
269.79	1738.73
270.00	1597.42
270.22	1804.26
270.43	1724.39
270.65	1658.85
270.87	1656.81
271.08	1769.44
271.30	1787.88
271.51	1730.53
271.73	1839.08
271.95	1697.77
272.16	1726.44
272.38	1748.97
272.59	1683.43
272.81	1746.92
273.02	1687.53
273.24	1753.06
273.46	1740.77
273.67	1669.09
273.89	1644.52
274.10	1687.53
274.32	1761.25
274.54	1785.83
274.75	1730.53
274.97	1681.38
275.18	1763.30
275.40	1755.11
275.61	1714.15
275.83	1693.67
276.05	1585.13
276.26	1650.66
276.48	1755.11
276.69	1665.00
276.91	1642.47
277.12	1746.92
277.34	1781.73
277.55	1771.49
277.77	1683.43
277.99	1578.98
278.20	1781.73
278.42	1581.03
278.63	1632.23
278.85	1615.85
279.06	1699.81
279.28	1728.49
279.49	1712.10
279.71	1722.34
279.93	1708.01
280.14	1724.39
280.36	1673.19
280.57	1822.69
280.79	1861.60
281.00	1665.00
281.22	1665.00
281.43	1794.02
281.65	1687.53
281.86	1671.14
282.08	1744.87
282.29	1796.07
282.51	1689.57
282.73	1652.71
282.94	1636.33
283.16	1716.20
283.37	1775.59
283.59	1640.42
283.80	1703.91
284.02	1705.96
284.23	1699.81
284.45	1722.34
284.66	1662.95
284.88	1728.49
285.09	1685.48
285.31	1697.77
285.52	1701.86
285.74	1599.46
285.95	1775.59
286.17	1673.19
286.38	1740.77
286.60	1693.67
286.81	1656.81
287.03	1730.53
287.24	1689.57
287.46	1755.11
287.67	1712.10
287.89	1871.84
288.10	1724.39
288.32	1722.34
288.53	1730.53
288.75	1734.63
288.96	1718.25
289.18	1677.29
289.39	1708.01
289.61	1771.49
289.82	1834.98
290.04	1693.67
290.25	1654.76
290.47	1642.47
290.68	1681.38
290.90	1857.51
291.11	1701.86
291.33	1791.97
291.54	1617.90
291.76	1591.27
291.97	1691.62
292.18	1765.35
292.40	1708.01
292.61	1624.04
292.83	1886.18
293.04	1673.19
293.26	1746.92
293.47	1665.00
293.69	1626.09
293.90	1718.25
294.12	1714.15
294.33	1742.82
294.55	1716.20
294.76	1822.69
294.97	1800.16
295.19	1837.03
295.40	1710.05
295.62	1830.88
295.83	1783.78
296.05	1658.85
296.26	1742.82
296.48	1755.11
296.69	1648.61
296.90	1701.86
297.12	1783.78
297.33	1738.73
297.55	1710.05
297.76	1699.81
297.98	1814.50
298.19	1748.97
298.41	1697.77
298.62	1619.94
298.83	1800.16
299.05	1738.73
299.26	1724.39
299.48	1697.77
299.69	1804.26
299.90	1712.10
300.12	1589.22
300.33	1720.29
300.55	1703.91
300.76	1757.16
300.98	1681.38
301.19	1748.97
301.40	1718.25
301.62	1675.24
301.83	1734.63
302.05	1685.48
302.26	1701.86
302.47	1705.96
302.69	1619.94
302.90	1796.07
303.12	1611.75
303.33	1763.30
303.54	1798.12
303.76	1601.51
303.97	1669.09
304.19	1794.02
304.40	1683.43
304.61	1740.77
304.83	1757.16
305.04	1705.96
305.26	1677.29
305.47	1615.85
305.68	1642.47
305.90	1761.25
306.11	1742.82
306.33	1712.10
306.54	1722.34
306.75	1714.15
306.97	1656.81
307.18	1605.61
307.39	1744.87
307.61	1791.97
307.82	1660.90
308.04	1748.97
308.25	1771.49
308.46	1748.97
308.68	1673.19
308.89	1665.00
309.10	1740.77
309.32	1718.25
309.53	1705.96
309.74	1751.01
309.96	1691.62
310.17	1751.01
310.39	1683.43
310.60	1716.20
310.81	1718.25
311.03	1583.08
311.24	1794.02
311.45	1671.14
311.67	1859.56
311.88	1652.71
312.09	1628.14
312.31	1689.57
312.52	1685.48
312.73	1669.09
312.95	1667.05
313.16	1710.05
313.37	1738.73
313.59	1755.11
313.80	1832.93
314.01	1771.49
314.23	1730.53
314.44	1619.94
314.65	1693.67
314.87	1714.15
315.08	1710.05
315.29	1652.71
315.51	1638.38
315.72	1652.71
315.93	1765.35
316.15	1779.68
316.36	1697.77
316.57	1751.01
316.79	1757.16
317.00	1677.29
317.21	1701.86
317.43	1636.33
317.64	1714.15
317.85	1669.09
318.07	1701.86
318.28	1783.78
318.49	1755.11
318.70	1929.19
318.92	1773.54
319.13	1886.18
319.34	1816.55
319.56	1763.30
319.77	1828.84
319.98	1773.54
320.20	1712.10
320.41	1822.69
320.62	1740.77
320.83	1708.01
321.05	1908.71
321.26	1705.96
321.47	1687.53
321.69	1773.54
321.90	1599.46
322.11	1703.91
322.32	1738.73
322.54	1820.64
322.75	1662.95
322.96	1826.79
323.18	1656.81
323.39	1583.08
323.60	1691.62
323.81	1685.48
324.03	1689.57
324.24	1699.81
324.45	1740.77
324.66	1697.77
324.88	1708.01
325.09	1710.05
325.30	1652.71
325.52	1716.20
325.73	1648.61
325.94	1683.43
326.15	1654.76
326.37	1755.11
326.58	1748.97
326.79	1730.53
327.00	1710.05
327.22	1738.73
327.43	1730.53
327.64	1665.00
327.85	1720.29
328.07	1771.49
328.28	1757.16
328.49	1677.29
328.70	1748.97
328.92	1724.39
329.13	1687.53
329.34	1712.10
329.55	1808.36
329.76	1755.11
329.98	1716.20
330.19	1763.30
330.40	1689.57
330.61	1628.14
330.83	1871.84
331.04	1611.75
331.25	1714.15
331.46	1746.92
331.68	1613.80
331.89	1824.74
332.10	1726.44
332.31	1673.19
332.52	1724.39
332.74	1800.16
332.95	1630.18
333.16	1691.62
333.37	1744.87
333.58	1714.15
333.80	1716.20
334.01	1619.94
334.22	1638.38
334.43	1683.43
334.64	1726.44
334.86	1673.19
335.07	1648.61
335.28	1789.92
335.49	1599.46
335.70	1744.87
335.92	1775.59
336.13	1877.99
336.34	1710.05
336.55	1636.33
336.76	1697.77
336.98	1589.22
337.19	1703.91
337.40	1837.03
337.61	1906.66
337.82	1648.61
338.04	1730.53
338.25	1679.33
338.46	1673.19
338.67	1693.67
338.88	1738.73
339.09	1636.33
339.31	1658.85
339.52	1632.23
339.73	1621.99
339.94	1714.15
340.15	1740.77
340.36	1730.53
340.58	1675.24
340.79	1685.48
341.00	1767.40
341.21	1624.04
341.42	1740.77
341.63	1779.68
341.85	1734.63
342.06	1769.44
342.27	1681.38
342.48	1773.54
342.69	1628.14
342.90	1753.06
343.12	1839.08
343.33	1759.21
343.54	1720.29
343.75	1791.97
343.96	1787.88
344.17	1617.90
344.38	1732.58
344.60	1665.00
344.81	1724.39
345.02	1685.48
345.23	1767.40
345.44	1849.32
345.65	1816.55
345.86	1787.88
346.07	1705.96
346.29	1685.48
346.50	1753.06
346.71	1779.68
346.92	1759.21
347.13	1791.97
347.34	1687.53
347.55	1652.71
347.76	1769.44
347.98	1595.37
348.19	1697.77
348.40	1843.17
348.61	1691.62
348.82	1738.73
349.03	1691.62
349.24	1615.85
349.45	1822.69
349.66	1601.51
349.88	1765.35
350.09	1669.09
350.30	1779.68
350.51	1810.40
350.72	1636.33
350.93	1757.16
351.14	1671.14
351.35	1798.12
351.56	1693.67
351.77	1671.14
351.99	1722.34
352.20	1847.27
352.41	1767.40
352.62	1619.94
352.83	1714.15
353.04	1748.97
353.25	1736.68
353.46	1773.54
353.67	1824.74
353.88	1609.70
354.09	1646.57
354.30	1748.97
354.52	1734.63
354.73	1634.28
354.94	1583.08
355.15	1699.81
355.36	1794.02
355.57	1691.62
355.78	1738.73
355.99	1626.09
356.20	1710.05
356.41	1761.25
356.62	1689.57
356.83	1691.62
357.04	1757.16
357.25	1697.77
357.46	1669.09
357.68	1673.19
357.89	1732.58
358.10	1740.77
358.31	1720.29
358.52	1783.78
358.73	1603.56
358.94	1703.91
359.15	1632.23
359.36	1730.53
359.57	1726.44
359.78	1802.21
359.99	1720.29
360.20	1667.05
360.41	1681.38
360.62	1767.40
360.83	1787.88
361.04	1730.53
361.25	1746.92
361.46	1791.97
361.67	1773.54
361.88	1714.15
362.09	1714.15
362.30	1722.34
362.51	1644.52
362.72	1714.15
362.93	1740.77
363.14	1853.41
363.35	1722.34
363.56	1642.47
363.78	1775.59
363.99	1693.67
364.20	1685.48
364.41	1753.06
364.62	1812.45
364.83	1701.86
365.04	1716.20
365.25	1732.58
365.46	1814.50
365.67	1675.24
365.88	1636.33
366.09	1677.29
366.30	1589.22
366.51	1669.09
366.72	1712.10
366.93	1632.23
367.14	1701.86
367.35	1699.81
367.56	1699.81
367.77	1818.60
367.98	1624.04
368.18	1712.10
368.39	1746.92
368.60	1675.24
368.81	1703.91
369.02	1740.77
369.23	1724.39
369.44	1619.94
369.65	1658.85
369.86	1751.01
370.07	1804.26
370.28	1656.81
370.49	1736.68
370.70	1712.10
370.91	1640.42
371.12	1632.23
371.33	1722.34
371.54	1738.73
371.75	1837.03
371.96	1535.98
372.17	1722.34
372.38	1691.62
372.59	1800.16
372.80	1742.82
373.01	1712.10
373.22	1712.10
373.43	1757.16
373.64	1587.18
373.85	1769.44
374.06	1804.26
374.26	1748.97
374.47	1775.59
374.68	1763.30
374.89	1714.15
375.10	1734.63
375.31	1789.92
375.52	1773.54
375.73	1652.71
375.94	1669.09
376.15	1849.32
376.36	1665.00
376.57	1714.15
376.78	1697.77
376.99	1765.35
377.20	1753.06
377.40	1697.77
377.61	1791.97
377.82	1632.23
378.03	1796.07
378.24	1636.33
378.45	1718.25
378.66	1802.21
378.87	1665.00
379.08	1640.42
379.29	1693.67
379.50	1705.96
379.71	1701.86
379.91	1796.07
380.12	1638.38
380.33	1736.68
380.54	1753.06
380.75	1751.01
380.96	1710.05
381.17	1697.77
381.38	1726.44
381.59	1863.65
381.80	1755.11
382.00	1877.99
382.21	1738.73
382.42	1853.41
382.63	1843.17
382.84	1796.07
383.05	1796.07
383.26	1847.27
383.47	1705.96
383.68	1744.87
383.88	1734.63
384.09	1783.78
384.30	1855.46
384.51	1691.62
384.72	1751.01
384.93	1652.71
385.14	1697.77
385.35	1775.59
385.55	1656.81
385.76	1763.30
385.97	1777.64
386.18	1722.34
386.39	1652.71
386.60	1667.05
386.81	1724.39
387.02	1607.66
387.22	1667.05
387.43	1804.26
387.64	1736.68
387.85	1847.27
388.06	2318.30
388.27	4239.30
388.48	6829.98
388.68	8312.71
388.89	9535.34
389.10	9637.74
389.31	8439.68
389.52	7663.50
389.73	6733.72
389.93	6281.12
390.14	5685.16
390.35	5126.07
390.56	4581.31
390.77	3751.88
390.98	3080.14
391.18	2545.63
391.39	2170.85
391.60	1886.18
391.81	1853.41
392.02	1714.15
392.23	1832.93
392.43	1728.49
392.64	1785.83
392.85	1839.08
393.06	1861.60
393.27	1693.67
393.47	1708.01
393.68	1789.92
393.89	1714.15
394.10	1771.49
394.31	1675.24
394.52	1665.00
394.72	1665.00
394.93	1845.22
395.14	1630.18
395.35	1681.38
395.56	1681.38
395.76	1748.97
395.97	1791.97
396.18	1869.80
396.39	1816.55
396.60	2045.92
396.80	1890.28
397.01	1851.36
397.22	1775.59
397.43	1841.12
397.64	1730.53
397.84	1832.93
398.05	1935.33
398.26	1734.63
398.47	1804.26
398.67	1802.21
398.88	1751.01
399.09	1791.97
399.30	1691.62
399.51	1765.35
399.71	1697.77
399.92	1732.58
400.13	1771.49
400.34	1734.63
400.54	1744.87
400.75	1773.54
400.96	1697.77
401.17	1855.46
401.37	1724.39
401.58	1583.08
401.79	1751.01
402.00	1877.99
402.21	2033.63
402.41	1902.56
402.62	2095.07
402.83	1992.67
403.04	2002.91
403.24	2017.25
403.45	1898.47
403.66	1947.62
403.87	1871.84
404.07	1906.66
404.28	1918.95
404.49	1839.08
404.70	1736.68
404.90	1751.01
405.11	1759.21
405.32	1777.64
405.52	1673.19
405.73	1630.18
405.94	1712.10
406.15	1746.92
406.35	1763.30
406.56	1798.12
406.77	1771.49
406.98	1718.25
407.18	1767.40
407.39	1781.73
407.60	1730.53
407.80	1712.10
408.01	1669.09
408.22	1775.59
408.43	1718.25
408.63	1882.08
408.84	1757.16
409.05	1783.78
409.25	1675.24
409.46	1685.48
409.67	1738.73
409.88	1714.15
410.08	1736.68
410.29	1679.33
410.50	1802.21
410.70	1757.16
410.91	1703.91
411.12	1748.97
411.32	1761.25
411.53	1679.33
411.74	1791.97
411.95	1814.50
412.15	1789.92
412.36	1869.80
412.57	1773.54
412.77	1818.60
412.98	1732.58
413.19	1728.49
413.39	1728.49
413.60	1699.81
413.81	1796.07
414.01	1656.81
414.22	1751.01
414.43	1763.30
414.63	1730.53
414.84	1755.11
415.05	1685.48
415.25	1685.48
415.46	1865.70
415.67	1628.14
415.87	1804.26
416.08	1714.15
416.29	1630.18
416.49	1722.34
416.70	1783.78
416.91	1720.29
417.11	1771.49
417.32	1791.97
417.53	1814.50
417.73	1794.02
417.94	1705.96
418.15	1695.72
418.35	1710.05
418.56	1701.86
418.77	1869.80
418.97	1746.92
419.18	1648.61
419.38	1654.76
419.59	1617.90
419.80	1773.54
420.00	1708.01
420.21	1767.40
420.42	1820.64
420.62	1761.25
420.83	1705.96
421.04	1687.53
421.24	1695.72
421.45	1703.91
421.65	1828.84
421.86	1724.39
422.07	1734.63
422.27	1687.53
422.48	1812.45
422.69	1656.81
422.89	1757.16
423.10	1662.95
423.30	1722.34
423.51	1695.72
423.72	1755.11
423.92	1716.20
424.13	1689.57
424.33	1701.86
424.54	1759.21
424.75	1681.38
424.95	1802.21
425.16	1759.21
425.36	1658.85
425.57	1740.77
425.78	1755.11
425.98	1851.36
426.19	1722.34
426.39	1705.96
426.60	1845.22
426.81	1865.70
427.01	1724.39
427.22	1677.29
427.42	1642.47
427.63	1691.62
427.83	1675.24
428.04	1804.26
428.25	1884.13
428.45	1810.40
428.66	1812.45
428.86	1730.53
429.07	1675.24
429.28	1763.30
429.48	1703.91
429.69	1748.97
429.89	1753.06
430.10	1677.29
430.30	1832.93
430.51	1763.30
430.71	1691.62
430.92	1677.29
431.13	1658.85
431.33	1787.88
431.54	1720.29
431.74	1740.77
431.95	1837.03
432.15	1654.76
432.36	1736.68
432.56	1765.35
432.77	1779.68
432.98	1740.77
433.18	1775.59
433.39	1624.04
433.59	1710.05
433.80	1853.41
434.00	1941.47
434.21	1685.48
434.41	1675.24
434.62	1888.23
434.82	1718.25
435.03	1658.85
435.23	1630.18
435.44	1650.66
435.64	1765.35
435.85	1796.07
436.06	1820.64
436.26	1773.54
436.47	1744.87
436.67	1701.86
436.88	1722.34
437.08	1806.31
437.29	1769.44
437.49	1697.77
437.70	1714.15
437.90	1730.53
438.11	1880.04
438.31	1806.31
438.52	1837.03
438.72	1851.36
438.93	1908.71
439.13	1800.16
439.34	1832.93
439.54	1794.02
439.75	1814.50
439.95	1812.45
440.16	1695.72
440.36	1753.06
440.57	1722.34
440.77	1757.16
440.98	1705.96
441.18	1806.31
441.39	1753.06
441.59	1732.58
441.80	1841.12
442.00	1734.63
442.21	1783.78
442.41	1693.67
442.62	1841.12
442.82	1728.49
443.02	1767.40
443.23	1798.12
443.43	1628.14
443.64	1808.36
443.84	1710.05
444.05	1857.51
444.25	1726.44
444.46	1671.14
444.66	1751.01
444.87	1810.40
445.07	1681.38
445.28	1763.30
445.48	1765.35
445.69	1697.77
445.89	1820.64
446.09	1761.25
446.30	1982.43
446.50	2623.45
446.71	3688.39
446.91	4319.17
447.12	4714.42
447.32	4739.00
447.53	4368.32
447.73	3831.75
447.93	3585.99
448.14	3237.84
448.34	3184.59
448.55	2934.74
448.75	2856.92
448.96	2662.36
449.16	2471.90
449.36	2258.91
449.57	2047.97
449.77	1914.85
449.98	1777.64
450.18	1851.36
450.39	1853.41
450.59	1753.06
450.79	1701.86
451.00	1767.40
451.20	1810.40
451.41	1697.77
451.61	1732.58
451.81	1755.11
452.02	1683.43
452.22	1699.81
452.43	1753.06
452.63	1740.77
452.84	1791.97
453.04	1779.68
453.24	1759.21
453.45	1615.85
453.65	1740.77
453.86	1732.58
454.06	1734.63
454.26	1818.60
454.47	1730.53
454.67	1880.04
454.87	1746.92
455.08	1718.25
455.28	1812.45
455.49	1720.29
455.69	1759.21
455.89	1927.14
456.10	1857.51
456.30	1673.19
456.51	1775.59
456.71	1728.49
456.91	1755.11
457.12	1691.62
457.32	1806.31
457.52	1646.57
457.73	1763.30
457.93	1830.88
458.14	1718.25
458.34	1718.25
458.54	1687.53
458.75	1587.18
458.95	1796.07
459.15	1802.21
459.36	1746.92
459.56	1763.30
459.76	1841.12
459.97	1769.44
460.17	1681.38
460.37	1812.45
460.58	1724.39
460.78	1738.73
460.99	1757.16
461.19	1677.29
461.39	1705.96
461.60	1738.73
461.80	1740.77
462.00	1665.00
462.21	1763.30
462.41	1624.04
462.61	1695.72
462.82	1593.32
463.02	1773.54
463.22	1775.59
463.43	1800.16
463.63	1740.77
463.83	1828.84
464.04	1785.83
464.24	1722.34
464.44	1656.81
464.64	1724.39
464.85	1701.86
465.05	1794.02
465.25	1689.57
465.46	1648.61
465.66	1771.49
465.86	1828.84
466.07	1738.73
466.27	1769.44
466.47	1695.72
466.68	1652.71
466.88	1896.42
467.08	1740.77
467.29	1724.39
467.49	1710.05
467.69	1697.77
467.89	1808.36
468.10	1679.33
468.30	1753.06
468.50	1804.26
468.71	1738.73
468.91	1662.95
469.11	1820.64
469.31	1720.29
469.52	1742.82
469.72	1765.35
469.92	1808.36
470.13	1718.25
470.33	1728.49
470.53	1859.56
470.73	2058.21
470.94	2293.72
471.14	2383.84
471.34	2512.86
471.54	2455.51
471.75	2367.45
471.95	2166.75
472.15	1998.82
472.36	2103.26
472.56	2068.45
472.76	2070.50
472.96	2019.30
473.17	1961.95
473.37	1929.19
473.57	1830.88
473.77	1839.08
473.98	1841.12
474.18	1593.32
474.38	1990.63
474.58	1693.67
474.79	1697.77
474.99	1822.69
475.19	1777.64
475.39	1648.61
475.60	1800.16
475.80	1708.01
476.00	1765.35
476.20	1728.49
476.41	1765.35
476.61	1896.42
476.81	1867.75
477.01	1628.14
477.21	1873.89
477.42	1832.93
477.62	1609.70
477.82	1841.12
478.02	1687.53
478.23	1804.26
478.43	1646.57
478.63	1662.95
478.83	1746.92
479.03	1652.71
479.24	1751.01
479.44	1890.28
479.64	1671.14
479.84	1675.24
480.04	1699.81
480.25	1740.77
480.45	1716.20
480.65	1689.57
480.85	1839.08
481.06	1705.96
481.26	1718.25
481.46	1714.15
481.66	1751.01
481.86	1675.24
482.06	1804.26
482.27	1669.09
482.47	1619.94
482.67	1740.77
482.87	1677.29
483.07	1808.36
483.28	1652.71
483.48	1652.71
483.68	1667.05
483.88	1697.77
484.08	1669.09
484.29	1673.19
484.49	1701.86
484.69	1748.97
484.89	1763.30
485.09	1812.45
485.29	1773.54
485.50	1800.16
485.70	1636.33
485.90	1798.12
486.10	1697.77
486.30	1759.21
486.50	1810.40
486.71	1759.21
486.91	1796.07
487.11	1830.88
487.31	1677.29
487.51	1689.57
487.71	1730.53
487.91	1716.20
488.12	1701.86
488.32	1591.27
488.52	1679.33
488.72	1718.25
488.92	1755.11
489.12	1781.73
489.32	1816.55
489.53	1705.96
489.73	1646.57
489.93	1773.54
490.13	1652.71
490.33	1710.05
490.53	1791.97
490.73	1769.44
490.94	1687.53
491.14	1755.11
491.34	1816.55
491.54	2158.56
491.74	2549.72
491.94	2877.40
492.14	2973.65
492.34	2996.18
492.54	2863.06
492.75	2478.04
492.95	2504.67
493.15	2402.27
493.35	2314.20
493.55	2303.96
493.75	2140.13
493.95	2050.02
494.15	2074.59
494.35	1886.18
494.56	1873.89
494.76	1773.54
494.96	1863.65
495.16	1712.10
495.36	1746.92
495.56	1751.01
495.76	1767.40
495.96	1714.15
496.16	1675.24
496.36	1822.69
496.56	1767.40
496.77	1775.59
496.97	1753.06
497.17	1834.98
497.37	1755.11
497.57	1791.97
497.77	1705.96
497.97	1662.95
498.17	1708.01
498.37	1628.14
498.57	1785.83
498.77	1710.05
498.97	1798.12
499.17	1845.22
499.38	1662.95
499.58	1748.97
499.78	1849.32
499.98	1748.97
500.18	1705.96
500.38	1697.77
500.58	1910.75
500.78	2480.09
500.98	4556.73
501.18	5902.25
501.38	6856.60
501.58	7102.36
501.78	6606.75
501.98	5638.06
502.18	5072.82
502.38	4437.95
502.58	4130.75
502.78	3702.73
502.98	3708.87
503.18	3463.12
503.38	3264.46
503.59	2858.96
503.79	2609.11
503.99	2418.65
504.19	2265.05
504.39	2181.09
504.59	2148.32
504.79	2209.76
504.99	2062.30
505.19	1998.82
505.39	1853.41
505.59	1941.47
505.79	1886.18
505.99	1826.79
506.19	1857.51
506.39	1843.17
506.59	1730.53
506.79	1796.07
506.99	1837.03
507.19	1798.12
507.39	1708.01
507.59	1665.00
507.79	1746.92
507.99	1626.09
508.19	1720.29
508.39	1726.44
508.59	1703.91
508.79	1783.78
508.99	1882.08
509.19	1718.25
509.39	1789.92
509.59	1691.62
509.79	1683.43
509.99	1759.21
510.19	1834.98
510.39	1841.12
510.59	1695.72
510.79	1804.26
510.99	1607.66
511.19	1751.01
511.39	1873.89
511.59	1873.89
511.79	1820.64
511.99	1730.53
512.19	1849.32
512.38	1804.26
512.58	1730.53
512.78	1740.77
512.98	1736.68
513.18	1877.99
513.38	1648.61
513.58	1791.97
513.78	1708.01
513.98	1746.92
514.18	1771.49
514.38	1607.66
514.58	1708.01
514.78	1708.01
514.98	1679.33
515.18	1708.01
515.38	1763.30
515.58	1923.04
515.78	1671.14
515.98	1796.07
516.18	1806.31
516.38	1665.00
516.57	1812.45
516.77	1753.06
516.97	1816.55
517.17	1677.29
517.37	1583.08
517.57	1808.36
517.77	1744.87
517.97	1712.10
518.17	1738.73
518.37	1722.34
518.57	1685.48
518.77	1710.05
518.97	1681.38
519.16	1787.88
519.36	1818.60
519.56	1740.77
519.76	1761.25
519.96	1746.92
520.16	1783.78
520.36	1652.71
520.56	1816.55
520.76	1691.62
520.96	1738.73
521.16	1765.35
521.35	1873.89
521.55	1834.98
521.75	1732.58
521.95	1728.49
522.15	1646.57
522.35	1736.68
522.55	1785.83
522.75	1834.98
522.95	1703.91
523.14	1708.01
523.34	1841.12
523.54	1675.24
523.74	1722.34
523.94	1798.12
524.14	1712.10
524.34	1849.32
524.54	1828.84
524.73	1738.73
524.93	1839.08
525.13	1691.62
525.33	1642.47
525.53	1929.19
525.73	1814.50
525.93	1755.11
526.13	1691.62
526.32	1708.01
526.52	1746.92
526.72	1812.45
526.92	1783.78
527.12	1777.64
527.32	1636.33
527.52	1820.64
527.71	1767.40
527.91	1714.15
528.11	1798.12
528.31	1697.77
528.51	1736.68
528.71	1738.73
528.90	1712.10
529.10	1765.35
529.30	1800.16
529.50	1648.61
529.70	1742.82
529.90	1662.95
530.09	1734.63
530.29	1683.43
530.49	1701.86
530.69	1847.27
530.89	1761.25
531.09	1775.59
531.28	1732.58
531.48	1785.83
531.68	1767.40
531.88	1812.45
532.08	1691.62
532.28	1703.91
532.47	1867.75
532.67	1826.79
532.87	1722.34
533.07	1718.25
533.27	1798.12
533.46	1804.26
533.66	1763.30
533.86	1724.39
534.06	1724.39
534.26	1796.07
534.45	1742.82
534.65	1740.77
534.85	1765.35
535.05	1710.05
535.25	1800.16
535.44	1693.67
535.64	1814.50
535.84	1677.29
536.04	1679.33
536.24	1736.68
536.43	1681.38
536.63	1761.25
536.83	1714.15
537.03	1705.96
537.22	1632.23
537.42	1691.62
537.62	1748.97
537.82	1718.25
538.02	1796.07
538.21	1826.79
538.41	1873.89
538.61	1814.50
538.81	1714.15
539.00	1853.41
539.20	1644.52
539.40	1693.67
539.60	1791.97
539.79	1685.48
539.99	1703.91
540.19	1697.77
540.39	1763.30
540.58	1857.51
540.78	1763.30
540.98	1697.77
541.18	1753.06
541.37	1789.92
541.57	1705.96
541.77	1773.54
541.97	1732.58
542.16	1726.44
542.36	1701.86
542.56	1656.81
542.76	1824.74
542.95	1736.68
543.15	1806.31
543.35	1857.51
543.54	1771.49
543.74	1687.53
543.94	1789.92
544.14	1677.29
544.33	1718.25
544.53	1828.84
544.73	1714.15
544.93	1665.00
545.12	1665.00
545.32	1738.73
545.52	1757.16
545.71	1748.97
545.91	1658.85
546.11	1708.01
546.30	1710.05
546.50	1708.01
546.70	1777.64
546.90	1746.92
547.09	1654.76
547.29	1787.88
547.49	1867.75
547.68	1701.86
547.88	1701.86
548.08	1720.29
548.27	2187.23
548.47	1730.53
548.67	1730.53
548.87	1714.15
549.06	1767.40
549.26	1703.91
549.46	1755.11
549.65	1720.29
549.85	1781.73
550.05	1853.41
550.24	1757.16
550.44	1767.40
550.64	1708.01
550.83	1755.11
551.03	1837.03
551.23	1804.26
551.42	1755.11
551.62	1701.86
551.82	1837.03
552.01	1751.01
552.21	1744.87
552.41	1722.34
552.60	1789.92
552.80	1812.45
553.00	1720.29
553.19	1728.49
553.39	1777.64
553.59	1652.71
553.78	1759.21
553.98	1718.25
554.17	1654.76
554.37	1798.12
554.57	1800.16
554.76	1685.48
554.96	1775.59
555.16	1775.59
555.35	1789.92
555.55	1779.68
555.75	1734.63
555.94	1837.03
556.14	1755.11
556.33	1722.34
556.53	1734.63
556.73	1767.40
556.92	1771.49
557.12	1808.36
557.32	1865.70
557.51	1845.22
557.71	1779.68
557.90	1884.13
558.10	1824.74
558.30	1714.15
558.49	1726.44
558.69	1740.77
558.88	1673.19
559.08	1710.05
559.28	1775.59
559.47	1722.34
559.67	1748.97
559.86	1882.08
560.06	1824.74
560.26	1714.15
560.45	1689.57
560.65	1751.01
560.84	1798.12
561.04	1726.44
561.24	1884.13
561.43	1789.92
561.63	1853.41
561.82	1812.45
562.02	1738.73
562.22	1691.62
562.41	1632.23
562.61	1789.92
562.80	1691.62
563.00	1902.56
563.19	1742.82
563.39	1822.69
563.59	1658.85
563.78	1648.61
563.98	1638.38
564.17	1669.09
564.37	1681.38
564.56	1658.85
564.76	1693.67
564.96	1810.40
565.15	1818.60
565.35	1865.70
565.54	1722.34
565.74	1794.02
565.93	1841.12
566.13	1705.96
566.32	1724.39
566.52	1730.53
566.71	1798.12
566.91	1740.77
567.11	1708.01
567.30	1755.11
567.50	1775.59
567.69	1744.87
567.89	1812.45
568.08	1701.86
568.28	1738.73
568.47	1636.33
568.67	1869.80
568.86	1759.21
569.06	1845.22
569.25	1703.91
569.45	1722.34
569.64	1685.48
569.84	1726.44
570.04	1644.52
570.23	1716.20
570.43	1736.68
570.62	1675.24
570.82	1904.61
571.01	1718.25
571.21	1705.96
571.40	1689.57
571.60	1894.37
571.79	1787.88
571.99	1812.45
572.18	1722.34
572.38	1710.05
572.57	1742.82
572.77	1789.92
572.96	1898.47
573.16	1826.79
573.35	1767.40
573.55	1800.16
573.74	1777.64
573.94	1841.12
574.13	1673.19
574.33	1814.50
574.52	1824.74
574.71	1849.32
574.91	1730.53
575.10	1732.58
575.30	1736.68
575.49	1773.54
575.69	1675.24
575.88	1820.64
576.08	1710.05
576.27	1861.60
576.47	1773.54
576.66	1894.37
576.86	1779.68
577.05	1728.49
577.25	1742.82
577.44	1875.94
577.64	1687.53
577.83	1789.92
578.02	1740.77
578.22	1834.98
578.41	1822.69
578.61	1767.40
578.80	1671.14
579.00	1728.49
579.19	1720.29
579.39	1849.32
579.58	1783.78
579.77	1769.44
579.97	1869.80
580.16	1845.22
580.36	1839.08
580.55	1851.36
580.75	1800.16
580.94	1697.77
581.13	1890.28
581.33	1873.89
581.52	1742.82
581.72	1828.84
581.91	1810.40
582.11	1697.77
582.30	1865.70
582.49	1763.30
582.69	1880.04
582.88	1839.08
583.08	1867.75
583.27	1822.69
583.47	1697.77
583.66	1802.21
583.85	1828.84
584.05	1763.30
584.24	1751.01
584.44	1783.78
584.63	1812.45
584.82	1820.64
585.02	1806.31
585.21	1873.89
585.41	1800.16
585.60	1800.16
585.79	1959.91
585.99	1886.18
586.18	1861.60
586.37	2203.61
586.57	3303.37
586.76	9897.83
586.96	24381.07
587.15	34311.67
587.34	40480.15
587.54	42550.65
587.73	36414.93
587.93	26228.34
588.12	21319.35
588.31	18306.79
588.51	16389.89
588.70	15048.47
588.89	13973.29
589.09	12508.99
589.28	10958.68
589.47	9447.28
589.67	7880.58
589.86	6463.39
590.06	5003.19
590.25	3891.14
590.44	3164.11
590.64	2574.30
590.83	2156.51
591.02	2123.74
591.22	2031.58
591.41	1894.37
591.60	1751.01
591.80	1910.75
591.99	1855.46
592.18	1789.92
592.38	1796.07
592.57	1759.21
592.76	1746.92
592.96	1828.84
593.15	1826.79
593.34	1783.78
593.54	1820.64
593.73	1740.77
593.92	1728.49
594.12	1720.29
594.31	1742.82
594.50	1783.78
594.70	1818.60
594.89	1908.71
595.08	1728.49
595.28	1791.97
595.47	1861.60
595.66	1816.55
595.86	1652.71
596.05	1771.49
596.24	1701.86
596.43	1880.04
596.63	1804.26
596.82	1751.01
597.01	1798.12
597.21	1843.17
597.40	1738.73
597.59	1757.16
597.79	1810.40
597.98	1816.55
598.17	1779.68
598.36	1789.92
598.56	1744.87
598.75	1740.77
598.94	1808.36
599.14	1708.01
599.33	1685.48
599.52	1781.73
599.71	1773.54
599.91	1763.30
600.10	1767.40
600.29	1712.10
600.48	1818.60
600.68	1834.98
600.87	1779.68
601.06	1748.97
601.26	1791.97
601.45	1703.91
601.64	1732.58
601.83	1837.03
602.03	1722.34
602.22	1691.62
602.41	1806.31
602.60	1871.84
602.80	1787.88
602.99	1777.64
603.18	1738.73
603.37	1775.59
603.57	1763.30
603.76	1683.43
603.95	1857.51
604.14	1691.62
604.34	1662.95
604.53	1705.96
604.72	1830.88
604.91	1802.21
605.10	1783.78
605.30	1718.25
605.49	1869.80
605.68	1726.44
605.87	1744.87
606.07	1714.15
606.26	1708.01
606.45	1726.44
606.64	1806.31
606.84	1726.44
607.03	1791.97
607.22	1798.12
607.41	1689.57
607.60	1679.33
607.80	1849.32
607.99	1683.43
608.18	1738.73
608.37	1693.67
608.56	1689.57
608.76	1773.54
608.95	1822.69
609.14	1806.31
609.33	1816.55
609.52	1808.36
609.72	1740.77
609.91	1830.88
610.10	1695.72
610.29	1828.84
610.48	1765.35
610.68	1787.88
610.87	1787.88
611.06	1734.63
611.25	1673.19
611.44	1843.17
611.63	1642.47
611.83	1843.17
612.02	1654.76
612.21	1814.50
612.40	1705.96
612.59	1742.82
612.79	1701.86
612.98	1769.44
613.17	1837.03
613.36	1751.01
613.55	1882.08
613.74	1724.39
613.93	1710.05
614.13	1697.77
614.32	1781.73
614.51	1763.30
614.70	1742.82
614.89	1669.09
615.08	1767.40
615.28	2017.25
615.47	1695.72
615.66	1738.73
615.85	1724.39
616.04	1820.64
616.23	1744.87
616.42	1701.86
616.62	1781.73
616.81	1753.06
617.00	1734.63
617.19	1724.39
617.38	1794.02
617.57	1755.11
617.76	1720.29
617.95	1773.54
618.15	1787.88
618.34	1804.26
618.53	1703.91
618.72	1783.78
618.91	1818.60
619.10	1869.80
619.29	1712.10
619.48	1796.07
619.68	1648.61
619.87	1699.81
620.06	1720.29
620.25	1755.11
620.44	1703.91
620.63	1798.12
620.82	1779.68
621.01	1742.82
621.20	1759.21
621.39	1734.63
621.59	1755.11
621.78	1728.49
621.97	1628.14
622.16	1771.49
622.35	1736.68
622.54	1898.47
622.73	1824.74
622.92	1515.50
623.11	1802.21
623.30	1675.24
623.49	1796.07
623.68	1748.97
623.88	1812.45
624.07	1732.58
624.26	1728.49
624.45	1746.92
624.64	1748.97
624.83	1697.77
625.02	1718.25
625.21	1806.31
625.40	1722.34
625.59	1763.30
625.78	1767.40
625.97	1794.02
626.16	1763.30
626.35	1798.12
626.54	1730.53
626.74	1806.31
626.93	1701.86
627.12	1724.39
627.31	1839.08
627.50	1718.25
627.69	1800.16
627.88	1714.15
628.07	1738.73
628.26	1644.52
628.45	1779.68
628.64	1687.53
628.83	1701.86
629.02	1705.96
629.21	1783.78
629.40	1732.58
629.59	1638.38
629.78	1675.24
629.97	1757.16
630.16	1675.24
630.35	1642.47
630.54	1708.01
630.73	1621.99
630.92	1691.62
631.11	1734.63
631.30	1755.11
631.49	1748.97
631.68	1767.40
631.87	1730.53
632.06	1681.38
632.25	1853.41
632.44	1796.07
632.63	1738.73
632.82	1626.09
633.01	1615.85
633.20	1724.39
633.39	1644.52
633.58	1634.28
633.77	1759.21
633.96	1771.49
634.15	1738.73
634.34	1675.24
634.53	1720.29
634.72	1728.49
634.91	1665.00
635.10	1665.00
635.29	1812.45
635.48	1701.86
635.67	1712.10
635.86	1601.51
636.05	1748.97
636.24	1773.54
636.43	1730.53
636.62	1781.73
636.81	1693.67
637.00	1667.05
637.19	1751.01
637.38	1691.62
637.57	1634.28
637.76	1689.57
637.95	1728.49
638.14	1626.09
638.33	1732.58
638.52	1708.01
638.71	1738.73
638.89	1636.33
639.08	1920.99
639.27	1722.34
639.46	1642.47
639.65	1824.74
639.84	1736.68
640.03	1804.26
640.22	1701.86
640.41	1837.03
640.60	1708.01
640.79	1683.43
640.98	1695.72
641.17	1730.53
641.36	1748.97
641.55	1744.87
641.74	1710.05
641.92	1652.71
642.11	1695.72
642.30	1634.28
642.49	1701.86
642.68	1679.33
642.87	1677.29
643.06	1744.87
643.25	1687.53
643.44	1681.38
643.63	1665.00
643.82	1796.07
644.00	1652.71
644.19	1722.34
644.38	1667.05
644.57	1834.98
644.76	1734.63
644.95	1669.09
645.14	1744.87
645.33	1796.07
645.52	1759.21
645.71	1685.48
645.89	1628.14
646.08	1763.30
646.27	1759.21
646.46	1828.84
646.65	1714.15
646.84	1826.79
647.03	1677.29
647.22	1777.64
647.40	1734.63
647.59	1673.19
647.78	1630.18
647.97	1640.42
648.16	1738.73
648.35	1789.92
648.54	1828.84
648.73	1671.14
648.91	1757.16
649.10	1751.01
649.29	1601.51
649.48	1724.39
649.67	1751.01
649.86	1726.44
650.05	1646.57
650.23	1808.36
650.42	1654.76
650.61	1843.17
650.80	1722.34
650.99	1845.22
651.18	1769.44
651.36	1877.99
651.55	1683.43
651.74	1802.21
651.93	1638.38
652.12	1730.53
652.31	1730.53
652.49	1699.81
652.68	1691.62
652.87	1810.40
653.06	1757.16
653.25	1814.50
653.44	1697.77
653.62	1834.98
653.81	1726.44
654.00	1667.05
654.19	1812.45
654.38	1904.61
654.56	1791.97
654.75	1650.66
654.94	1771.49
655.13	1769.44
655.32	1734.63
655.51	1814.50
655.69	1656.81
655.88	1796.07
656.07	1646.57
656.26	1753.06
656.45	1615.85
656.63	1710.05
656.82	1708.01
657.01	1740.77
657.20	1738.73
657.38	1796.07
657.57	1689.57
657.76	1650.66
657.95	1710.05
658.14	1644.52
658.32	1787.88
658.51	1648.61
658.70	1759.21
658.89	1683.43
659.08	1789.92
659.26	1751.01
659.45	1716.20
659.64	1779.68
659.83	1646.57
660.01	1914.85
660.20	1738.73
660.39	1916.90
660.58	1595.37
660.76	1728.49
660.95	1640.42
661.14	1705.96
661.33	1718.25
661.51	1732.58
661.70	1726.44
661.89	1658.85
662.08	1699.81
662.26	1581.03
662.45	1681.38
662.64	1796.07
662.83	1742.82
663.01	1697.77
663.20	1728.49
663.39	1773.54
663.58	1714.15
663.76	1619.94
663.95	1818.60
664.14	1712.10
664.32	1644.52
664.51	1611.75
664.70	1650.66
664.89	1722.34
665.07	1652.71
665.26	1826.79
665.45	1691.62
665.64	1732.58
665.82	1722.34
666.01	1693.67
666.20	1624.04
666.38	1863.65
666.57	1824.74
666.76	2215.90
666.95	4509.63
667.13	10342.24
667.32	15267.61
667.51	17757.94
667.69	19023.58
667.88	17821.42
668.07	12556.10
668.25	9510.77
668.44	8097.67
668.63	7305.10
668.81	6782.87
669.00	6311.84
669.19	5713.83
669.38	5144.50
669.56	4521.92
669.75	3956.68
669.94	3489.74
670.12	2838.48
670.31	2525.15
670.50	2330.59
670.68	2090.98
670.87	1923.04
671.06	1890.28
671.24	1773.54
671.43	1910.75
671.62	1712.10
671.80	1734.63
671.99	1794.02
672.18	1722.34
672.36	1693.67
672.55	1746.92
672.74	1724.39
672.92	1654.76
673.11	1767.40
673.29	1615.85
673.48	1787.88
673.67	1753.06
673.85	1802.21
674.04	1720.29
674.23	1746.92
674.41	1791.97
674.60	1667.05
674.79	1667.05
674.97	1634.28
675.16	1775.59
675.34	1767.40
675.53	1665.00
675.72	1697.77
675.90	1826.79
676.09	1665.00
676.28	1724.39
676.46	1646.57
676.65	1841.12
676.83	1671.14
677.02	1710.05
677.21	1765.35
677.39	1679.33
677.58	1665.00
677.77	1705.96
677.95	1751.01
678.14	1697.77
678.32	1728.49
678.51	1734.63
678.70	1791.97
678.88	1689.57
679.07	1720.29
679.25	1732.58
679.44	1701.86
679.63	1689.57
679.81	1742.82
680.00	1730.53
680.18	1794.02
680.37	1806.31
680.55	1683.43
680.74	1591.27
680.93	1652.71
681.11	1777.64
681.30	1748.97
681.48	1798.12
681.67	1697.77
681.85	1753.06
682.04	1679.33
682.23	1789.92
682.41	1771.49
682.60	1724.39
682.78	1708.01
682.97	1656.81
683.15	1740.77
683.34	1800.16
683.53	1820.64
683.71	1648.61
683.90	1865.70
684.08	1806.31
684.27	1695.72
684.45	1771.49
684.64	1800.16
684.82	1636.33
685.01	1802.21
685.19	1771.49
685.38	1740.77
685.57	1732.58
685.75	1697.77
685.94	1652.71
686.12	1638.38
686.31	1628.14
686.49	1814.50
686.68	1642.47
686.86	1703.91
687.05	1665.00
687.23	1804.26
687.42	1691.62
687.60	1665.00
687.79	1767.40
687.97	1736.68
688.16	1763.30
688.34	1734.63
688.53	1650.66
688.71	1839.08
688.90	1730.53
689.08	1730.53
689.27	1529.83
689.45	1751.01
689.64	1753.06
689.82	1814.50
690.01	1834.98
690.19	1683.43
690.38	1734.63
690.56	1748.97
690.75	1677.29
690.93	1697.77
691.12	1656.81
691.30	1662.95
691.49	1681.38
691.67	1804.26
691.86	1869.80
692.04	1767.40
692.23	1740.77
692.41	1689.57
692.60	1843.17
692.78	1738.73
692.97	1703.91
693.15	1687.53
693.34	1759.21
693.52	1777.64
693.71	1652.71
693.89	1736.68
694.08	1675.24
694.26	1742.82
694.44	1730.53
694.63	1710.05
694.81	1675.24
695.00	1697.77
695.18	1757.16
695.37	1871.84
695.55	1710.05
695.74	1736.68
695.92	1710.05
696.10	1781.73
696.29	1617.90
696.47	1652.71
696.66	1652.71
696.84	1685.48
697.03	1671.14
697.21	1826.79
697.40	2244.57
697.58	1832.93
697.76	1783.78
697.95	1677.29
698.13	1581.03
698.32	1734.63
698.50	1683.43
698.68	1763.30
698.87	1746.92
699.05	1796.07
699.24	1701.86
699.42	1718.25
699.61	1710.05
699.79	1689.57
699.97	1779.68
700.16	1650.66
700.34	1693.67
700.53	1748.97
700.71	1775.59
700.89	1748.97
701.08	1726.44
701.26	1736.68
701.45	2103.26
701.63	1701.86
701.81	1673.19
702.00	1628.14
702.18	1738.73
702.37	1699.81
702.55	1712.10
702.73	1759.21
702.92	1605.61
703.10	1796.07
703.28	1791.97
703.47	1669.09
703.65	1691.62
703.84	1785.83
704.02	1722.34
704.20	1785.83
704.39	1648.61
704.57	1675.24
704.75	1787.88
704.94	1751.01
705.12	1673.19
705.30	1771.49
705.49	2310.11
705.67	4466.62
705.86	9545.58
706.04	12666.69
706.22	14274.34
706.41	15234.84
706.59	13580.08
706.77	9502.58
706.96	7436.17
707.14	6565.79
707.32	5937.06
707.51	5564.33
707.69	4753.34
707.87	4382.65
708.06	3526.60
708.24	2965.46
708.42	2469.85
708.61	2263.01
708.79	1906.66
708.97	1953.76
709.16	1855.46
709.34	1820.64
709.52	1703.91
709.71	1640.42
709.89	1726.44
710.07	1677.29
710.26	1693.67
710.44	1742.82
710.62	1740.77
710.80	1699.81
710.99	1773.54
711.17	1787.88
711.35	1710.05
711.54	1636.33
711.72	1804.26
711.90	1716.20
712.09	1742.82
712.27	1730.53
712.45	1757.16
712.63	1697.77
712.82	1658.85
713.00	1716.20
713.18	1738.73
713.37	1716.20
713.55	1746.92
713.73	1740.77
713.91	1724.39
714.10	1671.14
714.28	1728.49
714.46	1699.81
714.65	1710.05
714.83	1728.49
715.01	1779.68
715.19	1708.01
715.38	1677.29
715.56	1697.77
715.74	1648.61
715.92	1671.14
716.11	1773.54
716.29	1619.94
716.47	1626.09
716.65	1665.00
716.84	1640.42
717.02	1718.25
717.20	1646.57
717.38	1703.91
717.57	1785.83
717.75	1824.74
717.93	1681.38
718.11	1755.11
718.30	1695.72
718.48	1675.24
718.66	1753.06
718.84	1796.07
719.03	1691.62
719.21	1687.53
719.39	1742.82
719.57	1841.12
719.75	1822.69
719.94	1699.81
720.12	1658.85
720.30	1769.44
720.48	1748.97
720.67	1695.72
720.85	1677.29
721.03	1736.68
721.21	1628.14
721.39	1691.62
721.58	1734.63
721.76	1728.49
721.94	1869.80
722.12	1699.81
722.30	1828.84
722.49	1736.68
722.67	1671.14
722.85	1716.20
723.03	1675.24
723.21	1636.33
723.40	1685.48
723.58	1755.11
723.76	1726.44
723.94	1804.26
724.12	1679.33
724.30	1759.21
724.49	1738.73
724.67	1613.80
724.85	1800.16
725.03	1630.18
725.21	1742.82
725.40	1710.05
725.58	1644.52
725.76	1810.40
725.94	1742.82
726.12	1730.53
726.30	1718.25
726.49	1724.39
726.67	1699.81
726.85	1742.82
727.03	1791.97
727.21	2152.42
727.39	2844.63
727.57	3778.50
727.76	4181.95
727.94	4493.24
728.12	4399.04
728.30	3706.82
728.48	3051.47
728.66	2791.38
728.84	2412.51
729.03	2314.20
729.21	2183.13
729.39	1988.58
729.57	1849.32
729.75	1820.64
729.93	1837.03
730.11	1757.16
730.30	1757.16
730.48	1683.43
730.66	1783.78
730.84	1728.49
731.02	1675.24
731.20	1689.57
731.38	1771.49
731.56	1681.38
731.74	1691.62
731.93	1810.40
732.11	1802.21
732.29	1722.34
732.47	1708.01
732.65	1755.11
732.83	1755.11
733.01	1757.16
733.19	1720.29
733.37	1759.21
733.56	1757.16
733.74	1648.61
733.92	1837.03
734.10	1691.62
734.28	1740.77
734.46	1603.56
734.64	1714.15
734.82	1691.62
735.00	1705.96
735.18	1699.81
735.36	1773.54
735.54	1732.58
735.73	1703.91
735.91	1726.44
736.09	1736.68
736.27	1705.96
736.45	1718.25
736.63	1710.05
736.81	1728.49
736.99	1732.58
737.17	1755.11
737.35	1714.15
737.53	1720.29
737.71	1705.96
737.89	1834.98
738.07	1662.95
738.25	1683.43
738.43	1583.08
738.61	1679.33
738.80	1644.52
738.98	1671.14
739.16	1697.77
739.34	1654.76
739.52	1757.16
739.70	1687.53
739.88	1744.87
740.06	1705.96
740.24	1673.19
740.42	1771.49
740.60	1640.42
740.78	1669.09
740.96	1650.66
741.14	1712.10
741.32	1703.91
741.50	1652.71
741.68	1820.64
741.86	1767.40
742.04	1624.04
742.22	1665.00
742.40	1648.61
742.58	1830.88
742.76	1619.94
742.94	1775.59
743.12	1626.09
743.30	1712.10
743.48	1757.16
743.66	1615.85
743.84	1783.78
744.02	1687.53
744.20	1703.91
744.38	1687.53
744.56	1701.86
744.74	1791.97
744.92	1767.40
745.10	1775.59
745.28	1732.58
745.46	1787.88
745.64	1744.87
745.82	1751.01
746.00	1794.02
746.18	1787.88
746.36	1669.09
746.54	1677.29
746.72	1730.53
746.90	1677.29
747.08	1699.81
747.26	1724.39
747.44	1724.39
747.62	1718.25
747.80	1755.11
747.98	1779.68
748.15	1705.96
748.33	1834.98
748.51	1621.99
748.69	1665.00
748.87	1728.49
749.05	1734.63
749.23	1656.81
749.41	1726.44
749.59	1712.10
749.77	1806.31
749.95	1726.44
750.13	1636.33
750.31	1726.44
750.49	1726.44
750.67	1703.91
750.85	1791.97
751.03	1742.82
751.20	1783.78
751.38	1642.47
751.56	1681.38
751.74	1734.63
751.92	1798.12
752.10	1652.71
752.28	1777.64
752.46	1697.77
752.64	1675.24
752.82	1701.86
753.00	1796.07
753.18	1652.71
753.35	1716.20
753.53	1712.10
753.71	1712.10
753.89	1742.82
754.07	1765.35
754.25	1837.03
754.43	1742.82
754.61	1671.14
754.79	1742.82
754.97	1609.70
755.14	1769.44
755.32	1570.79
755.50	1703.91
755.68	1718.25
755.86	1677.29
756.04	1773.54
756.22	1605.61
756.40	1732.58
756.57	1734.63
756.75	1652.71
756.93	1748.97
757.11	1800.16
757.29	1695.72
757.47	1689.57
757.65	1626.09
757.82	1671.14
758.00	1632.23
758.18	1722.34
758.36	1671.14
758.54	1710.05
758.72	1640.42
758.90	1751.01
759.07	1777.64
759.25	1699.81
759.43	1732.58
759.61	1638.38
759.79	2244.57
759.97	1730.53
760.15	1652.71
760.32	1697.77
760.50	1683.43
760.68	1771.49
760.86	1644.52
761.04	1757.16
761.22	1777.64
761.39	1714.15
761.57	1734.63
761.75	1683.43
761.93	1728.49
762.11	1693.67
762.28	1753.06
762.46	1583.08
762.64	1728.49
762.82	1621.99
763.00	1703.91
763.18	1851.36
763.35	1732.58
763.53	1765.35
763.71	1708.01
763.89	1789.92
764.07	1656.81
764.24	1697.77
764.42	1665.00
764.60	1703.91
764.78	1761.25
764.96	1769.44
765.13	1746.92
765.31	1708.01
765.49	1824.74
765.67	1658.85
765.84	1687.53
766.02	1775.59
766.20	1695.72
766.38	1705.96
766.56	1722.34
766.73	1724.39
766.91	1746.92
767.09	1705.96
767.27	1705.96
767.44	1701.86
767.62	1759.21
767.80	1695.72
767.98	1693.67
768.15	1632.23
768.33	1705.96
768.51	1744.87
768.69	1710.05
768.87	1703.91
769.04	1714.15
769.22	1769.44
769.40	1748.97
769.58	1916.90
769.75	1708.01
769.93	1812.45
770.11	1677.29
770.28	1724.39
770.46	1728.49
770.64	1746.92
770.82	1748.97
770.99	1720.29
771.17	1816.55
771.35	1656.81
771.53	1761.25
771.70	1699.81
771.88	1740.77
772.06	1726.44
772.23	1677.29
772.41	1714.15
772.59	1654.76
772.77	1683.43
772.94	1689.57
773.12	1783.78
773.30	1716.20
773.47	1755.11
773.65	1605.61
773.83	1794.02
774.01	1640.42
774.18	1636.33
774.36	1683.43
774.54	1632.23
774.71	1781.73
774.89	1660.90
775.07	1771.49
775.24	1660.90
775.42	1738.73
775.60	1875.94
775.78	1734.63
775.95	1679.33
776.13	1636.33
776.31	1617.90
776.48	1753.06
776.66	1722.34
776.84	1648.61
777.01	1722.34
777.19	1683.43
777.37	1685.48
777.54	1697.77
777.72	1898.47
777.90	1660.90
778.07	1685.48
778.25	1816.55
778.43	1771.49
778.60	1720.29
778.78	1748.97
778.96	1824.74
779.13	1667.05
779.31	1791.97
779.49	1660.90
779.66	1714.15
779.84	1718.25
780.01	1662.95
780.19	1617.90
780.37	1806.31
780.54	1808.36
780.72	1652.71
780.90	1679.33
781.07	1681.38
781.25	1769.44
781.43	1617.90
781.60	1718.25
781.78	1853.41
781.95	1658.85
782.13	1681.38
782.31	1638.38
782.48	1613.80
782.66	1730.53
782.83	1802.21
783.01	1671.14
783.19	1748.97
783.36	1607.66
783.54	1665.00
783.72	1740.77
783.89	1695.72
784.07	1632.23
784.24	1761.25
784.42	1789.92
784.60	1703.91
784.77	1730.53
784.95	1558.50
785.12	1701.86
785.30	1636.33
785.47	1673.19
785.65	1699.81
785.83	1662.95
786.00	1685.48
786.18	1693.67
786.35	1644.52
786.53	1669.09
786.71	1724.39
786.88	1703.91
787.06	1689.57
787.23	1689.57
787.41	1679.33
787.58	1691.62
787.76	1724.39
787.94	1732.58
788.11	1712.10
788.29	1687.53
788.46	1748.97
788.64	1673.19
788.81	1683.43
788.99	1638.38
789.16	1640.42
789.34	1751.01
789.52	1624.04
789.69	1722.34
789.87	1566.70
790.04	1683.43
790.22	1722.34
790.39	1800.16
790.57	1628.14
790.74	1740.77
790.92	1728.49
791.09	1638.38
791.27	1757.16
791.44	1781.73
791.62	1769.44
791.79	1730.53
791.97	1791.97
792.15	1918.95
792.32	1775.59
792.50	1771.49
792.67	1777.64
792.85	1789.92
793.02	1757.16
793.20	1738.73
793.37	1636.33
793.55	1767.40
793.72	1605.61
793.90	1728.49
794.07	1644.52
794.25	1634.28
794.42	1636.33
794.60	1695.72
794.77	1777.64
794.95	1791.97
795.12	1744.87
795.30	1755.11
795.47	1730.53
795.65	1888.23
795.82	1599.46
796.00	1581.03
796.17	1691.62
796.34	1712.10
796.52	1779.68
796.69	1757.16
796.87	1744.87
797.04	1689.57
797.22	1744.87
797.39	1783.78
797.57	1785.83
797.74	1726.44
797.92	1826.79
798.09	1703.91
798.27	1761.25
798.44	1705.96
798.62	1642.47
798.79	1689.57
798.96	1701.86
799.14	1685.48
799.31	1884.13
799.49	1654.76
799.66	1654.76
799.84	1736.68
800.01	1632.23
800.19	1791.97
800.36	1634.28
800.53	1806.31
800.71	1822.69
800.88	1812.45
801.06	1601.51
801.23	1687.53
801.41	1712.10
801.58	1718.25
801.75	1634.28
801.93	1697.77
802.10	1691.62
802.28	1738.73
802.45	1638.38
802.63	1738.73
802.80	1841.12
802.97	1665.00
803.15	1761.25
803.32	1746.92
803.50	1708.01
803.67	1607.66
803.84	1648.61
804.02	1757.16
804.19	1667.05
804.37	1615.85
804.54	1554.41
804.71	1628.14
804.89	1675.24
805.06	1740.77
805.24	1615.85
805.41	1699.81
805.58	1652.71
805.76	1884.13
805.93	1673.19
806.10	1779.68
806.28	1701.86
806.45	1710.05
806.63	1722.34
806.80	1763.30
806.97	1732.58
807.15	1677.29
807.32	1722.34
807.49	1755.11
807.67	1662.95
807.84	1839.08
808.01	1535.98
808.19	1830.88
808.36	1873.89
808.54	1683.43
808.71	1671.14
808.88	1673.19
809.06	1824.74
809.23	1789.92
809.40	1662.95
809.58	1697.77
809.75	1730.53
809.92	1576.94
810.10	1855.46
810.27	1716.20
810.44	1773.54
810.62	1728.49
810.79	1699.81
810.96	1646.57
811.14	1703.91
811.31	1765.35
811.48	1763.30
811.66	1681.38
811.83	1816.55
812.00	1695.72
812.18	1783.78
812.35	1742.82
812.52	1708.01
812.69	1699.81
812.87	1665.00
813.04	1609.70
813.21	1722.34
813.39	1660.90
813.56	1607.66
813.73	1789.92
813.91	1687.53
814.08	1728.49
814.25	1730.53
814.42	1611.75
814.60	1789.92
814.77	1806.31
814.94	1738.73
815.12	1656.81
815.29	1808.36
815.46	1708.01
815.63	1701.86
815.81	1783.78
815.98	1656.81
816.15	1695.72
816.33	1679.33
816.50	1705.96
816.67	1673.19
816.84	1708.01
817.02	1630.18
817.19	1697.77
817.36	1720.29
817.53	1705.96
817.71	1701.86
817.88	1820.64
818.05	1671.14
818.22	1751.01
818.40	1849.32
818.57	1726.44
818.74	1669.09
818.91	1693.67
819.09	1796.07
819.26	1775.59
819.43	1705.96
819.60	1650.66
819.78	1796.07
819.95	1753.06
820.12	1703.91
820.29	1779.68
820.47	1695.72
820.64	1662.95
820.81	1628.14
820.98	1624.04
821.15	1658.85
821.33	1789.92
821.50	1628.14
821.67	1787.88
821.84	1665.00
822.02	1726.44
822.19	1732.58
822.36	1648.61
822.53	1648.61
822.70	1718.25
822.88	1697.77
823.05	1738.73
823.22	1724.39
823.39	1757.16
823.56	1722.34
823.74	1806.31
823.91	1656.81
824.08	1697.77
824.25	1738.73
824.42	1728.49
824.60	1669.09
824.77	1736.68
824.94	1679.33
825.11	1724.39
825.28	1554.41
825.45	1712.10
825.63	1753.06
825.80	1611.75
825.97	1724.39
826.14	1693.67
826.31	1611.75
826.48	1734.63
826.66	1624.04
826.83	1677.29
827.00	1787.88
827.17	1697.77
827.34	1691.62
827.51	1685.48
827.69	1632.23
827.86	1681.38
828.03	1748.97
828.20	1710.05
828.37	1650.66
828.54	1789.92
828.71	1705.96
828.89	1800.16
829.06	1716.20
829.23	1773.54
829.40	1595.37
829.57	1648.61
829.74	1783.78
829.91	1716.20
830.09	1705.96
830.26	1708.01
830.43	1826.79
830.60	1693.67
830.77	1759.21
830.94	1740.77
831.11	1740.77
831.28	1673.19
831.46	1806.31
831.63	1654.76
831.80	1689.57
831.97	1624.04
832.14	1753.06
832.31	1736.68
832.48	1726.44
832.65	1808.36
832.82	1687.53
832.99	1808.36
833.17	1632.23
833.34	1779.68
833.51	1808.36
833.68	1654.76
833.85	1777.64
834.02	1671.14
834.19	1615.85
834.36	1648.61
834.53	1679.33
834.70	1722.34
834.87	1783.78
835.04	1673.19
835.22	1648.61
835.39	1728.49
835.56	1583.08
835.73	1759.21
835.90	1728.49
836.07	1634.28
836.24	1755.11
836.41	1619.94
836.58	1673.19
836.75	1732.58
836.92	1724.39
837.09	1636.33
837.26	1701.86
837.43	1675.24
837.60	1710.05
837.77	1632.23
837.94	1771.49
838.12	1767.40
838.29	1683.43
838.46	1597.42
838.63	1710.05
838.80	1773.54
838.97	1648.61
839.14	1681.38
839.31	1679.33
839.48	1708.01
839.65	1665.00
839.82	1712.10
839.99	1757.16
840.16	1746.92
840.33	1642.47
840.50	1720.29
840.67	1626.09
840.84	1626.09
841.01	1689.57
841.18	1665.00
841.35	1708.01
841.52	1746.92
841.69	1837.03
841.86	1736.68
842.03	1652.71
842.20	1746.92
842.37	1738.73
842.54	1636.33
842.71	1712.10
842.88	1597.42
843.05	1705.96
843.22	1691.62
843.39	1730.53
843.56	1677.29
843.73	1613.80
843.90	1703.91
844.07	1730.53
844.24	1765.35
844.41	1783.78
844.58	1687.53
844.75	1681.38
844.92	1685.48
845.09	1740.77
845.26	1699.81
845.43	1771.49
845.60	1689.57
845.77	1708.01
845.94	1675.24
846.10	1859.56
846.27	1615.85
846.44	1626.09
846.61	1669.09
846.78	1828.84
846.95	1771.49
847.12	1621.99
847.29	1671.14
847.46	1703.91
847.63	1714.15
847.80	1665.00
847.97	1683.43
848.14	1753.06
848.31	1732.58
848.48	1646.57
848.65	1757.16
848.82	1701.86
848.98	1824.74
849.15	1781.73
849.32	1746.92
849.49	1712.10
849.66	1677.29
849.83	1689.57
850.00	1652.71
850.17	1763.30
850.34	1693.67
850.51	1644.52
850.68	1701.86
850.85	1865.70
851.01	1689.57
851.18	1714.15
851.35	1714.15
851.52	1722.34
851.69	1734.63
851.86	1697.77
852.03	1701.86
852.20	1769.44
852.37	1705.96
852.53	1599.46
852.70	1685.48
852.87	1695.72
853.04	1779.68
853.21	1726.44
853.38	1773.54
853.55	1726.44
853.72	1732.58
853.89	1628.14
854.05	1716.20
854.22	1660.90
854.39	1718.25
854.56	1708.01
854.73	1849.32
854.90	1718.25
855.07	1652.71
855.23	1685.48
855.40	1701.86
855.57	1691.62
855.74	1652.71
855.91	1900.52
856.08	1665.00
856.25	1703.91
856.41	1638.38
856.58	1673.19
856.75	1710.05
856.92	1712.10
857.09	1781.73
857.26	1617.90
857.42	1683.43
857.59	1716.20
857.76	1742.82
857.93	1722.34
858.10	1740.77
858.27	1619.94
858.43	1710.05
858.60	1632.23
858.77	1583.08
858.94	1691.62
859.11	1771.49
859.27	1667.05
859.44	1746.92
859.61	1808.36
859.78	1728.49
859.95	1718.25
860.12	1722.34
860.28	1802.21
860.45	1787.88
860.62	1746.92
860.79	1773.54
860.95	1648.61
861.12	1656.81
861.29	1656.81
861.46	1716.20
861.63	1703.91
861.79	1718.25
861.96	1693.67
862.13	1724.39
862.30	1734.63
862.47	1724.39
862.63	1673.19
862.80	1824.74
862.97	1767.40
863.14	1673.19
863.30	1736.68
863.47	1644.52
863.64	1837.03
863.81	1771.49
863.97	1667.05
864.14	1724.39
864.31	1734.63
864.48	1753.06
864.65	1691.62
864.81	1796.07
864.98	1771.49
865.15	1761.25
865.32	1800.16
865.48	1796.07
865.65	1767.40
865.82	1687.53
865.98	1660.90
866.15	1744.87
866.32	1720.29
866.49	1648.61
866.65	1777.64
866.82	1617.90
866.99	1652.71
867.16	1689.57
867.32	1755.11
867.49	1667.05
867.66	1677.29
867.83	1650.66
867.99	1652.71
868.16	1699.81
868.33	1636.33
868.49	1689.57
868.66	1673.19
868.83	1791.97
868.99	1697.77
869.16	1701.86
869.33	1771.49
869.50	1724.39
869.66	1800.16
869.83	1685.48
870.00	1624.04
870.16	1757.16
870.33	1726.44
870.50	1748.97
870.66	1665.00
870.83	1855.46
871.00	1701.86
871.17	1771.49
871.33	1767.40
871.50	1720.29
871.67	1720.29
871.83	1714.15
872.00	1779.68
872.17	1718.25
872.33	1800.16
872.50	1781.73
872.67	1667.05
872.83	1691.62
873.00	1722.34
873.17	1677.29
873.33	1753.06
873.50	1765.35
873.67	1626.09
873.83	1714.15
874.00	1658.85
874.16	1769.44
874.33	1724.39
874.50	1624.04
874.66	1753.06
874.83	1710.05
875.00	1757.16
875.16	1798.12
875.33	1781.73
875.50	1640.42
875.66	1705.96
875.83	1632.23
875.99	1767.40
876.16	1626.09
876.33	1740.77
876.49	1667.05
876.66	1789.92
876.83	1679.33
876.99	1587.18
877.16	1667.05
877.32	1751.01
877.49	1722.34
877.66	1771.49
877.82	1810.40
877.99	1685.48
878.15	1744.87
878.32	1695.72
878.49	1710.05
878.65	1665.00
878.82	1779.68
878.98	1683.43
879.15	1779.68
879.32	1785.83
879.48	1714.15
879.65	1697.77
879.81	1693.67
879.98	1650.66
880.15	1726.44
880.31	1767.40
880.48	1660.90
880.64	1761.25
880.81	1771.49
880.97	1800.16
881.14	1834.98
881.31	1656.81
881.47	1865.70
881.64	1693.67
881.80	1632.23
881.97	1648.61
882.13	1691.62
882.30	1652.71
882.47	1695.72
882.63	1650.66
882.80	1685.48
882.96	1701.86
883.13	1738.73
883.29	1636.33
883.46	1675.24
883.62	1728.49
883.79	1681.38
883.95	1679.33
884.12	1724.39
884.29	1697.77
884.45	1679.33
884.62	1765.35
884.78	1609.70
884.95	1816.55
885.11	1636.33
885.28	1742.82
885.44	1660.90
885.61	1748.97
885.77	1755.11
885.94	1783.78
886.10	1679.33
886.27	1734.63
886.43	1783.78
886.60	1820.64
886.76	1673.19
886.93	1763.30
887.09	1724.39
887.26	1570.79
887.42	1673.19
887.59	1804.26
887.75	1755.11
887.92	1798.12
888.08	1708.01
888.25	1789.92
888.41	1734.63
888.58	1753.06
888.74	1652.71
888.91	1646.57
>>>>>End Processed Spectral Data<<<<<
