SpectraSuite Data File
++++++++++++++++++++++++++++++++++++
Date: Mon Jun 06 13:43:57 CEST 2016
User: root
Dark Spectrum Present: No
Reference Spectrum Present: No
Number of Sampled Component Spectra: 1
Spectrometers: USB4C02835
Integration Time (usec): 100000 (USB4C02835)
Spectra Averaged: 1 (USB4C02835)
Boxcar Smoothing: 0 (USB4C02835)
Correct for Electrical Dark: No (USB4C02835)
Strobe/Lamp Enabled: No (USB4C02835)
Correct for Detector Non-linearity: No (USB4C02835)
Correct for Stray Light: No (USB4C02835)
Number of Pixels in Processed Spectrum: 3648
>>>>>Begin Processed Spectral Data<<<<<
177.47	1505.26
177.69	1505.26
177.91	1505.26
178.13	1437.67
178.36	1423.34
178.58	1697.77
178.80	1736.68
179.02	1634.28
179.24	1597.42
179.46	1652.71
179.68	1769.44
179.90	1703.91
180.13	1689.57
180.35	1634.28
180.57	1679.33
180.79	1759.21
181.01	1705.96
181.23	1724.39
181.45	1763.30
181.67	1728.49
181.90	1732.58
182.12	1656.81
182.34	1628.14
182.56	1642.47
182.78	1763.30
183.00	1720.29
183.22	1736.68
183.44	1576.94
183.66	1814.50
183.89	1796.07
184.11	1646.57
184.33	1710.05
184.55	1779.68
184.77	1701.86
184.99	1673.19
185.21	1695.72
185.43	1873.89
185.65	1671.14
185.87	1767.40
186.10	1828.84
186.32	1804.26
186.54	1689.57
186.76	1685.48
186.98	1773.54
187.20	1646.57
187.42	1669.09
187.64	1718.25
187.86	1714.15
188.08	1751.01
188.30	1724.39
188.52	1724.39
188.75	1804.26
188.97	1773.54
189.19	1673.19
189.41	1697.77
189.63	1808.36
189.85	1677.29
190.07	1669.09
190.29	1673.19
190.51	1693.67
190.73	1554.41
190.95	1837.03
191.17	1699.81
191.39	1568.74
191.61	1730.53
191.84	1630.18
192.06	1695.72
192.28	1615.85
192.50	1863.65
192.72	1697.77
192.94	1720.29
193.16	1753.06
193.38	1816.55
193.60	1634.28
193.82	1650.66
194.04	1742.82
194.26	1687.53
194.48	1656.81
194.70	1650.66
194.92	1644.52
195.14	1744.87
195.36	1597.42
195.58	1673.19
195.80	1683.43
196.02	1669.09
196.24	1669.09
196.46	1695.72
196.69	1648.61
196.91	1806.31
197.13	1740.77
197.35	1632.23
197.57	1789.92
197.79	1662.95
198.01	1656.81
198.23	1755.11
198.45	1695.72
198.67	1689.57
198.89	1613.80
199.11	1691.62
199.33	1642.47
199.55	1548.26
199.77	1714.15
199.99	1759.21
200.21	1646.57
200.43	1699.81
200.65	1628.14
200.87	1583.08
201.09	1689.57
201.31	1720.29
201.53	1742.82
201.75	1757.16
201.97	1722.34
202.19	1685.48
202.41	1714.15
202.63	1826.79
202.85	1730.53
203.07	1714.15
203.29	1667.05
203.51	1624.04
203.73	1599.46
203.95	1855.46
204.17	1695.72
204.39	1783.78
204.61	1705.96
204.83	1636.33
205.05	1738.73
205.27	1742.82
205.49	1853.41
205.71	1697.77
205.93	1673.19
206.15	1677.29
206.37	1720.29
206.59	1732.58
206.81	1583.08
207.03	1615.85
207.25	1601.51
207.47	1679.33
207.69	1722.34
207.91	1765.35
208.13	1705.96
208.34	1658.85
208.56	1685.48
208.78	1732.58
209.00	1662.95
209.22	1617.90
209.44	1644.52
209.66	1687.53
209.88	1677.29
210.10	1644.52
210.32	1677.29
210.54	1732.58
210.76	1679.33
210.98	1759.21
211.20	1560.55
211.42	1681.38
211.64	1783.78
211.86	1632.23
212.08	1808.36
212.30	1771.49
212.52	1667.05
212.74	1691.62
212.96	1646.57
213.17	1783.78
213.39	1742.82
213.61	1773.54
213.83	1693.67
214.05	1699.81
214.27	1744.87
214.49	1607.66
214.71	1658.85
214.93	1804.26
215.15	1697.77
215.37	1681.38
215.59	1656.81
215.81	1726.44
216.03	1761.25
216.24	1691.62
216.46	1691.62
216.68	1697.77
216.90	1759.21
217.12	1714.15
217.34	1701.86
217.56	1728.49
217.78	1804.26
218.00	1755.11
218.22	1662.95
218.44	1683.43
218.66	1703.91
218.87	1796.07
219.09	1687.53
219.31	1730.53
219.53	1669.09
219.75	1658.85
219.97	1673.19
220.19	1675.24
220.41	1624.04
220.63	1681.38
220.85	1779.68
221.06	1656.81
221.28	1697.77
221.50	1759.21
221.72	1708.01
221.94	1697.77
222.16	1728.49
222.38	1705.96
222.60	1722.34
222.82	1671.14
223.03	1779.68
223.25	1665.00
223.47	1658.85
223.69	1875.94
223.91	1718.25
224.13	1675.24
224.35	1677.29
224.57	1738.73
224.78	1783.78
225.00	1693.67
225.22	1759.21
225.44	1624.04
225.66	1722.34
225.88	1630.18
226.10	1796.07
226.32	1611.75
226.53	1738.73
226.75	1671.14
226.97	1712.10
227.19	1722.34
227.41	1699.81
227.63	1693.67
227.85	1681.38
228.06	1632.23
228.28	1701.86
228.50	1681.38
228.72	1687.53
228.94	1689.57
229.16	1605.61
229.37	1581.03
229.59	1646.57
229.81	1720.29
230.03	1640.42
230.25	1654.76
230.47	1624.04
230.69	1644.52
230.90	1708.01
231.12	1642.47
231.34	1697.77
231.56	1753.06
231.78	1654.76
232.00	1615.85
232.21	1732.58
232.43	1697.77
232.65	1542.12
232.87	1734.63
233.09	1667.05
233.30	1673.19
233.52	1748.97
233.74	1734.63
233.96	1642.47
234.18	1669.09
234.40	1722.34
234.61	1804.26
234.83	1624.04
235.05	1675.24
235.27	1812.45
235.49	1785.83
235.70	1652.71
235.92	1785.83
236.14	1740.77
236.36	1828.84
236.58	1595.37
236.79	1748.97
237.01	1677.29
237.23	1677.29
237.45	1818.60
237.67	1683.43
237.88	1699.81
238.10	1738.73
238.32	1658.85
238.54	1714.15
238.76	1789.92
238.97	1632.23
239.19	1617.90
239.41	1834.98
239.63	1697.77
239.85	1648.61
240.06	1705.96
240.28	1738.73
240.50	1771.49
240.72	1591.27
240.93	1742.82
241.15	1798.12
241.37	1677.29
241.59	1796.07
241.81	1689.57
242.02	1624.04
242.24	1777.64
242.46	1767.40
242.68	1671.14
242.89	1652.71
243.11	1730.53
243.33	1730.53
243.55	1742.82
243.76	1746.92
243.98	1689.57
244.20	1671.14
244.42	1673.19
244.64	1662.95
244.85	1650.66
245.07	1613.80
245.29	1716.20
245.51	1757.16
245.72	1697.77
245.94	1734.63
246.16	1705.96
246.38	1708.01
246.59	1654.76
246.81	1705.96
247.03	1705.96
247.24	1626.09
247.46	1640.42
247.68	1685.48
247.90	1652.71
248.11	1658.85
248.33	1722.34
248.55	1648.61
248.77	1687.53
248.98	1720.29
249.20	1810.40
249.42	1601.51
249.64	1705.96
249.85	1656.81
250.07	1650.66
250.29	1783.78
250.50	1742.82
250.72	1624.04
250.94	1728.49
251.16	1812.45
251.37	1824.74
251.59	1781.73
251.81	1759.21
252.02	1810.40
252.24	1677.29
252.46	1744.87
252.68	1650.66
252.89	1652.71
253.11	1634.28
253.33	1796.07
253.54	1781.73
253.76	1640.42
253.98	1697.77
254.20	1677.29
254.41	1634.28
254.63	1675.24
254.85	1599.46
255.06	1681.38
255.28	1701.86
255.50	1646.57
255.71	1724.39
255.93	1591.27
256.15	1720.29
256.36	1708.01
256.58	1669.09
256.80	1642.47
257.02	1650.66
257.23	1685.48
257.45	1677.29
257.67	1744.87
257.88	1689.57
258.10	1677.29
258.32	1730.53
258.53	1703.91
258.75	1691.62
258.97	1669.09
259.18	1669.09
259.40	1669.09
259.62	1832.93
259.83	1796.07
260.05	1753.06
260.27	2000.87
260.48	1712.10
260.70	1630.18
260.92	1681.38
261.13	1705.96
261.35	1695.72
261.57	1650.66
261.78	1578.98
262.00	1648.61
262.22	1738.73
262.43	1658.85
262.65	1726.44
262.86	1703.91
263.08	1820.64
263.30	1632.23
263.51	1665.00
263.73	1681.38
263.95	1820.64
264.16	1568.74
264.38	1755.11
264.60	1710.05
264.81	1656.81
265.03	1681.38
265.25	1740.77
265.46	1705.96
265.68	1767.40
265.89	1748.97
266.11	1656.81
266.33	1753.06
266.54	1812.45
266.76	1718.25
266.98	1820.64
267.19	1812.45
267.41	1812.45
267.62	1734.63
267.84	1640.42
268.06	1716.20
268.27	1753.06
268.49	1785.83
268.70	1720.29
268.92	1693.67
269.14	1628.14
269.35	1581.03
269.57	1665.00
269.79	1742.82
270.00	1681.38
270.22	1763.30
270.43	1587.18
270.65	1591.27
270.87	1667.05
271.08	1708.01
271.30	1710.05
271.51	1728.49
271.73	1703.91
271.95	1759.21
272.16	1761.25
272.38	1730.53
272.59	1648.61
272.81	1656.81
273.02	1705.96
273.24	1701.86
273.46	1849.32
273.67	1765.35
273.89	1660.90
274.10	1695.72
274.32	1820.64
274.54	1738.73
274.75	1677.29
274.97	1693.67
275.18	1789.92
275.40	1714.15
275.61	1624.04
275.83	1691.62
276.05	1648.61
276.26	1691.62
276.48	1781.73
276.69	1617.90
276.91	1697.77
277.12	1826.79
277.34	1710.05
277.55	1757.16
277.77	1679.33
277.99	1685.48
278.20	1591.27
278.42	1652.71
278.63	1611.75
278.85	1642.47
279.06	1669.09
279.28	1789.92
279.49	1763.30
279.71	1800.16
279.93	1728.49
280.14	1734.63
280.36	1675.24
280.57	1755.11
280.79	1794.02
281.00	1632.23
281.22	1689.57
281.43	1726.44
281.65	1681.38
281.86	1660.90
282.08	1671.14
282.29	1787.88
282.51	1691.62
282.73	1656.81
282.94	1679.33
283.16	1757.16
283.37	1755.11
283.59	1710.05
283.80	1736.68
284.02	1658.85
284.23	1732.58
284.45	1681.38
284.66	1558.50
284.88	1685.48
285.09	1691.62
285.31	1789.92
285.52	1697.77
285.74	1605.61
285.95	1722.34
286.17	1710.05
286.38	1697.77
286.60	1667.05
286.81	1656.81
287.03	1656.81
287.24	1720.29
287.46	1771.49
287.67	1767.40
287.89	1841.12
288.10	1718.25
288.32	1699.81
288.53	1742.82
288.75	1679.33
288.96	1708.01
289.18	1667.05
289.39	1738.73
289.61	1882.08
289.82	1912.80
290.04	1781.73
290.25	1638.38
290.47	1744.87
290.68	1732.58
290.90	1798.12
291.11	1597.42
291.33	1740.77
291.54	1669.09
291.76	1697.77
291.97	1689.57
292.18	1726.44
292.40	1712.10
292.61	1675.24
292.83	1867.75
293.04	1791.97
293.26	1652.71
293.47	1691.62
293.69	1558.50
293.90	1718.25
294.12	1824.74
294.33	1697.77
294.55	1746.92
294.76	1820.64
294.97	1746.92
295.19	1814.50
295.40	1689.57
295.62	1759.21
295.83	1689.57
296.05	1654.76
296.26	1720.29
296.48	1695.72
296.69	1695.72
296.90	1728.49
297.12	1853.41
297.33	1773.54
297.55	1746.92
297.76	1746.92
297.98	1822.69
298.19	1662.95
298.41	1693.67
298.62	1624.04
298.83	1740.77
299.05	1685.48
299.26	1687.53
299.48	1681.38
299.69	1648.61
299.90	1662.95
300.12	1636.33
300.33	1738.73
300.55	1726.44
300.76	1722.34
300.98	1705.96
301.19	1740.77
301.40	1624.04
301.62	1708.01
301.83	1714.15
302.05	1656.81
302.26	1742.82
302.47	1759.21
302.69	1644.52
302.90	1656.81
303.12	1546.22
303.33	1685.48
303.54	1796.07
303.76	1722.34
303.97	1671.14
304.19	1765.35
304.40	1751.01
304.61	1699.81
304.83	1861.60
305.04	1783.78
305.26	1732.58
305.47	1646.57
305.68	1675.24
305.90	1656.81
306.11	1769.44
306.33	1728.49
306.54	1689.57
306.75	1671.14
306.97	1630.18
307.18	1617.90
307.39	1634.28
307.61	1740.77
307.82	1652.71
308.04	1800.16
308.25	1660.90
308.46	1660.90
308.68	1685.48
308.89	1716.20
309.10	1812.45
309.32	1691.62
309.53	1718.25
309.74	1767.40
309.96	1667.05
310.17	1697.77
310.39	1566.70
310.60	1769.44
310.81	1738.73
311.03	1626.09
311.24	1718.25
311.45	1757.16
311.67	1845.22
311.88	1708.01
312.09	1650.66
312.31	1687.53
312.52	1640.42
312.73	1708.01
312.95	1699.81
313.16	1689.57
313.37	1796.07
313.59	1794.02
313.80	1740.77
314.01	1703.91
314.23	1648.61
314.44	1687.53
314.65	1605.61
314.87	1667.05
315.08	1656.81
315.29	1751.01
315.51	1665.00
315.72	1624.04
315.93	1740.77
316.15	1765.35
316.36	1656.81
316.57	1691.62
316.79	1679.33
317.00	1718.25
317.21	1683.43
317.43	1660.90
317.64	1699.81
317.85	1705.96
318.07	1710.05
318.28	1738.73
318.49	1761.25
318.70	1898.47
318.92	1873.89
319.13	1826.79
319.34	1834.98
319.56	1789.92
319.77	1771.49
319.98	1722.34
320.20	1806.31
320.41	1710.05
320.62	1777.64
320.83	1673.19
321.05	1816.55
321.26	1679.33
321.47	1667.05
321.69	1798.12
321.90	1638.38
322.11	1683.43
322.32	1763.30
322.54	1748.97
322.75	1710.05
322.96	1832.93
323.18	1685.48
323.39	1648.61
323.60	1669.09
323.81	1734.63
324.03	1640.42
324.24	1701.86
324.45	1738.73
324.66	1699.81
324.88	1755.11
325.09	1763.30
325.30	1722.34
325.52	1624.04
325.73	1679.33
325.94	1703.91
326.15	1630.18
326.37	1628.14
326.58	1736.68
326.79	1746.92
327.00	1630.18
327.22	1718.25
327.43	1714.15
327.64	1566.70
327.85	1751.01
328.07	1656.81
328.28	1912.80
328.49	1695.72
328.70	1677.29
328.92	1640.42
329.13	1648.61
329.34	1753.06
329.55	1783.78
329.76	1738.73
329.98	1656.81
330.19	1785.83
330.40	1699.81
330.61	1718.25
330.83	1785.83
331.04	1669.09
331.25	1656.81
331.46	1681.38
331.68	1697.77
331.89	1800.16
332.10	1626.09
332.31	1689.57
332.52	1703.91
332.74	1783.78
332.95	1576.94
333.16	1685.48
333.37	1759.21
333.58	1677.29
333.80	1722.34
334.01	1570.79
334.22	1683.43
334.43	1673.19
334.64	1742.82
334.86	1560.55
335.07	1742.82
335.28	1712.10
335.49	1646.57
335.70	1755.11
335.92	1712.10
336.13	1884.13
336.34	1654.76
336.55	1751.01
336.76	1722.34
336.98	1564.65
337.19	1753.06
337.40	1775.59
337.61	1865.70
337.82	1685.48
338.04	1718.25
338.25	1611.75
338.46	1599.46
338.67	1710.05
338.88	1669.09
339.09	1640.42
339.31	1648.61
339.52	1578.98
339.73	1611.75
339.94	1730.53
340.15	1732.58
340.36	1693.67
340.58	1689.57
340.79	1685.48
341.00	1673.19
341.21	1642.47
341.42	1791.97
341.63	1673.19
341.85	1722.34
342.06	1648.61
342.27	1671.14
342.48	1703.91
342.69	1699.81
342.90	1667.05
343.12	1720.29
343.33	1673.19
343.54	1677.29
343.75	1769.44
343.96	1566.70
344.17	1632.23
344.38	1732.58
344.60	1636.33
344.81	1595.37
345.02	1660.90
345.23	1773.54
345.44	1820.64
345.65	1746.92
345.86	1714.15
346.07	1699.81
346.29	1705.96
346.50	1755.11
346.71	1736.68
346.92	1726.44
347.13	1787.88
347.34	1722.34
347.55	1626.09
347.76	1683.43
347.98	1628.14
348.19	1685.48
348.40	1773.54
348.61	1683.43
348.82	1789.92
349.03	1751.01
349.24	1646.57
349.45	1845.22
349.66	1515.50
349.88	1611.75
350.09	1687.53
350.30	1716.20
350.51	1767.40
350.72	1675.24
350.93	1720.29
351.14	1581.03
351.35	1669.09
351.56	1648.61
351.77	1701.86
351.99	1683.43
352.20	1810.40
352.41	1763.30
352.62	1603.56
352.83	1671.14
353.04	1716.20
353.25	1648.61
353.46	1789.92
353.67	1685.48
353.88	1611.75
354.09	1753.06
354.30	1652.71
354.52	1677.29
354.73	1705.96
354.94	1638.38
355.15	1681.38
355.36	1779.68
355.57	1697.77
355.78	1734.63
355.99	1730.53
356.20	1708.01
356.41	1748.97
356.62	1716.20
356.83	1660.90
357.04	1740.77
357.25	1587.18
357.46	1687.53
357.68	1624.04
357.89	1656.81
358.10	1724.39
358.31	1738.73
358.52	1644.52
358.73	1687.53
358.94	1587.18
359.15	1638.38
359.36	1685.48
359.57	1722.34
359.78	1624.04
359.99	1732.58
360.20	1615.85
360.41	1673.19
360.62	1667.05
360.83	1728.49
361.04	1638.38
361.25	1691.62
361.46	1847.27
361.67	1765.35
361.88	1740.77
362.09	1828.84
362.30	1742.82
362.51	1671.14
362.72	1748.97
362.93	1724.39
363.14	1652.71
363.35	1812.45
363.56	1654.76
363.78	1710.05
363.99	1837.03
364.20	1613.80
364.41	1761.25
364.62	1757.16
364.83	1654.76
365.04	1697.77
365.25	1738.73
365.46	1824.74
365.67	1603.56
365.88	1726.44
366.09	1669.09
366.30	1660.90
366.51	1701.86
366.72	1658.85
366.93	1720.29
367.14	1689.57
367.35	1796.07
367.56	1654.76
367.77	1777.64
367.98	1656.81
368.18	1742.82
368.39	1746.92
368.60	1640.42
368.81	1759.21
369.02	1720.29
369.23	1615.85
369.44	1650.66
369.65	1718.25
369.86	1716.20
370.07	1734.63
370.28	1634.28
370.49	1767.40
370.70	1716.20
370.91	1673.19
371.12	1660.90
371.33	1708.01
371.54	1595.37
371.75	1767.40
371.96	1632.23
372.17	1757.16
372.38	1640.42
372.59	1810.40
372.80	1626.09
373.01	1679.33
373.22	1714.15
373.43	1701.86
373.64	1677.29
373.85	1783.78
374.06	1794.02
374.26	1726.44
374.47	1740.77
374.68	1837.03
374.89	1708.01
375.10	1724.39
375.31	1820.64
375.52	1697.77
375.73	1699.81
375.94	1677.29
376.15	1837.03
376.36	1701.86
376.57	1763.30
376.78	1660.90
376.99	1646.57
377.20	1800.16
377.40	1687.53
377.61	1822.69
377.82	1658.85
378.03	1738.73
378.24	1716.20
378.45	1669.09
378.66	1679.33
378.87	1572.84
379.08	1673.19
379.29	1716.20
379.50	1843.17
379.71	1667.05
379.91	1755.11
380.12	1720.29
380.33	1697.77
380.54	1654.76
380.75	1763.30
380.96	1714.15
381.17	1734.63
381.38	1722.34
381.59	1751.01
381.80	1726.44
382.00	1773.54
382.21	1757.16
382.42	1888.23
382.63	1972.19
382.84	1740.77
383.05	1804.26
383.26	1783.78
383.47	1683.43
383.68	1779.68
383.88	1796.07
384.09	1802.21
384.30	1791.97
384.51	1783.78
384.72	1800.16
384.93	1665.00
385.14	1658.85
385.35	1714.15
385.55	1669.09
385.76	1724.39
385.97	1671.14
386.18	1656.81
386.39	1669.09
386.60	1648.61
386.81	1748.97
387.02	1730.53
387.22	1632.23
387.43	1751.01
387.64	1748.97
387.85	1937.38
388.06	2230.24
388.27	4290.49
388.48	6811.54
388.68	8312.71
388.89	9598.83
389.10	10020.71
389.31	8556.41
389.52	7487.37
389.73	6633.37
389.93	6162.34
390.14	6004.64
390.35	5240.75
390.56	4585.40
390.77	3790.79
390.98	3057.62
391.18	2488.28
391.39	2041.82
391.60	1804.26
391.81	1814.50
392.02	1722.34
392.23	1839.08
392.43	1812.45
392.64	1783.78
392.85	1642.47
393.06	1771.49
393.27	1673.19
393.47	1671.14
393.68	1714.15
393.89	1720.29
394.10	1787.88
394.31	1630.18
394.52	1636.33
394.72	1626.09
394.93	1773.54
395.14	1675.24
395.35	1671.14
395.56	1689.57
395.76	1746.92
395.97	1746.92
396.18	1834.98
396.39	1939.43
396.60	2062.30
396.80	1894.37
397.01	1880.04
397.22	1851.36
397.43	1900.52
397.64	1726.44
397.84	1843.17
398.05	1828.84
398.26	1777.64
398.47	1785.83
398.67	1773.54
398.88	1759.21
399.09	1763.30
399.30	1683.43
399.51	1783.78
399.71	1611.75
399.92	1710.05
400.13	1710.05
400.34	1728.49
400.54	1757.16
400.75	1837.03
400.96	1681.38
401.17	1830.88
401.37	1716.20
401.58	1681.38
401.79	1644.52
402.00	1910.75
402.21	1992.67
402.41	1931.23
402.62	1980.39
402.83	2035.68
403.04	1912.80
403.24	2060.26
403.45	1808.36
403.66	1820.64
403.87	1853.41
404.07	1914.85
404.28	1912.80
404.49	1929.19
404.70	1802.21
404.90	1742.82
405.11	1783.78
405.32	1787.88
405.52	1691.62
405.73	1734.63
405.94	1679.33
406.15	1701.86
406.35	1767.40
406.56	1777.64
406.77	1722.34
406.98	1638.38
407.18	1667.05
407.39	1697.77
407.60	1724.39
407.80	1722.34
408.01	1654.76
408.22	1738.73
408.43	1685.48
408.63	1734.63
408.84	1773.54
409.05	1738.73
409.25	1640.42
409.46	1689.57
409.67	1679.33
409.88	1630.18
410.08	1730.53
410.29	1748.97
410.50	1804.26
410.70	1718.25
410.91	1638.38
411.12	1759.21
411.32	1718.25
411.53	1720.29
411.74	1812.45
411.95	1759.21
412.15	1773.54
412.36	1783.78
412.57	1738.73
412.77	1816.55
412.98	1755.11
413.19	1712.10
413.39	1712.10
413.60	1722.34
413.81	1794.02
414.01	1683.43
414.22	1734.63
414.43	1656.81
414.63	1740.77
414.84	1777.64
415.05	1742.82
415.25	1624.04
415.46	1685.48
415.67	1683.43
415.87	1742.82
416.08	1748.97
416.29	1734.63
416.49	1732.58
416.70	1683.43
416.91	1689.57
417.11	1665.00
417.32	1775.59
417.53	1759.21
417.73	1687.53
417.94	1705.96
418.15	1673.19
418.35	1777.64
418.56	1654.76
418.77	1865.70
418.97	1665.00
419.18	1632.23
419.38	1642.47
419.59	1687.53
419.80	1806.31
420.00	1671.14
420.21	1802.21
420.42	1710.05
420.62	1718.25
420.83	1662.95
421.04	1693.67
421.24	1673.19
421.45	1730.53
421.65	1728.49
421.86	1613.80
422.07	1714.15
422.27	1708.01
422.48	1660.90
422.69	1687.53
422.89	1693.67
423.10	1699.81
423.30	1617.90
423.51	1742.82
423.72	1714.15
423.92	1787.88
424.13	1689.57
424.33	1755.11
424.54	1679.33
424.75	1703.91
424.95	1849.32
425.16	1718.25
425.36	1699.81
425.57	1685.48
425.78	1773.54
425.98	1751.01
426.19	1667.05
426.39	1660.90
426.60	1693.67
426.81	1818.60
427.01	1828.84
427.22	1660.90
427.42	1689.57
427.63	1615.85
427.83	1791.97
428.04	1738.73
428.25	1884.13
428.45	1834.98
428.66	1755.11
428.86	1712.10
429.07	1679.33
429.28	1814.50
429.48	1783.78
429.69	1671.14
429.89	1671.14
430.10	1683.43
430.30	1710.05
430.51	1777.64
430.71	1677.29
430.92	1683.43
431.13	1591.27
431.33	1742.82
431.54	1708.01
431.74	1718.25
431.95	1818.60
432.15	1687.53
432.36	1751.01
432.56	1734.63
432.77	1849.32
432.98	1845.22
433.18	1787.88
433.39	1708.01
433.59	1667.05
433.80	1751.01
434.00	1877.99
434.21	1667.05
434.41	1658.85
434.62	1755.11
434.82	1603.56
435.03	1677.29
435.23	1734.63
435.44	1597.42
435.64	1712.10
435.85	1671.14
436.06	1714.15
436.26	1853.41
436.47	1722.34
436.67	1675.24
436.88	1665.00
437.08	1755.11
437.29	1773.54
437.49	1787.88
437.70	1828.84
437.90	1720.29
438.11	1857.51
438.31	1865.70
438.52	1923.04
438.72	1751.01
438.93	1859.56
439.13	1753.06
439.34	1816.55
439.54	1738.73
439.75	1761.25
439.95	1787.88
440.16	1630.18
440.36	1746.92
440.57	1705.96
440.77	1708.01
440.98	1777.64
441.18	1681.38
441.39	1669.09
441.59	1673.19
441.80	1855.46
442.00	1648.61
442.21	1816.55
442.41	1603.56
442.62	1800.16
442.82	1617.90
443.02	1705.96
443.23	1738.73
443.43	1722.34
443.64	1812.45
443.84	1761.25
444.05	1861.60
444.25	1759.21
444.46	1701.86
444.66	1669.09
444.87	1837.03
445.07	1626.09
445.28	1765.35
445.48	1798.12
445.69	1701.86
445.89	1826.79
446.09	1722.34
446.30	1931.23
446.50	2627.54
446.71	3604.42
446.91	4313.02
447.12	4759.48
447.32	4784.06
447.53	4267.97
447.73	3913.67
447.93	3495.88
448.14	3291.09
448.34	3096.53
448.55	2949.08
448.75	2815.96
448.96	2619.35
449.16	2385.88
449.36	2271.20
449.57	2127.84
449.77	1894.37
449.98	1861.60
450.18	1837.03
450.39	1820.64
450.59	1761.25
450.79	1679.33
451.00	1730.53
451.20	1794.02
451.41	1693.67
451.61	1726.44
451.81	1748.97
452.02	1744.87
452.22	1634.28
452.43	1816.55
452.63	1705.96
452.84	1734.63
453.04	1705.96
453.24	1824.74
453.45	1693.67
453.65	1699.81
453.86	1765.35
454.06	1746.92
454.26	1710.05
454.47	1683.43
454.67	1818.60
454.87	1734.63
455.08	1740.77
455.28	1863.65
455.49	1689.57
455.69	1718.25
455.89	1890.28
456.10	1847.27
456.30	1732.58
456.51	1773.54
456.71	1714.15
456.91	1728.49
457.12	1673.19
457.32	1710.05
457.52	1710.05
457.73	1812.45
457.93	1742.82
458.14	1677.29
458.34	1642.47
458.54	1796.07
458.75	1675.24
458.95	1759.21
459.15	1757.16
459.36	1728.49
459.56	1798.12
459.76	1865.70
459.97	1710.05
460.17	1787.88
460.37	1810.40
460.58	1712.10
460.78	1714.15
460.99	1697.77
461.19	1626.09
461.39	1734.63
461.60	1681.38
461.80	1724.39
462.00	1683.43
462.21	1724.39
462.41	1732.58
462.61	1697.77
462.82	1662.95
463.02	1738.73
463.22	1681.38
463.43	1767.40
463.63	1732.58
463.83	1800.16
464.04	1791.97
464.24	1718.25
464.44	1646.57
464.64	1740.77
464.85	1687.53
465.05	1705.96
465.25	1740.77
465.46	1626.09
465.66	1734.63
465.86	1710.05
466.07	1736.68
466.27	1767.40
466.47	1583.08
466.68	1638.38
466.88	1761.25
467.08	1738.73
467.29	1769.44
467.49	1724.39
467.69	1687.53
467.89	1751.01
468.10	1685.48
468.30	1755.11
468.50	1820.64
468.71	1777.64
468.91	1689.57
469.11	1777.64
469.31	1726.44
469.52	1669.09
469.72	1880.04
469.92	1859.56
470.13	1689.57
470.33	1722.34
470.53	1771.49
470.73	2176.99
470.94	2297.82
471.14	2379.74
471.34	2428.89
471.54	2437.08
471.75	2246.62
471.95	2181.09
472.15	2107.36
472.36	2158.56
472.56	2117.60
472.76	2078.69
472.96	1982.43
473.17	1982.43
473.37	1918.95
473.57	1826.79
473.77	1781.73
473.98	1800.16
474.18	1740.77
474.38	1894.37
474.58	1687.53
474.79	1699.81
474.99	1720.29
475.19	1777.64
475.39	1689.57
475.60	1736.68
475.80	1720.29
476.00	1767.40
476.20	1648.61
476.41	1757.16
476.61	1824.74
476.81	1804.26
477.01	1724.39
477.21	1796.07
477.42	1789.92
477.62	1697.77
477.82	1841.12
478.02	1636.33
478.23	1703.91
478.43	1693.67
478.63	1738.73
478.83	1755.11
479.03	1642.47
479.24	1728.49
479.44	1808.36
479.64	1693.67
479.84	1574.89
480.04	1679.33
480.25	1732.58
480.45	1671.14
480.65	1699.81
480.85	1830.88
481.06	1621.99
481.26	1699.81
481.46	1769.44
481.66	1759.21
481.86	1650.66
482.06	1814.50
482.27	1771.49
482.47	1724.39
482.67	1779.68
482.87	1681.38
483.07	1777.64
483.28	1759.21
483.48	1671.14
483.68	1689.57
483.88	1689.57
484.08	1640.42
484.29	1673.19
484.49	1683.43
484.69	1656.81
484.89	1837.03
485.09	1765.35
485.29	1734.63
485.50	1761.25
485.70	1605.61
485.90	1775.59
486.10	1773.54
486.30	1771.49
486.50	1806.31
486.71	1734.63
486.91	1755.11
487.11	1769.44
487.31	1628.14
487.51	1732.58
487.71	1699.81
487.91	1605.61
488.12	1759.21
488.32	1552.36
488.52	1626.09
488.72	1632.23
488.92	1732.58
489.12	1738.73
489.32	1794.02
489.53	1710.05
489.73	1716.20
489.93	1691.62
490.13	1720.29
490.33	1597.42
490.53	1820.64
490.73	1726.44
490.94	1632.23
491.14	1718.25
491.34	1865.70
491.54	2166.75
491.74	2590.68
491.94	2918.36
492.14	2942.93
492.34	3047.38
492.54	2775.00
492.75	2420.70
492.95	2455.51
493.15	2291.68
493.35	2211.81
493.55	2086.88
493.75	2148.32
493.95	2113.50
494.15	2066.40
494.35	1923.04
494.56	1839.08
494.76	1822.69
494.96	1794.02
495.16	1802.21
495.36	1738.73
495.56	1767.40
495.76	1675.24
495.96	1699.81
496.16	1658.85
496.36	1849.32
496.56	1679.33
496.77	1742.82
496.97	1701.86
497.17	1832.93
497.37	1683.43
497.57	1689.57
497.77	1705.96
497.97	1710.05
498.17	1732.58
498.37	1701.86
498.57	1804.26
498.77	1669.09
498.97	1691.62
499.17	1857.51
499.38	1751.01
499.58	1787.88
499.78	1845.22
499.98	1724.39
500.18	1693.67
500.38	1699.81
500.58	2021.35
500.78	2562.01
500.98	4523.96
501.18	5910.44
501.38	6752.15
501.58	7069.59
501.78	6547.36
501.98	5416.88
502.18	4851.64
502.38	4415.42
502.58	4042.69
502.78	3721.16
502.98	3516.36
503.18	3413.96
503.38	3227.60
503.59	2856.92
503.79	2719.70
503.99	2543.58
504.19	2263.01
504.39	2222.05
504.59	2119.65
504.79	2068.45
504.99	2068.45
505.19	1882.08
505.39	1933.28
505.59	2002.91
505.79	1863.65
505.99	1841.12
506.19	1826.79
506.39	1894.37
506.59	1748.97
506.79	1695.72
506.99	1738.73
507.19	1697.77
507.39	1724.39
507.59	1732.58
507.79	1714.15
507.99	1673.19
508.19	1734.63
508.39	1755.11
508.59	1759.21
508.79	1810.40
508.99	1865.70
509.19	1736.68
509.39	1755.11
509.59	1671.14
509.79	1757.16
509.99	1695.72
510.19	1748.97
510.39	1732.58
510.59	1744.87
510.79	1767.40
510.99	1640.42
511.19	1796.07
511.39	1892.32
511.59	1798.12
511.79	1824.74
511.99	1683.43
512.19	1773.54
512.38	1742.82
512.58	1697.77
512.78	1703.91
512.98	1726.44
513.18	1771.49
513.38	1716.20
513.58	1775.59
513.78	1716.20
513.98	1738.73
514.18	1742.82
514.38	1687.53
514.58	1736.68
514.78	1675.24
514.98	1699.81
515.18	1755.11
515.38	1628.14
515.58	1826.79
515.78	1685.48
515.98	1693.67
516.18	1783.78
516.38	1785.83
516.57	1710.05
516.77	1705.96
516.97	1828.84
517.17	1767.40
517.37	1617.90
517.57	1816.55
517.77	1763.30
517.97	1710.05
518.17	1894.37
518.37	1744.87
518.57	1710.05
518.77	1699.81
518.97	1699.81
519.16	1769.44
519.36	1884.13
519.56	1685.48
519.76	1751.01
519.96	1667.05
520.16	1869.80
520.36	1673.19
520.56	1814.50
520.76	1693.67
520.96	1728.49
521.16	1837.03
521.35	1771.49
521.55	1869.80
521.75	1621.99
521.95	1673.19
522.15	1728.49
522.35	1665.00
522.55	1693.67
522.75	1740.77
522.95	1742.82
523.14	1599.46
523.34	1730.53
523.54	1708.01
523.74	1744.87
523.94	1724.39
524.14	1648.61
524.34	1753.06
524.54	1755.11
524.73	1650.66
524.93	1660.90
525.13	1712.10
525.33	1626.09
525.53	1832.93
525.73	1804.26
525.93	1705.96
526.13	1665.00
526.32	1722.34
526.52	1753.06
526.72	1806.31
526.92	1710.05
527.12	1703.91
527.32	1615.85
527.52	1685.48
527.71	1757.16
527.91	1763.30
528.11	1652.71
528.31	1726.44
528.51	1650.66
528.71	1718.25
528.90	1722.34
529.10	1773.54
529.30	1865.70
529.50	1662.95
529.70	1726.44
529.90	1660.90
530.09	1724.39
530.29	1695.72
530.49	1701.86
530.69	1894.37
530.89	1722.34
531.09	1761.25
531.28	1710.05
531.48	1785.83
531.68	1816.55
531.88	1738.73
532.08	1767.40
532.28	1738.73
532.47	1773.54
532.67	1732.58
532.87	1818.60
533.07	1626.09
533.27	1765.35
533.46	1744.87
533.66	1738.73
533.86	1710.05
534.06	1761.25
534.26	1771.49
534.45	1683.43
534.65	1771.49
534.85	1685.48
535.05	1689.57
535.25	1802.21
535.44	1552.36
535.64	1753.06
535.84	1806.31
536.04	1765.35
536.24	1677.29
536.43	1712.10
536.63	1746.92
536.83	1714.15
537.03	1669.09
537.22	1681.38
537.42	1638.38
537.62	1744.87
537.82	1628.14
538.02	1794.02
538.21	1818.60
538.41	1886.18
538.61	1671.14
538.81	1757.16
539.00	1710.05
539.20	1732.58
539.40	1679.33
539.60	1755.11
539.79	1767.40
539.99	1675.24
540.19	1615.85
540.39	1685.48
540.58	1785.83
540.78	1771.49
540.98	1675.24
541.18	1802.21
541.37	1796.07
541.57	1751.01
541.77	1726.44
541.97	1632.23
542.16	1640.42
542.36	1665.00
542.56	1662.95
542.76	1863.65
542.95	1816.55
543.15	1714.15
543.35	1832.93
543.54	1705.96
543.74	1693.67
543.94	1775.59
544.14	1689.57
544.33	1751.01
544.53	1722.34
544.73	1738.73
544.93	1708.01
545.12	1761.25
545.32	1748.97
545.52	1724.39
545.71	1671.14
545.91	1685.48
546.11	1701.86
546.30	1703.91
546.50	1746.92
546.70	1779.68
546.90	1765.35
547.09	1640.42
547.29	1699.81
547.49	1669.09
547.68	1701.86
547.88	1667.05
548.08	1742.82
548.27	2176.99
548.47	1675.24
548.67	1665.00
548.87	1757.16
549.06	1789.92
549.26	1701.86
549.46	1693.67
549.65	1771.49
549.85	1734.63
550.05	1751.01
550.24	1611.75
550.44	1705.96
550.64	1677.29
550.83	1710.05
551.03	1898.47
551.23	1785.83
551.42	1744.87
551.62	1718.25
551.82	1730.53
552.01	1738.73
552.21	1841.12
552.41	1775.59
552.60	1808.36
552.80	1730.53
553.00	1730.53
553.19	1681.38
553.39	1845.22
553.59	1638.38
553.78	1783.78
553.98	1724.39
554.17	1642.47
554.37	1769.44
554.57	1777.64
554.76	1650.66
554.96	1693.67
555.16	1722.34
555.35	1683.43
555.55	1728.49
555.75	1730.53
555.94	1812.45
556.14	1660.90
556.33	1714.15
556.53	1789.92
556.73	1726.44
556.92	1824.74
557.12	1822.69
557.32	1865.70
557.51	1759.21
557.71	1705.96
557.90	1843.17
558.10	1826.79
558.30	1724.39
558.49	1746.92
558.69	1736.68
558.88	1771.49
559.08	1765.35
559.28	1681.38
559.47	1685.48
559.67	1769.44
559.86	1791.97
560.06	1746.92
560.26	1697.77
560.45	1722.34
560.65	1689.57
560.84	1857.51
561.04	1685.48
561.24	1779.68
561.43	1681.38
561.63	1787.88
561.82	1710.05
562.02	1726.44
562.22	1794.02
562.41	1746.92
562.61	1665.00
562.80	1626.09
563.00	1820.64
563.19	1794.02
563.39	1714.15
563.59	1708.01
563.78	1703.91
563.98	1587.18
564.17	1652.71
564.37	1554.41
564.56	1708.01
564.76	1677.29
564.96	1843.17
565.15	1736.68
565.35	1902.56
565.54	1660.90
565.74	1746.92
565.93	1681.38
566.13	1660.90
566.32	1759.21
566.52	1708.01
566.71	1757.16
566.91	1814.50
567.11	1777.64
567.30	1693.67
567.50	1757.16
567.69	1804.26
567.89	1693.67
568.08	1701.86
568.28	1794.02
568.47	1640.42
568.67	1841.12
568.86	1714.15
569.06	1761.25
569.25	1753.06
569.45	1640.42
569.64	1615.85
569.84	1738.73
570.04	1814.50
570.23	1634.28
570.43	1742.82
570.62	1699.81
570.82	1794.02
571.01	1660.90
571.21	1767.40
571.40	1648.61
571.60	1861.60
571.79	1757.16
571.99	1789.92
572.18	1669.09
572.38	1716.20
572.57	1771.49
572.77	1748.97
572.96	1857.51
573.16	1767.40
573.35	1800.16
573.55	1763.30
573.74	1839.08
573.94	1763.30
574.13	1742.82
574.33	1742.82
574.52	1730.53
574.71	1701.86
574.91	1806.31
575.10	1603.56
575.30	1761.25
575.49	1720.29
575.69	1722.34
575.88	1787.88
576.08	1689.57
576.27	1701.86
576.47	1794.02
576.66	1773.54
576.86	1783.78
577.05	1685.48
577.25	1763.30
577.44	1808.36
577.64	1705.96
577.83	1794.02
578.02	1726.44
578.22	1880.04
578.41	1785.83
578.61	1740.77
578.80	1638.38
579.00	1705.96
579.19	1751.01
579.39	1771.49
579.58	1822.69
579.77	1691.62
579.97	1886.18
580.16	1810.40
580.36	1746.92
580.55	1794.02
580.75	1714.15
580.94	1800.16
581.13	1859.56
581.33	1808.36
581.52	1710.05
581.72	1920.99
581.91	1861.60
582.11	1730.53
582.30	1789.92
582.49	1779.68
582.69	1767.40
582.88	1787.88
583.08	1771.49
583.27	1779.68
583.47	1787.88
583.66	1736.68
583.85	1656.81
584.05	1808.36
584.24	1763.30
584.44	1685.48
584.63	1757.16
584.82	1877.99
585.02	1843.17
585.21	1755.11
585.41	1812.45
585.60	1812.45
585.79	1992.67
585.99	1925.09
586.18	1839.08
586.37	2148.32
586.57	3342.28
586.76	9793.39
586.96	24284.81
587.15	34235.89
587.34	40355.22
587.54	42392.95
587.73	36337.11
587.93	26361.45
588.12	21440.18
588.31	18169.58
588.51	16307.98
588.70	14888.73
588.89	14319.40
589.09	12504.90
589.28	11233.11
589.47	9400.18
589.67	7876.49
589.86	6438.81
590.06	4945.84
590.25	3999.68
590.44	3112.91
590.64	2668.50
590.83	2258.91
591.02	2058.21
591.22	1951.71
591.41	1880.04
591.60	1826.79
591.80	1959.91
591.99	1789.92
592.18	1830.88
592.38	1816.55
592.57	1765.35
592.76	1746.92
592.96	1783.78
593.15	1697.77
593.34	1748.97
593.54	1755.11
593.73	1822.69
593.92	1787.88
594.12	1757.16
594.31	1810.40
594.50	1759.21
594.70	1789.92
594.89	1937.38
595.08	1638.38
595.28	1751.01
595.47	1877.99
595.66	1781.73
595.86	1675.24
596.05	1724.39
596.24	1693.67
596.43	1832.93
596.63	1796.07
596.82	1748.97
597.01	1779.68
597.21	1880.04
597.40	1714.15
597.59	1665.00
597.79	1804.26
597.98	1802.21
598.17	1734.63
598.36	1751.01
598.56	1740.77
598.75	1724.39
598.94	1636.33
599.14	1753.06
599.33	1712.10
599.52	1810.40
599.71	1783.78
599.91	1828.84
600.10	1757.16
600.29	1759.21
600.48	1746.92
600.68	1748.97
600.87	1677.29
601.06	1683.43
601.26	1722.34
601.45	1785.83
601.64	1701.86
601.83	1759.21
602.03	1759.21
602.22	1697.77
602.41	1787.88
602.60	1859.56
602.80	1816.55
602.99	1710.05
603.18	1705.96
603.37	1689.57
603.57	1732.58
603.76	1728.49
603.95	1808.36
604.14	1765.35
604.34	1689.57
604.53	1806.31
604.72	1703.91
604.91	1798.12
605.10	1806.31
605.30	1667.05
605.49	1769.44
605.68	1759.21
605.87	1734.63
606.07	1636.33
606.26	1794.02
606.45	1748.97
606.64	1767.40
606.84	1769.44
607.03	1662.95
607.22	1753.06
607.41	1644.52
607.60	1728.49
607.80	1744.87
607.99	1689.57
608.18	1724.39
608.37	1677.29
608.56	1783.78
608.76	1857.51
608.95	1808.36
609.14	1746.92
609.33	1771.49
609.52	1730.53
609.72	1742.82
609.91	1787.88
610.10	1734.63
610.29	1787.88
610.48	1744.87
610.68	1775.59
610.87	1748.97
611.06	1771.49
611.25	1710.05
611.44	1808.36
611.63	1669.09
611.83	1834.98
612.02	1613.80
612.21	1720.29
612.40	1667.05
612.59	1593.32
612.79	1626.09
612.98	1646.57
613.17	1796.07
613.36	1718.25
613.55	1832.93
613.74	1722.34
613.93	1660.90
614.13	1757.16
614.32	1712.10
614.51	1677.29
614.70	1697.77
614.89	1656.81
615.08	1767.40
615.28	2138.08
615.47	1685.48
615.66	1708.01
615.85	1734.63
616.04	1724.39
616.23	1695.72
616.42	1662.95
616.62	1726.44
616.81	1796.07
617.00	1714.15
617.19	1746.92
617.38	1693.67
617.57	1734.63
617.76	1791.97
617.95	1728.49
618.15	1742.82
618.34	1820.64
618.53	1701.86
618.72	1734.63
618.91	1834.98
619.10	1730.53
619.29	1705.96
619.48	1738.73
619.68	1630.18
619.87	1730.53
620.06	1628.14
620.25	1730.53
620.44	1755.11
620.63	1683.43
620.82	1685.48
621.01	1665.00
621.20	1669.09
621.39	1773.54
621.59	1769.44
621.78	1757.16
621.97	1712.10
622.16	1736.68
622.35	1712.10
622.54	1779.68
622.73	1791.97
622.92	1687.53
623.11	1755.11
623.30	1681.38
623.49	1753.06
623.68	1650.66
623.88	1824.74
624.07	1755.11
624.26	1724.39
624.45	1734.63
624.64	1630.18
624.83	1763.30
625.02	1595.37
625.21	1701.86
625.40	1685.48
625.59	1740.77
625.78	1755.11
625.97	1755.11
626.16	1796.07
626.35	1775.59
626.54	1687.53
626.74	1785.83
626.93	1746.92
627.12	1681.38
627.31	1708.01
627.50	1732.58
627.69	1802.21
627.88	1660.90
628.07	1642.47
628.26	1693.67
628.45	1710.05
628.64	1636.33
628.83	1769.44
629.02	1742.82
629.21	1726.44
629.40	1751.01
629.59	1665.00
629.78	1734.63
629.97	1636.33
630.16	1681.38
630.35	1726.44
630.54	1730.53
630.73	1650.66
630.92	1726.44
631.11	1744.87
631.30	1757.16
631.49	1773.54
631.68	1722.34
631.87	1660.90
632.06	1691.62
632.25	1857.51
632.44	1722.34
632.63	1734.63
632.82	1710.05
633.01	1683.43
633.20	1708.01
633.39	1607.66
633.58	1667.05
633.77	1716.20
633.96	1796.07
634.15	1755.11
634.34	1781.73
634.53	1738.73
634.72	1728.49
634.91	1626.09
635.10	1687.53
635.29	1775.59
635.48	1703.91
635.67	1742.82
635.86	1585.13
636.05	1787.88
636.24	1671.14
636.43	1693.67
636.62	1691.62
636.81	1587.18
637.00	1734.63
637.19	1779.68
637.38	1708.01
637.57	1757.16
637.76	1671.14
637.95	1697.77
638.14	1681.38
638.33	1689.57
638.52	1773.54
638.71	1671.14
638.89	1644.52
639.08	1794.02
639.27	1683.43
639.46	1757.16
639.65	1832.93
639.84	1673.19
640.03	1787.88
640.22	1665.00
640.41	1787.88
640.60	1671.14
640.79	1642.47
640.98	1671.14
641.17	1755.11
641.36	1697.77
641.55	1695.72
641.74	1677.29
641.92	1708.01
642.11	1585.13
642.30	1683.43
642.49	1673.19
642.68	1656.81
642.87	1755.11
643.06	1773.54
643.25	1601.51
643.44	1722.34
643.63	1630.18
643.82	1742.82
644.00	1710.05
644.19	1730.53
644.38	1665.00
644.57	1705.96
644.76	1730.53
644.95	1689.57
645.14	1730.53
645.33	1746.92
645.52	1675.24
645.71	1632.23
645.89	1697.77
646.08	1720.29
646.27	1710.05
646.46	1791.97
646.65	1671.14
646.84	1710.05
647.03	1703.91
647.22	1814.50
647.40	1742.82
647.59	1644.52
647.78	1624.04
647.97	1695.72
648.16	1718.25
648.35	1798.12
648.54	1716.20
648.73	1640.42
648.91	1775.59
649.10	1652.71
649.29	1673.19
649.48	1697.77
649.67	1722.34
649.86	1730.53
650.05	1656.81
650.23	1740.77
650.42	1648.61
650.61	1693.67
650.80	1744.87
650.99	1875.94
651.18	1748.97
651.36	1738.73
651.55	1662.95
651.74	1732.58
651.93	1701.86
652.12	1685.48
652.31	1675.24
652.49	1697.77
652.68	1681.38
652.87	1871.84
653.06	1742.82
653.25	1906.66
653.44	1714.15
653.62	1779.68
653.81	1648.61
654.00	1789.92
654.19	1746.92
654.38	1773.54
654.56	1763.30
654.75	1691.62
654.94	1744.87
655.13	1724.39
655.32	1669.09
655.51	1751.01
655.69	1710.05
655.88	1742.82
656.07	1669.09
656.26	1722.34
656.45	1621.99
656.63	1744.87
656.82	1808.36
657.01	1740.77
657.20	1652.71
657.38	1753.06
657.57	1746.92
657.76	1660.90
657.95	1810.40
658.14	1722.34
658.32	1732.58
658.51	1644.52
658.70	1755.11
658.89	1679.33
659.08	1787.88
659.26	1810.40
659.45	1601.51
659.64	1656.81
659.83	1669.09
660.01	1939.43
660.20	1785.83
660.39	1787.88
660.58	1587.18
660.76	1746.92
660.95	1626.09
661.14	1732.58
661.33	1744.87
661.51	1662.95
661.70	1677.29
661.89	1779.68
662.08	1718.25
662.26	1642.47
662.45	1703.91
662.64	1779.68
662.83	1728.49
663.01	1714.15
663.20	1673.19
663.39	1761.25
663.58	1648.61
663.76	1701.86
663.95	1822.69
664.14	1718.25
664.32	1667.05
664.51	1566.70
664.70	1679.33
664.89	1714.15
665.07	1626.09
665.26	1779.68
665.45	1667.05
665.64	1810.40
665.82	1744.87
666.01	1789.92
666.20	1736.68
666.38	1763.30
666.57	1843.17
666.76	2248.67
666.95	4440.00
667.13	10278.76
667.32	15124.25
667.51	17739.51
667.69	18939.62
667.88	17596.15
668.07	12390.21
668.25	9609.07
668.44	8038.28
668.63	7415.69
668.81	6690.71
669.00	6219.68
669.19	5572.52
669.38	5101.49
669.56	4638.65
669.75	3962.82
669.94	3479.50
670.12	2854.87
670.31	2525.15
670.50	2361.31
670.68	2099.17
670.87	1920.99
671.06	1843.17
671.24	1837.03
671.43	1802.21
671.62	1677.29
671.80	1703.91
671.99	1761.25
672.18	1765.35
672.36	1769.44
672.55	1685.48
672.74	1697.77
672.92	1710.05
673.11	1683.43
673.29	1609.70
673.48	1746.92
673.67	1619.94
673.85	1740.77
674.04	1710.05
674.23	1656.81
674.41	1779.68
674.60	1665.00
674.79	1554.41
674.97	1746.92
675.16	1748.97
675.34	1740.77
675.53	1624.04
675.72	1675.24
675.90	1808.36
676.09	1679.33
676.28	1673.19
676.46	1646.57
676.65	1816.55
676.83	1683.43
677.02	1665.00
677.21	1669.09
677.39	1759.21
677.58	1650.66
677.77	1665.00
677.95	1765.35
678.14	1736.68
678.32	1703.91
678.51	1624.04
678.70	1787.88
678.88	1710.05
679.07	1726.44
679.25	1744.87
679.44	1665.00
679.63	1662.95
679.81	1701.86
680.00	1779.68
680.18	1828.84
680.37	1761.25
680.55	1746.92
680.74	1562.60
680.93	1599.46
681.11	1824.74
681.30	1677.29
681.48	1744.87
681.67	1619.94
681.85	1552.36
682.04	1722.34
682.23	1794.02
682.41	1722.34
682.60	1708.01
682.78	1691.62
682.97	1595.37
683.15	1763.30
683.34	1683.43
683.53	1822.69
683.71	1615.85
683.90	1796.07
684.08	1789.92
684.27	1712.10
684.45	1708.01
684.64	1818.60
684.82	1695.72
685.01	1720.29
685.19	1638.38
685.38	1787.88
685.57	1710.05
685.75	1642.47
685.94	1665.00
686.12	1630.18
686.31	1671.14
686.49	1781.73
686.68	1630.18
686.86	1710.05
687.05	1687.53
687.23	1779.68
687.42	1650.66
687.60	1624.04
687.79	1712.10
687.97	1787.88
688.16	1708.01
688.34	1740.77
688.53	1595.37
688.71	1794.02
688.90	1728.49
689.08	1724.39
689.27	1568.74
689.45	1732.58
689.64	1759.21
689.82	1726.44
690.01	1703.91
690.19	1769.44
690.38	1757.16
690.56	1685.48
690.75	1689.57
690.93	1624.04
691.12	1701.86
691.30	1662.95
691.49	1591.27
691.67	1728.49
691.86	1808.36
692.04	1675.24
692.23	1658.85
692.41	1712.10
692.60	1796.07
692.78	1787.88
692.97	1679.33
693.15	1783.78
693.34	1806.31
693.52	1748.97
693.71	1695.72
693.89	1634.28
694.08	1521.64
694.26	1794.02
694.44	1785.83
694.63	1705.96
694.81	1589.22
695.00	1624.04
695.18	1771.49
695.37	1779.68
695.55	1748.97
695.74	1691.62
695.92	1644.52
696.10	1785.83
696.29	1613.80
696.47	1636.33
696.66	1621.99
696.84	1677.29
697.03	1716.20
697.21	1818.60
697.40	2252.77
697.58	1669.09
697.76	1689.57
697.95	1689.57
698.13	1621.99
698.32	1665.00
698.50	1744.87
698.68	1736.68
698.87	1716.20
699.05	1779.68
699.24	1785.83
699.42	1642.47
699.61	1656.81
699.79	1673.19
699.97	1662.95
700.16	1660.90
700.34	1710.05
700.53	1710.05
700.71	1785.83
700.89	1773.54
701.08	1583.08
701.26	1779.68
701.45	2076.64
701.63	1634.28
701.81	1714.15
702.00	1720.29
702.18	1742.82
702.37	1640.42
702.55	1685.48
702.73	1679.33
702.92	1638.38
703.10	1667.05
703.28	1742.82
703.47	1617.90
703.65	1753.06
703.84	1783.78
704.02	1755.11
704.20	1757.16
704.39	1693.67
704.57	1660.90
704.75	1755.11
704.94	1759.21
705.12	1751.01
705.30	1773.54
705.49	2129.89
705.67	4358.08
705.86	9295.73
706.04	12457.79
706.22	14278.44
706.41	15308.57
706.59	13709.10
706.77	9412.46
706.96	7305.10
707.14	6686.62
707.32	6051.75
707.51	5554.09
707.69	4898.74
707.87	4149.18
708.06	3598.28
708.24	2977.75
708.42	2441.18
708.61	2383.84
708.79	1892.32
708.97	1839.08
709.16	1824.74
709.34	1759.21
709.52	1667.05
709.71	1757.16
709.89	1789.92
710.07	1681.38
710.26	1681.38
710.44	1669.09
710.62	1808.36
710.80	1654.76
710.99	1751.01
711.17	1748.97
711.35	1703.91
711.54	1738.73
711.72	1708.01
711.90	1769.44
712.09	1636.33
712.27	1599.46
712.45	1832.93
712.63	1734.63
712.82	1785.83
713.00	1732.58
713.18	1748.97
713.37	1746.92
713.55	1812.45
713.73	1736.68
713.91	1705.96
714.10	1722.34
714.28	1681.38
714.46	1681.38
714.65	1691.62
714.83	1742.82
715.01	1705.96
715.19	1669.09
715.38	1722.34
715.56	1742.82
715.74	1697.77
715.92	1581.03
716.11	1828.84
716.29	1619.94
716.47	1665.00
716.65	1681.38
716.84	1652.71
717.02	1738.73
717.20	1652.71
717.38	1599.46
717.57	1652.71
717.75	1718.25
717.93	1699.81
718.11	1751.01
718.30	1699.81
718.48	1755.11
718.66	1800.16
718.84	1787.88
719.03	1656.81
719.21	1591.27
719.39	1757.16
719.57	1767.40
719.75	1751.01
719.94	1673.19
720.12	1644.52
720.30	1640.42
720.48	1685.48
720.67	1617.90
720.85	1669.09
721.03	1638.38
721.21	1644.52
721.39	1730.53
721.58	1771.49
721.76	1748.97
721.94	1714.15
722.12	1685.48
722.30	1789.92
722.49	1679.33
722.67	1724.39
722.85	1697.77
723.03	1632.23
723.21	1624.04
723.40	1714.15
723.58	1777.64
723.76	1697.77
723.94	1816.55
724.12	1593.32
724.30	1755.11
724.49	1742.82
724.67	1718.25
724.85	1800.16
725.03	1640.42
725.21	1744.87
725.40	1787.88
725.58	1681.38
725.76	1738.73
725.94	1773.54
726.12	1611.75
726.30	1681.38
726.49	1744.87
726.67	1669.09
726.85	1689.57
727.03	1802.21
727.21	2113.50
727.39	2963.41
727.57	3841.99
727.76	4145.09
727.94	4464.57
728.12	4401.08
728.30	3690.44
728.48	2975.70
728.66	2740.18
728.84	2576.34
729.03	2271.20
729.21	2181.09
729.39	1939.43
729.57	1818.60
729.75	1724.39
729.93	1824.74
730.11	1693.67
730.30	1724.39
730.48	1671.14
730.66	1783.78
730.84	1722.34
731.02	1734.63
731.20	1718.25
731.38	1677.29
731.56	1597.42
731.74	1599.46
731.93	1667.05
732.11	1761.25
732.29	1687.53
732.47	1755.11
732.65	1716.20
732.83	1832.93
733.01	1726.44
733.19	1699.81
733.37	1650.66
733.56	1738.73
733.74	1632.23
733.92	1697.77
734.10	1681.38
734.28	1675.24
734.46	1609.70
734.64	1681.38
734.82	1636.33
735.00	1718.25
735.18	1738.73
735.36	1656.81
735.54	1683.43
735.73	1734.63
735.91	1804.26
736.09	1617.90
736.27	1765.35
736.45	1671.14
736.63	1603.56
736.81	1644.52
736.99	1779.68
737.17	1808.36
737.35	1656.81
737.53	1722.34
737.71	1636.33
737.89	1728.49
738.07	1701.86
738.25	1652.71
738.43	1644.52
738.61	1650.66
738.80	1687.53
738.98	1660.90
739.16	1609.70
739.34	1665.00
739.52	1722.34
739.70	1691.62
739.88	1738.73
740.06	1783.78
740.24	1615.85
740.42	1789.92
740.60	1601.51
740.78	1613.80
740.96	1591.27
741.14	1724.39
741.32	1683.43
741.50	1605.61
741.68	1816.55
741.86	1787.88
742.04	1634.28
742.22	1705.96
742.40	1683.43
742.58	1701.86
742.76	1673.19
742.94	1708.01
743.12	1693.67
743.30	1724.39
743.48	1742.82
743.66	1642.47
743.84	1732.58
744.02	1648.61
744.20	1675.24
744.38	1632.23
744.56	1640.42
744.74	1847.27
744.92	1742.82
745.10	1775.59
745.28	1689.57
745.46	1783.78
745.64	1660.90
745.82	1779.68
746.00	1677.29
746.18	1685.48
746.36	1697.77
746.54	1771.49
746.72	1624.04
746.90	1673.19
747.08	1757.16
747.26	1734.63
747.44	1714.15
747.62	1693.67
747.80	1734.63
747.98	1738.73
748.15	1728.49
748.33	1746.92
748.51	1703.91
748.69	1703.91
748.87	1636.33
749.05	1656.81
749.23	1656.81
749.41	1751.01
749.59	1603.56
749.77	1742.82
749.95	1718.25
750.13	1628.14
750.31	1714.15
750.49	1640.42
750.67	1843.17
750.85	1800.16
751.03	1769.44
751.20	1744.87
751.38	1697.77
751.56	1660.90
751.74	1652.71
751.92	1652.71
752.10	1595.37
752.28	1746.92
752.46	1624.04
752.64	1667.05
752.82	1695.72
753.00	1763.30
753.18	1693.67
753.35	1732.58
753.53	1619.94
753.71	1658.85
753.89	1703.91
754.07	1683.43
754.25	1753.06
754.43	1703.91
754.61	1679.33
754.79	1669.09
754.97	1716.20
755.14	1734.63
755.32	1624.04
755.50	1755.11
755.68	1779.68
755.86	1617.90
756.04	1599.46
756.22	1671.14
756.40	1730.53
756.57	1875.94
756.75	1669.09
756.93	1769.44
757.11	1701.86
757.29	1687.53
757.47	1630.18
757.65	1593.32
757.82	1652.71
758.00	1689.57
758.18	1638.38
758.36	1681.38
758.54	1859.56
758.72	1679.33
758.90	1744.87
759.07	1791.97
759.25	1640.42
759.43	1683.43
759.61	1677.29
759.79	2179.04
759.97	1689.57
760.15	1685.48
760.32	1712.10
760.50	1730.53
760.68	1802.21
760.86	1662.95
761.04	1810.40
761.22	1708.01
761.39	1681.38
761.57	1748.97
761.75	1675.24
761.93	1679.33
762.11	1675.24
762.28	1714.15
762.46	1609.70
762.64	1781.73
762.82	1513.45
763.00	1722.34
763.18	1800.16
763.35	1632.23
763.53	1722.34
763.71	1712.10
763.89	1669.09
764.07	1681.38
764.24	1609.70
764.42	1705.96
764.60	1697.77
764.78	1742.82
764.96	1783.78
765.13	1730.53
765.31	1746.92
765.49	1675.24
765.67	1673.19
765.84	1705.96
766.02	1619.94
766.20	1642.47
766.38	1724.39
766.56	1697.77
766.73	1695.72
766.91	1763.30
767.09	1714.15
767.27	1773.54
767.44	1619.94
767.62	1783.78
767.80	1671.14
767.98	1679.33
768.15	1683.43
768.33	1701.86
768.51	1746.92
768.69	1755.11
768.87	1779.68
769.04	1710.05
769.22	1834.98
769.40	1791.97
769.58	1816.55
769.75	1675.24
769.93	1765.35
770.11	1720.29
770.28	1669.09
770.46	1783.78
770.64	1705.96
770.82	1675.24
770.99	1683.43
771.17	1744.87
771.35	1677.29
771.53	1683.43
771.70	1689.57
771.88	1716.20
772.06	1714.15
772.23	1652.71
772.41	1755.11
772.59	1697.77
772.77	1681.38
772.94	1748.97
773.12	1722.34
773.30	1679.33
773.47	1697.77
773.65	1656.81
773.83	1775.59
774.01	1662.95
774.18	1624.04
774.36	1695.72
774.54	1619.94
774.71	1785.83
774.89	1617.90
775.07	1599.46
775.24	1599.46
775.42	1683.43
775.60	1851.36
775.78	1679.33
775.95	1677.29
776.13	1593.32
776.31	1583.08
776.48	1679.33
776.66	1759.21
776.84	1691.62
777.01	1601.51
777.19	1628.14
777.37	1705.96
777.54	1822.69
777.72	1802.21
777.90	1794.02
778.07	1632.23
778.25	1855.46
778.43	1703.91
778.60	1636.33
778.78	1777.64
778.96	1718.25
779.13	1636.33
779.31	1753.06
779.49	1722.34
779.66	1746.92
779.84	1628.14
780.01	1693.67
780.19	1685.48
780.37	1738.73
780.54	1722.34
780.72	1759.21
780.90	1746.92
781.07	1654.76
781.25	1552.36
781.43	1742.82
781.60	1675.24
781.78	1767.40
781.95	1746.92
782.13	1685.48
782.31	1667.05
782.48	1626.09
782.66	1695.72
782.83	1796.07
783.01	1703.91
783.19	1714.15
783.36	1689.57
783.54	1626.09
783.72	1654.76
783.89	1697.77
784.07	1718.25
784.24	1693.67
784.42	1744.87
784.60	1734.63
784.77	1751.01
784.95	1624.04
785.12	1591.27
785.30	1734.63
785.47	1626.09
785.65	1662.95
785.83	1728.49
786.00	1585.13
786.18	1767.40
786.35	1603.56
786.53	1744.87
786.71	1705.96
786.88	1656.81
787.06	1714.15
787.23	1630.18
787.41	1595.37
787.58	1712.10
787.76	1689.57
787.94	1705.96
788.11	1685.48
788.29	1615.85
788.46	1665.00
788.64	1615.85
788.81	1642.47
788.99	1632.23
789.16	1644.52
789.34	1718.25
789.52	1677.29
789.69	1759.21
789.87	1556.46
790.04	1699.81
790.22	1695.72
790.39	1806.31
790.57	1658.85
790.74	1699.81
790.92	1705.96
791.09	1609.70
791.27	1662.95
791.44	1816.55
791.62	1705.96
791.79	1802.21
791.97	1650.66
792.15	1857.51
792.32	1730.53
792.50	1738.73
792.67	1718.25
792.85	1777.64
793.02	1691.62
793.20	1638.38
793.37	1638.38
793.55	1689.57
793.72	1554.41
793.90	1781.73
794.07	1619.94
794.25	1599.46
794.42	1705.96
794.60	1630.18
794.77	1724.39
794.95	1800.16
795.12	1695.72
795.30	1681.38
795.47	1576.94
795.65	1849.32
795.82	1748.97
796.00	1560.55
796.17	1759.21
796.34	1683.43
796.52	1785.83
796.69	1757.16
796.87	1753.06
797.04	1787.88
797.22	1695.72
797.39	1751.01
797.57	1746.92
797.74	1708.01
797.92	1701.86
798.09	1763.30
798.27	1728.49
798.44	1683.43
798.62	1685.48
798.79	1734.63
798.96	1794.02
799.14	1734.63
799.31	1873.89
799.49	1744.87
799.66	1763.30
799.84	1675.24
800.01	1523.69
800.19	1652.71
800.36	1689.57
800.53	1679.33
800.71	1689.57
800.88	1748.97
801.06	1652.71
801.23	1769.44
801.41	1564.65
801.58	1669.09
801.75	1652.71
801.93	1791.97
802.10	1705.96
802.28	1669.09
802.45	1691.62
802.63	1718.25
802.80	1718.25
802.97	1699.81
803.15	1673.19
803.32	1656.81
803.50	1587.18
803.67	1689.57
803.84	1624.04
804.02	1759.21
804.19	1665.00
804.37	1570.79
804.54	1671.14
804.71	1646.57
804.89	1691.62
805.06	1593.32
805.24	1546.22
805.41	1542.12
805.58	1660.90
805.76	1834.98
805.93	1671.14
806.10	1753.06
806.28	1720.29
806.45	1710.05
806.63	1748.97
806.80	1677.29
806.97	1634.28
807.15	1605.61
807.32	1662.95
807.49	1742.82
807.67	1611.75
807.84	1744.87
808.01	1687.53
808.19	1796.07
808.36	1802.21
808.54	1646.57
808.71	1681.38
808.88	1699.81
809.06	1726.44
809.23	1787.88
809.40	1697.77
809.58	1757.16
809.75	1679.33
809.92	1683.43
810.10	1826.79
810.27	1746.92
810.44	1708.01
810.62	1753.06
810.79	1710.05
810.96	1656.81
811.14	1705.96
811.31	1730.53
811.48	1746.92
811.66	1683.43
811.83	1767.40
812.00	1722.34
812.18	1714.15
812.35	1875.94
812.52	1705.96
812.69	1671.14
812.87	1720.29
813.04	1615.85
813.21	1658.85
813.39	1662.95
813.56	1644.52
813.73	1822.69
813.91	1599.46
814.08	1738.73
814.25	1708.01
814.42	1611.75
814.60	1705.96
814.77	1740.77
814.94	1705.96
815.12	1718.25
815.29	1853.41
815.46	1662.95
815.63	1701.86
815.81	1673.19
815.98	1667.05
816.15	1697.77
816.33	1742.82
816.50	1640.42
816.67	1728.49
816.84	1708.01
817.02	1595.37
817.19	1652.71
817.36	1710.05
817.53	1673.19
817.71	1658.85
817.88	1800.16
818.05	1624.04
818.22	1699.81
818.40	1787.88
818.57	1736.68
818.74	1685.48
818.91	1685.48
819.09	1701.86
819.26	1730.53
819.43	1597.42
819.60	1669.09
819.78	1689.57
819.95	1783.78
820.12	1691.62
820.29	1712.10
820.47	1753.06
820.64	1642.47
820.81	1597.42
820.98	1738.73
821.15	1642.47
821.33	1626.09
821.50	1589.22
821.67	1644.52
821.84	1728.49
822.02	1740.77
822.19	1738.73
822.36	1667.05
822.53	1708.01
822.70	1710.05
822.88	1695.72
823.05	1771.49
823.22	1640.42
823.39	1734.63
823.56	1689.57
823.74	1718.25
823.91	1665.00
824.08	1632.23
824.25	1689.57
824.42	1757.16
824.60	1589.22
824.77	1685.48
824.94	1742.82
825.11	1703.91
825.28	1636.33
825.45	1714.15
825.63	1714.15
825.80	1607.66
825.97	1718.25
826.14	1675.24
826.31	1624.04
826.48	1685.48
826.66	1662.95
826.83	1681.38
827.00	1740.77
827.17	1665.00
827.34	1628.14
827.51	1691.62
827.69	1691.62
827.86	1648.61
828.03	1699.81
828.20	1705.96
828.37	1656.81
828.54	1726.44
828.71	1665.00
828.89	1781.73
829.06	1734.63
829.23	1759.21
829.40	1669.09
829.57	1683.43
829.74	1769.44
829.91	1708.01
830.09	1605.61
830.26	1687.53
830.43	1785.83
830.60	1724.39
830.77	1732.58
830.94	1798.12
831.11	1644.52
831.28	1642.47
831.46	1759.21
831.63	1683.43
831.80	1693.67
831.97	1656.81
832.14	1687.53
832.31	1755.11
832.48	1695.72
832.65	1755.11
832.82	1693.67
832.99	1650.66
833.17	1603.56
833.34	1800.16
833.51	1724.39
833.68	1607.66
833.85	1746.92
834.02	1587.18
834.19	1665.00
834.36	1589.22
834.53	1728.49
834.70	1722.34
834.87	1746.92
835.04	1730.53
835.22	1679.33
835.39	1697.77
835.56	1617.90
835.73	1665.00
835.90	1740.77
836.07	1636.33
836.24	1701.86
836.41	1611.75
836.58	1718.25
836.75	1757.16
836.92	1679.33
837.09	1656.81
837.26	1714.15
837.43	1708.01
837.60	1714.15
837.77	1634.28
837.94	1673.19
838.12	1742.82
838.29	1730.53
838.46	1621.99
838.63	1695.72
838.80	1695.72
838.97	1759.21
839.14	1648.61
839.31	1667.05
839.48	1699.81
839.65	1703.91
839.82	1789.92
839.99	1652.71
840.16	1662.95
840.33	1648.61
840.50	1718.25
840.67	1640.42
840.84	1626.09
841.01	1705.96
841.18	1695.72
841.35	1648.61
841.52	1732.58
841.69	1826.79
841.86	1652.71
842.03	1685.48
842.20	1734.63
842.37	1791.97
842.54	1648.61
842.71	1769.44
842.88	1644.52
843.05	1683.43
843.22	1742.82
843.39	1638.38
843.56	1693.67
843.73	1656.81
843.90	1720.29
844.07	1675.24
844.24	1732.58
844.41	1742.82
844.58	1703.91
844.75	1744.87
844.92	1673.19
845.09	1726.44
845.26	1642.47
845.43	1718.25
845.60	1740.77
845.77	1726.44
845.94	1742.82
846.10	1734.63
846.27	1640.42
846.44	1634.28
846.61	1669.09
846.78	1787.88
846.95	1703.91
847.12	1673.19
847.29	1697.77
847.46	1683.43
847.63	1744.87
847.80	1667.05
847.97	1638.38
848.14	1783.78
848.31	1679.33
848.48	1574.89
848.65	1619.94
848.82	1714.15
848.98	1796.07
849.15	1751.01
849.32	1796.07
849.49	1712.10
849.66	1730.53
849.83	1636.33
850.00	1689.57
850.17	1712.10
850.34	1693.67
850.51	1695.72
850.68	1599.46
850.85	1861.60
851.01	1732.58
851.18	1757.16
851.35	1714.15
851.52	1751.01
851.69	1701.86
851.86	1667.05
852.03	1648.61
852.20	1712.10
852.37	1712.10
852.53	1615.85
852.70	1687.53
852.87	1742.82
853.04	1716.20
853.21	1744.87
853.38	1677.29
853.55	1759.21
853.72	1830.88
853.89	1665.00
854.05	1658.85
854.22	1701.86
854.39	1742.82
854.56	1722.34
854.73	1736.68
854.90	1701.86
855.07	1636.33
855.23	1591.27
855.40	1609.70
855.57	1656.81
855.74	1640.42
855.91	1834.98
856.08	1675.24
856.25	1611.75
856.41	1642.47
856.58	1730.53
856.75	1703.91
856.92	1574.89
857.09	1796.07
857.26	1595.37
857.42	1650.66
857.59	1755.11
857.76	1621.99
857.93	1732.58
858.10	1753.06
858.27	1638.38
858.43	1714.15
858.60	1656.81
858.77	1609.70
858.94	1617.90
859.11	1673.19
859.27	1691.62
859.44	1665.00
859.61	1867.75
859.78	1695.72
859.95	1705.96
860.12	1626.09
860.28	1851.36
860.45	1902.56
860.62	1636.33
860.79	1693.67
860.95	1652.71
861.12	1660.90
861.29	1675.24
861.46	1677.29
861.63	1755.11
861.79	1693.67
861.96	1665.00
862.13	1705.96
862.30	1699.81
862.47	1662.95
862.63	1628.14
862.80	1769.44
862.97	1724.39
863.14	1710.05
863.30	1714.15
863.47	1626.09
863.64	1779.68
863.81	1697.77
863.97	1697.77
864.14	1689.57
864.31	1699.81
864.48	1771.49
864.65	1673.19
864.81	1734.63
864.98	1742.82
865.15	1730.53
865.32	1718.25
865.48	1748.97
865.65	1775.59
865.82	1673.19
865.98	1724.39
866.15	1763.30
866.32	1738.73
866.49	1697.77
866.65	1746.92
866.82	1648.61
866.99	1662.95
867.16	1630.18
867.32	1652.71
867.49	1693.67
867.66	1640.42
867.83	1685.48
867.99	1679.33
868.16	1753.06
868.33	1581.03
868.49	1685.48
868.66	1660.90
868.83	1753.06
868.99	1718.25
869.16	1656.81
869.33	1748.97
869.50	1751.01
869.66	1763.30
869.83	1697.77
870.00	1593.32
870.16	1746.92
870.33	1705.96
870.50	1736.68
870.66	1656.81
870.83	1779.68
871.00	1734.63
871.17	1746.92
871.33	1777.64
871.50	1685.48
871.67	1714.15
871.83	1628.14
872.00	1755.11
872.17	1648.61
872.33	1767.40
872.50	1783.78
872.67	1730.53
872.83	1679.33
873.00	1689.57
873.17	1617.90
873.33	1734.63
873.50	1634.28
873.67	1667.05
873.83	1673.19
874.00	1652.71
874.16	1767.40
874.33	1605.61
874.50	1675.24
874.66	1734.63
874.83	1708.01
875.00	1794.02
875.16	1746.92
875.33	1714.15
875.50	1576.94
875.66	1677.29
875.83	1689.57
875.99	1783.78
876.16	1681.38
876.33	1628.14
876.49	1683.43
876.66	1724.39
876.83	1665.00
876.99	1599.46
877.16	1697.77
877.32	1689.57
877.49	1581.03
877.66	1687.53
877.82	1773.54
877.99	1712.10
878.15	1748.97
878.32	1734.63
878.49	1652.71
878.65	1662.95
878.82	1794.02
878.98	1642.47
879.15	1626.09
879.32	1800.16
879.48	1658.85
879.65	1691.62
879.81	1693.67
879.98	1673.19
880.15	1669.09
880.31	1779.68
880.48	1687.53
880.64	1683.43
880.81	1703.91
880.97	1718.25
881.14	1767.40
881.31	1662.95
881.47	1781.73
881.64	1648.61
881.80	1611.75
881.97	1638.38
882.13	1730.53
882.30	1605.61
882.47	1673.19
882.63	1658.85
882.80	1683.43
882.96	1701.86
883.13	1710.05
883.29	1650.66
883.46	1669.09
883.62	1787.88
883.79	1617.90
883.95	1812.45
884.12	1626.09
884.29	1773.54
884.45	1755.11
884.62	1701.86
884.78	1658.85
884.95	1703.91
885.11	1665.00
885.28	1751.01
885.44	1675.24
885.61	1730.53
885.77	1716.20
885.94	1736.68
886.10	1740.77
886.27	1740.77
886.43	1791.97
886.60	1665.00
886.76	1781.73
886.93	1687.53
887.09	1689.57
887.26	1630.18
887.42	1691.62
887.59	1693.67
887.75	1777.64
887.92	1724.39
888.08	1787.88
888.25	1744.87
888.41	1699.81
888.58	1728.49
888.74	1656.81
888.91	1701.86
>>>>>End Processed Spectral Data<<<<<
