SpectraSuite Data File
++++++++++++++++++++++++++++++++++++
Date: Mon Jun 06 13:23:17 CEST 2016
User: root
Dark Spectrum Present: No
Reference Spectrum Present: No
Number of Sampled Component Spectra: 1
Spectrometers: USB4C02835
Integration Time (usec): 100000 (USB4C02835)
Spectra Averaged: 1 (USB4C02835)
Boxcar Smoothing: 0 (USB4C02835)
Correct for Electrical Dark: No (USB4C02835)
Strobe/Lamp Enabled: No (USB4C02835)
Correct for Detector Non-linearity: No (USB4C02835)
Correct for Stray Light: No (USB4C02835)
Number of Pixels in Processed Spectrum: 3648
>>>>>Begin Processed Spectral Data<<<<<
177.47	1519.59
177.69	1519.59
177.91	1519.59
178.13	1402.86
178.36	1470.44
178.58	1679.33
178.80	1714.15
179.02	1642.47
179.24	1634.28
179.46	1632.23
179.68	1787.88
179.90	1748.97
180.13	1630.18
180.35	1591.27
180.57	1701.86
180.79	1650.66
181.01	1671.14
181.23	1810.40
181.45	1755.11
181.67	1710.05
181.90	1779.68
182.12	1671.14
182.34	1619.94
182.56	1658.85
182.78	1710.05
183.00	1740.77
183.22	1726.44
183.44	1597.42
183.66	1857.51
183.89	1667.05
184.11	1695.72
184.33	1699.81
184.55	1744.87
184.77	1697.77
184.99	1710.05
185.21	1697.77
185.43	1843.17
185.65	1691.62
185.87	1744.87
186.10	1769.44
186.32	1880.04
186.54	1738.73
186.76	1761.25
186.98	1746.92
187.20	1724.39
187.42	1728.49
187.64	1757.16
187.86	1669.09
188.08	1763.30
188.30	1640.42
188.52	1701.86
188.75	1751.01
188.97	1804.26
189.19	1685.48
189.41	1675.24
189.63	1722.34
189.85	1648.61
190.07	1665.00
190.29	1644.52
190.51	1681.38
190.73	1642.47
190.95	1822.69
191.17	1628.14
191.39	1626.09
191.61	1660.90
191.84	1728.49
192.06	1615.85
192.28	1624.04
192.50	1806.31
192.72	1726.44
192.94	1671.14
193.16	1761.25
193.38	1705.96
193.60	1697.77
193.82	1685.48
194.04	1693.67
194.26	1662.95
194.48	1677.29
194.70	1660.90
194.92	1656.81
195.14	1748.97
195.36	1665.00
195.58	1744.87
195.80	1646.57
196.02	1617.90
196.24	1669.09
196.46	1720.29
196.69	1679.33
196.91	1900.52
197.13	1689.57
197.35	1595.37
197.57	1843.17
197.79	1728.49
198.01	1720.29
198.23	1738.73
198.45	1611.75
198.67	1632.23
198.89	1705.96
199.11	1740.77
199.33	1679.33
199.55	1599.46
199.77	1730.53
199.99	1841.12
200.21	1619.94
200.43	1675.24
200.65	1656.81
200.87	1525.74
201.09	1714.15
201.31	1738.73
201.53	1742.82
201.75	1718.25
201.97	1665.00
202.19	1640.42
202.41	1679.33
202.63	1738.73
202.85	1718.25
203.07	1697.77
203.29	1677.29
203.51	1624.04
203.73	1650.66
203.95	1849.32
204.17	1677.29
204.39	1667.05
204.61	1613.80
204.83	1665.00
205.05	1748.97
205.27	1800.16
205.49	1798.12
205.71	1665.00
205.93	1603.56
206.15	1624.04
206.37	1763.30
206.59	1621.99
206.81	1595.37
207.03	1632.23
207.25	1630.18
207.47	1781.73
207.69	1644.52
207.91	1763.30
208.13	1757.16
208.34	1656.81
208.56	1665.00
208.78	1705.96
209.00	1681.38
209.22	1677.29
209.44	1685.48
209.66	1669.09
209.88	1728.49
210.10	1611.75
210.32	1673.19
210.54	1783.78
210.76	1697.77
210.98	1732.58
211.20	1535.98
211.42	1798.12
211.64	1748.97
211.86	1701.86
212.08	1812.45
212.30	1726.44
212.52	1683.43
212.74	1701.86
212.96	1724.39
213.17	1751.01
213.39	1789.92
213.61	1812.45
213.83	1783.78
214.05	1646.57
214.27	1812.45
214.49	1697.77
214.71	1583.08
214.93	1783.78
215.15	1703.91
215.37	1847.27
215.59	1628.14
215.81	1787.88
216.03	1767.40
216.24	1693.67
216.46	1695.72
216.68	1683.43
216.90	1730.53
217.12	1767.40
217.34	1677.29
217.56	1705.96
217.78	1746.92
218.00	1705.96
218.22	1681.38
218.44	1705.96
218.66	1738.73
218.87	1789.92
219.09	1681.38
219.31	1783.78
219.53	1718.25
219.75	1619.94
219.97	1693.67
220.19	1699.81
220.41	1652.71
220.63	1761.25
220.85	1808.36
221.06	1619.94
221.28	1857.51
221.50	1732.58
221.72	1710.05
221.94	1681.38
222.16	1656.81
222.38	1734.63
222.60	1755.11
222.82	1665.00
223.03	1642.47
223.25	1648.61
223.47	1769.44
223.69	1820.64
223.91	1755.11
224.13	1718.25
224.35	1632.23
224.57	1808.36
224.78	1665.00
225.00	1658.85
225.22	1619.94
225.44	1779.68
225.66	1767.40
225.88	1689.57
226.10	1720.29
226.32	1710.05
226.53	1755.11
226.75	1675.24
226.97	1699.81
227.19	1753.06
227.41	1716.20
227.63	1699.81
227.85	1599.46
228.06	1730.53
228.28	1751.01
228.50	1683.43
228.72	1638.38
228.94	1681.38
229.16	1593.32
229.37	1679.33
229.59	1693.67
229.81	1724.39
230.03	1675.24
230.25	1660.90
230.47	1675.24
230.69	1681.38
230.90	1755.11
231.12	1738.73
231.34	1730.53
231.56	1787.88
231.78	1615.85
232.00	1728.49
232.21	1710.05
232.43	1675.24
232.65	1519.59
232.87	1701.86
233.09	1677.29
233.30	1652.71
233.52	1822.69
233.74	1634.28
233.96	1755.11
234.18	1718.25
234.40	1658.85
234.61	1785.83
234.83	1636.33
235.05	1617.90
235.27	1839.08
235.49	1695.72
235.70	1695.72
235.92	1748.97
236.14	1669.09
236.36	1783.78
236.58	1656.81
236.79	1689.57
237.01	1683.43
237.23	1683.43
237.45	1849.32
237.67	1691.62
237.88	1738.73
238.10	1820.64
238.32	1705.96
238.54	1595.37
238.76	1701.86
238.97	1572.84
239.19	1603.56
239.41	1712.10
239.63	1767.40
239.85	1681.38
240.06	1679.33
240.28	1656.81
240.50	1796.07
240.72	1701.86
240.93	1681.38
241.15	1761.25
241.37	1619.94
241.59	1746.92
241.81	1681.38
242.02	1703.91
242.24	1691.62
242.46	1646.57
242.68	1628.14
242.89	1708.01
243.11	1791.97
243.33	1648.61
243.55	1716.20
243.76	1779.68
243.98	1708.01
244.20	1738.73
244.42	1724.39
244.64	1724.39
244.85	1679.33
245.07	1705.96
245.29	1796.07
245.51	1724.39
245.72	1724.39
245.94	1701.86
246.16	1640.42
246.38	1689.57
246.59	1671.14
246.81	1720.29
247.03	1628.14
247.24	1562.60
247.46	1687.53
247.68	1689.57
247.90	1691.62
248.11	1724.39
248.33	1718.25
248.55	1710.05
248.77	1695.72
248.98	1789.92
249.20	1804.26
249.42	1638.38
249.64	1732.58
249.85	1632.23
250.07	1646.57
250.29	1742.82
250.50	1773.54
250.72	1691.62
250.94	1738.73
251.16	1810.40
251.37	1757.16
251.59	1765.35
251.81	1728.49
252.02	1761.25
252.24	1679.33
252.46	1775.59
252.68	1691.62
252.89	1716.20
253.11	1605.61
253.33	1781.73
253.54	1720.29
253.76	1554.41
253.98	1685.48
254.20	1669.09
254.41	1662.95
254.63	1691.62
254.85	1624.04
255.06	1677.29
255.28	1675.24
255.50	1701.86
255.71	1677.29
255.93	1710.05
256.15	1677.29
256.36	1773.54
256.58	1605.61
256.80	1775.59
257.02	1640.42
257.23	1615.85
257.45	1665.00
257.67	1734.63
257.88	1677.29
258.10	1714.15
258.32	1697.77
258.53	1638.38
258.75	1822.69
258.97	1677.29
259.18	1687.53
259.40	1753.06
259.62	1748.97
259.83	1789.92
260.05	1757.16
260.27	2039.78
260.48	1720.29
260.70	1642.47
260.92	1753.06
261.13	1699.81
261.35	1708.01
261.57	1781.73
261.78	1595.37
262.00	1624.04
262.22	1673.19
262.43	1591.27
262.65	1687.53
262.86	1648.61
263.08	1841.12
263.30	1632.23
263.51	1624.04
263.73	1658.85
263.95	1748.97
264.16	1658.85
264.38	1656.81
264.60	1740.77
264.81	1685.48
265.03	1746.92
265.25	1775.59
265.46	1669.09
265.68	1720.29
265.89	1738.73
266.11	1605.61
266.33	1824.74
266.54	1783.78
266.76	1658.85
266.98	1712.10
267.19	1767.40
267.41	1830.88
267.62	1691.62
267.84	1673.19
268.06	1718.25
268.27	1759.21
268.49	1697.77
268.70	1787.88
268.92	1785.83
269.14	1613.80
269.35	1568.74
269.57	1660.90
269.79	1710.05
270.00	1628.14
270.22	1839.08
270.43	1673.19
270.65	1611.75
270.87	1742.82
271.08	1656.81
271.30	1697.77
271.51	1640.42
271.73	1744.87
271.95	1755.11
272.16	1695.72
272.38	1732.58
272.59	1656.81
272.81	1759.21
273.02	1734.63
273.24	1763.30
273.46	1759.21
273.67	1671.14
273.89	1693.67
274.10	1652.71
274.32	1746.92
274.54	1712.10
274.75	1732.58
274.97	1751.01
275.18	1759.21
275.40	1722.34
275.61	1687.53
275.83	1693.67
276.05	1611.75
276.26	1638.38
276.48	1718.25
276.69	1779.68
276.91	1685.48
277.12	1769.44
277.34	1771.49
277.55	1785.83
277.77	1583.08
277.99	1665.00
278.20	1578.98
278.42	1648.61
278.63	1624.04
278.85	1673.19
279.06	1591.27
279.28	1701.86
279.49	1767.40
279.71	1720.29
279.93	1763.30
280.14	1656.81
280.36	1605.61
280.57	1701.86
280.79	1794.02
281.00	1677.29
281.22	1691.62
281.43	1765.35
281.65	1576.94
281.86	1679.33
282.08	1720.29
282.29	1794.02
282.51	1583.08
282.73	1630.18
282.94	1632.23
283.16	1761.25
283.37	1806.31
283.59	1722.34
283.80	1677.29
284.02	1617.90
284.23	1710.05
284.45	1695.72
284.66	1652.71
284.88	1681.38
285.09	1742.82
285.31	1726.44
285.52	1677.29
285.74	1617.90
285.95	1699.81
286.17	1634.28
286.38	1716.20
286.60	1689.57
286.81	1632.23
287.03	1681.38
287.24	1665.00
287.46	1656.81
287.67	1738.73
287.89	1812.45
288.10	1644.52
288.32	1699.81
288.53	1746.92
288.75	1652.71
288.96	1736.68
289.18	1681.38
289.39	1724.39
289.61	1714.15
289.82	1734.63
290.04	1843.17
290.25	1619.94
290.47	1689.57
290.68	1638.38
290.90	1703.91
291.11	1603.56
291.33	1767.40
291.54	1648.61
291.76	1646.57
291.97	1669.09
292.18	1757.16
292.40	1644.52
292.61	1656.81
292.83	1822.69
293.04	1783.78
293.26	1730.53
293.47	1646.57
293.69	1619.94
293.90	1621.99
294.12	1791.97
294.33	1689.57
294.55	1609.70
294.76	1787.88
294.97	1687.53
295.19	1800.16
295.40	1673.19
295.62	1724.39
295.83	1759.21
296.05	1734.63
296.26	1740.77
296.48	1613.80
296.69	1695.72
296.90	1662.95
297.12	1781.73
297.33	1771.49
297.55	1757.16
297.76	1742.82
297.98	1751.01
298.19	1679.33
298.41	1611.75
298.62	1665.00
298.83	1785.83
299.05	1687.53
299.26	1640.42
299.48	1665.00
299.69	1763.30
299.90	1675.24
300.12	1671.14
300.33	1720.29
300.55	1757.16
300.76	1720.29
300.98	1652.71
301.19	1728.49
301.40	1677.29
301.62	1701.86
301.83	1736.68
302.05	1697.77
302.26	1681.38
302.47	1779.68
302.69	1619.94
302.90	1665.00
303.12	1652.71
303.33	1699.81
303.54	1755.11
303.76	1648.61
303.97	1697.77
304.19	1804.26
304.40	1669.09
304.61	1716.20
304.83	1734.63
305.04	1730.53
305.26	1822.69
305.47	1697.77
305.68	1617.90
305.90	1615.85
306.11	1742.82
306.33	1642.47
306.54	1689.57
306.75	1669.09
306.97	1669.09
307.18	1578.98
307.39	1646.57
307.61	1787.88
307.82	1652.71
308.04	1689.57
308.25	1648.61
308.46	1701.86
308.68	1708.01
308.89	1710.05
309.10	1783.78
309.32	1681.38
309.53	1677.29
309.74	1761.25
309.96	1720.29
310.17	1728.49
310.39	1718.25
310.60	1785.83
310.81	1662.95
311.03	1601.51
311.24	1689.57
311.45	1691.62
311.67	1834.98
311.88	1691.62
312.09	1740.77
312.31	1677.29
312.52	1734.63
312.73	1708.01
312.95	1638.38
313.16	1685.48
313.37	1710.05
313.59	1773.54
313.80	1593.32
314.01	1779.68
314.23	1689.57
314.44	1697.77
314.65	1642.47
314.87	1619.94
315.08	1685.48
315.29	1695.72
315.51	1617.90
315.72	1648.61
315.93	1863.65
316.15	1759.21
316.36	1683.43
316.57	1626.09
316.79	1767.40
317.00	1697.77
317.21	1669.09
317.43	1705.96
317.64	1703.91
317.85	1673.19
318.07	1578.98
318.28	1720.29
318.49	1798.12
318.70	1857.51
318.92	1845.22
319.13	1867.75
319.34	1810.40
319.56	1779.68
319.77	1798.12
319.98	1753.06
320.20	1791.97
320.41	1652.71
320.62	1722.34
320.83	1669.09
321.05	1857.51
321.26	1710.05
321.47	1679.33
321.69	1738.73
321.90	1650.66
322.11	1632.23
322.32	1687.53
322.54	1744.87
322.75	1685.48
322.96	1865.70
323.18	1591.27
323.39	1640.42
323.60	1673.19
323.81	1724.39
324.03	1652.71
324.24	1693.67
324.45	1736.68
324.66	1699.81
324.88	1712.10
325.09	1767.40
325.30	1703.91
325.52	1685.48
325.73	1671.14
325.94	1691.62
326.15	1658.85
326.37	1652.71
326.58	1734.63
326.79	1830.88
327.00	1587.18
327.22	1720.29
327.43	1646.57
327.64	1648.61
327.85	1800.16
328.07	1738.73
328.28	1812.45
328.49	1601.51
328.70	1832.93
328.92	1683.43
329.13	1591.27
329.34	1695.72
329.55	1865.70
329.76	1761.25
329.98	1736.68
330.19	1777.64
330.40	1669.09
330.61	1703.91
330.83	1796.07
331.04	1679.33
331.25	1656.81
331.46	1697.77
331.68	1638.38
331.89	1753.06
332.10	1728.49
332.31	1624.04
332.52	1755.11
332.74	1763.30
332.95	1660.90
333.16	1777.64
333.37	1703.91
333.58	1642.47
333.80	1708.01
334.01	1574.89
334.22	1703.91
334.43	1636.33
334.64	1724.39
334.86	1615.85
335.07	1605.61
335.28	1828.84
335.49	1630.18
335.70	1669.09
335.92	1740.77
336.13	1800.16
336.34	1693.67
336.55	1671.14
336.76	1699.81
336.98	1523.69
337.19	1732.58
337.40	1830.88
337.61	1880.04
337.82	1685.48
338.04	1779.68
338.25	1632.23
338.46	1712.10
338.67	1640.42
338.88	1685.48
339.09	1658.85
339.31	1689.57
339.52	1650.66
339.73	1712.10
339.94	1642.47
340.15	1800.16
340.36	1660.90
340.58	1667.05
340.79	1681.38
341.00	1738.73
341.21	1662.95
341.42	1818.60
341.63	1599.46
341.85	1691.62
342.06	1751.01
342.27	1683.43
342.48	1738.73
342.69	1683.43
342.90	1761.25
343.12	1724.39
343.33	1630.18
343.54	1732.58
343.75	1818.60
343.96	1755.11
344.17	1636.33
344.38	1730.53
344.60	1746.92
344.81	1662.95
345.02	1685.48
345.23	1671.14
345.44	1806.31
345.65	1730.53
345.86	1759.21
346.07	1710.05
346.29	1738.73
346.50	1757.16
346.71	1720.29
346.92	1882.08
347.13	1777.64
347.34	1687.53
347.55	1648.61
347.76	1722.34
347.98	1581.03
348.19	1675.24
348.40	1798.12
348.61	1646.57
348.82	1796.07
349.03	1609.70
349.24	1650.66
349.45	1757.16
349.66	1560.55
349.88	1697.77
350.09	1726.44
350.30	1718.25
350.51	1804.26
350.72	1681.38
350.93	1665.00
351.14	1685.48
351.35	1687.53
351.56	1712.10
351.77	1703.91
351.99	1708.01
352.20	1783.78
352.41	1771.49
352.62	1529.83
352.83	1648.61
353.04	1718.25
353.25	1685.48
353.46	1736.68
353.67	1734.63
353.88	1585.13
354.09	1718.25
354.30	1714.15
354.52	1748.97
354.73	1746.92
354.94	1665.00
355.15	1728.49
355.36	1736.68
355.57	1693.67
355.78	1744.87
355.99	1673.19
356.20	1724.39
356.41	1746.92
356.62	1683.43
356.83	1632.23
357.04	1712.10
357.25	1544.17
357.46	1710.05
357.68	1714.15
357.89	1646.57
358.10	1683.43
358.31	1691.62
358.52	1685.48
358.73	1646.57
358.94	1665.00
359.15	1708.01
359.36	1734.63
359.57	1681.38
359.78	1714.15
359.99	1755.11
360.20	1675.24
360.41	1615.85
360.62	1755.11
360.83	1687.53
361.04	1660.90
361.25	1714.15
361.46	1791.97
361.67	1714.15
361.88	1689.57
362.09	1798.12
362.30	1773.54
362.51	1640.42
362.72	1687.53
362.93	1761.25
363.14	1820.64
363.35	1665.00
363.56	1617.90
363.78	1781.73
363.99	1730.53
364.20	1677.29
364.41	1708.01
364.62	1828.84
364.83	1673.19
365.04	1732.58
365.25	1718.25
365.46	1800.16
365.67	1683.43
365.88	1611.75
366.09	1693.67
366.30	1675.24
366.51	1679.33
366.72	1605.61
366.93	1691.62
367.14	1710.05
367.35	1765.35
367.56	1712.10
367.77	1740.77
367.98	1669.09
368.18	1718.25
368.39	1695.72
368.60	1648.61
368.81	1773.54
369.02	1732.58
369.23	1662.95
369.44	1617.90
369.65	1671.14
369.86	1722.34
370.07	1699.81
370.28	1671.14
370.49	1705.96
370.70	1728.49
370.91	1675.24
371.12	1566.70
371.33	1796.07
371.54	1640.42
371.75	1789.92
371.96	1587.18
372.17	1710.05
372.38	1642.47
372.59	1685.48
372.80	1662.95
373.01	1703.91
373.22	1740.77
373.43	1675.24
373.64	1673.19
373.85	1730.53
374.06	1783.78
374.26	1769.44
374.47	1652.71
374.68	1804.26
374.89	1724.39
375.10	1769.44
375.31	1738.73
375.52	1697.77
375.73	1830.88
375.94	1701.86
376.15	1806.31
376.36	1673.19
376.57	1665.00
376.78	1654.76
376.99	1759.21
377.20	1740.77
377.40	1656.81
377.61	1865.70
377.82	1648.61
378.03	1744.87
378.24	1787.88
378.45	1742.82
378.66	1662.95
378.87	1603.56
379.08	1691.62
379.29	1665.00
379.50	1722.34
379.71	1685.48
379.91	1685.48
380.12	1705.96
380.33	1701.86
380.54	1701.86
380.75	1673.19
380.96	1732.58
381.17	1722.34
381.38	1683.43
381.59	1705.96
381.80	1716.20
382.00	1882.08
382.21	1683.43
382.42	1824.74
382.63	1834.98
382.84	1726.44
383.05	1818.60
383.26	1826.79
383.47	1757.16
383.68	1785.83
383.88	1763.30
384.09	1808.36
384.30	1832.93
384.51	1791.97
384.72	1697.77
384.93	1603.56
385.14	1597.42
385.35	1746.92
385.55	1654.76
385.76	1722.34
385.97	1710.05
386.18	1677.29
386.39	1701.86
386.60	1632.23
386.81	1697.77
387.02	1654.76
387.22	1603.56
387.43	1746.92
387.64	1755.11
387.85	1853.41
388.06	2197.47
388.27	4179.90
388.48	6854.55
388.68	8091.52
388.89	9582.45
389.10	9631.60
389.31	8497.02
389.52	7554.96
389.73	6711.19
389.93	6174.63
390.14	5881.77
390.35	5250.99
390.56	4618.17
390.77	3833.80
390.98	2994.13
391.18	2492.38
391.39	2078.69
391.60	1871.84
391.81	1849.32
392.02	1705.96
392.23	1771.49
392.43	1769.44
392.64	1808.36
392.85	1695.72
393.06	1767.40
393.27	1734.63
393.47	1593.32
393.68	1724.39
393.89	1730.53
394.10	1755.11
394.31	1683.43
394.52	1658.85
394.72	1679.33
394.93	1826.79
395.14	1722.34
395.35	1695.72
395.56	1660.90
395.76	1740.77
395.97	1742.82
396.18	1798.12
396.39	1851.36
396.60	2009.06
396.80	1843.17
397.01	1796.07
397.22	1744.87
397.43	1892.32
397.64	1652.71
397.84	1794.02
398.05	1933.28
398.26	1689.57
398.47	1751.01
398.67	1791.97
398.88	1732.58
399.09	1748.97
399.30	1697.77
399.51	1763.30
399.71	1662.95
399.92	1726.44
400.13	1796.07
400.34	1775.59
400.54	1587.18
400.75	1816.55
400.96	1708.01
401.17	1804.26
401.37	1738.73
401.58	1685.48
401.79	1701.86
402.00	1789.92
402.21	1898.47
402.41	1939.43
402.62	1964.00
402.83	2058.21
403.04	1980.39
403.24	2064.35
403.45	1816.55
403.66	1855.46
403.87	1880.04
404.07	1896.42
404.28	1927.14
404.49	1841.12
404.70	1751.01
404.90	1820.64
405.11	1783.78
405.32	1761.25
405.52	1654.76
405.73	1699.81
405.94	1638.38
406.15	1673.19
406.35	1695.72
406.56	1736.68
406.77	1701.86
406.98	1767.40
407.18	1718.25
407.39	1855.46
407.60	1697.77
407.80	1746.92
408.01	1742.82
408.22	1654.76
408.43	1689.57
408.63	1730.53
408.84	1744.87
409.05	1718.25
409.25	1636.33
409.46	1683.43
409.67	1728.49
409.88	1660.90
410.08	1714.15
410.29	1720.29
410.50	1675.24
410.70	1669.09
410.91	1691.62
411.12	1738.73
411.32	1675.24
411.53	1669.09
411.74	1832.93
411.95	1771.49
412.15	1875.94
412.36	1773.54
412.57	1701.86
412.77	1738.73
412.98	1736.68
413.19	1697.77
413.39	1765.35
413.60	1748.97
413.81	1773.54
414.01	1640.42
414.22	1718.25
414.43	1695.72
414.63	1740.77
414.84	1699.81
415.05	1761.25
415.25	1679.33
415.46	1730.53
415.67	1667.05
415.87	1740.77
416.08	1693.67
416.29	1673.19
416.49	1705.96
416.70	1703.91
416.91	1630.18
417.11	1681.38
417.32	1730.53
417.53	1761.25
417.73	1699.81
417.94	1642.47
418.15	1757.16
418.35	1695.72
418.56	1677.29
418.77	1800.16
418.97	1695.72
419.18	1669.09
419.38	1611.75
419.59	1646.57
419.80	1798.12
420.00	1658.85
420.21	1626.09
420.42	1769.44
420.62	1718.25
420.83	1578.98
421.04	1652.71
421.24	1591.27
421.45	1748.97
421.65	1753.06
421.86	1681.38
422.07	1744.87
422.27	1779.68
422.48	1738.73
422.69	1648.61
422.89	1642.47
423.10	1685.48
423.30	1662.95
423.51	1718.25
423.72	1732.58
423.92	1763.30
424.13	1679.33
424.33	1730.53
424.54	1767.40
424.75	1751.01
424.95	1705.96
425.16	1828.84
425.36	1681.38
425.57	1789.92
425.78	1783.78
425.98	1781.73
426.19	1689.57
426.39	1728.49
426.60	1746.92
426.81	1816.55
427.01	1761.25
427.22	1701.86
427.42	1574.89
427.63	1605.61
427.83	1734.63
428.04	1798.12
428.25	1800.16
428.45	1699.81
428.66	1789.92
428.86	1744.87
429.07	1697.77
429.28	1765.35
429.48	1648.61
429.69	1626.09
429.89	1683.43
430.10	1671.14
430.30	1669.09
430.51	1771.49
430.71	1613.80
430.92	1763.30
431.13	1757.16
431.33	1722.34
431.54	1767.40
431.74	1849.32
431.95	1808.36
432.15	1609.70
432.36	1720.29
432.56	1820.64
432.77	1818.60
432.98	1769.44
433.18	1751.01
433.39	1650.66
433.59	1656.81
433.80	1828.84
434.00	1861.60
434.21	1658.85
434.41	1644.52
434.62	1853.41
434.82	1626.09
435.03	1599.46
435.23	1753.06
435.44	1652.71
435.64	1755.11
435.85	1697.77
436.06	1740.77
436.26	1853.41
436.47	1648.61
436.67	1658.85
436.88	1689.57
437.08	1812.45
437.29	1781.73
437.49	1685.48
437.70	1791.97
437.90	1699.81
438.11	1781.73
438.31	1763.30
438.52	1884.13
438.72	1822.69
438.93	1935.33
439.13	1722.34
439.34	1843.17
439.54	1730.53
439.75	1828.84
439.95	1755.11
440.16	1646.57
440.36	1738.73
440.57	1718.25
440.77	1671.14
440.98	1744.87
441.18	1718.25
441.39	1673.19
441.59	1599.46
441.80	1757.16
442.00	1689.57
442.21	1851.36
442.41	1734.63
442.62	1705.96
442.82	1724.39
443.02	1705.96
443.23	1767.40
443.43	1595.37
443.64	1847.27
443.84	1728.49
444.05	1769.44
444.25	1710.05
444.46	1714.15
444.66	1681.38
444.87	1755.11
445.07	1605.61
445.28	1714.15
445.48	1730.53
445.69	1779.68
445.89	1839.08
446.09	1755.11
446.30	1978.34
446.50	2557.91
446.71	3719.11
446.91	4374.46
447.12	4775.86
447.32	4765.62
447.53	4251.58
447.73	3764.17
447.93	3512.27
448.14	3385.29
448.34	3184.59
448.55	2877.40
448.75	2793.43
448.96	2719.70
449.16	2383.84
449.36	2289.63
449.57	2070.50
449.77	1873.89
449.98	1796.07
450.18	1812.45
450.39	1818.60
450.59	1732.58
450.79	1759.21
451.00	1638.38
451.20	1771.49
451.41	1697.77
451.61	1804.26
451.81	1763.30
452.02	1691.62
452.22	1746.92
452.43	1767.40
452.63	1767.40
452.84	1722.34
453.04	1755.11
453.24	1736.68
453.45	1667.05
453.65	1705.96
453.86	1746.92
454.06	1746.92
454.26	1722.34
454.47	1705.96
454.67	1796.07
454.87	1746.92
455.08	1751.01
455.28	1822.69
455.49	1712.10
455.69	1658.85
455.89	1826.79
456.10	1773.54
456.30	1734.63
456.51	1787.88
456.71	1863.65
456.91	1761.25
457.12	1703.91
457.32	1722.34
457.52	1619.94
457.73	1767.40
457.93	1800.16
458.14	1693.67
458.34	1685.48
458.54	1626.09
458.75	1734.63
458.95	1834.98
459.15	1703.91
459.36	1783.78
459.56	1759.21
459.76	1798.12
459.97	1712.10
460.17	1779.68
460.37	1808.36
460.58	1671.14
460.78	1806.31
460.99	1689.57
461.19	1708.01
461.39	1660.90
461.60	1720.29
461.80	1748.97
462.00	1669.09
462.21	1697.77
462.41	1761.25
462.61	1703.91
462.82	1685.48
463.02	1757.16
463.22	1732.58
463.43	1751.01
463.63	1732.58
463.83	1812.45
464.04	1716.20
464.24	1722.34
464.44	1693.67
464.64	1710.05
464.85	1789.92
465.05	1783.78
465.25	1701.86
465.46	1681.38
465.66	1763.30
465.86	1849.32
466.07	1724.39
466.27	1691.62
466.47	1652.71
466.68	1677.29
466.88	1714.15
467.08	1763.30
467.29	1771.49
467.49	1763.30
467.69	1777.64
467.89	1820.64
468.10	1730.53
468.30	1673.19
468.50	1791.97
468.71	1705.96
468.91	1669.09
469.11	1804.26
469.31	1728.49
469.52	1665.00
469.72	1875.94
469.92	1849.32
470.13	1751.01
470.33	1720.29
470.53	1853.41
470.73	2105.31
470.94	2238.43
471.14	2301.92
471.34	2447.32
471.54	2379.74
471.75	2146.27
471.95	2195.42
472.15	2015.20
472.36	2152.42
472.56	2095.07
472.76	2078.69
472.96	1994.72
473.17	2009.06
473.37	1937.38
473.57	1820.64
473.77	1798.12
473.98	1742.82
474.18	1652.71
474.38	1869.80
474.58	1685.48
474.79	1722.34
474.99	1738.73
475.19	1759.21
475.39	1730.53
475.60	1767.40
475.80	1759.21
476.00	1787.88
476.20	1669.09
476.41	1710.05
476.61	1839.08
476.81	1757.16
477.01	1583.08
477.21	1828.84
477.42	1826.79
477.62	1716.20
477.82	1757.16
478.02	1771.49
478.23	1697.77
478.43	1591.27
478.63	1679.33
478.83	1714.15
479.03	1669.09
479.24	1755.11
479.44	1869.80
479.64	1636.33
479.84	1546.22
480.04	1710.05
480.25	1775.59
480.45	1695.72
480.65	1718.25
480.85	1748.97
481.06	1693.67
481.26	1716.20
481.46	1720.29
481.66	1656.81
481.86	1673.19
482.06	1740.77
482.27	1689.57
482.47	1675.24
482.67	1746.92
482.87	1726.44
483.07	1791.97
483.28	1617.90
483.48	1714.15
483.68	1681.38
483.88	1673.19
484.08	1603.56
484.29	1570.79
484.49	1742.82
484.69	1658.85
484.89	1798.12
485.09	1783.78
485.29	1738.73
485.50	1722.34
485.70	1708.01
485.90	1789.92
486.10	1673.19
486.30	1820.64
486.50	1765.35
486.71	1779.68
486.91	1746.92
487.11	1814.50
487.31	1630.18
487.51	1714.15
487.71	1716.20
487.91	1714.15
488.12	1718.25
488.32	1585.13
488.52	1648.61
488.72	1564.65
488.92	1689.57
489.12	1695.72
489.32	1789.92
489.53	1777.64
489.73	1654.76
489.93	1775.59
490.13	1656.81
490.33	1605.61
490.53	1714.15
490.73	1779.68
490.94	1726.44
491.14	1738.73
491.34	1824.74
491.54	2101.22
491.74	2533.34
491.94	2951.12
492.14	3000.27
492.34	2985.94
492.54	2764.76
492.75	2547.67
492.95	2398.17
493.15	2273.25
493.35	2338.78
493.55	2181.09
493.75	2146.27
493.95	2084.83
494.15	2015.20
494.35	1865.70
494.56	1904.61
494.76	1771.49
494.96	1804.26
495.16	1734.63
495.36	1693.67
495.56	1748.97
495.76	1673.19
495.96	1689.57
496.16	1699.81
496.36	1808.36
496.56	1703.91
496.77	1748.97
496.97	1738.73
497.17	1849.32
497.37	1667.05
497.57	1746.92
497.77	1714.15
497.97	1665.00
498.17	1738.73
498.37	1689.57
498.57	1796.07
498.77	1701.86
498.97	1794.02
499.17	1869.80
499.38	1742.82
499.58	1746.92
499.78	1818.60
499.98	1861.60
500.18	1734.63
500.38	1658.85
500.58	1931.23
500.78	2543.58
500.98	4487.10
501.18	5812.14
501.38	6707.10
501.58	7004.05
501.78	6694.81
501.98	5500.84
502.18	4990.90
502.38	4372.41
502.58	3956.68
502.78	3764.17
502.98	3569.61
503.18	3434.44
503.38	3184.59
503.59	2770.90
503.79	2678.74
503.99	2461.66
504.19	2357.21
504.39	2213.85
504.59	2191.33
504.79	2148.32
504.99	1955.81
505.19	1931.23
505.39	1824.74
505.59	1947.62
505.79	1914.85
505.99	1877.99
506.19	1777.64
506.39	1875.94
506.59	1785.83
506.79	1781.73
506.99	1832.93
507.19	1755.11
507.39	1669.09
507.59	1648.61
507.79	1656.81
507.99	1658.85
508.19	1765.35
508.39	1701.86
508.59	1712.10
508.79	1755.11
508.99	1847.27
509.19	1767.40
509.39	1753.06
509.59	1708.01
509.79	1605.61
509.99	1748.97
510.19	1806.31
510.39	1808.36
510.59	1728.49
510.79	1787.88
510.99	1699.81
511.19	1755.11
511.39	1824.74
511.59	1822.69
511.79	1755.11
511.99	1820.64
512.19	1783.78
512.38	1728.49
512.58	1624.04
512.78	1712.10
512.98	1785.83
513.18	1755.11
513.38	1660.90
513.58	1814.50
513.78	1654.76
513.98	1685.48
514.18	1765.35
514.38	1695.72
514.58	1693.67
514.78	1648.61
514.98	1765.35
515.18	1646.57
515.38	1624.04
515.58	1816.55
515.78	1650.66
515.98	1767.40
516.18	1748.97
516.38	1771.49
516.57	1689.57
516.77	1660.90
516.97	1748.97
517.17	1716.20
517.37	1665.00
517.57	1775.59
517.77	1767.40
517.97	1712.10
518.17	1748.97
518.37	1693.67
518.57	1662.95
518.77	1638.38
518.97	1769.44
519.16	1705.96
519.36	1748.97
519.56	1701.86
519.76	1669.09
519.96	1703.91
520.16	1853.41
520.36	1693.67
520.56	1796.07
520.76	1695.72
520.96	1669.09
521.16	1726.44
521.35	1820.64
521.55	1804.26
521.75	1710.05
521.95	1751.01
522.15	1742.82
522.35	1601.51
522.55	1689.57
522.75	1751.01
522.95	1734.63
523.14	1671.14
523.34	1761.25
523.54	1763.30
523.74	1796.07
523.94	1708.01
524.14	1691.62
524.34	1814.50
524.54	1787.88
524.73	1697.77
524.93	1742.82
525.13	1667.05
525.33	1689.57
525.53	1916.90
525.73	1720.29
525.93	1728.49
526.13	1705.96
526.32	1716.20
526.52	1845.22
526.72	1824.74
526.92	1695.72
527.12	1708.01
527.32	1665.00
527.52	1716.20
527.71	1732.58
527.91	1779.68
528.11	1687.53
528.31	1728.49
528.51	1665.00
528.71	1785.83
528.90	1722.34
529.10	1861.60
529.30	1802.21
529.50	1603.56
529.70	1699.81
529.90	1685.48
530.09	1673.19
530.29	1693.67
530.49	1644.52
530.69	1918.95
530.89	1714.15
531.09	1718.25
531.28	1679.33
531.48	1783.78
531.68	1798.12
531.88	1738.73
532.08	1716.20
532.28	1615.85
532.47	1765.35
532.67	1798.12
532.87	1726.44
533.07	1667.05
533.27	1824.74
533.46	1695.72
533.66	1746.92
533.86	1642.47
534.06	1691.62
534.26	1771.49
534.45	1714.15
534.65	1779.68
534.85	1687.53
535.05	1669.09
535.25	1794.02
535.44	1638.38
535.64	1732.58
535.84	1712.10
536.04	1687.53
536.24	1755.11
536.43	1658.85
536.63	1748.97
536.83	1732.58
537.03	1710.05
537.22	1632.23
537.42	1683.43
537.62	1720.29
537.82	1726.44
538.02	1832.93
538.21	1906.66
538.41	1974.24
538.61	1779.68
538.81	1695.72
539.00	1877.99
539.20	1681.38
539.40	1695.72
539.60	1794.02
539.79	1691.62
539.99	1671.14
540.19	1689.57
540.39	1718.25
540.58	1613.80
540.78	1759.21
540.98	1753.06
541.18	1783.78
541.37	1753.06
541.57	1691.62
541.77	1679.33
541.97	1667.05
542.16	1685.48
542.36	1755.11
542.56	1726.44
542.76	1857.51
542.95	1775.59
543.15	1783.78
543.35	1675.24
543.54	1648.61
543.74	1601.51
543.94	1763.30
544.14	1714.15
544.33	1814.50
544.53	1783.78
544.73	1800.16
544.93	1730.53
545.12	1695.72
545.32	1746.92
545.52	1683.43
545.71	1740.77
545.91	1714.15
546.11	1671.14
546.30	1658.85
546.50	1697.77
546.70	1720.29
546.90	1687.53
547.09	1693.67
547.29	1765.35
547.49	1796.07
547.68	1751.01
547.88	1646.57
548.08	1763.30
548.27	2146.27
548.47	1697.77
548.67	1642.47
548.87	1748.97
549.06	1755.11
549.26	1744.87
549.46	1740.77
549.65	1658.85
549.85	1742.82
550.05	1726.44
550.24	1675.24
550.44	1675.24
550.64	1816.55
550.83	1718.25
551.03	1763.30
551.23	1796.07
551.42	1730.53
551.62	1691.62
551.82	1763.30
552.01	1673.19
552.21	1818.60
552.41	1695.72
552.60	1875.94
552.80	1724.39
553.00	1705.96
553.19	1740.77
553.39	1855.46
553.59	1697.77
553.78	1794.02
553.98	1775.59
554.17	1687.53
554.37	1802.21
554.57	1695.72
554.76	1665.00
554.96	1683.43
555.16	1748.97
555.35	1648.61
555.55	1746.92
555.75	1642.47
555.94	1806.31
556.14	1603.56
556.33	1697.77
556.53	1726.44
556.73	1701.86
556.92	1767.40
557.12	1826.79
557.32	1779.68
557.51	1734.63
557.71	1814.50
557.90	1841.12
558.10	1841.12
558.30	1724.39
558.49	1730.53
558.69	1699.81
558.88	1730.53
559.08	1769.44
559.28	1691.62
559.47	1804.26
559.67	1746.92
559.86	1800.16
560.06	1765.35
560.26	1787.88
560.45	1746.92
560.65	1724.39
560.84	1751.01
561.04	1656.81
561.24	1710.05
561.43	1642.47
561.63	1730.53
561.82	1814.50
562.02	1800.16
562.22	1691.62
562.41	1689.57
562.61	1701.86
562.80	1697.77
563.00	1822.69
563.19	1732.58
563.39	1751.01
563.59	1708.01
563.78	1634.28
563.98	1640.42
564.17	1730.53
564.37	1587.18
564.56	1667.05
564.76	1703.91
564.96	1812.45
565.15	1765.35
565.35	1884.13
565.54	1689.57
565.74	1783.78
565.93	1708.01
566.13	1781.73
566.32	1773.54
566.52	1714.15
566.71	1705.96
566.91	1763.30
567.11	1681.38
567.30	1734.63
567.50	1738.73
567.69	1787.88
567.89	1755.11
568.08	1726.44
568.28	1699.81
568.47	1646.57
568.67	1755.11
568.86	1683.43
569.06	1767.40
569.25	1789.92
569.45	1679.33
569.64	1681.38
569.84	1658.85
570.04	1785.83
570.23	1703.91
570.43	1681.38
570.62	1757.16
570.82	1820.64
571.01	1656.81
571.21	1777.64
571.40	1617.90
571.60	1798.12
571.79	1757.16
571.99	1718.25
572.18	1728.49
572.38	1787.88
572.57	1765.35
572.77	1738.73
572.96	1914.85
573.16	1806.31
573.35	1703.91
573.55	1851.36
573.74	1746.92
573.94	1697.77
574.13	1722.34
574.33	1691.62
574.52	1771.49
574.71	1783.78
574.91	1738.73
575.10	1673.19
575.30	1816.55
575.49	1699.81
575.69	1726.44
575.88	1785.83
576.08	1701.86
576.27	1771.49
576.47	1781.73
576.66	1849.32
576.86	1728.49
577.05	1765.35
577.25	1806.31
577.44	1873.89
577.64	1746.92
577.83	1757.16
578.02	1705.96
578.22	1818.60
578.41	1851.36
578.61	1767.40
578.80	1732.58
579.00	1748.97
579.19	1814.50
579.39	1810.40
579.58	1800.16
579.77	1783.78
579.97	1804.26
580.16	1800.16
580.36	1759.21
580.55	1767.40
580.75	1830.88
580.94	1701.86
581.13	1828.84
581.33	1841.12
581.52	1708.01
581.72	1888.23
581.91	1880.04
582.11	1738.73
582.30	1824.74
582.49	1759.21
582.69	1845.22
582.88	1812.45
583.08	1746.92
583.27	1857.51
583.47	1753.06
583.66	1716.20
583.85	1675.24
584.05	1755.11
584.24	1748.97
584.44	1818.60
584.63	1781.73
584.82	1826.79
585.02	1734.63
585.21	1800.16
585.41	1843.17
585.60	1789.92
585.79	1927.14
585.99	1959.91
586.18	1865.70
586.37	2166.75
586.57	3389.39
586.76	10006.38
586.96	24624.78
587.15	34360.82
587.34	40627.60
587.54	42040.70
587.73	36570.58
587.93	26115.70
588.12	21317.31
588.31	18384.62
588.51	16209.67
588.70	15234.84
588.89	13918.00
589.09	12654.40
589.28	11069.27
589.47	9465.71
589.67	7880.58
589.86	6496.16
590.06	4941.75
590.25	3934.15
590.44	3147.73
590.64	2607.06
590.83	2279.39
591.02	2115.55
591.22	1976.29
591.41	1853.41
591.60	1808.36
591.80	1902.56
591.99	1703.91
592.18	1789.92
592.38	1783.78
592.57	1701.86
592.76	1861.60
592.96	1847.27
593.15	1824.74
593.34	1806.31
593.54	1816.55
593.73	1769.44
593.92	1742.82
594.12	1679.33
594.31	1859.56
594.50	1804.26
594.70	1816.55
594.89	1890.28
595.08	1673.19
595.28	1794.02
595.47	1859.56
595.66	1732.58
595.86	1695.72
596.05	1734.63
596.24	1726.44
596.43	1826.79
596.63	1722.34
596.82	1781.73
597.01	1744.87
597.21	1765.35
597.40	1730.53
597.59	1673.19
597.79	1726.44
597.98	1771.49
598.17	1697.77
598.36	1734.63
598.56	1789.92
598.75	1650.66
598.94	1751.01
599.14	1703.91
599.33	1691.62
599.52	1834.98
599.71	1689.57
599.91	1832.93
600.10	1667.05
600.29	1724.39
600.48	1789.92
600.68	1730.53
600.87	1771.49
601.06	1644.52
601.26	1705.96
601.45	1808.36
601.64	1728.49
601.83	1834.98
602.03	1681.38
602.22	1697.77
602.41	1708.01
602.60	1806.31
602.80	1724.39
602.99	1755.11
603.18	1693.67
603.37	1728.49
603.57	1773.54
603.76	1712.10
603.95	1777.64
604.14	1697.77
604.34	1671.14
604.53	1714.15
604.72	1767.40
604.91	1804.26
605.10	1673.19
605.30	1626.09
605.49	1714.15
605.68	1742.82
605.87	1781.73
606.07	1722.34
606.26	1726.44
606.45	1740.77
606.64	1734.63
606.84	1708.01
607.03	1796.07
607.22	1671.14
607.41	1724.39
607.60	1652.71
607.80	1765.35
607.99	1802.21
608.18	1755.11
608.37	1777.64
608.56	1656.81
608.76	1691.62
608.95	1777.64
609.14	1800.16
609.33	1785.83
609.52	1794.02
609.72	1734.63
609.91	1779.68
610.10	1708.01
610.29	1757.16
610.48	1773.54
610.68	1718.25
610.87	1732.58
611.06	1765.35
611.25	1695.72
611.44	1751.01
611.63	1716.20
611.83	1802.21
612.02	1599.46
612.21	1753.06
612.40	1632.23
612.59	1648.61
612.79	1669.09
612.98	1757.16
613.17	1814.50
613.36	1740.77
613.55	1759.21
613.74	1701.86
613.93	1751.01
614.13	1656.81
614.32	1746.92
614.51	1656.81
614.70	1687.53
614.89	1691.62
615.08	1730.53
615.28	1982.43
615.47	1640.42
615.66	1751.01
615.85	1693.67
616.04	1810.40
616.23	1714.15
616.42	1753.06
616.62	1660.90
616.81	1708.01
617.00	1701.86
617.19	1753.06
617.38	1687.53
617.57	1697.77
617.76	1753.06
617.95	1775.59
618.15	1724.39
618.34	1820.64
618.53	1652.71
618.72	1791.97
618.91	1800.16
619.10	1783.78
619.29	1765.35
619.48	1720.29
619.68	1697.77
619.87	1730.53
620.06	1669.09
620.25	1716.20
620.44	1699.81
620.63	1744.87
620.82	1843.17
621.01	1710.05
621.20	1751.01
621.39	1683.43
621.59	1652.71
621.78	1710.05
621.97	1734.63
622.16	1759.21
622.35	1718.25
622.54	1708.01
622.73	1789.92
622.92	1699.81
623.11	1834.98
623.30	1665.00
623.49	1814.50
623.68	1714.15
623.88	1751.01
624.07	1654.76
624.26	1705.96
624.45	1761.25
624.64	1642.47
624.83	1751.01
625.02	1740.77
625.21	1773.54
625.40	1689.57
625.59	1759.21
625.78	1687.53
625.97	1867.75
626.16	1742.82
626.35	1757.16
626.54	1716.20
626.74	1781.73
626.93	1689.57
627.12	1724.39
627.31	1691.62
627.50	1724.39
627.69	1759.21
627.88	1720.29
628.07	1761.25
628.26	1589.22
628.45	1675.24
628.64	1652.71
628.83	1724.39
629.02	1681.38
629.21	1738.73
629.40	1746.92
629.59	1728.49
629.78	1675.24
629.97	1736.68
630.16	1724.39
630.35	1630.18
630.54	1699.81
630.73	1683.43
630.92	1738.73
631.11	1712.10
631.30	1650.66
631.49	1796.07
631.68	1656.81
631.87	1726.44
632.06	1648.61
632.25	1902.56
632.44	1761.25
632.63	1705.96
632.82	1662.95
633.01	1607.66
633.20	1699.81
633.39	1689.57
633.58	1667.05
633.77	1703.91
633.96	1761.25
634.15	1757.16
634.34	1757.16
634.53	1726.44
634.72	1722.34
634.91	1689.57
635.10	1685.48
635.29	1697.77
635.48	1773.54
635.67	1673.19
635.86	1671.14
636.05	1804.26
636.24	1691.62
636.43	1689.57
636.62	1771.49
636.81	1556.46
637.00	1740.77
637.19	1669.09
637.38	1667.05
637.57	1701.86
637.76	1656.81
637.95	1708.01
638.14	1714.15
638.33	1742.82
638.52	1683.43
638.71	1722.34
638.89	1673.19
639.08	1834.98
639.27	1751.01
639.46	1693.67
639.65	1814.50
639.84	1671.14
640.03	1695.72
640.22	1724.39
640.41	1851.36
640.60	1714.15
640.79	1746.92
640.98	1761.25
641.17	1751.01
641.36	1744.87
641.55	1734.63
641.74	1624.04
641.92	1667.05
642.11	1665.00
642.30	1705.96
642.49	1675.24
642.68	1740.77
642.87	1757.16
643.06	1757.16
643.25	1787.88
643.44	1648.61
643.63	1796.07
643.82	1808.36
644.00	1648.61
644.19	1691.62
644.38	1708.01
644.57	1732.58
644.76	1746.92
644.95	1638.38
645.14	1726.44
645.33	1673.19
645.52	1751.01
645.71	1638.38
645.89	1677.29
646.08	1689.57
646.27	1679.33
646.46	1802.21
646.65	1607.66
646.84	1736.68
647.03	1673.19
647.22	1771.49
647.40	1691.62
647.59	1755.11
647.78	1654.76
647.97	1615.85
648.16	1656.81
648.35	1730.53
648.54	1736.68
648.73	1746.92
648.91	1767.40
649.10	1644.52
649.29	1705.96
649.48	1708.01
649.67	1617.90
649.86	1732.58
650.05	1724.39
650.23	1785.83
650.42	1662.95
650.61	1708.01
650.80	1771.49
650.99	1830.88
651.18	1656.81
651.36	1734.63
651.55	1740.77
651.74	1699.81
651.93	1740.77
652.12	1646.57
652.31	1724.39
652.49	1722.34
652.68	1751.01
652.87	1728.49
653.06	1726.44
653.25	1820.64
653.44	1740.77
653.62	1693.67
653.81	1685.48
654.00	1660.90
654.19	1683.43
654.38	1888.23
654.56	1718.25
654.75	1722.34
654.94	1753.06
655.13	1738.73
655.32	1736.68
655.51	1722.34
655.69	1679.33
655.88	1730.53
656.07	1665.00
656.26	1767.40
656.45	1632.23
656.63	1691.62
656.82	1794.02
657.01	1742.82
657.20	1642.47
657.38	1816.55
657.57	1677.29
657.76	1652.71
657.95	1716.20
658.14	1677.29
658.32	1730.53
658.51	1675.24
658.70	1689.57
658.89	1738.73
659.08	1751.01
659.26	1828.84
659.45	1613.80
659.64	1716.20
659.83	1669.09
660.01	1867.75
660.20	1658.85
660.39	1818.60
660.58	1611.75
660.76	1755.11
660.95	1585.13
661.14	1679.33
661.33	1662.95
661.51	1720.29
661.70	1732.58
661.89	1738.73
662.08	1742.82
662.26	1703.91
662.45	1697.77
662.64	1816.55
662.83	1773.54
663.01	1685.48
663.20	1621.99
663.39	1755.11
663.58	1681.38
663.76	1718.25
663.95	1812.45
664.14	1697.77
664.32	1628.14
664.51	1646.57
664.70	1654.76
664.89	1718.25
665.07	1548.26
665.26	1781.73
665.45	1671.14
665.64	1744.87
665.82	1726.44
666.01	1808.36
666.20	1626.09
666.38	1834.98
666.57	1789.92
666.76	2191.33
666.95	4378.56
667.13	10319.71
667.32	15095.58
667.51	17925.87
667.69	19052.25
667.88	17622.77
668.07	12289.86
668.25	9596.78
668.44	8112.00
668.63	7233.43
668.81	6786.97
669.00	6088.61
669.19	5547.95
669.38	5097.39
669.56	4503.48
669.75	3893.19
669.94	3332.05
670.12	2856.92
670.31	2428.89
670.50	2314.20
670.68	1998.82
670.87	1834.98
671.06	1845.22
671.24	1759.21
671.43	1867.75
671.62	1732.58
671.80	1656.81
671.99	1722.34
672.18	1740.77
672.36	1767.40
672.55	1775.59
672.74	1671.14
672.92	1705.96
673.11	1724.39
673.29	1679.33
673.48	1742.82
673.67	1724.39
673.85	1812.45
674.04	1736.68
674.23	1763.30
674.41	1726.44
674.60	1578.98
674.79	1644.52
674.97	1761.25
675.16	1769.44
675.34	1751.01
675.53	1681.38
675.72	1722.34
675.90	1775.59
676.09	1695.72
676.28	1736.68
676.46	1568.74
676.65	1773.54
676.83	1648.61
677.02	1765.35
677.21	1689.57
677.39	1730.53
677.58	1648.61
677.77	1710.05
677.95	1660.90
678.14	1689.57
678.32	1634.28
678.51	1642.47
678.70	1800.16
678.88	1693.67
679.07	1738.73
679.25	1744.87
679.44	1716.20
679.63	1613.80
679.81	1812.45
680.00	1761.25
680.18	1736.68
680.37	1742.82
680.55	1691.62
680.74	1640.42
680.93	1607.66
681.11	1697.77
681.30	1714.15
681.48	1755.11
681.67	1679.33
681.85	1722.34
682.04	1673.19
682.23	1771.49
682.41	1673.19
682.60	1732.58
682.78	1699.81
682.97	1630.18
683.15	1742.82
683.34	1699.81
683.53	1773.54
683.71	1597.42
683.90	1796.07
684.08	1832.93
684.27	1695.72
684.45	1734.63
684.64	1767.40
684.82	1710.05
685.01	1796.07
685.19	1738.73
685.38	1796.07
685.57	1714.15
685.75	1665.00
685.94	1761.25
686.12	1691.62
686.31	1751.01
686.49	1837.03
686.68	1665.00
686.86	1744.87
687.05	1677.29
687.23	1810.40
687.42	1667.05
687.60	1544.17
687.79	1726.44
687.97	1800.16
688.16	1853.41
688.34	1771.49
688.53	1648.61
688.71	1761.25
688.90	1789.92
689.08	1677.29
689.27	1613.80
689.45	1783.78
689.64	1732.58
689.82	1695.72
690.01	1742.82
690.19	1722.34
690.38	1644.52
690.56	1755.11
690.75	1634.28
690.93	1695.72
691.12	1699.81
691.30	1724.39
691.49	1615.85
691.67	1720.29
691.86	1781.73
692.04	1703.91
692.23	1726.44
692.41	1658.85
692.60	1738.73
692.78	1724.39
692.97	1697.77
693.15	1708.01
693.34	1837.03
693.52	1755.11
693.71	1697.77
693.89	1697.77
694.08	1583.08
694.26	1820.64
694.44	1759.21
694.63	1718.25
694.81	1624.04
695.00	1636.33
695.18	1746.92
695.37	1802.21
695.55	1701.86
695.74	1708.01
695.92	1603.56
696.10	1773.54
696.29	1570.79
696.47	1734.63
696.66	1644.52
696.84	1601.51
697.03	1656.81
697.21	1716.20
697.40	2263.01
697.58	1738.73
697.76	1650.66
697.95	1718.25
698.13	1669.09
698.32	1613.80
698.50	1734.63
698.68	1746.92
698.87	1751.01
699.05	1763.30
699.24	1689.57
699.42	1726.44
699.61	1751.01
699.79	1757.16
699.97	1744.87
700.16	1597.42
700.34	1574.89
700.53	1751.01
700.71	1763.30
700.89	1794.02
701.08	1593.32
701.26	1742.82
701.45	2129.89
701.63	1714.15
701.81	1689.57
702.00	1662.95
702.18	1619.94
702.37	1632.23
702.55	1665.00
702.73	1701.86
702.92	1660.90
703.10	1759.21
703.28	1751.01
703.47	1570.79
703.65	1695.72
703.84	1796.07
704.02	1642.47
704.20	1849.32
704.39	1632.23
704.57	1695.72
704.75	1726.44
704.94	1781.73
705.12	1734.63
705.30	1830.88
705.49	2240.48
705.67	4409.28
705.86	9340.79
706.04	12574.53
706.22	14391.08
706.41	15474.45
706.59	13782.83
706.77	9764.72
706.96	7278.48
707.14	6641.56
707.32	6049.70
707.51	5486.51
707.69	4857.78
707.87	4229.06
708.06	3534.79
708.24	3014.61
708.42	2422.75
708.61	2181.09
708.79	1830.88
708.97	1902.56
709.16	1775.59
709.34	1806.31
709.52	1755.11
709.71	1734.63
709.89	1757.16
710.07	1673.19
710.26	1744.87
710.44	1693.67
710.62	1744.87
710.80	1675.24
710.99	1734.63
711.17	1765.35
711.35	1712.10
711.54	1615.85
711.72	1832.93
711.90	1765.35
712.09	1693.67
712.27	1667.05
712.45	1751.01
712.63	1581.03
712.82	1658.85
713.00	1710.05
713.18	1798.12
713.37	1705.96
713.55	1718.25
713.73	1695.72
713.91	1701.86
714.10	1673.19
714.28	1738.73
714.46	1724.39
714.65	1685.48
714.83	1665.00
715.01	1650.66
715.19	1667.05
715.38	1712.10
715.56	1710.05
715.74	1691.62
715.92	1667.05
716.11	1820.64
716.29	1544.17
716.47	1705.96
716.65	1689.57
716.84	1636.33
717.02	1796.07
717.20	1642.47
717.38	1660.90
717.57	1736.68
717.75	1755.11
717.93	1611.75
718.11	1642.47
718.30	1667.05
718.48	1693.67
718.66	1794.02
718.84	1718.25
719.03	1722.34
719.21	1630.18
719.39	1830.88
719.57	1783.78
719.75	1736.68
719.94	1652.71
720.12	1660.90
720.30	1710.05
720.48	1806.31
720.67	1667.05
720.85	1646.57
721.03	1693.67
721.21	1644.52
721.39	1665.00
721.58	1662.95
721.76	1703.91
721.94	1736.68
722.12	1681.38
722.30	1777.64
722.49	1744.87
722.67	1751.01
722.85	1738.73
723.03	1587.18
723.21	1718.25
723.40	1658.85
723.58	1695.72
723.76	1802.21
723.94	1716.20
724.12	1699.81
724.30	1839.08
724.49	1783.78
724.67	1632.23
724.85	1753.06
725.03	1624.04
725.21	1736.68
725.40	1746.92
725.58	1720.29
725.76	1812.45
725.94	1767.40
726.12	1689.57
726.30	1683.43
726.49	1675.24
726.67	1689.57
726.85	1667.05
727.03	1773.54
727.21	2093.02
727.39	2949.08
727.57	3680.20
727.76	4124.61
727.94	4399.04
728.12	4308.93
728.30	3682.25
728.48	2942.93
728.66	2744.28
728.84	2510.81
729.03	2328.54
729.21	2133.98
729.39	2078.69
729.57	1808.36
729.75	1804.26
729.93	1894.37
730.11	1722.34
730.30	1619.94
730.48	1757.16
730.66	1785.83
730.84	1775.59
731.02	1679.33
731.20	1636.33
731.38	1724.39
731.56	1595.37
731.74	1677.29
731.93	1679.33
732.11	1718.25
732.29	1697.77
732.47	1728.49
732.65	1798.12
732.83	1757.16
733.01	1638.38
733.19	1656.81
733.37	1765.35
733.56	1699.81
733.74	1619.94
733.92	1800.16
734.10	1708.01
734.28	1755.11
734.46	1583.08
734.64	1644.52
734.82	1751.01
735.00	1697.77
735.18	1697.77
735.36	1648.61
735.54	1742.82
735.73	1630.18
735.91	1718.25
736.09	1685.48
736.27	1697.77
736.45	1800.16
736.63	1642.47
736.81	1703.91
736.99	1726.44
737.17	1757.16
737.35	1615.85
737.53	1675.24
737.71	1687.53
737.89	1761.25
738.07	1591.27
738.25	1636.33
738.43	1669.09
738.61	1673.19
738.80	1675.24
738.98	1650.66
739.16	1669.09
739.34	1665.00
739.52	1796.07
739.70	1689.57
739.88	1708.01
740.06	1726.44
740.24	1599.46
740.42	1804.26
740.60	1578.98
740.78	1660.90
740.96	1648.61
741.14	1712.10
741.32	1765.35
741.50	1638.38
741.68	1871.84
741.86	1757.16
742.04	1660.90
742.22	1644.52
742.40	1759.21
742.58	1703.91
742.76	1699.81
742.94	1773.54
743.12	1607.66
743.30	1736.68
743.48	1738.73
743.66	1722.34
743.84	1714.15
744.02	1658.85
744.20	1722.34
744.38	1630.18
744.56	1568.74
744.74	1804.26
744.92	1669.09
745.10	1791.97
745.28	1841.12
745.46	1691.62
745.64	1714.15
745.82	1732.58
746.00	1714.15
746.18	1779.68
746.36	1691.62
746.54	1648.61
746.72	1673.19
746.90	1624.04
747.08	1849.32
747.26	1677.29
747.44	1751.01
747.62	1746.92
747.80	1681.38
747.98	1767.40
748.15	1691.62
748.33	1763.30
748.51	1716.20
748.69	1808.36
748.87	1609.70
749.05	1669.09
749.23	1660.90
749.41	1769.44
749.59	1724.39
749.77	1755.11
749.95	1685.48
750.13	1619.94
750.31	1843.17
750.49	1701.86
750.67	1746.92
750.85	1789.92
751.03	1714.15
751.20	1775.59
751.38	1609.70
751.56	1683.43
751.74	1701.86
751.92	1646.57
752.10	1550.31
752.28	1804.26
752.46	1601.51
752.64	1675.24
752.82	1734.63
753.00	1761.25
753.18	1662.95
753.35	1646.57
753.53	1714.15
753.71	1738.73
753.89	1822.69
754.07	1671.14
754.25	1751.01
754.43	1718.25
754.61	1648.61
754.79	1767.40
754.97	1697.77
755.14	1755.11
755.32	1650.66
755.50	1791.97
755.68	1736.68
755.86	1652.71
756.04	1683.43
756.22	1603.56
756.40	1675.24
756.57	1785.83
756.75	1656.81
756.93	1734.63
757.11	1718.25
757.29	1648.61
757.47	1685.48
757.65	1609.70
757.82	1636.33
758.00	1654.76
758.18	1669.09
758.36	1751.01
758.54	1828.84
758.72	1646.57
758.90	1726.44
759.07	1775.59
759.25	1593.32
759.43	1699.81
759.61	1621.99
759.79	2176.99
759.97	1652.71
760.15	1751.01
760.32	1679.33
760.50	1714.15
760.68	1771.49
760.86	1636.33
761.04	1773.54
761.22	1716.20
761.39	1685.48
761.57	1675.24
761.75	1644.52
761.93	1667.05
762.11	1714.15
762.28	1695.72
762.46	1619.94
762.64	1748.97
762.82	1615.85
763.00	1722.34
763.18	1775.59
763.35	1615.85
763.53	1763.30
763.71	1701.86
763.89	1755.11
764.07	1685.48
764.24	1634.28
764.42	1691.62
764.60	1718.25
764.78	1654.76
764.96	1812.45
765.13	1746.92
765.31	1693.67
765.49	1796.07
765.67	1673.19
765.84	1652.71
766.02	1691.62
766.20	1578.98
766.38	1755.11
766.56	1722.34
766.73	1783.78
766.91	1662.95
767.09	1685.48
767.27	1808.36
767.44	1667.05
767.62	1703.91
767.80	1669.09
767.98	1626.09
768.15	1734.63
768.33	1701.86
768.51	1742.82
768.69	1699.81
768.87	1693.67
769.04	1722.34
769.22	1896.42
769.40	1767.40
769.58	1787.88
769.75	1779.68
769.93	1843.17
770.11	1724.39
770.28	1673.19
770.46	1740.77
770.64	1722.34
770.82	1689.57
770.99	1681.38
771.17	1624.04
771.35	1695.72
771.53	1675.24
771.70	1703.91
771.88	1681.38
772.06	1798.12
772.23	1595.37
772.41	1763.30
772.59	1673.19
772.77	1675.24
772.94	1648.61
773.12	1771.49
773.30	1705.96
773.47	1681.38
773.65	1632.23
773.83	1789.92
774.01	1662.95
774.18	1624.04
774.36	1689.57
774.54	1652.71
774.71	1761.25
774.89	1634.28
775.07	1544.17
775.24	1699.81
775.42	1671.14
775.60	1808.36
775.78	1681.38
775.95	1626.09
776.13	1634.28
776.31	1521.64
776.48	1728.49
776.66	1767.40
776.84	1611.75
777.01	1687.53
777.19	1617.90
777.37	1724.39
777.54	1783.78
777.72	1845.22
777.90	1701.86
778.07	1642.47
778.25	1839.08
778.43	1669.09
778.60	1665.00
778.78	1744.87
778.96	1763.30
779.13	1632.23
779.31	1740.77
779.49	1679.33
779.66	1685.48
779.84	1746.92
780.01	1617.90
780.19	1681.38
780.37	1800.16
780.54	1767.40
780.72	1677.29
780.90	1683.43
781.07	1699.81
781.25	1634.28
781.43	1748.97
781.60	1730.53
781.78	1791.97
781.95	1677.29
782.13	1677.29
782.31	1708.01
782.48	1644.52
782.66	1673.19
782.83	1800.16
783.01	1716.20
783.19	1783.78
783.36	1730.53
783.54	1658.85
783.72	1794.02
783.89	1652.71
784.07	1712.10
784.24	1724.39
784.42	1861.60
784.60	1665.00
784.77	1722.34
784.95	1587.18
785.12	1574.89
785.30	1685.48
785.47	1697.77
785.65	1609.70
785.83	1726.44
786.00	1665.00
786.18	1654.76
786.35	1660.90
786.53	1636.33
786.71	1783.78
786.88	1740.77
787.06	1615.85
787.23	1634.28
787.41	1685.48
787.58	1621.99
787.76	1632.23
787.94	1746.92
788.11	1732.58
788.29	1642.47
788.46	1691.62
788.64	1658.85
788.81	1595.37
788.99	1667.05
789.16	1548.26
789.34	1699.81
789.52	1619.94
789.69	1617.90
789.87	1583.08
790.04	1665.00
790.22	1753.06
790.39	1808.36
790.57	1597.42
790.74	1726.44
790.92	1718.25
791.09	1621.99
791.27	1642.47
791.44	1751.01
791.62	1578.98
791.79	1753.06
791.97	1736.68
792.15	1837.03
792.32	1775.59
792.50	1673.19
792.67	1757.16
792.85	1736.68
793.02	1789.92
793.20	1640.42
793.37	1646.57
793.55	1619.94
793.72	1665.00
793.90	1705.96
794.07	1714.15
794.25	1751.01
794.42	1703.91
794.60	1665.00
794.77	1662.95
794.95	1746.92
795.12	1744.87
795.30	1654.76
795.47	1626.09
795.65	1853.41
795.82	1761.25
796.00	1681.38
796.17	1697.77
796.34	1669.09
796.52	1767.40
796.69	1796.07
796.87	1761.25
797.04	1740.77
797.22	1787.88
797.39	1730.53
797.57	1748.97
797.74	1710.05
797.92	1769.44
798.09	1654.76
798.27	1697.77
798.44	1636.33
798.62	1689.57
798.79	1761.25
798.96	1748.97
799.14	1605.61
799.31	1814.50
799.49	1679.33
799.66	1611.75
799.84	1781.73
800.01	1601.51
800.19	1705.96
800.36	1630.18
800.53	1726.44
800.71	1691.62
800.88	1828.84
801.06	1636.33
801.23	1640.42
801.41	1644.52
801.58	1554.41
801.75	1665.00
801.93	1665.00
802.10	1775.59
802.28	1705.96
802.45	1607.66
802.63	1730.53
802.80	1703.91
802.97	1755.11
803.15	1677.29
803.32	1593.32
803.50	1644.52
803.67	1652.71
803.84	1587.18
804.02	1730.53
804.19	1646.57
804.37	1611.75
804.54	1681.38
804.71	1691.62
804.89	1640.42
805.06	1601.51
805.24	1607.66
805.41	1673.19
805.58	1611.75
805.76	1824.74
805.93	1689.57
806.10	1744.87
806.28	1771.49
806.45	1675.24
806.63	1705.96
806.80	1781.73
806.97	1722.34
807.15	1740.77
807.32	1691.62
807.49	1757.16
807.67	1593.32
807.84	1708.01
808.01	1558.50
808.19	1800.16
808.36	1814.50
808.54	1697.77
808.71	1718.25
808.88	1712.10
809.06	1736.68
809.23	1703.91
809.40	1734.63
809.58	1703.91
809.75	1730.53
809.92	1595.37
810.10	1816.55
810.27	1691.62
810.44	1693.67
810.62	1738.73
810.79	1730.53
810.96	1677.29
811.14	1697.77
811.31	1808.36
811.48	1746.92
811.66	1785.83
811.83	1744.87
812.00	1746.92
812.18	1669.09
812.35	1841.12
812.52	1734.63
812.69	1656.81
812.87	1685.48
813.04	1722.34
813.21	1705.96
813.39	1621.99
813.56	1607.66
813.73	1830.88
813.91	1615.85
814.08	1718.25
814.25	1714.15
814.42	1634.28
814.60	1636.33
814.77	1716.20
814.94	1648.61
815.12	1716.20
815.29	1732.58
815.46	1677.29
815.63	1652.71
815.81	1695.72
815.98	1662.95
816.15	1699.81
816.33	1695.72
816.50	1667.05
816.67	1705.96
816.84	1646.57
817.02	1632.23
817.19	1652.71
817.36	1710.05
817.53	1730.53
817.71	1679.33
817.88	1742.82
818.05	1665.00
818.22	1644.52
818.40	1755.11
818.57	1648.61
818.74	1687.53
818.91	1703.91
819.09	1701.86
819.26	1794.02
819.43	1630.18
819.60	1687.53
819.78	1708.01
819.95	1744.87
820.12	1660.90
820.29	1705.96
820.47	1740.77
820.64	1650.66
820.81	1642.47
820.98	1535.98
821.15	1658.85
821.33	1720.29
821.50	1648.61
821.67	1779.68
821.84	1630.18
822.02	1761.25
822.19	1652.71
822.36	1677.29
822.53	1683.43
822.70	1628.14
822.88	1683.43
823.05	1789.92
823.22	1632.23
823.39	1703.91
823.56	1656.81
823.74	1841.12
823.91	1640.42
824.08	1642.47
824.25	1638.38
824.42	1757.16
824.60	1621.99
824.77	1675.24
824.94	1632.23
825.11	1771.49
825.28	1634.28
825.45	1654.76
825.63	1716.20
825.80	1714.15
825.97	1787.88
826.14	1648.61
826.31	1644.52
826.48	1806.31
826.66	1609.70
826.83	1724.39
827.00	1638.38
827.17	1687.53
827.34	1640.42
827.51	1691.62
827.69	1691.62
827.86	1624.04
828.03	1732.58
828.20	1689.57
828.37	1632.23
828.54	1681.38
828.71	1648.61
828.89	1794.02
829.06	1802.21
829.23	1753.06
829.40	1689.57
829.57	1605.61
829.74	1695.72
829.91	1718.25
830.09	1658.85
830.26	1726.44
830.43	1763.30
830.60	1679.33
830.77	1753.06
830.94	1773.54
831.11	1759.21
831.28	1693.67
831.46	1775.59
831.63	1691.62
831.80	1708.01
831.97	1687.53
832.14	1595.37
832.31	1789.92
832.48	1763.30
832.65	1746.92
832.82	1714.15
832.99	1714.15
833.17	1708.01
833.34	1800.16
833.51	1720.29
833.68	1638.38
833.85	1726.44
834.02	1621.99
834.19	1599.46
834.36	1669.09
834.53	1736.68
834.70	1744.87
834.87	1705.96
835.04	1738.73
835.22	1681.38
835.39	1687.53
835.56	1636.33
835.73	1742.82
835.90	1710.05
836.07	1685.48
836.24	1765.35
836.41	1597.42
836.58	1640.42
836.75	1732.58
836.92	1734.63
837.09	1718.25
837.26	1617.90
837.43	1701.86
837.60	1726.44
837.77	1669.09
837.94	1691.62
838.12	1748.97
838.29	1677.29
838.46	1605.61
838.63	1611.75
838.80	1765.35
838.97	1748.97
839.14	1652.71
839.31	1746.92
839.48	1648.61
839.65	1703.91
839.82	1689.57
839.99	1761.25
840.16	1732.58
840.33	1630.18
840.50	1722.34
840.67	1599.46
840.84	1626.09
841.01	1716.20
841.18	1652.71
841.35	1665.00
841.52	1771.49
841.69	1720.29
841.86	1652.71
842.03	1789.92
842.20	1730.53
842.37	1775.59
842.54	1636.33
842.71	1724.39
842.88	1701.86
843.05	1746.92
843.22	1601.51
843.39	1751.01
843.56	1693.67
843.73	1714.15
843.90	1689.57
844.07	1669.09
844.24	1718.25
844.41	1748.97
844.58	1574.89
844.75	1697.77
844.92	1693.67
845.09	1677.29
845.26	1677.29
845.43	1718.25
845.60	1740.77
845.77	1757.16
845.94	1675.24
846.10	1802.21
846.27	1570.79
846.44	1621.99
846.61	1685.48
846.78	1755.11
846.95	1708.01
847.12	1636.33
847.29	1736.68
847.46	1636.33
847.63	1732.58
847.80	1624.04
847.97	1708.01
848.14	1730.53
848.31	1753.06
848.48	1619.94
848.65	1728.49
848.82	1656.81
848.98	1800.16
849.15	1755.11
849.32	1740.77
849.49	1714.15
849.66	1714.15
849.83	1685.48
850.00	1634.28
850.17	1726.44
850.34	1617.90
850.51	1660.90
850.68	1662.95
850.85	1783.78
851.01	1732.58
851.18	1748.97
851.35	1624.04
851.52	1779.68
851.69	1734.63
851.86	1636.33
852.03	1699.81
852.20	1677.29
852.37	1615.85
852.53	1669.09
852.70	1669.09
852.87	1673.19
853.04	1673.19
853.21	1716.20
853.38	1712.10
853.55	1763.30
853.72	1763.30
853.89	1640.42
854.05	1630.18
854.22	1689.57
854.39	1652.71
854.56	1728.49
854.73	1748.97
854.90	1662.95
855.07	1665.00
855.23	1656.81
855.40	1640.42
855.57	1638.38
855.74	1630.18
855.91	1800.16
856.08	1578.98
856.25	1660.90
856.41	1648.61
856.58	1665.00
856.75	1701.86
856.92	1685.48
857.09	1742.82
857.26	1603.56
857.42	1730.53
857.59	1714.15
857.76	1652.71
857.93	1718.25
858.10	1767.40
858.27	1621.99
858.43	1687.53
858.60	1652.71
858.77	1638.38
858.94	1679.33
859.11	1785.83
859.27	1603.56
859.44	1652.71
859.61	1863.65
859.78	1648.61
859.95	1726.44
860.12	1619.94
860.28	1808.36
860.45	1800.16
860.62	1691.62
860.79	1671.14
860.95	1646.57
861.12	1619.94
861.29	1693.67
861.46	1724.39
861.63	1708.01
861.79	1738.73
861.96	1648.61
862.13	1578.98
862.30	1775.59
862.47	1689.57
862.63	1640.42
862.80	1742.82
862.97	1740.77
863.14	1755.11
863.30	1767.40
863.47	1673.19
863.64	1787.88
863.81	1701.86
863.97	1603.56
864.14	1796.07
864.31	1708.01
864.48	1722.34
864.65	1701.86
864.81	1732.58
864.98	1654.76
865.15	1771.49
865.32	1693.67
865.48	1720.29
865.65	1853.41
865.82	1654.76
865.98	1726.44
866.15	1738.73
866.32	1609.70
866.49	1658.85
866.65	1716.20
866.82	1656.81
866.99	1701.86
867.16	1650.66
867.32	1710.05
867.49	1730.53
867.66	1638.38
867.83	1656.81
867.99	1669.09
868.16	1720.29
868.33	1697.77
868.49	1675.24
868.66	1669.09
868.83	1777.64
868.99	1714.15
869.16	1687.53
869.33	1787.88
869.50	1693.67
869.66	1708.01
869.83	1757.16
870.00	1685.48
870.16	1714.15
870.33	1736.68
870.50	1738.73
870.66	1675.24
870.83	1855.46
871.00	1705.96
871.17	1691.62
871.33	1697.77
871.50	1695.72
871.67	1642.47
871.83	1730.53
872.00	1826.79
872.17	1718.25
872.33	1751.01
872.50	1738.73
872.67	1699.81
872.83	1732.58
873.00	1703.91
873.17	1718.25
873.33	1714.15
873.50	1644.52
873.67	1595.37
873.83	1740.77
874.00	1712.10
874.16	1740.77
874.33	1701.86
874.50	1626.09
874.66	1757.16
874.83	1640.42
875.00	1746.92
875.16	1753.06
875.33	1757.16
875.50	1525.74
875.66	1673.19
875.83	1751.01
875.99	1755.11
876.16	1667.05
876.33	1683.43
876.49	1708.01
876.66	1734.63
876.83	1673.19
876.99	1519.59
877.16	1691.62
877.32	1705.96
877.49	1648.61
877.66	1728.49
877.82	1771.49
877.99	1687.53
878.15	1757.16
878.32	1734.63
878.49	1636.33
878.65	1658.85
878.82	1742.82
878.98	1693.67
879.15	1718.25
879.32	1771.49
879.48	1722.34
879.65	1650.66
879.81	1699.81
879.98	1673.19
880.15	1667.05
880.31	1767.40
880.48	1658.85
880.64	1683.43
880.81	1726.44
880.97	1767.40
881.14	1779.68
881.31	1603.56
881.47	1781.73
881.64	1703.91
881.80	1564.65
881.97	1751.01
882.13	1779.68
882.30	1689.57
882.47	1673.19
882.63	1593.32
882.80	1658.85
882.96	1701.86
883.13	1691.62
883.29	1712.10
883.46	1753.06
883.62	1718.25
883.79	1669.09
883.95	1716.20
884.12	1703.91
884.29	1724.39
884.45	1679.33
884.62	1779.68
884.78	1636.33
884.95	1675.24
885.11	1550.31
885.28	1734.63
885.44	1689.57
885.61	1744.87
885.77	1701.86
885.94	1761.25
886.10	1691.62
886.27	1658.85
886.43	1845.22
886.60	1808.36
886.76	1662.95
886.93	1671.14
887.09	1685.48
887.26	1615.85
887.42	1695.72
887.59	1736.68
887.75	1781.73
887.92	1753.06
888.08	1783.78
888.25	1726.44
888.41	1742.82
888.58	1748.97
888.74	1675.24
888.91	1617.90
>>>>>End Processed Spectral Data<<<<<
