SpectraSuite Data File
++++++++++++++++++++++++++++++++++++
Date: Mon Jun 06 16:19:37 CEST 2016
User: root
Dark Spectrum Present: No
Reference Spectrum Present: No
Number of Sampled Component Spectra: 1
Spectrometers: USB4C02835
Integration Time (usec): 100000 (USB4C02835)
Spectra Averaged: 1 (USB4C02835)
Boxcar Smoothing: 0 (USB4C02835)
Correct for Electrical Dark: No (USB4C02835)
Strobe/Lamp Enabled: No (USB4C02835)
Correct for Detector Non-linearity: No (USB4C02835)
Correct for Stray Light: No (USB4C02835)
Number of Pixels in Processed Spectrum: 3648
>>>>>Begin Processed Spectral Data<<<<<
177.47	1484.78
177.69	1484.78
177.91	1484.78
178.13	1531.88
178.36	1425.39
178.58	1667.05
178.80	1804.26
179.02	1566.70
179.24	1662.95
179.46	1621.99
179.68	1716.20
179.90	1724.39
180.13	1681.38
180.35	1687.53
180.57	1699.81
180.79	1712.10
181.01	1697.77
181.23	1767.40
181.45	1771.49
181.67	1673.19
181.90	1730.53
182.12	1671.14
182.34	1621.99
182.56	1681.38
182.78	1695.72
183.00	1722.34
183.22	1695.72
183.44	1675.24
183.66	1822.69
183.89	1812.45
184.11	1683.43
184.33	1722.34
184.55	1816.55
184.77	1824.74
184.99	1638.38
185.21	1677.29
185.43	1871.84
185.65	1656.81
185.87	1791.97
186.10	1869.80
186.32	1886.18
186.54	1759.21
186.76	1773.54
186.98	1732.58
187.20	1689.57
187.42	1738.73
187.64	1716.20
187.86	1667.05
188.08	1708.01
188.30	1742.82
188.52	1783.78
188.75	1746.92
188.97	1820.64
189.19	1675.24
189.41	1673.19
189.63	1730.53
189.85	1673.19
190.07	1667.05
190.29	1673.19
190.51	1621.99
190.73	1640.42
190.95	1775.59
191.17	1705.96
191.39	1619.94
191.61	1660.90
191.84	1642.47
192.06	1712.10
192.28	1646.57
192.50	1890.28
192.72	1722.34
192.94	1699.81
193.16	1794.02
193.38	1726.44
193.60	1640.42
193.82	1746.92
194.04	1714.15
194.26	1736.68
194.48	1687.53
194.70	1681.38
194.92	1703.91
195.14	1767.40
195.36	1662.95
195.58	1763.30
195.80	1746.92
196.02	1675.24
196.24	1626.09
196.46	1705.96
196.69	1677.29
196.91	1832.93
197.13	1714.15
197.35	1609.70
197.57	1830.88
197.79	1724.39
198.01	1724.39
198.23	1783.78
198.45	1755.11
198.67	1718.25
198.89	1759.21
199.11	1767.40
199.33	1667.05
199.55	1638.38
199.77	1658.85
199.99	1757.16
200.21	1681.38
200.43	1771.49
200.65	1687.53
200.87	1544.17
201.09	1712.10
201.31	1636.33
201.53	1718.25
201.75	1691.62
201.97	1714.15
202.19	1699.81
202.41	1689.57
202.63	1865.70
202.85	1734.63
203.07	1748.97
203.29	1720.29
203.51	1746.92
203.73	1681.38
203.95	1875.94
204.17	1689.57
204.39	1632.23
204.61	1710.05
204.83	1708.01
205.05	1755.11
205.27	1791.97
205.49	1863.65
205.71	1732.58
205.93	1611.75
206.15	1656.81
206.37	1763.30
206.59	1626.09
206.81	1710.05
207.03	1755.11
207.25	1681.38
207.47	1771.49
207.69	1720.29
207.91	1796.07
208.13	1734.63
208.34	1738.73
208.56	1695.72
208.78	1769.44
209.00	1732.58
209.22	1675.24
209.44	1716.20
209.66	1681.38
209.88	1730.53
210.10	1701.86
210.32	1761.25
210.54	1820.64
210.76	1748.97
210.98	1751.01
211.20	1492.97
211.42	1714.15
211.64	1753.06
211.86	1757.16
212.08	1712.10
212.30	1748.97
212.52	1714.15
212.74	1771.49
212.96	1742.82
213.17	1802.21
213.39	1685.48
213.61	1796.07
213.83	1710.05
214.05	1648.61
214.27	1759.21
214.49	1683.43
214.71	1650.66
214.93	1779.68
215.15	1705.96
215.37	1777.64
215.59	1652.71
215.81	1683.43
216.03	1751.01
216.24	1734.63
216.46	1771.49
216.68	1742.82
216.90	1724.39
217.12	1748.97
217.34	1679.33
217.56	1699.81
217.78	1759.21
218.00	1722.34
218.22	1773.54
218.44	1675.24
218.66	1728.49
218.87	1814.50
219.09	1650.66
219.31	1685.48
219.53	1726.44
219.75	1634.28
219.97	1724.39
220.19	1716.20
220.41	1703.91
220.63	1722.34
220.85	1720.29
221.06	1667.05
221.28	1687.53
221.50	1798.12
221.72	1753.06
221.94	1755.11
222.16	1732.58
222.38	1708.01
222.60	1771.49
222.82	1708.01
223.03	1736.68
223.25	1667.05
223.47	1814.50
223.69	1767.40
223.91	1732.58
224.13	1693.67
224.35	1697.77
224.57	1771.49
224.78	1753.06
225.00	1658.85
225.22	1732.58
225.44	1708.01
225.66	1814.50
225.88	1628.14
226.10	1753.06
226.32	1708.01
226.53	1773.54
226.75	1697.77
226.97	1671.14
227.19	1734.63
227.41	1687.53
227.63	1660.90
227.85	1669.09
228.06	1769.44
228.28	1703.91
228.50	1751.01
228.72	1693.67
228.94	1679.33
229.16	1650.66
229.37	1677.29
229.59	1665.00
229.81	1839.08
230.03	1753.06
230.25	1716.20
230.47	1652.71
230.69	1646.57
230.90	1767.40
231.12	1636.33
231.34	1695.72
231.56	1730.53
231.78	1716.20
232.00	1785.83
232.21	1730.53
232.43	1673.19
232.65	1574.89
232.87	1779.68
233.09	1656.81
233.30	1644.52
233.52	1732.58
233.74	1665.00
233.96	1744.87
234.18	1636.33
234.40	1705.96
234.61	1802.21
234.83	1538.02
235.05	1718.25
235.27	1918.95
235.49	1796.07
235.70	1683.43
235.92	1728.49
236.14	1781.73
236.36	1855.46
236.58	1656.81
236.79	1703.91
237.01	1667.05
237.23	1613.80
237.45	1796.07
237.67	1714.15
237.88	1714.15
238.10	1839.08
238.32	1662.95
238.54	1724.39
238.76	1714.15
238.97	1787.88
239.19	1667.05
239.41	1812.45
239.63	1712.10
239.85	1675.24
240.06	1710.05
240.28	1718.25
240.50	1765.35
240.72	1632.23
240.93	1769.44
241.15	1798.12
241.37	1669.09
241.59	1812.45
241.81	1742.82
242.02	1650.66
242.24	1718.25
242.46	1812.45
242.68	1669.09
242.89	1697.77
243.11	1826.79
243.33	1689.57
243.55	1744.87
243.76	1712.10
243.98	1736.68
244.20	1695.72
244.42	1699.81
244.64	1710.05
244.85	1564.65
245.07	1667.05
245.29	1783.78
245.51	1685.48
245.72	1767.40
245.94	1757.16
246.16	1714.15
246.38	1820.64
246.59	1665.00
246.81	1652.71
247.03	1730.53
247.24	1607.66
247.46	1701.86
247.68	1748.97
247.90	1701.86
248.11	1718.25
248.33	1804.26
248.55	1722.34
248.77	1734.63
248.98	1712.10
249.20	1832.93
249.42	1710.05
249.64	1689.57
249.85	1665.00
250.07	1660.90
250.29	1775.59
250.50	1689.57
250.72	1642.47
250.94	1714.15
251.16	1832.93
251.37	1824.74
251.59	1761.25
251.81	1826.79
252.02	1843.17
252.24	1677.29
252.46	1830.88
252.68	1667.05
252.89	1675.24
253.11	1576.94
253.33	1869.80
253.54	1814.50
253.76	1665.00
253.98	1667.05
254.20	1693.67
254.41	1683.43
254.63	1710.05
254.85	1615.85
255.06	1722.34
255.28	1787.88
255.50	1734.63
255.71	1632.23
255.93	1644.52
256.15	1660.90
256.36	1703.91
256.58	1681.38
256.80	1722.34
257.02	1660.90
257.23	1695.72
257.45	1763.30
257.67	1724.39
257.88	1652.71
258.10	1748.97
258.32	1636.33
258.53	1730.53
258.75	1812.45
258.97	1665.00
259.18	1687.53
259.40	1687.53
259.62	1800.16
259.83	1775.59
260.05	1753.06
260.27	2039.78
260.48	1763.30
260.70	1665.00
260.92	1697.77
261.13	1681.38
261.35	1705.96
261.57	1740.77
261.78	1583.08
262.00	1705.96
262.22	1771.49
262.43	1730.53
262.65	1718.25
262.86	1662.95
263.08	1822.69
263.30	1720.29
263.51	1644.52
263.73	1699.81
263.95	1724.39
264.16	1691.62
264.38	1638.38
264.60	1656.81
264.81	1662.95
265.03	1718.25
265.25	1773.54
265.46	1669.09
265.68	1744.87
265.89	1652.71
266.11	1607.66
266.33	1691.62
266.54	1734.63
266.76	1714.15
266.98	1755.11
267.19	1837.03
267.41	1791.97
267.62	1755.11
267.84	1640.42
268.06	1767.40
268.27	1701.86
268.49	1658.85
268.70	1814.50
268.92	1714.15
269.14	1632.23
269.35	1648.61
269.57	1685.48
269.79	1755.11
270.00	1683.43
270.22	1796.07
270.43	1769.44
270.65	1587.18
270.87	1658.85
271.08	1732.58
271.30	1714.15
271.51	1693.67
271.73	1755.11
271.95	1857.51
272.16	1685.48
272.38	1787.88
272.59	1605.61
272.81	1798.12
273.02	1701.86
273.24	1712.10
273.46	1791.97
273.67	1732.58
273.89	1693.67
274.10	1691.62
274.32	1857.51
274.54	1722.34
274.75	1765.35
274.97	1744.87
275.18	1755.11
275.40	1726.44
275.61	1718.25
275.83	1687.53
276.05	1603.56
276.26	1734.63
276.48	1746.92
276.69	1665.00
276.91	1738.73
277.12	1777.64
277.34	1787.88
277.55	1820.64
277.77	1738.73
277.99	1656.81
278.20	1621.99
278.42	1658.85
278.63	1613.80
278.85	1677.29
279.06	1671.14
279.28	1753.06
279.49	1832.93
279.71	1787.88
279.93	1753.06
280.14	1757.16
280.36	1705.96
280.57	1785.83
280.79	1652.71
281.00	1628.14
281.22	1679.33
281.43	1796.07
281.65	1619.94
281.86	1708.01
282.08	1761.25
282.29	1802.21
282.51	1615.85
282.73	1705.96
282.94	1574.89
283.16	1765.35
283.37	1851.36
283.59	1773.54
283.80	1691.62
284.02	1695.72
284.23	1773.54
284.45	1667.05
284.66	1673.19
284.88	1683.43
285.09	1701.86
285.31	1767.40
285.52	1736.68
285.74	1601.51
285.95	1722.34
286.17	1693.67
286.38	1800.16
286.60	1683.43
286.81	1642.47
287.03	1714.15
287.24	1714.15
287.46	1832.93
287.67	1779.68
287.89	1804.26
288.10	1634.28
288.32	1804.26
288.53	1732.58
288.75	1722.34
288.96	1769.44
289.18	1777.64
289.39	1710.05
289.61	1816.55
289.82	1888.23
290.04	1736.68
290.25	1695.72
290.47	1642.47
290.68	1742.82
290.90	1769.44
291.11	1669.09
291.33	1761.25
291.54	1648.61
291.76	1626.09
291.97	1695.72
292.18	1765.35
292.40	1654.76
292.61	1669.09
292.83	1824.74
293.04	1669.09
293.26	1736.68
293.47	1771.49
293.69	1665.00
293.90	1783.78
294.12	1753.06
294.33	1705.96
294.55	1718.25
294.76	1689.57
294.97	1863.65
295.19	1873.89
295.40	1669.09
295.62	1763.30
295.83	1771.49
296.05	1683.43
296.26	1810.40
296.48	1738.73
296.69	1714.15
296.90	1705.96
297.12	1718.25
297.33	1812.45
297.55	1695.72
297.76	1742.82
297.98	1804.26
298.19	1742.82
298.41	1695.72
298.62	1697.77
298.83	1826.79
299.05	1761.25
299.26	1722.34
299.48	1708.01
299.69	1767.40
299.90	1716.20
300.12	1718.25
300.33	1767.40
300.55	1716.20
300.76	1781.73
300.98	1628.14
301.19	1800.16
301.40	1689.57
301.62	1677.29
301.83	1738.73
302.05	1716.20
302.26	1726.44
302.47	1736.68
302.69	1681.38
302.90	1732.58
303.12	1650.66
303.33	1685.48
303.54	1785.83
303.76	1671.14
303.97	1679.33
304.19	1738.73
304.40	1738.73
304.61	1763.30
304.83	1820.64
305.04	1806.31
305.26	1705.96
305.47	1701.86
305.68	1669.09
305.90	1648.61
306.11	1783.78
306.33	1681.38
306.54	1705.96
306.75	1665.00
306.97	1685.48
307.18	1748.97
307.39	1757.16
307.61	1781.73
307.82	1650.66
308.04	1736.68
308.25	1681.38
308.46	1724.39
308.68	1742.82
308.89	1689.57
309.10	1834.98
309.32	1724.39
309.53	1628.14
309.74	1746.92
309.96	1665.00
310.17	1701.86
310.39	1673.19
310.60	1800.16
310.81	1724.39
311.03	1644.52
311.24	1751.01
311.45	1667.05
311.67	1849.32
311.88	1748.97
312.09	1732.58
312.31	1640.42
312.52	1802.21
312.73	1667.05
312.95	1681.38
313.16	1617.90
313.37	1736.68
313.59	1720.29
313.80	1757.16
314.01	1785.83
314.23	1665.00
314.44	1681.38
314.65	1677.29
314.87	1712.10
315.08	1662.95
315.29	1644.52
315.51	1705.96
315.72	1646.57
315.93	1826.79
316.15	1787.88
316.36	1671.14
316.57	1689.57
316.79	1775.59
317.00	1699.81
317.21	1730.53
317.43	1595.37
317.64	1789.92
317.85	1665.00
318.07	1714.15
318.28	1656.81
318.49	1820.64
318.70	1918.95
318.92	1867.75
319.13	1849.32
319.34	1888.23
319.56	1779.68
319.77	1767.40
319.98	1748.97
320.20	1832.93
320.41	1755.11
320.62	1800.16
320.83	1714.15
321.05	1904.61
321.26	1767.40
321.47	1722.34
321.69	1806.31
321.90	1673.19
322.11	1716.20
322.32	1748.97
322.54	1777.64
322.75	1656.81
322.96	1806.31
323.18	1679.33
323.39	1617.90
323.60	1599.46
323.81	1826.79
324.03	1703.91
324.24	1763.30
324.45	1757.16
324.66	1751.01
324.88	1804.26
325.09	1804.26
325.30	1708.01
325.52	1771.49
325.73	1769.44
325.94	1642.47
326.15	1648.61
326.37	1675.24
326.58	1779.68
326.79	1861.60
327.00	1667.05
327.22	1695.72
327.43	1669.09
327.64	1681.38
327.85	1683.43
328.07	1779.68
328.28	1855.46
328.49	1732.58
328.70	1734.63
328.92	1708.01
329.13	1677.29
329.34	1720.29
329.55	1769.44
329.76	1769.44
329.98	1718.25
330.19	1789.92
330.40	1785.83
330.61	1669.09
330.83	1759.21
331.04	1654.76
331.25	1728.49
331.46	1640.42
331.68	1652.71
331.89	1775.59
332.10	1714.15
332.31	1652.71
332.52	1701.86
332.74	1767.40
332.95	1640.42
333.16	1607.66
333.37	1783.78
333.58	1781.73
333.80	1736.68
334.01	1673.19
334.22	1708.01
334.43	1720.29
334.64	1791.97
334.86	1691.62
335.07	1648.61
335.28	1822.69
335.49	1599.46
335.70	1779.68
335.92	1806.31
336.13	1779.68
336.34	1804.26
336.55	1755.11
336.76	1703.91
336.98	1605.61
337.19	1757.16
337.40	1744.87
337.61	1845.22
337.82	1703.91
338.04	1779.68
338.25	1595.37
338.46	1759.21
338.67	1652.71
338.88	1624.04
339.09	1634.28
339.31	1665.00
339.52	1724.39
339.73	1681.38
339.94	1722.34
340.15	1716.20
340.36	1748.97
340.58	1732.58
340.79	1691.62
341.00	1701.86
341.21	1673.19
341.42	1847.27
341.63	1689.57
341.85	1865.70
342.06	1744.87
342.27	1611.75
342.48	1798.12
342.69	1642.47
342.90	1722.34
343.12	1712.10
343.33	1724.39
343.54	1748.97
343.75	1765.35
343.96	1738.73
344.17	1708.01
344.38	1683.43
344.60	1714.15
344.81	1673.19
345.02	1669.09
345.23	1773.54
345.44	1818.60
345.65	1744.87
345.86	1722.34
346.07	1671.14
346.29	1673.19
346.50	1757.16
346.71	1716.20
346.92	1794.02
347.13	1841.12
347.34	1687.53
347.55	1716.20
347.76	1740.77
347.98	1617.90
348.19	1714.15
348.40	1751.01
348.61	1718.25
348.82	1804.26
349.03	1722.34
349.24	1716.20
349.45	1769.44
349.66	1630.18
349.88	1742.82
350.09	1693.67
350.30	1783.78
350.51	1761.25
350.72	1769.44
350.93	1689.57
351.14	1699.81
351.35	1724.39
351.56	1769.44
351.77	1697.77
351.99	1650.66
352.20	1812.45
352.41	1765.35
352.62	1660.90
352.83	1732.58
353.04	1769.44
353.25	1687.53
353.46	1730.53
353.67	1755.11
353.88	1621.99
354.09	1767.40
354.30	1693.67
354.52	1787.88
354.73	1656.81
354.94	1677.29
355.15	1732.58
355.36	1865.70
355.57	1658.85
355.78	1845.22
355.99	1570.79
356.20	1626.09
356.41	1775.59
356.62	1791.97
356.83	1710.05
357.04	1834.98
357.25	1556.46
357.46	1748.97
357.68	1587.18
357.89	1697.77
358.10	1751.01
358.31	1718.25
358.52	1734.63
358.73	1658.85
358.94	1673.19
359.15	1658.85
359.36	1718.25
359.57	1691.62
359.78	1716.20
359.99	1814.50
360.20	1644.52
360.41	1742.82
360.62	1816.55
360.83	1730.53
361.04	1794.02
361.25	1716.20
361.46	1824.74
361.67	1771.49
361.88	1798.12
362.09	1738.73
362.30	1691.62
362.51	1607.66
362.72	1755.11
362.93	1751.01
363.14	1816.55
363.35	1677.29
363.56	1636.33
363.78	1730.53
363.99	1892.32
364.20	1683.43
364.41	1724.39
364.62	1849.32
364.83	1705.96
365.04	1671.14
365.25	1726.44
365.46	1806.31
365.67	1703.91
365.88	1658.85
366.09	1730.53
366.30	1638.38
366.51	1761.25
366.72	1611.75
366.93	1630.18
367.14	1757.16
367.35	1740.77
367.56	1751.01
367.77	1828.84
367.98	1689.57
368.18	1800.16
368.39	1742.82
368.60	1773.54
368.81	1746.92
369.02	1714.15
369.23	1734.63
369.44	1638.38
369.65	1697.77
369.86	1755.11
370.07	1804.26
370.28	1714.15
370.49	1753.06
370.70	1740.77
370.91	1636.33
371.12	1611.75
371.33	1716.20
371.54	1734.63
371.75	1781.73
371.96	1603.56
372.17	1748.97
372.38	1742.82
372.59	1763.30
372.80	1718.25
373.01	1656.81
373.22	1724.39
373.43	1718.25
373.64	1662.95
373.85	1767.40
374.06	1851.36
374.26	1726.44
374.47	1720.29
374.68	1759.21
374.89	1761.25
375.10	1748.97
375.31	1806.31
375.52	1789.92
375.73	1730.53
375.94	1675.24
376.15	1814.50
376.36	1683.43
376.57	1687.53
376.78	1652.71
376.99	1738.73
377.20	1710.05
377.40	1708.01
377.61	1781.73
377.82	1636.33
378.03	1777.64
378.24	1769.44
378.45	1710.05
378.66	1748.97
378.87	1644.52
379.08	1632.23
379.29	1673.19
379.50	1761.25
379.71	1753.06
379.91	1746.92
380.12	1712.10
380.33	1699.81
380.54	1681.38
380.75	1669.09
380.96	1791.97
381.17	1796.07
381.38	1718.25
381.59	1701.86
381.80	1648.61
382.00	1853.41
382.21	1708.01
382.42	1732.58
382.63	1886.18
382.84	1748.97
383.05	1773.54
383.26	1808.36
383.47	1771.49
383.68	1699.81
383.88	1789.92
384.09	1710.05
384.30	1843.17
384.51	1714.15
384.72	1683.43
384.93	1611.75
385.14	1714.15
385.35	1785.83
385.55	1673.19
385.76	1877.99
385.97	1716.20
386.18	1656.81
386.39	1714.15
386.60	1740.77
386.81	1671.14
387.02	1646.57
387.22	1662.95
387.43	1767.40
387.64	1857.51
387.85	1861.60
388.06	2248.67
388.27	4114.37
388.48	6524.83
388.68	8251.27
388.89	9308.02
389.10	9611.12
389.31	8396.67
389.52	7462.80
389.73	6608.80
389.93	6111.14
390.14	5666.73
390.35	5066.67
390.56	4591.55
390.77	3667.91
390.98	3022.80
391.18	2471.90
391.39	2136.03
391.60	1755.11
391.81	1896.42
392.02	1755.11
392.23	1837.03
392.43	1753.06
392.64	1787.88
392.85	1705.96
393.06	1853.41
393.27	1691.62
393.47	1683.43
393.68	1703.91
393.89	1724.39
394.10	1796.07
394.31	1734.63
394.52	1658.85
394.72	1742.82
394.93	1761.25
395.14	1658.85
395.35	1726.44
395.56	1701.86
395.76	1755.11
395.97	1744.87
396.18	1875.94
396.39	1847.27
396.60	2031.58
396.80	1918.95
397.01	1894.37
397.22	1875.94
397.43	1875.94
397.64	1660.90
397.84	1804.26
398.05	1841.12
398.26	1724.39
398.47	1767.40
398.67	1765.35
398.88	1753.06
399.09	1767.40
399.30	1646.57
399.51	1806.31
399.71	1691.62
399.92	1722.34
400.13	1804.26
400.34	1716.20
400.54	1722.34
400.75	1798.12
400.96	1736.68
401.17	1832.93
401.37	1765.35
401.58	1691.62
401.79	1662.95
402.00	1826.79
402.21	2021.35
402.41	1986.53
402.62	2013.15
402.83	2101.22
403.04	1945.57
403.24	2090.98
403.45	1849.32
403.66	1935.33
403.87	1851.36
404.07	1953.76
404.28	1959.91
404.49	1853.41
404.70	1800.16
404.90	1763.30
405.11	1742.82
405.32	1730.53
405.52	1648.61
405.73	1689.57
405.94	1665.00
406.15	1736.68
406.35	1677.29
406.56	1751.01
406.77	1751.01
406.98	1785.83
407.18	1722.34
407.39	1812.45
407.60	1667.05
407.80	1718.25
408.01	1763.30
408.22	1695.72
408.43	1650.66
408.63	1787.88
408.84	1769.44
409.05	1808.36
409.25	1697.77
409.46	1685.48
409.67	1673.19
409.88	1689.57
410.08	1671.14
410.29	1730.53
410.50	1839.08
410.70	1794.02
410.91	1705.96
411.12	1810.40
411.32	1648.61
411.53	1763.30
411.74	1775.59
411.95	1783.78
412.15	1724.39
412.36	1781.73
412.57	1761.25
412.77	1748.97
412.98	1689.57
413.19	1748.97
413.39	1710.05
413.60	1880.04
413.81	1798.12
414.01	1581.03
414.22	1714.15
414.43	1783.78
414.63	1710.05
414.84	1773.54
415.05	1660.90
415.25	1615.85
415.46	1746.92
415.67	1773.54
415.87	1763.30
416.08	1710.05
416.29	1701.86
416.49	1785.83
416.70	1695.72
416.91	1722.34
417.11	1722.34
417.32	1730.53
417.53	1806.31
417.73	1771.49
417.94	1695.72
418.15	1777.64
418.35	1738.73
418.56	1728.49
418.77	1808.36
418.97	1767.40
419.18	1726.44
419.38	1593.32
419.59	1734.63
419.80	1761.25
420.00	1691.62
420.21	1746.92
420.42	1791.97
420.62	1775.59
420.83	1716.20
421.04	1728.49
421.24	1744.87
421.45	1791.97
421.65	1761.25
421.86	1701.86
422.07	1787.88
422.27	1736.68
422.48	1730.53
422.69	1687.53
422.89	1710.05
423.10	1638.38
423.30	1654.76
423.51	1681.38
423.72	1724.39
423.92	1726.44
424.13	1667.05
424.33	1703.91
424.54	1867.75
424.75	1757.16
424.95	1806.31
425.16	1712.10
425.36	1742.82
425.57	1771.49
425.78	1728.49
425.98	1738.73
426.19	1720.29
426.39	1703.91
426.60	1654.76
426.81	1875.94
427.01	1677.29
427.22	1669.09
427.42	1714.15
427.63	1667.05
427.83	1800.16
428.04	1820.64
428.25	1746.92
428.45	1806.31
428.66	1794.02
428.86	1767.40
429.07	1689.57
429.28	1744.87
429.48	1697.77
429.69	1681.38
429.89	1738.73
430.10	1654.76
430.30	1693.67
430.51	1757.16
430.71	1703.91
430.92	1736.68
431.13	1716.20
431.33	1794.02
431.54	1804.26
431.74	1857.51
431.95	1855.46
432.15	1693.67
432.36	1765.35
432.56	1730.53
432.77	1802.21
432.98	1820.64
433.18	1781.73
433.39	1748.97
433.59	1787.88
433.80	1853.41
434.00	1857.51
434.21	1708.01
434.41	1710.05
434.62	1837.03
434.82	1662.95
435.03	1724.39
435.23	1759.21
435.44	1669.09
435.64	1748.97
435.85	1783.78
436.06	1828.84
436.26	1728.49
436.47	1658.85
436.67	1691.62
436.88	1656.81
437.08	1759.21
437.29	1658.85
437.49	1785.83
437.70	1820.64
437.90	1742.82
438.11	1947.62
438.31	1742.82
438.52	1927.14
438.72	1978.34
438.93	1886.18
439.13	1812.45
439.34	1886.18
439.54	1761.25
439.75	1869.80
439.95	1751.01
440.16	1669.09
440.36	1712.10
440.57	1693.67
440.77	1738.73
440.98	1763.30
441.18	1712.10
441.39	1695.72
441.59	1726.44
441.80	1857.51
442.00	1699.81
442.21	1845.22
442.41	1658.85
442.62	1855.46
442.82	1718.25
443.02	1751.01
443.23	1744.87
443.43	1662.95
443.64	1724.39
443.84	1720.29
444.05	1894.37
444.25	1724.39
444.46	1724.39
444.66	1781.73
444.87	1763.30
445.07	1634.28
445.28	1730.53
445.48	1800.16
445.69	1787.88
445.89	1832.93
446.09	1748.97
446.30	2023.39
446.50	2564.06
446.71	3817.41
446.91	4372.41
447.12	4622.27
447.32	4814.77
447.53	4290.49
447.73	3807.17
447.93	3381.20
448.14	3368.91
448.34	3139.54
448.55	2850.77
448.75	2930.64
448.96	2734.04
449.16	2416.60
449.36	2242.53
449.57	2090.98
449.77	1896.42
449.98	1812.45
450.18	1818.60
450.39	1781.73
450.59	1812.45
450.79	1812.45
451.00	1740.77
451.20	1759.21
451.41	1775.59
451.61	1748.97
451.81	1669.09
452.02	1687.53
452.22	1748.97
452.43	1718.25
452.63	1665.00
452.84	1791.97
453.04	1785.83
453.24	1830.88
453.45	1691.62
453.65	1753.06
453.86	1820.64
454.06	1843.17
454.26	1740.77
454.47	1677.29
454.67	1808.36
454.87	1714.15
455.08	1722.34
455.28	1783.78
455.49	1730.53
455.69	1703.91
455.89	1781.73
456.10	1791.97
456.30	1755.11
456.51	1824.74
456.71	1761.25
456.91	1746.92
457.12	1751.01
457.32	1746.92
457.52	1759.21
457.73	1736.68
457.93	1812.45
458.14	1691.62
458.34	1701.86
458.54	1755.11
458.75	1724.39
458.95	1738.73
459.15	1763.30
459.36	1773.54
459.56	1738.73
459.76	1814.50
459.97	1746.92
460.17	1771.49
460.37	1837.03
460.58	1712.10
460.78	1796.07
460.99	1697.77
461.19	1714.15
461.39	1701.86
461.60	1773.54
461.80	1730.53
462.00	1685.48
462.21	1710.05
462.41	1619.94
462.61	1691.62
462.82	1665.00
463.02	1781.73
463.22	1714.15
463.43	1800.16
463.63	1654.76
463.83	1830.88
464.04	1828.84
464.24	1693.67
464.44	1697.77
464.64	1794.02
464.85	1837.03
465.05	1834.98
465.25	1757.16
465.46	1677.29
465.66	1902.56
465.86	1775.59
466.07	1734.63
466.27	1677.29
466.47	1679.33
466.68	1624.04
466.88	1900.52
467.08	1779.68
467.29	1712.10
467.49	1720.29
467.69	1738.73
467.89	1800.16
468.10	1740.77
468.30	1742.82
468.50	1720.29
468.71	1810.40
468.91	1609.70
469.11	1857.51
469.31	1746.92
469.52	1662.95
469.72	1863.65
469.92	1841.12
470.13	1779.68
470.33	1789.92
470.53	1796.07
470.73	2050.02
470.94	2357.21
471.14	2394.08
471.34	2457.56
471.54	2490.33
471.75	2299.87
471.95	2097.12
472.15	2099.17
472.36	2088.93
472.56	2115.55
472.76	2021.35
472.96	1935.33
473.17	1904.61
473.37	1898.47
473.57	1787.88
473.77	1804.26
473.98	1808.36
474.18	1732.58
474.38	1912.80
474.58	1669.09
474.79	1677.29
474.99	1824.74
475.19	1806.31
475.39	1660.90
475.60	1738.73
475.80	1738.73
476.00	1755.11
476.20	1753.06
476.41	1722.34
476.61	1871.84
476.81	1718.25
477.01	1626.09
477.21	1810.40
477.42	1804.26
477.62	1703.91
477.82	1746.92
478.02	1660.90
478.23	1738.73
478.43	1648.61
478.63	1681.38
478.83	1644.52
479.03	1755.11
479.24	1773.54
479.44	1894.37
479.64	1689.57
479.84	1718.25
480.04	1669.09
480.25	1800.16
480.45	1681.38
480.65	1736.68
480.85	1722.34
481.06	1726.44
481.26	1775.59
481.46	1714.15
481.66	1753.06
481.86	1730.53
482.06	1812.45
482.27	1720.29
482.47	1685.48
482.67	1755.11
482.87	1708.01
483.07	1726.44
483.28	1638.38
483.48	1687.53
483.68	1705.96
483.88	1718.25
484.08	1615.85
484.29	1611.75
484.49	1730.53
484.69	1697.77
484.89	1914.85
485.09	1734.63
485.29	1800.16
485.50	1785.83
485.70	1722.34
485.90	1798.12
486.10	1791.97
486.30	1773.54
486.50	1759.21
486.71	1728.49
486.91	1742.82
487.11	1822.69
487.31	1701.86
487.51	1726.44
487.71	1646.57
487.91	1695.72
488.12	1753.06
488.32	1574.89
488.52	1710.05
488.72	1669.09
488.92	1703.91
489.12	1744.87
489.32	1755.11
489.53	1755.11
489.73	1636.33
489.93	1828.84
490.13	1669.09
490.33	1646.57
490.53	1800.16
490.73	1822.69
490.94	1538.02
491.14	1789.92
491.34	1867.75
491.54	2164.70
491.74	2564.06
491.94	2879.44
492.14	2990.03
492.34	2969.55
492.54	2807.77
492.75	2439.13
492.95	2328.54
493.15	2269.15
493.35	2344.92
493.55	2248.67
493.75	2109.41
493.95	2156.51
494.15	2033.63
494.35	1896.42
494.56	1841.12
494.76	1755.11
494.96	1824.74
495.16	1804.26
495.36	1630.18
495.56	1794.02
495.76	1759.21
495.96	1640.42
496.16	1699.81
496.36	1865.70
496.56	1757.16
496.77	1771.49
496.97	1705.96
497.17	1812.45
497.37	1683.43
497.57	1693.67
497.77	1718.25
497.97	1671.14
498.17	1744.87
498.37	1730.53
498.57	1777.64
498.77	1677.29
498.97	1832.93
499.17	1804.26
499.38	1746.92
499.58	1812.45
499.78	1769.44
499.98	1849.32
500.18	1712.10
500.38	1765.35
500.58	2019.30
500.78	2502.62
500.98	4519.87
501.18	5775.27
501.38	6616.99
501.58	6969.24
501.78	6561.69
501.98	5392.30
502.18	5042.10
502.38	4392.89
502.58	4208.58
502.78	3786.69
502.98	3598.28
503.18	3407.82
503.38	3139.54
503.59	2799.57
503.79	2633.69
503.99	2461.66
504.19	2250.72
504.39	2136.03
504.59	2136.03
504.79	2119.65
504.99	2095.07
505.19	1976.29
505.39	1847.27
505.59	2000.87
505.79	1970.15
505.99	1857.51
506.19	1841.12
506.39	1871.84
506.59	1708.01
506.79	1736.68
506.99	1791.97
507.19	1796.07
507.39	1808.36
507.59	1689.57
507.79	1691.62
507.99	1716.20
508.19	1720.29
508.39	1789.92
508.59	1744.87
508.79	1830.88
508.99	1861.60
509.19	1722.34
509.39	1812.45
509.59	1689.57
509.79	1683.43
509.99	1714.15
510.19	1847.27
510.39	1851.36
510.59	1785.83
510.79	1724.39
510.99	1730.53
511.19	1779.68
511.39	1775.59
511.59	1859.56
511.79	1775.59
511.99	1755.11
512.19	1785.83
512.38	1730.53
512.58	1775.59
512.78	1755.11
512.98	1839.08
513.18	1898.47
513.38	1646.57
513.58	1761.25
513.78	1714.15
513.98	1603.56
514.18	1722.34
514.38	1746.92
514.58	1755.11
514.78	1683.43
514.98	1669.09
515.18	1746.92
515.38	1677.29
515.58	1912.80
515.78	1732.58
515.98	1789.92
516.18	1800.16
516.38	1746.92
516.57	1757.16
516.77	1740.77
516.97	1757.16
517.17	1751.01
517.37	1736.68
517.57	1716.20
517.77	1712.10
517.97	1703.91
518.17	1798.12
518.37	1710.05
518.57	1705.96
518.77	1748.97
518.97	1851.36
519.16	1703.91
519.36	1873.89
519.56	1732.58
519.76	1728.49
519.96	1742.82
520.16	1830.88
520.36	1697.77
520.56	1732.58
520.76	1730.53
520.96	1685.48
521.16	1822.69
521.35	1783.78
521.55	1865.70
521.75	1746.92
521.95	1683.43
522.15	1705.96
522.35	1566.70
522.55	1701.86
522.75	1820.64
522.95	1740.77
523.14	1667.05
523.34	1716.20
523.54	1808.36
523.74	1726.44
523.94	1785.83
524.14	1640.42
524.34	1701.86
524.54	1830.88
524.73	1697.77
524.93	1742.82
525.13	1691.62
525.33	1681.38
525.53	1820.64
525.73	1718.25
525.93	1757.16
526.13	1753.06
526.32	1726.44
526.52	1816.55
526.72	1853.41
526.92	1746.92
527.12	1648.61
527.32	1667.05
527.52	1675.24
527.71	1794.02
527.91	1642.47
528.11	1687.53
528.31	1812.45
528.51	1734.63
528.71	1755.11
528.90	1832.93
529.10	1837.03
529.30	1769.44
529.50	1593.32
529.70	1718.25
529.90	1722.34
530.09	1757.16
530.29	1665.00
530.49	1783.78
530.69	1873.89
530.89	1738.73
531.09	1787.88
531.28	1652.71
531.48	1771.49
531.68	1697.77
531.88	1714.15
532.08	1730.53
532.28	1714.15
532.47	1779.68
532.67	1830.88
532.87	1806.31
533.07	1710.05
533.27	1804.26
533.46	1775.59
533.66	1722.34
533.86	1716.20
534.06	1708.01
534.26	1771.49
534.45	1742.82
534.65	1757.16
534.85	1789.92
535.05	1722.34
535.25	1755.11
535.44	1589.22
535.64	1851.36
535.84	1665.00
536.04	1777.64
536.24	1740.77
536.43	1757.16
536.63	1726.44
536.83	1712.10
537.03	1699.81
537.22	1619.94
537.42	1683.43
537.62	1710.05
537.82	1705.96
538.02	1877.99
538.21	1818.60
538.41	1824.74
538.61	1765.35
538.81	1820.64
539.00	1898.47
539.20	1714.15
539.40	1746.92
539.60	1744.87
539.79	1806.31
539.99	1761.25
540.19	1611.75
540.39	1689.57
540.58	1730.53
540.78	1787.88
540.98	1751.01
541.18	1826.79
541.37	1802.21
541.57	1808.36
541.77	1816.55
541.97	1755.11
542.16	1585.13
542.36	1781.73
542.56	1787.88
542.76	1867.75
542.95	1730.53
543.15	1814.50
543.35	1767.40
543.54	1675.24
543.74	1738.73
543.94	1765.35
544.14	1839.08
544.33	1755.11
544.53	1726.44
544.73	1775.59
544.93	1712.10
545.12	1671.14
545.32	1669.09
545.52	1742.82
545.71	1660.90
545.91	1728.49
546.11	1716.20
546.30	1730.53
546.50	1724.39
546.70	1722.34
546.90	1763.30
547.09	1576.94
547.29	1726.44
547.49	1761.25
547.68	1699.81
547.88	1679.33
548.08	1759.21
548.27	2179.04
548.47	1701.86
548.67	1773.54
548.87	1816.55
549.06	1712.10
549.26	1820.64
549.46	1767.40
549.65	1703.91
549.85	1730.53
550.05	1751.01
550.24	1677.29
550.44	1755.11
550.64	1722.34
550.83	1724.39
551.03	1746.92
551.23	1818.60
551.42	1751.01
551.62	1744.87
551.82	1777.64
552.01	1808.36
552.21	1832.93
552.41	1763.30
552.60	1787.88
552.80	1740.77
553.00	1677.29
553.19	1736.68
553.39	1781.73
553.59	1619.94
553.78	1796.07
553.98	1738.73
554.17	1646.57
554.37	1765.35
554.57	1767.40
554.76	1603.56
554.96	1691.62
555.16	1751.01
555.35	1794.02
555.55	1701.86
555.75	1701.86
555.94	1826.79
556.14	1697.77
556.33	1802.21
556.53	1765.35
556.73	1767.40
556.92	1810.40
557.12	1886.18
557.32	1853.41
557.51	1853.41
557.71	1785.83
557.90	1902.56
558.10	1886.18
558.30	1765.35
558.49	1759.21
558.69	1759.21
558.88	1808.36
559.08	1767.40
559.28	1740.77
559.47	1779.68
559.67	1665.00
559.86	1869.80
560.06	1742.82
560.26	1697.77
560.45	1804.26
560.65	1693.67
560.84	1757.16
561.04	1808.36
561.24	1734.63
561.43	1681.38
561.63	1834.98
561.82	1699.81
562.02	1779.68
562.22	1738.73
562.41	1757.16
562.61	1746.92
562.80	1728.49
563.00	1931.23
563.19	1845.22
563.39	1789.92
563.59	1800.16
563.78	1673.19
563.98	1650.66
564.17	1683.43
564.37	1607.66
564.56	1689.57
564.76	1681.38
564.96	1779.68
565.15	1800.16
565.35	1814.50
565.54	1693.67
565.74	1832.93
565.93	1806.31
566.13	1751.01
566.32	1845.22
566.52	1812.45
566.71	1787.88
566.91	1779.68
567.11	1701.86
567.30	1763.30
567.50	1761.25
567.69	1804.26
567.89	1775.59
568.08	1757.16
568.28	1732.58
568.47	1634.28
568.67	1806.31
568.86	1730.53
569.06	1765.35
569.25	1714.15
569.45	1708.01
569.64	1779.68
569.84	1765.35
570.04	1777.64
570.23	1710.05
570.43	1730.53
570.62	1808.36
570.82	1877.99
571.01	1742.82
571.21	1712.10
571.40	1646.57
571.60	1759.21
571.79	1771.49
571.99	1777.64
572.18	1640.42
572.38	1789.92
572.57	1787.88
572.77	1791.97
572.96	1859.56
573.16	1742.82
573.35	1785.83
573.55	1871.84
573.74	1798.12
573.94	1746.92
574.13	1681.38
574.33	1785.83
574.52	1849.32
574.71	1800.16
574.91	1769.44
575.10	1687.53
575.30	1705.96
575.49	1705.96
575.69	1726.44
575.88	1757.16
576.08	1695.72
576.27	1710.05
576.47	1736.68
576.66	1910.75
576.86	1767.40
577.05	1871.84
577.25	1810.40
577.44	1877.99
577.64	1847.27
577.83	1798.12
578.02	1701.86
578.22	1873.89
578.41	1769.44
578.61	1714.15
578.80	1734.63
579.00	1644.52
579.19	1761.25
579.39	1742.82
579.58	1861.60
579.77	1724.39
579.97	1732.58
580.16	1812.45
580.36	1824.74
580.55	1822.69
580.75	1806.31
580.94	1779.68
581.13	1849.32
581.33	1861.60
581.52	1751.01
581.72	1849.32
581.91	1908.71
582.11	1632.23
582.30	1796.07
582.49	1828.84
582.69	1865.70
582.88	1783.78
583.08	1863.65
583.27	1783.78
583.47	1753.06
583.66	1779.68
583.85	1767.40
584.05	1796.07
584.24	1794.02
584.44	1871.84
584.63	1849.32
584.82	1865.70
585.02	1931.23
585.21	1853.41
585.41	1814.50
585.60	1859.56
585.79	1847.27
585.99	1837.03
586.18	1877.99
586.37	2160.61
586.57	3317.71
586.76	9774.95
586.96	24336.01
587.15	33707.52
587.34	39607.72
587.54	41325.96
587.73	35646.94
587.93	25724.54
588.12	21110.46
588.31	17907.44
588.51	16008.97
588.70	14772.00
588.89	13707.05
589.09	12162.89
589.28	10821.47
589.47	9254.77
589.67	7651.21
589.86	6338.46
590.06	4855.73
590.25	3928.00
590.44	3102.67
590.64	2535.39
590.83	2318.30
591.02	2107.36
591.22	2015.20
591.41	1869.80
591.60	1837.03
591.80	1949.67
591.99	1712.10
592.18	1753.06
592.38	1847.27
592.57	1796.07
592.76	1849.32
592.96	1810.40
593.15	1787.88
593.34	1824.74
593.54	1779.68
593.73	1822.69
593.92	1718.25
594.12	1728.49
594.31	1718.25
594.50	1828.84
594.70	1746.92
594.89	1933.28
595.08	1650.66
595.28	1828.84
595.47	1896.42
595.66	1787.88
595.86	1636.33
596.05	1654.76
596.24	1632.23
596.43	1837.03
596.63	1812.45
596.82	1789.92
597.01	1820.64
597.21	1824.74
597.40	1775.59
597.59	1751.01
597.79	1722.34
597.98	1759.21
598.17	1810.40
598.36	1720.29
598.56	1738.73
598.75	1718.25
598.94	1708.01
599.14	1816.55
599.33	1644.52
599.52	1738.73
599.71	1751.01
599.91	1751.01
600.10	1789.92
600.29	1724.39
600.48	1828.84
600.68	1779.68
600.87	1832.93
601.06	1722.34
601.26	1730.53
601.45	1832.93
601.64	1722.34
601.83	1771.49
602.03	1669.09
602.22	1654.76
602.41	1867.75
602.60	1863.65
602.80	1802.21
602.99	1714.15
603.18	1720.29
603.37	1796.07
603.57	1816.55
603.76	1804.26
603.95	1806.31
604.14	1763.30
604.34	1789.92
604.53	1687.53
604.72	1755.11
604.91	1806.31
605.10	1806.31
605.30	1640.42
605.49	1896.42
605.68	1859.56
605.87	1789.92
606.07	1787.88
606.26	1769.44
606.45	1761.25
606.64	1738.73
606.84	1710.05
607.03	1728.49
607.22	1720.29
607.41	1640.42
607.60	1687.53
607.80	1771.49
607.99	1744.87
608.18	1755.11
608.37	1658.85
608.56	1640.42
608.76	1765.35
608.95	1849.32
609.14	1769.44
609.33	1757.16
609.52	1865.70
609.72	1701.86
609.91	1841.12
610.10	1710.05
610.29	1849.32
610.48	1763.30
610.68	1785.83
610.87	1767.40
611.06	1720.29
611.25	1783.78
611.44	1853.41
611.63	1708.01
611.83	1877.99
612.02	1746.92
612.21	1746.92
612.40	1708.01
612.59	1638.38
612.79	1669.09
612.98	1736.68
613.17	1802.21
613.36	1746.92
613.55	1800.16
613.74	1681.38
613.93	1656.81
614.13	1718.25
614.32	1740.77
614.51	1716.20
614.70	1753.06
614.89	1744.87
615.08	1724.39
615.28	2082.78
615.47	1714.15
615.66	1697.77
615.85	1726.44
616.04	1933.28
616.23	1712.10
616.42	1730.53
616.62	1714.15
616.81	1832.93
617.00	1710.05
617.19	1796.07
617.38	1755.11
617.57	1767.40
617.76	1769.44
617.95	1791.97
618.15	1744.87
618.34	1787.88
618.53	1656.81
618.72	1816.55
618.91	1800.16
619.10	1810.40
619.29	1734.63
619.48	1710.05
619.68	1738.73
619.87	1656.81
620.06	1722.34
620.25	1679.33
620.44	1687.53
620.63	1695.72
620.82	1714.15
621.01	1787.88
621.20	1742.82
621.39	1740.77
621.59	1724.39
621.78	1775.59
621.97	1791.97
622.16	1828.84
622.35	1753.06
622.54	1726.44
622.73	1798.12
622.92	1660.90
623.11	1839.08
623.30	1685.48
623.49	1783.78
623.68	1699.81
623.88	1812.45
624.07	1765.35
624.26	1765.35
624.45	1796.07
624.64	1675.24
624.83	1771.49
625.02	1720.29
625.21	1753.06
625.40	1691.62
625.59	1886.18
625.78	1691.62
625.97	1742.82
626.16	1726.44
626.35	1705.96
626.54	1779.68
626.74	1839.08
626.93	1644.52
627.12	1716.20
627.31	1753.06
627.50	1722.34
627.69	1800.16
627.88	1642.47
628.07	1718.25
628.26	1718.25
628.45	1705.96
628.64	1660.90
628.83	1669.09
629.02	1708.01
629.21	1757.16
629.40	1798.12
629.59	1695.72
629.78	1746.92
629.97	1714.15
630.16	1791.97
630.35	1738.73
630.54	1701.86
630.73	1681.38
630.92	1787.88
631.11	1701.86
631.30	1693.67
631.49	1730.53
631.68	1779.68
631.87	1804.26
632.06	1693.67
632.25	1851.36
632.44	1736.68
632.63	1710.05
632.82	1712.10
633.01	1660.90
633.20	1751.01
633.39	1746.92
633.58	1691.62
633.77	1705.96
633.96	1712.10
634.15	1761.25
634.34	1648.61
634.53	1773.54
634.72	1669.09
634.91	1621.99
635.10	1798.12
635.29	1769.44
635.48	1822.69
635.67	1644.52
635.86	1648.61
636.05	1806.31
636.24	1685.48
636.43	1742.82
636.62	1775.59
636.81	1607.66
637.00	1738.73
637.19	1726.44
637.38	1714.15
637.57	1734.63
637.76	1687.53
637.95	1705.96
638.14	1648.61
638.33	1660.90
638.52	1689.57
638.71	1728.49
638.89	1652.71
639.08	1804.26
639.27	1779.68
639.46	1669.09
639.65	1855.46
639.84	1755.11
640.03	1796.07
640.22	1640.42
640.41	1877.99
640.60	1648.61
640.79	1673.19
640.98	1726.44
641.17	1863.65
641.36	1685.48
641.55	1748.97
641.74	1644.52
641.92	1640.42
642.11	1720.29
642.30	1574.89
642.49	1640.42
642.68	1705.96
642.87	1794.02
643.06	1710.05
643.25	1660.90
643.44	1683.43
643.63	1701.86
643.82	1732.58
644.00	1712.10
644.19	1669.09
644.38	1673.19
644.57	1753.06
644.76	1738.73
644.95	1740.77
645.14	1714.15
645.33	1701.86
645.52	1695.72
645.71	1681.38
645.89	1642.47
646.08	1683.43
646.27	1689.57
646.46	1869.80
646.65	1693.67
646.84	1722.34
647.03	1652.71
647.22	1724.39
647.40	1824.74
647.59	1681.38
647.78	1685.48
647.97	1677.29
648.16	1710.05
648.35	1791.97
648.54	1826.79
648.73	1691.62
648.91	1738.73
649.10	1751.01
649.29	1660.90
649.48	1781.73
649.67	1683.43
649.86	1699.81
650.05	1654.76
650.23	1763.30
650.42	1693.67
650.61	1759.21
650.80	1718.25
650.99	1875.94
651.18	1695.72
651.36	1800.16
651.55	1732.58
651.74	1781.73
651.93	1687.53
652.12	1671.14
652.31	1673.19
652.49	1781.73
652.68	1714.15
652.87	1781.73
653.06	1742.82
653.25	1763.30
653.44	1746.92
653.62	1884.13
653.81	1656.81
654.00	1687.53
654.19	1773.54
654.38	1834.98
654.56	1740.77
654.75	1685.48
654.94	1742.82
655.13	1671.14
655.32	1781.73
655.51	1763.30
655.69	1730.53
655.88	1726.44
656.07	1720.29
656.26	1734.63
656.45	1642.47
656.63	1720.29
656.82	1730.53
657.01	1775.59
657.20	1693.67
657.38	1767.40
657.57	1720.29
657.76	1640.42
657.95	1736.68
658.14	1705.96
658.32	1761.25
658.51	1646.57
658.70	1669.09
658.89	1724.39
659.08	1689.57
659.26	1875.94
659.45	1708.01
659.64	1738.73
659.83	1658.85
660.01	1814.50
660.20	1681.38
660.39	1841.12
660.58	1574.89
660.76	1757.16
660.95	1667.05
661.14	1742.82
661.33	1687.53
661.51	1656.81
661.70	1681.38
661.89	1822.69
662.08	1738.73
662.26	1656.81
662.45	1677.29
662.64	1877.99
662.83	1804.26
663.01	1697.77
663.20	1656.81
663.39	1804.26
663.58	1665.00
663.76	1691.62
663.95	1818.60
664.14	1673.19
664.32	1761.25
664.51	1632.23
664.70	1595.37
664.89	1736.68
665.07	1603.56
665.26	1843.17
665.45	1677.29
665.64	1775.59
665.82	1755.11
666.01	1673.19
666.20	1648.61
666.38	1771.49
666.57	1767.40
666.76	2207.71
666.95	4499.39
667.13	10403.68
667.32	15034.14
667.51	17694.45
667.69	18851.55
667.88	17100.54
668.07	12037.96
668.25	9275.25
668.44	7970.69
668.63	7223.19
668.81	6752.15
669.00	6041.51
669.19	5785.51
669.38	5062.58
669.56	4515.77
669.75	3940.29
669.94	3510.22
670.12	2889.68
670.31	2475.99
670.50	2322.40
670.68	2103.26
670.87	1920.99
671.06	1763.30
671.24	1796.07
671.43	1875.94
671.62	1746.92
671.80	1701.86
671.99	1746.92
672.18	1781.73
672.36	1736.68
672.55	1781.73
672.74	1773.54
672.92	1785.83
673.11	1751.01
673.29	1751.01
673.48	1787.88
673.67	1742.82
673.85	1855.46
674.04	1701.86
674.23	1755.11
674.41	1843.17
674.60	1681.38
674.79	1683.43
674.97	1650.66
675.16	1857.51
675.34	1822.69
675.53	1748.97
675.72	1816.55
675.90	1865.70
676.09	1703.91
676.28	1736.68
676.46	1650.66
676.65	1785.83
676.83	1640.42
677.02	1724.39
677.21	1767.40
677.39	1718.25
677.58	1654.76
677.77	1685.48
677.95	1691.62
678.14	1642.47
678.32	1742.82
678.51	1636.33
678.70	1808.36
678.88	1683.43
679.07	1734.63
679.25	1697.77
679.44	1708.01
679.63	1679.33
679.81	1716.20
680.00	1767.40
680.18	1800.16
680.37	1898.47
680.55	1804.26
680.74	1611.75
680.93	1624.04
681.11	1783.78
681.30	1716.20
681.48	1748.97
681.67	1753.06
681.85	1748.97
682.04	1691.62
682.23	1800.16
682.41	1736.68
682.60	1718.25
682.78	1798.12
682.97	1705.96
683.15	1748.97
683.34	1722.34
683.53	1830.88
683.71	1654.76
683.90	1873.89
684.08	1820.64
684.27	1718.25
684.45	1798.12
684.64	1794.02
684.82	1677.29
685.01	1781.73
685.19	1691.62
685.38	1798.12
685.57	1740.77
685.75	1640.42
685.94	1677.29
686.12	1703.91
686.31	1708.01
686.49	1814.50
686.68	1671.14
686.86	1718.25
687.05	1697.77
687.23	1779.68
687.42	1708.01
687.60	1662.95
687.79	1773.54
687.97	1812.45
688.16	1763.30
688.34	1824.74
688.53	1572.84
688.71	1785.83
688.90	1845.22
689.08	1728.49
689.27	1615.85
689.45	1757.16
689.64	1787.88
689.82	1810.40
690.01	1746.92
690.19	1771.49
690.38	1652.71
690.56	1855.46
690.75	1650.66
690.93	1636.33
691.12	1716.20
691.30	1732.58
691.49	1724.39
691.67	1769.44
691.86	1820.64
692.04	1701.86
692.23	1708.01
692.41	1656.81
692.60	1845.22
692.78	1763.30
692.97	1701.86
693.15	1769.44
693.34	1841.12
693.52	1761.25
693.71	1767.40
693.89	1699.81
694.08	1617.90
694.26	1777.64
694.44	1802.21
694.63	1705.96
694.81	1578.98
695.00	1650.66
695.18	1787.88
695.37	1849.32
695.55	1732.58
695.74	1718.25
695.92	1621.99
696.10	1771.49
696.29	1646.57
696.47	1744.87
696.66	1697.77
696.84	1691.62
697.03	1685.48
697.21	1802.21
697.40	2320.35
697.58	1751.01
697.76	1673.19
697.95	1677.29
698.13	1585.13
698.32	1665.00
698.50	1767.40
698.68	1755.11
698.87	1798.12
699.05	1783.78
699.24	1751.01
699.42	1634.28
699.61	1695.72
699.79	1742.82
699.97	1716.20
700.16	1599.46
700.34	1665.00
700.53	1765.35
700.71	1765.35
700.89	1722.34
701.08	1708.01
701.26	1783.78
701.45	2125.79
701.63	1708.01
701.81	1781.73
702.00	1669.09
702.18	1724.39
702.37	1683.43
702.55	1777.64
702.73	1648.61
702.92	1687.53
703.10	1818.60
703.28	1771.49
703.47	1685.48
703.65	1851.36
703.84	1728.49
704.02	1648.61
704.20	1810.40
704.39	1736.68
704.57	1689.57
704.75	1841.12
704.94	1761.25
705.12	1820.64
705.30	1824.74
705.49	2232.29
705.67	4362.17
705.86	9283.44
706.04	12314.44
706.22	13965.10
706.41	15089.43
706.59	13367.09
706.77	9434.99
706.96	7387.02
707.14	6576.03
707.32	5838.76
707.51	5308.34
707.69	4884.41
707.87	4181.95
708.06	3514.31
708.24	2850.77
708.42	2430.94
708.61	2211.81
708.79	1906.66
708.97	1853.41
709.16	1851.36
709.34	1808.36
709.52	1701.86
709.71	1724.39
709.89	1857.51
710.07	1722.34
710.26	1679.33
710.44	1767.40
710.62	1748.97
710.80	1673.19
710.99	1794.02
711.17	1705.96
711.35	1699.81
711.54	1712.10
711.72	1789.92
711.90	1746.92
712.09	1748.97
712.27	1748.97
712.45	1796.07
712.63	1642.47
712.82	1689.57
713.00	1777.64
713.18	1701.86
713.37	1824.74
713.55	1789.92
713.73	1794.02
713.91	1753.06
714.10	1648.61
714.28	1773.54
714.46	1671.14
714.65	1748.97
714.83	1767.40
715.01	1753.06
715.19	1732.58
715.38	1665.00
715.56	1759.21
715.74	1716.20
715.92	1648.61
716.11	1765.35
716.29	1599.46
716.47	1705.96
716.65	1748.97
716.84	1609.70
717.02	1779.68
717.20	1630.18
717.38	1656.81
717.57	1724.39
717.75	1660.90
717.93	1718.25
718.11	1744.87
718.30	1693.67
718.48	1773.54
718.66	1785.83
718.84	1822.69
719.03	1720.29
719.21	1574.89
719.39	1804.26
719.57	1802.21
719.75	1804.26
719.94	1693.67
720.12	1730.53
720.30	1738.73
720.48	1751.01
720.67	1681.38
720.85	1632.23
721.03	1697.77
721.21	1591.27
721.39	1761.25
721.58	1757.16
721.76	1751.01
721.94	1751.01
722.12	1757.16
722.30	1751.01
722.49	1673.19
722.67	1746.92
722.85	1685.48
723.03	1667.05
723.21	1642.47
723.40	1697.77
723.58	1665.00
723.76	1640.42
723.94	1726.44
724.12	1683.43
724.30	1755.11
724.49	1763.30
724.67	1626.09
724.85	1814.50
725.03	1656.81
725.21	1789.92
725.40	1701.86
725.58	1746.92
725.76	1755.11
725.94	1738.73
726.12	1609.70
726.30	1697.77
726.49	1732.58
726.67	1693.67
726.85	1738.73
727.03	1785.83
727.21	2131.94
727.39	2895.83
727.57	3700.68
727.76	4235.20
727.94	4419.52
728.12	4401.08
728.30	3710.92
728.48	2979.79
728.66	2691.03
728.84	2521.05
729.03	2306.01
729.21	2260.96
729.39	2043.87
729.57	1849.32
729.75	1859.56
729.93	1904.61
730.11	1765.35
730.30	1701.86
730.48	1740.77
730.66	1812.45
730.84	1763.30
731.02	1730.53
731.20	1671.14
731.38	1701.86
731.56	1695.72
731.74	1681.38
731.93	1646.57
732.11	1732.58
732.29	1730.53
732.47	1755.11
732.65	1748.97
732.83	1781.73
733.01	1718.25
733.19	1669.09
733.37	1714.15
733.56	1789.92
733.74	1658.85
733.92	1810.40
734.10	1613.80
734.28	1777.64
734.46	1630.18
734.64	1681.38
734.82	1691.62
735.00	1689.57
735.18	1660.90
735.36	1763.30
735.54	1701.86
735.73	1720.29
735.91	1783.78
736.09	1794.02
736.27	1763.30
736.45	1753.06
736.63	1630.18
736.81	1660.90
736.99	1736.68
737.17	1779.68
737.35	1638.38
737.53	1697.77
737.71	1660.90
737.89	1834.98
738.07	1691.62
738.25	1656.81
738.43	1669.09
738.61	1712.10
738.80	1667.05
738.98	1599.46
739.16	1683.43
739.34	1652.71
739.52	1869.80
739.70	1718.25
739.88	1763.30
740.06	1804.26
740.24	1609.70
740.42	1841.12
740.60	1613.80
740.78	1636.33
740.96	1626.09
741.14	1648.61
741.32	1755.11
741.50	1685.48
741.68	1855.46
741.86	1804.26
742.04	1648.61
742.22	1654.76
742.40	1650.66
742.58	1667.05
742.76	1656.81
742.94	1820.64
743.12	1615.85
743.30	1695.72
743.48	1726.44
743.66	1730.53
743.84	1761.25
744.02	1675.24
744.20	1619.94
744.38	1638.38
744.56	1640.42
744.74	1783.78
744.92	1689.57
745.10	1871.84
745.28	1818.60
745.46	1798.12
745.64	1718.25
745.82	1699.81
746.00	1654.76
746.18	1736.68
746.36	1617.90
746.54	1753.06
746.72	1755.11
746.90	1628.14
747.08	1785.83
747.26	1748.97
747.44	1722.34
747.62	1791.97
747.80	1726.44
747.98	1748.97
748.15	1628.14
748.33	1875.94
748.51	1779.68
748.69	1757.16
748.87	1552.36
749.05	1667.05
749.23	1767.40
749.41	1779.68
749.59	1640.42
749.77	1708.01
749.95	1669.09
750.13	1689.57
750.31	1783.78
750.49	1751.01
750.67	1751.01
750.85	1839.08
751.03	1763.30
751.20	1826.79
751.38	1720.29
751.56	1681.38
751.74	1751.01
751.92	1671.14
752.10	1595.37
752.28	1777.64
752.46	1660.90
752.64	1695.72
752.82	1677.29
753.00	1796.07
753.18	1683.43
753.35	1658.85
753.53	1681.38
753.71	1730.53
753.89	1746.92
754.07	1748.97
754.25	1742.82
754.43	1751.01
754.61	1552.36
754.79	1781.73
754.97	1742.82
755.14	1722.34
755.32	1628.14
755.50	1730.53
755.68	1689.57
755.86	1542.12
756.04	1695.72
756.22	1634.28
756.40	1626.09
756.57	1857.51
756.75	1650.66
756.93	1824.74
757.11	1779.68
757.29	1648.61
757.47	1648.61
757.65	1681.38
757.82	1548.26
758.00	1662.95
758.18	1673.19
758.36	1673.19
758.54	1765.35
758.72	1630.18
758.90	1738.73
759.07	1720.29
759.25	1716.20
759.43	1755.11
759.61	1712.10
759.79	2189.28
759.97	1751.01
760.15	1665.00
760.32	1652.71
760.50	1640.42
760.68	1814.50
760.86	1673.19
761.04	1781.73
761.22	1740.77
761.39	1771.49
761.57	1746.92
761.75	1626.09
761.93	1708.01
762.11	1759.21
762.28	1724.39
762.46	1685.48
762.64	1783.78
762.82	1566.70
763.00	1607.66
763.18	1753.06
763.35	1546.22
763.53	1861.60
763.71	1732.58
763.89	1685.48
764.07	1708.01
764.24	1732.58
764.42	1720.29
764.60	1681.38
764.78	1693.67
764.96	1820.64
765.13	1748.97
765.31	1683.43
765.49	1705.96
765.67	1665.00
765.84	1650.66
766.02	1679.33
766.20	1652.71
766.38	1730.53
766.56	1791.97
766.73	1763.30
766.91	1689.57
767.09	1601.51
767.27	1746.92
767.44	1714.15
767.62	1789.92
767.80	1730.53
767.98	1712.10
768.15	1734.63
768.33	1722.34
768.51	1763.30
768.69	1697.77
768.87	1728.49
769.04	1683.43
769.22	1871.84
769.40	1697.77
769.58	1818.60
769.75	1757.16
769.93	1759.21
770.11	1683.43
770.28	1701.86
770.46	1708.01
770.64	1675.24
770.82	1648.61
770.99	1640.42
771.17	1751.01
771.35	1728.49
771.53	1761.25
771.70	1701.86
771.88	1714.15
772.06	1738.73
772.23	1677.29
772.41	1726.44
772.59	1757.16
772.77	1662.95
772.94	1701.86
773.12	1722.34
773.30	1701.86
773.47	1708.01
773.65	1714.15
773.83	1818.60
774.01	1634.28
774.18	1566.70
774.36	1738.73
774.54	1718.25
774.71	1759.21
774.89	1595.37
775.07	1705.96
775.24	1757.16
775.42	1685.48
775.60	1781.73
775.78	1742.82
775.95	1589.22
776.13	1566.70
776.31	1540.07
776.48	1755.11
776.66	1744.87
776.84	1726.44
777.01	1701.86
777.19	1726.44
777.37	1656.81
777.54	1726.44
777.72	1910.75
777.90	1740.77
778.07	1705.96
778.25	1845.22
778.43	1832.93
778.60	1710.05
778.78	1755.11
778.96	1779.68
779.13	1681.38
779.31	1755.11
779.49	1652.71
779.66	1726.44
779.84	1779.68
780.01	1761.25
780.19	1628.14
780.37	1726.44
780.54	1740.77
780.72	1667.05
780.90	1732.58
781.07	1703.91
781.25	1748.97
781.43	1751.01
781.60	1732.58
781.78	1791.97
781.95	1708.01
782.13	1683.43
782.31	1728.49
782.48	1595.37
782.66	1718.25
782.83	1794.02
783.01	1701.86
783.19	1798.12
783.36	1681.38
783.54	1665.00
783.72	1712.10
783.89	1718.25
784.07	1695.72
784.24	1677.29
784.42	1732.58
784.60	1691.62
784.77	1726.44
784.95	1587.18
785.12	1669.09
785.30	1742.82
785.47	1669.09
785.65	1691.62
785.83	1705.96
786.00	1646.57
786.18	1722.34
786.35	1599.46
786.53	1677.29
786.71	1777.64
786.88	1667.05
787.06	1689.57
787.23	1636.33
787.41	1615.85
787.58	1658.85
787.76	1687.53
787.94	1656.81
788.11	1732.58
788.29	1665.00
788.46	1695.72
788.64	1656.81
788.81	1728.49
788.99	1699.81
789.16	1679.33
789.34	1650.66
789.52	1648.61
789.69	1621.99
789.87	1630.18
790.04	1697.77
790.22	1697.77
790.39	1851.36
790.57	1589.22
790.74	1708.01
790.92	1746.92
791.09	1628.14
791.27	1648.61
791.44	1798.12
791.62	1695.72
791.79	1712.10
791.97	1701.86
792.15	1820.64
792.32	1746.92
792.50	1730.53
792.67	1802.21
792.85	1791.97
793.02	1660.90
793.20	1638.38
793.37	1634.28
793.55	1626.09
793.72	1685.48
793.90	1763.30
794.07	1671.14
794.25	1730.53
794.42	1708.01
794.60	1800.16
794.77	1759.21
794.95	1787.88
795.12	1785.83
795.30	1714.15
795.47	1572.84
795.65	1935.33
795.82	1775.59
796.00	1710.05
796.17	1691.62
796.34	1738.73
796.52	1748.97
796.69	1718.25
796.87	1738.73
797.04	1712.10
797.22	1744.87
797.39	1689.57
797.57	1726.44
797.74	1753.06
797.92	1728.49
798.09	1714.15
798.27	1734.63
798.44	1720.29
798.62	1718.25
798.79	1775.59
798.96	1759.21
799.14	1722.34
799.31	1841.12
799.49	1710.05
799.66	1632.23
799.84	1634.28
800.01	1642.47
800.19	1775.59
800.36	1624.04
800.53	1740.77
800.71	1738.73
800.88	1771.49
801.06	1687.53
801.23	1613.80
801.41	1693.67
801.58	1675.24
801.75	1681.38
801.93	1718.25
802.10	1675.24
802.28	1671.14
802.45	1585.13
802.63	1714.15
802.80	1705.96
802.97	1722.34
803.15	1777.64
803.32	1626.09
803.50	1683.43
803.67	1699.81
803.84	1652.71
804.02	1693.67
804.19	1751.01
804.37	1599.46
804.54	1695.72
804.71	1675.24
804.89	1757.16
805.06	1671.14
805.24	1714.15
805.41	1632.23
805.58	1689.57
805.76	1888.23
805.93	1675.24
806.10	1724.39
806.28	1703.91
806.45	1662.95
806.63	1734.63
806.80	1730.53
806.97	1699.81
807.15	1759.21
807.32	1677.29
807.49	1671.14
807.67	1652.71
807.84	1714.15
808.01	1599.46
808.19	1775.59
808.36	1914.85
808.54	1732.58
808.71	1695.72
808.88	1742.82
809.06	1695.72
809.23	1732.58
809.40	1642.47
809.58	1804.26
809.75	1679.33
809.92	1644.52
810.10	1845.22
810.27	1738.73
810.44	1742.82
810.62	1736.68
810.79	1648.61
810.96	1665.00
811.14	1669.09
811.31	1740.77
811.48	1716.20
811.66	1660.90
811.83	1697.77
812.00	1730.53
812.18	1673.19
812.35	1812.45
812.52	1650.66
812.69	1673.19
812.87	1720.29
813.04	1665.00
813.21	1753.06
813.39	1689.57
813.56	1587.18
813.73	1759.21
813.91	1576.94
814.08	1703.91
814.25	1746.92
814.42	1642.47
814.60	1791.97
814.77	1742.82
814.94	1665.00
815.12	1652.71
815.29	1800.16
815.46	1730.53
815.63	1708.01
815.81	1681.38
815.98	1671.14
816.15	1748.97
816.33	1806.31
816.50	1640.42
816.67	1775.59
816.84	1722.34
817.02	1613.80
817.19	1716.20
817.36	1730.53
817.53	1718.25
817.71	1656.81
817.88	1818.60
818.05	1783.78
818.22	1763.30
818.40	1875.94
818.57	1705.96
818.74	1732.58
818.91	1769.44
819.09	1767.40
819.26	1830.88
819.43	1689.57
819.60	1634.28
819.78	1671.14
819.95	1767.40
820.12	1644.52
820.29	1740.77
820.47	1787.88
820.64	1699.81
820.81	1589.22
820.98	1693.67
821.15	1705.96
821.33	1744.87
821.50	1691.62
821.67	1718.25
821.84	1646.57
822.02	1761.25
822.19	1759.21
822.36	1695.72
822.53	1724.39
822.70	1646.57
822.88	1728.49
823.05	1818.60
823.22	1705.96
823.39	1695.72
823.56	1775.59
823.74	1834.98
823.91	1660.90
824.08	1722.34
824.25	1636.33
824.42	1751.01
824.60	1595.37
824.77	1759.21
824.94	1701.86
825.11	1767.40
825.28	1576.94
825.45	1718.25
825.63	1789.92
825.80	1675.24
825.97	1734.63
826.14	1738.73
826.31	1654.76
826.48	1757.16
826.66	1615.85
826.83	1773.54
827.00	1701.86
827.17	1626.09
827.34	1660.90
827.51	1679.33
827.69	1705.96
827.86	1640.42
828.03	1681.38
828.20	1787.88
828.37	1626.09
828.54	1732.58
828.71	1701.86
828.89	1751.01
829.06	1765.35
829.23	1765.35
829.40	1796.07
829.57	1689.57
829.74	1746.92
829.91	1730.53
830.09	1701.86
830.26	1785.83
830.43	1763.30
830.60	1781.73
830.77	1718.25
830.94	1730.53
831.11	1757.16
831.28	1710.05
831.46	1832.93
831.63	1705.96
831.80	1755.11
831.97	1679.33
832.14	1693.67
832.31	1724.39
832.48	1783.78
832.65	1796.07
832.82	1671.14
832.99	1734.63
833.17	1697.77
833.34	1814.50
833.51	1755.11
833.68	1626.09
833.85	1787.88
834.02	1634.28
834.19	1742.82
834.36	1708.01
834.53	1712.10
834.70	1757.16
834.87	1767.40
835.04	1722.34
835.22	1677.29
835.39	1683.43
835.56	1699.81
835.73	1630.18
835.90	1783.78
836.07	1675.24
836.24	1789.92
836.41	1681.38
836.58	1632.23
836.75	1871.84
836.92	1755.11
837.09	1621.99
837.26	1744.87
837.43	1740.77
837.60	1826.79
837.77	1665.00
837.94	1710.05
838.12	1841.12
838.29	1738.73
838.46	1652.71
838.63	1691.62
838.80	1808.36
838.97	1789.92
839.14	1726.44
839.31	1732.58
839.48	1724.39
839.65	1708.01
839.82	1806.31
839.99	1710.05
840.16	1720.29
840.33	1638.38
840.50	1665.00
840.67	1757.16
840.84	1662.95
841.01	1761.25
841.18	1581.03
841.35	1628.14
841.52	1742.82
841.69	1785.83
841.86	1726.44
842.03	1775.59
842.20	1791.97
842.37	1677.29
842.54	1675.24
842.71	1736.68
842.88	1751.01
843.05	1734.63
843.22	1693.67
843.39	1724.39
843.56	1742.82
843.73	1681.38
843.90	1751.01
844.07	1728.49
844.24	1781.73
844.41	1736.68
844.58	1740.77
844.75	1650.66
844.92	1765.35
845.09	1636.33
845.26	1685.48
845.43	1751.01
845.60	1624.04
845.77	1834.98
845.94	1732.58
846.10	1757.16
846.27	1632.23
846.44	1597.42
846.61	1722.34
846.78	1755.11
846.95	1767.40
847.12	1759.21
847.29	1712.10
847.46	1730.53
847.63	1712.10
847.80	1660.90
847.97	1783.78
848.14	1834.98
848.31	1648.61
848.48	1636.33
848.65	1691.62
848.82	1660.90
848.98	1890.28
849.15	1697.77
849.32	1767.40
849.49	1800.16
849.66	1746.92
849.83	1656.81
850.00	1652.71
850.17	1675.24
850.34	1632.23
850.51	1671.14
850.68	1650.66
850.85	1794.02
851.01	1683.43
851.18	1730.53
851.35	1658.85
851.52	1738.73
851.69	1775.59
851.86	1628.14
852.03	1697.77
852.20	1673.19
852.37	1681.38
852.53	1611.75
852.70	1689.57
852.87	1705.96
853.04	1748.97
853.21	1765.35
853.38	1775.59
853.55	1769.44
853.72	1726.44
853.89	1687.53
854.05	1705.96
854.22	1652.71
854.39	1597.42
854.56	1763.30
854.73	1832.93
854.90	1691.62
855.07	1708.01
855.23	1693.67
855.40	1699.81
855.57	1701.86
855.74	1562.60
855.91	1794.02
856.08	1619.94
856.25	1624.04
856.41	1685.48
856.58	1681.38
856.75	1732.58
856.92	1650.66
857.09	1687.53
857.26	1529.83
857.42	1763.30
857.59	1767.40
857.76	1695.72
857.93	1826.79
858.10	1738.73
858.27	1673.19
858.43	1712.10
858.60	1619.94
858.77	1583.08
858.94	1662.95
859.11	1742.82
859.27	1667.05
859.44	1619.94
859.61	1873.89
859.78	1705.96
859.95	1736.68
860.12	1701.86
860.28	1779.68
860.45	1779.68
860.62	1689.57
860.79	1660.90
860.95	1683.43
861.12	1701.86
861.29	1630.18
861.46	1658.85
861.63	1675.24
861.79	1789.92
861.96	1730.53
862.13	1710.05
862.30	1800.16
862.47	1640.42
862.63	1691.62
862.80	1755.11
862.97	1757.16
863.14	1697.77
863.30	1677.29
863.47	1665.00
863.64	1806.31
863.81	1767.40
863.97	1640.42
864.14	1751.01
864.31	1675.24
864.48	1720.29
864.65	1755.11
864.81	1769.44
864.98	1708.01
865.15	1609.70
865.32	1746.92
865.48	1777.64
865.65	1847.27
865.82	1673.19
865.98	1761.25
866.15	1734.63
866.32	1669.09
866.49	1705.96
866.65	1763.30
866.82	1640.42
866.99	1656.81
867.16	1601.51
867.32	1638.38
867.49	1677.29
867.66	1624.04
867.83	1734.63
867.99	1658.85
868.16	1677.29
868.33	1621.99
868.49	1691.62
868.66	1689.57
868.83	1732.58
868.99	1712.10
869.16	1705.96
869.33	1693.67
869.50	1722.34
869.66	1710.05
869.83	1677.29
870.00	1632.23
870.16	1785.83
870.33	1714.15
870.50	1744.87
870.66	1644.52
870.83	1820.64
871.00	1734.63
871.17	1701.86
871.33	1748.97
871.50	1685.48
871.67	1656.81
871.83	1619.94
872.00	1701.86
872.17	1683.43
872.33	1779.68
872.50	1740.77
872.67	1656.81
872.83	1677.29
873.00	1699.81
873.17	1744.87
873.33	1800.16
873.50	1705.96
873.67	1628.14
873.83	1628.14
874.00	1722.34
874.16	1757.16
874.33	1724.39
874.50	1628.14
874.66	1699.81
874.83	1755.11
875.00	1734.63
875.16	1738.73
875.33	1722.34
875.50	1609.70
875.66	1671.14
875.83	1673.19
875.99	1683.43
876.16	1658.85
876.33	1714.15
876.49	1638.38
876.66	1765.35
876.83	1742.82
876.99	1701.86
877.16	1779.68
877.32	1697.77
877.49	1644.52
877.66	1683.43
877.82	1777.64
877.99	1730.53
878.15	1767.40
878.32	1761.25
878.49	1814.50
878.65	1685.48
878.82	1769.44
878.98	1626.09
879.15	1746.92
879.32	1818.60
879.48	1644.52
879.65	1677.29
879.81	1656.81
879.98	1634.28
880.15	1724.39
880.31	1865.70
880.48	1671.14
880.64	1740.77
880.81	1769.44
880.97	1800.16
881.14	1812.45
881.31	1650.66
881.47	1873.89
881.64	1703.91
881.80	1648.61
881.97	1728.49
882.13	1746.92
882.30	1662.95
882.47	1699.81
882.63	1632.23
882.80	1669.09
882.96	1662.95
883.13	1740.77
883.29	1751.01
883.46	1728.49
883.62	1834.98
883.79	1728.49
883.95	1722.34
884.12	1748.97
884.29	1769.44
884.45	1701.86
884.62	1687.53
884.78	1669.09
884.95	1734.63
885.11	1701.86
885.28	1755.11
885.44	1669.09
885.61	1734.63
885.77	1824.74
885.94	1783.78
886.10	1652.71
886.27	1769.44
886.43	1859.56
886.60	1742.82
886.76	1755.11
886.93	1685.48
887.09	1730.53
887.26	1636.33
887.42	1730.53
887.59	1828.84
887.75	1794.02
887.92	1791.97
888.08	1771.49
888.25	1771.49
888.41	1742.82
888.58	1746.92
888.74	1689.57
888.91	1630.18
>>>>>End Processed Spectral Data<<<<<
