SpectraSuite Data File
++++++++++++++++++++++++++++++++++++
Date: Mon Jun 06 12:27:57 CEST 2016
User: root
Dark Spectrum Present: No
Reference Spectrum Present: No
Number of Sampled Component Spectra: 1
Spectrometers: USB4C02835
Integration Time (usec): 100000 (USB4C02835)
Spectra Averaged: 1 (USB4C02835)
Boxcar Smoothing: 0 (USB4C02835)
Correct for Electrical Dark: No (USB4C02835)
Strobe/Lamp Enabled: No (USB4C02835)
Correct for Detector Non-linearity: No (USB4C02835)
Correct for Stray Light: No (USB4C02835)
Number of Pixels in Processed Spectrum: 3648
>>>>>Begin Processed Spectral Data<<<<<
177.47	1523.69
177.69	1523.69
177.91	1523.69
178.13	1542.12
178.36	1464.30
178.58	1558.50
178.80	1683.43
179.02	1691.62
179.24	1681.38
179.46	1691.62
179.68	1681.38
179.90	1640.42
180.13	1722.34
180.35	1665.00
180.57	1611.75
180.79	1794.02
181.01	1708.01
181.23	1703.91
181.45	1695.72
181.67	1763.30
181.90	1705.96
182.12	1632.23
182.34	1581.03
182.56	1726.44
182.78	1705.96
183.00	1634.28
183.22	1675.24
183.44	1585.13
183.66	1755.11
183.89	1796.07
184.11	1740.77
184.33	1718.25
184.55	1794.02
184.77	1722.34
184.99	1695.72
185.21	1701.86
185.43	1820.64
185.65	1695.72
185.87	1665.00
186.10	1757.16
186.32	1802.21
186.54	1673.19
186.76	1730.53
186.98	1701.86
187.20	1669.09
187.42	1712.10
187.64	1703.91
187.86	1656.81
188.08	1751.01
188.30	1697.77
188.52	1671.14
188.75	1791.97
188.97	1759.21
189.19	1667.05
189.41	1714.15
189.63	1828.84
189.85	1759.21
190.07	1554.41
190.29	1644.52
190.51	1744.87
190.73	1619.94
190.95	1726.44
191.17	1732.58
191.39	1617.90
191.61	1658.85
191.84	1656.81
192.06	1656.81
192.28	1595.37
192.50	1855.46
192.72	1705.96
192.94	1738.73
193.16	1730.53
193.38	1734.63
193.60	1632.23
193.82	1710.05
194.04	1779.68
194.26	1734.63
194.48	1662.95
194.70	1574.89
194.92	1714.15
195.14	1761.25
195.36	1701.86
195.58	1703.91
195.80	1665.00
196.02	1589.22
196.24	1675.24
196.46	1681.38
196.69	1697.77
196.91	1828.84
197.13	1638.38
197.35	1726.44
197.57	1730.53
197.79	1763.30
198.01	1673.19
198.23	1615.85
198.45	1691.62
198.67	1640.42
198.89	1742.82
199.11	1710.05
199.33	1654.76
199.55	1593.32
199.77	1697.77
199.99	1728.49
200.21	1644.52
200.43	1665.00
200.65	1669.09
200.87	1673.19
201.09	1773.54
201.31	1607.66
201.53	1716.20
201.75	1742.82
201.97	1800.16
202.19	1615.85
202.41	1720.29
202.63	1791.97
202.85	1689.57
203.07	1708.01
203.29	1669.09
203.51	1671.14
203.73	1599.46
203.95	1855.46
204.17	1695.72
204.39	1703.91
204.61	1705.96
204.83	1681.38
205.05	1720.29
205.27	1779.68
205.49	1806.31
205.71	1689.57
205.93	1603.56
206.15	1658.85
206.37	1714.15
206.59	1636.33
206.81	1658.85
207.03	1587.18
207.25	1583.08
207.47	1828.84
207.69	1681.38
207.91	1773.54
208.13	1767.40
208.34	1712.10
208.56	1667.05
208.78	1671.14
209.00	1601.51
209.22	1646.57
209.44	1689.57
209.66	1722.34
209.88	1687.53
210.10	1695.72
210.32	1617.90
210.54	1775.59
210.76	1681.38
210.98	1771.49
211.20	1578.98
211.42	1605.61
211.64	1773.54
211.86	1669.09
212.08	1720.29
212.30	1701.86
212.52	1636.33
212.74	1726.44
212.96	1687.53
213.17	1775.59
213.39	1662.95
213.61	1751.01
213.83	1812.45
214.05	1638.38
214.27	1847.27
214.49	1624.04
214.71	1615.85
214.93	1775.59
215.15	1681.38
215.37	1691.62
215.59	1652.71
215.81	1755.11
216.03	1753.06
216.24	1708.01
216.46	1722.34
216.68	1714.15
216.90	1787.88
217.12	1708.01
217.34	1660.90
217.56	1800.16
217.78	1718.25
218.00	1726.44
218.22	1640.42
218.44	1718.25
218.66	1728.49
218.87	1839.08
219.09	1607.66
219.31	1689.57
219.53	1703.91
219.75	1742.82
219.97	1679.33
220.19	1652.71
220.41	1671.14
220.63	1740.77
220.85	1677.29
221.06	1665.00
221.28	1828.84
221.50	1722.34
221.72	1716.20
221.94	1695.72
222.16	1710.05
222.38	1830.88
222.60	1714.15
222.82	1619.94
223.03	1658.85
223.25	1662.95
223.47	1783.78
223.69	1763.30
223.91	1718.25
224.13	1656.81
224.35	1665.00
224.57	1714.15
224.78	1716.20
225.00	1712.10
225.22	1714.15
225.44	1646.57
225.66	1726.44
225.88	1640.42
226.10	1783.78
226.32	1720.29
226.53	1732.58
226.75	1732.58
226.97	1665.00
227.19	1687.53
227.41	1710.05
227.63	1671.14
227.85	1630.18
228.06	1751.01
228.28	1714.15
228.50	1734.63
228.72	1601.51
228.94	1619.94
229.16	1593.32
229.37	1654.76
229.59	1601.51
229.81	1769.44
230.03	1615.85
230.25	1624.04
230.47	1585.13
230.69	1650.66
230.90	1783.78
231.12	1722.34
231.34	1689.57
231.56	1742.82
231.78	1679.33
232.00	1708.01
232.21	1665.00
232.43	1695.72
232.65	1581.03
232.87	1746.92
233.09	1636.33
233.30	1621.99
233.52	1798.12
233.74	1771.49
233.96	1689.57
234.18	1699.81
234.40	1677.29
234.61	1769.44
234.83	1644.52
235.05	1667.05
235.27	1849.32
235.49	1689.57
235.70	1742.82
235.92	1724.39
236.14	1695.72
236.36	1796.07
236.58	1544.17
236.79	1714.15
237.01	1683.43
237.23	1605.61
237.45	1761.25
237.67	1611.75
237.88	1611.75
238.10	1851.36
238.32	1669.09
238.54	1640.42
238.76	1648.61
238.97	1640.42
239.19	1689.57
239.41	1746.92
239.63	1697.77
239.85	1716.20
240.06	1683.43
240.28	1701.86
240.50	1736.68
240.72	1714.15
240.93	1705.96
241.15	1757.16
241.37	1675.24
241.59	1798.12
241.81	1695.72
242.02	1619.94
242.24	1662.95
242.46	1699.81
242.68	1710.05
242.89	1611.75
243.11	1777.64
243.33	1665.00
243.55	1630.18
243.76	1796.07
243.98	1748.97
244.20	1650.66
244.42	1726.44
244.64	1722.34
244.85	1621.99
245.07	1626.09
245.29	1695.72
245.51	1744.87
245.72	1648.61
245.94	1789.92
246.16	1669.09
246.38	1722.34
246.59	1732.58
246.81	1611.75
247.03	1718.25
247.24	1556.46
247.46	1687.53
247.68	1685.48
247.90	1714.15
248.11	1748.97
248.33	1644.52
248.55	1685.48
248.77	1794.02
248.98	1685.48
249.20	1783.78
249.42	1736.68
249.64	1730.53
249.85	1708.01
250.07	1683.43
250.29	1609.70
250.50	1755.11
250.72	1648.61
250.94	1771.49
251.16	1871.84
251.37	1767.40
251.59	1751.01
251.81	1779.68
252.02	1753.06
252.24	1628.14
252.46	1785.83
252.68	1724.39
252.89	1669.09
253.11	1529.83
253.33	1757.16
253.54	1724.39
253.76	1595.37
253.98	1646.57
254.20	1642.47
254.41	1638.38
254.63	1652.71
254.85	1662.95
255.06	1624.04
255.28	1832.93
255.50	1634.28
255.71	1605.61
255.93	1634.28
256.15	1675.24
256.36	1722.34
256.58	1656.81
256.80	1755.11
257.02	1712.10
257.23	1658.85
257.45	1693.67
257.67	1761.25
257.88	1632.23
258.10	1693.67
258.32	1689.57
258.53	1759.21
258.75	1718.25
258.97	1615.85
259.18	1658.85
259.40	1751.01
259.62	1824.74
259.83	1710.05
260.05	1705.96
260.27	1912.80
260.48	1710.05
260.70	1716.20
260.92	1714.15
261.13	1648.61
261.35	1685.48
261.57	1640.42
261.78	1646.57
262.00	1650.66
262.22	1697.77
262.43	1695.72
262.65	1644.52
262.86	1695.72
263.08	1875.94
263.30	1699.81
263.51	1660.90
263.73	1640.42
263.95	1720.29
264.16	1583.08
264.38	1599.46
264.60	1734.63
264.81	1691.62
265.03	1751.01
265.25	1712.10
265.46	1658.85
265.68	1783.78
265.89	1777.64
266.11	1626.09
266.33	1720.29
266.54	1738.73
266.76	1693.67
266.98	1732.58
267.19	1828.84
267.41	1662.95
267.62	1730.53
267.84	1628.14
268.06	1630.18
268.27	1726.44
268.49	1759.21
268.70	1730.53
268.92	1646.57
269.14	1605.61
269.35	1597.42
269.57	1724.39
269.79	1740.77
270.00	1632.23
270.22	1738.73
270.43	1671.14
270.65	1626.09
270.87	1660.90
271.08	1665.00
271.30	1669.09
271.51	1660.90
271.73	1720.29
271.95	1755.11
272.16	1675.24
272.38	1722.34
272.59	1697.77
272.81	1714.15
273.02	1695.72
273.24	1732.58
273.46	1740.77
273.67	1714.15
273.89	1665.00
274.10	1714.15
274.32	1638.38
274.54	1681.38
274.75	1695.72
274.97	1634.28
275.18	1656.81
275.40	1777.64
275.61	1673.19
275.83	1603.56
276.05	1716.20
276.26	1744.87
276.48	1734.63
276.69	1689.57
276.91	1576.94
277.12	1804.26
277.34	1730.53
277.55	1708.01
277.77	1679.33
277.99	1699.81
278.20	1636.33
278.42	1630.18
278.63	1660.90
278.85	1693.67
279.06	1636.33
279.28	1726.44
279.49	1689.57
279.71	1728.49
279.93	1693.67
280.14	1667.05
280.36	1656.81
280.57	1697.77
280.79	1832.93
281.00	1693.67
281.22	1578.98
281.43	1744.87
281.65	1560.55
281.86	1677.29
282.08	1751.01
282.29	1671.14
282.51	1617.90
282.73	1566.70
282.94	1595.37
283.16	1736.68
283.37	1705.96
283.59	1779.68
283.80	1695.72
284.02	1593.32
284.23	1751.01
284.45	1703.91
284.66	1587.18
284.88	1730.53
285.09	1699.81
285.31	1722.34
285.52	1734.63
285.74	1636.33
285.95	1777.64
286.17	1695.72
286.38	1810.40
286.60	1621.99
286.81	1673.19
287.03	1697.77
287.24	1695.72
287.46	1687.53
287.67	1728.49
287.89	1773.54
288.10	1714.15
288.32	1714.15
288.53	1787.88
288.75	1708.01
288.96	1716.20
289.18	1638.38
289.39	1673.19
289.61	1714.15
289.82	1849.32
290.04	1744.87
290.25	1648.61
290.47	1658.85
290.68	1699.81
290.90	1730.53
291.11	1607.66
291.33	1787.88
291.54	1634.28
291.76	1624.04
291.97	1791.97
292.18	1732.58
292.40	1603.56
292.61	1650.66
292.83	1779.68
293.04	1656.81
293.26	1665.00
293.47	1589.22
293.69	1630.18
293.90	1636.33
294.12	1689.57
294.33	1701.86
294.55	1718.25
294.76	1736.68
294.97	1806.31
295.19	1830.88
295.40	1683.43
295.62	1742.82
295.83	1656.81
296.05	1656.81
296.26	1787.88
296.48	1662.95
296.69	1656.81
296.90	1591.27
297.12	1763.30
297.33	1724.39
297.55	1689.57
297.76	1665.00
297.98	1738.73
298.19	1708.01
298.41	1746.92
298.62	1621.99
298.83	1812.45
299.05	1701.86
299.26	1624.04
299.48	1720.29
299.69	1714.15
299.90	1595.37
300.12	1581.03
300.33	1732.58
300.55	1734.63
300.76	1798.12
300.98	1632.23
301.19	1714.15
301.40	1615.85
301.62	1685.48
301.83	1658.85
302.05	1693.67
302.26	1634.28
302.47	1650.66
302.69	1624.04
302.90	1628.14
303.12	1599.46
303.33	1742.82
303.54	1787.88
303.76	1665.00
303.97	1642.47
304.19	1832.93
304.40	1693.67
304.61	1787.88
304.83	1824.74
305.04	1705.96
305.26	1703.91
305.47	1650.66
305.68	1746.92
305.90	1662.95
306.11	1716.20
306.33	1656.81
306.54	1667.05
306.75	1609.70
306.97	1566.70
307.18	1662.95
307.39	1654.76
307.61	1705.96
307.82	1665.00
308.04	1722.34
308.25	1728.49
308.46	1699.81
308.68	1644.52
308.89	1681.38
309.10	1685.48
309.32	1779.68
309.53	1689.57
309.74	1744.87
309.96	1589.22
310.17	1677.29
310.39	1691.62
310.60	1693.67
310.81	1722.34
311.03	1621.99
311.24	1753.06
311.45	1732.58
311.67	1855.46
311.88	1710.05
312.09	1683.43
312.31	1650.66
312.52	1669.09
312.73	1665.00
312.95	1652.71
313.16	1685.48
313.37	1779.68
313.59	1699.81
313.80	1726.44
314.01	1757.16
314.23	1665.00
314.44	1708.01
314.65	1628.14
314.87	1597.42
315.08	1708.01
315.29	1603.56
315.51	1656.81
315.72	1601.51
315.93	1847.27
316.15	1742.82
316.36	1660.90
316.57	1695.72
316.79	1765.35
317.00	1654.76
317.21	1773.54
317.43	1759.21
317.64	1759.21
317.85	1648.61
318.07	1603.56
318.28	1759.21
318.49	1753.06
318.70	1830.88
318.92	1824.74
319.13	1843.17
319.34	1777.64
319.56	1761.25
319.77	1748.97
319.98	1738.73
320.20	1738.73
320.41	1785.83
320.62	1710.05
320.83	1589.22
321.05	1839.08
321.26	1667.05
321.47	1681.38
321.69	1804.26
321.90	1640.42
322.11	1667.05
322.32	1757.16
322.54	1769.44
322.75	1726.44
322.96	1843.17
323.18	1626.09
323.39	1566.70
323.60	1646.57
323.81	1714.15
324.03	1658.85
324.24	1720.29
324.45	1710.05
324.66	1665.00
324.88	1767.40
325.09	1757.16
325.30	1646.57
325.52	1724.39
325.73	1724.39
325.94	1591.27
326.15	1605.61
326.37	1601.51
326.58	1691.62
326.79	1738.73
327.00	1583.08
327.22	1679.33
327.43	1630.18
327.64	1632.23
327.85	1695.72
328.07	1720.29
328.28	1834.98
328.49	1691.62
328.70	1675.24
328.92	1705.96
329.13	1669.09
329.34	1701.86
329.55	1804.26
329.76	1708.01
329.98	1640.42
330.19	1847.27
330.40	1665.00
330.61	1726.44
330.83	1658.85
331.04	1636.33
331.25	1738.73
331.46	1730.53
331.68	1671.14
331.89	1734.63
332.10	1687.53
332.31	1624.04
332.52	1683.43
332.74	1863.65
332.95	1642.47
333.16	1710.05
333.37	1708.01
333.58	1679.33
333.80	1798.12
334.01	1552.36
334.22	1708.01
334.43	1679.33
334.64	1656.81
334.86	1640.42
335.07	1701.86
335.28	1798.12
335.49	1570.79
335.70	1753.06
335.92	1736.68
336.13	1748.97
336.34	1667.05
336.55	1634.28
336.76	1691.62
336.98	1599.46
337.19	1714.15
337.40	1841.12
337.61	1877.99
337.82	1640.42
338.04	1765.35
338.25	1630.18
338.46	1638.38
338.67	1679.33
338.88	1646.57
339.09	1671.14
339.31	1638.38
339.52	1695.72
339.73	1656.81
339.94	1681.38
340.15	1740.77
340.36	1681.38
340.58	1781.73
340.79	1640.42
341.00	1744.87
341.21	1574.89
341.42	1775.59
341.63	1689.57
341.85	1773.54
342.06	1728.49
342.27	1650.66
342.48	1710.05
342.69	1533.93
342.90	1755.11
343.12	1712.10
343.33	1669.09
343.54	1746.92
343.75	1738.73
343.96	1673.19
344.17	1624.04
344.38	1667.05
344.60	1669.09
344.81	1683.43
345.02	1701.86
345.23	1812.45
345.44	1730.53
345.65	1703.91
345.86	1697.77
346.07	1671.14
346.29	1638.38
346.50	1724.39
346.71	1763.30
346.92	1732.58
347.13	1847.27
347.34	1728.49
347.55	1759.21
347.76	1703.91
347.98	1605.61
348.19	1695.72
348.40	1748.97
348.61	1722.34
348.82	1759.21
349.03	1712.10
349.24	1640.42
349.45	1824.74
349.66	1593.32
349.88	1712.10
350.09	1701.86
350.30	1730.53
350.51	1830.88
350.72	1660.90
350.93	1726.44
351.14	1705.96
351.35	1734.63
351.56	1683.43
351.77	1689.57
351.99	1687.53
352.20	1738.73
352.41	1712.10
352.62	1568.74
352.83	1673.19
353.04	1746.92
353.25	1587.18
353.46	1806.31
353.67	1734.63
353.88	1617.90
354.09	1714.15
354.30	1705.96
354.52	1728.49
354.73	1691.62
354.94	1644.52
355.15	1738.73
355.36	1759.21
355.57	1718.25
355.78	1679.33
355.99	1634.28
356.20	1593.32
356.41	1751.01
356.62	1722.34
356.83	1662.95
357.04	1818.60
357.25	1591.27
357.46	1658.85
357.68	1601.51
357.89	1607.66
358.10	1699.81
358.31	1691.62
358.52	1685.48
358.73	1589.22
358.94	1628.14
359.15	1671.14
359.36	1724.39
359.57	1689.57
359.78	1650.66
359.99	1693.67
360.20	1658.85
360.41	1697.77
360.62	1765.35
360.83	1755.11
361.04	1708.01
361.25	1683.43
361.46	1724.39
361.67	1730.53
361.88	1685.48
362.09	1726.44
362.30	1712.10
362.51	1662.95
362.72	1683.43
362.93	1744.87
363.14	1746.92
363.35	1699.81
363.56	1615.85
363.78	1783.78
363.99	1699.81
364.20	1755.11
364.41	1763.30
364.62	1673.19
364.83	1685.48
365.04	1753.06
365.25	1695.72
365.46	1775.59
365.67	1701.86
365.88	1617.90
366.09	1648.61
366.30	1683.43
366.51	1683.43
366.72	1613.80
366.93	1728.49
367.14	1757.16
367.35	1810.40
367.56	1708.01
367.77	1734.63
367.98	1738.73
368.18	1730.53
368.39	1710.05
368.60	1609.70
368.81	1724.39
369.02	1705.96
369.23	1656.81
369.44	1634.28
369.65	1703.91
369.86	1722.34
370.07	1734.63
370.28	1621.99
370.49	1714.15
370.70	1740.77
370.91	1642.47
371.12	1619.94
371.33	1697.77
371.54	1665.00
371.75	1769.44
371.96	1652.71
372.17	1746.92
372.38	1658.85
372.59	1779.68
372.80	1634.28
373.01	1742.82
373.22	1675.24
373.43	1644.52
373.64	1605.61
373.85	1728.49
374.06	1726.44
374.26	1744.87
374.47	1736.68
374.68	1794.02
374.89	1630.18
375.10	1654.76
375.31	1755.11
375.52	1716.20
375.73	1691.62
375.94	1683.43
376.15	1720.29
376.36	1638.38
376.57	1609.70
376.78	1613.80
376.99	1746.92
377.20	1779.68
377.40	1634.28
377.61	1738.73
377.82	1687.53
378.03	1714.15
378.24	1689.57
378.45	1642.47
378.66	1697.77
378.87	1636.33
379.08	1665.00
379.29	1630.18
379.50	1697.77
379.71	1658.85
379.91	1697.77
380.12	1726.44
380.33	1742.82
380.54	1701.86
380.75	1693.67
380.96	1730.53
381.17	1753.06
381.38	1667.05
381.59	1730.53
381.80	1773.54
382.00	1857.51
382.21	1740.77
382.42	1765.35
382.63	1779.68
382.84	1771.49
383.05	1804.26
383.26	1863.65
383.47	1728.49
383.68	1751.01
383.88	1787.88
384.09	1640.42
384.30	1775.59
384.51	1695.72
384.72	1710.05
384.93	1722.34
385.14	1734.63
385.35	1714.15
385.55	1681.38
385.76	1720.29
385.97	1656.81
386.18	1626.09
386.39	1603.56
386.60	1683.43
386.81	1642.47
387.02	1687.53
387.22	1634.28
387.43	1771.49
387.64	1697.77
387.85	1871.84
388.06	2279.39
388.27	4261.82
388.48	6907.80
388.68	8462.21
388.89	10051.43
389.10	9992.04
389.31	8775.55
389.52	7767.95
389.73	7004.05
389.93	6459.29
390.14	5853.09
390.35	5330.86
390.56	4591.55
390.77	3876.80
390.98	3182.54
391.18	2582.49
391.39	2080.74
391.60	1804.26
391.81	1757.16
392.02	1730.53
392.23	1791.97
392.43	1683.43
392.64	1759.21
392.85	1634.28
393.06	1791.97
393.27	1710.05
393.47	1710.05
393.68	1740.77
393.89	1673.19
394.10	1775.59
394.31	1681.38
394.52	1642.47
394.72	1734.63
394.93	1830.88
395.14	1656.81
395.35	1783.78
395.56	1626.09
395.76	1699.81
395.97	1759.21
396.18	1927.14
396.39	1865.70
396.60	1988.58
396.80	1853.41
397.01	1800.16
397.22	1857.51
397.43	1808.36
397.64	1714.15
397.84	1787.88
398.05	1830.88
398.26	1763.30
398.47	1791.97
398.67	1757.16
398.88	1757.16
399.09	1789.92
399.30	1576.94
399.51	1787.88
399.71	1720.29
399.92	1714.15
400.13	1742.82
400.34	1679.33
400.54	1642.47
400.75	1816.55
400.96	1800.16
401.17	1789.92
401.37	1724.39
401.58	1660.90
401.79	1628.14
402.00	1767.40
402.21	2013.15
402.41	1925.09
402.62	1990.63
402.83	2045.92
403.04	1974.24
403.24	2101.22
403.45	1789.92
403.66	1982.43
403.87	1880.04
404.07	1837.03
404.28	1927.14
404.49	1869.80
404.70	1771.49
404.90	1789.92
405.11	1705.96
405.32	1779.68
405.52	1699.81
405.73	1669.09
405.94	1734.63
406.15	1722.34
406.35	1744.87
406.56	1714.15
406.77	1736.68
406.98	1761.25
407.18	1632.23
407.39	1767.40
407.60	1632.23
407.80	1718.25
408.01	1650.66
408.22	1683.43
408.43	1615.85
408.63	1814.50
408.84	1658.85
409.05	1767.40
409.25	1746.92
409.46	1693.67
409.67	1630.18
409.88	1654.76
410.08	1755.11
410.29	1714.15
410.50	1808.36
410.70	1796.07
410.91	1656.81
411.12	1746.92
411.32	1675.24
411.53	1714.15
411.74	1865.70
411.95	1791.97
412.15	1761.25
412.36	1757.16
412.57	1777.64
412.77	1798.12
412.98	1701.86
413.19	1761.25
413.39	1738.73
413.60	1759.21
413.81	1771.49
414.01	1564.65
414.22	1708.01
414.43	1773.54
414.63	1693.67
414.84	1773.54
415.05	1662.95
415.25	1632.23
415.46	1695.72
415.67	1681.38
415.87	1714.15
416.08	1720.29
416.29	1640.42
416.49	1783.78
416.70	1697.77
416.91	1656.81
417.11	1710.05
417.32	1726.44
417.53	1771.49
417.73	1703.91
417.94	1632.23
418.15	1746.92
418.35	1667.05
418.56	1746.92
418.77	1791.97
418.97	1708.01
419.18	1742.82
419.38	1581.03
419.59	1687.53
419.80	1697.77
420.00	1662.95
420.21	1746.92
420.42	1759.21
420.62	1740.77
420.83	1726.44
421.04	1669.09
421.24	1669.09
421.45	1699.81
421.65	1656.81
421.86	1667.05
422.07	1818.60
422.27	1591.27
422.48	1628.14
422.69	1644.52
422.89	1689.57
423.10	1685.48
423.30	1626.09
423.51	1724.39
423.72	1753.06
423.92	1732.58
424.13	1628.14
424.33	1699.81
424.54	1779.68
424.75	1665.00
424.95	1806.31
425.16	1665.00
425.36	1751.01
425.57	1732.58
425.78	1701.86
425.98	1759.21
426.19	1671.14
426.39	1746.92
426.60	1703.91
426.81	1816.55
427.01	1691.62
427.22	1673.19
427.42	1601.51
427.63	1716.20
427.83	1732.58
428.04	1806.31
428.25	1732.58
428.45	1673.19
428.66	1753.06
428.86	1763.30
429.07	1660.90
429.28	1699.81
429.48	1703.91
429.69	1650.66
429.89	1656.81
430.10	1640.42
430.30	1767.40
430.51	1699.81
430.71	1615.85
430.92	1767.40
431.13	1648.61
431.33	1763.30
431.54	1712.10
431.74	1789.92
431.95	1755.11
432.15	1656.81
432.36	1648.61
432.56	1665.00
432.77	1867.75
432.98	1900.52
433.18	1775.59
433.39	1734.63
433.59	1705.96
433.80	1867.75
434.00	1912.80
434.21	1691.62
434.41	1703.91
434.62	1875.94
434.82	1615.85
435.03	1675.24
435.23	1722.34
435.44	1693.67
435.64	1673.19
435.85	1624.04
436.06	1714.15
436.26	1748.97
436.47	1675.24
436.67	1781.73
436.88	1648.61
437.08	1742.82
437.29	1812.45
437.49	1708.01
437.70	1714.15
437.90	1683.43
438.11	1808.36
438.31	1814.50
438.52	1806.31
438.72	1843.17
438.93	1849.32
439.13	1787.88
439.34	1806.31
439.54	1714.15
439.75	1820.64
439.95	1826.79
440.16	1689.57
440.36	1744.87
440.57	1705.96
440.77	1652.71
440.98	1740.77
441.18	1751.01
441.39	1714.15
441.59	1726.44
441.80	1853.41
442.00	1718.25
442.21	1755.11
442.41	1648.61
442.62	1726.44
442.82	1652.71
443.02	1726.44
443.23	1689.57
443.43	1720.29
443.64	1740.77
443.84	1632.23
444.05	1818.60
444.25	1673.19
444.46	1691.62
444.66	1755.11
444.87	1837.03
445.07	1687.53
445.28	1785.83
445.48	1853.41
445.69	1660.90
445.89	1877.99
446.09	1765.35
446.30	1968.10
446.50	2680.79
446.71	3702.73
446.91	4444.09
447.12	4931.51
447.32	4925.36
447.53	4321.21
447.73	3919.81
447.93	3555.27
448.14	3377.10
448.34	3147.73
448.55	2969.55
448.75	2969.55
448.96	2650.07
449.16	2404.32
449.36	2265.05
449.57	2019.30
449.77	1935.33
449.98	1791.97
450.18	1796.07
450.39	1705.96
450.59	1767.40
450.79	1736.68
451.00	1660.90
451.20	1791.97
451.41	1624.04
451.61	1787.88
451.81	1691.62
452.02	1689.57
452.22	1642.47
452.43	1628.14
452.63	1716.20
452.84	1730.53
453.04	1681.38
453.24	1744.87
453.45	1724.39
453.65	1740.77
453.86	1691.62
454.06	1738.73
454.26	1740.77
454.47	1628.14
454.67	1781.73
454.87	1667.05
455.08	1718.25
455.28	1832.93
455.49	1748.97
455.69	1718.25
455.89	1804.26
456.10	1789.92
456.30	1660.90
456.51	1775.59
456.71	1732.58
456.91	1779.68
457.12	1669.09
457.32	1744.87
457.52	1673.19
457.73	1810.40
457.93	1789.92
458.14	1697.77
458.34	1685.48
458.54	1742.82
458.75	1708.01
458.95	1761.25
459.15	1685.48
459.36	1701.86
459.56	1695.72
459.76	1859.56
459.97	1736.68
460.17	1691.62
460.37	1789.92
460.58	1710.05
460.78	1712.10
460.99	1724.39
461.19	1740.77
461.39	1716.20
461.60	1771.49
461.80	1775.59
462.00	1642.47
462.21	1701.86
462.41	1685.48
462.61	1695.72
462.82	1710.05
463.02	1826.79
463.22	1761.25
463.43	1832.93
463.63	1796.07
463.83	1785.83
464.04	1755.11
464.24	1660.90
464.44	1691.62
464.64	1671.14
464.85	1746.92
465.05	1732.58
465.25	1798.12
465.46	1673.19
465.66	1718.25
465.86	1779.68
466.07	1701.86
466.27	1718.25
466.47	1685.48
466.68	1597.42
466.88	1763.30
467.08	1724.39
467.29	1708.01
467.49	1818.60
467.69	1640.42
467.89	1738.73
468.10	1740.77
468.30	1685.48
468.50	1736.68
468.71	1689.57
468.91	1642.47
469.11	1769.44
469.31	1699.81
469.52	1669.09
469.72	1812.45
469.92	1804.26
470.13	1726.44
470.33	1685.48
470.53	1800.16
470.73	2056.16
470.94	2293.72
471.14	2392.03
471.34	2420.70
471.54	2424.80
471.75	2189.28
471.95	2172.89
472.15	2123.74
472.36	2043.87
472.56	2068.45
472.76	2084.83
472.96	1877.99
473.17	1910.75
473.37	1939.43
473.57	1753.06
473.77	1824.74
473.98	1744.87
474.18	1648.61
474.38	1865.70
474.58	1665.00
474.79	1689.57
474.99	1779.68
475.19	1744.87
475.39	1603.56
475.60	1736.68
475.80	1685.48
476.00	1677.29
476.20	1656.81
476.41	1744.87
476.61	1861.60
476.81	1730.53
477.01	1789.92
477.21	1841.12
477.42	1839.08
477.62	1640.42
477.82	1755.11
478.02	1650.66
478.23	1736.68
478.43	1589.22
478.63	1761.25
478.83	1705.96
479.03	1697.77
479.24	1767.40
479.44	1759.21
479.64	1683.43
479.84	1626.09
480.04	1626.09
480.25	1800.16
480.45	1656.81
480.65	1767.40
480.85	1765.35
481.06	1587.18
481.26	1683.43
481.46	1730.53
481.66	1677.29
481.86	1613.80
482.06	1808.36
482.27	1714.15
482.47	1581.03
482.67	1769.44
482.87	1667.05
483.07	1810.40
483.28	1658.85
483.48	1665.00
483.68	1677.29
483.88	1644.52
484.08	1562.60
484.29	1644.52
484.49	1759.21
484.69	1656.81
484.89	1773.54
485.09	1781.73
485.29	1777.64
485.50	1751.01
485.70	1677.29
485.90	1816.55
486.10	1761.25
486.30	1642.47
486.50	1820.64
486.71	1703.91
486.91	1736.68
487.11	1773.54
487.31	1597.42
487.51	1751.01
487.71	1658.85
487.91	1626.09
488.12	1660.90
488.32	1544.17
488.52	1632.23
488.72	1581.03
488.92	1787.88
489.12	1738.73
489.32	1759.21
489.53	1789.92
489.73	1611.75
489.93	1794.02
490.13	1705.96
490.33	1609.70
490.53	1742.82
490.73	1708.01
490.94	1621.99
491.14	1794.02
491.34	1935.33
491.54	2086.88
491.74	2592.73
491.94	2920.40
492.14	2990.03
492.34	3043.28
492.54	2828.24
492.75	2512.86
492.95	2459.61
493.15	2312.16
493.35	2242.53
493.55	2181.09
493.75	2154.46
493.95	2131.94
494.15	2052.06
494.35	1882.08
494.56	1882.08
494.76	1820.64
494.96	1800.16
495.16	1746.92
495.36	1728.49
495.56	1837.03
495.76	1755.11
495.96	1660.90
496.16	1603.56
496.36	1802.21
496.56	1728.49
496.77	1667.05
496.97	1673.19
497.17	1738.73
497.37	1607.66
497.57	1738.73
497.77	1761.25
497.97	1607.66
498.17	1667.05
498.37	1697.77
498.57	1742.82
498.77	1675.24
498.97	1736.68
499.17	1847.27
499.38	1712.10
499.58	1787.88
499.78	1845.22
499.98	1785.83
500.18	1603.56
500.38	1660.90
500.58	1916.90
500.78	2568.15
500.98	4683.70
501.18	5973.92
501.38	6883.22
501.58	7350.16
501.78	6776.73
501.98	5650.35
502.18	4970.42
502.38	4493.24
502.58	4214.72
502.78	3805.13
502.98	3856.33
503.18	3475.40
503.38	3074.00
503.59	2918.36
503.79	2652.12
503.99	2496.47
504.19	2279.39
504.39	2228.19
504.59	2170.85
504.79	2133.98
504.99	2011.11
505.19	1861.60
505.39	1820.64
505.59	1875.94
505.79	1863.65
505.99	1839.08
506.19	1763.30
506.39	1818.60
506.59	1673.19
506.79	1771.49
506.99	1765.35
507.19	1773.54
507.39	1773.54
507.59	1705.96
507.79	1640.42
507.99	1564.65
508.19	1689.57
508.39	1689.57
508.59	1701.86
508.79	1818.60
508.99	1824.74
509.19	1658.85
509.39	1775.59
509.59	1660.90
509.79	1675.24
509.99	1708.01
510.19	1808.36
510.39	1779.68
510.59	1718.25
510.79	1673.19
510.99	1689.57
511.19	1744.87
511.39	1734.63
511.59	1730.53
511.79	1779.68
511.99	1683.43
512.19	1859.56
512.38	1767.40
512.58	1734.63
512.78	1730.53
512.98	1765.35
513.18	1767.40
513.38	1671.14
513.58	1716.20
513.78	1691.62
513.98	1742.82
514.18	1705.96
514.38	1759.21
514.58	1738.73
514.78	1673.19
514.98	1703.91
515.18	1714.15
515.38	1667.05
515.58	1789.92
515.78	1634.28
515.98	1714.15
516.18	1751.01
516.38	1763.30
516.57	1710.05
516.77	1701.86
516.97	1705.96
517.17	1720.29
517.37	1632.23
517.57	1804.26
517.77	1699.81
517.97	1640.42
518.17	1740.77
518.37	1687.53
518.57	1632.23
518.77	1615.85
518.97	1687.53
519.16	1755.11
519.36	1800.16
519.56	1716.20
519.76	1669.09
519.96	1697.77
520.16	1839.08
520.36	1679.33
520.56	1785.83
520.76	1730.53
520.96	1656.81
521.16	1759.21
521.35	1722.34
521.55	1812.45
521.75	1730.53
521.95	1669.09
522.15	1730.53
522.35	1656.81
522.55	1724.39
522.75	1736.68
522.95	1751.01
523.14	1718.25
523.34	1769.44
523.54	1740.77
523.74	1820.64
523.94	1697.77
524.14	1697.77
524.34	1732.58
524.54	1757.16
524.73	1677.29
524.93	1742.82
525.13	1769.44
525.33	1652.71
525.53	1880.04
525.73	1712.10
525.93	1730.53
526.13	1650.66
526.32	1628.14
526.52	1806.31
526.72	1773.54
526.92	1669.09
527.12	1681.38
527.32	1714.15
527.52	1714.15
527.71	1728.49
527.91	1757.16
528.11	1718.25
528.31	1726.44
528.51	1644.52
528.71	1726.44
528.90	1677.29
529.10	1765.35
529.30	1855.46
529.50	1634.28
529.70	1654.76
529.90	1703.91
530.09	1759.21
530.29	1781.73
530.49	1615.85
530.69	1880.04
530.89	1693.67
531.09	1763.30
531.28	1703.91
531.48	1808.36
531.68	1759.21
531.88	1744.87
532.08	1763.30
532.28	1630.18
532.47	1736.68
532.67	1824.74
532.87	1771.49
533.07	1646.57
533.27	1759.21
533.46	1800.16
533.66	1705.96
533.86	1761.25
534.06	1757.16
534.26	1705.96
534.45	1687.53
534.65	1773.54
534.85	1808.36
535.05	1742.82
535.25	1785.83
535.44	1742.82
535.64	1802.21
535.84	1746.92
536.04	1695.72
536.24	1693.67
536.43	1705.96
536.63	1763.30
536.83	1769.44
537.03	1740.77
537.22	1595.37
537.42	1656.81
537.62	1685.48
537.82	1638.38
538.02	1828.84
538.21	1769.44
538.41	1943.52
538.61	1720.29
538.81	1710.05
539.00	1775.59
539.20	1703.91
539.40	1720.29
539.60	1722.34
539.79	1771.49
539.99	1724.39
540.19	1697.77
540.39	1751.01
540.58	1724.39
540.78	1726.44
540.98	1734.63
541.18	1810.40
541.37	1742.82
541.57	1695.72
541.77	1660.90
541.97	1665.00
542.16	1705.96
542.36	1705.96
542.56	1650.66
542.76	1800.16
542.95	1802.21
543.15	1746.92
543.35	1759.21
543.54	1712.10
543.74	1626.09
543.94	1775.59
544.14	1705.96
544.33	1757.16
544.53	1697.77
544.73	1716.20
544.93	1705.96
545.12	1765.35
545.32	1708.01
545.52	1701.86
545.71	1607.66
545.91	1701.86
546.11	1681.38
546.30	1585.13
546.50	1832.93
546.70	1798.12
546.90	1751.01
547.09	1683.43
547.29	1753.06
547.49	1837.03
547.68	1781.73
547.88	1675.24
548.08	1648.61
548.27	2189.28
548.47	1708.01
548.67	1748.97
548.87	1722.34
549.06	1628.14
549.26	1781.73
549.46	1812.45
549.65	1705.96
549.85	1732.58
550.05	1830.88
550.24	1652.71
550.44	1691.62
550.64	1769.44
550.83	1630.18
551.03	1839.08
551.23	1824.74
551.42	1789.92
551.62	1718.25
551.82	1757.16
552.01	1691.62
552.21	1791.97
552.41	1759.21
552.60	1777.64
552.80	1796.07
553.00	1675.24
553.19	1724.39
553.39	1871.84
553.59	1665.00
553.78	1759.21
553.98	1816.55
554.17	1679.33
554.37	1742.82
554.57	1708.01
554.76	1656.81
554.96	1714.15
555.16	1738.73
555.35	1703.91
555.55	1767.40
555.75	1714.15
555.94	1757.16
556.14	1703.91
556.33	1705.96
556.53	1673.19
556.73	1718.25
556.92	1703.91
557.12	1728.49
557.32	1787.88
557.51	1810.40
557.71	1777.64
557.90	1847.27
558.10	1697.77
558.30	1759.21
558.49	1697.77
558.69	1689.57
558.88	1855.46
559.08	1783.78
559.28	1703.91
559.47	1714.15
559.67	1759.21
559.86	1791.97
560.06	1746.92
560.26	1751.01
560.45	1816.55
560.65	1710.05
560.84	1857.51
561.04	1740.77
561.24	1722.34
561.43	1667.05
561.63	1849.32
561.82	1736.68
562.02	1779.68
562.22	1669.09
562.41	1673.19
562.61	1716.20
562.80	1679.33
563.00	1902.56
563.19	1687.53
563.39	1802.21
563.59	1820.64
563.78	1583.08
563.98	1683.43
564.17	1648.61
564.37	1505.26
564.56	1685.48
564.76	1654.76
564.96	1820.64
565.15	1779.68
565.35	1761.25
565.54	1810.40
565.74	1748.97
565.93	1718.25
566.13	1675.24
566.32	1777.64
566.52	1789.92
566.71	1773.54
566.91	1785.83
567.11	1685.48
567.30	1779.68
567.50	1734.63
567.69	1718.25
567.89	1689.57
568.08	1695.72
568.28	1705.96
568.47	1679.33
568.67	1718.25
568.86	1763.30
569.06	1802.21
569.25	1769.44
569.45	1695.72
569.64	1683.43
569.84	1665.00
570.04	1734.63
570.23	1779.68
570.43	1742.82
570.62	1759.21
570.82	1820.64
571.01	1665.00
571.21	1769.44
571.40	1646.57
571.60	1724.39
571.79	1767.40
571.99	1796.07
572.18	1632.23
572.38	1720.29
572.57	1697.77
572.77	1763.30
572.96	1820.64
573.16	1708.01
573.35	1769.44
573.55	1783.78
573.74	1785.83
573.94	1718.25
574.13	1722.34
574.33	1857.51
574.52	1785.83
574.71	1767.40
574.91	1687.53
575.10	1728.49
575.30	1720.29
575.49	1691.62
575.69	1697.77
575.88	1720.29
576.08	1687.53
576.27	1779.68
576.47	1679.33
576.66	1828.84
576.86	1773.54
577.05	1669.09
577.25	1761.25
577.44	1783.78
577.64	1683.43
577.83	1693.67
578.02	1791.97
578.22	1748.97
578.41	1796.07
578.61	1781.73
578.80	1638.38
579.00	1722.34
579.19	1751.01
579.39	1773.54
579.58	1759.21
579.77	1693.67
579.97	1787.88
580.16	1808.36
580.36	1800.16
580.55	1800.16
580.75	1802.21
580.94	1789.92
581.13	1877.99
581.33	1816.55
581.52	1681.38
581.72	1865.70
581.91	1755.11
582.11	1691.62
582.30	1753.06
582.49	1681.38
582.69	1834.98
582.88	1810.40
583.08	1794.02
583.27	1730.53
583.47	1722.34
583.66	1675.24
583.85	1669.09
584.05	1738.73
584.24	1814.50
584.44	1740.77
584.63	1839.08
584.82	1861.60
585.02	1841.12
585.21	1798.12
585.41	1837.03
585.60	1816.55
585.79	1884.13
585.99	1925.09
586.18	1871.84
586.37	2244.57
586.57	3409.87
586.76	10358.63
586.96	25661.05
587.15	36093.40
587.34	41663.88
587.54	43853.15
587.73	38159.80
587.93	27141.73
588.12	22423.21
588.31	19031.77
588.51	16928.51
588.70	15757.07
588.89	14618.40
589.09	12971.83
589.28	11513.68
589.47	9584.49
589.67	8152.96
589.86	6666.14
590.06	5183.41
590.25	4034.50
590.44	3143.63
590.64	2672.60
590.83	2283.49
591.02	2131.94
591.22	1927.14
591.41	1871.84
591.60	1794.02
591.80	1968.10
591.99	1759.21
592.18	1767.40
592.38	1800.16
592.57	1783.78
592.76	1697.77
592.96	1796.07
593.15	1791.97
593.34	1787.88
593.54	1734.63
593.73	1746.92
593.92	1791.97
594.12	1689.57
594.31	1820.64
594.50	1802.21
594.70	1761.25
594.89	1890.28
595.08	1648.61
595.28	1783.78
595.47	1877.99
595.66	1746.92
595.86	1689.57
596.05	1757.16
596.24	1812.45
596.43	1812.45
596.63	1796.07
596.82	1775.59
597.01	1742.82
597.21	1820.64
597.40	1746.92
597.59	1724.39
597.79	1775.59
597.98	1810.40
598.17	1712.10
598.36	1722.34
598.56	1730.53
598.75	1681.38
598.94	1724.39
599.14	1748.97
599.33	1716.20
599.52	1775.59
599.71	1806.31
599.91	1798.12
600.10	1777.64
600.29	1716.20
600.48	1724.39
600.68	1736.68
600.87	1726.44
601.06	1728.49
601.26	1787.88
601.45	1759.21
601.64	1681.38
601.83	1806.31
602.03	1724.39
602.22	1667.05
602.41	1763.30
602.60	1816.55
602.80	1744.87
602.99	1763.30
603.18	1714.15
603.37	1695.72
603.57	1691.62
603.76	1798.12
603.95	1834.98
604.14	1691.62
604.34	1726.44
604.53	1716.20
604.72	1703.91
604.91	1708.01
605.10	1726.44
605.30	1669.09
605.49	1851.36
605.68	1708.01
605.87	1779.68
606.07	1665.00
606.26	1638.38
606.45	1746.92
606.64	1646.57
606.84	1724.39
607.03	1718.25
607.22	1757.16
607.41	1685.48
607.60	1667.05
607.80	1834.98
607.99	1708.01
608.18	1724.39
608.37	1607.66
608.56	1734.63
608.76	1791.97
608.95	1789.92
609.14	1708.01
609.33	1804.26
609.52	1771.49
609.72	1701.86
609.91	1761.25
610.10	1734.63
610.29	1861.60
610.48	1730.53
610.68	1738.73
610.87	1699.81
611.06	1779.68
611.25	1679.33
611.44	1732.58
611.63	1667.05
611.83	1798.12
612.02	1638.38
612.21	1767.40
612.40	1597.42
612.59	1726.44
612.79	1673.19
612.98	1751.01
613.17	1851.36
613.36	1701.86
613.55	1851.36
613.74	1708.01
613.93	1669.09
614.13	1730.53
614.32	1808.36
614.51	1736.68
614.70	1703.91
614.89	1746.92
615.08	1724.39
615.28	2047.97
615.47	1708.01
615.66	1751.01
615.85	1632.23
616.04	1816.55
616.23	1691.62
616.42	1695.72
616.62	1742.82
616.81	1732.58
617.00	1718.25
617.19	1763.30
617.38	1642.47
617.57	1697.77
617.76	1826.79
617.95	1718.25
618.15	1712.10
618.34	1865.70
618.53	1681.38
618.72	1746.92
618.91	1839.08
619.10	1806.31
619.29	1748.97
619.48	1757.16
619.68	1662.95
619.87	1740.77
620.06	1671.14
620.25	1787.88
620.44	1648.61
620.63	1708.01
620.82	1744.87
621.01	1669.09
621.20	1765.35
621.39	1679.33
621.59	1759.21
621.78	1748.97
621.97	1710.05
622.16	1744.87
622.35	1740.77
622.54	1732.58
622.73	1863.65
622.92	1644.52
623.11	1746.92
623.30	1591.27
623.49	1742.82
623.68	1759.21
623.88	1814.50
624.07	1665.00
624.26	1740.77
624.45	1769.44
624.64	1712.10
624.83	1746.92
625.02	1740.77
625.21	1697.77
625.40	1730.53
625.59	1773.54
625.78	1746.92
625.97	1771.49
626.16	1722.34
626.35	1697.77
626.54	1693.67
626.74	1791.97
626.93	1718.25
627.12	1650.66
627.31	1759.21
627.50	1800.16
627.69	1779.68
627.88	1714.15
628.07	1714.15
628.26	1665.00
628.45	1701.86
628.64	1624.04
628.83	1691.62
629.02	1656.81
629.21	1685.48
629.40	1705.96
629.59	1636.33
629.78	1714.15
629.97	1691.62
630.16	1738.73
630.35	1701.86
630.54	1697.77
630.73	1703.91
630.92	1689.57
631.11	1640.42
631.30	1712.10
631.49	1705.96
631.68	1726.44
631.87	1732.58
632.06	1591.27
632.25	1808.36
632.44	1667.05
632.63	1757.16
632.82	1593.32
633.01	1595.37
633.20	1703.91
633.39	1662.95
633.58	1640.42
633.77	1714.15
633.96	1757.16
634.15	1789.92
634.34	1785.83
634.53	1710.05
634.72	1673.19
634.91	1646.57
635.10	1746.92
635.29	1718.25
635.48	1673.19
635.67	1677.29
635.86	1597.42
636.05	1744.87
636.24	1638.38
636.43	1703.91
636.62	1701.86
636.81	1546.22
637.00	1646.57
637.19	1783.78
637.38	1644.52
637.57	1644.52
637.76	1624.04
637.95	1710.05
638.14	1648.61
638.33	1701.86
638.52	1718.25
638.71	1732.58
638.89	1673.19
639.08	1796.07
639.27	1683.43
639.46	1654.76
639.65	1804.26
639.84	1677.29
640.03	1755.11
640.22	1681.38
640.41	1841.12
640.60	1734.63
640.79	1634.28
640.98	1648.61
641.17	1705.96
641.36	1789.92
641.55	1777.64
641.74	1591.27
641.92	1648.61
642.11	1677.29
642.30	1708.01
642.49	1722.34
642.68	1652.71
642.87	1779.68
643.06	1726.44
643.25	1681.38
643.44	1652.71
643.63	1630.18
643.82	1724.39
644.00	1583.08
644.19	1697.77
644.38	1646.57
644.57	1742.82
644.76	1712.10
644.95	1724.39
645.14	1695.72
645.33	1693.67
645.52	1683.43
645.71	1703.91
645.89	1644.52
646.08	1677.29
646.27	1753.06
646.46	1906.66
646.65	1619.94
646.84	1660.90
647.03	1744.87
647.22	1759.21
647.40	1701.86
647.59	1632.23
647.78	1611.75
647.97	1650.66
648.16	1671.14
648.35	1783.78
648.54	1722.34
648.73	1736.68
648.91	1755.11
649.10	1712.10
649.29	1714.15
649.48	1710.05
649.67	1677.29
649.86	1703.91
650.05	1652.71
650.23	1724.39
650.42	1644.52
650.61	1769.44
650.80	1777.64
650.99	1787.88
651.18	1769.44
651.36	1771.49
651.55	1640.42
651.74	1767.40
651.93	1650.66
652.12	1624.04
652.31	1753.06
652.49	1695.72
652.68	1658.85
652.87	1796.07
653.06	1671.14
653.25	1712.10
653.44	1705.96
653.62	1773.54
653.81	1734.63
654.00	1730.53
654.19	1755.11
654.38	1830.88
654.56	1691.62
654.75	1646.57
654.94	1724.39
655.13	1697.77
655.32	1761.25
655.51	1785.83
655.69	1621.99
655.88	1773.54
656.07	1628.14
656.26	1730.53
656.45	1583.08
656.63	1755.11
656.82	1708.01
657.01	1691.62
657.20	1654.76
657.38	1765.35
657.57	1720.29
657.76	1652.71
657.95	1710.05
658.14	1738.73
658.32	1726.44
658.51	1667.05
658.70	1722.34
658.89	1785.83
659.08	1642.47
659.26	1751.01
659.45	1714.15
659.64	1746.92
659.83	1619.94
660.01	1900.52
660.20	1785.83
660.39	1773.54
660.58	1648.61
660.76	1748.97
660.95	1624.04
661.14	1730.53
661.33	1662.95
661.51	1636.33
661.70	1621.99
661.89	1665.00
662.08	1669.09
662.26	1626.09
662.45	1718.25
662.64	1839.08
662.83	1759.21
663.01	1642.47
663.20	1669.09
663.39	1777.64
663.58	1693.67
663.76	1703.91
663.95	1689.57
664.14	1673.19
664.32	1601.51
664.51	1652.71
664.70	1648.61
664.89	1697.77
665.07	1685.48
665.26	1714.15
665.45	1648.61
665.64	1798.12
665.82	1775.59
666.01	1765.35
666.20	1679.33
666.38	1783.78
666.57	1806.31
666.76	2224.09
666.95	4759.48
667.13	10743.64
667.32	15902.48
667.51	18716.39
667.69	19672.79
667.88	18271.98
668.07	12785.47
668.25	9602.93
668.44	8368.00
668.63	7509.90
668.81	7104.40
669.00	6358.94
669.19	5879.72
669.38	5203.89
669.56	4581.31
669.75	3971.01
669.94	3514.31
670.12	2940.88
670.31	2566.10
670.50	2265.05
670.68	2068.45
670.87	1961.95
671.06	1837.03
671.24	1771.49
671.43	1820.64
671.62	1734.63
671.80	1695.72
671.99	1679.33
672.18	1814.50
672.36	1791.97
672.55	1734.63
672.74	1722.34
672.92	1613.80
673.11	1742.82
673.29	1644.52
673.48	1816.55
673.67	1611.75
673.85	1822.69
674.04	1677.29
674.23	1779.68
674.41	1724.39
674.60	1603.56
674.79	1599.46
674.97	1679.33
675.16	1771.49
675.34	1755.11
675.53	1763.30
675.72	1748.97
675.90	1822.69
676.09	1632.23
676.28	1728.49
676.46	1599.46
676.65	1705.96
676.83	1660.90
677.02	1652.71
677.21	1757.16
677.39	1677.29
677.58	1644.52
677.77	1740.77
677.95	1646.57
678.14	1677.29
678.32	1652.71
678.51	1621.99
678.70	1904.61
678.88	1658.85
679.07	1804.26
679.25	1720.29
679.44	1761.25
679.63	1681.38
679.81	1740.77
680.00	1773.54
680.18	1757.16
680.37	1847.27
680.55	1730.53
680.74	1642.47
680.93	1628.14
681.11	1642.47
681.30	1710.05
681.48	1763.30
681.67	1695.72
681.85	1660.90
682.04	1710.05
682.23	1753.06
682.41	1689.57
682.60	1697.77
682.78	1726.44
682.97	1556.46
683.15	1732.58
683.34	1695.72
683.53	1787.88
683.71	1656.81
683.90	1738.73
684.08	1757.16
684.27	1642.47
684.45	1683.43
684.64	1734.63
684.82	1679.33
685.01	1748.97
685.19	1693.67
685.38	1865.70
685.57	1740.77
685.75	1656.81
685.94	1679.33
686.12	1722.34
686.31	1730.53
686.49	1787.88
686.68	1626.09
686.86	1738.73
687.05	1630.18
687.23	1755.11
687.42	1595.37
687.60	1619.94
687.79	1755.11
687.97	1765.35
688.16	1794.02
688.34	1734.63
688.53	1560.55
688.71	1703.91
688.90	1732.58
689.08	1621.99
689.27	1562.60
689.45	1714.15
689.64	1779.68
689.82	1716.20
690.01	1710.05
690.19	1685.48
690.38	1669.09
690.56	1849.32
690.75	1617.90
690.93	1628.14
691.12	1656.81
691.30	1662.95
691.49	1753.06
691.67	1621.99
691.86	1839.08
692.04	1710.05
692.23	1732.58
692.41	1708.01
692.60	1814.50
692.78	1722.34
692.97	1714.15
693.15	1742.82
693.34	1779.68
693.52	1802.21
693.71	1650.66
693.89	1695.72
694.08	1656.81
694.26	1806.31
694.44	1697.77
694.63	1746.92
694.81	1748.97
695.00	1619.94
695.18	1689.57
695.37	1871.84
695.55	1736.68
695.74	1740.77
695.92	1701.86
696.10	1726.44
696.29	1626.09
696.47	1628.14
696.66	1687.53
696.84	1701.86
697.03	1722.34
697.21	1718.25
697.40	2224.09
697.58	1804.26
697.76	1730.53
697.95	1730.53
698.13	1595.37
698.32	1654.76
698.50	1677.29
698.68	1808.36
698.87	1701.86
699.05	1798.12
699.24	1656.81
699.42	1697.77
699.61	1654.76
699.79	1697.77
699.97	1665.00
700.16	1648.61
700.34	1628.14
700.53	1671.14
700.71	1781.73
700.89	1796.07
701.08	1699.81
701.26	1619.94
701.45	2133.98
701.63	1615.85
701.81	1662.95
702.00	1640.42
702.18	1802.21
702.37	1683.43
702.55	1740.77
702.73	1644.52
702.92	1603.56
703.10	1740.77
703.28	1775.59
703.47	1675.24
703.65	1738.73
703.84	1736.68
704.02	1636.33
704.20	1818.60
704.39	1650.66
704.57	1714.15
704.75	1669.09
704.94	1769.44
705.12	1697.77
705.30	1730.53
705.49	2222.05
705.67	4550.59
705.86	9744.24
706.04	13068.09
706.22	15224.60
706.41	16131.85
706.59	14489.38
706.77	9903.98
706.96	7520.14
707.14	6799.26
707.32	6254.50
707.51	5709.74
707.69	4999.09
707.87	4313.02
708.06	3612.62
708.24	2944.98
708.42	2514.91
708.61	2252.77
708.79	1869.80
708.97	1900.52
709.16	1783.78
709.34	1804.26
709.52	1722.34
709.71	1834.98
709.89	1677.29
710.07	1591.27
710.26	1681.38
710.44	1675.24
710.62	1755.11
710.80	1642.47
710.99	1753.06
711.17	1773.54
711.35	1695.72
711.54	1658.85
711.72	1732.58
711.90	1724.39
712.09	1642.47
712.27	1710.05
712.45	1740.77
712.63	1648.61
712.82	1738.73
713.00	1775.59
713.18	1697.77
713.37	1783.78
713.55	1732.58
713.73	1665.00
713.91	1722.34
714.10	1693.67
714.28	1658.85
714.46	1724.39
714.65	1732.58
714.83	1734.63
715.01	1693.67
715.19	1648.61
715.38	1640.42
715.56	1697.77
715.74	1640.42
715.92	1697.77
716.11	1777.64
716.29	1628.14
716.47	1665.00
716.65	1626.09
716.84	1611.75
717.02	1812.45
717.20	1638.38
717.38	1624.04
717.57	1759.21
717.75	1628.14
717.93	1705.96
718.11	1724.39
718.30	1630.18
718.48	1699.81
718.66	1794.02
718.84	1751.01
719.03	1701.86
719.21	1660.90
719.39	1730.53
719.57	1769.44
719.75	1693.67
719.94	1587.18
720.12	1687.53
720.30	1699.81
720.48	1705.96
720.67	1703.91
720.85	1621.99
721.03	1722.34
721.21	1636.33
721.39	1748.97
721.58	1726.44
721.76	1679.33
721.94	1734.63
722.12	1705.96
722.30	1834.98
722.49	1722.34
722.67	1710.05
722.85	1695.72
723.03	1587.18
723.21	1640.42
723.40	1691.62
723.58	1742.82
723.76	1708.01
723.94	1798.12
724.12	1685.48
724.30	1757.16
724.49	1710.05
724.67	1667.05
724.85	1656.81
725.03	1560.55
725.21	1738.73
725.40	1830.88
725.58	1632.23
725.76	1744.87
725.94	1703.91
726.12	1613.80
726.30	1636.33
726.49	1716.20
726.67	1669.09
726.85	1730.53
727.03	1781.73
727.21	2082.78
727.39	2926.55
727.57	3741.64
727.76	4224.96
727.94	4640.70
728.12	4478.91
728.30	3837.89
728.48	2992.08
728.66	2746.33
728.84	2555.86
729.03	2287.58
729.21	2226.14
729.39	1998.82
729.57	1802.21
729.75	1877.99
729.93	1818.60
730.11	1708.01
730.30	1693.67
730.48	1765.35
730.66	1806.31
730.84	1796.07
731.02	1685.48
731.20	1613.80
731.38	1732.58
731.56	1605.61
731.74	1619.94
731.93	1755.11
732.11	1685.48
732.29	1652.71
732.47	1730.53
732.65	1777.64
732.83	1744.87
733.01	1673.19
733.19	1669.09
733.37	1732.58
733.56	1685.48
733.74	1630.18
733.92	1751.01
734.10	1630.18
734.28	1728.49
734.46	1630.18
734.64	1691.62
734.82	1736.68
735.00	1675.24
735.18	1644.52
735.36	1695.72
735.54	1685.48
735.73	1763.30
735.91	1746.92
736.09	1730.53
736.27	1705.96
736.45	1738.73
736.63	1626.09
736.81	1726.44
736.99	1753.06
737.17	1742.82
737.35	1716.20
737.53	1783.78
737.71	1683.43
737.89	1746.92
738.07	1673.19
738.25	1681.38
738.43	1634.28
738.61	1662.95
738.80	1681.38
738.98	1701.86
739.16	1574.89
739.34	1587.18
739.52	1814.50
739.70	1779.68
739.88	1716.20
740.06	1734.63
740.24	1615.85
740.42	1781.73
740.60	1648.61
740.78	1609.70
740.96	1615.85
741.14	1724.39
741.32	1681.38
741.50	1640.42
741.68	1783.78
741.86	1767.40
742.04	1626.09
742.22	1578.98
742.40	1689.57
742.58	1746.92
742.76	1693.67
742.94	1734.63
743.12	1576.94
743.30	1615.85
743.48	1751.01
743.66	1665.00
743.84	1728.49
744.02	1669.09
744.20	1697.77
744.38	1677.29
744.56	1617.90
744.74	1767.40
744.92	1652.71
745.10	1808.36
745.28	1757.16
745.46	1777.64
745.64	1685.48
745.82	1728.49
746.00	1673.19
746.18	1718.25
746.36	1644.52
746.54	1705.96
746.72	1658.85
746.90	1691.62
747.08	1824.74
747.26	1724.39
747.44	1837.03
747.62	1738.73
747.80	1759.21
747.98	1687.53
748.15	1789.92
748.33	1726.44
748.51	1708.01
748.69	1685.48
748.87	1681.38
749.05	1697.77
749.23	1693.67
749.41	1701.86
749.59	1683.43
749.77	1740.77
749.95	1742.82
750.13	1597.42
750.31	1718.25
750.49	1705.96
750.67	1736.68
750.85	1818.60
751.03	1701.86
751.20	1781.73
751.38	1642.47
751.56	1662.95
751.74	1734.63
751.92	1662.95
752.10	1697.77
752.28	1775.59
752.46	1634.28
752.64	1771.49
752.82	1626.09
753.00	1728.49
753.18	1699.81
753.35	1683.43
753.53	1609.70
753.71	1763.30
753.89	1644.52
754.07	1656.81
754.25	1732.58
754.43	1656.81
754.61	1648.61
754.79	1708.01
754.97	1699.81
755.14	1687.53
755.32	1615.85
755.50	1714.15
755.68	1701.86
755.86	1591.27
756.04	1644.52
756.22	1585.13
756.40	1720.29
756.57	1818.60
756.75	1667.05
756.93	1757.16
757.11	1720.29
757.29	1605.61
757.47	1658.85
757.65	1679.33
757.82	1587.18
758.00	1681.38
758.18	1673.19
758.36	1624.04
758.54	1742.82
758.72	1619.94
758.90	1785.83
759.07	1726.44
759.25	1615.85
759.43	1685.48
759.61	1699.81
759.79	2179.04
759.97	1751.01
760.15	1630.18
760.32	1665.00
760.50	1710.05
760.68	1775.59
760.86	1597.42
761.04	1714.15
761.22	1732.58
761.39	1689.57
761.57	1763.30
761.75	1714.15
761.93	1753.06
762.11	1718.25
762.28	1603.56
762.46	1675.24
762.64	1744.87
762.82	1607.66
763.00	1718.25
763.18	1806.31
763.35	1669.09
763.53	1650.66
763.71	1675.24
763.89	1669.09
764.07	1636.33
764.24	1652.71
764.42	1689.57
764.60	1726.44
764.78	1746.92
764.96	1734.63
765.13	1705.96
765.31	1656.81
765.49	1691.62
765.67	1589.22
765.84	1595.37
766.02	1667.05
766.20	1546.22
766.38	1705.96
766.56	1714.15
766.73	1720.29
766.91	1673.19
767.09	1693.67
767.27	1814.50
767.44	1646.57
767.62	1755.11
767.80	1687.53
767.98	1652.71
768.15	1724.39
768.33	1820.64
768.51	1724.39
768.69	1683.43
768.87	1740.77
769.04	1662.95
769.22	1886.18
769.40	1761.25
769.58	1806.31
769.75	1675.24
769.93	1734.63
770.11	1710.05
770.28	1621.99
770.46	1744.87
770.64	1722.34
770.82	1714.15
770.99	1691.62
771.17	1695.72
771.35	1681.38
771.53	1642.47
771.70	1615.85
771.88	1753.06
772.06	1660.90
772.23	1708.01
772.41	1769.44
772.59	1652.71
772.77	1599.46
772.94	1697.77
773.12	1701.86
773.30	1691.62
773.47	1728.49
773.65	1609.70
773.83	1822.69
774.01	1656.81
774.18	1556.46
774.36	1718.25
774.54	1605.61
774.71	1759.21
774.89	1540.07
775.07	1722.34
775.24	1642.47
775.42	1695.72
775.60	1769.44
775.78	1628.14
775.95	1583.08
776.13	1587.18
776.31	1560.55
776.48	1730.53
776.66	1753.06
776.84	1679.33
777.01	1656.81
777.19	1603.56
777.37	1734.63
777.54	1671.14
777.72	1724.39
777.90	1736.68
778.07	1677.29
778.25	1855.46
778.43	1703.91
778.60	1644.52
778.78	1699.81
778.96	1763.30
779.13	1599.46
779.31	1751.01
779.49	1726.44
779.66	1679.33
779.84	1697.77
780.01	1771.49
780.19	1675.24
780.37	1720.29
780.54	1779.68
780.72	1679.33
780.90	1691.62
781.07	1634.28
781.25	1685.48
781.43	1708.01
781.60	1673.19
781.78	1800.16
781.95	1730.53
782.13	1601.51
782.31	1628.14
782.48	1554.41
782.66	1734.63
782.83	1843.17
783.01	1763.30
783.19	1677.29
783.36	1683.43
783.54	1656.81
783.72	1738.73
783.89	1720.29
784.07	1697.77
784.24	1751.01
784.42	1740.77
784.60	1695.72
784.77	1748.97
784.95	1554.41
785.12	1687.53
785.30	1779.68
785.47	1662.95
785.65	1646.57
785.83	1708.01
786.00	1638.38
786.18	1718.25
786.35	1681.38
786.53	1632.23
786.71	1648.61
786.88	1691.62
787.06	1603.56
787.23	1640.42
787.41	1628.14
787.58	1632.23
787.76	1628.14
787.94	1701.86
788.11	1683.43
788.29	1701.86
788.46	1675.24
788.64	1601.51
788.81	1689.57
788.99	1683.43
789.16	1583.08
789.34	1624.04
789.52	1624.04
789.69	1701.86
789.87	1611.75
790.04	1677.29
790.22	1689.57
790.39	1775.59
790.57	1619.94
790.74	1671.14
790.92	1703.91
791.09	1624.04
791.27	1660.90
791.44	1761.25
791.62	1703.91
791.79	1765.35
791.97	1644.52
792.15	1890.28
792.32	1716.20
792.50	1722.34
792.67	1775.59
792.85	1796.07
793.02	1677.29
793.20	1599.46
793.37	1662.95
793.55	1683.43
793.72	1650.66
793.90	1665.00
794.07	1624.04
794.25	1665.00
794.42	1646.57
794.60	1669.09
794.77	1681.38
794.95	1728.49
795.12	1779.68
795.30	1695.72
795.47	1605.61
795.65	1796.07
795.82	1673.19
796.00	1624.04
796.17	1677.29
796.34	1652.71
796.52	1755.11
796.69	1763.30
796.87	1720.29
797.04	1642.47
797.22	1683.43
797.39	1626.09
797.57	1726.44
797.74	1642.47
797.92	1730.53
798.09	1691.62
798.27	1787.88
798.44	1689.57
798.62	1683.43
798.79	1687.53
798.96	1708.01
799.14	1648.61
799.31	1855.46
799.49	1628.14
799.66	1697.77
799.84	1742.82
800.01	1595.37
800.19	1677.29
800.36	1648.61
800.53	1722.34
800.71	1681.38
800.88	1789.92
801.06	1642.47
801.23	1644.52
801.41	1650.66
801.58	1650.66
801.75	1650.66
801.93	1708.01
802.10	1660.90
802.28	1722.34
802.45	1607.66
802.63	1796.07
802.80	1767.40
802.97	1665.00
803.15	1695.72
803.32	1595.37
803.50	1701.86
803.67	1642.47
803.84	1662.95
804.02	1710.05
804.19	1738.73
804.37	1564.65
804.54	1593.32
804.71	1601.51
804.89	1628.14
805.06	1703.91
805.24	1697.77
805.41	1572.84
805.58	1677.29
805.76	1781.73
805.93	1769.44
806.10	1728.49
806.28	1693.67
806.45	1697.77
806.63	1712.10
806.80	1701.86
806.97	1687.53
807.15	1716.20
807.32	1644.52
807.49	1615.85
807.67	1681.38
807.84	1753.06
808.01	1638.38
808.19	1847.27
808.36	1812.45
808.54	1732.58
808.71	1607.66
808.88	1701.86
809.06	1685.48
809.23	1738.73
809.40	1619.94
809.58	1810.40
809.75	1681.38
809.92	1615.85
810.10	1810.40
810.27	1656.81
810.44	1744.87
810.62	1791.97
810.79	1720.29
810.96	1734.63
811.14	1617.90
811.31	1714.15
811.48	1818.60
811.66	1648.61
811.83	1755.11
812.00	1701.86
812.18	1740.77
812.35	1783.78
812.52	1714.15
812.69	1652.71
812.87	1677.29
813.04	1609.70
813.21	1703.91
813.39	1626.09
813.56	1593.32
813.73	1667.05
813.91	1638.38
814.08	1757.16
814.25	1763.30
814.42	1621.99
814.60	1636.33
814.77	1689.57
814.94	1650.66
815.12	1699.81
815.29	1804.26
815.46	1714.15
815.63	1728.49
815.81	1705.96
815.98	1617.90
816.15	1683.43
816.33	1710.05
816.50	1734.63
816.67	1718.25
816.84	1677.29
817.02	1701.86
817.19	1697.77
817.36	1757.16
817.53	1714.15
817.71	1648.61
817.88	1695.72
818.05	1734.63
818.22	1683.43
818.40	1785.83
818.57	1691.62
818.74	1720.29
818.91	1781.73
819.09	1751.01
819.26	1722.34
819.43	1677.29
819.60	1597.42
819.78	1658.85
819.95	1689.57
820.12	1624.04
820.29	1798.12
820.47	1779.68
820.64	1695.72
820.81	1576.94
820.98	1652.71
821.15	1591.27
821.33	1624.04
821.50	1599.46
821.67	1728.49
821.84	1646.57
822.02	1712.10
822.19	1767.40
822.36	1718.25
822.53	1595.37
822.70	1632.23
822.88	1650.66
823.05	1812.45
823.22	1677.29
823.39	1720.29
823.56	1658.85
823.74	1789.92
823.91	1708.01
824.08	1701.86
824.25	1548.26
824.42	1783.78
824.60	1669.09
824.77	1712.10
824.94	1712.10
825.11	1722.34
825.28	1613.80
825.45	1724.39
825.63	1740.77
825.80	1617.90
825.97	1767.40
826.14	1681.38
826.31	1566.70
826.48	1695.72
826.66	1658.85
826.83	1675.24
827.00	1722.34
827.17	1703.91
827.34	1683.43
827.51	1634.28
827.69	1714.15
827.86	1599.46
828.03	1654.76
828.20	1652.71
828.37	1681.38
828.54	1646.57
828.71	1705.96
828.89	1789.92
829.06	1742.82
829.23	1765.35
829.40	1613.80
829.57	1650.66
829.74	1720.29
829.91	1712.10
830.09	1628.14
830.26	1769.44
830.43	1789.92
830.60	1677.29
830.77	1638.38
830.94	1697.77
831.11	1718.25
831.28	1630.18
831.46	1773.54
831.63	1634.28
831.80	1765.35
831.97	1585.13
832.14	1701.86
832.31	1742.82
832.48	1738.73
832.65	1730.53
832.82	1703.91
832.99	1740.77
833.17	1714.15
833.34	1736.68
833.51	1703.91
833.68	1697.77
833.85	1763.30
834.02	1681.38
834.19	1701.86
834.36	1560.55
834.53	1720.29
834.70	1781.73
834.87	1775.59
835.04	1730.53
835.22	1595.37
835.39	1685.48
835.56	1650.66
835.73	1667.05
835.90	1800.16
836.07	1642.47
836.24	1755.11
836.41	1736.68
836.58	1722.34
836.75	1742.82
836.92	1705.96
837.09	1691.62
837.26	1728.49
837.43	1652.71
837.60	1703.91
837.77	1714.15
837.94	1710.05
838.12	1755.11
838.29	1755.11
838.46	1599.46
838.63	1669.09
838.80	1873.89
838.97	1722.34
839.14	1673.19
839.31	1689.57
839.48	1720.29
839.65	1701.86
839.82	1746.92
839.99	1667.05
840.16	1746.92
840.33	1658.85
840.50	1630.18
840.67	1599.46
840.84	1660.90
841.01	1761.25
841.18	1667.05
841.35	1617.90
841.52	1746.92
841.69	1808.36
841.86	1716.20
842.03	1630.18
842.20	1755.11
842.37	1685.48
842.54	1691.62
842.71	1669.09
842.88	1640.42
843.05	1673.19
843.22	1681.38
843.39	1697.77
843.56	1695.72
843.73	1658.85
843.90	1648.61
844.07	1681.38
844.24	1662.95
844.41	1665.00
844.58	1773.54
844.75	1722.34
844.92	1705.96
845.09	1669.09
845.26	1628.14
845.43	1644.52
845.60	1613.80
845.77	1671.14
845.94	1671.14
846.10	1751.01
846.27	1640.42
846.44	1630.18
846.61	1667.05
846.78	1751.01
846.95	1730.53
847.12	1642.47
847.29	1611.75
847.46	1650.66
847.63	1685.48
847.80	1644.52
847.97	1718.25
848.14	1759.21
848.31	1640.42
848.48	1679.33
848.65	1748.97
848.82	1740.77
848.98	1845.22
849.15	1798.12
849.32	1785.83
849.49	1724.39
849.66	1634.28
849.83	1685.48
850.00	1617.90
850.17	1730.53
850.34	1738.73
850.51	1619.94
850.68	1685.48
850.85	1834.98
851.01	1695.72
851.18	1751.01
851.35	1691.62
851.52	1753.06
851.69	1755.11
851.86	1697.77
852.03	1689.57
852.20	1765.35
852.37	1656.81
852.53	1617.90
852.70	1779.68
852.87	1769.44
853.04	1685.48
853.21	1619.94
853.38	1687.53
853.55	1734.63
853.72	1722.34
853.89	1619.94
854.05	1705.96
854.22	1667.05
854.39	1712.10
854.56	1699.81
854.73	1732.58
854.90	1581.03
855.07	1708.01
855.23	1671.14
855.40	1646.57
855.57	1681.38
855.74	1568.74
855.91	1908.71
856.08	1603.56
856.25	1638.38
856.41	1738.73
856.58	1640.42
856.75	1638.38
856.92	1656.81
857.09	1673.19
857.26	1640.42
857.42	1710.05
857.59	1714.15
857.76	1648.61
857.93	1681.38
858.10	1708.01
858.27	1640.42
858.43	1722.34
858.60	1626.09
858.77	1642.47
858.94	1701.86
859.11	1814.50
859.27	1644.52
859.44	1695.72
859.61	1806.31
859.78	1685.48
859.95	1738.73
860.12	1699.81
860.28	1763.30
860.45	1875.94
860.62	1681.38
860.79	1689.57
860.95	1679.33
861.12	1568.74
861.29	1585.13
861.46	1626.09
861.63	1658.85
861.79	1679.33
861.96	1632.23
862.13	1685.48
862.30	1763.30
862.47	1599.46
862.63	1644.52
862.80	1705.96
862.97	1740.77
863.14	1656.81
863.30	1703.91
863.47	1599.46
863.64	1812.45
863.81	1691.62
863.97	1742.82
864.14	1681.38
864.31	1650.66
864.48	1677.29
864.65	1667.05
864.81	1753.06
864.98	1757.16
865.15	1789.92
865.32	1736.68
865.48	1771.49
865.65	1734.63
865.82	1665.00
865.98	1644.52
866.15	1779.68
866.32	1714.15
866.49	1681.38
866.65	1771.49
866.82	1630.18
866.99	1748.97
867.16	1617.90
867.32	1675.24
867.49	1662.95
867.66	1665.00
867.83	1640.42
867.99	1646.57
868.16	1671.14
868.33	1605.61
868.49	1656.81
868.66	1677.29
868.83	1673.19
868.99	1683.43
869.16	1726.44
869.33	1773.54
869.50	1763.30
869.66	1665.00
869.83	1724.39
870.00	1603.56
870.16	1755.11
870.33	1669.09
870.50	1712.10
870.66	1775.59
870.83	1845.22
871.00	1695.72
871.17	1691.62
871.33	1667.05
871.50	1708.01
871.67	1650.66
871.83	1705.96
872.00	1748.97
872.17	1693.67
872.33	1732.58
872.50	1722.34
872.67	1710.05
872.83	1574.89
873.00	1714.15
873.17	1765.35
873.33	1734.63
873.50	1753.06
873.67	1732.58
873.83	1701.86
874.00	1720.29
874.16	1710.05
874.33	1677.29
874.50	1624.04
874.66	1740.77
874.83	1738.73
875.00	1740.77
875.16	1716.20
875.33	1722.34
875.50	1581.03
875.66	1621.99
875.83	1644.52
875.99	1757.16
876.16	1650.66
876.33	1697.77
876.49	1669.09
876.66	1716.20
876.83	1697.77
876.99	1574.89
877.16	1667.05
877.32	1685.48
877.49	1665.00
877.66	1703.91
877.82	1806.31
877.99	1683.43
878.15	1685.48
878.32	1697.77
878.49	1693.67
878.65	1681.38
878.82	1814.50
878.98	1634.28
879.15	1681.38
879.32	1767.40
879.48	1703.91
879.65	1701.86
879.81	1697.77
879.98	1675.24
880.15	1654.76
880.31	1660.90
880.48	1583.08
880.64	1822.69
880.81	1722.34
880.97	1714.15
881.14	1753.06
881.31	1681.38
881.47	1798.12
881.64	1656.81
881.80	1611.75
881.97	1748.97
882.13	1773.54
882.30	1634.28
882.47	1689.57
882.63	1695.72
882.80	1660.90
882.96	1634.28
883.13	1734.63
883.29	1679.33
883.46	1718.25
883.62	1787.88
883.79	1757.16
883.95	1703.91
884.12	1662.95
884.29	1771.49
884.45	1705.96
884.62	1708.01
884.78	1589.22
884.95	1796.07
885.11	1613.80
885.28	1660.90
885.44	1607.66
885.61	1763.30
885.77	1755.11
885.94	1718.25
886.10	1685.48
886.27	1705.96
886.43	1826.79
886.60	1730.53
886.76	1626.09
886.93	1628.14
887.09	1716.20
887.26	1591.27
887.42	1705.96
887.59	1730.53
887.75	1761.25
887.92	1742.82
888.08	1765.35
888.25	1787.88
888.41	1724.39
888.58	1734.63
888.74	1644.52
888.91	1660.90
>>>>>End Processed Spectral Data<<<<<
