SpectraSuite Data File
++++++++++++++++++++++++++++++++++++
Date: Mon Jun 06 12:24:57 CEST 2016
User: root
Dark Spectrum Present: No
Reference Spectrum Present: No
Number of Sampled Component Spectra: 1
Spectrometers: USB4C02835
Integration Time (usec): 100000 (USB4C02835)
Spectra Averaged: 1 (USB4C02835)
Boxcar Smoothing: 0 (USB4C02835)
Correct for Electrical Dark: No (USB4C02835)
Strobe/Lamp Enabled: No (USB4C02835)
Correct for Detector Non-linearity: No (USB4C02835)
Correct for Stray Light: No (USB4C02835)
Number of Pixels in Processed Spectrum: 3648
>>>>>Begin Processed Spectral Data<<<<<
177.47	1396.71
177.69	1396.71
177.91	1396.71
178.13	1417.19
178.36	1456.11
178.58	1613.80
178.80	1746.92
179.02	1587.18
179.24	1654.76
179.46	1675.24
179.68	1738.73
179.90	1656.81
180.13	1744.87
180.35	1654.76
180.57	1722.34
180.79	1753.06
181.01	1660.90
181.23	1736.68
181.45	1783.78
181.67	1648.61
181.90	1791.97
182.12	1640.42
182.34	1583.08
182.56	1730.53
182.78	1738.73
183.00	1699.81
183.22	1687.53
183.44	1560.55
183.66	1886.18
183.89	1753.06
184.11	1705.96
184.33	1787.88
184.55	1730.53
184.77	1697.77
184.99	1642.47
185.21	1683.43
185.43	1804.26
185.65	1634.28
185.87	1683.43
186.10	1855.46
186.32	1785.83
186.54	1701.86
186.76	1736.68
186.98	1769.44
187.20	1710.05
187.42	1740.77
187.64	1718.25
187.86	1693.67
188.08	1781.73
188.30	1683.43
188.52	1677.29
188.75	1783.78
188.97	1771.49
189.19	1650.66
189.41	1724.39
189.63	1775.59
189.85	1699.81
190.07	1642.47
190.29	1628.14
190.51	1804.26
190.73	1650.66
190.95	1810.40
191.17	1648.61
191.39	1589.22
191.61	1673.19
191.84	1718.25
192.06	1748.97
192.28	1652.71
192.50	1798.12
192.72	1665.00
192.94	1753.06
193.16	1800.16
193.38	1687.53
193.60	1634.28
193.82	1669.09
194.04	1767.40
194.26	1654.76
194.48	1734.63
194.70	1691.62
194.92	1658.85
195.14	1728.49
195.36	1646.57
195.58	1730.53
195.80	1714.15
196.02	1693.67
196.24	1632.23
196.46	1732.58
196.69	1724.39
196.91	1808.36
197.13	1693.67
197.35	1626.09
197.57	1753.06
197.79	1658.85
198.01	1703.91
198.23	1689.57
198.45	1728.49
198.67	1665.00
198.89	1740.77
199.11	1722.34
199.33	1648.61
199.55	1523.69
199.77	1642.47
199.99	1759.21
200.21	1591.27
200.43	1724.39
200.65	1597.42
200.87	1519.59
201.09	1730.53
201.31	1632.23
201.53	1722.34
201.75	1730.53
201.97	1705.96
202.19	1636.33
202.41	1697.77
202.63	1828.84
202.85	1732.58
203.07	1683.43
203.29	1714.15
203.51	1636.33
203.73	1675.24
203.95	1900.52
204.17	1705.96
204.39	1697.77
204.61	1732.58
204.83	1656.81
205.05	1773.54
205.27	1773.54
205.49	1816.55
205.71	1697.77
205.93	1595.37
206.15	1650.66
206.37	1685.48
206.59	1755.11
206.81	1656.81
207.03	1615.85
207.25	1730.53
207.47	1761.25
207.69	1802.21
207.91	1697.77
208.13	1742.82
208.34	1603.56
208.56	1642.47
208.78	1759.21
209.00	1679.33
209.22	1658.85
209.44	1689.57
209.66	1732.58
209.88	1718.25
210.10	1712.10
210.32	1710.05
210.54	1728.49
210.76	1662.95
210.98	1718.25
211.20	1591.27
211.42	1716.20
211.64	1726.44
211.86	1812.45
212.08	1744.87
212.30	1652.71
212.52	1714.15
212.74	1697.77
212.96	1755.11
213.17	1730.53
213.39	1705.96
213.61	1734.63
213.83	1773.54
214.05	1648.61
214.27	1744.87
214.49	1689.57
214.71	1640.42
214.93	1775.59
215.15	1730.53
215.37	1824.74
215.59	1652.71
215.81	1726.44
216.03	1800.16
216.24	1693.67
216.46	1585.13
216.68	1732.58
216.90	1687.53
217.12	1783.78
217.34	1810.40
217.56	1699.81
217.78	1734.63
218.00	1720.29
218.22	1734.63
218.44	1755.11
218.66	1716.20
218.87	1798.12
219.09	1671.14
219.31	1724.39
219.53	1712.10
219.75	1662.95
219.97	1675.24
220.19	1685.48
220.41	1701.86
220.63	1804.26
220.85	1732.58
221.06	1599.46
221.28	1806.31
221.50	1701.86
221.72	1761.25
221.94	1683.43
222.16	1740.77
222.38	1626.09
222.60	1683.43
222.82	1708.01
223.03	1703.91
223.25	1570.79
223.47	1673.19
223.69	1884.13
223.91	1720.29
224.13	1757.16
224.35	1746.92
224.57	1757.16
224.78	1701.86
225.00	1665.00
225.22	1656.81
225.44	1708.01
225.66	1744.87
225.88	1667.05
226.10	1787.88
226.32	1761.25
226.53	1794.02
226.75	1644.52
226.97	1689.57
227.19	1640.42
227.41	1636.33
227.63	1607.66
227.85	1583.08
228.06	1708.01
228.28	1705.96
228.50	1708.01
228.72	1638.38
228.94	1714.15
229.16	1597.42
229.37	1660.90
229.59	1650.66
229.81	1789.92
230.03	1697.77
230.25	1599.46
230.47	1638.38
230.69	1634.28
230.90	1753.06
231.12	1624.04
231.34	1662.95
231.56	1746.92
231.78	1605.61
232.00	1681.38
232.21	1642.47
232.43	1685.48
232.65	1609.70
232.87	1669.09
233.09	1650.66
233.30	1566.70
233.52	1740.77
233.74	1728.49
233.96	1710.05
234.18	1736.68
234.40	1712.10
234.61	1781.73
234.83	1607.66
235.05	1644.52
235.27	1822.69
235.49	1746.92
235.70	1722.34
235.92	1755.11
236.14	1767.40
236.36	1748.97
236.58	1626.09
236.79	1802.21
237.01	1697.77
237.23	1673.19
237.45	1757.16
237.67	1638.38
237.88	1705.96
238.10	1771.49
238.32	1667.05
238.54	1753.06
238.76	1675.24
238.97	1658.85
239.19	1703.91
239.41	1691.62
239.63	1755.11
239.85	1730.53
240.06	1701.86
240.28	1650.66
240.50	1775.59
240.72	1714.15
240.93	1699.81
241.15	1759.21
241.37	1699.81
241.59	1798.12
241.81	1681.38
242.02	1783.78
242.24	1691.62
242.46	1738.73
242.68	1681.38
242.89	1654.76
243.11	1773.54
243.33	1658.85
243.55	1685.48
243.76	1697.77
243.98	1669.09
244.20	1652.71
244.42	1632.23
244.64	1640.42
244.85	1624.04
245.07	1660.90
245.29	1714.15
245.51	1697.77
245.72	1710.05
245.94	1765.35
246.16	1732.58
246.38	1718.25
246.59	1652.71
246.81	1689.57
247.03	1761.25
247.24	1572.84
247.46	1708.01
247.68	1734.63
247.90	1769.44
248.11	1734.63
248.33	1736.68
248.55	1697.77
248.77	1714.15
248.98	1697.77
249.20	1785.83
249.42	1751.01
249.64	1626.09
249.85	1714.15
250.07	1697.77
250.29	1708.01
250.50	1730.53
250.72	1568.74
250.94	1710.05
251.16	1894.37
251.37	1757.16
251.59	1740.77
251.81	1685.48
252.02	1771.49
252.24	1669.09
252.46	1796.07
252.68	1646.57
252.89	1710.05
253.11	1619.94
253.33	1804.26
253.54	1808.36
253.76	1619.94
253.98	1640.42
254.20	1710.05
254.41	1632.23
254.63	1699.81
254.85	1695.72
255.06	1714.15
255.28	1787.88
255.50	1599.46
255.71	1726.44
255.93	1624.04
256.15	1718.25
256.36	1675.24
256.58	1714.15
256.80	1732.58
257.02	1626.09
257.23	1710.05
257.45	1632.23
257.67	1730.53
257.88	1605.61
258.10	1701.86
258.32	1638.38
258.53	1781.73
258.75	1708.01
258.97	1710.05
259.18	1646.57
259.40	1722.34
259.62	1773.54
259.83	1712.10
260.05	1710.05
260.27	2017.25
260.48	1697.77
260.70	1572.84
260.92	1621.99
261.13	1746.92
261.35	1773.54
261.57	1683.43
261.78	1568.74
262.00	1621.99
262.22	1671.14
262.43	1699.81
262.65	1701.86
262.86	1675.24
263.08	1820.64
263.30	1716.20
263.51	1621.99
263.73	1585.13
263.95	1746.92
264.16	1667.05
264.38	1603.56
264.60	1636.33
264.81	1656.81
265.03	1742.82
265.25	1685.48
265.46	1716.20
265.68	1753.06
265.89	1830.88
266.11	1578.98
266.33	1767.40
266.54	1736.68
266.76	1724.39
266.98	1697.77
267.19	1722.34
267.41	1779.68
267.62	1671.14
267.84	1701.86
268.06	1683.43
268.27	1712.10
268.49	1722.34
268.70	1755.11
268.92	1673.19
269.14	1705.96
269.35	1587.18
269.57	1646.57
269.79	1697.77
270.00	1660.90
270.22	1757.16
270.43	1652.71
270.65	1540.07
270.87	1703.91
271.08	1748.97
271.30	1716.20
271.51	1740.77
271.73	1722.34
271.95	1753.06
272.16	1691.62
272.38	1689.57
272.59	1624.04
272.81	1689.57
273.02	1671.14
273.24	1722.34
273.46	1685.48
273.67	1658.85
273.89	1665.00
274.10	1587.18
274.32	1775.59
274.54	1681.38
274.75	1722.34
274.97	1617.90
275.18	1724.39
275.40	1703.91
275.61	1675.24
275.83	1619.94
276.05	1642.47
276.26	1669.09
276.48	1726.44
276.69	1710.05
276.91	1675.24
277.12	1761.25
277.34	1691.62
277.55	1708.01
277.77	1722.34
277.99	1708.01
278.20	1638.38
278.42	1753.06
278.63	1669.09
278.85	1601.51
279.06	1587.18
279.28	1683.43
279.49	1720.29
279.71	1789.92
279.93	1697.77
280.14	1701.86
280.36	1634.28
280.57	1738.73
280.79	1691.62
281.00	1626.09
281.22	1685.48
281.43	1755.11
281.65	1587.18
281.86	1665.00
282.08	1732.58
282.29	1775.59
282.51	1611.75
282.73	1630.18
282.94	1542.12
283.16	1722.34
283.37	1769.44
283.59	1634.28
283.80	1656.81
284.02	1671.14
284.23	1656.81
284.45	1636.33
284.66	1662.95
284.88	1665.00
285.09	1673.19
285.31	1824.74
285.52	1679.33
285.74	1665.00
285.95	1769.44
286.17	1644.52
286.38	1759.21
286.60	1658.85
286.81	1701.86
287.03	1673.19
287.24	1654.76
287.46	1732.58
287.67	1644.52
287.89	1757.16
288.10	1681.38
288.32	1744.87
288.53	1777.64
288.75	1673.19
288.96	1767.40
289.18	1640.42
289.39	1724.39
289.61	1724.39
289.82	1812.45
290.04	1740.77
290.25	1687.53
290.47	1716.20
290.68	1683.43
290.90	1730.53
291.11	1578.98
291.33	1785.83
291.54	1673.19
291.76	1724.39
291.97	1742.82
292.18	1681.38
292.40	1640.42
292.61	1677.29
292.83	1789.92
293.04	1773.54
293.26	1660.90
293.47	1685.48
293.69	1630.18
293.90	1734.63
294.12	1787.88
294.33	1703.91
294.55	1697.77
294.76	1755.11
294.97	1759.21
295.19	1753.06
295.40	1683.43
295.62	1691.62
295.83	1734.63
296.05	1681.38
296.26	1744.87
296.48	1724.39
296.69	1734.63
296.90	1642.47
297.12	1642.47
297.33	1716.20
297.55	1699.81
297.76	1708.01
297.98	1736.68
298.19	1708.01
298.41	1703.91
298.62	1613.80
298.83	1740.77
299.05	1794.02
299.26	1607.66
299.48	1660.90
299.69	1726.44
299.90	1671.14
300.12	1695.72
300.33	1675.24
300.55	1689.57
300.76	1701.86
300.98	1660.90
301.19	1705.96
301.40	1685.48
301.62	1677.29
301.83	1679.33
302.05	1746.92
302.26	1701.86
302.47	1730.53
302.69	1695.72
302.90	1652.71
303.12	1587.18
303.33	1714.15
303.54	1845.22
303.76	1644.52
303.97	1738.73
304.19	1720.29
304.40	1755.11
304.61	1718.25
304.83	1796.07
305.04	1671.14
305.26	1691.62
305.47	1693.67
305.68	1656.81
305.90	1638.38
306.11	1722.34
306.33	1617.90
306.54	1650.66
306.75	1669.09
306.97	1619.94
307.18	1626.09
307.39	1660.90
307.61	1812.45
307.82	1650.66
308.04	1675.24
308.25	1705.96
308.46	1693.67
308.68	1705.96
308.89	1751.01
309.10	1691.62
309.32	1689.57
309.53	1667.05
309.74	1730.53
309.96	1697.77
310.17	1746.92
310.39	1607.66
310.60	1763.30
310.81	1683.43
311.03	1691.62
311.24	1767.40
311.45	1675.24
311.67	1751.01
311.88	1718.25
312.09	1656.81
312.31	1652.71
312.52	1701.86
312.73	1619.94
312.95	1658.85
313.16	1697.77
313.37	1716.20
313.59	1705.96
313.80	1726.44
314.01	1822.69
314.23	1624.04
314.44	1609.70
314.65	1679.33
314.87	1624.04
315.08	1642.47
315.29	1626.09
315.51	1650.66
315.72	1628.14
315.93	1787.88
316.15	1728.49
316.36	1652.71
316.57	1765.35
316.79	1771.49
317.00	1619.94
317.21	1681.38
317.43	1693.67
317.64	1652.71
317.85	1619.94
318.07	1624.04
318.28	1720.29
318.49	1783.78
318.70	1918.95
318.92	1892.32
319.13	1746.92
319.34	1890.28
319.56	1783.78
319.77	1714.15
319.98	1820.64
320.20	1769.44
320.41	1705.96
320.62	1705.96
320.83	1636.33
321.05	1843.17
321.26	1748.97
321.47	1691.62
321.69	1718.25
321.90	1677.29
322.11	1650.66
322.32	1740.77
322.54	1806.31
322.75	1708.01
322.96	1806.31
323.18	1646.57
323.39	1585.13
323.60	1640.42
323.81	1740.77
324.03	1751.01
324.24	1746.92
324.45	1675.24
324.66	1630.18
324.88	1716.20
325.09	1753.06
325.30	1683.43
325.52	1665.00
325.73	1648.61
325.94	1642.47
326.15	1558.50
326.37	1656.81
326.58	1701.86
326.79	1839.08
327.00	1556.46
327.22	1740.77
327.43	1615.85
327.64	1589.22
327.85	1740.77
328.07	1679.33
328.28	1832.93
328.49	1718.25
328.70	1683.43
328.92	1591.27
329.13	1728.49
329.34	1714.15
329.55	1761.25
329.76	1621.99
329.98	1722.34
330.19	1740.77
330.40	1685.48
330.61	1691.62
330.83	1734.63
331.04	1658.85
331.25	1632.23
331.46	1634.28
331.68	1697.77
331.89	1796.07
332.10	1656.81
332.31	1679.33
332.52	1691.62
332.74	1789.92
332.95	1617.90
333.16	1634.28
333.37	1712.10
333.58	1660.90
333.80	1671.14
334.01	1615.85
334.22	1681.38
334.43	1734.63
334.64	1624.04
334.86	1591.27
335.07	1656.81
335.28	1755.11
335.49	1699.81
335.70	1765.35
335.92	1742.82
336.13	1783.78
336.34	1757.16
336.55	1628.14
336.76	1697.77
336.98	1581.03
337.19	1613.80
337.40	1744.87
337.61	1847.27
337.82	1652.71
338.04	1701.86
338.25	1624.04
338.46	1624.04
338.67	1656.81
338.88	1681.38
339.09	1574.89
339.31	1695.72
339.52	1658.85
339.73	1671.14
339.94	1701.86
340.15	1769.44
340.36	1603.56
340.58	1716.20
340.79	1652.71
341.00	1665.00
341.21	1619.94
341.42	1759.21
341.63	1720.29
341.85	1738.73
342.06	1724.39
342.27	1591.27
342.48	1771.49
342.69	1599.46
342.90	1675.24
343.12	1748.97
343.33	1673.19
343.54	1681.38
343.75	1765.35
343.96	1667.05
344.17	1665.00
344.38	1671.14
344.60	1683.43
344.81	1572.84
345.02	1617.90
345.23	1789.92
345.44	1826.79
345.65	1716.20
345.86	1714.15
346.07	1687.53
346.29	1683.43
346.50	1689.57
346.71	1757.16
346.92	1742.82
347.13	1748.97
347.34	1648.61
347.55	1667.05
347.76	1710.05
347.98	1681.38
348.19	1714.15
348.40	1783.78
348.61	1691.62
348.82	1705.96
349.03	1736.68
349.24	1634.28
349.45	1763.30
349.66	1583.08
349.88	1695.72
350.09	1650.66
350.30	1787.88
350.51	1753.06
350.72	1734.63
350.93	1679.33
351.14	1642.47
351.35	1703.91
351.56	1708.01
351.77	1703.91
351.99	1638.38
352.20	1763.30
352.41	1812.45
352.62	1566.70
352.83	1683.43
353.04	1732.58
353.25	1640.42
353.46	1787.88
353.67	1695.72
353.88	1591.27
354.09	1703.91
354.30	1685.48
354.52	1722.34
354.73	1703.91
354.94	1701.86
355.15	1650.66
355.36	1724.39
355.57	1734.63
355.78	1662.95
355.99	1701.86
356.20	1705.96
356.41	1791.97
356.62	1730.53
356.83	1644.52
357.04	1779.68
357.25	1523.69
357.46	1724.39
357.68	1566.70
357.89	1535.98
358.10	1673.19
358.31	1714.15
358.52	1796.07
358.73	1626.09
358.94	1650.66
359.15	1648.61
359.36	1710.05
359.57	1748.97
359.78	1697.77
359.99	1699.81
360.20	1689.57
360.41	1675.24
360.62	1716.20
360.83	1744.87
361.04	1656.81
361.25	1691.62
361.46	1875.94
361.67	1740.77
361.88	1710.05
362.09	1638.38
362.30	1734.63
362.51	1626.09
362.72	1746.92
362.93	1781.73
363.14	1656.81
363.35	1738.73
363.56	1636.33
363.78	1738.73
363.99	1759.21
364.20	1632.23
364.41	1787.88
364.62	1714.15
364.83	1669.09
365.04	1730.53
365.25	1644.52
365.46	1720.29
365.67	1613.80
365.88	1525.74
366.09	1685.48
366.30	1718.25
366.51	1683.43
366.72	1693.67
366.93	1605.61
367.14	1626.09
367.35	1830.88
367.56	1669.09
367.77	1796.07
367.98	1689.57
368.18	1667.05
368.39	1740.77
368.60	1683.43
368.81	1763.30
369.02	1687.53
369.23	1619.94
369.44	1626.09
369.65	1658.85
369.86	1681.38
370.07	1779.68
370.28	1701.86
370.49	1685.48
370.70	1742.82
370.91	1697.77
371.12	1574.89
371.33	1726.44
371.54	1695.72
371.75	1751.01
371.96	1599.46
372.17	1615.85
372.38	1734.63
372.59	1763.30
372.80	1669.09
373.01	1703.91
373.22	1718.25
373.43	1619.94
373.64	1599.46
373.85	1820.64
374.06	1759.21
374.26	1761.25
374.47	1753.06
374.68	1787.88
374.89	1699.81
375.10	1736.68
375.31	1691.62
375.52	1699.81
375.73	1689.57
375.94	1726.44
376.15	1763.30
376.36	1656.81
376.57	1673.19
376.78	1671.14
376.99	1767.40
377.20	1728.49
377.40	1630.18
377.61	1773.54
377.82	1683.43
378.03	1724.39
378.24	1716.20
378.45	1710.05
378.66	1677.29
378.87	1591.27
379.08	1603.56
379.29	1667.05
379.50	1751.01
379.71	1738.73
379.91	1775.59
380.12	1628.14
380.33	1716.20
380.54	1679.33
380.75	1642.47
380.96	1693.67
381.17	1693.67
381.38	1716.20
381.59	1785.83
381.80	1724.39
382.00	1806.31
382.21	1775.59
382.42	1783.78
382.63	1855.46
382.84	1697.77
383.05	1734.63
383.26	1796.07
383.47	1689.57
383.68	1744.87
383.88	1681.38
384.09	1665.00
384.30	1857.51
384.51	1736.68
384.72	1722.34
384.93	1632.23
385.14	1689.57
385.35	1720.29
385.55	1619.94
385.76	1714.15
385.97	1775.59
386.18	1607.66
386.39	1701.86
386.60	1724.39
386.81	1767.40
387.02	1644.52
387.22	1656.81
387.43	1744.87
387.64	1837.03
387.85	1925.09
388.06	2281.44
388.27	4372.41
388.48	6985.62
388.68	8353.66
388.89	9963.37
389.10	10061.67
389.31	8781.69
389.52	7653.26
389.73	6846.36
389.93	6434.72
390.14	5994.40
390.35	5287.86
390.56	4630.46
390.77	3905.48
390.98	2942.93
391.18	2627.54
391.39	2172.89
391.60	1845.22
391.81	1775.59
392.02	1710.05
392.23	1761.25
392.43	1681.38
392.64	1798.12
392.85	1820.64
393.06	1859.56
393.27	1693.67
393.47	1650.66
393.68	1787.88
393.89	1728.49
394.10	1763.30
394.31	1681.38
394.52	1634.28
394.72	1650.66
394.93	1781.73
395.14	1650.66
395.35	1693.67
395.56	1699.81
395.76	1783.78
395.97	1781.73
396.18	1824.74
396.39	1869.80
396.60	2050.02
396.80	1892.32
397.01	1841.12
397.22	1757.16
397.43	1884.13
397.64	1753.06
397.84	1834.98
398.05	1828.84
398.26	1822.69
398.47	1746.92
398.67	1738.73
398.88	1703.91
399.09	1744.87
399.30	1755.11
399.51	1738.73
399.71	1665.00
399.92	1769.44
400.13	1691.62
400.34	1656.81
400.54	1675.24
400.75	1789.92
400.96	1728.49
401.17	1828.84
401.37	1689.57
401.58	1603.56
401.79	1665.00
402.00	1824.74
402.21	2101.22
402.41	1986.53
402.62	2004.96
402.83	2041.82
403.04	1984.48
403.24	2078.69
403.45	1865.70
403.66	1920.99
403.87	1880.04
404.07	1902.56
404.28	1898.47
404.49	1863.65
404.70	1785.83
404.90	1730.53
405.11	1667.05
405.32	1724.39
405.52	1609.70
405.73	1671.14
405.94	1581.03
406.15	1767.40
406.35	1740.77
406.56	1724.39
406.77	1662.95
406.98	1697.77
407.18	1630.18
407.39	1777.64
407.60	1720.29
407.80	1726.44
408.01	1652.71
408.22	1732.58
408.43	1628.14
408.63	1783.78
408.84	1824.74
409.05	1734.63
409.25	1603.56
409.46	1640.42
409.67	1730.53
409.88	1714.15
410.08	1714.15
410.29	1718.25
410.50	1675.24
410.70	1740.77
410.91	1632.23
411.12	1716.20
411.32	1732.58
411.53	1701.86
411.74	1736.68
411.95	1773.54
412.15	1755.11
412.36	1695.72
412.57	1779.68
412.77	1755.11
412.98	1722.34
413.19	1669.09
413.39	1734.63
413.60	1744.87
413.81	1837.03
414.01	1685.48
414.22	1736.68
414.43	1785.83
414.63	1617.90
414.84	1818.60
415.05	1724.39
415.25	1640.42
415.46	1730.53
415.67	1681.38
415.87	1748.97
416.08	1705.96
416.29	1699.81
416.49	1734.63
416.70	1638.38
416.91	1662.95
417.11	1701.86
417.32	1738.73
417.53	1693.67
417.73	1734.63
417.94	1648.61
418.15	1738.73
418.35	1738.73
418.56	1755.11
418.77	1818.60
418.97	1667.05
419.18	1734.63
419.38	1589.22
419.59	1734.63
419.80	1853.41
420.00	1632.23
420.21	1628.14
420.42	1724.39
420.62	1701.86
420.83	1605.61
421.04	1662.95
421.24	1648.61
421.45	1671.14
421.65	1763.30
421.86	1671.14
422.07	1701.86
422.27	1652.71
422.48	1818.60
422.69	1656.81
422.89	1619.94
423.10	1738.73
423.30	1681.38
423.51	1691.62
423.72	1720.29
423.92	1722.34
424.13	1658.85
424.33	1714.15
424.54	1757.16
424.75	1728.49
424.95	1837.03
425.16	1763.30
425.36	1703.91
425.57	1748.97
425.78	1679.33
425.98	1716.20
426.19	1703.91
426.39	1681.38
426.60	1763.30
426.81	1785.83
427.01	1652.71
427.22	1665.00
427.42	1628.14
427.63	1656.81
427.83	1732.58
428.04	1791.97
428.25	1691.62
428.45	1730.53
428.66	1757.16
428.86	1699.81
429.07	1621.99
429.28	1746.92
429.48	1732.58
429.69	1656.81
429.89	1691.62
430.10	1681.38
430.30	1736.68
430.51	1812.45
430.71	1632.23
430.92	1722.34
431.13	1603.56
431.33	1720.29
431.54	1697.77
431.74	1714.15
431.95	1810.40
432.15	1636.33
432.36	1718.25
432.56	1746.92
432.77	1796.07
432.98	1814.50
433.18	1708.01
433.39	1677.29
433.59	1667.05
433.80	1839.08
434.00	1845.22
434.21	1646.57
434.41	1632.23
434.62	1785.83
434.82	1683.43
435.03	1624.04
435.23	1671.14
435.44	1642.47
435.64	1697.77
435.85	1783.78
436.06	1775.59
436.26	1769.44
436.47	1726.44
436.67	1669.09
436.88	1615.85
437.08	1691.62
437.29	1746.92
437.49	1767.40
437.70	1654.76
437.90	1796.07
438.11	1818.60
438.31	1753.06
438.52	1834.98
438.72	1787.88
438.93	1888.23
439.13	1812.45
439.34	1794.02
439.54	1771.49
439.75	1759.21
439.95	1804.26
440.16	1763.30
440.36	1783.78
440.57	1742.82
440.77	1716.20
440.98	1742.82
441.18	1787.88
441.39	1742.82
441.59	1697.77
441.80	1789.92
442.00	1689.57
442.21	1748.97
442.41	1691.62
442.62	1738.73
442.82	1685.48
443.02	1675.24
443.23	1710.05
443.43	1644.52
443.64	1734.63
443.84	1654.76
444.05	1822.69
444.25	1734.63
444.46	1697.77
444.66	1654.76
444.87	1798.12
445.07	1665.00
445.28	1669.09
445.48	1814.50
445.69	1714.15
445.89	1871.84
446.09	1738.73
446.30	1955.81
446.50	2611.16
446.71	3755.97
446.91	4331.45
447.12	4825.01
447.32	4925.36
447.53	4409.28
447.73	3954.63
447.93	3639.24
448.14	3336.14
448.34	3270.61
448.55	2998.23
448.75	2820.05
448.96	2686.94
449.16	2496.47
449.36	2316.25
449.57	2076.64
449.77	1867.75
449.98	1765.35
450.18	1773.54
450.39	1738.73
450.59	1765.35
450.79	1867.75
451.00	1708.01
451.20	1773.54
451.41	1685.48
451.61	1726.44
451.81	1757.16
452.02	1738.73
452.22	1710.05
452.43	1675.24
452.63	1712.10
452.84	1730.53
453.04	1722.34
453.24	1736.68
453.45	1662.95
453.65	1748.97
453.86	1675.24
454.06	1683.43
454.26	1710.05
454.47	1677.29
454.67	1877.99
454.87	1699.81
455.08	1746.92
455.28	1818.60
455.49	1728.49
455.69	1652.71
455.89	1910.75
456.10	1775.59
456.30	1675.24
456.51	1763.30
456.71	1800.16
456.91	1763.30
457.12	1742.82
457.32	1726.44
457.52	1724.39
457.73	1765.35
457.93	1761.25
458.14	1638.38
458.34	1765.35
458.54	1691.62
458.75	1685.48
458.95	1746.92
459.15	1708.01
459.36	1728.49
459.56	1798.12
459.76	1816.55
459.97	1712.10
460.17	1677.29
460.37	1771.49
460.58	1767.40
460.78	1687.53
460.99	1701.86
461.19	1683.43
461.39	1728.49
461.60	1679.33
461.80	1804.26
462.00	1646.57
462.21	1744.87
462.41	1734.63
462.61	1685.48
462.82	1671.14
463.02	1705.96
463.22	1683.43
463.43	1820.64
463.63	1705.96
463.83	1732.58
464.04	1705.96
464.24	1810.40
464.44	1660.90
464.64	1667.05
464.85	1738.73
465.05	1730.53
465.25	1738.73
465.46	1755.11
465.66	1732.58
465.86	1769.44
466.07	1779.68
466.27	1746.92
466.47	1703.91
466.68	1667.05
466.88	1861.60
467.08	1810.40
467.29	1804.26
467.49	1652.71
467.69	1736.68
467.89	1710.05
468.10	1691.62
468.30	1777.64
468.50	1873.89
468.71	1748.97
468.91	1613.80
469.11	1806.31
469.31	1660.90
469.52	1648.61
469.72	1808.36
469.92	1861.60
470.13	1669.09
470.33	1748.97
470.53	1783.78
470.73	2127.84
470.94	2310.11
471.14	2291.68
471.34	2449.37
471.54	2418.65
471.75	2209.76
471.95	2152.42
472.15	2154.46
472.36	2095.07
472.56	2050.02
472.76	2050.02
472.96	2004.96
473.17	1943.52
473.37	1871.84
473.57	1693.67
473.77	1820.64
473.98	1714.15
474.18	1681.38
474.38	1888.23
474.58	1660.90
474.79	1746.92
474.99	1748.97
475.19	1720.29
475.39	1591.27
475.60	1736.68
475.80	1744.87
476.00	1763.30
476.20	1632.23
476.41	1734.63
476.61	1828.84
476.81	1783.78
477.01	1673.19
477.21	1853.41
477.42	1771.49
477.62	1597.42
477.82	1800.16
478.02	1679.33
478.23	1748.97
478.43	1669.09
478.63	1685.48
478.83	1656.81
479.03	1712.10
479.24	1804.26
479.44	1920.99
479.64	1638.38
479.84	1544.17
480.04	1736.68
480.25	1685.48
480.45	1642.47
480.65	1695.72
480.85	1759.21
481.06	1669.09
481.26	1691.62
481.46	1730.53
481.66	1710.05
481.86	1550.31
482.06	1869.80
482.27	1724.39
482.47	1660.90
482.67	1746.92
482.87	1646.57
483.07	1763.30
483.28	1572.84
483.48	1632.23
483.68	1646.57
483.88	1609.70
484.08	1583.08
484.29	1646.57
484.49	1726.44
484.69	1665.00
484.89	1757.16
485.09	1744.87
485.29	1726.44
485.50	1714.15
485.70	1724.39
485.90	1841.12
486.10	1779.68
486.30	1757.16
486.50	1804.26
486.71	1654.76
486.91	1683.43
487.11	1804.26
487.31	1617.90
487.51	1658.85
487.71	1697.77
487.91	1708.01
488.12	1675.24
488.32	1529.83
488.52	1619.94
488.72	1599.46
488.92	1650.66
489.12	1730.53
489.32	1746.92
489.53	1757.16
489.73	1632.23
489.93	1804.26
490.13	1669.09
490.33	1660.90
490.53	1757.16
490.73	1746.92
490.94	1677.29
491.14	1730.53
491.34	1804.26
491.54	2115.55
491.74	2488.28
491.94	2840.53
492.14	3092.43
492.34	2979.79
492.54	2768.85
492.75	2416.60
492.95	2426.84
493.15	2297.82
493.35	2265.05
493.55	2291.68
493.75	2090.98
493.95	2066.40
494.15	1906.66
494.35	1888.23
494.56	1880.04
494.76	1847.27
494.96	1769.44
495.16	1787.88
495.36	1779.68
495.56	1712.10
495.76	1669.09
495.96	1734.63
496.16	1679.33
496.36	1773.54
496.56	1656.81
496.77	1738.73
496.97	1705.96
497.17	1683.43
497.37	1701.86
497.57	1748.97
497.77	1748.97
497.97	1685.48
498.17	1660.90
498.37	1683.43
498.57	1726.44
498.77	1634.28
498.97	1810.40
499.17	1822.69
499.38	1744.87
499.58	1802.21
499.78	1748.97
499.98	1787.88
500.18	1699.81
500.38	1734.63
500.58	1865.70
500.78	2510.81
500.98	4503.48
501.18	5941.16
501.38	6721.43
501.58	7212.95
501.78	6760.34
501.98	5584.81
502.18	5013.43
502.38	4374.46
502.58	4175.81
502.78	3934.15
502.98	3659.72
503.18	3407.82
503.38	3190.74
503.59	2815.96
503.79	2580.44
503.99	2475.99
504.19	2320.35
504.39	2123.74
504.59	2228.19
504.79	2111.46
504.99	1980.39
505.19	1941.47
505.39	1847.27
505.59	1966.05
505.79	1910.75
505.99	1900.52
506.19	1714.15
506.39	1830.88
506.59	1806.31
506.79	1785.83
506.99	1775.59
507.19	1738.73
507.39	1720.29
507.59	1687.53
507.79	1677.29
507.99	1785.83
508.19	1718.25
508.39	1660.90
508.59	1705.96
508.79	1828.84
508.99	1890.28
509.19	1783.78
509.39	1812.45
509.59	1685.48
509.79	1763.30
509.99	1763.30
510.19	1728.49
510.39	1771.49
510.59	1712.10
510.79	1695.72
510.99	1714.15
511.19	1693.67
511.39	1863.65
511.59	1701.86
511.79	1808.36
511.99	1763.30
512.19	1832.93
512.38	1730.53
512.58	1734.63
512.78	1640.42
512.98	1810.40
513.18	1787.88
513.38	1673.19
513.58	1794.02
513.78	1699.81
513.98	1728.49
514.18	1636.33
514.38	1730.53
514.58	1701.86
514.78	1566.70
514.98	1646.57
515.18	1710.05
515.38	1675.24
515.58	1796.07
515.78	1646.57
515.98	1722.34
516.18	1691.62
516.38	1740.77
516.57	1716.20
516.77	1681.38
516.97	1808.36
517.17	1660.90
517.37	1613.80
517.57	1742.82
517.77	1671.14
517.97	1687.53
518.17	1812.45
518.37	1689.57
518.57	1703.91
518.77	1685.48
518.97	1708.01
519.16	1679.33
519.36	1791.97
519.56	1726.44
519.76	1695.72
519.96	1781.73
520.16	1816.55
520.36	1658.85
520.56	1798.12
520.76	1734.63
520.96	1689.57
521.16	1798.12
521.35	1746.92
521.55	1955.81
521.75	1654.76
521.95	1703.91
522.15	1728.49
522.35	1673.19
522.55	1662.95
522.75	1728.49
522.95	1734.63
523.14	1673.19
523.34	1732.58
523.54	1693.67
523.74	1808.36
523.94	1765.35
524.14	1667.05
524.34	1697.77
524.54	1755.11
524.73	1673.19
524.93	1755.11
525.13	1744.87
525.33	1705.96
525.53	1882.08
525.73	1839.08
525.93	1699.81
526.13	1708.01
526.32	1671.14
526.52	1789.92
526.72	1736.68
526.92	1689.57
527.12	1722.34
527.32	1646.57
527.52	1779.68
527.71	1744.87
527.91	1705.96
528.11	1728.49
528.31	1748.97
528.51	1697.77
528.71	1738.73
528.90	1798.12
529.10	1751.01
529.30	1796.07
529.50	1617.90
529.70	1714.15
529.90	1699.81
530.09	1720.29
530.29	1658.85
530.49	1662.95
530.69	1804.26
530.89	1687.53
531.09	1820.64
531.28	1701.86
531.48	1834.98
531.68	1695.72
531.88	1699.81
532.08	1718.25
532.28	1638.38
532.47	1759.21
532.67	1697.77
532.87	1748.97
533.07	1677.29
533.27	1687.53
533.46	1806.31
533.66	1705.96
533.86	1712.10
534.06	1718.25
534.26	1699.81
534.45	1763.30
534.65	1796.07
534.85	1759.21
535.05	1738.73
535.25	1818.60
535.44	1701.86
535.64	1757.16
535.84	1660.90
536.04	1728.49
536.24	1703.91
536.43	1687.53
536.63	1705.96
536.83	1748.97
537.03	1691.62
537.22	1617.90
537.42	1658.85
537.62	1691.62
537.82	1751.01
538.02	1787.88
538.21	1853.41
538.41	1918.95
538.61	1751.01
538.81	1738.73
539.00	1769.44
539.20	1632.23
539.40	1679.33
539.60	1755.11
539.79	1740.77
539.99	1710.05
540.19	1705.96
540.39	1777.64
540.58	1701.86
540.78	1779.68
540.98	1720.29
541.18	1746.92
541.37	1834.98
541.57	1710.05
541.77	1712.10
541.97	1671.14
542.16	1660.90
542.36	1675.24
542.56	1683.43
542.76	1802.21
542.95	1705.96
543.15	1761.25
543.35	1767.40
543.54	1591.27
543.74	1693.67
543.94	1812.45
544.14	1712.10
544.33	1787.88
544.53	1697.77
544.73	1611.75
544.93	1640.42
545.12	1677.29
545.32	1673.19
545.52	1677.29
545.71	1611.75
545.91	1683.43
546.11	1773.54
546.30	1669.09
546.50	1656.81
546.70	1744.87
546.90	1718.25
547.09	1667.05
547.29	1679.33
547.49	1726.44
547.68	1734.63
547.88	1634.28
548.08	1685.48
548.27	2127.84
548.47	1691.62
548.67	1705.96
548.87	1775.59
549.06	1712.10
549.26	1699.81
549.46	1732.58
549.65	1744.87
549.85	1812.45
550.05	1826.79
550.24	1597.42
550.44	1712.10
550.64	1716.20
550.83	1722.34
551.03	1775.59
551.23	1826.79
551.42	1769.44
551.62	1718.25
551.82	1736.68
552.01	1701.86
552.21	1810.40
552.41	1699.81
552.60	1783.78
552.80	1683.43
553.00	1732.58
553.19	1808.36
553.39	1796.07
553.59	1581.03
553.78	1742.82
553.98	1673.19
554.17	1734.63
554.37	1724.39
554.57	1783.78
554.76	1681.38
554.96	1724.39
555.16	1785.83
555.35	1656.81
555.55	1712.10
555.75	1665.00
555.94	1798.12
556.14	1640.42
556.33	1716.20
556.53	1789.92
556.73	1724.39
556.92	1771.49
557.12	1771.49
557.32	1785.83
557.51	1744.87
557.71	1851.36
557.90	1785.83
558.10	1789.92
558.30	1710.05
558.49	1716.20
558.69	1675.24
558.88	1691.62
559.08	1755.11
559.28	1705.96
559.47	1781.73
559.67	1734.63
559.86	1880.04
560.06	1746.92
560.26	1685.48
560.45	1710.05
560.65	1705.96
560.84	1757.16
561.04	1728.49
561.24	1798.12
561.43	1652.71
561.63	1812.45
561.82	1783.78
562.02	1812.45
562.22	1736.68
562.41	1710.05
562.61	1658.85
562.80	1722.34
563.00	1894.37
563.19	1660.90
563.39	1712.10
563.59	1830.88
563.78	1763.30
563.98	1624.04
564.17	1732.58
564.37	1701.86
564.56	1740.77
564.76	1759.21
564.96	1789.92
565.15	1751.01
565.35	1830.88
565.54	1726.44
565.74	1730.53
565.93	1746.92
566.13	1677.29
566.32	1716.20
566.52	1751.01
566.71	1718.25
566.91	1804.26
567.11	1746.92
567.30	1669.09
567.50	1669.09
567.69	1837.03
567.89	1785.83
568.08	1714.15
568.28	1742.82
568.47	1650.66
568.67	1812.45
568.86	1693.67
569.06	1718.25
569.25	1759.21
569.45	1650.66
569.64	1708.01
569.84	1683.43
570.04	1701.86
570.23	1738.73
570.43	1753.06
570.62	1755.11
570.82	1837.03
571.01	1683.43
571.21	1710.05
571.40	1669.09
571.60	1738.73
571.79	1746.92
571.99	1736.68
572.18	1665.00
572.38	1755.11
572.57	1685.48
572.77	1765.35
572.96	1785.83
573.16	1759.21
573.35	1708.01
573.55	1826.79
573.74	1730.53
573.94	1732.58
574.13	1787.88
574.33	1826.79
574.52	1787.88
574.71	1726.44
574.91	1800.16
575.10	1681.38
575.30	1785.83
575.49	1691.62
575.69	1740.77
575.88	1824.74
576.08	1648.61
576.27	1748.97
576.47	1701.86
576.66	1849.32
576.86	1761.25
577.05	1787.88
577.25	1800.16
577.44	1806.31
577.64	1708.01
577.83	1755.11
578.02	1697.77
578.22	1777.64
578.41	1783.78
578.61	1671.14
578.80	1634.28
579.00	1794.02
579.19	1791.97
579.39	1767.40
579.58	1818.60
579.77	1685.48
579.97	1841.12
580.16	1880.04
580.36	1865.70
580.55	1855.46
580.75	1665.00
580.94	1689.57
581.13	1873.89
581.33	1759.21
581.52	1722.34
581.72	1859.56
581.91	1953.76
582.11	1763.30
582.30	1806.31
582.49	1804.26
582.69	1781.73
582.88	1791.97
583.08	1724.39
583.27	1718.25
583.47	1834.98
583.66	1660.90
583.85	1705.96
584.05	1722.34
584.24	1863.65
584.44	1789.92
584.63	1818.60
584.82	1837.03
585.02	1818.60
585.21	1849.32
585.41	1828.84
585.60	1746.92
585.79	1910.75
585.99	1886.18
586.18	1877.99
586.37	2189.28
586.57	3459.02
586.76	10184.55
586.96	24977.03
587.15	35470.82
587.34	41346.44
587.54	43511.14
587.73	37617.09
587.93	27098.72
588.12	22296.24
588.31	18654.95
588.51	16752.38
588.70	15437.59
588.89	14540.58
589.09	13002.55
589.28	11411.28
589.47	9613.17
589.67	7989.13
589.86	6563.74
590.06	5083.06
590.25	3846.09
590.44	3272.65
590.64	2584.54
590.83	2230.24
591.02	2066.40
591.22	1953.76
591.41	1912.80
591.60	1771.49
591.80	1927.14
591.99	1781.73
592.18	1785.83
592.38	1861.60
592.57	1751.01
592.76	1789.92
592.96	1781.73
593.15	1769.44
593.34	1855.46
593.54	1798.12
593.73	1728.49
593.92	1777.64
594.12	1787.88
594.31	1777.64
594.50	1708.01
594.70	1791.97
594.89	1882.08
595.08	1710.05
595.28	1771.49
595.47	1832.93
595.66	1757.16
595.86	1642.47
596.05	1748.97
596.24	1734.63
596.43	1863.65
596.63	1837.03
596.82	1738.73
597.01	1767.40
597.21	1839.08
597.40	1800.16
597.59	1714.15
597.79	1781.73
597.98	1744.87
598.17	1753.06
598.36	1783.78
598.56	1660.90
598.75	1669.09
598.94	1808.36
599.14	1734.63
599.33	1683.43
599.52	1730.53
599.71	1802.21
599.91	1732.58
600.10	1796.07
600.29	1798.12
600.48	1800.16
600.68	1742.82
600.87	1759.21
601.06	1697.77
601.26	1724.39
601.45	1714.15
601.64	1740.77
601.83	1787.88
602.03	1712.10
602.22	1751.01
602.41	1826.79
602.60	1867.75
602.80	1812.45
602.99	1722.34
603.18	1691.62
603.37	1740.77
603.57	1761.25
603.76	1687.53
603.95	1796.07
604.14	1730.53
604.34	1671.14
604.53	1787.88
604.72	1798.12
604.91	1759.21
605.10	1736.68
605.30	1722.34
605.49	1828.84
605.68	1730.53
605.87	1810.40
606.07	1671.14
606.26	1718.25
606.45	1757.16
606.64	1851.36
606.84	1738.73
607.03	1660.90
607.22	1808.36
607.41	1640.42
607.60	1718.25
607.80	1746.92
607.99	1652.71
608.18	1736.68
608.37	1767.40
608.56	1789.92
608.76	1804.26
608.95	1810.40
609.14	1816.55
609.33	1804.26
609.52	1804.26
609.72	1785.83
609.91	1808.36
610.10	1712.10
610.29	1863.65
610.48	1777.64
610.68	1708.01
610.87	1757.16
611.06	1789.92
611.25	1660.90
611.44	1798.12
611.63	1708.01
611.83	1808.36
612.02	1654.76
612.21	1751.01
612.40	1638.38
612.59	1654.76
612.79	1667.05
612.98	1812.45
613.17	1828.84
613.36	1779.68
613.55	1824.74
613.74	1593.32
613.93	1673.19
614.13	1640.42
614.32	1669.09
614.51	1685.48
614.70	1701.86
614.89	1730.53
615.08	1753.06
615.28	2076.64
615.47	1652.71
615.66	1808.36
615.85	1759.21
616.04	1699.81
616.23	1632.23
616.42	1669.09
616.62	1796.07
616.81	1681.38
617.00	1691.62
617.19	1773.54
617.38	1648.61
617.57	1771.49
617.76	1757.16
617.95	1781.73
618.15	1748.97
618.34	1736.68
618.53	1689.57
618.72	1785.83
618.91	1818.60
619.10	1871.84
619.29	1705.96
619.48	1701.86
619.68	1671.14
619.87	1781.73
620.06	1603.56
620.25	1710.05
620.44	1646.57
620.63	1691.62
620.82	1769.44
621.01	1742.82
621.20	1787.88
621.39	1714.15
621.59	1736.68
621.78	1742.82
621.97	1710.05
622.16	1681.38
622.35	1724.39
622.54	1761.25
622.73	1689.57
622.92	1658.85
623.11	1781.73
623.30	1701.86
623.49	1757.16
623.68	1701.86
623.88	1759.21
624.07	1660.90
624.26	1681.38
624.45	1740.77
624.64	1685.48
624.83	1765.35
625.02	1677.29
625.21	1716.20
625.40	1728.49
625.59	1757.16
625.78	1755.11
625.97	1775.59
626.16	1728.49
626.35	1759.21
626.54	1718.25
626.74	1806.31
626.93	1591.27
627.12	1632.23
627.31	1753.06
627.50	1705.96
627.69	1763.30
627.88	1591.27
628.07	1771.49
628.26	1667.05
628.45	1560.55
628.64	1636.33
628.83	1740.77
629.02	1669.09
629.21	1767.40
629.40	1757.16
629.59	1763.30
629.78	1722.34
629.97	1767.40
630.16	1722.34
630.35	1665.00
630.54	1683.43
630.73	1681.38
630.92	1761.25
631.11	1687.53
631.30	1773.54
631.49	1708.01
631.68	1673.19
631.87	1789.92
632.06	1634.28
632.25	1802.21
632.44	1724.39
632.63	1751.01
632.82	1591.27
633.01	1662.95
633.20	1687.53
633.39	1671.14
633.58	1609.70
633.77	1689.57
633.96	1673.19
634.15	1722.34
634.34	1667.05
634.53	1738.73
634.72	1677.29
634.91	1701.86
635.10	1718.25
635.29	1683.43
635.48	1755.11
635.67	1705.96
635.86	1656.81
636.05	1773.54
636.24	1642.47
636.43	1703.91
636.62	1689.57
636.81	1589.22
637.00	1691.62
637.19	1798.12
637.38	1712.10
637.57	1607.66
637.76	1775.59
637.95	1751.01
638.14	1751.01
638.33	1681.38
638.52	1767.40
638.71	1673.19
638.89	1644.52
639.08	1832.93
639.27	1748.97
639.46	1679.33
639.65	1777.64
639.84	1675.24
640.03	1812.45
640.22	1675.24
640.41	1722.34
640.60	1638.38
640.79	1689.57
640.98	1634.28
641.17	1800.16
641.36	1783.78
641.55	1765.35
641.74	1619.94
641.92	1646.57
642.11	1658.85
642.30	1675.24
642.49	1660.90
642.68	1738.73
642.87	1685.48
643.06	1732.58
643.25	1665.00
643.44	1673.19
643.63	1746.92
643.82	1726.44
644.00	1671.14
644.19	1757.16
644.38	1669.09
644.57	1804.26
644.76	1716.20
644.95	1673.19
645.14	1634.28
645.33	1728.49
645.52	1771.49
645.71	1681.38
645.89	1630.18
646.08	1689.57
646.27	1708.01
646.46	1806.31
646.65	1691.62
646.84	1757.16
647.03	1644.52
647.22	1720.29
647.40	1736.68
647.59	1646.57
647.78	1695.72
647.97	1681.38
648.16	1677.29
648.35	1820.64
648.54	1730.53
648.73	1726.44
648.91	1783.78
649.10	1695.72
649.29	1658.85
649.48	1755.11
649.67	1767.40
649.86	1716.20
650.05	1675.24
650.23	1755.11
650.42	1587.18
650.61	1679.33
650.80	1677.29
650.99	1877.99
651.18	1679.33
651.36	1753.06
651.55	1728.49
651.74	1650.66
651.93	1665.00
652.12	1660.90
652.31	1755.11
652.49	1773.54
652.68	1710.05
652.87	1773.54
653.06	1675.24
653.25	1779.68
653.44	1675.24
653.62	1740.77
653.81	1796.07
654.00	1730.53
654.19	1796.07
654.38	1845.22
654.56	1656.81
654.75	1689.57
654.94	1673.19
655.13	1642.47
655.32	1667.05
655.51	1724.39
655.69	1656.81
655.88	1761.25
656.07	1677.29
656.26	1660.90
656.45	1562.60
656.63	1669.09
656.82	1728.49
657.01	1820.64
657.20	1581.03
657.38	1800.16
657.57	1654.76
657.76	1634.28
657.95	1794.02
658.14	1677.29
658.32	1705.96
658.51	1615.85
658.70	1724.39
658.89	1800.16
659.08	1697.77
659.26	1724.39
659.45	1626.09
659.64	1738.73
659.83	1665.00
660.01	1865.70
660.20	1730.53
660.39	1822.69
660.58	1611.75
660.76	1701.86
660.95	1650.66
661.14	1671.14
661.33	1607.66
661.51	1691.62
661.70	1628.14
661.89	1820.64
662.08	1695.72
662.26	1558.50
662.45	1734.63
662.64	1845.22
662.83	1767.40
663.01	1675.24
663.20	1640.42
663.39	1769.44
663.58	1718.25
663.76	1701.86
663.95	1681.38
664.14	1703.91
664.32	1708.01
664.51	1673.19
664.70	1632.23
664.89	1722.34
665.07	1632.23
665.26	1765.35
665.45	1630.18
665.64	1708.01
665.82	1718.25
666.01	1740.77
666.20	1665.00
666.38	1769.44
666.57	1861.60
666.76	2164.70
666.95	4521.92
667.13	10663.77
667.32	15691.54
667.51	18482.92
667.69	19648.21
667.88	18288.36
668.07	12508.99
668.25	9693.04
668.44	8243.07
668.63	7389.07
668.81	6889.37
669.00	6444.96
669.19	5760.94
669.38	5040.05
669.56	4652.98
669.75	3971.01
669.94	3557.32
670.12	2832.34
670.31	2516.95
670.50	2230.24
670.68	2050.02
670.87	1834.98
671.06	1755.11
671.24	1847.27
671.43	1806.31
671.62	1726.44
671.80	1720.29
671.99	1744.87
672.18	1789.92
672.36	1716.20
672.55	1691.62
672.74	1738.73
672.92	1705.96
673.11	1740.77
673.29	1591.27
673.48	1777.64
673.67	1730.53
673.85	1765.35
674.04	1652.71
674.23	1697.77
674.41	1820.64
674.60	1691.62
674.79	1527.78
674.97	1677.29
675.16	1763.30
675.34	1734.63
675.53	1648.61
675.72	1781.73
675.90	1755.11
676.09	1632.23
676.28	1771.49
676.46	1632.23
676.65	1708.01
676.83	1648.61
677.02	1697.77
677.21	1722.34
677.39	1673.19
677.58	1691.62
677.77	1730.53
677.95	1658.85
678.14	1736.68
678.32	1746.92
678.51	1693.67
678.70	1828.84
678.88	1734.63
679.07	1763.30
679.25	1703.91
679.44	1632.23
679.63	1601.51
679.81	1740.77
680.00	1802.21
680.18	1806.31
680.37	1806.31
680.55	1722.34
680.74	1650.66
680.93	1583.08
681.11	1718.25
681.30	1640.42
681.48	1722.34
681.67	1681.38
681.85	1693.67
682.04	1665.00
682.23	1779.68
682.41	1662.95
682.60	1660.90
682.78	1773.54
682.97	1665.00
683.15	1634.28
683.34	1705.96
683.53	1763.30
683.71	1677.29
683.90	1849.32
684.08	1812.45
684.27	1705.96
684.45	1738.73
684.64	1812.45
684.82	1703.91
685.01	1759.21
685.19	1701.86
685.38	1787.88
685.57	1705.96
685.75	1675.24
685.94	1736.68
686.12	1667.05
686.31	1626.09
686.49	1871.84
686.68	1589.22
686.86	1714.15
687.05	1636.33
687.23	1794.02
687.42	1662.95
687.60	1656.81
687.79	1742.82
687.97	1765.35
688.16	1767.40
688.34	1808.36
688.53	1632.23
688.71	1769.44
688.90	1814.50
689.08	1638.38
689.27	1597.42
689.45	1748.97
689.64	1787.88
689.82	1720.29
690.01	1728.49
690.19	1748.97
690.38	1736.68
690.56	1802.21
690.75	1652.71
690.93	1718.25
691.12	1669.09
691.30	1740.77
691.49	1697.77
691.67	1691.62
691.86	1816.55
692.04	1660.90
692.23	1648.61
692.41	1660.90
692.60	1812.45
692.78	1775.59
692.97	1697.77
693.15	1673.19
693.34	1861.60
693.52	1740.77
693.71	1646.57
693.89	1628.14
694.08	1669.09
694.26	1675.24
694.44	1732.58
694.63	1697.77
694.81	1632.23
695.00	1667.05
695.18	1820.64
695.37	1820.64
695.55	1757.16
695.74	1621.99
695.92	1644.52
696.10	1677.29
696.29	1644.52
696.47	1703.91
696.66	1656.81
696.84	1693.67
697.03	1738.73
697.21	1830.88
697.40	2306.01
697.58	1738.73
697.76	1699.81
697.95	1640.42
698.13	1636.33
698.32	1685.48
698.50	1814.50
698.68	1730.53
698.87	1693.67
699.05	1769.44
699.24	1777.64
699.42	1687.53
699.61	1761.25
699.79	1693.67
699.97	1693.67
700.16	1658.85
700.34	1642.47
700.53	1654.76
700.71	1777.64
700.89	1720.29
701.08	1701.86
701.26	1673.19
701.45	2082.78
701.63	1677.29
701.81	1710.05
702.00	1689.57
702.18	1761.25
702.37	1691.62
702.55	1761.25
702.73	1730.53
702.92	1738.73
703.10	1746.92
703.28	1699.81
703.47	1687.53
703.65	1779.68
703.84	1732.58
704.02	1697.77
704.20	1796.07
704.39	1714.15
704.57	1746.92
704.75	1736.68
704.94	1794.02
705.12	1699.81
705.30	1759.21
705.49	2220.00
705.67	4478.91
705.86	9836.39
706.04	12875.58
706.22	15103.77
706.41	15599.38
706.59	14184.23
706.77	9824.11
706.96	7499.66
707.14	6621.08
707.32	6021.03
707.51	5762.98
707.69	4992.95
707.87	4317.12
708.06	3692.49
708.24	3061.71
708.42	2484.19
708.61	2279.39
708.79	1849.32
708.97	1875.94
709.16	1779.68
709.34	1767.40
709.52	1757.16
709.71	1767.40
709.89	1800.16
710.07	1779.68
710.26	1710.05
710.44	1665.00
710.62	1761.25
710.80	1748.97
710.99	1732.58
711.17	1822.69
711.35	1611.75
711.54	1644.52
711.72	1730.53
711.90	1681.38
712.09	1722.34
712.27	1624.04
712.45	1730.53
712.63	1734.63
712.82	1728.49
713.00	1755.11
713.18	1820.64
713.37	1789.92
713.55	1759.21
713.73	1697.77
713.91	1714.15
714.10	1697.77
714.28	1689.57
714.46	1705.96
714.65	1679.33
714.83	1693.67
715.01	1687.53
715.19	1697.77
715.38	1595.37
715.56	1738.73
715.74	1687.53
715.92	1716.20
716.11	1781.73
716.29	1630.18
716.47	1695.72
716.65	1705.96
716.84	1576.94
717.02	1773.54
717.20	1626.09
717.38	1628.14
717.57	1695.72
717.75	1699.81
717.93	1701.86
718.11	1654.76
718.30	1599.46
718.48	1757.16
718.66	1712.10
718.84	1773.54
719.03	1714.15
719.21	1695.72
719.39	1740.77
719.57	1732.58
719.75	1710.05
719.94	1673.19
720.12	1712.10
720.30	1683.43
720.48	1734.63
720.67	1673.19
720.85	1605.61
721.03	1617.90
721.21	1628.14
721.39	1714.15
721.58	1681.38
721.76	1757.16
721.94	1748.97
722.12	1781.73
722.30	1746.92
722.49	1648.61
722.67	1726.44
722.85	1742.82
723.03	1603.56
723.21	1675.24
723.40	1665.00
723.58	1775.59
723.76	1681.38
723.94	1781.73
724.12	1679.33
724.30	1822.69
724.49	1738.73
724.67	1624.04
724.85	1718.25
725.03	1605.61
725.21	1759.21
725.40	1777.64
725.58	1736.68
725.76	1734.63
725.94	1759.21
726.12	1660.90
726.30	1716.20
726.49	1648.61
726.67	1699.81
726.85	1734.63
727.03	1791.97
727.21	2213.85
727.39	2975.70
727.57	3772.36
727.76	4198.34
727.94	4530.11
728.12	4468.67
728.30	3790.79
728.48	2908.12
728.66	2740.18
728.84	2547.67
729.03	2303.96
729.21	2144.22
729.39	1916.90
729.57	1751.01
729.75	1781.73
729.93	1748.97
730.11	1708.01
730.30	1695.72
730.48	1632.23
730.66	1746.92
730.84	1695.72
731.02	1757.16
731.20	1705.96
731.38	1718.25
731.56	1624.04
731.74	1738.73
731.93	1675.24
732.11	1691.62
732.29	1705.96
732.47	1738.73
732.65	1738.73
732.83	1767.40
733.01	1705.96
733.19	1603.56
733.37	1701.86
733.56	1650.66
733.74	1740.77
733.92	1714.15
734.10	1769.44
734.28	1691.62
734.46	1605.61
734.64	1699.81
734.82	1722.34
735.00	1595.37
735.18	1705.96
735.36	1783.78
735.54	1714.15
735.73	1724.39
735.91	1771.49
736.09	1787.88
736.27	1681.38
736.45	1687.53
736.63	1599.46
736.81	1662.95
736.99	1841.12
737.17	1841.12
737.35	1644.52
737.53	1708.01
737.71	1710.05
737.89	1761.25
738.07	1662.95
738.25	1611.75
738.43	1585.13
738.61	1693.67
738.80	1658.85
738.98	1642.47
739.16	1656.81
739.34	1601.51
739.52	1849.32
739.70	1726.44
739.88	1689.57
740.06	1837.03
740.24	1593.32
740.42	1787.88
740.60	1654.76
740.78	1648.61
740.96	1648.61
741.14	1658.85
741.32	1771.49
741.50	1634.28
741.68	1822.69
741.86	1697.77
742.04	1697.77
742.22	1644.52
742.40	1775.59
742.58	1751.01
742.76	1626.09
742.94	1722.34
743.12	1624.04
743.30	1699.81
743.48	1724.39
743.66	1642.47
743.84	1724.39
744.02	1636.33
744.20	1738.73
744.38	1591.27
744.56	1662.95
744.74	1783.78
744.92	1716.20
745.10	1802.21
745.28	1671.14
745.46	1714.15
745.64	1751.01
745.82	1738.73
746.00	1605.61
746.18	1748.97
746.36	1634.28
746.54	1656.81
746.72	1710.05
746.90	1689.57
747.08	1761.25
747.26	1587.18
747.44	1748.97
747.62	1691.62
747.80	1710.05
747.98	1744.87
748.15	1734.63
748.33	1802.21
748.51	1771.49
748.69	1681.38
748.87	1673.19
749.05	1691.62
749.23	1648.61
749.41	1697.77
749.59	1648.61
749.77	1755.11
749.95	1665.00
750.13	1671.14
750.31	1748.97
750.49	1722.34
750.67	1738.73
750.85	1826.79
751.03	1609.70
751.20	1814.50
751.38	1705.96
751.56	1665.00
751.74	1689.57
751.92	1759.21
752.10	1581.03
752.28	1775.59
752.46	1613.80
752.64	1679.33
752.82	1662.95
753.00	1732.58
753.18	1646.57
753.35	1662.95
753.53	1634.28
753.71	1652.71
753.89	1724.39
754.07	1671.14
754.25	1738.73
754.43	1769.44
754.61	1689.57
754.79	1611.75
754.97	1730.53
755.14	1671.14
755.32	1617.90
755.50	1673.19
755.68	1712.10
755.86	1675.24
756.04	1705.96
756.22	1613.80
756.40	1755.11
756.57	1765.35
756.75	1724.39
756.93	1773.54
757.11	1722.34
757.29	1714.15
757.47	1593.32
757.65	1515.50
757.82	1603.56
758.00	1636.33
758.18	1712.10
758.36	1726.44
758.54	1734.63
758.72	1552.36
758.90	1720.29
759.07	1654.76
759.25	1687.53
759.43	1724.39
759.61	1652.71
759.79	2287.58
759.97	1763.30
760.15	1597.42
760.32	1708.01
760.50	1658.85
760.68	1738.73
760.86	1650.66
761.04	1726.44
761.22	1679.33
761.39	1638.38
761.57	1767.40
761.75	1662.95
761.93	1683.43
762.11	1693.67
762.28	1691.62
762.46	1652.71
762.64	1726.44
762.82	1650.66
763.00	1689.57
763.18	1705.96
763.35	1642.47
763.53	1671.14
763.71	1642.47
763.89	1761.25
764.07	1673.19
764.24	1685.48
764.42	1787.88
764.60	1716.20
764.78	1703.91
764.96	1810.40
765.13	1720.29
765.31	1656.81
765.49	1742.82
765.67	1667.05
765.84	1667.05
766.02	1718.25
766.20	1607.66
766.38	1652.71
766.56	1669.09
766.73	1775.59
766.91	1685.48
767.09	1654.76
767.27	1765.35
767.44	1652.71
767.62	1759.21
767.80	1652.71
767.98	1701.86
768.15	1685.48
768.33	1781.73
768.51	1708.01
768.69	1695.72
768.87	1716.20
769.04	1646.57
769.22	1888.23
769.40	1767.40
769.58	1837.03
769.75	1773.54
769.93	1732.58
770.11	1701.86
770.28	1673.19
770.46	1748.97
770.64	1773.54
770.82	1650.66
770.99	1712.10
771.17	1683.43
771.35	1681.38
771.53	1732.58
771.70	1679.33
771.88	1724.39
772.06	1652.71
772.23	1705.96
772.41	1738.73
772.59	1755.11
772.77	1607.66
772.94	1640.42
773.12	1685.48
773.30	1677.29
773.47	1699.81
773.65	1685.48
773.83	1802.21
774.01	1581.03
774.18	1624.04
774.36	1683.43
774.54	1632.23
774.71	1708.01
774.89	1615.85
775.07	1677.29
775.24	1638.38
775.42	1705.96
775.60	1777.64
775.78	1714.15
775.95	1550.31
776.13	1572.84
776.31	1624.04
776.48	1632.23
776.66	1794.02
776.84	1689.57
777.01	1667.05
777.19	1599.46
777.37	1619.94
777.54	1787.88
777.72	1814.50
777.90	1656.81
778.07	1671.14
778.25	1884.13
778.43	1619.94
778.60	1665.00
778.78	1730.53
778.96	1748.97
779.13	1626.09
779.31	1714.15
779.49	1720.29
779.66	1746.92
779.84	1648.61
780.01	1693.67
780.19	1628.14
780.37	1693.67
780.54	1738.73
780.72	1640.42
780.90	1695.72
781.07	1640.42
781.25	1613.80
781.43	1779.68
781.60	1621.99
781.78	1716.20
781.95	1716.20
782.13	1689.57
782.31	1685.48
782.48	1624.04
782.66	1683.43
782.83	1767.40
783.01	1691.62
783.19	1687.53
783.36	1763.30
783.54	1634.28
783.72	1730.53
783.89	1708.01
784.07	1726.44
784.24	1730.53
784.42	1826.79
784.60	1699.81
784.77	1660.90
784.95	1638.38
785.12	1714.15
785.30	1751.01
785.47	1685.48
785.65	1626.09
785.83	1646.57
786.00	1665.00
786.18	1708.01
786.35	1695.72
786.53	1669.09
786.71	1693.67
786.88	1632.23
787.06	1683.43
787.23	1761.25
787.41	1634.28
787.58	1781.73
787.76	1671.14
787.94	1699.81
788.11	1656.81
788.29	1650.66
788.46	1671.14
788.64	1617.90
788.81	1681.38
788.99	1691.62
789.16	1581.03
789.34	1738.73
789.52	1644.52
789.69	1705.96
789.87	1574.89
790.04	1683.43
790.22	1638.38
790.39	1724.39
790.57	1591.27
790.74	1634.28
790.92	1787.88
791.09	1632.23
791.27	1695.72
791.44	1759.21
791.62	1677.29
791.79	1810.40
791.97	1720.29
792.15	1871.84
792.32	1710.05
792.50	1697.77
792.67	1789.92
792.85	1771.49
793.02	1720.29
793.20	1673.19
793.37	1578.98
793.55	1748.97
793.72	1607.66
793.90	1748.97
794.07	1626.09
794.25	1630.18
794.42	1689.57
794.60	1730.53
794.77	1769.44
794.95	1683.43
795.12	1679.33
795.30	1712.10
795.47	1548.26
795.65	1902.56
795.82	1662.95
796.00	1652.71
796.17	1662.95
796.34	1642.47
796.52	1726.44
796.69	1677.29
796.87	1726.44
797.04	1652.71
797.22	1734.63
797.39	1718.25
797.57	1722.34
797.74	1734.63
797.92	1654.76
798.09	1646.57
798.27	1753.06
798.44	1742.82
798.62	1632.23
798.79	1699.81
798.96	1738.73
799.14	1689.57
799.31	1867.75
799.49	1607.66
799.66	1624.04
799.84	1757.16
800.01	1568.74
800.19	1720.29
800.36	1632.23
800.53	1738.73
800.71	1708.01
800.88	1767.40
801.06	1691.62
801.23	1624.04
801.41	1632.23
801.58	1681.38
801.75	1626.09
801.93	1732.58
802.10	1638.38
802.28	1710.05
802.45	1699.81
802.63	1732.58
802.80	1791.97
802.97	1652.71
803.15	1701.86
803.32	1757.16
803.50	1642.47
803.67	1609.70
803.84	1605.61
804.02	1626.09
804.19	1660.90
804.37	1607.66
804.54	1648.61
804.71	1673.19
804.89	1683.43
805.06	1630.18
805.24	1640.42
805.41	1615.85
805.58	1665.00
805.76	1775.59
805.93	1701.86
806.10	1789.92
806.28	1726.44
806.45	1710.05
806.63	1763.30
806.80	1753.06
806.97	1722.34
807.15	1775.59
807.32	1738.73
807.49	1693.67
807.67	1660.90
807.84	1740.77
808.01	1681.38
808.19	1787.88
808.36	1816.55
808.54	1685.48
808.71	1648.61
808.88	1683.43
809.06	1779.68
809.23	1732.58
809.40	1722.34
809.58	1820.64
809.75	1646.57
809.92	1652.71
810.10	1814.50
810.27	1701.86
810.44	1777.64
810.62	1751.01
810.79	1669.09
810.96	1689.57
811.14	1648.61
811.31	1701.86
811.48	1716.20
811.66	1710.05
811.83	1771.49
812.00	1638.38
812.18	1740.77
812.35	1773.54
812.52	1701.86
812.69	1716.20
812.87	1703.91
813.04	1656.81
813.21	1722.34
813.39	1642.47
813.56	1607.66
813.73	1716.20
813.91	1671.14
814.08	1671.14
814.25	1675.24
814.42	1638.38
814.60	1617.90
814.77	1667.05
814.94	1714.15
815.12	1626.09
815.29	1726.44
815.46	1642.47
815.63	1703.91
815.81	1640.42
815.98	1632.23
816.15	1722.34
816.33	1724.39
816.50	1662.95
816.67	1665.00
816.84	1685.48
817.02	1644.52
817.19	1656.81
817.36	1703.91
817.53	1714.15
817.71	1660.90
817.88	1710.05
818.05	1665.00
818.22	1669.09
818.40	1791.97
818.57	1669.09
818.74	1740.77
818.91	1730.53
819.09	1759.21
819.26	1679.33
819.43	1628.14
819.60	1599.46
819.78	1705.96
819.95	1730.53
820.12	1613.80
820.29	1781.73
820.47	1703.91
820.64	1656.81
820.81	1621.99
820.98	1632.23
821.15	1611.75
821.33	1744.87
821.50	1667.05
821.67	1675.24
821.84	1654.76
822.02	1710.05
822.19	1718.25
822.36	1634.28
822.53	1689.57
822.70	1701.86
822.88	1648.61
823.05	1742.82
823.22	1593.32
823.39	1701.86
823.56	1677.29
823.74	1796.07
823.91	1669.09
824.08	1654.76
824.25	1630.18
824.42	1865.70
824.60	1562.60
824.77	1753.06
824.94	1656.81
825.11	1712.10
825.28	1669.09
825.45	1736.68
825.63	1665.00
825.80	1609.70
825.97	1697.77
826.14	1648.61
826.31	1576.94
826.48	1738.73
826.66	1572.84
826.83	1738.73
827.00	1695.72
827.17	1705.96
827.34	1701.86
827.51	1593.32
827.69	1638.38
827.86	1687.53
828.03	1730.53
828.20	1679.33
828.37	1646.57
828.54	1728.49
828.71	1693.67
828.89	1810.40
829.06	1621.99
829.23	1740.77
829.40	1628.14
829.57	1640.42
829.74	1775.59
829.91	1738.73
830.09	1656.81
830.26	1656.81
830.43	1775.59
830.60	1714.15
830.77	1775.59
830.94	1757.16
831.11	1736.68
831.28	1683.43
831.46	1697.77
831.63	1607.66
831.80	1755.11
831.97	1693.67
832.14	1718.25
832.31	1722.34
832.48	1656.81
832.65	1765.35
832.82	1667.05
832.99	1783.78
833.17	1624.04
833.34	1779.68
833.51	1681.38
833.68	1607.66
833.85	1734.63
834.02	1699.81
834.19	1714.15
834.36	1609.70
834.53	1730.53
834.70	1667.05
834.87	1728.49
835.04	1697.77
835.22	1683.43
835.39	1636.33
835.56	1626.09
835.73	1697.77
835.90	1710.05
836.07	1632.23
836.24	1712.10
836.41	1634.28
836.58	1585.13
836.75	1753.06
836.92	1726.44
837.09	1705.96
837.26	1714.15
837.43	1724.39
837.60	1615.85
837.77	1636.33
837.94	1734.63
838.12	1781.73
838.29	1683.43
838.46	1673.19
838.63	1652.71
838.80	1783.78
838.97	1724.39
839.14	1673.19
839.31	1765.35
839.48	1652.71
839.65	1540.07
839.82	1673.19
839.99	1718.25
840.16	1652.71
840.33	1650.66
840.50	1673.19
840.67	1703.91
840.84	1576.94
841.01	1734.63
841.18	1642.47
841.35	1642.47
841.52	1705.96
841.69	1857.51
841.86	1730.53
842.03	1658.85
842.20	1732.58
842.37	1673.19
842.54	1718.25
842.71	1675.24
842.88	1607.66
843.05	1683.43
843.22	1634.28
843.39	1728.49
843.56	1697.77
843.73	1734.63
843.90	1683.43
844.07	1628.14
844.24	1730.53
844.41	1830.88
844.58	1705.96
844.75	1646.57
844.92	1708.01
845.09	1697.77
845.26	1656.81
845.43	1665.00
845.60	1677.29
845.77	1753.06
845.94	1718.25
846.10	1669.09
846.27	1570.79
846.44	1615.85
846.61	1683.43
846.78	1691.62
846.95	1724.39
847.12	1626.09
847.29	1683.43
847.46	1656.81
847.63	1708.01
847.80	1632.23
847.97	1695.72
848.14	1877.99
848.31	1677.29
848.48	1544.17
848.65	1667.05
848.82	1615.85
848.98	1816.55
849.15	1757.16
849.32	1806.31
849.49	1689.57
849.66	1736.68
849.83	1714.15
850.00	1640.42
850.17	1675.24
850.34	1628.14
850.51	1642.47
850.68	1652.71
850.85	1769.44
851.01	1708.01
851.18	1656.81
851.35	1689.57
851.52	1722.34
851.69	1771.49
851.86	1574.89
852.03	1652.71
852.20	1740.77
852.37	1605.61
852.53	1626.09
852.70	1728.49
852.87	1689.57
853.04	1640.42
853.21	1732.58
853.38	1820.64
853.55	1759.21
853.72	1765.35
853.89	1652.71
854.05	1701.86
854.22	1671.14
854.39	1642.47
854.56	1757.16
854.73	1705.96
854.90	1662.95
855.07	1665.00
855.23	1685.48
855.40	1603.56
855.57	1648.61
855.74	1632.23
855.91	1822.69
856.08	1609.70
856.25	1621.99
856.41	1718.25
856.58	1642.47
856.75	1683.43
856.92	1628.14
857.09	1779.68
857.26	1597.42
857.42	1626.09
857.59	1654.76
857.76	1722.34
857.93	1703.91
858.10	1773.54
858.27	1646.57
858.43	1695.72
858.60	1660.90
858.77	1578.98
858.94	1603.56
859.11	1701.86
859.27	1738.73
859.44	1654.76
859.61	1832.93
859.78	1726.44
859.95	1648.61
860.12	1595.37
860.28	1828.84
860.45	1791.97
860.62	1708.01
860.79	1689.57
860.95	1685.48
861.12	1599.46
861.29	1658.85
861.46	1665.00
861.63	1638.38
861.79	1724.39
861.96	1587.18
862.13	1679.33
862.30	1730.53
862.47	1585.13
862.63	1576.94
862.80	1724.39
862.97	1775.59
863.14	1765.35
863.30	1716.20
863.47	1591.27
863.64	1794.02
863.81	1746.92
863.97	1681.38
864.14	1658.85
864.31	1734.63
864.48	1753.06
864.65	1671.14
864.81	1673.19
864.98	1705.96
865.15	1724.39
865.32	1718.25
865.48	1730.53
865.65	1771.49
865.82	1714.15
865.98	1759.21
866.15	1773.54
866.32	1710.05
866.49	1652.71
866.65	1814.50
866.82	1624.04
866.99	1675.24
867.16	1671.14
867.32	1615.85
867.49	1724.39
867.66	1654.76
867.83	1630.18
867.99	1720.29
868.16	1671.14
868.33	1601.51
868.49	1748.97
868.66	1628.14
868.83	1738.73
868.99	1691.62
869.16	1683.43
869.33	1728.49
869.50	1687.53
869.66	1628.14
869.83	1660.90
870.00	1624.04
870.16	1736.68
870.33	1632.23
870.50	1796.07
870.66	1755.11
870.83	1806.31
871.00	1650.66
871.17	1751.01
871.33	1665.00
871.50	1722.34
871.67	1712.10
871.83	1724.39
872.00	1771.49
872.17	1697.77
872.33	1843.17
872.50	1714.15
872.67	1689.57
872.83	1683.43
873.00	1734.63
873.17	1685.48
873.33	1742.82
873.50	1677.29
873.67	1638.38
873.83	1656.81
874.00	1630.18
874.16	1718.25
874.33	1757.16
874.50	1662.95
874.66	1718.25
874.83	1726.44
875.00	1773.54
875.16	1728.49
875.33	1794.02
875.50	1568.74
875.66	1697.77
875.83	1689.57
875.99	1748.97
876.16	1673.19
876.33	1560.55
876.49	1710.05
876.66	1687.53
876.83	1632.23
876.99	1638.38
877.16	1708.01
877.32	1716.20
877.49	1691.62
877.66	1730.53
877.82	1773.54
877.99	1658.85
878.15	1773.54
878.32	1679.33
878.49	1763.30
878.65	1683.43
878.82	1789.92
878.98	1607.66
879.15	1753.06
879.32	1726.44
879.48	1730.53
879.65	1687.53
879.81	1583.08
879.98	1656.81
880.15	1648.61
880.31	1652.71
880.48	1658.85
880.64	1701.86
880.81	1734.63
880.97	1814.50
881.14	1665.00
881.31	1675.24
881.47	1869.80
881.64	1650.66
881.80	1634.28
881.97	1697.77
882.13	1699.81
882.30	1621.99
882.47	1630.18
882.63	1587.18
882.80	1660.90
882.96	1669.09
883.13	1812.45
883.29	1681.38
883.46	1656.81
883.62	1748.97
883.79	1712.10
883.95	1691.62
884.12	1689.57
884.29	1724.39
884.45	1703.91
884.62	1593.32
884.78	1626.09
884.95	1748.97
885.11	1665.00
885.28	1691.62
885.44	1722.34
885.61	1794.02
885.77	1787.88
885.94	1718.25
886.10	1642.47
886.27	1703.91
886.43	1853.41
886.60	1730.53
886.76	1673.19
886.93	1650.66
887.09	1648.61
887.26	1611.75
887.42	1675.24
887.59	1726.44
887.75	1863.65
887.92	1746.92
888.08	1779.68
888.25	1812.45
888.41	1787.88
888.58	1685.48
888.74	1708.01
888.91	1703.91
>>>>>End Processed Spectral Data<<<<<
