SpectraSuite Data File
++++++++++++++++++++++++++++++++++++
Date: Mon Jun 06 13:22:57 CEST 2016
User: root
Dark Spectrum Present: No
Reference Spectrum Present: No
Number of Sampled Component Spectra: 1
Spectrometers: USB4C02835
Integration Time (usec): 100000 (USB4C02835)
Spectra Averaged: 1 (USB4C02835)
Boxcar Smoothing: 0 (USB4C02835)
Correct for Electrical Dark: No (USB4C02835)
Strobe/Lamp Enabled: No (USB4C02835)
Correct for Detector Non-linearity: No (USB4C02835)
Correct for Stray Light: No (USB4C02835)
Number of Pixels in Processed Spectrum: 3648
>>>>>Begin Processed Spectral Data<<<<<
177.47	1470.44
177.69	1470.44
177.91	1470.44
178.13	1470.44
178.36	1509.35
178.58	1628.14
178.80	1685.48
179.02	1621.99
179.24	1640.42
179.46	1632.23
179.68	1767.40
179.90	1703.91
180.13	1675.24
180.35	1660.90
180.57	1710.05
180.79	1777.64
181.01	1736.68
181.23	1685.48
181.45	1771.49
181.67	1697.77
181.90	1746.92
182.12	1632.23
182.34	1613.80
182.56	1652.71
182.78	1714.15
183.00	1691.62
183.22	1683.43
183.44	1578.98
183.66	1843.17
183.89	1806.31
184.11	1685.48
184.33	1697.77
184.55	1748.97
184.77	1757.16
184.99	1628.14
185.21	1679.33
185.43	1853.41
185.65	1693.67
185.87	1679.33
186.10	1869.80
186.32	1828.84
186.54	1746.92
186.76	1646.57
186.98	1759.21
187.20	1671.14
187.42	1671.14
187.64	1681.38
187.86	1683.43
188.08	1746.92
188.30	1734.63
188.52	1671.14
188.75	1748.97
188.97	1720.29
189.19	1699.81
189.41	1748.97
189.63	1718.25
189.85	1611.75
190.07	1527.78
190.29	1630.18
190.51	1675.24
190.73	1609.70
190.95	1806.31
191.17	1699.81
191.39	1630.18
191.61	1689.57
191.84	1646.57
192.06	1740.77
192.28	1564.65
192.50	1845.22
192.72	1652.71
192.94	1650.66
193.16	1816.55
193.38	1665.00
193.60	1632.23
193.82	1705.96
194.04	1757.16
194.26	1697.77
194.48	1693.67
194.70	1703.91
194.92	1722.34
195.14	1732.58
195.36	1693.67
195.58	1648.61
195.80	1656.81
196.02	1662.95
196.24	1658.85
196.46	1705.96
196.69	1673.19
196.91	1828.84
197.13	1662.95
197.35	1675.24
197.57	1757.16
197.79	1775.59
198.01	1695.72
198.23	1683.43
198.45	1722.34
198.67	1695.72
198.89	1654.76
199.11	1796.07
199.33	1675.24
199.55	1632.23
199.77	1708.01
199.99	1765.35
200.21	1714.15
200.43	1689.57
200.65	1681.38
200.87	1587.18
201.09	1714.15
201.31	1675.24
201.53	1820.64
201.75	1738.73
201.97	1728.49
202.19	1703.91
202.41	1716.20
202.63	1828.84
202.85	1734.63
203.07	1724.39
203.29	1681.38
203.51	1636.33
203.73	1644.52
203.95	1814.50
204.17	1681.38
204.39	1734.63
204.61	1654.76
204.83	1740.77
205.05	1753.06
205.27	1738.73
205.49	1820.64
205.71	1654.76
205.93	1613.80
206.15	1724.39
206.37	1693.67
206.59	1665.00
206.81	1703.91
207.03	1675.24
207.25	1644.52
207.47	1771.49
207.69	1769.44
207.91	1699.81
208.13	1787.88
208.34	1751.01
208.56	1603.56
208.78	1734.63
209.00	1681.38
209.22	1644.52
209.44	1671.14
209.66	1617.90
209.88	1705.96
210.10	1693.67
210.32	1677.29
210.54	1804.26
210.76	1683.43
210.98	1712.10
211.20	1576.94
211.42	1681.38
211.64	1806.31
211.86	1771.49
212.08	1732.58
212.30	1722.34
212.52	1724.39
212.74	1718.25
212.96	1710.05
213.17	1726.44
213.39	1740.77
213.61	1773.54
213.83	1728.49
214.05	1583.08
214.27	1767.40
214.49	1638.38
214.71	1652.71
214.93	1751.01
215.15	1716.20
215.37	1722.34
215.59	1634.28
215.81	1738.73
216.03	1814.50
216.24	1679.33
216.46	1728.49
216.68	1689.57
216.90	1763.30
217.12	1779.68
217.34	1677.29
217.56	1619.94
217.78	1775.59
218.00	1755.11
218.22	1708.01
218.44	1714.15
218.66	1718.25
218.87	1746.92
219.09	1644.52
219.31	1697.77
219.53	1689.57
219.75	1734.63
219.97	1640.42
220.19	1732.58
220.41	1742.82
220.63	1703.91
220.85	1734.63
221.06	1671.14
221.28	1808.36
221.50	1714.15
221.72	1681.38
221.94	1712.10
222.16	1681.38
222.38	1755.11
222.60	1755.11
222.82	1740.77
223.03	1671.14
223.25	1648.61
223.47	1789.92
223.69	1826.79
223.91	1734.63
224.13	1648.61
224.35	1699.81
224.57	1806.31
224.78	1765.35
225.00	1615.85
225.22	1685.48
225.44	1738.73
225.66	1638.38
225.88	1701.86
226.10	1761.25
226.32	1730.53
226.53	1724.39
226.75	1656.81
226.97	1648.61
227.19	1656.81
227.41	1636.33
227.63	1607.66
227.85	1660.90
228.06	1724.39
228.28	1746.92
228.50	1693.67
228.72	1716.20
228.94	1626.09
229.16	1568.74
229.37	1634.28
229.59	1705.96
229.81	1804.26
230.03	1753.06
230.25	1665.00
230.47	1665.00
230.69	1662.95
230.90	1671.14
231.12	1595.37
231.34	1714.15
231.56	1742.82
231.78	1646.57
232.00	1697.77
232.21	1658.85
232.43	1722.34
232.65	1568.74
232.87	1720.29
233.09	1660.90
233.30	1665.00
233.52	1710.05
233.74	1634.28
233.96	1667.05
234.18	1671.14
234.40	1640.42
234.61	1847.27
234.83	1525.74
235.05	1675.24
235.27	1845.22
235.49	1726.44
235.70	1759.21
235.92	1806.31
236.14	1818.60
236.36	1746.92
236.58	1560.55
236.79	1724.39
237.01	1710.05
237.23	1689.57
237.45	1773.54
237.67	1669.09
237.88	1718.25
238.10	1755.11
238.32	1665.00
238.54	1667.05
238.76	1681.38
238.97	1687.53
239.19	1621.99
239.41	1722.34
239.63	1796.07
239.85	1595.37
240.06	1730.53
240.28	1665.00
240.50	1834.98
240.72	1763.30
240.93	1624.04
241.15	1796.07
241.37	1595.37
241.59	1748.97
241.81	1705.96
242.02	1718.25
242.24	1658.85
242.46	1722.34
242.68	1718.25
242.89	1753.06
243.11	1724.39
243.33	1742.82
243.55	1685.48
243.76	1773.54
243.98	1630.18
244.20	1687.53
244.42	1691.62
244.64	1660.90
244.85	1609.70
245.07	1583.08
245.29	1769.44
245.51	1693.67
245.72	1767.40
245.94	1853.41
246.16	1757.16
246.38	1708.01
246.59	1644.52
246.81	1716.20
247.03	1677.29
247.24	1619.94
247.46	1687.53
247.68	1667.05
247.90	1730.53
248.11	1617.90
248.33	1669.09
248.55	1640.42
248.77	1695.72
248.98	1728.49
249.20	1753.06
249.42	1716.20
249.64	1695.72
249.85	1714.15
250.07	1751.01
250.29	1701.86
250.50	1740.77
250.72	1562.60
250.94	1679.33
251.16	1830.88
251.37	1759.21
251.59	1775.59
251.81	1708.01
252.02	1730.53
252.24	1638.38
252.46	1740.77
252.68	1640.42
252.89	1720.29
253.11	1605.61
253.33	1800.16
253.54	1802.21
253.76	1626.09
253.98	1728.49
254.20	1673.19
254.41	1683.43
254.63	1716.20
254.85	1619.94
255.06	1681.38
255.28	1675.24
255.50	1726.44
255.71	1652.71
255.93	1652.71
256.15	1685.48
256.36	1652.71
256.58	1679.33
256.80	1771.49
257.02	1654.76
257.23	1667.05
257.45	1673.19
257.67	1751.01
257.88	1646.57
258.10	1708.01
258.32	1716.20
258.53	1732.58
258.75	1845.22
258.97	1701.86
259.18	1718.25
259.40	1632.23
259.62	1714.15
259.83	1779.68
260.05	1703.91
260.27	1986.53
260.48	1783.78
260.70	1705.96
260.92	1675.24
261.13	1703.91
261.35	1685.48
261.57	1761.25
261.78	1558.50
262.00	1691.62
262.22	1808.36
262.43	1705.96
262.65	1626.09
262.86	1724.39
263.08	1806.31
263.30	1697.77
263.51	1605.61
263.73	1708.01
263.95	1763.30
264.16	1699.81
264.38	1621.99
264.60	1701.86
264.81	1751.01
265.03	1685.48
265.25	1716.20
265.46	1677.29
265.68	1771.49
265.89	1777.64
266.11	1509.35
266.33	1789.92
266.54	1720.29
266.76	1736.68
266.98	1712.10
267.19	1783.78
267.41	1697.77
267.62	1695.72
267.84	1601.51
268.06	1734.63
268.27	1695.72
268.49	1908.71
268.70	1757.16
268.92	1697.77
269.14	1638.38
269.35	1626.09
269.57	1746.92
269.79	1667.05
270.00	1646.57
270.22	1751.01
270.43	1648.61
270.65	1544.17
270.87	1714.15
271.08	1714.15
271.30	1775.59
271.51	1681.38
271.73	1705.96
271.95	1775.59
272.16	1701.86
272.38	1765.35
272.59	1705.96
272.81	1765.35
273.02	1710.05
273.24	1705.96
273.46	1728.49
273.67	1658.85
273.89	1710.05
274.10	1691.62
274.32	1679.33
274.54	1665.00
274.75	1677.29
274.97	1687.53
275.18	1779.68
275.40	1708.01
275.61	1654.76
275.83	1642.47
276.05	1660.90
276.26	1724.39
276.48	1726.44
276.69	1667.05
276.91	1724.39
277.12	1734.63
277.34	1796.07
277.55	1708.01
277.77	1703.91
277.99	1716.20
278.20	1675.24
278.42	1656.81
278.63	1728.49
278.85	1583.08
279.06	1542.12
279.28	1689.57
279.49	1767.40
279.71	1726.44
279.93	1779.68
280.14	1669.09
280.36	1667.05
280.57	1712.10
280.79	1771.49
281.00	1599.46
281.22	1667.05
281.43	1769.44
281.65	1603.56
281.86	1636.33
282.08	1689.57
282.29	1863.65
282.51	1658.85
282.73	1654.76
282.94	1581.03
283.16	1783.78
283.37	1783.78
283.59	1726.44
283.80	1712.10
284.02	1730.53
284.23	1722.34
284.45	1689.57
284.66	1675.24
284.88	1621.99
285.09	1675.24
285.31	1755.11
285.52	1740.77
285.74	1662.95
285.95	1708.01
286.17	1689.57
286.38	1617.90
286.60	1722.34
286.81	1679.33
287.03	1773.54
287.24	1644.52
287.46	1656.81
287.67	1673.19
287.89	1839.08
288.10	1640.42
288.32	1757.16
288.53	1798.12
288.75	1689.57
288.96	1646.57
289.18	1632.23
289.39	1624.04
289.61	1755.11
289.82	1853.41
290.04	1828.84
290.25	1589.22
290.47	1665.00
290.68	1685.48
290.90	1787.88
291.11	1720.29
291.33	1679.33
291.54	1638.38
291.76	1660.90
291.97	1675.24
292.18	1732.58
292.40	1619.94
292.61	1619.94
292.83	1845.22
293.04	1718.25
293.26	1740.77
293.47	1734.63
293.69	1712.10
293.90	1748.97
294.12	1822.69
294.33	1658.85
294.55	1761.25
294.76	1791.97
294.97	1824.74
295.19	1779.68
295.40	1689.57
295.62	1732.58
295.83	1714.15
296.05	1642.47
296.26	1695.72
296.48	1697.77
296.69	1671.14
296.90	1652.71
297.12	1796.07
297.33	1693.67
297.55	1701.86
297.76	1736.68
297.98	1724.39
298.19	1648.61
298.41	1634.28
298.62	1634.28
298.83	1695.72
299.05	1771.49
299.26	1640.42
299.48	1652.71
299.69	1712.10
299.90	1656.81
300.12	1681.38
300.33	1757.16
300.55	1648.61
300.76	1734.63
300.98	1691.62
301.19	1787.88
301.40	1632.23
301.62	1665.00
301.83	1746.92
302.05	1703.91
302.26	1726.44
302.47	1693.67
302.69	1665.00
302.90	1712.10
303.12	1603.56
303.33	1736.68
303.54	1855.46
303.76	1617.90
303.97	1697.77
304.19	1851.36
304.40	1705.96
304.61	1718.25
304.83	1771.49
305.04	1822.69
305.26	1716.20
305.47	1691.62
305.68	1732.58
305.90	1624.04
306.11	1730.53
306.33	1632.23
306.54	1617.90
306.75	1591.27
306.97	1646.57
307.18	1644.52
307.39	1710.05
307.61	1740.77
307.82	1671.14
308.04	1755.11
308.25	1710.05
308.46	1679.33
308.68	1705.96
308.89	1724.39
309.10	1767.40
309.32	1685.48
309.53	1662.95
309.74	1710.05
309.96	1701.86
310.17	1740.77
310.39	1679.33
310.60	1728.49
310.81	1722.34
311.03	1673.19
311.24	1769.44
311.45	1648.61
311.67	1769.44
311.88	1703.91
312.09	1667.05
312.31	1691.62
312.52	1611.75
312.73	1738.73
312.95	1665.00
313.16	1609.70
313.37	1781.73
313.59	1746.92
313.80	1781.73
314.01	1705.96
314.23	1638.38
314.44	1710.05
314.65	1621.99
314.87	1755.11
315.08	1646.57
315.29	1621.99
315.51	1628.14
315.72	1652.71
315.93	1820.64
316.15	1691.62
316.36	1736.68
316.57	1718.25
316.79	1734.63
317.00	1736.68
317.21	1662.95
317.43	1705.96
317.64	1628.14
317.85	1720.29
318.07	1671.14
318.28	1726.44
318.49	1773.54
318.70	1976.29
318.92	1806.31
319.13	1771.49
319.34	1880.04
319.56	1736.68
319.77	1730.53
319.98	1765.35
320.20	1751.01
320.41	1794.02
320.62	1775.59
320.83	1691.62
321.05	1861.60
321.26	1679.33
321.47	1791.97
321.69	1742.82
321.90	1632.23
322.11	1681.38
322.32	1652.71
322.54	1685.48
322.75	1712.10
322.96	1857.51
323.18	1611.75
323.39	1591.27
323.60	1667.05
323.81	1777.64
324.03	1677.29
324.24	1607.66
324.45	1660.90
324.66	1703.91
324.88	1798.12
325.09	1726.44
325.30	1642.47
325.52	1710.05
325.73	1681.38
325.94	1603.56
326.15	1665.00
326.37	1712.10
326.58	1753.06
326.79	1865.70
327.00	1730.53
327.22	1675.24
327.43	1685.48
327.64	1632.23
327.85	1738.73
328.07	1689.57
328.28	1763.30
328.49	1742.82
328.70	1677.29
328.92	1689.57
329.13	1716.20
329.34	1705.96
329.55	1781.73
329.76	1775.59
329.98	1658.85
330.19	1736.68
330.40	1765.35
330.61	1679.33
330.83	1738.73
331.04	1730.53
331.25	1693.67
331.46	1746.92
331.68	1644.52
331.89	1771.49
332.10	1695.72
332.31	1621.99
332.52	1712.10
332.74	1746.92
332.95	1665.00
333.16	1722.34
333.37	1781.73
333.58	1689.57
333.80	1681.38
334.01	1630.18
334.22	1724.39
334.43	1660.90
334.64	1632.23
334.86	1609.70
335.07	1673.19
335.28	1779.68
335.49	1613.80
335.70	1648.61
335.92	1755.11
336.13	1796.07
336.34	1738.73
336.55	1648.61
336.76	1650.66
336.98	1578.98
337.19	1687.53
337.40	1791.97
337.61	1746.92
337.82	1710.05
338.04	1716.20
338.25	1669.09
338.46	1648.61
338.67	1685.48
338.88	1607.66
339.09	1656.81
339.31	1642.47
339.52	1542.12
339.73	1673.19
339.94	1718.25
340.15	1810.40
340.36	1677.29
340.58	1677.29
340.79	1695.72
341.00	1718.25
341.21	1636.33
341.42	1775.59
341.63	1699.81
341.85	1738.73
342.06	1628.14
342.27	1611.75
342.48	1808.36
342.69	1576.94
342.90	1685.48
343.12	1644.52
343.33	1730.53
343.54	1683.43
343.75	1703.91
343.96	1693.67
344.17	1685.48
344.38	1708.01
344.60	1679.33
344.81	1591.27
345.02	1644.52
345.23	1791.97
345.44	1822.69
345.65	1824.74
345.86	1796.07
346.07	1656.81
346.29	1640.42
346.50	1693.67
346.71	1740.77
346.92	1748.97
347.13	1765.35
347.34	1673.19
347.55	1673.19
347.76	1740.77
347.98	1673.19
348.19	1628.14
348.40	1789.92
348.61	1638.38
348.82	1738.73
349.03	1738.73
349.24	1712.10
349.45	1796.07
349.66	1605.61
349.88	1640.42
350.09	1705.96
350.30	1759.21
350.51	1806.31
350.72	1652.71
350.93	1714.15
351.14	1671.14
351.35	1734.63
351.56	1681.38
351.77	1728.49
351.99	1710.05
352.20	1789.92
352.41	1822.69
352.62	1585.13
352.83	1710.05
353.04	1652.71
353.25	1695.72
353.46	1705.96
353.67	1746.92
353.88	1587.18
354.09	1740.77
354.30	1648.61
354.52	1742.82
354.73	1736.68
354.94	1611.75
355.15	1652.71
355.36	1822.69
355.57	1689.57
355.78	1718.25
355.99	1683.43
356.20	1644.52
356.41	1718.25
356.62	1732.58
356.83	1769.44
357.04	1722.34
357.25	1689.57
357.46	1636.33
357.68	1646.57
357.89	1730.53
358.10	1685.48
358.31	1638.38
358.52	1714.15
358.73	1650.66
358.94	1673.19
359.15	1689.57
359.36	1730.53
359.57	1789.92
359.78	1687.53
359.99	1728.49
360.20	1644.52
360.41	1675.24
360.62	1693.67
360.83	1691.62
361.04	1650.66
361.25	1744.87
361.46	1845.22
361.67	1638.38
361.88	1732.58
362.09	1755.11
362.30	1705.96
362.51	1693.67
362.72	1640.42
362.93	1791.97
363.14	1738.73
363.35	1730.53
363.56	1648.61
363.78	1714.15
363.99	1796.07
364.20	1669.09
364.41	1746.92
364.62	1830.88
364.83	1722.34
365.04	1685.48
365.25	1640.42
365.46	1791.97
365.67	1667.05
365.88	1583.08
366.09	1654.76
366.30	1722.34
366.51	1716.20
366.72	1634.28
366.93	1705.96
367.14	1724.39
367.35	1781.73
367.56	1701.86
367.77	1755.11
367.98	1673.19
368.18	1740.77
368.39	1679.33
368.60	1654.76
368.81	1783.78
369.02	1732.58
369.23	1650.66
369.44	1613.80
369.65	1673.19
369.86	1806.31
370.07	1744.87
370.28	1689.57
370.49	1736.68
370.70	1759.21
370.91	1654.76
371.12	1683.43
371.33	1767.40
371.54	1665.00
371.75	1642.47
371.96	1619.94
372.17	1689.57
372.38	1675.24
372.59	1730.53
372.80	1566.70
373.01	1728.49
373.22	1648.61
373.43	1685.48
373.64	1654.76
373.85	1783.78
374.06	1732.58
374.26	1734.63
374.47	1675.24
374.68	1779.68
374.89	1708.01
375.10	1628.14
375.31	1718.25
375.52	1667.05
375.73	1714.15
375.94	1626.09
376.15	1763.30
376.36	1673.19
376.57	1648.61
376.78	1705.96
376.99	1677.29
377.20	1703.91
377.40	1662.95
377.61	1753.06
377.82	1611.75
378.03	1718.25
378.24	1789.92
378.45	1748.97
378.66	1751.01
378.87	1615.85
379.08	1632.23
379.29	1751.01
379.50	1771.49
379.71	1621.99
379.91	1746.92
380.12	1695.72
380.33	1703.91
380.54	1624.04
380.75	1726.44
380.96	1658.85
381.17	1857.51
381.38	1746.92
381.59	1726.44
381.80	1724.39
382.00	1865.70
382.21	1779.68
382.42	1820.64
382.63	1855.46
382.84	1730.53
383.05	1718.25
383.26	1841.12
383.47	1740.77
383.68	1771.49
383.88	1753.06
384.09	1732.58
384.30	1822.69
384.51	1753.06
384.72	1652.71
384.93	1640.42
385.14	1701.86
385.35	1746.92
385.55	1660.90
385.76	1742.82
385.97	1710.05
386.18	1636.33
386.39	1695.72
386.60	1632.23
386.81	1658.85
387.02	1646.57
387.22	1634.28
387.43	1818.60
387.64	1884.13
387.85	1863.65
388.06	2138.08
388.27	4419.52
388.48	6834.07
388.68	8226.69
388.89	9557.87
389.10	9797.48
389.31	8609.66
389.52	7546.76
389.73	6678.43
389.93	6289.31
390.14	5965.73
390.35	5214.13
390.56	4583.35
390.77	3712.97
390.98	3000.27
391.18	2508.76
391.39	2140.13
391.60	1851.36
391.81	1818.60
392.02	1697.77
392.23	1767.40
392.43	1765.35
392.64	1767.40
392.85	1779.68
393.06	1861.60
393.27	1736.68
393.47	1689.57
393.68	1658.85
393.89	1687.53
394.10	1781.73
394.31	1765.35
394.52	1609.70
394.72	1593.32
394.93	1738.73
395.14	1642.47
395.35	1773.54
395.56	1681.38
395.76	1740.77
395.97	1753.06
396.18	1914.85
396.39	1861.60
396.60	2047.97
396.80	1873.89
397.01	1828.84
397.22	1847.27
397.43	1789.92
397.64	1726.44
397.84	1767.40
398.05	1855.46
398.26	1708.01
398.47	1708.01
398.67	1738.73
398.88	1738.73
399.09	1767.40
399.30	1642.47
399.51	1701.86
399.71	1619.94
399.92	1699.81
400.13	1687.53
400.34	1697.77
400.54	1691.62
400.75	1832.93
400.96	1765.35
401.17	1816.55
401.37	1703.91
401.58	1691.62
401.79	1759.21
402.00	1830.88
402.21	2037.73
402.41	2025.44
402.62	1914.85
402.83	2029.54
403.04	1998.82
403.24	2082.78
403.45	1871.84
403.66	1937.38
403.87	1900.52
404.07	1855.46
404.28	1847.27
404.49	1968.10
404.70	1734.63
404.90	1775.59
405.11	1716.20
405.32	1773.54
405.52	1671.14
405.73	1671.14
405.94	1640.42
406.15	1779.68
406.35	1791.97
406.56	1769.44
406.77	1703.91
406.98	1724.39
407.18	1734.63
407.39	1718.25
407.60	1665.00
407.80	1761.25
408.01	1648.61
408.22	1728.49
408.43	1578.98
408.63	1701.86
408.84	1779.68
409.05	1746.92
409.25	1660.90
409.46	1648.61
409.67	1611.75
409.88	1669.09
410.08	1722.34
410.29	1728.49
410.50	1640.42
410.70	1730.53
410.91	1646.57
411.12	1683.43
411.32	1656.81
411.53	1720.29
411.74	1796.07
411.95	1775.59
412.15	1763.30
412.36	1742.82
412.57	1775.59
412.77	1771.49
412.98	1708.01
413.19	1642.47
413.39	1765.35
413.60	1773.54
413.81	1828.84
414.01	1654.76
414.22	1701.86
414.43	1722.34
414.63	1705.96
414.84	1720.29
415.05	1789.92
415.25	1656.81
415.46	1726.44
415.67	1718.25
415.87	1683.43
416.08	1714.15
416.29	1624.04
416.49	1681.38
416.70	1681.38
416.91	1681.38
417.11	1708.01
417.32	1667.05
417.53	1773.54
417.73	1732.58
417.94	1724.39
418.15	1726.44
418.35	1648.61
418.56	1652.71
418.77	1888.23
418.97	1685.48
419.18	1732.58
419.38	1615.85
419.59	1671.14
419.80	1810.40
420.00	1669.09
420.21	1675.24
420.42	1783.78
420.62	1742.82
420.83	1677.29
421.04	1624.04
421.24	1640.42
421.45	1675.24
421.65	1722.34
421.86	1667.05
422.07	1697.77
422.27	1742.82
422.48	1718.25
422.69	1665.00
422.89	1656.81
423.10	1654.76
423.30	1601.51
423.51	1726.44
423.72	1638.38
423.92	1746.92
424.13	1644.52
424.33	1779.68
424.54	1757.16
424.75	1718.25
424.95	1798.12
425.16	1632.23
425.36	1648.61
425.57	1800.16
425.78	1724.39
425.98	1759.21
426.19	1621.99
426.39	1632.23
426.60	1730.53
426.81	1853.41
427.01	1738.73
427.22	1667.05
427.42	1587.18
427.63	1652.71
427.83	1691.62
428.04	1830.88
428.25	1841.12
428.45	1726.44
428.66	1822.69
428.86	1718.25
429.07	1701.86
429.28	1665.00
429.48	1718.25
429.69	1640.42
429.89	1734.63
430.10	1619.94
430.30	1781.73
430.51	1787.88
430.71	1701.86
430.92	1712.10
431.13	1708.01
431.33	1675.24
431.54	1779.68
431.74	1726.44
431.95	1863.65
432.15	1644.52
432.36	1650.66
432.56	1789.92
432.77	1832.93
432.98	1847.27
433.18	1683.43
433.39	1669.09
433.59	1697.77
433.80	1884.13
434.00	1869.80
434.21	1683.43
434.41	1697.77
434.62	1765.35
434.82	1624.04
435.03	1675.24
435.23	1681.38
435.44	1550.31
435.64	1722.34
435.85	1691.62
436.06	1712.10
436.26	1769.44
436.47	1662.95
436.67	1667.05
436.88	1673.19
437.08	1675.24
437.29	1789.92
437.49	1667.05
437.70	1771.49
437.90	1734.63
438.11	1896.42
438.31	1847.27
438.52	1849.32
438.72	1912.80
438.93	1904.61
439.13	1757.16
439.34	1837.03
439.54	1736.68
439.75	1849.32
439.95	1771.49
440.16	1740.77
440.36	1710.05
440.57	1796.07
440.77	1705.96
440.98	1730.53
441.18	1806.31
441.39	1681.38
441.59	1705.96
441.80	1871.84
442.00	1728.49
442.21	1806.31
442.41	1646.57
442.62	1699.81
442.82	1685.48
443.02	1648.61
443.23	1716.20
443.43	1738.73
443.64	1808.36
443.84	1665.00
444.05	1796.07
444.25	1775.59
444.46	1804.26
444.66	1658.85
444.87	1806.31
445.07	1644.52
445.28	1720.29
445.48	1814.50
445.69	1751.01
445.89	1781.73
446.09	1742.82
446.30	2045.92
446.50	2598.87
446.71	3745.73
446.91	4341.69
447.12	4782.01
447.32	4892.60
447.53	4290.49
447.73	3829.70
447.93	3477.45
448.14	3373.00
448.34	3229.65
448.55	2899.92
448.75	2885.59
448.96	2717.65
449.16	2387.93
449.36	2213.85
449.57	2140.13
449.77	1859.56
449.98	1726.44
450.18	1734.63
450.39	1794.02
450.59	1722.34
450.79	1781.73
451.00	1687.53
451.20	1751.01
451.41	1730.53
451.61	1767.40
451.81	1748.97
452.02	1701.86
452.22	1714.15
452.43	1746.92
452.63	1615.85
452.84	1742.82
453.04	1714.15
453.24	1759.21
453.45	1728.49
453.65	1695.72
453.86	1822.69
454.06	1722.34
454.26	1759.21
454.47	1644.52
454.67	1832.93
454.87	1728.49
455.08	1726.44
455.28	1867.75
455.49	1732.58
455.69	1681.38
455.89	1839.08
456.10	1751.01
456.30	1726.44
456.51	1785.83
456.71	1751.01
456.91	1753.06
457.12	1652.71
457.32	1705.96
457.52	1574.89
457.73	1781.73
457.93	1736.68
458.14	1669.09
458.34	1689.57
458.54	1742.82
458.75	1699.81
458.95	1787.88
459.15	1794.02
459.36	1730.53
459.56	1677.29
459.76	1859.56
459.97	1773.54
460.17	1777.64
460.37	1746.92
460.58	1798.12
460.78	1748.97
460.99	1751.01
461.19	1708.01
461.39	1681.38
461.60	1738.73
461.80	1753.06
462.00	1675.24
462.21	1646.57
462.41	1595.37
462.61	1621.99
462.82	1630.18
463.02	1755.11
463.22	1738.73
463.43	1861.60
463.63	1693.67
463.83	1789.92
464.04	1802.21
464.24	1726.44
464.44	1710.05
464.64	1767.40
464.85	1773.54
465.05	1787.88
465.25	1748.97
465.46	1691.62
465.66	1718.25
465.86	1779.68
466.07	1771.49
466.27	1669.09
466.47	1701.86
466.68	1712.10
466.88	1810.40
467.08	1759.21
467.29	1734.63
467.49	1746.92
467.69	1763.30
467.89	1751.01
468.10	1679.33
468.30	1755.11
468.50	1800.16
468.71	1742.82
468.91	1669.09
469.11	1863.65
469.31	1712.10
469.52	1730.53
469.72	1818.60
469.92	1781.73
470.13	1681.38
470.33	1773.54
470.53	1806.31
470.73	2097.12
470.94	2308.06
471.14	2275.29
471.34	2396.12
471.54	2387.93
471.75	2232.29
471.95	2093.02
472.15	2017.25
472.36	2072.54
472.56	2037.73
472.76	2074.59
472.96	2013.15
473.17	1880.04
473.37	1939.43
473.57	1877.99
473.77	1894.37
473.98	1861.60
474.18	1714.15
474.38	1839.08
474.58	1732.58
474.79	1683.43
474.99	1828.84
475.19	1763.30
475.39	1658.85
475.60	1734.63
475.80	1728.49
476.00	1644.52
476.20	1697.77
476.41	1771.49
476.61	1837.03
476.81	1812.45
477.01	1734.63
477.21	1855.46
477.42	1685.48
477.62	1677.29
477.82	1818.60
478.02	1679.33
478.23	1738.73
478.43	1660.90
478.63	1748.97
478.83	1714.15
479.03	1720.29
479.24	1781.73
479.44	1804.26
479.64	1658.85
479.84	1632.23
480.04	1601.51
480.25	1798.12
480.45	1687.53
480.65	1658.85
480.85	1808.36
481.06	1757.16
481.26	1720.29
481.46	1773.54
481.66	1767.40
481.86	1693.67
482.06	1753.06
482.27	1685.48
482.47	1652.71
482.67	1781.73
482.87	1695.72
483.07	1738.73
483.28	1615.85
483.48	1624.04
483.68	1716.20
483.88	1656.81
484.08	1603.56
484.29	1665.00
484.49	1712.10
484.69	1624.04
484.89	1695.72
485.09	1720.29
485.29	1767.40
485.50	1730.53
485.70	1646.57
485.90	1783.78
486.10	1796.07
486.30	1695.72
486.50	1748.97
486.71	1755.11
486.91	1761.25
487.11	1781.73
487.31	1558.50
487.51	1765.35
487.71	1679.33
487.91	1583.08
488.12	1722.34
488.32	1533.93
488.52	1699.81
488.72	1634.28
488.92	1691.62
489.12	1771.49
489.32	1718.25
489.53	1779.68
489.73	1634.28
489.93	1890.28
490.13	1732.58
490.33	1681.38
490.53	1804.26
490.73	1806.31
490.94	1615.85
491.14	1794.02
491.34	1832.93
491.54	2146.27
491.74	2572.25
491.94	2887.64
492.14	2990.03
492.34	2963.41
492.54	2744.28
492.75	2439.13
492.95	2443.23
493.15	2297.82
493.35	2254.81
493.55	2234.33
493.75	2127.84
493.95	2099.17
494.15	2037.73
494.35	1935.33
494.56	1937.38
494.76	1804.26
494.96	1765.35
495.16	1699.81
495.36	1730.53
495.56	1744.87
495.76	1710.05
495.96	1757.16
496.16	1660.90
496.36	1869.80
496.56	1746.92
496.77	1718.25
496.97	1751.01
497.17	1771.49
497.37	1681.38
497.57	1824.74
497.77	1718.25
497.97	1687.53
498.17	1687.53
498.37	1693.67
498.57	1791.97
498.77	1685.48
498.97	1757.16
499.17	1900.52
499.38	1595.37
499.58	1818.60
499.78	1781.73
499.98	1798.12
500.18	1691.62
500.38	1796.07
500.58	1925.09
500.78	2527.19
500.98	4521.92
501.18	5863.33
501.38	6727.58
501.58	7063.44
501.78	6559.64
501.98	5609.39
502.18	5019.57
502.38	4394.94
502.58	4085.70
502.78	3860.42
502.98	3733.45
503.18	3540.94
503.38	3254.22
503.59	2836.44
503.79	2594.78
503.99	2586.58
504.19	2297.82
504.39	2207.71
504.59	2160.61
504.79	2148.32
504.99	2045.92
505.19	1920.99
505.39	1906.66
505.59	1978.34
505.79	1880.04
505.99	1771.49
506.19	1800.16
506.39	1880.04
506.59	1755.11
506.79	1738.73
506.99	1847.27
507.19	1802.21
507.39	1761.25
507.59	1689.57
507.79	1697.77
507.99	1738.73
508.19	1685.48
508.39	1705.96
508.59	1744.87
508.79	1755.11
508.99	1787.88
509.19	1679.33
509.39	1722.34
509.59	1695.72
509.79	1646.57
509.99	1765.35
510.19	1730.53
510.39	1861.60
510.59	1632.23
510.79	1751.01
510.99	1673.19
511.19	1791.97
511.39	1877.99
511.59	1775.59
511.79	1800.16
511.99	1705.96
512.19	1804.26
512.38	1722.34
512.58	1732.58
512.78	1650.66
512.98	1736.68
513.18	1761.25
513.38	1648.61
513.58	1732.58
513.78	1742.82
513.98	1732.58
514.18	1613.80
514.38	1765.35
514.58	1740.77
514.78	1714.15
514.98	1634.28
515.18	1751.01
515.38	1646.57
515.58	1814.50
515.78	1734.63
515.98	1755.11
516.18	1763.30
516.38	1738.73
516.57	1697.77
516.77	1722.34
516.97	1726.44
517.17	1693.67
517.37	1640.42
517.57	1771.49
517.77	1691.62
517.97	1648.61
518.17	1734.63
518.37	1681.38
518.57	1671.14
518.77	1636.33
518.97	1708.01
519.16	1818.60
519.36	1738.73
519.56	1644.52
519.76	1736.68
519.96	1796.07
520.16	1783.78
520.36	1648.61
520.56	1812.45
520.76	1697.77
520.96	1705.96
521.16	1757.16
521.35	1736.68
521.55	1863.65
521.75	1714.15
521.95	1675.24
522.15	1773.54
522.35	1669.09
522.55	1656.81
522.75	1812.45
522.95	1689.57
523.14	1667.05
523.34	1728.49
523.54	1775.59
523.74	1798.12
523.94	1798.12
524.14	1605.61
524.34	1695.72
524.54	1869.80
524.73	1660.90
524.93	1818.60
525.13	1785.83
525.33	1642.47
525.53	1834.98
525.73	1755.11
525.93	1767.40
526.13	1687.53
526.32	1681.38
526.52	1783.78
526.72	1683.43
526.92	1722.34
527.12	1652.71
527.32	1689.57
527.52	1806.31
527.71	1701.86
527.91	1783.78
528.11	1662.95
528.31	1697.77
528.51	1636.33
528.71	1705.96
528.90	1738.73
529.10	1755.11
529.30	1812.45
529.50	1570.79
529.70	1705.96
529.90	1701.86
530.09	1697.77
530.29	1636.33
530.49	1736.68
530.69	1939.43
530.89	1791.97
531.09	1794.02
531.28	1650.66
531.48	1714.15
531.68	1681.38
531.88	1765.35
532.08	1716.20
532.28	1658.85
532.47	1689.57
532.67	1812.45
532.87	1769.44
533.07	1675.24
533.27	1757.16
533.46	1742.82
533.66	1765.35
533.86	1705.96
534.06	1730.53
534.26	1673.19
534.45	1687.53
534.65	1730.53
534.85	1738.73
535.05	1658.85
535.25	1796.07
535.44	1665.00
535.64	1740.77
535.84	1732.58
536.04	1732.58
536.24	1607.66
536.43	1722.34
536.63	1771.49
536.83	1732.58
537.03	1689.57
537.22	1677.29
537.42	1613.80
537.62	1744.87
537.82	1691.62
538.02	1834.98
538.21	1755.11
538.41	1843.17
538.61	1742.82
538.81	1716.20
539.00	1722.34
539.20	1648.61
539.40	1736.68
539.60	1826.79
539.79	1791.97
539.99	1671.14
540.19	1701.86
540.39	1767.40
540.58	1787.88
540.78	1771.49
540.98	1697.77
541.18	1787.88
541.37	1849.32
541.57	1691.62
541.77	1734.63
541.97	1714.15
542.16	1648.61
542.36	1734.63
542.56	1699.81
542.76	1841.12
542.95	1812.45
543.15	1751.01
543.35	1837.03
543.54	1699.81
543.74	1671.14
543.94	1783.78
544.14	1591.27
544.33	1740.77
544.53	1769.44
544.73	1751.01
544.93	1722.34
545.12	1814.50
545.32	1771.49
545.52	1658.85
545.71	1699.81
545.91	1681.38
546.11	1720.29
546.30	1742.82
546.50	1751.01
546.70	1748.97
546.90	1734.63
547.09	1675.24
547.29	1738.73
547.49	1740.77
547.68	1742.82
547.88	1695.72
548.08	1742.82
548.27	2166.75
548.47	1714.15
548.67	1685.48
548.87	1787.88
549.06	1669.09
549.26	1849.32
549.46	1761.25
549.65	1695.72
549.85	1771.49
550.05	1771.49
550.24	1730.53
550.44	1812.45
550.64	1681.38
550.83	1746.92
551.03	1755.11
551.23	1812.45
551.42	1800.16
551.62	1675.24
551.82	1716.20
552.01	1681.38
552.21	1830.88
552.41	1742.82
552.60	1875.94
552.80	1761.25
553.00	1753.06
553.19	1748.97
553.39	1845.22
553.59	1642.47
553.78	1785.83
553.98	1732.58
554.17	1716.20
554.37	1781.73
554.57	1689.57
554.76	1609.70
554.96	1714.15
555.16	1767.40
555.35	1720.29
555.55	1773.54
555.75	1753.06
555.94	1822.69
556.14	1646.57
556.33	1697.77
556.53	1710.05
556.73	1771.49
556.92	1775.59
557.12	1814.50
557.32	1783.78
557.51	1802.21
557.71	1816.55
557.90	1746.92
558.10	1744.87
558.30	1730.53
558.49	1757.16
558.69	1746.92
558.88	1755.11
559.08	1763.30
559.28	1726.44
559.47	1675.24
559.67	1748.97
559.86	1890.28
560.06	1710.05
560.26	1720.29
560.45	1720.29
560.65	1679.33
560.84	1816.55
561.04	1757.16
561.24	1781.73
561.43	1673.19
561.63	1820.64
561.82	1798.12
562.02	1742.82
562.22	1626.09
562.41	1726.44
562.61	1699.81
562.80	1667.05
563.00	1892.32
563.19	1787.88
563.39	1742.82
563.59	1748.97
563.78	1665.00
563.98	1689.57
564.17	1722.34
564.37	1642.47
564.56	1779.68
564.76	1699.81
564.96	1779.68
565.15	1773.54
565.35	1939.43
565.54	1695.72
565.74	1820.64
565.93	1773.54
566.13	1755.11
566.32	1736.68
566.52	1785.83
566.71	1726.44
566.91	1781.73
567.11	1720.29
567.30	1714.15
567.50	1701.86
567.69	1753.06
567.89	1779.68
568.08	1693.67
568.28	1656.81
568.47	1671.14
568.67	1861.60
568.86	1679.33
569.06	1708.01
569.25	1724.39
569.45	1587.18
569.64	1665.00
569.84	1728.49
570.04	1779.68
570.23	1648.61
570.43	1724.39
570.62	1701.86
570.82	1759.21
571.01	1722.34
571.21	1751.01
571.40	1681.38
571.60	1853.41
571.79	1794.02
571.99	1820.64
572.18	1716.20
572.38	1806.31
572.57	1697.77
572.77	1773.54
572.96	1890.28
573.16	1751.01
573.35	1650.66
573.55	1849.32
573.74	1779.68
573.94	1728.49
574.13	1791.97
574.33	1779.68
574.52	1794.02
574.71	1691.62
574.91	1779.68
575.10	1640.42
575.30	1767.40
575.49	1742.82
575.69	1718.25
575.88	1767.40
576.08	1726.44
576.27	1728.49
576.47	1685.48
576.66	1865.70
576.86	1802.21
577.05	1714.15
577.25	1773.54
577.44	1837.03
577.64	1695.72
577.83	1826.79
578.02	1738.73
578.22	1775.59
578.41	1869.80
578.61	1779.68
578.80	1681.38
579.00	1751.01
579.19	1746.92
579.39	1765.35
579.58	1761.25
579.77	1804.26
579.97	1791.97
580.16	1820.64
580.36	1773.54
580.55	1882.08
580.75	1742.82
580.94	1732.58
581.13	1851.36
581.33	1902.56
581.52	1820.64
581.72	1841.12
581.91	1808.36
582.11	1730.53
582.30	1791.97
582.49	1789.92
582.69	1832.93
582.88	1759.21
583.08	1734.63
583.27	1783.78
583.47	1708.01
583.66	1691.62
583.85	1779.68
584.05	1701.86
584.24	1720.29
584.44	1763.30
584.63	1880.04
584.82	1841.12
585.02	1859.56
585.21	1886.18
585.41	1781.73
585.60	1824.74
585.79	1939.43
585.99	1951.71
586.18	1830.88
586.37	2140.13
586.57	3370.96
586.76	9867.11
586.96	24479.37
587.15	34612.72
587.34	40936.85
587.54	42694.00
587.73	36910.54
587.93	26818.15
588.12	21931.70
588.31	18190.06
588.51	16488.20
588.70	15206.17
588.89	14466.85
589.09	12851.00
589.28	11308.88
589.47	9518.96
589.67	7948.17
589.86	6510.49
590.06	4933.56
590.25	3887.04
590.44	3094.48
590.64	2596.82
590.83	2369.50
591.02	2127.84
591.22	1920.99
591.41	1904.61
591.60	1800.16
591.80	1904.61
591.99	1654.76
592.18	1843.17
592.38	1916.90
592.57	1779.68
592.76	1804.26
592.96	1773.54
593.15	1783.78
593.34	1765.35
593.54	1742.82
593.73	1728.49
593.92	1791.97
594.12	1681.38
594.31	1748.97
594.50	1808.36
594.70	1769.44
594.89	1849.32
595.08	1732.58
595.28	1763.30
595.47	1853.41
595.66	1705.96
595.86	1720.29
596.05	1808.36
596.24	1789.92
596.43	1828.84
596.63	1837.03
596.82	1800.16
597.01	1781.73
597.21	1888.23
597.40	1765.35
597.59	1722.34
597.79	1710.05
597.98	1794.02
598.17	1693.67
598.36	1783.78
598.56	1730.53
598.75	1744.87
598.94	1730.53
599.14	1767.40
599.33	1716.20
599.52	1865.70
599.71	1771.49
599.91	1812.45
600.10	1820.64
600.29	1705.96
600.48	1796.07
600.68	1751.01
600.87	1751.01
601.06	1740.77
601.26	1740.77
601.45	1822.69
601.64	1730.53
601.83	1861.60
602.03	1685.48
602.22	1748.97
602.41	1787.88
602.60	1949.67
602.80	1691.62
602.99	1724.39
603.18	1679.33
603.37	1652.71
603.57	1759.21
603.76	1798.12
603.95	1787.88
604.14	1642.47
604.34	1730.53
604.53	1656.81
604.72	1771.49
604.91	1757.16
605.10	1771.49
605.30	1708.01
605.49	1779.68
605.68	1742.82
605.87	1794.02
606.07	1708.01
606.26	1714.15
606.45	1769.44
606.64	1779.68
606.84	1759.21
607.03	1789.92
607.22	1808.36
607.41	1693.67
607.60	1751.01
607.80	1787.88
607.99	1785.83
608.18	1693.67
608.37	1757.16
608.56	1710.05
608.76	1779.68
608.95	1849.32
609.14	1822.69
609.33	1740.77
609.52	1796.07
609.72	1783.78
609.91	1767.40
610.10	1695.72
610.29	1826.79
610.48	1740.77
610.68	1787.88
610.87	1597.42
611.06	1759.21
611.25	1734.63
611.44	1740.77
611.63	1767.40
611.83	1845.22
612.02	1722.34
612.21	1773.54
612.40	1626.09
612.59	1636.33
612.79	1703.91
612.98	1701.86
613.17	1773.54
613.36	1665.00
613.55	1867.75
613.74	1787.88
613.93	1708.01
614.13	1671.14
614.32	1722.34
614.51	1685.48
614.70	1757.16
614.89	1644.52
615.08	1701.86
615.28	1992.67
615.47	1665.00
615.66	1839.08
615.85	1738.73
616.04	1857.51
616.23	1689.57
616.42	1685.48
616.62	1701.86
616.81	1781.73
617.00	1687.53
617.19	1845.22
617.38	1697.77
617.57	1755.11
617.76	1718.25
617.95	1734.63
618.15	1652.71
618.34	1875.94
618.53	1607.66
618.72	1765.35
618.91	1753.06
619.10	1820.64
619.29	1742.82
619.48	1701.86
619.68	1738.73
619.87	1767.40
620.06	1613.80
620.25	1810.40
620.44	1759.21
620.63	1689.57
620.82	1675.24
621.01	1783.78
621.20	1705.96
621.39	1722.34
621.59	1812.45
621.78	1681.38
621.97	1632.23
622.16	1759.21
622.35	1777.64
622.54	1800.16
622.73	1771.49
622.92	1624.04
623.11	1726.44
623.30	1720.29
623.49	1748.97
623.68	1607.66
623.88	1857.51
624.07	1640.42
624.26	1648.61
624.45	1685.48
624.64	1691.62
624.83	1716.20
625.02	1675.24
625.21	1695.72
625.40	1816.55
625.59	1839.08
625.78	1755.11
625.97	1787.88
626.16	1839.08
626.35	1751.01
626.54	1724.39
626.74	1736.68
626.93	1748.97
627.12	1701.86
627.31	1761.25
627.50	1757.16
627.69	1726.44
627.88	1710.05
628.07	1679.33
628.26	1619.94
628.45	1716.20
628.64	1619.94
628.83	1716.20
629.02	1636.33
629.21	1673.19
629.40	1755.11
629.59	1687.53
629.78	1722.34
629.97	1755.11
630.16	1767.40
630.35	1640.42
630.54	1753.06
630.73	1724.39
630.92	1720.29
631.11	1744.87
631.30	1691.62
631.49	1751.01
631.68	1746.92
631.87	1662.95
632.06	1585.13
632.25	1853.41
632.44	1675.24
632.63	1732.58
632.82	1644.52
633.01	1689.57
633.20	1705.96
633.39	1693.67
633.58	1656.81
633.77	1714.15
633.96	1714.15
634.15	1730.53
634.34	1773.54
634.53	1701.86
634.72	1626.09
634.91	1613.80
635.10	1755.11
635.29	1742.82
635.48	1693.67
635.67	1730.53
635.86	1697.77
636.05	1773.54
636.24	1691.62
636.43	1710.05
636.62	1730.53
636.81	1658.85
637.00	1710.05
637.19	1767.40
637.38	1677.29
637.57	1658.85
637.76	1708.01
637.95	1665.00
638.14	1650.66
638.33	1748.97
638.52	1738.73
638.71	1665.00
638.89	1599.46
639.08	1802.21
639.27	1685.48
639.46	1755.11
639.65	1865.70
639.84	1769.44
640.03	1789.92
640.22	1726.44
640.41	1804.26
640.60	1728.49
640.79	1632.23
640.98	1716.20
641.17	1730.53
641.36	1708.01
641.55	1726.44
641.74	1705.96
641.92	1683.43
642.11	1615.85
642.30	1789.92
642.49	1611.75
642.68	1720.29
642.87	1744.87
643.06	1705.96
643.25	1652.71
643.44	1685.48
643.63	1689.57
643.82	1771.49
644.00	1679.33
644.19	1693.67
644.38	1603.56
644.57	1724.39
644.76	1728.49
644.95	1705.96
645.14	1712.10
645.33	1724.39
645.52	1693.67
645.71	1599.46
645.89	1605.61
646.08	1744.87
646.27	1685.48
646.46	1828.84
646.65	1626.09
646.84	1722.34
647.03	1689.57
647.22	1773.54
647.40	1705.96
647.59	1689.57
647.78	1699.81
647.97	1652.71
648.16	1617.90
648.35	1800.16
648.54	1722.34
648.73	1683.43
648.91	1687.53
649.10	1699.81
649.29	1718.25
649.48	1671.14
649.67	1748.97
649.86	1736.68
650.05	1624.04
650.23	1773.54
650.42	1675.24
650.61	1740.77
650.80	1779.68
650.99	1806.31
651.18	1671.14
651.36	1779.68
651.55	1703.91
651.74	1746.92
651.93	1677.29
652.12	1699.81
652.31	1701.86
652.49	1642.47
652.68	1722.34
652.87	1798.12
653.06	1738.73
653.25	1820.64
653.44	1705.96
653.62	1800.16
653.81	1736.68
654.00	1722.34
654.19	1667.05
654.38	1884.13
654.56	1695.72
654.75	1746.92
654.94	1857.51
655.13	1673.19
655.32	1738.73
655.51	1748.97
655.69	1716.20
655.88	1730.53
656.07	1746.92
656.26	1710.05
656.45	1683.43
656.63	1794.02
656.82	1724.39
657.01	1744.87
657.20	1701.86
657.38	1798.12
657.57	1683.43
657.76	1681.38
657.95	1755.11
658.14	1673.19
658.32	1769.44
658.51	1673.19
658.70	1763.30
658.89	1681.38
659.08	1703.91
659.26	1796.07
659.45	1581.03
659.64	1724.39
659.83	1644.52
660.01	1828.84
660.20	1746.92
660.39	1755.11
660.58	1716.20
660.76	1744.87
660.95	1648.61
661.14	1667.05
661.33	1603.56
661.51	1732.58
661.70	1712.10
661.89	1730.53
662.08	1740.77
662.26	1710.05
662.45	1677.29
662.64	1777.64
662.83	1699.81
663.01	1665.00
663.20	1667.05
663.39	1746.92
663.58	1677.29
663.76	1693.67
663.95	1728.49
664.14	1708.01
664.32	1746.92
664.51	1656.81
664.70	1656.81
664.89	1720.29
665.07	1669.09
665.26	1785.83
665.45	1671.14
665.64	1736.68
665.82	1751.01
666.01	1816.55
666.20	1662.95
666.38	1773.54
666.57	1871.84
666.76	2181.09
666.95	4476.86
667.13	10409.83
667.32	15376.15
667.51	17901.29
667.69	19218.14
667.88	17665.78
668.07	12396.35
668.25	9664.36
668.44	8150.92
668.63	7323.54
668.81	6918.04
669.00	6262.69
669.19	5683.11
669.38	5193.65
669.56	4536.25
669.75	4061.12
669.94	3364.81
670.12	2932.69
670.31	2510.81
670.50	2281.44
670.68	2037.73
670.87	1912.80
671.06	1800.16
671.24	1818.60
671.43	1800.16
671.62	1669.09
671.80	1634.28
671.99	1734.63
672.18	1677.29
672.36	1744.87
672.55	1791.97
672.74	1656.81
672.92	1726.44
673.11	1773.54
673.29	1703.91
673.48	1828.84
673.67	1724.39
673.85	1791.97
674.04	1658.85
674.23	1759.21
674.41	1837.03
674.60	1740.77
674.79	1609.70
674.97	1693.67
675.16	1730.53
675.34	1697.77
675.53	1681.38
675.72	1765.35
675.90	1738.73
676.09	1619.94
676.28	1697.77
676.46	1660.90
676.65	1785.83
676.83	1757.16
677.02	1677.29
677.21	1710.05
677.39	1757.16
677.58	1665.00
677.77	1689.57
677.95	1609.70
678.14	1730.53
678.32	1628.14
678.51	1654.76
678.70	1800.16
678.88	1644.52
679.07	1742.82
679.25	1660.90
679.44	1673.19
679.63	1738.73
679.81	1705.96
680.00	1779.68
680.18	1771.49
680.37	1794.02
680.55	1693.67
680.74	1642.47
680.93	1548.26
681.11	1695.72
681.30	1763.30
681.48	1679.33
681.67	1710.05
681.85	1669.09
682.04	1701.86
682.23	1712.10
682.41	1697.77
682.60	1617.90
682.78	1640.42
682.97	1603.56
683.15	1681.38
683.34	1701.86
683.53	1757.16
683.71	1681.38
683.90	1843.17
684.08	1789.92
684.27	1738.73
684.45	1691.62
684.64	1808.36
684.82	1699.81
685.01	1746.92
685.19	1718.25
685.38	1820.64
685.57	1695.72
685.75	1611.75
685.94	1609.70
686.12	1624.04
686.31	1636.33
686.49	1798.12
686.68	1578.98
686.86	1751.01
687.05	1599.46
687.23	1755.11
687.42	1671.14
687.60	1617.90
687.79	1740.77
687.97	1832.93
688.16	1796.07
688.34	1726.44
688.53	1607.66
688.71	1736.68
688.90	1767.40
689.08	1658.85
689.27	1609.70
689.45	1742.82
689.64	1759.21
689.82	1771.49
690.01	1705.96
690.19	1724.39
690.38	1652.71
690.56	1751.01
690.75	1716.20
690.93	1675.24
691.12	1738.73
691.30	1744.87
691.49	1726.44
691.67	1728.49
691.86	1810.40
692.04	1697.77
692.23	1687.53
692.41	1660.90
692.60	1822.69
692.78	1724.39
692.97	1648.61
693.15	1828.84
693.34	1802.21
693.52	1751.01
693.71	1677.29
693.89	1667.05
694.08	1617.90
694.26	1740.77
694.44	1712.10
694.63	1738.73
694.81	1615.85
695.00	1726.44
695.18	1761.25
695.37	1857.51
695.55	1734.63
695.74	1601.51
695.92	1624.04
696.10	1753.06
696.29	1613.80
696.47	1658.85
696.66	1613.80
696.84	1624.04
697.03	1751.01
697.21	1763.30
697.40	2256.86
697.58	1714.15
697.76	1697.77
697.95	1642.47
698.13	1624.04
698.32	1630.18
698.50	1701.86
698.68	1658.85
698.87	1755.11
699.05	1861.60
699.24	1769.44
699.42	1751.01
699.61	1722.34
699.79	1650.66
699.97	1662.95
700.16	1640.42
700.34	1613.80
700.53	1675.24
700.71	1740.77
700.89	1669.09
701.08	1738.73
701.26	1662.95
701.45	2076.64
701.63	1640.42
701.81	1679.33
702.00	1638.38
702.18	1716.20
702.37	1671.14
702.55	1759.21
702.73	1705.96
702.92	1660.90
703.10	1755.11
703.28	1710.05
703.47	1660.90
703.65	1738.73
703.84	1779.68
704.02	1714.15
704.20	1798.12
704.39	1593.32
704.57	1660.90
704.75	1757.16
704.94	1767.40
705.12	1705.96
705.30	1822.69
705.49	2285.53
705.67	4382.65
705.86	9473.90
706.04	12746.56
706.22	14688.03
706.41	15460.12
706.59	13784.88
706.77	9594.73
706.96	7417.74
707.14	6600.60
707.32	5932.97
707.51	5679.02
707.69	4911.03
707.87	4118.47
708.06	3610.57
708.24	2981.84
708.42	2392.03
708.61	2263.01
708.79	1843.17
708.97	1923.04
709.16	1849.32
709.34	1744.87
709.52	1751.01
709.71	1769.44
709.89	1722.34
710.07	1640.42
710.26	1646.57
710.44	1675.24
710.62	1732.58
710.80	1671.14
710.99	1626.09
711.17	1697.77
711.35	1697.77
711.54	1675.24
711.72	1783.78
711.90	1753.06
712.09	1712.10
712.27	1615.85
712.45	1755.11
712.63	1689.57
712.82	1716.20
713.00	1714.15
713.18	1730.53
713.37	1744.87
713.55	1726.44
713.73	1734.63
713.91	1687.53
714.10	1646.57
714.28	1632.23
714.46	1798.12
714.65	1710.05
714.83	1609.70
715.01	1718.25
715.19	1638.38
715.38	1701.86
715.56	1738.73
715.74	1626.09
715.92	1689.57
716.11	1843.17
716.29	1619.94
716.47	1779.68
716.65	1714.15
716.84	1689.57
717.02	1738.73
717.20	1574.89
717.38	1730.53
717.57	1742.82
717.75	1693.67
717.93	1654.76
718.11	1703.91
718.30	1560.55
718.48	1705.96
718.66	1744.87
718.84	1796.07
719.03	1677.29
719.21	1585.13
719.39	1779.68
719.57	1791.97
719.75	1738.73
719.94	1624.04
720.12	1689.57
720.30	1687.53
720.48	1763.30
720.67	1705.96
720.85	1646.57
721.03	1652.71
721.21	1667.05
721.39	1808.36
721.58	1759.21
721.76	1634.28
721.94	1708.01
722.12	1683.43
722.30	1765.35
722.49	1699.81
722.67	1675.24
722.85	1699.81
723.03	1714.15
723.21	1644.52
723.40	1724.39
723.58	1814.50
723.76	1710.05
723.94	1822.69
724.12	1701.86
724.30	1806.31
724.49	1728.49
724.67	1656.81
724.85	1789.92
725.03	1689.57
725.21	1748.97
725.40	1673.19
725.58	1689.57
725.76	1757.16
725.94	1738.73
726.12	1669.09
726.30	1683.43
726.49	1689.57
726.67	1691.62
726.85	1751.01
727.03	1830.88
727.21	2109.41
727.39	2953.17
727.57	3823.56
727.76	4130.75
727.94	4444.09
728.12	4425.66
728.30	3645.38
728.48	2959.31
728.66	2688.98
728.84	2523.10
729.03	2263.01
729.21	2256.86
729.39	1937.38
729.57	1837.03
729.75	1814.50
729.93	1841.12
730.11	1744.87
730.30	1693.67
730.48	1736.68
730.66	1834.98
730.84	1755.11
731.02	1767.40
731.20	1650.66
731.38	1693.67
731.56	1658.85
731.74	1597.42
731.93	1685.48
732.11	1634.28
732.29	1724.39
732.47	1726.44
732.65	1763.30
732.83	1734.63
733.01	1718.25
733.19	1605.61
733.37	1804.26
733.56	1667.05
733.74	1718.25
733.92	1759.21
734.10	1724.39
734.28	1699.81
734.46	1613.80
734.64	1677.29
734.82	1638.38
735.00	1699.81
735.18	1611.75
735.36	1685.48
735.54	1724.39
735.73	1669.09
735.91	1726.44
736.09	1757.16
736.27	1726.44
736.45	1759.21
736.63	1665.00
736.81	1720.29
736.99	1746.92
737.17	1771.49
737.35	1703.91
737.53	1716.20
737.71	1675.24
737.89	1789.92
738.07	1665.00
738.25	1615.85
738.43	1738.73
738.61	1671.14
738.80	1566.70
738.98	1705.96
739.16	1697.77
739.34	1628.14
739.52	1763.30
739.70	1697.77
739.88	1634.28
740.06	1744.87
740.24	1624.04
740.42	1658.85
740.60	1673.19
740.78	1611.75
740.96	1636.33
741.14	1679.33
741.32	1634.28
741.50	1624.04
741.68	1755.11
741.86	1701.86
742.04	1660.90
742.22	1673.19
742.40	1701.86
742.58	1705.96
742.76	1591.27
742.94	1755.11
743.12	1626.09
743.30	1691.62
743.48	1726.44
743.66	1638.38
743.84	1771.49
744.02	1648.61
744.20	1667.05
744.38	1560.55
744.56	1601.51
744.74	1757.16
744.92	1763.30
745.10	1783.78
745.28	1757.16
745.46	1794.02
745.64	1687.53
745.82	1814.50
746.00	1671.14
746.18	1734.63
746.36	1665.00
746.54	1738.73
746.72	1691.62
746.90	1693.67
747.08	1738.73
747.26	1630.18
747.44	1755.11
747.62	1718.25
747.80	1753.06
747.98	1775.59
748.15	1703.91
748.33	1779.68
748.51	1742.82
748.69	1724.39
748.87	1654.76
749.05	1667.05
749.23	1619.94
749.41	1699.81
749.59	1699.81
749.77	1695.72
749.95	1708.01
750.13	1695.72
750.31	1714.15
750.49	1673.19
750.67	1691.62
750.85	1775.59
751.03	1671.14
751.20	1837.03
751.38	1771.49
751.56	1652.71
751.74	1730.53
751.92	1615.85
752.10	1640.42
752.28	1755.11
752.46	1699.81
752.64	1689.57
752.82	1689.57
753.00	1736.68
753.18	1687.53
753.35	1748.97
753.53	1757.16
753.71	1697.77
753.89	1787.88
754.07	1732.58
754.25	1697.77
754.43	1708.01
754.61	1593.32
754.79	1761.25
754.97	1675.24
755.14	1755.11
755.32	1658.85
755.50	1695.72
755.68	1697.77
755.86	1648.61
756.04	1603.56
756.22	1671.14
756.40	1728.49
756.57	1812.45
756.75	1705.96
756.93	1722.34
757.11	1742.82
757.29	1662.95
757.47	1564.65
757.65	1626.09
757.82	1593.32
758.00	1660.90
758.18	1660.90
758.36	1640.42
758.54	1806.31
758.72	1642.47
758.90	1759.21
759.07	1695.72
759.25	1732.58
759.43	1720.29
759.61	1667.05
759.79	2174.94
759.97	1744.87
760.15	1705.96
760.32	1703.91
760.50	1738.73
760.68	1820.64
760.86	1587.18
761.04	1773.54
761.22	1697.77
761.39	1685.48
761.57	1642.47
761.75	1583.08
761.93	1761.25
762.11	1671.14
762.28	1740.77
762.46	1609.70
762.64	1734.63
762.82	1630.18
763.00	1675.24
763.18	1755.11
763.35	1609.70
763.53	1742.82
763.71	1724.39
763.89	1689.57
764.07	1728.49
764.24	1767.40
764.42	1734.63
764.60	1673.19
764.78	1740.77
764.96	1757.16
765.13	1730.53
765.31	1701.86
765.49	1734.63
765.67	1648.61
765.84	1658.85
766.02	1662.95
766.20	1572.84
766.38	1695.72
766.56	1832.93
766.73	1740.77
766.91	1722.34
767.09	1720.29
767.27	1734.63
767.44	1648.61
767.62	1675.24
767.80	1705.96
767.98	1718.25
768.15	1746.92
768.33	1748.97
768.51	1781.73
768.69	1720.29
768.87	1722.34
769.04	1746.92
769.22	1822.69
769.40	1718.25
769.58	1812.45
769.75	1710.05
769.93	1800.16
770.11	1675.24
770.28	1626.09
770.46	1685.48
770.64	1757.16
770.82	1662.95
770.99	1693.67
771.17	1732.58
771.35	1703.91
771.53	1703.91
771.70	1630.18
771.88	1683.43
772.06	1632.23
772.23	1740.77
772.41	1785.83
772.59	1681.38
772.77	1624.04
772.94	1693.67
773.12	1689.57
773.30	1697.77
773.47	1767.40
773.65	1675.24
773.83	1734.63
774.01	1775.59
774.18	1685.48
774.36	1669.09
774.54	1658.85
774.71	1673.19
774.89	1603.56
775.07	1673.19
775.24	1671.14
775.42	1701.86
775.60	1765.35
775.78	1759.21
775.95	1538.02
776.13	1581.03
776.31	1601.51
776.48	1718.25
776.66	1722.34
776.84	1665.00
777.01	1665.00
777.19	1617.90
777.37	1648.61
777.54	1689.57
777.72	1808.36
777.90	1705.96
778.07	1630.18
778.25	1834.98
778.43	1800.16
778.60	1712.10
778.78	1730.53
778.96	1826.79
779.13	1562.60
779.31	1691.62
779.49	1683.43
779.66	1693.67
779.84	1648.61
780.01	1714.15
780.19	1716.20
780.37	1751.01
780.54	1763.30
780.72	1642.47
780.90	1705.96
781.07	1697.77
781.25	1587.18
781.43	1791.97
781.60	1683.43
781.78	1765.35
781.95	1705.96
782.13	1656.81
782.31	1726.44
782.48	1570.79
782.66	1611.75
782.83	1699.81
783.01	1730.53
783.19	1740.77
783.36	1744.87
783.54	1669.09
783.72	1724.39
783.89	1665.00
784.07	1724.39
784.24	1759.21
784.42	1634.28
784.60	1673.19
784.77	1685.48
784.95	1634.28
785.12	1679.33
785.30	1675.24
785.47	1656.81
785.65	1675.24
785.83	1689.57
786.00	1656.81
786.18	1708.01
786.35	1628.14
786.53	1570.79
786.71	1734.63
786.88	1734.63
787.06	1701.86
787.23	1624.04
787.41	1695.72
787.58	1718.25
787.76	1646.57
787.94	1726.44
788.11	1734.63
788.29	1628.14
788.46	1714.15
788.64	1609.70
788.81	1708.01
788.99	1624.04
789.16	1648.61
789.34	1613.80
789.52	1720.29
789.69	1708.01
789.87	1576.94
790.04	1689.57
790.22	1734.63
790.39	1820.64
790.57	1626.09
790.74	1640.42
790.92	1734.63
791.09	1667.05
791.27	1671.14
791.44	1757.16
791.62	1691.62
791.79	1798.12
791.97	1671.14
792.15	1849.32
792.32	1665.00
792.50	1716.20
792.67	1816.55
792.85	1712.10
793.02	1697.77
793.20	1722.34
793.37	1595.37
793.55	1685.48
793.72	1673.19
793.90	1636.33
794.07	1714.15
794.25	1644.52
794.42	1720.29
794.60	1642.47
794.77	1740.77
794.95	1675.24
795.12	1742.82
795.30	1732.58
795.47	1693.67
795.65	1812.45
795.82	1607.66
796.00	1599.46
796.17	1716.20
796.34	1644.52
796.52	1718.25
796.69	1673.19
796.87	1789.92
797.04	1669.09
797.22	1640.42
797.39	1640.42
797.57	1781.73
797.74	1751.01
797.92	1671.14
798.09	1695.72
798.27	1806.31
798.44	1673.19
798.62	1638.38
798.79	1736.68
798.96	1783.78
799.14	1640.42
799.31	1849.32
799.49	1712.10
799.66	1621.99
799.84	1701.86
800.01	1572.84
800.19	1693.67
800.36	1599.46
800.53	1640.42
800.71	1726.44
800.88	1701.86
801.06	1695.72
801.23	1695.72
801.41	1640.42
801.58	1695.72
801.75	1683.43
801.93	1738.73
802.10	1744.87
802.28	1673.19
802.45	1638.38
802.63	1746.92
802.80	1746.92
802.97	1644.52
803.15	1642.47
803.32	1656.81
803.50	1716.20
803.67	1617.90
803.84	1679.33
804.02	1632.23
804.19	1648.61
804.37	1611.75
804.54	1652.71
804.71	1669.09
804.89	1679.33
805.06	1671.14
805.24	1677.29
805.41	1595.37
805.58	1665.00
805.76	1820.64
805.93	1755.11
806.10	1828.84
806.28	1759.21
806.45	1714.15
806.63	1763.30
806.80	1714.15
806.97	1681.38
807.15	1642.47
807.32	1708.01
807.49	1728.49
807.67	1648.61
807.84	1701.86
808.01	1667.05
808.19	1757.16
808.36	1880.04
808.54	1626.09
808.71	1656.81
808.88	1611.75
809.06	1650.66
809.23	1697.77
809.40	1652.71
809.58	1789.92
809.75	1734.63
809.92	1673.19
810.10	1796.07
810.27	1681.38
810.44	1761.25
810.62	1740.77
810.79	1738.73
810.96	1654.76
811.14	1665.00
811.31	1708.01
811.48	1734.63
811.66	1671.14
811.83	1734.63
812.00	1738.73
812.18	1671.14
812.35	1834.98
812.52	1718.25
812.69	1642.47
812.87	1699.81
813.04	1701.86
813.21	1701.86
813.39	1675.24
813.56	1681.38
813.73	1703.91
813.91	1628.14
814.08	1724.39
814.25	1753.06
814.42	1693.67
814.60	1751.01
814.77	1669.09
814.94	1662.95
815.12	1730.53
815.29	1654.76
815.46	1656.81
815.63	1734.63
815.81	1705.96
815.98	1669.09
816.15	1662.95
816.33	1730.53
816.50	1714.15
816.67	1728.49
816.84	1748.97
817.02	1665.00
817.19	1701.86
817.36	1703.91
817.53	1722.34
817.71	1650.66
817.88	1693.67
818.05	1636.33
818.22	1607.66
818.40	1818.60
818.57	1648.61
818.74	1789.92
818.91	1703.91
819.09	1671.14
819.26	1714.15
819.43	1673.19
819.60	1652.71
819.78	1734.63
819.95	1822.69
820.12	1677.29
820.29	1701.86
820.47	1728.49
820.64	1621.99
820.81	1703.91
820.98	1583.08
821.15	1652.71
821.33	1699.81
821.50	1611.75
821.67	1683.43
821.84	1605.61
822.02	1773.54
822.19	1708.01
822.36	1665.00
822.53	1724.39
822.70	1640.42
822.88	1759.21
823.05	1804.26
823.22	1693.67
823.39	1703.91
823.56	1679.33
823.74	1845.22
823.91	1708.01
824.08	1712.10
824.25	1603.56
824.42	1783.78
824.60	1601.51
824.77	1701.86
824.94	1695.72
825.11	1691.62
825.28	1656.81
825.45	1587.18
825.63	1712.10
825.80	1611.75
825.97	1730.53
826.14	1699.81
826.31	1681.38
826.48	1693.67
826.66	1583.08
826.83	1705.96
827.00	1796.07
827.17	1675.24
827.34	1679.33
827.51	1642.47
827.69	1753.06
827.86	1624.04
828.03	1695.72
828.20	1675.24
828.37	1607.66
828.54	1771.49
828.71	1611.75
828.89	1734.63
829.06	1712.10
829.23	1775.59
829.40	1644.52
829.57	1691.62
829.74	1720.29
829.91	1589.22
830.09	1703.91
830.26	1746.92
830.43	1816.55
830.60	1755.11
830.77	1705.96
830.94	1751.01
831.11	1765.35
831.28	1714.15
831.46	1771.49
831.63	1736.68
831.80	1718.25
831.97	1699.81
832.14	1638.38
832.31	1660.90
832.48	1687.53
832.65	1732.58
832.82	1689.57
832.99	1697.77
833.17	1636.33
833.34	1785.83
833.51	1718.25
833.68	1652.71
833.85	1726.44
834.02	1621.99
834.19	1624.04
834.36	1656.81
834.53	1755.11
834.70	1763.30
834.87	1826.79
835.04	1695.72
835.22	1615.85
835.39	1621.99
835.56	1624.04
835.73	1708.01
835.90	1783.78
836.07	1708.01
836.24	1712.10
836.41	1662.95
836.58	1634.28
836.75	1781.73
836.92	1650.66
837.09	1634.28
837.26	1720.29
837.43	1654.76
837.60	1728.49
837.77	1699.81
837.94	1628.14
838.12	1708.01
838.29	1714.15
838.46	1695.72
838.63	1599.46
838.80	1767.40
838.97	1728.49
839.14	1716.20
839.31	1572.84
839.48	1714.15
839.65	1730.53
839.82	1677.29
839.99	1687.53
840.16	1691.62
840.33	1751.01
840.50	1701.86
840.67	1695.72
840.84	1601.51
841.01	1689.57
841.18	1671.14
841.35	1697.77
841.52	1810.40
841.69	1812.45
841.86	1656.81
842.03	1669.09
842.20	1775.59
842.37	1611.75
842.54	1675.24
842.71	1650.66
842.88	1599.46
843.05	1765.35
843.22	1699.81
843.39	1812.45
843.56	1683.43
843.73	1673.19
843.90	1693.67
844.07	1714.15
844.24	1779.68
844.41	1746.92
844.58	1632.23
844.75	1660.90
844.92	1724.39
845.09	1644.52
845.26	1652.71
845.43	1716.20
845.60	1665.00
845.77	1771.49
845.94	1718.25
846.10	1705.96
846.27	1595.37
846.44	1638.38
846.61	1658.85
846.78	1730.53
846.95	1773.54
847.12	1644.52
847.29	1742.82
847.46	1703.91
847.63	1761.25
847.80	1671.14
847.97	1691.62
848.14	1818.60
848.31	1665.00
848.48	1587.18
848.65	1691.62
848.82	1701.86
848.98	1820.64
849.15	1765.35
849.32	1763.30
849.49	1746.92
849.66	1718.25
849.83	1701.86
850.00	1615.85
850.17	1701.86
850.34	1710.05
850.51	1695.72
850.68	1607.66
850.85	1845.22
851.01	1746.92
851.18	1714.15
851.35	1687.53
851.52	1669.09
851.69	1779.68
851.86	1669.09
852.03	1701.86
852.20	1730.53
852.37	1722.34
852.53	1658.85
852.70	1685.48
852.87	1650.66
853.04	1687.53
853.21	1673.19
853.38	1757.16
853.55	1726.44
853.72	1796.07
853.89	1611.75
854.05	1650.66
854.22	1746.92
854.39	1691.62
854.56	1744.87
854.73	1783.78
854.90	1628.14
855.07	1716.20
855.23	1718.25
855.40	1669.09
855.57	1705.96
855.74	1626.09
855.91	1832.93
856.08	1673.19
856.25	1640.42
856.41	1665.00
856.58	1726.44
856.75	1705.96
856.92	1599.46
857.09	1730.53
857.26	1648.61
857.42	1695.72
857.59	1732.58
857.76	1681.38
857.93	1699.81
858.10	1703.91
858.27	1648.61
858.43	1701.86
858.60	1609.70
858.77	1599.46
858.94	1693.67
859.11	1748.97
859.27	1636.33
859.44	1675.24
859.61	1796.07
859.78	1740.77
859.95	1730.53
860.12	1634.28
860.28	1820.64
860.45	1779.68
860.62	1687.53
860.79	1703.91
860.95	1619.94
861.12	1708.01
861.29	1675.24
861.46	1597.42
861.63	1773.54
861.79	1722.34
861.96	1615.85
862.13	1673.19
862.30	1656.81
862.47	1681.38
862.63	1681.38
862.80	1744.87
862.97	1748.97
863.14	1705.96
863.30	1658.85
863.47	1646.57
863.64	1796.07
863.81	1681.38
863.97	1621.99
864.14	1755.11
864.31	1640.42
864.48	1730.53
864.65	1718.25
864.81	1742.82
864.98	1759.21
865.15	1722.34
865.32	1775.59
865.48	1720.29
865.65	1718.25
865.82	1732.58
865.98	1716.20
866.15	1761.25
866.32	1658.85
866.49	1646.57
866.65	1757.16
866.82	1650.66
866.99	1716.20
867.16	1697.77
867.32	1634.28
867.49	1703.91
867.66	1730.53
867.83	1640.42
867.99	1628.14
868.16	1687.53
868.33	1648.61
868.49	1720.29
868.66	1652.71
868.83	1722.34
868.99	1726.44
869.16	1722.34
869.33	1769.44
869.50	1757.16
869.66	1675.24
869.83	1673.19
870.00	1556.46
870.16	1730.53
870.33	1634.28
870.50	1744.87
870.66	1667.05
870.83	1837.03
871.00	1714.15
871.17	1695.72
871.33	1722.34
871.50	1656.81
871.67	1679.33
871.83	1621.99
872.00	1787.88
872.17	1609.70
872.33	1779.68
872.50	1685.48
872.67	1701.86
872.83	1683.43
873.00	1679.33
873.17	1699.81
873.33	1767.40
873.50	1705.96
873.67	1597.42
873.83	1607.66
874.00	1708.01
874.16	1777.64
874.33	1695.72
874.50	1634.28
874.66	1714.15
874.83	1683.43
875.00	1732.58
875.16	1697.77
875.33	1789.92
875.50	1591.27
875.66	1650.66
875.83	1767.40
875.99	1701.86
876.16	1738.73
876.33	1617.90
876.49	1634.28
876.66	1673.19
876.83	1720.29
876.99	1683.43
877.16	1718.25
877.32	1708.01
877.49	1599.46
877.66	1740.77
877.82	1728.49
877.99	1714.15
878.15	1716.20
878.32	1763.30
878.49	1673.19
878.65	1648.61
878.82	1759.21
878.98	1652.71
879.15	1714.15
879.32	1701.86
879.48	1740.77
879.65	1667.05
879.81	1615.85
879.98	1705.96
880.15	1753.06
880.31	1613.80
880.48	1675.24
880.64	1724.39
880.81	1724.39
880.97	1751.01
881.14	1748.97
881.31	1667.05
881.47	1841.12
881.64	1671.14
881.80	1619.94
881.97	1705.96
882.13	1718.25
882.30	1646.57
882.47	1687.53
882.63	1628.14
882.80	1568.74
882.96	1685.48
883.13	1746.92
883.29	1681.38
883.46	1716.20
883.62	1773.54
883.79	1685.48
883.95	1708.01
884.12	1716.20
884.29	1763.30
884.45	1710.05
884.62	1794.02
884.78	1685.48
884.95	1787.88
885.11	1662.95
885.28	1665.00
885.44	1730.53
885.61	1779.68
885.77	1738.73
885.94	1732.58
886.10	1648.61
886.27	1673.19
886.43	1789.92
886.60	1738.73
886.76	1765.35
886.93	1652.71
887.09	1681.38
887.26	1593.32
887.42	1611.75
887.59	1810.40
887.75	1806.31
887.92	1810.40
888.08	1728.49
888.25	1738.73
888.41	1695.72
888.58	1738.73
888.74	1662.95
888.91	1669.09
>>>>>End Processed Spectral Data<<<<<
