SpectraSuite Data File
++++++++++++++++++++++++++++++++++++
Date: Mon Jun 06 16:30:17 CEST 2016
User: root
Dark Spectrum Present: No
Reference Spectrum Present: No
Number of Sampled Component Spectra: 1
Spectrometers: USB4C02835
Integration Time (usec): 100000 (USB4C02835)
Spectra Averaged: 1 (USB4C02835)
Boxcar Smoothing: 0 (USB4C02835)
Correct for Electrical Dark: No (USB4C02835)
Strobe/Lamp Enabled: No (USB4C02835)
Correct for Detector Non-linearity: No (USB4C02835)
Correct for Stray Light: No (USB4C02835)
Number of Pixels in Processed Spectrum: 3648
>>>>>Begin Processed Spectral Data<<<<<
177.47	1492.97
177.69	1492.97
177.91	1492.97
178.13	1476.59
178.36	1464.30
178.58	1677.29
178.80	1781.73
179.02	1554.41
179.24	1603.56
179.46	1689.57
179.68	1755.11
179.90	1710.05
180.13	1695.72
180.35	1665.00
180.57	1654.76
180.79	1769.44
181.01	1685.48
181.23	1738.73
181.45	1787.88
181.67	1701.86
181.90	1746.92
182.12	1732.58
182.34	1570.79
182.56	1730.53
182.78	1769.44
183.00	1689.57
183.22	1705.96
183.44	1689.57
183.66	1908.71
183.89	1771.49
184.11	1814.50
184.33	1695.72
184.55	1802.21
184.77	1765.35
184.99	1734.63
185.21	1642.47
185.43	1812.45
185.65	1685.48
185.87	1714.15
186.10	1888.23
186.32	1865.70
186.54	1701.86
186.76	1787.88
186.98	1759.21
187.20	1701.86
187.42	1718.25
187.64	1746.92
187.86	1693.67
188.08	1734.63
188.30	1675.24
188.52	1708.01
188.75	1740.77
188.97	1783.78
189.19	1648.61
189.41	1697.77
189.63	1746.92
189.85	1728.49
190.07	1734.63
190.29	1681.38
190.51	1843.17
190.73	1615.85
190.95	1726.44
191.17	1687.53
191.39	1615.85
191.61	1671.14
191.84	1660.90
192.06	1675.24
192.28	1636.33
192.50	1841.12
192.72	1767.40
192.94	1665.00
193.16	1779.68
193.38	1736.68
193.60	1665.00
193.82	1662.95
194.04	1806.31
194.26	1691.62
194.48	1738.73
194.70	1650.66
194.92	1796.07
195.14	1714.15
195.36	1607.66
195.58	1781.73
195.80	1615.85
196.02	1615.85
196.24	1654.76
196.46	1736.68
196.69	1705.96
196.91	1873.89
197.13	1679.33
197.35	1753.06
197.57	1748.97
197.79	1726.44
198.01	1640.42
198.23	1736.68
198.45	1699.81
198.67	1640.42
198.89	1685.48
199.11	1667.05
199.33	1660.90
199.55	1597.42
199.77	1691.62
199.99	1796.07
200.21	1648.61
200.43	1710.05
200.65	1591.27
200.87	1638.38
201.09	1685.48
201.31	1673.19
201.53	1746.92
201.75	1685.48
201.97	1806.31
202.19	1708.01
202.41	1794.02
202.63	1873.89
202.85	1665.00
203.07	1638.38
203.29	1624.04
203.51	1636.33
203.73	1632.23
203.95	1828.84
204.17	1705.96
204.39	1812.45
204.61	1671.14
204.83	1697.77
205.05	1722.34
205.27	1798.12
205.49	1826.79
205.71	1726.44
205.93	1665.00
206.15	1703.91
206.37	1681.38
206.59	1730.53
206.81	1642.47
207.03	1691.62
207.25	1730.53
207.47	1804.26
207.69	1730.53
207.91	1832.93
208.13	1796.07
208.34	1699.81
208.56	1611.75
208.78	1742.82
209.00	1716.20
209.22	1697.77
209.44	1624.04
209.66	1763.30
209.88	1624.04
210.10	1665.00
210.32	1665.00
210.54	1806.31
210.76	1687.53
210.98	1765.35
211.20	1619.94
211.42	1769.44
211.64	1837.03
211.86	1744.87
212.08	1771.49
212.30	1753.06
212.52	1662.95
212.74	1746.92
212.96	1755.11
213.17	1787.88
213.39	1746.92
213.61	1845.22
213.83	1638.38
214.05	1615.85
214.27	1787.88
214.49	1683.43
214.71	1658.85
214.93	1767.40
215.15	1665.00
215.37	1724.39
215.59	1603.56
215.81	1775.59
216.03	1714.15
216.24	1775.59
216.46	1667.05
216.68	1746.92
216.90	1798.12
217.12	1820.64
217.34	1730.53
217.56	1718.25
217.78	1830.88
218.00	1691.62
218.22	1779.68
218.44	1722.34
218.66	1703.91
218.87	1748.97
219.09	1710.05
219.31	1773.54
219.53	1726.44
219.75	1755.11
219.97	1757.16
220.19	1691.62
220.41	1716.20
220.63	1701.86
220.85	1763.30
221.06	1681.38
221.28	1781.73
221.50	1705.96
221.72	1705.96
221.94	1632.23
222.16	1685.48
222.38	1726.44
222.60	1761.25
222.82	1701.86
223.03	1742.82
223.25	1736.68
223.47	1837.03
223.69	1834.98
223.91	1759.21
224.13	1773.54
224.35	1650.66
224.57	1759.21
224.78	1794.02
225.00	1683.43
225.22	1648.61
225.44	1720.29
225.66	1734.63
225.88	1673.19
226.10	1767.40
226.32	1746.92
226.53	1812.45
226.75	1697.77
226.97	1693.67
227.19	1667.05
227.41	1591.27
227.63	1669.09
227.85	1556.46
228.06	1744.87
228.28	1751.01
228.50	1773.54
228.72	1599.46
228.94	1720.29
229.16	1538.02
229.37	1675.24
229.59	1675.24
229.81	1804.26
230.03	1765.35
230.25	1638.38
230.47	1665.00
230.69	1667.05
230.90	1785.83
231.12	1691.62
231.34	1638.38
231.56	1761.25
231.78	1636.33
232.00	1738.73
232.21	1728.49
232.43	1736.68
232.65	1570.79
232.87	1679.33
233.09	1687.53
233.30	1660.90
233.52	1814.50
233.74	1667.05
233.96	1656.81
234.18	1757.16
234.40	1652.71
234.61	1798.12
234.83	1652.71
235.05	1669.09
235.27	1923.04
235.49	1791.97
235.70	1730.53
235.92	1783.78
236.14	1738.73
236.36	1773.54
236.58	1619.94
236.79	1748.97
237.01	1728.49
237.23	1710.05
237.45	1796.07
237.67	1687.53
237.88	1730.53
238.10	1806.31
238.32	1691.62
238.54	1693.67
238.76	1687.53
238.97	1703.91
239.19	1656.81
239.41	1796.07
239.63	1816.55
239.85	1703.91
240.06	1671.14
240.28	1744.87
240.50	1714.15
240.72	1744.87
240.93	1728.49
241.15	1816.55
241.37	1673.19
241.59	1734.63
241.81	1683.43
242.02	1669.09
242.24	1777.64
242.46	1769.44
242.68	1677.29
242.89	1734.63
243.11	1785.83
243.33	1730.53
243.55	1703.91
243.76	1724.39
243.98	1628.14
244.20	1683.43
244.42	1662.95
244.64	1677.29
244.85	1677.29
245.07	1658.85
245.29	1681.38
245.51	1669.09
245.72	1796.07
245.94	1804.26
246.16	1726.44
246.38	1783.78
246.59	1656.81
246.81	1660.90
247.03	1708.01
247.24	1675.24
247.46	1685.48
247.68	1769.44
247.90	1710.05
248.11	1720.29
248.33	1775.59
248.55	1761.25
248.77	1656.81
248.98	1714.15
249.20	1722.34
249.42	1746.92
249.64	1734.63
249.85	1681.38
250.07	1751.01
250.29	1761.25
250.50	1798.12
250.72	1665.00
250.94	1742.82
251.16	1789.92
251.37	1777.64
251.59	1724.39
251.81	1765.35
252.02	1824.74
252.24	1746.92
252.46	1744.87
252.68	1581.03
252.89	1730.53
253.11	1650.66
253.33	1884.13
253.54	1781.73
253.76	1626.09
253.98	1636.33
254.20	1728.49
254.41	1652.71
254.63	1697.77
254.85	1673.19
255.06	1726.44
255.28	1765.35
255.50	1732.58
255.71	1617.90
255.93	1609.70
256.15	1701.86
256.36	1755.11
256.58	1673.19
256.80	1683.43
257.02	1693.67
257.23	1703.91
257.45	1681.38
257.67	1783.78
257.88	1665.00
258.10	1703.91
258.32	1683.43
258.53	1818.60
258.75	1791.97
258.97	1683.43
259.18	1687.53
259.40	1722.34
259.62	1738.73
259.83	1757.16
260.05	1738.73
260.27	2019.30
260.48	1665.00
260.70	1675.24
260.92	1662.95
261.13	1726.44
261.35	1654.76
261.57	1730.53
261.78	1603.56
262.00	1617.90
262.22	1742.82
262.43	1667.05
262.65	1773.54
262.86	1648.61
263.08	1867.75
263.30	1675.24
263.51	1583.08
263.73	1640.42
263.95	1769.44
264.16	1685.48
264.38	1605.61
264.60	1751.01
264.81	1744.87
265.03	1779.68
265.25	1736.68
265.46	1660.90
265.68	1796.07
265.89	1816.55
266.11	1630.18
266.33	1759.21
266.54	1716.20
266.76	1705.96
266.98	1689.57
267.19	1751.01
267.41	1751.01
267.62	1705.96
267.84	1695.72
268.06	1728.49
268.27	1691.62
268.49	1841.12
268.70	1718.25
268.92	1681.38
269.14	1644.52
269.35	1636.33
269.57	1728.49
269.79	1742.82
270.00	1648.61
270.22	1748.97
270.43	1677.29
270.65	1562.60
270.87	1710.05
271.08	1769.44
271.30	1742.82
271.51	1744.87
271.73	1785.83
271.95	1796.07
272.16	1761.25
272.38	1763.30
272.59	1658.85
272.81	1751.01
273.02	1693.67
273.24	1726.44
273.46	1832.93
273.67	1693.67
273.89	1626.09
274.10	1757.16
274.32	1730.53
274.54	1708.01
274.75	1660.90
274.97	1675.24
275.18	1708.01
275.40	1759.21
275.61	1701.86
275.83	1759.21
276.05	1693.67
276.26	1710.05
276.48	1665.00
276.69	1681.38
276.91	1697.77
277.12	1691.62
277.34	1771.49
277.55	1714.15
277.77	1689.57
277.99	1763.30
278.20	1656.81
278.42	1607.66
278.63	1642.47
278.85	1699.81
279.06	1621.99
279.28	1716.20
279.49	1761.25
279.71	1763.30
279.93	1718.25
280.14	1679.33
280.36	1697.77
280.57	1716.20
280.79	1759.21
281.00	1773.54
281.22	1597.42
281.43	1765.35
281.65	1538.02
281.86	1646.57
282.08	1658.85
282.29	1859.56
282.51	1632.23
282.73	1742.82
282.94	1648.61
283.16	1818.60
283.37	1837.03
283.59	1699.81
283.80	1802.21
284.02	1681.38
284.23	1781.73
284.45	1615.85
284.66	1640.42
284.88	1718.25
285.09	1738.73
285.31	1798.12
285.52	1671.14
285.74	1624.04
285.95	1744.87
286.17	1689.57
286.38	1748.97
286.60	1730.53
286.81	1646.57
287.03	1650.66
287.24	1669.09
287.46	1693.67
287.67	1705.96
287.89	1865.70
288.10	1693.67
288.32	1736.68
288.53	1763.30
288.75	1693.67
288.96	1759.21
289.18	1609.70
289.39	1695.72
289.61	1775.59
289.82	1785.83
290.04	1828.84
290.25	1691.62
290.47	1640.42
290.68	1630.18
290.90	1687.53
291.11	1556.46
291.33	1841.12
291.54	1701.86
291.76	1619.94
291.97	1705.96
292.18	1703.91
292.40	1695.72
292.61	1708.01
292.83	1855.46
293.04	1720.29
293.26	1734.63
293.47	1644.52
293.69	1660.90
293.90	1736.68
294.12	1834.98
294.33	1724.39
294.55	1671.14
294.76	1779.68
294.97	1826.79
295.19	1853.41
295.40	1685.48
295.62	1730.53
295.83	1834.98
296.05	1701.86
296.26	1787.88
296.48	1636.33
296.69	1636.33
296.90	1710.05
297.12	1787.88
297.33	1830.88
297.55	1712.10
297.76	1701.86
297.98	1794.02
298.19	1703.91
298.41	1734.63
298.62	1695.72
298.83	1740.77
299.05	1757.16
299.26	1744.87
299.48	1640.42
299.69	1818.60
299.90	1697.77
300.12	1660.90
300.33	1744.87
300.55	1710.05
300.76	1660.90
300.98	1671.14
301.19	1785.83
301.40	1662.95
301.62	1703.91
301.83	1804.26
302.05	1759.21
302.26	1691.62
302.47	1738.73
302.69	1687.53
302.90	1724.39
303.12	1617.90
303.33	1738.73
303.54	1820.64
303.76	1667.05
303.97	1722.34
304.19	1875.94
304.40	1624.04
304.61	1677.29
304.83	1734.63
305.04	1767.40
305.26	1755.11
305.47	1654.76
305.68	1738.73
305.90	1621.99
306.11	1730.53
306.33	1732.58
306.54	1621.99
306.75	1677.29
306.97	1597.42
307.18	1646.57
307.39	1732.58
307.61	1730.53
307.82	1662.95
308.04	1789.92
308.25	1626.09
308.46	1740.77
308.68	1765.35
308.89	1650.66
309.10	1734.63
309.32	1730.53
309.53	1710.05
309.74	1673.19
309.96	1712.10
310.17	1751.01
310.39	1730.53
310.60	1742.82
310.81	1716.20
311.03	1615.85
311.24	1796.07
311.45	1708.01
311.67	1865.70
311.88	1691.62
312.09	1748.97
312.31	1708.01
312.52	1718.25
312.73	1773.54
312.95	1652.71
313.16	1767.40
313.37	1830.88
313.59	1736.68
313.80	1779.68
314.01	1773.54
314.23	1658.85
314.44	1642.47
314.65	1642.47
314.87	1710.05
315.08	1624.04
315.29	1583.08
315.51	1662.95
315.72	1626.09
315.93	1779.68
316.15	1787.88
316.36	1656.81
316.57	1697.77
316.79	1769.44
317.00	1720.29
317.21	1669.09
317.43	1660.90
317.64	1675.24
317.85	1640.42
318.07	1619.94
318.28	1746.92
318.49	1746.92
318.70	1882.08
318.92	1812.45
319.13	1808.36
319.34	1937.38
319.56	1736.68
319.77	1777.64
319.98	1787.88
320.20	1785.83
320.41	1816.55
320.62	1724.39
320.83	1656.81
321.05	1837.03
321.26	1773.54
321.47	1746.92
321.69	1771.49
321.90	1693.67
322.11	1695.72
322.32	1722.34
322.54	1820.64
322.75	1736.68
322.96	1685.48
323.18	1673.19
323.39	1535.98
323.60	1705.96
323.81	1724.39
324.03	1722.34
324.24	1689.57
324.45	1701.86
324.66	1718.25
324.88	1767.40
325.09	1861.60
325.30	1740.77
325.52	1720.29
325.73	1691.62
325.94	1658.85
326.15	1699.81
326.37	1667.05
326.58	1832.93
326.79	1779.68
327.00	1779.68
327.22	1708.01
327.43	1701.86
327.64	1691.62
327.85	1718.25
328.07	1685.48
328.28	1794.02
328.49	1665.00
328.70	1669.09
328.92	1753.06
329.13	1720.29
329.34	1767.40
329.55	1781.73
329.76	1714.15
329.98	1689.57
330.19	1884.13
330.40	1755.11
330.61	1710.05
330.83	1841.12
331.04	1679.33
331.25	1673.19
331.46	1654.76
331.68	1769.44
331.89	1828.84
332.10	1712.10
332.31	1613.80
332.52	1761.25
332.74	1783.78
332.95	1699.81
333.16	1662.95
333.37	1828.84
333.58	1734.63
333.80	1652.71
334.01	1632.23
334.22	1667.05
334.43	1705.96
334.64	1705.96
334.86	1665.00
335.07	1679.33
335.28	1748.97
335.49	1617.90
335.70	1761.25
335.92	1894.37
336.13	1824.74
336.34	1714.15
336.55	1724.39
336.76	1699.81
336.98	1626.09
337.19	1736.68
337.40	1800.16
337.61	1843.17
337.82	1738.73
338.04	1781.73
338.25	1527.78
338.46	1669.09
338.67	1767.40
338.88	1603.56
339.09	1675.24
339.31	1728.49
339.52	1691.62
339.73	1660.90
339.94	1634.28
340.15	1757.16
340.36	1675.24
340.58	1703.91
340.79	1765.35
341.00	1734.63
341.21	1705.96
341.42	1804.26
341.63	1736.68
341.85	1751.01
342.06	1714.15
342.27	1599.46
342.48	1738.73
342.69	1646.57
342.90	1789.92
343.12	1751.01
343.33	1646.57
343.54	1761.25
343.75	1771.49
343.96	1744.87
344.17	1708.01
344.38	1740.77
344.60	1656.81
344.81	1611.75
345.02	1763.30
345.23	1865.70
345.44	1804.26
345.65	1779.68
345.86	1761.25
346.07	1689.57
346.29	1703.91
346.50	1814.50
346.71	1685.48
346.92	1748.97
347.13	1798.12
347.34	1671.14
347.55	1699.81
347.76	1748.97
347.98	1642.47
348.19	1636.33
348.40	1746.92
348.61	1708.01
348.82	1849.32
349.03	1724.39
349.24	1681.38
349.45	1783.78
349.66	1578.98
349.88	1708.01
350.09	1761.25
350.30	1812.45
350.51	1849.32
350.72	1732.58
350.93	1714.15
351.14	1669.09
351.35	1687.53
351.56	1712.10
351.77	1730.53
351.99	1734.63
352.20	1812.45
352.41	1757.16
352.62	1595.37
352.83	1701.86
353.04	1718.25
353.25	1679.33
353.46	1699.81
353.67	1748.97
353.88	1585.13
354.09	1703.91
354.30	1761.25
354.52	1697.77
354.73	1650.66
354.94	1689.57
355.15	1767.40
355.36	1867.75
355.57	1650.66
355.78	1730.53
355.99	1650.66
356.20	1671.14
356.41	1757.16
356.62	1738.73
356.83	1701.86
357.04	1755.11
357.25	1701.86
357.46	1697.77
357.68	1636.33
357.89	1628.14
358.10	1685.48
358.31	1763.30
358.52	1675.24
358.73	1589.22
358.94	1665.00
359.15	1621.99
359.36	1697.77
359.57	1716.20
359.78	1705.96
359.99	1742.82
360.20	1718.25
360.41	1699.81
360.62	1720.29
360.83	1703.91
361.04	1730.53
361.25	1689.57
361.46	1761.25
361.67	1685.48
361.88	1785.83
362.09	1771.49
362.30	1695.72
362.51	1691.62
362.72	1693.67
362.93	1730.53
363.14	1748.97
363.35	1777.64
363.56	1615.85
363.78	1822.69
363.99	1759.21
364.20	1648.61
364.41	1755.11
364.62	1738.73
364.83	1777.64
365.04	1726.44
365.25	1689.57
365.46	1808.36
365.67	1632.23
365.88	1560.55
366.09	1667.05
366.30	1648.61
366.51	1753.06
366.72	1695.72
366.93	1701.86
367.14	1681.38
367.35	1791.97
367.56	1763.30
367.77	1820.64
367.98	1683.43
368.18	1658.85
368.39	1740.77
368.60	1626.09
368.81	1759.21
369.02	1693.67
369.23	1689.57
369.44	1599.46
369.65	1710.05
369.86	1689.57
370.07	1753.06
370.28	1665.00
370.49	1730.53
370.70	1703.91
370.91	1646.57
371.12	1685.48
371.33	1812.45
371.54	1705.96
371.75	1804.26
371.96	1646.57
372.17	1718.25
372.38	1675.24
372.59	1820.64
372.80	1718.25
373.01	1685.48
373.22	1624.04
373.43	1677.29
373.64	1677.29
373.85	1816.55
374.06	1814.50
374.26	1736.68
374.47	1695.72
374.68	1791.97
374.89	1746.92
375.10	1662.95
375.31	1802.21
375.52	1734.63
375.73	1738.73
375.94	1726.44
376.15	1812.45
376.36	1636.33
376.57	1605.61
376.78	1708.01
376.99	1800.16
377.20	1804.26
377.40	1718.25
377.61	1789.92
377.82	1652.71
378.03	1699.81
378.24	1748.97
378.45	1718.25
378.66	1726.44
378.87	1591.27
379.08	1636.33
379.29	1710.05
379.50	1839.08
379.71	1753.06
379.91	1765.35
380.12	1775.59
380.33	1671.14
380.54	1673.19
380.75	1693.67
380.96	1693.67
381.17	1685.48
381.38	1720.29
381.59	1773.54
381.80	1689.57
382.00	1765.35
382.21	1783.78
382.42	1812.45
382.63	1912.80
382.84	1748.97
383.05	1839.08
383.26	1869.80
383.47	1679.33
383.68	1787.88
383.88	1730.53
384.09	1759.21
384.30	1802.21
384.51	1703.91
384.72	1751.01
384.93	1642.47
385.14	1677.29
385.35	1796.07
385.55	1751.01
385.76	1783.78
385.97	1695.72
386.18	1689.57
386.39	1665.00
386.60	1691.62
386.81	1753.06
387.02	1667.05
387.22	1691.62
387.43	1763.30
387.64	1781.73
387.85	1839.08
388.06	2131.94
388.27	4298.69
388.48	6633.37
388.68	8335.23
388.89	9549.68
389.10	9783.15
389.31	8779.64
389.52	7649.16
389.73	6786.97
389.93	6231.97
390.14	5797.80
390.35	5117.87
390.56	4655.03
390.77	3745.73
390.98	3096.53
391.18	2527.19
391.39	2144.22
391.60	1935.33
391.81	1806.31
392.02	1738.73
392.23	1886.18
392.43	1783.78
392.64	1773.54
392.85	1667.05
393.06	1791.97
393.27	1744.87
393.47	1710.05
393.68	1759.21
393.89	1683.43
394.10	1804.26
394.31	1703.91
394.52	1705.96
394.72	1765.35
394.93	1771.49
395.14	1640.42
395.35	1789.92
395.56	1755.11
395.76	1812.45
395.97	1808.36
396.18	1820.64
396.39	1871.84
396.60	2041.82
396.80	1869.80
397.01	1812.45
397.22	1845.22
397.43	1845.22
397.64	1789.92
397.84	1748.97
398.05	1853.41
398.26	1763.30
398.47	1794.02
398.67	1767.40
398.88	1740.77
399.09	1716.20
399.30	1691.62
399.51	1763.30
399.71	1624.04
399.92	1722.34
400.13	1757.16
400.34	1771.49
400.54	1652.71
400.75	1804.26
400.96	1677.29
401.17	1789.92
401.37	1751.01
401.58	1648.61
401.79	1730.53
402.00	1853.41
402.21	1998.82
402.41	1984.48
402.62	2004.96
402.83	2004.96
403.04	1937.38
403.24	2074.59
403.45	1859.56
403.66	1966.05
403.87	1875.94
404.07	1906.66
404.28	1927.14
404.49	1863.65
404.70	1781.73
404.90	1751.01
405.11	1757.16
405.32	1755.11
405.52	1675.24
405.73	1734.63
405.94	1714.15
406.15	1699.81
406.35	1796.07
406.56	1689.57
406.77	1734.63
406.98	1751.01
407.18	1615.85
407.39	1841.12
407.60	1773.54
407.80	1787.88
408.01	1685.48
408.22	1783.78
408.43	1701.86
408.63	1753.06
408.84	1730.53
409.05	1738.73
409.25	1679.33
409.46	1654.76
409.67	1673.19
409.88	1689.57
410.08	1695.72
410.29	1632.23
410.50	1773.54
410.70	1705.96
410.91	1689.57
411.12	1763.30
411.32	1730.53
411.53	1767.40
411.74	1802.21
411.95	1779.68
412.15	1783.78
412.36	1822.69
412.57	1777.64
412.77	1779.68
412.98	1734.63
413.19	1714.15
413.39	1781.73
413.60	1710.05
413.81	1785.83
414.01	1650.66
414.22	1751.01
414.43	1740.77
414.63	1665.00
414.84	1757.16
415.05	1814.50
415.25	1677.29
415.46	1785.83
415.67	1705.96
415.87	1742.82
416.08	1722.34
416.29	1722.34
416.49	1834.98
416.70	1660.90
416.91	1658.85
417.11	1730.53
417.32	1759.21
417.53	1802.21
417.73	1808.36
417.94	1726.44
418.15	1751.01
418.35	1755.11
418.56	1730.53
418.77	1900.52
418.97	1746.92
419.18	1693.67
419.38	1595.37
419.59	1728.49
419.80	1880.04
420.00	1701.86
420.21	1701.86
420.42	1849.32
420.62	1695.72
420.83	1720.29
421.04	1669.09
421.24	1691.62
421.45	1787.88
421.65	1781.73
421.86	1644.52
422.07	1771.49
422.27	1767.40
422.48	1683.43
422.69	1662.95
422.89	1734.63
423.10	1650.66
423.30	1730.53
423.51	1738.73
423.72	1722.34
423.92	1804.26
424.13	1697.77
424.33	1685.48
424.54	1761.25
424.75	1722.34
424.95	1783.78
425.16	1773.54
425.36	1660.90
425.57	1775.59
425.78	1734.63
425.98	1761.25
426.19	1617.90
426.39	1765.35
426.60	1714.15
426.81	1794.02
427.01	1724.39
427.22	1644.52
427.42	1728.49
427.63	1755.11
427.83	1740.77
428.04	1767.40
428.25	1826.79
428.45	1800.16
428.66	1751.01
428.86	1757.16
429.07	1675.24
429.28	1705.96
429.48	1734.63
429.69	1679.33
429.89	1730.53
430.10	1718.25
430.30	1689.57
430.51	1800.16
430.71	1652.71
430.92	1726.44
431.13	1693.67
431.33	1765.35
431.54	1791.97
431.74	1781.73
431.95	1828.84
432.15	1658.85
432.36	1699.81
432.56	1765.35
432.77	1841.12
432.98	1814.50
433.18	1722.34
433.39	1691.62
433.59	1705.96
433.80	1820.64
434.00	1890.28
434.21	1673.19
434.41	1667.05
434.62	1867.75
434.82	1695.72
435.03	1650.66
435.23	1751.01
435.44	1632.23
435.64	1730.53
435.85	1810.40
436.06	1759.21
436.26	1775.59
436.47	1695.72
436.67	1701.86
436.88	1738.73
437.08	1787.88
437.29	1837.03
437.49	1728.49
437.70	1800.16
437.90	1775.59
438.11	1779.68
438.31	1746.92
438.52	1927.14
438.72	1925.09
438.93	1943.52
439.13	1777.64
439.34	1820.64
439.54	1759.21
439.75	1800.16
439.95	1812.45
440.16	1746.92
440.36	1679.33
440.57	1732.58
440.77	1746.92
440.98	1796.07
441.18	1761.25
441.39	1730.53
441.59	1675.24
441.80	1884.13
442.00	1761.25
442.21	1757.16
442.41	1679.33
442.62	1810.40
442.82	1552.36
443.02	1716.20
443.23	1791.97
443.43	1665.00
443.64	1857.51
443.84	1693.67
444.05	1771.49
444.25	1703.91
444.46	1609.70
444.66	1705.96
444.87	1820.64
445.07	1650.66
445.28	1673.19
445.48	1865.70
445.69	1783.78
445.89	1916.90
446.09	1751.01
446.30	2025.44
446.50	2516.95
446.71	3798.98
446.91	4347.84
447.12	4724.66
447.32	4720.57
447.53	4390.84
447.73	3782.60
447.93	3477.45
448.14	3248.08
448.34	3198.93
448.55	2998.23
448.75	2879.44
448.96	2703.32
449.16	2414.56
449.36	2293.72
449.57	2017.25
449.77	1951.71
449.98	1759.21
450.18	1769.44
450.39	1841.12
450.59	1730.53
450.79	1681.38
451.00	1654.76
451.20	1777.64
451.41	1726.44
451.61	1714.15
451.81	1775.59
452.02	1703.91
452.22	1658.85
452.43	1685.48
452.63	1720.29
452.84	1748.97
453.04	1687.53
453.24	1761.25
453.45	1718.25
453.65	1724.39
453.86	1751.01
454.06	1751.01
454.26	1736.68
454.47	1654.76
454.67	1832.93
454.87	1767.40
455.08	1732.58
455.28	1882.08
455.49	1701.86
455.69	1673.19
455.89	1865.70
456.10	1789.92
456.30	1720.29
456.51	1810.40
456.71	1822.69
456.91	1736.68
457.12	1796.07
457.32	1791.97
457.52	1701.86
457.73	1794.02
457.93	1722.34
458.14	1751.01
458.34	1648.61
458.54	1685.48
458.75	1734.63
458.95	1751.01
459.15	1748.97
459.36	1757.16
459.56	1728.49
459.76	1834.98
459.97	1796.07
460.17	1720.29
460.37	1794.02
460.58	1832.93
460.78	1783.78
460.99	1712.10
461.19	1703.91
461.39	1730.53
461.60	1720.29
461.80	1800.16
462.00	1703.91
462.21	1701.86
462.41	1714.15
462.61	1759.21
462.82	1609.70
463.02	1816.55
463.22	1710.05
463.43	1777.64
463.63	1746.92
463.83	1853.41
464.04	1730.53
464.24	1791.97
464.44	1730.53
464.64	1718.25
464.85	1710.05
465.05	1841.12
465.25	1738.73
465.46	1669.09
465.66	1763.30
465.86	1806.31
466.07	1771.49
466.27	1748.97
466.47	1703.91
466.68	1681.38
466.88	1837.03
467.08	1849.32
467.29	1748.97
467.49	1748.97
467.69	1728.49
467.89	1744.87
468.10	1753.06
468.30	1763.30
468.50	1787.88
468.71	1746.92
468.91	1630.18
469.11	1867.75
469.31	1814.50
469.52	1665.00
469.72	1771.49
469.92	1884.13
470.13	1720.29
470.33	1675.24
470.53	1918.95
470.73	2078.69
470.94	2246.62
471.14	2332.64
471.34	2475.99
471.54	2400.22
471.75	2215.90
471.95	2205.66
472.15	2086.88
472.36	2056.16
472.56	2066.40
472.76	2070.50
472.96	2011.11
473.17	1884.13
473.37	1937.38
473.57	1712.10
473.77	1871.84
473.98	1847.27
474.18	1767.40
474.38	1898.47
474.58	1730.53
474.79	1730.53
474.99	1796.07
475.19	1875.94
475.39	1660.90
475.60	1800.16
475.80	1726.44
476.00	1681.38
476.20	1783.78
476.41	1722.34
476.61	1824.74
476.81	1816.55
477.01	1728.49
477.21	1843.17
477.42	1767.40
477.62	1658.85
477.82	1832.93
478.02	1744.87
478.23	1791.97
478.43	1611.75
478.63	1689.57
478.83	1740.77
479.03	1652.71
479.24	1871.84
479.44	1800.16
479.64	1742.82
479.84	1591.27
480.04	1705.96
480.25	1712.10
480.45	1693.67
480.65	1697.77
480.85	1796.07
481.06	1658.85
481.26	1748.97
481.46	1728.49
481.66	1738.73
481.86	1699.81
482.06	1796.07
482.27	1673.19
482.47	1714.15
482.67	1740.77
482.87	1759.21
483.07	1794.02
483.28	1667.05
483.48	1701.86
483.68	1716.20
483.88	1714.15
484.08	1667.05
484.29	1675.24
484.49	1742.82
484.69	1658.85
484.89	1796.07
485.09	1746.92
485.29	1812.45
485.50	1751.01
485.70	1734.63
485.90	1787.88
486.10	1736.68
486.30	1701.86
486.50	1824.74
486.71	1759.21
486.91	1748.97
487.11	1824.74
487.31	1767.40
487.51	1810.40
487.71	1695.72
487.91	1665.00
488.12	1675.24
488.32	1630.18
488.52	1642.47
488.72	1613.80
488.92	1714.15
489.12	1734.63
489.32	1800.16
489.53	1800.16
489.73	1624.04
489.93	1736.68
490.13	1736.68
490.33	1615.85
490.53	1746.92
490.73	1865.70
490.94	1683.43
491.14	1755.11
491.34	1820.64
491.54	2148.32
491.74	2541.53
491.94	2885.59
492.14	3055.57
492.34	3024.85
492.54	2768.85
492.75	2475.99
492.95	2451.42
493.15	2283.49
493.35	2199.52
493.55	2230.24
493.75	2156.51
493.95	2183.13
494.15	2023.39
494.35	1882.08
494.56	1804.26
494.76	1863.65
494.96	1761.25
495.16	1800.16
495.36	1652.71
495.56	1705.96
495.76	1767.40
495.96	1701.86
496.16	1675.24
496.36	1830.88
496.56	1769.44
496.77	1783.78
496.97	1701.86
497.17	1804.26
497.37	1695.72
497.57	1757.16
497.77	1697.77
497.97	1732.58
498.17	1742.82
498.37	1728.49
498.57	1751.01
498.77	1742.82
498.97	1785.83
499.17	1867.75
499.38	1757.16
499.58	1785.83
499.78	1763.30
499.98	1771.49
500.18	1693.67
500.38	1771.49
500.58	2000.87
500.78	2598.87
500.98	4573.11
501.18	5978.02
501.38	6737.82
501.58	7063.44
501.78	6643.61
501.98	5574.57
502.18	4964.28
502.38	4325.31
502.58	4110.27
502.78	3841.99
502.98	3672.01
503.18	3391.44
503.38	3284.94
503.59	2834.39
503.79	2682.84
503.99	2471.90
504.19	2351.07
504.39	2220.00
504.59	2150.37
504.79	2029.54
504.99	2076.64
505.19	1914.85
505.39	1910.75
505.59	1990.63
505.79	1880.04
505.99	1787.88
506.19	1818.60
506.39	1877.99
506.59	1753.06
506.79	1697.77
506.99	1832.93
507.19	1755.11
507.39	1751.01
507.59	1685.48
507.79	1714.15
507.99	1730.53
508.19	1689.57
508.39	1712.10
508.59	1748.97
508.79	1822.69
508.99	1861.60
509.19	1638.38
509.39	1761.25
509.59	1751.01
509.79	1767.40
509.99	1746.92
510.19	1781.73
510.39	1843.17
510.59	1802.21
510.79	1703.91
510.99	1728.49
511.19	1800.16
511.39	1845.22
511.59	1779.68
511.79	1732.58
511.99	1734.63
512.19	1818.60
512.38	1736.68
512.58	1759.21
512.78	1744.87
512.98	1832.93
513.18	1804.26
513.38	1712.10
513.58	1814.50
513.78	1695.72
513.98	1794.02
514.18	1667.05
514.38	1705.96
514.58	1726.44
514.78	1798.12
514.98	1703.91
515.18	1738.73
515.38	1640.42
515.58	1728.49
515.78	1701.86
515.98	1761.25
516.18	1744.87
516.38	1697.77
516.57	1675.24
516.77	1724.39
516.97	1730.53
517.17	1677.29
517.37	1656.81
517.57	1857.51
517.77	1722.34
517.97	1722.34
518.17	1738.73
518.37	1697.77
518.57	1699.81
518.77	1675.24
518.97	1736.68
519.16	1755.11
519.36	1857.51
519.56	1751.01
519.76	1810.40
519.96	1689.57
520.16	1783.78
520.36	1728.49
520.56	1802.21
520.76	1736.68
520.96	1685.48
521.16	1849.32
521.35	1794.02
521.55	1920.99
521.75	1748.97
521.95	1671.14
522.15	1679.33
522.35	1699.81
522.55	1695.72
522.75	1824.74
522.95	1669.09
523.14	1701.86
523.34	1796.07
523.54	1722.34
523.74	1765.35
523.94	1828.84
524.14	1689.57
524.34	1746.92
524.54	1832.93
524.73	1720.29
524.93	1789.92
525.13	1775.59
525.33	1703.91
525.53	1880.04
525.73	1826.79
525.93	1751.01
526.13	1691.62
526.32	1783.78
526.52	1751.01
526.72	1791.97
526.92	1767.40
527.12	1802.21
527.32	1654.76
527.52	1800.16
527.71	1804.26
527.91	1634.28
528.11	1759.21
528.31	1736.68
528.51	1714.15
528.71	1794.02
528.90	1769.44
529.10	1767.40
529.30	1806.31
529.50	1669.09
529.70	1697.77
529.90	1816.55
530.09	1724.39
530.29	1716.20
530.49	1746.92
530.69	1837.03
530.89	1734.63
531.09	1804.26
531.28	1734.63
531.48	1783.78
531.68	1761.25
531.88	1734.63
532.08	1765.35
532.28	1759.21
532.47	1822.69
532.67	1775.59
532.87	1673.19
533.07	1650.66
533.27	1771.49
533.46	1722.34
533.66	1708.01
533.86	1681.38
534.06	1736.68
534.26	1751.01
534.45	1726.44
534.65	1816.55
534.85	1732.58
535.05	1681.38
535.25	1767.40
535.44	1673.19
535.64	1775.59
535.84	1779.68
536.04	1660.90
536.24	1673.19
536.43	1689.57
536.63	1779.68
536.83	1724.39
537.03	1650.66
537.22	1624.04
537.42	1705.96
537.62	1804.26
537.82	1665.00
538.02	1789.92
538.21	1763.30
538.41	1843.17
538.61	1753.06
538.81	1753.06
539.00	1822.69
539.20	1748.97
539.40	1746.92
539.60	1763.30
539.79	1734.63
539.99	1746.92
540.19	1691.62
540.39	1708.01
540.58	1742.82
540.78	1775.59
540.98	1724.39
541.18	1800.16
541.37	1748.97
541.57	1732.58
541.77	1724.39
541.97	1667.05
542.16	1695.72
542.36	1732.58
542.56	1855.46
542.76	1830.88
542.95	1804.26
543.15	1738.73
543.35	1800.16
543.54	1712.10
543.74	1712.10
543.94	1779.68
544.14	1751.01
544.33	1779.68
544.53	1742.82
544.73	1722.34
544.93	1695.72
545.12	1734.63
545.32	1806.31
545.52	1665.00
545.71	1720.29
545.91	1673.19
546.11	1734.63
546.30	1693.67
546.50	1722.34
546.70	1734.63
546.90	1742.82
547.09	1669.09
547.29	1775.59
547.49	1755.11
547.68	1726.44
547.88	1785.83
548.08	1765.35
548.27	2179.04
548.47	1740.77
548.67	1695.72
548.87	1710.05
549.06	1769.44
549.26	1744.87
549.46	1681.38
549.65	1757.16
549.85	1740.77
550.05	1769.44
550.24	1689.57
550.44	1730.53
550.64	1755.11
550.83	1757.16
551.03	1824.74
551.23	1779.68
551.42	1814.50
551.62	1767.40
551.82	1683.43
552.01	1673.19
552.21	1798.12
552.41	1757.16
552.60	1814.50
552.80	1710.05
553.00	1757.16
553.19	1798.12
553.39	1861.60
553.59	1626.09
553.78	1767.40
553.98	1726.44
554.17	1658.85
554.37	1773.54
554.57	1757.16
554.76	1724.39
554.96	1710.05
555.16	1742.82
555.35	1763.30
555.55	1791.97
555.75	1751.01
555.94	1794.02
556.14	1636.33
556.33	1777.64
556.53	1734.63
556.73	1705.96
556.92	1824.74
557.12	1826.79
557.32	1777.64
557.51	1806.31
557.71	1800.16
557.90	1877.99
558.10	1789.92
558.30	1697.77
558.49	1718.25
558.69	1730.53
558.88	1746.92
559.08	1755.11
559.28	1751.01
559.47	1761.25
559.67	1800.16
559.86	1857.51
560.06	1744.87
560.26	1775.59
560.45	1781.73
560.65	1728.49
560.84	1882.08
561.04	1738.73
561.24	1832.93
561.43	1644.52
561.63	1837.03
561.82	1832.93
562.02	1824.74
562.22	1748.97
562.41	1691.62
562.61	1695.72
562.80	1679.33
563.00	1927.14
563.19	1816.55
563.39	1832.93
563.59	1761.25
563.78	1767.40
563.98	1585.13
564.17	1714.15
564.37	1621.99
564.56	1732.58
564.76	1718.25
564.96	1847.27
565.15	1730.53
565.35	1839.08
565.54	1673.19
565.74	1837.03
565.93	1767.40
566.13	1751.01
566.32	1755.11
566.52	1806.31
566.71	1726.44
566.91	1806.31
567.11	1767.40
567.30	1701.86
567.50	1789.92
567.69	1783.78
567.89	1746.92
568.08	1693.67
568.28	1773.54
568.47	1677.29
568.67	1796.07
568.86	1789.92
569.06	1810.40
569.25	1722.34
569.45	1583.08
569.64	1673.19
569.84	1695.72
570.04	1746.92
570.23	1681.38
570.43	1763.30
570.62	1771.49
570.82	1902.56
571.01	1667.05
571.21	1685.48
571.40	1687.53
571.60	1738.73
571.79	1761.25
571.99	1716.20
572.18	1697.77
572.38	1794.02
572.57	1722.34
572.77	1824.74
572.96	1800.16
573.16	1761.25
573.35	1683.43
573.55	1857.51
573.74	1785.83
573.94	1732.58
574.13	1798.12
574.33	1837.03
574.52	1845.22
574.71	1728.49
574.91	1779.68
575.10	1624.04
575.30	1677.29
575.49	1785.83
575.69	1753.06
575.88	1759.21
576.08	1753.06
576.27	1773.54
576.47	1753.06
576.66	1853.41
576.86	1845.22
577.05	1703.91
577.25	1738.73
577.44	1845.22
577.64	1636.33
577.83	1822.69
578.02	1777.64
578.22	1894.37
578.41	1810.40
578.61	1763.30
578.80	1714.15
579.00	1796.07
579.19	1718.25
579.39	1701.86
579.58	1810.40
579.77	1812.45
579.97	1808.36
580.16	1867.75
580.36	1816.55
580.55	1863.65
580.75	1839.08
580.94	1755.11
581.13	1865.70
581.33	1773.54
581.52	1669.09
581.72	1904.61
581.91	1812.45
582.11	1740.77
582.30	1822.69
582.49	1771.49
582.69	1865.70
582.88	1818.60
583.08	1765.35
583.27	1832.93
583.47	1789.92
583.66	1730.53
583.85	1697.77
584.05	1726.44
584.24	1781.73
584.44	1865.70
584.63	1753.06
584.82	1834.98
585.02	1832.93
585.21	1841.12
585.41	1818.60
585.60	1826.79
585.79	1957.86
585.99	1880.04
586.18	1828.84
586.37	2148.32
586.57	3354.57
586.76	9969.51
586.96	24221.33
587.15	34227.70
587.34	40230.30
587.54	41786.75
587.73	36468.18
587.93	26279.54
588.12	21397.18
588.31	18401.00
588.51	16285.45
588.70	15187.74
588.89	13950.76
589.09	12511.04
589.28	10897.24
589.47	9410.42
589.67	8089.48
589.86	6434.72
590.06	4921.27
590.25	3803.08
590.44	3090.38
590.64	2582.49
590.83	2299.87
591.02	2066.40
591.22	1974.24
591.41	1898.47
591.60	1867.75
591.80	1923.04
591.99	1783.78
592.18	1732.58
592.38	1849.32
592.57	1775.59
592.76	1785.83
592.96	1820.64
593.15	1736.68
593.34	1853.41
593.54	1755.11
593.73	1851.36
593.92	1873.89
594.12	1744.87
594.31	1710.05
594.50	1843.17
594.70	1771.49
594.89	1918.95
595.08	1693.67
595.28	1814.50
595.47	1912.80
595.66	1865.70
595.86	1791.97
596.05	1771.49
596.24	1708.01
596.43	1820.64
596.63	1837.03
596.82	1767.40
597.01	1755.11
597.21	1845.22
597.40	1783.78
597.59	1794.02
597.79	1705.96
597.98	1740.77
598.17	1789.92
598.36	1744.87
598.56	1849.32
598.75	1665.00
598.94	1740.77
599.14	1736.68
599.33	1718.25
599.52	1796.07
599.71	1789.92
599.91	1834.98
600.10	1781.73
600.29	1753.06
600.48	1777.64
600.68	1699.81
600.87	1822.69
601.06	1656.81
601.26	1787.88
601.45	1728.49
601.64	1732.58
601.83	1816.55
602.03	1728.49
602.22	1714.15
602.41	1794.02
602.60	1896.42
602.80	1826.79
602.99	1724.39
603.18	1722.34
603.37	1826.79
603.57	1716.20
603.76	1763.30
603.95	1810.40
604.14	1796.07
604.34	1742.82
604.53	1761.25
604.72	1787.88
604.91	1837.03
605.10	1785.83
605.30	1675.24
605.49	1816.55
605.68	1789.92
605.87	1779.68
606.07	1740.77
606.26	1759.21
606.45	1695.72
606.64	1695.72
606.84	1740.77
607.03	1755.11
607.22	1775.59
607.41	1701.86
607.60	1751.01
607.80	1759.21
607.99	1732.58
608.18	1773.54
608.37	1791.97
608.56	1613.80
608.76	1779.68
608.95	1771.49
609.14	1755.11
609.33	1857.51
609.52	1724.39
609.72	1800.16
609.91	1816.55
610.10	1705.96
610.29	1800.16
610.48	1759.21
610.68	1683.43
610.87	1691.62
611.06	1679.33
611.25	1738.73
611.44	1796.07
611.63	1726.44
611.83	1796.07
612.02	1658.85
612.21	1800.16
612.40	1675.24
612.59	1628.14
612.79	1744.87
612.98	1763.30
613.17	1730.53
613.36	1695.72
613.55	1894.37
613.74	1726.44
613.93	1744.87
614.13	1728.49
614.32	1781.73
614.51	1773.54
614.70	1753.06
614.89	1732.58
615.08	1734.63
615.28	2058.21
615.47	1718.25
615.66	1742.82
615.85	1748.97
616.04	1873.89
616.23	1789.92
616.42	1669.09
616.62	1767.40
616.81	1724.39
617.00	1667.05
617.19	1804.26
617.38	1712.10
617.57	1722.34
617.76	1746.92
617.95	1757.16
618.15	1794.02
618.34	1718.25
618.53	1673.19
618.72	1708.01
618.91	1839.08
619.10	1812.45
619.29	1730.53
619.48	1705.96
619.68	1656.81
619.87	1667.05
620.06	1615.85
620.25	1771.49
620.44	1705.96
620.63	1650.66
620.82	1808.36
621.01	1757.16
621.20	1687.53
621.39	1759.21
621.59	1701.86
621.78	1759.21
621.97	1800.16
622.16	1820.64
622.35	1716.20
622.54	1714.15
622.73	1808.36
622.92	1615.85
623.11	1773.54
623.30	1714.15
623.49	1814.50
623.68	1667.05
623.88	1806.31
624.07	1665.00
624.26	1722.34
624.45	1796.07
624.64	1826.79
624.83	1753.06
625.02	1724.39
625.21	1710.05
625.40	1687.53
625.59	1785.83
625.78	1761.25
625.97	1820.64
626.16	1753.06
626.35	1775.59
626.54	1761.25
626.74	1767.40
626.93	1632.23
627.12	1736.68
627.31	1765.35
627.50	1722.34
627.69	1730.53
627.88	1697.77
628.07	1734.63
628.26	1728.49
628.45	1669.09
628.64	1665.00
628.83	1753.06
629.02	1660.90
629.21	1787.88
629.40	1767.40
629.59	1669.09
629.78	1687.53
629.97	1673.19
630.16	1751.01
630.35	1673.19
630.54	1755.11
630.73	1726.44
630.92	1742.82
631.11	1683.43
631.30	1693.67
631.49	1755.11
631.68	1740.77
631.87	1720.29
632.06	1705.96
632.25	1806.31
632.44	1679.33
632.63	1712.10
632.82	1691.62
633.01	1652.71
633.20	1748.97
633.39	1662.95
633.58	1708.01
633.77	1796.07
633.96	1757.16
634.15	1753.06
634.34	1787.88
634.53	1746.92
634.72	1576.94
634.91	1685.48
635.10	1769.44
635.29	1746.92
635.48	1736.68
635.67	1742.82
635.86	1640.42
636.05	1816.55
636.24	1683.43
636.43	1861.60
636.62	1724.39
636.81	1589.22
637.00	1689.57
637.19	1794.02
637.38	1742.82
637.57	1796.07
637.76	1730.53
637.95	1673.19
638.14	1638.38
638.33	1714.15
638.52	1810.40
638.71	1591.27
638.89	1619.94
639.08	1898.47
639.27	1665.00
639.46	1695.72
639.65	1753.06
639.84	1746.92
640.03	1751.01
640.22	1767.40
640.41	1902.56
640.60	1685.48
640.79	1755.11
640.98	1742.82
641.17	1755.11
641.36	1736.68
641.55	1697.77
641.74	1673.19
641.92	1687.53
642.11	1681.38
642.30	1689.57
642.49	1642.47
642.68	1740.77
642.87	1701.86
643.06	1748.97
643.25	1746.92
643.44	1591.27
643.63	1687.53
643.82	1724.39
644.00	1697.77
644.19	1714.15
644.38	1718.25
644.57	1785.83
644.76	1751.01
644.95	1681.38
645.14	1716.20
645.33	1775.59
645.52	1673.19
645.71	1648.61
645.89	1542.12
646.08	1699.81
646.27	1708.01
646.46	1865.70
646.65	1619.94
646.84	1716.20
647.03	1669.09
647.22	1773.54
647.40	1716.20
647.59	1701.86
647.78	1638.38
647.97	1650.66
648.16	1681.38
648.35	1802.21
648.54	1763.30
648.73	1761.25
648.91	1779.68
649.10	1701.86
649.29	1701.86
649.48	1712.10
649.67	1748.97
649.86	1699.81
650.05	1681.38
650.23	1812.45
650.42	1605.61
650.61	1757.16
650.80	1787.88
650.99	1869.80
651.18	1708.01
651.36	1855.46
651.55	1630.18
651.74	1865.70
651.93	1730.53
652.12	1705.96
652.31	1726.44
652.49	1751.01
652.68	1703.91
652.87	1726.44
653.06	1734.63
653.25	1873.89
653.44	1673.19
653.62	1810.40
653.81	1812.45
654.00	1718.25
654.19	1744.87
654.38	1902.56
654.56	1710.05
654.75	1730.53
654.94	1746.92
655.13	1667.05
655.32	1728.49
655.51	1820.64
655.69	1740.77
655.88	1761.25
656.07	1638.38
656.26	1755.11
656.45	1667.05
656.63	1763.30
656.82	1693.67
657.01	1751.01
657.20	1667.05
657.38	1861.60
657.57	1755.11
657.76	1660.90
657.95	1740.77
658.14	1673.19
658.32	1748.97
658.51	1642.47
658.70	1748.97
658.89	1763.30
659.08	1738.73
659.26	1787.88
659.45	1636.33
659.64	1822.69
659.83	1726.44
660.01	1970.15
660.20	1740.77
660.39	1849.32
660.58	1665.00
660.76	1785.83
660.95	1624.04
661.14	1701.86
661.33	1665.00
661.51	1732.58
661.70	1697.77
661.89	1746.92
662.08	1716.20
662.26	1665.00
662.45	1687.53
662.64	1875.94
662.83	1820.64
663.01	1644.52
663.20	1730.53
663.39	1796.07
663.58	1634.28
663.76	1712.10
663.95	1738.73
664.14	1650.66
664.32	1710.05
664.51	1687.53
664.70	1669.09
664.89	1761.25
665.07	1615.85
665.26	1742.82
665.45	1648.61
665.64	1757.16
665.82	1705.96
666.01	1771.49
666.20	1689.57
666.38	1828.84
666.57	1849.32
666.76	2123.74
666.95	4573.11
667.13	10379.11
667.32	15339.29
667.51	18005.74
667.69	19216.09
667.88	17559.28
668.07	12545.86
668.25	9711.47
668.44	8120.20
668.63	7251.86
668.81	6918.04
669.00	6234.02
669.19	5785.51
669.38	5113.78
669.56	4560.83
669.75	4034.50
669.94	3426.25
670.12	2832.34
670.31	2709.46
670.50	2293.72
670.68	1976.29
670.87	1951.71
671.06	1796.07
671.24	1751.01
671.43	1839.08
671.62	1759.21
671.80	1701.86
671.99	1722.34
672.18	1691.62
672.36	1736.68
672.55	1742.82
672.74	1751.01
672.92	1701.86
673.11	1779.68
673.29	1613.80
673.48	1773.54
673.67	1777.64
673.85	1796.07
674.04	1691.62
674.23	1660.90
674.41	1861.60
674.60	1687.53
674.79	1671.14
674.97	1677.29
675.16	1781.73
675.34	1796.07
675.53	1693.67
675.72	1710.05
675.90	1804.26
676.09	1656.81
676.28	1791.97
676.46	1628.14
676.65	1783.78
676.83	1699.81
677.02	1740.77
677.21	1753.06
677.39	1746.92
677.58	1679.33
677.77	1724.39
677.95	1646.57
678.14	1673.19
678.32	1705.96
678.51	1718.25
678.70	1837.03
678.88	1755.11
679.07	1712.10
679.25	1748.97
679.44	1738.73
679.63	1720.29
679.81	1665.00
680.00	1726.44
680.18	1744.87
680.37	1816.55
680.55	1763.30
680.74	1628.14
680.93	1615.85
681.11	1728.49
681.30	1746.92
681.48	1775.59
681.67	1738.73
681.85	1771.49
682.04	1650.66
682.23	1751.01
682.41	1728.49
682.60	1730.53
682.78	1728.49
682.97	1660.90
683.15	1775.59
683.34	1726.44
683.53	1861.60
683.71	1601.51
683.90	1826.79
684.08	1787.88
684.27	1673.19
684.45	1703.91
684.64	1757.16
684.82	1751.01
685.01	1732.58
685.19	1742.82
685.38	1861.60
685.57	1724.39
685.75	1662.95
685.94	1708.01
686.12	1554.41
686.31	1669.09
686.49	1837.03
686.68	1652.71
686.86	1746.92
687.05	1732.58
687.23	1775.59
687.42	1710.05
687.60	1642.47
687.79	1812.45
687.97	1779.68
688.16	1791.97
688.34	1808.36
688.53	1656.81
688.71	1814.50
688.90	1703.91
689.08	1681.38
689.27	1642.47
689.45	1769.44
689.64	1734.63
689.82	1712.10
690.01	1742.82
690.19	1746.92
690.38	1685.48
690.56	1816.55
690.75	1644.52
690.93	1701.86
691.12	1671.14
691.30	1695.72
691.49	1648.61
691.67	1763.30
691.86	1834.98
692.04	1730.53
692.23	1652.71
692.41	1748.97
692.60	1806.31
692.78	1746.92
692.97	1701.86
693.15	1767.40
693.34	1912.80
693.52	1779.68
693.71	1742.82
693.89	1708.01
694.08	1644.52
694.26	1787.88
694.44	1775.59
694.63	1789.92
694.81	1703.91
695.00	1675.24
695.18	1767.40
695.37	1865.70
695.55	1699.81
695.74	1730.53
695.92	1687.53
696.10	1787.88
696.29	1634.28
696.47	1681.38
696.66	1603.56
696.84	1619.94
697.03	1699.81
697.21	1871.84
697.40	2301.92
697.58	1675.24
697.76	1718.25
697.95	1710.05
698.13	1656.81
698.32	1708.01
698.50	1714.15
698.68	1814.50
698.87	1767.40
699.05	1804.26
699.24	1675.24
699.42	1691.62
699.61	1701.86
699.79	1732.58
699.97	1734.63
700.16	1615.85
700.34	1628.14
700.53	1757.16
700.71	1794.02
700.89	1748.97
701.08	1751.01
701.26	1724.39
701.45	2152.42
701.63	1669.09
701.81	1718.25
702.00	1675.24
702.18	1697.77
702.37	1671.14
702.55	1740.77
702.73	1693.67
702.92	1583.08
703.10	1748.97
703.28	1718.25
703.47	1554.41
703.65	1738.73
703.84	1738.73
704.02	1699.81
704.20	1714.15
704.39	1654.76
704.57	1648.61
704.75	1738.73
704.94	1728.49
705.12	1841.12
705.30	1675.24
705.49	2283.49
705.67	4433.85
705.86	9373.55
706.04	12537.66
706.22	14567.20
706.41	15310.61
706.59	13903.66
706.77	9271.15
706.96	7348.11
707.14	6563.74
707.32	5998.50
707.51	5543.85
707.69	4861.88
707.87	4155.33
708.06	3536.84
708.24	2928.60
708.42	2441.18
708.61	2236.38
708.79	1900.52
708.97	1837.03
709.16	1798.12
709.34	1724.39
709.52	1767.40
709.71	1800.16
709.89	1708.01
710.07	1742.82
710.26	1681.38
710.44	1626.09
710.62	1765.35
710.80	1781.73
710.99	1816.55
711.17	1763.30
711.35	1617.90
711.54	1761.25
711.72	1796.07
711.90	1708.01
712.09	1697.77
712.27	1681.38
712.45	1689.57
712.63	1665.00
712.82	1740.77
713.00	1693.67
713.18	1843.17
713.37	1748.97
713.55	1705.96
713.73	1697.77
713.91	1806.31
714.10	1726.44
714.28	1675.24
714.46	1701.86
714.65	1742.82
714.83	1755.11
715.01	1675.24
715.19	1685.48
715.38	1611.75
715.56	1693.67
715.74	1746.92
715.92	1683.43
716.11	1841.12
716.29	1630.18
716.47	1665.00
716.65	1703.91
716.84	1630.18
717.02	1742.82
717.20	1638.38
717.38	1652.71
717.57	1718.25
717.75	1730.53
717.93	1746.92
718.11	1738.73
718.30	1681.38
718.48	1783.78
718.66	1771.49
718.84	1812.45
719.03	1732.58
719.21	1689.57
719.39	1826.79
719.57	1824.74
719.75	1865.70
719.94	1648.61
720.12	1722.34
720.30	1699.81
720.48	1822.69
720.67	1660.90
720.85	1626.09
721.03	1771.49
721.21	1683.43
721.39	1765.35
721.58	1732.58
721.76	1742.82
721.94	1746.92
722.12	1753.06
722.30	1775.59
722.49	1716.20
722.67	1716.20
722.85	1681.38
723.03	1597.42
723.21	1619.94
723.40	1671.14
723.58	1814.50
723.76	1759.21
723.94	1718.25
724.12	1705.96
724.30	1855.46
724.49	1832.93
724.67	1697.77
724.85	1718.25
725.03	1556.46
725.21	1845.22
725.40	1718.25
725.58	1615.85
725.76	1728.49
725.94	1730.53
726.12	1712.10
726.30	1701.86
726.49	1697.77
726.67	1695.72
726.85	1767.40
727.03	1808.36
727.21	2228.19
727.39	2881.49
727.57	3725.26
727.76	4173.76
727.94	4603.83
728.12	4384.70
728.30	3676.10
728.48	3008.47
728.66	2772.95
728.84	2529.24
729.03	2283.49
729.21	2162.66
729.39	2021.35
729.57	1822.69
729.75	1828.84
729.93	1828.84
730.11	1734.63
730.30	1744.87
730.48	1757.16
730.66	1820.64
730.84	1763.30
731.02	1675.24
731.20	1738.73
731.38	1701.86
731.56	1673.19
731.74	1679.33
731.93	1665.00
732.11	1710.05
732.29	1695.72
732.47	1763.30
732.65	1732.58
732.83	1767.40
733.01	1673.19
733.19	1746.92
733.37	1759.21
733.56	1759.21
733.74	1685.48
733.92	1853.41
734.10	1687.53
734.28	1730.53
734.46	1671.14
734.64	1710.05
734.82	1826.79
735.00	1701.86
735.18	1710.05
735.36	1695.72
735.54	1654.76
735.73	1722.34
735.91	1798.12
736.09	1718.25
736.27	1757.16
736.45	1773.54
736.63	1544.17
736.81	1685.48
736.99	1746.92
737.17	1839.08
737.35	1695.72
737.53	1753.06
737.71	1689.57
737.89	1804.26
738.07	1630.18
738.25	1691.62
738.43	1652.71
738.61	1765.35
738.80	1691.62
738.98	1753.06
739.16	1812.45
739.34	1689.57
739.52	1892.32
739.70	1654.76
739.88	1751.01
740.06	1765.35
740.24	1542.12
740.42	1765.35
740.60	1671.14
740.78	1650.66
740.96	1650.66
741.14	1685.48
741.32	1710.05
741.50	1638.38
741.68	1849.32
741.86	1773.54
742.04	1705.96
742.22	1652.71
742.40	1669.09
742.58	1742.82
742.76	1669.09
742.94	1761.25
743.12	1632.23
743.30	1722.34
743.48	1751.01
743.66	1681.38
743.84	1722.34
744.02	1607.66
744.20	1685.48
744.38	1646.57
744.56	1624.04
744.74	1808.36
744.92	1843.17
745.10	1751.01
745.28	1734.63
745.46	1849.32
745.64	1699.81
745.82	1771.49
746.00	1714.15
746.18	1751.01
746.36	1624.04
746.54	1716.20
746.72	1720.29
746.90	1689.57
747.08	1761.25
747.26	1720.29
747.44	1779.68
747.62	1728.49
747.80	1740.77
747.98	1732.58
748.15	1708.01
748.33	1761.25
748.51	1742.82
748.69	1746.92
748.87	1665.00
749.05	1642.47
749.23	1791.97
749.41	1806.31
749.59	1671.14
749.77	1771.49
749.95	1753.06
750.13	1742.82
750.31	1738.73
750.49	1751.01
750.67	1746.92
750.85	1867.75
751.03	1730.53
751.20	1822.69
751.38	1648.61
751.56	1695.72
751.74	1669.09
751.92	1634.28
752.10	1599.46
752.28	1726.44
752.46	1673.19
752.64	1626.09
752.82	1748.97
753.00	1853.41
753.18	1640.42
753.35	1677.29
753.53	1699.81
753.71	1724.39
753.89	1763.30
754.07	1716.20
754.25	1703.91
754.43	1740.77
754.61	1634.28
754.79	1708.01
754.97	1744.87
755.14	1791.97
755.32	1683.43
755.50	1746.92
755.68	1722.34
755.86	1656.81
756.04	1656.81
756.22	1691.62
756.40	1777.64
756.57	1816.55
756.75	1669.09
756.93	1763.30
757.11	1824.74
757.29	1654.76
757.47	1710.05
757.65	1611.75
757.82	1615.85
758.00	1712.10
758.18	1744.87
758.36	1636.33
758.54	1775.59
758.72	1722.34
758.90	1738.73
759.07	1761.25
759.25	1667.05
759.43	1746.92
759.61	1652.71
759.79	2105.31
759.97	1751.01
760.15	1695.72
760.32	1665.00
760.50	1708.01
760.68	1859.56
760.86	1656.81
761.04	1755.11
761.22	1761.25
761.39	1685.48
761.57	1751.01
761.75	1730.53
761.93	1617.90
762.11	1683.43
762.28	1665.00
762.46	1701.86
762.64	1826.79
762.82	1673.19
763.00	1683.43
763.18	1826.79
763.35	1679.33
763.53	1771.49
763.71	1714.15
763.89	1687.53
764.07	1837.03
764.24	1732.58
764.42	1732.58
764.60	1701.86
764.78	1738.73
764.96	1771.49
765.13	1722.34
765.31	1624.04
765.49	1712.10
765.67	1638.38
765.84	1691.62
766.02	1671.14
766.20	1677.29
766.38	1697.77
766.56	1769.44
766.73	1771.49
766.91	1669.09
767.09	1791.97
767.27	1773.54
767.44	1683.43
767.62	1785.83
767.80	1730.53
767.98	1687.53
768.15	1746.92
768.33	1746.92
768.51	1761.25
768.69	1710.05
768.87	1732.58
769.04	1699.81
769.22	1904.61
769.40	1734.63
769.58	1906.66
769.75	1708.01
769.93	1765.35
770.11	1667.05
770.28	1671.14
770.46	1734.63
770.64	1742.82
770.82	1720.29
770.99	1712.10
771.17	1671.14
771.35	1714.15
771.53	1724.39
771.70	1722.34
771.88	1732.58
772.06	1650.66
772.23	1734.63
772.41	1779.68
772.59	1667.05
772.77	1628.14
772.94	1673.19
773.12	1785.83
773.30	1722.34
773.47	1767.40
773.65	1630.18
773.83	1853.41
774.01	1796.07
774.18	1656.81
774.36	1683.43
774.54	1636.33
774.71	1767.40
774.89	1634.28
775.07	1736.68
775.24	1673.19
775.42	1652.71
775.60	1824.74
775.78	1626.09
775.95	1689.57
776.13	1667.05
776.31	1529.83
776.48	1681.38
776.66	1779.68
776.84	1601.51
777.01	1630.18
777.19	1687.53
777.37	1646.57
777.54	1783.78
777.72	1830.88
777.90	1755.11
778.07	1730.53
778.25	1867.75
778.43	1732.58
778.60	1652.71
778.78	1722.34
778.96	1767.40
779.13	1685.48
779.31	1763.30
779.49	1751.01
779.66	1753.06
779.84	1757.16
780.01	1650.66
780.19	1705.96
780.37	1767.40
780.54	1718.25
780.72	1636.33
780.90	1722.34
781.07	1708.01
781.25	1697.77
781.43	1773.54
781.60	1679.33
781.78	1769.44
781.95	1712.10
782.13	1714.15
782.31	1712.10
782.48	1603.56
782.66	1675.24
782.83	1781.73
783.01	1734.63
783.19	1779.68
783.36	1765.35
783.54	1705.96
783.72	1800.16
783.89	1624.04
784.07	1748.97
784.24	1859.56
784.42	1855.46
784.60	1781.73
784.77	1732.58
784.95	1656.81
785.12	1683.43
785.30	1742.82
785.47	1667.05
785.65	1732.58
785.83	1705.96
786.00	1718.25
786.18	1665.00
786.35	1677.29
786.53	1667.05
786.71	1763.30
786.88	1724.39
787.06	1662.95
787.23	1640.42
787.41	1628.14
787.58	1734.63
787.76	1730.53
787.94	1726.44
788.11	1779.68
788.29	1636.33
788.46	1679.33
788.64	1656.81
788.81	1665.00
788.99	1609.70
789.16	1632.23
789.34	1699.81
789.52	1695.72
789.69	1710.05
789.87	1595.37
790.04	1683.43
790.22	1734.63
790.39	1828.84
790.57	1759.21
790.74	1734.63
790.92	1730.53
791.09	1640.42
791.27	1763.30
791.44	1693.67
791.62	1699.81
791.79	1751.01
791.97	1673.19
792.15	1894.37
792.32	1748.97
792.50	1708.01
792.67	1736.68
792.85	1791.97
793.02	1714.15
793.20	1763.30
793.37	1648.61
793.55	1667.05
793.72	1660.90
793.90	1791.97
794.07	1714.15
794.25	1658.85
794.42	1722.34
794.60	1738.73
794.77	1710.05
794.95	1779.68
795.12	1714.15
795.30	1652.71
795.47	1638.38
795.65	1798.12
795.82	1726.44
796.00	1734.63
796.17	1679.33
796.34	1673.19
796.52	1705.96
796.69	1763.30
796.87	1769.44
797.04	1796.07
797.22	1736.68
797.39	1722.34
797.57	1759.21
797.74	1708.01
797.92	1683.43
798.09	1660.90
798.27	1802.21
798.44	1804.26
798.62	1720.29
798.79	1738.73
798.96	1773.54
799.14	1753.06
799.31	1812.45
799.49	1720.29
799.66	1685.48
799.84	1681.38
800.01	1644.52
800.19	1714.15
800.36	1667.05
800.53	1652.71
800.71	1685.48
800.88	1808.36
801.06	1626.09
801.23	1673.19
801.41	1689.57
801.58	1669.09
801.75	1691.62
801.93	1763.30
802.10	1738.73
802.28	1671.14
802.45	1566.70
802.63	1714.15
802.80	1779.68
802.97	1673.19
803.15	1710.05
803.32	1607.66
803.50	1677.29
803.67	1665.00
803.84	1650.66
804.02	1728.49
804.19	1714.15
804.37	1624.04
804.54	1621.99
804.71	1605.61
804.89	1673.19
805.06	1708.01
805.24	1617.90
805.41	1634.28
805.58	1652.71
805.76	1816.55
805.93	1726.44
806.10	1712.10
806.28	1718.25
806.45	1689.57
806.63	1736.68
806.80	1609.70
806.97	1722.34
807.15	1656.81
807.32	1662.95
807.49	1681.38
807.67	1662.95
807.84	1734.63
808.01	1703.91
808.19	1808.36
808.36	1828.84
808.54	1671.14
808.71	1730.53
808.88	1783.78
809.06	1744.87
809.23	1806.31
809.40	1710.05
809.58	1814.50
809.75	1687.53
809.92	1632.23
810.10	1806.31
810.27	1619.94
810.44	1685.48
810.62	1724.39
810.79	1742.82
810.96	1662.95
811.14	1681.38
811.31	1699.81
811.48	1787.88
811.66	1767.40
811.83	1830.88
812.00	1675.24
812.18	1755.11
812.35	1800.16
812.52	1730.53
812.69	1681.38
812.87	1718.25
813.04	1787.88
813.21	1742.82
813.39	1673.19
813.56	1648.61
813.73	1771.49
813.91	1644.52
814.08	1779.68
814.25	1712.10
814.42	1665.00
814.60	1689.57
814.77	1742.82
814.94	1691.62
815.12	1775.59
815.29	1888.23
815.46	1669.09
815.63	1730.53
815.81	1691.62
815.98	1734.63
816.15	1701.86
816.33	1765.35
816.50	1644.52
816.67	1751.01
816.84	1667.05
817.02	1683.43
817.19	1742.82
817.36	1783.78
817.53	1800.16
817.71	1621.99
817.88	1779.68
818.05	1703.91
818.22	1640.42
818.40	1802.21
818.57	1732.58
818.74	1658.85
818.91	1781.73
819.09	1775.59
819.26	1767.40
819.43	1685.48
819.60	1556.46
819.78	1751.01
819.95	1730.53
820.12	1669.09
820.29	1775.59
820.47	1775.59
820.64	1634.28
820.81	1624.04
820.98	1718.25
821.15	1671.14
821.33	1773.54
821.50	1640.42
821.67	1726.44
821.84	1681.38
822.02	1757.16
822.19	1767.40
822.36	1701.86
822.53	1724.39
822.70	1585.13
822.88	1701.86
823.05	1845.22
823.22	1650.66
823.39	1789.92
823.56	1677.29
823.74	1828.84
823.91	1648.61
824.08	1705.96
824.25	1667.05
824.42	1796.07
824.60	1677.29
824.77	1734.63
824.94	1689.57
825.11	1775.59
825.28	1652.71
825.45	1701.86
825.63	1638.38
825.80	1626.09
825.97	1730.53
826.14	1710.05
826.31	1648.61
826.48	1767.40
826.66	1695.72
826.83	1699.81
827.00	1738.73
827.17	1660.90
827.34	1710.05
827.51	1675.24
827.69	1730.53
827.86	1693.67
828.03	1751.01
828.20	1660.90
828.37	1662.95
828.54	1746.92
828.71	1701.86
828.89	1841.12
829.06	1621.99
829.23	1687.53
829.40	1679.33
829.57	1724.39
829.74	1769.44
829.91	1703.91
830.09	1656.81
830.26	1744.87
830.43	1740.77
830.60	1689.57
830.77	1751.01
830.94	1857.51
831.11	1773.54
831.28	1722.34
831.46	1714.15
831.63	1703.91
831.80	1761.25
831.97	1701.86
832.14	1720.29
832.31	1808.36
832.48	1697.77
832.65	1726.44
832.82	1720.29
832.99	1742.82
833.17	1652.71
833.34	1755.11
833.51	1769.44
833.68	1621.99
833.85	1771.49
834.02	1712.10
834.19	1720.29
834.36	1699.81
834.53	1677.29
834.70	1785.83
834.87	1718.25
835.04	1671.14
835.22	1746.92
835.39	1730.53
835.56	1603.56
835.73	1679.33
835.90	1732.58
836.07	1648.61
836.24	1771.49
836.41	1710.05
836.58	1626.09
836.75	1695.72
836.92	1744.87
837.09	1724.39
837.26	1791.97
837.43	1654.76
837.60	1730.53
837.77	1714.15
837.94	1724.39
838.12	1802.21
838.29	1761.25
838.46	1593.32
838.63	1613.80
838.80	1753.06
838.97	1781.73
839.14	1724.39
839.31	1748.97
839.48	1748.97
839.65	1660.90
839.82	1775.59
839.99	1718.25
840.16	1699.81
840.33	1681.38
840.50	1775.59
840.67	1632.23
840.84	1617.90
841.01	1726.44
841.18	1681.38
841.35	1728.49
841.52	1724.39
841.69	1767.40
841.86	1701.86
842.03	1710.05
842.20	1746.92
842.37	1648.61
842.54	1685.48
842.71	1687.53
842.88	1640.42
843.05	1677.29
843.22	1693.67
843.39	1667.05
843.56	1654.76
843.73	1791.97
843.90	1693.67
844.07	1695.72
844.24	1775.59
844.41	1740.77
844.58	1671.14
844.75	1679.33
844.92	1710.05
845.09	1611.75
845.26	1761.25
845.43	1697.77
845.60	1679.33
845.77	1781.73
845.94	1695.72
846.10	1847.27
846.27	1669.09
846.44	1599.46
846.61	1652.71
846.78	1695.72
846.95	1738.73
847.12	1648.61
847.29	1636.33
847.46	1714.15
847.63	1740.77
847.80	1624.04
847.97	1685.48
848.14	1796.07
848.31	1755.11
848.48	1693.67
848.65	1761.25
848.82	1695.72
848.98	1812.45
849.15	1703.91
849.32	1791.97
849.49	1769.44
849.66	1716.20
849.83	1730.53
850.00	1652.71
850.17	1724.39
850.34	1701.86
850.51	1669.09
850.68	1710.05
850.85	1847.27
851.01	1748.97
851.18	1730.53
851.35	1693.67
851.52	1769.44
851.69	1744.87
851.86	1595.37
852.03	1716.20
852.20	1738.73
852.37	1693.67
852.53	1677.29
852.70	1716.20
852.87	1761.25
853.04	1757.16
853.21	1732.58
853.38	1791.97
853.55	1847.27
853.72	1804.26
853.89	1589.22
854.05	1697.77
854.22	1628.14
854.39	1640.42
854.56	1720.29
854.73	1705.96
854.90	1703.91
855.07	1679.33
855.23	1726.44
855.40	1673.19
855.57	1783.78
855.74	1581.03
855.91	1796.07
856.08	1632.23
856.25	1531.88
856.41	1644.52
856.58	1683.43
856.75	1730.53
856.92	1574.89
857.09	1759.21
857.26	1658.85
857.42	1732.58
857.59	1683.43
857.76	1734.63
857.93	1751.01
858.10	1697.77
858.27	1589.22
858.43	1740.77
858.60	1716.20
858.77	1648.61
858.94	1677.29
859.11	1748.97
859.27	1734.63
859.44	1681.38
859.61	1728.49
859.78	1732.58
859.95	1697.77
860.12	1636.33
860.28	1816.55
860.45	1820.64
860.62	1671.14
860.79	1722.34
860.95	1712.10
861.12	1716.20
861.29	1736.68
861.46	1714.15
861.63	1683.43
861.79	1691.62
861.96	1687.53
862.13	1679.33
862.30	1800.16
862.47	1683.43
862.63	1716.20
862.80	1818.60
862.97	1779.68
863.14	1742.82
863.30	1742.82
863.47	1703.91
863.64	1804.26
863.81	1746.92
863.97	1699.81
864.14	1746.92
864.31	1660.90
864.48	1812.45
864.65	1658.85
864.81	1773.54
864.98	1720.29
865.15	1820.64
865.32	1740.77
865.48	1722.34
865.65	1775.59
865.82	1683.43
865.98	1746.92
866.15	1753.06
866.32	1767.40
866.49	1665.00
866.65	1781.73
866.82	1656.81
866.99	1693.67
867.16	1671.14
867.32	1691.62
867.49	1650.66
867.66	1660.90
867.83	1607.66
867.99	1597.42
868.16	1679.33
868.33	1597.42
868.49	1738.73
868.66	1724.39
868.83	1771.49
868.99	1751.01
869.16	1675.24
869.33	1824.74
869.50	1748.97
869.66	1796.07
869.83	1734.63
870.00	1667.05
870.16	1761.25
870.33	1671.14
870.50	1763.30
870.66	1681.38
870.83	1871.84
871.00	1714.15
871.17	1732.58
871.33	1734.63
871.50	1662.95
871.67	1681.38
871.83	1615.85
872.00	1861.60
872.17	1679.33
872.33	1791.97
872.50	1751.01
872.67	1714.15
872.83	1660.90
873.00	1718.25
873.17	1697.77
873.33	1753.06
873.50	1744.87
873.67	1687.53
873.83	1650.66
874.00	1671.14
874.16	1714.15
874.33	1708.01
874.50	1658.85
874.66	1681.38
874.83	1710.05
875.00	1748.97
875.16	1773.54
875.33	1771.49
875.50	1574.89
875.66	1640.42
875.83	1726.44
875.99	1779.68
876.16	1710.05
876.33	1603.56
876.49	1708.01
876.66	1742.82
876.83	1689.57
876.99	1697.77
877.16	1628.14
877.32	1660.90
877.49	1648.61
877.66	1673.19
877.82	1820.64
877.99	1705.96
878.15	1708.01
878.32	1738.73
878.49	1644.52
878.65	1636.33
878.82	1796.07
878.98	1665.00
879.15	1712.10
879.32	1710.05
879.48	1693.67
879.65	1656.81
879.81	1718.25
879.98	1746.92
880.15	1714.15
880.31	1722.34
880.48	1632.23
880.64	1861.60
880.81	1716.20
880.97	1785.83
881.14	1808.36
881.31	1708.01
881.47	1791.97
881.64	1687.53
881.80	1611.75
881.97	1755.11
882.13	1798.12
882.30	1728.49
882.47	1677.29
882.63	1722.34
882.80	1708.01
882.96	1652.71
883.13	1697.77
883.29	1710.05
883.46	1722.34
883.62	1849.32
883.79	1742.82
883.95	1779.68
884.12	1701.86
884.29	1748.97
884.45	1703.91
884.62	1652.71
884.78	1691.62
884.95	1779.68
885.11	1619.94
885.28	1738.73
885.44	1726.44
885.61	1777.64
885.77	1828.84
885.94	1775.59
886.10	1656.81
886.27	1736.68
886.43	1812.45
886.60	1736.68
886.76	1693.67
886.93	1685.48
887.09	1746.92
887.26	1705.96
887.42	1693.67
887.59	1744.87
887.75	1853.41
887.92	1726.44
888.08	1746.92
888.25	1761.25
888.41	1671.14
888.58	1734.63
888.74	1642.47
888.91	1699.81
>>>>>End Processed Spectral Data<<<<<
