SpectraSuite Data File
++++++++++++++++++++++++++++++++++++
Date: Mon Jun 06 13:02:17 CEST 2016
User: root
Dark Spectrum Present: No
Reference Spectrum Present: No
Number of Sampled Component Spectra: 1
Spectrometers: USB4C02835
Integration Time (usec): 100000 (USB4C02835)
Spectra Averaged: 1 (USB4C02835)
Boxcar Smoothing: 0 (USB4C02835)
Correct for Electrical Dark: No (USB4C02835)
Strobe/Lamp Enabled: No (USB4C02835)
Correct for Detector Non-linearity: No (USB4C02835)
Correct for Stray Light: No (USB4C02835)
Number of Pixels in Processed Spectrum: 3648
>>>>>Begin Processed Spectral Data<<<<<
177.47	1542.12
177.69	1542.12
177.91	1542.12
178.13	1456.11
178.36	1435.63
178.58	1667.05
178.80	1726.44
179.02	1646.57
179.24	1665.00
179.46	1630.18
179.68	1701.86
179.90	1710.05
180.13	1671.14
180.35	1701.86
180.57	1703.91
180.79	1624.04
181.01	1636.33
181.23	1806.31
181.45	1789.92
181.67	1691.62
181.90	1710.05
182.12	1675.24
182.34	1619.94
182.56	1708.01
182.78	1767.40
183.00	1734.63
183.22	1710.05
183.44	1603.56
183.66	1834.98
183.89	1814.50
184.11	1755.11
184.33	1767.40
184.55	1722.34
184.77	1691.62
184.99	1738.73
185.21	1681.38
185.43	1853.41
185.65	1568.74
185.87	1783.78
186.10	1816.55
186.32	1787.88
186.54	1701.86
186.76	1775.59
186.98	1785.83
187.20	1763.30
187.42	1728.49
187.64	1691.62
187.86	1712.10
188.08	1681.38
188.30	1597.42
188.52	1710.05
188.75	1755.11
188.97	1785.83
189.19	1681.38
189.41	1751.01
189.63	1693.67
189.85	1648.61
190.07	1632.23
190.29	1785.83
190.51	1671.14
190.73	1621.99
190.95	1789.92
191.17	1769.44
191.39	1607.66
191.61	1638.38
191.84	1708.01
192.06	1714.15
192.28	1626.09
192.50	1853.41
192.72	1712.10
192.94	1757.16
193.16	1796.07
193.38	1740.77
193.60	1601.51
193.82	1656.81
194.04	1767.40
194.26	1751.01
194.48	1732.58
194.70	1646.57
194.92	1753.06
195.14	1775.59
195.36	1697.77
195.58	1703.91
195.80	1650.66
196.02	1693.67
196.24	1759.21
196.46	1705.96
196.69	1685.48
196.91	1847.27
197.13	1654.76
197.35	1660.90
197.57	1830.88
197.79	1619.94
198.01	1718.25
198.23	1710.05
198.45	1689.57
198.67	1667.05
198.89	1691.62
199.11	1630.18
199.33	1691.62
199.55	1613.80
199.77	1654.76
199.99	1710.05
200.21	1669.09
200.43	1687.53
200.65	1615.85
200.87	1626.09
201.09	1742.82
201.31	1685.48
201.53	1720.29
201.75	1712.10
201.97	1699.81
202.19	1714.15
202.41	1722.34
202.63	1861.60
202.85	1720.29
203.07	1681.38
203.29	1689.57
203.51	1665.00
203.73	1611.75
203.95	1888.23
204.17	1671.14
204.39	1736.68
204.61	1697.77
204.83	1759.21
205.05	1716.20
205.27	1761.25
205.49	1865.70
205.71	1673.19
205.93	1619.94
206.15	1640.42
206.37	1751.01
206.59	1710.05
206.81	1619.94
207.03	1636.33
207.25	1701.86
207.47	1746.92
207.69	1626.09
207.91	1771.49
208.13	1763.30
208.34	1658.85
208.56	1646.57
208.78	1703.91
209.00	1683.43
209.22	1724.39
209.44	1734.63
209.66	1697.77
209.88	1714.15
210.10	1628.14
210.32	1613.80
210.54	1779.68
210.76	1710.05
210.98	1757.16
211.20	1617.90
211.42	1763.30
211.64	1744.87
211.86	1748.97
212.08	1742.82
212.30	1740.77
212.52	1699.81
212.74	1775.59
212.96	1759.21
213.17	1740.77
213.39	1697.77
213.61	1783.78
213.83	1705.96
214.05	1673.19
214.27	1679.33
214.49	1693.67
214.71	1695.72
214.93	1740.77
215.15	1687.53
215.37	1693.67
215.59	1554.41
215.81	1763.30
216.03	1714.15
216.24	1724.39
216.46	1687.53
216.68	1726.44
216.90	1718.25
217.12	1791.97
217.34	1708.01
217.56	1730.53
217.78	1783.78
218.00	1777.64
218.22	1656.81
218.44	1746.92
218.66	1703.91
218.87	1746.92
219.09	1695.72
219.31	1619.94
219.53	1683.43
219.75	1630.18
219.97	1660.90
220.19	1671.14
220.41	1708.01
220.63	1798.12
220.85	1699.81
221.06	1675.24
221.28	1777.64
221.50	1753.06
221.72	1726.44
221.94	1675.24
222.16	1679.33
222.38	1720.29
222.60	1806.31
222.82	1722.34
223.03	1798.12
223.25	1642.47
223.47	1783.78
223.69	1744.87
223.91	1703.91
224.13	1695.72
224.35	1667.05
224.57	1685.48
224.78	1734.63
225.00	1667.05
225.22	1716.20
225.44	1667.05
225.66	1763.30
225.88	1628.14
226.10	1734.63
226.32	1763.30
226.53	1775.59
226.75	1626.09
226.97	1714.15
227.19	1730.53
227.41	1609.70
227.63	1667.05
227.85	1609.70
228.06	1689.57
228.28	1763.30
228.50	1771.49
228.72	1634.28
228.94	1689.57
229.16	1568.74
229.37	1685.48
229.59	1652.71
229.81	1877.99
230.03	1658.85
230.25	1638.38
230.47	1632.23
230.69	1675.24
230.90	1798.12
231.12	1691.62
231.34	1685.48
231.56	1748.97
231.78	1771.49
232.00	1728.49
232.21	1681.38
232.43	1634.28
232.65	1626.09
232.87	1773.54
233.09	1630.18
233.30	1640.42
233.52	1730.53
233.74	1656.81
233.96	1681.38
234.18	1679.33
234.40	1730.53
234.61	1832.93
234.83	1617.90
235.05	1634.28
235.27	1759.21
235.49	1785.83
235.70	1755.11
235.92	1738.73
236.14	1652.71
236.36	1820.64
236.58	1630.18
236.79	1755.11
237.01	1718.25
237.23	1679.33
237.45	1839.08
237.67	1605.61
237.88	1695.72
238.10	1830.88
238.32	1660.90
238.54	1683.43
238.76	1681.38
238.97	1689.57
239.19	1644.52
239.41	1767.40
239.63	1712.10
239.85	1619.94
240.06	1658.85
240.28	1767.40
240.50	1730.53
240.72	1744.87
240.93	1677.29
241.15	1740.77
241.37	1669.09
241.59	1816.55
241.81	1689.57
242.02	1677.29
242.24	1691.62
242.46	1673.19
242.68	1675.24
242.89	1714.15
243.11	1855.46
243.33	1683.43
243.55	1730.53
243.76	1718.25
243.98	1671.14
244.20	1740.77
244.42	1714.15
244.64	1718.25
244.85	1642.47
245.07	1673.19
245.29	1691.62
245.51	1626.09
245.72	1787.88
245.94	1824.74
246.16	1677.29
246.38	1806.31
246.59	1601.51
246.81	1662.95
247.03	1701.86
247.24	1613.80
247.46	1683.43
247.68	1703.91
247.90	1699.81
248.11	1621.99
248.33	1769.44
248.55	1689.57
248.77	1658.85
248.98	1808.36
249.20	1757.16
249.42	1660.90
249.64	1708.01
249.85	1652.71
250.07	1722.34
250.29	1753.06
250.50	1722.34
250.72	1611.75
250.94	1753.06
251.16	1804.26
251.37	1751.01
251.59	1765.35
251.81	1738.73
252.02	1753.06
252.24	1677.29
252.46	1755.11
252.68	1595.37
252.89	1660.90
253.11	1650.66
253.33	1830.88
253.54	1779.68
253.76	1640.42
253.98	1697.77
254.20	1703.91
254.41	1646.57
254.63	1699.81
254.85	1634.28
255.06	1703.91
255.28	1732.58
255.50	1722.34
255.71	1638.38
255.93	1576.94
256.15	1685.48
256.36	1677.29
256.58	1650.66
256.80	1771.49
257.02	1685.48
257.23	1667.05
257.45	1638.38
257.67	1828.84
257.88	1685.48
258.10	1705.96
258.32	1673.19
258.53	1728.49
258.75	1806.31
258.97	1632.23
259.18	1681.38
259.40	1710.05
259.62	1794.02
259.83	1814.50
260.05	1677.29
260.27	1949.67
260.48	1781.73
260.70	1632.23
260.92	1724.39
261.13	1746.92
261.35	1693.67
261.57	1662.95
261.78	1673.19
262.00	1667.05
262.22	1708.01
262.43	1662.95
262.65	1726.44
262.86	1742.82
263.08	1765.35
263.30	1638.38
263.51	1681.38
263.73	1642.47
263.95	1763.30
264.16	1673.19
264.38	1673.19
264.60	1761.25
264.81	1611.75
265.03	1798.12
265.25	1693.67
265.46	1714.15
265.68	1716.20
265.89	1806.31
266.11	1689.57
266.33	1779.68
266.54	1775.59
266.76	1722.34
266.98	1652.71
267.19	1796.07
267.41	1740.77
267.62	1685.48
267.84	1615.85
268.06	1701.86
268.27	1714.15
268.49	1785.83
268.70	1759.21
268.92	1728.49
269.14	1689.57
269.35	1646.57
269.57	1761.25
269.79	1771.49
270.00	1710.05
270.22	1740.77
270.43	1693.67
270.65	1624.04
270.87	1640.42
271.08	1687.53
271.30	1644.52
271.51	1693.67
271.73	1722.34
271.95	1804.26
272.16	1734.63
272.38	1746.92
272.59	1587.18
272.81	1769.44
273.02	1722.34
273.24	1681.38
273.46	1744.87
273.67	1644.52
273.89	1722.34
274.10	1660.90
274.32	1740.77
274.54	1775.59
274.75	1791.97
274.97	1703.91
275.18	1730.53
275.40	1669.09
275.61	1658.85
275.83	1748.97
276.05	1613.80
276.26	1685.48
276.48	1730.53
276.69	1644.52
276.91	1710.05
277.12	1701.86
277.34	1679.33
277.55	1783.78
277.77	1716.20
277.99	1730.53
278.20	1634.28
278.42	1640.42
278.63	1656.81
278.85	1734.63
279.06	1617.90
279.28	1746.92
279.49	1767.40
279.71	1701.86
279.93	1640.42
280.14	1695.72
280.36	1660.90
280.57	1804.26
280.79	1728.49
281.00	1665.00
281.22	1677.29
281.43	1746.92
281.65	1624.04
281.86	1619.94
282.08	1609.70
282.29	1916.90
282.51	1662.95
282.73	1679.33
282.94	1564.65
283.16	1720.29
283.37	1834.98
283.59	1648.61
283.80	1724.39
284.02	1705.96
284.23	1816.55
284.45	1703.91
284.66	1654.76
284.88	1665.00
285.09	1722.34
285.31	1777.64
285.52	1671.14
285.74	1556.46
285.95	1769.44
286.17	1751.01
286.38	1693.67
286.60	1652.71
286.81	1665.00
287.03	1771.49
287.24	1648.61
287.46	1736.68
287.67	1665.00
287.89	1777.64
288.10	1662.95
288.32	1724.39
288.53	1806.31
288.75	1710.05
288.96	1691.62
289.18	1673.19
289.39	1630.18
289.61	1777.64
289.82	1779.68
290.04	1748.97
290.25	1677.29
290.47	1734.63
290.68	1615.85
290.90	1771.49
291.11	1619.94
291.33	1714.15
291.54	1578.98
291.76	1675.24
291.97	1693.67
292.18	1761.25
292.40	1671.14
292.61	1619.94
292.83	1841.12
293.04	1820.64
293.26	1769.44
293.47	1673.19
293.69	1687.53
293.90	1685.48
294.12	1712.10
294.33	1640.42
294.55	1685.48
294.76	1742.82
294.97	1839.08
295.19	1855.46
295.40	1669.09
295.62	1714.15
295.83	1667.05
296.05	1689.57
296.26	1763.30
296.48	1615.85
296.69	1710.05
296.90	1689.57
297.12	1744.87
297.33	1771.49
297.55	1730.53
297.76	1689.57
297.98	1744.87
298.19	1740.77
298.41	1734.63
298.62	1677.29
298.83	1742.82
299.05	1697.77
299.26	1654.76
299.48	1720.29
299.69	1730.53
299.90	1705.96
300.12	1525.74
300.33	1751.01
300.55	1681.38
300.76	1722.34
300.98	1697.77
301.19	1697.77
301.40	1675.24
301.62	1687.53
301.83	1775.59
302.05	1736.68
302.26	1744.87
302.47	1687.53
302.69	1683.43
302.90	1646.57
303.12	1601.51
303.33	1771.49
303.54	1806.31
303.76	1665.00
303.97	1652.71
304.19	1783.78
304.40	1611.75
304.61	1763.30
304.83	1847.27
305.04	1710.05
305.26	1710.05
305.47	1660.90
305.68	1628.14
305.90	1624.04
306.11	1720.29
306.33	1728.49
306.54	1716.20
306.75	1691.62
306.97	1595.37
307.18	1646.57
307.39	1648.61
307.61	1763.30
307.82	1718.25
308.04	1730.53
308.25	1574.89
308.46	1656.81
308.68	1724.39
308.89	1734.63
309.10	1705.96
309.32	1681.38
309.53	1695.72
309.74	1689.57
309.96	1650.66
310.17	1755.11
310.39	1675.24
310.60	1720.29
310.81	1646.57
311.03	1554.41
311.24	1679.33
311.45	1673.19
311.67	1808.36
311.88	1783.78
312.09	1746.92
312.31	1638.38
312.52	1720.29
312.73	1716.20
312.95	1560.55
313.16	1691.62
313.37	1779.68
313.59	1724.39
313.80	1779.68
314.01	1779.68
314.23	1695.72
314.44	1634.28
314.65	1587.18
314.87	1746.92
315.08	1767.40
315.29	1726.44
315.51	1679.33
315.72	1648.61
315.93	1826.79
316.15	1755.11
316.36	1695.72
316.57	1671.14
316.79	1665.00
317.00	1720.29
317.21	1732.58
317.43	1705.96
317.64	1701.86
317.85	1673.19
318.07	1679.33
318.28	1705.96
318.49	1771.49
318.70	1923.04
318.92	1808.36
319.13	1834.98
319.34	1857.51
319.56	1771.49
319.77	1789.92
319.98	1746.92
320.20	1845.22
320.41	1730.53
320.62	1753.06
320.83	1681.38
321.05	1910.75
321.26	1642.47
321.47	1697.77
321.69	1832.93
321.90	1619.94
322.11	1628.14
322.32	1718.25
322.54	1753.06
322.75	1691.62
322.96	1906.66
323.18	1665.00
323.39	1576.94
323.60	1578.98
323.81	1802.21
324.03	1669.09
324.24	1763.30
324.45	1669.09
324.66	1617.90
324.88	1738.73
325.09	1837.03
325.30	1746.92
325.52	1728.49
325.73	1728.49
325.94	1617.90
326.15	1572.84
326.37	1705.96
326.58	1753.06
326.79	1761.25
327.00	1607.66
327.22	1693.67
327.43	1742.82
327.64	1658.85
327.85	1724.39
328.07	1699.81
328.28	1791.97
328.49	1656.81
328.70	1689.57
328.92	1669.09
329.13	1714.15
329.34	1634.28
329.55	1744.87
329.76	1748.97
329.98	1722.34
330.19	1865.70
330.40	1730.53
330.61	1683.43
330.83	1724.39
331.04	1751.01
331.25	1701.86
331.46	1640.42
331.68	1658.85
331.89	1736.68
332.10	1681.38
332.31	1703.91
332.52	1673.19
332.74	1751.01
332.95	1630.18
333.16	1714.15
333.37	1859.56
333.58	1724.39
333.80	1716.20
334.01	1544.17
334.22	1701.86
334.43	1671.14
334.64	1675.24
334.86	1675.24
335.07	1654.76
335.28	1759.21
335.49	1667.05
335.70	1705.96
335.92	1771.49
336.13	1859.56
336.34	1759.21
336.55	1779.68
336.76	1716.20
336.98	1597.42
337.19	1718.25
337.40	1877.99
337.61	1814.50
337.82	1679.33
338.04	1820.64
338.25	1615.85
338.46	1699.81
338.67	1748.97
338.88	1638.38
339.09	1773.54
339.31	1628.14
339.52	1685.48
339.73	1613.80
339.94	1675.24
340.15	1722.34
340.36	1652.71
340.58	1683.43
340.79	1738.73
341.00	1644.52
341.21	1697.77
341.42	1798.12
341.63	1701.86
341.85	1728.49
342.06	1695.72
342.27	1632.23
342.48	1722.34
342.69	1656.81
342.90	1665.00
343.12	1687.53
343.33	1669.09
343.54	1775.59
343.75	1761.25
343.96	1724.39
344.17	1658.85
344.38	1642.47
344.60	1703.91
344.81	1673.19
345.02	1701.86
345.23	1822.69
345.44	1787.88
345.65	1767.40
345.86	1632.23
346.07	1699.81
346.29	1650.66
346.50	1722.34
346.71	1714.15
346.92	1716.20
347.13	1787.88
347.34	1714.15
347.55	1730.53
347.76	1718.25
347.98	1601.51
348.19	1648.61
348.40	1800.16
348.61	1617.90
348.82	1794.02
349.03	1695.72
349.24	1736.68
349.45	1742.82
349.66	1585.13
349.88	1683.43
350.09	1603.56
350.30	1705.96
350.51	1781.73
350.72	1693.67
350.93	1695.72
351.14	1654.76
351.35	1728.49
351.56	1636.33
351.77	1699.81
351.99	1738.73
352.20	1837.03
352.41	1791.97
352.62	1570.79
352.83	1652.71
353.04	1740.77
353.25	1638.38
353.46	1767.40
353.67	1716.20
353.88	1597.42
354.09	1656.81
354.30	1720.29
354.52	1787.88
354.73	1755.11
354.94	1603.56
355.15	1710.05
355.36	1808.36
355.57	1720.29
355.78	1703.91
355.99	1660.90
356.20	1640.42
356.41	1695.72
356.62	1679.33
356.83	1683.43
357.04	1748.97
357.25	1607.66
357.46	1671.14
357.68	1667.05
357.89	1662.95
358.10	1652.71
358.31	1730.53
358.52	1738.73
358.73	1677.29
358.94	1601.51
359.15	1716.20
359.36	1742.82
359.57	1689.57
359.78	1681.38
359.99	1738.73
360.20	1648.61
360.41	1714.15
360.62	1730.53
360.83	1662.95
361.04	1697.77
361.25	1705.96
361.46	1755.11
361.67	1763.30
361.88	1697.77
362.09	1757.16
362.30	1757.16
362.51	1689.57
362.72	1722.34
362.93	1681.38
363.14	1759.21
363.35	1693.67
363.56	1642.47
363.78	1701.86
363.99	1767.40
364.20	1607.66
364.41	1701.86
364.62	1794.02
364.83	1687.53
365.04	1742.82
365.25	1705.96
365.46	1794.02
365.67	1648.61
365.88	1683.43
366.09	1640.42
366.30	1665.00
366.51	1761.25
366.72	1603.56
366.93	1718.25
367.14	1726.44
367.35	1744.87
367.56	1638.38
367.77	1863.65
367.98	1644.52
368.18	1783.78
368.39	1716.20
368.60	1658.85
368.81	1751.01
369.02	1746.92
369.23	1716.20
369.44	1601.51
369.65	1689.57
369.86	1755.11
370.07	1755.11
370.28	1640.42
370.49	1812.45
370.70	1636.33
370.91	1660.90
371.12	1667.05
371.33	1708.01
371.54	1716.20
371.75	1845.22
371.96	1538.02
372.17	1714.15
372.38	1765.35
372.59	1681.38
372.80	1552.36
373.01	1681.38
373.22	1738.73
373.43	1646.57
373.64	1675.24
373.85	1712.10
374.06	1857.51
374.26	1744.87
374.47	1767.40
374.68	1710.05
374.89	1742.82
375.10	1763.30
375.31	1820.64
375.52	1667.05
375.73	1726.44
375.94	1693.67
376.15	1816.55
376.36	1675.24
376.57	1699.81
376.78	1593.32
376.99	1728.49
377.20	1777.64
377.40	1691.62
377.61	1789.92
377.82	1681.38
378.03	1769.44
378.24	1667.05
378.45	1683.43
378.66	1708.01
378.87	1615.85
379.08	1656.81
379.29	1591.27
379.50	1822.69
379.71	1685.48
379.91	1800.16
380.12	1650.66
380.33	1742.82
380.54	1685.48
380.75	1798.12
380.96	1701.86
381.17	1781.73
381.38	1644.52
381.59	1726.44
381.80	1654.76
382.00	1861.60
382.21	1843.17
382.42	1906.66
382.63	1783.78
382.84	1771.49
383.05	1742.82
383.26	1804.26
383.47	1726.44
383.68	1763.30
383.88	1712.10
384.09	1679.33
384.30	1767.40
384.51	1703.91
384.72	1628.14
384.93	1675.24
385.14	1732.58
385.35	1802.21
385.55	1630.18
385.76	1861.60
385.97	1660.90
386.18	1640.42
386.39	1665.00
386.60	1724.39
386.81	1685.48
387.02	1695.72
387.22	1642.47
387.43	1761.25
387.64	1759.21
387.85	1861.60
388.06	2168.80
388.27	4341.69
388.48	6815.64
388.68	8200.07
388.89	9627.50
389.10	9779.05
389.31	8660.86
389.52	7667.60
389.73	6786.97
389.93	6277.02
390.14	5855.14
390.35	5287.86
390.56	4593.59
390.77	3903.43
390.98	3004.37
391.18	2402.27
391.39	2152.42
391.60	1699.81
391.81	1796.07
392.02	1714.15
392.23	1841.12
392.43	1761.25
392.64	1771.49
392.85	1634.28
393.06	1853.41
393.27	1665.00
393.47	1695.72
393.68	1773.54
393.89	1687.53
394.10	1726.44
394.31	1701.86
394.52	1662.95
394.72	1687.53
394.93	1800.16
395.14	1654.76
395.35	1730.53
395.56	1701.86
395.76	1734.63
395.97	1771.49
396.18	1875.94
396.39	1710.05
396.60	1968.10
396.80	1849.32
397.01	1882.08
397.22	1771.49
397.43	1845.22
397.64	1810.40
397.84	1877.99
398.05	1820.64
398.26	1675.24
398.47	1724.39
398.67	1742.82
398.88	1691.62
399.09	1783.78
399.30	1828.84
399.51	1783.78
399.71	1634.28
399.92	1697.77
400.13	1695.72
400.34	1699.81
400.54	1673.19
400.75	1800.16
400.96	1726.44
401.17	1826.79
401.37	1738.73
401.58	1677.29
401.79	1726.44
402.00	1781.73
402.21	1927.14
402.41	1908.71
402.62	1970.15
402.83	2084.83
403.04	1996.77
403.24	2041.82
403.45	1820.64
403.66	1976.29
403.87	1871.84
404.07	1892.32
404.28	1929.19
404.49	1837.03
404.70	1748.97
404.90	1757.16
405.11	1734.63
405.32	1798.12
405.52	1630.18
405.73	1650.66
405.94	1701.86
406.15	1710.05
406.35	1755.11
406.56	1693.67
406.77	1687.53
406.98	1757.16
407.18	1681.38
407.39	1877.99
407.60	1624.04
407.80	1726.44
408.01	1687.53
408.22	1714.15
408.43	1732.58
408.63	1691.62
408.84	1699.81
409.05	1693.67
409.25	1642.47
409.46	1697.77
409.67	1703.91
409.88	1740.77
410.08	1679.33
410.29	1722.34
410.50	1740.77
410.70	1740.77
410.91	1609.70
411.12	1804.26
411.32	1703.91
411.53	1683.43
411.74	1857.51
411.95	1761.25
412.15	1751.01
412.36	1787.88
412.57	1730.53
412.77	1777.64
412.98	1757.16
413.19	1687.53
413.39	1810.40
413.60	1693.67
413.81	1849.32
414.01	1667.05
414.22	1746.92
414.43	1730.53
414.63	1671.14
414.84	1730.53
415.05	1796.07
415.25	1619.94
415.46	1802.21
415.67	1669.09
415.87	1722.34
416.08	1738.73
416.29	1703.91
416.49	1742.82
416.70	1697.77
416.91	1667.05
417.11	1628.14
417.32	1773.54
417.53	1744.87
417.73	1689.57
417.94	1697.77
418.15	1708.01
418.35	1781.73
418.56	1648.61
418.77	1818.60
418.97	1665.00
419.18	1708.01
419.38	1609.70
419.59	1708.01
419.80	1777.64
420.00	1660.90
420.21	1681.38
420.42	1716.20
420.62	1740.77
420.83	1642.47
421.04	1742.82
421.24	1699.81
421.45	1710.05
421.65	1744.87
421.86	1636.33
422.07	1705.96
422.27	1607.66
422.48	1697.77
422.69	1626.09
422.89	1658.85
423.10	1667.05
423.30	1554.41
423.51	1771.49
423.72	1757.16
423.92	1693.67
424.13	1662.95
424.33	1765.35
424.54	1732.58
424.75	1742.82
424.95	1824.74
425.16	1705.96
425.36	1624.04
425.57	1781.73
425.78	1714.15
425.98	1798.12
426.19	1701.86
426.39	1656.81
426.60	1705.96
426.81	1828.84
427.01	1738.73
427.22	1671.14
427.42	1613.80
427.63	1665.00
427.83	1751.01
428.04	1869.80
428.25	1775.59
428.45	1798.12
428.66	1730.53
428.86	1681.38
429.07	1695.72
429.28	1705.96
429.48	1681.38
429.69	1689.57
429.89	1665.00
430.10	1669.09
430.30	1695.72
430.51	1705.96
430.71	1683.43
430.92	1722.34
431.13	1714.15
431.33	1708.01
431.54	1710.05
431.74	1806.31
431.95	1918.95
432.15	1642.47
432.36	1679.33
432.56	1783.78
432.77	1771.49
432.98	1828.84
433.18	1681.38
433.39	1740.77
433.59	1714.15
433.80	1837.03
434.00	1845.22
434.21	1748.97
434.41	1705.96
434.62	1839.08
434.82	1628.14
435.03	1583.08
435.23	1665.00
435.44	1656.81
435.64	1675.24
435.85	1736.68
436.06	1769.44
436.26	1740.77
436.47	1708.01
436.67	1683.43
436.88	1740.77
437.08	1703.91
437.29	1822.69
437.49	1763.30
437.70	1814.50
437.90	1722.34
438.11	1843.17
438.31	1824.74
438.52	1777.64
438.72	1884.13
438.93	1902.56
439.13	1787.88
439.34	1869.80
439.54	1765.35
439.75	1746.92
439.95	1775.59
440.16	1691.62
440.36	1740.77
440.57	1773.54
440.77	1767.40
440.98	1728.49
441.18	1777.64
441.39	1634.28
441.59	1703.91
441.80	1820.64
442.00	1726.44
442.21	1779.68
442.41	1710.05
442.62	1726.44
442.82	1691.62
443.02	1751.01
443.23	1763.30
443.43	1714.15
443.64	1802.21
443.84	1665.00
444.05	1810.40
444.25	1716.20
444.46	1714.15
444.66	1748.97
444.87	1834.98
445.07	1607.66
445.28	1708.01
445.48	1906.66
445.69	1746.92
445.89	1849.32
446.09	1779.68
446.30	2015.20
446.50	2594.78
446.71	3755.97
446.91	4212.67
447.12	4779.96
447.32	4775.86
447.53	4247.49
447.73	3829.70
447.93	3465.16
448.14	3254.22
448.34	3200.98
448.55	2883.54
448.75	2803.67
448.96	2627.54
449.16	2363.36
449.36	2222.05
449.57	2045.92
449.77	1896.42
449.98	1738.73
450.18	1851.36
450.39	1773.54
450.59	1763.30
450.79	1802.21
451.00	1697.77
451.20	1853.41
451.41	1724.39
451.61	1703.91
451.81	1718.25
452.02	1751.01
452.22	1738.73
452.43	1609.70
452.63	1658.85
452.84	1728.49
453.04	1714.15
453.24	1800.16
453.45	1626.09
453.65	1693.67
453.86	1746.92
454.06	1757.16
454.26	1763.30
454.47	1611.75
454.67	1748.97
454.87	1712.10
455.08	1656.81
455.28	1843.17
455.49	1783.78
455.69	1779.68
455.89	1820.64
456.10	1828.84
456.30	1669.09
456.51	1765.35
456.71	1841.12
456.91	1769.44
457.12	1701.86
457.32	1730.53
457.52	1665.00
457.73	1779.68
457.93	1716.20
458.14	1734.63
458.34	1630.18
458.54	1742.82
458.75	1728.49
458.95	1724.39
459.15	1761.25
459.36	1662.95
459.56	1806.31
459.76	1791.97
459.97	1738.73
460.17	1769.44
460.37	1787.88
460.58	1710.05
460.78	1742.82
460.99	1644.52
461.19	1679.33
461.39	1703.91
461.60	1681.38
461.80	1826.79
462.00	1640.42
462.21	1679.33
462.41	1687.53
462.61	1638.38
462.82	1654.76
463.02	1781.73
463.22	1742.82
463.43	1841.12
463.63	1744.87
463.83	1785.83
464.04	1804.26
464.24	1708.01
464.44	1669.09
464.64	1753.06
464.85	1812.45
465.05	1787.88
465.25	1755.11
465.46	1656.81
465.66	1849.32
465.86	1740.77
466.07	1763.30
466.27	1710.05
466.47	1710.05
466.68	1683.43
466.88	1877.99
467.08	1843.17
467.29	1777.64
467.49	1796.07
467.69	1736.68
467.89	1724.39
468.10	1732.58
468.30	1757.16
468.50	1804.26
468.71	1751.01
468.91	1642.47
469.11	1837.03
469.31	1767.40
469.52	1705.96
469.72	1886.18
469.92	1796.07
470.13	1648.61
470.33	1761.25
470.53	1851.36
470.73	2090.98
470.94	2269.15
471.14	2285.53
471.34	2494.43
471.54	2435.03
471.75	2232.29
471.95	2133.98
472.15	2166.75
472.36	2103.26
472.56	2052.06
472.76	2037.73
472.96	1972.19
473.17	1929.19
473.37	1953.76
473.57	1865.70
473.77	1826.79
473.98	1724.39
474.18	1718.25
474.38	1755.11
474.58	1685.48
474.79	1675.24
474.99	1712.10
475.19	1730.53
475.39	1652.71
475.60	1669.09
475.80	1648.61
476.00	1728.49
476.20	1603.56
476.41	1759.21
476.61	1820.64
476.81	1800.16
477.01	1640.42
477.21	1875.94
477.42	1816.55
477.62	1662.95
477.82	1806.31
478.02	1650.66
478.23	1757.16
478.43	1744.87
478.63	1714.15
478.83	1712.10
479.03	1665.00
479.24	1796.07
479.44	1865.70
479.64	1722.34
479.84	1611.75
480.04	1626.09
480.25	1769.44
480.45	1761.25
480.65	1742.82
480.85	1824.74
481.06	1763.30
481.26	1691.62
481.46	1841.12
481.66	1787.88
481.86	1683.43
482.06	1771.49
482.27	1718.25
482.47	1712.10
482.67	1783.78
482.87	1746.92
483.07	1773.54
483.28	1716.20
483.48	1589.22
483.68	1683.43
483.88	1693.67
484.08	1642.47
484.29	1656.81
484.49	1656.81
484.69	1632.23
484.89	1855.46
485.09	1791.97
485.29	1818.60
485.50	1798.12
485.70	1685.48
485.90	1806.31
486.10	1703.91
486.30	1726.44
486.50	1736.68
486.71	1730.53
486.91	1734.63
487.11	1822.69
487.31	1644.52
487.51	1789.92
487.71	1611.75
487.91	1665.00
488.12	1710.05
488.32	1601.51
488.52	1669.09
488.72	1607.66
488.92	1730.53
489.12	1779.68
489.32	1742.82
489.53	1724.39
489.73	1601.51
489.93	1765.35
490.13	1652.71
490.33	1693.67
490.53	1685.48
490.73	1824.74
490.94	1642.47
491.14	1771.49
491.34	1841.12
491.54	2115.55
491.74	2494.43
491.94	2910.16
492.14	3043.28
492.34	2967.51
492.54	2740.18
492.75	2562.01
492.95	2416.60
493.15	2271.20
493.35	2381.79
493.55	2222.05
493.75	2189.28
493.95	2123.74
494.15	1978.34
494.35	1875.94
494.56	1798.12
494.76	1751.01
494.96	1886.18
495.16	1798.12
495.36	1693.67
495.56	1703.91
495.76	1701.86
495.96	1738.73
496.16	1695.72
496.36	1824.74
496.56	1710.05
496.77	1748.97
496.97	1751.01
497.17	1730.53
497.37	1650.66
497.57	1765.35
497.77	1798.12
497.97	1658.85
498.17	1746.92
498.37	1640.42
498.57	1783.78
498.77	1691.62
498.97	1757.16
499.17	1751.01
499.38	1705.96
499.58	1779.68
499.78	1781.73
499.98	1828.84
500.18	1722.34
500.38	1714.15
500.58	1890.28
500.78	2625.50
500.98	4622.27
501.18	5795.75
501.38	6791.06
501.58	7092.12
501.78	6746.01
501.98	5623.72
502.18	4943.80
502.38	4399.04
502.58	4089.79
502.78	3893.19
502.98	3555.27
503.18	3471.31
503.38	3131.34
503.59	2815.96
503.79	2637.78
503.99	2553.82
504.19	2254.81
504.39	2224.09
504.59	2197.47
504.79	2093.02
504.99	2084.83
505.19	1873.89
505.39	1841.12
505.59	1929.19
505.79	1925.09
505.99	1828.84
506.19	1806.31
506.39	1849.32
506.59	1834.98
506.79	1763.30
506.99	1875.94
507.19	1730.53
507.39	1722.34
507.59	1662.95
507.79	1751.01
507.99	1675.24
508.19	1777.64
508.39	1648.61
508.59	1720.29
508.79	1873.89
508.99	1851.36
509.19	1675.24
509.39	1814.50
509.59	1626.09
509.79	1724.39
509.99	1705.96
510.19	1806.31
510.39	1781.73
510.59	1765.35
510.79	1642.47
510.99	1660.90
511.19	1767.40
511.39	1785.83
511.59	1753.06
511.79	1789.92
511.99	1730.53
512.19	1757.16
512.38	1732.58
512.58	1691.62
512.78	1697.77
512.98	1796.07
513.18	1757.16
513.38	1740.77
513.58	1798.12
513.78	1640.42
513.98	1701.86
514.18	1660.90
514.38	1736.68
514.58	1787.88
514.78	1679.33
514.98	1748.97
515.18	1746.92
515.38	1660.90
515.58	1863.65
515.78	1722.34
515.98	1662.95
516.18	1746.92
516.38	1732.58
516.57	1697.77
516.77	1669.09
516.97	1722.34
517.17	1798.12
517.37	1607.66
517.57	1738.73
517.77	1617.90
517.97	1783.78
518.17	1783.78
518.37	1746.92
518.57	1640.42
518.77	1751.01
518.97	1761.25
519.16	1744.87
519.36	1859.56
519.56	1697.77
519.76	1701.86
519.96	1669.09
520.16	1763.30
520.36	1650.66
520.56	1714.15
520.76	1634.28
520.96	1632.23
521.16	1810.40
521.35	1828.84
521.55	1773.54
521.75	1769.44
521.95	1726.44
522.15	1755.11
522.35	1644.52
522.55	1675.24
522.75	1757.16
522.95	1730.53
523.14	1699.81
523.34	1718.25
523.54	1691.62
523.74	1716.20
523.94	1722.34
524.14	1710.05
524.34	1724.39
524.54	1779.68
524.73	1800.16
524.93	1746.92
525.13	1701.86
525.33	1658.85
525.53	1904.61
525.73	1734.63
525.93	1742.82
526.13	1642.47
526.32	1763.30
526.52	1773.54
526.72	1695.72
526.92	1738.73
527.12	1708.01
527.32	1621.99
527.52	1796.07
527.71	1708.01
527.91	1796.07
528.11	1699.81
528.31	1773.54
528.51	1644.52
528.71	1755.11
528.90	1732.58
529.10	1781.73
529.30	1800.16
529.50	1667.05
529.70	1712.10
529.90	1662.95
530.09	1751.01
530.29	1681.38
530.49	1716.20
530.69	1904.61
530.89	1736.68
531.09	1769.44
531.28	1779.68
531.48	1775.59
531.68	1728.49
531.88	1748.97
532.08	1769.44
532.28	1720.29
532.47	1804.26
532.67	1828.84
532.87	1712.10
533.07	1669.09
533.27	1746.92
533.46	1810.40
533.66	1730.53
533.86	1753.06
534.06	1730.53
534.26	1699.81
534.45	1671.14
534.65	1810.40
534.85	1746.92
535.05	1595.37
535.25	1787.88
535.44	1671.14
535.64	1837.03
535.84	1667.05
536.04	1812.45
536.24	1671.14
536.43	1699.81
536.63	1787.88
536.83	1722.34
537.03	1615.85
537.22	1656.81
537.42	1591.27
537.62	1732.58
537.82	1652.71
538.02	1714.15
538.21	1808.36
538.41	1888.23
538.61	1732.58
538.81	1746.92
539.00	1769.44
539.20	1593.32
539.40	1730.53
539.60	1732.58
539.79	1847.27
539.99	1654.76
540.19	1757.16
540.39	1634.28
540.58	1656.81
540.78	1753.06
540.98	1730.53
541.18	1744.87
541.37	1822.69
541.57	1734.63
541.77	1746.92
541.97	1667.05
542.16	1615.85
542.36	1757.16
542.56	1687.53
542.76	1863.65
542.95	1742.82
543.15	1779.68
543.35	1746.92
543.54	1654.76
543.74	1714.15
543.94	1861.60
544.14	1634.28
544.33	1753.06
544.53	1732.58
544.73	1802.21
544.93	1761.25
545.12	1751.01
545.32	1677.29
545.52	1783.78
545.71	1642.47
545.91	1697.77
546.11	1722.34
546.30	1755.11
546.50	1802.21
546.70	1781.73
546.90	1718.25
547.09	1660.90
547.29	1644.52
547.49	1730.53
547.68	1773.54
547.88	1710.05
548.08	1800.16
548.27	2213.85
548.47	1699.81
548.67	1751.01
548.87	1742.82
549.06	1697.77
549.26	1773.54
549.46	1710.05
549.65	1759.21
549.85	1746.92
550.05	1773.54
550.24	1662.95
550.44	1689.57
550.64	1722.34
550.83	1755.11
551.03	1775.59
551.23	1796.07
551.42	1718.25
551.62	1746.92
551.82	1695.72
552.01	1675.24
552.21	1767.40
552.41	1736.68
552.60	1773.54
552.80	1755.11
553.00	1761.25
553.19	1726.44
553.39	1869.80
553.59	1689.57
553.78	1683.43
553.98	1767.40
554.17	1658.85
554.37	1751.01
554.57	1714.15
554.76	1705.96
554.96	1755.11
555.16	1751.01
555.35	1755.11
555.55	1763.30
555.75	1728.49
555.94	1767.40
556.14	1691.62
556.33	1705.96
556.53	1679.33
556.73	1771.49
556.92	1761.25
557.12	1908.71
557.32	1853.41
557.51	1800.16
557.71	1748.97
557.90	1781.73
558.10	1757.16
558.30	1642.47
558.49	1705.96
558.69	1746.92
558.88	1771.49
559.08	1701.86
559.28	1656.81
559.47	1691.62
559.67	1722.34
559.86	1826.79
560.06	1626.09
560.26	1748.97
560.45	1796.07
560.65	1646.57
560.84	1761.25
561.04	1658.85
561.24	1777.64
561.43	1697.77
561.63	1816.55
561.82	1708.01
562.02	1794.02
562.22	1705.96
562.41	1679.33
562.61	1744.87
562.80	1705.96
563.00	1857.51
563.19	1654.76
563.39	1740.77
563.59	1740.77
563.78	1687.53
563.98	1705.96
564.17	1613.80
564.37	1628.14
564.56	1640.42
564.76	1644.52
564.96	1765.35
565.15	1771.49
565.35	1880.04
565.54	1800.16
565.74	1757.16
565.93	1697.77
566.13	1652.71
566.32	1804.26
566.52	1771.49
566.71	1724.39
566.91	1800.16
567.11	1753.06
567.30	1685.48
567.50	1736.68
567.69	1824.74
567.89	1712.10
568.08	1646.57
568.28	1736.68
568.47	1732.58
568.67	1751.01
568.86	1712.10
569.06	1775.59
569.25	1744.87
569.45	1724.39
569.64	1718.25
569.84	1736.68
570.04	1716.20
570.23	1675.24
570.43	1785.83
570.62	1808.36
570.82	1828.84
571.01	1591.27
571.21	1738.73
571.40	1710.05
571.60	1771.49
571.79	1751.01
571.99	1804.26
572.18	1701.86
572.38	1798.12
572.57	1753.06
572.77	1785.83
572.96	1877.99
573.16	1691.62
573.35	1734.63
573.55	1888.23
573.74	1783.78
573.94	1730.53
574.13	1628.14
574.33	1839.08
574.52	1816.55
574.71	1697.77
574.91	1732.58
575.10	1742.82
575.30	1669.09
575.49	1624.04
575.69	1742.82
575.88	1783.78
576.08	1730.53
576.27	1738.73
576.47	1705.96
576.66	1824.74
576.86	1832.93
577.05	1755.11
577.25	1714.15
577.44	1816.55
577.64	1798.12
577.83	1759.21
578.02	1736.68
578.22	1804.26
578.41	1845.22
578.61	1740.77
578.80	1689.57
579.00	1712.10
579.19	1763.30
579.39	1740.77
579.58	1759.21
579.77	1720.29
579.97	1798.12
580.16	1796.07
580.36	1789.92
580.55	1785.83
580.75	1748.97
580.94	1769.44
581.13	1929.19
581.33	1751.01
581.52	1718.25
581.72	1853.41
581.91	1761.25
582.11	1738.73
582.30	1806.31
582.49	1779.68
582.69	1820.64
582.88	1828.84
583.08	1771.49
583.27	1812.45
583.47	1728.49
583.66	1744.87
583.85	1710.05
584.05	1765.35
584.24	1771.49
584.44	1822.69
584.63	1804.26
584.82	1808.36
585.02	1867.75
585.21	1796.07
585.41	1841.12
585.60	1822.69
585.79	1941.47
585.99	1953.76
586.18	1861.60
586.37	2191.33
586.57	3436.49
586.76	9979.75
586.96	24950.40
587.15	34948.59
587.34	41004.43
587.54	42653.05
587.73	36746.70
587.93	26648.17
588.12	21888.69
588.31	18585.32
588.51	16523.01
588.70	15306.52
588.89	14038.83
589.09	12728.13
589.28	11315.03
589.47	9488.24
589.67	8128.39
589.86	6565.79
590.06	5054.39
590.25	3987.40
590.44	3211.22
590.64	2588.63
590.83	2281.44
591.02	2058.21
591.22	1904.61
591.41	1787.88
591.60	1761.25
591.80	1933.28
591.99	1665.00
592.18	1753.06
592.38	1753.06
592.57	1777.64
592.76	1808.36
592.96	1785.83
593.15	1710.05
593.34	1894.37
593.54	1699.81
593.73	1755.11
593.92	1869.80
594.12	1703.91
594.31	1722.34
594.50	1845.22
594.70	1732.58
594.89	1900.52
595.08	1687.53
595.28	1724.39
595.47	1931.23
595.66	1804.26
595.86	1753.06
596.05	1728.49
596.24	1646.57
596.43	1787.88
596.63	1798.12
596.82	1736.68
597.01	1718.25
597.21	1863.65
597.40	1783.78
597.59	1724.39
597.79	1705.96
597.98	1822.69
598.17	1882.08
598.36	1712.10
598.56	1724.39
598.75	1681.38
598.94	1705.96
599.14	1738.73
599.33	1665.00
599.52	1746.92
599.71	1726.44
599.91	1746.92
600.10	1818.60
600.29	1712.10
600.48	1677.29
600.68	1738.73
600.87	1773.54
601.06	1693.67
601.26	1791.97
601.45	1781.73
601.64	1689.57
601.83	1755.11
602.03	1689.57
602.22	1652.71
602.41	1789.92
602.60	1918.95
602.80	1802.21
602.99	1775.59
603.18	1699.81
603.37	1744.87
603.57	1738.73
603.76	1771.49
603.95	1740.77
604.14	1738.73
604.34	1665.00
604.53	1744.87
604.72	1765.35
604.91	1812.45
605.10	1714.15
605.30	1689.57
605.49	1828.84
605.68	1794.02
605.87	1703.91
606.07	1714.15
606.26	1746.92
606.45	1701.86
606.64	1765.35
606.84	1673.19
607.03	1724.39
607.22	1734.63
607.41	1630.18
607.60	1681.38
607.80	1767.40
607.99	1773.54
608.18	1687.53
608.37	1804.26
608.56	1742.82
608.76	1837.03
608.95	1783.78
609.14	1718.25
609.33	1708.01
609.52	1796.07
609.72	1771.49
609.91	1685.48
610.10	1667.05
610.29	1744.87
610.48	1771.49
610.68	1740.77
610.87	1771.49
611.06	1777.64
611.25	1701.86
611.44	1837.03
611.63	1728.49
611.83	1794.02
612.02	1660.90
612.21	1814.50
612.40	1681.38
612.59	1681.38
612.79	1644.52
612.98	1753.06
613.17	1791.97
613.36	1734.63
613.55	1802.21
613.74	1650.66
613.93	1642.47
614.13	1759.21
614.32	1689.57
614.51	1738.73
614.70	1738.73
614.89	1671.14
615.08	1701.86
615.28	2082.78
615.47	1613.80
615.66	1724.39
615.85	1722.34
616.04	1853.41
616.23	1679.33
616.42	1671.14
616.62	1738.73
616.81	1736.68
617.00	1716.20
617.19	1765.35
617.38	1746.92
617.57	1638.38
617.76	1740.77
617.95	1814.50
618.15	1730.53
618.34	1755.11
618.53	1681.38
618.72	1755.11
618.91	1875.94
619.10	1804.26
619.29	1646.57
619.48	1640.42
619.68	1662.95
619.87	1738.73
620.06	1708.01
620.25	1775.59
620.44	1718.25
620.63	1748.97
620.82	1746.92
621.01	1740.77
621.20	1730.53
621.39	1714.15
621.59	1746.92
621.78	1722.34
621.97	1669.09
622.16	1810.40
622.35	1748.97
622.54	1814.50
622.73	1767.40
622.92	1632.23
623.11	1732.58
623.30	1726.44
623.49	1834.98
623.68	1701.86
623.88	1755.11
624.07	1621.99
624.26	1734.63
624.45	1781.73
624.64	1685.48
624.83	1798.12
625.02	1689.57
625.21	1689.57
625.40	1673.19
625.59	1777.64
625.78	1757.16
625.97	1759.21
626.16	1759.21
626.35	1773.54
626.54	1697.77
626.74	1791.97
626.93	1767.40
627.12	1679.33
627.31	1771.49
627.50	1820.64
627.69	1816.55
627.88	1667.05
628.07	1724.39
628.26	1714.15
628.45	1677.29
628.64	1652.71
628.83	1761.25
629.02	1652.71
629.21	1734.63
629.40	1724.39
629.59	1687.53
629.78	1728.49
629.97	1701.86
630.16	1755.11
630.35	1730.53
630.54	1691.62
630.73	1583.08
630.92	1769.44
631.11	1685.48
631.30	1650.66
631.49	1755.11
631.68	1701.86
631.87	1779.68
632.06	1597.42
632.25	1812.45
632.44	1718.25
632.63	1712.10
632.82	1605.61
633.01	1724.39
633.20	1740.77
633.39	1726.44
633.58	1595.37
633.77	1689.57
633.96	1705.96
634.15	1705.96
634.34	1812.45
634.53	1798.12
634.72	1691.62
634.91	1679.33
635.10	1689.57
635.29	1761.25
635.48	1728.49
635.67	1742.82
635.86	1667.05
636.05	1712.10
636.24	1716.20
636.43	1771.49
636.62	1812.45
636.81	1552.36
637.00	1679.33
637.19	1753.06
637.38	1734.63
637.57	1634.28
637.76	1716.20
637.95	1718.25
638.14	1650.66
638.33	1669.09
638.52	1646.57
638.71	1677.29
638.89	1630.18
639.08	1855.46
639.27	1687.53
639.46	1697.77
639.65	1738.73
639.84	1746.92
640.03	1802.21
640.22	1656.81
640.41	1832.93
640.60	1695.72
640.79	1687.53
640.98	1722.34
641.17	1740.77
641.36	1773.54
641.55	1730.53
641.74	1681.38
641.92	1599.46
642.11	1636.33
642.30	1740.77
642.49	1673.19
642.68	1626.09
642.87	1767.40
643.06	1726.44
643.25	1746.92
643.44	1660.90
643.63	1685.48
643.82	1710.05
644.00	1611.75
644.19	1671.14
644.38	1591.27
644.57	1632.23
644.76	1839.08
644.95	1642.47
645.14	1720.29
645.33	1726.44
645.52	1697.77
645.71	1621.99
645.89	1613.80
646.08	1646.57
646.27	1652.71
646.46	1851.36
646.65	1617.90
646.84	1697.77
647.03	1550.31
647.22	1800.16
647.40	1691.62
647.59	1703.91
647.78	1681.38
647.97	1599.46
648.16	1660.90
648.35	1732.58
648.54	1832.93
648.73	1669.09
648.91	1759.21
649.10	1773.54
649.29	1658.85
649.48	1722.34
649.67	1773.54
649.86	1720.29
650.05	1695.72
650.23	1794.02
650.42	1691.62
650.61	1730.53
650.80	1746.92
650.99	1808.36
651.18	1755.11
651.36	1681.38
651.55	1658.85
651.74	1765.35
651.93	1601.51
652.12	1681.38
652.31	1751.01
652.49	1628.14
652.68	1677.29
652.87	1769.44
653.06	1665.00
653.25	1779.68
653.44	1726.44
653.62	1779.68
653.81	1701.86
654.00	1736.68
654.19	1689.57
654.38	1896.42
654.56	1703.91
654.75	1689.57
654.94	1691.62
655.13	1699.81
655.32	1665.00
655.51	1771.49
655.69	1701.86
655.88	1789.92
656.07	1679.33
656.26	1751.01
656.45	1701.86
656.63	1728.49
656.82	1755.11
657.01	1757.16
657.20	1697.77
657.38	1779.68
657.57	1722.34
657.76	1648.61
657.95	1751.01
658.14	1734.63
658.32	1753.06
658.51	1705.96
658.70	1658.85
658.89	1744.87
659.08	1714.15
659.26	1779.68
659.45	1572.84
659.64	1714.15
659.83	1734.63
660.01	1908.71
660.20	1685.48
660.39	1828.84
660.58	1591.27
660.76	1791.97
660.95	1646.57
661.14	1730.53
661.33	1593.32
661.51	1673.19
661.70	1662.95
661.89	1718.25
662.08	1755.11
662.26	1615.85
662.45	1630.18
662.64	1867.75
662.83	1710.05
663.01	1644.52
663.20	1701.86
663.39	1794.02
663.58	1656.81
663.76	1712.10
663.95	1710.05
664.14	1665.00
664.32	1699.81
664.51	1718.25
664.70	1642.47
664.89	1738.73
665.07	1630.18
665.26	1744.87
665.45	1605.61
665.64	1765.35
665.82	1701.86
666.01	1712.10
666.20	1660.90
666.38	1814.50
666.57	1791.97
666.76	2238.43
666.95	4472.76
667.13	10493.79
667.32	15427.35
667.51	18050.80
667.69	19189.47
667.88	17837.81
668.07	12296.00
668.25	9774.95
668.44	8251.27
668.63	7450.51
668.81	6936.47
669.00	6281.12
669.19	5762.98
669.38	5289.90
669.56	4624.31
669.75	4022.21
669.94	3432.40
670.12	2908.12
670.31	2469.85
670.50	2230.24
670.68	2025.44
670.87	1869.80
671.06	1804.26
671.24	1894.37
671.43	1845.22
671.62	1755.11
671.80	1716.20
671.99	1730.53
672.18	1646.57
672.36	1732.58
672.55	1777.64
672.74	1710.05
672.92	1740.77
673.11	1746.92
673.29	1650.66
673.48	1665.00
673.67	1671.14
673.85	1765.35
674.04	1640.42
674.23	1669.09
674.41	1781.73
674.60	1673.19
674.79	1607.66
674.97	1673.19
675.16	1732.58
675.34	1699.81
675.53	1689.57
675.72	1714.15
675.90	1751.01
676.09	1796.07
676.28	1708.01
676.46	1642.47
676.65	1687.53
676.83	1603.56
677.02	1693.67
677.21	1685.48
677.39	1744.87
677.58	1650.66
677.77	1636.33
677.95	1724.39
678.14	1652.71
678.32	1728.49
678.51	1675.24
678.70	1845.22
678.88	1648.61
679.07	1710.05
679.25	1693.67
679.44	1708.01
679.63	1656.81
679.81	1689.57
680.00	1789.92
680.18	1759.21
680.37	1841.12
680.55	1738.73
680.74	1695.72
680.93	1609.70
681.11	1710.05
681.30	1701.86
681.48	1755.11
681.67	1665.00
681.85	1734.63
682.04	1671.14
682.23	1775.59
682.41	1705.96
682.60	1642.47
682.78	1789.92
682.97	1671.14
683.15	1744.87
683.34	1769.44
683.53	1732.58
683.71	1681.38
683.90	1791.97
684.08	1832.93
684.27	1695.72
684.45	1734.63
684.64	1771.49
684.82	1660.90
685.01	1740.77
685.19	1728.49
685.38	1755.11
685.57	1714.15
685.75	1669.09
685.94	1693.67
686.12	1634.28
686.31	1671.14
686.49	1824.74
686.68	1619.94
686.86	1806.31
687.05	1681.38
687.23	1783.78
687.42	1660.90
687.60	1697.77
687.79	1738.73
687.97	1779.68
688.16	1738.73
688.34	1789.92
688.53	1550.31
688.71	1730.53
688.90	1808.36
689.08	1619.94
689.27	1695.72
689.45	1779.68
689.64	1751.01
689.82	1658.85
690.01	1691.62
690.19	1693.67
690.38	1677.29
690.56	1720.29
690.75	1703.91
690.93	1701.86
691.12	1679.33
691.30	1677.29
691.49	1689.57
691.67	1691.62
691.86	1902.56
692.04	1636.33
692.23	1691.62
692.41	1662.95
692.60	1785.83
692.78	1755.11
692.97	1691.62
693.15	1669.09
693.34	1814.50
693.52	1769.44
693.71	1681.38
693.89	1738.73
694.08	1650.66
694.26	1726.44
694.44	1718.25
694.63	1759.21
694.81	1636.33
695.00	1691.62
695.18	1693.67
695.37	1851.36
695.55	1742.82
695.74	1615.85
695.92	1609.70
696.10	1742.82
696.29	1671.14
696.47	1681.38
696.66	1656.81
696.84	1640.42
697.03	1650.66
697.21	1806.31
697.40	2281.44
697.58	1761.25
697.76	1730.53
697.95	1681.38
698.13	1681.38
698.32	1718.25
698.50	1691.62
698.68	1808.36
698.87	1748.97
699.05	1814.50
699.24	1746.92
699.42	1626.09
699.61	1714.15
699.79	1753.06
699.97	1787.88
700.16	1632.23
700.34	1728.49
700.53	1775.59
700.71	1832.93
700.89	1751.01
701.08	1740.77
701.26	1712.10
701.45	2095.07
701.63	1699.81
701.81	1695.72
702.00	1667.05
702.18	1724.39
702.37	1679.33
702.55	1736.68
702.73	1748.97
702.92	1617.90
703.10	1740.77
703.28	1734.63
703.47	1652.71
703.65	1742.82
703.84	1732.58
704.02	1654.76
704.20	1820.64
704.39	1712.10
704.57	1722.34
704.75	1769.44
704.94	1734.63
705.12	1771.49
705.30	1853.41
705.49	2271.20
705.67	4444.09
705.86	9701.23
706.04	12738.37
706.22	14817.05
706.41	15640.34
706.59	13866.80
706.77	9666.41
706.96	7485.33
707.14	6592.41
707.32	6148.00
707.51	5660.59
707.69	4933.56
707.87	4108.23
708.06	3518.41
708.24	2891.73
708.42	2426.84
708.61	2211.81
708.79	1861.60
708.97	1843.17
709.16	1806.31
709.34	1787.88
709.52	1667.05
709.71	1738.73
709.89	1746.92
710.07	1751.01
710.26	1654.76
710.44	1710.05
710.62	1775.59
710.80	1748.97
710.99	1677.29
711.17	1755.11
711.35	1683.43
711.54	1634.28
711.72	1828.84
711.90	1699.81
712.09	1791.97
712.27	1742.82
712.45	1726.44
712.63	1710.05
712.82	1738.73
713.00	1708.01
713.18	1785.83
713.37	1695.72
713.55	1712.10
713.73	1705.96
713.91	1728.49
714.10	1628.14
714.28	1753.06
714.46	1734.63
714.65	1703.91
714.83	1703.91
715.01	1710.05
715.19	1695.72
715.38	1695.72
715.56	1699.81
715.74	1619.94
715.92	1695.72
716.11	1730.53
716.29	1710.05
716.47	1691.62
716.65	1681.38
716.84	1603.56
717.02	1740.77
717.20	1605.61
717.38	1693.67
717.57	1771.49
717.75	1687.53
717.93	1691.62
718.11	1806.31
718.30	1626.09
718.48	1732.58
718.66	1687.53
718.84	1695.72
719.03	1669.09
719.21	1615.85
719.39	1865.70
719.57	1718.25
719.75	1779.68
719.94	1648.61
720.12	1748.97
720.30	1675.24
720.48	1697.77
720.67	1642.47
720.85	1656.81
721.03	1703.91
721.21	1558.50
721.39	1808.36
721.58	1775.59
721.76	1744.87
721.94	1738.73
722.12	1669.09
722.30	1796.07
722.49	1613.80
722.67	1689.57
722.85	1796.07
723.03	1607.66
723.21	1714.15
723.40	1769.44
723.58	1736.68
723.76	1708.01
723.94	1779.68
724.12	1714.15
724.30	1814.50
724.49	1687.53
724.67	1544.17
724.85	1761.25
725.03	1626.09
725.21	1748.97
725.40	1714.15
725.58	1691.62
725.76	1765.35
725.94	1677.29
726.12	1624.04
726.30	1748.97
726.49	1691.62
726.67	1691.62
726.85	1710.05
727.03	1755.11
727.21	2160.61
727.39	2959.31
727.57	3698.63
727.76	4300.73
727.94	4521.92
728.12	4321.21
728.30	3782.60
728.48	2969.55
728.66	2838.48
728.84	2506.71
729.03	2306.01
729.21	2156.51
729.39	2031.58
729.57	1855.46
729.75	1787.88
729.93	1867.75
730.11	1679.33
730.30	1599.46
730.48	1730.53
730.66	1781.73
730.84	1726.44
731.02	1701.86
731.20	1638.38
731.38	1726.44
731.56	1599.46
731.74	1644.52
731.93	1681.38
732.11	1699.81
732.29	1714.15
732.47	1769.44
732.65	1660.90
732.83	1738.73
733.01	1763.30
733.19	1605.61
733.37	1712.10
733.56	1732.58
733.74	1691.62
733.92	1697.77
734.10	1689.57
734.28	1705.96
734.46	1632.23
734.64	1667.05
734.82	1595.37
735.00	1667.05
735.18	1695.72
735.36	1722.34
735.54	1716.20
735.73	1734.63
735.91	1673.19
736.09	1746.92
736.27	1722.34
736.45	1785.83
736.63	1624.04
736.81	1671.14
736.99	1789.92
737.17	1853.41
737.35	1650.66
737.53	1755.11
737.71	1712.10
737.89	1771.49
738.07	1611.75
738.25	1585.13
738.43	1632.23
738.61	1720.29
738.80	1652.71
738.98	1630.18
739.16	1665.00
739.34	1644.52
739.52	1769.44
739.70	1732.58
739.88	1734.63
740.06	1789.92
740.24	1566.70
740.42	1816.55
740.60	1628.14
740.78	1665.00
740.96	1611.75
741.14	1724.39
741.32	1736.68
741.50	1636.33
741.68	1810.40
741.86	1687.53
742.04	1632.23
742.22	1722.34
742.40	1726.44
742.58	1767.40
742.76	1599.46
742.94	1753.06
743.12	1546.22
743.30	1683.43
743.48	1732.58
743.66	1716.20
743.84	1781.73
744.02	1714.15
744.20	1677.29
744.38	1652.71
744.56	1705.96
744.74	1763.30
744.92	1763.30
745.10	1746.92
745.28	1689.57
745.46	1808.36
745.64	1771.49
745.82	1761.25
746.00	1705.96
746.18	1740.77
746.36	1748.97
746.54	1730.53
746.72	1665.00
746.90	1701.86
747.08	1738.73
747.26	1624.04
747.44	1689.57
747.62	1816.55
747.80	1697.77
747.98	1712.10
748.15	1638.38
748.33	1796.07
748.51	1724.39
748.69	1761.25
748.87	1624.04
749.05	1665.00
749.23	1644.52
749.41	1720.29
749.59	1669.09
749.77	1718.25
749.95	1722.34
750.13	1589.22
750.31	1718.25
750.49	1683.43
750.67	1796.07
750.85	1777.64
751.03	1773.54
751.20	1855.46
751.38	1697.77
751.56	1712.10
751.74	1697.77
751.92	1665.00
752.10	1638.38
752.28	1767.40
752.46	1685.48
752.64	1705.96
752.82	1718.25
753.00	1718.25
753.18	1681.38
753.35	1630.18
753.53	1734.63
753.71	1660.90
753.89	1763.30
754.07	1652.71
754.25	1746.92
754.43	1701.86
754.61	1626.09
754.79	1722.34
754.97	1714.15
755.14	1828.84
755.32	1624.04
755.50	1746.92
755.68	1742.82
755.86	1646.57
756.04	1667.05
756.22	1566.70
756.40	1648.61
756.57	1783.78
756.75	1716.20
756.93	1769.44
757.11	1736.68
757.29	1619.94
757.47	1658.85
757.65	1591.27
757.82	1603.56
758.00	1675.24
758.18	1675.24
758.36	1615.85
758.54	1761.25
758.72	1656.81
758.90	1810.40
759.07	1726.44
759.25	1718.25
759.43	1783.78
759.61	1656.81
759.79	2213.85
759.97	1710.05
760.15	1736.68
760.32	1632.23
760.50	1677.29
760.68	1791.97
760.86	1607.66
761.04	1839.08
761.22	1677.29
761.39	1722.34
761.57	1732.58
761.75	1593.32
761.93	1697.77
762.11	1693.67
762.28	1650.66
762.46	1697.77
762.64	1722.34
762.82	1617.90
763.00	1701.86
763.18	1853.41
763.35	1617.90
763.53	1746.92
763.71	1636.33
763.89	1720.29
764.07	1716.20
764.24	1742.82
764.42	1783.78
764.60	1734.63
764.78	1685.48
764.96	1683.43
765.13	1812.45
765.31	1654.76
765.49	1687.53
765.67	1624.04
765.84	1669.09
766.02	1644.52
766.20	1572.84
766.38	1763.30
766.56	1660.90
766.73	1783.78
766.91	1656.81
767.09	1744.87
767.27	1689.57
767.44	1665.00
767.62	1660.90
767.80	1681.38
767.98	1734.63
768.15	1660.90
768.33	1755.11
768.51	1693.67
768.69	1751.01
768.87	1767.40
769.04	1689.57
769.22	1867.75
769.40	1812.45
769.58	1796.07
769.75	1662.95
769.93	1767.40
770.11	1734.63
770.28	1667.05
770.46	1755.11
770.64	1732.58
770.82	1681.38
770.99	1642.47
771.17	1736.68
771.35	1630.18
771.53	1714.15
771.70	1708.01
771.88	1703.91
772.06	1681.38
772.23	1728.49
772.41	1742.82
772.59	1568.74
772.77	1699.81
772.94	1724.39
773.12	1771.49
773.30	1644.52
773.47	1701.86
773.65	1644.52
773.83	1830.88
774.01	1710.05
774.18	1642.47
774.36	1660.90
774.54	1591.27
774.71	1742.82
774.89	1710.05
775.07	1671.14
775.24	1665.00
775.42	1687.53
775.60	1861.60
775.78	1644.52
775.95	1691.62
776.13	1634.28
776.31	1644.52
776.48	1781.73
776.66	1882.08
776.84	1617.90
777.01	1679.33
777.19	1677.29
777.37	1615.85
777.54	1753.06
777.72	1834.98
777.90	1671.14
778.07	1652.71
778.25	1861.60
778.43	1738.73
778.60	1632.23
778.78	1775.59
778.96	1748.97
779.13	1683.43
779.31	1867.75
779.49	1720.29
779.66	1708.01
779.84	1701.86
780.01	1740.77
780.19	1679.33
780.37	1746.92
780.54	1732.58
780.72	1683.43
780.90	1673.19
781.07	1624.04
781.25	1734.63
781.43	1722.34
781.60	1746.92
781.78	1755.11
781.95	1683.43
782.13	1669.09
782.31	1748.97
782.48	1529.83
782.66	1658.85
782.83	1802.21
783.01	1720.29
783.19	1781.73
783.36	1632.23
783.54	1660.90
783.72	1724.39
783.89	1730.53
784.07	1757.16
784.24	1669.09
784.42	1689.57
784.60	1662.95
784.77	1781.73
784.95	1533.93
785.12	1669.09
785.30	1705.96
785.47	1646.57
785.65	1621.99
785.83	1730.53
786.00	1675.24
786.18	1734.63
786.35	1681.38
786.53	1656.81
786.71	1714.15
786.88	1722.34
787.06	1720.29
787.23	1677.29
787.41	1642.47
787.58	1683.43
787.76	1562.60
787.94	1714.15
788.11	1687.53
788.29	1691.62
788.46	1689.57
788.64	1599.46
788.81	1621.99
788.99	1671.14
789.16	1660.90
789.34	1728.49
789.52	1728.49
789.69	1691.62
789.87	1683.43
790.04	1628.14
790.22	1720.29
790.39	1757.16
790.57	1634.28
790.74	1675.24
790.92	1740.77
791.09	1583.08
791.27	1746.92
791.44	1771.49
791.62	1636.33
791.79	1812.45
791.97	1697.77
792.15	1927.14
792.32	1720.29
792.50	1685.48
792.67	1812.45
792.85	1849.32
793.02	1705.96
793.20	1732.58
793.37	1607.66
793.55	1722.34
793.72	1648.61
793.90	1740.77
794.07	1621.99
794.25	1646.57
794.42	1673.19
794.60	1742.82
794.77	1681.38
794.95	1695.72
795.12	1796.07
795.30	1679.33
795.47	1566.70
795.65	1828.84
795.82	1703.91
796.00	1636.33
796.17	1605.61
796.34	1632.23
796.52	1701.86
796.69	1624.04
796.87	1753.06
797.04	1683.43
797.22	1718.25
797.39	1699.81
797.57	1722.34
797.74	1685.48
797.92	1632.23
798.09	1687.53
798.27	1728.49
798.44	1695.72
798.62	1591.27
798.79	1728.49
798.96	1669.09
799.14	1689.57
799.31	1800.16
799.49	1681.38
799.66	1742.82
799.84	1658.85
800.01	1628.14
800.19	1677.29
800.36	1628.14
800.53	1691.62
800.71	1705.96
800.88	1787.88
801.06	1607.66
801.23	1583.08
801.41	1650.66
801.58	1746.92
801.75	1679.33
801.93	1724.39
802.10	1701.86
802.28	1591.27
802.45	1632.23
802.63	1716.20
802.80	1753.06
802.97	1712.10
803.15	1716.20
803.32	1681.38
803.50	1554.41
803.67	1658.85
803.84	1634.28
804.02	1693.67
804.19	1660.90
804.37	1624.04
804.54	1673.19
804.71	1695.72
804.89	1687.53
805.06	1648.61
805.24	1681.38
805.41	1681.38
805.58	1677.29
805.76	1798.12
805.93	1771.49
806.10	1787.88
806.28	1714.15
806.45	1665.00
806.63	1697.77
806.80	1652.71
806.97	1757.16
807.15	1669.09
807.32	1660.90
807.49	1595.37
807.67	1681.38
807.84	1751.01
808.01	1644.52
808.19	1757.16
808.36	1855.46
808.54	1585.13
808.71	1728.49
808.88	1724.39
809.06	1681.38
809.23	1783.78
809.40	1679.33
809.58	1710.05
809.75	1679.33
809.92	1562.60
810.10	1816.55
810.27	1691.62
810.44	1652.71
810.62	1665.00
810.79	1724.39
810.96	1699.81
811.14	1705.96
811.31	1722.34
811.48	1708.01
811.66	1654.76
811.83	1761.25
812.00	1695.72
812.18	1726.44
812.35	1767.40
812.52	1728.49
812.69	1599.46
812.87	1705.96
813.04	1624.04
813.21	1621.99
813.39	1718.25
813.56	1665.00
813.73	1806.31
813.91	1560.55
814.08	1675.24
814.25	1728.49
814.42	1589.22
814.60	1665.00
814.77	1771.49
814.94	1738.73
815.12	1660.90
815.29	1744.87
815.46	1667.05
815.63	1714.15
815.81	1675.24
815.98	1683.43
816.15	1640.42
816.33	1613.80
816.50	1681.38
816.67	1665.00
816.84	1724.39
817.02	1677.29
817.19	1648.61
817.36	1636.33
817.53	1757.16
817.71	1585.13
817.88	1767.40
818.05	1718.25
818.22	1656.81
818.40	1804.26
818.57	1656.81
818.74	1689.57
818.91	1628.14
819.09	1759.21
819.26	1832.93
819.43	1679.33
819.60	1607.66
819.78	1675.24
819.95	1703.91
820.12	1591.27
820.29	1794.02
820.47	1794.02
820.64	1722.34
820.81	1667.05
820.98	1642.47
821.15	1658.85
821.33	1748.97
821.50	1607.66
821.67	1740.77
821.84	1699.81
822.02	1701.86
822.19	1814.50
822.36	1660.90
822.53	1701.86
822.70	1568.74
822.88	1685.48
823.05	1789.92
823.22	1628.14
823.39	1746.92
823.56	1708.01
823.74	1851.36
823.91	1660.90
824.08	1609.70
824.25	1648.61
824.42	1843.17
824.60	1605.61
824.77	1681.38
824.94	1734.63
825.11	1746.92
825.28	1665.00
825.45	1755.11
825.63	1724.39
825.80	1646.57
825.97	1724.39
826.14	1751.01
826.31	1597.42
826.48	1724.39
826.66	1646.57
826.83	1689.57
827.00	1718.25
827.17	1671.14
827.34	1710.05
827.51	1665.00
827.69	1701.86
827.86	1595.37
828.03	1691.62
828.20	1765.35
828.37	1589.22
828.54	1724.39
828.71	1595.37
828.89	1755.11
829.06	1738.73
829.23	1787.88
829.40	1701.86
829.57	1621.99
829.74	1732.58
829.91	1708.01
830.09	1660.90
830.26	1769.44
830.43	1718.25
830.60	1703.91
830.77	1705.96
830.94	1787.88
831.11	1697.77
831.28	1615.85
831.46	1730.53
831.63	1634.28
831.80	1720.29
831.97	1714.15
832.14	1642.47
832.31	1621.99
832.48	1640.42
832.65	1609.70
832.82	1708.01
832.99	1726.44
833.17	1632.23
833.34	1779.68
833.51	1701.86
833.68	1644.52
833.85	1755.11
834.02	1703.91
834.19	1572.84
834.36	1710.05
834.53	1689.57
834.70	1802.21
834.87	1640.42
835.04	1703.91
835.22	1683.43
835.39	1697.77
835.56	1638.38
835.73	1718.25
835.90	1705.96
836.07	1665.00
836.24	1730.53
836.41	1630.18
836.58	1613.80
836.75	1730.53
836.92	1624.04
837.09	1595.37
837.26	1714.15
837.43	1798.12
837.60	1771.49
837.77	1630.18
837.94	1794.02
838.12	1722.34
838.29	1736.68
838.46	1675.24
838.63	1669.09
838.80	1826.79
838.97	1787.88
839.14	1730.53
839.31	1677.29
839.48	1775.59
839.65	1691.62
839.82	1738.73
839.99	1669.09
840.16	1703.91
840.33	1617.90
840.50	1724.39
840.67	1613.80
840.84	1544.17
841.01	1689.57
841.18	1640.42
841.35	1718.25
841.52	1703.91
841.69	1822.69
841.86	1695.72
842.03	1665.00
842.20	1730.53
842.37	1701.86
842.54	1714.15
842.71	1578.98
842.88	1619.94
843.05	1785.83
843.22	1667.05
843.39	1675.24
843.56	1665.00
843.73	1697.77
843.90	1712.10
844.07	1718.25
844.24	1785.83
844.41	1783.78
844.58	1652.71
844.75	1710.05
844.92	1816.55
845.09	1656.81
845.26	1615.85
845.43	1660.90
845.60	1693.67
845.77	1660.90
845.94	1665.00
846.10	1712.10
846.27	1691.62
846.44	1595.37
846.61	1656.81
846.78	1787.88
846.95	1816.55
847.12	1660.90
847.29	1683.43
847.46	1619.94
847.63	1681.38
847.80	1636.33
847.97	1660.90
848.14	1800.16
848.31	1628.14
848.48	1605.61
848.65	1730.53
848.82	1701.86
848.98	1802.21
849.15	1748.97
849.32	1748.97
849.49	1695.72
849.66	1703.91
849.83	1681.38
850.00	1705.96
850.17	1722.34
850.34	1662.95
850.51	1650.66
850.68	1683.43
850.85	1763.30
851.01	1779.68
851.18	1824.74
851.35	1654.76
851.52	1712.10
851.69	1767.40
851.86	1619.94
852.03	1734.63
852.20	1671.14
852.37	1662.95
852.53	1595.37
852.70	1691.62
852.87	1632.23
853.04	1699.81
853.21	1710.05
853.38	1767.40
853.55	1796.07
853.72	1761.25
853.89	1587.18
854.05	1697.77
854.22	1677.29
854.39	1630.18
854.56	1689.57
854.73	1701.86
854.90	1624.04
855.07	1736.68
855.23	1617.90
855.40	1656.81
855.57	1611.75
855.74	1574.89
855.91	1837.03
856.08	1576.94
856.25	1636.33
856.41	1742.82
856.58	1671.14
856.75	1773.54
856.92	1640.42
857.09	1775.59
857.26	1595.37
857.42	1699.81
857.59	1798.12
857.76	1726.44
857.93	1742.82
858.10	1642.47
858.27	1640.42
858.43	1763.30
858.60	1626.09
858.77	1601.51
858.94	1601.51
859.11	1689.57
859.27	1681.38
859.44	1650.66
859.61	1814.50
859.78	1775.59
859.95	1632.23
860.12	1689.57
860.28	1796.07
860.45	1802.21
860.62	1671.14
860.79	1753.06
860.95	1734.63
861.12	1712.10
861.29	1650.66
861.46	1703.91
861.63	1630.18
861.79	1732.58
861.96	1587.18
862.13	1699.81
862.30	1763.30
862.47	1634.28
862.63	1632.23
862.80	1798.12
862.97	1736.68
863.14	1730.53
863.30	1669.09
863.47	1714.15
863.64	1755.11
863.81	1736.68
863.97	1705.96
864.14	1685.48
864.31	1732.58
864.48	1757.16
864.65	1673.19
864.81	1804.26
864.98	1681.38
865.15	1710.05
865.32	1675.24
865.48	1796.07
865.65	1710.05
865.82	1658.85
865.98	1732.58
866.15	1697.77
866.32	1722.34
866.49	1673.19
866.65	1785.83
866.82	1673.19
866.99	1636.33
867.16	1632.23
867.32	1699.81
867.49	1665.00
867.66	1660.90
867.83	1724.39
867.99	1648.61
868.16	1658.85
868.33	1619.94
868.49	1683.43
868.66	1630.18
868.83	1703.91
868.99	1718.25
869.16	1679.33
869.33	1757.16
869.50	1710.05
869.66	1779.68
869.83	1650.66
870.00	1667.05
870.16	1738.73
870.33	1722.34
870.50	1802.21
870.66	1669.09
870.83	1773.54
871.00	1656.81
871.17	1744.87
871.33	1675.24
871.50	1697.77
871.67	1710.05
871.83	1654.76
872.00	1794.02
872.17	1687.53
872.33	1746.92
872.50	1775.59
872.67	1662.95
872.83	1703.91
873.00	1755.11
873.17	1724.39
873.33	1738.73
873.50	1763.30
873.67	1624.04
873.83	1646.57
874.00	1722.34
874.16	1787.88
874.33	1769.44
874.50	1687.53
874.66	1748.97
874.83	1697.77
875.00	1701.86
875.16	1675.24
875.33	1757.16
875.50	1581.03
875.66	1705.96
875.83	1718.25
875.99	1757.16
876.16	1652.71
876.33	1685.48
876.49	1722.34
876.66	1753.06
876.83	1648.61
876.99	1548.26
877.16	1722.34
877.32	1650.66
877.49	1718.25
877.66	1718.25
877.82	1708.01
877.99	1675.24
878.15	1701.86
878.32	1708.01
878.49	1744.87
878.65	1628.14
878.82	1689.57
878.98	1585.13
879.15	1787.88
879.32	1777.64
879.48	1740.77
879.65	1630.18
879.81	1648.61
879.98	1689.57
880.15	1761.25
880.31	1701.86
880.48	1689.57
880.64	1714.15
880.81	1699.81
880.97	1802.21
881.14	1695.72
881.31	1669.09
881.47	1873.89
881.64	1644.52
881.80	1658.85
881.97	1757.16
882.13	1734.63
882.30	1597.42
882.47	1648.61
882.63	1660.90
882.80	1640.42
882.96	1736.68
883.13	1730.53
883.29	1665.00
883.46	1724.39
883.62	1791.97
883.79	1732.58
883.95	1742.82
884.12	1636.33
884.29	1699.81
884.45	1722.34
884.62	1705.96
884.78	1624.04
884.95	1705.96
885.11	1644.52
885.28	1701.86
885.44	1636.33
885.61	1728.49
885.77	1763.30
885.94	1796.07
886.10	1753.06
886.27	1722.34
886.43	1767.40
886.60	1822.69
886.76	1689.57
886.93	1634.28
887.09	1708.01
887.26	1570.79
887.42	1693.67
887.59	1748.97
887.75	1828.84
887.92	1734.63
888.08	1806.31
888.25	1804.26
888.41	1773.54
888.58	1714.15
888.74	1710.05
888.91	1720.29
>>>>>End Processed Spectral Data<<<<<
