SpectraSuite Data File
++++++++++++++++++++++++++++++++++++
Date: Mon Jun 06 15:32:17 CEST 2016
User: root
Dark Spectrum Present: No
Reference Spectrum Present: No
Number of Sampled Component Spectra: 1
Spectrometers: USB4C02835
Integration Time (usec): 100000 (USB4C02835)
Spectra Averaged: 1 (USB4C02835)
Boxcar Smoothing: 0 (USB4C02835)
Correct for Electrical Dark: No (USB4C02835)
Strobe/Lamp Enabled: No (USB4C02835)
Correct for Detector Non-linearity: No (USB4C02835)
Correct for Stray Light: No (USB4C02835)
Number of Pixels in Processed Spectrum: 3648
>>>>>Begin Processed Spectral Data<<<<<
177.47	1533.93
177.69	1533.93
177.91	1533.93
178.13	1466.35
178.36	1525.74
178.58	1632.23
178.80	1710.05
179.02	1624.04
179.24	1714.15
179.46	1675.24
179.68	1816.55
179.90	1685.48
180.13	1740.77
180.35	1671.14
180.57	1728.49
180.79	1708.01
181.01	1761.25
181.23	1767.40
181.45	1773.54
181.67	1701.86
181.90	1804.26
182.12	1726.44
182.34	1667.05
182.56	1734.63
182.78	1720.29
183.00	1681.38
183.22	1804.26
183.44	1576.94
183.66	1834.98
183.89	1830.88
184.11	1765.35
184.33	1728.49
184.55	1808.36
184.77	1705.96
184.99	1771.49
185.21	1751.01
185.43	1810.40
185.65	1646.57
185.87	1705.96
186.10	1800.16
186.32	1869.80
186.54	1669.09
186.76	1730.53
186.98	1755.11
187.20	1718.25
187.42	1705.96
187.64	1720.29
187.86	1650.66
188.08	1751.01
188.30	1665.00
188.52	1791.97
188.75	1787.88
188.97	1751.01
189.19	1693.67
189.41	1660.90
189.63	1730.53
189.85	1648.61
190.07	1650.66
190.29	1648.61
190.51	1687.53
190.73	1660.90
190.95	1769.44
191.17	1738.73
191.39	1599.46
191.61	1712.10
191.84	1665.00
192.06	1757.16
192.28	1583.08
192.50	1939.43
192.72	1740.77
192.94	1675.24
193.16	1843.17
193.38	1740.77
193.60	1654.76
193.82	1695.72
194.04	1720.29
194.26	1783.78
194.48	1693.67
194.70	1716.20
194.92	1683.43
195.14	1787.88
195.36	1691.62
195.58	1714.15
195.80	1697.77
196.02	1691.62
196.24	1671.14
196.46	1701.86
196.69	1656.81
196.91	1863.65
197.13	1687.53
197.35	1665.00
197.57	1804.26
197.79	1742.82
198.01	1695.72
198.23	1796.07
198.45	1732.58
198.67	1617.90
198.89	1701.86
199.11	1748.97
199.33	1736.68
199.55	1597.42
199.77	1675.24
199.99	1734.63
200.21	1708.01
200.43	1716.20
200.65	1644.52
200.87	1589.22
201.09	1693.67
201.31	1779.68
201.53	1867.75
201.75	1736.68
201.97	1773.54
202.19	1689.57
202.41	1740.77
202.63	1800.16
202.85	1716.20
203.07	1730.53
203.29	1718.25
203.51	1685.48
203.73	1705.96
203.95	1779.68
204.17	1724.39
204.39	1716.20
204.61	1722.34
204.83	1724.39
205.05	1693.67
205.27	1767.40
205.49	1849.32
205.71	1769.44
205.93	1722.34
206.15	1665.00
206.37	1736.68
206.59	1742.82
206.81	1626.09
207.03	1679.33
207.25	1697.77
207.47	1732.58
207.69	1697.77
207.91	1820.64
208.13	1759.21
208.34	1689.57
208.56	1740.77
208.78	1798.12
209.00	1718.25
209.22	1720.29
209.44	1736.68
209.66	1634.28
209.88	1656.81
210.10	1710.05
210.32	1705.96
210.54	1722.34
210.76	1667.05
210.98	1712.10
211.20	1597.42
211.42	1714.15
211.64	1798.12
211.86	1775.59
212.08	1703.91
212.30	1771.49
212.52	1609.70
212.74	1855.46
212.96	1785.83
213.17	1787.88
213.39	1722.34
213.61	1798.12
213.83	1636.33
214.05	1662.95
214.27	1726.44
214.49	1730.53
214.71	1746.92
214.93	1798.12
215.15	1718.25
215.37	1753.06
215.59	1593.32
215.81	1812.45
216.03	1734.63
216.24	1722.34
216.46	1744.87
216.68	1755.11
216.90	1656.81
217.12	1724.39
217.34	1708.01
217.56	1755.11
217.78	1794.02
218.00	1738.73
218.22	1738.73
218.44	1736.68
218.66	1685.48
218.87	1806.31
219.09	1796.07
219.31	1667.05
219.53	1714.15
219.75	1708.01
219.97	1662.95
220.19	1746.92
220.41	1724.39
220.63	1820.64
220.85	1769.44
221.06	1689.57
221.28	1763.30
221.50	1757.16
221.72	1718.25
221.94	1693.67
222.16	1753.06
222.38	1691.62
222.60	1810.40
222.82	1734.63
223.03	1763.30
223.25	1599.46
223.47	1783.78
223.69	1828.84
223.91	1740.77
224.13	1693.67
224.35	1648.61
224.57	1699.81
224.78	1736.68
225.00	1667.05
225.22	1673.19
225.44	1691.62
225.66	1757.16
225.88	1701.86
226.10	1785.83
226.32	1712.10
226.53	1767.40
226.75	1710.05
226.97	1697.77
227.19	1656.81
227.41	1720.29
227.63	1611.75
227.85	1675.24
228.06	1775.59
228.28	1767.40
228.50	1761.25
228.72	1683.43
228.94	1705.96
229.16	1636.33
229.37	1712.10
229.59	1695.72
229.81	1808.36
230.03	1699.81
230.25	1626.09
230.47	1695.72
230.69	1646.57
230.90	1796.07
231.12	1634.28
231.34	1673.19
231.56	1705.96
231.78	1693.67
232.00	1697.77
232.21	1712.10
232.43	1656.81
232.65	1562.60
232.87	1718.25
233.09	1646.57
233.30	1640.42
233.52	1822.69
233.74	1677.29
233.96	1732.58
234.18	1720.29
234.40	1687.53
234.61	1892.32
234.83	1638.38
235.05	1624.04
235.27	1808.36
235.49	1900.52
235.70	1748.97
235.92	1812.45
236.14	1654.76
236.36	1818.60
236.58	1632.23
236.79	1714.15
237.01	1744.87
237.23	1648.61
237.45	1734.63
237.67	1742.82
237.88	1726.44
238.10	1791.97
238.32	1681.38
238.54	1730.53
238.76	1724.39
238.97	1691.62
239.19	1681.38
239.41	1783.78
239.63	1779.68
239.85	1708.01
240.06	1703.91
240.28	1755.11
240.50	1740.77
240.72	1738.73
240.93	1748.97
241.15	1810.40
241.37	1701.86
241.59	1757.16
241.81	1673.19
242.02	1742.82
242.24	1787.88
242.46	1773.54
242.68	1636.33
242.89	1837.03
243.11	1751.01
243.33	1665.00
243.55	1742.82
243.76	1650.66
243.98	1718.25
244.20	1691.62
244.42	1642.47
244.64	1691.62
244.85	1677.29
245.07	1675.24
245.29	1652.71
245.51	1695.72
245.72	1738.73
245.94	1730.53
246.16	1761.25
246.38	1800.16
246.59	1648.61
246.81	1591.27
247.03	1779.68
247.24	1630.18
247.46	1697.77
247.68	1748.97
247.90	1626.09
248.11	1671.14
248.33	1787.88
248.55	1791.97
248.77	1763.30
248.98	1673.19
249.20	1841.12
249.42	1687.53
249.64	1708.01
249.85	1748.97
250.07	1689.57
250.29	1808.36
250.50	1734.63
250.72	1615.85
250.94	1714.15
251.16	1769.44
251.37	1814.50
251.59	1755.11
251.81	1740.77
252.02	1763.30
252.24	1710.05
252.46	1775.59
252.68	1656.81
252.89	1675.24
253.11	1599.46
253.33	1798.12
253.54	1810.40
253.76	1585.13
253.98	1642.47
254.20	1720.29
254.41	1646.57
254.63	1781.73
254.85	1630.18
255.06	1685.48
255.28	1796.07
255.50	1695.72
255.71	1628.14
255.93	1665.00
256.15	1650.66
256.36	1767.40
256.58	1736.68
256.80	1718.25
257.02	1636.33
257.23	1701.86
257.45	1712.10
257.67	1755.11
257.88	1693.67
258.10	1703.91
258.32	1820.64
258.53	1691.62
258.75	1847.27
258.97	1740.77
259.18	1712.10
259.40	1673.19
259.62	1802.21
259.83	1765.35
260.05	1763.30
260.27	1957.86
260.48	1820.64
260.70	1691.62
260.92	1679.33
261.13	1779.68
261.35	1755.11
261.57	1755.11
261.78	1626.09
262.00	1660.90
262.22	1730.53
262.43	1701.86
262.65	1677.29
262.86	1675.24
263.08	1859.56
263.30	1642.47
263.51	1689.57
263.73	1724.39
263.95	1746.92
264.16	1626.09
264.38	1687.53
264.60	1722.34
264.81	1738.73
265.03	1705.96
265.25	1783.78
265.46	1658.85
265.68	1730.53
265.89	1687.53
266.11	1619.94
266.33	1753.06
266.54	1748.97
266.76	1759.21
266.98	1720.29
267.19	1765.35
267.41	1773.54
267.62	1779.68
267.84	1619.94
268.06	1730.53
268.27	1693.67
268.49	1767.40
268.70	1705.96
268.92	1701.86
269.14	1685.48
269.35	1671.14
269.57	1681.38
269.79	1787.88
270.00	1654.76
270.22	1755.11
270.43	1648.61
270.65	1642.47
270.87	1712.10
271.08	1726.44
271.30	1732.58
271.51	1697.77
271.73	1751.01
271.95	1787.88
272.16	1777.64
272.38	1728.49
272.59	1722.34
272.81	1751.01
273.02	1765.35
273.24	1683.43
273.46	1800.16
273.67	1648.61
273.89	1636.33
274.10	1658.85
274.32	1767.40
274.54	1714.15
274.75	1796.07
274.97	1662.95
275.18	1736.68
275.40	1800.16
275.61	1746.92
275.83	1708.01
276.05	1675.24
276.26	1621.99
276.48	1791.97
276.69	1652.71
276.91	1648.61
277.12	1738.73
277.34	1740.77
277.55	1730.53
277.77	1724.39
277.99	1648.61
278.20	1695.72
278.42	1685.48
278.63	1660.90
278.85	1691.62
279.06	1597.42
279.28	1722.34
279.49	1748.97
279.71	1732.58
279.93	1763.30
280.14	1728.49
280.36	1701.86
280.57	1765.35
280.79	1783.78
281.00	1634.28
281.22	1671.14
281.43	1771.49
281.65	1548.26
281.86	1634.28
282.08	1708.01
282.29	1828.84
282.51	1693.67
282.73	1730.53
282.94	1679.33
283.16	1787.88
283.37	1832.93
283.59	1701.86
283.80	1736.68
284.02	1677.29
284.23	1712.10
284.45	1822.69
284.66	1665.00
284.88	1681.38
285.09	1724.39
285.31	1728.49
285.52	1697.77
285.74	1667.05
285.95	1751.01
286.17	1734.63
286.38	1791.97
286.60	1720.29
286.81	1761.25
287.03	1644.52
287.24	1677.29
287.46	1738.73
287.67	1828.84
287.89	1785.83
288.10	1794.02
288.32	1736.68
288.53	1832.93
288.75	1705.96
288.96	1728.49
289.18	1746.92
289.39	1689.57
289.61	1775.59
289.82	1787.88
290.04	1730.53
290.25	1578.98
290.47	1755.11
290.68	1705.96
290.90	1761.25
291.11	1636.33
291.33	1712.10
291.54	1621.99
291.76	1710.05
291.97	1781.73
292.18	1740.77
292.40	1681.38
292.61	1705.96
292.83	1796.07
293.04	1726.44
293.26	1765.35
293.47	1695.72
293.69	1716.20
293.90	1716.20
294.12	1763.30
294.33	1734.63
294.55	1683.43
294.76	1828.84
294.97	1763.30
295.19	1824.74
295.40	1701.86
295.62	1728.49
295.83	1773.54
296.05	1669.09
296.26	1798.12
296.48	1605.61
296.69	1650.66
296.90	1726.44
297.12	1763.30
297.33	1759.21
297.55	1656.81
297.76	1744.87
297.98	1753.06
298.19	1738.73
298.41	1693.67
298.62	1708.01
298.83	1761.25
299.05	1765.35
299.26	1652.71
299.48	1681.38
299.69	1667.05
299.90	1695.72
300.12	1642.47
300.33	1761.25
300.55	1675.24
300.76	1787.88
300.98	1669.09
301.19	1771.49
301.40	1677.29
301.62	1724.39
301.83	1675.24
302.05	1785.83
302.26	1759.21
302.47	1677.29
302.69	1636.33
302.90	1699.81
303.12	1624.04
303.33	1738.73
303.54	1781.73
303.76	1634.28
303.97	1736.68
304.19	1820.64
304.40	1613.80
304.61	1746.92
304.83	1718.25
305.04	1761.25
305.26	1769.44
305.47	1609.70
305.68	1736.68
305.90	1693.67
306.11	1720.29
306.33	1734.63
306.54	1679.33
306.75	1660.90
306.97	1576.94
307.18	1691.62
307.39	1695.72
307.61	1695.72
307.82	1665.00
308.04	1701.86
308.25	1673.19
308.46	1708.01
308.68	1765.35
308.89	1689.57
309.10	1820.64
309.32	1826.79
309.53	1701.86
309.74	1742.82
309.96	1693.67
310.17	1787.88
310.39	1705.96
310.60	1796.07
310.81	1746.92
311.03	1648.61
311.24	1826.79
311.45	1736.68
311.67	1855.46
311.88	1794.02
312.09	1642.47
312.31	1726.44
312.52	1687.53
312.73	1724.39
312.95	1662.95
313.16	1720.29
313.37	1783.78
313.59	1753.06
313.80	1779.68
314.01	1746.92
314.23	1730.53
314.44	1736.68
314.65	1634.28
314.87	1660.90
315.08	1630.18
315.29	1652.71
315.51	1665.00
315.72	1611.75
315.93	1873.89
316.15	1755.11
316.36	1654.76
316.57	1683.43
316.79	1767.40
317.00	1617.90
317.21	1685.48
317.43	1691.62
317.64	1742.82
317.85	1650.66
318.07	1689.57
318.28	1798.12
318.49	1794.02
318.70	1951.71
318.92	1834.98
319.13	1837.03
319.34	1816.55
319.56	1789.92
319.77	1751.01
319.98	1763.30
320.20	1810.40
320.41	1751.01
320.62	1775.59
320.83	1687.53
321.05	1794.02
321.26	1826.79
321.47	1658.85
321.69	1761.25
321.90	1611.75
322.11	1712.10
322.32	1665.00
322.54	1853.41
322.75	1701.86
322.96	1800.16
323.18	1619.94
323.39	1619.94
323.60	1681.38
323.81	1775.59
324.03	1722.34
324.24	1732.58
324.45	1777.64
324.66	1697.77
324.88	1771.49
325.09	1779.68
325.30	1626.09
325.52	1708.01
325.73	1751.01
325.94	1642.47
326.15	1650.66
326.37	1710.05
326.58	1810.40
326.79	1830.88
327.00	1624.04
327.22	1662.95
327.43	1724.39
327.64	1665.00
327.85	1689.57
328.07	1794.02
328.28	1810.40
328.49	1730.53
328.70	1650.66
328.92	1710.05
329.13	1681.38
329.34	1697.77
329.55	1759.21
329.76	1845.22
329.98	1691.62
330.19	1791.97
330.40	1716.20
330.61	1632.23
330.83	1697.77
331.04	1726.44
331.25	1656.81
331.46	1683.43
331.68	1628.14
331.89	1785.83
332.10	1722.34
332.31	1609.70
332.52	1626.09
332.74	1769.44
332.95	1640.42
333.16	1677.29
333.37	1716.20
333.58	1710.05
333.80	1720.29
334.01	1632.23
334.22	1665.00
334.43	1722.34
334.64	1654.76
334.86	1617.90
335.07	1683.43
335.28	1769.44
335.49	1660.90
335.70	1769.44
335.92	1757.16
336.13	1818.60
336.34	1730.53
336.55	1689.57
336.76	1742.82
336.98	1724.39
337.19	1699.81
337.40	1763.30
337.61	1855.46
337.82	1593.32
338.04	1771.49
338.25	1626.09
338.46	1640.42
338.67	1748.97
338.88	1662.95
339.09	1665.00
339.31	1705.96
339.52	1636.33
339.73	1646.57
339.94	1656.81
340.15	1757.16
340.36	1660.90
340.58	1800.16
340.79	1679.33
341.00	1785.83
341.21	1683.43
341.42	1802.21
341.63	1665.00
341.85	1763.30
342.06	1746.92
342.27	1699.81
342.48	1753.06
342.69	1634.28
342.90	1734.63
343.12	1798.12
343.33	1693.67
343.54	1773.54
343.75	1796.07
343.96	1712.10
344.17	1669.09
344.38	1646.57
344.60	1685.48
344.81	1626.09
345.02	1656.81
345.23	1800.16
345.44	1826.79
345.65	1775.59
345.86	1759.21
346.07	1644.52
346.29	1662.95
346.50	1775.59
346.71	1722.34
346.92	1804.26
347.13	1898.47
347.34	1662.95
347.55	1744.87
347.76	1683.43
347.98	1685.48
348.19	1689.57
348.40	1796.07
348.61	1646.57
348.82	1757.16
349.03	1683.43
349.24	1675.24
349.45	1841.12
349.66	1654.76
349.88	1681.38
350.09	1673.19
350.30	1806.31
350.51	1681.38
350.72	1757.16
350.93	1720.29
351.14	1712.10
351.35	1773.54
351.56	1751.01
351.77	1748.97
351.99	1785.83
352.20	1744.87
352.41	1757.16
352.62	1681.38
352.83	1730.53
353.04	1689.57
353.25	1775.59
353.46	1781.73
353.67	1757.16
353.88	1619.94
354.09	1789.92
354.30	1679.33
354.52	1722.34
354.73	1712.10
354.94	1699.81
355.15	1710.05
355.36	1867.75
355.57	1611.75
355.78	1779.68
355.99	1609.70
356.20	1656.81
356.41	1730.53
356.62	1730.53
356.83	1712.10
357.04	1789.92
357.25	1632.23
357.46	1720.29
357.68	1632.23
357.89	1744.87
358.10	1701.86
358.31	1646.57
358.52	1640.42
358.73	1626.09
358.94	1646.57
359.15	1712.10
359.36	1738.73
359.57	1738.73
359.78	1785.83
359.99	1726.44
360.20	1656.81
360.41	1738.73
360.62	1718.25
360.83	1748.97
361.04	1779.68
361.25	1689.57
361.46	1818.60
361.67	1771.49
361.88	1771.49
362.09	1794.02
362.30	1738.73
362.51	1730.53
362.72	1779.68
362.93	1730.53
363.14	1738.73
363.35	1779.68
363.56	1662.95
363.78	1785.83
363.99	1777.64
364.20	1648.61
364.41	1753.06
364.62	1863.65
364.83	1757.16
365.04	1703.91
365.25	1738.73
365.46	1863.65
365.67	1660.90
365.88	1576.94
366.09	1675.24
366.30	1646.57
366.51	1744.87
366.72	1691.62
366.93	1656.81
367.14	1703.91
367.35	1755.11
367.56	1632.23
367.77	1783.78
367.98	1695.72
368.18	1771.49
368.39	1751.01
368.60	1650.66
368.81	1675.24
369.02	1738.73
369.23	1746.92
369.44	1617.90
369.65	1701.86
369.86	1744.87
370.07	1736.68
370.28	1626.09
370.49	1781.73
370.70	1734.63
370.91	1603.56
371.12	1607.66
371.33	1806.31
371.54	1751.01
371.75	1800.16
371.96	1576.94
372.17	1720.29
372.38	1714.15
372.59	1779.68
372.80	1669.09
373.01	1701.86
373.22	1740.77
373.43	1753.06
373.64	1658.85
373.85	1845.22
374.06	1798.12
374.26	1804.26
374.47	1734.63
374.68	1847.27
374.89	1722.34
375.10	1701.86
375.31	1773.54
375.52	1720.29
375.73	1779.68
375.94	1621.99
376.15	1791.97
376.36	1693.67
376.57	1660.90
376.78	1679.33
376.99	1728.49
377.20	1742.82
377.40	1675.24
377.61	1808.36
377.82	1712.10
378.03	1787.88
378.24	1787.88
378.45	1748.97
378.66	1726.44
378.87	1624.04
379.08	1677.29
379.29	1583.08
379.50	1787.88
379.71	1722.34
379.91	1730.53
380.12	1763.30
380.33	1681.38
380.54	1705.96
380.75	1714.15
380.96	1699.81
381.17	1804.26
381.38	1697.77
381.59	1720.29
381.80	1722.34
382.00	1849.32
382.21	1701.86
382.42	1785.83
382.63	1902.56
382.84	1720.29
383.05	1740.77
383.26	1808.36
383.47	1763.30
383.68	1765.35
383.88	1718.25
384.09	1757.16
384.30	1753.06
384.51	1746.92
384.72	1638.38
384.93	1673.19
385.14	1710.05
385.35	1746.92
385.55	1701.86
385.76	1804.26
385.97	1693.67
386.18	1615.85
386.39	1765.35
386.60	1730.53
386.81	1742.82
387.02	1630.18
387.22	1679.33
387.43	1765.35
387.64	1820.64
387.85	1882.08
388.06	2234.33
388.27	4132.80
388.48	6612.89
388.68	8142.72
388.89	9478.00
389.10	9705.32
389.31	8533.89
389.52	7376.78
389.73	6774.68
389.93	6168.48
390.14	5703.59
390.35	4978.61
390.56	4495.29
390.77	3864.52
390.98	3041.23
391.18	2490.33
391.39	2185.18
391.60	1863.65
391.81	1779.68
392.02	1675.24
392.23	1892.32
392.43	1699.81
392.64	1771.49
392.85	1757.16
393.06	1755.11
393.27	1722.34
393.47	1650.66
393.68	1742.82
393.89	1685.48
394.10	1687.53
394.31	1562.60
394.52	1595.37
394.72	1665.00
394.93	1777.64
395.14	1636.33
395.35	1791.97
395.56	1720.29
395.76	1759.21
395.97	1724.39
396.18	1839.08
396.39	1828.84
396.60	2074.59
396.80	1804.26
397.01	1779.68
397.22	1859.56
397.43	1843.17
397.64	1748.97
397.84	1806.31
398.05	1914.85
398.26	1771.49
398.47	1808.36
398.67	1820.64
398.88	1779.68
399.09	1738.73
399.30	1675.24
399.51	1748.97
399.71	1677.29
399.92	1781.73
400.13	1734.63
400.34	1779.68
400.54	1677.29
400.75	1837.03
400.96	1765.35
401.17	1798.12
401.37	1759.21
401.58	1675.24
401.79	1703.91
402.00	1902.56
402.21	1923.04
402.41	1937.38
402.62	1959.91
402.83	2017.25
403.04	2002.91
403.24	2099.17
403.45	1853.41
403.66	1923.04
403.87	1841.12
404.07	1884.13
404.28	1978.34
404.49	1931.23
404.70	1841.12
404.90	1810.40
405.11	1759.21
405.32	1736.68
405.52	1679.33
405.73	1728.49
405.94	1662.95
406.15	1730.53
406.35	1724.39
406.56	1765.35
406.77	1800.16
406.98	1724.39
407.18	1714.15
407.39	1847.27
407.60	1687.53
407.80	1744.87
408.01	1679.33
408.22	1722.34
408.43	1718.25
408.63	1699.81
408.84	1759.21
409.05	1710.05
409.25	1617.90
409.46	1716.20
409.67	1681.38
409.88	1669.09
410.08	1775.59
410.29	1708.01
410.50	1742.82
410.70	1742.82
410.91	1621.99
411.12	1658.85
411.32	1761.25
411.53	1640.42
411.74	1857.51
411.95	1769.44
412.15	1710.05
412.36	1826.79
412.57	1693.67
412.77	1802.21
412.98	1779.68
413.19	1671.14
413.39	1757.16
413.60	1785.83
413.81	1847.27
414.01	1708.01
414.22	1689.57
414.43	1726.44
414.63	1736.68
414.84	1779.68
415.05	1714.15
415.25	1665.00
415.46	1779.68
415.67	1687.53
415.87	1773.54
416.08	1708.01
416.29	1679.33
416.49	1746.92
416.70	1705.96
416.91	1697.77
417.11	1693.67
417.32	1734.63
417.53	1789.92
417.73	1751.01
417.94	1677.29
418.15	1728.49
418.35	1712.10
418.56	1734.63
418.77	1931.23
418.97	1683.43
419.18	1724.39
419.38	1712.10
419.59	1697.77
419.80	1826.79
420.00	1769.44
420.21	1658.85
420.42	1800.16
420.62	1726.44
420.83	1671.14
421.04	1634.28
421.24	1656.81
421.45	1748.97
421.65	1748.97
421.86	1714.15
422.07	1748.97
422.27	1757.16
422.48	1738.73
422.69	1619.94
422.89	1759.21
423.10	1609.70
423.30	1701.86
423.51	1705.96
423.72	1730.53
423.92	1779.68
424.13	1607.66
424.33	1816.55
424.54	1800.16
424.75	1685.48
424.95	1826.79
425.16	1757.16
425.36	1718.25
425.57	1824.74
425.78	1751.01
425.98	1834.98
426.19	1689.57
426.39	1701.86
426.60	1742.82
426.81	1759.21
427.01	1787.88
427.22	1656.81
427.42	1660.90
427.63	1730.53
427.83	1703.91
428.04	1855.46
428.25	1816.55
428.45	1724.39
428.66	1773.54
428.86	1667.05
429.07	1705.96
429.28	1763.30
429.48	1720.29
429.69	1763.30
429.89	1755.11
430.10	1687.53
430.30	1769.44
430.51	1773.54
430.71	1718.25
430.92	1708.01
431.13	1675.24
431.33	1740.77
431.54	1681.38
431.74	1865.70
431.95	1832.93
432.15	1689.57
432.36	1734.63
432.56	1791.97
432.77	1787.88
432.98	1820.64
433.18	1699.81
433.39	1640.42
433.59	1748.97
433.80	1816.55
434.00	1920.99
434.21	1724.39
434.41	1683.43
434.62	1861.60
434.82	1642.47
435.03	1656.81
435.23	1769.44
435.44	1648.61
435.64	1779.68
435.85	1777.64
436.06	1787.88
436.26	1712.10
436.47	1687.53
436.67	1718.25
436.88	1697.77
437.08	1728.49
437.29	1771.49
437.49	1759.21
437.70	1714.15
437.90	1738.73
438.11	1882.08
438.31	1787.88
438.52	1859.56
438.72	1869.80
438.93	1902.56
439.13	1791.97
439.34	1826.79
439.54	1681.38
439.75	1859.56
439.95	1798.12
440.16	1738.73
440.36	1716.20
440.57	1765.35
440.77	1730.53
440.98	1697.77
441.18	1773.54
441.39	1693.67
441.59	1654.76
441.80	1886.18
442.00	1746.92
442.21	1763.30
442.41	1710.05
442.62	1767.40
442.82	1771.49
443.02	1755.11
443.23	1726.44
443.43	1697.77
443.64	1787.88
443.84	1728.49
444.05	1791.97
444.25	1708.01
444.46	1794.02
444.66	1808.36
444.87	1781.73
445.07	1683.43
445.28	1714.15
445.48	1826.79
445.69	1771.49
445.89	1898.47
446.09	1736.68
446.30	2052.06
446.50	2594.78
446.71	3655.62
446.91	4208.58
447.12	4708.28
447.32	4763.58
447.53	4339.65
447.73	3821.51
447.93	3493.83
448.14	3313.61
448.34	3160.02
448.55	2944.98
448.75	2846.68
448.96	2686.94
449.16	2465.75
449.36	2232.29
449.57	2041.82
449.77	1992.67
449.98	1785.83
450.18	1843.17
450.39	1843.17
450.59	1751.01
450.79	1763.30
451.00	1673.19
451.20	1804.26
451.41	1675.24
451.61	1824.74
451.81	1744.87
452.02	1734.63
452.22	1669.09
452.43	1748.97
452.63	1777.64
452.84	1755.11
453.04	1769.44
453.24	1828.84
453.45	1683.43
453.65	1689.57
453.86	1773.54
454.06	1746.92
454.26	1804.26
454.47	1722.34
454.67	1814.50
454.87	1796.07
455.08	1738.73
455.28	1859.56
455.49	1773.54
455.69	1773.54
455.89	1920.99
456.10	1812.45
456.30	1779.68
456.51	1853.41
456.71	1787.88
456.91	1773.54
457.12	1726.44
457.32	1755.11
457.52	1679.33
457.73	1804.26
457.93	1765.35
458.14	1779.68
458.34	1734.63
458.54	1781.73
458.75	1714.15
458.95	1732.58
459.15	1714.15
459.36	1689.57
459.56	1802.21
459.76	1877.99
459.97	1798.12
460.17	1738.73
460.37	1800.16
460.58	1687.53
460.78	1800.16
460.99	1654.76
461.19	1759.21
461.39	1728.49
461.60	1757.16
461.80	1775.59
462.00	1669.09
462.21	1740.77
462.41	1742.82
462.61	1671.14
462.82	1689.57
463.02	1755.11
463.22	1738.73
463.43	1789.92
463.63	1763.30
463.83	1834.98
464.04	1779.68
464.24	1744.87
464.44	1697.77
464.64	1712.10
464.85	1787.88
465.05	1824.74
465.25	1777.64
465.46	1724.39
465.66	1761.25
465.86	1775.59
466.07	1761.25
466.27	1675.24
466.47	1695.72
466.68	1675.24
466.88	1910.75
467.08	1738.73
467.29	1748.97
467.49	1806.31
467.69	1708.01
467.89	1728.49
468.10	1697.77
468.30	1746.92
468.50	1808.36
468.71	1742.82
468.91	1626.09
469.11	1818.60
469.31	1744.87
469.52	1732.58
469.72	1787.88
469.92	1902.56
470.13	1722.34
470.33	1783.78
470.53	1802.21
470.73	2156.51
470.94	2260.96
471.14	2336.73
471.34	2486.23
471.54	2316.25
471.75	2260.96
471.95	2131.94
472.15	2086.88
472.36	2043.87
472.56	2074.59
472.76	2029.54
472.96	1998.82
473.17	1990.63
473.37	1804.26
473.57	1785.83
473.77	1861.60
473.98	1714.15
474.18	1697.77
474.38	1912.80
474.58	1685.48
474.79	1705.96
474.99	1785.83
475.19	1767.40
475.39	1646.57
475.60	1884.13
475.80	1724.39
476.00	1701.86
476.20	1724.39
476.41	1755.11
476.61	1845.22
476.81	1738.73
477.01	1601.51
477.21	1867.75
477.42	1820.64
477.62	1626.09
477.82	1748.97
478.02	1738.73
478.23	1763.30
478.43	1708.01
478.63	1685.48
478.83	1720.29
479.03	1669.09
479.24	1757.16
479.44	1841.12
479.64	1673.19
479.84	1656.81
480.04	1701.86
480.25	1853.41
480.45	1701.86
480.65	1720.29
480.85	1785.83
481.06	1656.81
481.26	1777.64
481.46	1794.02
481.66	1718.25
481.86	1708.01
482.06	1753.06
482.27	1732.58
482.47	1771.49
482.67	1789.92
482.87	1695.72
483.07	1794.02
483.28	1656.81
483.48	1658.85
483.68	1701.86
483.88	1640.42
484.08	1638.38
484.29	1705.96
484.49	1755.11
484.69	1656.81
484.89	1789.92
485.09	1769.44
485.29	1804.26
485.50	1751.01
485.70	1687.53
485.90	1855.46
486.10	1810.40
486.30	1751.01
486.50	1841.12
486.71	1732.58
486.91	1794.02
487.11	1867.75
487.31	1652.71
487.51	1726.44
487.71	1673.19
487.91	1720.29
488.12	1634.28
488.32	1566.70
488.52	1738.73
488.72	1677.29
488.92	1708.01
489.12	1808.36
489.32	1781.73
489.53	1808.36
489.73	1650.66
489.93	1841.12
490.13	1759.21
490.33	1658.85
490.53	1755.11
490.73	1812.45
490.94	1642.47
491.14	1843.17
491.34	1918.95
491.54	2064.35
491.74	2506.71
491.94	2897.88
492.14	3002.32
492.34	2901.97
492.54	2682.84
492.75	2512.86
492.95	2406.36
493.15	2396.12
493.35	2285.53
493.55	2238.43
493.75	2164.70
493.95	2152.42
494.15	2000.87
494.35	1920.99
494.56	1789.92
494.76	1832.93
494.96	1757.16
495.16	1869.80
495.36	1734.63
495.56	1730.53
495.76	1693.67
495.96	1763.30
496.16	1640.42
496.36	1857.51
496.56	1798.12
496.77	1765.35
496.97	1775.59
497.17	1791.97
497.37	1697.77
497.57	1769.44
497.77	1791.97
497.97	1630.18
498.17	1812.45
498.37	1777.64
498.57	1796.07
498.77	1720.29
498.97	1740.77
499.17	1849.32
499.38	1744.87
499.58	1820.64
499.78	1783.78
499.98	1783.78
500.18	1724.39
500.38	1736.68
500.58	1970.15
500.78	2588.63
500.98	4440.00
501.18	5625.77
501.38	6637.47
501.58	6938.52
501.78	6680.47
501.98	5515.18
502.18	4884.41
502.38	4380.61
502.58	3997.64
502.78	3786.69
502.98	3555.27
503.18	3450.83
503.38	3233.74
503.59	2779.09
503.79	2723.80
503.99	2451.42
504.19	2222.05
504.39	2203.61
504.59	2215.90
504.79	2133.98
504.99	2054.11
505.19	1914.85
505.39	1914.85
505.59	2004.96
505.79	1912.80
505.99	1853.41
506.19	1769.44
506.39	1853.41
506.59	1703.91
506.79	1830.88
506.99	1853.41
507.19	1751.01
507.39	1744.87
507.59	1716.20
507.79	1742.82
507.99	1615.85
508.19	1687.53
508.39	1697.77
508.59	1722.34
508.79	1660.90
508.99	1886.18
509.19	1742.82
509.39	1705.96
509.59	1716.20
509.79	1738.73
509.99	1751.01
510.19	1869.80
510.39	1787.88
510.59	1714.15
510.79	1728.49
510.99	1673.19
511.19	1771.49
511.39	1832.93
511.59	1789.92
511.79	1824.74
511.99	1675.24
512.19	1771.49
512.38	1730.53
512.58	1804.26
512.78	1695.72
512.98	1806.31
513.18	1828.84
513.38	1710.05
513.58	1783.78
513.78	1648.61
513.98	1724.39
514.18	1669.09
514.38	1712.10
514.58	1734.63
514.78	1708.01
514.98	1650.66
515.18	1722.34
515.38	1705.96
515.58	1863.65
515.78	1757.16
515.98	1726.44
516.18	1724.39
516.38	1763.30
516.57	1740.77
516.77	1744.87
516.97	1781.73
517.17	1675.24
517.37	1673.19
517.57	1759.21
517.77	1677.29
517.97	1689.57
518.17	1787.88
518.37	1689.57
518.57	1644.52
518.77	1716.20
518.97	1738.73
519.16	1765.35
519.36	1755.11
519.56	1712.10
519.76	1685.48
519.96	1705.96
520.16	1828.84
520.36	1691.62
520.56	1830.88
520.76	1632.23
520.96	1697.77
521.16	1673.19
521.35	1826.79
521.55	1886.18
521.75	1789.92
521.95	1757.16
522.15	1746.92
522.35	1689.57
522.55	1714.15
522.75	1837.03
522.95	1677.29
523.14	1701.86
523.34	1806.31
523.54	1675.24
523.74	1779.68
523.94	1755.11
524.14	1654.76
524.34	1812.45
524.54	1810.40
524.73	1701.86
524.93	1748.97
525.13	1689.57
525.33	1712.10
525.53	1834.98
525.73	1746.92
525.93	1771.49
526.13	1810.40
526.32	1763.30
526.52	1783.78
526.72	1828.84
526.92	1736.68
527.12	1755.11
527.32	1673.19
527.52	1740.77
527.71	1755.11
527.91	1693.67
528.11	1726.44
528.31	1779.68
528.51	1699.81
528.71	1765.35
528.90	1763.30
529.10	1763.30
529.30	1798.12
529.50	1677.29
529.70	1777.64
529.90	1767.40
530.09	1824.74
530.29	1710.05
530.49	1628.14
530.69	1869.80
530.89	1681.38
531.09	1781.73
531.28	1701.86
531.48	1798.12
531.68	1734.63
531.88	1712.10
532.08	1855.46
532.28	1699.81
532.47	1808.36
532.67	1796.07
532.87	1777.64
533.07	1673.19
533.27	1791.97
533.46	1781.73
533.66	1812.45
533.86	1781.73
534.06	1763.30
534.26	1660.90
534.45	1728.49
534.65	1789.92
534.85	1767.40
535.05	1699.81
535.25	1808.36
535.44	1638.38
535.64	1710.05
535.84	1697.77
536.04	1796.07
536.24	1708.01
536.43	1740.77
536.63	1763.30
536.83	1687.53
537.03	1746.92
537.22	1636.33
537.42	1728.49
537.62	1660.90
537.82	1673.19
538.02	1851.36
538.21	1826.79
538.41	1869.80
538.61	1736.68
538.81	1695.72
539.00	1794.02
539.20	1714.15
539.40	1763.30
539.60	1734.63
539.79	1814.50
539.99	1714.15
540.19	1751.01
540.39	1703.91
540.58	1816.55
540.78	1857.51
540.98	1693.67
541.18	1710.05
541.37	1820.64
541.57	1738.73
541.77	1787.88
541.97	1626.09
542.16	1673.19
542.36	1658.85
542.56	1724.39
542.76	1841.12
542.95	1785.83
543.15	1814.50
543.35	1783.78
543.54	1759.21
543.74	1722.34
543.94	1910.75
544.14	1677.29
544.33	1748.97
544.53	1789.92
544.73	1734.63
544.93	1691.62
545.12	1810.40
545.32	1701.86
545.52	1718.25
545.71	1626.09
545.91	1722.34
546.11	1771.49
546.30	1673.19
546.50	1748.97
546.70	1812.45
546.90	1771.49
547.09	1642.47
547.29	1761.25
547.49	1724.39
547.68	1804.26
547.88	1755.11
548.08	1857.51
548.27	2263.01
548.47	1726.44
548.67	1718.25
548.87	1712.10
549.06	1697.77
549.26	1751.01
549.46	1681.38
549.65	1708.01
549.85	1855.46
550.05	1759.21
550.24	1638.38
550.44	1779.68
550.64	1810.40
550.83	1744.87
551.03	1857.51
551.23	1796.07
551.42	1730.53
551.62	1734.63
551.82	1771.49
552.01	1787.88
552.21	1896.42
552.41	1697.77
552.60	1845.22
552.80	1742.82
553.00	1722.34
553.19	1834.98
553.39	1791.97
553.59	1685.48
553.78	1867.75
553.98	1759.21
554.17	1669.09
554.37	1796.07
554.57	1722.34
554.76	1632.23
554.96	1697.77
555.16	1751.01
555.35	1718.25
555.55	1738.73
555.75	1718.25
555.94	1781.73
556.14	1669.09
556.33	1775.59
556.53	1759.21
556.73	1767.40
556.92	1777.64
557.12	1873.89
557.32	1839.08
557.51	1771.49
557.71	1767.40
557.90	1871.84
558.10	1873.89
558.30	1767.40
558.49	1710.05
558.69	1806.31
558.88	1789.92
559.08	1798.12
559.28	1765.35
559.47	1763.30
559.67	1767.40
559.86	1871.84
560.06	1824.74
560.26	1652.71
560.45	1802.21
560.65	1708.01
560.84	1849.32
561.04	1804.26
561.24	1761.25
561.43	1683.43
561.63	1853.41
561.82	1777.64
562.02	1753.06
562.22	1767.40
562.41	1746.92
562.61	1785.83
562.80	1710.05
563.00	1880.04
563.19	1789.92
563.39	1753.06
563.59	1724.39
563.78	1757.16
563.98	1630.18
564.17	1699.81
564.37	1630.18
564.56	1738.73
564.76	1681.38
564.96	1798.12
565.15	1789.92
565.35	1945.57
565.54	1701.86
565.74	1777.64
565.93	1785.83
566.13	1695.72
566.32	1841.12
566.52	1847.27
566.71	1730.53
566.91	1755.11
567.11	1824.74
567.30	1689.57
567.50	1718.25
567.69	1712.10
567.89	1718.25
568.08	1697.77
568.28	1748.97
568.47	1667.05
568.67	1751.01
568.86	1771.49
569.06	1841.12
569.25	1781.73
569.45	1673.19
569.64	1748.97
569.84	1800.16
570.04	1755.11
570.23	1767.40
570.43	1732.58
570.62	1841.12
570.82	1857.51
571.01	1656.81
571.21	1761.25
571.40	1722.34
571.60	1796.07
571.79	1798.12
571.99	1759.21
572.18	1753.06
572.38	1722.34
572.57	1771.49
572.77	1779.68
572.96	1826.79
573.16	1685.48
573.35	1755.11
573.55	1808.36
573.74	1812.45
573.94	1685.48
574.13	1763.30
574.33	1765.35
574.52	1843.17
574.71	1769.44
574.91	1808.36
575.10	1748.97
575.30	1771.49
575.49	1742.82
575.69	1687.53
575.88	1810.40
576.08	1728.49
576.27	1787.88
576.47	1845.22
576.66	1837.03
576.86	1845.22
577.05	1814.50
577.25	1781.73
577.44	1880.04
577.64	1736.68
577.83	1732.58
578.02	1644.52
578.22	1814.50
578.41	1871.84
578.61	1767.40
578.80	1673.19
579.00	1804.26
579.19	1773.54
579.39	1779.68
579.58	1775.59
579.77	1726.44
579.97	1804.26
580.16	1837.03
580.36	1787.88
580.55	1828.84
580.75	1830.88
580.94	1839.08
581.13	1871.84
581.33	1839.08
581.52	1660.90
581.72	1914.85
581.91	1841.12
582.11	1677.29
582.30	1796.07
582.49	1789.92
582.69	1791.97
582.88	1824.74
583.08	1685.48
583.27	1773.54
583.47	1742.82
583.66	1710.05
583.85	1787.88
584.05	1785.83
584.24	1830.88
584.44	1857.51
584.63	1855.46
584.82	1757.16
585.02	1794.02
585.21	1808.36
585.41	1818.60
585.60	1796.07
585.79	1992.67
585.99	1894.37
586.18	1861.60
586.37	2148.32
586.57	3375.05
586.76	9758.57
586.96	24106.64
587.15	33977.85
587.34	40281.50
587.54	41674.12
587.73	35904.99
587.93	26074.74
588.12	21065.41
588.31	18198.25
588.51	16119.56
588.70	15038.23
588.89	13733.68
589.09	12195.65
589.28	10825.56
589.47	9365.36
589.67	7761.80
589.86	6317.98
590.06	4755.38
590.25	3983.30
590.44	3061.71
590.64	2557.91
590.83	2215.90
591.02	2121.70
591.22	1927.14
591.41	1880.04
591.60	1822.69
591.80	1933.28
591.99	1814.50
592.18	1796.07
592.38	1826.79
592.57	1789.92
592.76	1814.50
592.96	1816.55
593.15	1699.81
593.34	1855.46
593.54	1759.21
593.73	1734.63
593.92	1814.50
594.12	1755.11
594.31	1763.30
594.50	1859.56
594.70	1841.12
594.89	1886.18
595.08	1685.48
595.28	1839.08
595.47	1845.22
595.66	1759.21
595.86	1708.01
596.05	1656.81
596.24	1751.01
596.43	1855.46
596.63	1826.79
596.82	1759.21
597.01	1740.77
597.21	1830.88
597.40	1748.97
597.59	1714.15
597.79	1759.21
597.98	1796.07
598.17	1775.59
598.36	1769.44
598.56	1736.68
598.75	1693.67
598.94	1705.96
599.14	1816.55
599.33	1677.29
599.52	1843.17
599.71	1818.60
599.91	1855.46
600.10	1775.59
600.29	1826.79
600.48	1744.87
600.68	1769.44
600.87	1734.63
601.06	1703.91
601.26	1789.92
601.45	1824.74
601.64	1693.67
601.83	1853.41
602.03	1771.49
602.22	1714.15
602.41	1841.12
602.60	1896.42
602.80	1822.69
602.99	1730.53
603.18	1789.92
603.37	1691.62
603.57	1781.73
603.76	1851.36
603.95	1748.97
604.14	1724.39
604.34	1714.15
604.53	1761.25
604.72	1744.87
604.91	1736.68
605.10	1753.06
605.30	1732.58
605.49	1877.99
605.68	1789.92
605.87	1757.16
606.07	1699.81
606.26	1671.14
606.45	1812.45
606.64	1755.11
606.84	1701.86
607.03	1689.57
607.22	1738.73
607.41	1665.00
607.60	1728.49
607.80	1740.77
607.99	1621.99
608.18	1781.73
608.37	1767.40
608.56	1767.40
608.76	1798.12
608.95	1841.12
609.14	1779.68
609.33	1810.40
609.52	1738.73
609.72	1740.77
609.91	1771.49
610.10	1730.53
610.29	1767.40
610.48	1722.34
610.68	1771.49
610.87	1662.95
611.06	1781.73
611.25	1710.05
611.44	1812.45
611.63	1665.00
611.83	1845.22
612.02	1710.05
612.21	1714.15
612.40	1650.66
612.59	1681.38
612.79	1710.05
612.98	1697.77
613.17	1849.32
613.36	1710.05
613.55	1800.16
613.74	1722.34
613.93	1771.49
614.13	1710.05
614.32	1763.30
614.51	1777.64
614.70	1736.68
614.89	1642.47
615.08	1738.73
615.28	1992.67
615.47	1716.20
615.66	1820.64
615.85	1714.15
616.04	1849.32
616.23	1775.59
616.42	1781.73
616.62	1703.91
616.81	1783.78
617.00	1708.01
617.19	1802.21
617.38	1679.33
617.57	1759.21
617.76	1726.44
617.95	1759.21
618.15	1777.64
618.34	1798.12
618.53	1681.38
618.72	1773.54
618.91	1894.37
619.10	1800.16
619.29	1730.53
619.48	1744.87
619.68	1718.25
619.87	1708.01
620.06	1746.92
620.25	1751.01
620.44	1703.91
620.63	1720.29
620.82	1726.44
621.01	1753.06
621.20	1679.33
621.39	1781.73
621.59	1769.44
621.78	1689.57
621.97	1712.10
622.16	1738.73
622.35	1718.25
622.54	1773.54
622.73	1853.41
622.92	1665.00
623.11	1765.35
623.30	1724.39
623.49	1826.79
623.68	1720.29
623.88	1824.74
624.07	1740.77
624.26	1759.21
624.45	1738.73
624.64	1742.82
624.83	1755.11
625.02	1687.53
625.21	1767.40
625.40	1685.48
625.59	1800.16
625.78	1726.44
625.97	1773.54
626.16	1787.88
626.35	1736.68
626.54	1730.53
626.74	1779.68
626.93	1701.86
627.12	1753.06
627.31	1714.15
627.50	1785.83
627.69	1794.02
627.88	1695.72
628.07	1716.20
628.26	1568.74
628.45	1730.53
628.64	1630.18
628.83	1714.15
629.02	1636.33
629.21	1742.82
629.40	1685.48
629.59	1732.58
629.78	1697.77
629.97	1734.63
630.16	1767.40
630.35	1753.06
630.54	1718.25
630.73	1695.72
630.92	1705.96
631.11	1697.77
631.30	1798.12
631.49	1718.25
631.68	1804.26
631.87	1763.30
632.06	1654.76
632.25	1851.36
632.44	1714.15
632.63	1781.73
632.82	1740.77
633.01	1744.87
633.20	1763.30
633.39	1662.95
633.58	1628.14
633.77	1732.58
633.96	1761.25
634.15	1773.54
634.34	1681.38
634.53	1759.21
634.72	1697.77
634.91	1681.38
635.10	1748.97
635.29	1818.60
635.48	1720.29
635.67	1722.34
635.86	1701.86
636.05	1816.55
636.24	1691.62
636.43	1734.63
636.62	1791.97
636.81	1572.84
637.00	1699.81
637.19	1779.68
637.38	1697.77
637.57	1728.49
637.76	1699.81
637.95	1710.05
638.14	1652.71
638.33	1677.29
638.52	1722.34
638.71	1675.24
638.89	1673.19
639.08	1830.88
639.27	1781.73
639.46	1705.96
639.65	1763.30
639.84	1755.11
640.03	1794.02
640.22	1757.16
640.41	1837.03
640.60	1705.96
640.79	1732.58
640.98	1732.58
641.17	1769.44
641.36	1691.62
641.55	1746.92
641.74	1660.90
641.92	1656.81
642.11	1714.15
642.30	1701.86
642.49	1673.19
642.68	1662.95
642.87	1830.88
643.06	1736.68
643.25	1677.29
643.44	1671.14
643.63	1695.72
643.82	1798.12
644.00	1619.94
644.19	1720.29
644.38	1710.05
644.57	1736.68
644.76	1785.83
644.95	1759.21
645.14	1705.96
645.33	1699.81
645.52	1648.61
645.71	1673.19
645.89	1705.96
646.08	1718.25
646.27	1734.63
646.46	1826.79
646.65	1701.86
646.84	1779.68
647.03	1675.24
647.22	1775.59
647.40	1808.36
647.59	1705.96
647.78	1669.09
647.97	1650.66
648.16	1716.20
648.35	1783.78
648.54	1798.12
648.73	1767.40
648.91	1736.68
649.10	1783.78
649.29	1613.80
649.48	1740.77
649.67	1710.05
649.86	1693.67
650.05	1679.33
650.23	1820.64
650.42	1710.05
650.61	1730.53
650.80	1718.25
650.99	1849.32
651.18	1824.74
651.36	1802.21
651.55	1728.49
651.74	1746.92
651.93	1757.16
652.12	1636.33
652.31	1753.06
652.49	1658.85
652.68	1722.34
652.87	1818.60
653.06	1671.14
653.25	1886.18
653.44	1742.82
653.62	1857.51
653.81	1781.73
654.00	1701.86
654.19	1787.88
654.38	1880.04
654.56	1669.09
654.75	1652.71
654.94	1777.64
655.13	1714.15
655.32	1673.19
655.51	1849.32
655.69	1710.05
655.88	1837.03
656.07	1660.90
656.26	1720.29
656.45	1630.18
656.63	1753.06
656.82	1755.11
657.01	1738.73
657.20	1726.44
657.38	1804.26
657.57	1701.86
657.76	1757.16
657.95	1712.10
658.14	1656.81
658.32	1720.29
658.51	1669.09
658.70	1697.77
658.89	1734.63
659.08	1728.49
659.26	1845.22
659.45	1591.27
659.64	1791.97
659.83	1730.53
660.01	1855.46
660.20	1716.20
660.39	1726.44
660.58	1568.74
660.76	1757.16
660.95	1619.94
661.14	1773.54
661.33	1650.66
661.51	1605.61
661.70	1740.77
661.89	1720.29
662.08	1763.30
662.26	1669.09
662.45	1634.28
662.64	1757.16
662.83	1775.59
663.01	1591.27
663.20	1732.58
663.39	1869.80
663.58	1722.34
663.76	1693.67
663.95	1722.34
664.14	1634.28
664.32	1615.85
664.51	1734.63
664.70	1630.18
664.89	1712.10
665.07	1648.61
665.26	1734.63
665.45	1642.47
665.64	1794.02
665.82	1716.20
666.01	1742.82
666.20	1650.66
666.38	1826.79
666.57	1873.89
666.76	2164.70
666.95	4573.11
667.13	10469.22
667.32	15109.91
667.51	17520.37
667.69	18761.44
667.88	17272.57
668.07	12109.64
668.25	9467.76
668.44	7868.30
668.63	7251.86
668.81	6784.92
669.00	6141.86
669.19	5523.37
669.38	5103.54
669.56	4489.15
669.75	3874.76
669.94	3446.73
670.12	2883.54
670.31	2506.71
670.50	2176.99
670.68	1984.48
670.87	1984.48
671.06	1845.22
671.24	1808.36
671.43	1849.32
671.62	1753.06
671.80	1697.77
671.99	1837.03
672.18	1701.86
672.36	1820.64
672.55	1771.49
672.74	1681.38
672.92	1677.29
673.11	1814.50
673.29	1656.81
673.48	1861.60
673.67	1714.15
673.85	1873.89
674.04	1669.09
674.23	1734.63
674.41	1867.75
674.60	1652.71
674.79	1648.61
674.97	1697.77
675.16	1751.01
675.34	1740.77
675.53	1712.10
675.72	1720.29
675.90	1886.18
676.09	1732.58
676.28	1796.07
676.46	1634.28
676.65	1777.64
676.83	1746.92
677.02	1673.19
677.21	1748.97
677.39	1728.49
677.58	1665.00
677.77	1765.35
677.95	1675.24
678.14	1714.15
678.32	1693.67
678.51	1662.95
678.70	1804.26
678.88	1695.72
679.07	1738.73
679.25	1677.29
679.44	1751.01
679.63	1687.53
679.81	1665.00
680.00	1834.98
680.18	1791.97
680.37	1843.17
680.55	1689.57
680.74	1691.62
680.93	1589.22
681.11	1660.90
681.30	1710.05
681.48	1722.34
681.67	1669.09
681.85	1763.30
682.04	1742.82
682.23	1673.19
682.41	1804.26
682.60	1785.83
682.78	1677.29
682.97	1681.38
683.15	1751.01
683.34	1767.40
683.53	1810.40
683.71	1611.75
683.90	1884.13
684.08	1886.18
684.27	1710.05
684.45	1787.88
684.64	1781.73
684.82	1742.82
685.01	1720.29
685.19	1708.01
685.38	1937.38
685.57	1740.77
685.75	1755.11
685.94	1738.73
686.12	1665.00
686.31	1681.38
686.49	1839.08
686.68	1587.18
686.86	1732.58
687.05	1734.63
687.23	1787.88
687.42	1681.38
687.60	1697.77
687.79	1791.97
687.97	1890.28
688.16	1849.32
688.34	1800.16
688.53	1630.18
688.71	1728.49
688.90	1783.78
689.08	1830.88
689.27	1644.52
689.45	1724.39
689.64	1765.35
689.82	1742.82
690.01	1667.05
690.19	1720.29
690.38	1740.77
690.56	1843.17
690.75	1636.33
690.93	1644.52
691.12	1656.81
691.30	1736.68
691.49	1646.57
691.67	1773.54
691.86	1853.41
692.04	1759.21
692.23	1681.38
692.41	1673.19
692.60	1767.40
692.78	1640.42
692.97	1689.57
693.15	1804.26
693.34	1785.83
693.52	1791.97
693.71	1660.90
693.89	1634.28
694.08	1624.04
694.26	1751.01
694.44	1734.63
694.63	1765.35
694.81	1634.28
695.00	1763.30
695.18	1806.31
695.37	1822.69
695.55	1726.44
695.74	1710.05
695.92	1685.48
696.10	1849.32
696.29	1716.20
696.47	1693.67
696.66	1624.04
696.84	1693.67
697.03	1724.39
697.21	1849.32
697.40	2260.96
697.58	1796.07
697.76	1722.34
697.95	1679.33
698.13	1703.91
698.32	1728.49
698.50	1748.97
698.68	1720.29
698.87	1710.05
699.05	1812.45
699.24	1699.81
699.42	1697.77
699.61	1701.86
699.79	1720.29
699.97	1808.36
700.16	1705.96
700.34	1681.38
700.53	1689.57
700.71	1847.27
700.89	1765.35
701.08	1730.53
701.26	1712.10
701.45	2119.65
701.63	1654.76
701.81	1681.38
702.00	1689.57
702.18	1691.62
702.37	1724.39
702.55	1693.67
702.73	1691.62
702.92	1583.08
703.10	1738.73
703.28	1615.85
703.47	1634.28
703.65	1773.54
703.84	1732.58
704.02	1660.90
704.20	1742.82
704.39	1656.81
704.57	1761.25
704.75	1808.36
704.94	1832.93
705.12	1757.16
705.30	1798.12
705.49	2191.33
705.67	4452.28
705.86	9455.47
706.04	12384.07
706.22	14227.24
706.41	15116.06
706.59	13481.78
706.77	9267.06
706.96	7276.43
707.14	6465.44
707.32	5805.99
707.51	5447.60
707.69	4882.36
707.87	4016.07
708.06	3485.64
708.24	2883.54
708.42	2447.32
708.61	2242.53
708.79	1904.61
708.97	1906.66
709.16	1818.60
709.34	1849.32
709.52	1714.15
709.71	1710.05
709.89	1773.54
710.07	1726.44
710.26	1724.39
710.44	1730.53
710.62	1722.34
710.80	1810.40
710.99	1753.06
711.17	1826.79
711.35	1736.68
711.54	1679.33
711.72	1798.12
711.90	1671.14
712.09	1748.97
712.27	1710.05
712.45	1669.09
712.63	1673.19
712.82	1681.38
713.00	1746.92
713.18	1732.58
713.37	1798.12
713.55	1701.86
713.73	1695.72
713.91	1728.49
714.10	1624.04
714.28	1720.29
714.46	1751.01
714.65	1687.53
714.83	1728.49
715.01	1783.78
715.19	1677.29
715.38	1646.57
715.56	1837.03
715.74	1701.86
715.92	1695.72
716.11	1847.27
716.29	1644.52
716.47	1685.48
716.65	1685.48
716.84	1658.85
717.02	1746.92
717.20	1599.46
717.38	1628.14
717.57	1703.91
717.75	1689.57
717.93	1685.48
718.11	1730.53
718.30	1650.66
718.48	1732.58
718.66	1722.34
718.84	1761.25
719.03	1708.01
719.21	1681.38
719.39	1857.51
719.57	1720.29
719.75	1746.92
719.94	1644.52
720.12	1679.33
720.30	1740.77
720.48	1755.11
720.67	1652.71
720.85	1640.42
721.03	1632.23
721.21	1724.39
721.39	1816.55
721.58	1677.29
721.76	1818.60
721.94	1660.90
722.12	1730.53
722.30	1865.70
722.49	1708.01
722.67	1785.83
722.85	1714.15
723.03	1624.04
723.21	1705.96
723.40	1767.40
723.58	1695.72
723.76	1724.39
723.94	1791.97
724.12	1751.01
724.30	1779.68
724.49	1771.49
724.67	1624.04
724.85	1824.74
725.03	1550.31
725.21	1806.31
725.40	1763.30
725.58	1677.29
725.76	1730.53
725.94	1800.16
726.12	1642.47
726.30	1708.01
726.49	1757.16
726.67	1724.39
726.85	1794.02
727.03	1738.73
727.21	2191.33
727.39	2920.40
727.57	3762.12
727.76	4247.49
727.94	4380.61
728.12	4286.40
728.30	3657.67
728.48	2910.16
728.66	2643.93
728.84	2506.71
729.03	2336.73
729.21	2136.03
729.39	1990.63
729.57	1849.32
729.75	1832.93
729.93	1839.08
730.11	1673.19
730.30	1693.67
730.48	1748.97
730.66	1837.03
730.84	1826.79
731.02	1705.96
731.20	1679.33
731.38	1705.96
731.56	1691.62
731.74	1615.85
731.93	1699.81
732.11	1726.44
732.29	1726.44
732.47	1650.66
732.65	1785.83
732.83	1771.49
733.01	1740.77
733.19	1671.14
733.37	1767.40
733.56	1736.68
733.74	1712.10
733.92	1812.45
734.10	1767.40
734.28	1818.60
734.46	1658.85
734.64	1669.09
734.82	1753.06
735.00	1673.19
735.18	1701.86
735.36	1728.49
735.54	1726.44
735.73	1652.71
735.91	1759.21
736.09	1775.59
736.27	1728.49
736.45	1748.97
736.63	1589.22
736.81	1712.10
736.99	1834.98
737.17	1802.21
737.35	1708.01
737.53	1744.87
737.71	1660.90
737.89	1777.64
738.07	1675.24
738.25	1681.38
738.43	1656.81
738.61	1693.67
738.80	1667.05
738.98	1667.05
739.16	1722.34
739.34	1718.25
739.52	1800.16
739.70	1794.02
739.88	1804.26
740.06	1798.12
740.24	1593.32
740.42	1767.40
740.60	1699.81
740.78	1628.14
740.96	1673.19
741.14	1726.44
741.32	1726.44
741.50	1638.38
741.68	1773.54
741.86	1812.45
742.04	1673.19
742.22	1720.29
742.40	1695.72
742.58	1689.57
742.76	1701.86
742.94	1791.97
743.12	1609.70
743.30	1693.67
743.48	1763.30
743.66	1656.81
743.84	1718.25
744.02	1662.95
744.20	1712.10
744.38	1632.23
744.56	1656.81
744.74	1812.45
744.92	1746.92
745.10	1794.02
745.28	1746.92
745.46	1757.16
745.64	1705.96
745.82	1820.64
746.00	1755.11
746.18	1771.49
746.36	1652.71
746.54	1740.77
746.72	1722.34
746.90	1673.19
747.08	1710.05
747.26	1658.85
747.44	1769.44
747.62	1808.36
747.80	1746.92
747.98	1761.25
748.15	1652.71
748.33	1810.40
748.51	1683.43
748.69	1753.06
748.87	1658.85
749.05	1671.14
749.23	1746.92
749.41	1716.20
749.59	1697.77
749.77	1722.34
749.95	1746.92
750.13	1703.91
750.31	1742.82
750.49	1703.91
750.67	1757.16
750.85	1873.89
751.03	1738.73
751.20	1843.17
751.38	1746.92
751.56	1703.91
751.74	1744.87
751.92	1656.81
752.10	1665.00
752.28	1769.44
752.46	1660.90
752.64	1685.48
752.82	1660.90
753.00	1765.35
753.18	1671.14
753.35	1763.30
753.53	1759.21
753.71	1687.53
753.89	1730.53
754.07	1732.58
754.25	1722.34
754.43	1722.34
754.61	1650.66
754.79	1669.09
754.97	1628.14
755.14	1779.68
755.32	1658.85
755.50	1693.67
755.68	1732.58
755.86	1740.77
756.04	1744.87
756.22	1609.70
756.40	1718.25
756.57	1810.40
756.75	1691.62
756.93	1787.88
757.11	1753.06
757.29	1738.73
757.47	1701.86
757.65	1640.42
757.82	1691.62
758.00	1648.61
758.18	1718.25
758.36	1621.99
758.54	1849.32
758.72	1695.72
758.90	1765.35
759.07	1722.34
759.25	1662.95
759.43	1699.81
759.61	1662.95
759.79	2226.14
759.97	1734.63
760.15	1681.38
760.32	1732.58
760.50	1697.77
760.68	1773.54
760.86	1669.09
761.04	1757.16
761.22	1732.58
761.39	1730.53
761.57	1789.92
761.75	1724.39
761.93	1794.02
762.11	1638.38
762.28	1781.73
762.46	1644.52
762.64	1671.14
762.82	1679.33
763.00	1636.33
763.18	1785.83
763.35	1675.24
763.53	1763.30
763.71	1619.94
763.89	1796.07
764.07	1789.92
764.24	1648.61
764.42	1773.54
764.60	1656.81
764.78	1744.87
764.96	1751.01
765.13	1701.86
765.31	1671.14
765.49	1691.62
765.67	1632.23
765.84	1744.87
766.02	1755.11
766.20	1667.05
766.38	1734.63
766.56	1722.34
766.73	1781.73
766.91	1718.25
767.09	1636.33
767.27	1722.34
767.44	1632.23
767.62	1787.88
767.80	1734.63
767.98	1710.05
768.15	1734.63
768.33	1783.78
768.51	1746.92
768.69	1761.25
768.87	1751.01
769.04	1662.95
769.22	1902.56
769.40	1779.68
769.58	1904.61
769.75	1714.15
769.93	1789.92
770.11	1687.53
770.28	1673.19
770.46	1716.20
770.64	1701.86
770.82	1724.39
770.99	1673.19
771.17	1736.68
771.35	1650.66
771.53	1722.34
771.70	1722.34
771.88	1818.60
772.06	1695.72
772.23	1634.28
772.41	1716.20
772.59	1697.77
772.77	1632.23
772.94	1714.15
773.12	1720.29
773.30	1710.05
773.47	1710.05
773.65	1675.24
773.83	1779.68
774.01	1730.53
774.18	1677.29
774.36	1714.15
774.54	1636.33
774.71	1732.58
774.89	1624.04
775.07	1601.51
775.24	1740.77
775.42	1710.05
775.60	1818.60
775.78	1714.15
775.95	1710.05
776.13	1621.99
776.31	1603.56
776.48	1708.01
776.66	1794.02
776.84	1615.85
777.01	1681.38
777.19	1724.39
777.37	1701.86
777.54	1755.11
777.72	1855.46
777.90	1699.81
778.07	1673.19
778.25	1867.75
778.43	1761.25
778.60	1628.14
778.78	1732.58
778.96	1873.89
779.13	1656.81
779.31	1779.68
779.49	1761.25
779.66	1753.06
779.84	1746.92
780.01	1757.16
780.19	1708.01
780.37	1720.29
780.54	1763.30
780.72	1644.52
780.90	1751.01
781.07	1662.95
781.25	1667.05
781.43	1748.97
781.60	1710.05
781.78	1738.73
781.95	1701.86
782.13	1710.05
782.31	1654.76
782.48	1597.42
782.66	1753.06
782.83	1757.16
783.01	1720.29
783.19	1738.73
783.36	1759.21
783.54	1654.76
783.72	1701.86
783.89	1708.01
784.07	1736.68
784.24	1742.82
784.42	1828.84
784.60	1734.63
784.77	1765.35
784.95	1640.42
785.12	1726.44
785.30	1705.96
785.47	1691.62
785.65	1669.09
785.83	1724.39
786.00	1679.33
786.18	1732.58
786.35	1691.62
786.53	1740.77
786.71	1705.96
786.88	1746.92
787.06	1689.57
787.23	1662.95
787.41	1578.98
787.58	1642.47
787.76	1716.20
787.94	1716.20
788.11	1683.43
788.29	1667.05
788.46	1697.77
788.64	1619.94
788.81	1701.86
788.99	1695.72
789.16	1714.15
789.34	1667.05
789.52	1693.67
789.69	1675.24
789.87	1636.33
790.04	1693.67
790.22	1687.53
790.39	1810.40
790.57	1679.33
790.74	1726.44
790.92	1820.64
791.09	1644.52
791.27	1712.10
791.44	1791.97
791.62	1693.67
791.79	1683.43
791.97	1689.57
792.15	1894.37
792.32	1738.73
792.50	1763.30
792.67	1791.97
792.85	1775.59
793.02	1681.38
793.20	1720.29
793.37	1654.76
793.55	1724.39
793.72	1599.46
793.90	1746.92
794.07	1658.85
794.25	1619.94
794.42	1724.39
794.60	1708.01
794.77	1724.39
794.95	1779.68
795.12	1697.77
795.30	1642.47
795.47	1652.71
795.65	1880.04
795.82	1689.57
796.00	1632.23
796.17	1701.86
796.34	1642.47
796.52	1695.72
796.69	1746.92
796.87	1853.41
797.04	1777.64
797.22	1746.92
797.39	1820.64
797.57	1730.53
797.74	1671.14
797.92	1691.62
798.09	1644.52
798.27	1769.44
798.44	1673.19
798.62	1665.00
798.79	1640.42
798.96	1683.43
799.14	1701.86
799.31	1834.98
799.49	1703.91
799.66	1701.86
799.84	1783.78
800.01	1679.33
800.19	1718.25
800.36	1621.99
800.53	1683.43
800.71	1742.82
800.88	1763.30
801.06	1732.58
801.23	1640.42
801.41	1693.67
801.58	1705.96
801.75	1708.01
801.93	1767.40
802.10	1746.92
802.28	1722.34
802.45	1751.01
802.63	1691.62
802.80	1832.93
802.97	1761.25
803.15	1679.33
803.32	1624.04
803.50	1734.63
803.67	1607.66
803.84	1632.23
804.02	1751.01
804.19	1636.33
804.37	1513.45
804.54	1609.70
804.71	1732.58
804.89	1685.48
805.06	1683.43
805.24	1691.62
805.41	1615.85
805.58	1724.39
805.76	1865.70
805.93	1726.44
806.10	1822.69
806.28	1783.78
806.45	1755.11
806.63	1734.63
806.80	1779.68
806.97	1748.97
807.15	1810.40
807.32	1748.97
807.49	1671.14
807.67	1654.76
807.84	1710.05
808.01	1634.28
808.19	1822.69
808.36	1834.98
808.54	1724.39
808.71	1597.42
808.88	1771.49
809.06	1734.63
809.23	1781.73
809.40	1609.70
809.58	1789.92
809.75	1583.08
809.92	1621.99
810.10	1841.12
810.27	1730.53
810.44	1791.97
810.62	1771.49
810.79	1767.40
810.96	1697.77
811.14	1751.01
811.31	1710.05
811.48	1757.16
811.66	1726.44
811.83	1771.49
812.00	1736.68
812.18	1734.63
812.35	1871.84
812.52	1689.57
812.69	1798.12
812.87	1705.96
813.04	1652.71
813.21	1728.49
813.39	1763.30
813.56	1617.90
813.73	1744.87
813.91	1597.42
814.08	1730.53
814.25	1794.02
814.42	1673.19
814.60	1710.05
814.77	1705.96
814.94	1691.62
815.12	1734.63
815.29	1822.69
815.46	1734.63
815.63	1677.29
815.81	1697.77
815.98	1751.01
816.15	1773.54
816.33	1734.63
816.50	1630.18
816.67	1701.86
816.84	1742.82
817.02	1675.24
817.19	1697.77
817.36	1785.83
817.53	1708.01
817.71	1759.21
817.88	1710.05
818.05	1767.40
818.22	1765.35
818.40	1849.32
818.57	1722.34
818.74	1720.29
818.91	1671.14
819.09	1757.16
819.26	1783.78
819.43	1699.81
819.60	1615.85
819.78	1701.86
819.95	1742.82
820.12	1728.49
820.29	1736.68
820.47	1714.15
820.64	1587.18
820.81	1609.70
820.98	1701.86
821.15	1718.25
821.33	1714.15
821.50	1697.77
821.67	1804.26
821.84	1624.04
822.02	1769.44
822.19	1740.77
822.36	1746.92
822.53	1681.38
822.70	1619.94
822.88	1675.24
823.05	1775.59
823.22	1748.97
823.39	1765.35
823.56	1744.87
823.74	1847.27
823.91	1671.14
824.08	1648.61
824.25	1621.99
824.42	1787.88
824.60	1708.01
824.77	1689.57
824.94	1681.38
825.11	1708.01
825.28	1648.61
825.45	1722.34
825.63	1701.86
825.80	1705.96
825.97	1785.83
826.14	1689.57
826.31	1593.32
826.48	1689.57
826.66	1734.63
826.83	1728.49
827.00	1679.33
827.17	1654.76
827.34	1654.76
827.51	1742.82
827.69	1656.81
827.86	1615.85
828.03	1689.57
828.20	1697.77
828.37	1656.81
828.54	1740.77
828.71	1626.09
828.89	1824.74
829.06	1718.25
829.23	1839.08
829.40	1679.33
829.57	1644.52
829.74	1763.30
829.91	1644.52
830.09	1636.33
830.26	1791.97
830.43	1796.07
830.60	1708.01
830.77	1777.64
830.94	1777.64
831.11	1738.73
831.28	1689.57
831.46	1769.44
831.63	1644.52
831.80	1740.77
831.97	1738.73
832.14	1720.29
832.31	1820.64
832.48	1640.42
832.65	1697.77
832.82	1695.72
832.99	1757.16
833.17	1566.70
833.34	1802.21
833.51	1791.97
833.68	1636.33
833.85	1726.44
834.02	1699.81
834.19	1644.52
834.36	1732.58
834.53	1710.05
834.70	1705.96
834.87	1697.77
835.04	1746.92
835.22	1681.38
835.39	1652.71
835.56	1710.05
835.73	1662.95
835.90	1753.06
836.07	1640.42
836.24	1673.19
836.41	1650.66
836.58	1669.09
836.75	1763.30
836.92	1699.81
837.09	1740.77
837.26	1724.39
837.43	1689.57
837.60	1775.59
837.77	1662.95
837.94	1755.11
838.12	1775.59
838.29	1730.53
838.46	1648.61
838.63	1642.47
838.80	1730.53
838.97	1740.77
839.14	1757.16
839.31	1705.96
839.48	1738.73
839.65	1679.33
839.82	1771.49
839.99	1730.53
840.16	1662.95
840.33	1656.81
840.50	1722.34
840.67	1681.38
840.84	1587.18
841.01	1703.91
841.18	1648.61
841.35	1681.38
841.52	1812.45
841.69	1773.54
841.86	1695.72
842.03	1673.19
842.20	1753.06
842.37	1685.48
842.54	1746.92
842.71	1681.38
842.88	1652.71
843.05	1851.36
843.22	1689.57
843.39	1746.92
843.56	1699.81
843.73	1796.07
843.90	1714.15
844.07	1734.63
844.24	1695.72
844.41	1755.11
844.58	1738.73
844.75	1613.80
844.92	1679.33
845.09	1714.15
845.26	1722.34
845.43	1742.82
845.60	1730.53
845.77	1773.54
845.94	1740.77
846.10	1718.25
846.27	1638.38
846.44	1648.61
846.61	1730.53
846.78	1683.43
846.95	1755.11
847.12	1738.73
847.29	1691.62
847.46	1685.48
847.63	1822.69
847.80	1771.49
847.97	1691.62
848.14	1851.36
848.31	1705.96
848.48	1660.90
848.65	1724.39
848.82	1593.32
848.98	1867.75
849.15	1751.01
849.32	1785.83
849.49	1742.82
849.66	1753.06
849.83	1736.68
850.00	1662.95
850.17	1693.67
850.34	1681.38
850.51	1740.77
850.68	1703.91
850.85	1775.59
851.01	1734.63
851.18	1712.10
851.35	1693.67
851.52	1789.92
851.69	1794.02
851.86	1693.67
852.03	1734.63
852.20	1732.58
852.37	1630.18
852.53	1708.01
852.70	1681.38
852.87	1746.92
853.04	1738.73
853.21	1703.91
853.38	1708.01
853.55	1746.92
853.72	1826.79
853.89	1599.46
854.05	1642.47
854.22	1611.75
854.39	1687.53
854.56	1753.06
854.73	1722.34
854.90	1626.09
855.07	1748.97
855.23	1669.09
855.40	1742.82
855.57	1683.43
855.74	1660.90
855.91	1890.28
856.08	1648.61
856.25	1609.70
856.41	1714.15
856.58	1677.29
856.75	1654.76
856.92	1640.42
857.09	1771.49
857.26	1595.37
857.42	1650.66
857.59	1714.15
857.76	1744.87
857.93	1695.72
858.10	1761.25
858.27	1644.52
858.43	1720.29
858.60	1626.09
858.77	1642.47
858.94	1708.01
859.11	1763.30
859.27	1708.01
859.44	1738.73
859.61	1769.44
859.78	1714.15
859.95	1691.62
860.12	1621.99
860.28	1832.93
860.45	1802.21
860.62	1718.25
860.79	1701.86
860.95	1742.82
861.12	1665.00
861.29	1570.79
861.46	1683.43
861.63	1787.88
861.79	1734.63
861.96	1669.09
862.13	1746.92
862.30	1834.98
862.47	1662.95
862.63	1687.53
862.80	1802.21
862.97	1824.74
863.14	1726.44
863.30	1699.81
863.47	1675.24
863.64	1808.36
863.81	1699.81
863.97	1761.25
864.14	1662.95
864.31	1714.15
864.48	1716.20
864.65	1677.29
864.81	1802.21
864.98	1722.34
865.15	1693.67
865.32	1738.73
865.48	1791.97
865.65	1748.97
865.82	1648.61
865.98	1730.53
866.15	1746.92
866.32	1730.53
866.49	1652.71
866.65	1744.87
866.82	1753.06
866.99	1671.14
867.16	1640.42
867.32	1689.57
867.49	1695.72
867.66	1679.33
867.83	1665.00
867.99	1691.62
868.16	1732.58
868.33	1660.90
868.49	1714.15
868.66	1708.01
868.83	1759.21
868.99	1677.29
869.16	1693.67
869.33	1693.67
869.50	1775.59
869.66	1746.92
869.83	1667.05
870.00	1658.85
870.16	1708.01
870.33	1650.66
870.50	1732.58
870.66	1665.00
870.83	1837.03
871.00	1748.97
871.17	1714.15
871.33	1730.53
871.50	1736.68
871.67	1632.23
871.83	1636.33
872.00	1806.31
872.17	1583.08
872.33	1783.78
872.50	1755.11
872.67	1732.58
872.83	1712.10
873.00	1708.01
873.17	1705.96
873.33	1755.11
873.50	1734.63
873.67	1708.01
873.83	1648.61
874.00	1710.05
874.16	1796.07
874.33	1748.97
874.50	1648.61
874.66	1816.55
874.83	1681.38
875.00	1703.91
875.16	1728.49
875.33	1767.40
875.50	1648.61
875.66	1656.81
875.83	1736.68
875.99	1798.12
876.16	1796.07
876.33	1705.96
876.49	1667.05
876.66	1685.48
876.83	1763.30
876.99	1652.71
877.16	1730.53
877.32	1689.57
877.49	1714.15
877.66	1726.44
877.82	1863.65
877.99	1718.25
878.15	1806.31
878.32	1701.86
878.49	1763.30
878.65	1748.97
878.82	1759.21
878.98	1699.81
879.15	1816.55
879.32	1761.25
879.48	1673.19
879.65	1738.73
879.81	1648.61
879.98	1636.33
880.15	1638.38
880.31	1718.25
880.48	1693.67
880.64	1798.12
880.81	1816.55
880.97	1775.59
881.14	1771.49
881.31	1689.57
881.47	1812.45
881.64	1728.49
881.80	1642.47
881.97	1720.29
882.13	1800.16
882.30	1677.29
882.47	1693.67
882.63	1665.00
882.80	1613.80
882.96	1673.19
883.13	1769.44
883.29	1677.29
883.46	1767.40
883.62	1775.59
883.79	1773.54
883.95	1746.92
884.12	1732.58
884.29	1769.44
884.45	1746.92
884.62	1730.53
884.78	1685.48
884.95	1804.26
885.11	1705.96
885.28	1724.39
885.44	1716.20
885.61	1765.35
885.77	1789.92
885.94	1736.68
886.10	1724.39
886.27	1697.77
886.43	1781.73
886.60	1808.36
886.76	1751.01
886.93	1615.85
887.09	1769.44
887.26	1667.05
887.42	1765.35
887.59	1763.30
887.75	1894.37
887.92	1820.64
888.08	1738.73
888.25	1824.74
888.41	1740.77
888.58	1828.84
888.74	1640.42
888.91	1679.33
>>>>>End Processed Spectral Data<<<<<
