SpectraSuite Data File
++++++++++++++++++++++++++++++++++++
Date: Mon Jun 06 14:23:17 CEST 2016
User: root
Dark Spectrum Present: No
Reference Spectrum Present: No
Number of Sampled Component Spectra: 1
Spectrometers: USB4C02835
Integration Time (usec): 100000 (USB4C02835)
Spectra Averaged: 1 (USB4C02835)
Boxcar Smoothing: 0 (USB4C02835)
Correct for Electrical Dark: No (USB4C02835)
Strobe/Lamp Enabled: No (USB4C02835)
Correct for Detector Non-linearity: No (USB4C02835)
Correct for Stray Light: No (USB4C02835)
Number of Pixels in Processed Spectrum: 3648
>>>>>Begin Processed Spectral Data<<<<<
177.47	1466.35
177.69	1466.35
177.91	1466.35
178.13	1423.34
178.36	1437.67
178.58	1615.85
178.80	1765.35
179.02	1626.09
179.24	1736.68
179.46	1730.53
179.68	1726.44
179.90	1665.00
180.13	1687.53
180.35	1697.77
180.57	1687.53
180.79	1759.21
181.01	1628.14
181.23	1724.39
181.45	1834.98
181.67	1732.58
181.90	1652.71
182.12	1740.77
182.34	1673.19
182.56	1716.20
182.78	1624.04
183.00	1656.81
183.22	1757.16
183.44	1617.90
183.66	1867.75
183.89	1802.21
184.11	1689.57
184.33	1769.44
184.55	1763.30
184.77	1691.62
184.99	1751.01
185.21	1683.43
185.43	1761.25
185.65	1716.20
185.87	1701.86
186.10	1849.32
186.32	1861.60
186.54	1695.72
186.76	1722.34
186.98	1751.01
187.20	1794.02
187.42	1646.57
187.64	1724.39
187.86	1730.53
188.08	1703.91
188.30	1724.39
188.52	1652.71
188.75	1789.92
188.97	1769.44
189.19	1632.23
189.41	1642.47
189.63	1722.34
189.85	1609.70
190.07	1611.75
190.29	1699.81
190.51	1679.33
190.73	1591.27
190.95	1671.14
191.17	1765.35
191.39	1595.37
191.61	1675.24
191.84	1658.85
192.06	1746.92
192.28	1587.18
192.50	1789.92
192.72	1685.48
192.94	1708.01
193.16	1812.45
193.38	1697.77
193.60	1644.52
193.82	1624.04
194.04	1791.97
194.26	1697.77
194.48	1662.95
194.70	1665.00
194.92	1669.09
195.14	1781.73
195.36	1671.14
195.58	1726.44
195.80	1689.57
196.02	1708.01
196.24	1652.71
196.46	1726.44
196.69	1617.90
196.91	1791.97
197.13	1708.01
197.35	1619.94
197.57	1810.40
197.79	1677.29
198.01	1765.35
198.23	1716.20
198.45	1728.49
198.67	1703.91
198.89	1656.81
199.11	1701.86
199.33	1748.97
199.55	1587.18
199.77	1689.57
199.99	1726.44
200.21	1630.18
200.43	1767.40
200.65	1597.42
200.87	1599.46
201.09	1761.25
201.31	1679.33
201.53	1724.39
201.75	1705.96
201.97	1677.29
202.19	1681.38
202.41	1724.39
202.63	1853.41
202.85	1748.97
203.07	1697.77
203.29	1581.03
203.51	1689.57
203.73	1656.81
203.95	1804.26
204.17	1708.01
204.39	1798.12
204.61	1630.18
204.83	1650.66
205.05	1710.05
205.27	1732.58
205.49	1779.68
205.71	1701.86
205.93	1636.33
206.15	1671.14
206.37	1746.92
206.59	1714.15
206.81	1611.75
207.03	1611.75
207.25	1656.81
207.47	1755.11
207.69	1652.71
207.91	1751.01
208.13	1714.15
208.34	1710.05
208.56	1685.48
208.78	1675.24
209.00	1656.81
209.22	1732.58
209.44	1665.00
209.66	1691.62
209.88	1783.78
210.10	1716.20
210.32	1734.63
210.54	1761.25
210.76	1671.14
210.98	1773.54
211.20	1683.43
211.42	1675.24
211.64	1845.22
211.86	1693.67
212.08	1740.77
212.30	1789.92
212.52	1601.51
212.74	1712.10
212.96	1695.72
213.17	1722.34
213.39	1714.15
213.61	1689.57
213.83	1650.66
214.05	1624.04
214.27	1765.35
214.49	1501.16
214.71	1675.24
214.93	1724.39
215.15	1767.40
215.37	1710.05
215.59	1656.81
215.81	1646.57
216.03	1820.64
216.24	1683.43
216.46	1660.90
216.68	1708.01
216.90	1681.38
217.12	1834.98
217.34	1640.42
217.56	1744.87
217.78	1734.63
218.00	1779.68
218.22	1710.05
218.44	1751.01
218.66	1669.09
218.87	1824.74
219.09	1613.80
219.31	1738.73
219.53	1722.34
219.75	1697.77
219.97	1693.67
220.19	1828.84
220.41	1720.29
220.63	1783.78
220.85	1753.06
221.06	1587.18
221.28	1751.01
221.50	1671.14
221.72	1726.44
221.94	1671.14
222.16	1710.05
222.38	1730.53
222.60	1652.71
222.82	1691.62
223.03	1730.53
223.25	1585.13
223.47	1769.44
223.69	1837.03
223.91	1679.33
224.13	1705.96
224.35	1656.81
224.57	1683.43
224.78	1771.49
225.00	1656.81
225.22	1701.86
225.44	1665.00
225.66	1705.96
225.88	1624.04
226.10	1759.21
226.32	1738.73
226.53	1736.68
226.75	1669.09
226.97	1699.81
227.19	1742.82
227.41	1685.48
227.63	1708.01
227.85	1746.92
228.06	1798.12
228.28	1701.86
228.50	1830.88
228.72	1703.91
228.94	1714.15
229.16	1640.42
229.37	1636.33
229.59	1603.56
229.81	1703.91
230.03	1683.43
230.25	1691.62
230.47	1662.95
230.69	1640.42
230.90	1730.53
231.12	1634.28
231.34	1744.87
231.56	1791.97
231.78	1714.15
232.00	1677.29
232.21	1648.61
232.43	1681.38
232.65	1658.85
232.87	1687.53
233.09	1628.14
233.30	1705.96
233.52	1736.68
233.74	1816.55
233.96	1611.75
234.18	1771.49
234.40	1646.57
234.61	1837.03
234.83	1624.04
235.05	1578.98
235.27	1800.16
235.49	1804.26
235.70	1771.49
235.92	1796.07
236.14	1714.15
236.36	1796.07
236.58	1599.46
236.79	1714.15
237.01	1712.10
237.23	1679.33
237.45	1744.87
237.67	1701.86
237.88	1765.35
238.10	1828.84
238.32	1644.52
238.54	1636.33
238.76	1626.09
238.97	1595.37
239.19	1681.38
239.41	1738.73
239.63	1714.15
239.85	1644.52
240.06	1738.73
240.28	1652.71
240.50	1765.35
240.72	1685.48
240.93	1720.29
241.15	1720.29
241.37	1640.42
241.59	1830.88
241.81	1712.10
242.02	1720.29
242.24	1738.73
242.46	1828.84
242.68	1665.00
242.89	1685.48
243.11	1757.16
243.33	1669.09
243.55	1712.10
243.76	1734.63
243.98	1621.99
244.20	1722.34
244.42	1695.72
244.64	1628.14
244.85	1621.99
245.07	1640.42
245.29	1716.20
245.51	1734.63
245.72	1720.29
245.94	1714.15
246.16	1656.81
246.38	1738.73
246.59	1673.19
246.81	1613.80
247.03	1679.33
247.24	1624.04
247.46	1681.38
247.68	1742.82
247.90	1640.42
248.11	1697.77
248.33	1658.85
248.55	1730.53
248.77	1734.63
248.98	1773.54
249.20	1810.40
249.42	1710.05
249.64	1738.73
249.85	1767.40
250.07	1738.73
250.29	1732.58
250.50	1722.34
250.72	1656.81
250.94	1757.16
251.16	1828.84
251.37	1779.68
251.59	1693.67
251.81	1662.95
252.02	1726.44
252.24	1603.56
252.46	1830.88
252.68	1728.49
252.89	1601.51
253.11	1671.14
253.33	1785.83
253.54	1800.16
253.76	1652.71
253.98	1617.90
254.20	1652.71
254.41	1576.94
254.63	1708.01
254.85	1630.18
255.06	1654.76
255.28	1785.83
255.50	1679.33
255.71	1648.61
255.93	1665.00
256.15	1703.91
256.36	1794.02
256.58	1693.67
256.80	1755.11
257.02	1638.38
257.23	1652.71
257.45	1738.73
257.67	1730.53
257.88	1697.77
258.10	1734.63
258.32	1796.07
258.53	1691.62
258.75	1701.86
258.97	1683.43
259.18	1734.63
259.40	1708.01
259.62	1763.30
259.83	1734.63
260.05	1720.29
260.27	1894.37
260.48	1753.06
260.70	1675.24
260.92	1699.81
261.13	1740.77
261.35	1687.53
261.57	1712.10
261.78	1581.03
262.00	1675.24
262.22	1712.10
262.43	1722.34
262.65	1576.94
262.86	1712.10
263.08	1867.75
263.30	1718.25
263.51	1646.57
263.73	1632.23
263.95	1757.16
264.16	1632.23
264.38	1642.47
264.60	1705.96
264.81	1689.57
265.03	1693.67
265.25	1728.49
265.46	1763.30
265.68	1738.73
265.89	1724.39
266.11	1636.33
266.33	1708.01
266.54	1818.60
266.76	1763.30
266.98	1736.68
267.19	1718.25
267.41	1871.84
267.62	1697.77
267.84	1570.79
268.06	1746.92
268.27	1626.09
268.49	1689.57
268.70	1681.38
268.92	1691.62
269.14	1644.52
269.35	1642.47
269.57	1699.81
269.79	1722.34
270.00	1656.81
270.22	1820.64
270.43	1652.71
270.65	1527.78
270.87	1705.96
271.08	1773.54
271.30	1740.77
271.51	1708.01
271.73	1701.86
271.95	1759.21
272.16	1667.05
272.38	1699.81
272.59	1619.94
272.81	1705.96
273.02	1695.72
273.24	1708.01
273.46	1798.12
273.67	1609.70
273.89	1654.76
274.10	1656.81
274.32	1681.38
274.54	1738.73
274.75	1806.31
274.97	1783.78
275.18	1738.73
275.40	1656.81
275.61	1656.81
275.83	1718.25
276.05	1660.90
276.26	1724.39
276.48	1789.92
276.69	1644.52
276.91	1685.48
277.12	1742.82
277.34	1718.25
277.55	1726.44
277.77	1681.38
277.99	1726.44
278.20	1697.77
278.42	1673.19
278.63	1632.23
278.85	1644.52
279.06	1624.04
279.28	1669.09
279.49	1787.88
279.71	1771.49
279.93	1660.90
280.14	1685.48
280.36	1648.61
280.57	1751.01
280.79	1714.15
281.00	1687.53
281.22	1677.29
281.43	1763.30
281.65	1597.42
281.86	1679.33
282.08	1718.25
282.29	1902.56
282.51	1640.42
282.73	1669.09
282.94	1634.28
283.16	1742.82
283.37	1834.98
283.59	1693.67
283.80	1751.01
284.02	1691.62
284.23	1765.35
284.45	1675.24
284.66	1628.14
284.88	1701.86
285.09	1605.61
285.31	1667.05
285.52	1767.40
285.74	1691.62
285.95	1744.87
286.17	1705.96
286.38	1736.68
286.60	1689.57
286.81	1619.94
287.03	1673.19
287.24	1650.66
287.46	1748.97
287.67	1662.95
287.89	1841.12
288.10	1710.05
288.32	1751.01
288.53	1757.16
288.75	1681.38
288.96	1712.10
289.18	1665.00
289.39	1658.85
289.61	1708.01
289.82	1851.36
290.04	1814.50
290.25	1742.82
290.47	1615.85
290.68	1701.86
290.90	1710.05
291.11	1599.46
291.33	1718.25
291.54	1593.32
291.76	1632.23
291.97	1722.34
292.18	1714.15
292.40	1660.90
292.61	1669.09
292.83	1867.75
293.04	1652.71
293.26	1718.25
293.47	1689.57
293.69	1697.77
293.90	1701.86
294.12	1740.77
294.33	1658.85
294.55	1724.39
294.76	1720.29
294.97	1814.50
295.19	1816.55
295.40	1624.04
295.62	1638.38
295.83	1691.62
296.05	1681.38
296.26	1740.77
296.48	1640.42
296.69	1701.86
296.90	1769.44
297.12	1677.29
297.33	1746.92
297.55	1693.67
297.76	1685.48
297.98	1755.11
298.19	1726.44
298.41	1742.82
298.62	1599.46
298.83	1724.39
299.05	1732.58
299.26	1679.33
299.48	1570.79
299.69	1736.68
299.90	1732.58
300.12	1630.18
300.33	1677.29
300.55	1716.20
300.76	1728.49
300.98	1644.52
301.19	1755.11
301.40	1703.91
301.62	1712.10
301.83	1703.91
302.05	1705.96
302.26	1726.44
302.47	1685.48
302.69	1617.90
302.90	1646.57
303.12	1507.30
303.33	1642.47
303.54	1767.40
303.76	1744.87
303.97	1722.34
304.19	1861.60
304.40	1693.67
304.61	1736.68
304.83	1814.50
305.04	1732.58
305.26	1679.33
305.47	1656.81
305.68	1648.61
305.90	1640.42
306.11	1718.25
306.33	1665.00
306.54	1665.00
306.75	1662.95
306.97	1593.32
307.18	1644.52
307.39	1654.76
307.61	1781.73
307.82	1683.43
308.04	1779.68
308.25	1646.57
308.46	1710.05
308.68	1716.20
308.89	1699.81
309.10	1783.78
309.32	1685.48
309.53	1705.96
309.74	1722.34
309.96	1628.14
310.17	1765.35
310.39	1695.72
310.60	1763.30
310.81	1732.58
311.03	1630.18
311.24	1697.77
311.45	1730.53
311.67	1703.91
311.88	1675.24
312.09	1714.15
312.31	1644.52
312.52	1652.71
312.73	1699.81
312.95	1632.23
313.16	1685.48
313.37	1755.11
313.59	1716.20
313.80	1726.44
314.01	1814.50
314.23	1673.19
314.44	1705.96
314.65	1673.19
314.87	1673.19
315.08	1689.57
315.29	1669.09
315.51	1570.79
315.72	1685.48
315.93	1763.30
316.15	1849.32
316.36	1640.42
316.57	1716.20
316.79	1761.25
317.00	1748.97
317.21	1746.92
317.43	1619.94
317.64	1736.68
317.85	1720.29
318.07	1677.29
318.28	1650.66
318.49	1804.26
318.70	1818.60
318.92	1734.63
319.13	1832.93
319.34	1892.32
319.56	1736.68
319.77	1751.01
319.98	1853.41
320.20	1697.77
320.41	1802.21
320.62	1814.50
320.83	1654.76
321.05	1855.46
321.26	1732.58
321.47	1744.87
321.69	1732.58
321.90	1671.14
322.11	1701.86
322.32	1669.09
322.54	1759.21
322.75	1730.53
322.96	1814.50
323.18	1640.42
323.39	1601.51
323.60	1595.37
323.81	1683.43
324.03	1595.37
324.24	1796.07
324.45	1712.10
324.66	1636.33
324.88	1814.50
325.09	1603.56
325.30	1714.15
325.52	1751.01
325.73	1753.06
325.94	1619.94
326.15	1583.08
326.37	1697.77
326.58	1751.01
326.79	1738.73
327.00	1597.42
327.22	1722.34
327.43	1695.72
327.64	1652.71
327.85	1734.63
328.07	1718.25
328.28	1861.60
328.49	1691.62
328.70	1669.09
328.92	1701.86
329.13	1671.14
329.34	1683.43
329.55	1726.44
329.76	1732.58
329.98	1726.44
330.19	1691.62
330.40	1708.01
330.61	1738.73
330.83	1648.61
331.04	1619.94
331.25	1814.50
331.46	1687.53
331.68	1720.29
331.89	1822.69
332.10	1726.44
332.31	1636.33
332.52	1724.39
332.74	1775.59
332.95	1595.37
333.16	1697.77
333.37	1808.36
333.58	1712.10
333.80	1738.73
334.01	1675.24
334.22	1693.67
334.43	1685.48
334.64	1710.05
334.86	1642.47
335.07	1638.38
335.28	1810.40
335.49	1540.07
335.70	1726.44
335.92	1787.88
336.13	1888.23
336.34	1689.57
336.55	1712.10
336.76	1695.72
336.98	1644.52
337.19	1691.62
337.40	1783.78
337.61	1822.69
337.82	1632.23
338.04	1740.77
338.25	1646.57
338.46	1667.05
338.67	1648.61
338.88	1716.20
339.09	1585.13
339.31	1703.91
339.52	1574.89
339.73	1675.24
339.94	1644.52
340.15	1765.35
340.36	1603.56
340.58	1716.20
340.79	1660.90
341.00	1671.14
341.21	1677.29
341.42	1654.76
341.63	1673.19
341.85	1814.50
342.06	1748.97
342.27	1673.19
342.48	1771.49
342.69	1644.52
342.90	1763.30
343.12	1804.26
343.33	1675.24
343.54	1789.92
343.75	1767.40
343.96	1626.09
344.17	1701.86
344.38	1669.09
344.60	1642.47
344.81	1677.29
345.02	1705.96
345.23	1791.97
345.44	1757.16
345.65	1759.21
345.86	1695.72
346.07	1693.67
346.29	1687.53
346.50	1687.53
346.71	1794.02
346.92	1761.25
347.13	1839.08
347.34	1665.00
347.55	1646.57
347.76	1677.29
347.98	1599.46
348.19	1624.04
348.40	1806.31
348.61	1644.52
348.82	1763.30
349.03	1742.82
349.24	1675.24
349.45	1796.07
349.66	1619.94
349.88	1710.05
350.09	1640.42
350.30	1834.98
350.51	1783.78
350.72	1755.11
350.93	1722.34
351.14	1656.81
351.35	1759.21
351.56	1691.62
351.77	1753.06
351.99	1701.86
352.20	1787.88
352.41	1765.35
352.62	1615.85
352.83	1712.10
353.04	1683.43
353.25	1699.81
353.46	1746.92
353.67	1775.59
353.88	1617.90
354.09	1675.24
354.30	1705.96
354.52	1718.25
354.73	1665.00
354.94	1757.16
355.15	1705.96
355.36	1841.12
355.57	1710.05
355.78	1755.11
355.99	1660.90
356.20	1697.77
356.41	1816.55
356.62	1794.02
356.83	1789.92
357.04	1689.57
357.25	1626.09
357.46	1673.19
357.68	1613.80
357.89	1587.18
358.10	1689.57
358.31	1701.86
358.52	1705.96
358.73	1677.29
358.94	1685.48
359.15	1611.75
359.36	1718.25
359.57	1695.72
359.78	1732.58
359.99	1710.05
360.20	1699.81
360.41	1669.09
360.62	1732.58
360.83	1738.73
361.04	1705.96
361.25	1794.02
361.46	1810.40
361.67	1697.77
361.88	1722.34
362.09	1730.53
362.30	1673.19
362.51	1708.01
362.72	1748.97
362.93	1681.38
363.14	1810.40
363.35	1714.15
363.56	1697.77
363.78	1787.88
363.99	1726.44
364.20	1648.61
364.41	1724.39
364.62	1826.79
364.83	1775.59
365.04	1765.35
365.25	1697.77
365.46	1845.22
365.67	1640.42
365.88	1632.23
366.09	1716.20
366.30	1695.72
366.51	1621.99
366.72	1679.33
366.93	1681.38
367.14	1714.15
367.35	1755.11
367.56	1683.43
367.77	1779.68
367.98	1722.34
368.18	1710.05
368.39	1703.91
368.60	1712.10
368.81	1810.40
369.02	1755.11
369.23	1650.66
369.44	1609.70
369.65	1665.00
369.86	1746.92
370.07	1837.03
370.28	1703.91
370.49	1730.53
370.70	1734.63
370.91	1619.94
371.12	1710.05
371.33	1708.01
371.54	1617.90
371.75	1800.16
371.96	1556.46
372.17	1722.34
372.38	1648.61
372.59	1789.92
372.80	1685.48
373.01	1691.62
373.22	1714.15
373.43	1714.15
373.64	1599.46
373.85	1724.39
374.06	1847.27
374.26	1814.50
374.47	1740.77
374.68	1841.12
374.89	1705.96
375.10	1671.14
375.31	1763.30
375.52	1751.01
375.73	1763.30
375.94	1615.85
376.15	1775.59
376.36	1640.42
376.57	1644.52
376.78	1626.09
376.99	1697.77
377.20	1738.73
377.40	1642.47
377.61	1865.70
377.82	1650.66
378.03	1789.92
378.24	1726.44
378.45	1730.53
378.66	1669.09
378.87	1656.81
379.08	1611.75
379.29	1689.57
379.50	1767.40
379.71	1636.33
379.91	1751.01
380.12	1677.29
380.33	1748.97
380.54	1728.49
380.75	1697.77
380.96	1714.15
381.17	1736.68
381.38	1796.07
381.59	1691.62
381.80	1644.52
382.00	1765.35
382.21	1783.78
382.42	1816.55
382.63	1859.56
382.84	1810.40
383.05	1755.11
383.26	1763.30
383.47	1708.01
383.68	1771.49
383.88	1675.24
384.09	1732.58
384.30	1804.26
384.51	1703.91
384.72	1726.44
384.93	1638.38
385.14	1638.38
385.35	1787.88
385.55	1640.42
385.76	1742.82
385.97	1683.43
386.18	1646.57
386.39	1650.66
386.60	1712.10
386.81	1726.44
387.02	1669.09
387.22	1701.86
387.43	1826.79
387.64	1783.78
387.85	1900.52
388.06	2191.33
388.27	4149.18
388.48	6893.46
388.68	8200.07
388.89	9678.70
389.10	9930.60
389.31	8472.45
389.52	7475.09
389.73	6793.11
389.93	6297.50
390.14	5869.48
390.35	5175.22
390.56	4655.03
390.77	3686.34
390.98	3024.85
391.18	2469.85
391.39	2084.83
391.60	1923.04
391.81	1861.60
392.02	1724.39
392.23	1877.99
392.43	1781.73
392.64	1742.82
392.85	1800.16
393.06	1816.55
393.27	1605.61
393.47	1656.81
393.68	1730.53
393.89	1722.34
394.10	1742.82
394.31	1726.44
394.52	1636.33
394.72	1734.63
394.93	1853.41
395.14	1599.46
395.35	1789.92
395.56	1683.43
395.76	1791.97
395.97	1783.78
396.18	1882.08
396.39	1822.69
396.60	2033.63
396.80	1804.26
397.01	1892.32
397.22	1834.98
397.43	1871.84
397.64	1765.35
397.84	1843.17
398.05	1839.08
398.26	1693.67
398.47	1789.92
398.67	1734.63
398.88	1761.25
399.09	1746.92
399.30	1669.09
399.51	1685.48
399.71	1638.38
399.92	1658.85
400.13	1738.73
400.34	1679.33
400.54	1695.72
400.75	1734.63
400.96	1675.24
401.17	1785.83
401.37	1746.92
401.58	1640.42
401.79	1740.77
402.00	1804.26
402.21	2023.39
402.41	1927.14
402.62	1968.10
402.83	2025.44
403.04	2093.02
403.24	2099.17
403.45	1818.60
403.66	1865.70
403.87	1875.94
404.07	1927.14
404.28	1892.32
404.49	1869.80
404.70	1781.73
404.90	1763.30
405.11	1703.91
405.32	1742.82
405.52	1638.38
405.73	1679.33
405.94	1714.15
406.15	1718.25
406.35	1755.11
406.56	1763.30
406.77	1716.20
406.98	1769.44
407.18	1673.19
407.39	1781.73
407.60	1763.30
407.80	1736.68
408.01	1669.09
408.22	1673.19
408.43	1675.24
408.63	1716.20
408.84	1728.49
409.05	1779.68
409.25	1624.04
409.46	1632.23
409.67	1699.81
409.88	1746.92
410.08	1708.01
410.29	1703.91
410.50	1767.40
410.70	1742.82
410.91	1685.48
411.12	1740.77
411.32	1714.15
411.53	1689.57
411.74	1816.55
411.95	1757.16
412.15	1716.20
412.36	1763.30
412.57	1730.53
412.77	1851.36
412.98	1761.25
413.19	1716.20
413.39	1824.74
413.60	1695.72
413.81	1822.69
414.01	1634.28
414.22	1757.16
414.43	1751.01
414.63	1675.24
414.84	1742.82
415.05	1787.88
415.25	1662.95
415.46	1791.97
415.67	1658.85
415.87	1724.39
416.08	1751.01
416.29	1632.23
416.49	1699.81
416.70	1615.85
416.91	1695.72
417.11	1665.00
417.32	1814.50
417.53	1732.58
417.73	1689.57
417.94	1736.68
418.15	1656.81
418.35	1718.25
418.56	1683.43
418.77	1814.50
418.97	1681.38
419.18	1746.92
419.38	1556.46
419.59	1703.91
419.80	1783.78
420.00	1701.86
420.21	1777.64
420.42	1779.68
420.62	1751.01
420.83	1665.00
421.04	1693.67
421.24	1681.38
421.45	1765.35
421.65	1736.68
421.86	1652.71
422.07	1693.67
422.27	1697.77
422.48	1769.44
422.69	1697.77
422.89	1675.24
423.10	1697.77
423.30	1591.27
423.51	1726.44
423.72	1665.00
423.92	1763.30
424.13	1611.75
424.33	1689.57
424.54	1712.10
424.75	1681.38
424.95	1734.63
425.16	1742.82
425.36	1701.86
425.57	1693.67
425.78	1755.11
425.98	1697.77
426.19	1669.09
426.39	1714.15
426.60	1794.02
426.81	1763.30
427.01	1714.15
427.22	1619.94
427.42	1685.48
427.63	1652.71
427.83	1816.55
428.04	1804.26
428.25	1753.06
428.45	1767.40
428.66	1720.29
428.86	1738.73
429.07	1722.34
429.28	1742.82
429.48	1660.90
429.69	1701.86
429.89	1677.29
430.10	1650.66
430.30	1740.77
430.51	1810.40
430.71	1669.09
430.92	1669.09
431.13	1681.38
431.33	1714.15
431.54	1796.07
431.74	1773.54
431.95	1869.80
432.15	1708.01
432.36	1607.66
432.56	1779.68
432.77	1800.16
432.98	1791.97
433.18	1722.34
433.39	1755.11
433.59	1644.52
433.80	1822.69
434.00	1802.21
434.21	1656.81
434.41	1619.94
434.62	1851.36
434.82	1660.90
435.03	1746.92
435.23	1769.44
435.44	1607.66
435.64	1755.11
435.85	1701.86
436.06	1726.44
436.26	1740.77
436.47	1689.57
436.67	1691.62
436.88	1734.63
437.08	1804.26
437.29	1855.46
437.49	1726.44
437.70	1742.82
437.90	1701.86
438.11	1929.19
438.31	1757.16
438.52	1896.42
438.72	1951.71
438.93	1898.47
439.13	1818.60
439.34	1810.40
439.54	1716.20
439.75	1802.21
439.95	1839.08
440.16	1665.00
440.36	1849.32
440.57	1783.78
440.77	1755.11
440.98	1714.15
441.18	1785.83
441.39	1654.76
441.59	1671.14
441.80	1794.02
442.00	1759.21
442.21	1814.50
442.41	1636.33
442.62	1834.98
442.82	1685.48
443.02	1681.38
443.23	1804.26
443.43	1665.00
443.64	1830.88
443.84	1613.80
444.05	1771.49
444.25	1705.96
444.46	1796.07
444.66	1636.33
444.87	1740.77
445.07	1634.28
445.28	1679.33
445.48	1812.45
445.69	1812.45
445.89	1902.56
446.09	1787.88
446.30	2050.02
446.50	2693.08
446.71	3833.80
446.91	4392.89
447.12	4782.01
447.32	4868.02
447.53	4276.16
447.73	3868.61
447.93	3579.85
448.14	3346.38
448.34	3133.39
448.55	2881.49
448.75	2836.44
448.96	2609.11
449.16	2529.24
449.36	2303.96
449.57	2115.55
449.77	1875.94
449.98	1820.64
450.18	1892.32
450.39	1751.01
450.59	1775.59
450.79	1695.72
451.00	1712.10
451.20	1804.26
451.41	1675.24
451.61	1828.84
451.81	1660.90
452.02	1724.39
452.22	1734.63
452.43	1679.33
452.63	1691.62
452.84	1660.90
453.04	1761.25
453.24	1775.59
453.45	1673.19
453.65	1779.68
453.86	1769.44
454.06	1671.14
454.26	1732.58
454.47	1820.64
454.67	1785.83
454.87	1746.92
455.08	1714.15
455.28	1806.31
455.49	1689.57
455.69	1685.48
455.89	1882.08
456.10	1863.65
456.30	1699.81
456.51	1783.78
456.71	1742.82
456.91	1765.35
457.12	1740.77
457.32	1724.39
457.52	1636.33
457.73	1791.97
457.93	1740.77
458.14	1581.03
458.34	1650.66
458.54	1689.57
458.75	1746.92
458.95	1777.64
459.15	1775.59
459.36	1708.01
459.56	1759.21
459.76	1882.08
459.97	1787.88
460.17	1726.44
460.37	1708.01
460.58	1822.69
460.78	1791.97
460.99	1718.25
461.19	1742.82
461.39	1714.15
461.60	1732.58
461.80	1808.36
462.00	1679.33
462.21	1777.64
462.41	1734.63
462.61	1677.29
462.82	1574.89
463.02	1738.73
463.22	1730.53
463.43	1814.50
463.63	1751.01
463.83	1834.98
464.04	1742.82
464.24	1728.49
464.44	1562.60
464.64	1665.00
464.85	1779.68
465.05	1824.74
465.25	1701.86
465.46	1679.33
465.66	1740.77
465.86	1755.11
466.07	1765.35
466.27	1701.86
466.47	1683.43
466.68	1601.51
466.88	1769.44
467.08	1693.67
467.29	1771.49
467.49	1796.07
467.69	1675.24
467.89	1757.16
468.10	1708.01
468.30	1757.16
468.50	1798.12
468.71	1791.97
468.91	1632.23
469.11	1853.41
469.31	1787.88
469.52	1669.09
469.72	1896.42
469.92	1777.64
470.13	1656.81
470.33	1771.49
470.53	1730.53
470.73	2138.08
470.94	2205.66
471.14	2322.40
471.34	2621.40
471.54	2353.12
471.75	2181.09
471.95	2193.37
472.15	2080.74
472.36	2066.40
472.56	2019.30
472.76	2181.09
472.96	2009.06
473.17	1943.52
473.37	1957.86
473.57	1791.97
473.77	1822.69
473.98	1767.40
474.18	1693.67
474.38	1869.80
474.58	1732.58
474.79	1675.24
474.99	1783.78
475.19	1787.88
475.39	1673.19
475.60	1726.44
475.80	1724.39
476.00	1675.24
476.20	1714.15
476.41	1656.81
476.61	1820.64
476.81	1761.25
477.01	1712.10
477.21	1783.78
477.42	1767.40
477.62	1708.01
477.82	1763.30
478.02	1708.01
478.23	1779.68
478.43	1644.52
478.63	1667.05
478.83	1687.53
479.03	1703.91
479.24	1832.93
479.44	1877.99
479.64	1720.29
479.84	1560.55
480.04	1693.67
480.25	1755.11
480.45	1703.91
480.65	1689.57
480.85	1787.88
481.06	1615.85
481.26	1763.30
481.46	1738.73
481.66	1755.11
481.86	1708.01
482.06	1812.45
482.27	1671.14
482.47	1712.10
482.67	1757.16
482.87	1697.77
483.07	1804.26
483.28	1630.18
483.48	1685.48
483.68	1744.87
483.88	1597.42
484.08	1687.53
484.29	1581.03
484.49	1722.34
484.69	1638.38
484.89	1796.07
485.09	1732.58
485.29	1708.01
485.50	1808.36
485.70	1687.53
485.90	1798.12
486.10	1712.10
486.30	1728.49
486.50	1828.84
486.71	1726.44
486.91	1736.68
487.11	1800.16
487.31	1714.15
487.51	1652.71
487.71	1644.52
487.91	1621.99
488.12	1601.51
488.32	1601.51
488.52	1681.38
488.72	1671.14
488.92	1685.48
489.12	1783.78
489.32	1722.34
489.53	1675.24
489.73	1660.90
489.93	1798.12
490.13	1738.73
490.33	1591.27
490.53	1699.81
490.73	1777.64
490.94	1613.80
491.14	1755.11
491.34	1816.55
491.54	2090.98
491.74	2549.72
491.94	2895.83
492.14	2985.94
492.34	2959.31
492.54	2787.29
492.75	2461.66
492.95	2451.42
493.15	2314.20
493.35	2344.92
493.55	2140.13
493.75	2254.81
493.95	2166.75
494.15	2076.64
494.35	1943.52
494.56	1871.84
494.76	1785.83
494.96	1783.78
495.16	1843.17
495.36	1742.82
495.56	1767.40
495.76	1742.82
495.96	1642.47
496.16	1656.81
496.36	1902.56
496.56	1837.03
496.77	1775.59
496.97	1738.73
497.17	1847.27
497.37	1662.95
497.57	1767.40
497.77	1720.29
497.97	1628.14
498.17	1701.86
498.37	1732.58
498.57	1714.15
498.77	1646.57
498.97	1761.25
499.17	1824.74
499.38	1730.53
499.58	1703.91
499.78	1742.82
499.98	1767.40
500.18	1732.58
500.38	1687.53
500.58	1945.57
500.78	2502.62
500.98	4513.72
501.18	5769.13
501.38	6762.39
501.58	7047.06
501.78	6645.66
501.98	5586.86
502.18	5119.92
502.38	4429.76
502.58	4132.80
502.78	3762.12
502.98	3647.43
503.18	3510.22
503.38	3243.98
503.59	2838.48
503.79	2695.13
503.99	2494.43
504.19	2328.54
504.39	2195.42
504.59	2095.07
504.79	2035.68
504.99	1986.53
505.19	1964.00
505.39	1935.33
505.59	1918.95
505.79	1886.18
505.99	1773.54
506.19	1775.59
506.39	1880.04
506.59	1748.97
506.79	1740.77
506.99	1822.69
507.19	1781.73
507.39	1724.39
507.59	1675.24
507.79	1701.86
507.99	1675.24
508.19	1746.92
508.39	1794.02
508.59	1789.92
508.79	1806.31
508.99	1818.60
509.19	1732.58
509.39	1785.83
509.59	1734.63
509.79	1755.11
509.99	1746.92
510.19	1746.92
510.39	1783.78
510.59	1734.63
510.79	1720.29
510.99	1683.43
511.19	1652.71
511.39	1812.45
511.59	1695.72
511.79	1851.36
511.99	1724.39
512.19	1761.25
512.38	1724.39
512.58	1736.68
512.78	1748.97
512.98	1701.86
513.18	1820.64
513.38	1650.66
513.58	1771.49
513.78	1671.14
513.98	1669.09
514.18	1654.76
514.38	1742.82
514.58	1759.21
514.78	1732.58
514.98	1638.38
515.18	1759.21
515.38	1654.76
515.58	1779.68
515.78	1705.96
515.98	1708.01
516.18	1755.11
516.38	1712.10
516.57	1773.54
516.77	1718.25
516.97	1738.73
517.17	1712.10
517.37	1619.94
517.57	1800.16
517.77	1714.15
517.97	1662.95
518.17	1710.05
518.37	1656.81
518.57	1689.57
518.77	1705.96
518.97	1701.86
519.16	1724.39
519.36	1775.59
519.56	1791.97
519.76	1742.82
519.96	1695.72
520.16	1802.21
520.36	1681.38
520.56	1787.88
520.76	1662.95
520.96	1650.66
521.16	1783.78
521.35	1728.49
521.55	1828.84
521.75	1736.68
521.95	1642.47
522.15	1710.05
522.35	1597.42
522.55	1730.53
522.75	1783.78
522.95	1681.38
523.14	1673.19
523.34	1755.11
523.54	1730.53
523.74	1769.44
523.94	1806.31
524.14	1665.00
524.34	1783.78
524.54	1804.26
524.73	1759.21
524.93	1767.40
525.13	1804.26
525.33	1669.09
525.53	1880.04
525.73	1802.21
525.93	1705.96
526.13	1730.53
526.32	1771.49
526.52	1765.35
526.72	1730.53
526.92	1724.39
527.12	1697.77
527.32	1634.28
527.52	1720.29
527.71	1841.12
527.91	1769.44
528.11	1656.81
528.31	1740.77
528.51	1654.76
528.71	1791.97
528.90	1765.35
529.10	1800.16
529.30	1773.54
529.50	1642.47
529.70	1753.06
529.90	1671.14
530.09	1734.63
530.29	1662.95
530.49	1716.20
530.69	1834.98
530.89	1736.68
531.09	1775.59
531.28	1718.25
531.48	1746.92
531.68	1740.77
531.88	1757.16
532.08	1804.26
532.28	1714.15
532.47	1769.44
532.67	1853.41
532.87	1675.24
533.07	1671.14
533.27	1841.12
533.46	1773.54
533.66	1789.92
533.86	1689.57
534.06	1726.44
534.26	1693.67
534.45	1740.77
534.65	1783.78
534.85	1697.77
535.05	1615.85
535.25	1708.01
535.44	1607.66
535.64	1843.17
535.84	1732.58
536.04	1787.88
536.24	1689.57
536.43	1689.57
536.63	1785.83
536.83	1621.99
537.03	1718.25
537.22	1632.23
537.42	1660.90
537.62	1708.01
537.82	1652.71
538.02	1800.16
538.21	1800.16
538.41	1877.99
538.61	1767.40
538.81	1726.44
539.00	1775.59
539.20	1665.00
539.40	1753.06
539.60	1689.57
539.79	1746.92
539.99	1703.91
540.19	1722.34
540.39	1695.72
540.58	1820.64
540.78	1789.92
540.98	1796.07
541.18	1873.89
541.37	1757.16
541.57	1683.43
541.77	1804.26
541.97	1630.18
542.16	1705.96
542.36	1722.34
542.56	1767.40
542.76	1794.02
542.95	1755.11
543.15	1796.07
543.35	1742.82
543.54	1769.44
543.74	1685.48
543.94	1748.97
544.14	1708.01
544.33	1773.54
544.53	1769.44
544.73	1679.33
544.93	1669.09
545.12	1667.05
545.32	1732.58
545.52	1708.01
545.71	1693.67
545.91	1624.04
546.11	1736.68
546.30	1560.55
546.50	1742.82
546.70	1804.26
546.90	1705.96
547.09	1601.51
547.29	1767.40
547.49	1710.05
547.68	1796.07
547.88	1630.18
548.08	1738.73
548.27	2123.74
548.47	1708.01
548.67	1712.10
548.87	1773.54
549.06	1724.39
549.26	1777.64
549.46	1759.21
549.65	1693.67
549.85	1687.53
550.05	1783.78
550.24	1687.53
550.44	1755.11
550.64	1779.68
550.83	1746.92
551.03	1865.70
551.23	1800.16
551.42	1832.93
551.62	1740.77
551.82	1755.11
552.01	1759.21
552.21	1822.69
552.41	1720.29
552.60	1837.03
552.80	1718.25
553.00	1718.25
553.19	1783.78
553.39	1783.78
553.59	1630.18
553.78	1800.16
553.98	1734.63
554.17	1677.29
554.37	1771.49
554.57	1761.25
554.76	1632.23
554.96	1693.67
555.16	1718.25
555.35	1669.09
555.55	1697.77
555.75	1677.29
555.94	1753.06
556.14	1632.23
556.33	1759.21
556.53	1761.25
556.73	1714.15
556.92	1775.59
557.12	1814.50
557.32	1861.60
557.51	1779.68
557.71	1783.78
557.90	1830.88
558.10	1808.36
558.30	1669.09
558.49	1679.33
558.69	1685.48
558.88	1744.87
559.08	1718.25
559.28	1779.68
559.47	1718.25
559.67	1771.49
559.86	1916.90
560.06	1716.20
560.26	1658.85
560.45	1722.34
560.65	1734.63
560.84	1814.50
561.04	1681.38
561.24	1746.92
561.43	1671.14
561.63	1822.69
561.82	1738.73
562.02	1789.92
562.22	1636.33
562.41	1724.39
562.61	1693.67
562.80	1662.95
563.00	1904.61
563.19	1763.30
563.39	1718.25
563.59	1746.92
563.78	1685.48
563.98	1642.47
564.17	1740.77
564.37	1693.67
564.56	1751.01
564.76	1671.14
564.96	1798.12
565.15	1734.63
565.35	1832.93
565.54	1775.59
565.74	1714.15
565.93	1734.63
566.13	1796.07
566.32	1730.53
566.52	1808.36
566.71	1722.34
566.91	1800.16
567.11	1724.39
567.30	1708.01
567.50	1787.88
567.69	1763.30
567.89	1785.83
568.08	1636.33
568.28	1642.47
568.47	1695.72
568.67	1714.15
568.86	1695.72
569.06	1767.40
569.25	1742.82
569.45	1654.76
569.64	1724.39
569.84	1746.92
570.04	1773.54
570.23	1734.63
570.43	1767.40
570.62	1722.34
570.82	1855.46
571.01	1689.57
571.21	1652.71
571.40	1669.09
571.60	1767.40
571.79	1779.68
571.99	1714.15
572.18	1685.48
572.38	1773.54
572.57	1789.92
572.77	1751.01
572.96	1882.08
573.16	1746.92
573.35	1726.44
573.55	1816.55
573.74	1853.41
573.94	1714.15
574.13	1697.77
574.33	1794.02
574.52	1779.68
574.71	1773.54
574.91	1665.00
575.10	1697.77
575.30	1642.47
575.49	1748.97
575.69	1621.99
575.88	1773.54
576.08	1734.63
576.27	1837.03
576.47	1800.16
576.66	1855.46
576.86	1822.69
577.05	1738.73
577.25	1785.83
577.44	1810.40
577.64	1669.09
577.83	1796.07
578.02	1705.96
578.22	1830.88
578.41	1867.75
578.61	1732.58
578.80	1732.58
579.00	1673.19
579.19	1701.86
579.39	1769.44
579.58	1761.25
579.77	1732.58
579.97	1800.16
580.16	1751.01
580.36	1769.44
580.55	1820.64
580.75	1804.26
580.94	1697.77
581.13	1855.46
581.33	1914.85
581.52	1736.68
581.72	1882.08
581.91	1873.89
582.11	1736.68
582.30	1773.54
582.49	1845.22
582.69	1853.41
582.88	1783.78
583.08	1767.40
583.27	1765.35
583.47	1730.53
583.66	1662.95
583.85	1708.01
584.05	1779.68
584.24	1828.84
584.44	1816.55
584.63	1759.21
584.82	1798.12
585.02	1882.08
585.21	1855.46
585.41	1824.74
585.60	1804.26
585.79	1925.09
585.99	1931.23
586.18	1918.95
586.37	2217.95
586.57	3395.53
586.76	9949.03
586.96	24817.29
587.15	34450.93
587.34	40750.48
587.54	42737.01
587.73	36507.09
587.93	26353.26
588.12	21675.70
588.31	18568.93
588.51	16238.34
588.70	15335.19
588.89	14227.24
589.09	12511.04
589.28	11036.50
589.47	9516.91
589.67	7939.97
589.86	6485.92
590.06	4970.42
590.25	4001.73
590.44	3209.17
590.64	2621.40
590.83	2289.63
591.02	2062.30
591.22	1943.52
591.41	1873.89
591.60	1898.47
591.80	1982.43
591.99	1771.49
592.18	1726.44
592.38	1814.50
592.57	1765.35
592.76	1771.49
592.96	1877.99
593.15	1740.77
593.34	1771.49
593.54	1634.28
593.73	1763.30
593.92	1703.91
594.12	1773.54
594.31	1738.73
594.50	1773.54
594.70	1791.97
594.89	1968.10
595.08	1730.53
595.28	1746.92
595.47	1953.76
595.66	1806.31
595.86	1636.33
596.05	1742.82
596.24	1736.68
596.43	1839.08
596.63	1857.51
596.82	1662.95
597.01	1816.55
597.21	1789.92
597.40	1753.06
597.59	1724.39
597.79	1683.43
597.98	1779.68
598.17	1677.29
598.36	1730.53
598.56	1775.59
598.75	1705.96
598.94	1808.36
599.14	1814.50
599.33	1726.44
599.52	1798.12
599.71	1841.12
599.91	1800.16
600.10	1757.16
600.29	1736.68
600.48	1771.49
600.68	1789.92
600.87	1826.79
601.06	1734.63
601.26	1767.40
601.45	1759.21
601.64	1708.01
601.83	1808.36
602.03	1726.44
602.22	1628.14
602.41	1796.07
602.60	1877.99
602.80	1808.36
602.99	1734.63
603.18	1697.77
603.37	1765.35
603.57	1781.73
603.76	1816.55
603.95	1824.74
604.14	1681.38
604.34	1662.95
604.53	1742.82
604.72	1701.86
604.91	1783.78
605.10	1769.44
605.30	1687.53
605.49	1892.32
605.68	1814.50
605.87	1771.49
606.07	1679.33
606.26	1765.35
606.45	1738.73
606.64	1777.64
606.84	1773.54
607.03	1775.59
607.22	1806.31
607.41	1683.43
607.60	1673.19
607.80	1775.59
607.99	1689.57
608.18	1712.10
608.37	1783.78
608.56	1656.81
608.76	1880.04
608.95	1759.21
609.14	1751.01
609.33	1751.01
609.52	1775.59
609.72	1759.21
609.91	1744.87
610.10	1734.63
610.29	1871.84
610.48	1710.05
610.68	1830.88
610.87	1710.05
611.06	1773.54
611.25	1812.45
611.44	1757.16
611.63	1712.10
611.83	1794.02
612.02	1660.90
612.21	1781.73
612.40	1683.43
612.59	1699.81
612.79	1669.09
612.98	1755.11
613.17	1763.30
613.36	1685.48
613.55	1804.26
613.74	1722.34
613.93	1722.34
614.13	1732.58
614.32	1693.67
614.51	1787.88
614.70	1730.53
614.89	1753.06
615.08	1744.87
615.28	2050.02
615.47	1656.81
615.66	1771.49
615.85	1736.68
616.04	1761.25
616.23	1673.19
616.42	1671.14
616.62	1781.73
616.81	1855.46
617.00	1710.05
617.19	1724.39
617.38	1662.95
617.57	1740.77
617.76	1769.44
617.95	1732.58
618.15	1691.62
618.34	1763.30
618.53	1632.23
618.72	1785.83
618.91	1701.86
619.10	1751.01
619.29	1740.77
619.48	1712.10
619.68	1689.57
619.87	1671.14
620.06	1751.01
620.25	1722.34
620.44	1660.90
620.63	1691.62
620.82	1785.83
621.01	1708.01
621.20	1689.57
621.39	1765.35
621.59	1708.01
621.78	1714.15
621.97	1689.57
622.16	1802.21
622.35	1767.40
622.54	1806.31
622.73	1734.63
622.92	1658.85
623.11	1783.78
623.30	1701.86
623.49	1744.87
623.68	1640.42
623.88	1734.63
624.07	1652.71
624.26	1767.40
624.45	1769.44
624.64	1685.48
624.83	1759.21
625.02	1781.73
625.21	1736.68
625.40	1705.96
625.59	1804.26
625.78	1744.87
625.97	1744.87
626.16	1732.58
626.35	1787.88
626.54	1800.16
626.74	1808.36
626.93	1712.10
627.12	1771.49
627.31	1855.46
627.50	1781.73
627.69	1765.35
627.88	1697.77
628.07	1714.15
628.26	1583.08
628.45	1681.38
628.64	1656.81
628.83	1730.53
629.02	1626.09
629.21	1822.69
629.40	1777.64
629.59	1603.56
629.78	1740.77
629.97	1751.01
630.16	1710.05
630.35	1718.25
630.54	1763.30
630.73	1644.52
630.92	1628.14
631.11	1693.67
631.30	1708.01
631.49	1724.39
631.68	1732.58
631.87	1761.25
632.06	1533.93
632.25	1828.84
632.44	1728.49
632.63	1699.81
632.82	1740.77
633.01	1656.81
633.20	1712.10
633.39	1654.76
633.58	1673.19
633.77	1701.86
633.96	1705.96
634.15	1746.92
634.34	1757.16
634.53	1724.39
634.72	1705.96
634.91	1683.43
635.10	1771.49
635.29	1755.11
635.48	1689.57
635.67	1683.43
635.86	1654.76
636.05	1720.29
636.24	1716.20
636.43	1654.76
636.62	1794.02
636.81	1656.81
637.00	1718.25
637.19	1775.59
637.38	1730.53
637.57	1665.00
637.76	1656.81
637.95	1716.20
638.14	1693.67
638.33	1710.05
638.52	1734.63
638.71	1685.48
638.89	1691.62
639.08	1857.51
639.27	1767.40
639.46	1611.75
639.65	1794.02
639.84	1759.21
640.03	1765.35
640.22	1658.85
640.41	1824.74
640.60	1683.43
640.79	1685.48
640.98	1751.01
641.17	1722.34
641.36	1763.30
641.55	1730.53
641.74	1624.04
641.92	1615.85
642.11	1652.71
642.30	1705.96
642.49	1683.43
642.68	1673.19
642.87	1738.73
643.06	1791.97
643.25	1724.39
643.44	1681.38
643.63	1722.34
643.82	1662.95
644.00	1681.38
644.19	1697.77
644.38	1658.85
644.57	1789.92
644.76	1744.87
644.95	1681.38
645.14	1746.92
645.33	1675.24
645.52	1697.77
645.71	1714.15
645.89	1689.57
646.08	1722.34
646.27	1751.01
646.46	1812.45
646.65	1597.42
646.84	1738.73
647.03	1712.10
647.22	1839.08
647.40	1734.63
647.59	1665.00
647.78	1660.90
647.97	1689.57
648.16	1675.24
648.35	1740.77
648.54	1794.02
648.73	1621.99
648.91	1736.68
649.10	1691.62
649.29	1689.57
649.48	1812.45
649.67	1703.91
649.86	1746.92
650.05	1710.05
650.23	1755.11
650.42	1705.96
650.61	1773.54
650.80	1724.39
650.99	1798.12
651.18	1759.21
651.36	1689.57
651.55	1730.53
651.74	1755.11
651.93	1675.24
652.12	1746.92
652.31	1748.97
652.49	1632.23
652.68	1687.53
652.87	1751.01
653.06	1681.38
653.25	1783.78
653.44	1624.04
653.62	1746.92
653.81	1732.58
654.00	1689.57
654.19	1769.44
654.38	1765.35
654.56	1783.78
654.75	1724.39
654.94	1753.06
655.13	1701.86
655.32	1705.96
655.51	1814.50
655.69	1703.91
655.88	1699.81
656.07	1708.01
656.26	1783.78
656.45	1683.43
656.63	1665.00
656.82	1708.01
657.01	1742.82
657.20	1746.92
657.38	1779.68
657.57	1708.01
657.76	1646.57
657.95	1751.01
658.14	1656.81
658.32	1724.39
658.51	1646.57
658.70	1710.05
658.89	1763.30
659.08	1697.77
659.26	1773.54
659.45	1683.43
659.64	1669.09
659.83	1746.92
660.01	1849.32
660.20	1714.15
660.39	1841.12
660.58	1595.37
660.76	1703.91
660.95	1619.94
661.14	1648.61
661.33	1658.85
661.51	1677.29
661.70	1624.04
661.89	1724.39
662.08	1726.44
662.26	1556.46
662.45	1624.04
662.64	1814.50
662.83	1787.88
663.01	1697.77
663.20	1757.16
663.39	1849.32
663.58	1652.71
663.76	1734.63
663.95	1736.68
664.14	1683.43
664.32	1654.76
664.51	1708.01
664.70	1566.70
664.89	1781.73
665.07	1597.42
665.26	1839.08
665.45	1652.71
665.64	1802.21
665.82	1705.96
666.01	1767.40
666.20	1720.29
666.38	1726.44
666.57	1890.28
666.76	2189.28
666.95	4554.68
667.13	10311.52
667.32	15228.70
667.51	17628.92
667.69	19142.36
667.88	17811.18
668.07	12480.32
668.25	9637.74
668.44	8322.94
668.63	7327.63
668.81	6899.61
669.00	6317.98
669.19	5629.87
669.38	5081.01
669.56	4603.83
669.75	4014.02
669.94	3430.35
670.12	2813.91
670.31	2547.67
670.50	2230.24
670.68	2119.65
670.87	1849.32
671.06	1859.56
671.24	1843.17
671.43	1798.12
671.62	1712.10
671.80	1740.77
671.99	1708.01
672.18	1834.98
672.36	1751.01
672.55	1689.57
672.74	1650.66
672.92	1697.77
673.11	1806.31
673.29	1646.57
673.48	1740.77
673.67	1669.09
673.85	1781.73
674.04	1701.86
674.23	1738.73
674.41	1794.02
674.60	1591.27
674.79	1621.99
674.97	1671.14
675.16	1740.77
675.34	1728.49
675.53	1755.11
675.72	1751.01
675.90	1759.21
676.09	1658.85
676.28	1705.96
676.46	1642.47
676.65	1771.49
676.83	1599.46
677.02	1714.15
677.21	1742.82
677.39	1699.81
677.58	1617.90
677.77	1705.96
677.95	1724.39
678.14	1697.77
678.32	1724.39
678.51	1683.43
678.70	1800.16
678.88	1691.62
679.07	1746.92
679.25	1812.45
679.44	1701.86
679.63	1660.90
679.81	1705.96
680.00	1773.54
680.18	1794.02
680.37	1697.77
680.55	1718.25
680.74	1619.94
680.93	1667.05
681.11	1716.20
681.30	1689.57
681.48	1716.20
681.67	1738.73
681.85	1753.06
682.04	1712.10
682.23	1787.88
682.41	1769.44
682.60	1734.63
682.78	1734.63
682.97	1628.14
683.15	1720.29
683.34	1767.40
683.53	1816.55
683.71	1591.27
683.90	1873.89
684.08	1832.93
684.27	1720.29
684.45	1726.44
684.64	1736.68
684.82	1748.97
685.01	1738.73
685.19	1759.21
685.38	1820.64
685.57	1730.53
685.75	1687.53
685.94	1746.92
686.12	1677.29
686.31	1722.34
686.49	1824.74
686.68	1621.99
686.86	1722.34
687.05	1689.57
687.23	1806.31
687.42	1677.29
687.60	1550.31
687.79	1736.68
687.97	1796.07
688.16	1755.11
688.34	1828.84
688.53	1558.50
688.71	1748.97
688.90	1734.63
689.08	1738.73
689.27	1599.46
689.45	1832.93
689.64	1787.88
689.82	1695.72
690.01	1652.71
690.19	1802.21
690.38	1681.38
690.56	1755.11
690.75	1703.91
690.93	1720.29
691.12	1648.61
691.30	1677.29
691.49	1726.44
691.67	1650.66
691.86	1800.16
692.04	1617.90
692.23	1611.75
692.41	1734.63
692.60	1710.05
692.78	1777.64
692.97	1650.66
693.15	1753.06
693.34	1798.12
693.52	1710.05
693.71	1665.00
693.89	1722.34
694.08	1595.37
694.26	1763.30
694.44	1806.31
694.63	1738.73
694.81	1609.70
695.00	1646.57
695.18	1779.68
695.37	1869.80
695.55	1730.53
695.74	1712.10
695.92	1615.85
696.10	1779.68
696.29	1650.66
696.47	1669.09
696.66	1624.04
696.84	1599.46
697.03	1740.77
697.21	1834.98
697.40	2326.49
697.58	1834.98
697.76	1699.81
697.95	1677.29
698.13	1665.00
698.32	1644.52
698.50	1714.15
698.68	1722.34
698.87	1708.01
699.05	1779.68
699.24	1734.63
699.42	1650.66
699.61	1724.39
699.79	1665.00
699.97	1720.29
700.16	1648.61
700.34	1554.41
700.53	1742.82
700.71	1810.40
700.89	1734.63
701.08	1632.23
701.26	1697.77
701.45	2064.35
701.63	1652.71
701.81	1705.96
702.00	1648.61
702.18	1730.53
702.37	1648.61
702.55	1714.15
702.73	1722.34
702.92	1712.10
703.10	1722.34
703.28	1722.34
703.47	1626.09
703.65	1769.44
703.84	1834.98
704.02	1677.29
704.20	1746.92
704.39	1648.61
704.57	1677.29
704.75	1734.63
704.94	1746.92
705.12	1818.60
705.30	1722.34
705.49	2277.34
705.67	4378.56
705.86	9359.22
706.04	12541.76
706.22	14569.25
706.41	15507.22
706.59	14018.35
706.77	9762.67
706.96	7444.37
707.14	6582.17
707.32	6021.03
707.51	5562.28
707.69	4890.55
707.87	4198.34
708.06	3528.65
708.24	2981.84
708.42	2365.40
708.61	2238.43
708.79	1953.76
708.97	1867.75
709.16	1800.16
709.34	1802.21
709.52	1783.78
709.71	1748.97
709.89	1781.73
710.07	1660.90
710.26	1615.85
710.44	1724.39
710.62	1742.82
710.80	1656.81
710.99	1802.21
711.17	1726.44
711.35	1660.90
711.54	1687.53
711.72	1779.68
711.90	1742.82
712.09	1722.34
712.27	1683.43
712.45	1726.44
712.63	1751.01
712.82	1705.96
713.00	1777.64
713.18	1748.97
713.37	1759.21
713.55	1738.73
713.73	1648.61
713.91	1791.97
714.10	1652.71
714.28	1710.05
714.46	1759.21
714.65	1726.44
714.83	1853.41
715.01	1771.49
715.19	1722.34
715.38	1630.18
715.56	1724.39
715.74	1710.05
715.92	1691.62
716.11	1710.05
716.29	1585.13
716.47	1667.05
716.65	1681.38
716.84	1648.61
717.02	1744.87
717.20	1628.14
717.38	1726.44
717.57	1781.73
717.75	1697.77
717.93	1722.34
718.11	1751.01
718.30	1710.05
718.48	1755.11
718.66	1791.97
718.84	1789.92
719.03	1701.86
719.21	1646.57
719.39	1826.79
719.57	1726.44
719.75	1742.82
719.94	1601.51
720.12	1701.86
720.30	1767.40
720.48	1736.68
720.67	1630.18
720.85	1587.18
721.03	1691.62
721.21	1671.14
721.39	1714.15
721.58	1728.49
721.76	1705.96
721.94	1705.96
722.12	1763.30
722.30	1757.16
722.49	1697.77
722.67	1746.92
722.85	1695.72
723.03	1613.80
723.21	1708.01
723.40	1697.77
723.58	1757.16
723.76	1775.59
723.94	1837.03
724.12	1708.01
724.30	1681.38
724.49	1822.69
724.67	1689.57
724.85	1738.73
725.03	1677.29
725.21	1783.78
725.40	1767.40
725.58	1660.90
725.76	1802.21
725.94	1671.14
726.12	1605.61
726.30	1662.95
726.49	1671.14
726.67	1705.96
726.85	1771.49
727.03	1751.01
727.21	2162.66
727.39	2815.96
727.57	3848.13
727.76	4192.19
727.94	4501.44
728.12	4392.89
728.30	3760.07
728.48	3088.34
728.66	2758.61
728.84	2471.90
729.03	2275.29
729.21	2189.28
729.39	1972.19
729.57	1789.92
729.75	1900.52
729.93	1759.21
730.11	1722.34
730.30	1722.34
730.48	1697.77
730.66	1779.68
730.84	1785.83
731.02	1679.33
731.20	1660.90
731.38	1652.71
731.56	1703.91
731.74	1648.61
731.93	1765.35
732.11	1734.63
732.29	1624.04
732.47	1761.25
732.65	1716.20
732.83	1804.26
733.01	1667.05
733.19	1615.85
733.37	1724.39
733.56	1726.44
733.74	1634.28
733.92	1744.87
734.10	1652.71
734.28	1744.87
734.46	1665.00
734.64	1658.85
734.82	1677.29
735.00	1689.57
735.18	1595.37
735.36	1703.91
735.54	1777.64
735.73	1740.77
735.91	1746.92
736.09	1722.34
736.27	1757.16
736.45	1712.10
736.63	1636.33
736.81	1644.52
736.99	1796.07
737.17	1724.39
737.35	1634.28
737.53	1775.59
737.71	1693.67
737.89	1771.49
738.07	1714.15
738.25	1671.14
738.43	1636.33
738.61	1665.00
738.80	1628.14
738.98	1628.14
739.16	1667.05
739.34	1660.90
739.52	1882.08
739.70	1726.44
739.88	1771.49
740.06	1800.16
740.24	1621.99
740.42	1726.44
740.60	1525.74
740.78	1703.91
740.96	1636.33
741.14	1701.86
741.32	1716.20
741.50	1630.18
741.68	1886.18
741.86	1863.65
742.04	1693.67
742.22	1665.00
742.40	1714.15
742.58	1699.81
742.76	1601.51
742.94	1759.21
743.12	1652.71
743.30	1728.49
743.48	1757.16
743.66	1558.50
743.84	1738.73
744.02	1748.97
744.20	1697.77
744.38	1685.48
744.56	1695.72
744.74	1785.83
744.92	1708.01
745.10	1826.79
745.28	1699.81
745.46	1718.25
745.64	1697.77
745.82	1773.54
746.00	1642.47
746.18	1787.88
746.36	1642.47
746.54	1681.38
746.72	1695.72
746.90	1679.33
747.08	1798.12
747.26	1697.77
747.44	1804.26
747.62	1802.21
747.80	1708.01
747.98	1628.14
748.15	1632.23
748.33	1800.16
748.51	1720.29
748.69	1734.63
748.87	1693.67
749.05	1716.20
749.23	1679.33
749.41	1746.92
749.59	1671.14
749.77	1767.40
749.95	1726.44
750.13	1613.80
750.31	1675.24
750.49	1740.77
750.67	1722.34
750.85	1755.11
751.03	1763.30
751.20	1818.60
751.38	1652.71
751.56	1708.01
751.74	1665.00
751.92	1718.25
752.10	1730.53
752.28	1755.11
752.46	1648.61
752.64	1662.95
752.82	1775.59
753.00	1753.06
753.18	1697.77
753.35	1630.18
753.53	1746.92
753.71	1703.91
753.89	1751.01
754.07	1697.77
754.25	1708.01
754.43	1781.73
754.61	1656.81
754.79	1650.66
754.97	1710.05
755.14	1703.91
755.32	1667.05
755.50	1794.02
755.68	1734.63
755.86	1755.11
756.04	1699.81
756.22	1587.18
756.40	1724.39
756.57	1843.17
756.75	1652.71
756.93	1791.97
757.11	1849.32
757.29	1648.61
757.47	1656.81
757.65	1583.08
757.82	1544.17
758.00	1671.14
758.18	1730.53
758.36	1673.19
758.54	1783.78
758.72	1673.19
758.90	1726.44
759.07	1693.67
759.25	1640.42
759.43	1714.15
759.61	1693.67
759.79	2250.72
759.97	1673.19
760.15	1613.80
760.32	1677.29
760.50	1638.38
760.68	1822.69
760.86	1677.29
761.04	1777.64
761.22	1748.97
761.39	1636.33
761.57	1685.48
761.75	1703.91
761.93	1789.92
762.11	1648.61
762.28	1675.24
762.46	1626.09
762.64	1746.92
762.82	1593.32
763.00	1695.72
763.18	1802.21
763.35	1677.29
763.53	1701.86
763.71	1755.11
763.89	1669.09
764.07	1658.85
764.24	1624.04
764.42	1701.86
764.60	1640.42
764.78	1705.96
764.96	1800.16
765.13	1853.41
765.31	1601.51
765.49	1695.72
765.67	1691.62
765.84	1626.09
766.02	1675.24
766.20	1642.47
766.38	1742.82
766.56	1742.82
766.73	1775.59
766.91	1687.53
767.09	1658.85
767.27	1712.10
767.44	1679.33
767.62	1730.53
767.80	1720.29
767.98	1701.86
768.15	1744.87
768.33	1767.40
768.51	1773.54
768.69	1748.97
768.87	1742.82
769.04	1665.00
769.22	1810.40
769.40	1718.25
769.58	1828.84
769.75	1769.44
769.93	1732.58
770.11	1699.81
770.28	1597.42
770.46	1720.29
770.64	1687.53
770.82	1665.00
770.99	1644.52
771.17	1644.52
771.35	1632.23
771.53	1705.96
771.70	1683.43
771.88	1728.49
772.06	1699.81
772.23	1742.82
772.41	1748.97
772.59	1667.05
772.77	1615.85
772.94	1652.71
773.12	1705.96
773.30	1646.57
773.47	1751.01
773.65	1605.61
773.83	1759.21
774.01	1710.05
774.18	1617.90
774.36	1689.57
774.54	1503.21
774.71	1689.57
774.89	1669.09
775.07	1671.14
775.24	1638.38
775.42	1708.01
775.60	1751.01
775.78	1609.70
775.95	1656.81
776.13	1605.61
776.31	1603.56
776.48	1730.53
776.66	1748.97
776.84	1660.90
777.01	1574.89
777.19	1593.32
777.37	1607.66
777.54	1701.86
777.72	1787.88
777.90	1703.91
778.07	1656.81
778.25	1777.64
778.43	1730.53
778.60	1605.61
778.78	1834.98
778.96	1765.35
779.13	1695.72
779.31	1712.10
779.49	1718.25
779.66	1693.67
779.84	1730.53
780.01	1755.11
780.19	1675.24
780.37	1814.50
780.54	1757.16
780.72	1628.14
780.90	1675.24
781.07	1720.29
781.25	1626.09
781.43	1765.35
781.60	1632.23
781.78	1691.62
781.95	1665.00
782.13	1632.23
782.31	1689.57
782.48	1613.80
782.66	1765.35
782.83	1798.12
783.01	1714.15
783.19	1798.12
783.36	1644.52
783.54	1533.93
783.72	1705.96
783.89	1701.86
784.07	1751.01
784.24	1734.63
784.42	1808.36
784.60	1689.57
784.77	1726.44
784.95	1736.68
785.12	1736.68
785.30	1769.44
785.47	1669.09
785.65	1595.37
785.83	1730.53
786.00	1648.61
786.18	1693.67
786.35	1642.47
786.53	1648.61
786.71	1746.92
786.88	1667.05
787.06	1765.35
787.23	1681.38
787.41	1628.14
787.58	1642.47
787.76	1712.10
787.94	1697.77
788.11	1722.34
788.29	1658.85
788.46	1630.18
788.64	1605.61
788.81	1693.67
788.99	1689.57
789.16	1621.99
789.34	1697.77
789.52	1626.09
789.69	1718.25
789.87	1644.52
790.04	1691.62
790.22	1744.87
790.39	1855.46
790.57	1712.10
790.74	1615.85
790.92	1718.25
791.09	1617.90
791.27	1673.19
791.44	1744.87
791.62	1656.81
791.79	1714.15
791.97	1701.86
792.15	1894.37
792.32	1705.96
792.50	1767.40
792.67	1787.88
792.85	1720.29
793.02	1722.34
793.20	1710.05
793.37	1619.94
793.55	1656.81
793.72	1693.67
793.90	1763.30
794.07	1632.23
794.25	1718.25
794.42	1714.15
794.60	1675.24
794.77	1763.30
794.95	1693.67
795.12	1753.06
795.30	1681.38
795.47	1693.67
795.65	1857.51
795.82	1753.06
796.00	1650.66
796.17	1646.57
796.34	1613.80
796.52	1687.53
796.69	1769.44
796.87	1759.21
797.04	1724.39
797.22	1734.63
797.39	1716.20
797.57	1777.64
797.74	1751.01
797.92	1767.40
798.09	1673.19
798.27	1755.11
798.44	1695.72
798.62	1689.57
798.79	1693.67
798.96	1740.77
799.14	1755.11
799.31	1791.97
799.49	1662.95
799.66	1642.47
799.84	1714.15
800.01	1652.71
800.19	1673.19
800.36	1617.90
800.53	1748.97
800.71	1724.39
800.88	1824.74
801.06	1665.00
801.23	1613.80
801.41	1677.29
801.58	1667.05
801.75	1636.33
801.93	1728.49
802.10	1742.82
802.28	1708.01
802.45	1667.05
802.63	1726.44
802.80	1820.64
802.97	1708.01
803.15	1695.72
803.32	1683.43
803.50	1697.77
803.67	1640.42
803.84	1650.66
804.02	1689.57
804.19	1746.92
804.37	1488.87
804.54	1654.76
804.71	1675.24
804.89	1728.49
805.06	1578.98
805.24	1675.24
805.41	1603.56
805.58	1630.18
805.76	1738.73
805.93	1806.31
806.10	1744.87
806.28	1677.29
806.45	1650.66
806.63	1720.29
806.80	1765.35
806.97	1710.05
807.15	1632.23
807.32	1695.72
807.49	1714.15
807.67	1538.02
807.84	1755.11
808.01	1652.71
808.19	1845.22
808.36	1791.97
808.54	1681.38
808.71	1677.29
808.88	1730.53
809.06	1697.77
809.23	1822.69
809.40	1681.38
809.58	1734.63
809.75	1683.43
809.92	1617.90
810.10	1800.16
810.27	1742.82
810.44	1675.24
810.62	1755.11
810.79	1714.15
810.96	1701.86
811.14	1669.09
811.31	1767.40
811.48	1736.68
811.66	1640.42
811.83	1812.45
812.00	1718.25
812.18	1701.86
812.35	1789.92
812.52	1621.99
812.69	1681.38
812.87	1763.30
813.04	1677.29
813.21	1697.77
813.39	1677.29
813.56	1648.61
813.73	1714.15
813.91	1615.85
814.08	1730.53
814.25	1667.05
814.42	1626.09
814.60	1714.15
814.77	1712.10
814.94	1710.05
815.12	1679.33
815.29	1740.77
815.46	1662.95
815.63	1662.95
815.81	1732.58
815.98	1597.42
816.15	1675.24
816.33	1689.57
816.50	1697.77
816.67	1742.82
816.84	1648.61
817.02	1601.51
817.19	1724.39
817.36	1708.01
817.53	1708.01
817.71	1656.81
817.88	1755.11
818.05	1665.00
818.22	1667.05
818.40	1816.55
818.57	1595.37
818.74	1757.16
818.91	1691.62
819.09	1708.01
819.26	1697.77
819.43	1681.38
819.60	1703.91
819.78	1726.44
819.95	1787.88
820.12	1667.05
820.29	1734.63
820.47	1765.35
820.64	1634.28
820.81	1669.09
820.98	1738.73
821.15	1632.23
821.33	1689.57
821.50	1605.61
821.67	1677.29
821.84	1679.33
822.02	1718.25
822.19	1775.59
822.36	1687.53
822.53	1730.53
822.70	1656.81
822.88	1787.88
823.05	1802.21
823.22	1705.96
823.39	1736.68
823.56	1710.05
823.74	1824.74
823.91	1689.57
824.08	1638.38
824.25	1574.89
824.42	1742.82
824.60	1574.89
824.77	1744.87
824.94	1669.09
825.11	1753.06
825.28	1593.32
825.45	1685.48
825.63	1703.91
825.80	1710.05
825.97	1714.15
826.14	1658.85
826.31	1570.79
826.48	1710.05
826.66	1611.75
826.83	1624.04
827.00	1722.34
827.17	1685.48
827.34	1697.77
827.51	1691.62
827.69	1691.62
827.86	1583.08
828.03	1689.57
828.20	1722.34
828.37	1617.90
828.54	1722.34
828.71	1769.44
828.89	1847.27
829.06	1724.39
829.23	1796.07
829.40	1683.43
829.57	1634.28
829.74	1742.82
829.91	1689.57
830.09	1626.09
830.26	1714.15
830.43	1771.49
830.60	1730.53
830.77	1755.11
830.94	1734.63
831.11	1738.73
831.28	1748.97
831.46	1830.88
831.63	1718.25
831.80	1779.68
831.97	1708.01
832.14	1603.56
832.31	1714.15
832.48	1689.57
832.65	1748.97
832.82	1763.30
832.99	1714.15
833.17	1640.42
833.34	1710.05
833.51	1712.10
833.68	1562.60
833.85	1773.54
834.02	1632.23
834.19	1703.91
834.36	1576.94
834.53	1720.29
834.70	1677.29
834.87	1691.62
835.04	1763.30
835.22	1609.70
835.39	1621.99
835.56	1642.47
835.73	1705.96
835.90	1759.21
836.07	1693.67
836.24	1718.25
836.41	1648.61
836.58	1681.38
836.75	1753.06
836.92	1662.95
837.09	1687.53
837.26	1765.35
837.43	1656.81
837.60	1648.61
837.77	1667.05
837.94	1724.39
838.12	1753.06
838.29	1683.43
838.46	1654.76
838.63	1654.76
838.80	1773.54
838.97	1722.34
839.14	1744.87
839.31	1683.43
839.48	1697.77
839.65	1742.82
839.82	1716.20
839.99	1689.57
840.16	1673.19
840.33	1568.74
840.50	1732.58
840.67	1681.38
840.84	1593.32
841.01	1693.67
841.18	1689.57
841.35	1679.33
841.52	1734.63
841.69	1755.11
841.86	1751.01
842.03	1669.09
842.20	1718.25
842.37	1624.04
842.54	1699.81
842.71	1742.82
842.88	1658.85
843.05	1761.25
843.22	1675.24
843.39	1701.86
843.56	1679.33
843.73	1757.16
843.90	1720.29
844.07	1687.53
844.24	1800.16
844.41	1669.09
844.58	1724.39
844.75	1710.05
844.92	1697.77
845.09	1724.39
845.26	1654.76
845.43	1624.04
845.60	1683.43
845.77	1779.68
845.94	1712.10
846.10	1800.16
846.27	1585.13
846.44	1652.71
846.61	1701.86
846.78	1753.06
846.95	1753.06
847.12	1669.09
847.29	1683.43
847.46	1660.90
847.63	1761.25
847.80	1691.62
847.97	1697.77
848.14	1826.79
848.31	1689.57
848.48	1648.61
848.65	1751.01
848.82	1691.62
848.98	1708.01
849.15	1695.72
849.32	1724.39
849.49	1718.25
849.66	1646.57
849.83	1683.43
850.00	1624.04
850.17	1673.19
850.34	1726.44
850.51	1652.71
850.68	1681.38
850.85	1804.26
851.01	1724.39
851.18	1728.49
851.35	1734.63
851.52	1722.34
851.69	1771.49
851.86	1578.98
852.03	1695.72
852.20	1708.01
852.37	1714.15
852.53	1611.75
852.70	1714.15
852.87	1652.71
853.04	1675.24
853.21	1755.11
853.38	1699.81
853.55	1730.53
853.72	1779.68
853.89	1638.38
854.05	1685.48
854.22	1757.16
854.39	1609.70
854.56	1744.87
854.73	1693.67
854.90	1628.14
855.07	1761.25
855.23	1695.72
855.40	1644.52
855.57	1656.81
855.74	1583.08
855.91	1837.03
856.08	1652.71
856.25	1693.67
856.41	1714.15
856.58	1728.49
856.75	1718.25
856.92	1613.80
857.09	1718.25
857.26	1677.29
857.42	1656.81
857.59	1722.34
857.76	1722.34
857.93	1677.29
858.10	1779.68
858.27	1593.32
858.43	1656.81
858.60	1640.42
858.77	1564.65
858.94	1632.23
859.11	1791.97
859.27	1605.61
859.44	1603.56
859.61	1781.73
859.78	1732.58
859.95	1681.38
860.12	1681.38
860.28	1898.47
860.45	1724.39
860.62	1662.95
860.79	1751.01
860.95	1642.47
861.12	1619.94
861.29	1691.62
861.46	1656.81
861.63	1738.73
861.79	1716.20
861.96	1628.14
862.13	1691.62
862.30	1814.50
862.47	1609.70
862.63	1667.05
862.80	1787.88
862.97	1757.16
863.14	1730.53
863.30	1650.66
863.47	1603.56
863.64	1787.88
863.81	1714.15
863.97	1685.48
864.14	1730.53
864.31	1742.82
864.48	1765.35
864.65	1671.14
864.81	1740.77
864.98	1693.67
865.15	1691.62
865.32	1783.78
865.48	1779.68
865.65	1785.83
865.82	1728.49
865.98	1746.92
866.15	1779.68
866.32	1708.01
866.49	1638.38
866.65	1789.92
866.82	1638.38
866.99	1681.38
867.16	1687.53
867.32	1599.46
867.49	1669.09
867.66	1656.81
867.83	1691.62
867.99	1581.03
868.16	1691.62
868.33	1642.47
868.49	1744.87
868.66	1724.39
868.83	1755.11
868.99	1728.49
869.16	1609.70
869.33	1728.49
869.50	1724.39
869.66	1718.25
869.83	1648.61
870.00	1671.14
870.16	1736.68
870.33	1619.94
870.50	1705.96
870.66	1763.30
870.83	1814.50
871.00	1775.59
871.17	1744.87
871.33	1777.64
871.50	1650.66
871.67	1644.52
871.83	1630.18
872.00	1779.68
872.17	1681.38
872.33	1757.16
872.50	1769.44
872.67	1685.48
872.83	1665.00
873.00	1794.02
873.17	1652.71
873.33	1712.10
873.50	1699.81
873.67	1621.99
873.83	1656.81
874.00	1728.49
874.16	1791.97
874.33	1669.09
874.50	1689.57
874.66	1714.15
874.83	1708.01
875.00	1755.11
875.16	1787.88
875.33	1746.92
875.50	1574.89
875.66	1615.85
875.83	1714.15
875.99	1773.54
876.16	1656.81
876.33	1656.81
876.49	1640.42
876.66	1656.81
876.83	1675.24
876.99	1673.19
877.16	1730.53
877.32	1671.14
877.49	1693.67
877.66	1791.97
877.82	1761.25
877.99	1712.10
878.15	1714.15
878.32	1673.19
878.49	1714.15
878.65	1646.57
878.82	1716.20
878.98	1671.14
879.15	1779.68
879.32	1748.97
879.48	1738.73
879.65	1753.06
879.81	1691.62
879.98	1669.09
880.15	1681.38
880.31	1689.57
880.48	1710.05
880.64	1775.59
880.81	1710.05
880.97	1802.21
881.14	1789.92
881.31	1701.86
881.47	1837.03
881.64	1685.48
881.80	1533.93
881.97	1726.44
882.13	1732.58
882.30	1691.62
882.47	1654.76
882.63	1679.33
882.80	1576.94
882.96	1671.14
883.13	1771.49
883.29	1689.57
883.46	1687.53
883.62	1779.68
883.79	1673.19
883.95	1691.62
884.12	1656.81
884.29	1693.67
884.45	1742.82
884.62	1724.39
884.78	1630.18
884.95	1796.07
885.11	1619.94
885.28	1759.21
885.44	1732.58
885.61	1726.44
885.77	1718.25
885.94	1677.29
886.10	1699.81
886.27	1734.63
886.43	1820.64
886.60	1759.21
886.76	1642.47
886.93	1658.85
887.09	1693.67
887.26	1652.71
887.42	1691.62
887.59	1798.12
887.75	1853.41
887.92	1685.48
888.08	1724.39
888.25	1806.31
888.41	1736.68
888.58	1708.01
888.74	1642.47
888.91	1683.43
>>>>>End Processed Spectral Data<<<<<
