SpectraSuite Data File
++++++++++++++++++++++++++++++++++++
Date: Mon Jun 06 14:57:17 CEST 2016
User: root
Dark Spectrum Present: No
Reference Spectrum Present: No
Number of Sampled Component Spectra: 1
Spectrometers: USB4C02835
Integration Time (usec): 100000 (USB4C02835)
Spectra Averaged: 1 (USB4C02835)
Boxcar Smoothing: 0 (USB4C02835)
Correct for Electrical Dark: No (USB4C02835)
Strobe/Lamp Enabled: No (USB4C02835)
Correct for Detector Non-linearity: No (USB4C02835)
Correct for Stray Light: No (USB4C02835)
Number of Pixels in Processed Spectrum: 3648
>>>>>Begin Processed Spectral Data<<<<<
177.47	1560.55
177.69	1560.55
177.91	1560.55
178.13	1415.15
178.36	1484.78
178.58	1677.29
178.80	1748.97
179.02	1681.38
179.24	1673.19
179.46	1689.57
179.68	1767.40
179.90	1691.62
180.13	1705.96
180.35	1654.76
180.57	1712.10
180.79	1738.73
181.01	1626.09
181.23	1816.55
181.45	1673.19
181.67	1771.49
181.90	1669.09
182.12	1720.29
182.34	1583.08
182.56	1736.68
182.78	1667.05
183.00	1650.66
183.22	1708.01
183.44	1638.38
183.66	1849.32
183.89	1779.68
184.11	1710.05
184.33	1746.92
184.55	1796.07
184.77	1761.25
184.99	1691.62
185.21	1714.15
185.43	1867.75
185.65	1691.62
185.87	1710.05
186.10	1861.60
186.32	1791.97
186.54	1746.92
186.76	1687.53
186.98	1720.29
187.20	1652.71
187.42	1724.39
187.64	1673.19
187.86	1820.64
188.08	1748.97
188.30	1697.77
188.52	1644.52
188.75	1691.62
188.97	1763.30
189.19	1599.46
189.41	1673.19
189.63	1710.05
189.85	1697.77
190.07	1646.57
190.29	1673.19
190.51	1767.40
190.73	1656.81
190.95	1777.64
191.17	1791.97
191.39	1611.75
191.61	1634.28
191.84	1636.33
192.06	1673.19
192.28	1581.03
192.50	1929.19
192.72	1777.64
192.94	1701.86
193.16	1779.68
193.38	1665.00
193.60	1650.66
193.82	1722.34
194.04	1769.44
194.26	1699.81
194.48	1669.09
194.70	1656.81
194.92	1697.77
195.14	1617.90
195.36	1589.22
195.58	1718.25
195.80	1693.67
196.02	1675.24
196.24	1691.62
196.46	1708.01
196.69	1617.90
196.91	1843.17
197.13	1669.09
197.35	1673.19
197.57	1726.44
197.79	1693.67
198.01	1755.11
198.23	1738.73
198.45	1703.91
198.67	1685.48
198.89	1714.15
199.11	1724.39
199.33	1689.57
199.55	1634.28
199.77	1673.19
199.99	1675.24
200.21	1652.71
200.43	1705.96
200.65	1658.85
200.87	1632.23
201.09	1710.05
201.31	1673.19
201.53	1804.26
201.75	1738.73
201.97	1734.63
202.19	1681.38
202.41	1720.29
202.63	1761.25
202.85	1746.92
203.07	1701.86
203.29	1636.33
203.51	1695.72
203.73	1730.53
203.95	1810.40
204.17	1753.06
204.39	1714.15
204.61	1691.62
204.83	1757.16
205.05	1683.43
205.27	1789.92
205.49	1880.04
205.71	1746.92
205.93	1617.90
206.15	1681.38
206.37	1748.97
206.59	1658.85
206.81	1740.77
207.03	1607.66
207.25	1673.19
207.47	1753.06
207.69	1701.86
207.91	1714.15
208.13	1740.77
208.34	1677.29
208.56	1650.66
208.78	1728.49
209.00	1650.66
209.22	1689.57
209.44	1748.97
209.66	1636.33
209.88	1669.09
210.10	1744.87
210.32	1681.38
210.54	1738.73
210.76	1646.57
210.98	1683.43
211.20	1576.94
211.42	1705.96
211.64	1759.21
211.86	1710.05
212.08	1712.10
212.30	1728.49
212.52	1669.09
212.74	1722.34
212.96	1785.83
213.17	1726.44
213.39	1748.97
213.61	1789.92
213.83	1703.91
214.05	1613.80
214.27	1746.92
214.49	1613.80
214.71	1630.18
214.93	1773.54
215.15	1753.06
215.37	1755.11
215.59	1626.09
215.81	1722.34
216.03	1714.15
216.24	1665.00
216.46	1667.05
216.68	1701.86
216.90	1730.53
217.12	1730.53
217.34	1665.00
217.56	1705.96
217.78	1726.44
218.00	1746.92
218.22	1691.62
218.44	1769.44
218.66	1744.87
218.87	1810.40
219.09	1703.91
219.31	1687.53
219.53	1699.81
219.75	1689.57
219.97	1722.34
220.19	1732.58
220.41	1667.05
220.63	1775.59
220.85	1755.11
221.06	1642.47
221.28	1746.92
221.50	1699.81
221.72	1701.86
221.94	1759.21
222.16	1685.48
222.38	1796.07
222.60	1753.06
222.82	1726.44
223.03	1712.10
223.25	1640.42
223.47	1687.53
223.69	1818.60
223.91	1746.92
224.13	1812.45
224.35	1576.94
224.57	1806.31
224.78	1734.63
225.00	1615.85
225.22	1732.58
225.44	1716.20
225.66	1810.40
225.88	1693.67
226.10	1828.84
226.32	1681.38
226.53	1804.26
226.75	1681.38
226.97	1683.43
227.19	1708.01
227.41	1695.72
227.63	1619.94
227.85	1595.37
228.06	1705.96
228.28	1728.49
228.50	1759.21
228.72	1658.85
228.94	1738.73
229.16	1609.70
229.37	1591.27
229.59	1697.77
229.81	1773.54
230.03	1675.24
230.25	1626.09
230.47	1662.95
230.69	1667.05
230.90	1800.16
231.12	1693.67
231.34	1722.34
231.56	1761.25
231.78	1578.98
232.00	1630.18
232.21	1681.38
232.43	1566.70
232.65	1593.32
232.87	1728.49
233.09	1673.19
233.30	1689.57
233.52	1716.20
233.74	1646.57
233.96	1671.14
234.18	1652.71
234.40	1728.49
234.61	1806.31
234.83	1583.08
235.05	1640.42
235.27	1822.69
235.49	1718.25
235.70	1693.67
235.92	1757.16
236.14	1687.53
236.36	1783.78
236.58	1669.09
236.79	1791.97
237.01	1701.86
237.23	1755.11
237.45	1800.16
237.67	1630.18
237.88	1691.62
238.10	1757.16
238.32	1683.43
238.54	1730.53
238.76	1710.05
238.97	1681.38
239.19	1693.67
239.41	1816.55
239.63	1761.25
239.85	1621.99
240.06	1693.67
240.28	1726.44
240.50	1746.92
240.72	1673.19
240.93	1673.19
241.15	1767.40
241.37	1685.48
241.59	1652.71
241.81	1689.57
242.02	1705.96
242.24	1718.25
242.46	1681.38
242.68	1654.76
242.89	1689.57
243.11	1693.67
243.33	1703.91
243.55	1744.87
243.76	1744.87
243.98	1632.23
244.20	1665.00
244.42	1667.05
244.64	1724.39
244.85	1673.19
245.07	1669.09
245.29	1751.01
245.51	1699.81
245.72	1607.66
245.94	1794.02
246.16	1810.40
246.38	1730.53
246.59	1673.19
246.81	1740.77
247.03	1662.95
247.24	1656.81
247.46	1656.81
247.68	1734.63
247.90	1753.06
248.11	1697.77
248.33	1730.53
248.55	1710.05
248.77	1742.82
248.98	1681.38
249.20	1781.73
249.42	1691.62
249.64	1765.35
249.85	1572.84
250.07	1654.76
250.29	1665.00
250.50	1773.54
250.72	1556.46
250.94	1697.77
251.16	1847.27
251.37	1736.68
251.59	1724.39
251.81	1705.96
252.02	1798.12
252.24	1677.29
252.46	1834.98
252.68	1648.61
252.89	1621.99
253.11	1677.29
253.33	1806.31
253.54	1730.53
253.76	1585.13
253.98	1683.43
254.20	1724.39
254.41	1689.57
254.63	1710.05
254.85	1673.19
255.06	1714.15
255.28	1685.48
255.50	1687.53
255.71	1695.72
255.93	1615.85
256.15	1658.85
256.36	1689.57
256.58	1742.82
256.80	1726.44
257.02	1644.52
257.23	1681.38
257.45	1759.21
257.67	1748.97
257.88	1632.23
258.10	1716.20
258.32	1681.38
258.53	1705.96
258.75	1791.97
258.97	1746.92
259.18	1648.61
259.40	1648.61
259.62	1806.31
259.83	1832.93
260.05	1777.64
260.27	1968.10
260.48	1734.63
260.70	1673.19
260.92	1757.16
261.13	1636.33
261.35	1710.05
261.57	1638.38
261.78	1595.37
262.00	1716.20
262.22	1765.35
262.43	1652.71
262.65	1656.81
262.86	1656.81
263.08	1806.31
263.30	1742.82
263.51	1619.94
263.73	1681.38
263.95	1773.54
264.16	1703.91
264.38	1607.66
264.60	1746.92
264.81	1658.85
265.03	1761.25
265.25	1701.86
265.46	1621.99
265.68	1761.25
265.89	1763.30
266.11	1673.19
266.33	1771.49
266.54	1722.34
266.76	1755.11
266.98	1761.25
267.19	1755.11
267.41	1716.20
267.62	1652.71
267.84	1593.32
268.06	1740.77
268.27	1781.73
268.49	1779.68
268.70	1777.64
268.92	1603.56
269.14	1617.90
269.35	1640.42
269.57	1691.62
269.79	1753.06
270.00	1640.42
270.22	1800.16
270.43	1728.49
270.65	1572.84
270.87	1722.34
271.08	1699.81
271.30	1763.30
271.51	1705.96
271.73	1738.73
271.95	1734.63
272.16	1656.81
272.38	1621.99
272.59	1687.53
272.81	1675.24
273.02	1675.24
273.24	1787.88
273.46	1791.97
273.67	1636.33
273.89	1701.86
274.10	1693.67
274.32	1763.30
274.54	1734.63
274.75	1736.68
274.97	1650.66
275.18	1679.33
275.40	1742.82
275.61	1644.52
275.83	1652.71
276.05	1681.38
276.26	1730.53
276.48	1794.02
276.69	1617.90
276.91	1679.33
277.12	1775.59
277.34	1787.88
277.55	1837.03
277.77	1689.57
277.99	1601.51
278.20	1697.77
278.42	1681.38
278.63	1640.42
278.85	1687.53
279.06	1660.90
279.28	1761.25
279.49	1689.57
279.71	1677.29
279.93	1675.24
280.14	1638.38
280.36	1673.19
280.57	1765.35
280.79	1742.82
281.00	1642.47
281.22	1697.77
281.43	1669.09
281.65	1587.18
281.86	1648.61
282.08	1765.35
282.29	1742.82
282.51	1581.03
282.73	1624.04
282.94	1624.04
283.16	1740.77
283.37	1832.93
283.59	1609.70
283.80	1720.29
284.02	1710.05
284.23	1742.82
284.45	1669.09
284.66	1619.94
284.88	1650.66
285.09	1646.57
285.31	1705.96
285.52	1689.57
285.74	1697.77
285.95	1718.25
286.17	1730.53
286.38	1759.21
286.60	1673.19
286.81	1669.09
287.03	1689.57
287.24	1708.01
287.46	1669.09
287.67	1800.16
287.89	1890.28
288.10	1683.43
288.32	1720.29
288.53	1665.00
288.75	1667.05
288.96	1673.19
289.18	1621.99
289.39	1695.72
289.61	1800.16
289.82	1832.93
290.04	1884.13
290.25	1748.97
290.47	1740.77
290.68	1677.29
290.90	1705.96
291.11	1609.70
291.33	1771.49
291.54	1628.14
291.76	1656.81
291.97	1728.49
292.18	1656.81
292.40	1632.23
292.61	1650.66
292.83	1804.26
293.04	1699.81
293.26	1705.96
293.47	1689.57
293.69	1673.19
293.90	1617.90
294.12	1689.57
294.33	1738.73
294.55	1697.77
294.76	1728.49
294.97	1839.08
295.19	1861.60
295.40	1730.53
295.62	1693.67
295.83	1791.97
296.05	1656.81
296.26	1679.33
296.48	1665.00
296.69	1683.43
296.90	1718.25
297.12	1796.07
297.33	1783.78
297.55	1650.66
297.76	1755.11
297.98	1783.78
298.19	1697.77
298.41	1683.43
298.62	1681.38
298.83	1804.26
299.05	1693.67
299.26	1685.48
299.48	1685.48
299.69	1800.16
299.90	1650.66
300.12	1646.57
300.33	1730.53
300.55	1691.62
300.76	1701.86
300.98	1671.14
301.19	1761.25
301.40	1769.44
301.62	1683.43
301.83	1710.05
302.05	1724.39
302.26	1708.01
302.47	1744.87
302.69	1591.27
302.90	1685.48
303.12	1564.65
303.33	1705.96
303.54	1775.59
303.76	1695.72
303.97	1746.92
304.19	1687.53
304.40	1630.18
304.61	1642.47
304.83	1800.16
305.04	1732.58
305.26	1726.44
305.47	1601.51
305.68	1667.05
305.90	1689.57
306.11	1806.31
306.33	1785.83
306.54	1652.71
306.75	1714.15
306.97	1554.41
307.18	1619.94
307.39	1734.63
307.61	1671.14
307.82	1644.52
308.04	1689.57
308.25	1636.33
308.46	1697.77
308.68	1720.29
308.89	1724.39
309.10	1773.54
309.32	1710.05
309.53	1675.24
309.74	1740.77
309.96	1669.09
310.17	1759.21
310.39	1652.71
310.60	1687.53
310.81	1689.57
311.03	1712.10
311.24	1687.53
311.45	1779.68
311.67	1810.40
311.88	1665.00
312.09	1671.14
312.31	1650.66
312.52	1671.14
312.73	1677.29
312.95	1609.70
313.16	1628.14
313.37	1714.15
313.59	1738.73
313.80	1669.09
314.01	1826.79
314.23	1644.52
314.44	1636.33
314.65	1630.18
314.87	1619.94
315.08	1695.72
315.29	1691.62
315.51	1585.13
315.72	1540.07
315.93	1794.02
316.15	1791.97
316.36	1726.44
316.57	1697.77
316.79	1767.40
317.00	1624.04
317.21	1681.38
317.43	1724.39
317.64	1615.85
317.85	1652.71
318.07	1683.43
318.28	1665.00
318.49	1822.69
318.70	1841.12
318.92	1773.54
319.13	1837.03
319.34	1867.75
319.56	1755.11
319.77	1800.16
319.98	1824.74
320.20	1722.34
320.41	1757.16
320.62	1720.29
320.83	1716.20
321.05	1812.45
321.26	1767.40
321.47	1697.77
321.69	1685.48
321.90	1624.04
322.11	1646.57
322.32	1773.54
322.54	1718.25
322.75	1691.62
322.96	1791.97
323.18	1611.75
323.39	1648.61
323.60	1632.23
323.81	1726.44
324.03	1740.77
324.24	1730.53
324.45	1636.33
324.66	1718.25
324.88	1837.03
325.09	1789.92
325.30	1732.58
325.52	1693.67
325.73	1724.39
325.94	1626.09
326.15	1603.56
326.37	1755.11
326.58	1755.11
326.79	1746.92
327.00	1699.81
327.22	1669.09
327.43	1763.30
327.64	1548.26
327.85	1705.96
328.07	1769.44
328.28	1761.25
328.49	1593.32
328.70	1632.23
328.92	1726.44
329.13	1640.42
329.34	1683.43
329.55	1798.12
329.76	1791.97
329.98	1681.38
330.19	1802.21
330.40	1720.29
330.61	1673.19
330.83	1677.29
331.04	1570.79
331.25	1658.85
331.46	1689.57
331.68	1636.33
331.89	1724.39
332.10	1710.05
332.31	1662.95
332.52	1712.10
332.74	1816.55
332.95	1576.94
333.16	1648.61
333.37	1701.86
333.58	1712.10
333.80	1710.05
334.01	1691.62
334.22	1617.90
334.43	1681.38
334.64	1601.51
334.86	1679.33
335.07	1632.23
335.28	1771.49
335.49	1595.37
335.70	1769.44
335.92	1783.78
336.13	1781.73
336.34	1685.48
336.55	1730.53
336.76	1742.82
336.98	1613.80
337.19	1720.29
337.40	1787.88
337.61	1841.12
337.82	1769.44
338.04	1697.77
338.25	1628.14
338.46	1681.38
338.67	1712.10
338.88	1617.90
339.09	1671.14
339.31	1691.62
339.52	1587.18
339.73	1683.43
339.94	1685.48
340.15	1730.53
340.36	1691.62
340.58	1710.05
340.79	1710.05
341.00	1675.24
341.21	1660.90
341.42	1931.23
341.63	1718.25
341.85	1789.92
342.06	1685.48
342.27	1669.09
342.48	1810.40
342.69	1675.24
342.90	1722.34
343.12	1759.21
343.33	1619.94
343.54	1751.01
343.75	1718.25
343.96	1695.72
344.17	1585.13
344.38	1705.96
344.60	1591.27
344.81	1675.24
345.02	1712.10
345.23	1783.78
345.44	1728.49
345.65	1710.05
345.86	1714.15
346.07	1685.48
346.29	1611.75
346.50	1759.21
346.71	1691.62
346.92	1732.58
347.13	1818.60
347.34	1720.29
347.55	1669.09
347.76	1730.53
347.98	1650.66
348.19	1710.05
348.40	1722.34
348.61	1646.57
348.82	1773.54
349.03	1701.86
349.24	1746.92
349.45	1832.93
349.66	1527.78
349.88	1746.92
350.09	1703.91
350.30	1736.68
350.51	1769.44
350.72	1736.68
350.93	1763.30
351.14	1732.58
351.35	1669.09
351.56	1724.39
351.77	1710.05
351.99	1734.63
352.20	1769.44
352.41	1755.11
352.62	1562.60
352.83	1689.57
353.04	1714.15
353.25	1679.33
353.46	1679.33
353.67	1781.73
353.88	1634.28
354.09	1689.57
354.30	1746.92
354.52	1753.06
354.73	1691.62
354.94	1683.43
355.15	1697.77
355.36	1800.16
355.57	1697.77
355.78	1724.39
355.99	1611.75
356.20	1687.53
356.41	1880.04
356.62	1734.63
356.83	1695.72
357.04	1796.07
357.25	1572.84
357.46	1654.76
357.68	1662.95
357.89	1578.98
358.10	1642.47
358.31	1720.29
358.52	1703.91
358.73	1656.81
358.94	1673.19
359.15	1642.47
359.36	1722.34
359.57	1636.33
359.78	1710.05
359.99	1728.49
360.20	1628.14
360.41	1728.49
360.62	1683.43
360.83	1652.71
361.04	1675.24
361.25	1751.01
361.46	1820.64
361.67	1697.77
361.88	1730.53
362.09	1738.73
362.30	1728.49
362.51	1693.67
362.72	1705.96
362.93	1724.39
363.14	1703.91
363.35	1791.97
363.56	1566.70
363.78	1806.31
363.99	1724.39
364.20	1699.81
364.41	1740.77
364.62	1775.59
364.83	1759.21
365.04	1689.57
365.25	1708.01
365.46	1853.41
365.67	1632.23
365.88	1628.14
366.09	1703.91
366.30	1732.58
366.51	1783.78
366.72	1662.95
366.93	1751.01
367.14	1765.35
367.35	1755.11
367.56	1640.42
367.77	1816.55
367.98	1642.47
368.18	1755.11
368.39	1755.11
368.60	1689.57
368.81	1724.39
369.02	1656.81
369.23	1751.01
369.44	1644.52
369.65	1703.91
369.86	1701.86
370.07	1718.25
370.28	1642.47
370.49	1667.05
370.70	1687.53
370.91	1624.04
371.12	1583.08
371.33	1789.92
371.54	1675.24
371.75	1818.60
371.96	1593.32
372.17	1697.77
372.38	1699.81
372.59	1718.25
372.80	1613.80
373.01	1710.05
373.22	1621.99
373.43	1746.92
373.64	1654.76
373.85	1816.55
374.06	1767.40
374.26	1775.59
374.47	1708.01
374.68	1701.86
374.89	1767.40
375.10	1677.29
375.31	1730.53
375.52	1671.14
375.73	1681.38
375.94	1669.09
376.15	1826.79
376.36	1695.72
376.57	1626.09
376.78	1640.42
376.99	1681.38
377.20	1751.01
377.40	1652.71
377.61	1812.45
377.82	1665.00
378.03	1742.82
378.24	1746.92
378.45	1701.86
378.66	1689.57
378.87	1644.52
379.08	1601.51
379.29	1605.61
379.50	1767.40
379.71	1691.62
379.91	1794.02
380.12	1650.66
380.33	1759.21
380.54	1638.38
380.75	1646.57
380.96	1660.90
381.17	1775.59
381.38	1701.86
381.59	1718.25
381.80	1697.77
382.00	1802.21
382.21	1683.43
382.42	1781.73
382.63	1787.88
382.84	1822.69
383.05	1677.29
383.26	1736.68
383.47	1714.15
383.68	1689.57
383.88	1730.53
384.09	1777.64
384.30	1738.73
384.51	1710.05
384.72	1671.14
384.93	1656.81
385.14	1738.73
385.35	1751.01
385.55	1624.04
385.76	1742.82
385.97	1677.29
386.18	1671.14
386.39	1654.76
386.60	1669.09
386.81	1712.10
387.02	1671.14
387.22	1673.19
387.43	1773.54
387.64	1771.49
387.85	1816.55
388.06	2240.48
388.27	4290.49
388.48	6588.32
388.68	7884.68
388.89	9285.49
389.10	9676.65
389.31	8284.03
389.52	7159.70
389.73	6508.44
389.93	6148.00
390.14	5662.63
390.35	5179.31
390.56	4513.72
390.77	3827.65
390.98	3059.67
391.18	2543.58
391.39	2125.79
391.60	1847.27
391.81	1832.93
392.02	1691.62
392.23	1849.32
392.43	1673.19
392.64	1867.75
392.85	1734.63
393.06	1837.03
393.27	1718.25
393.47	1607.66
393.68	1685.48
393.89	1689.57
394.10	1820.64
394.31	1708.01
394.52	1669.09
394.72	1644.52
394.93	1869.80
395.14	1697.77
395.35	1673.19
395.56	1669.09
395.76	1742.82
395.97	1787.88
396.18	1906.66
396.39	1802.21
396.60	1968.10
396.80	1873.89
397.01	1787.88
397.22	1841.12
397.43	1769.44
397.64	1746.92
397.84	1810.40
398.05	1863.65
398.26	1675.24
398.47	1730.53
398.67	1800.16
398.88	1679.33
399.09	1693.67
399.30	1650.66
399.51	1787.88
399.71	1722.34
399.92	1757.16
400.13	1753.06
400.34	1765.35
400.54	1722.34
400.75	1806.31
400.96	1740.77
401.17	1794.02
401.37	1738.73
401.58	1658.85
401.79	1759.21
402.00	1880.04
402.21	1996.77
402.41	1957.86
402.62	1990.63
402.83	2072.54
403.04	1939.43
403.24	2052.06
403.45	1847.27
403.66	1849.32
403.87	1890.28
404.07	1873.89
404.28	1820.64
404.49	1904.61
404.70	1689.57
404.90	1722.34
405.11	1781.73
405.32	1828.84
405.52	1716.20
405.73	1632.23
405.94	1613.80
406.15	1695.72
406.35	1744.87
406.56	1724.39
406.77	1718.25
406.98	1728.49
407.18	1607.66
407.39	1755.11
407.60	1724.39
407.80	1802.21
408.01	1691.62
408.22	1642.47
408.43	1683.43
408.63	1705.96
408.84	1701.86
409.05	1701.86
409.25	1650.66
409.46	1712.10
409.67	1697.77
409.88	1685.48
410.08	1761.25
410.29	1667.05
410.50	1781.73
410.70	1765.35
410.91	1658.85
411.12	1785.83
411.32	1681.38
411.53	1665.00
411.74	1820.64
411.95	1732.58
412.15	1794.02
412.36	1755.11
412.57	1787.88
412.77	1820.64
412.98	1753.06
413.19	1724.39
413.39	1730.53
413.60	1771.49
413.81	1806.31
414.01	1673.19
414.22	1730.53
414.43	1734.63
414.63	1728.49
414.84	1724.39
415.05	1740.77
415.25	1669.09
415.46	1777.64
415.67	1734.63
415.87	1650.66
416.08	1634.28
416.29	1669.09
416.49	1716.20
416.70	1681.38
416.91	1626.09
417.11	1708.01
417.32	1789.92
417.53	1761.25
417.73	1703.91
417.94	1658.85
418.15	1708.01
418.35	1742.82
418.56	1736.68
418.77	1814.50
418.97	1769.44
419.18	1660.90
419.38	1628.14
419.59	1628.14
419.80	1757.16
420.00	1556.46
420.21	1755.11
420.42	1746.92
420.62	1714.15
420.83	1626.09
421.04	1701.86
421.24	1718.25
421.45	1802.21
421.65	1759.21
421.86	1734.63
422.07	1693.67
422.27	1771.49
422.48	1755.11
422.69	1687.53
422.89	1685.48
423.10	1722.34
423.30	1658.85
423.51	1675.24
423.72	1794.02
423.92	1728.49
424.13	1681.38
424.33	1650.66
424.54	1718.25
424.75	1738.73
424.95	1724.39
425.16	1705.96
425.36	1726.44
425.57	1712.10
425.78	1642.47
425.98	1744.87
426.19	1681.38
426.39	1675.24
426.60	1699.81
426.81	1789.92
427.01	1693.67
427.22	1556.46
427.42	1642.47
427.63	1630.18
427.83	1656.81
428.04	1789.92
428.25	1773.54
428.45	1701.86
428.66	1736.68
428.86	1716.20
429.07	1724.39
429.28	1677.29
429.48	1683.43
429.69	1619.94
429.89	1716.20
430.10	1687.53
430.30	1785.83
430.51	1687.53
430.71	1652.71
430.92	1667.05
431.13	1624.04
431.33	1771.49
431.54	1736.68
431.74	1832.93
431.95	1775.59
432.15	1665.00
432.36	1683.43
432.56	1779.68
432.77	1804.26
432.98	1839.08
433.18	1753.06
433.39	1712.10
433.59	1683.43
433.80	1777.64
434.00	1804.26
434.21	1642.47
434.41	1613.80
434.62	1798.12
434.82	1691.62
435.03	1697.77
435.23	1701.86
435.44	1640.42
435.64	1734.63
435.85	1738.73
436.06	1757.16
436.26	1705.96
436.47	1703.91
436.67	1695.72
436.88	1703.91
437.08	1769.44
437.29	1867.75
437.49	1726.44
437.70	1800.16
437.90	1677.29
438.11	1810.40
438.31	1796.07
438.52	1849.32
438.72	1863.65
438.93	1828.84
439.13	1742.82
439.34	1816.55
439.54	1714.15
439.75	1755.11
439.95	1785.83
440.16	1671.14
440.36	1736.68
440.57	1837.03
440.77	1728.49
440.98	1650.66
441.18	1757.16
441.39	1642.47
441.59	1705.96
441.80	1845.22
442.00	1740.77
442.21	1814.50
442.41	1603.56
442.62	1724.39
442.82	1716.20
443.02	1658.85
443.23	1808.36
443.43	1730.53
443.64	1800.16
443.84	1650.66
444.05	1826.79
444.25	1783.78
444.46	1626.09
444.66	1701.86
444.87	1841.12
445.07	1689.57
445.28	1675.24
445.48	1740.77
445.69	1724.39
445.89	1880.04
446.09	1665.00
446.30	2041.82
446.50	2605.02
446.71	3581.90
446.91	4245.44
447.12	4626.36
447.32	4665.27
447.53	4171.71
447.73	3758.02
447.93	3504.07
448.14	3352.52
448.34	3106.77
448.55	2901.97
448.75	2807.77
448.96	2686.94
449.16	2439.13
449.36	2267.10
449.57	1959.91
449.77	1970.15
449.98	1759.21
450.18	1853.41
450.39	1787.88
450.59	1851.36
450.79	1746.92
451.00	1669.09
451.20	1769.44
451.41	1681.38
451.61	1804.26
451.81	1683.43
452.02	1689.57
452.22	1658.85
452.43	1691.62
452.63	1677.29
452.84	1697.77
453.04	1708.01
453.24	1736.68
453.45	1742.82
453.65	1705.96
453.86	1730.53
454.06	1712.10
454.26	1769.44
454.47	1773.54
454.67	1748.97
454.87	1708.01
455.08	1757.16
455.28	1834.98
455.49	1855.46
455.69	1683.43
455.89	1853.41
456.10	1839.08
456.30	1701.86
456.51	1771.49
456.71	1759.21
456.91	1673.19
457.12	1738.73
457.32	1785.83
457.52	1687.53
457.73	1673.19
457.93	1824.74
458.14	1689.57
458.34	1626.09
458.54	1689.57
458.75	1628.14
458.95	1794.02
459.15	1722.34
459.36	1773.54
459.56	1851.36
459.76	1751.01
459.97	1652.71
460.17	1804.26
460.37	1738.73
460.58	1785.83
460.78	1857.51
460.99	1705.96
461.19	1791.97
461.39	1689.57
461.60	1779.68
461.80	1656.81
462.00	1638.38
462.21	1697.77
462.41	1669.09
462.61	1701.86
462.82	1708.01
463.02	1712.10
463.22	1769.44
463.43	1826.79
463.63	1734.63
463.83	1755.11
464.04	1785.83
464.24	1779.68
464.44	1644.52
464.64	1761.25
464.85	1781.73
465.05	1789.92
465.25	1701.86
465.46	1691.62
465.66	1755.11
465.86	1808.36
466.07	1734.63
466.27	1785.83
466.47	1710.05
466.68	1667.05
466.88	1861.60
467.08	1822.69
467.29	1673.19
467.49	1722.34
467.69	1665.00
467.89	1767.40
468.10	1748.97
468.30	1685.48
468.50	1818.60
468.71	1839.08
468.91	1662.95
469.11	1859.56
469.31	1742.82
469.52	1703.91
469.72	1886.18
469.92	1898.47
470.13	1726.44
470.33	1767.40
470.53	1816.55
470.73	2113.50
470.94	2176.99
471.14	2301.92
471.34	2422.75
471.54	2375.64
471.75	2217.95
471.95	2117.60
472.15	2000.87
472.36	2078.69
472.56	2011.11
472.76	2095.07
472.96	2111.46
473.17	1939.43
473.37	1943.52
473.57	1732.58
473.77	1820.64
473.98	1767.40
474.18	1656.81
474.38	1898.47
474.58	1695.72
474.79	1644.52
474.99	1787.88
475.19	1826.79
475.39	1599.46
475.60	1755.11
475.80	1767.40
476.00	1761.25
476.20	1759.21
476.41	1730.53
476.61	1769.44
476.81	1804.26
477.01	1724.39
477.21	1923.04
477.42	1732.58
477.62	1601.51
477.82	1822.69
478.02	1691.62
478.23	1705.96
478.43	1673.19
478.63	1710.05
478.83	1703.91
479.03	1683.43
479.24	1812.45
479.44	1796.07
479.64	1660.90
479.84	1619.94
480.04	1619.94
480.25	1722.34
480.45	1640.42
480.65	1796.07
480.85	1791.97
481.06	1683.43
481.26	1714.15
481.46	1751.01
481.66	1701.86
481.86	1644.52
482.06	1775.59
482.27	1660.90
482.47	1744.87
482.67	1822.69
482.87	1693.67
483.07	1773.54
483.28	1685.48
483.48	1644.52
483.68	1712.10
483.88	1621.99
484.08	1611.75
484.29	1675.24
484.49	1738.73
484.69	1595.37
484.89	1779.68
485.09	1839.08
485.29	1695.72
485.50	1771.49
485.70	1730.53
485.90	1771.49
486.10	1767.40
486.30	1732.58
486.50	1755.11
486.71	1755.11
486.91	1812.45
487.11	1777.64
487.31	1574.89
487.51	1734.63
487.71	1662.95
487.91	1662.95
488.12	1724.39
488.32	1593.32
488.52	1675.24
488.72	1697.77
488.92	1736.68
489.12	1695.72
489.32	1755.11
489.53	1746.92
489.73	1665.00
489.93	1853.41
490.13	1689.57
490.33	1576.94
490.53	1673.19
490.73	1755.11
490.94	1695.72
491.14	1804.26
491.34	1818.60
491.54	2039.78
491.74	2529.24
491.94	2803.67
492.14	2987.99
492.34	2955.22
492.54	2633.69
492.75	2410.46
492.95	2465.75
493.15	2234.33
493.35	2285.53
493.55	2199.52
493.75	2179.04
493.95	2127.84
494.15	1992.67
494.35	1871.84
494.56	1877.99
494.76	1728.49
494.96	1794.02
495.16	1812.45
495.36	1687.53
495.56	1746.92
495.76	1640.42
495.96	1746.92
496.16	1722.34
496.36	1867.75
496.56	1697.77
496.77	1728.49
496.97	1748.97
497.17	1769.44
497.37	1595.37
497.57	1722.34
497.77	1628.14
497.97	1718.25
498.17	1720.29
498.37	1697.77
498.57	1761.25
498.77	1675.24
498.97	1791.97
499.17	1849.32
499.38	1677.29
499.58	1732.58
499.78	1783.78
499.98	1771.49
500.18	1775.59
500.38	1650.66
500.58	1918.95
500.78	2535.39
500.98	4536.25
501.18	5687.21
501.38	6623.13
501.58	7020.44
501.78	6455.20
501.98	5410.73
502.18	4863.93
502.38	4356.03
502.58	4028.35
502.78	3635.14
502.98	3499.98
503.18	3397.58
503.38	3094.48
503.59	2764.76
503.79	2594.78
503.99	2428.89
504.19	2258.91
504.39	2133.98
504.59	2246.62
504.79	2113.50
504.99	1953.76
505.19	1896.42
505.39	1849.32
505.59	1902.56
505.79	1882.08
505.99	1869.80
506.19	1888.23
506.39	1818.60
506.59	1759.21
506.79	1724.39
506.99	1787.88
507.19	1812.45
507.39	1771.49
507.59	1742.82
507.79	1708.01
507.99	1712.10
508.19	1638.38
508.39	1722.34
508.59	1705.96
508.79	1837.03
508.99	1830.88
509.19	1755.11
509.39	1705.96
509.59	1665.00
509.79	1734.63
509.99	1689.57
510.19	1748.97
510.39	1744.87
510.59	1800.16
510.79	1705.96
510.99	1669.09
511.19	1681.38
511.39	1890.28
511.59	1781.73
511.79	1785.83
511.99	1720.29
512.19	1814.50
512.38	1773.54
512.58	1705.96
512.78	1808.36
512.98	1757.16
513.18	1796.07
513.38	1705.96
513.58	1802.21
513.78	1755.11
513.98	1718.25
514.18	1716.20
514.38	1689.57
514.58	1777.64
514.78	1744.87
514.98	1730.53
515.18	1675.24
515.38	1617.90
515.58	1837.03
515.78	1615.85
515.98	1646.57
516.18	1755.11
516.38	1693.67
516.57	1687.53
516.77	1724.39
516.97	1785.83
517.17	1720.29
517.37	1660.90
517.57	1755.11
517.77	1718.25
517.97	1701.86
518.17	1748.97
518.37	1669.09
518.57	1718.25
518.77	1687.53
518.97	1722.34
519.16	1755.11
519.36	1722.34
519.56	1679.33
519.76	1742.82
519.96	1794.02
520.16	1873.89
520.36	1677.29
520.56	1773.54
520.76	1720.29
520.96	1701.86
521.16	1757.16
521.35	1732.58
521.55	1892.32
521.75	1720.29
521.95	1630.18
522.15	1718.25
522.35	1685.48
522.55	1734.63
522.75	1837.03
522.95	1761.25
523.14	1673.19
523.34	1681.38
523.54	1660.90
523.74	1816.55
523.94	1718.25
524.14	1619.94
524.34	1779.68
524.54	1837.03
524.73	1757.16
524.93	1755.11
525.13	1783.78
525.33	1687.53
525.53	1894.37
525.73	1724.39
525.93	1755.11
526.13	1685.48
526.32	1746.92
526.52	1701.86
526.72	1748.97
526.92	1665.00
527.12	1742.82
527.32	1697.77
527.52	1712.10
527.71	1716.20
527.91	1662.95
528.11	1724.39
528.31	1679.33
528.51	1691.62
528.71	1748.97
528.90	1738.73
529.10	1796.07
529.30	1753.06
529.50	1521.64
529.70	1697.77
529.90	1693.67
530.09	1736.68
530.29	1695.72
530.49	1716.20
530.69	1857.51
530.89	1824.74
531.09	1777.64
531.28	1673.19
531.48	1796.07
531.68	1779.68
531.88	1771.49
532.08	1802.21
532.28	1714.15
532.47	1804.26
532.67	1744.87
532.87	1767.40
533.07	1665.00
533.27	1787.88
533.46	1763.30
533.66	1757.16
533.86	1789.92
534.06	1753.06
534.26	1710.05
534.45	1632.23
534.65	1802.21
534.85	1816.55
535.05	1642.47
535.25	1755.11
535.44	1667.05
535.64	1777.64
535.84	1701.86
536.04	1660.90
536.24	1720.29
536.43	1751.01
536.63	1746.92
536.83	1687.53
537.03	1796.07
537.22	1624.04
537.42	1685.48
537.62	1705.96
537.82	1673.19
538.02	1808.36
538.21	1703.91
538.41	1896.42
538.61	1828.84
538.81	1679.33
539.00	1798.12
539.20	1730.53
539.40	1765.35
539.60	1699.81
539.79	1761.25
539.99	1734.63
540.19	1718.25
540.39	1695.72
540.58	1763.30
540.78	1761.25
540.98	1714.15
541.18	1781.73
541.37	1744.87
541.57	1703.91
541.77	1775.59
541.97	1617.90
542.16	1615.85
542.36	1705.96
542.56	1712.10
542.76	1861.60
542.95	1724.39
543.15	1765.35
543.35	1734.63
543.54	1656.81
543.74	1730.53
543.94	1851.36
544.14	1697.77
544.33	1800.16
544.53	1722.34
544.73	1689.57
544.93	1769.44
545.12	1712.10
545.32	1667.05
545.52	1736.68
545.71	1662.95
545.91	1791.97
546.11	1701.86
546.30	1658.85
546.50	1701.86
546.70	1708.01
546.90	1701.86
547.09	1607.66
547.29	1775.59
547.49	1677.29
547.68	1718.25
547.88	1644.52
548.08	1757.16
548.27	2183.13
548.47	1675.24
548.67	1708.01
548.87	1830.88
549.06	1703.91
549.26	1781.73
549.46	1720.29
549.65	1665.00
549.85	1798.12
550.05	1669.09
550.24	1630.18
550.44	1736.68
550.64	1796.07
550.83	1705.96
551.03	1748.97
551.23	1779.68
551.42	1771.49
551.62	1773.54
551.82	1751.01
552.01	1609.70
552.21	1730.53
552.41	1742.82
552.60	1796.07
552.80	1849.32
553.00	1732.58
553.19	1697.77
553.39	1816.55
553.59	1681.38
553.78	1767.40
553.98	1628.14
554.17	1652.71
554.37	1824.74
554.57	1742.82
554.76	1665.00
554.96	1677.29
555.16	1791.97
555.35	1675.24
555.55	1791.97
555.75	1746.92
555.94	1798.12
556.14	1621.99
556.33	1808.36
556.53	1769.44
556.73	1718.25
556.92	1767.40
557.12	1800.16
557.32	1812.45
557.51	1812.45
557.71	1779.68
557.90	1767.40
558.10	1802.21
558.30	1736.68
558.49	1734.63
558.69	1720.29
558.88	1740.77
559.08	1673.19
559.28	1757.16
559.47	1724.39
559.67	1806.31
559.86	1830.88
560.06	1761.25
560.26	1736.68
560.45	1755.11
560.65	1677.29
560.84	1783.78
561.04	1701.86
561.24	1751.01
561.43	1708.01
561.63	1802.21
561.82	1771.49
562.02	1785.83
562.22	1695.72
562.41	1669.09
562.61	1712.10
562.80	1677.29
563.00	1888.23
563.19	1746.92
563.39	1802.21
563.59	1759.21
563.78	1765.35
563.98	1634.28
564.17	1658.85
564.37	1652.71
564.56	1734.63
564.76	1654.76
564.96	1800.16
565.15	1693.67
565.35	1951.71
565.54	1759.21
565.74	1773.54
565.93	1800.16
566.13	1703.91
566.32	1732.58
566.52	1779.68
566.71	1708.01
566.91	1857.51
567.11	1658.85
567.30	1742.82
567.50	1753.06
567.69	1679.33
567.89	1712.10
568.08	1728.49
568.28	1724.39
568.47	1710.05
568.67	1757.16
568.86	1697.77
569.06	1826.79
569.25	1751.01
569.45	1755.11
569.64	1724.39
569.84	1701.86
570.04	1761.25
570.23	1714.15
570.43	1761.25
570.62	1712.10
570.82	1845.22
571.01	1683.43
571.21	1652.71
571.40	1722.34
571.60	1757.16
571.79	1726.44
571.99	1675.24
572.18	1714.15
572.38	1732.58
572.57	1644.52
572.77	1791.97
572.96	1810.40
573.16	1746.92
573.35	1740.77
573.55	1857.51
573.74	1791.97
573.94	1681.38
574.13	1691.62
574.33	1769.44
574.52	1820.64
574.71	1738.73
574.91	1710.05
575.10	1767.40
575.30	1722.34
575.49	1683.43
575.69	1683.43
575.88	1791.97
576.08	1673.19
576.27	1845.22
576.47	1761.25
576.66	1824.74
576.86	1783.78
577.05	1720.29
577.25	1800.16
577.44	1888.23
577.64	1691.62
577.83	1802.21
578.02	1779.68
578.22	1863.65
578.41	1865.70
578.61	1740.77
578.80	1753.06
579.00	1685.48
579.19	1759.21
579.39	1771.49
579.58	1824.74
579.77	1738.73
579.97	1785.83
580.16	1779.68
580.36	1767.40
580.55	1837.03
580.75	1845.22
580.94	1787.88
581.13	1771.49
581.33	1898.47
581.52	1687.53
581.72	1861.60
581.91	1791.97
582.11	1798.12
582.30	1828.84
582.49	1730.53
582.69	1851.36
582.88	1773.54
583.08	1830.88
583.27	1877.99
583.47	1853.41
583.66	1751.01
583.85	1714.15
584.05	1675.24
584.24	1787.88
584.44	1701.86
584.63	1771.49
584.82	1796.07
585.02	1705.96
585.21	1818.60
585.41	1857.51
585.60	1841.12
585.79	1916.90
585.99	1880.04
586.18	1820.64
586.37	2197.47
586.57	3338.19
586.76	9600.88
586.96	23629.46
587.15	33365.51
587.34	38860.21
587.54	41092.49
587.73	35730.91
587.93	25572.99
588.12	21139.13
588.31	17729.27
588.51	15832.85
588.70	14952.22
588.89	13741.87
589.09	12162.89
589.28	10712.92
589.47	9299.83
589.67	7604.11
589.86	6238.11
590.06	4853.69
590.25	3770.31
590.44	3082.19
590.64	2625.50
590.83	2166.75
591.02	2056.16
591.22	1927.14
591.41	1890.28
591.60	1796.07
591.80	1947.62
591.99	1732.58
592.18	1779.68
592.38	1849.32
592.57	1777.64
592.76	1746.92
592.96	1779.68
593.15	1757.16
593.34	1904.61
593.54	1785.83
593.73	1769.44
593.92	1693.67
594.12	1791.97
594.31	1761.25
594.50	1791.97
594.70	1796.07
594.89	1959.91
595.08	1679.33
595.28	1742.82
595.47	1927.14
595.66	1779.68
595.86	1681.38
596.05	1671.14
596.24	1757.16
596.43	1853.41
596.63	1761.25
596.82	1839.08
597.01	1767.40
597.21	1900.52
597.40	1781.73
597.59	1787.88
597.79	1734.63
597.98	1828.84
598.17	1738.73
598.36	1724.39
598.56	1691.62
598.75	1738.73
598.94	1724.39
599.14	1796.07
599.33	1724.39
599.52	1773.54
599.71	1691.62
599.91	1798.12
600.10	1755.11
600.29	1726.44
600.48	1820.64
600.68	1787.88
600.87	1699.81
601.06	1658.85
601.26	1728.49
601.45	1855.46
601.64	1738.73
601.83	1851.36
602.03	1695.72
602.22	1665.00
602.41	1794.02
602.60	1783.78
602.80	1804.26
602.99	1765.35
603.18	1695.72
603.37	1714.15
603.57	1798.12
603.76	1718.25
603.95	1820.64
604.14	1804.26
604.34	1648.61
604.53	1736.68
604.72	1742.82
604.91	1800.16
605.10	1789.92
605.30	1703.91
605.49	1820.64
605.68	1787.88
605.87	1742.82
606.07	1658.85
606.26	1753.06
606.45	1771.49
606.64	1673.19
606.84	1683.43
607.03	1677.29
607.22	1814.50
607.41	1585.13
607.60	1718.25
607.80	1718.25
607.99	1771.49
608.18	1662.95
608.37	1687.53
608.56	1656.81
608.76	1796.07
608.95	1820.64
609.14	1646.57
609.33	1781.73
609.52	1753.06
609.72	1712.10
609.91	1761.25
610.10	1828.84
610.29	1751.01
610.48	1763.30
610.68	1701.86
610.87	1701.86
611.06	1800.16
611.25	1720.29
611.44	1791.97
611.63	1671.14
611.83	1828.84
612.02	1603.56
612.21	1802.21
612.40	1607.66
612.59	1697.77
612.79	1728.49
612.98	1687.53
613.17	1834.98
613.36	1728.49
613.55	1816.55
613.74	1693.67
613.93	1734.63
614.13	1765.35
614.32	1742.82
614.51	1796.07
614.70	1716.20
614.89	1751.01
615.08	1761.25
615.28	2047.97
615.47	1718.25
615.66	1765.35
615.85	1710.05
616.04	1806.31
616.23	1675.24
616.42	1667.05
616.62	1767.40
616.81	1662.95
617.00	1669.09
617.19	1822.69
617.38	1660.90
617.57	1714.15
617.76	1781.73
617.95	1777.64
618.15	1712.10
618.34	1820.64
618.53	1724.39
618.72	1828.84
618.91	1744.87
619.10	1785.83
619.29	1775.59
619.48	1742.82
619.68	1656.81
619.87	1763.30
620.06	1646.57
620.25	1742.82
620.44	1718.25
620.63	1662.95
620.82	1769.44
621.01	1738.73
621.20	1699.81
621.39	1775.59
621.59	1669.09
621.78	1753.06
621.97	1828.84
622.16	1763.30
622.35	1660.90
622.54	1753.06
622.73	1794.02
622.92	1718.25
623.11	1863.65
623.30	1681.38
623.49	1738.73
623.68	1667.05
623.88	1697.77
624.07	1673.19
624.26	1728.49
624.45	1742.82
624.64	1654.76
624.83	1703.91
625.02	1695.72
625.21	1742.82
625.40	1763.30
625.59	1816.55
625.78	1689.57
625.97	1798.12
626.16	1746.92
626.35	1697.77
626.54	1634.28
626.74	1820.64
626.93	1687.53
627.12	1730.53
627.31	1705.96
627.50	1703.91
627.69	1800.16
627.88	1710.05
628.07	1662.95
628.26	1656.81
628.45	1640.42
628.64	1585.13
628.83	1751.01
629.02	1652.71
629.21	1724.39
629.40	1726.44
629.59	1601.51
629.78	1732.58
629.97	1712.10
630.16	1810.40
630.35	1662.95
630.54	1751.01
630.73	1697.77
630.92	1767.40
631.11	1689.57
631.30	1722.34
631.49	1755.11
631.68	1722.34
631.87	1712.10
632.06	1656.81
632.25	1865.70
632.44	1722.34
632.63	1738.73
632.82	1691.62
633.01	1630.18
633.20	1693.67
633.39	1667.05
633.58	1605.61
633.77	1693.67
633.96	1746.92
634.15	1802.21
634.34	1742.82
634.53	1789.92
634.72	1669.09
634.91	1677.29
635.10	1746.92
635.29	1757.16
635.48	1705.96
635.67	1732.58
635.86	1724.39
636.05	1834.98
636.24	1705.96
636.43	1740.77
636.62	1785.83
636.81	1636.33
637.00	1693.67
637.19	1736.68
637.38	1665.00
637.57	1714.15
637.76	1685.48
637.95	1734.63
638.14	1685.48
638.33	1775.59
638.52	1636.33
638.71	1601.51
638.89	1609.70
639.08	1923.04
639.27	1767.40
639.46	1720.29
639.65	1841.12
639.84	1714.15
640.03	1812.45
640.22	1804.26
640.41	1787.88
640.60	1675.24
640.79	1710.05
640.98	1734.63
641.17	1828.84
641.36	1687.53
641.55	1734.63
641.74	1628.14
641.92	1701.86
642.11	1683.43
642.30	1693.67
642.49	1646.57
642.68	1714.15
642.87	1748.97
643.06	1751.01
643.25	1648.61
643.44	1640.42
643.63	1642.47
643.82	1779.68
644.00	1683.43
644.19	1712.10
644.38	1689.57
644.57	1669.09
644.76	1703.91
644.95	1691.62
645.14	1685.48
645.33	1724.39
645.52	1665.00
645.71	1673.19
645.89	1646.57
646.08	1658.85
646.27	1716.20
646.46	1789.92
646.65	1648.61
646.84	1656.81
647.03	1667.05
647.22	1669.09
647.40	1751.01
647.59	1673.19
647.78	1660.90
647.97	1617.90
648.16	1646.57
648.35	1738.73
648.54	1769.44
648.73	1699.81
648.91	1722.34
649.10	1794.02
649.29	1693.67
649.48	1677.29
649.67	1763.30
649.86	1693.67
650.05	1703.91
650.23	1724.39
650.42	1583.08
650.61	1757.16
650.80	1830.88
650.99	1865.70
651.18	1732.58
651.36	1757.16
651.55	1675.24
651.74	1751.01
651.93	1712.10
652.12	1603.56
652.31	1675.24
652.49	1673.19
652.68	1652.71
652.87	1714.15
653.06	1691.62
653.25	1839.08
653.44	1726.44
653.62	1794.02
653.81	1740.77
654.00	1660.90
654.19	1705.96
654.38	1791.97
654.56	1710.05
654.75	1671.14
654.94	1796.07
655.13	1820.64
655.32	1693.67
655.51	1740.77
655.69	1714.15
655.88	1746.92
656.07	1652.71
656.26	1722.34
656.45	1675.24
656.63	1716.20
656.82	1734.63
657.01	1714.15
657.20	1710.05
657.38	1828.84
657.57	1757.16
657.76	1689.57
657.95	1794.02
658.14	1724.39
658.32	1675.24
658.51	1679.33
658.70	1642.47
658.89	1773.54
659.08	1687.53
659.26	1779.68
659.45	1615.85
659.64	1716.20
659.83	1673.19
660.01	1916.90
660.20	1843.17
660.39	1759.21
660.58	1660.90
660.76	1718.25
660.95	1636.33
661.14	1736.68
661.33	1685.48
661.51	1671.14
661.70	1642.47
661.89	1783.78
662.08	1708.01
662.26	1552.36
662.45	1630.18
662.64	1810.40
662.83	1757.16
663.01	1724.39
663.20	1697.77
663.39	1812.45
663.58	1687.53
663.76	1722.34
663.95	1751.01
664.14	1681.38
664.32	1693.67
664.51	1552.36
664.70	1611.75
664.89	1798.12
665.07	1566.70
665.26	1802.21
665.45	1677.29
665.64	1785.83
665.82	1714.15
666.01	1773.54
666.20	1652.71
666.38	1808.36
666.57	1789.92
666.76	2199.52
666.95	4429.76
667.13	9944.94
667.32	14692.13
667.51	17247.99
667.69	18476.77
667.88	17268.47
668.07	11972.43
668.25	9201.52
668.44	7765.90
668.63	7102.36
668.81	6608.80
669.00	6125.47
669.19	5599.15
669.38	4988.85
669.56	4433.85
669.75	3870.66
669.94	3377.10
670.12	2811.86
670.31	2527.19
670.50	2285.53
670.68	2045.92
670.87	1900.52
671.06	1771.49
671.24	1824.74
671.43	1771.49
671.62	1761.25
671.80	1644.52
671.99	1757.16
672.18	1779.68
672.36	1828.84
672.55	1691.62
672.74	1757.16
672.92	1648.61
673.11	1783.78
673.29	1683.43
673.48	1837.03
673.67	1724.39
673.85	1853.41
674.04	1644.52
674.23	1708.01
674.41	1820.64
674.60	1665.00
674.79	1660.90
674.97	1634.28
675.16	1789.92
675.34	1742.82
675.53	1687.53
675.72	1687.53
675.90	1855.46
676.09	1669.09
676.28	1726.44
676.46	1640.42
676.65	1658.85
676.83	1667.05
677.02	1710.05
677.21	1697.77
677.39	1693.67
677.58	1656.81
677.77	1728.49
677.95	1632.23
678.14	1613.80
678.32	1681.38
678.51	1679.33
678.70	1849.32
678.88	1683.43
679.07	1650.66
679.25	1714.15
679.44	1665.00
679.63	1671.14
679.81	1730.53
680.00	1757.16
680.18	1816.55
680.37	1777.64
680.55	1685.48
680.74	1562.60
680.93	1671.14
681.11	1609.70
681.30	1767.40
681.48	1705.96
681.67	1583.08
681.85	1656.81
682.04	1685.48
682.23	1771.49
682.41	1763.30
682.60	1689.57
682.78	1634.28
682.97	1634.28
683.15	1640.42
683.34	1662.95
683.53	1845.22
683.71	1671.14
683.90	1710.05
684.08	1808.36
684.27	1728.49
684.45	1658.85
684.64	1828.84
684.82	1722.34
685.01	1701.86
685.19	1763.30
685.38	1830.88
685.57	1677.29
685.75	1665.00
685.94	1681.38
686.12	1697.77
686.31	1665.00
686.49	1849.32
686.68	1589.22
686.86	1761.25
687.05	1742.82
687.23	1812.45
687.42	1701.86
687.60	1626.09
687.79	1718.25
687.97	1753.06
688.16	1824.74
688.34	1800.16
688.53	1638.38
688.71	1695.72
688.90	1751.01
689.08	1757.16
689.27	1683.43
689.45	1785.83
689.64	1765.35
689.82	1779.68
690.01	1681.38
690.19	1679.33
690.38	1705.96
690.56	1773.54
690.75	1538.02
690.93	1665.00
691.12	1628.14
691.30	1800.16
691.49	1658.85
691.67	1710.05
691.86	1808.36
692.04	1703.91
692.23	1697.77
692.41	1673.19
692.60	1796.07
692.78	1789.92
692.97	1677.29
693.15	1757.16
693.34	1789.92
693.52	1791.97
693.71	1681.38
693.89	1734.63
694.08	1665.00
694.26	1779.68
694.44	1734.63
694.63	1716.20
694.81	1691.62
695.00	1705.96
695.18	1757.16
695.37	1818.60
695.55	1716.20
695.74	1718.25
695.92	1589.22
696.10	1794.02
696.29	1667.05
696.47	1748.97
696.66	1587.18
696.84	1640.42
697.03	1757.16
697.21	1755.11
697.40	2269.15
697.58	1812.45
697.76	1677.29
697.95	1679.33
698.13	1626.09
698.32	1617.90
698.50	1699.81
698.68	1720.29
698.87	1718.25
699.05	1828.84
699.24	1673.19
699.42	1648.61
699.61	1667.05
699.79	1701.86
699.97	1728.49
700.16	1716.20
700.34	1595.37
700.53	1673.19
700.71	1781.73
700.89	1744.87
701.08	1658.85
701.26	1701.86
701.45	2050.02
701.63	1708.01
701.81	1703.91
702.00	1605.61
702.18	1771.49
702.37	1591.27
702.55	1714.15
702.73	1634.28
702.92	1652.71
703.10	1787.88
703.28	1722.34
703.47	1626.09
703.65	1732.58
703.84	1757.16
704.02	1777.64
704.20	1816.55
704.39	1617.90
704.57	1738.73
704.75	1806.31
704.94	1699.81
705.12	1744.87
705.30	1787.88
705.49	2150.37
705.67	4261.82
705.86	9152.37
706.04	12468.03
706.22	14126.89
706.41	14929.69
706.59	13442.87
706.77	9324.40
706.96	7157.65
707.14	6305.70
707.32	5846.95
707.51	5423.02
707.69	4747.19
707.87	4198.34
708.06	3520.46
708.24	2936.79
708.42	2426.84
708.61	2215.90
708.79	1851.36
708.97	1820.64
709.16	1738.73
709.34	1712.10
709.52	1689.57
709.71	1738.73
709.89	1730.53
710.07	1648.61
710.26	1677.29
710.44	1744.87
710.62	1697.77
710.80	1679.33
710.99	1808.36
711.17	1761.25
711.35	1757.16
711.54	1712.10
711.72	1734.63
711.90	1814.50
712.09	1722.34
712.27	1683.43
712.45	1722.34
712.63	1757.16
712.82	1718.25
713.00	1699.81
713.18	1767.40
713.37	1773.54
713.55	1730.53
713.73	1665.00
713.91	1693.67
714.10	1732.58
714.28	1636.33
714.46	1703.91
714.65	1759.21
714.83	1775.59
715.01	1665.00
715.19	1632.23
715.38	1685.48
715.56	1746.92
715.74	1693.67
715.92	1640.42
716.11	1738.73
716.29	1667.05
716.47	1695.72
716.65	1708.01
716.84	1636.33
717.02	1726.44
717.20	1605.61
717.38	1597.42
717.57	1753.06
717.75	1681.38
717.93	1716.20
718.11	1710.05
718.30	1714.15
718.48	1658.85
718.66	1656.81
718.84	1828.84
719.03	1648.61
719.21	1628.14
719.39	1845.22
719.57	1697.77
719.75	1722.34
719.94	1636.33
720.12	1740.77
720.30	1720.29
720.48	1728.49
720.67	1679.33
720.85	1683.43
721.03	1619.94
721.21	1720.29
721.39	1771.49
721.58	1761.25
721.76	1714.15
721.94	1810.40
722.12	1785.83
722.30	1798.12
722.49	1732.58
722.67	1691.62
722.85	1689.57
723.03	1601.51
723.21	1665.00
723.40	1753.06
723.58	1720.29
723.76	1636.33
723.94	1828.84
724.12	1677.29
724.30	1703.91
724.49	1759.21
724.67	1644.52
724.85	1761.25
725.03	1703.91
725.21	1771.49
725.40	1802.21
725.58	1652.71
725.76	1769.44
725.94	1763.30
726.12	1656.81
726.30	1636.33
726.49	1675.24
726.67	1701.86
726.85	1699.81
727.03	1771.49
727.21	2101.22
727.39	2813.91
727.57	3633.10
727.76	4046.79
727.94	4358.08
728.12	4198.34
728.30	3590.09
728.48	2779.09
728.66	2723.80
728.84	2496.47
729.03	2322.40
729.21	2140.13
729.39	1986.53
729.57	1814.50
729.75	1714.15
729.93	1761.25
730.11	1683.43
730.30	1734.63
730.48	1681.38
730.66	1708.01
730.84	1765.35
731.02	1751.01
731.20	1632.23
731.38	1650.66
731.56	1681.38
731.74	1705.96
731.93	1665.00
732.11	1718.25
732.29	1658.85
732.47	1751.01
732.65	1703.91
732.83	1826.79
733.01	1755.11
733.19	1583.08
733.37	1744.87
733.56	1738.73
733.74	1642.47
733.92	1779.68
734.10	1693.67
734.28	1787.88
734.46	1646.57
734.64	1708.01
734.82	1734.63
735.00	1636.33
735.18	1697.77
735.36	1679.33
735.54	1648.61
735.73	1738.73
735.91	1730.53
736.09	1791.97
736.27	1718.25
736.45	1783.78
736.63	1599.46
736.81	1630.18
736.99	1779.68
737.17	1847.27
737.35	1675.24
737.53	1742.82
737.71	1699.81
737.89	1718.25
738.07	1632.23
738.25	1673.19
738.43	1609.70
738.61	1681.38
738.80	1662.95
738.98	1665.00
739.16	1714.15
739.34	1640.42
739.52	1781.73
739.70	1626.09
739.88	1728.49
740.06	1755.11
740.24	1615.85
740.42	1757.16
740.60	1626.09
740.78	1673.19
740.96	1642.47
741.14	1708.01
741.32	1695.72
741.50	1658.85
741.68	1877.99
741.86	1761.25
742.04	1578.98
742.22	1716.20
742.40	1763.30
742.58	1777.64
742.76	1665.00
742.94	1712.10
743.12	1656.81
743.30	1736.68
743.48	1800.16
743.66	1665.00
743.84	1787.88
744.02	1603.56
744.20	1667.05
744.38	1611.75
744.56	1697.77
744.74	1851.36
744.92	1751.01
745.10	1810.40
745.28	1755.11
745.46	1787.88
745.64	1693.67
745.82	1775.59
746.00	1701.86
746.18	1757.16
746.36	1628.14
746.54	1714.15
746.72	1691.62
746.90	1662.95
747.08	1746.92
747.26	1607.66
747.44	1755.11
747.62	1724.39
747.80	1681.38
747.98	1724.39
748.15	1671.14
748.33	1701.86
748.51	1675.24
748.69	1746.92
748.87	1619.94
749.05	1722.34
749.23	1703.91
749.41	1730.53
749.59	1626.09
749.77	1742.82
749.95	1697.77
750.13	1665.00
750.31	1619.94
750.49	1681.38
750.67	1771.49
750.85	1800.16
751.03	1701.86
751.20	1869.80
751.38	1685.48
751.56	1726.44
751.74	1644.52
751.92	1742.82
752.10	1652.71
752.28	1814.50
752.46	1632.23
752.64	1638.38
752.82	1708.01
753.00	1740.77
753.18	1703.91
753.35	1744.87
753.53	1722.34
753.71	1632.23
753.89	1738.73
754.07	1769.44
754.25	1748.97
754.43	1703.91
754.61	1654.76
754.79	1769.44
754.97	1697.77
755.14	1718.25
755.32	1697.77
755.50	1660.90
755.68	1746.92
755.86	1705.96
756.04	1714.15
756.22	1595.37
756.40	1724.39
756.57	1761.25
756.75	1679.33
756.93	1722.34
757.11	1683.43
757.29	1656.81
757.47	1552.36
757.65	1662.95
757.82	1540.07
758.00	1656.81
758.18	1730.53
758.36	1708.01
758.54	1781.73
758.72	1632.23
758.90	1796.07
759.07	1701.86
759.25	1656.81
759.43	1789.92
759.61	1636.33
759.79	2109.41
759.97	1724.39
760.15	1710.05
760.32	1667.05
760.50	1771.49
760.68	1744.87
760.86	1581.03
761.04	1746.92
761.22	1732.58
761.39	1642.47
761.57	1708.01
761.75	1693.67
761.93	1732.58
762.11	1730.53
762.28	1757.16
762.46	1671.14
762.64	1759.21
762.82	1603.56
763.00	1650.66
763.18	1746.92
763.35	1603.56
763.53	1742.82
763.71	1703.91
763.89	1824.74
764.07	1730.53
764.24	1757.16
764.42	1744.87
764.60	1775.59
764.78	1691.62
764.96	1714.15
765.13	1796.07
765.31	1726.44
765.49	1708.01
765.67	1658.85
765.84	1697.77
766.02	1681.38
766.20	1650.66
766.38	1781.73
766.56	1693.67
766.73	1726.44
766.91	1705.96
767.09	1751.01
767.27	1720.29
767.44	1644.52
767.62	1693.67
767.80	1720.29
767.98	1726.44
768.15	1640.42
768.33	1755.11
768.51	1726.44
768.69	1681.38
768.87	1757.16
769.04	1703.91
769.22	1843.17
769.40	1804.26
769.58	1820.64
769.75	1740.77
769.93	1826.79
770.11	1738.73
770.28	1646.57
770.46	1701.86
770.64	1785.83
770.82	1712.10
770.99	1679.33
771.17	1720.29
771.35	1687.53
771.53	1687.53
771.70	1685.48
771.88	1677.29
772.06	1730.53
772.23	1714.15
772.41	1751.01
772.59	1675.24
772.77	1581.03
772.94	1722.34
773.12	1691.62
773.30	1669.09
773.47	1701.86
773.65	1697.77
773.83	1712.10
774.01	1644.52
774.18	1628.14
774.36	1703.91
774.54	1619.94
774.71	1660.90
774.89	1519.59
775.07	1677.29
775.24	1605.61
775.42	1628.14
775.60	1847.27
775.78	1701.86
775.95	1634.28
776.13	1535.98
776.31	1593.32
776.48	1667.05
776.66	1765.35
776.84	1681.38
777.01	1710.05
777.19	1671.14
777.37	1726.44
777.54	1701.86
777.72	1843.17
777.90	1724.39
778.07	1720.29
778.25	1822.69
778.43	1742.82
778.60	1660.90
778.78	1753.06
778.96	1763.30
779.13	1705.96
779.31	1740.77
779.49	1667.05
779.66	1660.90
779.84	1675.24
780.01	1781.73
780.19	1578.98
780.37	1720.29
780.54	1722.34
780.72	1714.15
780.90	1660.90
781.07	1681.38
781.25	1673.19
781.43	1728.49
781.60	1626.09
781.78	1806.31
781.95	1714.15
782.13	1611.75
782.31	1726.44
782.48	1654.76
782.66	1689.57
782.83	1753.06
783.01	1718.25
783.19	1748.97
783.36	1761.25
783.54	1634.28
783.72	1767.40
783.89	1636.33
784.07	1728.49
784.24	1689.57
784.42	1785.83
784.60	1665.00
784.77	1777.64
784.95	1642.47
785.12	1673.19
785.30	1699.81
785.47	1693.67
785.65	1665.00
785.83	1667.05
786.00	1669.09
786.18	1837.03
786.35	1665.00
786.53	1665.00
786.71	1767.40
786.88	1701.86
787.06	1753.06
787.23	1640.42
787.41	1656.81
787.58	1687.53
787.76	1603.56
787.94	1677.29
788.11	1662.95
788.29	1652.71
788.46	1638.38
788.64	1617.90
788.81	1650.66
788.99	1685.48
789.16	1693.67
789.34	1701.86
789.52	1699.81
789.69	1726.44
789.87	1583.08
790.04	1603.56
790.22	1716.20
790.39	1765.35
790.57	1624.04
790.74	1642.47
790.92	1701.86
791.09	1515.50
791.27	1658.85
791.44	1834.98
791.62	1660.90
791.79	1796.07
791.97	1632.23
792.15	1863.65
792.32	1744.87
792.50	1781.73
792.67	1722.34
792.85	1746.92
793.02	1681.38
793.20	1673.19
793.37	1566.70
793.55	1673.19
793.72	1554.41
793.90	1734.63
794.07	1644.52
794.25	1615.85
794.42	1714.15
794.60	1722.34
794.77	1683.43
794.95	1701.86
795.12	1716.20
795.30	1640.42
795.47	1617.90
795.65	1933.28
795.82	1685.48
796.00	1652.71
796.17	1703.91
796.34	1650.66
796.52	1814.50
796.69	1822.69
796.87	1685.48
797.04	1722.34
797.22	1732.58
797.39	1658.85
797.57	1751.01
797.74	1763.30
797.92	1621.99
798.09	1695.72
798.27	1783.78
798.44	1802.21
798.62	1710.05
798.79	1757.16
798.96	1703.91
799.14	1734.63
799.31	1890.28
799.49	1640.42
799.66	1697.77
799.84	1718.25
800.01	1642.47
800.19	1695.72
800.36	1630.18
800.53	1785.83
800.71	1687.53
800.88	1777.64
801.06	1652.71
801.23	1624.04
801.41	1652.71
801.58	1712.10
801.75	1621.99
801.93	1677.29
802.10	1728.49
802.28	1615.85
802.45	1730.53
802.63	1763.30
802.80	1810.40
802.97	1671.14
803.15	1636.33
803.32	1642.47
803.50	1611.75
803.67	1568.74
803.84	1589.22
804.02	1740.77
804.19	1699.81
804.37	1540.07
804.54	1699.81
804.71	1730.53
804.89	1644.52
805.06	1675.24
805.24	1710.05
805.41	1628.14
805.58	1730.53
805.76	1843.17
805.93	1683.43
806.10	1775.59
806.28	1744.87
806.45	1748.97
806.63	1615.85
806.80	1714.15
806.97	1703.91
807.15	1708.01
807.32	1708.01
807.49	1677.29
807.67	1613.80
807.84	1740.77
808.01	1603.56
808.19	1810.40
808.36	1869.80
808.54	1687.53
808.71	1632.23
808.88	1722.34
809.06	1687.53
809.23	1757.16
809.40	1701.86
809.58	1789.92
809.75	1705.96
809.92	1701.86
810.10	1802.21
810.27	1765.35
810.44	1710.05
810.62	1714.15
810.79	1667.05
810.96	1708.01
811.14	1636.33
811.31	1689.57
811.48	1746.92
811.66	1720.29
811.83	1773.54
812.00	1779.68
812.18	1736.68
812.35	1867.75
812.52	1658.85
812.69	1689.57
812.87	1652.71
813.04	1646.57
813.21	1738.73
813.39	1679.33
813.56	1593.32
813.73	1697.77
813.91	1679.33
814.08	1705.96
814.25	1675.24
814.42	1585.13
814.60	1787.88
814.77	1724.39
814.94	1699.81
815.12	1648.61
815.29	1785.83
815.46	1695.72
815.63	1685.48
815.81	1732.58
815.98	1679.33
816.15	1615.85
816.33	1689.57
816.50	1720.29
816.67	1601.51
816.84	1681.38
817.02	1652.71
817.19	1669.09
817.36	1679.33
817.53	1720.29
817.71	1609.70
817.88	1697.77
818.05	1685.48
818.22	1710.05
818.40	1812.45
818.57	1669.09
818.74	1781.73
818.91	1693.67
819.09	1824.74
819.26	1773.54
819.43	1617.90
819.60	1574.89
819.78	1732.58
819.95	1742.82
820.12	1695.72
820.29	1763.30
820.47	1753.06
820.64	1609.70
820.81	1576.94
820.98	1662.95
821.15	1665.00
821.33	1710.05
821.50	1613.80
821.67	1798.12
821.84	1642.47
822.02	1724.39
822.19	1744.87
822.36	1689.57
822.53	1679.33
822.70	1570.79
822.88	1642.47
823.05	1763.30
823.22	1687.53
823.39	1701.86
823.56	1648.61
823.74	1757.16
823.91	1681.38
824.08	1703.91
824.25	1650.66
824.42	1761.25
824.60	1535.98
824.77	1701.86
824.94	1705.96
825.11	1658.85
825.28	1683.43
825.45	1703.91
825.63	1726.44
825.80	1650.66
825.97	1748.97
826.14	1626.09
826.31	1624.04
826.48	1695.72
826.66	1681.38
826.83	1636.33
827.00	1794.02
827.17	1705.96
827.34	1712.10
827.51	1638.38
827.69	1624.04
827.86	1603.56
828.03	1730.53
828.20	1708.01
828.37	1669.09
828.54	1722.34
828.71	1619.94
828.89	1847.27
829.06	1671.14
829.23	1832.93
829.40	1677.29
829.57	1689.57
829.74	1691.62
829.91	1611.75
830.09	1671.14
830.26	1718.25
830.43	1746.92
830.60	1701.86
830.77	1724.39
830.94	1769.44
831.11	1767.40
831.28	1675.24
831.46	1732.58
831.63	1701.86
831.80	1767.40
831.97	1628.14
832.14	1632.23
832.31	1728.49
832.48	1697.77
832.65	1751.01
832.82	1718.25
832.99	1681.38
833.17	1601.51
833.34	1701.86
833.51	1738.73
833.68	1593.32
833.85	1626.09
834.02	1640.42
834.19	1660.90
834.36	1650.66
834.53	1720.29
834.70	1718.25
834.87	1699.81
835.04	1705.96
835.22	1644.52
835.39	1681.38
835.56	1609.70
835.73	1716.20
835.90	1716.20
836.07	1566.70
836.24	1712.10
836.41	1611.75
836.58	1621.99
836.75	1771.49
836.92	1779.68
837.09	1601.51
837.26	1712.10
837.43	1665.00
837.60	1732.58
837.77	1708.01
837.94	1722.34
838.12	1730.53
838.29	1744.87
838.46	1621.99
838.63	1644.52
838.80	1820.64
838.97	1777.64
839.14	1728.49
839.31	1736.68
839.48	1771.49
839.65	1646.57
839.82	1736.68
839.99	1722.34
840.16	1701.86
840.33	1640.42
840.50	1697.77
840.67	1538.02
840.84	1613.80
841.01	1703.91
841.18	1681.38
841.35	1691.62
841.52	1732.58
841.69	1763.30
841.86	1679.33
842.03	1695.72
842.20	1640.42
842.37	1646.57
842.54	1673.19
842.71	1619.94
842.88	1652.71
843.05	1740.77
843.22	1679.33
843.39	1734.63
843.56	1613.80
843.73	1718.25
843.90	1669.09
844.07	1699.81
844.24	1646.57
844.41	1730.53
844.58	1689.57
844.75	1619.94
844.92	1679.33
845.09	1679.33
845.26	1708.01
845.43	1718.25
845.60	1656.81
845.77	1716.20
845.94	1736.68
846.10	1804.26
846.27	1611.75
846.44	1626.09
846.61	1665.00
846.78	1800.16
846.95	1779.68
847.12	1693.67
847.29	1677.29
847.46	1638.38
847.63	1748.97
847.80	1628.14
847.97	1693.67
848.14	1824.74
848.31	1746.92
848.48	1591.27
848.65	1689.57
848.82	1632.23
848.98	1873.89
849.15	1701.86
849.32	1714.15
849.49	1755.11
849.66	1675.24
849.83	1642.47
850.00	1646.57
850.17	1726.44
850.34	1783.78
850.51	1626.09
850.68	1724.39
850.85	1810.40
851.01	1646.57
851.18	1763.30
851.35	1716.20
851.52	1740.77
851.69	1791.97
851.86	1677.29
852.03	1677.29
852.20	1687.53
852.37	1730.53
852.53	1593.32
852.70	1605.61
852.87	1755.11
853.04	1744.87
853.21	1667.05
853.38	1796.07
853.55	1810.40
853.72	1781.73
853.89	1609.70
854.05	1675.24
854.22	1673.19
854.39	1591.27
854.56	1656.81
854.73	1787.88
854.90	1624.04
855.07	1628.14
855.23	1599.46
855.40	1665.00
855.57	1624.04
855.74	1533.93
855.91	1896.42
856.08	1558.50
856.25	1648.61
856.41	1681.38
856.58	1617.90
856.75	1652.71
856.92	1636.33
857.09	1718.25
857.26	1624.04
857.42	1671.14
857.59	1671.14
857.76	1642.47
857.93	1720.29
858.10	1726.44
858.27	1687.53
858.43	1685.48
858.60	1644.52
858.77	1650.66
858.94	1691.62
859.11	1714.15
859.27	1703.91
859.44	1701.86
859.61	1830.88
859.78	1791.97
859.95	1685.48
860.12	1642.47
860.28	1785.83
860.45	1861.60
860.62	1689.57
860.79	1722.34
860.95	1744.87
861.12	1648.61
861.29	1738.73
861.46	1634.28
861.63	1773.54
861.79	1650.66
861.96	1662.95
862.13	1710.05
862.30	1755.11
862.47	1695.72
862.63	1599.46
862.80	1751.01
862.97	1751.01
863.14	1761.25
863.30	1710.05
863.47	1681.38
863.64	1837.03
863.81	1734.63
863.97	1701.86
864.14	1695.72
864.31	1685.48
864.48	1730.53
864.65	1667.05
864.81	1712.10
864.98	1693.67
865.15	1812.45
865.32	1742.82
865.48	1742.82
865.65	1763.30
865.82	1673.19
865.98	1740.77
866.15	1703.91
866.32	1714.15
866.49	1648.61
866.65	1812.45
866.82	1585.13
866.99	1656.81
867.16	1642.47
867.32	1691.62
867.49	1724.39
867.66	1685.48
867.83	1669.09
867.99	1636.33
868.16	1691.62
868.33	1648.61
868.49	1683.43
868.66	1667.05
868.83	1748.97
868.99	1693.67
869.16	1705.96
869.33	1740.77
869.50	1650.66
869.66	1656.81
869.83	1566.70
870.00	1636.33
870.16	1755.11
870.33	1738.73
870.50	1722.34
870.66	1718.25
870.83	1796.07
871.00	1744.87
871.17	1751.01
871.33	1742.82
871.50	1665.00
871.67	1720.29
871.83	1611.75
872.00	1806.31
872.17	1646.57
872.33	1843.17
872.50	1751.01
872.67	1710.05
872.83	1640.42
873.00	1660.90
873.17	1703.91
873.33	1763.30
873.50	1748.97
873.67	1640.42
873.83	1751.01
874.00	1638.38
874.16	1761.25
874.33	1734.63
874.50	1642.47
874.66	1730.53
874.83	1683.43
875.00	1759.21
875.16	1755.11
875.33	1753.06
875.50	1621.99
875.66	1617.90
875.83	1740.77
875.99	1742.82
876.16	1650.66
876.33	1615.85
876.49	1679.33
876.66	1751.01
876.83	1671.14
876.99	1595.37
877.16	1638.38
877.32	1640.42
877.49	1769.44
877.66	1759.21
877.82	1812.45
877.99	1759.21
878.15	1755.11
878.32	1693.67
878.49	1697.77
878.65	1738.73
878.82	1765.35
878.98	1675.24
879.15	1753.06
879.32	1673.19
879.48	1751.01
879.65	1693.67
879.81	1703.91
879.98	1656.81
880.15	1691.62
880.31	1716.20
880.48	1648.61
880.64	1720.29
880.81	1765.35
880.97	1818.60
881.14	1759.21
881.31	1683.43
881.47	1785.83
881.64	1740.77
881.80	1621.99
881.97	1689.57
882.13	1722.34
882.30	1712.10
882.47	1710.05
882.63	1642.47
882.80	1656.81
882.96	1667.05
883.13	1728.49
883.29	1728.49
883.46	1630.18
883.62	1720.29
883.79	1738.73
883.95	1695.72
884.12	1724.39
884.29	1695.72
884.45	1691.62
884.62	1701.86
884.78	1626.09
884.95	1757.16
885.11	1601.51
885.28	1681.38
885.44	1681.38
885.61	1769.44
885.77	1808.36
885.94	1650.66
886.10	1593.32
886.27	1695.72
886.43	1748.97
886.60	1728.49
886.76	1708.01
886.93	1636.33
887.09	1650.66
887.26	1662.95
887.42	1771.49
887.59	1744.87
887.75	1869.80
887.92	1720.29
888.08	1712.10
888.25	1830.88
888.41	1646.57
888.58	1744.87
888.74	1673.19
888.91	1613.80
>>>>>End Processed Spectral Data<<<<<
