SpectraSuite Data File
++++++++++++++++++++++++++++++++++++
Date: Mon Jun 06 13:37:17 CEST 2016
User: root
Dark Spectrum Present: No
Reference Spectrum Present: No
Number of Sampled Component Spectra: 1
Spectrometers: USB4C02835
Integration Time (usec): 100000 (USB4C02835)
Spectra Averaged: 1 (USB4C02835)
Boxcar Smoothing: 0 (USB4C02835)
Correct for Electrical Dark: No (USB4C02835)
Strobe/Lamp Enabled: No (USB4C02835)
Correct for Detector Non-linearity: No (USB4C02835)
Correct for Stray Light: No (USB4C02835)
Number of Pixels in Processed Spectrum: 3648
>>>>>Begin Processed Spectral Data<<<<<
177.47	1476.59
177.69	1476.59
177.91	1476.59
178.13	1505.26
178.36	1517.54
178.58	1742.82
178.80	1669.09
179.02	1628.14
179.24	1685.48
179.46	1732.58
179.68	1671.14
179.90	1726.44
180.13	1738.73
180.35	1671.14
180.57	1695.72
180.79	1744.87
181.01	1656.81
181.23	1710.05
181.45	1771.49
181.67	1671.14
181.90	1722.34
182.12	1691.62
182.34	1658.85
182.56	1722.34
182.78	1718.25
183.00	1681.38
183.22	1705.96
183.44	1591.27
183.66	1826.79
183.89	1828.84
184.11	1681.38
184.33	1751.01
184.55	1818.60
184.77	1744.87
184.99	1746.92
185.21	1669.09
185.43	1839.08
185.65	1701.86
185.87	1718.25
186.10	1697.77
186.32	1763.30
186.54	1691.62
186.76	1708.01
186.98	1738.73
187.20	1730.53
187.42	1697.77
187.64	1648.61
187.86	1673.19
188.08	1716.20
188.30	1701.86
188.52	1693.67
188.75	1677.29
188.97	1787.88
189.19	1687.53
189.41	1652.71
189.63	1697.77
189.85	1644.52
190.07	1640.42
190.29	1679.33
190.51	1689.57
190.73	1587.18
190.95	1775.59
191.17	1669.09
191.39	1607.66
191.61	1712.10
191.84	1652.71
192.06	1738.73
192.28	1611.75
192.50	1882.08
192.72	1742.82
192.94	1683.43
193.16	1794.02
193.38	1763.30
193.60	1644.52
193.82	1574.89
194.04	1746.92
194.26	1675.24
194.48	1710.05
194.70	1589.22
194.92	1665.00
195.14	1746.92
195.36	1660.90
195.58	1712.10
195.80	1730.53
196.02	1726.44
196.24	1646.57
196.46	1624.04
196.69	1611.75
196.91	1781.73
197.13	1701.86
197.35	1689.57
197.57	1718.25
197.79	1746.92
198.01	1699.81
198.23	1695.72
198.45	1710.05
198.67	1605.61
198.89	1740.77
199.11	1755.11
199.33	1636.33
199.55	1521.64
199.77	1691.62
199.99	1744.87
200.21	1724.39
200.43	1656.81
200.65	1632.23
200.87	1634.28
201.09	1673.19
201.31	1646.57
201.53	1722.34
201.75	1691.62
201.97	1693.67
202.19	1720.29
202.41	1761.25
202.63	1820.64
202.85	1734.63
203.07	1730.53
203.29	1722.34
203.51	1619.94
203.73	1605.61
203.95	1818.60
204.17	1724.39
204.39	1691.62
204.61	1710.05
204.83	1669.09
205.05	1767.40
205.27	1759.21
205.49	1898.47
205.71	1703.91
205.93	1621.99
206.15	1626.09
206.37	1605.61
206.59	1703.91
206.81	1636.33
207.03	1581.03
207.25	1687.53
207.47	1720.29
207.69	1724.39
207.91	1777.64
208.13	1753.06
208.34	1712.10
208.56	1609.70
208.78	1669.09
209.00	1693.67
209.22	1720.29
209.44	1685.48
209.66	1626.09
209.88	1689.57
210.10	1701.86
210.32	1681.38
210.54	1775.59
210.76	1621.99
210.98	1738.73
211.20	1607.66
211.42	1603.56
211.64	1742.82
211.86	1671.14
212.08	1755.11
212.30	1798.12
212.52	1669.09
212.74	1697.77
212.96	1712.10
213.17	1701.86
213.39	1765.35
213.61	1744.87
213.83	1576.94
214.05	1640.42
214.27	1724.39
214.49	1572.84
214.71	1662.95
214.93	1718.25
215.15	1763.30
215.37	1740.77
215.59	1630.18
215.81	1701.86
216.03	1710.05
216.24	1697.77
216.46	1677.29
216.68	1595.37
216.90	1716.20
217.12	1791.97
217.34	1714.15
217.56	1730.53
217.78	1791.97
218.00	1734.63
218.22	1763.30
218.44	1695.72
218.66	1619.94
218.87	1794.02
219.09	1662.95
219.31	1740.77
219.53	1738.73
219.75	1675.24
219.97	1712.10
220.19	1705.96
220.41	1724.39
220.63	1730.53
220.85	1689.57
221.06	1662.95
221.28	1724.39
221.50	1796.07
221.72	1644.52
221.94	1705.96
222.16	1714.15
222.38	1773.54
222.60	1726.44
222.82	1693.67
223.03	1654.76
223.25	1638.38
223.47	1695.72
223.69	1728.49
223.91	1742.82
224.13	1675.24
224.35	1716.20
224.57	1757.16
224.78	1761.25
225.00	1628.14
225.22	1697.77
225.44	1683.43
225.66	1685.48
225.88	1671.14
226.10	1812.45
226.32	1771.49
226.53	1753.06
226.75	1665.00
226.97	1724.39
227.19	1755.11
227.41	1617.90
227.63	1626.09
227.85	1652.71
228.06	1712.10
228.28	1681.38
228.50	1740.77
228.72	1667.05
228.94	1638.38
229.16	1611.75
229.37	1656.81
229.59	1601.51
229.81	1722.34
230.03	1607.66
230.25	1648.61
230.47	1613.80
230.69	1697.77
230.90	1710.05
231.12	1642.47
231.34	1656.81
231.56	1716.20
231.78	1624.04
232.00	1673.19
232.21	1681.38
232.43	1648.61
232.65	1636.33
232.87	1734.63
233.09	1683.43
233.30	1644.52
233.52	1703.91
233.74	1724.39
233.96	1730.53
234.18	1714.15
234.40	1738.73
234.61	1806.31
234.83	1691.62
235.05	1746.92
235.27	1810.40
235.49	1783.78
235.70	1705.96
235.92	1736.68
236.14	1794.02
236.36	1839.08
236.58	1650.66
236.79	1742.82
237.01	1681.38
237.23	1683.43
237.45	1787.88
237.67	1718.25
237.88	1683.43
238.10	1716.20
238.32	1626.09
238.54	1705.96
238.76	1632.23
238.97	1673.19
239.19	1701.86
239.41	1675.24
239.63	1828.84
239.85	1646.57
240.06	1705.96
240.28	1648.61
240.50	1705.96
240.72	1662.95
240.93	1697.77
241.15	1742.82
241.37	1615.85
241.59	1791.97
241.81	1652.71
242.02	1644.52
242.24	1701.86
242.46	1720.29
242.68	1712.10
242.89	1718.25
243.11	1783.78
243.33	1736.68
243.55	1732.58
243.76	1763.30
243.98	1624.04
244.20	1656.81
244.42	1691.62
244.64	1732.58
244.85	1617.90
245.07	1650.66
245.29	1693.67
245.51	1775.59
245.72	1755.11
245.94	1703.91
246.16	1695.72
246.38	1738.73
246.59	1665.00
246.81	1648.61
247.03	1759.21
247.24	1617.90
247.46	1716.20
247.68	1638.38
247.90	1685.48
248.11	1720.29
248.33	1736.68
248.55	1642.47
248.77	1761.25
248.98	1720.29
249.20	1802.21
249.42	1650.66
249.64	1744.87
249.85	1710.05
250.07	1665.00
250.29	1794.02
250.50	1732.58
250.72	1591.27
250.94	1669.09
251.16	1847.27
251.37	1755.11
251.59	1624.04
251.81	1738.73
252.02	1724.39
252.24	1693.67
252.46	1748.97
252.68	1683.43
252.89	1636.33
253.11	1572.84
253.33	1777.64
253.54	1814.50
253.76	1640.42
253.98	1611.75
254.20	1728.49
254.41	1585.13
254.63	1685.48
254.85	1679.33
255.06	1761.25
255.28	1650.66
255.50	1689.57
255.71	1628.14
255.93	1671.14
256.15	1677.29
256.36	1693.67
256.58	1658.85
256.80	1650.66
257.02	1605.61
257.23	1677.29
257.45	1744.87
257.67	1714.15
257.88	1736.68
258.10	1759.21
258.32	1710.05
258.53	1746.92
258.75	1753.06
258.97	1648.61
259.18	1720.29
259.40	1648.61
259.62	1753.06
259.83	1740.77
260.05	1689.57
260.27	1964.00
260.48	1775.59
260.70	1648.61
260.92	1656.81
261.13	1757.16
261.35	1669.09
261.57	1740.77
261.78	1607.66
262.00	1693.67
262.22	1705.96
262.43	1681.38
262.65	1650.66
262.86	1667.05
263.08	1771.49
263.30	1789.92
263.51	1652.71
263.73	1591.27
263.95	1771.49
264.16	1740.77
264.38	1617.90
264.60	1710.05
264.81	1718.25
265.03	1722.34
265.25	1687.53
265.46	1740.77
265.68	1736.68
265.89	1753.06
266.11	1599.46
266.33	1767.40
266.54	1638.38
266.76	1722.34
266.98	1679.33
267.19	1742.82
267.41	1773.54
267.62	1665.00
267.84	1640.42
268.06	1708.01
268.27	1669.09
268.49	1695.72
268.70	1763.30
268.92	1615.85
269.14	1673.19
269.35	1626.09
269.57	1701.86
269.79	1736.68
270.00	1724.39
270.22	1796.07
270.43	1636.33
270.65	1574.89
270.87	1755.11
271.08	1712.10
271.30	1683.43
271.51	1722.34
271.73	1697.77
271.95	1767.40
272.16	1693.67
272.38	1744.87
272.59	1667.05
272.81	1746.92
273.02	1765.35
273.24	1775.59
273.46	1658.85
273.67	1665.00
273.89	1687.53
274.10	1667.05
274.32	1712.10
274.54	1718.25
274.75	1783.78
274.97	1671.14
275.18	1683.43
275.40	1787.88
275.61	1677.29
275.83	1685.48
276.05	1714.15
276.26	1699.81
276.48	1685.48
276.69	1628.14
276.91	1677.29
277.12	1800.16
277.34	1708.01
277.55	1771.49
277.77	1722.34
277.99	1697.77
278.20	1652.71
278.42	1621.99
278.63	1642.47
278.85	1630.18
279.06	1630.18
279.28	1789.92
279.49	1748.97
279.71	1705.96
279.93	1630.18
280.14	1722.34
280.36	1714.15
280.57	1847.27
280.79	1785.83
281.00	1632.23
281.22	1654.76
281.43	1740.77
281.65	1546.22
281.86	1656.81
282.08	1748.97
282.29	1789.92
282.51	1603.56
282.73	1681.38
282.94	1642.47
283.16	1708.01
283.37	1849.32
283.59	1683.43
283.80	1720.29
284.02	1671.14
284.23	1648.61
284.45	1699.81
284.66	1646.57
284.88	1730.53
285.09	1677.29
285.31	1726.44
285.52	1710.05
285.74	1570.79
285.95	1689.57
286.17	1718.25
286.38	1822.69
286.60	1665.00
286.81	1658.85
287.03	1699.81
287.24	1722.34
287.46	1753.06
287.67	1656.81
287.89	1769.44
288.10	1654.76
288.32	1740.77
288.53	1722.34
288.75	1757.16
288.96	1855.46
289.18	1693.67
289.39	1675.24
289.61	1779.68
289.82	1755.11
290.04	1820.64
290.25	1605.61
290.47	1708.01
290.68	1728.49
290.90	1744.87
291.11	1632.23
291.33	1808.36
291.54	1587.18
291.76	1654.76
291.97	1677.29
292.18	1757.16
292.40	1697.77
292.61	1712.10
292.83	1822.69
293.04	1665.00
293.26	1689.57
293.47	1675.24
293.69	1701.86
293.90	1630.18
294.12	1869.80
294.33	1742.82
294.55	1630.18
294.76	1826.79
294.97	1781.73
295.19	1843.17
295.40	1724.39
295.62	1658.85
295.83	1734.63
296.05	1617.90
296.26	1794.02
296.48	1619.94
296.69	1744.87
296.90	1710.05
297.12	1720.29
297.33	1751.01
297.55	1697.77
297.76	1773.54
297.98	1775.59
298.19	1644.52
298.41	1697.77
298.62	1677.29
298.83	1755.11
299.05	1712.10
299.26	1751.01
299.48	1609.70
299.69	1681.38
299.90	1724.39
300.12	1693.67
300.33	1722.34
300.55	1712.10
300.76	1687.53
300.98	1650.66
301.19	1701.86
301.40	1767.40
301.62	1665.00
301.83	1777.64
302.05	1621.99
302.26	1646.57
302.47	1730.53
302.69	1603.56
302.90	1675.24
303.12	1615.85
303.33	1724.39
303.54	1802.21
303.76	1615.85
303.97	1687.53
304.19	1834.98
304.40	1671.14
304.61	1763.30
304.83	1806.31
305.04	1761.25
305.26	1710.05
305.47	1665.00
305.68	1742.82
305.90	1570.79
306.11	1755.11
306.33	1658.85
306.54	1632.23
306.75	1624.04
306.97	1587.18
307.18	1689.57
307.39	1720.29
307.61	1814.50
307.82	1714.15
308.04	1753.06
308.25	1689.57
308.46	1662.95
308.68	1665.00
308.89	1742.82
309.10	1755.11
309.32	1626.09
309.53	1671.14
309.74	1667.05
309.96	1720.29
310.17	1738.73
310.39	1626.09
310.60	1742.82
310.81	1648.61
311.03	1609.70
311.24	1748.97
311.45	1718.25
311.67	1773.54
311.88	1728.49
312.09	1689.57
312.31	1730.53
312.52	1753.06
312.73	1689.57
312.95	1648.61
313.16	1617.90
313.37	1753.06
313.59	1732.58
313.80	1810.40
314.01	1714.15
314.23	1650.66
314.44	1714.15
314.65	1667.05
314.87	1708.01
315.08	1687.53
315.29	1677.29
315.51	1621.99
315.72	1578.98
315.93	1800.16
316.15	1740.77
316.36	1654.76
316.57	1785.83
316.79	1660.90
317.00	1689.57
317.21	1642.47
317.43	1687.53
317.64	1755.11
317.85	1628.14
318.07	1710.05
318.28	1744.87
318.49	1796.07
318.70	1957.86
318.92	1748.97
319.13	1855.46
319.34	1828.84
319.56	1767.40
319.77	1781.73
319.98	1816.55
320.20	1783.78
320.41	1734.63
320.62	1820.64
320.83	1611.75
321.05	1775.59
321.26	1783.78
321.47	1636.33
321.69	1740.77
321.90	1589.22
322.11	1669.09
322.32	1654.76
322.54	1804.26
322.75	1636.33
322.96	1877.99
323.18	1615.85
323.39	1599.46
323.60	1642.47
323.81	1767.40
324.03	1648.61
324.24	1671.14
324.45	1736.68
324.66	1697.77
324.88	1779.68
325.09	1847.27
325.30	1695.72
325.52	1720.29
325.73	1728.49
325.94	1697.77
326.15	1628.14
326.37	1740.77
326.58	1638.38
326.79	1767.40
327.00	1675.24
327.22	1732.58
327.43	1628.14
327.64	1605.61
327.85	1839.08
328.07	1769.44
328.28	1789.92
328.49	1640.42
328.70	1652.71
328.92	1660.90
329.13	1726.44
329.34	1703.91
329.55	1849.32
329.76	1791.97
329.98	1703.91
330.19	1736.68
330.40	1689.57
330.61	1753.06
330.83	1726.44
331.04	1705.96
331.25	1675.24
331.46	1720.29
331.68	1601.51
331.89	1738.73
332.10	1673.19
332.31	1630.18
332.52	1615.85
332.74	1748.97
332.95	1644.52
333.16	1732.58
333.37	1763.30
333.58	1712.10
333.80	1761.25
334.01	1583.08
334.22	1669.09
334.43	1638.38
334.64	1665.00
334.86	1576.94
335.07	1648.61
335.28	1757.16
335.49	1673.19
335.70	1701.86
335.92	1742.82
336.13	1771.49
336.34	1761.25
336.55	1724.39
336.76	1710.05
336.98	1656.81
337.19	1710.05
337.40	1859.56
337.61	1781.73
337.82	1628.14
338.04	1757.16
338.25	1566.70
338.46	1665.00
338.67	1761.25
338.88	1634.28
339.09	1591.27
339.31	1665.00
339.52	1669.09
339.73	1669.09
339.94	1665.00
340.15	1779.68
340.36	1679.33
340.58	1705.96
340.79	1671.14
341.00	1677.29
341.21	1656.81
341.42	1730.53
341.63	1679.33
341.85	1734.63
342.06	1751.01
342.27	1710.05
342.48	1708.01
342.69	1648.61
342.90	1738.73
343.12	1701.86
343.33	1638.38
343.54	1671.14
343.75	1738.73
343.96	1703.91
344.17	1589.22
344.38	1656.81
344.60	1642.47
344.81	1708.01
345.02	1671.14
345.23	1783.78
345.44	1822.69
345.65	1691.62
345.86	1699.81
346.07	1640.42
346.29	1677.29
346.50	1800.16
346.71	1746.92
346.92	1761.25
347.13	1785.83
347.34	1685.48
347.55	1689.57
347.76	1685.48
347.98	1695.72
348.19	1570.79
348.40	1738.73
348.61	1658.85
348.82	1800.16
349.03	1691.62
349.24	1648.61
349.45	1740.77
349.66	1605.61
349.88	1708.01
350.09	1693.67
350.30	1757.16
350.51	1824.74
350.72	1716.20
350.93	1712.10
351.14	1703.91
351.35	1761.25
351.56	1691.62
351.77	1671.14
351.99	1755.11
352.20	1816.55
352.41	1742.82
352.62	1609.70
352.83	1667.05
353.04	1728.49
353.25	1732.58
353.46	1742.82
353.67	1720.29
353.88	1607.66
354.09	1730.53
354.30	1691.62
354.52	1787.88
354.73	1724.39
354.94	1660.90
355.15	1751.01
355.36	1769.44
355.57	1726.44
355.78	1720.29
355.99	1710.05
356.20	1691.62
356.41	1677.29
356.62	1722.34
356.83	1648.61
357.04	1755.11
357.25	1656.81
357.46	1689.57
357.68	1601.51
357.89	1632.23
358.10	1783.78
358.31	1697.77
358.52	1697.77
358.73	1593.32
358.94	1597.42
359.15	1603.56
359.36	1777.64
359.57	1695.72
359.78	1699.81
359.99	1804.26
360.20	1699.81
360.41	1775.59
360.62	1730.53
360.83	1671.14
361.04	1710.05
361.25	1656.81
361.46	1808.36
361.67	1753.06
361.88	1744.87
362.09	1802.21
362.30	1708.01
362.51	1621.99
362.72	1728.49
362.93	1763.30
363.14	1673.19
363.35	1658.85
363.56	1626.09
363.78	1775.59
363.99	1779.68
364.20	1685.48
364.41	1669.09
364.62	1763.30
364.83	1763.30
365.04	1671.14
365.25	1685.48
365.46	1746.92
365.67	1658.85
365.88	1669.09
366.09	1720.29
366.30	1679.33
366.51	1687.53
366.72	1632.23
366.93	1705.96
367.14	1671.14
367.35	1779.68
367.56	1658.85
367.77	1683.43
367.98	1808.36
368.18	1675.24
368.39	1742.82
368.60	1695.72
368.81	1701.86
369.02	1611.75
369.23	1736.68
369.44	1607.66
369.65	1705.96
369.86	1771.49
370.07	1765.35
370.28	1673.19
370.49	1685.48
370.70	1705.96
370.91	1574.89
371.12	1564.65
371.33	1757.16
371.54	1662.95
371.75	1789.92
371.96	1624.04
372.17	1763.30
372.38	1722.34
372.59	1755.11
372.80	1632.23
373.01	1695.72
373.22	1667.05
373.43	1722.34
373.64	1669.09
373.85	1734.63
374.06	1798.12
374.26	1783.78
374.47	1683.43
374.68	1697.77
374.89	1691.62
375.10	1712.10
375.31	1726.44
375.52	1730.53
375.73	1724.39
375.94	1671.14
376.15	1800.16
376.36	1652.71
376.57	1691.62
376.78	1662.95
376.99	1814.50
377.20	1781.73
377.40	1703.91
377.61	1806.31
377.82	1628.14
378.03	1755.11
378.24	1714.15
378.45	1648.61
378.66	1691.62
378.87	1689.57
379.08	1619.94
379.29	1722.34
379.50	1828.84
379.71	1703.91
379.91	1724.39
380.12	1679.33
380.33	1708.01
380.54	1656.81
380.75	1638.38
380.96	1687.53
381.17	1769.44
381.38	1650.66
381.59	1755.11
381.80	1640.42
382.00	1839.08
382.21	1691.62
382.42	1802.21
382.63	1832.93
382.84	1787.88
383.05	1744.87
383.26	1812.45
383.47	1738.73
383.68	1777.64
383.88	1742.82
384.09	1679.33
384.30	1714.15
384.51	1738.73
384.72	1665.00
384.93	1630.18
385.14	1683.43
385.35	1773.54
385.55	1646.57
385.76	1753.06
385.97	1746.92
386.18	1632.23
386.39	1703.91
386.60	1675.24
386.81	1712.10
387.02	1738.73
387.22	1722.34
387.43	1837.03
387.64	1777.64
387.85	1929.19
388.06	2244.57
388.27	4294.59
388.48	6907.80
388.68	8234.88
388.89	9682.80
389.10	9906.02
389.31	8490.88
389.52	7536.52
389.73	6719.39
389.93	6309.79
390.14	5863.33
390.35	5148.59
390.56	4585.40
390.77	3815.37
390.98	3024.85
391.18	2557.91
391.39	2105.31
391.60	1875.94
391.81	1837.03
392.02	1687.53
392.23	1914.85
392.43	1775.59
392.64	1761.25
392.85	1730.53
393.06	1798.12
393.27	1751.01
393.47	1648.61
393.68	1701.86
393.89	1720.29
394.10	1734.63
394.31	1703.91
394.52	1689.57
394.72	1650.66
394.93	1779.68
395.14	1685.48
395.35	1712.10
395.56	1634.28
395.76	1705.96
395.97	1775.59
396.18	1834.98
396.39	1820.64
396.60	2035.68
396.80	1910.75
397.01	1837.03
397.22	1810.40
397.43	1861.60
397.64	1761.25
397.84	1761.25
398.05	1834.98
398.26	1779.68
398.47	1775.59
398.67	1828.84
398.88	1679.33
399.09	1753.06
399.30	1652.71
399.51	1736.68
399.71	1650.66
399.92	1687.53
400.13	1796.07
400.34	1648.61
400.54	1703.91
400.75	1828.84
400.96	1726.44
401.17	1839.08
401.37	1697.77
401.58	1697.77
401.79	1744.87
402.00	1810.40
402.21	1984.48
402.41	2033.63
402.62	1988.58
402.83	1957.86
403.04	2004.96
403.24	2058.21
403.45	1861.60
403.66	1939.43
403.87	1851.36
404.07	1890.28
404.28	1908.71
404.49	1914.85
404.70	1837.03
404.90	1738.73
405.11	1763.30
405.32	1755.11
405.52	1701.86
405.73	1677.29
405.94	1634.28
406.15	1660.90
406.35	1736.68
406.56	1775.59
406.77	1746.92
406.98	1697.77
407.18	1687.53
407.39	1837.03
407.60	1728.49
407.80	1720.29
408.01	1681.38
408.22	1683.43
408.43	1638.38
408.63	1689.57
408.84	1724.39
409.05	1771.49
409.25	1753.06
409.46	1708.01
409.67	1613.80
409.88	1714.15
410.08	1722.34
410.29	1673.19
410.50	1753.06
410.70	1730.53
410.91	1654.76
411.12	1722.34
411.32	1701.86
411.53	1751.01
411.74	1806.31
411.95	1751.01
412.15	1699.81
412.36	1820.64
412.57	1775.59
412.77	1730.53
412.98	1617.90
413.19	1708.01
413.39	1718.25
413.60	1796.07
413.81	1798.12
414.01	1617.90
414.22	1662.95
414.43	1755.11
414.63	1763.30
414.84	1804.26
415.05	1632.23
415.25	1632.23
415.46	1734.63
415.67	1677.29
415.87	1687.53
416.08	1757.16
416.29	1669.09
416.49	1681.38
416.70	1652.71
416.91	1675.24
417.11	1726.44
417.32	1716.20
417.53	1761.25
417.73	1755.11
417.94	1615.85
418.15	1650.66
418.35	1650.66
418.56	1636.33
418.77	1828.84
418.97	1734.63
419.18	1742.82
419.38	1497.07
419.59	1675.24
419.80	1722.34
420.00	1665.00
420.21	1732.58
420.42	1783.78
420.62	1742.82
420.83	1671.14
421.04	1708.01
421.24	1599.46
421.45	1689.57
421.65	1808.36
421.86	1636.33
422.07	1720.29
422.27	1742.82
422.48	1673.19
422.69	1626.09
422.89	1714.15
423.10	1714.15
423.30	1632.23
423.51	1746.92
423.72	1673.19
423.92	1740.77
424.13	1683.43
424.33	1757.16
424.54	1824.74
424.75	1716.20
424.95	1687.53
425.16	1681.38
425.36	1710.05
425.57	1824.74
425.78	1681.38
425.98	1787.88
426.19	1697.77
426.39	1636.33
426.60	1716.20
426.81	1765.35
427.01	1701.86
427.22	1667.05
427.42	1574.89
427.63	1705.96
427.83	1818.60
428.04	1773.54
428.25	1859.56
428.45	1775.59
428.66	1755.11
428.86	1787.88
429.07	1683.43
429.28	1775.59
429.48	1685.48
429.69	1624.04
429.89	1746.92
430.10	1656.81
430.30	1757.16
430.51	1740.77
430.71	1669.09
430.92	1732.58
431.13	1656.81
431.33	1757.16
431.54	1701.86
431.74	1726.44
431.95	1820.64
432.15	1675.24
432.36	1644.52
432.56	1751.01
432.77	1808.36
432.98	1787.88
433.18	1726.44
433.39	1665.00
433.59	1687.53
433.80	1808.36
434.00	1843.17
434.21	1671.14
434.41	1683.43
434.62	1810.40
434.82	1683.43
435.03	1644.52
435.23	1767.40
435.44	1538.02
435.64	1728.49
435.85	1673.19
436.06	1679.33
436.26	1742.82
436.47	1710.05
436.67	1675.24
436.88	1656.81
437.08	1787.88
437.29	1822.69
437.49	1736.68
437.70	1751.01
437.90	1691.62
438.11	1826.79
438.31	1808.36
438.52	1867.75
438.72	1914.85
438.93	1824.74
439.13	1763.30
439.34	1865.70
439.54	1753.06
439.75	1771.49
439.95	1773.54
440.16	1724.39
440.36	1742.82
440.57	1710.05
440.77	1708.01
440.98	1675.24
441.18	1806.31
441.39	1703.91
441.59	1675.24
441.80	1730.53
442.00	1748.97
442.21	1816.55
442.41	1685.48
442.62	1802.21
442.82	1708.01
443.02	1759.21
443.23	1681.38
443.43	1708.01
443.64	1808.36
443.84	1675.24
444.05	1796.07
444.25	1814.50
444.46	1753.06
444.66	1732.58
444.87	1796.07
445.07	1576.94
445.28	1708.01
445.48	1705.96
445.69	1755.11
445.89	1863.65
446.09	1718.25
446.30	1910.75
446.50	2664.41
446.71	3794.89
446.91	4245.44
447.12	4634.55
447.32	4806.58
447.53	4329.41
447.73	3770.31
447.93	3467.21
448.14	3311.57
448.34	3184.59
448.55	2832.34
448.75	2848.72
448.96	2656.22
449.16	2447.32
449.36	2346.97
449.57	2002.91
449.77	1906.66
449.98	1773.54
450.18	1691.62
450.39	1834.98
450.59	1773.54
450.79	1767.40
451.00	1687.53
451.20	1808.36
451.41	1732.58
451.61	1759.21
451.81	1720.29
452.02	1742.82
452.22	1751.01
452.43	1679.33
452.63	1687.53
452.84	1726.44
453.04	1675.24
453.24	1755.11
453.45	1656.81
453.65	1671.14
453.86	1732.58
454.06	1755.11
454.26	1771.49
454.47	1693.67
454.67	1789.92
454.87	1816.55
455.08	1730.53
455.28	1861.60
455.49	1730.53
455.69	1632.23
455.89	1882.08
456.10	1796.07
456.30	1724.39
456.51	1710.05
456.71	1796.07
456.91	1701.86
457.12	1753.06
457.32	1687.53
457.52	1740.77
457.73	1794.02
457.93	1773.54
458.14	1705.96
458.34	1683.43
458.54	1689.57
458.75	1667.05
458.95	1783.78
459.15	1732.58
459.36	1759.21
459.56	1691.62
459.76	1853.41
459.97	1722.34
460.17	1695.72
460.37	1777.64
460.58	1699.81
460.78	1777.64
460.99	1796.07
461.19	1736.68
461.39	1667.05
461.60	1714.15
461.80	1730.53
462.00	1634.28
462.21	1716.20
462.41	1636.33
462.61	1636.33
462.82	1681.38
463.02	1761.25
463.22	1708.01
463.43	1853.41
463.63	1732.58
463.83	1798.12
464.04	1705.96
464.24	1679.33
464.44	1699.81
464.64	1712.10
464.85	1738.73
465.05	1794.02
465.25	1794.02
465.46	1640.42
465.66	1708.01
465.86	1779.68
466.07	1759.21
466.27	1757.16
466.47	1673.19
466.68	1662.95
466.88	1875.94
467.08	1767.40
467.29	1789.92
467.49	1812.45
467.69	1738.73
467.89	1708.01
468.10	1722.34
468.30	1671.14
468.50	1759.21
468.71	1736.68
468.91	1619.94
469.11	1822.69
469.31	1660.90
469.52	1642.47
469.72	1769.44
469.92	1804.26
470.13	1734.63
470.33	1767.40
470.53	1816.55
470.73	2144.22
470.94	2279.39
471.14	2394.08
471.34	2578.39
471.54	2439.13
471.75	2222.05
471.95	2138.08
472.15	2052.06
472.36	2080.74
472.56	2035.68
472.76	2060.26
472.96	2013.15
473.17	1986.53
473.37	1886.18
473.57	1781.73
473.77	1853.41
473.98	1662.95
474.18	1789.92
474.38	1888.23
474.58	1695.72
474.79	1607.66
474.99	1789.92
475.19	1812.45
475.39	1703.91
475.60	1742.82
475.80	1759.21
476.00	1775.59
476.20	1722.34
476.41	1798.12
476.61	1781.73
476.81	1761.25
477.01	1693.67
477.21	1855.46
477.42	1808.36
477.62	1613.80
477.82	1810.40
478.02	1732.58
478.23	1783.78
478.43	1685.48
478.63	1724.39
478.83	1755.11
479.03	1607.66
479.24	1814.50
479.44	1841.12
479.64	1595.37
479.84	1628.14
480.04	1667.05
480.25	1804.26
480.45	1656.81
480.65	1617.90
480.85	1746.92
481.06	1740.77
481.26	1763.30
481.46	1785.83
481.66	1708.01
481.86	1681.38
482.06	1732.58
482.27	1777.64
482.47	1730.53
482.67	1767.40
482.87	1728.49
483.07	1681.38
483.28	1748.97
483.48	1624.04
483.68	1734.63
483.88	1675.24
484.08	1556.46
484.29	1619.94
484.49	1695.72
484.69	1615.85
484.89	1818.60
485.09	1771.49
485.29	1732.58
485.50	1718.25
485.70	1701.86
485.90	1837.03
486.10	1734.63
486.30	1849.32
486.50	1761.25
486.71	1748.97
486.91	1720.29
487.11	1839.08
487.31	1652.71
487.51	1746.92
487.71	1652.71
487.91	1611.75
488.12	1677.29
488.32	1597.42
488.52	1673.19
488.72	1632.23
488.92	1673.19
489.12	1738.73
489.32	1742.82
489.53	1771.49
489.73	1667.05
489.93	1851.36
490.13	1677.29
490.33	1712.10
490.53	1728.49
490.73	1804.26
490.94	1593.32
491.14	1800.16
491.34	1896.42
491.54	2140.13
491.74	2535.39
491.94	2846.68
492.14	2990.03
492.34	2994.13
492.54	2674.65
492.75	2445.27
492.95	2506.71
493.15	2363.36
493.35	2273.25
493.55	2283.49
493.75	2217.95
493.95	2222.05
494.15	1984.48
494.35	1914.85
494.56	1812.45
494.76	1783.78
494.96	1861.60
495.16	1781.73
495.36	1656.81
495.56	1734.63
495.76	1703.91
495.96	1687.53
496.16	1665.00
496.36	1839.08
496.56	1708.01
496.77	1746.92
496.97	1769.44
497.17	1765.35
497.37	1648.61
497.57	1671.14
497.77	1683.43
497.97	1701.86
498.17	1714.15
498.37	1632.23
498.57	1710.05
498.77	1671.14
498.97	1744.87
499.17	1865.70
499.38	1644.52
499.58	1708.01
499.78	1771.49
499.98	1779.68
500.18	1779.68
500.38	1724.39
500.58	1875.94
500.78	2541.53
500.98	4540.35
501.18	5867.43
501.38	6659.99
501.58	6952.85
501.78	6633.37
501.98	5500.84
502.18	5060.53
502.38	4503.48
502.58	4071.36
502.78	3772.36
502.98	3547.08
503.18	3499.98
503.38	3151.82
503.59	2754.52
503.79	2672.60
503.99	2418.65
504.19	2328.54
504.39	2189.28
504.59	2109.41
504.79	2136.03
504.99	2021.35
505.19	1939.43
505.39	1884.13
505.59	1902.56
505.79	1966.05
505.99	1824.74
506.19	1816.55
506.39	1845.22
506.59	1767.40
506.79	1751.01
506.99	1769.44
507.19	1751.01
507.39	1720.29
507.59	1619.94
507.79	1720.29
507.99	1607.66
508.19	1699.81
508.39	1802.21
508.59	1712.10
508.79	1929.19
508.99	1796.07
509.19	1689.57
509.39	1796.07
509.59	1636.33
509.79	1705.96
509.99	1718.25
510.19	1763.30
510.39	1732.58
510.59	1818.60
510.79	1642.47
510.99	1634.28
511.19	1648.61
511.39	1865.70
511.59	1796.07
511.79	1773.54
511.99	1787.88
512.19	1751.01
512.38	1734.63
512.58	1648.61
512.78	1751.01
512.98	1775.59
513.18	1796.07
513.38	1654.76
513.58	1699.81
513.78	1679.33
513.98	1757.16
514.18	1701.86
514.38	1673.19
514.58	1708.01
514.78	1712.10
514.98	1689.57
515.18	1660.90
515.38	1658.85
515.58	1830.88
515.78	1701.86
515.98	1746.92
516.18	1669.09
516.38	1734.63
516.57	1759.21
516.77	1708.01
516.97	1753.06
517.17	1736.68
517.37	1638.38
517.57	1742.82
517.77	1734.63
517.97	1656.81
518.17	1771.49
518.37	1714.15
518.57	1665.00
518.77	1691.62
518.97	1826.79
519.16	1665.00
519.36	1710.05
519.56	1710.05
519.76	1738.73
519.96	1710.05
520.16	1794.02
520.36	1650.66
520.56	1810.40
520.76	1732.58
520.96	1689.57
521.16	1748.97
521.35	1771.49
521.55	1869.80
521.75	1679.33
521.95	1724.39
522.15	1673.19
522.35	1597.42
522.55	1701.86
522.75	1804.26
522.95	1763.30
523.14	1695.72
523.34	1847.27
523.54	1683.43
523.74	1742.82
523.94	1800.16
524.14	1658.85
524.34	1730.53
524.54	1828.84
524.73	1748.97
524.93	1748.97
525.13	1681.38
525.33	1628.14
525.53	1847.27
525.73	1783.78
525.93	1689.57
526.13	1685.48
526.32	1730.53
526.52	1771.49
526.72	1808.36
526.92	1791.97
527.12	1662.95
527.32	1646.57
527.52	1781.73
527.71	1753.06
527.91	1710.05
528.11	1732.58
528.31	1859.56
528.51	1705.96
528.71	1769.44
528.90	1724.39
529.10	1753.06
529.30	1845.22
529.50	1587.18
529.70	1781.73
529.90	1689.57
530.09	1820.64
530.29	1683.43
530.49	1693.67
530.69	1884.13
530.89	1783.78
531.09	1759.21
531.28	1720.29
531.48	1798.12
531.68	1730.53
531.88	1722.34
532.08	1781.73
532.28	1734.63
532.47	1763.30
532.67	1845.22
532.87	1798.12
533.07	1744.87
533.27	1789.92
533.46	1808.36
533.66	1712.10
533.86	1738.73
534.06	1744.87
534.26	1736.68
534.45	1689.57
534.65	1777.64
534.85	1658.85
535.05	1683.43
535.25	1822.69
535.44	1595.37
535.64	1755.11
535.84	1751.01
536.04	1693.67
536.24	1705.96
536.43	1667.05
536.63	1744.87
536.83	1787.88
537.03	1728.49
537.22	1693.67
537.42	1609.70
537.62	1755.11
537.82	1695.72
538.02	1771.49
538.21	1779.68
538.41	1939.43
538.61	1753.06
538.81	1652.71
539.00	1775.59
539.20	1738.73
539.40	1773.54
539.60	1738.73
539.79	1794.02
539.99	1748.97
540.19	1730.53
540.39	1708.01
540.58	1712.10
540.78	1820.64
540.98	1757.16
541.18	1781.73
541.37	1808.36
541.57	1738.73
541.77	1695.72
541.97	1689.57
542.16	1660.90
542.36	1705.96
542.56	1689.57
542.76	1800.16
542.95	1734.63
543.15	1753.06
543.35	1742.82
543.54	1685.48
543.74	1703.91
543.94	1759.21
544.14	1689.57
544.33	1791.97
544.53	1718.25
544.73	1773.54
544.93	1646.57
545.12	1742.82
545.32	1787.88
545.52	1683.43
545.71	1691.62
545.91	1650.66
546.11	1675.24
546.30	1738.73
546.50	1673.19
546.70	1787.88
546.90	1771.49
547.09	1615.85
547.29	1662.95
547.49	1812.45
547.68	1746.92
547.88	1710.05
548.08	1742.82
548.27	2119.65
548.47	1734.63
548.67	1714.15
548.87	1761.25
549.06	1683.43
549.26	1771.49
549.46	1744.87
549.65	1710.05
549.85	1679.33
550.05	1787.88
550.24	1640.42
550.44	1726.44
550.64	1671.14
550.83	1789.92
551.03	1794.02
551.23	1771.49
551.42	1826.79
551.62	1685.48
551.82	1732.58
552.01	1708.01
552.21	1806.31
552.41	1699.81
552.60	1730.53
552.80	1736.68
553.00	1726.44
553.19	1757.16
553.39	1804.26
553.59	1708.01
553.78	1722.34
553.98	1806.31
554.17	1613.80
554.37	1794.02
554.57	1746.92
554.76	1638.38
554.96	1730.53
555.16	1777.64
555.35	1740.77
555.55	1828.84
555.75	1771.49
555.94	1734.63
556.14	1654.76
556.33	1757.16
556.53	1738.73
556.73	1763.30
556.92	1765.35
557.12	1796.07
557.32	1880.04
557.51	1773.54
557.71	1746.92
557.90	1806.31
558.10	1775.59
558.30	1775.59
558.49	1693.67
558.69	1738.73
558.88	1861.60
559.08	1755.11
559.28	1697.77
559.47	1837.03
559.67	1748.97
559.86	1845.22
560.06	1771.49
560.26	1751.01
560.45	1738.73
560.65	1673.19
560.84	1787.88
561.04	1734.63
561.24	1785.83
561.43	1716.20
561.63	1837.03
561.82	1687.53
562.02	1744.87
562.22	1755.11
562.41	1681.38
562.61	1796.07
562.80	1748.97
563.00	1894.37
563.19	1687.53
563.39	1714.15
563.59	1724.39
563.78	1699.81
563.98	1566.70
564.17	1699.81
564.37	1675.24
564.56	1712.10
564.76	1662.95
564.96	1796.07
565.15	1689.57
565.35	1853.41
565.54	1812.45
565.74	1767.40
565.93	1728.49
566.13	1716.20
566.32	1667.05
566.52	1761.25
566.71	1767.40
566.91	1751.01
567.11	1681.38
567.30	1660.90
567.50	1726.44
567.69	1697.77
567.89	1724.39
568.08	1716.20
568.28	1658.85
568.47	1693.67
568.67	1755.11
568.86	1683.43
569.06	1724.39
569.25	1738.73
569.45	1675.24
569.64	1742.82
569.84	1701.86
570.04	1722.34
570.23	1796.07
570.43	1734.63
570.62	1734.63
570.82	1837.03
571.01	1681.38
571.21	1779.68
571.40	1624.04
571.60	1730.53
571.79	1800.16
571.99	1777.64
572.18	1708.01
572.38	1744.87
572.57	1662.95
572.77	1779.68
572.96	1916.90
573.16	1726.44
573.35	1726.44
573.55	1812.45
573.74	1796.07
573.94	1701.86
574.13	1757.16
574.33	1722.34
574.52	1853.41
574.71	1828.84
574.91	1818.60
575.10	1658.85
575.30	1806.31
575.49	1738.73
575.69	1619.94
575.88	1728.49
576.08	1759.21
576.27	1736.68
576.47	1677.29
576.66	1777.64
576.86	1736.68
577.05	1767.40
577.25	1777.64
577.44	1839.08
577.64	1734.63
577.83	1738.73
578.02	1605.61
578.22	1820.64
578.41	1845.22
578.61	1734.63
578.80	1634.28
579.00	1744.87
579.19	1681.38
579.39	1779.68
579.58	1712.10
579.77	1722.34
579.97	1841.12
580.16	1837.03
580.36	1783.78
580.55	1837.03
580.75	1828.84
580.94	1730.53
581.13	1841.12
581.33	1791.97
581.52	1701.86
581.72	1839.08
581.91	1892.32
582.11	1775.59
582.30	1873.89
582.49	1771.49
582.69	1828.84
582.88	1769.44
583.08	1763.30
583.27	1771.49
583.47	1697.77
583.66	1687.53
583.85	1673.19
584.05	1755.11
584.24	1720.29
584.44	1832.93
584.63	1769.44
584.82	1869.80
585.02	1771.49
585.21	1761.25
585.41	1789.92
585.60	1806.31
585.79	1906.66
585.99	1935.33
586.18	1845.22
586.37	2222.05
586.57	3440.59
586.76	9787.24
586.96	24647.30
587.15	34381.30
587.34	40592.79
587.54	42327.42
587.73	36845.01
587.93	26568.30
588.12	21597.88
588.31	18376.42
588.51	16219.91
588.70	15269.66
588.89	14071.59
589.09	12752.70
589.28	11136.85
589.47	9559.92
589.67	8116.10
589.86	6401.95
590.06	4935.60
590.25	3930.05
590.44	3229.65
590.64	2584.54
590.83	2281.44
591.02	2093.02
591.22	1955.81
591.41	1904.61
591.60	1828.84
591.80	1925.09
591.99	1714.15
592.18	1806.31
592.38	1806.31
592.57	1822.69
592.76	1724.39
592.96	1816.55
593.15	1697.77
593.34	1763.30
593.54	1740.77
593.73	1763.30
593.92	1734.63
594.12	1845.22
594.31	1826.79
594.50	1839.08
594.70	1802.21
594.89	1820.64
595.08	1673.19
595.28	1822.69
595.47	1937.38
595.66	1787.88
595.86	1677.29
596.05	1710.05
596.24	1703.91
596.43	1834.98
596.63	1834.98
596.82	1755.11
597.01	1830.88
597.21	1834.98
597.40	1769.44
597.59	1781.73
597.79	1646.57
597.98	1798.12
598.17	1777.64
598.36	1777.64
598.56	1691.62
598.75	1658.85
598.94	1712.10
599.14	1712.10
599.33	1767.40
599.52	1777.64
599.71	1726.44
599.91	1812.45
600.10	1800.16
600.29	1740.77
600.48	1781.73
600.68	1765.35
600.87	1775.59
601.06	1675.24
601.26	1705.96
601.45	1777.64
601.64	1669.09
601.83	1755.11
602.03	1658.85
602.22	1720.29
602.41	1812.45
602.60	1826.79
602.80	1746.92
602.99	1845.22
603.18	1722.34
603.37	1738.73
603.57	1724.39
603.76	1718.25
603.95	1726.44
604.14	1763.30
604.34	1648.61
604.53	1728.49
604.72	1771.49
604.91	1787.88
605.10	1742.82
605.30	1728.49
605.49	1918.95
605.68	1826.79
605.87	1677.29
606.07	1779.68
606.26	1806.31
606.45	1808.36
606.64	1726.44
606.84	1734.63
607.03	1732.58
607.22	1767.40
607.41	1626.09
607.60	1687.53
607.80	1812.45
607.99	1814.50
608.18	1751.01
608.37	1755.11
608.56	1685.48
608.76	1859.56
608.95	1783.78
609.14	1744.87
609.33	1794.02
609.52	1810.40
609.72	1708.01
609.91	1736.68
610.10	1773.54
610.29	1812.45
610.48	1800.16
610.68	1755.11
610.87	1732.58
611.06	1718.25
611.25	1691.62
611.44	1822.69
611.63	1720.29
611.83	1865.70
612.02	1626.09
612.21	1871.84
612.40	1648.61
612.59	1640.42
612.79	1665.00
612.98	1724.39
613.17	1814.50
613.36	1744.87
613.55	1908.71
613.74	1675.24
613.93	1699.81
614.13	1742.82
614.32	1695.72
614.51	1726.44
614.70	1740.77
614.89	1697.77
615.08	1791.97
615.28	2068.45
615.47	1685.48
615.66	1761.25
615.85	1650.66
616.04	1824.74
616.23	1751.01
616.42	1685.48
616.62	1687.53
616.81	1726.44
617.00	1724.39
617.19	1718.25
617.38	1671.14
617.57	1796.07
617.76	1675.24
617.95	1724.39
618.15	1736.68
618.34	1791.97
618.53	1693.67
618.72	1769.44
618.91	1855.46
619.10	1742.82
619.29	1669.09
619.48	1730.53
619.68	1693.67
619.87	1781.73
620.06	1689.57
620.25	1697.77
620.44	1673.19
620.63	1714.15
620.82	1716.20
621.01	1748.97
621.20	1722.34
621.39	1726.44
621.59	1781.73
621.78	1757.16
621.97	1669.09
622.16	1761.25
622.35	1705.96
622.54	1789.92
622.73	1791.97
622.92	1679.33
623.11	1794.02
623.30	1724.39
623.49	1789.92
623.68	1734.63
623.88	1765.35
624.07	1665.00
624.26	1685.48
624.45	1697.77
624.64	1708.01
624.83	1728.49
625.02	1720.29
625.21	1751.01
625.40	1834.98
625.59	1798.12
625.78	1763.30
625.97	1785.83
626.16	1843.17
626.35	1771.49
626.54	1751.01
626.74	1759.21
626.93	1671.14
627.12	1693.67
627.31	1746.92
627.50	1767.40
627.69	1806.31
627.88	1667.05
628.07	1693.67
628.26	1658.85
628.45	1763.30
628.64	1640.42
628.83	1685.48
629.02	1667.05
629.21	1746.92
629.40	1736.68
629.59	1656.81
629.78	1671.14
629.97	1685.48
630.16	1708.01
630.35	1683.43
630.54	1660.90
630.73	1671.14
630.92	1652.71
631.11	1665.00
631.30	1728.49
631.49	1765.35
631.68	1722.34
631.87	1761.25
632.06	1634.28
632.25	1847.27
632.44	1734.63
632.63	1677.29
632.82	1742.82
633.01	1650.66
633.20	1691.62
633.39	1660.90
633.58	1626.09
633.77	1703.91
633.96	1755.11
634.15	1761.25
634.34	1757.16
634.53	1689.57
634.72	1656.81
634.91	1679.33
635.10	1697.77
635.29	1779.68
635.48	1687.53
635.67	1650.66
635.86	1691.62
636.05	1746.92
636.24	1677.29
636.43	1769.44
636.62	1724.39
636.81	1613.80
637.00	1693.67
637.19	1800.16
637.38	1742.82
637.57	1656.81
637.76	1726.44
637.95	1667.05
638.14	1642.47
638.33	1638.38
638.52	1687.53
638.71	1599.46
638.89	1671.14
639.08	1894.37
639.27	1742.82
639.46	1634.28
639.65	1738.73
639.84	1748.97
640.03	1783.78
640.22	1677.29
640.41	1847.27
640.60	1740.77
640.79	1757.16
640.98	1673.19
641.17	1703.91
641.36	1712.10
641.55	1714.15
641.74	1662.95
641.92	1673.19
642.11	1673.19
642.30	1740.77
642.49	1662.95
642.68	1705.96
642.87	1689.57
643.06	1669.09
643.25	1705.96
643.44	1681.38
643.63	1699.81
643.82	1740.77
644.00	1697.77
644.19	1761.25
644.38	1638.38
644.57	1783.78
644.76	1763.30
644.95	1673.19
645.14	1705.96
645.33	1683.43
645.52	1693.67
645.71	1712.10
645.89	1611.75
646.08	1744.87
646.27	1677.29
646.46	1857.51
646.65	1646.57
646.84	1751.01
647.03	1660.90
647.22	1740.77
647.40	1734.63
647.59	1675.24
647.78	1619.94
647.97	1652.71
648.16	1683.43
648.35	1785.83
648.54	1804.26
648.73	1621.99
648.91	1744.87
649.10	1708.01
649.29	1679.33
649.48	1585.13
649.67	1763.30
649.86	1773.54
650.05	1617.90
650.23	1787.88
650.42	1632.23
650.61	1763.30
650.80	1742.82
650.99	1855.46
651.18	1781.73
651.36	1738.73
651.55	1677.29
651.74	1753.06
651.93	1662.95
652.12	1748.97
652.31	1732.58
652.49	1769.44
652.68	1722.34
652.87	1818.60
653.06	1746.92
653.25	1875.94
653.44	1701.86
653.62	1810.40
653.81	1738.73
654.00	1679.33
654.19	1779.68
654.38	1828.84
654.56	1708.01
654.75	1654.76
654.94	1734.63
655.13	1791.97
655.32	1761.25
655.51	1734.63
655.69	1736.68
655.88	1695.72
656.07	1636.33
656.26	1740.77
656.45	1683.43
656.63	1681.38
656.82	1746.92
657.01	1738.73
657.20	1703.91
657.38	1779.68
657.57	1744.87
657.76	1581.03
657.95	1775.59
658.14	1740.77
658.32	1669.09
658.51	1652.71
658.70	1718.25
658.89	1636.33
659.08	1683.43
659.26	1873.89
659.45	1673.19
659.64	1806.31
659.83	1662.95
660.01	1812.45
660.20	1751.01
660.39	1849.32
660.58	1572.84
660.76	1685.48
660.95	1673.19
661.14	1705.96
661.33	1685.48
661.51	1675.24
661.70	1640.42
661.89	1761.25
662.08	1718.25
662.26	1593.32
662.45	1667.05
662.64	1693.67
662.83	1730.53
663.01	1679.33
663.20	1677.29
663.39	1794.02
663.58	1679.33
663.76	1753.06
663.95	1765.35
664.14	1689.57
664.32	1738.73
664.51	1660.90
664.70	1644.52
664.89	1691.62
665.07	1597.42
665.26	1820.64
665.45	1611.75
665.64	1773.54
665.82	1714.15
666.01	1804.26
666.20	1626.09
666.38	1828.84
666.57	1791.97
666.76	2244.57
666.95	4456.38
667.13	10381.15
667.32	15214.36
667.51	17690.35
667.69	19121.88
667.88	17563.38
668.07	12285.76
668.25	9588.59
668.44	8136.58
668.63	7423.89
668.81	6737.82
669.00	6166.43
669.19	5656.49
669.38	5050.29
669.56	4405.18
669.75	3952.58
669.94	3483.59
670.12	2992.08
670.31	2537.43
670.50	2201.57
670.68	2033.63
670.87	1972.19
671.06	1861.60
671.24	1638.38
671.43	1759.21
671.62	1800.16
671.80	1777.64
671.99	1736.68
672.18	1761.25
672.36	1658.85
672.55	1791.97
672.74	1703.91
672.92	1734.63
673.11	1748.97
673.29	1628.14
673.48	1757.16
673.67	1726.44
673.85	1832.93
674.04	1730.53
674.23	1765.35
674.41	1808.36
674.60	1648.61
674.79	1615.85
674.97	1621.99
675.16	1724.39
675.34	1757.16
675.53	1636.33
675.72	1759.21
675.90	1767.40
676.09	1708.01
676.28	1746.92
676.46	1583.08
676.65	1763.30
676.83	1718.25
677.02	1689.57
677.21	1693.67
677.39	1730.53
677.58	1740.77
677.77	1648.61
677.95	1642.47
678.14	1693.67
678.32	1701.86
678.51	1718.25
678.70	1744.87
678.88	1675.24
679.07	1722.34
679.25	1669.09
679.44	1720.29
679.63	1660.90
679.81	1718.25
680.00	1810.40
680.18	1740.77
680.37	1697.77
680.55	1730.53
680.74	1628.14
680.93	1669.09
681.11	1728.49
681.30	1726.44
681.48	1691.62
681.67	1673.19
681.85	1714.15
682.04	1710.05
682.23	1742.82
682.41	1705.96
682.60	1671.14
682.78	1695.72
682.97	1667.05
683.15	1753.06
683.34	1660.90
683.53	1806.31
683.71	1691.62
683.90	1902.56
684.08	1777.64
684.27	1648.61
684.45	1744.87
684.64	1789.92
684.82	1652.71
685.01	1726.44
685.19	1671.14
685.38	1753.06
685.57	1732.58
685.75	1650.66
685.94	1658.85
686.12	1636.33
686.31	1667.05
686.49	1773.54
686.68	1599.46
686.86	1691.62
687.05	1634.28
687.23	1818.60
687.42	1708.01
687.60	1701.86
687.79	1812.45
687.97	1785.83
688.16	1681.38
688.34	1804.26
688.53	1638.38
688.71	1716.20
688.90	1777.64
689.08	1677.29
689.27	1619.94
689.45	1695.72
689.64	1755.11
689.82	1728.49
690.01	1740.77
690.19	1712.10
690.38	1720.29
690.56	1802.21
690.75	1648.61
690.93	1648.61
691.12	1644.52
691.30	1667.05
691.49	1654.76
691.67	1675.24
691.86	1841.12
692.04	1656.81
692.23	1656.81
692.41	1689.57
692.60	1849.32
692.78	1718.25
692.97	1650.66
693.15	1732.58
693.34	1837.03
693.52	1789.92
693.71	1593.32
693.89	1691.62
694.08	1615.85
694.26	1730.53
694.44	1687.53
694.63	1701.86
694.81	1687.53
695.00	1628.14
695.18	1810.40
695.37	1857.51
695.55	1681.38
695.74	1636.33
695.92	1683.43
696.10	1775.59
696.29	1675.24
696.47	1703.91
696.66	1665.00
696.84	1609.70
697.03	1740.77
697.21	1900.52
697.40	2295.77
697.58	1720.29
697.76	1607.66
697.95	1654.76
698.13	1626.09
698.32	1738.73
698.50	1636.33
698.68	1814.50
698.87	1613.80
699.05	1832.93
699.24	1681.38
699.42	1646.57
699.61	1714.15
699.79	1673.19
699.97	1732.58
700.16	1560.55
700.34	1720.29
700.53	1796.07
700.71	1834.98
700.89	1763.30
701.08	1742.82
701.26	1738.73
701.45	2131.94
701.63	1656.81
701.81	1734.63
702.00	1611.75
702.18	1710.05
702.37	1644.52
702.55	1822.69
702.73	1742.82
702.92	1630.18
703.10	1720.29
703.28	1687.53
703.47	1687.53
703.65	1755.11
703.84	1732.58
704.02	1701.86
704.20	1753.06
704.39	1675.24
704.57	1699.81
704.75	1695.72
704.94	1708.01
705.12	1791.97
705.30	1822.69
705.49	2201.57
705.67	4454.33
705.86	9336.69
706.04	12832.57
706.22	14683.94
706.41	15378.20
706.59	13782.83
706.77	9457.52
706.96	7491.47
707.14	6623.13
707.32	6029.22
707.51	5668.78
707.69	4882.36
707.87	4239.30
708.06	3631.05
708.24	2973.65
708.42	2508.76
708.61	2246.62
708.79	1951.71
708.97	1945.57
709.16	1816.55
709.34	1763.30
709.52	1710.05
709.71	1732.58
709.89	1691.62
710.07	1708.01
710.26	1701.86
710.44	1687.53
710.62	1740.77
710.80	1691.62
710.99	1746.92
711.17	1716.20
711.35	1656.81
711.54	1677.29
711.72	1765.35
711.90	1736.68
712.09	1679.33
712.27	1585.13
712.45	1665.00
712.63	1652.71
712.82	1679.33
713.00	1677.29
713.18	1804.26
713.37	1718.25
713.55	1644.52
713.73	1718.25
713.91	1675.24
714.10	1669.09
714.28	1638.38
714.46	1759.21
714.65	1669.09
714.83	1746.92
715.01	1640.42
715.19	1722.34
715.38	1714.15
715.56	1685.48
715.74	1681.38
715.92	1611.75
716.11	1849.32
716.29	1593.32
716.47	1613.80
716.65	1687.53
716.84	1628.14
717.02	1769.44
717.20	1599.46
717.38	1673.19
717.57	1689.57
717.75	1697.77
717.93	1748.97
718.11	1732.58
718.30	1642.47
718.48	1705.96
718.66	1701.86
718.84	1701.86
719.03	1628.14
719.21	1634.28
719.39	1781.73
719.57	1710.05
719.75	1779.68
719.94	1665.00
720.12	1675.24
720.30	1628.14
720.48	1757.16
720.67	1599.46
720.85	1703.91
721.03	1648.61
721.21	1640.42
721.39	1755.11
721.58	1765.35
721.76	1689.57
721.94	1679.33
722.12	1658.85
722.30	1740.77
722.49	1714.15
722.67	1669.09
722.85	1716.20
723.03	1634.28
723.21	1576.94
723.40	1669.09
723.58	1722.34
723.76	1681.38
723.94	1742.82
724.12	1669.09
724.30	1732.58
724.49	1734.63
724.67	1644.52
724.85	1773.54
725.03	1566.70
725.21	1742.82
725.40	1767.40
725.58	1626.09
725.76	1773.54
725.94	1697.77
726.12	1632.23
726.30	1689.57
726.49	1650.66
726.67	1667.05
726.85	1687.53
727.03	1691.62
727.21	2158.56
727.39	2861.01
727.57	3741.64
727.76	4110.27
727.94	4446.14
728.12	4407.23
728.30	3792.84
728.48	2932.69
728.66	2721.75
728.84	2562.01
729.03	2324.44
729.21	2111.46
729.39	1961.95
729.57	1877.99
729.75	1769.44
729.93	1767.40
730.11	1718.25
730.30	1710.05
730.48	1671.14
730.66	1787.88
730.84	1734.63
731.02	1683.43
731.20	1671.14
731.38	1759.21
731.56	1615.85
731.74	1650.66
731.93	1740.77
732.11	1673.19
732.29	1652.71
732.47	1720.29
732.65	1757.16
732.83	1763.30
733.01	1708.01
733.19	1621.99
733.37	1673.19
733.56	1794.02
733.74	1581.03
733.92	1726.44
734.10	1718.25
734.28	1775.59
734.46	1595.37
734.64	1740.77
734.82	1650.66
735.00	1597.42
735.18	1710.05
735.36	1744.87
735.54	1724.39
735.73	1665.00
735.91	1695.72
736.09	1806.31
736.27	1638.38
736.45	1740.77
736.63	1599.46
736.81	1683.43
736.99	1779.68
737.17	1763.30
737.35	1697.77
737.53	1677.29
737.71	1632.23
737.89	1759.21
738.07	1636.33
738.25	1675.24
738.43	1578.98
738.61	1636.33
738.80	1585.13
738.98	1714.15
739.16	1697.77
739.34	1699.81
739.52	1730.53
739.70	1636.33
739.88	1718.25
740.06	1845.22
740.24	1576.94
740.42	1777.64
740.60	1648.61
740.78	1734.63
740.96	1595.37
741.14	1703.91
741.32	1685.48
741.50	1605.61
741.68	1847.27
741.86	1785.83
742.04	1654.76
742.22	1644.52
742.40	1708.01
742.58	1771.49
742.76	1624.04
742.94	1693.67
743.12	1570.79
743.30	1742.82
743.48	1742.82
743.66	1718.25
743.84	1720.29
744.02	1687.53
744.20	1695.72
744.38	1576.94
744.56	1652.71
744.74	1789.92
744.92	1703.91
745.10	1820.64
745.28	1632.23
745.46	1738.73
745.64	1710.05
745.82	1734.63
746.00	1667.05
746.18	1671.14
746.36	1689.57
746.54	1656.81
746.72	1722.34
746.90	1607.66
747.08	1751.01
747.26	1669.09
747.44	1759.21
747.62	1701.86
747.80	1689.57
747.98	1675.24
748.15	1660.90
748.33	1806.31
748.51	1658.85
748.69	1656.81
748.87	1708.01
749.05	1669.09
749.23	1701.86
749.41	1742.82
749.59	1724.39
749.77	1687.53
749.95	1701.86
750.13	1708.01
750.31	1746.92
750.49	1677.29
750.67	1763.30
750.85	1849.32
751.03	1703.91
751.20	1777.64
751.38	1736.68
751.56	1683.43
751.74	1726.44
751.92	1683.43
752.10	1693.67
752.28	1767.40
752.46	1712.10
752.64	1701.86
752.82	1617.90
753.00	1755.11
753.18	1671.14
753.35	1695.72
753.53	1671.14
753.71	1722.34
753.89	1804.26
754.07	1708.01
754.25	1636.33
754.43	1775.59
754.61	1601.51
754.79	1730.53
754.97	1599.46
755.14	1726.44
755.32	1621.99
755.50	1687.53
755.68	1714.15
755.86	1650.66
756.04	1755.11
756.22	1601.51
756.40	1746.92
756.57	1818.60
756.75	1669.09
756.93	1714.15
757.11	1742.82
757.29	1775.59
757.47	1671.14
757.65	1642.47
757.82	1658.85
758.00	1726.44
758.18	1689.57
758.36	1665.00
758.54	1820.64
758.72	1658.85
758.90	1753.06
759.07	1658.85
759.25	1566.70
759.43	1742.82
759.61	1665.00
759.79	2226.14
759.97	1736.68
760.15	1695.72
760.32	1697.77
760.50	1742.82
760.68	1755.11
760.86	1605.61
761.04	1742.82
761.22	1732.58
761.39	1660.90
761.57	1667.05
761.75	1740.77
761.93	1716.20
762.11	1724.39
762.28	1605.61
762.46	1656.81
762.64	1806.31
762.82	1662.95
763.00	1708.01
763.18	1693.67
763.35	1617.90
763.53	1687.53
763.71	1658.85
763.89	1710.05
764.07	1677.29
764.24	1689.57
764.42	1732.58
764.60	1677.29
764.78	1781.73
764.96	1791.97
765.13	1812.45
765.31	1705.96
765.49	1691.62
765.67	1714.15
765.84	1722.34
766.02	1681.38
766.20	1599.46
766.38	1746.92
766.56	1740.77
766.73	1738.73
766.91	1699.81
767.09	1599.46
767.27	1673.19
767.44	1691.62
767.62	1757.16
767.80	1742.82
767.98	1685.48
768.15	1708.01
768.33	1720.29
768.51	1724.39
768.69	1673.19
768.87	1769.44
769.04	1675.24
769.22	1834.98
769.40	1771.49
769.58	1834.98
769.75	1742.82
769.93	1732.58
770.11	1775.59
770.28	1689.57
770.46	1777.64
770.64	1699.81
770.82	1685.48
770.99	1660.90
771.17	1701.86
771.35	1681.38
771.53	1640.42
771.70	1726.44
771.88	1660.90
772.06	1699.81
772.23	1710.05
772.41	1716.20
772.59	1650.66
772.77	1583.08
772.94	1757.16
773.12	1718.25
773.30	1697.77
773.47	1675.24
773.65	1654.76
773.83	1820.64
774.01	1722.34
774.18	1656.81
774.36	1726.44
774.54	1695.72
774.71	1687.53
774.89	1691.62
775.07	1617.90
775.24	1640.42
775.42	1662.95
775.60	1779.68
775.78	1607.66
775.95	1595.37
776.13	1646.57
776.31	1576.94
776.48	1767.40
776.66	1734.63
776.84	1669.09
777.01	1761.25
777.19	1679.33
777.37	1675.24
777.54	1759.21
777.72	1757.16
777.90	1701.86
778.07	1665.00
778.25	1945.57
778.43	1718.25
778.60	1720.29
778.78	1708.01
778.96	1798.12
779.13	1624.04
779.31	1820.64
779.49	1708.01
779.66	1689.57
779.84	1708.01
780.01	1667.05
780.19	1640.42
780.37	1785.83
780.54	1834.98
780.72	1720.29
780.90	1650.66
781.07	1691.62
781.25	1591.27
781.43	1730.53
781.60	1671.14
781.78	1708.01
781.95	1710.05
782.13	1699.81
782.31	1726.44
782.48	1660.90
782.66	1742.82
782.83	1832.93
783.01	1689.57
783.19	1777.64
783.36	1634.28
783.54	1679.33
783.72	1705.96
783.89	1697.77
784.07	1767.40
784.24	1609.70
784.42	1738.73
784.60	1781.73
784.77	1712.10
784.95	1570.79
785.12	1718.25
785.30	1736.68
785.47	1646.57
785.65	1628.14
785.83	1716.20
786.00	1591.27
786.18	1660.90
786.35	1634.28
786.53	1673.19
786.71	1736.68
786.88	1714.15
787.06	1761.25
787.23	1718.25
787.41	1593.32
787.58	1695.72
787.76	1624.04
787.94	1742.82
788.11	1673.19
788.29	1652.71
788.46	1619.94
788.64	1574.89
788.81	1701.86
788.99	1656.81
789.16	1576.94
789.34	1624.04
789.52	1697.77
789.69	1638.38
789.87	1644.52
790.04	1705.96
790.22	1619.94
790.39	1783.78
790.57	1669.09
790.74	1718.25
790.92	1767.40
791.09	1599.46
791.27	1658.85
791.44	1761.25
791.62	1781.73
791.79	1771.49
791.97	1652.71
792.15	1785.83
792.32	1740.77
792.50	1732.58
792.67	1746.92
792.85	1742.82
793.02	1662.95
793.20	1611.75
793.37	1591.27
793.55	1619.94
793.72	1621.99
793.90	1677.29
794.07	1626.09
794.25	1681.38
794.42	1685.48
794.60	1683.43
794.77	1744.87
794.95	1656.81
795.12	1746.92
795.30	1708.01
795.47	1566.70
795.65	1822.69
795.82	1728.49
796.00	1703.91
796.17	1689.57
796.34	1626.09
796.52	1693.67
796.69	1779.68
796.87	1716.20
797.04	1730.53
797.22	1736.68
797.39	1689.57
797.57	1701.86
797.74	1689.57
797.92	1703.91
798.09	1658.85
798.27	1716.20
798.44	1685.48
798.62	1650.66
798.79	1644.52
798.96	1683.43
799.14	1662.95
799.31	1820.64
799.49	1681.38
799.66	1671.14
799.84	1665.00
800.01	1660.90
800.19	1740.77
800.36	1636.33
800.53	1703.91
800.71	1769.44
800.88	1777.64
801.06	1601.51
801.23	1697.77
801.41	1636.33
801.58	1638.38
801.75	1738.73
801.93	1726.44
802.10	1736.68
802.28	1648.61
802.45	1658.85
802.63	1687.53
802.80	1814.50
802.97	1640.42
803.15	1677.29
803.32	1628.14
803.50	1673.19
803.67	1628.14
803.84	1705.96
804.02	1712.10
804.19	1714.15
804.37	1619.94
804.54	1665.00
804.71	1697.77
804.89	1742.82
805.06	1587.18
805.24	1566.70
805.41	1689.57
805.58	1650.66
805.76	1796.07
805.93	1755.11
806.10	1779.68
806.28	1837.03
806.45	1665.00
806.63	1683.43
806.80	1775.59
806.97	1705.96
807.15	1646.57
807.32	1689.57
807.49	1804.26
807.67	1656.81
807.84	1701.86
808.01	1587.18
808.19	1781.73
808.36	1796.07
808.54	1703.91
808.71	1697.77
808.88	1658.85
809.06	1753.06
809.23	1802.21
809.40	1554.41
809.58	1665.00
809.75	1701.86
809.92	1650.66
810.10	1785.83
810.27	1712.10
810.44	1656.81
810.62	1730.53
810.79	1746.92
810.96	1675.24
811.14	1699.81
811.31	1736.68
811.48	1703.91
811.66	1689.57
811.83	1728.49
812.00	1662.95
812.18	1634.28
812.35	1814.50
812.52	1710.05
812.69	1665.00
812.87	1697.77
813.04	1695.72
813.21	1683.43
813.39	1652.71
813.56	1599.46
813.73	1736.68
813.91	1687.53
814.08	1665.00
814.25	1724.39
814.42	1601.51
814.60	1673.19
814.77	1761.25
814.94	1701.86
815.12	1636.33
815.29	1818.60
815.46	1601.51
815.63	1712.10
815.81	1660.90
815.98	1673.19
816.15	1740.77
816.33	1748.97
816.50	1628.14
816.67	1650.66
816.84	1730.53
817.02	1665.00
817.19	1697.77
817.36	1716.20
817.53	1677.29
817.71	1685.48
817.88	1763.30
818.05	1617.90
818.22	1718.25
818.40	1783.78
818.57	1714.15
818.74	1751.01
818.91	1720.29
819.09	1759.21
819.26	1722.34
819.43	1626.09
819.60	1695.72
819.78	1675.24
819.95	1728.49
820.12	1642.47
820.29	1705.96
820.47	1761.25
820.64	1578.98
820.81	1640.42
820.98	1734.63
821.15	1640.42
821.33	1665.00
821.50	1609.70
821.67	1730.53
821.84	1656.81
822.02	1705.96
822.19	1773.54
822.36	1640.42
822.53	1710.05
822.70	1595.37
822.88	1662.95
823.05	1814.50
823.22	1677.29
823.39	1736.68
823.56	1710.05
823.74	1802.21
823.91	1609.70
824.08	1644.52
824.25	1609.70
824.42	1787.88
824.60	1636.33
824.77	1660.90
824.94	1687.53
825.11	1785.83
825.28	1538.02
825.45	1681.38
825.63	1683.43
825.80	1642.47
825.97	1710.05
826.14	1710.05
826.31	1697.77
826.48	1734.63
826.66	1632.23
826.83	1628.14
827.00	1671.14
827.17	1665.00
827.34	1609.70
827.51	1632.23
827.69	1662.95
827.86	1658.85
828.03	1705.96
828.20	1736.68
828.37	1671.14
828.54	1740.77
828.71	1705.96
828.89	1820.64
829.06	1697.77
829.23	1808.36
829.40	1574.89
829.57	1740.77
829.74	1703.91
829.91	1632.23
830.09	1718.25
830.26	1679.33
830.43	1802.21
830.60	1732.58
830.77	1779.68
830.94	1800.16
831.11	1705.96
831.28	1648.61
831.46	1781.73
831.63	1642.47
831.80	1740.77
831.97	1644.52
832.14	1687.53
832.31	1708.01
832.48	1685.48
832.65	1746.92
832.82	1640.42
832.99	1722.34
833.17	1630.18
833.34	1677.29
833.51	1703.91
833.68	1626.09
833.85	1757.16
834.02	1609.70
834.19	1658.85
834.36	1576.94
834.53	1662.95
834.70	1710.05
834.87	1697.77
835.04	1701.86
835.22	1714.15
835.39	1683.43
835.56	1599.46
835.73	1583.08
835.90	1654.76
836.07	1609.70
836.24	1685.48
836.41	1599.46
836.58	1542.12
836.75	1822.69
836.92	1714.15
837.09	1638.38
837.26	1734.63
837.43	1699.81
837.60	1671.14
837.77	1634.28
837.94	1681.38
838.12	1716.20
838.29	1738.73
838.46	1640.42
838.63	1673.19
838.80	1746.92
838.97	1732.58
839.14	1781.73
839.31	1675.24
839.48	1746.92
839.65	1642.47
839.82	1681.38
839.99	1691.62
840.16	1736.68
840.33	1716.20
840.50	1669.09
840.67	1689.57
840.84	1595.37
841.01	1734.63
841.18	1652.71
841.35	1603.56
841.52	1683.43
841.69	1789.92
841.86	1693.67
842.03	1679.33
842.20	1748.97
842.37	1605.61
842.54	1718.25
842.71	1667.05
842.88	1552.36
843.05	1714.15
843.22	1724.39
843.39	1720.29
843.56	1687.53
843.73	1683.43
843.90	1679.33
844.07	1679.33
844.24	1708.01
844.41	1775.59
844.58	1687.53
844.75	1685.48
844.92	1699.81
845.09	1722.34
845.26	1724.39
845.43	1693.67
845.60	1697.77
845.77	1730.53
845.94	1683.43
846.10	1732.58
846.27	1650.66
846.44	1609.70
846.61	1640.42
846.78	1722.34
846.95	1722.34
847.12	1726.44
847.29	1705.96
847.46	1708.01
847.63	1720.29
847.80	1718.25
847.97	1761.25
848.14	1736.68
848.31	1734.63
848.48	1636.33
848.65	1665.00
848.82	1679.33
848.98	1832.93
849.15	1738.73
849.32	1761.25
849.49	1697.77
849.66	1681.38
849.83	1718.25
850.00	1634.28
850.17	1671.14
850.34	1738.73
850.51	1689.57
850.68	1652.71
850.85	1888.23
851.01	1697.77
851.18	1687.53
851.35	1675.24
851.52	1681.38
851.69	1705.96
851.86	1615.85
852.03	1695.72
852.20	1738.73
852.37	1673.19
852.53	1615.85
852.70	1695.72
852.87	1665.00
853.04	1654.76
853.21	1646.57
853.38	1691.62
853.55	1820.64
853.72	1824.74
853.89	1677.29
854.05	1644.52
854.22	1705.96
854.39	1613.80
854.56	1763.30
854.73	1746.92
854.90	1642.47
855.07	1734.63
855.23	1761.25
855.40	1687.53
855.57	1789.92
855.74	1591.27
855.91	1880.04
856.08	1730.53
856.25	1636.33
856.41	1640.42
856.58	1628.14
856.75	1660.90
856.92	1677.29
857.09	1716.20
857.26	1660.90
857.42	1759.21
857.59	1681.38
857.76	1685.48
857.93	1755.11
858.10	1697.77
858.27	1662.95
858.43	1642.47
858.60	1669.09
858.77	1640.42
858.94	1648.61
859.11	1742.82
859.27	1718.25
859.44	1683.43
859.61	1738.73
859.78	1699.81
859.95	1683.43
860.12	1677.29
860.28	1769.44
860.45	1785.83
860.62	1738.73
860.79	1667.05
860.95	1669.09
861.12	1697.77
861.29	1669.09
861.46	1599.46
861.63	1630.18
861.79	1728.49
861.96	1650.66
862.13	1705.96
862.30	1781.73
862.47	1665.00
862.63	1589.22
862.80	1716.20
862.97	1679.33
863.14	1665.00
863.30	1650.66
863.47	1601.51
863.64	1744.87
863.81	1781.73
863.97	1660.90
864.14	1724.39
864.31	1697.77
864.48	1693.67
864.65	1716.20
864.81	1822.69
864.98	1652.71
865.15	1634.28
865.32	1722.34
865.48	1703.91
865.65	1734.63
865.82	1695.72
865.98	1671.14
866.15	1712.10
866.32	1693.67
866.49	1652.71
866.65	1818.60
866.82	1607.66
866.99	1654.76
867.16	1665.00
867.32	1691.62
867.49	1671.14
867.66	1619.94
867.83	1628.14
867.99	1605.61
868.16	1599.46
868.33	1642.47
868.49	1644.52
868.66	1681.38
868.83	1724.39
868.99	1665.00
869.16	1732.58
869.33	1763.30
869.50	1761.25
869.66	1669.09
869.83	1644.52
870.00	1677.29
870.16	1726.44
870.33	1638.38
870.50	1802.21
870.66	1746.92
870.83	1888.23
871.00	1660.90
871.17	1804.26
871.33	1789.92
871.50	1689.57
871.67	1677.29
871.83	1570.79
872.00	1849.32
872.17	1656.81
872.33	1822.69
872.50	1712.10
872.67	1626.09
872.83	1650.66
873.00	1660.90
873.17	1765.35
873.33	1744.87
873.50	1722.34
873.67	1679.33
873.83	1595.37
874.00	1705.96
874.16	1804.26
874.33	1726.44
874.50	1634.28
874.66	1703.91
874.83	1708.01
875.00	1755.11
875.16	1722.34
875.33	1800.16
875.50	1593.32
875.66	1619.94
875.83	1730.53
875.99	1716.20
876.16	1767.40
876.33	1581.03
876.49	1722.34
876.66	1667.05
876.83	1681.38
876.99	1554.41
877.16	1628.14
877.32	1615.85
877.49	1697.77
877.66	1720.29
877.82	1769.44
877.99	1638.38
878.15	1748.97
878.32	1748.97
878.49	1689.57
878.65	1613.80
878.82	1738.73
878.98	1738.73
879.15	1796.07
879.32	1775.59
879.48	1763.30
879.65	1626.09
879.81	1681.38
879.98	1675.24
880.15	1685.48
880.31	1640.42
880.48	1669.09
880.64	1720.29
880.81	1697.77
880.97	1814.50
881.14	1732.58
881.31	1640.42
881.47	1880.04
881.64	1656.81
881.80	1642.47
881.97	1675.24
882.13	1763.30
882.30	1648.61
882.47	1640.42
882.63	1648.61
882.80	1591.27
882.96	1679.33
883.13	1802.21
883.29	1685.48
883.46	1732.58
883.62	1818.60
883.79	1634.28
883.95	1728.49
884.12	1773.54
884.29	1755.11
884.45	1742.82
884.62	1746.92
884.78	1628.14
884.95	1791.97
885.11	1617.90
885.28	1685.48
885.44	1648.61
885.61	1652.71
885.77	1781.73
885.94	1720.29
886.10	1746.92
886.27	1732.58
886.43	1718.25
886.60	1820.64
886.76	1652.71
886.93	1626.09
887.09	1646.57
887.26	1716.20
887.42	1699.81
887.59	1705.96
887.75	1708.01
887.92	1769.44
888.08	1746.92
888.25	1710.05
888.41	1744.87
888.58	1708.01
888.74	1581.03
888.91	1677.29
>>>>>End Processed Spectral Data<<<<<
