SpectraSuite Data File
++++++++++++++++++++++++++++++++++++
Date: Mon Jun 06 16:02:37 CEST 2016
User: root
Dark Spectrum Present: No
Reference Spectrum Present: No
Number of Sampled Component Spectra: 1
Spectrometers: USB4C02835
Integration Time (usec): 100000 (USB4C02835)
Spectra Averaged: 1 (USB4C02835)
Boxcar Smoothing: 0 (USB4C02835)
Correct for Electrical Dark: No (USB4C02835)
Strobe/Lamp Enabled: No (USB4C02835)
Correct for Detector Non-linearity: No (USB4C02835)
Correct for Stray Light: No (USB4C02835)
Number of Pixels in Processed Spectrum: 3648
>>>>>Begin Processed Spectral Data<<<<<
177.47	1517.54
177.69	1517.54
177.91	1517.54
178.13	1468.39
178.36	1482.73
178.58	1648.61
178.80	1693.67
179.02	1673.19
179.24	1693.67
179.46	1728.49
179.68	1724.39
179.90	1703.91
180.13	1757.16
180.35	1691.62
180.57	1648.61
180.79	1771.49
181.01	1701.86
181.23	1791.97
181.45	1740.77
181.67	1763.30
181.90	1769.44
182.12	1642.47
182.34	1673.19
182.56	1708.01
182.78	1751.01
183.00	1669.09
183.22	1740.77
183.44	1556.46
183.66	1839.08
183.89	1736.68
184.11	1775.59
184.33	1779.68
184.55	1710.05
184.77	1777.64
184.99	1736.68
185.21	1673.19
185.43	1789.92
185.65	1714.15
185.87	1701.86
186.10	1830.88
186.32	1783.78
186.54	1673.19
186.76	1699.81
186.98	1804.26
187.20	1683.43
187.42	1640.42
187.64	1755.11
187.86	1767.40
188.08	1714.15
188.30	1601.51
188.52	1740.77
188.75	1755.11
188.97	1781.73
189.19	1677.29
189.41	1685.48
189.63	1769.44
189.85	1581.03
190.07	1642.47
190.29	1763.30
190.51	1656.81
190.73	1628.14
190.95	1818.60
191.17	1736.68
191.39	1632.23
191.61	1667.05
191.84	1630.18
192.06	1820.64
192.28	1593.32
192.50	1843.17
192.72	1683.43
192.94	1765.35
193.16	1839.08
193.38	1705.96
193.60	1626.09
193.82	1716.20
194.04	1734.63
194.26	1710.05
194.48	1779.68
194.70	1695.72
194.92	1714.15
195.14	1708.01
195.36	1695.72
195.58	1732.58
195.80	1693.67
196.02	1597.42
196.24	1685.48
196.46	1724.39
196.69	1724.39
196.91	1859.56
197.13	1730.53
197.35	1742.82
197.57	1810.40
197.79	1771.49
198.01	1775.59
198.23	1796.07
198.45	1763.30
198.67	1667.05
198.89	1710.05
199.11	1732.58
199.33	1677.29
199.55	1607.66
199.77	1730.53
199.99	1800.16
200.21	1697.77
200.43	1734.63
200.65	1718.25
200.87	1617.90
201.09	1732.58
201.31	1730.53
201.53	1755.11
201.75	1763.30
201.97	1712.10
202.19	1697.77
202.41	1726.44
202.63	1802.21
202.85	1742.82
203.07	1753.06
203.29	1744.87
203.51	1656.81
203.73	1777.64
203.95	1783.78
204.17	1718.25
204.39	1660.90
204.61	1736.68
204.83	1679.33
205.05	1767.40
205.27	1710.05
205.49	1806.31
205.71	1710.05
205.93	1595.37
206.15	1744.87
206.37	1716.20
206.59	1746.92
206.81	1636.33
207.03	1611.75
207.25	1624.04
207.47	1753.06
207.69	1746.92
207.91	1783.78
208.13	1812.45
208.34	1695.72
208.56	1615.85
208.78	1751.01
209.00	1687.53
209.22	1699.81
209.44	1708.01
209.66	1691.62
209.88	1650.66
210.10	1705.96
210.32	1617.90
210.54	1798.12
210.76	1646.57
210.98	1720.29
211.20	1607.66
211.42	1720.29
211.64	1820.64
211.86	1691.62
212.08	1748.97
212.30	1738.73
212.52	1732.58
212.74	1761.25
212.96	1607.66
213.17	1699.81
213.39	1734.63
213.61	1775.59
213.83	1771.49
214.05	1583.08
214.27	1742.82
214.49	1628.14
214.71	1611.75
214.93	1726.44
215.15	1724.39
215.37	1802.21
215.59	1624.04
215.81	1806.31
216.03	1818.60
216.24	1673.19
216.46	1716.20
216.68	1724.39
216.90	1759.21
217.12	1724.39
217.34	1730.53
217.56	1734.63
217.78	1816.55
218.00	1740.77
218.22	1677.29
218.44	1677.29
218.66	1740.77
218.87	1814.50
219.09	1652.71
219.31	1751.01
219.53	1693.67
219.75	1714.15
219.97	1693.67
220.19	1781.73
220.41	1714.15
220.63	1761.25
220.85	1738.73
221.06	1669.09
221.28	1767.40
221.50	1771.49
221.72	1693.67
221.94	1740.77
222.16	1785.83
222.38	1748.97
222.60	1834.98
222.82	1714.15
223.03	1734.63
223.25	1656.81
223.47	1779.68
223.69	1826.79
223.91	1712.10
224.13	1695.72
224.35	1740.77
224.57	1820.64
224.78	1796.07
225.00	1691.62
225.22	1650.66
225.44	1771.49
225.66	1730.53
225.88	1673.19
226.10	1763.30
226.32	1665.00
226.53	1798.12
226.75	1708.01
226.97	1716.20
227.19	1697.77
227.41	1732.58
227.63	1689.57
227.85	1718.25
228.06	1708.01
228.28	1714.15
228.50	1753.06
228.72	1546.22
228.94	1710.05
229.16	1665.00
229.37	1636.33
229.59	1714.15
229.81	1814.50
230.03	1644.52
230.25	1728.49
230.47	1601.51
230.69	1675.24
230.90	1757.16
231.12	1605.61
231.34	1710.05
231.56	1755.11
231.78	1619.94
232.00	1738.73
232.21	1656.81
232.43	1683.43
232.65	1640.42
232.87	1716.20
233.09	1712.10
233.30	1628.14
233.52	1748.97
233.74	1773.54
233.96	1634.28
234.18	1744.87
234.40	1638.38
234.61	1804.26
234.83	1665.00
235.05	1585.13
235.27	1828.84
235.49	1828.84
235.70	1697.77
235.92	1798.12
236.14	1771.49
236.36	1787.88
236.58	1583.08
236.79	1726.44
237.01	1705.96
237.23	1689.57
237.45	1777.64
237.67	1716.20
237.88	1675.24
238.10	1871.84
238.32	1685.48
238.54	1691.62
238.76	1656.81
238.97	1712.10
239.19	1673.19
239.41	1767.40
239.63	1734.63
239.85	1744.87
240.06	1671.14
240.28	1679.33
240.50	1787.88
240.72	1744.87
240.93	1644.52
241.15	1724.39
241.37	1773.54
241.59	1855.46
241.81	1697.77
242.02	1662.95
242.24	1734.63
242.46	1685.48
242.68	1726.44
242.89	1705.96
243.11	1759.21
243.33	1740.77
243.55	1720.29
243.76	1777.64
243.98	1677.29
244.20	1714.15
244.42	1644.52
244.64	1748.97
244.85	1648.61
245.07	1714.15
245.29	1767.40
245.51	1730.53
245.72	1730.53
245.94	1687.53
246.16	1669.09
246.38	1732.58
246.59	1679.33
246.81	1632.23
247.03	1695.72
247.24	1609.70
247.46	1654.76
247.68	1740.77
247.90	1722.34
248.11	1703.91
248.33	1755.11
248.55	1740.77
248.77	1689.57
248.98	1759.21
249.20	1771.49
249.42	1701.86
249.64	1734.63
249.85	1724.39
250.07	1615.85
250.29	1712.10
250.50	1675.24
250.72	1673.19
250.94	1724.39
251.16	1863.65
251.37	1794.02
251.59	1759.21
251.81	1773.54
252.02	1794.02
252.24	1683.43
252.46	1771.49
252.68	1658.85
252.89	1722.34
253.11	1630.18
253.33	1861.60
253.54	1804.26
253.76	1689.57
253.98	1695.72
254.20	1718.25
254.41	1630.18
254.63	1748.97
254.85	1646.57
255.06	1748.97
255.28	1775.59
255.50	1710.05
255.71	1701.86
255.93	1644.52
256.15	1685.48
256.36	1804.26
256.58	1654.76
256.80	1681.38
257.02	1695.72
257.23	1701.86
257.45	1724.39
257.67	1834.98
257.88	1691.62
258.10	1714.15
258.32	1693.67
258.53	1718.25
258.75	1824.74
258.97	1744.87
259.18	1773.54
259.40	1716.20
259.62	1810.40
259.83	1830.88
260.05	1742.82
260.27	1996.77
260.48	1769.44
260.70	1656.81
260.92	1697.77
261.13	1695.72
261.35	1689.57
261.57	1724.39
261.78	1695.72
262.00	1716.20
262.22	1673.19
262.43	1730.53
262.65	1677.29
262.86	1689.57
263.08	1890.28
263.30	1748.97
263.51	1632.23
263.73	1628.14
263.95	1875.94
264.16	1794.02
264.38	1673.19
264.60	1697.77
264.81	1705.96
265.03	1697.77
265.25	1877.99
265.46	1767.40
265.68	1794.02
265.89	1720.29
266.11	1587.18
266.33	1755.11
266.54	1738.73
266.76	1734.63
266.98	1777.64
267.19	1769.44
267.41	1777.64
267.62	1681.38
267.84	1697.77
268.06	1757.16
268.27	1755.11
268.49	1804.26
268.70	1724.39
268.92	1765.35
269.14	1714.15
269.35	1601.51
269.57	1714.15
269.79	1789.92
270.00	1701.86
270.22	1802.21
270.43	1665.00
270.65	1607.66
270.87	1732.58
271.08	1714.15
271.30	1699.81
271.51	1689.57
271.73	1763.30
271.95	1769.44
272.16	1671.14
272.38	1738.73
272.59	1697.77
272.81	1730.53
273.02	1742.82
273.24	1812.45
273.46	1730.53
273.67	1708.01
273.89	1634.28
274.10	1671.14
274.32	1877.99
274.54	1751.01
274.75	1689.57
274.97	1697.77
275.18	1785.83
275.40	1746.92
275.61	1687.53
275.83	1755.11
276.05	1689.57
276.26	1789.92
276.48	1738.73
276.69	1697.77
276.91	1697.77
277.12	1787.88
277.34	1787.88
277.55	1798.12
277.77	1771.49
277.99	1720.29
278.20	1671.14
278.42	1705.96
278.63	1654.76
278.85	1626.09
279.06	1652.71
279.28	1751.01
279.49	1804.26
279.71	1769.44
279.93	1761.25
280.14	1722.34
280.36	1648.61
280.57	1839.08
280.79	1763.30
281.00	1687.53
281.22	1677.29
281.43	1834.98
281.65	1644.52
281.86	1716.20
282.08	1720.29
282.29	1865.70
282.51	1693.67
282.73	1619.94
282.94	1597.42
283.16	1710.05
283.37	1740.77
283.59	1757.16
283.80	1791.97
284.02	1714.15
284.23	1736.68
284.45	1656.81
284.66	1662.95
284.88	1787.88
285.09	1667.05
285.31	1718.25
285.52	1718.25
285.74	1652.71
285.95	1802.21
286.17	1726.44
286.38	1787.88
286.60	1695.72
286.81	1617.90
287.03	1665.00
287.24	1724.39
287.46	1748.97
287.67	1691.62
287.89	1808.36
288.10	1763.30
288.32	1775.59
288.53	1806.31
288.75	1734.63
288.96	1699.81
289.18	1601.51
289.39	1771.49
289.61	1732.58
289.82	1814.50
290.04	1779.68
290.25	1667.05
290.47	1708.01
290.68	1710.05
290.90	1656.81
291.11	1671.14
291.33	1748.97
291.54	1587.18
291.76	1634.28
291.97	1695.72
292.18	1744.87
292.40	1658.85
292.61	1720.29
292.83	1851.36
293.04	1802.21
293.26	1798.12
293.47	1718.25
293.69	1636.33
293.90	1677.29
294.12	1826.79
294.33	1728.49
294.55	1714.15
294.76	1748.97
294.97	1779.68
295.19	1834.98
295.40	1697.77
295.62	1722.34
295.83	1787.88
296.05	1677.29
296.26	1791.97
296.48	1775.59
296.69	1720.29
296.90	1673.19
297.12	1691.62
297.33	1775.59
297.55	1785.83
297.76	1779.68
297.98	1734.63
298.19	1791.97
298.41	1796.07
298.62	1634.28
298.83	1804.26
299.05	1720.29
299.26	1708.01
299.48	1660.90
299.69	1693.67
299.90	1726.44
300.12	1617.90
300.33	1755.11
300.55	1679.33
300.76	1765.35
300.98	1656.81
301.19	1839.08
301.40	1708.01
301.62	1730.53
301.83	1722.34
302.05	1755.11
302.26	1656.81
302.47	1738.73
302.69	1603.56
302.90	1767.40
303.12	1644.52
303.33	1751.01
303.54	1785.83
303.76	1730.53
303.97	1734.63
304.19	1767.40
304.40	1660.90
304.61	1765.35
304.83	1824.74
305.04	1783.78
305.26	1746.92
305.47	1662.95
305.68	1742.82
305.90	1697.77
306.11	1714.15
306.33	1665.00
306.54	1703.91
306.75	1640.42
306.97	1603.56
307.18	1632.23
307.39	1669.09
307.61	1820.64
307.82	1689.57
308.04	1787.88
308.25	1638.38
308.46	1720.29
308.68	1691.62
308.89	1689.57
309.10	1843.17
309.32	1701.86
309.53	1730.53
309.74	1708.01
309.96	1710.05
310.17	1755.11
310.39	1701.86
310.60	1746.92
310.81	1753.06
311.03	1701.86
311.24	1712.10
311.45	1736.68
311.67	1773.54
311.88	1748.97
312.09	1673.19
312.31	1601.51
312.52	1722.34
312.73	1742.82
312.95	1665.00
313.16	1703.91
313.37	1789.92
313.59	1804.26
313.80	1726.44
314.01	1851.36
314.23	1746.92
314.44	1738.73
314.65	1632.23
314.87	1621.99
315.08	1673.19
315.29	1693.67
315.51	1695.72
315.72	1638.38
315.93	1810.40
316.15	1705.96
316.36	1665.00
316.57	1697.77
316.79	1726.44
317.00	1703.91
317.21	1769.44
317.43	1689.57
317.64	1734.63
317.85	1632.23
318.07	1644.52
318.28	1734.63
318.49	1859.56
318.70	1914.85
318.92	1822.69
319.13	1783.78
319.34	1886.18
319.56	1697.77
319.77	1855.46
319.98	1806.31
320.20	1812.45
320.41	1777.64
320.62	1785.83
320.83	1714.15
321.05	1837.03
321.26	1712.10
321.47	1841.12
321.69	1720.29
321.90	1687.53
322.11	1736.68
322.32	1689.57
322.54	1843.17
322.75	1724.39
322.96	1871.84
323.18	1658.85
323.39	1583.08
323.60	1607.66
323.81	1748.97
324.03	1630.18
324.24	1665.00
324.45	1748.97
324.66	1691.62
324.88	1822.69
325.09	1783.78
325.30	1748.97
325.52	1667.05
325.73	1777.64
325.94	1669.09
326.15	1626.09
326.37	1738.73
326.58	1738.73
326.79	1841.12
327.00	1677.29
327.22	1722.34
327.43	1656.81
327.64	1777.64
327.85	1736.68
328.07	1769.44
328.28	1818.60
328.49	1705.96
328.70	1683.43
328.92	1716.20
329.13	1685.48
329.34	1697.77
329.55	1796.07
329.76	1724.39
329.98	1695.72
330.19	1804.26
330.40	1814.50
330.61	1640.42
330.83	1765.35
331.04	1640.42
331.25	1728.49
331.46	1669.09
331.68	1671.14
331.89	1755.11
332.10	1730.53
332.31	1624.04
332.52	1697.77
332.74	1912.80
332.95	1683.43
333.16	1652.71
333.37	1703.91
333.58	1742.82
333.80	1714.15
334.01	1617.90
334.22	1587.18
334.43	1652.71
334.64	1679.33
334.86	1673.19
335.07	1701.86
335.28	1763.30
335.49	1611.75
335.70	1705.96
335.92	1728.49
336.13	1939.43
336.34	1740.77
336.55	1681.38
336.76	1720.29
336.98	1591.27
337.19	1716.20
337.40	1789.92
337.61	1843.17
337.82	1683.43
338.04	1628.14
338.25	1681.38
338.46	1667.05
338.67	1634.28
338.88	1718.25
339.09	1656.81
339.31	1763.30
339.52	1603.56
339.73	1658.85
339.94	1722.34
340.15	1822.69
340.36	1673.19
340.58	1716.20
340.79	1677.29
341.00	1724.39
341.21	1691.62
341.42	1783.78
341.63	1730.53
341.85	1765.35
342.06	1693.67
342.27	1677.29
342.48	1757.16
342.69	1615.85
342.90	1669.09
343.12	1751.01
343.33	1693.67
343.54	1771.49
343.75	1806.31
343.96	1624.04
344.17	1609.70
344.38	1738.73
344.60	1656.81
344.81	1613.80
345.02	1732.58
345.23	1759.21
345.44	1759.21
345.65	1710.05
345.86	1703.91
346.07	1714.15
346.29	1660.90
346.50	1691.62
346.71	1689.57
346.92	1761.25
347.13	1839.08
347.34	1791.97
347.55	1701.86
347.76	1718.25
347.98	1771.49
348.19	1617.90
348.40	1796.07
348.61	1695.72
348.82	1738.73
349.03	1755.11
349.24	1630.18
349.45	1794.02
349.66	1597.42
349.88	1671.14
350.09	1652.71
350.30	1779.68
350.51	1722.34
350.72	1716.20
350.93	1701.86
351.14	1652.71
351.35	1816.55
351.56	1693.67
351.77	1810.40
351.99	1683.43
352.20	1812.45
352.41	1812.45
352.62	1605.61
352.83	1699.81
353.04	1689.57
353.25	1718.25
353.46	1789.92
353.67	1708.01
353.88	1593.32
354.09	1685.48
354.30	1769.44
354.52	1781.73
354.73	1751.01
354.94	1693.67
355.15	1710.05
355.36	1857.51
355.57	1634.28
355.78	1787.88
355.99	1652.71
356.20	1689.57
356.41	1830.88
356.62	1675.24
356.83	1726.44
357.04	1841.12
357.25	1624.04
357.46	1660.90
357.68	1628.14
357.89	1687.53
358.10	1728.49
358.31	1671.14
358.52	1734.63
358.73	1689.57
358.94	1714.15
359.15	1679.33
359.36	1753.06
359.57	1759.21
359.78	1673.19
359.99	1693.67
360.20	1667.05
360.41	1665.00
360.62	1765.35
360.83	1742.82
361.04	1779.68
361.25	1677.29
361.46	1806.31
361.67	1742.82
361.88	1736.68
362.09	1765.35
362.30	1746.92
362.51	1763.30
362.72	1714.15
362.93	1744.87
363.14	1771.49
363.35	1640.42
363.56	1679.33
363.78	1738.73
363.99	1769.44
364.20	1667.05
364.41	1744.87
364.62	1865.70
364.83	1712.10
365.04	1757.16
365.25	1710.05
365.46	1898.47
365.67	1656.81
365.88	1615.85
366.09	1652.71
366.30	1583.08
366.51	1767.40
366.72	1716.20
366.93	1697.77
367.14	1757.16
367.35	1783.78
367.56	1697.77
367.77	1863.65
367.98	1730.53
368.18	1759.21
368.39	1787.88
368.60	1665.00
368.81	1757.16
369.02	1726.44
369.23	1794.02
369.44	1634.28
369.65	1662.95
369.86	1638.38
370.07	1775.59
370.28	1658.85
370.49	1744.87
370.70	1730.53
370.91	1656.81
371.12	1646.57
371.33	1744.87
371.54	1665.00
371.75	1781.73
371.96	1568.74
372.17	1693.67
372.38	1718.25
372.59	1779.68
372.80	1673.19
373.01	1683.43
373.22	1697.77
373.43	1689.57
373.64	1681.38
373.85	1767.40
374.06	1781.73
374.26	1814.50
374.47	1669.09
374.68	1816.55
374.89	1669.09
375.10	1650.66
375.31	1742.82
375.52	1738.73
375.73	1701.86
375.94	1718.25
376.15	1777.64
376.36	1691.62
376.57	1673.19
376.78	1656.81
376.99	1722.34
377.20	1708.01
377.40	1648.61
377.61	1873.89
377.82	1652.71
378.03	1837.03
378.24	1695.72
378.45	1687.53
378.66	1583.08
378.87	1552.36
379.08	1673.19
379.29	1718.25
379.50	1775.59
379.71	1687.53
379.91	1761.25
380.12	1679.33
380.33	1730.53
380.54	1724.39
380.75	1662.95
380.96	1656.81
381.17	1701.86
381.38	1761.25
381.59	1783.78
381.80	1757.16
382.00	1861.60
382.21	1771.49
382.42	1853.41
382.63	1900.52
382.84	1808.36
383.05	1830.88
383.26	1828.84
383.47	1785.83
383.68	1783.78
383.88	1798.12
384.09	1689.57
384.30	1794.02
384.51	1734.63
384.72	1656.81
384.93	1636.33
385.14	1669.09
385.35	1826.79
385.55	1607.66
385.76	1841.12
385.97	1740.77
386.18	1710.05
386.39	1675.24
386.60	1730.53
386.81	1726.44
387.02	1683.43
387.22	1607.66
387.43	1740.77
387.64	1804.26
387.85	1814.50
388.06	2238.43
388.27	4265.92
388.48	6659.99
388.68	8007.56
388.89	9508.72
389.10	9535.34
389.31	8433.54
389.52	7239.57
389.73	6684.57
389.93	6156.19
390.14	5879.72
390.35	5126.07
390.56	4503.48
390.77	3739.59
390.98	2985.94
391.18	2441.18
391.39	2164.70
391.60	1845.22
391.81	1839.08
392.02	1701.86
392.23	1796.07
392.43	1806.31
392.64	1804.26
392.85	1740.77
393.06	1847.27
393.27	1697.77
393.47	1716.20
393.68	1757.16
393.89	1701.86
394.10	1798.12
394.31	1751.01
394.52	1636.33
394.72	1699.81
394.93	1769.44
395.14	1607.66
395.35	1789.92
395.56	1701.86
395.76	1726.44
395.97	1802.21
396.18	1837.03
396.39	1832.93
396.60	2066.40
396.80	1865.70
397.01	1830.88
397.22	1865.70
397.43	1853.41
397.64	1742.82
397.84	1767.40
398.05	1845.22
398.26	1722.34
398.47	1763.30
398.67	1843.17
398.88	1757.16
399.09	1834.98
399.30	1705.96
399.51	1716.20
399.71	1726.44
399.92	1765.35
400.13	1742.82
400.34	1564.65
400.54	1677.29
400.75	1757.16
400.96	1720.29
401.17	1755.11
401.37	1734.63
401.58	1665.00
401.79	1742.82
402.00	1959.91
402.21	2029.54
402.41	1980.39
402.62	2004.96
402.83	2043.87
403.04	1982.43
403.24	2105.31
403.45	1841.12
403.66	1966.05
403.87	1898.47
404.07	1912.80
404.28	1865.70
404.49	1826.79
404.70	1855.46
404.90	1767.40
405.11	1736.68
405.32	1755.11
405.52	1648.61
405.73	1667.05
405.94	1722.34
406.15	1673.19
406.35	1777.64
406.56	1845.22
406.77	1720.29
406.98	1759.21
407.18	1660.90
407.39	1785.83
407.60	1693.67
407.80	1742.82
408.01	1665.00
408.22	1781.73
408.43	1667.05
408.63	1732.58
408.84	1689.57
409.05	1746.92
409.25	1681.38
409.46	1708.01
409.67	1714.15
409.88	1705.96
410.08	1761.25
410.29	1734.63
410.50	1748.97
410.70	1763.30
410.91	1722.34
411.12	1763.30
411.32	1746.92
411.53	1808.36
411.74	1787.88
411.95	1730.53
412.15	1806.31
412.36	1693.67
412.57	1716.20
412.77	1806.31
412.98	1742.82
413.19	1757.16
413.39	1785.83
413.60	1763.30
413.81	1783.78
414.01	1621.99
414.22	1816.55
414.43	1730.53
414.63	1712.10
414.84	1710.05
415.05	1716.20
415.25	1652.71
415.46	1738.73
415.67	1656.81
415.87	1679.33
416.08	1712.10
416.29	1693.67
416.49	1697.77
416.70	1710.05
416.91	1665.00
417.11	1673.19
417.32	1785.83
417.53	1769.44
417.73	1693.67
417.94	1753.06
418.15	1691.62
418.35	1687.53
418.56	1710.05
418.77	1865.70
418.97	1757.16
419.18	1695.72
419.38	1587.18
419.59	1703.91
419.80	1779.68
420.00	1720.29
420.21	1744.87
420.42	1787.88
420.62	1724.39
420.83	1679.33
421.04	1724.39
421.24	1693.67
421.45	1765.35
421.65	1761.25
421.86	1705.96
422.07	1712.10
422.27	1677.29
422.48	1746.92
422.69	1691.62
422.89	1705.96
423.10	1683.43
423.30	1646.57
423.51	1779.68
423.72	1708.01
423.92	1791.97
424.13	1638.38
424.33	1652.71
424.54	1738.73
424.75	1695.72
424.95	1816.55
425.16	1742.82
425.36	1689.57
425.57	1763.30
425.78	1773.54
425.98	1773.54
426.19	1681.38
426.39	1757.16
426.60	1697.77
426.81	1730.53
427.01	1708.01
427.22	1636.33
427.42	1705.96
427.63	1646.57
427.83	1755.11
428.04	1757.16
428.25	1789.92
428.45	1765.35
428.66	1687.53
428.86	1710.05
429.07	1697.77
429.28	1765.35
429.48	1691.62
429.69	1771.49
429.89	1718.25
430.10	1660.90
430.30	1722.34
430.51	1822.69
430.71	1693.67
430.92	1703.91
431.13	1697.77
431.33	1773.54
431.54	1730.53
431.74	1824.74
431.95	1861.60
432.15	1697.77
432.36	1714.15
432.56	1832.93
432.77	1775.59
432.98	1818.60
433.18	1742.82
433.39	1767.40
433.59	1701.86
433.80	1816.55
434.00	1890.28
434.21	1705.96
434.41	1685.48
434.62	1900.52
434.82	1681.38
435.03	1687.53
435.23	1796.07
435.44	1658.85
435.64	1742.82
435.85	1732.58
436.06	1738.73
436.26	1798.12
436.47	1738.73
436.67	1621.99
436.88	1708.01
437.08	1746.92
437.29	1777.64
437.49	1757.16
437.70	1796.07
437.90	1779.68
438.11	1837.03
438.31	1730.53
438.52	1802.21
438.72	1851.36
438.93	1939.43
439.13	1773.54
439.34	1871.84
439.54	1763.30
439.75	1861.60
439.95	1773.54
440.16	1708.01
440.36	1812.45
440.57	1841.12
440.77	1746.92
440.98	1808.36
441.18	1722.34
441.39	1746.92
441.59	1742.82
441.80	1834.98
442.00	1820.64
442.21	1771.49
442.41	1740.77
442.62	1722.34
442.82	1654.76
443.02	1728.49
443.23	1755.11
443.43	1714.15
443.64	1824.74
443.84	1685.48
444.05	1843.17
444.25	1703.91
444.46	1708.01
444.66	1714.15
444.87	1851.36
445.07	1710.05
445.28	1650.66
445.48	1759.21
445.69	1806.31
445.89	1871.84
446.09	1724.39
446.30	2090.98
446.50	2656.22
446.71	3620.81
446.91	4409.28
447.12	4601.79
447.32	4816.82
447.53	4241.34
447.73	3817.41
447.93	3583.95
448.14	3338.19
448.34	3104.72
448.55	2877.40
448.75	2877.40
448.96	2740.18
449.16	2437.08
449.36	2312.16
449.57	2138.08
449.77	1953.76
449.98	1742.82
450.18	1783.78
450.39	1830.88
450.59	1849.32
450.79	1773.54
451.00	1734.63
451.20	1804.26
451.41	1765.35
451.61	1746.92
451.81	1769.44
452.02	1673.19
452.22	1748.97
452.43	1671.14
452.63	1734.63
452.84	1779.68
453.04	1755.11
453.24	1763.30
453.45	1736.68
453.65	1751.01
453.86	1783.78
454.06	1773.54
454.26	1710.05
454.47	1646.57
454.67	1771.49
454.87	1763.30
455.08	1734.63
455.28	1826.79
455.49	1798.12
455.69	1732.58
455.89	1837.03
456.10	1863.65
456.30	1771.49
456.51	1796.07
456.71	1742.82
456.91	1828.84
457.12	1818.60
457.32	1748.97
457.52	1734.63
457.73	1759.21
457.93	1755.11
458.14	1722.34
458.34	1609.70
458.54	1724.39
458.75	1726.44
458.95	1851.36
459.15	1787.88
459.36	1800.16
459.56	1798.12
459.76	1857.51
459.97	1755.11
460.17	1724.39
460.37	1806.31
460.58	1798.12
460.78	1820.64
460.99	1669.09
461.19	1736.68
461.39	1660.90
461.60	1681.38
461.80	1742.82
462.00	1646.57
462.21	1660.90
462.41	1718.25
462.61	1679.33
462.82	1617.90
463.02	1744.87
463.22	1699.81
463.43	1804.26
463.63	1646.57
463.83	1841.12
464.04	1740.77
464.24	1767.40
464.44	1755.11
464.64	1665.00
464.85	1738.73
465.05	1771.49
465.25	1789.92
465.46	1726.44
465.66	1822.69
465.86	1845.22
466.07	1724.39
466.27	1689.57
466.47	1681.38
466.68	1677.29
466.88	1781.73
467.08	1783.78
467.29	1791.97
467.49	1798.12
467.69	1718.25
467.89	1701.86
468.10	1736.68
468.30	1822.69
468.50	1824.74
468.71	1767.40
468.91	1603.56
469.11	1877.99
469.31	1740.77
469.52	1658.85
469.72	1796.07
469.92	1863.65
470.13	1771.49
470.33	1742.82
470.53	1798.12
470.73	2064.35
470.94	2248.67
471.14	2287.58
471.34	2531.29
471.54	2469.85
471.75	2299.87
471.95	2150.37
472.15	2113.50
472.36	2064.35
472.56	2045.92
472.76	2074.59
472.96	2029.54
473.17	2004.96
473.37	1945.57
473.57	1761.25
473.77	1796.07
473.98	1728.49
474.18	1757.16
474.38	1880.04
474.58	1652.71
474.79	1699.81
474.99	1818.60
475.19	1761.25
475.39	1708.01
475.60	1775.59
475.80	1714.15
476.00	1652.71
476.20	1648.61
476.41	1689.57
476.61	1843.17
476.81	1814.50
477.01	1722.34
477.21	1857.51
477.42	1824.74
477.62	1705.96
477.82	1722.34
478.02	1740.77
478.23	1718.25
478.43	1699.81
478.63	1650.66
478.83	1759.21
479.03	1697.77
479.24	1812.45
479.44	1845.22
479.64	1652.71
479.84	1642.47
480.04	1697.77
480.25	1839.08
480.45	1658.85
480.65	1701.86
480.85	1810.40
481.06	1765.35
481.26	1734.63
481.46	1877.99
481.66	1777.64
481.86	1665.00
482.06	1847.27
482.27	1726.44
482.47	1703.91
482.67	1779.68
482.87	1703.91
483.07	1685.48
483.28	1716.20
483.48	1632.23
483.68	1769.44
483.88	1681.38
484.08	1646.57
484.29	1677.29
484.49	1740.77
484.69	1611.75
484.89	1798.12
485.09	1734.63
485.29	1781.73
485.50	1740.77
485.70	1681.38
485.90	1853.41
486.10	1761.25
486.30	1708.01
486.50	1751.01
486.71	1685.48
486.91	1822.69
487.11	1736.68
487.31	1634.28
487.51	1767.40
487.71	1642.47
487.91	1691.62
488.12	1654.76
488.32	1673.19
488.52	1705.96
488.72	1662.95
488.92	1830.88
489.12	1828.84
489.32	1867.75
489.53	1753.06
489.73	1564.65
489.93	1853.41
490.13	1669.09
490.33	1656.81
490.53	1802.21
490.73	1730.53
490.94	1601.51
491.14	1808.36
491.34	1865.70
491.54	2152.42
491.74	2541.53
491.94	2944.98
492.14	3004.37
492.34	2979.79
492.54	2789.33
492.75	2451.42
492.95	2435.03
493.15	2312.16
493.35	2244.57
493.55	2207.71
493.75	2140.13
493.95	2117.60
494.15	2004.96
494.35	1970.15
494.56	1861.60
494.76	1748.97
494.96	1826.79
495.16	1734.63
495.36	1746.92
495.56	1761.25
495.76	1732.58
495.96	1687.53
496.16	1734.63
496.36	1816.55
496.56	1767.40
496.77	1834.98
496.97	1689.57
497.17	1775.59
497.37	1693.67
497.57	1808.36
497.77	1701.86
497.97	1636.33
498.17	1726.44
498.37	1701.86
498.57	1773.54
498.77	1677.29
498.97	1816.55
499.17	1738.73
499.38	1691.62
499.58	1773.54
499.78	1751.01
499.98	1759.21
500.18	1710.05
500.38	1744.87
500.58	1937.38
500.78	2562.01
500.98	4589.50
501.18	5623.72
501.38	6766.49
501.58	7045.01
501.78	6518.68
501.98	5466.03
502.18	4927.41
502.38	4304.83
502.58	4163.52
502.78	3696.58
502.98	3651.53
503.18	3518.41
503.38	3225.55
503.59	2842.58
503.79	2596.82
503.99	2500.57
504.19	2248.67
504.39	2172.89
504.59	2228.19
504.79	2117.60
504.99	2019.30
505.19	1830.88
505.39	1894.37
505.59	2103.26
505.79	1980.39
505.99	1855.46
506.19	1787.88
506.39	1941.47
506.59	1765.35
506.79	1812.45
506.99	1779.68
507.19	1867.75
507.39	1718.25
507.59	1687.53
507.79	1714.15
507.99	1714.15
508.19	1710.05
508.39	1738.73
508.59	1718.25
508.79	1837.03
508.99	1802.21
509.19	1687.53
509.39	1859.56
509.59	1751.01
509.79	1691.62
509.99	1705.96
510.19	1832.93
510.39	1853.41
510.59	1744.87
510.79	1738.73
510.99	1679.33
511.19	1763.30
511.39	1796.07
511.59	1812.45
511.79	1806.31
511.99	1654.76
512.19	1751.01
512.38	1798.12
512.58	1671.14
512.78	1703.91
512.98	1812.45
513.18	1865.70
513.38	1710.05
513.58	1902.56
513.78	1785.83
513.98	1710.05
514.18	1593.32
514.38	1761.25
514.58	1667.05
514.78	1689.57
514.98	1679.33
515.18	1785.83
515.38	1687.53
515.58	1779.68
515.78	1708.01
515.98	1703.91
516.18	1755.11
516.38	1740.77
516.57	1695.72
516.77	1761.25
516.97	1771.49
517.17	1624.04
517.37	1632.23
517.57	1822.69
517.77	1695.72
517.97	1740.77
518.17	1683.43
518.37	1722.34
518.57	1779.68
518.77	1683.43
518.97	1734.63
519.16	1734.63
519.36	1812.45
519.56	1701.86
519.76	1722.34
519.96	1787.88
520.16	1781.73
520.36	1683.43
520.56	1806.31
520.76	1624.04
520.96	1800.16
521.16	1851.36
521.35	1761.25
521.55	1828.84
521.75	1781.73
521.95	1685.48
522.15	1812.45
522.35	1628.14
522.55	1783.78
522.75	1777.64
522.95	1646.57
523.14	1695.72
523.34	1779.68
523.54	1736.68
523.74	1720.29
523.94	1783.78
524.14	1646.57
524.34	1742.82
524.54	1845.22
524.73	1722.34
524.93	1767.40
525.13	1755.11
525.33	1691.62
525.53	1896.42
525.73	1822.69
525.93	1746.92
526.13	1601.51
526.32	1742.82
526.52	1751.01
526.72	1738.73
526.92	1751.01
527.12	1779.68
527.32	1744.87
527.52	1818.60
527.71	1798.12
527.91	1767.40
528.11	1687.53
528.31	1806.31
528.51	1785.83
528.71	1738.73
528.90	1759.21
529.10	1830.88
529.30	1820.64
529.50	1634.28
529.70	1834.98
529.90	1779.68
530.09	1673.19
530.29	1665.00
530.49	1675.24
530.69	1853.41
530.89	1685.48
531.09	1826.79
531.28	1738.73
531.48	1853.41
531.68	1767.40
531.88	1789.92
532.08	1814.50
532.28	1732.58
532.47	1810.40
532.67	1734.63
532.87	1736.68
533.07	1755.11
533.27	1843.17
533.46	1771.49
533.66	1800.16
533.86	1812.45
534.06	1777.64
534.26	1775.59
534.45	1665.00
534.65	1701.86
534.85	1644.52
535.05	1665.00
535.25	1783.78
535.44	1683.43
535.64	1794.02
535.84	1693.67
536.04	1761.25
536.24	1796.07
536.43	1789.92
536.63	1759.21
536.83	1681.38
537.03	1802.21
537.22	1585.13
537.42	1742.82
537.62	1714.15
537.82	1736.68
538.02	1810.40
538.21	1789.92
538.41	1902.56
538.61	1787.88
538.81	1753.06
539.00	1822.69
539.20	1656.81
539.40	1755.11
539.60	1730.53
539.79	1818.60
539.99	1804.26
540.19	1732.58
540.39	1740.77
540.58	1734.63
540.78	1755.11
540.98	1767.40
541.18	1781.73
541.37	1783.78
541.57	1783.78
541.77	1765.35
541.97	1607.66
542.16	1673.19
542.36	1701.86
542.56	1791.97
542.76	1843.17
542.95	1855.46
543.15	1697.77
543.35	1777.64
543.54	1785.83
543.74	1724.39
543.94	1763.30
544.14	1712.10
544.33	1814.50
544.53	1742.82
544.73	1746.92
544.93	1761.25
545.12	1755.11
545.32	1734.63
545.52	1697.77
545.71	1658.85
545.91	1687.53
546.11	1748.97
546.30	1650.66
546.50	1746.92
546.70	1849.32
546.90	1789.92
547.09	1667.05
547.29	1738.73
547.49	1759.21
547.68	1691.62
547.88	1761.25
548.08	1816.55
548.27	2199.52
548.47	1708.01
548.67	1685.48
548.87	1769.44
549.06	1705.96
549.26	1755.11
549.46	1693.67
549.65	1734.63
549.85	1820.64
550.05	1777.64
550.24	1714.15
550.44	1804.26
550.64	1751.01
550.83	1757.16
551.03	1789.92
551.23	1828.84
551.42	1796.07
551.62	1775.59
551.82	1746.92
552.01	1720.29
552.21	1824.74
552.41	1816.55
552.60	1853.41
552.80	1802.21
553.00	1689.57
553.19	1748.97
553.39	1828.84
553.59	1705.96
553.78	1681.38
553.98	1808.36
554.17	1775.59
554.37	1794.02
554.57	1759.21
554.76	1705.96
554.96	1644.52
555.16	1800.16
555.35	1701.86
555.55	1816.55
555.75	1689.57
555.94	1771.49
556.14	1656.81
556.33	1818.60
556.53	1746.92
556.73	1794.02
556.92	1736.68
557.12	1861.60
557.32	1982.43
557.51	1914.85
557.71	1724.39
557.90	1812.45
558.10	1859.56
558.30	1802.21
558.49	1732.58
558.69	1732.58
558.88	1789.92
559.08	1720.29
559.28	1757.16
559.47	1753.06
559.67	1810.40
559.86	1900.52
560.06	1767.40
560.26	1718.25
560.45	1865.70
560.65	1691.62
560.84	1746.92
561.04	1724.39
561.24	1761.25
561.43	1705.96
561.63	1759.21
561.82	1773.54
562.02	1826.79
562.22	1701.86
562.41	1630.18
562.61	1759.21
562.80	1708.01
563.00	1970.15
563.19	1814.50
563.39	1722.34
563.59	1691.62
563.78	1662.95
563.98	1646.57
564.17	1755.11
564.37	1669.09
564.56	1738.73
564.76	1771.49
564.96	1814.50
565.15	1777.64
565.35	1880.04
565.54	1746.92
565.74	1783.78
565.93	1806.31
566.13	1791.97
566.32	1732.58
566.52	1751.01
566.71	1730.53
566.91	1755.11
567.11	1730.53
567.30	1789.92
567.50	1789.92
567.69	1765.35
567.89	1812.45
568.08	1710.05
568.28	1783.78
568.47	1738.73
568.67	1841.12
568.86	1667.05
569.06	1816.55
569.25	1763.30
569.45	1796.07
569.64	1658.85
569.84	1740.77
570.04	1710.05
570.23	1740.77
570.43	1740.77
570.62	1753.06
570.82	1806.31
571.01	1607.66
571.21	1646.57
571.40	1748.97
571.60	1736.68
571.79	1738.73
571.99	1808.36
572.18	1703.91
572.38	1791.97
572.57	1751.01
572.77	1773.54
572.96	1853.41
573.16	1716.20
573.35	1644.52
573.55	1830.88
573.74	1736.68
573.94	1697.77
574.13	1834.98
574.33	1779.68
574.52	1839.08
574.71	1748.97
574.91	1796.07
575.10	1615.85
575.30	1740.77
575.49	1716.20
575.69	1669.09
575.88	1800.16
576.08	1740.77
576.27	1814.50
576.47	1765.35
576.66	1839.08
576.86	1820.64
577.05	1779.68
577.25	1796.07
577.44	1867.75
577.64	1763.30
577.83	1779.68
578.02	1769.44
578.22	1767.40
578.41	1912.80
578.61	1679.33
578.80	1710.05
579.00	1777.64
579.19	1814.50
579.39	1726.44
579.58	1900.52
579.77	1705.96
579.97	1892.32
580.16	1837.03
580.36	1841.12
580.55	1812.45
580.75	1845.22
580.94	1802.21
581.13	1908.71
581.33	1867.75
581.52	1763.30
581.72	1908.71
581.91	1855.46
582.11	1806.31
582.30	1779.68
582.49	1851.36
582.69	1949.67
582.88	1843.17
583.08	1744.87
583.27	1804.26
583.47	1705.96
583.66	1783.78
583.85	1734.63
584.05	1734.63
584.24	1789.92
584.44	1812.45
584.63	1804.26
584.82	1812.45
585.02	1859.56
585.21	1802.21
585.41	1785.83
585.60	1837.03
585.79	1955.81
585.99	2045.92
586.18	1953.76
586.37	2224.09
586.57	3430.35
586.76	10063.72
586.96	24174.22
587.15	33658.37
587.34	39683.49
587.54	41194.89
587.73	35810.78
587.93	25853.56
588.12	21067.45
588.31	17944.30
588.51	16043.79
588.70	14874.40
588.89	14010.15
589.09	12265.28
589.28	10755.93
589.47	9129.84
589.67	7675.79
589.86	6336.42
590.06	4886.45
590.25	3786.69
590.44	3053.52
590.64	2527.19
590.83	2287.58
591.02	2078.69
591.22	1945.57
591.41	1877.99
591.60	1843.17
591.80	1943.52
591.99	1759.21
592.18	1841.12
592.38	1865.70
592.57	1824.74
592.76	1812.45
592.96	1830.88
593.15	1773.54
593.34	1806.31
593.54	1771.49
593.73	1794.02
593.92	1839.08
594.12	1779.68
594.31	1845.22
594.50	1824.74
594.70	1748.97
594.89	1910.75
595.08	1677.29
595.28	1751.01
595.47	1906.66
595.66	1865.70
595.86	1722.34
596.05	1755.11
596.24	1681.38
596.43	1877.99
596.63	1777.64
596.82	1775.59
597.01	1759.21
597.21	1886.18
597.40	1775.59
597.59	1781.73
597.79	1755.11
597.98	1828.84
598.17	1789.92
598.36	1804.26
598.56	1757.16
598.75	1755.11
598.94	1765.35
599.14	1810.40
599.33	1761.25
599.52	1718.25
599.71	1748.97
599.91	1826.79
600.10	1734.63
600.29	1701.86
600.48	1812.45
600.68	1777.64
600.87	1822.69
601.06	1761.25
601.26	1718.25
601.45	1769.44
601.64	1763.30
601.83	1769.44
602.03	1722.34
602.22	1705.96
602.41	1771.49
602.60	1972.19
602.80	1785.83
602.99	1755.11
603.18	1755.11
603.37	1708.01
603.57	1789.92
603.76	1859.56
603.95	1734.63
604.14	1767.40
604.34	1728.49
604.53	1789.92
604.72	1818.60
604.91	1808.36
605.10	1767.40
605.30	1601.51
605.49	1837.03
605.68	1787.88
605.87	1761.25
606.07	1728.49
606.26	1796.07
606.45	1814.50
606.64	1787.88
606.84	1695.72
607.03	1814.50
607.22	1851.36
607.41	1677.29
607.60	1673.19
607.80	1777.64
607.99	1773.54
608.18	1740.77
608.37	1712.10
608.56	1771.49
608.76	1773.54
608.95	1832.93
609.14	1787.88
609.33	1761.25
609.52	1791.97
609.72	1755.11
609.91	1814.50
610.10	1675.24
610.29	1818.60
610.48	1732.58
610.68	1748.97
610.87	1736.68
611.06	1755.11
611.25	1708.01
611.44	1716.20
611.63	1683.43
611.83	1834.98
612.02	1644.52
612.21	1779.68
612.40	1621.99
612.59	1697.77
612.79	1712.10
612.98	1755.11
613.17	1857.51
613.36	1769.44
613.55	1873.89
613.74	1769.44
613.93	1712.10
614.13	1701.86
614.32	1820.64
614.51	1763.30
614.70	1718.25
614.89	1695.72
615.08	1746.92
615.28	2093.02
615.47	1671.14
615.66	1665.00
615.85	1718.25
616.04	1857.51
616.23	1763.30
616.42	1730.53
616.62	1863.65
616.81	1804.26
617.00	1751.01
617.19	1775.59
617.38	1681.38
617.57	1693.67
617.76	1771.49
617.95	1839.08
618.15	1765.35
618.34	1861.60
618.53	1648.61
618.72	1769.44
618.91	1662.95
619.10	1882.08
619.29	1796.07
619.48	1755.11
619.68	1695.72
619.87	1765.35
620.06	1714.15
620.25	1748.97
620.44	1759.21
620.63	1742.82
620.82	1753.06
621.01	1718.25
621.20	1753.06
621.39	1738.73
621.59	1806.31
621.78	1802.21
621.97	1730.53
622.16	1822.69
622.35	1712.10
622.54	1755.11
622.73	1806.31
622.92	1597.42
623.11	1763.30
623.30	1744.87
623.49	1742.82
623.68	1708.01
623.88	1832.93
624.07	1677.29
624.26	1730.53
624.45	1718.25
624.64	1703.91
624.83	1765.35
625.02	1689.57
625.21	1796.07
625.40	1810.40
625.59	1828.84
625.78	1687.53
625.97	1814.50
626.16	1748.97
626.35	1771.49
626.54	1730.53
626.74	1822.69
626.93	1714.15
627.12	1650.66
627.31	1779.68
627.50	1699.81
627.69	1771.49
627.88	1660.90
628.07	1714.15
628.26	1615.85
628.45	1632.23
628.64	1691.62
628.83	1771.49
629.02	1611.75
629.21	1794.02
629.40	1732.58
629.59	1644.52
629.78	1705.96
629.97	1716.20
630.16	1691.62
630.35	1742.82
630.54	1703.91
630.73	1701.86
630.92	1755.11
631.11	1689.57
631.30	1800.16
631.49	1744.87
631.68	1673.19
631.87	1808.36
632.06	1736.68
632.25	1818.60
632.44	1654.76
632.63	1722.34
632.82	1732.58
633.01	1648.61
633.20	1765.35
633.39	1669.09
633.58	1656.81
633.77	1742.82
633.96	1804.26
634.15	1738.73
634.34	1691.62
634.53	1724.39
634.72	1669.09
634.91	1593.32
635.10	1748.97
635.29	1800.16
635.48	1724.39
635.67	1642.47
635.86	1712.10
636.05	1843.17
636.24	1716.20
636.43	1771.49
636.62	1785.83
636.81	1574.89
637.00	1691.62
637.19	1718.25
637.38	1701.86
637.57	1669.09
637.76	1695.72
637.95	1708.01
638.14	1677.29
638.33	1757.16
638.52	1802.21
638.71	1732.58
638.89	1728.49
639.08	1847.27
639.27	1839.08
639.46	1714.15
639.65	1812.45
639.84	1701.86
640.03	1783.78
640.22	1746.92
640.41	1794.02
640.60	1652.71
640.79	1738.73
640.98	1722.34
641.17	1834.98
641.36	1767.40
641.55	1837.03
641.74	1726.44
641.92	1716.20
642.11	1714.15
642.30	1642.47
642.49	1665.00
642.68	1681.38
642.87	1728.49
643.06	1773.54
643.25	1689.57
643.44	1665.00
643.63	1759.21
643.82	1771.49
644.00	1662.95
644.19	1732.58
644.38	1683.43
644.57	1697.77
644.76	1796.07
644.95	1734.63
645.14	1744.87
645.33	1714.15
645.52	1710.05
645.71	1701.86
645.89	1716.20
646.08	1769.44
646.27	1669.09
646.46	1820.64
646.65	1701.86
646.84	1726.44
647.03	1626.09
647.22	1832.93
647.40	1748.97
647.59	1734.63
647.78	1603.56
647.97	1712.10
648.16	1701.86
648.35	1816.55
648.54	1767.40
648.73	1738.73
648.91	1808.36
649.10	1703.91
649.29	1667.05
649.48	1740.77
649.67	1830.88
649.86	1720.29
650.05	1693.67
650.23	1746.92
650.42	1624.04
650.61	1810.40
650.80	1763.30
650.99	1923.04
651.18	1779.68
651.36	1779.68
651.55	1646.57
651.74	1716.20
651.93	1714.15
652.12	1763.30
652.31	1751.01
652.49	1738.73
652.68	1767.40
652.87	1759.21
653.06	1748.97
653.25	1841.12
653.44	1681.38
653.62	1787.88
653.81	1767.40
654.00	1748.97
654.19	1800.16
654.38	1810.40
654.56	1740.77
654.75	1699.81
654.94	1675.24
655.13	1773.54
655.32	1697.77
655.51	1765.35
655.69	1673.19
655.88	1730.53
656.07	1771.49
656.26	1771.49
656.45	1654.76
656.63	1724.39
656.82	1722.34
657.01	1761.25
657.20	1771.49
657.38	1730.53
657.57	1677.29
657.76	1665.00
657.95	1761.25
658.14	1683.43
658.32	1710.05
658.51	1796.07
658.70	1759.21
658.89	1755.11
659.08	1773.54
659.26	1775.59
659.45	1630.18
659.64	1728.49
659.83	1628.14
660.01	1910.75
660.20	1693.67
660.39	1748.97
660.58	1628.14
660.76	1763.30
660.95	1652.71
661.14	1757.16
661.33	1583.08
661.51	1689.57
661.70	1673.19
661.89	1744.87
662.08	1691.62
662.26	1665.00
662.45	1617.90
662.64	1855.46
662.83	1759.21
663.01	1671.14
663.20	1726.44
663.39	1798.12
663.58	1693.67
663.76	1767.40
663.95	1697.77
664.14	1705.96
664.32	1685.48
664.51	1714.15
664.70	1660.90
664.89	1701.86
665.07	1689.57
665.26	1742.82
665.45	1701.86
665.64	1730.53
665.82	1738.73
666.01	1861.60
666.20	1718.25
666.38	1761.25
666.57	1869.80
666.76	2191.33
666.95	4429.76
667.13	10461.02
667.32	15075.10
667.51	17766.13
667.69	18814.69
667.88	17436.41
668.07	11945.80
668.25	9314.16
668.44	8120.20
668.63	7225.23
668.81	6707.10
669.00	6162.34
669.19	5605.29
669.38	5048.24
669.56	4581.31
669.75	3960.77
669.94	3420.11
670.12	2848.72
670.31	2543.58
670.50	2211.81
670.68	2068.45
670.87	1882.08
671.06	1812.45
671.24	1751.01
671.43	1853.41
671.62	1767.40
671.80	1615.85
671.99	1705.96
672.18	1699.81
672.36	1757.16
672.55	1765.35
672.74	1734.63
672.92	1667.05
673.11	1734.63
673.29	1740.77
673.48	1718.25
673.67	1744.87
673.85	1656.81
674.04	1617.90
674.23	1785.83
674.41	1863.65
674.60	1658.85
674.79	1697.77
674.97	1634.28
675.16	1822.69
675.34	1789.92
675.53	1673.19
675.72	1746.92
675.90	1859.56
676.09	1703.91
676.28	1740.77
676.46	1640.42
676.65	1830.88
676.83	1671.14
677.02	1755.11
677.21	1763.30
677.39	1730.53
677.58	1634.28
677.77	1703.91
677.95	1667.05
678.14	1695.72
678.32	1716.20
678.51	1601.51
678.70	1843.17
678.88	1720.29
679.07	1751.01
679.25	1712.10
679.44	1675.24
679.63	1632.23
679.81	1705.96
680.00	1814.50
680.18	1755.11
680.37	1689.57
680.55	1787.88
680.74	1714.15
680.93	1632.23
681.11	1665.00
681.30	1843.17
681.48	1730.53
681.67	1697.77
681.85	1703.91
682.04	1703.91
682.23	1708.01
682.41	1744.87
682.60	1744.87
682.78	1632.23
682.97	1628.14
683.15	1765.35
683.34	1732.58
683.53	1798.12
683.71	1642.47
683.90	1798.12
684.08	1847.27
684.27	1617.90
684.45	1746.92
684.64	1869.80
684.82	1710.05
685.01	1810.40
685.19	1722.34
685.38	1804.26
685.57	1705.96
685.75	1701.86
685.94	1679.33
686.12	1683.43
686.31	1763.30
686.49	1943.52
686.68	1642.47
686.86	1812.45
687.05	1716.20
687.23	1771.49
687.42	1726.44
687.60	1714.15
687.79	1720.29
687.97	1757.16
688.16	1763.30
688.34	1712.10
688.53	1624.04
688.71	1742.82
688.90	1763.30
689.08	1724.39
689.27	1656.81
689.45	1763.30
689.64	1849.32
689.82	1724.39
690.01	1712.10
690.19	1773.54
690.38	1726.44
690.56	1816.55
690.75	1734.63
690.93	1681.38
691.12	1691.62
691.30	1714.15
691.49	1671.14
691.67	1656.81
691.86	1832.93
692.04	1656.81
692.23	1699.81
692.41	1767.40
692.60	1837.03
692.78	1767.40
692.97	1716.20
693.15	1755.11
693.34	1857.51
693.52	1814.50
693.71	1658.85
693.89	1748.97
694.08	1615.85
694.26	1765.35
694.44	1767.40
694.63	1802.21
694.81	1644.52
695.00	1689.57
695.18	1740.77
695.37	1886.18
695.55	1742.82
695.74	1728.49
695.92	1714.15
696.10	1773.54
696.29	1665.00
696.47	1636.33
696.66	1722.34
696.84	1740.77
697.03	1767.40
697.21	1880.04
697.40	2349.02
697.58	1796.07
697.76	1720.29
697.95	1654.76
698.13	1603.56
698.32	1705.96
698.50	1787.88
698.68	1779.68
698.87	1820.64
699.05	1849.32
699.24	1740.77
699.42	1687.53
699.61	1796.07
699.79	1726.44
699.97	1708.01
700.16	1710.05
700.34	1624.04
700.53	1769.44
700.71	1830.88
700.89	1689.57
701.08	1757.16
701.26	1751.01
701.45	2078.69
701.63	1658.85
701.81	1660.90
702.00	1744.87
702.18	1705.96
702.37	1705.96
702.55	1636.33
702.73	1748.97
702.92	1650.66
703.10	1763.30
703.28	1728.49
703.47	1665.00
703.65	1824.74
703.84	1699.81
704.02	1708.01
704.20	1834.98
704.39	1689.57
704.57	1693.67
704.75	1759.21
704.94	1730.53
705.12	1710.05
705.30	1820.64
705.49	2342.88
705.67	4370.37
705.86	9283.44
706.04	12382.02
706.22	14169.90
706.41	15081.24
706.59	13485.87
706.77	9441.14
706.96	7362.45
707.14	6508.44
707.32	5842.85
707.51	5435.31
707.69	4710.33
707.87	4085.70
708.06	3559.37
708.24	2938.84
708.42	2387.93
708.61	2199.52
708.79	1894.37
708.97	1849.32
709.16	1853.41
709.34	1791.97
709.52	1705.96
709.71	1742.82
709.89	1777.64
710.07	1734.63
710.26	1693.67
710.44	1691.62
710.62	1689.57
710.80	1763.30
710.99	1716.20
711.17	1765.35
711.35	1746.92
711.54	1679.33
711.72	1763.30
711.90	1742.82
712.09	1724.39
712.27	1714.15
712.45	1789.92
712.63	1646.57
712.82	1708.01
713.00	1755.11
713.18	1660.90
713.37	1767.40
713.55	1722.34
713.73	1767.40
713.91	1738.73
714.10	1705.96
714.28	1681.38
714.46	1755.11
714.65	1744.87
714.83	1761.25
715.01	1669.09
715.19	1691.62
715.38	1744.87
715.56	1681.38
715.74	1691.62
715.92	1658.85
716.11	1849.32
716.29	1638.38
716.47	1748.97
716.65	1730.53
716.84	1615.85
717.02	1808.36
717.20	1617.90
717.38	1650.66
717.57	1722.34
717.75	1763.30
717.93	1679.33
718.11	1763.30
718.30	1669.09
718.48	1746.92
718.66	1783.78
718.84	1773.54
719.03	1693.67
719.21	1675.24
719.39	1796.07
719.57	1804.26
719.75	1724.39
719.94	1611.75
720.12	1665.00
720.30	1701.86
720.48	1816.55
720.67	1695.72
720.85	1687.53
721.03	1718.25
721.21	1673.19
721.39	1765.35
721.58	1697.77
721.76	1728.49
721.94	1662.95
722.12	1751.01
722.30	1798.12
722.49	1681.38
722.67	1730.53
722.85	1740.77
723.03	1595.37
723.21	1681.38
723.40	1716.20
723.58	1791.97
723.76	1763.30
723.94	1789.92
724.12	1740.77
724.30	1810.40
724.49	1722.34
724.67	1601.51
724.85	1812.45
725.03	1605.61
725.21	1781.73
725.40	1775.59
725.58	1777.64
725.76	1763.30
725.94	1705.96
726.12	1632.23
726.30	1847.27
726.49	1751.01
726.67	1751.01
726.85	1781.73
727.03	1769.44
727.21	2107.36
727.39	2922.45
727.57	3772.36
727.76	4167.62
727.94	4378.56
728.12	4417.47
728.30	3733.45
728.48	2963.41
728.66	2727.89
728.84	2475.99
729.03	2306.01
729.21	2140.13
729.39	2004.96
729.57	1851.36
729.75	1814.50
729.93	1832.93
730.11	1765.35
730.30	1814.50
730.48	1691.62
730.66	1814.50
730.84	1740.77
731.02	1693.67
731.20	1685.48
731.38	1726.44
731.56	1675.24
731.74	1650.66
731.93	1677.29
732.11	1683.43
732.29	1728.49
732.47	1759.21
732.65	1703.91
732.83	1746.92
733.01	1720.29
733.19	1650.66
733.37	1798.12
733.56	1728.49
733.74	1673.19
733.92	1812.45
734.10	1701.86
734.28	1724.39
734.46	1667.05
734.64	1578.98
734.82	1714.15
735.00	1695.72
735.18	1626.09
735.36	1738.73
735.54	1642.47
735.73	1658.85
735.91	1726.44
736.09	1800.16
736.27	1695.72
736.45	1683.43
736.63	1660.90
736.81	1701.86
736.99	1824.74
737.17	1722.34
737.35	1681.38
737.53	1716.20
737.71	1736.68
737.89	1755.11
738.07	1662.95
738.25	1712.10
738.43	1691.62
738.61	1742.82
738.80	1673.19
738.98	1624.04
739.16	1837.03
739.34	1679.33
739.52	1812.45
739.70	1626.09
739.88	1779.68
740.06	1787.88
740.24	1542.12
740.42	1781.73
740.60	1650.66
740.78	1689.57
740.96	1691.62
741.14	1660.90
741.32	1705.96
741.50	1644.52
741.68	1869.80
741.86	1851.36
742.04	1705.96
742.22	1665.00
742.40	1669.09
742.58	1763.30
742.76	1665.00
742.94	1806.31
743.12	1628.14
743.30	1716.20
743.48	1789.92
743.66	1693.67
743.84	1742.82
744.02	1705.96
744.20	1697.77
744.38	1677.29
744.56	1740.77
744.74	1816.55
744.92	1726.44
745.10	1794.02
745.28	1759.21
745.46	1667.05
745.64	1679.33
745.82	1738.73
746.00	1697.77
746.18	1710.05
746.36	1708.01
746.54	1837.03
746.72	1712.10
746.90	1658.85
747.08	1839.08
747.26	1679.33
747.44	1687.53
747.62	1767.40
747.80	1681.38
747.98	1751.01
748.15	1667.05
748.33	1746.92
748.51	1710.05
748.69	1722.34
748.87	1658.85
749.05	1665.00
749.23	1722.34
749.41	1751.01
749.59	1665.00
749.77	1746.92
749.95	1769.44
750.13	1732.58
750.31	1757.16
750.49	1789.92
750.67	1796.07
750.85	1724.39
751.03	1781.73
751.20	1871.84
751.38	1667.05
751.56	1648.61
751.74	1757.16
751.92	1667.05
752.10	1673.19
752.28	1783.78
752.46	1681.38
752.64	1658.85
752.82	1695.72
753.00	1732.58
753.18	1673.19
753.35	1703.91
753.53	1640.42
753.71	1683.43
753.89	1714.15
754.07	1681.38
754.25	1751.01
754.43	1759.21
754.61	1652.71
754.79	1730.53
754.97	1681.38
755.14	1763.30
755.32	1599.46
755.50	1765.35
755.68	1734.63
755.86	1691.62
756.04	1693.67
756.22	1630.18
756.40	1753.06
756.57	1812.45
756.75	1601.51
756.93	1652.71
757.11	1818.60
757.29	1716.20
757.47	1619.94
757.65	1691.62
757.82	1603.56
758.00	1677.29
758.18	1748.97
758.36	1695.72
758.54	1798.12
758.72	1644.52
758.90	1787.88
759.07	1755.11
759.25	1679.33
759.43	1740.77
759.61	1624.04
759.79	2213.85
759.97	1720.29
760.15	1630.18
760.32	1697.77
760.50	1730.53
760.68	1800.16
760.86	1621.99
761.04	1826.79
761.22	1734.63
761.39	1681.38
761.57	1697.77
761.75	1691.62
761.93	1730.53
762.11	1675.24
762.28	1738.73
762.46	1644.52
762.64	1744.87
762.82	1568.74
763.00	1673.19
763.18	1789.92
763.35	1662.95
763.53	1816.55
763.71	1679.33
763.89	1679.33
764.07	1714.15
764.24	1699.81
764.42	1681.38
764.60	1708.01
764.78	1744.87
764.96	1759.21
765.13	1724.39
765.31	1650.66
765.49	1789.92
765.67	1708.01
765.84	1650.66
766.02	1689.57
766.20	1681.38
766.38	1695.72
766.56	1730.53
766.73	1800.16
766.91	1656.81
767.09	1648.61
767.27	1724.39
767.44	1677.29
767.62	1775.59
767.80	1781.73
767.98	1689.57
768.15	1691.62
768.33	1705.96
768.51	1800.16
768.69	1740.77
768.87	1789.92
769.04	1705.96
769.22	1800.16
769.40	1812.45
769.58	1849.32
769.75	1718.25
769.93	1884.13
770.11	1695.72
770.28	1708.01
770.46	1722.34
770.64	1753.06
770.82	1718.25
770.99	1695.72
771.17	1783.78
771.35	1630.18
771.53	1765.35
771.70	1681.38
771.88	1734.63
772.06	1695.72
772.23	1648.61
772.41	1740.77
772.59	1675.24
772.77	1710.05
772.94	1738.73
773.12	1746.92
773.30	1720.29
773.47	1746.92
773.65	1687.53
773.83	1859.56
774.01	1662.95
774.18	1628.14
774.36	1789.92
774.54	1667.05
774.71	1710.05
774.89	1560.55
775.07	1636.33
775.24	1726.44
775.42	1648.61
775.60	1855.46
775.78	1693.67
775.95	1656.81
776.13	1703.91
776.31	1669.09
776.48	1748.97
776.66	1751.01
776.84	1705.96
777.01	1693.67
777.19	1697.77
777.37	1662.95
777.54	1734.63
777.72	1847.27
777.90	1757.16
778.07	1640.42
778.25	1834.98
778.43	1738.73
778.60	1742.82
778.78	1740.77
778.96	1820.64
779.13	1626.09
779.31	1771.49
779.49	1738.73
779.66	1771.49
779.84	1646.57
780.01	1740.77
780.19	1699.81
780.37	1769.44
780.54	1742.82
780.72	1599.46
780.90	1738.73
781.07	1650.66
781.25	1701.86
781.43	1726.44
781.60	1763.30
781.78	1744.87
781.95	1730.53
782.13	1652.71
782.31	1693.67
782.48	1636.33
782.66	1695.72
782.83	1802.21
783.01	1662.95
783.19	1726.44
783.36	1751.01
783.54	1646.57
783.72	1689.57
783.89	1677.29
784.07	1759.21
784.24	1726.44
784.42	1808.36
784.60	1771.49
784.77	1769.44
784.95	1667.05
785.12	1697.77
785.30	1691.62
785.47	1552.36
785.65	1759.21
785.83	1697.77
786.00	1697.77
786.18	1646.57
786.35	1570.79
786.53	1746.92
786.71	1779.68
786.88	1759.21
787.06	1771.49
787.23	1699.81
787.41	1597.42
787.58	1808.36
787.76	1611.75
787.94	1761.25
788.11	1632.23
788.29	1691.62
788.46	1615.85
788.64	1658.85
788.81	1665.00
788.99	1724.39
789.16	1642.47
789.34	1591.27
789.52	1705.96
789.69	1710.05
789.87	1642.47
790.04	1701.86
790.22	1765.35
790.39	1816.55
790.57	1619.94
790.74	1691.62
790.92	1759.21
791.09	1669.09
791.27	1671.14
791.44	1746.92
791.62	1710.05
791.79	1742.82
791.97	1748.97
792.15	1900.52
792.32	1701.86
792.50	1755.11
792.67	1757.16
792.85	1826.79
793.02	1738.73
793.20	1685.48
793.37	1634.28
793.55	1708.01
793.72	1624.04
793.90	1695.72
794.07	1644.52
794.25	1644.52
794.42	1726.44
794.60	1726.44
794.77	1708.01
794.95	1816.55
795.12	1810.40
795.30	1695.72
795.47	1603.56
795.65	1839.08
795.82	1759.21
796.00	1734.63
796.17	1769.44
796.34	1699.81
796.52	1716.20
796.69	1726.44
796.87	1771.49
797.04	1718.25
797.22	1765.35
797.39	1738.73
797.57	1765.35
797.74	1693.67
797.92	1742.82
798.09	1685.48
798.27	1730.53
798.44	1685.48
798.62	1705.96
798.79	1769.44
798.96	1701.86
799.14	1751.01
799.31	1877.99
799.49	1718.25
799.66	1730.53
799.84	1675.24
800.01	1607.66
800.19	1660.90
800.36	1648.61
800.53	1720.29
800.71	1773.54
800.88	1742.82
801.06	1660.90
801.23	1681.38
801.41	1798.12
801.58	1705.96
801.75	1687.53
801.93	1679.33
802.10	1716.20
802.28	1746.92
802.45	1710.05
802.63	1800.16
802.80	1824.74
802.97	1648.61
803.15	1660.90
803.32	1681.38
803.50	1632.23
803.67	1689.57
803.84	1636.33
804.02	1656.81
804.19	1685.48
804.37	1599.46
804.54	1730.53
804.71	1611.75
804.89	1685.48
805.06	1740.77
805.24	1681.38
805.41	1564.65
805.58	1615.85
805.76	1851.36
805.93	1691.62
806.10	1757.16
806.28	1748.97
806.45	1689.57
806.63	1648.61
806.80	1779.68
806.97	1773.54
807.15	1779.68
807.32	1789.92
807.49	1701.86
807.67	1556.46
807.84	1634.28
808.01	1652.71
808.19	1853.41
808.36	1820.64
808.54	1681.38
808.71	1734.63
808.88	1732.58
809.06	1816.55
809.23	1818.60
809.40	1697.77
809.58	1738.73
809.75	1742.82
809.92	1650.66
810.10	1927.14
810.27	1648.61
810.44	1705.96
810.62	1730.53
810.79	1689.57
810.96	1685.48
811.14	1650.66
811.31	1738.73
811.48	1843.17
811.66	1740.77
811.83	1832.93
812.00	1705.96
812.18	1736.68
812.35	1861.60
812.52	1720.29
812.69	1691.62
812.87	1681.38
813.04	1685.48
813.21	1687.53
813.39	1712.10
813.56	1652.71
813.73	1736.68
813.91	1646.57
814.08	1771.49
814.25	1685.48
814.42	1581.03
814.60	1734.63
814.77	1624.04
814.94	1630.18
815.12	1701.86
815.29	1777.64
815.46	1695.72
815.63	1742.82
815.81	1755.11
815.98	1691.62
816.15	1746.92
816.33	1685.48
816.50	1648.61
816.67	1730.53
816.84	1710.05
817.02	1648.61
817.19	1726.44
817.36	1740.77
817.53	1693.67
817.71	1677.29
817.88	1802.21
818.05	1755.11
818.22	1734.63
818.40	1771.49
818.57	1671.14
818.74	1763.30
818.91	1703.91
819.09	1787.88
819.26	1767.40
819.43	1767.40
819.60	1718.25
819.78	1777.64
819.95	1806.31
820.12	1689.57
820.29	1755.11
820.47	1796.07
820.64	1652.71
820.81	1624.04
820.98	1705.96
821.15	1734.63
821.33	1783.78
821.50	1626.09
821.67	1748.97
821.84	1695.72
822.02	1718.25
822.19	1720.29
822.36	1703.91
822.53	1689.57
822.70	1642.47
822.88	1730.53
823.05	1796.07
823.22	1667.05
823.39	1728.49
823.56	1652.71
823.74	1810.40
823.91	1712.10
824.08	1705.96
824.25	1662.95
824.42	1779.68
824.60	1611.75
824.77	1703.91
824.94	1648.61
825.11	1738.73
825.28	1654.76
825.45	1722.34
825.63	1703.91
825.80	1656.81
825.97	1773.54
826.14	1734.63
826.31	1673.19
826.48	1714.15
826.66	1681.38
826.83	1646.57
827.00	1681.38
827.17	1746.92
827.34	1705.96
827.51	1687.53
827.69	1701.86
827.86	1708.01
828.03	1746.92
828.20	1691.62
828.37	1626.09
828.54	1732.58
828.71	1632.23
828.89	1845.22
829.06	1732.58
829.23	1753.06
829.40	1705.96
829.57	1665.00
829.74	1722.34
829.91	1642.47
830.09	1742.82
830.26	1753.06
830.43	1806.31
830.60	1683.43
830.77	1751.01
830.94	1722.34
831.11	1677.29
831.28	1720.29
831.46	1777.64
831.63	1607.66
831.80	1716.20
831.97	1705.96
832.14	1712.10
832.31	1755.11
832.48	1689.57
832.65	1787.88
832.82	1628.14
832.99	1746.92
833.17	1673.19
833.34	1753.06
833.51	1761.25
833.68	1583.08
833.85	1767.40
834.02	1660.90
834.19	1652.71
834.36	1611.75
834.53	1630.18
834.70	1744.87
834.87	1748.97
835.04	1650.66
835.22	1601.51
835.39	1681.38
835.56	1601.51
835.73	1677.29
835.90	1763.30
836.07	1671.14
836.24	1746.92
836.41	1708.01
836.58	1683.43
836.75	1767.40
836.92	1746.92
837.09	1693.67
837.26	1730.53
837.43	1654.76
837.60	1671.14
837.77	1607.66
837.94	1712.10
838.12	1771.49
838.29	1767.40
838.46	1578.98
838.63	1660.90
838.80	1759.21
838.97	1697.77
839.14	1765.35
839.31	1714.15
839.48	1796.07
839.65	1720.29
839.82	1679.33
839.99	1724.39
840.16	1724.39
840.33	1671.14
840.50	1662.95
840.67	1652.71
840.84	1521.64
841.01	1730.53
841.18	1648.61
841.35	1665.00
841.52	1794.02
841.69	1828.84
841.86	1789.92
842.03	1697.77
842.20	1726.44
842.37	1654.76
842.54	1722.34
842.71	1751.01
842.88	1683.43
843.05	1708.01
843.22	1646.57
843.39	1693.67
843.56	1675.24
843.73	1738.73
843.90	1720.29
844.07	1720.29
844.24	1671.14
844.41	1759.21
844.58	1755.11
844.75	1683.43
844.92	1734.63
845.09	1771.49
845.26	1699.81
845.43	1736.68
845.60	1691.62
845.77	1748.97
845.94	1697.77
846.10	1699.81
846.27	1634.28
846.44	1703.91
846.61	1665.00
846.78	1722.34
846.95	1771.49
847.12	1710.05
847.29	1673.19
847.46	1675.24
847.63	1781.73
847.80	1636.33
847.97	1730.53
848.14	1884.13
848.31	1722.34
848.48	1660.90
848.65	1732.58
848.82	1624.04
848.98	1796.07
849.15	1740.77
849.32	1839.08
849.49	1787.88
849.66	1751.01
849.83	1728.49
850.00	1681.38
850.17	1712.10
850.34	1736.68
850.51	1681.38
850.68	1730.53
850.85	1837.03
851.01	1738.73
851.18	1742.82
851.35	1650.66
851.52	1794.02
851.69	1759.21
851.86	1589.22
852.03	1728.49
852.20	1769.44
852.37	1742.82
852.53	1662.95
852.70	1681.38
852.87	1771.49
853.04	1705.96
853.21	1714.15
853.38	1691.62
853.55	1689.57
853.72	1853.41
853.89	1591.27
854.05	1671.14
854.22	1767.40
854.39	1765.35
854.56	1777.64
854.73	1718.25
854.90	1595.37
855.07	1712.10
855.23	1656.81
855.40	1605.61
855.57	1695.72
855.74	1595.37
855.91	1861.60
856.08	1578.98
856.25	1650.66
856.41	1755.11
856.58	1718.25
856.75	1728.49
856.92	1689.57
857.09	1724.39
857.26	1691.62
857.42	1677.29
857.59	1822.69
857.76	1705.96
857.93	1779.68
858.10	1673.19
858.27	1667.05
858.43	1773.54
858.60	1636.33
858.77	1599.46
858.94	1736.68
859.11	1771.49
859.27	1685.48
859.44	1720.29
859.61	1755.11
859.78	1877.99
859.95	1673.19
860.12	1683.43
860.28	1808.36
860.45	1796.07
860.62	1634.28
860.79	1775.59
860.95	1708.01
861.12	1677.29
861.29	1683.43
861.46	1587.18
861.63	1689.57
861.79	1751.01
861.96	1667.05
862.13	1652.71
862.30	1812.45
862.47	1662.95
862.63	1683.43
862.80	1857.51
862.97	1742.82
863.14	1714.15
863.30	1683.43
863.47	1673.19
863.64	1808.36
863.81	1791.97
863.97	1660.90
864.14	1726.44
864.31	1632.23
864.48	1710.05
864.65	1662.95
864.81	1716.20
864.98	1751.01
865.15	1783.78
865.32	1736.68
865.48	1777.64
865.65	1742.82
865.82	1624.04
865.98	1763.30
866.15	1787.88
866.32	1783.78
866.49	1710.05
866.65	1816.55
866.82	1691.62
866.99	1691.62
867.16	1632.23
867.32	1624.04
867.49	1640.42
867.66	1603.56
867.83	1636.33
867.99	1634.28
868.16	1703.91
868.33	1683.43
868.49	1728.49
868.66	1736.68
868.83	1681.38
868.99	1708.01
869.16	1703.91
869.33	1718.25
869.50	1767.40
869.66	1675.24
869.83	1689.57
870.00	1603.56
870.16	1742.82
870.33	1720.29
870.50	1763.30
870.66	1738.73
870.83	1830.88
871.00	1751.01
871.17	1736.68
871.33	1740.77
871.50	1662.95
871.67	1730.53
871.83	1632.23
872.00	1814.50
872.17	1757.16
872.33	1806.31
872.50	1779.68
872.67	1746.92
872.83	1697.77
873.00	1718.25
873.17	1787.88
873.33	1740.77
873.50	1722.34
873.67	1585.13
873.83	1701.86
874.00	1740.77
874.16	1857.51
874.33	1691.62
874.50	1675.24
874.66	1757.16
874.83	1716.20
875.00	1802.21
875.16	1699.81
875.33	1753.06
875.50	1576.94
875.66	1708.01
875.83	1730.53
875.99	1730.53
876.16	1703.91
876.33	1710.05
876.49	1685.48
876.66	1775.59
876.83	1665.00
876.99	1587.18
877.16	1703.91
877.32	1673.19
877.49	1695.72
877.66	1710.05
877.82	1820.64
877.99	1712.10
878.15	1728.49
878.32	1724.39
878.49	1740.77
878.65	1710.05
878.82	1779.68
878.98	1665.00
879.15	1738.73
879.32	1789.92
879.48	1675.24
879.65	1699.81
879.81	1748.97
879.98	1650.66
880.15	1697.77
880.31	1724.39
880.48	1632.23
880.64	1736.68
880.81	1757.16
880.97	1828.84
881.14	1779.68
881.31	1705.96
881.47	1843.17
881.64	1656.81
881.80	1703.91
881.97	1773.54
882.13	1718.25
882.30	1652.71
882.47	1648.61
882.63	1718.25
882.80	1718.25
882.96	1718.25
883.13	1767.40
883.29	1736.68
883.46	1767.40
883.62	1806.31
883.79	1732.58
883.95	1701.86
884.12	1769.44
884.29	1763.30
884.45	1757.16
884.62	1755.11
884.78	1662.95
884.95	1755.11
885.11	1656.81
885.28	1751.01
885.44	1697.77
885.61	1744.87
885.77	1808.36
885.94	1742.82
886.10	1738.73
886.27	1722.34
886.43	1822.69
886.60	1771.49
886.76	1654.76
886.93	1660.90
887.09	1765.35
887.26	1593.32
887.42	1761.25
887.59	1705.96
887.75	1869.80
887.92	1832.93
888.08	1783.78
888.25	1722.34
888.41	1783.78
888.58	1781.73
888.74	1679.33
888.91	1673.19
>>>>>End Processed Spectral Data<<<<<
