SpectraSuite Data File
++++++++++++++++++++++++++++++++++++
Date: Mon Jun 06 16:13:37 CEST 2016
User: root
Dark Spectrum Present: No
Reference Spectrum Present: No
Number of Sampled Component Spectra: 1
Spectrometers: USB4C02835
Integration Time (usec): 100000 (USB4C02835)
Spectra Averaged: 1 (USB4C02835)
Boxcar Smoothing: 0 (USB4C02835)
Correct for Electrical Dark: No (USB4C02835)
Strobe/Lamp Enabled: No (USB4C02835)
Correct for Detector Non-linearity: No (USB4C02835)
Correct for Stray Light: No (USB4C02835)
Number of Pixels in Processed Spectrum: 3648
>>>>>Begin Processed Spectral Data<<<<<
177.47	1501.16
177.69	1501.16
177.91	1501.16
178.13	1478.63
178.36	1460.20
178.58	1679.33
178.80	1716.20
179.02	1611.75
179.24	1646.57
179.46	1695.72
179.68	1744.87
179.90	1697.77
180.13	1791.97
180.35	1673.19
180.57	1746.92
180.79	1834.98
181.01	1722.34
181.23	1738.73
181.45	1722.34
181.67	1697.77
181.90	1751.01
182.12	1648.61
182.34	1609.70
182.56	1746.92
182.78	1728.49
183.00	1644.52
183.22	1689.57
183.44	1593.32
183.66	1877.99
183.89	1816.55
184.11	1722.34
184.33	1785.83
184.55	1779.68
184.77	1763.30
184.99	1722.34
185.21	1714.15
185.43	1832.93
185.65	1652.71
185.87	1748.97
186.10	1875.94
186.32	1832.93
186.54	1753.06
186.76	1738.73
186.98	1708.01
187.20	1712.10
187.42	1675.24
187.64	1773.54
187.86	1681.38
188.08	1802.21
188.30	1734.63
188.52	1667.05
188.75	1759.21
188.97	1824.74
189.19	1759.21
189.41	1697.77
189.63	1773.54
189.85	1714.15
190.07	1658.85
190.29	1652.71
190.51	1753.06
190.73	1652.71
190.95	1740.77
191.17	1742.82
191.39	1658.85
191.61	1710.05
191.84	1591.27
192.06	1685.48
192.28	1673.19
192.50	1906.66
192.72	1759.21
192.94	1654.76
193.16	1773.54
193.38	1771.49
193.60	1650.66
193.82	1730.53
194.04	1759.21
194.26	1697.77
194.48	1701.86
194.70	1640.42
194.92	1699.81
195.14	1787.88
195.36	1714.15
195.58	1720.29
195.80	1710.05
196.02	1611.75
196.24	1718.25
196.46	1738.73
196.69	1722.34
196.91	1777.64
197.13	1697.77
197.35	1669.09
197.57	1767.40
197.79	1796.07
198.01	1763.30
198.23	1701.86
198.45	1751.01
198.67	1630.18
198.89	1720.29
199.11	1708.01
199.33	1675.24
199.55	1628.14
199.77	1640.42
199.99	1818.60
200.21	1738.73
200.43	1808.36
200.65	1691.62
200.87	1660.90
201.09	1769.44
201.31	1710.05
201.53	1738.73
201.75	1740.77
201.97	1726.44
202.19	1746.92
202.41	1705.96
202.63	1744.87
202.85	1722.34
203.07	1767.40
203.29	1703.91
203.51	1607.66
203.73	1697.77
203.95	1882.08
204.17	1716.20
204.39	1669.09
204.61	1796.07
204.83	1679.33
205.05	1728.49
205.27	1791.97
205.49	1834.98
205.71	1689.57
205.93	1703.91
206.15	1656.81
206.37	1712.10
206.59	1683.43
206.81	1701.86
207.03	1675.24
207.25	1751.01
207.47	1789.92
207.69	1712.10
207.91	1806.31
208.13	1755.11
208.34	1755.11
208.56	1703.91
208.78	1738.73
209.00	1656.81
209.22	1675.24
209.44	1712.10
209.66	1644.52
209.88	1726.44
210.10	1691.62
210.32	1738.73
210.54	1841.12
210.76	1755.11
210.98	1798.12
211.20	1640.42
211.42	1710.05
211.64	1769.44
211.86	1730.53
212.08	1736.68
212.30	1763.30
212.52	1714.15
212.74	1703.91
212.96	1667.05
213.17	1746.92
213.39	1763.30
213.61	1843.17
213.83	1804.26
214.05	1656.81
214.27	1802.21
214.49	1679.33
214.71	1693.67
214.93	1748.97
215.15	1705.96
215.37	1785.83
215.59	1607.66
215.81	1734.63
216.03	1767.40
216.24	1677.29
216.46	1697.77
216.68	1773.54
216.90	1720.29
217.12	1757.16
217.34	1724.39
217.56	1673.19
217.78	1791.97
218.00	1722.34
218.22	1705.96
218.44	1798.12
218.66	1734.63
218.87	1794.02
219.09	1640.42
219.31	1738.73
219.53	1722.34
219.75	1718.25
219.97	1607.66
220.19	1791.97
220.41	1697.77
220.63	1796.07
220.85	1734.63
221.06	1730.53
221.28	1769.44
221.50	1761.25
221.72	1720.29
221.94	1712.10
222.16	1773.54
222.38	1787.88
222.60	1736.68
222.82	1685.48
223.03	1738.73
223.25	1683.43
223.47	1808.36
223.69	1877.99
223.91	1818.60
224.13	1673.19
224.35	1636.33
224.57	1779.68
224.78	1783.78
225.00	1673.19
225.22	1673.19
225.44	1734.63
225.66	1701.86
225.88	1640.42
226.10	1804.26
226.32	1818.60
226.53	1783.78
226.75	1751.01
226.97	1701.86
227.19	1742.82
227.41	1675.24
227.63	1640.42
227.85	1619.94
228.06	1660.90
228.28	1703.91
228.50	1748.97
228.72	1607.66
228.94	1673.19
229.16	1683.43
229.37	1718.25
229.59	1636.33
229.81	1755.11
230.03	1755.11
230.25	1636.33
230.47	1630.18
230.69	1687.53
230.90	1740.77
231.12	1634.28
231.34	1710.05
231.56	1773.54
231.78	1730.53
232.00	1708.01
232.21	1658.85
232.43	1744.87
232.65	1587.18
232.87	1736.68
233.09	1718.25
233.30	1757.16
233.52	1734.63
233.74	1669.09
233.96	1654.76
234.18	1714.15
234.40	1693.67
234.61	1861.60
234.83	1667.05
235.05	1654.76
235.27	1916.90
235.49	1722.34
235.70	1685.48
235.92	1859.56
236.14	1789.92
236.36	1916.90
236.58	1611.75
236.79	1767.40
237.01	1738.73
237.23	1705.96
237.45	1794.02
237.67	1716.20
237.88	1753.06
238.10	1789.92
238.32	1689.57
238.54	1771.49
238.76	1667.05
238.97	1576.94
239.19	1656.81
239.41	1822.69
239.63	1826.79
239.85	1705.96
240.06	1677.29
240.28	1648.61
240.50	1796.07
240.72	1742.82
240.93	1671.14
241.15	1789.92
241.37	1712.10
241.59	1839.08
241.81	1667.05
242.02	1665.00
242.24	1781.73
242.46	1730.53
242.68	1697.77
242.89	1751.01
243.11	1751.01
243.33	1765.35
243.55	1757.16
243.76	1767.40
243.98	1722.34
244.20	1740.77
244.42	1726.44
244.64	1697.77
244.85	1701.86
245.07	1740.77
245.29	1767.40
245.51	1644.52
245.72	1712.10
245.94	1789.92
246.16	1710.05
246.38	1761.25
246.59	1685.48
246.81	1656.81
247.03	1662.95
247.24	1650.66
247.46	1724.39
247.68	1806.31
247.90	1720.29
248.11	1689.57
248.33	1761.25
248.55	1761.25
248.77	1718.25
248.98	1763.30
249.20	1832.93
249.42	1734.63
249.64	1728.49
249.85	1679.33
250.07	1675.24
250.29	1728.49
250.50	1767.40
250.72	1628.14
250.94	1689.57
251.16	1880.04
251.37	1695.72
251.59	1705.96
251.81	1726.44
252.02	1849.32
252.24	1710.05
252.46	1781.73
252.68	1728.49
252.89	1673.19
253.11	1685.48
253.33	1849.32
253.54	1783.78
253.76	1650.66
253.98	1705.96
254.20	1742.82
254.41	1593.32
254.63	1724.39
254.85	1665.00
255.06	1677.29
255.28	1767.40
255.50	1689.57
255.71	1673.19
255.93	1650.66
256.15	1679.33
256.36	1775.59
256.58	1699.81
256.80	1755.11
257.02	1669.09
257.23	1701.86
257.45	1810.40
257.67	1808.36
257.88	1615.85
258.10	1716.20
258.32	1755.11
258.53	1755.11
258.75	1728.49
258.97	1634.28
259.18	1621.99
259.40	1699.81
259.62	1759.21
259.83	1769.44
260.05	1734.63
260.27	1959.91
260.48	1771.49
260.70	1669.09
260.92	1804.26
261.13	1820.64
261.35	1660.90
261.57	1693.67
261.78	1605.61
262.00	1730.53
262.22	1843.17
262.43	1677.29
262.65	1667.05
262.86	1775.59
263.08	1861.60
263.30	1751.01
263.51	1636.33
263.73	1718.25
263.95	1777.64
264.16	1722.34
264.38	1787.88
264.60	1763.30
264.81	1722.34
265.03	1746.92
265.25	1718.25
265.46	1656.81
265.68	1806.31
265.89	1763.30
266.11	1656.81
266.33	1701.86
266.54	1816.55
266.76	1689.57
266.98	1734.63
267.19	1787.88
267.41	1652.71
267.62	1759.21
267.84	1636.33
268.06	1714.15
268.27	1705.96
268.49	1740.77
268.70	1787.88
268.92	1734.63
269.14	1667.05
269.35	1683.43
269.57	1789.92
269.79	1771.49
270.00	1708.01
270.22	1796.07
270.43	1705.96
270.65	1607.66
270.87	1665.00
271.08	1800.16
271.30	1828.84
271.51	1736.68
271.73	1796.07
271.95	1808.36
272.16	1660.90
272.38	1736.68
272.59	1775.59
272.81	1763.30
273.02	1789.92
273.24	1730.53
273.46	1705.96
273.67	1740.77
273.89	1621.99
274.10	1648.61
274.32	1773.54
274.54	1691.62
274.75	1687.53
274.97	1656.81
275.18	1720.29
275.40	1746.92
275.61	1642.47
275.83	1761.25
276.05	1642.47
276.26	1681.38
276.48	1787.88
276.69	1652.71
276.91	1722.34
277.12	1834.98
277.34	1748.97
277.55	1783.78
277.77	1783.78
277.99	1673.19
278.20	1703.91
278.42	1732.58
278.63	1611.75
278.85	1705.96
279.06	1669.09
279.28	1685.48
279.49	1744.87
279.71	1871.84
279.93	1658.85
280.14	1746.92
280.36	1644.52
280.57	1789.92
280.79	1726.44
281.00	1730.53
281.22	1683.43
281.43	1746.92
281.65	1595.37
281.86	1660.90
282.08	1824.74
282.29	1837.03
282.51	1624.04
282.73	1626.09
282.94	1642.47
283.16	1753.06
283.37	1767.40
283.59	1761.25
283.80	1748.97
284.02	1734.63
284.23	1751.01
284.45	1660.90
284.66	1716.20
284.88	1730.53
285.09	1718.25
285.31	1771.49
285.52	1728.49
285.74	1591.27
285.95	1726.44
286.17	1751.01
286.38	1746.92
286.60	1705.96
286.81	1699.81
287.03	1712.10
287.24	1718.25
287.46	1708.01
287.67	1712.10
287.89	1804.26
288.10	1656.81
288.32	1742.82
288.53	1832.93
288.75	1720.29
288.96	1712.10
289.18	1726.44
289.39	1708.01
289.61	1753.06
289.82	1837.03
290.04	1875.94
290.25	1685.48
290.47	1646.57
290.68	1683.43
290.90	1808.36
291.11	1669.09
291.33	1859.56
291.54	1638.38
291.76	1642.47
291.97	1724.39
292.18	1738.73
292.40	1681.38
292.61	1679.33
292.83	1882.08
293.04	1800.16
293.26	1671.14
293.47	1675.24
293.69	1679.33
293.90	1699.81
294.12	1791.97
294.33	1648.61
294.55	1677.29
294.76	1763.30
294.97	1781.73
295.19	1861.60
295.40	1736.68
295.62	1712.10
295.83	1738.73
296.05	1699.81
296.26	1740.77
296.48	1699.81
296.69	1794.02
296.90	1662.95
297.12	1777.64
297.33	1705.96
297.55	1703.91
297.76	1722.34
297.98	1701.86
298.19	1751.01
298.41	1716.20
298.62	1683.43
298.83	1785.83
299.05	1703.91
299.26	1665.00
299.48	1689.57
299.69	1742.82
299.90	1699.81
300.12	1587.18
300.33	1736.68
300.55	1720.29
300.76	1742.82
300.98	1648.61
301.19	1818.60
301.40	1693.67
301.62	1791.97
301.83	1703.91
302.05	1693.67
302.26	1712.10
302.47	1730.53
302.69	1677.29
302.90	1746.92
303.12	1519.59
303.33	1740.77
303.54	1740.77
303.76	1744.87
303.97	1703.91
304.19	1771.49
304.40	1630.18
304.61	1734.63
304.83	1847.27
305.04	1738.73
305.26	1716.20
305.47	1648.61
305.68	1740.77
305.90	1632.23
306.11	1779.68
306.33	1689.57
306.54	1720.29
306.75	1658.85
306.97	1599.46
307.18	1697.77
307.39	1746.92
307.61	1701.86
307.82	1722.34
308.04	1802.21
308.25	1654.76
308.46	1714.15
308.68	1732.58
308.89	1732.58
309.10	1728.49
309.32	1701.86
309.53	1634.28
309.74	1738.73
309.96	1691.62
310.17	1771.49
310.39	1724.39
310.60	1724.39
310.81	1689.57
311.03	1667.05
311.24	1714.15
311.45	1697.77
311.67	1822.69
311.88	1705.96
312.09	1660.90
312.31	1718.25
312.52	1730.53
312.73	1671.14
312.95	1658.85
313.16	1742.82
313.37	1806.31
313.59	1712.10
313.80	1746.92
314.01	1845.22
314.23	1662.95
314.44	1710.05
314.65	1634.28
314.87	1626.09
315.08	1677.29
315.29	1783.78
315.51	1662.95
315.72	1646.57
315.93	1798.12
316.15	1800.16
316.36	1720.29
316.57	1683.43
316.79	1791.97
317.00	1695.72
317.21	1755.11
317.43	1675.24
317.64	1701.86
317.85	1671.14
318.07	1687.53
318.28	1771.49
318.49	1859.56
318.70	1865.70
318.92	1822.69
319.13	1837.03
319.34	1888.23
319.56	1808.36
319.77	1789.92
319.98	1781.73
320.20	1794.02
320.41	1839.08
320.62	1701.86
320.83	1636.33
321.05	1890.28
321.26	1658.85
321.47	1769.44
321.69	1818.60
321.90	1632.23
322.11	1671.14
322.32	1693.67
322.54	1789.92
322.75	1630.18
322.96	1783.78
323.18	1652.71
323.39	1595.37
323.60	1710.05
323.81	1779.68
324.03	1634.28
324.24	1759.21
324.45	1730.53
324.66	1710.05
324.88	1742.82
325.09	1767.40
325.30	1621.99
325.52	1714.15
325.73	1757.16
325.94	1714.15
326.15	1585.13
326.37	1667.05
326.58	1761.25
326.79	1800.16
327.00	1685.48
327.22	1673.19
327.43	1759.21
327.64	1607.66
327.85	1708.01
328.07	1705.96
328.28	1804.26
328.49	1636.33
328.70	1697.77
328.92	1730.53
329.13	1710.05
329.34	1748.97
329.55	1769.44
329.76	1751.01
329.98	1693.67
330.19	1822.69
330.40	1726.44
330.61	1730.53
330.83	1820.64
331.04	1714.15
331.25	1738.73
331.46	1779.68
331.68	1638.38
331.89	1826.79
332.10	1789.92
332.31	1656.81
332.52	1697.77
332.74	1869.80
332.95	1640.42
333.16	1677.29
333.37	1714.15
333.58	1679.33
333.80	1759.21
334.01	1683.43
334.22	1624.04
334.43	1636.33
334.64	1722.34
334.86	1658.85
335.07	1728.49
335.28	1767.40
335.49	1642.47
335.70	1794.02
335.92	1724.39
336.13	1861.60
336.34	1738.73
336.55	1724.39
336.76	1771.49
336.98	1574.89
337.19	1650.66
337.40	1763.30
337.61	1822.69
337.82	1656.81
338.04	1771.49
338.25	1630.18
338.46	1681.38
338.67	1693.67
338.88	1669.09
339.09	1634.28
339.31	1693.67
339.52	1697.77
339.73	1662.95
339.94	1708.01
340.15	1814.50
340.36	1718.25
340.58	1751.01
340.79	1632.23
341.00	1789.92
341.21	1697.77
341.42	1841.12
341.63	1689.57
341.85	1759.21
342.06	1724.39
342.27	1677.29
342.48	1665.00
342.69	1656.81
342.90	1744.87
343.12	1775.59
343.33	1703.91
343.54	1708.01
343.75	1773.54
343.96	1732.58
344.17	1648.61
344.38	1669.09
344.60	1619.94
344.81	1619.94
345.02	1757.16
345.23	1765.35
345.44	1851.36
345.65	1837.03
345.86	1701.86
346.07	1724.39
346.29	1730.53
346.50	1746.92
346.71	1847.27
346.92	1763.30
347.13	1779.68
347.34	1683.43
347.55	1716.20
347.76	1742.82
347.98	1613.80
348.19	1656.81
348.40	1820.64
348.61	1669.09
348.82	1849.32
349.03	1800.16
349.24	1652.71
349.45	1800.16
349.66	1519.59
349.88	1761.25
350.09	1656.81
350.30	1771.49
350.51	1810.40
350.72	1712.10
350.93	1705.96
351.14	1650.66
351.35	1714.15
351.56	1720.29
351.77	1642.47
351.99	1794.02
352.20	1830.88
352.41	1742.82
352.62	1599.46
352.83	1759.21
353.04	1726.44
353.25	1724.39
353.46	1796.07
353.67	1834.98
353.88	1630.18
354.09	1753.06
354.30	1726.44
354.52	1816.55
354.73	1755.11
354.94	1703.91
355.15	1779.68
355.36	1880.04
355.57	1656.81
355.78	1708.01
355.99	1705.96
356.20	1673.19
356.41	1806.31
356.62	1685.48
356.83	1722.34
357.04	1755.11
357.25	1665.00
357.46	1681.38
357.68	1650.66
357.89	1689.57
358.10	1775.59
358.31	1734.63
358.52	1677.29
358.73	1656.81
358.94	1691.62
359.15	1685.48
359.36	1705.96
359.57	1759.21
359.78	1656.81
359.99	1785.83
360.20	1630.18
360.41	1667.05
360.62	1634.28
360.83	1763.30
361.04	1718.25
361.25	1724.39
361.46	1869.80
361.67	1890.28
361.88	1744.87
362.09	1824.74
362.30	1753.06
362.51	1679.33
362.72	1724.39
362.93	1767.40
363.14	1865.70
363.35	1699.81
363.56	1695.72
363.78	1773.54
363.99	1783.78
364.20	1734.63
364.41	1718.25
364.62	1728.49
364.83	1718.25
365.04	1710.05
365.25	1632.23
365.46	1890.28
365.67	1685.48
365.88	1589.22
366.09	1705.96
366.30	1720.29
366.51	1677.29
366.72	1703.91
366.93	1679.33
367.14	1703.91
367.35	1914.85
367.56	1695.72
367.77	1767.40
367.98	1720.29
368.18	1734.63
368.39	1742.82
368.60	1695.72
368.81	1748.97
369.02	1693.67
369.23	1701.86
369.44	1656.81
369.65	1679.33
369.86	1783.78
370.07	1763.30
370.28	1683.43
370.49	1705.96
370.70	1796.07
370.91	1650.66
371.12	1691.62
371.33	1763.30
371.54	1675.24
371.75	1814.50
371.96	1609.70
372.17	1697.77
372.38	1722.34
372.59	1761.25
372.80	1695.72
373.01	1726.44
373.22	1705.96
373.43	1603.56
373.64	1632.23
373.85	1816.55
374.06	1847.27
374.26	1716.20
374.47	1761.25
374.68	1722.34
374.89	1781.73
375.10	1708.01
375.31	1753.06
375.52	1658.85
375.73	1751.01
375.94	1675.24
376.15	1738.73
376.36	1730.53
376.57	1693.67
376.78	1675.24
376.99	1761.25
377.20	1814.50
377.40	1720.29
377.61	1814.50
377.82	1667.05
378.03	1810.40
378.24	1802.21
378.45	1703.91
378.66	1693.67
378.87	1607.66
379.08	1591.27
379.29	1714.15
379.50	1757.16
379.71	1683.43
379.91	1726.44
380.12	1667.05
380.33	1714.15
380.54	1705.96
380.75	1646.57
380.96	1673.19
381.17	1708.01
381.38	1675.24
381.59	1697.77
381.80	1789.92
382.00	1859.56
382.21	1734.63
382.42	1933.28
382.63	1855.46
382.84	1800.16
383.05	1839.08
383.26	1812.45
383.47	1712.10
383.68	1755.11
383.88	1765.35
384.09	1769.44
384.30	1806.31
384.51	1742.82
384.72	1701.86
384.93	1560.55
385.14	1714.15
385.35	1736.68
385.55	1652.71
385.76	1832.93
385.97	1724.39
386.18	1652.71
386.39	1667.05
386.60	1724.39
386.81	1703.91
387.02	1673.19
387.22	1693.67
387.43	1787.88
387.64	1851.36
387.85	1861.60
388.06	2166.75
388.27	4239.30
388.48	6809.50
388.68	8316.80
388.89	9645.93
389.10	9899.88
389.31	8554.37
389.52	7612.30
389.73	6635.42
389.93	6387.61
390.14	5846.95
390.35	5326.77
390.56	4558.78
390.77	3796.93
390.98	3049.43
391.18	2553.82
391.39	2148.32
391.60	1896.42
391.81	1959.91
392.02	1742.82
392.23	1847.27
392.43	1705.96
392.64	1791.97
392.85	1736.68
393.06	1845.22
393.27	1734.63
393.47	1660.90
393.68	1701.86
393.89	1734.63
394.10	1837.03
394.31	1671.14
394.52	1656.81
394.72	1626.09
394.93	1787.88
395.14	1759.21
395.35	1740.77
395.56	1652.71
395.76	1740.77
395.97	1771.49
396.18	1865.70
396.39	1816.55
396.60	2056.16
396.80	1898.47
397.01	1832.93
397.22	1925.09
397.43	1845.22
397.64	1724.39
397.84	1800.16
398.05	1886.18
398.26	1779.68
398.47	1830.88
398.67	1837.03
398.88	1738.73
399.09	1708.01
399.30	1703.91
399.51	1738.73
399.71	1609.70
399.92	1742.82
400.13	1691.62
400.34	1732.58
400.54	1734.63
400.75	1746.92
400.96	1746.92
401.17	1779.68
401.37	1794.02
401.58	1720.29
401.79	1705.96
402.00	1830.88
402.21	2019.30
402.41	1957.86
402.62	2000.87
402.83	2025.44
403.04	1994.72
403.24	1980.39
403.45	1837.03
403.66	1910.75
403.87	1875.94
404.07	1867.75
404.28	1894.37
404.49	1894.37
404.70	1826.79
404.90	1808.36
405.11	1822.69
405.32	1824.74
405.52	1730.53
405.73	1730.53
405.94	1687.53
406.15	1714.15
406.35	1701.86
406.56	1744.87
406.77	1699.81
406.98	1769.44
407.18	1736.68
407.39	1869.80
407.60	1701.86
407.80	1751.01
408.01	1705.96
408.22	1763.30
408.43	1701.86
408.63	1732.58
408.84	1777.64
409.05	1882.08
409.25	1703.91
409.46	1701.86
409.67	1687.53
409.88	1742.82
410.08	1656.81
410.29	1714.15
410.50	1775.59
410.70	1722.34
410.91	1720.29
411.12	1705.96
411.32	1671.14
411.53	1716.20
411.74	1794.02
411.95	1800.16
412.15	1779.68
412.36	1728.49
412.57	1759.21
412.77	1767.40
412.98	1728.49
413.19	1722.34
413.39	1773.54
413.60	1820.64
413.81	1863.65
414.01	1628.14
414.22	1736.68
414.43	1732.58
414.63	1710.05
414.84	1783.78
415.05	1705.96
415.25	1697.77
415.46	1734.63
415.67	1697.77
415.87	1722.34
416.08	1755.11
416.29	1738.73
416.49	1734.63
416.70	1757.16
416.91	1626.09
417.11	1744.87
417.32	1724.39
417.53	1742.82
417.73	1767.40
417.94	1732.58
418.15	1738.73
418.35	1609.70
418.56	1712.10
418.77	1914.85
418.97	1687.53
419.18	1695.72
419.38	1578.98
419.59	1730.53
419.80	1830.88
420.00	1689.57
420.21	1798.12
420.42	1732.58
420.62	1724.39
420.83	1640.42
421.04	1650.66
421.24	1693.67
421.45	1626.09
421.65	1753.06
421.86	1695.72
422.07	1724.39
422.27	1761.25
422.48	1699.81
422.69	1585.13
422.89	1679.33
423.10	1722.34
423.30	1697.77
423.51	1736.68
423.72	1742.82
423.92	1755.11
424.13	1654.76
424.33	1722.34
424.54	1753.06
424.75	1738.73
424.95	1861.60
425.16	1816.55
425.36	1740.77
425.57	1812.45
425.78	1687.53
425.98	1726.44
426.19	1734.63
426.39	1671.14
426.60	1779.68
426.81	1785.83
427.01	1710.05
427.22	1673.19
427.42	1621.99
427.63	1652.71
427.83	1820.64
428.04	1859.56
428.25	1787.88
428.45	1751.01
428.66	1816.55
428.86	1689.57
429.07	1759.21
429.28	1716.20
429.48	1683.43
429.69	1705.96
429.89	1804.26
430.10	1648.61
430.30	1720.29
430.51	1740.77
430.71	1718.25
430.92	1691.62
431.13	1689.57
431.33	1773.54
431.54	1722.34
431.74	1855.46
431.95	1851.36
432.15	1728.49
432.36	1710.05
432.56	1810.40
432.77	1818.60
432.98	1863.65
433.18	1759.21
433.39	1699.81
433.59	1677.29
433.80	1804.26
434.00	1884.13
434.21	1689.57
434.41	1679.33
434.62	1869.80
434.82	1701.86
435.03	1718.25
435.23	1785.83
435.44	1624.04
435.64	1712.10
435.85	1726.44
436.06	1824.74
436.26	1779.68
436.47	1763.30
436.67	1673.19
436.88	1718.25
437.08	1763.30
437.29	1814.50
437.49	1742.82
437.70	1738.73
437.90	1765.35
438.11	1843.17
438.31	1816.55
438.52	1847.27
438.72	1857.51
438.93	1804.26
439.13	1837.03
439.34	1771.49
439.54	1699.81
439.75	1697.77
439.95	1796.07
440.16	1689.57
440.36	1779.68
440.57	1814.50
440.77	1783.78
440.98	1757.16
441.18	1714.15
441.39	1814.50
441.59	1632.23
441.80	1773.54
442.00	1730.53
442.21	1814.50
442.41	1675.24
442.62	1861.60
442.82	1714.15
443.02	1740.77
443.23	1757.16
443.43	1701.86
443.64	1796.07
443.84	1734.63
444.05	1771.49
444.25	1755.11
444.46	1763.30
444.66	1783.78
444.87	1820.64
445.07	1609.70
445.28	1695.72
445.48	1871.84
445.69	1710.05
445.89	1900.52
446.09	1896.42
446.30	1964.00
446.50	2723.80
446.71	3696.58
446.91	4343.74
447.12	4792.25
447.32	4878.26
447.53	4335.55
447.73	3938.24
447.93	3493.83
448.14	3360.72
448.34	3266.51
448.55	2975.70
448.75	2889.68
448.96	2738.13
449.16	2463.71
449.36	2256.86
449.57	2146.27
449.77	1925.09
449.98	1785.83
450.18	1767.40
450.39	1828.84
450.59	1800.16
450.79	1789.92
451.00	1769.44
451.20	1736.68
451.41	1685.48
451.61	1779.68
451.81	1675.24
452.02	1679.33
452.22	1720.29
452.43	1673.19
452.63	1685.48
452.84	1714.15
453.04	1798.12
453.24	1724.39
453.45	1796.07
453.65	1742.82
453.86	1751.01
454.06	1800.16
454.26	1779.68
454.47	1615.85
454.67	1816.55
454.87	1773.54
455.08	1638.38
455.28	1822.69
455.49	1765.35
455.69	1677.29
455.89	1845.22
456.10	1877.99
456.30	1697.77
456.51	1800.16
456.71	1755.11
456.91	1714.15
457.12	1718.25
457.32	1738.73
457.52	1697.77
457.73	1714.15
457.93	1740.77
458.14	1761.25
458.34	1634.28
458.54	1734.63
458.75	1734.63
458.95	1841.12
459.15	1724.39
459.36	1787.88
459.56	1693.67
459.76	1798.12
459.97	1746.92
460.17	1779.68
460.37	1849.32
460.58	1738.73
460.78	1779.68
460.99	1697.77
461.19	1789.92
461.39	1718.25
461.60	1732.58
461.80	1810.40
462.00	1677.29
462.21	1748.97
462.41	1662.95
462.61	1669.09
462.82	1652.71
463.02	1742.82
463.22	1728.49
463.43	1857.51
463.63	1822.69
463.83	1837.03
464.04	1765.35
464.24	1736.68
464.44	1726.44
464.64	1785.83
464.85	1794.02
465.05	1839.08
465.25	1759.21
465.46	1777.64
465.66	1728.49
465.86	1742.82
466.07	1757.16
466.27	1662.95
466.47	1695.72
466.68	1720.29
466.88	1781.73
467.08	1787.88
467.29	1841.12
467.49	1783.78
467.69	1705.96
467.89	1781.73
468.10	1667.05
468.30	1734.63
468.50	1824.74
468.71	1751.01
468.91	1695.72
469.11	1808.36
469.31	1712.10
469.52	1734.63
469.72	1783.78
469.92	1892.32
470.13	1730.53
470.33	1775.59
470.53	1830.88
470.73	2131.94
470.94	2263.01
471.14	2295.77
471.34	2648.02
471.54	2357.21
471.75	2318.30
471.95	2191.33
472.15	2070.50
472.36	2140.13
472.56	2062.30
472.76	2068.45
472.96	2054.11
473.17	1886.18
473.37	1861.60
473.57	1798.12
473.77	1851.36
473.98	1767.40
474.18	1718.25
474.38	1927.14
474.58	1683.43
474.79	1638.38
474.99	1701.86
475.19	1734.63
475.39	1689.57
475.60	1712.10
475.80	1751.01
476.00	1755.11
476.20	1751.01
476.41	1798.12
476.61	1777.64
476.81	1798.12
477.01	1681.38
477.21	1896.42
477.42	1751.01
477.62	1669.09
477.82	1816.55
478.02	1724.39
478.23	1716.20
478.43	1689.57
478.63	1683.43
478.83	1785.83
479.03	1718.25
479.24	1822.69
479.44	1843.17
479.64	1703.91
479.84	1591.27
480.04	1755.11
480.25	1794.02
480.45	1650.66
480.65	1701.86
480.85	1738.73
481.06	1675.24
481.26	1726.44
481.46	1687.53
481.66	1781.73
481.86	1675.24
482.06	1818.60
482.27	1734.63
482.47	1783.78
482.67	1816.55
482.87	1716.20
483.07	1800.16
483.28	1669.09
483.48	1665.00
483.68	1710.05
483.88	1691.62
484.08	1544.17
484.29	1669.09
484.49	1738.73
484.69	1703.91
484.89	1775.59
485.09	1830.88
485.29	1730.53
485.50	1769.44
485.70	1714.15
485.90	1830.88
486.10	1771.49
486.30	1802.21
486.50	1832.93
486.71	1820.64
486.91	1804.26
487.11	1802.21
487.31	1634.28
487.51	1806.31
487.71	1720.29
487.91	1681.38
488.12	1751.01
488.32	1634.28
488.52	1800.16
488.72	1634.28
488.92	1746.92
489.12	1773.54
489.32	1751.01
489.53	1796.07
489.73	1685.48
489.93	1834.98
490.13	1667.05
490.33	1681.38
490.53	1802.21
490.73	1851.36
490.94	1669.09
491.14	1855.46
491.34	1753.06
491.54	2168.80
491.74	2490.33
491.94	2887.64
492.14	2996.18
492.34	3000.27
492.54	2754.52
492.75	2441.18
492.95	2432.99
493.15	2334.68
493.35	2250.72
493.55	2205.66
493.75	2131.94
493.95	2131.94
494.15	1968.10
494.35	1904.61
494.56	1902.56
494.76	1740.77
494.96	1773.54
495.16	1765.35
495.36	1755.11
495.56	1806.31
495.76	1705.96
495.96	1732.58
496.16	1681.38
496.36	1845.22
496.56	1675.24
496.77	1650.66
496.97	1720.29
497.17	1824.74
497.37	1673.19
497.57	1787.88
497.77	1742.82
497.97	1689.57
498.17	1724.39
498.37	1775.59
498.57	1740.77
498.77	1695.72
498.97	1820.64
499.17	1802.21
499.38	1736.68
499.58	1703.91
499.78	1781.73
499.98	1824.74
500.18	1660.90
500.38	1648.61
500.58	1933.28
500.78	2621.40
500.98	4618.17
501.18	5902.25
501.38	6877.08
501.58	7190.42
501.78	6721.43
501.98	5564.33
502.18	4999.09
502.38	4468.67
502.58	4100.03
502.78	3903.43
502.98	3696.58
503.18	3430.35
503.38	3180.50
503.59	2803.67
503.79	2697.17
503.99	2490.33
504.19	2291.68
504.39	2207.71
504.59	2238.43
504.79	2115.55
504.99	2029.54
505.19	1845.22
505.39	1904.61
505.59	1941.47
505.79	1863.65
505.99	1871.84
506.19	1820.64
506.39	1839.08
506.59	1771.49
506.79	1736.68
506.99	1857.51
507.19	1748.97
507.39	1767.40
507.59	1658.85
507.79	1689.57
507.99	1708.01
508.19	1738.73
508.39	1710.05
508.59	1730.53
508.79	1851.36
508.99	1892.32
509.19	1632.23
509.39	1708.01
509.59	1740.77
509.79	1710.05
509.99	1773.54
510.19	1787.88
510.39	1800.16
510.59	1767.40
510.79	1673.19
510.99	1609.70
511.19	1785.83
511.39	1877.99
511.59	1755.11
511.79	1816.55
511.99	1779.68
512.19	1806.31
512.38	1746.92
512.58	1746.92
512.78	1642.47
512.98	1886.18
513.18	1812.45
513.38	1658.85
513.58	1818.60
513.78	1718.25
513.98	1693.67
514.18	1861.60
514.38	1769.44
514.58	1804.26
514.78	1648.61
514.98	1732.58
515.18	1699.81
515.38	1714.15
515.58	1873.89
515.78	1708.01
515.98	1708.01
516.18	1839.08
516.38	1710.05
516.57	1687.53
516.77	1726.44
516.97	1814.50
517.17	1665.00
517.37	1660.90
517.57	1732.58
517.77	1738.73
517.97	1710.05
518.17	1890.28
518.37	1732.58
518.57	1681.38
518.77	1695.72
518.97	1724.39
519.16	1761.25
519.36	1832.93
519.56	1695.72
519.76	1734.63
519.96	1683.43
520.16	1806.31
520.36	1714.15
520.56	1892.32
520.76	1656.81
520.96	1794.02
521.16	1806.31
521.35	1798.12
521.55	1800.16
521.75	1867.75
521.95	1648.61
522.15	1673.19
522.35	1640.42
522.55	1722.34
522.75	1689.57
522.95	1648.61
523.14	1693.67
523.34	1765.35
523.54	1771.49
523.74	1804.26
523.94	1779.68
524.14	1689.57
524.34	1708.01
524.54	1769.44
524.73	1697.77
524.93	1748.97
525.13	1875.94
525.33	1757.16
525.53	1951.71
525.73	1826.79
525.93	1677.29
526.13	1714.15
526.32	1667.05
526.52	1757.16
526.72	1861.60
526.92	1794.02
527.12	1728.49
527.32	1708.01
527.52	1691.62
527.71	1699.81
527.91	1794.02
528.11	1695.72
528.31	1771.49
528.51	1687.53
528.71	1794.02
528.90	1761.25
529.10	1830.88
529.30	1865.70
529.50	1630.18
529.70	1820.64
529.90	1710.05
530.09	1779.68
530.29	1665.00
530.49	1656.81
530.69	1818.60
530.89	1755.11
531.09	1845.22
531.28	1687.53
531.48	1841.12
531.68	1726.44
531.88	1695.72
532.08	1759.21
532.28	1773.54
532.47	1742.82
532.67	1757.16
532.87	1814.50
533.07	1667.05
533.27	1755.11
533.46	1814.50
533.66	1869.80
533.86	1665.00
534.06	1695.72
534.26	1837.03
534.45	1705.96
534.65	1753.06
534.85	1759.21
535.05	1689.57
535.25	1757.16
535.44	1615.85
535.64	1794.02
535.84	1708.01
536.04	1720.29
536.24	1669.09
536.43	1708.01
536.63	1802.21
536.83	1726.44
537.03	1816.55
537.22	1644.52
537.42	1695.72
537.62	1775.59
537.82	1630.18
538.02	1806.31
538.21	1832.93
538.41	1933.28
538.61	1806.31
538.81	1726.44
539.00	1759.21
539.20	1617.90
539.40	1695.72
539.60	1701.86
539.79	1761.25
539.99	1775.59
540.19	1595.37
540.39	1773.54
540.58	1830.88
540.78	1861.60
540.98	1814.50
541.18	1767.40
541.37	1849.32
541.57	1789.92
541.77	1742.82
541.97	1728.49
542.16	1662.95
542.36	1759.21
542.56	1843.17
542.76	1847.27
542.95	1900.52
543.15	1771.49
543.35	1777.64
543.54	1697.77
543.74	1681.38
543.94	1877.99
544.14	1654.76
544.33	1783.78
544.53	1730.53
544.73	1681.38
544.93	1728.49
545.12	1730.53
545.32	1820.64
545.52	1710.05
545.71	1652.71
545.91	1740.77
546.11	1710.05
546.30	1701.86
546.50	1705.96
546.70	1800.16
546.90	1783.78
547.09	1654.76
547.29	1777.64
547.49	1787.88
547.68	1763.30
547.88	1611.75
548.08	1720.29
548.27	2230.24
548.47	1738.73
548.67	1683.43
548.87	1742.82
549.06	1744.87
549.26	1689.57
549.46	1779.68
549.65	1681.38
549.85	1812.45
550.05	1839.08
550.24	1705.96
550.44	1769.44
550.64	1738.73
550.83	1738.73
551.03	1820.64
551.23	1828.84
551.42	1806.31
551.62	1771.49
551.82	1736.68
552.01	1701.86
552.21	1771.49
552.41	1732.58
552.60	1800.16
552.80	1773.54
553.00	1720.29
553.19	1720.29
553.39	1769.44
553.59	1673.19
553.78	1744.87
553.98	1738.73
554.17	1701.86
554.37	1765.35
554.57	1718.25
554.76	1689.57
554.96	1712.10
555.16	1759.21
555.35	1677.29
555.55	1814.50
555.75	1779.68
555.94	1771.49
556.14	1656.81
556.33	1814.50
556.53	1689.57
556.73	1714.15
556.92	1746.92
557.12	1865.70
557.32	1816.55
557.51	1820.64
557.71	1755.11
557.90	1771.49
558.10	1859.56
558.30	1734.63
558.49	1726.44
558.69	1708.01
558.88	1810.40
559.08	1779.68
559.28	1779.68
559.47	1732.58
559.67	1871.84
559.86	1888.23
560.06	1732.58
560.26	1796.07
560.45	1734.63
560.65	1734.63
560.84	1800.16
561.04	1798.12
561.24	1777.64
561.43	1693.67
561.63	1853.41
561.82	1804.26
562.02	1816.55
562.22	1675.24
562.41	1697.77
562.61	1763.30
562.80	1705.96
563.00	1908.71
563.19	1748.97
563.39	1822.69
563.59	1767.40
563.78	1736.68
563.98	1662.95
564.17	1703.91
564.37	1660.90
564.56	1771.49
564.76	1779.68
564.96	1806.31
565.15	1738.73
565.35	1843.17
565.54	1744.87
565.74	1791.97
565.93	1712.10
566.13	1800.16
566.32	1796.07
566.52	1748.97
566.71	1816.55
566.91	1794.02
567.11	1716.20
567.30	1783.78
567.50	1806.31
567.69	1738.73
567.89	1757.16
568.08	1683.43
568.28	1759.21
568.47	1736.68
568.67	1759.21
568.86	1755.11
569.06	1785.83
569.25	1822.69
569.45	1681.38
569.64	1683.43
569.84	1693.67
570.04	1808.36
570.23	1695.72
570.43	1796.07
570.62	1771.49
570.82	1814.50
571.01	1716.20
571.21	1787.88
571.40	1736.68
571.60	1744.87
571.79	1767.40
571.99	1781.73
572.18	1685.48
572.38	1718.25
572.57	1703.91
572.77	1818.60
572.96	1937.38
573.16	1767.40
573.35	1691.62
573.55	1851.36
573.74	1759.21
573.94	1724.39
574.13	1714.15
574.33	1771.49
574.52	1802.21
574.71	1751.01
574.91	1759.21
575.10	1689.57
575.30	1710.05
575.49	1662.95
575.69	1673.19
575.88	1781.73
576.08	1679.33
576.27	1808.36
576.47	1712.10
576.66	1834.98
576.86	1816.55
577.05	1767.40
577.25	1812.45
577.44	1818.60
577.64	1753.06
577.83	1783.78
578.02	1720.29
578.22	1869.80
578.41	1814.50
578.61	1693.67
578.80	1710.05
579.00	1837.03
579.19	1732.58
579.39	1892.32
579.58	1806.31
579.77	1732.58
579.97	1808.36
580.16	1824.74
580.36	1834.98
580.55	1853.41
580.75	1726.44
580.94	1718.25
581.13	1800.16
581.33	1816.55
581.52	1757.16
581.72	1908.71
581.91	1839.08
582.11	1748.97
582.30	1763.30
582.49	1787.88
582.69	1939.43
582.88	1746.92
583.08	1826.79
583.27	1816.55
583.47	1753.06
583.66	1742.82
583.85	1771.49
584.05	1763.30
584.24	1787.88
584.44	1759.21
584.63	1822.69
584.82	1796.07
585.02	1861.60
585.21	1787.88
585.41	1890.28
585.60	1804.26
585.79	1927.14
585.99	1886.18
586.18	1877.99
586.37	2295.77
586.57	3409.87
586.76	9951.08
586.96	25017.99
587.15	34792.94
587.34	40641.94
587.54	42460.54
587.73	37041.61
587.93	26490.48
588.12	21823.16
588.31	18497.25
588.51	16576.26
588.70	15159.06
588.89	14245.67
589.09	12805.95
589.28	11243.35
589.47	9441.14
589.67	8040.33
589.86	6539.16
590.06	4841.40
590.25	3850.18
590.44	3192.78
590.64	2641.88
590.83	2222.05
591.02	2152.42
591.22	1947.62
591.41	1931.23
591.60	1802.21
591.80	2050.02
591.99	1755.11
592.18	1736.68
592.38	1886.18
592.57	1765.35
592.76	1763.30
592.96	1781.73
593.15	1738.73
593.34	1855.46
593.54	1740.77
593.73	1791.97
593.92	1765.35
594.12	1753.06
594.31	1748.97
594.50	1902.56
594.70	1781.73
594.89	1851.36
595.08	1705.96
595.28	1820.64
595.47	1886.18
595.66	1710.05
595.86	1740.77
596.05	1689.57
596.24	1734.63
596.43	1890.28
596.63	1789.92
596.82	1744.87
597.01	1769.44
597.21	1787.88
597.40	1736.68
597.59	1744.87
597.79	1837.03
597.98	1871.84
598.17	1789.92
598.36	1699.81
598.56	1798.12
598.75	1742.82
598.94	1818.60
599.14	1755.11
599.33	1794.02
599.52	1785.83
599.71	1646.57
599.91	1861.60
600.10	1843.17
600.29	1755.11
600.48	1787.88
600.68	1744.87
600.87	1824.74
601.06	1740.77
601.26	1708.01
601.45	1773.54
601.64	1693.67
601.83	1841.12
602.03	1710.05
602.22	1697.77
602.41	1748.97
602.60	1882.08
602.80	1796.07
602.99	1751.01
603.18	1636.33
603.37	1742.82
603.57	1810.40
603.76	1742.82
603.95	1804.26
604.14	1691.62
604.34	1724.39
604.53	1767.40
604.72	1722.34
604.91	1812.45
605.10	1763.30
605.30	1710.05
605.49	1920.99
605.68	1820.64
605.87	1748.97
606.07	1773.54
606.26	1724.39
606.45	1769.44
606.64	1720.29
606.84	1730.53
607.03	1677.29
607.22	1812.45
607.41	1646.57
607.60	1781.73
607.80	1837.03
607.99	1748.97
608.18	1736.68
608.37	1783.78
608.56	1726.44
608.76	1787.88
608.95	1800.16
609.14	1705.96
609.33	1796.07
609.52	1794.02
609.72	1679.33
609.91	1804.26
610.10	1822.69
610.29	1732.58
610.48	1791.97
610.68	1841.12
610.87	1718.25
611.06	1773.54
611.25	1689.57
611.44	1802.21
611.63	1703.91
611.83	1837.03
612.02	1626.09
612.21	1806.31
612.40	1673.19
612.59	1689.57
612.79	1720.29
612.98	1779.68
613.17	1837.03
613.36	1718.25
613.55	1845.22
613.74	1730.53
613.93	1689.57
614.13	1738.73
614.32	1789.92
614.51	1732.58
614.70	1687.53
614.89	1744.87
615.08	1769.44
615.28	2080.74
615.47	1662.95
615.66	1781.73
615.85	1708.01
616.04	1849.32
616.23	1734.63
616.42	1785.83
616.62	1765.35
616.81	1785.83
617.00	1740.77
617.19	1777.64
617.38	1777.64
617.57	1689.57
617.76	1759.21
617.95	1744.87
618.15	1671.14
618.34	1916.90
618.53	1662.95
618.72	1787.88
618.91	1849.32
619.10	1828.84
619.29	1734.63
619.48	1757.16
619.68	1665.00
619.87	1730.53
620.06	1648.61
620.25	1802.21
620.44	1730.53
620.63	1691.62
620.82	1777.64
621.01	1718.25
621.20	1703.91
621.39	1763.30
621.59	1777.64
621.78	1679.33
621.97	1701.86
622.16	1832.93
622.35	1691.62
622.54	1742.82
622.73	1779.68
622.92	1681.38
623.11	1837.03
623.30	1742.82
623.49	1761.25
623.68	1740.77
623.88	1798.12
624.07	1761.25
624.26	1734.63
624.45	1839.08
624.64	1665.00
624.83	1755.11
625.02	1701.86
625.21	1769.44
625.40	1759.21
625.59	1812.45
625.78	1710.05
625.97	1781.73
626.16	1808.36
626.35	1726.44
626.54	1716.20
626.74	1789.92
626.93	1703.91
627.12	1691.62
627.31	1828.84
627.50	1804.26
627.69	1804.26
627.88	1726.44
628.07	1759.21
628.26	1617.90
628.45	1697.77
628.64	1738.73
628.83	1769.44
629.02	1634.28
629.21	1775.59
629.40	1730.53
629.59	1693.67
629.78	1701.86
629.97	1746.92
630.16	1802.21
630.35	1791.97
630.54	1648.61
630.73	1624.04
630.92	1800.16
631.11	1703.91
631.30	1697.77
631.49	1724.39
631.68	1751.01
631.87	1683.43
632.06	1703.91
632.25	1849.32
632.44	1695.72
632.63	1777.64
632.82	1728.49
633.01	1644.52
633.20	1761.25
633.39	1697.77
633.58	1681.38
633.77	1691.62
633.96	1703.91
634.15	1826.79
634.34	1783.78
634.53	1685.48
634.72	1701.86
634.91	1662.95
635.10	1746.92
635.29	1888.23
635.48	1740.77
635.67	1728.49
635.86	1615.85
636.05	1791.97
636.24	1718.25
636.43	1812.45
636.62	1746.92
636.81	1609.70
637.00	1730.53
637.19	1740.77
637.38	1728.49
637.57	1755.11
637.76	1714.15
637.95	1757.16
638.14	1681.38
638.33	1771.49
638.52	1691.62
638.71	1583.08
638.89	1679.33
639.08	1818.60
639.27	1769.44
639.46	1665.00
639.65	1824.74
639.84	1738.73
640.03	1757.16
640.22	1691.62
640.41	1849.32
640.60	1671.14
640.79	1701.86
640.98	1665.00
641.17	1755.11
641.36	1740.77
641.55	1708.01
641.74	1722.34
641.92	1722.34
642.11	1648.61
642.30	1736.68
642.49	1705.96
642.68	1740.77
642.87	1773.54
643.06	1822.69
643.25	1675.24
643.44	1701.86
643.63	1724.39
643.82	1742.82
644.00	1705.96
644.19	1787.88
644.38	1667.05
644.57	1779.68
644.76	1746.92
644.95	1632.23
645.14	1705.96
645.33	1716.20
645.52	1763.30
645.71	1703.91
645.89	1751.01
646.08	1808.36
646.27	1722.34
646.46	1841.12
646.65	1556.46
646.84	1779.68
647.03	1691.62
647.22	1775.59
647.40	1818.60
647.59	1728.49
647.78	1628.14
647.97	1628.14
648.16	1808.36
648.35	1814.50
648.54	1769.44
648.73	1656.81
648.91	1783.78
649.10	1677.29
649.29	1644.52
649.48	1716.20
649.67	1724.39
649.86	1732.58
650.05	1660.90
650.23	1755.11
650.42	1636.33
650.61	1767.40
650.80	1767.40
650.99	1859.56
651.18	1806.31
651.36	1734.63
651.55	1726.44
651.74	1794.02
651.93	1665.00
652.12	1705.96
652.31	1755.11
652.49	1742.82
652.68	1660.90
652.87	1779.68
653.06	1699.81
653.25	1794.02
653.44	1708.01
653.62	1755.11
653.81	1656.81
654.00	1714.15
654.19	1796.07
654.38	1855.46
654.56	1767.40
654.75	1705.96
654.94	1738.73
655.13	1714.15
655.32	1771.49
655.51	1775.59
655.69	1669.09
655.88	1783.78
656.07	1658.85
656.26	1775.59
656.45	1636.33
656.63	1738.73
656.82	1738.73
657.01	1746.92
657.20	1732.58
657.38	1822.69
657.57	1722.34
657.76	1609.70
657.95	1847.27
658.14	1740.77
658.32	1742.82
658.51	1722.34
658.70	1810.40
658.89	1746.92
659.08	1738.73
659.26	1796.07
659.45	1693.67
659.64	1738.73
659.83	1681.38
660.01	1912.80
660.20	1718.25
660.39	1865.70
660.58	1593.32
660.76	1753.06
660.95	1710.05
661.14	1757.16
661.33	1669.09
661.51	1716.20
661.70	1746.92
661.89	1791.97
662.08	1769.44
662.26	1583.08
662.45	1675.24
662.64	1845.22
662.83	1765.35
663.01	1628.14
663.20	1673.19
663.39	1798.12
663.58	1710.05
663.76	1708.01
663.95	1787.88
664.14	1652.71
664.32	1681.38
664.51	1681.38
664.70	1634.28
664.89	1837.03
665.07	1634.28
665.26	1779.68
665.45	1740.77
665.64	1845.22
665.82	1748.97
666.01	1843.17
666.20	1675.24
666.38	1759.21
666.57	1771.49
666.76	2289.63
666.95	4571.07
667.13	10700.64
667.32	15423.25
667.51	18165.48
667.69	19314.39
667.88	17778.42
668.07	12474.18
668.25	9656.17
668.44	8210.31
668.63	7442.32
668.81	6924.18
669.00	6201.25
669.19	5781.42
669.38	5035.96
669.56	4601.79
669.75	3966.92
669.94	3373.00
670.12	2887.64
670.31	2562.01
670.50	2285.53
670.68	2062.30
670.87	1904.61
671.06	1830.88
671.24	1861.60
671.43	1804.26
671.62	1818.60
671.80	1748.97
671.99	1767.40
672.18	1796.07
672.36	1751.01
672.55	1734.63
672.74	1718.25
672.92	1677.29
673.11	1771.49
673.29	1638.38
673.48	1765.35
673.67	1609.70
673.85	1732.58
674.04	1660.90
674.23	1740.77
674.41	1841.12
674.60	1746.92
674.79	1585.13
674.97	1712.10
675.16	1718.25
675.34	1804.26
675.53	1689.57
675.72	1724.39
675.90	1892.32
676.09	1701.86
676.28	1714.15
676.46	1640.42
676.65	1771.49
676.83	1726.44
677.02	1697.77
677.21	1724.39
677.39	1708.01
677.58	1681.38
677.77	1783.78
677.95	1697.77
678.14	1724.39
678.32	1740.77
678.51	1720.29
678.70	1824.74
678.88	1773.54
679.07	1804.26
679.25	1720.29
679.44	1695.72
679.63	1652.71
679.81	1765.35
680.00	1853.41
680.18	1683.43
680.37	1744.87
680.55	1724.39
680.74	1597.42
680.93	1656.81
681.11	1753.06
681.30	1781.73
681.48	1710.05
681.67	1671.14
681.85	1708.01
682.04	1634.28
682.23	1816.55
682.41	1746.92
682.60	1673.19
682.78	1724.39
682.97	1808.36
683.15	1740.77
683.34	1712.10
683.53	1775.59
683.71	1615.85
683.90	1779.68
684.08	1748.97
684.27	1699.81
684.45	1787.88
684.64	1783.78
684.82	1658.85
685.01	1751.01
685.19	1675.24
685.38	1849.32
685.57	1708.01
685.75	1708.01
685.94	1701.86
686.12	1677.29
686.31	1695.72
686.49	1830.88
686.68	1701.86
686.86	1812.45
687.05	1679.33
687.23	1865.70
687.42	1712.10
687.60	1701.86
687.79	1705.96
687.97	1802.21
688.16	1708.01
688.34	1765.35
688.53	1638.38
688.71	1812.45
688.90	1791.97
689.08	1687.53
689.27	1710.05
689.45	1732.58
689.64	1832.93
689.82	1710.05
690.01	1777.64
690.19	1800.16
690.38	1730.53
690.56	1802.21
690.75	1660.90
690.93	1660.90
691.12	1699.81
691.30	1769.44
691.49	1753.06
691.67	1662.95
691.86	1769.44
692.04	1744.87
692.23	1677.29
692.41	1632.23
692.60	1781.73
692.78	1742.82
692.97	1667.05
693.15	1726.44
693.34	1843.17
693.52	1785.83
693.71	1701.86
693.89	1701.86
694.08	1585.13
694.26	1783.78
694.44	1726.44
694.63	1720.29
694.81	1636.33
695.00	1740.77
695.18	1789.92
695.37	1877.99
695.55	1742.82
695.74	1726.44
695.92	1679.33
696.10	1718.25
696.29	1660.90
696.47	1699.81
696.66	1689.57
696.84	1687.53
697.03	1730.53
697.21	1804.26
697.40	2377.69
697.58	1748.97
697.76	1650.66
697.95	1640.42
698.13	1671.14
698.32	1677.29
698.50	1751.01
698.68	1742.82
698.87	1708.01
699.05	1816.55
699.24	1662.95
699.42	1732.58
699.61	1697.77
699.79	1656.81
699.97	1708.01
700.16	1681.38
700.34	1691.62
700.53	1796.07
700.71	1736.68
700.89	1804.26
701.08	1712.10
701.26	1736.68
701.45	2172.89
701.63	1665.00
701.81	1753.06
702.00	1705.96
702.18	1732.58
702.37	1722.34
702.55	1675.24
702.73	1679.33
702.92	1679.33
703.10	1697.77
703.28	1802.21
703.47	1568.74
703.65	1753.06
703.84	1730.53
704.02	1718.25
704.20	1757.16
704.39	1693.67
704.57	1650.66
704.75	1779.68
704.94	1779.68
705.12	1732.58
705.30	1740.77
705.49	2254.81
705.67	4319.17
705.86	9451.38
706.04	12709.69
706.22	14651.17
706.41	15507.22
706.59	13866.80
706.77	9719.66
706.96	7501.71
707.14	6711.19
707.32	6006.69
707.51	5646.25
707.69	4872.12
707.87	4190.14
708.06	3491.79
708.24	3045.33
708.42	2461.66
708.61	2258.91
708.79	1925.09
708.97	1898.47
709.16	1794.02
709.34	1808.36
709.52	1726.44
709.71	1722.34
709.89	1759.21
710.07	1714.15
710.26	1634.28
710.44	1734.63
710.62	1830.88
710.80	1744.87
710.99	1753.06
711.17	1783.78
711.35	1728.49
711.54	1599.46
711.72	1812.45
711.90	1742.82
712.09	1718.25
712.27	1632.23
712.45	1712.10
712.63	1658.85
712.82	1720.29
713.00	1734.63
713.18	1812.45
713.37	1759.21
713.55	1783.78
713.73	1685.48
713.91	1708.01
714.10	1701.86
714.28	1730.53
714.46	1722.34
714.65	1767.40
714.83	1857.51
715.01	1710.05
715.19	1751.01
715.38	1693.67
715.56	1751.01
715.74	1673.19
715.92	1689.57
716.11	1763.30
716.29	1658.85
716.47	1736.68
716.65	1738.73
716.84	1599.46
717.02	1785.83
717.20	1619.94
717.38	1624.04
717.57	1732.58
717.75	1693.67
717.93	1695.72
718.11	1791.97
718.30	1607.66
718.48	1718.25
718.66	1708.01
718.84	1740.77
719.03	1710.05
719.21	1708.01
719.39	1794.02
719.57	1720.29
719.75	1796.07
719.94	1644.52
720.12	1697.77
720.30	1708.01
720.48	1820.64
720.67	1675.24
720.85	1607.66
721.03	1613.80
721.21	1708.01
721.39	1804.26
721.58	1687.53
721.76	1673.19
721.94	1685.48
722.12	1761.25
722.30	1779.68
722.49	1660.90
722.67	1771.49
722.85	1761.25
723.03	1685.48
723.21	1642.47
723.40	1705.96
723.58	1779.68
723.76	1753.06
723.94	1775.59
724.12	1724.39
724.30	1843.17
724.49	1785.83
724.67	1640.42
724.85	1787.88
725.03	1671.14
725.21	1685.48
725.40	1814.50
725.58	1658.85
725.76	1771.49
725.94	1787.88
726.12	1667.05
726.30	1654.76
726.49	1724.39
726.67	1740.77
726.85	1714.15
727.03	1853.41
727.21	2117.60
727.39	3014.61
727.57	3981.25
727.76	4171.71
727.94	4556.73
728.12	4464.57
728.30	3708.87
728.48	3061.71
728.66	2854.87
728.84	2607.06
729.03	2238.43
729.21	2211.81
729.39	1986.53
729.57	1794.02
729.75	1794.02
729.93	1865.70
730.11	1761.25
730.30	1740.77
730.48	1738.73
730.66	1820.64
730.84	1722.34
731.02	1746.92
731.20	1669.09
731.38	1767.40
731.56	1646.57
731.74	1662.95
731.93	1742.82
732.11	1783.78
732.29	1642.47
732.47	1734.63
732.65	1732.58
732.83	1853.41
733.01	1785.83
733.19	1626.09
733.37	1740.77
733.56	1744.87
733.74	1730.53
733.92	1877.99
734.10	1654.76
734.28	1794.02
734.46	1607.66
734.64	1667.05
734.82	1771.49
735.00	1726.44
735.18	1685.48
735.36	1818.60
735.54	1751.01
735.73	1748.97
735.91	1720.29
736.09	1742.82
736.27	1751.01
736.45	1714.15
736.63	1624.04
736.81	1734.63
736.99	1714.15
737.17	1773.54
737.35	1667.05
737.53	1691.62
737.71	1710.05
737.89	1859.56
738.07	1701.86
738.25	1658.85
738.43	1640.42
738.61	1675.24
738.80	1746.92
738.98	1673.19
739.16	1665.00
739.34	1593.32
739.52	1753.06
739.70	1701.86
739.88	1783.78
740.06	1771.49
740.24	1660.90
740.42	1728.49
740.60	1626.09
740.78	1669.09
740.96	1654.76
741.14	1648.61
741.32	1730.53
741.50	1601.51
741.68	1828.84
741.86	1783.78
742.04	1665.00
742.22	1630.18
742.40	1728.49
742.58	1693.67
742.76	1718.25
742.94	1757.16
743.12	1724.39
743.30	1683.43
743.48	1708.01
743.66	1624.04
743.84	1740.77
744.02	1736.68
744.20	1738.73
744.38	1712.10
744.56	1763.30
744.74	1751.01
744.92	1759.21
745.10	1734.63
745.28	1658.85
745.46	1701.86
745.64	1740.77
745.82	1720.29
746.00	1691.62
746.18	1673.19
746.36	1605.61
746.54	1708.01
746.72	1714.15
746.90	1646.57
747.08	1845.22
747.26	1710.05
747.44	1734.63
747.62	1773.54
747.80	1724.39
747.98	1705.96
748.15	1767.40
748.33	1802.21
748.51	1710.05
748.69	1808.36
748.87	1697.77
749.05	1642.47
749.23	1693.67
749.41	1730.53
749.59	1722.34
749.77	1722.34
749.95	1744.87
750.13	1687.53
750.31	1705.96
750.49	1736.68
750.67	1761.25
750.85	1779.68
751.03	1744.87
751.20	1818.60
751.38	1708.01
751.56	1660.90
751.74	1714.15
751.92	1691.62
752.10	1632.23
752.28	1787.88
752.46	1755.11
752.64	1785.83
752.82	1769.44
753.00	1800.16
753.18	1699.81
753.35	1751.01
753.53	1734.63
753.71	1665.00
753.89	1744.87
754.07	1779.68
754.25	1751.01
754.43	1759.21
754.61	1648.61
754.79	1794.02
754.97	1738.73
755.14	1806.31
755.32	1681.38
755.50	1669.09
755.68	1716.20
755.86	1652.71
756.04	1662.95
756.22	1591.27
756.40	1806.31
756.57	1761.25
756.75	1648.61
756.93	1728.49
757.11	1755.11
757.29	1642.47
757.47	1736.68
757.65	1658.85
757.82	1632.23
758.00	1624.04
758.18	1701.86
758.36	1662.95
758.54	1834.98
758.72	1665.00
758.90	1798.12
759.07	1689.57
759.25	1550.31
759.43	1796.07
759.61	1683.43
759.79	2166.75
759.97	1816.55
760.15	1656.81
760.32	1640.42
760.50	1734.63
760.68	1714.15
760.86	1689.57
761.04	1818.60
761.22	1708.01
761.39	1720.29
761.57	1771.49
761.75	1701.86
761.93	1716.20
762.11	1632.23
762.28	1738.73
762.46	1726.44
762.64	1771.49
762.82	1615.85
763.00	1824.74
763.18	1722.34
763.35	1595.37
763.53	1779.68
763.71	1714.15
763.89	1726.44
764.07	1726.44
764.24	1665.00
764.42	1777.64
764.60	1632.23
764.78	1738.73
764.96	1763.30
765.13	1791.97
765.31	1689.57
765.49	1710.05
765.67	1710.05
765.84	1615.85
766.02	1654.76
766.20	1656.81
766.38	1710.05
766.56	1767.40
766.73	1751.01
766.91	1730.53
767.09	1728.49
767.27	1773.54
767.44	1566.70
767.62	1681.38
767.80	1718.25
767.98	1675.24
768.15	1734.63
768.33	1775.59
768.51	1839.08
768.69	1726.44
768.87	1730.53
769.04	1669.09
769.22	1855.46
769.40	1828.84
769.58	1845.22
769.75	1777.64
769.93	1820.64
770.11	1701.86
770.28	1652.71
770.46	1703.91
770.64	1744.87
770.82	1671.14
770.99	1673.19
771.17	1714.15
771.35	1671.14
771.53	1691.62
771.70	1669.09
771.88	1779.68
772.06	1697.77
772.23	1767.40
772.41	1716.20
772.59	1705.96
772.77	1738.73
772.94	1724.39
773.12	1683.43
773.30	1712.10
773.47	1679.33
773.65	1755.11
773.83	1839.08
774.01	1767.40
774.18	1566.70
774.36	1705.96
774.54	1701.86
774.71	1701.86
774.89	1697.77
775.07	1679.33
775.24	1701.86
775.42	1685.48
775.60	1873.89
775.78	1677.29
775.95	1669.09
776.13	1568.74
776.31	1626.09
776.48	1669.09
776.66	1855.46
776.84	1681.38
777.01	1693.67
777.19	1626.09
777.37	1693.67
777.54	1753.06
777.72	1814.50
777.90	1738.73
778.07	1734.63
778.25	1880.04
778.43	1665.00
778.60	1730.53
778.78	1726.44
778.96	1783.78
779.13	1634.28
779.31	1728.49
779.49	1732.58
779.66	1705.96
779.84	1777.64
780.01	1722.34
780.19	1689.57
780.37	1773.54
780.54	1716.20
780.72	1660.90
780.90	1675.24
781.07	1705.96
781.25	1759.21
781.43	1761.25
781.60	1638.38
781.78	1822.69
781.95	1771.49
782.13	1617.90
782.31	1705.96
782.48	1591.27
782.66	1656.81
782.83	1834.98
783.01	1751.01
783.19	1738.73
783.36	1759.21
783.54	1695.72
783.72	1730.53
783.89	1652.71
784.07	1708.01
784.24	1789.92
784.42	1808.36
784.60	1669.09
784.77	1746.92
784.95	1726.44
785.12	1685.48
785.30	1742.82
785.47	1677.29
785.65	1705.96
785.83	1699.81
786.00	1662.95
786.18	1677.29
786.35	1673.19
786.53	1738.73
786.71	1791.97
786.88	1746.92
787.06	1744.87
787.23	1720.29
787.41	1665.00
787.58	1716.20
787.76	1699.81
787.94	1777.64
788.11	1767.40
788.29	1658.85
788.46	1671.14
788.64	1593.32
788.81	1658.85
788.99	1652.71
789.16	1632.23
789.34	1648.61
789.52	1740.77
789.69	1714.15
789.87	1699.81
790.04	1748.97
790.22	1681.38
790.39	1800.16
790.57	1695.72
790.74	1640.42
790.92	1787.88
791.09	1607.66
791.27	1714.15
791.44	1867.75
791.62	1742.82
791.79	1722.34
791.97	1720.29
792.15	1880.04
792.32	1757.16
792.50	1722.34
792.67	1867.75
792.85	1853.41
793.02	1654.76
793.20	1630.18
793.37	1644.52
793.55	1714.15
793.72	1626.09
793.90	1800.16
794.07	1667.05
794.25	1675.24
794.42	1746.92
794.60	1697.77
794.77	1738.73
794.95	1703.91
795.12	1708.01
795.30	1662.95
795.47	1611.75
795.65	1834.98
795.82	1808.36
796.00	1681.38
796.17	1697.77
796.34	1634.28
796.52	1679.33
796.69	1810.40
796.87	1761.25
797.04	1744.87
797.22	1767.40
797.39	1787.88
797.57	1705.96
797.74	1734.63
797.92	1701.86
798.09	1742.82
798.27	1697.77
798.44	1722.34
798.62	1660.90
798.79	1691.62
798.96	1773.54
799.14	1697.77
799.31	1927.14
799.49	1656.81
799.66	1691.62
799.84	1677.29
800.01	1578.98
800.19	1746.92
800.36	1601.51
800.53	1736.68
800.71	1763.30
800.88	1855.46
801.06	1734.63
801.23	1710.05
801.41	1675.24
801.58	1759.21
801.75	1626.09
801.93	1740.77
802.10	1748.97
802.28	1689.57
802.45	1730.53
802.63	1738.73
802.80	1757.16
802.97	1697.77
803.15	1710.05
803.32	1589.22
803.50	1734.63
803.67	1705.96
803.84	1640.42
804.02	1689.57
804.19	1652.71
804.37	1533.93
804.54	1671.14
804.71	1675.24
804.89	1744.87
805.06	1601.51
805.24	1667.05
805.41	1662.95
805.58	1640.42
805.76	1900.52
805.93	1730.53
806.10	1755.11
806.28	1789.92
806.45	1771.49
806.63	1773.54
806.80	1658.85
806.97	1806.31
807.15	1720.29
807.32	1669.09
807.49	1660.90
807.67	1646.57
807.84	1740.77
808.01	1695.72
808.19	1832.93
808.36	1837.03
808.54	1648.61
808.71	1722.34
808.88	1736.68
809.06	1751.01
809.23	1806.31
809.40	1705.96
809.58	1748.97
809.75	1673.19
809.92	1640.42
810.10	1806.31
810.27	1767.40
810.44	1748.97
810.62	1789.92
810.79	1677.29
810.96	1646.57
811.14	1662.95
811.31	1734.63
811.48	1712.10
811.66	1773.54
811.83	1775.59
812.00	1718.25
812.18	1716.20
812.35	1798.12
812.52	1716.20
812.69	1687.53
812.87	1660.90
813.04	1679.33
813.21	1689.57
813.39	1718.25
813.56	1650.66
813.73	1804.26
813.91	1607.66
814.08	1753.06
814.25	1753.06
814.42	1576.94
814.60	1597.42
814.77	1777.64
814.94	1734.63
815.12	1726.44
815.29	1771.49
815.46	1658.85
815.63	1734.63
815.81	1789.92
815.98	1689.57
816.15	1726.44
816.33	1699.81
816.50	1662.95
816.67	1695.72
816.84	1648.61
817.02	1701.86
817.19	1673.19
817.36	1718.25
817.53	1710.05
817.71	1730.53
817.88	1812.45
818.05	1716.20
818.22	1687.53
818.40	1845.22
818.57	1685.48
818.74	1718.25
818.91	1708.01
819.09	1683.43
819.26	1730.53
819.43	1638.38
819.60	1646.57
819.78	1691.62
819.95	1804.26
820.12	1701.86
820.29	1787.88
820.47	1791.97
820.64	1652.71
820.81	1636.33
820.98	1677.29
821.15	1689.57
821.33	1765.35
821.50	1662.95
821.67	1773.54
821.84	1716.20
822.02	1730.53
822.19	1763.30
822.36	1705.96
822.53	1748.97
822.70	1640.42
822.88	1640.42
823.05	1794.02
823.22	1652.71
823.39	1757.16
823.56	1714.15
823.74	1804.26
823.91	1654.76
824.08	1683.43
824.25	1658.85
824.42	1820.64
824.60	1648.61
824.77	1757.16
824.94	1689.57
825.11	1748.97
825.28	1652.71
825.45	1734.63
825.63	1763.30
825.80	1685.48
825.97	1734.63
826.14	1767.40
826.31	1679.33
826.48	1730.53
826.66	1667.05
826.83	1757.16
827.00	1757.16
827.17	1624.04
827.34	1712.10
827.51	1654.76
827.69	1748.97
827.86	1681.38
828.03	1603.56
828.20	1710.05
828.37	1593.32
828.54	1726.44
828.71	1669.09
828.89	1826.79
829.06	1697.77
829.23	1789.92
829.40	1650.66
829.57	1697.77
829.74	1765.35
829.91	1679.33
830.09	1728.49
830.26	1710.05
830.43	1796.07
830.60	1701.86
830.77	1781.73
830.94	1724.39
831.11	1695.72
831.28	1660.90
831.46	1710.05
831.63	1748.97
831.80	1746.92
831.97	1660.90
832.14	1703.91
832.31	1687.53
832.48	1783.78
832.65	1763.30
832.82	1708.01
832.99	1773.54
833.17	1644.52
833.34	1841.12
833.51	1718.25
833.68	1595.37
833.85	1748.97
834.02	1654.76
834.19	1693.67
834.36	1656.81
834.53	1601.51
834.70	1861.60
834.87	1740.77
835.04	1773.54
835.22	1679.33
835.39	1703.91
835.56	1581.03
835.73	1630.18
835.90	1767.40
836.07	1652.71
836.24	1675.24
836.41	1662.95
836.58	1673.19
836.75	1757.16
836.92	1718.25
837.09	1624.04
837.26	1789.92
837.43	1650.66
837.60	1734.63
837.77	1660.90
837.94	1634.28
838.12	1814.50
838.29	1699.81
838.46	1636.33
838.63	1677.29
838.80	1804.26
838.97	1791.97
839.14	1699.81
839.31	1738.73
839.48	1640.42
839.65	1630.18
839.82	1722.34
839.99	1757.16
840.16	1734.63
840.33	1644.52
840.50	1783.78
840.67	1712.10
840.84	1544.17
841.01	1740.77
841.18	1673.19
841.35	1609.70
841.52	1751.01
841.69	1873.89
841.86	1685.48
842.03	1693.67
842.20	1849.32
842.37	1710.05
842.54	1708.01
842.71	1798.12
842.88	1624.04
843.05	1748.97
843.22	1648.61
843.39	1779.68
843.56	1662.95
843.73	1679.33
843.90	1779.68
844.07	1699.81
844.24	1726.44
844.41	1732.58
844.58	1787.88
844.75	1699.81
844.92	1755.11
845.09	1665.00
845.26	1652.71
845.43	1755.11
845.60	1677.29
845.77	1716.20
845.94	1794.02
846.10	1755.11
846.27	1617.90
846.44	1722.34
846.61	1662.95
846.78	1656.81
846.95	1785.83
847.12	1718.25
847.29	1714.15
847.46	1644.52
847.63	1789.92
847.80	1652.71
847.97	1681.38
848.14	1861.60
848.31	1683.43
848.48	1644.52
848.65	1738.73
848.82	1644.52
848.98	1740.77
849.15	1847.27
849.32	1726.44
849.49	1775.59
849.66	1716.20
849.83	1605.61
850.00	1675.24
850.17	1703.91
850.34	1708.01
850.51	1648.61
850.68	1679.33
850.85	1802.21
851.01	1738.73
851.18	1734.63
851.35	1626.09
851.52	1769.44
851.69	1779.68
851.86	1652.71
852.03	1662.95
852.20	1804.26
852.37	1716.20
852.53	1652.71
852.70	1710.05
852.87	1753.06
853.04	1779.68
853.21	1665.00
853.38	1753.06
853.55	1798.12
853.72	1738.73
853.89	1695.72
854.05	1656.81
854.22	1673.19
854.39	1699.81
854.56	1769.44
854.73	1789.92
854.90	1701.86
855.07	1691.62
855.23	1708.01
855.40	1601.51
855.57	1759.21
855.74	1656.81
855.91	1849.32
856.08	1642.47
856.25	1675.24
856.41	1697.77
856.58	1640.42
856.75	1619.94
856.92	1626.09
857.09	1822.69
857.26	1652.71
857.42	1648.61
857.59	1767.40
857.76	1669.09
857.93	1708.01
858.10	1687.53
858.27	1621.99
858.43	1636.33
858.60	1730.53
858.77	1660.90
858.94	1802.21
859.11	1769.44
859.27	1744.87
859.44	1746.92
859.61	1855.46
859.78	1794.02
859.95	1757.16
860.12	1759.21
860.28	1810.40
860.45	1841.12
860.62	1689.57
860.79	1730.53
860.95	1748.97
861.12	1710.05
861.29	1716.20
861.46	1646.57
861.63	1681.38
861.79	1689.57
861.96	1648.61
862.13	1667.05
862.30	1777.64
862.47	1638.38
862.63	1626.09
862.80	1812.45
862.97	1708.01
863.14	1738.73
863.30	1806.31
863.47	1673.19
863.64	1779.68
863.81	1662.95
863.97	1628.14
864.14	1787.88
864.31	1681.38
864.48	1783.78
864.65	1691.62
864.81	1742.82
864.98	1718.25
865.15	1765.35
865.32	1699.81
865.48	1753.06
865.65	1761.25
865.82	1746.92
865.98	1761.25
866.15	1767.40
866.32	1755.11
866.49	1736.68
866.65	1701.86
866.82	1617.90
866.99	1720.29
867.16	1675.24
867.32	1722.34
867.49	1710.05
867.66	1654.76
867.83	1683.43
867.99	1617.90
868.16	1685.48
868.33	1609.70
868.49	1773.54
868.66	1687.53
868.83	1787.88
868.99	1742.82
869.16	1716.20
869.33	1771.49
869.50	1734.63
869.66	1761.25
869.83	1728.49
870.00	1621.99
870.16	1746.92
870.33	1671.14
870.50	1794.02
870.66	1718.25
870.83	1884.13
871.00	1705.96
871.17	1703.91
871.33	1689.57
871.50	1730.53
871.67	1691.62
871.83	1701.86
872.00	1828.84
872.17	1722.34
872.33	1800.16
872.50	1693.67
872.67	1689.57
872.83	1681.38
873.00	1697.77
873.17	1734.63
873.33	1796.07
873.50	1724.39
873.67	1648.61
873.83	1669.09
874.00	1722.34
874.16	1755.11
874.33	1753.06
874.50	1648.61
874.66	1828.84
874.83	1710.05
875.00	1843.17
875.16	1771.49
875.33	1783.78
875.50	1654.76
875.66	1673.19
875.83	1697.77
875.99	1687.53
876.16	1677.29
876.33	1628.14
876.49	1722.34
876.66	1763.30
876.83	1710.05
876.99	1677.29
877.16	1695.72
877.32	1740.77
877.49	1722.34
877.66	1722.34
877.82	1759.21
877.99	1738.73
878.15	1705.96
878.32	1703.91
878.49	1710.05
878.65	1697.77
878.82	1882.08
878.98	1642.47
879.15	1740.77
879.32	1734.63
879.48	1759.21
879.65	1734.63
879.81	1671.14
879.98	1630.18
880.15	1683.43
880.31	1771.49
880.48	1665.00
880.64	1765.35
880.81	1705.96
880.97	1808.36
881.14	1746.92
881.31	1673.19
881.47	1834.98
881.64	1671.14
881.80	1650.66
881.97	1810.40
882.13	1710.05
882.30	1591.27
882.47	1730.53
882.63	1699.81
882.80	1687.53
882.96	1615.85
883.13	1808.36
883.29	1701.86
883.46	1716.20
883.62	1896.42
883.79	1742.82
883.95	1773.54
884.12	1673.19
884.29	1767.40
884.45	1730.53
884.62	1791.97
884.78	1576.94
884.95	1796.07
885.11	1583.08
885.28	1677.29
885.44	1675.24
885.61	1689.57
885.77	1830.88
885.94	1693.67
886.10	1701.86
886.27	1722.34
886.43	1783.78
886.60	1734.63
886.76	1669.09
886.93	1714.15
887.09	1714.15
887.26	1644.52
887.42	1736.68
887.59	1726.44
887.75	1871.84
887.92	1695.72
888.08	1761.25
888.25	1691.62
888.41	1777.64
888.58	1732.58
888.74	1701.86
888.91	1710.05
>>>>>End Processed Spectral Data<<<<<
