SpectraSuite Data File
++++++++++++++++++++++++++++++++++++
Date: Mon Jun 06 13:25:37 CEST 2016
User: root
Dark Spectrum Present: No
Reference Spectrum Present: No
Number of Sampled Component Spectra: 1
Spectrometers: USB4C02835
Integration Time (usec): 100000 (USB4C02835)
Spectra Averaged: 1 (USB4C02835)
Boxcar Smoothing: 0 (USB4C02835)
Correct for Electrical Dark: No (USB4C02835)
Strobe/Lamp Enabled: No (USB4C02835)
Correct for Detector Non-linearity: No (USB4C02835)
Correct for Stray Light: No (USB4C02835)
Number of Pixels in Processed Spectrum: 3648
>>>>>Begin Processed Spectral Data<<<<<
177.47	1490.92
177.69	1490.92
177.91	1490.92
178.13	1437.67
178.36	1490.92
178.58	1759.21
178.80	1677.29
179.02	1644.52
179.24	1679.33
179.46	1599.46
179.68	1734.63
179.90	1746.92
180.13	1734.63
180.35	1722.34
180.57	1644.52
180.79	1714.15
181.01	1617.90
181.23	1697.77
181.45	1726.44
181.67	1742.82
181.90	1767.40
182.12	1564.65
182.34	1566.70
182.56	1665.00
182.78	1755.11
183.00	1685.48
183.22	1746.92
183.44	1632.23
183.66	1789.92
183.89	1693.67
184.11	1671.14
184.33	1708.01
184.55	1687.53
184.77	1679.33
184.99	1687.53
185.21	1681.38
185.43	1843.17
185.65	1734.63
185.87	1681.38
186.10	1837.03
186.32	1816.55
186.54	1677.29
186.76	1708.01
186.98	1765.35
187.20	1658.85
187.42	1644.52
187.64	1656.81
187.86	1656.81
188.08	1695.72
188.30	1595.37
188.52	1720.29
188.75	1781.73
188.97	1781.73
189.19	1716.20
189.41	1712.10
189.63	1734.63
189.85	1697.77
190.07	1615.85
190.29	1615.85
190.51	1701.86
190.73	1613.80
190.95	1773.54
191.17	1781.73
191.39	1591.27
191.61	1648.61
191.84	1660.90
192.06	1728.49
192.28	1621.99
192.50	1880.04
192.72	1771.49
192.94	1628.14
193.16	1732.58
193.38	1632.23
193.60	1652.71
193.82	1542.12
194.04	1775.59
194.26	1673.19
194.48	1724.39
194.70	1665.00
194.92	1638.38
195.14	1699.81
195.36	1701.86
195.58	1759.21
195.80	1697.77
196.02	1636.33
196.24	1679.33
196.46	1738.73
196.69	1652.71
196.91	1812.45
197.13	1658.85
197.35	1730.53
197.57	1781.73
197.79	1746.92
198.01	1806.31
198.23	1705.96
198.45	1654.76
198.67	1587.18
198.89	1619.94
199.11	1697.77
199.33	1710.05
199.55	1576.94
199.77	1722.34
199.99	1796.07
200.21	1693.67
200.43	1679.33
200.65	1595.37
200.87	1630.18
201.09	1763.30
201.31	1683.43
201.53	1732.58
201.75	1720.29
201.97	1726.44
202.19	1730.53
202.41	1736.68
202.63	1826.79
202.85	1728.49
203.07	1740.77
203.29	1695.72
203.51	1609.70
203.73	1609.70
203.95	1933.28
204.17	1753.06
204.39	1730.53
204.61	1691.62
204.83	1624.04
205.05	1701.86
205.27	1841.12
205.49	1851.36
205.71	1607.66
205.93	1556.46
206.15	1644.52
206.37	1693.67
206.59	1712.10
206.81	1665.00
207.03	1673.19
207.25	1656.81
207.47	1796.07
207.69	1673.19
207.91	1814.50
208.13	1800.16
208.34	1599.46
208.56	1665.00
208.78	1759.21
209.00	1689.57
209.22	1634.28
209.44	1726.44
209.66	1705.96
209.88	1679.33
210.10	1669.09
210.32	1691.62
210.54	1714.15
210.76	1662.95
210.98	1679.33
211.20	1562.60
211.42	1730.53
211.64	1714.15
211.86	1695.72
212.08	1730.53
212.30	1658.85
212.52	1630.18
212.74	1783.78
212.96	1673.19
213.17	1781.73
213.39	1808.36
213.61	1814.50
213.83	1789.92
214.05	1689.57
214.27	1818.60
214.49	1599.46
214.71	1683.43
214.93	1796.07
215.15	1744.87
215.37	1724.39
215.59	1634.28
215.81	1701.86
216.03	1783.78
216.24	1681.38
216.46	1693.67
216.68	1642.47
216.90	1720.29
217.12	1693.67
217.34	1714.15
217.56	1724.39
217.78	1769.44
218.00	1685.48
218.22	1669.09
218.44	1781.73
218.66	1767.40
218.87	1757.16
219.09	1654.76
219.31	1701.86
219.53	1816.55
219.75	1665.00
219.97	1687.53
220.19	1689.57
220.41	1787.88
220.63	1726.44
220.85	1714.15
221.06	1652.71
221.28	1771.49
221.50	1722.34
221.72	1662.95
221.94	1624.04
222.16	1695.72
222.38	1775.59
222.60	1791.97
222.82	1695.72
223.03	1671.14
223.25	1644.52
223.47	1736.68
223.69	1789.92
223.91	1677.29
224.13	1716.20
224.35	1699.81
224.57	1787.88
224.78	1763.30
225.00	1587.18
225.22	1722.34
225.44	1722.34
225.66	1777.64
225.88	1658.85
226.10	1755.11
226.32	1767.40
226.53	1794.02
226.75	1765.35
226.97	1660.90
227.19	1751.01
227.41	1714.15
227.63	1656.81
227.85	1585.13
228.06	1667.05
228.28	1695.72
228.50	1748.97
228.72	1615.85
228.94	1703.91
229.16	1609.70
229.37	1638.38
229.59	1632.23
229.81	1736.68
230.03	1677.29
230.25	1603.56
230.47	1585.13
230.69	1624.04
230.90	1746.92
231.12	1593.32
231.34	1759.21
231.56	1757.16
231.78	1634.28
232.00	1665.00
232.21	1669.09
232.43	1619.94
232.65	1503.21
232.87	1691.62
233.09	1654.76
233.30	1599.46
233.52	1759.21
233.74	1669.09
233.96	1720.29
234.18	1716.20
234.40	1730.53
234.61	1814.50
234.83	1658.85
235.05	1597.42
235.27	1837.03
235.49	1771.49
235.70	1710.05
235.92	1779.68
236.14	1671.14
236.36	1794.02
236.58	1667.05
236.79	1746.92
237.01	1791.97
237.23	1644.52
237.45	1834.98
237.67	1681.38
237.88	1779.68
238.10	1847.27
238.32	1677.29
238.54	1738.73
238.76	1794.02
238.97	1630.18
239.19	1636.33
239.41	1748.97
239.63	1677.29
239.85	1697.77
240.06	1730.53
240.28	1724.39
240.50	1767.40
240.72	1689.57
240.93	1708.01
241.15	1759.21
241.37	1728.49
241.59	1722.34
241.81	1724.39
242.02	1714.15
242.24	1722.34
242.46	1755.11
242.68	1701.86
242.89	1677.29
243.11	1773.54
243.33	1691.62
243.55	1730.53
243.76	1718.25
243.98	1658.85
244.20	1609.70
244.42	1683.43
244.64	1691.62
244.85	1615.85
245.07	1710.05
245.29	1751.01
245.51	1738.73
245.72	1677.29
245.94	1751.01
246.16	1753.06
246.38	1773.54
246.59	1628.14
246.81	1640.42
247.03	1683.43
247.24	1652.71
247.46	1687.53
247.68	1673.19
247.90	1685.48
248.11	1613.80
248.33	1738.73
248.55	1685.48
248.77	1703.91
248.98	1796.07
249.20	1796.07
249.42	1705.96
249.64	1683.43
249.85	1691.62
250.07	1615.85
250.29	1751.01
250.50	1785.83
250.72	1669.09
250.94	1775.59
251.16	1734.63
251.37	1808.36
251.59	1724.39
251.81	1695.72
252.02	1730.53
252.24	1697.77
252.46	1773.54
252.68	1689.57
252.89	1642.47
253.11	1652.71
253.33	1847.27
253.54	1763.30
253.76	1667.05
253.98	1673.19
254.20	1779.68
254.41	1611.75
254.63	1636.33
254.85	1691.62
255.06	1656.81
255.28	1726.44
255.50	1718.25
255.71	1646.57
255.93	1652.71
256.15	1603.56
256.36	1718.25
256.58	1587.18
256.80	1712.10
257.02	1665.00
257.23	1683.43
257.45	1685.48
257.67	1720.29
257.88	1712.10
258.10	1679.33
258.32	1679.33
258.53	1701.86
258.75	1724.39
258.97	1662.95
259.18	1701.86
259.40	1724.39
259.62	1755.11
259.83	1718.25
260.05	1742.82
260.27	1945.57
260.48	1738.73
260.70	1632.23
260.92	1683.43
261.13	1773.54
261.35	1736.68
261.57	1746.92
261.78	1603.56
262.00	1609.70
262.22	1773.54
262.43	1695.72
262.65	1714.15
262.86	1771.49
263.08	1812.45
263.30	1705.96
263.51	1644.52
263.73	1722.34
263.95	1755.11
264.16	1732.58
264.38	1646.57
264.60	1748.97
264.81	1669.09
265.03	1761.25
265.25	1697.77
265.46	1716.20
265.68	1742.82
265.89	1779.68
266.11	1685.48
266.33	1746.92
266.54	1693.67
266.76	1714.15
266.98	1714.15
267.19	1724.39
267.41	1771.49
267.62	1789.92
267.84	1595.37
268.06	1703.91
268.27	1624.04
268.49	1814.50
268.70	1765.35
268.92	1693.67
269.14	1650.66
269.35	1677.29
269.57	1708.01
269.79	1732.58
270.00	1691.62
270.22	1746.92
270.43	1640.42
270.65	1624.04
270.87	1728.49
271.08	1763.30
271.30	1789.92
271.51	1681.38
271.73	1767.40
271.95	1757.16
272.16	1726.44
272.38	1705.96
272.59	1669.09
272.81	1662.95
273.02	1720.29
273.24	1681.38
273.46	1730.53
273.67	1667.05
273.89	1630.18
274.10	1632.23
274.32	1703.91
274.54	1671.14
274.75	1687.53
274.97	1681.38
275.18	1822.69
275.40	1740.77
275.61	1755.11
275.83	1677.29
276.05	1671.14
276.26	1671.14
276.48	1691.62
276.69	1665.00
276.91	1683.43
277.12	1738.73
277.34	1753.06
277.55	1732.58
277.77	1808.36
277.99	1671.14
278.20	1679.33
278.42	1740.77
278.63	1665.00
278.85	1652.71
279.06	1656.81
279.28	1697.77
279.49	1732.58
279.71	1796.07
279.93	1697.77
280.14	1728.49
280.36	1531.88
280.57	1660.90
280.79	1763.30
281.00	1650.66
281.22	1677.29
281.43	1716.20
281.65	1603.56
281.86	1636.33
282.08	1722.34
282.29	1771.49
282.51	1671.14
282.73	1621.99
282.94	1603.56
283.16	1757.16
283.37	1775.59
283.59	1714.15
283.80	1746.92
284.02	1671.14
284.23	1748.97
284.45	1708.01
284.66	1675.24
284.88	1617.90
285.09	1716.20
285.31	1789.92
285.52	1667.05
285.74	1652.71
285.95	1691.62
286.17	1665.00
286.38	1748.97
286.60	1648.61
286.81	1644.52
287.03	1673.19
287.24	1693.67
287.46	1755.11
287.67	1683.43
287.89	1759.21
288.10	1640.42
288.32	1695.72
288.53	1699.81
288.75	1679.33
288.96	1710.05
289.18	1687.53
289.39	1708.01
289.61	1701.86
289.82	1839.08
290.04	1732.58
290.25	1595.37
290.47	1681.38
290.68	1652.71
290.90	1736.68
291.11	1609.70
291.33	1791.97
291.54	1662.95
291.76	1697.77
291.97	1658.85
292.18	1781.73
292.40	1708.01
292.61	1673.19
292.83	1859.56
293.04	1757.16
293.26	1673.19
293.47	1705.96
293.69	1685.48
293.90	1621.99
294.12	1720.29
294.33	1626.09
294.55	1665.00
294.76	1757.16
294.97	1738.73
295.19	1787.88
295.40	1718.25
295.62	1734.63
295.83	1779.68
296.05	1662.95
296.26	1693.67
296.48	1683.43
296.69	1683.43
296.90	1710.05
297.12	1714.15
297.33	1738.73
297.55	1699.81
297.76	1769.44
297.98	1775.59
298.19	1632.23
298.41	1691.62
298.62	1693.67
298.83	1802.21
299.05	1744.87
299.26	1691.62
299.48	1634.28
299.69	1775.59
299.90	1742.82
300.12	1716.20
300.33	1738.73
300.55	1746.92
300.76	1783.78
300.98	1619.94
301.19	1720.29
301.40	1673.19
301.62	1667.05
301.83	1738.73
302.05	1697.77
302.26	1683.43
302.47	1718.25
302.69	1638.38
302.90	1609.70
303.12	1585.13
303.33	1812.45
303.54	1847.27
303.76	1710.05
303.97	1703.91
304.19	1826.79
304.40	1671.14
304.61	1824.74
304.83	1806.31
305.04	1767.40
305.26	1736.68
305.47	1607.66
305.68	1669.09
305.90	1589.22
306.11	1744.87
306.33	1699.81
306.54	1691.62
306.75	1673.19
306.97	1665.00
307.18	1677.29
307.39	1642.47
307.61	1767.40
307.82	1673.19
308.04	1624.04
308.25	1648.61
308.46	1751.01
308.68	1708.01
308.89	1724.39
309.10	1755.11
309.32	1796.07
309.53	1675.24
309.74	1753.06
309.96	1687.53
310.17	1753.06
310.39	1665.00
310.60	1667.05
310.81	1755.11
311.03	1624.04
311.24	1744.87
311.45	1693.67
311.67	1800.16
311.88	1677.29
312.09	1681.38
312.31	1617.90
312.52	1669.09
312.73	1669.09
312.95	1705.96
313.16	1642.47
313.37	1769.44
313.59	1624.04
313.80	1777.64
314.01	1783.78
314.23	1701.86
314.44	1685.48
314.65	1644.52
314.87	1652.71
315.08	1669.09
315.29	1714.15
315.51	1710.05
315.72	1624.04
315.93	1781.73
316.15	1734.63
316.36	1785.83
316.57	1724.39
316.79	1775.59
317.00	1658.85
317.21	1634.28
317.43	1718.25
317.64	1665.00
317.85	1681.38
318.07	1605.61
318.28	1783.78
318.49	1789.92
318.70	1867.75
318.92	1808.36
319.13	1767.40
319.34	1822.69
319.56	1689.57
319.77	1775.59
319.98	1820.64
320.20	1798.12
320.41	1665.00
320.62	1695.72
320.83	1632.23
321.05	1824.74
321.26	1665.00
321.47	1734.63
321.69	1703.91
321.90	1681.38
322.11	1679.33
322.32	1730.53
322.54	1818.60
322.75	1667.05
322.96	1824.74
323.18	1562.60
323.39	1587.18
323.60	1650.66
323.81	1699.81
324.03	1626.09
324.24	1665.00
324.45	1681.38
324.66	1697.77
324.88	1818.60
325.09	1806.31
325.30	1660.90
325.52	1773.54
325.73	1755.11
325.94	1693.67
326.15	1609.70
326.37	1675.24
326.58	1746.92
326.79	1722.34
327.00	1636.33
327.22	1722.34
327.43	1589.22
327.64	1626.09
327.85	1847.27
328.07	1626.09
328.28	1775.59
328.49	1679.33
328.70	1624.04
328.92	1675.24
329.13	1685.48
329.34	1703.91
329.55	1777.64
329.76	1701.86
329.98	1742.82
330.19	1787.88
330.40	1693.67
330.61	1644.52
330.83	1689.57
331.04	1617.90
331.25	1724.39
331.46	1728.49
331.68	1595.37
331.89	1718.25
332.10	1757.16
332.31	1587.18
332.52	1656.81
332.74	1718.25
332.95	1644.52
333.16	1601.51
333.37	1751.01
333.58	1732.58
333.80	1650.66
334.01	1591.27
334.22	1685.48
334.43	1669.09
334.64	1677.29
334.86	1603.56
335.07	1681.38
335.28	1834.98
335.49	1566.70
335.70	1720.29
335.92	1718.25
336.13	1824.74
336.34	1710.05
336.55	1755.11
336.76	1720.29
336.98	1576.94
337.19	1693.67
337.40	1763.30
337.61	1812.45
337.82	1687.53
338.04	1705.96
338.25	1628.14
338.46	1667.05
338.67	1699.81
338.88	1611.75
339.09	1638.38
339.31	1662.95
339.52	1630.18
339.73	1656.81
339.94	1726.44
340.15	1744.87
340.36	1673.19
340.58	1665.00
340.79	1628.14
341.00	1691.62
341.21	1705.96
341.42	1748.97
341.63	1660.90
341.85	1726.44
342.06	1691.62
342.27	1636.33
342.48	1746.92
342.69	1660.90
342.90	1736.68
343.12	1656.81
343.33	1720.29
343.54	1781.73
343.75	1765.35
343.96	1724.39
344.17	1638.38
344.38	1619.94
344.60	1656.81
344.81	1710.05
345.02	1691.62
345.23	1812.45
345.44	1791.97
345.65	1720.29
345.86	1744.87
346.07	1667.05
346.29	1679.33
346.50	1740.77
346.71	1716.20
346.92	1742.82
347.13	1828.84
347.34	1648.61
347.55	1763.30
347.76	1757.16
347.98	1632.23
348.19	1708.01
348.40	1732.58
348.61	1638.38
348.82	1710.05
349.03	1765.35
349.24	1634.28
349.45	1791.97
349.66	1609.70
349.88	1636.33
350.09	1599.46
350.30	1798.12
350.51	1724.39
350.72	1638.38
350.93	1660.90
351.14	1689.57
351.35	1712.10
351.56	1650.66
351.77	1665.00
351.99	1650.66
352.20	1740.77
352.41	1808.36
352.62	1591.27
352.83	1617.90
353.04	1746.92
353.25	1708.01
353.46	1769.44
353.67	1720.29
353.88	1638.38
354.09	1730.53
354.30	1718.25
354.52	1751.01
354.73	1701.86
354.94	1714.15
355.15	1738.73
355.36	1722.34
355.57	1673.19
355.78	1734.63
355.99	1601.51
356.20	1595.37
356.41	1738.73
356.62	1689.57
356.83	1701.86
357.04	1746.92
357.25	1601.51
357.46	1632.23
357.68	1617.90
357.89	1619.94
358.10	1660.90
358.31	1691.62
358.52	1638.38
358.73	1673.19
358.94	1728.49
359.15	1630.18
359.36	1755.11
359.57	1628.14
359.78	1675.24
359.99	1714.15
360.20	1607.66
360.41	1689.57
360.62	1665.00
360.83	1644.52
361.04	1800.16
361.25	1693.67
361.46	1767.40
361.67	1730.53
361.88	1722.34
362.09	1853.41
362.30	1722.34
362.51	1673.19
362.72	1624.04
362.93	1728.49
363.14	1701.86
363.35	1685.48
363.56	1673.19
363.78	1773.54
363.99	1736.68
364.20	1683.43
364.41	1699.81
364.62	1857.51
364.83	1691.62
365.04	1732.58
365.25	1669.09
365.46	1746.92
365.67	1619.94
365.88	1636.33
366.09	1728.49
366.30	1636.33
366.51	1681.38
366.72	1617.90
366.93	1665.00
367.14	1814.50
367.35	1785.83
367.56	1675.24
367.77	1767.40
367.98	1683.43
368.18	1732.58
368.39	1740.77
368.60	1648.61
368.81	1736.68
369.02	1761.25
369.23	1693.67
369.44	1634.28
369.65	1757.16
369.86	1685.48
370.07	1763.30
370.28	1652.71
370.49	1742.82
370.70	1699.81
370.91	1576.94
371.12	1652.71
371.33	1771.49
371.54	1685.48
371.75	1826.79
371.96	1560.55
372.17	1701.86
372.38	1662.95
372.59	1781.73
372.80	1726.44
373.01	1691.62
373.22	1736.68
373.43	1640.42
373.64	1595.37
373.85	1810.40
374.06	1851.36
374.26	1714.15
374.47	1726.44
374.68	1796.07
374.89	1703.91
375.10	1714.15
375.31	1726.44
375.52	1720.29
375.73	1708.01
375.94	1634.28
376.15	1771.49
376.36	1675.24
376.57	1701.86
376.78	1744.87
376.99	1710.05
377.20	1804.26
377.40	1648.61
377.61	1734.63
377.82	1583.08
378.03	1771.49
378.24	1849.32
378.45	1646.57
378.66	1726.44
378.87	1605.61
379.08	1609.70
379.29	1632.23
379.50	1710.05
379.71	1697.77
379.91	1771.49
380.12	1689.57
380.33	1693.67
380.54	1685.48
380.75	1662.95
380.96	1650.66
381.17	1730.53
381.38	1816.55
381.59	1708.01
381.80	1734.63
382.00	1837.03
382.21	1726.44
382.42	1837.03
382.63	1873.89
382.84	1685.48
383.05	1705.96
383.26	1837.03
383.47	1644.52
383.68	1720.29
383.88	1705.96
384.09	1712.10
384.30	1828.84
384.51	1744.87
384.72	1708.01
384.93	1644.52
385.14	1689.57
385.35	1761.25
385.55	1697.77
385.76	1740.77
385.97	1734.63
386.18	1634.28
386.39	1654.76
386.60	1626.09
386.81	1744.87
387.02	1660.90
387.22	1632.23
387.43	1697.77
387.64	1748.97
387.85	1869.80
388.06	2201.57
388.27	4241.34
388.48	6662.04
388.68	8118.15
388.89	9406.32
389.10	9760.62
389.31	8349.57
389.52	7409.55
389.73	6612.89
389.93	6334.37
390.14	5744.55
390.35	5132.21
390.56	4478.91
390.77	3708.87
390.98	2975.70
391.18	2551.77
391.39	2093.02
391.60	1849.32
391.81	1763.30
392.02	1654.76
392.23	1851.36
392.43	1740.77
392.64	1800.16
392.85	1665.00
393.06	1857.51
393.27	1757.16
393.47	1714.15
393.68	1693.67
393.89	1669.09
394.10	1800.16
394.31	1667.05
394.52	1626.09
394.72	1708.01
394.93	1683.43
395.14	1685.48
395.35	1728.49
395.56	1648.61
395.76	1763.30
395.97	1759.21
396.18	1781.73
396.39	1810.40
396.60	2041.82
396.80	1916.90
397.01	1902.56
397.22	1855.46
397.43	1839.08
397.64	1757.16
397.84	1820.64
398.05	1875.94
398.26	1763.30
398.47	1834.98
398.67	1769.44
398.88	1736.68
399.09	1763.30
399.30	1630.18
399.51	1740.77
399.71	1671.14
399.92	1685.48
400.13	1765.35
400.34	1677.29
400.54	1644.52
400.75	1826.79
400.96	1705.96
401.17	1806.31
401.37	1751.01
401.58	1761.25
401.79	1695.72
402.00	1873.89
402.21	1961.95
402.41	1953.76
402.62	1980.39
402.83	1996.77
403.04	1972.19
403.24	2093.02
403.45	1898.47
403.66	1902.56
403.87	1796.07
404.07	1912.80
404.28	1943.52
404.49	1853.41
404.70	1783.78
404.90	1787.88
405.11	1791.97
405.32	1714.15
405.52	1732.58
405.73	1679.33
405.94	1660.90
406.15	1687.53
406.35	1746.92
406.56	1681.38
406.77	1701.86
406.98	1710.05
407.18	1677.29
407.39	1751.01
407.60	1734.63
407.80	1701.86
408.01	1660.90
408.22	1697.77
408.43	1667.05
408.63	1673.19
408.84	1771.49
409.05	1832.93
409.25	1753.06
409.46	1619.94
409.67	1621.99
409.88	1703.91
410.08	1726.44
410.29	1652.71
410.50	1746.92
410.70	1742.82
410.91	1636.33
411.12	1730.53
411.32	1662.95
411.53	1652.71
411.74	1771.49
411.95	1748.97
412.15	1781.73
412.36	1773.54
412.57	1738.73
412.77	1734.63
412.98	1697.77
413.19	1646.57
413.39	1701.86
413.60	1814.50
413.81	1779.68
414.01	1699.81
414.22	1718.25
414.43	1820.64
414.63	1722.34
414.84	1789.92
415.05	1697.77
415.25	1619.94
415.46	1734.63
415.67	1699.81
415.87	1646.57
416.08	1640.42
416.29	1761.25
416.49	1761.25
416.70	1724.39
416.91	1699.81
417.11	1638.38
417.32	1820.64
417.53	1740.77
417.73	1636.33
417.94	1656.81
418.15	1730.53
418.35	1759.21
418.56	1716.20
418.77	1740.77
418.97	1773.54
419.18	1646.57
419.38	1636.33
419.59	1744.87
419.80	1783.78
420.00	1677.29
420.21	1689.57
420.42	1751.01
420.62	1722.34
420.83	1660.90
421.04	1654.76
421.24	1683.43
421.45	1730.53
421.65	1703.91
421.86	1697.77
422.07	1708.01
422.27	1652.71
422.48	1673.19
422.69	1689.57
422.89	1738.73
423.10	1703.91
423.30	1660.90
423.51	1755.11
423.72	1646.57
423.92	1775.59
424.13	1646.57
424.33	1697.77
424.54	1708.01
424.75	1652.71
424.95	1794.02
425.16	1765.35
425.36	1677.29
425.57	1769.44
425.78	1728.49
425.98	1794.02
426.19	1615.85
426.39	1699.81
426.60	1681.38
426.81	1763.30
427.01	1734.63
427.22	1662.95
427.42	1599.46
427.63	1601.51
427.83	1812.45
428.04	1779.68
428.25	1726.44
428.45	1738.73
428.66	1736.68
428.86	1712.10
429.07	1740.77
429.28	1732.58
429.48	1728.49
429.69	1619.94
429.89	1675.24
430.10	1677.29
430.30	1716.20
430.51	1771.49
430.71	1652.71
430.92	1705.96
431.13	1646.57
431.33	1718.25
431.54	1755.11
431.74	1736.68
431.95	1861.60
432.15	1595.37
432.36	1697.77
432.56	1798.12
432.77	1794.02
432.98	1785.83
433.18	1746.92
433.39	1615.85
433.59	1624.04
433.80	1773.54
434.00	1777.64
434.21	1708.01
434.41	1632.23
434.62	1814.50
434.82	1599.46
435.03	1646.57
435.23	1794.02
435.44	1658.85
435.64	1763.30
435.85	1765.35
436.06	1720.29
436.26	1708.01
436.47	1617.90
436.67	1718.25
436.88	1665.00
437.08	1714.15
437.29	1820.64
437.49	1632.23
437.70	1761.25
437.90	1744.87
438.11	1781.73
438.31	1843.17
438.52	1861.60
438.72	1910.75
438.93	1877.99
439.13	1841.12
439.34	1826.79
439.54	1693.67
439.75	1830.88
439.95	1837.03
440.16	1736.68
440.36	1798.12
440.57	1705.96
440.77	1798.12
440.98	1775.59
441.18	1804.26
441.39	1648.61
441.59	1630.18
441.80	1771.49
442.00	1767.40
442.21	1751.01
442.41	1650.66
442.62	1812.45
442.82	1683.43
443.02	1701.86
443.23	1755.11
443.43	1722.34
443.64	1751.01
443.84	1703.91
444.05	1816.55
444.25	1695.72
444.46	1673.19
444.66	1705.96
444.87	1783.78
445.07	1677.29
445.28	1753.06
445.48	1806.31
445.69	1703.91
445.89	1892.32
446.09	1779.68
446.30	2090.98
446.50	2772.95
446.71	3641.29
446.91	4210.62
447.12	4607.93
447.32	4843.45
447.53	4339.65
447.73	3846.09
447.93	3520.46
448.14	3315.66
448.34	3172.30
448.55	2934.74
448.75	2811.86
448.96	2678.74
449.16	2439.13
449.36	2275.29
449.57	2027.49
449.77	1845.22
449.98	1798.12
450.18	1773.54
450.39	1746.92
450.59	1716.20
450.79	1789.92
451.00	1640.42
451.20	1751.01
451.41	1685.48
451.61	1753.06
451.81	1665.00
452.02	1724.39
452.22	1679.33
452.43	1650.66
452.63	1671.14
452.84	1671.14
453.04	1755.11
453.24	1841.12
453.45	1703.91
453.65	1765.35
453.86	1716.20
454.06	1765.35
454.26	1656.81
454.47	1703.91
454.67	1818.60
454.87	1730.53
455.08	1748.97
455.28	1765.35
455.49	1740.77
455.69	1689.57
455.89	1785.83
456.10	1855.46
456.30	1621.99
456.51	1710.05
456.71	1789.92
456.91	1761.25
457.12	1724.39
457.32	1742.82
457.52	1724.39
457.73	1777.64
457.93	1767.40
458.14	1748.97
458.34	1621.99
458.54	1761.25
458.75	1677.29
458.95	1746.92
459.15	1773.54
459.36	1773.54
459.56	1798.12
459.76	1892.32
459.97	1724.39
460.17	1738.73
460.37	1798.12
460.58	1742.82
460.78	1775.59
460.99	1685.48
461.19	1689.57
461.39	1693.67
461.60	1744.87
461.80	1757.16
462.00	1626.09
462.21	1732.58
462.41	1642.47
462.61	1673.19
462.82	1744.87
463.02	1732.58
463.22	1722.34
463.43	1746.92
463.63	1705.96
463.83	1837.03
464.04	1728.49
464.24	1757.16
464.44	1671.14
464.64	1705.96
464.85	1710.05
465.05	1759.21
465.25	1761.25
465.46	1701.86
465.66	1757.16
465.86	1791.97
466.07	1697.77
466.27	1679.33
466.47	1626.09
466.68	1691.62
466.88	1816.55
467.08	1755.11
467.29	1779.68
467.49	1759.21
467.69	1787.88
467.89	1730.53
468.10	1757.16
468.30	1716.20
468.50	1806.31
468.71	1685.48
468.91	1683.43
469.11	1820.64
469.31	1689.57
469.52	1703.91
469.72	1767.40
469.92	1859.56
470.13	1687.53
470.33	1705.96
470.53	1806.31
470.73	2140.13
470.94	2234.33
471.14	2260.96
471.34	2463.71
471.54	2418.65
471.75	2215.90
471.95	2078.69
472.15	2060.26
472.36	2172.89
472.56	2111.46
472.76	2033.63
472.96	1968.10
473.17	1939.43
473.37	1853.41
473.57	1794.02
473.77	1767.40
473.98	1775.59
474.18	1675.24
474.38	1867.75
474.58	1710.05
474.79	1683.43
474.99	1769.44
475.19	1722.34
475.39	1613.80
475.60	1701.86
475.80	1681.38
476.00	1751.01
476.20	1662.95
476.41	1824.74
476.61	1744.87
476.81	1763.30
477.01	1667.05
477.21	1787.88
477.42	1812.45
477.62	1753.06
477.82	1806.31
478.02	1705.96
478.23	1806.31
478.43	1648.61
478.63	1693.67
478.83	1712.10
479.03	1650.66
479.24	1753.06
479.44	1820.64
479.64	1611.75
479.84	1685.48
480.04	1796.07
480.25	1712.10
480.45	1732.58
480.65	1665.00
480.85	1757.16
481.06	1656.81
481.26	1744.87
481.46	1744.87
481.66	1742.82
481.86	1654.76
482.06	1744.87
482.27	1667.05
482.47	1642.47
482.67	1705.96
482.87	1689.57
483.07	1794.02
483.28	1673.19
483.48	1699.81
483.68	1687.53
483.88	1656.81
484.08	1626.09
484.29	1693.67
484.49	1724.39
484.69	1677.29
484.89	1834.98
485.09	1748.97
485.29	1732.58
485.50	1763.30
485.70	1583.08
485.90	1726.44
486.10	1773.54
486.30	1738.73
486.50	1748.97
486.71	1699.81
486.91	1669.09
487.11	1738.73
487.31	1667.05
487.51	1675.24
487.71	1685.48
487.91	1603.56
488.12	1667.05
488.32	1640.42
488.52	1720.29
488.72	1615.85
488.92	1765.35
489.12	1767.40
489.32	1800.16
489.53	1798.12
489.73	1650.66
489.93	1794.02
490.13	1781.73
490.33	1658.85
490.53	1759.21
490.73	1730.53
490.94	1646.57
491.14	1693.67
491.34	1730.53
491.54	2129.89
491.74	2535.39
491.94	2912.21
492.14	2981.84
492.34	2996.18
492.54	2674.65
492.75	2451.42
492.95	2328.54
493.15	2306.01
493.35	2220.00
493.55	2152.42
493.75	2107.36
493.95	2076.64
494.15	2002.91
494.35	1918.95
494.56	1880.04
494.76	1718.25
494.96	1804.26
495.16	1748.97
495.36	1718.25
495.56	1779.68
495.76	1683.43
495.96	1716.20
496.16	1679.33
496.36	1751.01
496.56	1687.53
496.77	1744.87
496.97	1642.47
497.17	1701.86
497.37	1619.94
497.57	1730.53
497.77	1763.30
497.97	1619.94
498.17	1751.01
498.37	1677.29
498.57	1697.77
498.77	1740.77
498.97	1765.35
499.17	1738.73
499.38	1757.16
499.58	1736.68
499.78	1726.44
499.98	1873.89
500.18	1714.15
500.38	1705.96
500.58	1902.56
500.78	2496.47
500.98	4528.06
501.18	5719.98
501.38	6508.44
501.58	6961.05
501.78	6428.57
501.98	5398.45
502.18	4837.30
502.38	4292.54
502.58	4175.81
502.78	3657.67
502.98	3610.57
503.18	3479.50
503.38	3110.86
503.59	2920.40
503.79	2654.17
503.99	2459.61
504.19	2308.06
504.39	2254.81
504.59	2162.66
504.79	2172.89
504.99	2093.02
505.19	1826.79
505.39	1861.60
505.59	1959.91
505.79	1920.99
505.99	1785.83
506.19	1851.36
506.39	1918.95
506.59	1730.53
506.79	1705.96
506.99	1777.64
507.19	1726.44
507.39	1759.21
507.59	1665.00
507.79	1714.15
507.99	1648.61
508.19	1734.63
508.39	1648.61
508.59	1769.44
508.79	1826.79
508.99	1822.69
509.19	1665.00
509.39	1720.29
509.59	1648.61
509.79	1679.33
509.99	1714.15
510.19	1787.88
510.39	1697.77
510.59	1685.48
510.79	1751.01
510.99	1660.90
511.19	1787.88
511.39	1834.98
511.59	1736.68
511.79	1814.50
511.99	1771.49
512.19	1728.49
512.38	1732.58
512.58	1720.29
512.78	1652.71
512.98	1806.31
513.18	1828.84
513.38	1701.86
513.58	1761.25
513.78	1646.57
513.98	1710.05
514.18	1763.30
514.38	1693.67
514.58	1722.34
514.78	1714.15
514.98	1669.09
515.18	1791.97
515.38	1660.90
515.58	1808.36
515.78	1701.86
515.98	1753.06
516.18	1814.50
516.38	1751.01
516.57	1796.07
516.77	1744.87
516.97	1757.16
517.17	1742.82
517.37	1607.66
517.57	1738.73
517.77	1726.44
517.97	1665.00
518.17	1798.12
518.37	1640.42
518.57	1736.68
518.77	1656.81
518.97	1740.77
519.16	1767.40
519.36	1753.06
519.56	1681.38
519.76	1734.63
519.96	1658.85
520.16	1705.96
520.36	1638.38
520.56	1867.75
520.76	1665.00
520.96	1734.63
521.16	1746.92
521.35	1800.16
521.55	1810.40
521.75	1736.68
521.95	1642.47
522.15	1740.77
522.35	1632.23
522.55	1626.09
522.75	1787.88
522.95	1724.39
523.14	1693.67
523.34	1791.97
523.54	1669.09
523.74	1796.07
523.94	1791.97
524.14	1632.23
524.34	1722.34
524.54	1791.97
524.73	1691.62
524.93	1761.25
525.13	1808.36
525.33	1693.67
525.53	1888.23
525.73	1800.16
525.93	1685.48
526.13	1744.87
526.32	1693.67
526.52	1742.82
526.72	1789.92
526.92	1757.16
527.12	1753.06
527.32	1675.24
527.52	1765.35
527.71	1763.30
527.91	1685.48
528.11	1665.00
528.31	1755.11
528.51	1607.66
528.71	1748.97
528.90	1794.02
529.10	1798.12
529.30	1748.97
529.50	1603.56
529.70	1632.23
529.90	1738.73
530.09	1740.77
530.29	1654.76
530.49	1708.01
530.69	1814.50
530.89	1755.11
531.09	1783.78
531.28	1636.33
531.48	1804.26
531.68	1669.09
531.88	1755.11
532.08	1843.17
532.28	1697.77
532.47	1751.01
532.67	1775.59
532.87	1687.53
533.07	1703.91
533.27	1763.30
533.46	1671.14
533.66	1757.16
533.86	1773.54
534.06	1720.29
534.26	1791.97
534.45	1748.97
534.65	1753.06
534.85	1767.40
535.05	1648.61
535.25	1761.25
535.44	1705.96
535.64	1720.29
535.84	1755.11
536.04	1738.73
536.24	1736.68
536.43	1687.53
536.63	1714.15
536.83	1640.42
537.03	1728.49
537.22	1550.31
537.42	1660.90
537.62	1708.01
537.82	1757.16
538.02	1818.60
538.21	1785.83
538.41	1867.75
538.61	1736.68
538.81	1654.76
539.00	1773.54
539.20	1632.23
539.40	1615.85
539.60	1744.87
539.79	1804.26
539.99	1730.53
540.19	1695.72
540.39	1677.29
540.58	1769.44
540.78	1800.16
540.98	1798.12
541.18	1699.81
541.37	1769.44
541.57	1751.01
541.77	1783.78
541.97	1679.33
542.16	1660.90
542.36	1765.35
542.56	1742.82
542.76	1761.25
542.95	1712.10
543.15	1757.16
543.35	1773.54
543.54	1673.19
543.74	1636.33
543.94	1787.88
544.14	1742.82
544.33	1708.01
544.53	1765.35
544.73	1669.09
544.93	1654.76
545.12	1722.34
545.32	1642.47
545.52	1753.06
545.71	1675.24
545.91	1685.48
546.11	1748.97
546.30	1605.61
546.50	1761.25
546.70	1787.88
546.90	1720.29
547.09	1742.82
547.29	1724.39
547.49	1810.40
547.68	1718.25
547.88	1615.85
548.08	1779.68
548.27	2064.35
548.47	1687.53
548.67	1730.53
548.87	1814.50
549.06	1753.06
549.26	1742.82
549.46	1763.30
549.65	1769.44
549.85	1695.72
550.05	1751.01
550.24	1656.81
550.44	1806.31
550.64	1726.44
550.83	1667.05
551.03	1847.27
551.23	1845.22
551.42	1779.68
551.62	1720.29
551.82	1665.00
552.01	1701.86
552.21	1783.78
552.41	1755.11
552.60	1871.84
552.80	1755.11
553.00	1603.56
553.19	1738.73
553.39	1849.32
553.59	1656.81
553.78	1779.68
553.98	1732.58
554.17	1673.19
554.37	1677.29
554.57	1738.73
554.76	1648.61
554.96	1681.38
555.16	1769.44
555.35	1708.01
555.55	1671.14
555.75	1767.40
555.94	1681.38
556.14	1652.71
556.33	1767.40
556.53	1744.87
556.73	1744.87
556.92	1716.20
557.12	1771.49
557.32	1812.45
557.51	1812.45
557.71	1652.71
557.90	1869.80
558.10	1877.99
558.30	1632.23
558.49	1689.57
558.69	1734.63
558.88	1753.06
559.08	1798.12
559.28	1785.83
559.47	1730.53
559.67	1798.12
559.86	1843.17
560.06	1740.77
560.26	1705.96
560.45	1646.57
560.65	1710.05
560.84	1867.75
561.04	1746.92
561.24	1683.43
561.43	1619.94
561.63	1822.69
561.82	1714.15
562.02	1812.45
562.22	1687.53
562.41	1626.09
562.61	1687.53
562.80	1730.53
563.00	1812.45
563.19	1763.30
563.39	1804.26
563.59	1669.09
563.78	1597.42
563.98	1697.77
564.17	1689.57
564.37	1615.85
564.56	1832.93
564.76	1705.96
564.96	1845.22
565.15	1796.07
565.35	1880.04
565.54	1710.05
565.74	1794.02
565.93	1695.72
566.13	1693.67
566.32	1753.06
566.52	1773.54
566.71	1753.06
566.91	1810.40
567.11	1708.01
567.30	1734.63
567.50	1761.25
567.69	1734.63
567.89	1642.47
568.08	1759.21
568.28	1724.39
568.47	1695.72
568.67	1773.54
568.86	1732.58
569.06	1722.34
569.25	1787.88
569.45	1593.32
569.64	1765.35
569.84	1728.49
570.04	1736.68
570.23	1693.67
570.43	1722.34
570.62	1748.97
570.82	1787.88
571.01	1609.70
571.21	1648.61
571.40	1699.81
571.60	1746.92
571.79	1722.34
571.99	1656.81
572.18	1654.76
572.38	1861.60
572.57	1710.05
572.77	1800.16
572.96	1853.41
573.16	1777.64
573.35	1669.09
573.55	1783.78
573.74	1738.73
573.94	1675.24
574.13	1742.82
574.33	1832.93
574.52	1779.68
574.71	1736.68
574.91	1740.77
575.10	1605.61
575.30	1761.25
575.49	1638.38
575.69	1683.43
575.88	1851.36
576.08	1701.86
576.27	1773.54
576.47	1710.05
576.66	1867.75
576.86	1818.60
577.05	1775.59
577.25	1742.82
577.44	1877.99
577.64	1705.96
577.83	1785.83
578.02	1722.34
578.22	1865.70
578.41	1830.88
578.61	1800.16
578.80	1644.52
579.00	1710.05
579.19	1759.21
579.39	1689.57
579.58	1777.64
579.77	1771.49
579.97	1806.31
580.16	1789.92
580.36	1812.45
580.55	1779.68
580.75	1753.06
580.94	1734.63
581.13	1851.36
581.33	1847.27
581.52	1734.63
581.72	1853.41
581.91	1765.35
582.11	1708.01
582.30	1808.36
582.49	1757.16
582.69	1832.93
582.88	1832.93
583.08	1726.44
583.27	1781.73
583.47	1656.81
583.66	1705.96
583.85	1746.92
584.05	1718.25
584.24	1814.50
584.44	1802.21
584.63	1845.22
584.82	1812.45
585.02	1837.03
585.21	1787.88
585.41	1875.94
585.60	1759.21
585.79	1931.23
585.99	1951.71
586.18	1847.27
586.37	2271.20
586.57	3303.37
586.76	9748.33
586.96	24176.27
587.15	33781.24
587.34	39832.99
587.54	41538.95
587.73	36371.92
587.93	26345.07
588.12	21376.70
588.31	18134.76
588.51	16039.69
588.70	15007.52
588.89	13823.79
589.09	12652.35
589.28	11054.94
589.47	9434.99
589.67	8157.06
589.86	6436.77
590.06	4857.78
590.25	4014.02
590.44	3069.91
590.64	2516.95
590.83	2244.57
591.02	2021.35
591.22	1968.10
591.41	1953.76
591.60	1820.64
591.80	1890.28
591.99	1697.77
592.18	1814.50
592.38	1773.54
592.57	1730.53
592.76	1783.78
592.96	1789.92
593.15	1699.81
593.34	1824.74
593.54	1693.67
593.73	1800.16
593.92	1789.92
594.12	1802.21
594.31	1783.78
594.50	1783.78
594.70	1806.31
594.89	1877.99
595.08	1699.81
595.28	1693.67
595.47	1875.94
595.66	1734.63
595.86	1705.96
596.05	1710.05
596.24	1753.06
596.43	1779.68
596.63	1859.56
596.82	1798.12
597.01	1712.10
597.21	1875.94
597.40	1687.53
597.59	1771.49
597.79	1705.96
597.98	1767.40
598.17	1779.68
598.36	1808.36
598.56	1800.16
598.75	1787.88
598.94	1806.31
599.14	1771.49
599.33	1712.10
599.52	1777.64
599.71	1794.02
599.91	1789.92
600.10	1785.83
600.29	1757.16
600.48	1794.02
600.68	1777.64
600.87	1748.97
601.06	1691.62
601.26	1656.81
601.45	1771.49
601.64	1693.67
601.83	1814.50
602.03	1693.67
602.22	1751.01
602.41	1722.34
602.60	1845.22
602.80	1869.80
602.99	1779.68
603.18	1705.96
603.37	1693.67
603.57	1759.21
603.76	1751.01
603.95	1712.10
604.14	1699.81
604.34	1650.66
604.53	1787.88
604.72	1759.21
604.91	1734.63
605.10	1812.45
605.30	1681.38
605.49	1841.12
605.68	1863.65
605.87	1759.21
606.07	1650.66
606.26	1695.72
606.45	1763.30
606.64	1669.09
606.84	1660.90
607.03	1667.05
607.22	1771.49
607.41	1701.86
607.60	1738.73
607.80	1796.07
607.99	1796.07
608.18	1748.97
608.37	1685.48
608.56	1628.14
608.76	1753.06
608.95	1742.82
609.14	1738.73
609.33	1730.53
609.52	1751.01
609.72	1705.96
609.91	1783.78
610.10	1796.07
610.29	1732.58
610.48	1732.58
610.68	1808.36
610.87	1683.43
611.06	1751.01
611.25	1597.42
611.44	1699.81
611.63	1722.34
611.83	1822.69
612.02	1605.61
612.21	1800.16
612.40	1599.46
612.59	1613.80
612.79	1730.53
612.98	1677.29
613.17	1810.40
613.36	1779.68
613.55	1824.74
613.74	1681.38
613.93	1665.00
614.13	1736.68
614.32	1824.74
614.51	1800.16
614.70	1679.33
614.89	1652.71
615.08	1771.49
615.28	2095.07
615.47	1669.09
615.66	1712.10
615.85	1628.14
616.04	1783.78
616.23	1681.38
616.42	1714.15
616.62	1781.73
616.81	1775.59
617.00	1695.72
617.19	1730.53
617.38	1785.83
617.57	1712.10
617.76	1751.01
617.95	1783.78
618.15	1740.77
618.34	1734.63
618.53	1607.66
618.72	1812.45
618.91	1794.02
619.10	1877.99
619.29	1687.53
619.48	1746.92
619.68	1644.52
619.87	1740.77
620.06	1615.85
620.25	1699.81
620.44	1703.91
620.63	1681.38
620.82	1726.44
621.01	1697.77
621.20	1613.80
621.39	1818.60
621.59	1769.44
621.78	1669.09
621.97	1720.29
622.16	1683.43
622.35	1757.16
622.54	1777.64
622.73	1716.20
622.92	1699.81
623.11	1656.81
623.30	1699.81
623.49	1796.07
623.68	1650.66
623.88	1849.32
624.07	1697.77
624.26	1705.96
624.45	1765.35
624.64	1697.77
624.83	1705.96
625.02	1798.12
625.21	1730.53
625.40	1697.77
625.59	1845.22
625.78	1630.18
625.97	1763.30
626.16	1861.60
626.35	1748.97
626.54	1710.05
626.74	1861.60
626.93	1632.23
627.12	1744.87
627.31	1771.49
627.50	1732.58
627.69	1759.21
627.88	1796.07
628.07	1736.68
628.26	1636.33
628.45	1654.76
628.64	1589.22
628.83	1734.63
629.02	1607.66
629.21	1757.16
629.40	1736.68
629.59	1699.81
629.78	1615.85
629.97	1705.96
630.16	1689.57
630.35	1742.82
630.54	1718.25
630.73	1654.76
630.92	1730.53
631.11	1681.38
631.30	1726.44
631.49	1765.35
631.68	1751.01
631.87	1685.48
632.06	1638.38
632.25	1888.23
632.44	1710.05
632.63	1712.10
632.82	1624.04
633.01	1683.43
633.20	1730.53
633.39	1669.09
633.58	1648.61
633.77	1712.10
633.96	1732.58
634.15	1705.96
634.34	1677.29
634.53	1730.53
634.72	1679.33
634.91	1630.18
635.10	1699.81
635.29	1757.16
635.48	1699.81
635.67	1603.56
635.86	1685.48
636.05	1751.01
636.24	1724.39
636.43	1763.30
636.62	1757.16
636.81	1558.50
637.00	1708.01
637.19	1746.92
637.38	1757.16
637.57	1705.96
637.76	1667.05
637.95	1730.53
638.14	1675.24
638.33	1718.25
638.52	1744.87
638.71	1671.14
638.89	1615.85
639.08	1900.52
639.27	1667.05
639.46	1640.42
639.65	1796.07
639.84	1816.55
640.03	1724.39
640.22	1773.54
640.41	1806.31
640.60	1683.43
640.79	1689.57
640.98	1681.38
641.17	1714.15
641.36	1742.82
641.55	1734.63
641.74	1656.81
641.92	1626.09
642.11	1650.66
642.30	1660.90
642.49	1730.53
642.68	1730.53
642.87	1722.34
643.06	1781.73
643.25	1687.53
643.44	1736.68
643.63	1658.85
643.82	1703.91
644.00	1718.25
644.19	1705.96
644.38	1652.71
644.57	1665.00
644.76	1714.15
644.95	1767.40
645.14	1658.85
645.33	1662.95
645.52	1744.87
645.71	1626.09
645.89	1693.67
646.08	1761.25
646.27	1667.05
646.46	1818.60
646.65	1630.18
646.84	1761.25
647.03	1687.53
647.22	1732.58
647.40	1687.53
647.59	1705.96
647.78	1599.46
647.97	1628.14
648.16	1609.70
648.35	1734.63
648.54	1675.24
648.73	1744.87
648.91	1755.11
649.10	1738.73
649.29	1660.90
649.48	1736.68
649.67	1746.92
649.86	1738.73
650.05	1681.38
650.23	1695.72
650.42	1646.57
650.61	1722.34
650.80	1751.01
650.99	1828.84
651.18	1738.73
651.36	1787.88
651.55	1605.61
651.74	1677.29
651.93	1681.38
652.12	1601.51
652.31	1699.81
652.49	1714.15
652.68	1597.42
652.87	1759.21
653.06	1746.92
653.25	1783.78
653.44	1732.58
653.62	1855.46
653.81	1632.23
654.00	1789.92
654.19	1705.96
654.38	1877.99
654.56	1703.91
654.75	1650.66
654.94	1751.01
655.13	1816.55
655.32	1683.43
655.51	1732.58
655.69	1626.09
655.88	1796.07
656.07	1718.25
656.26	1798.12
656.45	1603.56
656.63	1718.25
656.82	1671.14
657.01	1757.16
657.20	1777.64
657.38	1777.64
657.57	1705.96
657.76	1699.81
657.95	1736.68
658.14	1675.24
658.32	1679.33
658.51	1720.29
658.70	1718.25
658.89	1712.10
659.08	1800.16
659.26	1804.26
659.45	1601.51
659.64	1732.58
659.83	1665.00
660.01	1843.17
660.20	1705.96
660.39	1736.68
660.58	1589.22
660.76	1767.40
660.95	1644.52
661.14	1773.54
661.33	1617.90
661.51	1736.68
661.70	1617.90
661.89	1742.82
662.08	1665.00
662.26	1593.32
662.45	1738.73
662.64	1767.40
662.83	1757.16
663.01	1609.70
663.20	1718.25
663.39	1789.92
663.58	1683.43
663.76	1705.96
663.95	1773.54
664.14	1685.48
664.32	1656.81
664.51	1689.57
664.70	1693.67
664.89	1691.62
665.07	1628.14
665.26	1744.87
665.45	1601.51
665.64	1787.88
665.82	1710.05
666.01	1773.54
666.20	1695.72
666.38	1800.16
666.57	1765.35
666.76	2211.81
666.95	4433.85
667.13	10084.20
667.32	14993.18
667.51	17544.95
667.69	18865.89
667.88	17377.01
668.07	12255.04
668.25	9582.45
668.44	8140.68
668.63	7284.62
668.81	6807.45
669.00	6027.17
669.19	5593.00
669.38	5130.16
669.56	4456.38
669.75	3874.76
669.94	3428.30
670.12	2883.54
670.31	2508.76
670.50	2303.96
670.68	2095.07
670.87	1986.53
671.06	1748.97
671.24	1763.30
671.43	1875.94
671.62	1740.77
671.80	1669.09
671.99	1816.55
672.18	1744.87
672.36	1714.15
672.55	1779.68
672.74	1583.08
672.92	1712.10
673.11	1712.10
673.29	1656.81
673.48	1798.12
673.67	1605.61
673.85	1765.35
674.04	1708.01
674.23	1757.16
674.41	1869.80
674.60	1714.15
674.79	1626.09
674.97	1662.95
675.16	1691.62
675.34	1705.96
675.53	1677.29
675.72	1779.68
675.90	1834.98
676.09	1691.62
676.28	1705.96
676.46	1701.86
676.65	1650.66
676.83	1689.57
677.02	1742.82
677.21	1689.57
677.39	1753.06
677.58	1654.76
677.77	1669.09
677.95	1681.38
678.14	1632.23
678.32	1673.19
678.51	1699.81
678.70	1834.98
678.88	1708.01
679.07	1710.05
679.25	1646.57
679.44	1734.63
679.63	1626.09
679.81	1781.73
680.00	1701.86
680.18	1687.53
680.37	1740.77
680.55	1738.73
680.74	1591.27
680.93	1601.51
681.11	1824.74
681.30	1734.63
681.48	1753.06
681.67	1677.29
681.85	1673.19
682.04	1673.19
682.23	1746.92
682.41	1722.34
682.60	1734.63
682.78	1736.68
682.97	1654.76
683.15	1787.88
683.34	1689.57
683.53	1783.78
683.71	1669.09
683.90	1812.45
684.08	1943.52
684.27	1640.42
684.45	1638.38
684.64	1728.49
684.82	1693.67
685.01	1753.06
685.19	1732.58
685.38	1785.83
685.57	1677.29
685.75	1685.48
685.94	1652.71
686.12	1724.39
686.31	1638.38
686.49	1810.40
686.68	1603.56
686.86	1726.44
687.05	1609.70
687.23	1763.30
687.42	1697.77
687.60	1675.24
687.79	1802.21
687.97	1787.88
688.16	1826.79
688.34	1744.87
688.53	1576.94
688.71	1771.49
688.90	1779.68
689.08	1640.42
689.27	1628.14
689.45	1716.20
689.64	1708.01
689.82	1742.82
690.01	1767.40
690.19	1726.44
690.38	1726.44
690.56	1806.31
690.75	1667.05
690.93	1665.00
691.12	1648.61
691.30	1710.05
691.49	1671.14
691.67	1636.33
691.86	1804.26
692.04	1658.85
692.23	1660.90
692.41	1738.73
692.60	1753.06
692.78	1746.92
692.97	1705.96
693.15	1714.15
693.34	1830.88
693.52	1781.73
693.71	1687.53
693.89	1646.57
694.08	1683.43
694.26	1771.49
694.44	1685.48
694.63	1710.05
694.81	1705.96
695.00	1648.61
695.18	1791.97
695.37	1783.78
695.55	1751.01
695.74	1736.68
695.92	1787.88
696.10	1732.58
696.29	1593.32
696.47	1617.90
696.66	1634.28
696.84	1665.00
697.03	1761.25
697.21	1820.64
697.40	2351.07
697.58	1734.63
697.76	1640.42
697.95	1710.05
698.13	1673.19
698.32	1681.38
698.50	1718.25
698.68	1687.53
698.87	1734.63
699.05	1839.08
699.24	1693.67
699.42	1642.47
699.61	1732.58
699.79	1722.34
699.97	1691.62
700.16	1650.66
700.34	1628.14
700.53	1740.77
700.71	1791.97
700.89	1787.88
701.08	1675.24
701.26	1746.92
701.45	2062.30
701.63	1644.52
701.81	1630.18
702.00	1708.01
702.18	1757.16
702.37	1714.15
702.55	1773.54
702.73	1677.29
702.92	1697.77
703.10	1822.69
703.28	1681.38
703.47	1652.71
703.65	1802.21
703.84	1703.91
704.02	1617.90
704.20	1726.44
704.39	1658.85
704.57	1751.01
704.75	1757.16
704.94	1851.36
705.12	1687.53
705.30	1779.68
705.49	2222.05
705.67	4290.49
705.86	9324.40
706.04	12336.96
706.22	14255.91
706.41	15257.37
706.59	13604.66
706.77	9381.74
706.96	7450.51
707.14	6596.51
707.32	6027.17
707.51	5595.05
707.69	4874.17
707.87	4163.52
708.06	3665.86
708.24	3030.99
708.42	2416.60
708.61	2273.25
708.79	1931.23
708.97	1814.50
709.16	1755.11
709.34	1779.68
709.52	1796.07
709.71	1712.10
709.89	1757.16
710.07	1773.54
710.26	1667.05
710.44	1638.38
710.62	1732.58
710.80	1665.00
710.99	1751.01
711.17	1796.07
711.35	1662.95
711.54	1652.71
711.72	1789.92
711.90	1697.77
712.09	1718.25
712.27	1658.85
712.45	1689.57
712.63	1630.18
712.82	1695.72
713.00	1646.57
713.18	1746.92
713.37	1740.77
713.55	1730.53
713.73	1708.01
713.91	1722.34
714.10	1703.91
714.28	1730.53
714.46	1744.87
714.65	1675.24
714.83	1671.14
715.01	1689.57
715.19	1738.73
715.38	1656.81
715.56	1742.82
715.74	1599.46
715.92	1695.72
716.11	1771.49
716.29	1605.61
716.47	1660.90
716.65	1742.82
716.84	1681.38
717.02	1712.10
717.20	1593.32
717.38	1603.56
717.57	1712.10
717.75	1685.48
717.93	1728.49
718.11	1730.53
718.30	1699.81
718.48	1705.96
718.66	1724.39
718.84	1789.92
719.03	1669.09
719.21	1646.57
719.39	1806.31
719.57	1701.86
719.75	1763.30
719.94	1665.00
720.12	1642.47
720.30	1728.49
720.48	1802.21
720.67	1691.62
720.85	1632.23
721.03	1730.53
721.21	1642.47
721.39	1771.49
721.58	1753.06
721.76	1703.91
721.94	1740.77
722.12	1755.11
722.30	1785.83
722.49	1701.86
722.67	1695.72
722.85	1710.05
723.03	1675.24
723.21	1691.62
723.40	1660.90
723.58	1724.39
723.76	1730.53
723.94	1716.20
724.12	1699.81
724.30	1736.68
724.49	1771.49
724.67	1675.24
724.85	1753.06
725.03	1585.13
725.21	1728.49
725.40	1751.01
725.58	1601.51
725.76	1736.68
725.94	1642.47
726.12	1591.27
726.30	1763.30
726.49	1748.97
726.67	1673.19
726.85	1675.24
727.03	1806.31
727.21	2103.26
727.39	2879.44
727.57	3778.50
727.76	4114.37
727.94	4429.76
728.12	4380.61
728.30	3647.43
728.48	2955.22
728.66	2717.65
728.84	2539.48
729.03	2303.96
729.21	2107.36
729.39	2047.97
729.57	1824.74
729.75	1900.52
729.93	1796.07
730.11	1687.53
730.30	1675.24
730.48	1726.44
730.66	1832.93
730.84	1800.16
731.02	1701.86
731.20	1646.57
731.38	1712.10
731.56	1621.99
731.74	1675.24
731.93	1775.59
732.11	1755.11
732.29	1677.29
732.47	1718.25
732.65	1722.34
732.83	1761.25
733.01	1787.88
733.19	1724.39
733.37	1718.25
733.56	1689.57
733.74	1658.85
733.92	1738.73
734.10	1632.23
734.28	1681.38
734.46	1552.36
734.64	1630.18
734.82	1714.15
735.00	1656.81
735.18	1660.90
735.36	1648.61
735.54	1699.81
735.73	1697.77
735.91	1679.33
736.09	1728.49
736.27	1742.82
736.45	1726.44
736.63	1634.28
736.81	1640.42
736.99	1808.36
737.17	1755.11
737.35	1746.92
737.53	1701.86
737.71	1652.71
737.89	1765.35
738.07	1628.14
738.25	1632.23
738.43	1638.38
738.61	1705.96
738.80	1646.57
738.98	1570.79
739.16	1660.90
739.34	1628.14
739.52	1818.60
739.70	1728.49
739.88	1728.49
740.06	1763.30
740.24	1587.18
740.42	1740.77
740.60	1654.76
740.78	1650.66
740.96	1652.71
741.14	1644.52
741.32	1740.77
741.50	1683.43
741.68	1853.41
741.86	1736.68
742.04	1685.48
742.22	1675.24
742.40	1785.83
742.58	1699.81
742.76	1656.81
742.94	1708.01
743.12	1646.57
743.30	1703.91
743.48	1699.81
743.66	1636.33
743.84	1716.20
744.02	1697.77
744.20	1777.64
744.38	1642.47
744.56	1716.20
744.74	1802.21
744.92	1648.61
745.10	1808.36
745.28	1744.87
745.46	1822.69
745.64	1679.33
745.82	1791.97
746.00	1679.33
746.18	1777.64
746.36	1630.18
746.54	1708.01
746.72	1675.24
746.90	1685.48
747.08	1830.88
747.26	1621.99
747.44	1759.21
747.62	1599.46
747.80	1667.05
747.98	1777.64
748.15	1630.18
748.33	1759.21
748.51	1685.48
748.69	1796.07
748.87	1626.09
749.05	1640.42
749.23	1673.19
749.41	1701.86
749.59	1773.54
749.77	1759.21
749.95	1701.86
750.13	1685.48
750.31	1728.49
750.49	1703.91
750.67	1724.39
750.85	1777.64
751.03	1695.72
751.20	1806.31
751.38	1738.73
751.56	1679.33
751.74	1644.52
751.92	1638.38
752.10	1646.57
752.28	1791.97
752.46	1667.05
752.64	1703.91
752.82	1714.15
753.00	1732.58
753.18	1626.09
753.35	1667.05
753.53	1710.05
753.71	1675.24
753.89	1738.73
754.07	1675.24
754.25	1755.11
754.43	1683.43
754.61	1650.66
754.79	1689.57
754.97	1705.96
755.14	1732.58
755.32	1683.43
755.50	1685.48
755.68	1798.12
755.86	1638.38
756.04	1738.73
756.22	1617.90
756.40	1796.07
756.57	1789.92
756.75	1759.21
756.93	1794.02
757.11	1814.50
757.29	1574.89
757.47	1593.32
757.65	1638.38
757.82	1632.23
758.00	1640.42
758.18	1681.38
758.36	1656.81
758.54	1828.84
758.72	1587.18
758.90	1783.78
759.07	1724.39
759.25	1642.47
759.43	1720.29
759.61	1591.27
759.79	2088.93
759.97	1740.77
760.15	1693.67
760.32	1724.39
760.50	1798.12
760.68	1767.40
760.86	1599.46
761.04	1757.16
761.22	1722.34
761.39	1728.49
761.57	1646.57
761.75	1724.39
761.93	1755.11
762.11	1669.09
762.28	1710.05
762.46	1693.67
762.64	1800.16
762.82	1601.51
763.00	1648.61
763.18	1787.88
763.35	1587.18
763.53	1714.15
763.71	1740.77
763.89	1634.28
764.07	1693.67
764.24	1646.57
764.42	1648.61
764.60	1687.53
764.78	1701.86
764.96	1744.87
765.13	1646.57
765.31	1675.24
765.49	1699.81
765.67	1693.67
765.84	1634.28
766.02	1640.42
766.20	1542.12
766.38	1673.19
766.56	1742.82
766.73	1738.73
766.91	1697.77
767.09	1636.33
767.27	1671.14
767.44	1630.18
767.62	1708.01
767.80	1734.63
767.98	1626.09
768.15	1671.14
768.33	1757.16
768.51	1761.25
768.69	1724.39
768.87	1705.96
769.04	1716.20
769.22	1845.22
769.40	1753.06
769.58	1794.02
769.75	1691.62
769.93	1769.44
770.11	1695.72
770.28	1732.58
770.46	1703.91
770.64	1662.95
770.82	1636.33
770.99	1689.57
771.17	1687.53
771.35	1642.47
771.53	1691.62
771.70	1771.49
771.88	1761.25
772.06	1708.01
772.23	1714.15
772.41	1820.64
772.59	1708.01
772.77	1665.00
772.94	1630.18
773.12	1746.92
773.30	1705.96
773.47	1689.57
773.65	1640.42
773.83	1732.58
774.01	1705.96
774.18	1564.65
774.36	1705.96
774.54	1619.94
774.71	1665.00
774.89	1640.42
775.07	1681.38
775.24	1660.90
775.42	1671.14
775.60	1740.77
775.78	1667.05
775.95	1630.18
776.13	1589.22
776.31	1578.98
776.48	1728.49
776.66	1751.01
776.84	1734.63
777.01	1665.00
777.19	1722.34
777.37	1689.57
777.54	1728.49
777.72	1783.78
777.90	1679.33
778.07	1642.47
778.25	1865.70
778.43	1775.59
778.60	1728.49
778.78	1683.43
778.96	1746.92
779.13	1589.22
779.31	1703.91
779.49	1656.81
779.66	1761.25
779.84	1740.77
780.01	1644.52
780.19	1687.53
780.37	1785.83
780.54	1781.73
780.72	1611.75
780.90	1708.01
781.07	1736.68
781.25	1697.77
781.43	1755.11
781.60	1636.33
781.78	1804.26
781.95	1628.14
782.13	1695.72
782.31	1695.72
782.48	1640.42
782.66	1689.57
782.83	1845.22
783.01	1689.57
783.19	1701.86
783.36	1671.14
783.54	1644.52
783.72	1726.44
783.89	1658.85
784.07	1669.09
784.24	1781.73
784.42	1777.64
784.60	1718.25
784.77	1746.92
784.95	1603.56
785.12	1587.18
785.30	1740.77
785.47	1681.38
785.65	1595.37
785.83	1609.70
786.00	1644.52
786.18	1740.77
786.35	1630.18
786.53	1607.66
786.71	1697.77
786.88	1693.67
787.06	1701.86
787.23	1687.53
787.41	1638.38
787.58	1705.96
787.76	1703.91
787.94	1718.25
788.11	1677.29
788.29	1642.47
788.46	1685.48
788.64	1617.90
788.81	1683.43
788.99	1660.90
789.16	1583.08
789.34	1740.77
789.52	1662.95
789.69	1701.86
789.87	1619.94
790.04	1660.90
790.22	1718.25
790.39	1800.16
790.57	1628.14
790.74	1695.72
790.92	1718.25
791.09	1632.23
791.27	1748.97
791.44	1765.35
791.62	1638.38
791.79	1808.36
791.97	1755.11
792.15	1810.40
792.32	1710.05
792.50	1656.81
792.67	1767.40
792.85	1761.25
793.02	1738.73
793.20	1615.85
793.37	1583.08
793.55	1697.77
793.72	1617.90
793.90	1701.86
794.07	1699.81
794.25	1632.23
794.42	1728.49
794.60	1665.00
794.77	1714.15
794.95	1705.96
795.12	1763.30
795.30	1757.16
795.47	1697.77
795.65	1816.55
795.82	1708.01
796.00	1619.94
796.17	1671.14
796.34	1773.54
796.52	1742.82
796.69	1732.58
796.87	1763.30
797.04	1734.63
797.22	1755.11
797.39	1705.96
797.57	1718.25
797.74	1753.06
797.92	1724.39
798.09	1595.37
798.27	1734.63
798.44	1834.98
798.62	1660.90
798.79	1708.01
798.96	1712.10
799.14	1626.09
799.31	1843.17
799.49	1665.00
799.66	1671.14
799.84	1716.20
800.01	1634.28
800.19	1730.53
800.36	1558.50
800.53	1800.16
800.71	1671.14
800.88	1701.86
801.06	1636.33
801.23	1630.18
801.41	1665.00
801.58	1619.94
801.75	1691.62
801.93	1705.96
802.10	1691.62
802.28	1642.47
802.45	1691.62
802.63	1705.96
802.80	1785.83
802.97	1632.23
803.15	1646.57
803.32	1652.71
803.50	1640.42
803.67	1679.33
803.84	1617.90
804.02	1681.38
804.19	1728.49
804.37	1558.50
804.54	1599.46
804.71	1681.38
804.89	1720.29
805.06	1701.86
805.24	1687.53
805.41	1644.52
805.58	1589.22
805.76	1845.22
805.93	1712.10
806.10	1740.77
806.28	1720.29
806.45	1658.85
806.63	1722.34
806.80	1708.01
806.97	1648.61
807.15	1679.33
807.32	1705.96
807.49	1693.67
807.67	1593.32
807.84	1669.09
808.01	1601.51
808.19	1757.16
808.36	1810.40
808.54	1648.61
808.71	1615.85
808.88	1738.73
809.06	1734.63
809.23	1789.92
809.40	1642.47
809.58	1699.81
809.75	1652.71
809.92	1548.26
810.10	1822.69
810.27	1624.04
810.44	1732.58
810.62	1738.73
810.79	1683.43
810.96	1593.32
811.14	1671.14
811.31	1730.53
811.48	1710.05
811.66	1660.90
811.83	1779.68
812.00	1757.16
812.18	1777.64
812.35	1703.91
812.52	1636.33
812.69	1621.99
812.87	1683.43
813.04	1660.90
813.21	1695.72
813.39	1644.52
813.56	1621.99
813.73	1746.92
813.91	1599.46
814.08	1687.53
814.25	1656.81
814.42	1583.08
814.60	1757.16
814.77	1640.42
814.94	1728.49
815.12	1726.44
815.29	1800.16
815.46	1636.33
815.63	1677.29
815.81	1642.47
815.98	1691.62
816.15	1665.00
816.33	1685.48
816.50	1753.06
816.67	1716.20
816.84	1619.94
817.02	1636.33
817.19	1757.16
817.36	1630.18
817.53	1695.72
817.71	1660.90
817.88	1742.82
818.05	1677.29
818.22	1624.04
818.40	1763.30
818.57	1617.90
818.74	1683.43
818.91	1656.81
819.09	1705.96
819.26	1728.49
819.43	1685.48
819.60	1626.09
819.78	1708.01
819.95	1787.88
820.12	1656.81
820.29	1810.40
820.47	1734.63
820.64	1705.96
820.81	1605.61
820.98	1609.70
821.15	1728.49
821.33	1783.78
821.50	1644.52
821.67	1718.25
821.84	1689.57
822.02	1615.85
822.19	1726.44
822.36	1746.92
822.53	1693.67
822.70	1673.19
822.88	1744.87
823.05	1732.58
823.22	1679.33
823.39	1730.53
823.56	1656.81
823.74	1738.73
823.91	1656.81
824.08	1656.81
824.25	1675.24
824.42	1732.58
824.60	1677.29
824.77	1683.43
824.94	1697.77
825.11	1693.67
825.28	1624.04
825.45	1695.72
825.63	1701.86
825.80	1660.90
825.97	1699.81
826.14	1730.53
826.31	1640.42
826.48	1714.15
826.66	1642.47
826.83	1763.30
827.00	1697.77
827.17	1617.90
827.34	1662.95
827.51	1636.33
827.69	1675.24
827.86	1660.90
828.03	1697.77
828.20	1703.91
828.37	1591.27
828.54	1746.92
828.71	1650.66
828.89	1794.02
829.06	1671.14
829.23	1757.16
829.40	1607.66
829.57	1665.00
829.74	1724.39
829.91	1640.42
830.09	1615.85
830.26	1730.53
830.43	1744.87
830.60	1636.33
830.77	1705.96
830.94	1742.82
831.11	1697.77
831.28	1710.05
831.46	1720.29
831.63	1722.34
831.80	1761.25
831.97	1699.81
832.14	1708.01
832.31	1734.63
832.48	1753.06
832.65	1798.12
832.82	1677.29
832.99	1701.86
833.17	1675.24
833.34	1781.73
833.51	1671.14
833.68	1603.56
833.85	1656.81
834.02	1644.52
834.19	1601.51
834.36	1703.91
834.53	1718.25
834.70	1806.31
834.87	1791.97
835.04	1693.67
835.22	1671.14
835.39	1667.05
835.56	1658.85
835.73	1785.83
835.90	1746.92
836.07	1601.51
836.24	1714.15
836.41	1634.28
836.58	1617.90
836.75	1742.82
836.92	1671.14
837.09	1646.57
837.26	1742.82
837.43	1720.29
837.60	1724.39
837.77	1703.91
837.94	1734.63
838.12	1722.34
838.29	1720.29
838.46	1564.65
838.63	1578.98
838.80	1787.88
838.97	1691.62
839.14	1697.77
839.31	1689.57
839.48	1789.92
839.65	1693.67
839.82	1755.11
839.99	1687.53
840.16	1712.10
840.33	1662.95
840.50	1722.34
840.67	1660.90
840.84	1568.74
841.01	1671.14
841.18	1705.96
841.35	1726.44
841.52	1697.77
841.69	1869.80
841.86	1662.95
842.03	1763.30
842.20	1775.59
842.37	1708.01
842.54	1652.71
842.71	1656.81
842.88	1630.18
843.05	1724.39
843.22	1751.01
843.39	1710.05
843.56	1730.53
843.73	1685.48
843.90	1628.14
844.07	1720.29
844.24	1783.78
844.41	1734.63
844.58	1685.48
844.75	1744.87
844.92	1746.92
845.09	1765.35
845.26	1609.70
845.43	1738.73
845.60	1601.51
845.77	1777.64
845.94	1673.19
846.10	1693.67
846.27	1574.89
846.44	1648.61
846.61	1675.24
846.78	1720.29
846.95	1732.58
847.12	1677.29
847.29	1720.29
847.46	1665.00
847.63	1751.01
847.80	1677.29
847.97	1652.71
848.14	1857.51
848.31	1697.77
848.48	1705.96
848.65	1753.06
848.82	1732.58
848.98	1849.32
849.15	1673.19
849.32	1705.96
849.49	1847.27
849.66	1697.77
849.83	1675.24
850.00	1626.09
850.17	1726.44
850.34	1681.38
850.51	1720.29
850.68	1681.38
850.85	1898.47
851.01	1689.57
851.18	1650.66
851.35	1654.76
851.52	1689.57
851.69	1783.78
851.86	1665.00
852.03	1642.47
852.20	1714.15
852.37	1714.15
852.53	1566.70
852.70	1753.06
852.87	1679.33
853.04	1748.97
853.21	1632.23
853.38	1714.15
853.55	1816.55
853.72	1765.35
853.89	1640.42
854.05	1636.33
854.22	1662.95
854.39	1648.61
854.56	1710.05
854.73	1769.44
854.90	1699.81
855.07	1685.48
855.23	1687.53
855.40	1742.82
855.57	1613.80
855.74	1560.55
855.91	1771.49
856.08	1640.42
856.25	1697.77
856.41	1654.76
856.58	1648.61
856.75	1671.14
856.92	1656.81
857.09	1779.68
857.26	1691.62
857.42	1740.77
857.59	1761.25
857.76	1650.66
857.93	1748.97
858.10	1658.85
858.27	1650.66
858.43	1710.05
858.60	1558.50
858.77	1628.14
858.94	1638.38
859.11	1789.92
859.27	1691.62
859.44	1650.66
859.61	1859.56
859.78	1683.43
859.95	1669.09
860.12	1732.58
860.28	1773.54
860.45	1808.36
860.62	1652.71
860.79	1701.86
860.95	1720.29
861.12	1675.24
861.29	1628.14
861.46	1708.01
861.63	1691.62
861.79	1730.53
861.96	1689.57
862.13	1626.09
862.30	1773.54
862.47	1667.05
862.63	1654.76
862.80	1710.05
862.97	1820.64
863.14	1677.29
863.30	1746.92
863.47	1687.53
863.64	1779.68
863.81	1732.58
863.97	1673.19
864.14	1693.67
864.31	1705.96
864.48	1685.48
864.65	1724.39
864.81	1673.19
864.98	1656.81
865.15	1761.25
865.32	1796.07
865.48	1712.10
865.65	1796.07
865.82	1705.96
865.98	1660.90
866.15	1738.73
866.32	1660.90
866.49	1642.47
866.65	1755.11
866.82	1667.05
866.99	1681.38
867.16	1589.22
867.32	1634.28
867.49	1671.14
867.66	1765.35
867.83	1720.29
867.99	1591.27
868.16	1669.09
868.33	1583.08
868.49	1642.47
868.66	1636.33
868.83	1738.73
868.99	1730.53
869.16	1677.29
869.33	1763.30
869.50	1810.40
869.66	1648.61
869.83	1746.92
870.00	1638.38
870.16	1722.34
870.33	1601.51
870.50	1742.82
870.66	1673.19
870.83	1816.55
871.00	1697.77
871.17	1683.43
871.33	1771.49
871.50	1675.24
871.67	1679.33
871.83	1675.24
872.00	1738.73
872.17	1640.42
872.33	1808.36
872.50	1759.21
872.67	1675.24
872.83	1746.92
873.00	1771.49
873.17	1660.90
873.33	1746.92
873.50	1763.30
873.67	1681.38
873.83	1650.66
874.00	1695.72
874.16	1822.69
874.33	1720.29
874.50	1646.57
874.66	1712.10
874.83	1675.24
875.00	1701.86
875.16	1751.01
875.33	1746.92
875.50	1634.28
875.66	1660.90
875.83	1705.96
875.99	1765.35
876.16	1673.19
876.33	1597.42
876.49	1687.53
876.66	1705.96
876.83	1705.96
876.99	1611.75
877.16	1648.61
877.32	1724.39
877.49	1648.61
877.66	1746.92
877.82	1691.62
877.99	1609.70
878.15	1697.77
878.32	1777.64
878.49	1716.20
878.65	1718.25
878.82	1679.33
878.98	1679.33
879.15	1732.58
879.32	1720.29
879.48	1667.05
879.65	1685.48
879.81	1689.57
879.98	1642.47
880.15	1652.71
880.31	1722.34
880.48	1644.52
880.64	1759.21
880.81	1691.62
880.97	1828.84
881.14	1783.78
881.31	1660.90
881.47	1875.94
881.64	1677.29
881.80	1591.27
881.97	1730.53
882.13	1751.01
882.30	1570.79
882.47	1667.05
882.63	1642.47
882.80	1648.61
882.96	1708.01
883.13	1755.11
883.29	1546.22
883.46	1701.86
883.62	1783.78
883.79	1681.38
883.95	1746.92
884.12	1648.61
884.29	1763.30
884.45	1712.10
884.62	1718.25
884.78	1533.93
884.95	1775.59
885.11	1697.77
885.28	1779.68
885.44	1695.72
885.61	1783.78
885.77	1798.12
885.94	1677.29
886.10	1718.25
886.27	1724.39
886.43	1804.26
886.60	1748.97
886.76	1689.57
886.93	1677.29
887.09	1593.32
887.26	1603.56
887.42	1689.57
887.59	1675.24
887.75	1771.49
887.92	1771.49
888.08	1708.01
888.25	1746.92
888.41	1755.11
888.58	1726.44
888.74	1626.09
888.91	1658.85
>>>>>End Processed Spectral Data<<<<<
