SpectraSuite Data File
++++++++++++++++++++++++++++++++++++
Date: Mon Jun 06 15:38:57 CEST 2016
User: root
Dark Spectrum Present: No
Reference Spectrum Present: No
Number of Sampled Component Spectra: 1
Spectrometers: USB4C02835
Integration Time (usec): 100000 (USB4C02835)
Spectra Averaged: 1 (USB4C02835)
Boxcar Smoothing: 0 (USB4C02835)
Correct for Electrical Dark: No (USB4C02835)
Strobe/Lamp Enabled: No (USB4C02835)
Correct for Detector Non-linearity: No (USB4C02835)
Correct for Stray Light: No (USB4C02835)
Number of Pixels in Processed Spectrum: 3648
>>>>>Begin Processed Spectral Data<<<<<
177.47	1411.05
177.69	1411.05
177.91	1411.05
178.13	1376.24
178.36	1421.29
178.58	1617.90
178.80	1724.39
179.02	1640.42
179.24	1624.04
179.46	1708.01
179.68	1767.40
179.90	1726.44
180.13	1755.11
180.35	1621.99
180.57	1665.00
180.79	1720.29
181.01	1718.25
181.23	1742.82
181.45	1804.26
181.67	1730.53
181.90	1746.92
182.12	1724.39
182.34	1667.05
182.56	1765.35
182.78	1697.77
183.00	1777.64
183.22	1636.33
183.44	1681.38
183.66	1800.16
183.89	1816.55
184.11	1767.40
184.33	1753.06
184.55	1757.16
184.77	1650.66
184.99	1734.63
185.21	1712.10
185.43	1857.51
185.65	1687.53
185.87	1648.61
186.10	1837.03
186.32	1722.34
186.54	1773.54
186.76	1771.49
186.98	1753.06
187.20	1667.05
187.42	1642.47
187.64	1730.53
187.86	1687.53
188.08	1746.92
188.30	1687.53
188.52	1677.29
188.75	1748.97
188.97	1751.01
189.19	1650.66
189.41	1685.48
189.63	1779.68
189.85	1681.38
190.07	1589.22
190.29	1607.66
190.51	1755.11
190.73	1634.28
190.95	1781.73
191.17	1665.00
191.39	1695.72
191.61	1640.42
191.84	1742.82
192.06	1787.88
192.28	1562.60
192.50	1929.19
192.72	1689.57
192.94	1660.90
193.16	1759.21
193.38	1681.38
193.60	1638.38
193.82	1718.25
194.04	1767.40
194.26	1777.64
194.48	1802.21
194.70	1693.67
194.92	1648.61
195.14	1685.48
195.36	1677.29
195.58	1759.21
195.80	1716.20
196.02	1660.90
196.24	1771.49
196.46	1722.34
196.69	1630.18
196.91	1806.31
197.13	1714.15
197.35	1687.53
197.57	1757.16
197.79	1781.73
198.01	1718.25
198.23	1716.20
198.45	1693.67
198.67	1628.14
198.89	1705.96
199.11	1679.33
199.33	1730.53
199.55	1628.14
199.77	1726.44
199.99	1687.53
200.21	1695.72
200.43	1773.54
200.65	1638.38
200.87	1603.56
201.09	1613.80
201.31	1693.67
201.53	1783.78
201.75	1705.96
201.97	1714.15
202.19	1699.81
202.41	1724.39
202.63	1849.32
202.85	1712.10
203.07	1697.77
203.29	1738.73
203.51	1658.85
203.73	1636.33
203.95	1855.46
204.17	1816.55
204.39	1771.49
204.61	1693.67
204.83	1714.15
205.05	1804.26
205.27	1826.79
205.49	1814.50
205.71	1769.44
205.93	1640.42
206.15	1693.67
206.37	1732.58
206.59	1753.06
206.81	1667.05
207.03	1656.81
207.25	1648.61
207.47	1830.88
207.69	1693.67
207.91	1744.87
208.13	1794.02
208.34	1632.23
208.56	1681.38
208.78	1708.01
209.00	1669.09
209.22	1634.28
209.44	1658.85
209.66	1683.43
209.88	1708.01
210.10	1708.01
210.32	1705.96
210.54	1837.03
210.76	1642.47
210.98	1763.30
211.20	1607.66
211.42	1718.25
211.64	1722.34
211.86	1748.97
212.08	1759.21
212.30	1814.50
212.52	1705.96
212.74	1738.73
212.96	1736.68
213.17	1773.54
213.39	1687.53
213.61	1808.36
213.83	1732.58
214.05	1605.61
214.27	1712.10
214.49	1650.66
214.71	1679.33
214.93	1779.68
215.15	1681.38
215.37	1765.35
215.59	1679.33
215.81	1697.77
216.03	1755.11
216.24	1753.06
216.46	1640.42
216.68	1699.81
216.90	1757.16
217.12	1755.11
217.34	1728.49
217.56	1724.39
217.78	1761.25
218.00	1712.10
218.22	1763.30
218.44	1728.49
218.66	1679.33
218.87	1798.12
219.09	1744.87
219.31	1773.54
219.53	1755.11
219.75	1722.34
219.97	1689.57
220.19	1726.44
220.41	1667.05
220.63	1824.74
220.85	1714.15
221.06	1773.54
221.28	1810.40
221.50	1826.79
221.72	1730.53
221.94	1703.91
222.16	1773.54
222.38	1730.53
222.60	1791.97
222.82	1693.67
223.03	1767.40
223.25	1636.33
223.47	1705.96
223.69	1853.41
223.91	1724.39
224.13	1697.77
224.35	1693.67
224.57	1808.36
224.78	1773.54
225.00	1697.77
225.22	1716.20
225.44	1742.82
225.66	1755.11
225.88	1671.14
226.10	1716.20
226.32	1703.91
226.53	1787.88
226.75	1681.38
226.97	1685.48
227.19	1689.57
227.41	1675.24
227.63	1662.95
227.85	1646.57
228.06	1779.68
228.28	1722.34
228.50	1789.92
228.72	1628.14
228.94	1683.43
229.16	1636.33
229.37	1550.31
229.59	1646.57
229.81	1767.40
230.03	1689.57
230.25	1730.53
230.47	1660.90
230.69	1671.14
230.90	1748.97
231.12	1652.71
231.34	1765.35
231.56	1757.16
231.78	1611.75
232.00	1738.73
232.21	1742.82
232.43	1726.44
232.65	1613.80
232.87	1730.53
233.09	1693.67
233.30	1628.14
233.52	1720.29
233.74	1677.29
233.96	1730.53
234.18	1761.25
234.40	1742.82
234.61	1773.54
234.83	1603.56
235.05	1601.51
235.27	1859.56
235.49	1808.36
235.70	1718.25
235.92	1738.73
236.14	1767.40
236.36	1859.56
236.58	1699.81
236.79	1658.85
237.01	1636.33
237.23	1771.49
237.45	1800.16
237.67	1685.48
237.88	1724.39
238.10	1751.01
238.32	1654.76
238.54	1701.86
238.76	1683.43
238.97	1675.24
239.19	1687.53
239.41	1757.16
239.63	1744.87
239.85	1683.43
240.06	1710.05
240.28	1746.92
240.50	1798.12
240.72	1716.20
240.93	1667.05
241.15	1773.54
241.37	1697.77
241.59	1751.01
241.81	1703.91
242.02	1740.77
242.24	1726.44
242.46	1759.21
242.68	1744.87
242.89	1691.62
243.11	1726.44
243.33	1738.73
243.55	1697.77
243.76	1806.31
243.98	1615.85
244.20	1734.63
244.42	1658.85
244.64	1681.38
244.85	1683.43
245.07	1728.49
245.29	1662.95
245.51	1619.94
245.72	1757.16
245.94	1802.21
246.16	1734.63
246.38	1791.97
246.59	1673.19
246.81	1660.90
247.03	1673.19
247.24	1624.04
247.46	1714.15
247.68	1687.53
247.90	1646.57
248.11	1767.40
248.33	1699.81
248.55	1677.29
248.77	1771.49
248.98	1789.92
249.20	1861.60
249.42	1693.67
249.64	1681.38
249.85	1705.96
250.07	1697.77
250.29	1771.49
250.50	1873.89
250.72	1660.90
250.94	1697.77
251.16	1882.08
251.37	1757.16
251.59	1695.72
251.81	1771.49
252.02	1744.87
252.24	1656.81
252.46	1675.24
252.68	1683.43
252.89	1691.62
253.11	1683.43
253.33	1818.60
253.54	1861.60
253.76	1595.37
253.98	1648.61
254.20	1697.77
254.41	1585.13
254.63	1689.57
254.85	1593.32
255.06	1746.92
255.28	1693.67
255.50	1691.62
255.71	1712.10
255.93	1601.51
256.15	1742.82
256.36	1724.39
256.58	1714.15
256.80	1751.01
257.02	1667.05
257.23	1658.85
257.45	1755.11
257.67	1755.11
257.88	1654.76
258.10	1724.39
258.32	1679.33
258.53	1755.11
258.75	1830.88
258.97	1662.95
259.18	1699.81
259.40	1767.40
259.62	1832.93
259.83	1832.93
260.05	1767.40
260.27	1939.43
260.48	1781.73
260.70	1677.29
260.92	1681.38
261.13	1701.86
261.35	1728.49
261.57	1724.39
261.78	1611.75
262.00	1716.20
262.22	1746.92
262.43	1740.77
262.65	1669.09
262.86	1716.20
263.08	1847.27
263.30	1724.39
263.51	1583.08
263.73	1685.48
263.95	1779.68
264.16	1619.94
264.38	1720.29
264.60	1695.72
264.81	1699.81
265.03	1730.53
265.25	1751.01
265.46	1728.49
265.68	1824.74
265.89	1722.34
266.11	1675.24
266.33	1810.40
266.54	1724.39
266.76	1771.49
266.98	1650.66
267.19	1814.50
267.41	1714.15
267.62	1656.81
267.84	1656.81
268.06	1748.97
268.27	1757.16
268.49	1708.01
268.70	1757.16
268.92	1699.81
269.14	1628.14
269.35	1597.42
269.57	1728.49
269.79	1787.88
270.00	1710.05
270.22	1785.83
270.43	1683.43
270.65	1589.22
270.87	1746.92
271.08	1783.78
271.30	1728.49
271.51	1771.49
271.73	1720.29
271.95	1781.73
272.16	1791.97
272.38	1718.25
272.59	1710.05
272.81	1679.33
273.02	1759.21
273.24	1771.49
273.46	1794.02
273.67	1673.19
273.89	1669.09
274.10	1665.00
274.32	1771.49
274.54	1691.62
274.75	1732.58
274.97	1656.81
275.18	1765.35
275.40	1802.21
275.61	1708.01
275.83	1705.96
276.05	1677.29
276.26	1720.29
276.48	1781.73
276.69	1701.86
276.91	1669.09
277.12	1820.64
277.34	1777.64
277.55	1791.97
277.77	1675.24
277.99	1681.38
278.20	1642.47
278.42	1671.14
278.63	1695.72
278.85	1724.39
279.06	1634.28
279.28	1746.92
279.49	1722.34
279.71	1771.49
279.93	1648.61
280.14	1652.71
280.36	1669.09
280.57	1761.25
280.79	1763.30
281.00	1712.10
281.22	1681.38
281.43	1779.68
281.65	1621.99
281.86	1710.05
282.08	1703.91
282.29	1794.02
282.51	1597.42
282.73	1624.04
282.94	1630.18
283.16	1740.77
283.37	1808.36
283.59	1669.09
283.80	1755.11
284.02	1753.06
284.23	1740.77
284.45	1691.62
284.66	1570.79
284.88	1716.20
285.09	1728.49
285.31	1798.12
285.52	1683.43
285.74	1595.37
285.95	1808.36
286.17	1728.49
286.38	1791.97
286.60	1753.06
286.81	1697.77
287.03	1646.57
287.24	1665.00
287.46	1685.48
287.67	1687.53
287.89	1837.03
288.10	1718.25
288.32	1746.92
288.53	1828.84
288.75	1636.33
288.96	1767.40
289.18	1693.67
289.39	1656.81
289.61	1787.88
289.82	1875.94
290.04	1761.25
290.25	1730.53
290.47	1662.95
290.68	1671.14
290.90	1726.44
291.11	1611.75
291.33	1822.69
291.54	1642.47
291.76	1681.38
291.97	1675.24
292.18	1822.69
292.40	1728.49
292.61	1699.81
292.83	1832.93
293.04	1730.53
293.26	1740.77
293.47	1695.72
293.69	1648.61
293.90	1691.62
294.12	1839.08
294.33	1722.34
294.55	1640.42
294.76	1818.60
294.97	1730.53
295.19	1796.07
295.40	1708.01
295.62	1640.42
295.83	1767.40
296.05	1699.81
296.26	1800.16
296.48	1730.53
296.69	1726.44
296.90	1685.48
297.12	1726.44
297.33	1748.97
297.55	1685.48
297.76	1744.87
297.98	1751.01
298.19	1705.96
298.41	1736.68
298.62	1640.42
298.83	1847.27
299.05	1751.01
299.26	1697.77
299.48	1703.91
299.69	1714.15
299.90	1744.87
300.12	1591.27
300.33	1777.64
300.55	1755.11
300.76	1722.34
300.98	1665.00
301.19	1775.59
301.40	1673.19
301.62	1714.15
301.83	1765.35
302.05	1718.25
302.26	1732.58
302.47	1667.05
302.69	1673.19
302.90	1730.53
303.12	1710.05
303.33	1703.91
303.54	1828.84
303.76	1683.43
303.97	1720.29
304.19	1816.55
304.40	1665.00
304.61	1720.29
304.83	1847.27
305.04	1781.73
305.26	1652.71
305.47	1679.33
305.68	1697.77
305.90	1675.24
306.11	1779.68
306.33	1746.92
306.54	1701.86
306.75	1636.33
306.97	1650.66
307.18	1689.57
307.39	1716.20
307.61	1775.59
307.82	1652.71
308.04	1716.20
308.25	1679.33
308.46	1748.97
308.68	1767.40
308.89	1724.39
309.10	1775.59
309.32	1679.33
309.53	1722.34
309.74	1701.86
309.96	1724.39
310.17	1783.78
310.39	1636.33
310.60	1775.59
310.81	1652.71
311.03	1591.27
311.24	1693.67
311.45	1740.77
311.67	1804.26
311.88	1730.53
312.09	1708.01
312.31	1665.00
312.52	1730.53
312.73	1771.49
312.95	1611.75
313.16	1716.20
313.37	1798.12
313.59	1730.53
313.80	1810.40
314.01	1740.77
314.23	1708.01
314.44	1689.57
314.65	1626.09
314.87	1675.24
315.08	1626.09
315.29	1611.75
315.51	1638.38
315.72	1572.84
315.93	1820.64
316.15	1812.45
316.36	1695.72
316.57	1740.77
316.79	1791.97
317.00	1693.67
317.21	1714.15
317.43	1660.90
317.64	1701.86
317.85	1660.90
318.07	1665.00
318.28	1714.15
318.49	1847.27
318.70	1929.19
318.92	1857.51
319.13	1771.49
319.34	1828.84
319.56	1789.92
319.77	1716.20
319.98	1783.78
320.20	1742.82
320.41	1820.64
320.62	1767.40
320.83	1675.24
321.05	1820.64
321.26	1751.01
321.47	1712.10
321.69	1730.53
321.90	1679.33
322.11	1628.14
322.32	1687.53
322.54	1785.83
322.75	1748.97
322.96	1828.84
323.18	1603.56
323.39	1652.71
323.60	1671.14
323.81	1765.35
324.03	1642.47
324.24	1660.90
324.45	1744.87
324.66	1656.81
324.88	1794.02
325.09	1875.94
325.30	1730.53
325.52	1767.40
325.73	1759.21
325.94	1669.09
326.15	1599.46
326.37	1644.52
326.58	1796.07
326.79	1794.02
327.00	1736.68
327.22	1722.34
327.43	1675.24
327.64	1615.85
327.85	1769.44
328.07	1738.73
328.28	1767.40
328.49	1701.86
328.70	1705.96
328.92	1699.81
329.13	1691.62
329.34	1746.92
329.55	1761.25
329.76	1822.69
329.98	1773.54
330.19	1853.41
330.40	1675.24
330.61	1695.72
330.83	1724.39
331.04	1685.48
331.25	1753.06
331.46	1708.01
331.68	1642.47
331.89	1781.73
332.10	1757.16
332.31	1648.61
332.52	1687.53
332.74	1847.27
332.95	1611.75
333.16	1685.48
333.37	1728.49
333.58	1603.56
333.80	1746.92
334.01	1673.19
334.22	1660.90
334.43	1654.76
334.64	1683.43
334.86	1646.57
335.07	1636.33
335.28	1812.45
335.49	1642.47
335.70	1687.53
335.92	1865.70
336.13	1781.73
336.34	1761.25
336.55	1732.58
336.76	1689.57
336.98	1619.94
337.19	1652.71
337.40	1828.84
337.61	1931.23
337.82	1722.34
338.04	1748.97
338.25	1667.05
338.46	1679.33
338.67	1665.00
338.88	1628.14
339.09	1621.99
339.31	1667.05
339.52	1677.29
339.73	1642.47
339.94	1744.87
340.15	1732.58
340.36	1642.47
340.58	1763.30
340.79	1726.44
341.00	1740.77
341.21	1660.90
341.42	1830.88
341.63	1656.81
341.85	1748.97
342.06	1718.25
342.27	1650.66
342.48	1751.01
342.69	1648.61
342.90	1613.80
343.12	1732.58
343.33	1722.34
343.54	1726.44
343.75	1787.88
343.96	1708.01
344.17	1665.00
344.38	1685.48
344.60	1601.51
344.81	1710.05
345.02	1683.43
345.23	1744.87
345.44	1755.11
345.65	1705.96
345.86	1738.73
346.07	1640.42
346.29	1708.01
346.50	1851.36
346.71	1732.58
346.92	1781.73
347.13	1888.23
347.34	1718.25
347.55	1718.25
347.76	1783.78
347.98	1601.51
348.19	1742.82
348.40	1783.78
348.61	1640.42
348.82	1777.64
349.03	1730.53
349.24	1648.61
349.45	1863.65
349.66	1691.62
349.88	1685.48
350.09	1667.05
350.30	1753.06
350.51	1841.12
350.72	1695.72
350.93	1781.73
351.14	1740.77
351.35	1771.49
351.56	1726.44
351.77	1724.39
351.99	1755.11
352.20	1834.98
352.41	1812.45
352.62	1689.57
352.83	1650.66
353.04	1648.61
353.25	1697.77
353.46	1812.45
353.67	1816.55
353.88	1665.00
354.09	1683.43
354.30	1732.58
354.52	1734.63
354.73	1728.49
354.94	1644.52
355.15	1697.77
355.36	1818.60
355.57	1681.38
355.78	1699.81
355.99	1726.44
356.20	1615.85
356.41	1771.49
356.62	1681.38
356.83	1724.39
357.04	1783.78
357.25	1628.14
357.46	1703.91
357.68	1632.23
357.89	1665.00
358.10	1800.16
358.31	1710.05
358.52	1683.43
358.73	1621.99
358.94	1615.85
359.15	1679.33
359.36	1767.40
359.57	1746.92
359.78	1716.20
359.99	1740.77
360.20	1701.86
360.41	1740.77
360.62	1744.87
360.83	1689.57
361.04	1775.59
361.25	1773.54
361.46	1851.36
361.67	1716.20
361.88	1740.77
362.09	1791.97
362.30	1794.02
362.51	1703.91
362.72	1697.77
362.93	1818.60
363.14	1800.16
363.35	1734.63
363.56	1710.05
363.78	1746.92
363.99	1789.92
364.20	1757.16
364.41	1673.19
364.62	1761.25
364.83	1677.29
365.04	1724.39
365.25	1660.90
365.46	1763.30
365.67	1638.38
365.88	1617.90
366.09	1746.92
366.30	1699.81
366.51	1789.92
366.72	1609.70
366.93	1753.06
367.14	1783.78
367.35	1888.23
367.56	1677.29
367.77	1746.92
367.98	1671.14
368.18	1765.35
368.39	1689.57
368.60	1640.42
368.81	1697.77
369.02	1798.12
369.23	1675.24
369.44	1619.94
369.65	1683.43
369.86	1755.11
370.07	1763.30
370.28	1714.15
370.49	1714.15
370.70	1763.30
370.91	1662.95
371.12	1681.38
371.33	1742.82
371.54	1705.96
371.75	1753.06
371.96	1599.46
372.17	1662.95
372.38	1708.01
372.59	1667.05
372.80	1740.77
373.01	1685.48
373.22	1693.67
373.43	1734.63
373.64	1675.24
373.85	1771.49
374.06	1863.65
374.26	1753.06
374.47	1783.78
374.68	1751.01
374.89	1699.81
375.10	1667.05
375.31	1779.68
375.52	1718.25
375.73	1701.86
375.94	1656.81
376.15	1722.34
376.36	1708.01
376.57	1673.19
376.78	1687.53
376.99	1683.43
377.20	1738.73
377.40	1675.24
377.61	1847.27
377.82	1642.47
378.03	1806.31
378.24	1746.92
378.45	1695.72
378.66	1849.32
378.87	1650.66
379.08	1699.81
379.29	1773.54
379.50	1820.64
379.71	1730.53
379.91	1771.49
380.12	1675.24
380.33	1732.58
380.54	1681.38
380.75	1716.20
380.96	1714.15
381.17	1767.40
381.38	1765.35
381.59	1751.01
381.80	1691.62
382.00	1863.65
382.21	1724.39
382.42	1855.46
382.63	1890.28
382.84	1761.25
383.05	1767.40
383.26	1785.83
383.47	1726.44
383.68	1726.44
383.88	1673.19
384.09	1636.33
384.30	1755.11
384.51	1673.19
384.72	1714.15
384.93	1628.14
385.14	1701.86
385.35	1845.22
385.55	1660.90
385.76	1746.92
385.97	1701.86
386.18	1724.39
386.39	1740.77
386.60	1724.39
386.81	1646.57
387.02	1681.38
387.22	1648.61
387.43	1769.44
387.64	1791.97
387.85	1863.65
388.06	2228.19
388.27	4202.43
388.48	6528.92
388.68	8075.14
388.89	9514.86
389.10	9594.73
389.31	8572.80
389.52	7514.00
389.73	6627.23
389.93	6047.65
390.14	5650.35
390.35	5076.91
390.56	4591.55
390.77	3704.78
390.98	2979.79
391.18	2471.90
391.39	2142.18
391.60	1875.94
391.81	1890.28
392.02	1730.53
392.23	1978.34
392.43	1742.82
392.64	1837.03
392.85	1761.25
393.06	1759.21
393.27	1699.81
393.47	1615.85
393.68	1687.53
393.89	1671.14
394.10	1845.22
394.31	1712.10
394.52	1640.42
394.72	1695.72
394.93	1798.12
395.14	1738.73
395.35	1685.48
395.56	1705.96
395.76	1675.24
395.97	1875.94
396.18	1867.75
396.39	1808.36
396.60	2000.87
396.80	1900.52
397.01	1822.69
397.22	1814.50
397.43	1900.52
397.64	1685.48
397.84	1785.83
398.05	1859.56
398.26	1826.79
398.47	1771.49
398.67	1773.54
398.88	1767.40
399.09	1759.21
399.30	1730.53
399.51	1751.01
399.71	1708.01
399.92	1689.57
400.13	1667.05
400.34	1710.05
400.54	1708.01
400.75	1806.31
400.96	1728.49
401.17	1785.83
401.37	1751.01
401.58	1691.62
401.79	1814.50
402.00	1847.27
402.21	2041.82
402.41	1925.09
402.62	2035.68
402.83	1951.71
403.04	1996.77
403.24	2097.12
403.45	1898.47
403.66	1918.95
403.87	1861.60
404.07	1826.79
404.28	1918.95
404.49	1912.80
404.70	1759.21
404.90	1724.39
405.11	1757.16
405.32	1761.25
405.52	1716.20
405.73	1771.49
405.94	1662.95
406.15	1722.34
406.35	1775.59
406.56	1796.07
406.77	1724.39
406.98	1783.78
407.18	1708.01
407.39	1791.97
407.60	1689.57
407.80	1689.57
408.01	1654.76
408.22	1740.77
408.43	1732.58
408.63	1789.92
408.84	1710.05
409.05	1722.34
409.25	1626.09
409.46	1751.01
409.67	1642.47
409.88	1771.49
410.08	1679.33
410.29	1703.91
410.50	1697.77
410.70	1722.34
410.91	1658.85
411.12	1705.96
411.32	1683.43
411.53	1656.81
411.74	1824.74
411.95	1763.30
412.15	1798.12
412.36	1814.50
412.57	1787.88
412.77	1873.89
412.98	1759.21
413.19	1802.21
413.39	1802.21
413.60	1761.25
413.81	1849.32
414.01	1677.29
414.22	1736.68
414.43	1894.37
414.63	1728.49
414.84	1810.40
415.05	1746.92
415.25	1619.94
415.46	1779.68
415.67	1677.29
415.87	1757.16
416.08	1693.67
416.29	1673.19
416.49	1720.29
416.70	1687.53
416.91	1615.85
417.11	1748.97
417.32	1767.40
417.53	1738.73
417.73	1730.53
417.94	1675.24
418.15	1753.06
418.35	1722.34
418.56	1734.63
418.77	1830.88
418.97	1685.48
419.18	1660.90
419.38	1589.22
419.59	1669.09
419.80	1789.92
420.00	1714.15
420.21	1695.72
420.42	1777.64
420.62	1757.16
420.83	1691.62
421.04	1732.58
421.24	1687.53
421.45	1794.02
421.65	1722.34
421.86	1755.11
422.07	1703.91
422.27	1755.11
422.48	1744.87
422.69	1636.33
422.89	1695.72
423.10	1738.73
423.30	1697.77
423.51	1693.67
423.72	1740.77
423.92	1783.78
424.13	1716.20
424.33	1703.91
424.54	1806.31
424.75	1765.35
424.95	1824.74
425.16	1748.97
425.36	1669.09
425.57	1728.49
425.78	1818.60
425.98	1851.36
426.19	1734.63
426.39	1640.42
426.60	1751.01
426.81	1812.45
427.01	1687.53
427.22	1693.67
427.42	1697.77
427.63	1687.53
427.83	1738.73
428.04	1841.12
428.25	1798.12
428.45	1812.45
428.66	1759.21
428.86	1705.96
429.07	1730.53
429.28	1789.92
429.48	1679.33
429.69	1701.86
429.89	1753.06
430.10	1689.57
430.30	1724.39
430.51	1841.12
430.71	1699.81
430.92	1714.15
431.13	1738.73
431.33	1748.97
431.54	1710.05
431.74	1791.97
431.95	1855.46
432.15	1746.92
432.36	1679.33
432.56	1812.45
432.77	1748.97
432.98	1808.36
433.18	1650.66
433.39	1785.83
433.59	1683.43
433.80	1832.93
434.00	1884.13
434.21	1648.61
434.41	1662.95
434.62	1896.42
434.82	1632.23
435.03	1648.61
435.23	1746.92
435.44	1685.48
435.64	1646.57
435.85	1728.49
436.06	1740.77
436.26	1703.91
436.47	1662.95
436.67	1644.52
436.88	1740.77
437.08	1720.29
437.29	1851.36
437.49	1718.25
437.70	1785.83
437.90	1693.67
438.11	1941.47
438.31	1812.45
438.52	1871.84
438.72	1781.73
438.93	1888.23
439.13	1785.83
439.34	1837.03
439.54	1765.35
439.75	1693.67
439.95	1787.88
440.16	1742.82
440.36	1748.97
440.57	1763.30
440.77	1828.84
440.98	1755.11
441.18	1681.38
441.39	1691.62
441.59	1675.24
441.80	1800.16
442.00	1767.40
442.21	1847.27
442.41	1675.24
442.62	1673.19
442.82	1781.73
443.02	1656.81
443.23	1769.44
443.43	1783.78
443.64	1798.12
443.84	1740.77
444.05	1818.60
444.25	1714.15
444.46	1785.83
444.66	1751.01
444.87	1830.88
445.07	1722.34
445.28	1746.92
445.48	1796.07
445.69	1796.07
445.89	1826.79
446.09	1777.64
446.30	2078.69
446.50	2570.20
446.71	3639.24
446.91	4308.93
447.12	4644.79
447.32	4868.02
447.53	4233.15
447.73	3686.34
447.93	3538.89
448.14	3323.85
448.34	3104.72
448.55	2877.40
448.75	2869.20
448.96	2680.79
449.16	2420.70
449.36	2271.20
449.57	2066.40
449.77	1937.38
449.98	1779.68
450.18	1824.74
450.39	1869.80
450.59	1796.07
450.79	1828.84
451.00	1767.40
451.20	1775.59
451.41	1730.53
451.61	1837.03
451.81	1773.54
452.02	1740.77
452.22	1734.63
452.43	1632.23
452.63	1677.29
452.84	1755.11
453.04	1708.01
453.24	1742.82
453.45	1744.87
453.65	1734.63
453.86	1746.92
454.06	1804.26
454.26	1734.63
454.47	1740.77
454.67	1794.02
454.87	1765.35
455.08	1767.40
455.28	1859.56
455.49	1759.21
455.69	1763.30
455.89	1851.36
456.10	1798.12
456.30	1697.77
456.51	1847.27
456.71	1703.91
456.91	1736.68
457.12	1765.35
457.32	1761.25
457.52	1634.28
457.73	1767.40
457.93	1775.59
458.14	1775.59
458.34	1638.38
458.54	1660.90
458.75	1699.81
458.95	1781.73
459.15	1712.10
459.36	1761.25
459.56	1779.68
459.76	1880.04
459.97	1734.63
460.17	1769.44
460.37	1763.30
460.58	1726.44
460.78	1738.73
460.99	1716.20
461.19	1720.29
461.39	1693.67
461.60	1648.61
461.80	1818.60
462.00	1656.81
462.21	1806.31
462.41	1640.42
462.61	1753.06
462.82	1619.94
463.02	1763.30
463.22	1734.63
463.43	1791.97
463.63	1714.15
463.83	1855.46
464.04	1796.07
464.24	1726.44
464.44	1683.43
464.64	1785.83
464.85	1830.88
465.05	1839.08
465.25	1705.96
465.46	1693.67
465.66	1781.73
465.86	1775.59
466.07	1791.97
466.27	1736.68
466.47	1632.23
466.68	1710.05
466.88	1857.51
467.08	1701.86
467.29	1757.16
467.49	1689.57
467.69	1742.82
467.89	1769.44
468.10	1667.05
468.30	1718.25
468.50	1755.11
468.71	1697.77
468.91	1656.81
469.11	1832.93
469.31	1826.79
469.52	1656.81
469.72	1802.21
469.92	1814.50
470.13	1742.82
470.33	1718.25
470.53	1798.12
470.73	2133.98
470.94	2303.96
471.14	2303.96
471.34	2500.57
471.54	2482.14
471.75	2260.96
471.95	2123.74
472.15	2158.56
472.36	2140.13
472.56	2148.32
472.76	2088.93
472.96	2027.49
473.17	1894.37
473.37	1869.80
473.57	1761.25
473.77	1824.74
473.98	1794.02
474.18	1738.73
474.38	1841.12
474.58	1681.38
474.79	1705.96
474.99	1734.63
475.19	1830.88
475.39	1703.91
475.60	1716.20
475.80	1722.34
476.00	1767.40
476.20	1722.34
476.41	1769.44
476.61	1781.73
476.81	1859.56
477.01	1667.05
477.21	1927.14
477.42	1824.74
477.62	1652.71
477.82	1781.73
478.02	1699.81
478.23	1736.68
478.43	1654.76
478.63	1767.40
478.83	1703.91
479.03	1703.91
479.24	1810.40
479.44	1902.56
479.64	1613.80
479.84	1650.66
480.04	1693.67
480.25	1820.64
480.45	1658.85
480.65	1744.87
480.85	1736.68
481.06	1742.82
481.26	1808.36
481.46	1841.12
481.66	1695.72
481.86	1681.38
482.06	1806.31
482.27	1634.28
482.47	1748.97
482.67	1742.82
482.87	1703.91
483.07	1849.32
483.28	1703.91
483.48	1703.91
483.68	1710.05
483.88	1691.62
484.08	1574.89
484.29	1673.19
484.49	1720.29
484.69	1691.62
484.89	1865.70
485.09	1830.88
485.29	1742.82
485.50	1718.25
485.70	1738.73
485.90	1818.60
486.10	1742.82
486.30	1753.06
486.50	1818.60
486.71	1738.73
486.91	1726.44
487.11	1730.53
487.31	1705.96
487.51	1781.73
487.71	1689.57
487.91	1630.18
488.12	1730.53
488.32	1626.09
488.52	1699.81
488.72	1691.62
488.92	1775.59
489.12	1796.07
489.32	1804.26
489.53	1738.73
489.73	1732.58
489.93	1798.12
490.13	1695.72
490.33	1648.61
490.53	1738.73
490.73	1748.97
490.94	1748.97
491.14	1726.44
491.34	1884.13
491.54	2093.02
491.74	2514.91
491.94	2863.06
492.14	3008.47
492.34	3049.43
492.54	2760.66
492.75	2435.03
492.95	2473.95
493.15	2293.72
493.35	2260.96
493.55	2215.90
493.75	2115.55
493.95	2093.02
494.15	1955.81
494.35	1968.10
494.56	1923.04
494.76	1771.49
494.96	1791.97
495.16	1789.92
495.36	1746.92
495.56	1808.36
495.76	1818.60
495.96	1712.10
496.16	1687.53
496.36	1789.92
496.56	1775.59
496.77	1748.97
496.97	1714.15
497.17	1728.49
497.37	1679.33
497.57	1783.78
497.77	1796.07
497.97	1648.61
498.17	1755.11
498.37	1660.90
498.57	1812.45
498.77	1693.67
498.97	1804.26
499.17	1808.36
499.38	1699.81
499.58	1779.68
499.78	1806.31
499.98	1740.77
500.18	1673.19
500.38	1730.53
500.58	1880.04
500.78	2592.73
500.98	4376.51
501.18	5738.41
501.38	6672.28
501.58	7120.79
501.78	6496.16
501.98	5480.36
502.18	4972.47
502.38	4364.22
502.58	4032.45
502.78	3692.49
502.98	3624.90
503.18	3430.35
503.38	3016.66
503.59	2830.29
503.79	2627.54
503.99	2426.84
504.19	2293.72
504.39	2205.66
504.59	2217.95
504.79	2068.45
504.99	2035.68
505.19	1890.28
505.39	1937.38
505.59	1968.10
505.79	1894.37
505.99	1818.60
506.19	1779.68
506.39	1869.80
506.59	1777.64
506.79	1759.21
506.99	1882.08
507.19	1767.40
507.39	1783.78
507.59	1705.96
507.79	1722.34
507.99	1851.36
508.19	1730.53
508.39	1740.77
508.59	1742.82
508.79	1845.22
508.99	1839.08
509.19	1669.09
509.39	1757.16
509.59	1769.44
509.79	1673.19
509.99	1820.64
510.19	1779.68
510.39	1785.83
510.59	1730.53
510.79	1699.81
510.99	1699.81
511.19	1722.34
511.39	1818.60
511.59	1843.17
511.79	1787.88
511.99	1767.40
512.19	1816.55
512.38	1775.59
512.58	1732.58
512.78	1714.15
512.98	1773.54
513.18	1839.08
513.38	1646.57
513.58	1871.84
513.78	1734.63
513.98	1738.73
514.18	1716.20
514.38	1751.01
514.58	1791.97
514.78	1681.38
514.98	1683.43
515.18	1685.48
515.38	1726.44
515.58	1804.26
515.78	1699.81
515.98	1763.30
516.18	1785.83
516.38	1839.08
516.57	1728.49
516.77	1757.16
516.97	1753.06
517.17	1697.77
517.37	1675.24
517.57	1834.98
517.77	1787.88
517.97	1757.16
518.17	1773.54
518.37	1658.85
518.57	1734.63
518.77	1691.62
518.97	1748.97
519.16	1759.21
519.36	1748.97
519.56	1697.77
519.76	1710.05
519.96	1712.10
520.16	1873.89
520.36	1708.01
520.56	1755.11
520.76	1701.86
520.96	1669.09
521.16	1839.08
521.35	1785.83
521.55	1804.26
521.75	1732.58
521.95	1738.73
522.15	1804.26
522.35	1675.24
522.55	1693.67
522.75	1701.86
522.95	1740.77
523.14	1769.44
523.34	1726.44
523.54	1714.15
523.74	1765.35
523.94	1722.34
524.14	1669.09
524.34	1816.55
524.54	1824.74
524.73	1730.53
524.93	1781.73
525.13	1767.40
525.33	1714.15
525.53	1904.61
525.73	1791.97
525.93	1724.39
526.13	1720.29
526.32	1716.20
526.52	1779.68
526.72	1806.31
526.92	1722.34
527.12	1695.72
527.32	1648.61
527.52	1789.92
527.71	1771.49
527.91	1722.34
528.11	1703.91
528.31	1791.97
528.51	1710.05
528.71	1849.32
528.90	1812.45
529.10	1802.21
529.30	1839.08
529.50	1650.66
529.70	1689.57
529.90	1751.01
530.09	1769.44
530.29	1658.85
530.49	1617.90
530.69	1896.42
530.89	1755.11
531.09	1730.53
531.28	1705.96
531.48	1736.68
531.68	1736.68
531.88	1746.92
532.08	1773.54
532.28	1689.57
532.47	1814.50
532.67	1828.84
532.87	1818.60
533.07	1701.86
533.27	1837.03
533.46	1824.74
533.66	1824.74
533.86	1685.48
534.06	1732.58
534.26	1771.49
534.45	1712.10
534.65	1834.98
534.85	1753.06
535.05	1728.49
535.25	1757.16
535.44	1697.77
535.64	1765.35
535.84	1748.97
536.04	1730.53
536.24	1716.20
536.43	1665.00
536.63	1738.73
536.83	1718.25
537.03	1710.05
537.22	1685.48
537.42	1636.33
537.62	1794.02
537.82	1716.20
538.02	1865.70
538.21	1814.50
538.41	1890.28
538.61	1853.41
538.81	1714.15
539.00	1753.06
539.20	1687.53
539.40	1677.29
539.60	1738.73
539.79	1763.30
539.99	1621.99
540.19	1648.61
540.39	1798.12
540.58	1781.73
540.78	1800.16
540.98	1769.44
541.18	1779.68
541.37	1771.49
541.57	1687.53
541.77	1724.39
541.97	1695.72
542.16	1630.18
542.36	1710.05
542.56	1712.10
542.76	1910.75
542.95	1812.45
543.15	1734.63
543.35	1732.58
543.54	1736.68
543.74	1714.15
543.94	1832.93
544.14	1765.35
544.33	1837.03
544.53	1718.25
544.73	1703.91
544.93	1738.73
545.12	1683.43
545.32	1757.16
545.52	1748.97
545.71	1673.19
545.91	1701.86
546.11	1714.15
546.30	1654.76
546.50	1738.73
546.70	1837.03
546.90	1718.25
547.09	1632.23
547.29	1699.81
547.49	1712.10
547.68	1777.64
547.88	1736.68
548.08	1767.40
548.27	2189.28
548.47	1787.88
548.67	1691.62
548.87	1705.96
549.06	1738.73
549.26	1818.60
549.46	1740.77
549.65	1730.53
549.85	1753.06
550.05	1757.16
550.24	1712.10
550.44	1763.30
550.64	1769.44
550.83	1798.12
551.03	1853.41
551.23	1802.21
551.42	1771.49
551.62	1789.92
551.82	1734.63
552.01	1722.34
552.21	1783.78
552.41	1826.79
552.60	1789.92
552.80	1716.20
553.00	1763.30
553.19	1755.11
553.39	1843.17
553.59	1671.14
553.78	1781.73
553.98	1738.73
554.17	1703.91
554.37	1708.01
554.57	1832.93
554.76	1710.05
554.96	1734.63
555.16	1742.82
555.35	1712.10
555.55	1824.74
555.75	1740.77
555.94	1726.44
556.14	1724.39
556.33	1804.26
556.53	1755.11
556.73	1773.54
556.92	1765.35
557.12	1853.41
557.32	1834.98
557.51	1794.02
557.71	1734.63
557.90	1837.03
558.10	1890.28
558.30	1796.07
558.49	1710.05
558.69	1789.92
558.88	1789.92
559.08	1802.21
559.28	1730.53
559.47	1785.83
559.67	1806.31
559.86	1859.56
560.06	1708.01
560.26	1714.15
560.45	1746.92
560.65	1779.68
560.84	1796.07
561.04	1726.44
561.24	1820.64
561.43	1613.80
561.63	1865.70
561.82	1724.39
562.02	1798.12
562.22	1757.16
562.41	1710.05
562.61	1726.44
562.80	1683.43
563.00	1841.12
563.19	1791.97
563.39	1796.07
563.59	1791.97
563.78	1679.33
563.98	1634.28
564.17	1716.20
564.37	1660.90
564.56	1828.84
564.76	1576.94
564.96	1798.12
565.15	1769.44
565.35	1904.61
565.54	1742.82
565.74	1771.49
565.93	1708.01
566.13	1638.38
566.32	1761.25
566.52	1771.49
566.71	1742.82
566.91	1773.54
567.11	1802.21
567.30	1755.11
567.50	1769.44
567.69	1767.40
567.89	1705.96
568.08	1710.05
568.28	1699.81
568.47	1669.09
568.67	1804.26
568.86	1742.82
569.06	1765.35
569.25	1740.77
569.45	1681.38
569.64	1708.01
569.84	1736.68
570.04	1779.68
570.23	1669.09
570.43	1755.11
570.62	1763.30
570.82	1849.32
571.01	1693.67
571.21	1667.05
571.40	1757.16
571.60	1796.07
571.79	1837.03
571.99	1781.73
572.18	1771.49
572.38	1718.25
572.57	1767.40
572.77	1724.39
572.96	1841.12
573.16	1845.22
573.35	1712.10
573.55	1843.17
573.74	1808.36
573.94	1714.15
574.13	1744.87
574.33	1890.28
574.52	1822.69
574.71	1740.77
574.91	1783.78
575.10	1697.77
575.30	1740.77
575.49	1720.29
575.69	1628.14
575.88	1726.44
576.08	1712.10
576.27	1896.42
576.47	1720.29
576.66	1820.64
576.86	1812.45
577.05	1767.40
577.25	1773.54
577.44	1902.56
577.64	1714.15
577.83	1849.32
578.02	1742.82
578.22	1798.12
578.41	1785.83
578.61	1718.25
578.80	1748.97
579.00	1718.25
579.19	1779.68
579.39	1769.44
579.58	1779.68
579.77	1716.20
579.97	1841.12
580.16	1814.50
580.36	1808.36
580.55	1837.03
580.75	1757.16
580.94	1804.26
581.13	1910.75
581.33	1865.70
581.52	1767.40
581.72	1877.99
581.91	1882.08
582.11	1767.40
582.30	1816.55
582.49	1877.99
582.69	1908.71
582.88	1820.64
583.08	1808.36
583.27	1800.16
583.47	1738.73
583.66	1781.73
583.85	1722.34
584.05	1779.68
584.24	1726.44
584.44	1806.31
584.63	1773.54
584.82	1804.26
585.02	1902.56
585.21	1818.60
585.41	1810.40
585.60	1810.40
585.79	1918.95
585.99	1964.00
586.18	1861.60
586.37	2250.72
586.57	3364.81
586.76	9787.24
586.96	24063.63
587.15	33705.47
587.34	39601.57
587.54	41031.05
587.73	35923.42
587.93	25636.47
588.12	21180.09
588.31	17856.24
588.51	15902.48
588.70	14868.25
588.89	13864.75
589.09	12422.98
589.28	10905.43
589.47	9256.82
589.67	7780.23
589.86	6260.64
590.06	4868.02
590.25	3782.60
590.44	3014.61
590.64	2607.06
590.83	2271.20
591.02	2115.55
591.22	1990.63
591.41	1978.34
591.60	1851.36
591.80	2013.15
591.99	1740.77
592.18	1830.88
592.38	1804.26
592.57	1718.25
592.76	1720.29
592.96	1769.44
593.15	1820.64
593.34	1746.92
593.54	1802.21
593.73	1855.46
593.92	1828.84
594.12	1798.12
594.31	1822.69
594.50	1826.79
594.70	1861.60
594.89	1941.47
595.08	1708.01
595.28	1796.07
595.47	1978.34
595.66	1773.54
595.86	1726.44
596.05	1722.34
596.24	1656.81
596.43	1884.13
596.63	1763.30
596.82	1765.35
597.01	1773.54
597.21	1837.03
597.40	1705.96
597.59	1826.79
597.79	1787.88
597.98	1861.60
598.17	1726.44
598.36	1769.44
598.56	1755.11
598.75	1656.81
598.94	1748.97
599.14	1755.11
599.33	1689.57
599.52	1806.31
599.71	1812.45
599.91	1779.68
600.10	1757.16
600.29	1710.05
600.48	1763.30
600.68	1832.93
600.87	1716.20
601.06	1710.05
601.26	1736.68
601.45	1742.82
601.64	1753.06
601.83	1820.64
602.03	1742.82
602.22	1742.82
602.41	1832.93
602.60	1933.28
602.80	1761.25
602.99	1816.55
603.18	1804.26
603.37	1808.36
603.57	1722.34
603.76	1746.92
603.95	1765.35
604.14	1724.39
604.34	1640.42
604.53	1787.88
604.72	1730.53
604.91	1796.07
605.10	1746.92
605.30	1708.01
605.49	1906.66
605.68	1818.60
605.87	1785.83
606.07	1748.97
606.26	1742.82
606.45	1701.86
606.64	1732.58
606.84	1779.68
607.03	1636.33
607.22	1771.49
607.41	1751.01
607.60	1714.15
607.80	1714.15
607.99	1691.62
608.18	1755.11
608.37	1759.21
608.56	1677.29
608.76	1708.01
608.95	1818.60
609.14	1730.53
609.33	1781.73
609.52	1884.13
609.72	1777.64
609.91	1732.58
610.10	1691.62
610.29	1826.79
610.48	1738.73
610.68	1771.49
610.87	1722.34
611.06	1699.81
611.25	1665.00
611.44	1837.03
611.63	1701.86
611.83	1808.36
612.02	1605.61
612.21	1746.92
612.40	1607.66
612.59	1677.29
612.79	1648.61
612.98	1771.49
613.17	1765.35
613.36	1734.63
613.55	1767.40
613.74	1669.09
613.93	1812.45
614.13	1773.54
614.32	1716.20
614.51	1757.16
614.70	1728.49
614.89	1660.90
615.08	1710.05
615.28	2133.98
615.47	1638.38
615.66	1748.97
615.85	1708.01
616.04	1837.03
616.23	1742.82
616.42	1679.33
616.62	1880.04
616.81	1757.16
617.00	1759.21
617.19	1777.64
617.38	1646.57
617.57	1712.10
617.76	1794.02
617.95	1771.49
618.15	1812.45
618.34	1763.30
618.53	1638.38
618.72	1771.49
618.91	1855.46
619.10	1845.22
619.29	1736.68
619.48	1693.67
619.68	1673.19
619.87	1759.21
620.06	1630.18
620.25	1675.24
620.44	1751.01
620.63	1705.96
620.82	1775.59
621.01	1763.30
621.20	1681.38
621.39	1802.21
621.59	1728.49
621.78	1759.21
621.97	1767.40
622.16	1884.13
622.35	1675.24
622.54	1794.02
622.73	1681.38
622.92	1699.81
623.11	1787.88
623.30	1722.34
623.49	1769.44
623.68	1771.49
623.88	1812.45
624.07	1619.94
624.26	1716.20
624.45	1753.06
624.64	1660.90
624.83	1789.92
625.02	1720.29
625.21	1671.14
625.40	1767.40
625.59	1789.92
625.78	1734.63
625.97	1734.63
626.16	1771.49
626.35	1783.78
626.54	1710.05
626.74	1794.02
626.93	1673.19
627.12	1677.29
627.31	1804.26
627.50	1732.58
627.69	1791.97
627.88	1710.05
628.07	1757.16
628.26	1679.33
628.45	1683.43
628.64	1679.33
628.83	1718.25
629.02	1755.11
629.21	1820.64
629.40	1734.63
629.59	1769.44
629.78	1732.58
629.97	1748.97
630.16	1759.21
630.35	1650.66
630.54	1742.82
630.73	1652.71
630.92	1744.87
631.11	1685.48
631.30	1777.64
631.49	1794.02
631.68	1697.77
631.87	1728.49
632.06	1697.77
632.25	1841.12
632.44	1751.01
632.63	1689.57
632.82	1734.63
633.01	1730.53
633.20	1718.25
633.39	1597.42
633.58	1636.33
633.77	1791.97
633.96	1730.53
634.15	1830.88
634.34	1728.49
634.53	1785.83
634.72	1730.53
634.91	1648.61
635.10	1765.35
635.29	1794.02
635.48	1654.76
635.67	1701.86
635.86	1646.57
636.05	1785.83
636.24	1765.35
636.43	1791.97
636.62	1673.19
636.81	1628.14
637.00	1738.73
637.19	1791.97
637.38	1722.34
637.57	1665.00
637.76	1615.85
637.95	1753.06
638.14	1587.18
638.33	1730.53
638.52	1761.25
638.71	1677.29
638.89	1671.14
639.08	1918.95
639.27	1806.31
639.46	1638.38
639.65	1839.08
639.84	1722.34
640.03	1804.26
640.22	1746.92
640.41	1814.50
640.60	1697.77
640.79	1794.02
640.98	1724.39
641.17	1712.10
641.36	1781.73
641.55	1789.92
641.74	1626.09
641.92	1685.48
642.11	1609.70
642.30	1714.15
642.49	1673.19
642.68	1683.43
642.87	1648.61
643.06	1812.45
643.25	1679.33
643.44	1705.96
643.63	1665.00
643.82	1730.53
644.00	1591.27
644.19	1665.00
644.38	1751.01
644.57	1757.16
644.76	1779.68
644.95	1718.25
645.14	1724.39
645.33	1675.24
645.52	1720.29
645.71	1701.86
645.89	1646.57
646.08	1779.68
646.27	1730.53
646.46	1865.70
646.65	1552.36
646.84	1726.44
647.03	1728.49
647.22	1826.79
647.40	1748.97
647.59	1712.10
647.78	1644.52
647.97	1626.09
648.16	1619.94
648.35	1820.64
648.54	1802.21
648.73	1759.21
648.91	1775.59
649.10	1748.97
649.29	1726.44
649.48	1751.01
649.67	1771.49
649.86	1685.48
650.05	1726.44
650.23	1787.88
650.42	1689.57
650.61	1886.18
650.80	1708.01
650.99	1871.84
651.18	1691.62
651.36	1804.26
651.55	1687.53
651.74	1775.59
651.93	1705.96
652.12	1775.59
652.31	1736.68
652.49	1613.80
652.68	1658.85
652.87	1857.51
653.06	1798.12
653.25	1820.64
653.44	1691.62
653.62	1847.27
653.81	1720.29
654.00	1712.10
654.19	1775.59
654.38	1800.16
654.56	1791.97
654.75	1783.78
654.94	1859.56
655.13	1718.25
655.32	1783.78
655.51	1812.45
655.69	1722.34
655.88	1798.12
656.07	1658.85
656.26	1794.02
656.45	1675.24
656.63	1789.92
656.82	1728.49
657.01	1816.55
657.20	1705.96
657.38	1785.83
657.57	1667.05
657.76	1640.42
657.95	1755.11
658.14	1722.34
658.32	1681.38
658.51	1656.81
658.70	1767.40
658.89	1730.53
659.08	1722.34
659.26	1781.73
659.45	1681.38
659.64	1789.92
659.83	1697.77
660.01	1953.76
660.20	1740.77
660.39	1742.82
660.58	1613.80
660.76	1765.35
660.95	1656.81
661.14	1755.11
661.33	1679.33
661.51	1675.24
661.70	1718.25
661.89	1832.93
662.08	1722.34
662.26	1669.09
662.45	1712.10
662.64	1820.64
662.83	1726.44
663.01	1673.19
663.20	1740.77
663.39	1734.63
663.58	1708.01
663.76	1738.73
663.95	1742.82
664.14	1716.20
664.32	1781.73
664.51	1691.62
664.70	1587.18
664.89	1771.49
665.07	1669.09
665.26	1787.88
665.45	1667.05
665.64	1767.40
665.82	1730.53
666.01	1814.50
666.20	1742.82
666.38	1853.41
666.57	1779.68
666.76	2197.47
666.95	4556.73
667.13	10239.84
667.32	15013.66
667.51	17362.68
667.69	18648.80
667.88	17157.88
668.07	12156.74
668.25	9267.06
668.44	7993.22
668.63	7098.26
668.81	6688.67
669.00	6049.70
669.19	5685.16
669.38	5191.60
669.56	4540.35
669.75	3930.05
669.94	3366.86
670.12	2861.01
670.31	2439.13
670.50	2242.53
670.68	2117.60
670.87	1882.08
671.06	1787.88
671.24	1802.21
671.43	1810.40
671.62	1695.72
671.80	1703.91
671.99	1789.92
672.18	1796.07
672.36	1703.91
672.55	1748.97
672.74	1646.57
672.92	1689.57
673.11	1796.07
673.29	1654.76
673.48	1857.51
673.67	1794.02
673.85	1810.40
674.04	1716.20
674.23	1818.60
674.41	1753.06
674.60	1642.47
674.79	1665.00
674.97	1693.67
675.16	1830.88
675.34	1855.46
675.53	1748.97
675.72	1804.26
675.90	1863.65
676.09	1691.62
676.28	1740.77
676.46	1669.09
676.65	1808.36
676.83	1669.09
677.02	1742.82
677.21	1738.73
677.39	1787.88
677.58	1646.57
677.77	1685.48
677.95	1652.71
678.14	1685.48
678.32	1695.72
678.51	1685.48
678.70	1800.16
678.88	1732.58
679.07	1755.11
679.25	1705.96
679.44	1675.24
679.63	1595.37
679.81	1751.01
680.00	1783.78
680.18	1820.64
680.37	1775.59
680.55	1695.72
680.74	1652.71
680.93	1619.94
681.11	1738.73
681.30	1693.67
681.48	1714.15
681.67	1724.39
681.85	1624.04
682.04	1753.06
682.23	1714.15
682.41	1718.25
682.60	1720.29
682.78	1693.67
682.97	1667.05
683.15	1675.24
683.34	1732.58
683.53	1744.87
683.71	1595.37
683.90	1820.64
684.08	1812.45
684.27	1665.00
684.45	1753.06
684.64	1798.12
684.82	1697.77
685.01	1755.11
685.19	1685.48
685.38	1746.92
685.57	1761.25
685.75	1765.35
685.94	1689.57
686.12	1703.91
686.31	1648.61
686.49	1769.44
686.68	1646.57
686.86	1787.88
687.05	1669.09
687.23	1802.21
687.42	1662.95
687.60	1632.23
687.79	1794.02
687.97	1787.88
688.16	1822.69
688.34	1705.96
688.53	1609.70
688.71	1695.72
688.90	1800.16
689.08	1742.82
689.27	1644.52
689.45	1798.12
689.64	1769.44
689.82	1798.12
690.01	1800.16
690.19	1767.40
690.38	1654.76
690.56	1761.25
690.75	1597.42
690.93	1699.81
691.12	1615.85
691.30	1785.83
691.49	1716.20
691.67	1695.72
691.86	1763.30
692.04	1689.57
692.23	1677.29
692.41	1730.53
692.60	1806.31
692.78	1822.69
692.97	1667.05
693.15	1755.11
693.34	1748.97
693.52	1796.07
693.71	1757.16
693.89	1738.73
694.08	1648.61
694.26	1730.53
694.44	1744.87
694.63	1722.34
694.81	1640.42
695.00	1693.67
695.18	1740.77
695.37	1830.88
695.55	1718.25
695.74	1697.77
695.92	1683.43
696.10	1753.06
696.29	1673.19
696.47	1730.53
696.66	1648.61
696.84	1652.71
697.03	1701.86
697.21	1863.65
697.40	2371.55
697.58	1769.44
697.76	1681.38
697.95	1628.14
698.13	1705.96
698.32	1742.82
698.50	1757.16
698.68	1730.53
698.87	1740.77
699.05	1751.01
699.24	1648.61
699.42	1712.10
699.61	1662.95
699.79	1722.34
699.97	1767.40
700.16	1634.28
700.34	1685.48
700.53	1746.92
700.71	1880.04
700.89	1812.45
701.08	1734.63
701.26	1738.73
701.45	2086.88
701.63	1644.52
701.81	1753.06
702.00	1693.67
702.18	1744.87
702.37	1667.05
702.55	1759.21
702.73	1742.82
702.92	1695.72
703.10	1744.87
703.28	1730.53
703.47	1716.20
703.65	1781.73
703.84	1705.96
704.02	1656.81
704.20	1787.88
704.39	1654.76
704.57	1695.72
704.75	1761.25
704.94	1744.87
705.12	1791.97
705.30	1804.26
705.49	2353.12
705.67	4466.62
705.86	9138.04
706.04	12408.64
706.22	14358.31
706.41	15159.06
706.59	13424.44
706.77	9373.55
706.96	7241.62
707.14	6479.77
707.32	5863.33
707.51	5550.00
707.69	4814.77
707.87	4313.02
708.06	3448.78
708.24	2949.08
708.42	2346.97
708.61	2316.25
708.79	1943.52
708.97	1931.23
709.16	1861.60
709.34	1791.97
709.52	1714.15
709.71	1650.66
709.89	1761.25
710.07	1681.38
710.26	1710.05
710.44	1822.69
710.62	1802.21
710.80	1683.43
710.99	1785.83
711.17	1789.92
711.35	1730.53
711.54	1724.39
711.72	1759.21
711.90	1742.82
712.09	1726.44
712.27	1675.24
712.45	1718.25
712.63	1691.62
712.82	1675.24
713.00	1757.16
713.18	1742.82
713.37	1675.24
713.55	1699.81
713.73	1763.30
713.91	1705.96
714.10	1650.66
714.28	1722.34
714.46	1820.64
714.65	1767.40
714.83	1701.86
715.01	1667.05
715.19	1722.34
715.38	1730.53
715.56	1789.92
715.74	1687.53
715.92	1642.47
716.11	1814.50
716.29	1593.32
716.47	1703.91
716.65	1683.43
716.84	1632.23
717.02	1716.20
717.20	1587.18
717.38	1689.57
717.57	1656.81
717.75	1744.87
717.93	1658.85
718.11	1761.25
718.30	1656.81
718.48	1744.87
718.66	1765.35
718.84	1736.68
719.03	1701.86
719.21	1703.91
719.39	1789.92
719.57	1779.68
719.75	1781.73
719.94	1656.81
720.12	1705.96
720.30	1662.95
720.48	1742.82
720.67	1714.15
720.85	1624.04
721.03	1658.85
721.21	1667.05
721.39	1812.45
721.58	1742.82
721.76	1736.68
721.94	1755.11
722.12	1759.21
722.30	1855.46
722.49	1705.96
722.67	1714.15
722.85	1724.39
723.03	1701.86
723.21	1636.33
723.40	1685.48
723.58	1834.98
723.76	1744.87
723.94	1771.49
724.12	1771.49
724.30	1730.53
724.49	1791.97
724.67	1644.52
724.85	1771.49
725.03	1673.19
725.21	1791.97
725.40	1748.97
725.58	1722.34
725.76	1814.50
725.94	1732.58
726.12	1681.38
726.30	1738.73
726.49	1742.82
726.67	1685.48
726.85	1736.68
727.03	1843.17
727.21	2129.89
727.39	2891.73
727.57	3686.34
727.76	4155.33
727.94	4394.94
728.12	4204.48
728.30	3602.38
728.48	2951.12
728.66	2676.70
728.84	2533.34
729.03	2336.73
729.21	2174.94
729.39	1976.29
729.57	1849.32
729.75	1853.41
729.93	1841.12
730.11	1720.29
730.30	1699.81
730.48	1767.40
730.66	1767.40
730.84	1769.44
731.02	1710.05
731.20	1732.58
731.38	1656.81
731.56	1607.66
731.74	1771.49
731.93	1765.35
732.11	1716.20
732.29	1665.00
732.47	1824.74
732.65	1669.09
732.83	1724.39
733.01	1781.73
733.19	1724.39
733.37	1755.11
733.56	1785.83
733.74	1718.25
733.92	1834.98
734.10	1591.27
734.28	1689.57
734.46	1662.95
734.64	1693.67
734.82	1714.15
735.00	1695.72
735.18	1685.48
735.36	1703.91
735.54	1740.77
735.73	1652.71
735.91	1728.49
736.09	1748.97
736.27	1689.57
736.45	1781.73
736.63	1603.56
736.81	1701.86
736.99	1746.92
737.17	1791.97
737.35	1705.96
737.53	1662.95
737.71	1695.72
737.89	1828.84
738.07	1675.24
738.25	1710.05
738.43	1656.81
738.61	1783.78
738.80	1609.70
738.98	1656.81
739.16	1675.24
739.34	1644.52
739.52	1806.31
739.70	1677.29
739.88	1767.40
740.06	1849.32
740.24	1648.61
740.42	1808.36
740.60	1615.85
740.78	1630.18
740.96	1667.05
741.14	1642.47
741.32	1748.97
741.50	1681.38
741.68	1787.88
741.86	1787.88
742.04	1681.38
742.22	1644.52
742.40	1728.49
742.58	1785.83
742.76	1697.77
742.94	1785.83
743.12	1644.52
743.30	1671.14
743.48	1732.58
743.66	1701.86
743.84	1716.20
744.02	1667.05
744.20	1740.77
744.38	1624.04
744.56	1726.44
744.74	1798.12
744.92	1742.82
745.10	1769.44
745.28	1734.63
745.46	1834.98
745.64	1693.67
745.82	1751.01
746.00	1673.19
746.18	1699.81
746.36	1624.04
746.54	1654.76
746.72	1757.16
746.90	1642.47
747.08	1783.78
747.26	1673.19
747.44	1738.73
747.62	1691.62
747.80	1701.86
747.98	1767.40
748.15	1691.62
748.33	1800.16
748.51	1710.05
748.69	1734.63
748.87	1720.29
749.05	1654.76
749.23	1662.95
749.41	1777.64
749.59	1744.87
749.77	1732.58
749.95	1693.67
750.13	1691.62
750.31	1722.34
750.49	1673.19
750.67	1791.97
750.85	1845.22
751.03	1699.81
751.20	1802.21
751.38	1722.34
751.56	1693.67
751.74	1748.97
751.92	1687.53
752.10	1613.80
752.28	1826.79
752.46	1710.05
752.64	1687.53
752.82	1767.40
753.00	1806.31
753.18	1773.54
753.35	1683.43
753.53	1724.39
753.71	1671.14
753.89	1779.68
754.07	1814.50
754.25	1775.59
754.43	1816.55
754.61	1578.98
754.79	1734.63
754.97	1695.72
755.14	1761.25
755.32	1648.61
755.50	1777.64
755.68	1767.40
755.86	1701.86
756.04	1736.68
756.22	1615.85
756.40	1773.54
756.57	1791.97
756.75	1667.05
756.93	1802.21
757.11	1705.96
757.29	1646.57
757.47	1658.85
757.65	1650.66
757.82	1626.09
758.00	1769.44
758.18	1693.67
758.36	1687.53
758.54	1783.78
758.72	1675.24
758.90	1751.01
759.07	1785.83
759.25	1660.90
759.43	1748.97
759.61	1648.61
759.79	2152.42
759.97	1763.30
760.15	1705.96
760.32	1712.10
760.50	1763.30
760.68	1851.36
760.86	1693.67
761.04	1787.88
761.22	1742.82
761.39	1732.58
761.57	1718.25
761.75	1705.96
761.93	1712.10
762.11	1710.05
762.28	1705.96
762.46	1740.77
762.64	1746.92
762.82	1667.05
763.00	1759.21
763.18	1722.34
763.35	1599.46
763.53	1769.44
763.71	1753.06
763.89	1708.01
764.07	1732.58
764.24	1705.96
764.42	1763.30
764.60	1714.15
764.78	1787.88
764.96	1689.57
765.13	1748.97
765.31	1693.67
765.49	1691.62
765.67	1765.35
765.84	1695.72
766.02	1660.90
766.20	1648.61
766.38	1689.57
766.56	1810.40
766.73	1730.53
766.91	1660.90
767.09	1683.43
767.27	1732.58
767.44	1615.85
767.62	1771.49
767.80	1722.34
767.98	1701.86
768.15	1658.85
768.33	1740.77
768.51	1789.92
768.69	1771.49
768.87	1722.34
769.04	1695.72
769.22	1865.70
769.40	1884.13
769.58	1900.52
769.75	1798.12
769.93	1771.49
770.11	1787.88
770.28	1585.13
770.46	1710.05
770.64	1759.21
770.82	1777.64
770.99	1695.72
771.17	1726.44
771.35	1718.25
771.53	1744.87
771.70	1740.77
771.88	1728.49
772.06	1699.81
772.23	1703.91
772.41	1806.31
772.59	1685.48
772.77	1681.38
772.94	1675.24
773.12	1843.17
773.30	1669.09
773.47	1656.81
773.65	1640.42
773.83	1771.49
774.01	1710.05
774.18	1656.81
774.36	1742.82
774.54	1730.53
774.71	1783.78
774.89	1667.05
775.07	1683.43
775.24	1705.96
775.42	1652.71
775.60	1820.64
775.78	1705.96
775.95	1648.61
776.13	1632.23
776.31	1550.31
776.48	1740.77
776.66	1849.32
776.84	1716.20
777.01	1679.33
777.19	1726.44
777.37	1626.09
777.54	1740.77
777.72	1804.26
777.90	1683.43
778.07	1689.57
778.25	1824.74
778.43	1675.24
778.60	1660.90
778.78	1652.71
778.96	1761.25
779.13	1658.85
779.31	1751.01
779.49	1755.11
779.66	1665.00
779.84	1705.96
780.01	1691.62
780.19	1718.25
780.37	1738.73
780.54	1781.73
780.72	1615.85
780.90	1699.81
781.07	1712.10
781.25	1746.92
781.43	1824.74
781.60	1656.81
781.78	1837.03
781.95	1687.53
782.13	1685.48
782.31	1753.06
782.48	1597.42
782.66	1658.85
782.83	1779.68
783.01	1769.44
783.19	1765.35
783.36	1703.91
783.54	1648.61
783.72	1716.20
783.89	1634.28
784.07	1767.40
784.24	1742.82
784.42	1761.25
784.60	1710.05
784.77	1683.43
784.95	1636.33
785.12	1720.29
785.30	1701.86
785.47	1669.09
785.65	1701.86
785.83	1660.90
786.00	1769.44
786.18	1689.57
786.35	1597.42
786.53	1681.38
786.71	1744.87
786.88	1761.25
787.06	1662.95
787.23	1728.49
787.41	1685.48
787.58	1660.90
787.76	1669.09
787.94	1812.45
788.11	1796.07
788.29	1677.29
788.46	1681.38
788.64	1615.85
788.81	1718.25
788.99	1691.62
789.16	1658.85
789.34	1693.67
789.52	1699.81
789.69	1744.87
789.87	1644.52
790.04	1658.85
790.22	1724.39
790.39	1804.26
790.57	1734.63
790.74	1568.74
790.92	1785.83
791.09	1621.99
791.27	1806.31
791.44	1748.97
791.62	1746.92
791.79	1751.01
791.97	1699.81
792.15	1947.62
792.32	1714.15
792.50	1779.68
792.67	1873.89
792.85	1871.84
793.02	1621.99
793.20	1679.33
793.37	1679.33
793.55	1714.15
793.72	1650.66
793.90	1783.78
794.07	1675.24
794.25	1671.14
794.42	1730.53
794.60	1736.68
794.77	1869.80
794.95	1771.49
795.12	1769.44
795.30	1691.62
795.47	1665.00
795.65	1912.80
795.82	1757.16
796.00	1701.86
796.17	1738.73
796.34	1658.85
796.52	1732.58
796.69	1791.97
796.87	1730.53
797.04	1794.02
797.22	1703.91
797.39	1714.15
797.57	1734.63
797.74	1783.78
797.92	1734.63
798.09	1710.05
798.27	1708.01
798.44	1732.58
798.62	1665.00
798.79	1675.24
798.96	1769.44
799.14	1648.61
799.31	1861.60
799.49	1732.58
799.66	1708.01
799.84	1798.12
800.01	1671.14
800.19	1728.49
800.36	1583.08
800.53	1716.20
800.71	1740.77
800.88	1820.64
801.06	1716.20
801.23	1703.91
801.41	1650.66
801.58	1665.00
801.75	1748.97
801.93	1691.62
802.10	1751.01
802.28	1626.09
802.45	1665.00
802.63	1763.30
802.80	1753.06
802.97	1718.25
803.15	1718.25
803.32	1736.68
803.50	1673.19
803.67	1636.33
803.84	1679.33
804.02	1689.57
804.19	1728.49
804.37	1576.94
804.54	1673.19
804.71	1714.15
804.89	1714.15
805.06	1763.30
805.24	1669.09
805.41	1615.85
805.58	1693.67
805.76	1798.12
805.93	1714.15
806.10	1791.97
806.28	1773.54
806.45	1732.58
806.63	1771.49
806.80	1718.25
806.97	1693.67
807.15	1765.35
807.32	1734.63
807.49	1714.15
807.67	1685.48
807.84	1703.91
808.01	1640.42
808.19	1861.60
808.36	1855.46
808.54	1751.01
808.71	1667.05
808.88	1677.29
809.06	1722.34
809.23	1742.82
809.40	1660.90
809.58	1771.49
809.75	1718.25
809.92	1636.33
810.10	1890.28
810.27	1679.33
810.44	1697.77
810.62	1769.44
810.79	1697.77
810.96	1673.19
811.14	1712.10
811.31	1703.91
811.48	1775.59
811.66	1720.29
811.83	1789.92
812.00	1796.07
812.18	1697.77
812.35	1773.54
812.52	1683.43
812.69	1677.29
812.87	1662.95
813.04	1691.62
813.21	1671.14
813.39	1689.57
813.56	1669.09
813.73	1691.62
813.91	1628.14
814.08	1699.81
814.25	1675.24
814.42	1652.71
814.60	1669.09
814.77	1695.72
814.94	1658.85
815.12	1626.09
815.29	1705.96
815.46	1728.49
815.63	1658.85
815.81	1757.16
815.98	1615.85
816.15	1734.63
816.33	1712.10
816.50	1699.81
816.67	1658.85
816.84	1677.29
817.02	1603.56
817.19	1689.57
817.36	1759.21
817.53	1777.64
817.71	1673.19
817.88	1701.86
818.05	1726.44
818.22	1679.33
818.40	1800.16
818.57	1703.91
818.74	1730.53
818.91	1757.16
819.09	1789.92
819.26	1769.44
819.43	1630.18
819.60	1708.01
819.78	1710.05
819.95	1773.54
820.12	1679.33
820.29	1730.53
820.47	1763.30
820.64	1679.33
820.81	1599.46
820.98	1705.96
821.15	1617.90
821.33	1818.60
821.50	1691.62
821.67	1769.44
821.84	1630.18
822.02	1738.73
822.19	1751.01
822.36	1646.57
822.53	1726.44
822.70	1617.90
822.88	1626.09
823.05	1830.88
823.22	1656.81
823.39	1757.16
823.56	1687.53
823.74	1800.16
823.91	1626.09
824.08	1665.00
824.25	1652.71
824.42	1783.78
824.60	1638.38
824.77	1746.92
824.94	1701.86
825.11	1726.44
825.28	1519.59
825.45	1724.39
825.63	1773.54
825.80	1656.81
825.97	1791.97
826.14	1714.15
826.31	1578.98
826.48	1675.24
826.66	1697.77
826.83	1742.82
827.00	1722.34
827.17	1652.71
827.34	1626.09
827.51	1662.95
827.69	1703.91
827.86	1607.66
828.03	1720.29
828.20	1736.68
828.37	1681.38
828.54	1804.26
828.71	1722.34
828.89	1843.17
829.06	1695.72
829.23	1785.83
829.40	1712.10
829.57	1677.29
829.74	1679.33
829.91	1669.09
830.09	1677.29
830.26	1718.25
830.43	1822.69
830.60	1667.05
830.77	1677.29
830.94	1783.78
831.11	1644.52
831.28	1685.48
831.46	1818.60
831.63	1783.78
831.80	1771.49
831.97	1630.18
832.14	1697.77
832.31	1726.44
832.48	1742.82
832.65	1812.45
832.82	1693.67
832.99	1724.39
833.17	1710.05
833.34	1845.22
833.51	1767.40
833.68	1595.37
833.85	1685.48
834.02	1732.58
834.19	1599.46
834.36	1617.90
834.53	1714.15
834.70	1779.68
834.87	1748.97
835.04	1712.10
835.22	1640.42
835.39	1804.26
835.56	1734.63
835.73	1626.09
835.90	1777.64
836.07	1673.19
836.24	1767.40
836.41	1648.61
836.58	1650.66
836.75	1699.81
836.92	1787.88
837.09	1673.19
837.26	1777.64
837.43	1751.01
837.60	1683.43
837.77	1738.73
837.94	1837.03
838.12	1759.21
838.29	1697.77
838.46	1669.09
838.63	1654.76
838.80	1820.64
838.97	1787.88
839.14	1769.44
839.31	1765.35
839.48	1718.25
839.65	1742.82
839.82	1748.97
839.99	1710.05
840.16	1742.82
840.33	1718.25
840.50	1759.21
840.67	1642.47
840.84	1513.45
841.01	1791.97
841.18	1671.14
841.35	1695.72
841.52	1730.53
841.69	1808.36
841.86	1720.29
842.03	1755.11
842.20	1736.68
842.37	1724.39
842.54	1730.53
842.71	1703.91
842.88	1624.04
843.05	1695.72
843.22	1712.10
843.39	1726.44
843.56	1701.86
843.73	1722.34
843.90	1791.97
844.07	1621.99
844.24	1781.73
844.41	1658.85
844.58	1757.16
844.75	1695.72
844.92	1656.81
845.09	1763.30
845.26	1673.19
845.43	1759.21
845.60	1705.96
845.77	1802.21
845.94	1744.87
846.10	1744.87
846.27	1605.61
846.44	1708.01
846.61	1669.09
846.78	1787.88
846.95	1873.89
847.12	1744.87
847.29	1718.25
847.46	1597.42
847.63	1744.87
847.80	1675.24
847.97	1660.90
848.14	1916.90
848.31	1722.34
848.48	1593.32
848.65	1708.01
848.82	1712.10
848.98	1789.92
849.15	1767.40
849.32	1751.01
849.49	1734.63
849.66	1699.81
849.83	1695.72
850.00	1662.95
850.17	1779.68
850.34	1636.33
850.51	1656.81
850.68	1679.33
850.85	1853.41
851.01	1738.73
851.18	1679.33
851.35	1673.19
851.52	1814.50
851.69	1806.31
851.86	1603.56
852.03	1800.16
852.20	1693.67
852.37	1712.10
852.53	1640.42
852.70	1658.85
852.87	1726.44
853.04	1665.00
853.21	1636.33
853.38	1781.73
853.55	1812.45
853.72	1845.22
853.89	1609.70
854.05	1701.86
854.22	1644.52
854.39	1691.62
854.56	1677.29
854.73	1697.77
854.90	1691.62
855.07	1773.54
855.23	1689.57
855.40	1714.15
855.57	1724.39
855.74	1632.23
855.91	1834.98
856.08	1671.14
856.25	1685.48
856.41	1730.53
856.58	1658.85
856.75	1701.86
856.92	1722.34
857.09	1769.44
857.26	1724.39
857.42	1693.67
857.59	1734.63
857.76	1722.34
857.93	1767.40
858.10	1722.34
858.27	1699.81
858.43	1667.05
858.60	1681.38
858.77	1556.46
858.94	1632.23
859.11	1824.74
859.27	1712.10
859.44	1765.35
859.61	1818.60
859.78	1769.44
859.95	1712.10
860.12	1759.21
860.28	1771.49
860.45	1849.32
860.62	1660.90
860.79	1685.48
860.95	1748.97
861.12	1652.71
861.29	1689.57
861.46	1677.29
861.63	1730.53
861.79	1736.68
861.96	1662.95
862.13	1722.34
862.30	1757.16
862.47	1699.81
862.63	1738.73
862.80	1738.73
862.97	1744.87
863.14	1679.33
863.30	1724.39
863.47	1705.96
863.64	1804.26
863.81	1677.29
863.97	1787.88
864.14	1728.49
864.31	1671.14
864.48	1730.53
864.65	1724.39
864.81	1755.11
864.98	1785.83
865.15	1800.16
865.32	1716.20
865.48	1701.86
865.65	1800.16
865.82	1708.01
865.98	1662.95
866.15	1746.92
866.32	1724.39
866.49	1656.81
866.65	1724.39
866.82	1621.99
866.99	1765.35
867.16	1624.04
867.32	1566.70
867.49	1609.70
867.66	1724.39
867.83	1642.47
867.99	1617.90
868.16	1681.38
868.33	1628.14
868.49	1705.96
868.66	1681.38
868.83	1814.50
868.99	1736.68
869.16	1771.49
869.33	1759.21
869.50	1796.07
869.66	1677.29
869.83	1679.33
870.00	1667.05
870.16	1767.40
870.33	1736.68
870.50	1765.35
870.66	1740.77
870.83	1834.98
871.00	1695.72
871.17	1773.54
871.33	1701.86
871.50	1730.53
871.67	1673.19
871.83	1646.57
872.00	1781.73
872.17	1673.19
872.33	1777.64
872.50	1759.21
872.67	1628.14
872.83	1714.15
873.00	1689.57
873.17	1744.87
873.33	1705.96
873.50	1765.35
873.67	1695.72
873.83	1695.72
874.00	1724.39
874.16	1744.87
874.33	1695.72
874.50	1703.91
874.66	1714.15
874.83	1705.96
875.00	1751.01
875.16	1789.92
875.33	1689.57
875.50	1533.93
875.66	1619.94
875.83	1728.49
875.99	1705.96
876.16	1673.19
876.33	1662.95
876.49	1673.19
876.66	1775.59
876.83	1624.04
876.99	1607.66
877.16	1761.25
877.32	1626.09
877.49	1730.53
877.66	1751.01
877.82	1751.01
877.99	1695.72
878.15	1757.16
878.32	1738.73
878.49	1736.68
878.65	1697.77
878.82	1767.40
878.98	1726.44
879.15	1732.58
879.32	1710.05
879.48	1765.35
879.65	1669.09
879.81	1632.23
879.98	1736.68
880.15	1689.57
880.31	1832.93
880.48	1665.00
880.64	1820.64
880.81	1781.73
880.97	1783.78
881.14	1742.82
881.31	1646.57
881.47	1859.56
881.64	1708.01
881.80	1615.85
881.97	1744.87
882.13	1658.85
882.30	1665.00
882.47	1681.38
882.63	1716.20
882.80	1689.57
882.96	1699.81
883.13	1808.36
883.29	1701.86
883.46	1763.30
883.62	1869.80
883.79	1744.87
883.95	1814.50
884.12	1679.33
884.29	1767.40
884.45	1771.49
884.62	1748.97
884.78	1624.04
884.95	1730.53
885.11	1656.81
885.28	1744.87
885.44	1660.90
885.61	1697.77
885.77	1808.36
885.94	1734.63
886.10	1689.57
886.27	1714.15
886.43	1794.02
886.60	1693.67
886.76	1708.01
886.93	1689.57
887.09	1771.49
887.26	1636.33
887.42	1685.48
887.59	1822.69
887.75	1800.16
887.92	1726.44
888.08	1806.31
888.25	1804.26
888.41	1779.68
888.58	1730.53
888.74	1665.00
888.91	1671.14
>>>>>End Processed Spectral Data<<<<<
