SpectraSuite Data File
++++++++++++++++++++++++++++++++++++
Date: Mon Jun 06 14:25:17 CEST 2016
User: root
Dark Spectrum Present: No
Reference Spectrum Present: No
Number of Sampled Component Spectra: 1
Spectrometers: USB4C02835
Integration Time (usec): 100000 (USB4C02835)
Spectra Averaged: 1 (USB4C02835)
Boxcar Smoothing: 0 (USB4C02835)
Correct for Electrical Dark: No (USB4C02835)
Strobe/Lamp Enabled: No (USB4C02835)
Correct for Detector Non-linearity: No (USB4C02835)
Correct for Stray Light: No (USB4C02835)
Number of Pixels in Processed Spectrum: 3648
>>>>>Begin Processed Spectral Data<<<<<
177.47	1509.35
177.69	1509.35
177.91	1509.35
178.13	1452.01
178.36	1456.11
178.58	1644.52
178.80	1738.73
179.02	1697.77
179.24	1640.42
179.46	1701.86
179.68	1746.92
179.90	1720.29
180.13	1667.05
180.35	1685.48
180.57	1628.14
180.79	1714.15
181.01	1714.15
181.23	1751.01
181.45	1816.55
181.67	1746.92
181.90	1808.36
182.12	1652.71
182.34	1578.98
182.56	1693.67
182.78	1681.38
183.00	1728.49
183.22	1720.29
183.44	1624.04
183.66	1918.95
183.89	1753.06
184.11	1726.44
184.33	1697.77
184.55	1808.36
184.77	1644.52
184.99	1720.29
185.21	1673.19
185.43	1824.74
185.65	1648.61
185.87	1648.61
186.10	1845.22
186.32	1841.12
186.54	1683.43
186.76	1732.58
186.98	1726.44
187.20	1740.77
187.42	1677.29
187.64	1693.67
187.86	1671.14
188.08	1736.68
188.30	1660.90
188.52	1755.11
188.75	1767.40
188.97	1734.63
189.19	1619.94
189.41	1669.09
189.63	1757.16
189.85	1624.04
190.07	1642.47
190.29	1568.74
190.51	1687.53
190.73	1695.72
190.95	1742.82
191.17	1701.86
191.39	1572.84
191.61	1658.85
191.84	1718.25
192.06	1765.35
192.28	1613.80
192.50	1884.13
192.72	1638.38
192.94	1732.58
193.16	1773.54
193.38	1769.44
193.60	1701.86
193.82	1617.90
194.04	1826.79
194.26	1773.54
194.48	1603.56
194.70	1691.62
194.92	1669.09
195.14	1730.53
195.36	1619.94
195.58	1675.24
195.80	1705.96
196.02	1658.85
196.24	1679.33
196.46	1724.39
196.69	1708.01
196.91	1847.27
197.13	1740.77
197.35	1644.52
197.57	1765.35
197.79	1689.57
198.01	1720.29
198.23	1763.30
198.45	1748.97
198.67	1705.96
198.89	1720.29
199.11	1722.34
199.33	1605.61
199.55	1589.22
199.77	1642.47
199.99	1740.77
200.21	1691.62
200.43	1708.01
200.65	1632.23
200.87	1515.50
201.09	1724.39
201.31	1687.53
201.53	1744.87
201.75	1742.82
201.97	1742.82
202.19	1693.67
202.41	1710.05
202.63	1822.69
202.85	1703.91
203.07	1656.81
203.29	1708.01
203.51	1607.66
203.73	1667.05
203.95	1892.32
204.17	1720.29
204.39	1779.68
204.61	1669.09
204.83	1701.86
205.05	1777.64
205.27	1763.30
205.49	1849.32
205.71	1738.73
205.93	1640.42
206.15	1708.01
206.37	1732.58
206.59	1603.56
206.81	1630.18
207.03	1667.05
207.25	1599.46
207.47	1746.92
207.69	1687.53
207.91	1767.40
208.13	1748.97
208.34	1648.61
208.56	1710.05
208.78	1751.01
209.00	1648.61
209.22	1716.20
209.44	1681.38
209.66	1652.71
209.88	1705.96
210.10	1632.23
210.32	1636.33
210.54	1794.02
210.76	1658.85
210.98	1748.97
211.20	1648.61
211.42	1734.63
211.64	1728.49
211.86	1714.15
212.08	1771.49
212.30	1689.57
212.52	1679.33
212.74	1681.38
212.96	1701.86
213.17	1738.73
213.39	1726.44
213.61	1783.78
213.83	1675.24
214.05	1609.70
214.27	1787.88
214.49	1712.10
214.71	1685.48
214.93	1744.87
215.15	1671.14
215.37	1714.15
215.59	1589.22
215.81	1667.05
216.03	1699.81
216.24	1765.35
216.46	1642.47
216.68	1638.38
216.90	1714.15
217.12	1759.21
217.34	1703.91
217.56	1738.73
217.78	1791.97
218.00	1736.68
218.22	1697.77
218.44	1755.11
218.66	1701.86
218.87	1810.40
219.09	1681.38
219.31	1695.72
219.53	1767.40
219.75	1648.61
219.97	1648.61
220.19	1724.39
220.41	1699.81
220.63	1767.40
220.85	1677.29
221.06	1630.18
221.28	1775.59
221.50	1763.30
221.72	1751.01
221.94	1751.01
222.16	1687.53
222.38	1662.95
222.60	1771.49
222.82	1681.38
223.03	1701.86
223.25	1636.33
223.47	1753.06
223.69	1837.03
223.91	1740.77
224.13	1646.57
224.35	1679.33
224.57	1789.92
224.78	1779.68
225.00	1611.75
225.22	1726.44
225.44	1724.39
225.66	1728.49
225.88	1687.53
226.10	1775.59
226.32	1685.48
226.53	1738.73
226.75	1656.81
226.97	1656.81
227.19	1634.28
227.41	1589.22
227.63	1730.53
227.85	1644.52
228.06	1771.49
228.28	1689.57
228.50	1761.25
228.72	1708.01
228.94	1665.00
229.16	1593.32
229.37	1656.81
229.59	1699.81
229.81	1834.98
230.03	1736.68
230.25	1683.43
230.47	1562.60
230.69	1679.33
230.90	1705.96
231.12	1665.00
231.34	1708.01
231.56	1689.57
231.78	1583.08
232.00	1720.29
232.21	1734.63
232.43	1660.90
232.65	1533.93
232.87	1701.86
233.09	1714.15
233.30	1648.61
233.52	1761.25
233.74	1703.91
233.96	1681.38
234.18	1628.14
234.40	1738.73
234.61	1744.87
234.83	1624.04
235.05	1665.00
235.27	1837.03
235.49	1810.40
235.70	1748.97
235.92	1843.17
236.14	1783.78
236.36	1837.03
236.58	1636.33
236.79	1742.82
237.01	1722.34
237.23	1689.57
237.45	1814.50
237.67	1693.67
237.88	1685.48
238.10	1718.25
238.32	1634.28
238.54	1755.11
238.76	1697.77
238.97	1681.38
239.19	1675.24
239.41	1781.73
239.63	1773.54
239.85	1691.62
240.06	1705.96
240.28	1673.19
240.50	1746.92
240.72	1693.67
240.93	1691.62
241.15	1806.31
241.37	1693.67
241.59	1763.30
241.81	1759.21
242.02	1675.24
242.24	1779.68
242.46	1748.97
242.68	1699.81
242.89	1662.95
243.11	1738.73
243.33	1691.62
243.55	1787.88
243.76	1771.49
243.98	1712.10
244.20	1710.05
244.42	1753.06
244.64	1669.09
244.85	1691.62
245.07	1581.03
245.29	1708.01
245.51	1763.30
245.72	1734.63
245.94	1755.11
246.16	1720.29
246.38	1746.92
246.59	1650.66
246.81	1710.05
247.03	1636.33
247.24	1673.19
247.46	1615.85
247.68	1699.81
247.90	1689.57
248.11	1640.42
248.33	1714.15
248.55	1638.38
248.77	1742.82
248.98	1724.39
249.20	1849.32
249.42	1656.81
249.64	1791.97
249.85	1724.39
250.07	1714.15
250.29	1705.96
250.50	1751.01
250.72	1634.28
250.94	1816.55
251.16	1771.49
251.37	1755.11
251.59	1722.34
251.81	1765.35
252.02	1695.72
252.24	1751.01
252.46	1728.49
252.68	1714.15
252.89	1654.76
253.11	1578.98
253.33	1767.40
253.54	1771.49
253.76	1634.28
253.98	1679.33
254.20	1695.72
254.41	1665.00
254.63	1771.49
254.85	1644.52
255.06	1603.56
255.28	1697.77
255.50	1722.34
255.71	1589.22
255.93	1636.33
256.15	1619.94
256.36	1775.59
256.58	1660.90
256.80	1703.91
257.02	1718.25
257.23	1730.53
257.45	1724.39
257.67	1720.29
257.88	1693.67
258.10	1738.73
258.32	1701.86
258.53	1650.66
258.75	1830.88
258.97	1650.66
259.18	1714.15
259.40	1773.54
259.62	1841.12
259.83	1714.15
260.05	1783.78
260.27	1935.33
260.48	1716.20
260.70	1656.81
260.92	1630.18
261.13	1685.48
261.35	1720.29
261.57	1759.21
261.78	1665.00
262.00	1599.46
262.22	1693.67
262.43	1685.48
262.65	1757.16
262.86	1701.86
263.08	1837.03
263.30	1794.02
263.51	1568.74
263.73	1691.62
263.95	1822.69
264.16	1652.71
264.38	1685.48
264.60	1712.10
264.81	1685.48
265.03	1773.54
265.25	1677.29
265.46	1619.94
265.68	1761.25
265.89	1714.15
266.11	1624.04
266.33	1771.49
266.54	1687.53
266.76	1736.68
266.98	1726.44
267.19	1771.49
267.41	1658.85
267.62	1800.16
267.84	1695.72
268.06	1685.48
268.27	1730.53
268.49	1732.58
268.70	1728.49
268.92	1652.71
269.14	1609.70
269.35	1642.47
269.57	1671.14
269.79	1804.26
270.00	1671.14
270.22	1841.12
270.43	1615.85
270.65	1556.46
270.87	1720.29
271.08	1734.63
271.30	1679.33
271.51	1748.97
271.73	1714.15
271.95	1667.05
272.16	1742.82
272.38	1783.78
272.59	1724.39
272.81	1714.15
273.02	1767.40
273.24	1703.91
273.46	1773.54
273.67	1642.47
273.89	1673.19
274.10	1681.38
274.32	1791.97
274.54	1730.53
274.75	1738.73
274.97	1665.00
275.18	1761.25
275.40	1718.25
275.61	1574.89
275.83	1728.49
276.05	1695.72
276.26	1746.92
276.48	1693.67
276.69	1722.34
276.91	1644.52
277.12	1822.69
277.34	1699.81
277.55	1742.82
277.77	1703.91
277.99	1693.67
278.20	1662.95
278.42	1652.71
278.63	1636.33
278.85	1697.77
279.06	1603.56
279.28	1763.30
279.49	1703.91
279.71	1722.34
279.93	1759.21
280.14	1726.44
280.36	1673.19
280.57	1794.02
280.79	1705.96
281.00	1718.25
281.22	1669.09
281.43	1832.93
281.65	1603.56
281.86	1583.08
282.08	1646.57
282.29	1837.03
282.51	1617.90
282.73	1648.61
282.94	1667.05
283.16	1757.16
283.37	1791.97
283.59	1720.29
283.80	1697.77
284.02	1667.05
284.23	1718.25
284.45	1677.29
284.66	1640.42
284.88	1673.19
285.09	1734.63
285.31	1652.71
285.52	1742.82
285.74	1593.32
285.95	1730.53
286.17	1751.01
286.38	1722.34
286.60	1656.81
286.81	1716.20
287.03	1619.94
287.24	1734.63
287.46	1753.06
287.67	1662.95
287.89	1828.84
288.10	1775.59
288.32	1777.64
288.53	1730.53
288.75	1681.38
288.96	1708.01
289.18	1628.14
289.39	1681.38
289.61	1742.82
289.82	1841.12
290.04	1781.73
290.25	1662.95
290.47	1681.38
290.68	1677.29
290.90	1783.78
291.11	1581.03
291.33	1783.78
291.54	1562.60
291.76	1705.96
291.97	1757.16
292.18	1734.63
292.40	1687.53
292.61	1634.28
292.83	1834.98
293.04	1808.36
293.26	1714.15
293.47	1695.72
293.69	1630.18
293.90	1652.71
294.12	1783.78
294.33	1615.85
294.55	1697.77
294.76	1701.86
294.97	1763.30
295.19	1779.68
295.40	1675.24
295.62	1732.58
295.83	1738.73
296.05	1677.29
296.26	1787.88
296.48	1669.09
296.69	1681.38
296.90	1695.72
297.12	1703.91
297.33	1728.49
297.55	1683.43
297.76	1771.49
297.98	1753.06
298.19	1718.25
298.41	1583.08
298.62	1652.71
298.83	1826.79
299.05	1787.88
299.26	1619.94
299.48	1681.38
299.69	1730.53
299.90	1769.44
300.12	1669.09
300.33	1693.67
300.55	1724.39
300.76	1791.97
300.98	1646.57
301.19	1773.54
301.40	1691.62
301.62	1701.86
301.83	1755.11
302.05	1603.56
302.26	1726.44
302.47	1689.57
302.69	1628.14
302.90	1689.57
303.12	1613.80
303.33	1716.20
303.54	1718.25
303.76	1640.42
303.97	1667.05
304.19	1851.36
304.40	1654.76
304.61	1699.81
304.83	1687.53
305.04	1787.88
305.26	1691.62
305.47	1652.71
305.68	1720.29
305.90	1708.01
306.11	1812.45
306.33	1650.66
306.54	1683.43
306.75	1679.33
306.97	1607.66
307.18	1677.29
307.39	1677.29
307.61	1708.01
307.82	1669.09
308.04	1753.06
308.25	1578.98
308.46	1779.68
308.68	1691.62
308.89	1708.01
309.10	1748.97
309.32	1691.62
309.53	1726.44
309.74	1724.39
309.96	1587.18
310.17	1773.54
310.39	1761.25
310.60	1730.53
310.81	1656.81
311.03	1566.70
311.24	1746.92
311.45	1755.11
311.67	1794.02
311.88	1619.94
312.09	1697.77
312.31	1626.09
312.52	1718.25
312.73	1720.29
312.95	1611.75
313.16	1675.24
313.37	1761.25
313.59	1802.21
313.80	1814.50
314.01	1736.68
314.23	1740.77
314.44	1662.95
314.65	1611.75
314.87	1652.71
315.08	1703.91
315.29	1652.71
315.51	1634.28
315.72	1632.23
315.93	1794.02
316.15	1777.64
316.36	1705.96
316.57	1714.15
316.79	1771.49
317.00	1683.43
317.21	1828.84
317.43	1658.85
317.64	1695.72
317.85	1683.43
318.07	1599.46
318.28	1732.58
318.49	1734.63
318.70	1927.14
318.92	1834.98
319.13	1869.80
319.34	1845.22
319.56	1816.55
319.77	1783.78
319.98	1810.40
320.20	1775.59
320.41	1718.25
320.62	1695.72
320.83	1656.81
321.05	1783.78
321.26	1695.72
321.47	1693.67
321.69	1730.53
321.90	1648.61
322.11	1699.81
322.32	1665.00
322.54	1816.55
322.75	1716.20
322.96	1775.59
323.18	1560.55
323.39	1587.18
323.60	1660.90
323.81	1769.44
324.03	1632.23
324.24	1718.25
324.45	1724.39
324.66	1671.14
324.88	1710.05
325.09	1720.29
325.30	1605.61
325.52	1665.00
325.73	1667.05
325.94	1566.70
326.15	1564.65
326.37	1648.61
326.58	1759.21
326.79	1791.97
327.00	1673.19
327.22	1720.29
327.43	1675.24
327.64	1638.38
327.85	1759.21
328.07	1705.96
328.28	1810.40
328.49	1650.66
328.70	1701.86
328.92	1697.77
329.13	1724.39
329.34	1689.57
329.55	1820.64
329.76	1761.25
329.98	1626.09
330.19	1787.88
330.40	1732.58
330.61	1685.48
330.83	1820.64
331.04	1658.85
331.25	1677.29
331.46	1689.57
331.68	1646.57
331.89	1751.01
332.10	1691.62
332.31	1665.00
332.52	1712.10
332.74	1798.12
332.95	1656.81
333.16	1642.47
333.37	1746.92
333.58	1667.05
333.80	1718.25
334.01	1626.09
334.22	1644.52
334.43	1658.85
334.64	1726.44
334.86	1646.57
335.07	1693.67
335.28	1798.12
335.49	1679.33
335.70	1693.67
335.92	1779.68
336.13	1867.75
336.34	1726.44
336.55	1714.15
336.76	1693.67
336.98	1609.70
337.19	1757.16
337.40	1861.60
337.61	1769.44
337.82	1710.05
338.04	1769.44
338.25	1611.75
338.46	1677.29
338.67	1667.05
338.88	1710.05
339.09	1597.42
339.31	1675.24
339.52	1658.85
339.73	1562.60
339.94	1720.29
340.15	1716.20
340.36	1621.99
340.58	1746.92
340.79	1675.24
341.00	1699.81
341.21	1648.61
341.42	1800.16
341.63	1744.87
341.85	1681.38
342.06	1693.67
342.27	1695.72
342.48	1703.91
342.69	1701.86
342.90	1800.16
343.12	1802.21
343.33	1673.19
343.54	1677.29
343.75	1708.01
343.96	1722.34
344.17	1662.95
344.38	1703.91
344.60	1619.94
344.81	1671.14
345.02	1665.00
345.23	1732.58
345.44	1814.50
345.65	1705.96
345.86	1765.35
346.07	1662.95
346.29	1636.33
346.50	1687.53
346.71	1773.54
346.92	1675.24
347.13	1808.36
347.34	1656.81
347.55	1705.96
347.76	1701.86
347.98	1642.47
348.19	1701.86
348.40	1804.26
348.61	1800.16
348.82	1759.21
349.03	1759.21
349.24	1669.09
349.45	1810.40
349.66	1595.37
349.88	1685.48
350.09	1652.71
350.30	1740.77
350.51	1789.92
350.72	1783.78
350.93	1718.25
351.14	1650.66
351.35	1783.78
351.56	1695.72
351.77	1720.29
351.99	1712.10
352.20	1765.35
352.41	1810.40
352.62	1613.80
352.83	1712.10
353.04	1722.34
353.25	1767.40
353.46	1820.64
353.67	1734.63
353.88	1695.72
354.09	1716.20
354.30	1675.24
354.52	1736.68
354.73	1683.43
354.94	1738.73
355.15	1755.11
355.36	1787.88
355.57	1624.04
355.78	1794.02
355.99	1746.92
356.20	1730.53
356.41	1734.63
356.62	1722.34
356.83	1693.67
357.04	1767.40
357.25	1558.50
357.46	1615.85
357.68	1720.29
357.89	1570.79
358.10	1660.90
358.31	1773.54
358.52	1755.11
358.73	1636.33
358.94	1722.34
359.15	1613.80
359.36	1726.44
359.57	1744.87
359.78	1767.40
359.99	1695.72
360.20	1685.48
360.41	1632.23
360.62	1771.49
360.83	1669.09
361.04	1689.57
361.25	1708.01
361.46	1839.08
361.67	1753.06
361.88	1675.24
362.09	1718.25
362.30	1746.92
362.51	1669.09
362.72	1712.10
362.93	1769.44
363.14	1685.48
363.35	1697.77
363.56	1665.00
363.78	1753.06
363.99	1759.21
364.20	1693.67
364.41	1812.45
364.62	1740.77
364.83	1662.95
365.04	1705.96
365.25	1728.49
365.46	1888.23
365.67	1693.67
365.88	1617.90
366.09	1628.14
366.30	1726.44
366.51	1628.14
366.72	1640.42
366.93	1626.09
367.14	1734.63
367.35	1769.44
367.56	1699.81
367.77	1806.31
367.98	1730.53
368.18	1730.53
368.39	1677.29
368.60	1656.81
368.81	1748.97
369.02	1722.34
369.23	1611.75
369.44	1638.38
369.65	1722.34
369.86	1767.40
370.07	1685.48
370.28	1681.38
370.49	1728.49
370.70	1810.40
370.91	1609.70
371.12	1681.38
371.33	1804.26
371.54	1640.42
371.75	1798.12
371.96	1669.09
372.17	1767.40
372.38	1648.61
372.59	1687.53
372.80	1744.87
373.01	1687.53
373.22	1677.29
373.43	1742.82
373.64	1712.10
373.85	1765.35
374.06	1814.50
374.26	1820.64
374.47	1722.34
374.68	1767.40
374.89	1675.24
375.10	1732.58
375.31	1800.16
375.52	1597.42
375.73	1708.01
375.94	1656.81
376.15	1814.50
376.36	1673.19
376.57	1681.38
376.78	1730.53
376.99	1675.24
377.20	1804.26
377.40	1624.04
377.61	1742.82
377.82	1609.70
378.03	1746.92
378.24	1775.59
378.45	1781.73
378.66	1732.58
378.87	1576.94
379.08	1638.38
379.29	1658.85
379.50	1832.93
379.71	1714.15
379.91	1693.67
380.12	1765.35
380.33	1730.53
380.54	1693.67
380.75	1773.54
380.96	1718.25
381.17	1769.44
381.38	1644.52
381.59	1699.81
381.80	1701.86
382.00	1746.92
382.21	1732.58
382.42	1769.44
382.63	1923.04
382.84	1765.35
383.05	1734.63
383.26	1771.49
383.47	1783.78
383.68	1710.05
383.88	1710.05
384.09	1722.34
384.30	1884.13
384.51	1712.10
384.72	1658.85
384.93	1636.33
385.14	1660.90
385.35	1771.49
385.55	1613.80
385.76	1828.84
385.97	1697.77
386.18	1570.79
386.39	1718.25
386.60	1675.24
386.81	1644.52
387.02	1621.99
387.22	1687.53
387.43	1796.07
387.64	1777.64
387.85	1837.03
388.06	2283.49
388.27	4294.59
388.48	6719.39
388.68	8241.03
388.89	9664.36
389.10	9744.24
389.31	8660.86
389.52	7524.24
389.73	6789.02
389.93	6172.58
390.14	5951.40
390.35	5119.92
390.56	4589.50
390.77	3790.79
390.98	3098.58
391.18	2549.72
391.39	2131.94
391.60	1720.29
391.81	1789.92
392.02	1771.49
392.23	1845.22
392.43	1712.10
392.64	1791.97
392.85	1669.09
393.06	1802.21
393.27	1722.34
393.47	1626.09
393.68	1648.61
393.89	1660.90
394.10	1808.36
394.31	1662.95
394.52	1705.96
394.72	1675.24
394.93	1765.35
395.14	1671.14
395.35	1714.15
395.56	1640.42
395.76	1728.49
395.97	1845.22
396.18	1810.40
396.39	1816.55
396.60	2080.74
396.80	1914.85
397.01	1824.74
397.22	1834.98
397.43	1806.31
397.64	1677.29
397.84	1794.02
398.05	1855.46
398.26	1699.81
398.47	1773.54
398.67	1769.44
398.88	1738.73
399.09	1828.84
399.30	1656.81
399.51	1708.01
399.71	1648.61
399.92	1740.77
400.13	1755.11
400.34	1716.20
400.54	1718.25
400.75	1832.93
400.96	1679.33
401.17	1808.36
401.37	1656.81
401.58	1671.14
401.79	1705.96
402.00	1859.56
402.21	1992.67
402.41	1990.63
402.62	2004.96
402.83	2119.65
403.04	1972.19
403.24	2084.83
403.45	1910.75
403.66	1955.81
403.87	1886.18
404.07	1906.66
404.28	1951.71
404.49	1886.18
404.70	1794.02
404.90	1755.11
405.11	1740.77
405.32	1765.35
405.52	1667.05
405.73	1636.33
405.94	1636.33
406.15	1744.87
406.35	1767.40
406.56	1677.29
406.77	1726.44
406.98	1734.63
407.18	1626.09
407.39	1763.30
407.60	1710.05
407.80	1714.15
408.01	1632.23
408.22	1687.53
408.43	1648.61
408.63	1693.67
408.84	1718.25
409.05	1722.34
409.25	1681.38
409.46	1636.33
409.67	1710.05
409.88	1730.53
410.08	1712.10
410.29	1736.68
410.50	1757.16
410.70	1722.34
410.91	1689.57
411.12	1757.16
411.32	1705.96
411.53	1652.71
411.74	1753.06
411.95	1765.35
412.15	1767.40
412.36	1763.30
412.57	1740.77
412.77	1851.36
412.98	1640.42
413.19	1796.07
413.39	1667.05
413.60	1791.97
413.81	1796.07
414.01	1705.96
414.22	1738.73
414.43	1742.82
414.63	1679.33
414.84	1742.82
415.05	1746.92
415.25	1589.22
415.46	1687.53
415.67	1697.77
415.87	1767.40
416.08	1697.77
416.29	1648.61
416.49	1699.81
416.70	1656.81
416.91	1718.25
417.11	1667.05
417.32	1732.58
417.53	1763.30
417.73	1742.82
417.94	1667.05
418.15	1755.11
418.35	1685.48
418.56	1732.58
418.77	1847.27
418.97	1722.34
419.18	1703.91
419.38	1552.36
419.59	1675.24
419.80	1771.49
420.00	1710.05
420.21	1701.86
420.42	1763.30
420.62	1751.01
420.83	1675.24
421.04	1724.39
421.24	1671.14
421.45	1726.44
421.65	1665.00
421.86	1677.29
422.07	1839.08
422.27	1714.15
422.48	1714.15
422.69	1648.61
422.89	1636.33
423.10	1730.53
423.30	1673.19
423.51	1685.48
423.72	1689.57
423.92	1724.39
424.13	1617.90
424.33	1697.77
424.54	1736.68
424.75	1734.63
424.95	1808.36
425.16	1763.30
425.36	1771.49
425.57	1722.34
425.78	1757.16
425.98	1775.59
426.19	1646.57
426.39	1636.33
426.60	1728.49
426.81	1781.73
427.01	1695.72
427.22	1656.81
427.42	1654.76
427.63	1593.32
427.83	1708.01
428.04	1814.50
428.25	1832.93
428.45	1816.55
428.66	1748.97
428.86	1705.96
429.07	1624.04
429.28	1763.30
429.48	1710.05
429.69	1630.18
429.89	1746.92
430.10	1650.66
430.30	1785.83
430.51	1763.30
430.71	1660.90
430.92	1746.92
431.13	1656.81
431.33	1755.11
431.54	1697.77
431.74	1732.58
431.95	1789.92
432.15	1689.57
432.36	1744.87
432.56	1800.16
432.77	1791.97
432.98	1804.26
433.18	1755.11
433.39	1660.90
433.59	1671.14
433.80	1886.18
434.00	1808.36
434.21	1689.57
434.41	1595.37
434.62	1834.98
434.82	1648.61
435.03	1697.77
435.23	1644.52
435.44	1595.37
435.64	1732.58
435.85	1779.68
436.06	1804.26
436.26	1771.49
436.47	1730.53
436.67	1687.53
436.88	1705.96
437.08	1769.44
437.29	1802.21
437.49	1789.92
437.70	1779.68
437.90	1640.42
438.11	1822.69
438.31	1753.06
438.52	1832.93
438.72	1744.87
438.93	1951.71
439.13	1798.12
439.34	1900.52
439.54	1779.68
439.75	1761.25
439.95	1730.53
440.16	1783.78
440.36	1763.30
440.57	1769.44
440.77	1779.68
440.98	1708.01
441.18	1724.39
441.39	1708.01
441.59	1624.04
441.80	1843.17
442.00	1624.04
442.21	1820.64
442.41	1652.71
442.62	1839.08
442.82	1621.99
443.02	1802.21
443.23	1794.02
443.43	1665.00
443.64	1820.64
443.84	1755.11
444.05	1855.46
444.25	1781.73
444.46	1761.25
444.66	1708.01
444.87	1859.56
445.07	1679.33
445.28	1716.20
445.48	1787.88
445.69	1820.64
445.89	1869.80
446.09	1751.01
446.30	2074.59
446.50	2598.87
446.71	3798.98
446.91	4333.50
447.12	4677.56
447.32	4769.72
447.53	4313.02
447.73	3905.48
447.93	3504.07
448.14	3272.65
448.34	3190.74
448.55	2897.88
448.75	2830.29
448.96	2652.12
449.16	2383.84
449.36	2443.23
449.57	2039.78
449.77	1925.09
449.98	1794.02
450.18	1904.61
450.39	1808.36
450.59	1742.82
450.79	1714.15
451.00	1732.58
451.20	1826.79
451.41	1687.53
451.61	1755.11
451.81	1697.77
452.02	1748.97
452.22	1703.91
452.43	1734.63
452.63	1740.77
452.84	1726.44
453.04	1699.81
453.24	1787.88
453.45	1718.25
453.65	1775.59
453.86	1714.15
454.06	1738.73
454.26	1761.25
454.47	1681.38
454.67	1861.60
454.87	1744.87
455.08	1708.01
455.28	1859.56
455.49	1753.06
455.69	1722.34
455.89	1822.69
456.10	1769.44
456.30	1648.61
456.51	1757.16
456.71	1765.35
456.91	1748.97
457.12	1716.20
457.32	1783.78
457.52	1640.42
457.73	1779.68
457.93	1738.73
458.14	1714.15
458.34	1652.71
458.54	1662.95
458.75	1648.61
458.95	1785.83
459.15	1751.01
459.36	1796.07
459.56	1710.05
459.76	1822.69
459.97	1777.64
460.17	1732.58
460.37	1742.82
460.58	1718.25
460.78	1787.88
460.99	1697.77
461.19	1734.63
461.39	1667.05
461.60	1736.68
461.80	1791.97
462.00	1632.23
462.21	1697.77
462.41	1634.28
462.61	1611.75
462.82	1660.90
463.02	1767.40
463.22	1773.54
463.43	1773.54
463.63	1798.12
463.83	1851.36
464.04	1701.86
464.24	1644.52
464.44	1638.38
464.64	1806.31
464.85	1705.96
465.05	1648.61
465.25	1726.44
465.46	1703.91
465.66	1714.15
465.86	1734.63
466.07	1681.38
466.27	1718.25
466.47	1720.29
466.68	1636.33
466.88	1763.30
467.08	1767.40
467.29	1796.07
467.49	1740.77
467.69	1714.15
467.89	1701.86
468.10	1703.91
468.30	1744.87
468.50	1734.63
468.71	1761.25
468.91	1599.46
469.11	1843.17
469.31	1765.35
469.52	1665.00
469.72	1753.06
469.92	1880.04
470.13	1748.97
470.33	1761.25
470.53	1877.99
470.73	2076.64
470.94	2293.72
471.14	2332.64
471.34	2504.67
471.54	2400.22
471.75	2310.11
471.95	2203.61
472.15	2056.16
472.36	2107.36
472.56	2084.83
472.76	2070.50
472.96	1931.23
473.17	1953.76
473.37	1818.60
473.57	1755.11
473.77	1822.69
473.98	1710.05
474.18	1650.66
474.38	1865.70
474.58	1669.09
474.79	1626.09
474.99	1708.01
475.19	1800.16
475.39	1738.73
475.60	1718.25
475.80	1693.67
476.00	1753.06
476.20	1673.19
476.41	1708.01
476.61	1775.59
476.81	1771.49
477.01	1712.10
477.21	1736.68
477.42	1789.92
477.62	1626.09
477.82	1800.16
478.02	1697.77
478.23	1763.30
478.43	1613.80
478.63	1675.24
478.83	1667.05
479.03	1703.91
479.24	1726.44
479.44	1861.60
479.64	1693.67
479.84	1673.19
480.04	1716.20
480.25	1779.68
480.45	1716.20
480.65	1710.05
480.85	1818.60
481.06	1675.24
481.26	1773.54
481.46	1738.73
481.66	1798.12
481.86	1669.09
482.06	1806.31
482.27	1746.92
482.47	1660.90
482.67	1675.24
482.87	1681.38
483.07	1781.73
483.28	1728.49
483.48	1656.81
483.68	1712.10
483.88	1665.00
484.08	1626.09
484.29	1568.74
484.49	1732.58
484.69	1667.05
484.89	1789.92
485.09	1695.72
485.29	1783.78
485.50	1675.24
485.70	1671.14
485.90	1787.88
486.10	1660.90
486.30	1830.88
486.50	1763.30
486.71	1689.57
486.91	1730.53
487.11	1779.68
487.31	1615.85
487.51	1728.49
487.71	1697.77
487.91	1634.28
488.12	1724.39
488.32	1619.94
488.52	1794.02
488.72	1613.80
488.92	1701.86
489.12	1683.43
489.32	1820.64
489.53	1757.16
489.73	1697.77
489.93	1767.40
490.13	1685.48
490.33	1738.73
490.53	1689.57
490.73	1767.40
490.94	1689.57
491.14	1763.30
491.34	1851.36
491.54	2103.26
491.74	2586.58
491.94	2865.11
492.14	2961.36
492.34	3053.52
492.54	2729.94
492.75	2547.67
492.95	2443.23
493.15	2297.82
493.35	2248.67
493.55	2273.25
493.75	2084.83
493.95	2189.28
494.15	2031.58
494.35	1914.85
494.56	1853.41
494.76	1753.06
494.96	1787.88
495.16	1736.68
495.36	1669.09
495.56	1789.92
495.76	1708.01
495.96	1716.20
496.16	1632.23
496.36	1824.74
496.56	1771.49
496.77	1814.50
496.97	1728.49
497.17	1765.35
497.37	1599.46
497.57	1763.30
497.77	1724.39
497.97	1671.14
498.17	1738.73
498.37	1636.33
498.57	1728.49
498.77	1710.05
498.97	1708.01
499.17	1855.46
499.38	1767.40
499.58	1779.68
499.78	1802.21
499.98	1773.54
500.18	1787.88
500.38	1708.01
500.58	1861.60
500.78	2582.49
500.98	4612.03
501.18	5861.29
501.38	6672.28
501.58	7065.49
501.78	6694.81
501.98	5605.29
502.18	4923.32
502.38	4380.61
502.58	4179.90
502.78	3835.85
502.98	3512.27
503.18	3536.84
503.38	3182.54
503.59	2930.64
503.79	2705.37
503.99	2500.57
504.19	2367.45
504.39	2129.89
504.59	2168.80
504.79	2115.55
504.99	2031.58
505.19	1920.99
505.39	1896.42
505.59	1943.52
505.79	1806.31
505.99	1894.37
506.19	1763.30
506.39	1855.46
506.59	1800.16
506.79	1771.49
506.99	1830.88
507.19	1699.81
507.39	1751.01
507.59	1675.24
507.79	1691.62
507.99	1722.34
508.19	1708.01
508.39	1732.58
508.59	1652.71
508.79	1773.54
508.99	1869.80
509.19	1683.43
509.39	1796.07
509.59	1652.71
509.79	1705.96
509.99	1724.39
510.19	1796.07
510.39	1783.78
510.59	1769.44
510.79	1734.63
510.99	1619.94
511.19	1769.44
511.39	1824.74
511.59	1841.12
511.79	1761.25
511.99	1742.82
512.19	1810.40
512.38	1765.35
512.58	1677.29
512.78	1761.25
512.98	1802.21
513.18	1875.94
513.38	1621.99
513.58	1757.16
513.78	1667.05
513.98	1748.97
514.18	1701.86
514.38	1679.33
514.58	1761.25
514.78	1662.95
514.98	1718.25
515.18	1722.34
515.38	1669.09
515.58	1832.93
515.78	1619.94
515.98	1705.96
516.18	1759.21
516.38	1683.43
516.57	1693.67
516.77	1693.67
516.97	1722.34
517.17	1699.81
517.37	1665.00
517.57	1746.92
517.77	1740.77
517.97	1667.05
518.17	1769.44
518.37	1609.70
518.57	1656.81
518.77	1767.40
518.97	1761.25
519.16	1798.12
519.36	1720.29
519.56	1759.21
519.76	1742.82
519.96	1689.57
520.16	1902.56
520.36	1634.28
520.56	1759.21
520.76	1654.76
520.96	1740.77
521.16	1740.77
521.35	1816.55
521.55	1888.23
521.75	1748.97
521.95	1689.57
522.15	1685.48
522.35	1710.05
522.55	1742.82
522.75	1847.27
522.95	1794.02
523.14	1695.72
523.34	1734.63
523.54	1660.90
523.74	1726.44
523.94	1759.21
524.14	1619.94
524.34	1726.44
524.54	1765.35
524.73	1699.81
524.93	1755.11
525.13	1738.73
525.33	1669.09
525.53	1877.99
525.73	1728.49
525.93	1763.30
526.13	1722.34
526.32	1632.23
526.52	1753.06
526.72	1785.83
526.92	1740.77
527.12	1722.34
527.32	1546.22
527.52	1763.30
527.71	1742.82
527.91	1783.78
528.11	1738.73
528.31	1687.53
528.51	1736.68
528.71	1746.92
528.90	1740.77
529.10	1730.53
529.30	1734.63
529.50	1632.23
529.70	1708.01
529.90	1710.05
530.09	1724.39
530.29	1628.14
530.49	1689.57
530.69	1877.99
530.89	1699.81
531.09	1744.87
531.28	1734.63
531.48	1742.82
531.68	1732.58
531.88	1783.78
532.08	1820.64
532.28	1724.39
532.47	1787.88
532.67	1837.03
532.87	1751.01
533.07	1699.81
533.27	1740.77
533.46	1771.49
533.66	1785.83
533.86	1667.05
534.06	1681.38
534.26	1746.92
534.45	1675.24
534.65	1826.79
534.85	1777.64
535.05	1714.15
535.25	1701.86
535.44	1626.09
535.64	1783.78
535.84	1687.53
536.04	1730.53
536.24	1691.62
536.43	1632.23
536.63	1794.02
536.83	1753.06
537.03	1779.68
537.22	1593.32
537.42	1656.81
537.62	1773.54
537.82	1673.19
538.02	1769.44
538.21	1820.64
538.41	1933.28
538.61	1783.78
538.81	1714.15
539.00	1759.21
539.20	1658.85
539.40	1746.92
539.60	1728.49
539.79	1716.20
539.99	1730.53
540.19	1609.70
540.39	1703.91
540.58	1726.44
540.78	1824.74
540.98	1779.68
541.18	1812.45
541.37	1802.21
541.57	1726.44
541.77	1744.87
541.97	1675.24
542.16	1708.01
542.36	1689.57
542.56	1847.27
542.76	1828.84
542.95	1744.87
543.15	1757.16
543.35	1755.11
543.54	1624.04
543.74	1691.62
543.94	1871.84
544.14	1712.10
544.33	1744.87
544.53	1736.68
544.73	1830.88
544.93	1753.06
545.12	1685.48
545.32	1718.25
545.52	1681.38
545.71	1660.90
545.91	1738.73
546.11	1683.43
546.30	1724.39
546.50	1804.26
546.70	1791.97
546.90	1775.59
547.09	1652.71
547.29	1830.88
547.49	1791.97
547.68	1771.49
547.88	1660.90
548.08	1812.45
548.27	2170.85
548.47	1685.48
548.67	1726.44
548.87	1794.02
549.06	1695.72
549.26	1769.44
549.46	1757.16
549.65	1679.33
549.85	1740.77
550.05	1763.30
550.24	1632.23
550.44	1779.68
550.64	1726.44
550.83	1767.40
551.03	1820.64
551.23	1783.78
551.42	1746.92
551.62	1632.23
551.82	1720.29
552.01	1738.73
552.21	1781.73
552.41	1732.58
552.60	1841.12
552.80	1753.06
553.00	1691.62
553.19	1701.86
553.39	1712.10
553.59	1716.20
553.78	1681.38
553.98	1818.60
554.17	1697.77
554.37	1677.29
554.57	1763.30
554.76	1748.97
554.96	1679.33
555.16	1708.01
555.35	1798.12
555.55	1730.53
555.75	1800.16
555.94	1697.77
556.14	1689.57
556.33	1798.12
556.53	1681.38
556.73	1703.91
556.92	1765.35
557.12	1822.69
557.32	1796.07
557.51	1789.92
557.71	1751.01
557.90	1863.65
558.10	1779.68
558.30	1636.33
558.49	1732.58
558.69	1732.58
558.88	1722.34
559.08	1748.97
559.28	1714.15
559.47	1722.34
559.67	1785.83
559.86	1834.98
560.06	1757.16
560.26	1761.25
560.45	1734.63
560.65	1683.43
560.84	1814.50
561.04	1660.90
561.24	1748.97
561.43	1675.24
561.63	1771.49
561.82	1734.63
562.02	1773.54
562.22	1755.11
562.41	1730.53
562.61	1728.49
562.80	1718.25
563.00	1918.95
563.19	1736.68
563.39	1714.15
563.59	1722.34
563.78	1718.25
563.98	1658.85
564.17	1685.48
564.37	1636.33
564.56	1736.68
564.76	1671.14
564.96	1808.36
565.15	1767.40
565.35	1857.51
565.54	1714.15
565.74	1800.16
565.93	1775.59
566.13	1720.29
566.32	1779.68
566.52	1710.05
566.71	1847.27
566.91	1816.55
567.11	1646.57
567.30	1689.57
567.50	1818.60
567.69	1685.48
567.89	1675.24
568.08	1710.05
568.28	1736.68
568.47	1703.91
568.67	1759.21
568.86	1652.71
569.06	1779.68
569.25	1689.57
569.45	1689.57
569.64	1673.19
569.84	1742.82
570.04	1730.53
570.23	1726.44
570.43	1742.82
570.62	1689.57
570.82	1865.70
571.01	1654.76
571.21	1671.14
571.40	1759.21
571.60	1767.40
571.79	1712.10
571.99	1738.73
572.18	1683.43
572.38	1687.53
572.57	1759.21
572.77	1812.45
572.96	1894.37
573.16	1730.53
573.35	1769.44
573.55	1789.92
573.74	1775.59
573.94	1757.16
574.13	1744.87
574.33	1787.88
574.52	1791.97
574.71	1748.97
574.91	1730.53
575.10	1673.19
575.30	1740.77
575.49	1689.57
575.69	1646.57
575.88	1773.54
576.08	1673.19
576.27	1787.88
576.47	1724.39
576.66	1810.40
576.86	1804.26
577.05	1845.22
577.25	1771.49
577.44	1898.47
577.64	1734.63
577.83	1855.46
578.02	1691.62
578.22	1826.79
578.41	1894.37
578.61	1738.73
578.80	1673.19
579.00	1816.55
579.19	1738.73
579.39	1828.84
579.58	1798.12
579.77	1720.29
579.97	1802.21
580.16	1871.84
580.36	1785.83
580.55	1826.79
580.75	1787.88
580.94	1763.30
581.13	1828.84
581.33	1839.08
581.52	1740.77
581.72	1910.75
581.91	1808.36
582.11	1665.00
582.30	1783.78
582.49	1759.21
582.69	1775.59
582.88	1830.88
583.08	1775.59
583.27	1820.64
583.47	1818.60
583.66	1658.85
583.85	1701.86
584.05	1736.68
584.24	1845.22
584.44	1771.49
584.63	1775.59
584.82	1820.64
585.02	1837.03
585.21	1730.53
585.41	1880.04
585.60	1843.17
585.79	1980.39
585.99	1935.33
586.18	1851.36
586.37	2179.04
586.57	3315.66
586.76	9715.56
586.96	24403.60
587.15	34438.64
587.34	40408.47
587.54	42048.89
587.73	36832.72
587.93	26383.98
588.12	21649.08
588.31	18167.53
588.51	16348.93
588.70	15410.96
588.89	14030.63
589.09	12562.24
589.28	10915.67
589.47	9410.42
589.67	8075.14
589.86	6418.33
590.06	5007.28
590.25	3839.94
590.44	3153.87
590.64	2602.97
590.83	2271.20
591.02	2070.50
591.22	1976.29
591.41	1986.53
591.60	1796.07
591.80	1947.62
591.99	1685.48
592.18	1740.77
592.38	1880.04
592.57	1789.92
592.76	1775.59
592.96	1736.68
593.15	1767.40
593.34	1814.50
593.54	1767.40
593.73	1767.40
593.92	1728.49
594.12	1748.97
594.31	1773.54
594.50	1830.88
594.70	1779.68
594.89	1816.55
595.08	1658.85
595.28	1796.07
595.47	1955.81
595.66	1775.59
595.86	1675.24
596.05	1697.77
596.24	1783.78
596.43	1816.55
596.63	1802.21
596.82	1722.34
597.01	1777.64
597.21	1787.88
597.40	1757.16
597.59	1724.39
597.79	1708.01
597.98	1728.49
598.17	1722.34
598.36	1755.11
598.56	1755.11
598.75	1775.59
598.94	1730.53
599.14	1738.73
599.33	1681.38
599.52	1728.49
599.71	1785.83
599.91	1849.32
600.10	1841.12
600.29	1738.73
600.48	1714.15
600.68	1791.97
600.87	1753.06
601.06	1609.70
601.26	1718.25
601.45	1820.64
601.64	1703.91
601.83	1789.92
602.03	1771.49
602.22	1634.28
602.41	1783.78
602.60	1939.43
602.80	1779.68
602.99	1857.51
603.18	1705.96
603.37	1697.77
603.57	1691.62
603.76	1808.36
603.95	1724.39
604.14	1693.67
604.34	1673.19
604.53	1701.86
604.72	1765.35
604.91	1802.21
605.10	1765.35
605.30	1652.71
605.49	1902.56
605.68	1753.06
605.87	1822.69
606.07	1679.33
606.26	1724.39
606.45	1685.48
606.64	1791.97
606.84	1732.58
607.03	1619.94
607.22	1724.39
607.41	1595.37
607.60	1716.20
607.80	1771.49
607.99	1701.86
608.18	1751.01
608.37	1728.49
608.56	1644.52
608.76	1771.49
608.95	1824.74
609.14	1699.81
609.33	1722.34
609.52	1775.59
609.72	1777.64
609.91	1718.25
610.10	1671.14
610.29	1812.45
610.48	1775.59
610.68	1724.39
610.87	1665.00
611.06	1802.21
611.25	1669.09
611.44	1810.40
611.63	1722.34
611.83	1894.37
612.02	1652.71
612.21	1814.50
612.40	1636.33
612.59	1697.77
612.79	1650.66
612.98	1783.78
613.17	1779.68
613.36	1679.33
613.55	1814.50
613.74	1705.96
613.93	1665.00
614.13	1736.68
614.32	1712.10
614.51	1703.91
614.70	1628.14
614.89	1703.91
615.08	1753.06
615.28	2107.36
615.47	1648.61
615.66	1757.16
615.85	1654.76
616.04	1794.02
616.23	1716.20
616.42	1779.68
616.62	1701.86
616.81	1767.40
617.00	1673.19
617.19	1783.78
617.38	1671.14
617.57	1699.81
617.76	1789.92
617.95	1703.91
618.15	1787.88
618.34	1748.97
618.53	1673.19
618.72	1769.44
618.91	1843.17
619.10	1837.03
619.29	1730.53
619.48	1697.77
619.68	1679.33
619.87	1677.29
620.06	1681.38
620.25	1679.33
620.44	1689.57
620.63	1656.81
620.82	1665.00
621.01	1769.44
621.20	1722.34
621.39	1724.39
621.59	1738.73
621.78	1798.12
621.97	1761.25
622.16	1738.73
622.35	1742.82
622.54	1738.73
622.73	1757.16
622.92	1652.71
623.11	1787.88
623.30	1695.72
623.49	1802.21
623.68	1718.25
623.88	1808.36
624.07	1740.77
624.26	1761.25
624.45	1783.78
624.64	1630.18
624.83	1708.01
625.02	1675.24
625.21	1771.49
625.40	1718.25
625.59	1800.16
625.78	1705.96
625.97	1867.75
626.16	1734.63
626.35	1730.53
626.54	1689.57
626.74	1789.92
626.93	1714.15
627.12	1712.10
627.31	1697.77
627.50	1705.96
627.69	1751.01
627.88	1765.35
628.07	1697.77
628.26	1648.61
628.45	1646.57
628.64	1695.72
628.83	1685.48
629.02	1724.39
629.21	1771.49
629.40	1751.01
629.59	1591.27
629.78	1726.44
629.97	1689.57
630.16	1722.34
630.35	1667.05
630.54	1634.28
630.73	1636.33
630.92	1652.71
631.11	1693.67
631.30	1763.30
631.49	1785.83
631.68	1761.25
631.87	1767.40
632.06	1673.19
632.25	1857.51
632.44	1742.82
632.63	1765.35
632.82	1718.25
633.01	1732.58
633.20	1671.14
633.39	1736.68
633.58	1730.53
633.77	1757.16
633.96	1705.96
634.15	1763.30
634.34	1841.12
634.53	1722.34
634.72	1646.57
634.91	1621.99
635.10	1730.53
635.29	1701.86
635.48	1705.96
635.67	1742.82
635.86	1681.38
636.05	1812.45
636.24	1665.00
636.43	1724.39
636.62	1761.25
636.81	1576.94
637.00	1689.57
637.19	1742.82
637.38	1763.30
637.57	1640.42
637.76	1767.40
637.95	1759.21
638.14	1607.66
638.33	1732.58
638.52	1740.77
638.71	1701.86
638.89	1671.14
639.08	1818.60
639.27	1771.49
639.46	1630.18
639.65	1791.97
639.84	1812.45
640.03	1722.34
640.22	1691.62
640.41	1851.36
640.60	1726.44
640.79	1714.15
640.98	1685.48
641.17	1724.39
641.36	1773.54
641.55	1765.35
641.74	1599.46
641.92	1736.68
642.11	1677.29
642.30	1714.15
642.49	1656.81
642.68	1667.05
642.87	1679.33
643.06	1761.25
643.25	1697.77
643.44	1683.43
643.63	1718.25
643.82	1791.97
644.00	1691.62
644.19	1843.17
644.38	1673.19
644.57	1761.25
644.76	1681.38
644.95	1691.62
645.14	1742.82
645.33	1662.95
645.52	1699.81
645.71	1683.43
645.89	1601.51
646.08	1677.29
646.27	1640.42
646.46	1751.01
646.65	1632.23
646.84	1683.43
647.03	1665.00
647.22	1787.88
647.40	1718.25
647.59	1701.86
647.78	1695.72
647.97	1638.38
648.16	1574.89
648.35	1753.06
648.54	1820.64
648.73	1665.00
648.91	1755.11
649.10	1724.39
649.29	1748.97
649.48	1673.19
649.67	1740.77
649.86	1726.44
650.05	1685.48
650.23	1816.55
650.42	1685.48
650.61	1777.64
650.80	1708.01
650.99	1855.46
651.18	1789.92
651.36	1765.35
651.55	1730.53
651.74	1767.40
651.93	1748.97
652.12	1652.71
652.31	1724.39
652.49	1685.48
652.68	1691.62
652.87	1828.84
653.06	1693.67
653.25	1779.68
653.44	1742.82
653.62	1744.87
653.81	1742.82
654.00	1763.30
654.19	1794.02
654.38	1847.27
654.56	1699.81
654.75	1656.81
654.94	1773.54
655.13	1708.01
655.32	1716.20
655.51	1705.96
655.69	1630.18
655.88	1773.54
656.07	1685.48
656.26	1755.11
656.45	1648.61
656.63	1691.62
656.82	1738.73
657.01	1791.97
657.20	1669.09
657.38	1773.54
657.57	1701.86
657.76	1562.60
657.95	1759.21
658.14	1759.21
658.32	1644.52
658.51	1572.84
658.70	1734.63
658.89	1683.43
659.08	1677.29
659.26	1761.25
659.45	1636.33
659.64	1718.25
659.83	1679.33
660.01	1918.95
660.20	1730.53
660.39	1701.86
660.58	1658.85
660.76	1808.36
660.95	1605.61
661.14	1759.21
661.33	1656.81
661.51	1740.77
661.70	1644.52
661.89	1753.06
662.08	1710.05
662.26	1658.85
662.45	1640.42
662.64	1824.74
662.83	1769.44
663.01	1644.52
663.20	1675.24
663.39	1773.54
663.58	1630.18
663.76	1755.11
663.95	1738.73
664.14	1714.15
664.32	1751.01
664.51	1718.25
664.70	1724.39
664.89	1744.87
665.07	1683.43
665.26	1701.86
665.45	1730.53
665.64	1746.92
665.82	1744.87
666.01	1691.62
666.20	1650.66
666.38	1748.97
666.57	1796.07
666.76	2162.66
666.95	4390.84
667.13	10268.52
667.32	15224.60
667.51	18106.09
667.69	19007.20
667.88	17848.05
668.07	12154.69
668.25	9510.77
668.44	8126.34
668.63	7151.51
668.81	6911.89
669.00	6277.02
669.19	5760.94
669.38	5246.90
669.56	4630.46
669.75	4016.07
669.94	3364.81
670.12	2977.75
670.31	2566.10
670.50	2238.43
670.68	2027.49
670.87	1914.85
671.06	1767.40
671.24	1839.08
671.43	1880.04
671.62	1763.30
671.80	1691.62
671.99	1748.97
672.18	1679.33
672.36	1816.55
672.55	1777.64
672.74	1667.05
672.92	1626.09
673.11	1744.87
673.29	1662.95
673.48	1728.49
673.67	1738.73
673.85	1761.25
674.04	1654.76
674.23	1681.38
674.41	1808.36
674.60	1648.61
674.79	1613.80
674.97	1699.81
675.16	1685.48
675.34	1742.82
675.53	1669.09
675.72	1738.73
675.90	1771.49
676.09	1765.35
676.28	1742.82
676.46	1628.14
676.65	1796.07
676.83	1613.80
677.02	1728.49
677.21	1716.20
677.39	1755.11
677.58	1619.94
677.77	1726.44
677.95	1736.68
678.14	1712.10
678.32	1714.15
678.51	1689.57
678.70	1845.22
678.88	1724.39
679.07	1705.96
679.25	1667.05
679.44	1767.40
679.63	1621.99
679.81	1746.92
680.00	1771.49
680.18	1728.49
680.37	1791.97
680.55	1705.96
680.74	1667.05
680.93	1638.38
681.11	1810.40
681.30	1701.86
681.48	1685.48
681.67	1728.49
681.85	1673.19
682.04	1708.01
682.23	1734.63
682.41	1804.26
682.60	1714.15
682.78	1701.86
682.97	1636.33
683.15	1703.91
683.34	1714.15
683.53	1767.40
683.71	1585.13
683.90	1837.03
684.08	1906.66
684.27	1656.81
684.45	1677.29
684.64	1818.60
684.82	1683.43
685.01	1708.01
685.19	1658.85
685.38	1830.88
685.57	1660.90
685.75	1751.01
685.94	1689.57
686.12	1703.91
686.31	1669.09
686.49	1796.07
686.68	1650.66
686.86	1796.07
687.05	1738.73
687.23	1861.60
687.42	1693.67
687.60	1697.77
687.79	1794.02
687.97	1708.01
688.16	1732.58
688.34	1802.21
688.53	1576.94
688.71	1724.39
688.90	1667.05
689.08	1757.16
689.27	1621.99
689.45	1732.58
689.64	1726.44
689.82	1832.93
690.01	1738.73
690.19	1722.34
690.38	1675.24
690.56	1857.51
690.75	1665.00
690.93	1712.10
691.12	1652.71
691.30	1689.57
691.49	1619.94
691.67	1705.96
691.86	1802.21
692.04	1763.30
692.23	1611.75
692.41	1701.86
692.60	1759.21
692.78	1675.24
692.97	1683.43
693.15	1761.25
693.34	1871.84
693.52	1908.71
693.71	1742.82
693.89	1726.44
694.08	1617.90
694.26	1775.59
694.44	1705.96
694.63	1738.73
694.81	1642.47
695.00	1642.47
695.18	1718.25
695.37	1851.36
695.55	1730.53
695.74	1736.68
695.92	1650.66
696.10	1810.40
696.29	1640.42
696.47	1685.48
696.66	1683.43
696.84	1685.48
697.03	1726.44
697.21	1757.16
697.40	2275.29
697.58	1763.30
697.76	1636.33
697.95	1716.20
698.13	1669.09
698.32	1646.57
698.50	1746.92
698.68	1773.54
698.87	1716.20
699.05	1830.88
699.24	1755.11
699.42	1691.62
699.61	1701.86
699.79	1701.86
699.97	1712.10
700.16	1669.09
700.34	1767.40
700.53	1771.49
700.71	1794.02
700.89	1800.16
701.08	1658.85
701.26	1738.73
701.45	2113.50
701.63	1757.16
701.81	1728.49
702.00	1703.91
702.18	1755.11
702.37	1644.52
702.55	1722.34
702.73	1642.47
702.92	1601.51
703.10	1726.44
703.28	1775.59
703.47	1673.19
703.65	1814.50
703.84	1708.01
704.02	1726.44
704.20	1714.15
704.39	1671.14
704.57	1693.67
704.75	1783.78
704.94	1785.83
705.12	1714.15
705.30	1789.92
705.49	2351.07
705.67	4323.26
705.86	9310.07
706.04	12812.09
706.22	14540.58
706.41	15339.29
706.59	13764.40
706.77	9707.37
706.96	7456.65
707.14	6492.06
707.32	5963.68
707.51	5523.37
707.69	4925.36
707.87	4298.69
708.06	3565.51
708.24	2987.99
708.42	2418.65
708.61	2209.76
708.79	1916.90
708.97	1843.17
709.16	1783.78
709.34	1773.54
709.52	1732.58
709.71	1759.21
709.89	1765.35
710.07	1585.13
710.26	1669.09
710.44	1705.96
710.62	1773.54
710.80	1669.09
710.99	1783.78
711.17	1640.42
711.35	1617.90
711.54	1730.53
711.72	1794.02
711.90	1746.92
712.09	1701.86
712.27	1613.80
712.45	1722.34
712.63	1626.09
712.82	1757.16
713.00	1652.71
713.18	1679.33
713.37	1789.92
713.55	1703.91
713.73	1738.73
713.91	1740.77
714.10	1734.63
714.28	1744.87
714.46	1736.68
714.65	1654.76
714.83	1650.66
715.01	1781.73
715.19	1681.38
715.38	1658.85
715.56	1845.22
715.74	1640.42
715.92	1646.57
716.11	1800.16
716.29	1675.24
716.47	1679.33
716.65	1660.90
716.84	1613.80
717.02	1802.21
717.20	1650.66
717.38	1648.61
717.57	1816.55
717.75	1701.86
717.93	1669.09
718.11	1728.49
718.30	1683.43
718.48	1734.63
718.66	1783.78
718.84	1730.53
719.03	1695.72
719.21	1697.77
719.39	1775.59
719.57	1746.92
719.75	1779.68
719.94	1624.04
720.12	1738.73
720.30	1677.29
720.48	1742.82
720.67	1736.68
720.85	1681.38
721.03	1695.72
721.21	1646.57
721.39	1761.25
721.58	1718.25
721.76	1624.04
721.94	1724.39
722.12	1714.15
722.30	1748.97
722.49	1701.86
722.67	1748.97
722.85	1769.44
723.03	1603.56
723.21	1642.47
723.40	1708.01
723.58	1767.40
723.76	1742.82
723.94	1791.97
724.12	1677.29
724.30	1765.35
724.49	1748.97
724.67	1662.95
724.85	1730.53
725.03	1624.04
725.21	1763.30
725.40	1677.29
725.58	1640.42
725.76	1732.58
725.94	1785.83
726.12	1671.14
726.30	1744.87
726.49	1718.25
726.67	1736.68
726.85	1681.38
727.03	1771.49
727.21	2078.69
727.39	2947.03
727.57	3846.09
727.76	4177.86
727.94	4470.72
728.12	4419.52
728.30	3770.31
728.48	3037.14
728.66	2777.05
728.84	2478.04
729.03	2256.86
729.21	2162.66
729.39	2060.26
729.57	1820.64
729.75	1785.83
729.93	1845.22
730.11	1724.39
730.30	1787.88
730.48	1658.85
730.66	1785.83
730.84	1839.08
731.02	1685.48
731.20	1730.53
731.38	1701.86
731.56	1619.94
731.74	1589.22
731.93	1644.52
732.11	1693.67
732.29	1705.96
732.47	1728.49
732.65	1728.49
732.83	1712.10
733.01	1714.15
733.19	1617.90
733.37	1773.54
733.56	1753.06
733.74	1656.81
733.92	1800.16
734.10	1640.42
734.28	1656.81
734.46	1595.37
734.64	1669.09
734.82	1699.81
735.00	1605.61
735.18	1685.48
735.36	1665.00
735.54	1740.77
735.73	1648.61
735.91	1679.33
736.09	1701.86
736.27	1673.19
736.45	1777.64
736.63	1601.51
736.81	1708.01
736.99	1822.69
737.17	1808.36
737.35	1689.57
737.53	1697.77
737.71	1601.51
737.89	1804.26
738.07	1656.81
738.25	1634.28
738.43	1607.66
738.61	1652.71
738.80	1660.90
738.98	1621.99
739.16	1656.81
739.34	1710.05
739.52	1841.12
739.70	1722.34
739.88	1693.67
740.06	1771.49
740.24	1570.79
740.42	1732.58
740.60	1648.61
740.78	1732.58
740.96	1632.23
741.14	1732.58
741.32	1726.44
741.50	1699.81
741.68	1804.26
741.86	1755.11
742.04	1646.57
742.22	1552.36
742.40	1681.38
742.58	1736.68
742.76	1646.57
742.94	1730.53
743.12	1611.75
743.30	1679.33
743.48	1724.39
743.66	1595.37
743.84	1718.25
744.02	1763.30
744.20	1730.53
744.38	1691.62
744.56	1699.81
744.74	1828.84
744.92	1730.53
745.10	1796.07
745.28	1769.44
745.46	1798.12
745.64	1630.18
745.82	1771.49
746.00	1673.19
746.18	1679.33
746.36	1714.15
746.54	1783.78
746.72	1724.39
746.90	1683.43
747.08	1757.16
747.26	1687.53
747.44	1824.74
747.62	1724.39
747.80	1734.63
747.98	1755.11
748.15	1753.06
748.33	1740.77
748.51	1708.01
748.69	1755.11
748.87	1685.48
749.05	1624.04
749.23	1699.81
749.41	1734.63
749.59	1669.09
749.77	1791.97
749.95	1673.19
750.13	1681.38
750.31	1744.87
750.49	1652.71
750.67	1816.55
750.85	1787.88
751.03	1703.91
751.20	1736.68
751.38	1669.09
751.56	1624.04
751.74	1640.42
751.92	1683.43
752.10	1652.71
752.28	1824.74
752.46	1652.71
752.64	1728.49
752.82	1695.72
753.00	1783.78
753.18	1607.66
753.35	1763.30
753.53	1634.28
753.71	1734.63
753.89	1710.05
754.07	1718.25
754.25	1716.20
754.43	1771.49
754.61	1603.56
754.79	1699.81
754.97	1662.95
755.14	1843.17
755.32	1574.89
755.50	1720.29
755.68	1718.25
755.86	1705.96
756.04	1755.11
756.22	1583.08
756.40	1720.29
756.57	1888.23
756.75	1654.76
756.93	1755.11
757.11	1779.68
757.29	1628.14
757.47	1691.62
757.65	1658.85
757.82	1617.90
758.00	1640.42
758.18	1660.90
758.36	1648.61
758.54	1826.79
758.72	1636.33
758.90	1810.40
759.07	1699.81
759.25	1685.48
759.43	1763.30
759.61	1679.33
759.79	2095.07
759.97	1644.52
760.15	1626.09
760.32	1636.33
760.50	1757.16
760.68	1804.26
760.86	1677.29
761.04	1779.68
761.22	1775.59
761.39	1708.01
761.57	1755.11
761.75	1675.24
761.93	1677.29
762.11	1660.90
762.28	1742.82
762.46	1652.71
762.64	1714.15
762.82	1619.94
763.00	1628.14
763.18	1781.73
763.35	1691.62
763.53	1689.57
763.71	1701.86
763.89	1781.73
764.07	1714.15
764.24	1722.34
764.42	1753.06
764.60	1734.63
764.78	1769.44
764.96	1751.01
765.13	1769.44
765.31	1701.86
765.49	1773.54
765.67	1601.51
765.84	1619.94
766.02	1615.85
766.20	1583.08
766.38	1746.92
766.56	1683.43
766.73	1755.11
766.91	1683.43
767.09	1613.80
767.27	1740.77
767.44	1681.38
767.62	1632.23
767.80	1665.00
767.98	1701.86
768.15	1646.57
768.33	1697.77
768.51	1789.92
768.69	1834.98
768.87	1734.63
769.04	1632.23
769.22	1818.60
769.40	1738.73
769.58	1888.23
769.75	1796.07
769.93	1798.12
770.11	1730.53
770.28	1544.17
770.46	1738.73
770.64	1722.34
770.82	1689.57
770.99	1724.39
771.17	1816.55
771.35	1632.23
771.53	1669.09
771.70	1652.71
771.88	1718.25
772.06	1693.67
772.23	1619.94
772.41	1734.63
772.59	1691.62
772.77	1630.18
772.94	1695.72
773.12	1767.40
773.30	1705.96
773.47	1730.53
773.65	1611.75
773.83	1814.50
774.01	1703.91
774.18	1599.46
774.36	1701.86
774.54	1578.98
774.71	1787.88
774.89	1615.85
775.07	1636.33
775.24	1695.72
775.42	1636.33
775.60	1806.31
775.78	1705.96
775.95	1605.61
776.13	1660.90
776.31	1439.72
776.48	1677.29
776.66	1832.93
776.84	1736.68
777.01	1665.00
777.19	1632.23
777.37	1673.19
777.54	1724.39
777.72	1855.46
777.90	1703.91
778.07	1640.42
778.25	1906.66
778.43	1767.40
778.60	1683.43
778.78	1746.92
778.96	1751.01
779.13	1640.42
779.31	1769.44
779.49	1705.96
779.66	1695.72
779.84	1708.01
780.01	1703.91
780.19	1681.38
780.37	1734.63
780.54	1728.49
780.72	1607.66
780.90	1693.67
781.07	1644.52
781.25	1642.47
781.43	1775.59
781.60	1658.85
781.78	1785.83
781.95	1665.00
782.13	1697.77
782.31	1726.44
782.48	1583.08
782.66	1714.15
782.83	1816.55
783.01	1662.95
783.19	1798.12
783.36	1665.00
783.54	1669.09
783.72	1775.59
783.89	1710.05
784.07	1732.58
784.24	1742.82
784.42	1757.16
784.60	1779.68
784.77	1722.34
784.95	1589.22
785.12	1656.81
785.30	1673.19
785.47	1705.96
785.65	1589.22
785.83	1716.20
786.00	1667.05
786.18	1732.58
786.35	1634.28
786.53	1738.73
786.71	1806.31
786.88	1759.21
787.06	1804.26
787.23	1689.57
787.41	1630.18
787.58	1699.81
787.76	1656.81
787.94	1724.39
788.11	1646.57
788.29	1601.51
788.46	1720.29
788.64	1626.09
788.81	1665.00
788.99	1607.66
789.16	1658.85
789.34	1705.96
789.52	1630.18
789.69	1742.82
789.87	1576.94
790.04	1703.91
790.22	1638.38
790.39	1796.07
790.57	1658.85
790.74	1746.92
790.92	1755.11
791.09	1560.55
791.27	1724.39
791.44	1742.82
791.62	1730.53
791.79	1734.63
791.97	1683.43
792.15	1820.64
792.32	1714.15
792.50	1763.30
792.67	1781.73
792.85	1708.01
793.02	1705.96
793.20	1650.66
793.37	1689.57
793.55	1673.19
793.72	1652.71
793.90	1757.16
794.07	1685.48
794.25	1705.96
794.42	1660.90
794.60	1660.90
794.77	1726.44
794.95	1753.06
795.12	1777.64
795.30	1683.43
795.47	1533.93
795.65	1904.61
795.82	1687.53
796.00	1673.19
796.17	1665.00
796.34	1716.20
796.52	1679.33
796.69	1761.25
796.87	1636.33
797.04	1701.86
797.22	1724.39
797.39	1742.82
797.57	1751.01
797.74	1761.25
797.92	1814.50
798.09	1734.63
798.27	1701.86
798.44	1751.01
798.62	1595.37
798.79	1724.39
798.96	1732.58
799.14	1673.19
799.31	1746.92
799.49	1665.00
799.66	1726.44
799.84	1716.20
800.01	1550.31
800.19	1689.57
800.36	1603.56
800.53	1716.20
800.71	1701.86
800.88	1697.77
801.06	1679.33
801.23	1630.18
801.41	1673.19
801.58	1728.49
801.75	1636.33
801.93	1708.01
802.10	1693.67
802.28	1673.19
802.45	1648.61
802.63	1791.97
802.80	1734.63
802.97	1691.62
803.15	1665.00
803.32	1677.29
803.50	1642.47
803.67	1648.61
803.84	1630.18
804.02	1681.38
804.19	1679.33
804.37	1644.52
804.54	1648.61
804.71	1744.87
804.89	1767.40
805.06	1642.47
805.24	1615.85
805.41	1626.09
805.58	1640.42
805.76	1814.50
805.93	1689.57
806.10	1798.12
806.28	1689.57
806.45	1710.05
806.63	1722.34
806.80	1697.77
806.97	1722.34
807.15	1705.96
807.32	1677.29
807.49	1708.01
807.67	1595.37
807.84	1681.38
808.01	1611.75
808.19	1896.42
808.36	1812.45
808.54	1681.38
808.71	1634.28
808.88	1648.61
809.06	1757.16
809.23	1781.73
809.40	1576.94
809.58	1738.73
809.75	1638.38
809.92	1681.38
810.10	1820.64
810.27	1634.28
810.44	1699.81
810.62	1746.92
810.79	1724.39
810.96	1642.47
811.14	1626.09
811.31	1669.09
811.48	1740.77
811.66	1701.86
811.83	1779.68
812.00	1763.30
812.18	1738.73
812.35	1777.64
812.52	1660.90
812.69	1673.19
812.87	1673.19
813.04	1662.95
813.21	1777.64
813.39	1730.53
813.56	1642.47
813.73	1816.55
813.91	1558.50
814.08	1767.40
814.25	1705.96
814.42	1665.00
814.60	1742.82
814.77	1671.14
814.94	1669.09
815.12	1755.11
815.29	1804.26
815.46	1675.24
815.63	1693.67
815.81	1691.62
815.98	1626.09
816.15	1689.57
816.33	1658.85
816.50	1726.44
816.67	1671.14
816.84	1650.66
817.02	1652.71
817.19	1714.15
817.36	1576.94
817.53	1779.68
817.71	1593.32
817.88	1763.30
818.05	1730.53
818.22	1691.62
818.40	1820.64
818.57	1652.71
818.74	1679.33
818.91	1699.81
819.09	1699.81
819.26	1714.15
819.43	1654.76
819.60	1716.20
819.78	1816.55
819.95	1763.30
820.12	1607.66
820.29	1720.29
820.47	1746.92
820.64	1621.99
820.81	1542.12
820.98	1607.66
821.15	1697.77
821.33	1804.26
821.50	1640.42
821.67	1720.29
821.84	1734.63
822.02	1691.62
822.19	1710.05
822.36	1667.05
822.53	1705.96
822.70	1564.65
822.88	1585.13
823.05	1714.15
823.22	1699.81
823.39	1755.11
823.56	1730.53
823.74	1806.31
823.91	1593.32
824.08	1572.84
824.25	1644.52
824.42	1769.44
824.60	1685.48
824.77	1705.96
824.94	1697.77
825.11	1705.96
825.28	1642.47
825.45	1783.78
825.63	1759.21
825.80	1644.52
825.97	1718.25
826.14	1642.47
826.31	1638.38
826.48	1738.73
826.66	1583.08
826.83	1703.91
827.00	1789.92
827.17	1685.48
827.34	1669.09
827.51	1722.34
827.69	1626.09
827.86	1638.38
828.03	1783.78
828.20	1748.97
828.37	1595.37
828.54	1736.68
828.71	1632.23
828.89	1796.07
829.06	1755.11
829.23	1839.08
829.40	1630.18
829.57	1581.03
829.74	1705.96
829.91	1683.43
830.09	1679.33
830.26	1761.25
830.43	1708.01
830.60	1683.43
830.77	1673.19
830.94	1753.06
831.11	1746.92
831.28	1718.25
831.46	1683.43
831.63	1648.61
831.80	1753.06
831.97	1665.00
832.14	1726.44
832.31	1783.78
832.48	1681.38
832.65	1765.35
832.82	1744.87
832.99	1753.06
833.17	1662.95
833.34	1691.62
833.51	1703.91
833.68	1593.32
833.85	1746.92
834.02	1624.04
834.19	1628.14
834.36	1730.53
834.53	1746.92
834.70	1716.20
834.87	1728.49
835.04	1759.21
835.22	1669.09
835.39	1699.81
835.56	1650.66
835.73	1677.29
835.90	1744.87
836.07	1658.85
836.24	1757.16
836.41	1650.66
836.58	1687.53
836.75	1650.66
836.92	1732.58
837.09	1667.05
837.26	1787.88
837.43	1665.00
837.60	1687.53
837.77	1636.33
837.94	1765.35
838.12	1769.44
838.29	1697.77
838.46	1583.08
838.63	1566.70
838.80	1802.21
838.97	1769.44
839.14	1695.72
839.31	1669.09
839.48	1716.20
839.65	1628.14
839.82	1720.29
839.99	1687.53
840.16	1632.23
840.33	1642.47
840.50	1628.14
840.67	1646.57
840.84	1593.32
841.01	1716.20
841.18	1634.28
841.35	1658.85
841.52	1714.15
841.69	1834.98
841.86	1656.81
842.03	1665.00
842.20	1767.40
842.37	1665.00
842.54	1728.49
842.71	1658.85
842.88	1634.28
843.05	1691.62
843.22	1601.51
843.39	1808.36
843.56	1701.86
843.73	1673.19
843.90	1720.29
844.07	1734.63
844.24	1689.57
844.41	1804.26
844.58	1640.42
844.75	1665.00
844.92	1736.68
845.09	1613.80
845.26	1658.85
845.43	1736.68
845.60	1683.43
845.77	1759.21
845.94	1718.25
846.10	1808.36
846.27	1591.27
846.44	1636.33
846.61	1617.90
846.78	1679.33
846.95	1791.97
847.12	1671.14
847.29	1650.66
847.46	1646.57
847.63	1769.44
847.80	1628.14
847.97	1701.86
848.14	1871.84
848.31	1652.71
848.48	1677.29
848.65	1718.25
848.82	1640.42
848.98	1804.26
849.15	1757.16
849.32	1714.15
849.49	1695.72
849.66	1683.43
849.83	1669.09
850.00	1648.61
850.17	1638.38
850.34	1708.01
850.51	1683.43
850.68	1578.98
850.85	1828.84
851.01	1705.96
851.18	1738.73
851.35	1662.95
851.52	1667.05
851.69	1824.74
851.86	1609.70
852.03	1765.35
852.20	1736.68
852.37	1660.90
852.53	1642.47
852.70	1687.53
852.87	1652.71
853.04	1714.15
853.21	1701.86
853.38	1714.15
853.55	1767.40
853.72	1732.58
853.89	1597.42
854.05	1568.74
854.22	1660.90
854.39	1765.35
854.56	1718.25
854.73	1755.11
854.90	1656.81
855.07	1613.80
855.23	1677.29
855.40	1677.29
855.57	1667.05
855.74	1621.99
855.91	1859.56
856.08	1613.80
856.25	1570.79
856.41	1724.39
856.58	1599.46
856.75	1705.96
856.92	1673.19
857.09	1740.77
857.26	1593.32
857.42	1693.67
857.59	1748.97
857.76	1662.95
857.93	1650.66
858.10	1701.86
858.27	1548.26
858.43	1744.87
858.60	1652.71
858.77	1640.42
858.94	1613.80
859.11	1773.54
859.27	1732.58
859.44	1691.62
859.61	1769.44
859.78	1683.43
859.95	1611.75
860.12	1636.33
860.28	1861.60
860.45	1812.45
860.62	1665.00
860.79	1611.75
860.95	1724.39
861.12	1679.33
861.29	1687.53
861.46	1677.29
861.63	1669.09
861.79	1675.24
861.96	1665.00
862.13	1671.14
862.30	1787.88
862.47	1644.52
862.63	1628.14
862.80	1837.03
862.97	1732.58
863.14	1722.34
863.30	1671.14
863.47	1583.08
863.64	1810.40
863.81	1734.63
863.97	1710.05
864.14	1755.11
864.31	1677.29
864.48	1830.88
864.65	1669.09
864.81	1742.82
864.98	1636.33
865.15	1697.77
865.32	1759.21
865.48	1693.67
865.65	1730.53
865.82	1607.66
865.98	1724.39
866.15	1722.34
866.32	1794.02
866.49	1697.77
866.65	1800.16
866.82	1624.04
866.99	1644.52
867.16	1710.05
867.32	1761.25
867.49	1673.19
867.66	1652.71
867.83	1671.14
867.99	1613.80
868.16	1671.14
868.33	1570.79
868.49	1738.73
868.66	1613.80
868.83	1685.48
868.99	1691.62
869.16	1705.96
869.33	1769.44
869.50	1779.68
869.66	1726.44
869.83	1689.57
870.00	1634.28
870.16	1722.34
870.33	1716.20
870.50	1732.58
870.66	1744.87
870.83	1775.59
871.00	1646.57
871.17	1689.57
871.33	1693.67
871.50	1753.06
871.67	1619.94
871.83	1691.62
872.00	1763.30
872.17	1693.67
872.33	1765.35
872.50	1718.25
872.67	1677.29
872.83	1607.66
873.00	1695.72
873.17	1691.62
873.33	1691.62
873.50	1689.57
873.67	1677.29
873.83	1669.09
874.00	1681.38
874.16	1695.72
874.33	1660.90
874.50	1656.81
874.66	1683.43
874.83	1617.90
875.00	1675.24
875.16	1751.01
875.33	1755.11
875.50	1607.66
875.66	1712.10
875.83	1730.53
875.99	1681.38
876.16	1687.53
876.33	1648.61
876.49	1687.53
876.66	1734.63
876.83	1671.14
876.99	1636.33
877.16	1554.41
877.32	1665.00
877.49	1683.43
877.66	1640.42
877.82	1787.88
877.99	1765.35
878.15	1757.16
878.32	1673.19
878.49	1699.81
878.65	1665.00
878.82	1751.01
878.98	1691.62
879.15	1771.49
879.32	1751.01
879.48	1699.81
879.65	1746.92
879.81	1660.90
879.98	1613.80
880.15	1667.05
880.31	1716.20
880.48	1679.33
880.64	1771.49
880.81	1671.14
880.97	1757.16
881.14	1810.40
881.31	1658.85
881.47	1859.56
881.64	1708.01
881.80	1591.27
881.97	1748.97
882.13	1773.54
882.30	1593.32
882.47	1675.24
882.63	1642.47
882.80	1681.38
882.96	1628.14
883.13	1730.53
883.29	1638.38
883.46	1716.20
883.62	1857.51
883.79	1710.05
883.95	1714.15
884.12	1652.71
884.29	1662.95
884.45	1701.86
884.62	1742.82
884.78	1675.24
884.95	1822.69
885.11	1660.90
885.28	1757.16
885.44	1654.76
885.61	1644.52
885.77	1839.08
885.94	1822.69
886.10	1642.47
886.27	1673.19
886.43	1757.16
886.60	1751.01
886.76	1681.38
886.93	1660.90
887.09	1652.71
887.26	1626.09
887.42	1748.97
887.59	1814.50
887.75	1785.83
887.92	1771.49
888.08	1783.78
888.25	1888.23
888.41	1789.92
888.58	1673.19
888.74	1701.86
888.91	1658.85
>>>>>End Processed Spectral Data<<<<<
