SpectraSuite Data File
++++++++++++++++++++++++++++++++++++
Date: Mon Jun 06 17:16:17 CEST 2016
User: root
Dark Spectrum Present: No
Reference Spectrum Present: No
Number of Sampled Component Spectra: 1
Spectrometers: USB4C02835
Integration Time (usec): 100000 (USB4C02835)
Spectra Averaged: 1 (USB4C02835)
Boxcar Smoothing: 0 (USB4C02835)
Correct for Electrical Dark: No (USB4C02835)
Strobe/Lamp Enabled: No (USB4C02835)
Correct for Detector Non-linearity: No (USB4C02835)
Correct for Stray Light: No (USB4C02835)
Number of Pixels in Processed Spectrum: 3648
>>>>>Begin Processed Spectral Data<<<<<
177.47	1398.76
177.69	1398.76
177.91	1398.76
178.13	1501.16
178.36	1452.01
178.58	1626.09
178.80	1687.53
179.02	1691.62
179.24	1697.77
179.46	1703.91
179.68	1751.01
179.90	1722.34
180.13	1699.81
180.35	1677.29
180.57	1665.00
180.79	1773.54
181.01	1671.14
181.23	1732.58
181.45	1812.45
181.67	1695.72
181.90	1730.53
182.12	1660.90
182.34	1658.85
182.56	1703.91
182.78	1689.57
183.00	1777.64
183.22	1802.21
183.44	1632.23
183.66	1794.02
183.89	1832.93
184.11	1712.10
184.33	1687.53
184.55	1771.49
184.77	1759.21
184.99	1818.60
185.21	1693.67
185.43	1849.32
185.65	1703.91
185.87	1699.81
186.10	1783.78
186.32	1837.03
186.54	1751.01
186.76	1695.72
186.98	1785.83
187.20	1699.81
187.42	1658.85
187.64	1722.34
187.86	1685.48
188.08	1732.58
188.30	1716.20
188.52	1714.15
188.75	1806.31
188.97	1781.73
189.19	1683.43
189.41	1652.71
189.63	1722.34
189.85	1689.57
190.07	1669.09
190.29	1699.81
190.51	1720.29
190.73	1599.46
190.95	1757.16
191.17	1748.97
191.39	1617.90
191.61	1646.57
191.84	1697.77
192.06	1712.10
192.28	1677.29
192.50	1910.75
192.72	1789.92
192.94	1665.00
193.16	1818.60
193.38	1798.12
193.60	1673.19
193.82	1656.81
194.04	1705.96
194.26	1718.25
194.48	1640.42
194.70	1632.23
194.92	1642.47
195.14	1701.86
195.36	1628.14
195.58	1667.05
195.80	1787.88
196.02	1689.57
196.24	1703.91
196.46	1675.24
196.69	1683.43
196.91	1818.60
197.13	1697.77
197.35	1689.57
197.57	1816.55
197.79	1720.29
198.01	1832.93
198.23	1738.73
198.45	1730.53
198.67	1660.90
198.89	1660.90
199.11	1710.05
199.33	1681.38
199.55	1613.80
199.77	1701.86
199.99	1730.53
200.21	1669.09
200.43	1751.01
200.65	1611.75
200.87	1591.27
201.09	1757.16
201.31	1656.81
201.53	1720.29
201.75	1767.40
201.97	1691.62
202.19	1730.53
202.41	1783.78
202.63	1849.32
202.85	1736.68
203.07	1775.59
203.29	1644.52
203.51	1673.19
203.73	1665.00
203.95	1863.65
204.17	1746.92
204.39	1761.25
204.61	1738.73
204.83	1683.43
205.05	1781.73
205.27	1689.57
205.49	1691.62
205.71	1826.79
205.93	1728.49
206.15	1640.42
206.37	1738.73
206.59	1746.92
206.81	1650.66
207.03	1626.09
207.25	1701.86
207.47	1748.97
207.69	1791.97
207.91	1734.63
208.13	1728.49
208.34	1636.33
208.56	1759.21
208.78	1800.16
209.00	1701.86
209.22	1708.01
209.44	1730.53
209.66	1726.44
209.88	1742.82
210.10	1767.40
210.32	1740.77
210.54	1710.05
210.76	1677.29
210.98	1802.21
211.20	1589.22
211.42	1716.20
211.64	1785.83
211.86	1673.19
212.08	1789.92
212.30	1681.38
212.52	1693.67
212.74	1734.63
212.96	1746.92
213.17	1765.35
213.39	1775.59
213.61	1691.62
213.83	1783.78
214.05	1650.66
214.27	1705.96
214.49	1609.70
214.71	1650.66
214.93	1667.05
215.15	1751.01
215.37	1746.92
215.59	1667.05
215.81	1742.82
216.03	1796.07
216.24	1734.63
216.46	1687.53
216.68	1667.05
216.90	1828.84
217.12	1826.79
217.34	1722.34
217.56	1746.92
217.78	1734.63
218.00	1769.44
218.22	1734.63
218.44	1728.49
218.66	1812.45
218.87	1839.08
219.09	1697.77
219.31	1796.07
219.53	1683.43
219.75	1665.00
219.97	1656.81
220.19	1685.48
220.41	1644.52
220.63	1761.25
220.85	1683.43
221.06	1685.48
221.28	1769.44
221.50	1722.34
221.72	1759.21
221.94	1740.77
222.16	1701.86
222.38	1843.17
222.60	1763.30
222.82	1675.24
223.03	1703.91
223.25	1560.55
223.47	1740.77
223.69	1808.36
223.91	1701.86
224.13	1701.86
224.35	1630.18
224.57	1748.97
224.78	1796.07
225.00	1677.29
225.22	1689.57
225.44	1681.38
225.66	1640.42
225.88	1636.33
226.10	1742.82
226.32	1796.07
226.53	1832.93
226.75	1720.29
226.97	1736.68
227.19	1740.77
227.41	1724.39
227.63	1667.05
227.85	1621.99
228.06	1742.82
228.28	1714.15
228.50	1744.87
228.72	1636.33
228.94	1730.53
229.16	1691.62
229.37	1671.14
229.59	1619.94
229.81	1701.86
230.03	1712.10
230.25	1677.29
230.47	1603.56
230.69	1685.48
230.90	1775.59
231.12	1705.96
231.34	1691.62
231.56	1779.68
231.78	1642.47
232.00	1722.34
232.21	1699.81
232.43	1691.62
232.65	1626.09
232.87	1744.87
233.09	1574.89
233.30	1644.52
233.52	1714.15
233.74	1722.34
233.96	1748.97
234.18	1642.47
234.40	1712.10
234.61	1822.69
234.83	1667.05
235.05	1656.81
235.27	1849.32
235.49	1808.36
235.70	1765.35
235.92	1757.16
236.14	1683.43
236.36	1904.61
236.58	1628.14
236.79	1730.53
237.01	1738.73
237.23	1710.05
237.45	1849.32
237.67	1662.95
237.88	1740.77
238.10	1822.69
238.32	1626.09
238.54	1675.24
238.76	1701.86
238.97	1679.33
239.19	1642.47
239.41	1732.58
239.63	1748.97
239.85	1716.20
240.06	1699.81
240.28	1722.34
240.50	1738.73
240.72	1648.61
240.93	1660.90
241.15	1765.35
241.37	1748.97
241.59	1785.83
241.81	1675.24
242.02	1722.34
242.24	1748.97
242.46	1769.44
242.68	1714.15
242.89	1730.53
243.11	1757.16
243.33	1761.25
243.55	1757.16
243.76	1763.30
243.98	1724.39
244.20	1742.82
244.42	1703.91
244.64	1814.50
244.85	1718.25
245.07	1650.66
245.29	1681.38
245.51	1681.38
245.72	1746.92
245.94	1699.81
246.16	1769.44
246.38	1759.21
246.59	1744.87
246.81	1669.09
247.03	1738.73
247.24	1611.75
247.46	1671.14
247.68	1748.97
247.90	1658.85
248.11	1722.34
248.33	1761.25
248.55	1708.01
248.77	1753.06
248.98	1689.57
249.20	1796.07
249.42	1667.05
249.64	1748.97
249.85	1710.05
250.07	1675.24
250.29	1716.20
250.50	1779.68
250.72	1644.52
250.94	1800.16
251.16	1810.40
251.37	1779.68
251.59	1714.15
251.81	1730.53
252.02	1757.16
252.24	1673.19
252.46	1785.83
252.68	1677.29
252.89	1648.61
253.11	1675.24
253.33	1826.79
253.54	1810.40
253.76	1615.85
253.98	1658.85
254.20	1714.15
254.41	1630.18
254.63	1652.71
254.85	1716.20
255.06	1656.81
255.28	1787.88
255.50	1736.68
255.71	1722.34
255.93	1636.33
256.15	1699.81
256.36	1742.82
256.58	1644.52
256.80	1814.50
257.02	1687.53
257.23	1714.15
257.45	1722.34
257.67	1757.16
257.88	1718.25
258.10	1734.63
258.32	1773.54
258.53	1650.66
258.75	1820.64
258.97	1693.67
259.18	1724.39
259.40	1783.78
259.62	1826.79
259.83	1775.59
260.05	1751.01
260.27	2043.87
260.48	1714.15
260.70	1640.42
260.92	1679.33
261.13	1783.78
261.35	1708.01
261.57	1734.63
261.78	1644.52
262.00	1628.14
262.22	1722.34
262.43	1646.57
262.65	1701.86
262.86	1679.33
263.08	1865.70
263.30	1669.09
263.51	1644.52
263.73	1675.24
263.95	1742.82
264.16	1667.05
264.38	1632.23
264.60	1773.54
264.81	1685.48
265.03	1804.26
265.25	1724.39
265.46	1730.53
265.68	1697.77
265.89	1767.40
266.11	1562.60
266.33	1773.54
266.54	1738.73
266.76	1744.87
266.98	1718.25
267.19	1800.16
267.41	1728.49
267.62	1751.01
267.84	1662.95
268.06	1781.73
268.27	1794.02
268.49	1751.01
268.70	1806.31
268.92	1697.77
269.14	1703.91
269.35	1634.28
269.57	1683.43
269.79	1779.68
270.00	1748.97
270.22	1839.08
270.43	1685.48
270.65	1607.66
270.87	1718.25
271.08	1789.92
271.30	1730.53
271.51	1675.24
271.73	1701.86
271.95	1773.54
272.16	1712.10
272.38	1691.62
272.59	1626.09
272.81	1781.73
273.02	1720.29
273.24	1705.96
273.46	1740.77
273.67	1632.23
273.89	1693.67
274.10	1718.25
274.32	1718.25
274.54	1683.43
274.75	1695.72
274.97	1669.09
275.18	1748.97
275.40	1748.97
275.61	1753.06
275.83	1720.29
276.05	1738.73
276.26	1757.16
276.48	1765.35
276.69	1722.34
276.91	1685.48
277.12	1712.10
277.34	1759.21
277.55	1757.16
277.77	1648.61
277.99	1685.48
278.20	1671.14
278.42	1634.28
278.63	1708.01
278.85	1669.09
279.06	1722.34
279.28	1644.52
279.49	1763.30
279.71	1763.30
279.93	1693.67
280.14	1710.05
280.36	1679.33
280.57	1728.49
280.79	1724.39
281.00	1609.70
281.22	1722.34
281.43	1753.06
281.65	1609.70
281.86	1624.04
282.08	1742.82
282.29	1775.59
282.51	1591.27
282.73	1699.81
282.94	1581.03
283.16	1765.35
283.37	1804.26
283.59	1665.00
283.80	1789.92
284.02	1679.33
284.23	1757.16
284.45	1697.77
284.66	1658.85
284.88	1640.42
285.09	1759.21
285.31	1710.05
285.52	1660.90
285.74	1624.04
285.95	1759.21
286.17	1783.78
286.38	1703.91
286.60	1636.33
286.81	1689.57
287.03	1665.00
287.24	1701.86
287.46	1740.77
287.67	1687.53
287.89	1767.40
288.10	1736.68
288.32	1769.44
288.53	1787.88
288.75	1691.62
288.96	1779.68
289.18	1724.39
289.39	1732.58
289.61	1783.78
289.82	1810.40
290.04	1880.04
290.25	1619.94
290.47	1685.48
290.68	1746.92
290.90	1800.16
291.11	1638.38
291.33	1751.01
291.54	1656.81
291.76	1722.34
291.97	1640.42
292.18	1638.38
292.40	1677.29
292.61	1656.81
292.83	1830.88
293.04	1748.97
293.26	1763.30
293.47	1761.25
293.69	1673.19
293.90	1691.62
294.12	1765.35
294.33	1744.87
294.55	1675.24
294.76	1751.01
294.97	1798.12
295.19	1789.92
295.40	1710.05
295.62	1624.04
295.83	1781.73
296.05	1669.09
296.26	1759.21
296.48	1642.47
296.69	1710.05
296.90	1587.18
297.12	1767.40
297.33	1755.11
297.55	1738.73
297.76	1755.11
297.98	1808.36
298.19	1732.58
298.41	1626.09
298.62	1650.66
298.83	1761.25
299.05	1718.25
299.26	1738.73
299.48	1716.20
299.69	1787.88
299.90	1730.53
300.12	1708.01
300.33	1755.11
300.55	1669.09
300.76	1738.73
300.98	1691.62
301.19	1728.49
301.40	1705.96
301.62	1691.62
301.83	1677.29
302.05	1667.05
302.26	1693.67
302.47	1738.73
302.69	1638.38
302.90	1724.39
303.12	1621.99
303.33	1740.77
303.54	1882.08
303.76	1646.57
303.97	1726.44
304.19	1841.12
304.40	1601.51
304.61	1751.01
304.83	1847.27
305.04	1763.30
305.26	1730.53
305.47	1718.25
305.68	1763.30
305.90	1681.38
306.11	1732.58
306.33	1693.67
306.54	1681.38
306.75	1691.62
306.97	1693.67
307.18	1669.09
307.39	1714.15
307.61	1728.49
307.82	1701.86
308.04	1773.54
308.25	1757.16
308.46	1779.68
308.68	1660.90
308.89	1740.77
309.10	1857.51
309.32	1789.92
309.53	1677.29
309.74	1720.29
309.96	1703.91
310.17	1839.08
310.39	1695.72
310.60	1746.92
310.81	1646.57
311.03	1738.73
311.24	1710.05
311.45	1724.39
311.67	1820.64
311.88	1669.09
312.09	1660.90
312.31	1673.19
312.52	1736.68
312.73	1769.44
312.95	1634.28
313.16	1585.13
313.37	1771.49
313.59	1798.12
313.80	1826.79
314.01	1767.40
314.23	1712.10
314.44	1650.66
314.65	1583.08
314.87	1665.00
315.08	1644.52
315.29	1669.09
315.51	1669.09
315.72	1613.80
315.93	1812.45
316.15	1759.21
316.36	1703.91
316.57	1695.72
316.79	1722.34
317.00	1751.01
317.21	1738.73
317.43	1736.68
317.64	1712.10
317.85	1753.06
318.07	1718.25
318.28	1765.35
318.49	1824.74
318.70	1964.00
318.92	1837.03
319.13	1773.54
319.34	1927.14
319.56	1841.12
319.77	1867.75
319.98	1822.69
320.20	1771.49
320.41	1812.45
320.62	1736.68
320.83	1683.43
321.05	1861.60
321.26	1730.53
321.47	1681.38
321.69	1724.39
321.90	1570.79
322.11	1699.81
322.32	1775.59
322.54	1820.64
322.75	1695.72
322.96	1865.70
323.18	1644.52
323.39	1652.71
323.60	1683.43
323.81	1800.16
324.03	1656.81
324.24	1695.72
324.45	1726.44
324.66	1693.67
324.88	1773.54
325.09	1880.04
325.30	1710.05
325.52	1712.10
325.73	1759.21
325.94	1632.23
326.15	1624.04
326.37	1669.09
326.58	1724.39
326.79	1748.97
327.00	1646.57
327.22	1775.59
327.43	1648.61
327.64	1687.53
327.85	1734.63
328.07	1722.34
328.28	1755.11
328.49	1648.61
328.70	1677.29
328.92	1732.58
329.13	1740.77
329.34	1695.72
329.55	1773.54
329.76	1677.29
329.98	1705.96
330.19	1812.45
330.40	1730.53
330.61	1724.39
330.83	1808.36
331.04	1705.96
331.25	1720.29
331.46	1611.75
331.68	1697.77
331.89	1871.84
332.10	1751.01
332.31	1644.52
332.52	1787.88
332.74	1757.16
332.95	1656.81
333.16	1669.09
333.37	1746.92
333.58	1677.29
333.80	1714.15
334.01	1585.13
334.22	1685.48
334.43	1734.63
334.64	1701.86
334.86	1583.08
335.07	1667.05
335.28	1841.12
335.49	1587.18
335.70	1738.73
335.92	1757.16
336.13	1861.60
336.34	1779.68
336.55	1716.20
336.76	1705.96
336.98	1646.57
337.19	1755.11
337.40	1746.92
337.61	1810.40
337.82	1732.58
338.04	1771.49
338.25	1624.04
338.46	1742.82
338.67	1697.77
338.88	1665.00
339.09	1611.75
339.31	1748.97
339.52	1626.09
339.73	1695.72
339.94	1783.78
340.15	1695.72
340.36	1638.38
340.58	1695.72
340.79	1595.37
341.00	1726.44
341.21	1640.42
341.42	1859.56
341.63	1722.34
341.85	1730.53
342.06	1730.53
342.27	1685.48
342.48	1730.53
342.69	1722.34
342.90	1660.90
343.12	1716.20
343.33	1619.94
343.54	1751.01
343.75	1816.55
343.96	1736.68
344.17	1691.62
344.38	1751.01
344.60	1705.96
344.81	1652.71
345.02	1757.16
345.23	1851.36
345.44	1828.84
345.65	1759.21
345.86	1769.44
346.07	1777.64
346.29	1675.24
346.50	1722.34
346.71	1683.43
346.92	1757.16
347.13	1779.68
347.34	1601.51
347.55	1744.87
347.76	1800.16
347.98	1654.76
348.19	1705.96
348.40	1794.02
348.61	1710.05
348.82	1755.11
349.03	1728.49
349.24	1681.38
349.45	1865.70
349.66	1632.23
349.88	1714.15
350.09	1677.29
350.30	1773.54
350.51	1775.59
350.72	1697.77
350.93	1703.91
351.14	1685.48
351.35	1689.57
351.56	1738.73
351.77	1759.21
351.99	1689.57
352.20	1796.07
352.41	1775.59
352.62	1628.14
352.83	1671.14
353.04	1697.77
353.25	1759.21
353.46	1732.58
353.67	1726.44
353.88	1642.47
354.09	1742.82
354.30	1703.91
354.52	1765.35
354.73	1716.20
354.94	1703.91
355.15	1755.11
355.36	1802.21
355.57	1662.95
355.78	1777.64
355.99	1667.05
356.20	1646.57
356.41	1742.82
356.62	1675.24
356.83	1681.38
357.04	1765.35
357.25	1617.90
357.46	1587.18
357.68	1587.18
357.89	1675.24
358.10	1716.20
358.31	1681.38
358.52	1734.63
358.73	1675.24
358.94	1716.20
359.15	1671.14
359.36	1771.49
359.57	1718.25
359.78	1699.81
359.99	1777.64
360.20	1570.79
360.41	1685.48
360.62	1705.96
360.83	1710.05
361.04	1728.49
361.25	1759.21
361.46	1761.25
361.67	1808.36
361.88	1816.55
362.09	1746.92
362.30	1791.97
362.51	1712.10
362.72	1755.11
362.93	1830.88
363.14	1734.63
363.35	1746.92
363.56	1669.09
363.78	1748.97
363.99	1771.49
364.20	1703.91
364.41	1761.25
364.62	1808.36
364.83	1673.19
365.04	1738.73
365.25	1705.96
365.46	1865.70
365.67	1603.56
365.88	1685.48
366.09	1697.77
366.30	1724.39
366.51	1699.81
366.72	1642.47
366.93	1687.53
367.14	1736.68
367.35	1808.36
367.56	1701.86
367.77	1751.01
367.98	1695.72
368.18	1697.77
368.39	1726.44
368.60	1558.50
368.81	1742.82
369.02	1699.81
369.23	1697.77
369.44	1621.99
369.65	1626.09
369.86	1732.58
370.07	1785.83
370.28	1722.34
370.49	1761.25
370.70	1820.64
370.91	1679.33
371.12	1599.46
371.33	1759.21
371.54	1701.86
371.75	1871.84
371.96	1669.09
372.17	1742.82
372.38	1742.82
372.59	1763.30
372.80	1701.86
373.01	1695.72
373.22	1736.68
373.43	1662.95
373.64	1615.85
373.85	1705.96
374.06	1849.32
374.26	1773.54
374.47	1656.81
374.68	1812.45
374.89	1798.12
375.10	1683.43
375.31	1738.73
375.52	1669.09
375.73	1683.43
375.94	1683.43
376.15	1757.16
376.36	1644.52
376.57	1681.38
376.78	1671.14
376.99	1761.25
377.20	1703.91
377.40	1685.48
377.61	1806.31
377.82	1683.43
378.03	1769.44
378.24	1738.73
378.45	1787.88
378.66	1728.49
378.87	1597.42
379.08	1656.81
379.29	1710.05
379.50	1800.16
379.71	1628.14
379.91	1818.60
380.12	1767.40
380.33	1740.77
380.54	1720.29
380.75	1693.67
380.96	1638.38
381.17	1755.11
381.38	1703.91
381.59	1812.45
381.80	1755.11
382.00	1832.93
382.21	1763.30
382.42	1812.45
382.63	1794.02
382.84	1769.44
383.05	1783.78
383.26	1777.64
383.47	1656.81
383.68	1771.49
383.88	1716.20
384.09	1755.11
384.30	1859.56
384.51	1744.87
384.72	1665.00
384.93	1665.00
385.14	1669.09
385.35	1689.57
385.55	1617.90
385.76	1763.30
385.97	1660.90
386.18	1617.90
386.39	1689.57
386.60	1722.34
386.81	1650.66
387.02	1662.95
387.22	1716.20
387.43	1773.54
387.64	1824.74
387.85	1849.32
388.06	2166.75
388.27	4157.38
388.48	6915.99
388.68	8292.23
388.89	9461.62
389.10	9697.13
389.31	8638.33
389.52	7714.70
389.73	6653.85
389.93	6197.15
390.14	5717.93
390.35	5275.57
390.56	4579.26
390.77	3704.78
390.98	3000.27
391.18	2502.62
391.39	2172.89
391.60	1886.18
391.81	1865.70
392.02	1703.91
392.23	1843.17
392.43	1779.68
392.64	1755.11
392.85	1765.35
393.06	1900.52
393.27	1726.44
393.47	1652.71
393.68	1687.53
393.89	1665.00
394.10	1822.69
394.31	1742.82
394.52	1636.33
394.72	1720.29
394.93	1841.12
395.14	1644.52
395.35	1771.49
395.56	1662.95
395.76	1859.56
395.97	1818.60
396.18	1863.65
396.39	1939.43
396.60	2037.73
396.80	1920.99
397.01	1816.55
397.22	1828.84
397.43	1808.36
397.64	1744.87
397.84	1722.34
398.05	1916.90
398.26	1716.20
398.47	1791.97
398.67	1794.02
398.88	1765.35
399.09	1783.78
399.30	1648.61
399.51	1796.07
399.71	1669.09
399.92	1687.53
400.13	1777.64
400.34	1781.73
400.54	1744.87
400.75	1798.12
400.96	1814.50
401.17	1820.64
401.37	1755.11
401.58	1740.77
401.79	1671.14
402.00	1771.49
402.21	1996.77
402.41	1877.99
402.62	2068.45
402.83	2007.01
403.04	1984.48
403.24	2123.74
403.45	1855.46
403.66	1910.75
403.87	1873.89
404.07	1849.32
404.28	1914.85
404.49	1923.04
404.70	1761.25
404.90	1734.63
405.11	1755.11
405.32	1671.14
405.52	1654.76
405.73	1681.38
405.94	1671.14
406.15	1744.87
406.35	1738.73
406.56	1724.39
406.77	1787.88
406.98	1751.01
407.18	1724.39
407.39	1736.68
407.60	1763.30
407.80	1718.25
408.01	1769.44
408.22	1683.43
408.43	1685.48
408.63	1753.06
408.84	1755.11
409.05	1734.63
409.25	1650.66
409.46	1634.28
409.67	1714.15
409.88	1693.67
410.08	1779.68
410.29	1728.49
410.50	1701.86
410.70	1771.49
410.91	1613.80
411.12	1757.16
411.32	1673.19
411.53	1669.09
411.74	1841.12
411.95	1738.73
412.15	1759.21
412.36	1824.74
412.57	1751.01
412.77	1857.51
412.98	1753.06
413.19	1787.88
413.39	1783.78
413.60	1773.54
413.81	1773.54
414.01	1773.54
414.22	1775.59
414.43	1740.77
414.63	1697.77
414.84	1734.63
415.05	1759.21
415.25	1648.61
415.46	1708.01
415.67	1718.25
415.87	1677.29
416.08	1845.22
416.29	1693.67
416.49	1716.20
416.70	1714.15
416.91	1675.24
417.11	1751.01
417.32	1740.77
417.53	1800.16
417.73	1851.36
417.94	1714.15
418.15	1703.91
418.35	1693.67
418.56	1662.95
418.77	1875.94
418.97	1710.05
419.18	1697.77
419.38	1632.23
419.59	1722.34
419.80	1785.83
420.00	1665.00
420.21	1689.57
420.42	1818.60
420.62	1738.73
420.83	1648.61
421.04	1734.63
421.24	1755.11
421.45	1771.49
421.65	1716.20
421.86	1714.15
422.07	1646.57
422.27	1718.25
422.48	1738.73
422.69	1617.90
422.89	1673.19
423.10	1681.38
423.30	1697.77
423.51	1718.25
423.72	1740.77
423.92	1697.77
424.13	1759.21
424.33	1677.29
424.54	1724.39
424.75	1734.63
424.95	1769.44
425.16	1720.29
425.36	1738.73
425.57	1861.60
425.78	1714.15
425.98	1761.25
426.19	1726.44
426.39	1621.99
426.60	1683.43
426.81	1791.97
427.01	1779.68
427.22	1701.86
427.42	1603.56
427.63	1703.91
427.83	1728.49
428.04	1843.17
428.25	1820.64
428.45	1763.30
428.66	1839.08
428.86	1714.15
429.07	1736.68
429.28	1697.77
429.48	1710.05
429.69	1673.19
429.89	1759.21
430.10	1685.48
430.30	1734.63
430.51	1791.97
430.71	1683.43
430.92	1703.91
431.13	1744.87
431.33	1720.29
431.54	1753.06
431.74	1830.88
431.95	1873.89
432.15	1681.38
432.36	1685.48
432.56	1791.97
432.77	1812.45
432.98	1857.51
433.18	1738.73
433.39	1738.73
433.59	1685.48
433.80	1834.98
434.00	1851.36
434.21	1716.20
434.41	1658.85
434.62	1918.95
434.82	1665.00
435.03	1681.38
435.23	1658.85
435.44	1640.42
435.64	1689.57
435.85	1695.72
436.06	1779.68
436.26	1746.92
436.47	1787.88
436.67	1767.40
436.88	1716.20
437.08	1718.25
437.29	1816.55
437.49	1710.05
437.70	1742.82
437.90	1695.72
438.11	1837.03
438.31	1837.03
438.52	1923.04
438.72	1837.03
438.93	1918.95
439.13	1802.21
439.34	1822.69
439.54	1689.57
439.75	1798.12
439.95	1814.50
440.16	1759.21
440.36	1791.97
440.57	1828.84
440.77	1730.53
440.98	1759.21
441.18	1812.45
441.39	1667.05
441.59	1644.52
441.80	1814.50
442.00	1744.87
442.21	1820.64
442.41	1638.38
442.62	1769.44
442.82	1617.90
443.02	1734.63
443.23	1816.55
443.43	1757.16
443.64	1796.07
443.84	1746.92
444.05	1828.84
444.25	1701.86
444.46	1753.06
444.66	1742.82
444.87	1880.04
445.07	1669.09
445.28	1728.49
445.48	1845.22
445.69	1751.01
445.89	1992.67
446.09	1789.92
446.30	2058.21
446.50	2648.02
446.71	3690.44
446.91	4286.40
447.12	4792.25
447.32	4904.89
447.53	4390.84
447.73	3844.04
447.93	3641.29
448.14	3280.85
448.34	3221.45
448.55	2928.60
448.75	2813.91
448.96	2758.61
449.16	2389.98
449.36	2254.81
449.57	2072.54
449.77	1843.17
449.98	1767.40
450.18	1791.97
450.39	1861.60
450.59	1800.16
450.79	1697.77
451.00	1705.96
451.20	1802.21
451.41	1665.00
451.61	1710.05
451.81	1763.30
452.02	1705.96
452.22	1615.85
452.43	1712.10
452.63	1691.62
452.84	1724.39
453.04	1734.63
453.24	1710.05
453.45	1744.87
453.65	1724.39
453.86	1746.92
454.06	1791.97
454.26	1753.06
454.47	1669.09
454.67	1796.07
454.87	1773.54
455.08	1662.95
455.28	1851.36
455.49	1763.30
455.69	1753.06
455.89	1783.78
456.10	1849.32
456.30	1730.53
456.51	1796.07
456.71	1822.69
456.91	1765.35
457.12	1740.77
457.32	1759.21
457.52	1724.39
457.73	1771.49
457.93	1794.02
458.14	1757.16
458.34	1599.46
458.54	1742.82
458.75	1728.49
458.95	1804.26
459.15	1732.58
459.36	1832.93
459.56	1738.73
459.76	1892.32
459.97	1732.58
460.17	1814.50
460.37	1746.92
460.58	1695.72
460.78	1834.98
460.99	1677.29
461.19	1763.30
461.39	1681.38
461.60	1691.62
461.80	1761.25
462.00	1697.77
462.21	1738.73
462.41	1673.19
462.61	1687.53
462.82	1607.66
463.02	1800.16
463.22	1730.53
463.43	1746.92
463.63	1685.48
463.83	1834.98
464.04	1812.45
464.24	1718.25
464.44	1697.77
464.64	1736.68
464.85	1804.26
465.05	1812.45
465.25	1800.16
465.46	1777.64
465.66	1730.53
465.86	1800.16
466.07	1744.87
466.27	1730.53
466.47	1642.47
466.68	1691.62
466.88	1816.55
467.08	1783.78
467.29	1783.78
467.49	1779.68
467.69	1705.96
467.89	1720.29
468.10	1714.15
468.30	1748.97
468.50	1808.36
468.71	1820.64
468.91	1683.43
469.11	1791.97
469.31	1828.84
469.52	1679.33
469.72	1800.16
469.92	1849.32
470.13	1705.96
470.33	1714.15
470.53	1804.26
470.73	2148.32
470.94	2285.53
471.14	2291.68
471.34	2441.18
471.54	2451.42
471.75	2265.05
471.95	2129.89
472.15	2045.92
472.36	2183.13
472.56	2080.74
472.76	2058.21
472.96	2007.01
473.17	1931.23
473.37	1855.46
473.57	1871.84
473.77	1757.16
473.98	1732.58
474.18	1738.73
474.38	1904.61
474.58	1787.88
474.79	1685.48
474.99	1785.83
475.19	1759.21
475.39	1751.01
475.60	1734.63
475.80	1740.77
476.00	1773.54
476.20	1714.15
476.41	1732.58
476.61	1865.70
476.81	1794.02
477.01	1681.38
477.21	1834.98
477.42	1818.60
477.62	1658.85
477.82	1755.11
478.02	1654.76
478.23	1773.54
478.43	1714.15
478.63	1683.43
478.83	1755.11
479.03	1751.01
479.24	1787.88
479.44	1859.56
479.64	1781.73
479.84	1630.18
480.04	1689.57
480.25	1798.12
480.45	1693.67
480.65	1742.82
480.85	1861.60
481.06	1685.48
481.26	1695.72
481.46	1759.21
481.66	1712.10
481.86	1632.23
482.06	1730.53
482.27	1722.34
482.47	1681.38
482.67	1785.83
482.87	1701.86
483.07	1775.59
483.28	1736.68
483.48	1738.73
483.68	1701.86
483.88	1646.57
484.08	1544.17
484.29	1685.48
484.49	1738.73
484.69	1638.38
484.89	1779.68
485.09	1814.50
485.29	1765.35
485.50	1734.63
485.70	1722.34
485.90	1841.12
486.10	1701.86
486.30	1693.67
486.50	1830.88
486.71	1734.63
486.91	1763.30
487.11	1800.16
487.31	1673.19
487.51	1822.69
487.71	1771.49
487.91	1716.20
488.12	1679.33
488.32	1662.95
488.52	1662.95
488.72	1603.56
488.92	1787.88
489.12	1785.83
489.32	1798.12
489.53	1783.78
489.73	1642.47
489.93	1857.51
490.13	1701.86
490.33	1646.57
490.53	1759.21
490.73	1759.21
490.94	1652.71
491.14	1753.06
491.34	1828.84
491.54	2140.13
491.74	2666.46
491.94	2906.07
492.14	3030.99
492.34	3086.29
492.54	2738.13
492.75	2439.13
492.95	2463.71
493.15	2338.78
493.35	2281.44
493.55	2250.72
493.75	2154.46
493.95	2172.89
494.15	2041.82
494.35	1925.09
494.56	1851.36
494.76	1759.21
494.96	1826.79
495.16	1751.01
495.36	1751.01
495.56	1738.73
495.76	1685.48
495.96	1781.73
496.16	1683.43
496.36	1810.40
496.56	1718.25
496.77	1712.10
496.97	1718.25
497.17	1828.84
497.37	1671.14
497.57	1712.10
497.77	1691.62
497.97	1662.95
498.17	1687.53
498.37	1730.53
498.57	1789.92
498.77	1746.92
498.97	1877.99
499.17	1865.70
499.38	1755.11
499.58	1785.83
499.78	1804.26
499.98	1884.13
500.18	1697.77
500.38	1689.57
500.58	1890.28
500.78	2508.76
500.98	4523.96
501.18	5834.66
501.38	6842.26
501.58	7096.21
501.78	6743.96
501.98	5539.76
502.18	4964.28
502.38	4472.76
502.58	4255.68
502.78	3764.17
502.98	3676.10
503.18	3284.94
503.38	3213.26
503.59	2963.41
503.79	2758.61
503.99	2498.52
504.19	2244.57
504.39	2179.04
504.59	2291.68
504.79	2133.98
504.99	2043.87
505.19	1892.32
505.39	1861.60
505.59	1949.67
505.79	1966.05
505.99	1820.64
506.19	1839.08
506.39	1804.26
506.59	1726.44
506.79	1742.82
506.99	1808.36
507.19	1781.73
507.39	1720.29
507.59	1671.14
507.79	1791.97
507.99	1660.90
508.19	1775.59
508.39	1816.55
508.59	1714.15
508.79	1824.74
508.99	1849.32
509.19	1746.92
509.39	1714.15
509.59	1675.24
509.79	1742.82
509.99	1722.34
510.19	1824.74
510.39	1771.49
510.59	1736.68
510.79	1759.21
510.99	1697.77
511.19	1732.58
511.39	1855.46
511.59	1863.65
511.79	1783.78
511.99	1718.25
512.19	1853.41
512.38	1748.97
512.58	1720.29
512.78	1796.07
512.98	1697.77
513.18	1804.26
513.38	1650.66
513.58	1794.02
513.78	1736.68
513.98	1746.92
514.18	1708.01
514.38	1689.57
514.58	1759.21
514.78	1779.68
514.98	1693.67
515.18	1730.53
515.38	1640.42
515.58	1869.80
515.78	1691.62
515.98	1781.73
516.18	1787.88
516.38	1734.63
516.57	1730.53
516.77	1710.05
516.97	1742.82
517.17	1656.81
517.37	1665.00
517.57	1753.06
517.77	1755.11
517.97	1669.09
518.17	1734.63
518.37	1691.62
518.57	1648.61
518.77	1732.58
518.97	1746.92
519.16	1783.78
519.36	1849.32
519.56	1712.10
519.76	1703.91
519.96	1718.25
520.16	1853.41
520.36	1683.43
520.56	1771.49
520.76	1697.77
520.96	1730.53
521.16	1832.93
521.35	1869.80
521.55	1861.60
521.75	1722.34
521.95	1658.85
522.15	1693.67
522.35	1650.66
522.55	1740.77
522.75	1834.98
522.95	1777.64
523.14	1683.43
523.34	1789.92
523.54	1791.97
523.74	1736.68
523.94	1757.16
524.14	1646.57
524.34	1771.49
524.54	1865.70
524.73	1789.92
524.93	1732.58
525.13	1781.73
525.33	1679.33
525.53	1914.85
525.73	1789.92
525.93	1705.96
526.13	1712.10
526.32	1679.33
526.52	1824.74
526.72	1853.41
526.92	1783.78
527.12	1679.33
527.32	1759.21
527.52	1787.88
527.71	1718.25
527.91	1763.30
528.11	1685.48
528.31	1751.01
528.51	1726.44
528.71	1753.06
528.90	1712.10
529.10	1755.11
529.30	1757.16
529.50	1626.09
529.70	1703.91
529.90	1626.09
530.09	1726.44
530.29	1675.24
530.49	1734.63
530.69	1865.70
530.89	1728.49
531.09	1751.01
531.28	1722.34
531.48	1859.56
531.68	1748.97
531.88	1755.11
532.08	1773.54
532.28	1687.53
532.47	1781.73
532.67	1832.93
532.87	1728.49
533.07	1665.00
533.27	1738.73
533.46	1710.05
533.66	1695.72
533.86	1802.21
534.06	1779.68
534.26	1783.78
534.45	1703.91
534.65	1808.36
534.85	1763.30
535.05	1665.00
535.25	1775.59
535.44	1726.44
535.64	1742.82
535.84	1742.82
536.04	1712.10
536.24	1773.54
536.43	1716.20
536.63	1734.63
536.83	1665.00
537.03	1722.34
537.22	1632.23
537.42	1697.77
537.62	1734.63
537.82	1689.57
538.02	1863.65
538.21	1802.21
538.41	1816.55
538.61	1761.25
538.81	1722.34
539.00	1824.74
539.20	1642.47
539.40	1757.16
539.60	1800.16
539.79	1818.60
539.99	1734.63
540.19	1714.15
540.39	1734.63
540.58	1751.01
540.78	1738.73
540.98	1804.26
541.18	1808.36
541.37	1849.32
541.57	1763.30
541.77	1695.72
541.97	1630.18
542.16	1724.39
542.36	1734.63
542.56	1789.92
542.76	1832.93
542.95	1734.63
543.15	1763.30
543.35	1820.64
543.54	1720.29
543.74	1695.72
543.94	1830.88
544.14	1751.01
544.33	1785.83
544.53	1767.40
544.73	1751.01
544.93	1722.34
545.12	1785.83
545.32	1841.12
545.52	1767.40
545.71	1652.71
545.91	1753.06
546.11	1716.20
546.30	1642.47
546.50	1722.34
546.70	1800.16
546.90	1705.96
547.09	1605.61
547.29	1716.20
547.49	1746.92
547.68	1722.34
547.88	1644.52
548.08	1757.16
548.27	2152.42
548.47	1751.01
548.67	1734.63
548.87	1746.92
549.06	1718.25
549.26	1794.02
549.46	1732.58
549.65	1693.67
549.85	1773.54
550.05	1791.97
550.24	1722.34
550.44	1751.01
550.64	1785.83
550.83	1783.78
551.03	1767.40
551.23	1779.68
551.42	1826.79
551.62	1691.62
551.82	1812.45
552.01	1671.14
552.21	1800.16
552.41	1738.73
552.60	1789.92
552.80	1751.01
553.00	1673.19
553.19	1730.53
553.39	1894.37
553.59	1757.16
553.78	1787.88
553.98	1834.98
554.17	1746.92
554.37	1730.53
554.57	1769.44
554.76	1751.01
554.96	1667.05
555.16	1740.77
555.35	1699.81
555.55	1734.63
555.75	1695.72
555.94	1728.49
556.14	1693.67
556.33	1730.53
556.53	1767.40
556.73	1812.45
556.92	1787.88
557.12	1857.51
557.32	1806.31
557.51	1855.46
557.71	1742.82
557.90	1853.41
558.10	1761.25
558.30	1720.29
558.49	1798.12
558.69	1814.50
558.88	1751.01
559.08	1787.88
559.28	1781.73
559.47	1789.92
559.67	1748.97
559.86	1828.84
560.06	1814.50
560.26	1787.88
560.45	1783.78
560.65	1714.15
560.84	1814.50
561.04	1753.06
561.24	1744.87
561.43	1726.44
561.63	1869.80
561.82	1787.88
562.02	1855.46
562.22	1693.67
562.41	1738.73
562.61	1763.30
562.80	1730.53
563.00	1935.33
563.19	1732.58
563.39	1769.44
563.59	1771.49
563.78	1787.88
563.98	1628.14
564.17	1697.77
564.37	1683.43
564.56	1796.07
564.76	1728.49
564.96	1785.83
565.15	1777.64
565.35	1867.75
565.54	1783.78
565.74	1837.03
565.93	1716.20
566.13	1720.29
566.32	1779.68
566.52	1798.12
566.71	1744.87
566.91	1708.01
567.11	1728.49
567.30	1708.01
567.50	1818.60
567.69	1791.97
567.89	1783.78
568.08	1675.24
568.28	1740.77
568.47	1687.53
568.67	1791.97
568.86	1689.57
569.06	1837.03
569.25	1714.15
569.45	1736.68
569.64	1744.87
569.84	1783.78
570.04	1777.64
570.23	1691.62
570.43	1751.01
570.62	1769.44
570.82	1843.17
571.01	1695.72
571.21	1722.34
571.40	1746.92
571.60	1767.40
571.79	1773.54
571.99	1767.40
572.18	1701.86
572.38	1779.68
572.57	1791.97
572.77	1910.75
572.96	1927.14
573.16	1812.45
573.35	1783.78
573.55	1837.03
573.74	1763.30
573.94	1763.30
574.13	1732.58
574.33	1875.94
574.52	1757.16
574.71	1728.49
574.91	1761.25
575.10	1624.04
575.30	1718.25
575.49	1708.01
575.69	1605.61
575.88	1751.01
576.08	1697.77
576.27	1726.44
576.47	1712.10
576.66	1920.99
576.86	1832.93
577.05	1701.86
577.25	1841.12
577.44	1871.84
577.64	1734.63
577.83	1804.26
578.02	1697.77
578.22	1812.45
578.41	1806.31
578.61	1751.01
578.80	1671.14
579.00	1787.88
579.19	1753.06
579.39	1843.17
579.58	1777.64
579.77	1771.49
579.97	1812.45
580.16	1916.90
580.36	1884.13
580.55	1810.40
580.75	1849.32
580.94	1773.54
581.13	1961.95
581.33	1783.78
581.52	1734.63
581.72	1812.45
581.91	1904.61
582.11	1695.72
582.30	1861.60
582.49	1841.12
582.69	1888.23
582.88	1812.45
583.08	1812.45
583.27	1861.60
583.47	1777.64
583.66	1755.11
583.85	1681.38
584.05	1769.44
584.24	1820.64
584.44	1730.53
584.63	1865.70
584.82	1830.88
585.02	1781.73
585.21	1839.08
585.41	1857.51
585.60	1861.60
585.79	1939.43
585.99	1978.34
586.18	1918.95
586.37	2107.36
586.57	3377.10
586.76	10012.52
586.96	24610.44
587.15	34448.88
587.34	40035.74
587.54	42055.04
587.73	36478.42
587.93	26373.74
588.12	21862.07
588.31	18255.59
588.51	16275.21
588.70	14964.51
588.89	14124.84
589.09	12615.49
589.28	11059.03
589.47	9367.41
589.67	7991.17
589.86	6303.65
590.06	5089.20
590.25	3960.77
590.44	3110.86
590.64	2582.49
590.83	2277.34
591.02	2115.55
591.22	1996.77
591.41	1968.10
591.60	1802.21
591.80	1902.56
591.99	1742.82
592.18	1841.12
592.38	1906.66
592.57	1837.03
592.76	1728.49
592.96	1804.26
593.15	1798.12
593.34	1810.40
593.54	1665.00
593.73	1853.41
593.92	1779.68
594.12	1742.82
594.31	1808.36
594.50	1814.50
594.70	1791.97
594.89	1886.18
595.08	1697.77
595.28	1775.59
595.47	1865.70
595.66	1804.26
595.86	1812.45
596.05	1740.77
596.24	1742.82
596.43	1923.04
596.63	1810.40
596.82	1744.87
597.01	1806.31
597.21	1824.74
597.40	1822.69
597.59	1708.01
597.79	1744.87
597.98	1787.88
598.17	1820.64
598.36	1820.64
598.56	1746.92
598.75	1710.05
598.94	1742.82
599.14	1726.44
599.33	1658.85
599.52	1730.53
599.71	1806.31
599.91	1822.69
600.10	1769.44
600.29	1703.91
600.48	1767.40
600.68	1716.20
600.87	1855.46
601.06	1683.43
601.26	1777.64
601.45	1767.40
601.64	1744.87
601.83	1830.88
602.03	1716.20
602.22	1724.39
602.41	1902.56
602.60	1904.61
602.80	1851.36
602.99	1808.36
603.18	1685.48
603.37	1759.21
603.57	1722.34
603.76	1820.64
603.95	1828.84
604.14	1746.92
604.34	1689.57
604.53	1789.92
604.72	1765.35
604.91	1746.92
605.10	1757.16
605.30	1705.96
605.49	1886.18
605.68	1783.78
605.87	1775.59
606.07	1714.15
606.26	1781.73
606.45	1742.82
606.64	1689.57
606.84	1681.38
607.03	1697.77
607.22	1808.36
607.41	1759.21
607.60	1724.39
607.80	1765.35
607.99	1679.33
608.18	1712.10
608.37	1763.30
608.56	1681.38
608.76	1812.45
608.95	1812.45
609.14	1648.61
609.33	1775.59
609.52	1751.01
609.72	1748.97
609.91	1746.92
610.10	1753.06
610.29	1798.12
610.48	1896.42
610.68	1812.45
610.87	1787.88
611.06	1798.12
611.25	1648.61
611.44	1796.07
611.63	1660.90
611.83	1804.26
612.02	1718.25
612.21	1837.03
612.40	1585.13
612.59	1726.44
612.79	1619.94
612.98	1767.40
613.17	1810.40
613.36	1755.11
613.55	1843.17
613.74	1654.76
613.93	1683.43
614.13	1654.76
614.32	1757.16
614.51	1822.69
614.70	1669.09
614.89	1738.73
615.08	1798.12
615.28	2062.30
615.47	1675.24
615.66	1734.63
615.85	1767.40
616.04	1804.26
616.23	1685.48
616.42	1773.54
616.62	1701.86
616.81	1783.78
617.00	1728.49
617.19	1791.97
617.38	1699.81
617.57	1748.97
617.76	1759.21
617.95	1781.73
618.15	1693.67
618.34	1816.55
618.53	1628.14
618.72	1746.92
618.91	1855.46
619.10	1781.73
619.29	1734.63
619.48	1746.92
619.68	1740.77
619.87	1734.63
620.06	1656.81
620.25	1816.55
620.44	1648.61
620.63	1720.29
620.82	1738.73
621.01	1787.88
621.20	1759.21
621.39	1789.92
621.59	1779.68
621.78	1632.23
621.97	1796.07
622.16	1724.39
622.35	1718.25
622.54	1787.88
622.73	1816.55
622.92	1720.29
623.11	1781.73
623.30	1677.29
623.49	1746.92
623.68	1693.67
623.88	1722.34
624.07	1718.25
624.26	1712.10
624.45	1777.64
624.64	1742.82
624.83	1785.83
625.02	1718.25
625.21	1730.53
625.40	1785.83
625.59	1779.68
625.78	1710.05
625.97	1798.12
626.16	1851.36
626.35	1730.53
626.54	1671.14
626.74	1804.26
626.93	1746.92
627.12	1726.44
627.31	1730.53
627.50	1701.86
627.69	1712.10
627.88	1718.25
628.07	1712.10
628.26	1662.95
628.45	1720.29
628.64	1642.47
628.83	1775.59
629.02	1642.47
629.21	1740.77
629.40	1740.77
629.59	1695.72
629.78	1710.05
629.97	1806.31
630.16	1787.88
630.35	1728.49
630.54	1724.39
630.73	1728.49
630.92	1789.92
631.11	1634.28
631.30	1744.87
631.49	1787.88
631.68	1648.61
631.87	1685.48
632.06	1677.29
632.25	1865.70
632.44	1732.58
632.63	1730.53
632.82	1632.23
633.01	1658.85
633.20	1730.53
633.39	1636.33
633.58	1685.48
633.77	1777.64
633.96	1736.68
634.15	1769.44
634.34	1701.86
634.53	1722.34
634.72	1626.09
634.91	1710.05
635.10	1732.58
635.29	1724.39
635.48	1705.96
635.67	1685.48
635.86	1689.57
636.05	1773.54
636.24	1710.05
636.43	1765.35
636.62	1699.81
636.81	1521.64
637.00	1744.87
637.19	1740.77
637.38	1695.72
637.57	1730.53
637.76	1697.77
637.95	1703.91
638.14	1708.01
638.33	1677.29
638.52	1748.97
638.71	1697.77
638.89	1654.76
639.08	1826.79
639.27	1722.34
639.46	1671.14
639.65	1796.07
639.84	1724.39
640.03	1763.30
640.22	1697.77
640.41	1873.89
640.60	1650.66
640.79	1685.48
640.98	1720.29
641.17	1804.26
641.36	1730.53
641.55	1703.91
641.74	1640.42
641.92	1699.81
642.11	1642.47
642.30	1671.14
642.49	1595.37
642.68	1710.05
642.87	1697.77
643.06	1755.11
643.25	1775.59
643.44	1611.75
643.63	1742.82
643.82	1783.78
644.00	1648.61
644.19	1773.54
644.38	1662.95
644.57	1808.36
644.76	1800.16
644.95	1667.05
645.14	1718.25
645.33	1722.34
645.52	1695.72
645.71	1644.52
645.89	1673.19
646.08	1619.94
646.27	1662.95
646.46	1808.36
646.65	1638.38
646.84	1812.45
647.03	1677.29
647.22	1863.65
647.40	1689.57
647.59	1765.35
647.78	1738.73
647.97	1619.94
648.16	1775.59
648.35	1839.08
648.54	1757.16
648.73	1708.01
648.91	1742.82
649.10	1744.87
649.29	1621.99
649.48	1705.96
649.67	1712.10
649.86	1697.77
650.05	1763.30
650.23	1775.59
650.42	1652.71
650.61	1718.25
650.80	1716.20
650.99	1855.46
651.18	1779.68
651.36	1683.43
651.55	1699.81
651.74	1857.51
651.93	1638.38
652.12	1691.62
652.31	1746.92
652.49	1693.67
652.68	1697.77
652.87	1812.45
653.06	1705.96
653.25	1775.59
653.44	1726.44
653.62	1785.83
653.81	1755.11
654.00	1644.52
654.19	1753.06
654.38	1806.31
654.56	1791.97
654.75	1689.57
654.94	1740.77
655.13	1751.01
655.32	1626.09
655.51	1869.80
655.69	1648.61
655.88	1753.06
656.07	1656.81
656.26	1744.87
656.45	1630.18
656.63	1730.53
656.82	1701.86
657.01	1751.01
657.20	1726.44
657.38	1863.65
657.57	1722.34
657.76	1673.19
657.95	1722.34
658.14	1746.92
658.32	1714.15
658.51	1675.24
658.70	1722.34
658.89	1701.86
659.08	1728.49
659.26	1849.32
659.45	1673.19
659.64	1796.07
659.83	1669.09
660.01	1937.38
660.20	1699.81
660.39	1759.21
660.58	1578.98
660.76	1734.63
660.95	1710.05
661.14	1791.97
661.33	1669.09
661.51	1685.48
661.70	1703.91
661.89	1714.15
662.08	1714.15
662.26	1644.52
662.45	1681.38
662.64	1839.08
662.83	1841.12
663.01	1730.53
663.20	1734.63
663.39	1759.21
663.58	1705.96
663.76	1650.66
663.95	1746.92
664.14	1669.09
664.32	1708.01
664.51	1777.64
664.70	1697.77
664.89	1816.55
665.07	1691.62
665.26	1853.41
665.45	1685.48
665.64	1708.01
665.82	1740.77
666.01	1769.44
666.20	1687.53
666.38	1789.92
666.57	1787.88
666.76	2230.24
666.95	4556.73
667.13	10532.70
667.32	15308.57
667.51	17950.45
667.69	19193.56
667.88	17860.34
668.07	12361.54
668.25	9727.85
668.44	8345.47
668.63	7516.05
668.81	6913.94
669.00	6268.83
669.19	5695.40
669.38	5240.75
669.56	4677.56
669.75	4032.45
669.94	3487.69
670.12	2850.77
670.31	2555.86
670.50	2285.53
670.68	2160.61
670.87	1935.33
671.06	1820.64
671.24	1798.12
671.43	1849.32
671.62	1781.73
671.80	1783.78
671.99	1781.73
672.18	1705.96
672.36	1767.40
672.55	1789.92
672.74	1601.51
672.92	1695.72
673.11	1794.02
673.29	1699.81
673.48	1736.68
673.67	1740.77
673.85	1904.61
674.04	1728.49
674.23	1769.44
674.41	1787.88
674.60	1665.00
674.79	1681.38
674.97	1658.85
675.16	1712.10
675.34	1804.26
675.53	1734.63
675.72	1841.12
675.90	1802.21
676.09	1769.44
676.28	1724.39
676.46	1638.38
676.65	1763.30
676.83	1658.85
677.02	1742.82
677.21	1726.44
677.39	1781.73
677.58	1615.85
677.77	1763.30
677.95	1714.15
678.14	1638.38
678.32	1671.14
678.51	1632.23
678.70	1820.64
678.88	1757.16
679.07	1644.52
679.25	1650.66
679.44	1724.39
679.63	1697.77
679.81	1732.58
680.00	1775.59
680.18	1687.53
680.37	1816.55
680.55	1753.06
680.74	1624.04
680.93	1654.76
681.11	1693.67
681.30	1730.53
681.48	1773.54
681.67	1730.53
681.85	1644.52
682.04	1691.62
682.23	1759.21
682.41	1783.78
682.60	1642.47
682.78	1714.15
682.97	1714.15
683.15	1724.39
683.34	1732.58
683.53	1726.44
683.71	1652.71
683.90	1748.97
684.08	1824.74
684.27	1705.96
684.45	1701.86
684.64	1769.44
684.82	1687.53
685.01	1724.39
685.19	1740.77
685.38	1877.99
685.57	1691.62
685.75	1738.73
685.94	1716.20
686.12	1681.38
686.31	1685.48
686.49	1767.40
686.68	1697.77
686.86	1779.68
687.05	1708.01
687.23	1759.21
687.42	1763.30
687.60	1660.90
687.79	1785.83
687.97	1769.44
688.16	1681.38
688.34	1851.36
688.53	1662.95
688.71	1738.73
688.90	1826.79
689.08	1689.57
689.27	1699.81
689.45	1691.62
689.64	1791.97
689.82	1794.02
690.01	1757.16
690.19	1773.54
690.38	1677.29
690.56	1794.02
690.75	1638.38
690.93	1681.38
691.12	1689.57
691.30	1775.59
691.49	1644.52
691.67	1675.24
691.86	1771.49
692.04	1708.01
692.23	1685.48
692.41	1681.38
692.60	1839.08
692.78	1800.16
692.97	1710.05
693.15	1775.59
693.34	1824.74
693.52	1779.68
693.71	1701.86
693.89	1667.05
694.08	1605.61
694.26	1839.08
694.44	1755.11
694.63	1718.25
694.81	1665.00
695.00	1665.00
695.18	1847.27
695.37	1771.49
695.55	1761.25
695.74	1685.48
695.92	1689.57
696.10	1779.68
696.29	1658.85
696.47	1648.61
696.66	1665.00
696.84	1660.90
697.03	1744.87
697.21	1871.84
697.40	2230.24
697.58	1800.16
697.76	1679.33
697.95	1648.61
698.13	1671.14
698.32	1621.99
698.50	1746.92
698.68	1769.44
698.87	1673.19
699.05	1755.11
699.24	1699.81
699.42	1687.53
699.61	1773.54
699.79	1787.88
699.97	1746.92
700.16	1646.57
700.34	1679.33
700.53	1714.15
700.71	1800.16
700.89	1816.55
701.08	1767.40
701.26	1654.76
701.45	2140.13
701.63	1656.81
701.81	1695.72
702.00	1613.80
702.18	1755.11
702.37	1701.86
702.55	1822.69
702.73	1738.73
702.92	1660.90
703.10	1783.78
703.28	1748.97
703.47	1726.44
703.65	1728.49
703.84	1757.16
704.02	1638.38
704.20	1789.92
704.39	1595.37
704.57	1763.30
704.75	1640.42
704.94	1816.55
705.12	1718.25
705.30	1806.31
705.49	2283.49
705.67	4394.94
705.86	9312.11
706.04	12500.80
706.22	14575.39
706.41	15525.65
706.59	13889.32
706.77	9572.21
706.96	7335.82
707.14	6623.13
707.32	5965.73
707.51	5666.73
707.69	4958.13
707.87	4165.57
708.06	3420.11
708.24	2944.98
708.42	2545.63
708.61	2242.53
708.79	1923.04
708.97	1904.61
709.16	1867.75
709.34	1691.62
709.52	1785.83
709.71	1761.25
709.89	1789.92
710.07	1710.05
710.26	1609.70
710.44	1763.30
710.62	1779.68
710.80	1714.15
710.99	1755.11
711.17	1708.01
711.35	1656.81
711.54	1746.92
711.72	1730.53
711.90	1837.03
712.09	1742.82
712.27	1673.19
712.45	1720.29
712.63	1613.80
712.82	1646.57
713.00	1699.81
713.18	1687.53
713.37	1724.39
713.55	1734.63
713.73	1753.06
713.91	1740.77
714.10	1644.52
714.28	1658.85
714.46	1601.51
714.65	1740.77
714.83	1714.15
715.01	1679.33
715.19	1703.91
715.38	1681.38
715.56	1783.78
715.74	1667.05
715.92	1650.66
716.11	1763.30
716.29	1630.18
716.47	1720.29
716.65	1648.61
716.84	1640.42
717.02	1740.77
717.20	1558.50
717.38	1736.68
717.57	1716.20
717.75	1648.61
717.93	1630.18
718.11	1722.34
718.30	1566.70
718.48	1714.15
718.66	1675.24
718.84	1794.02
719.03	1695.72
719.21	1621.99
719.39	1818.60
719.57	1773.54
719.75	1824.74
719.94	1689.57
720.12	1771.49
720.30	1767.40
720.48	1775.59
720.67	1736.68
720.85	1624.04
721.03	1730.53
721.21	1671.14
721.39	1732.58
721.58	1724.39
721.76	1654.76
721.94	1699.81
722.12	1703.91
722.30	1865.70
722.49	1724.39
722.67	1708.01
722.85	1767.40
723.03	1671.14
723.21	1683.43
723.40	1693.67
723.58	1755.11
723.76	1687.53
723.94	1798.12
724.12	1765.35
724.30	1814.50
724.49	1724.39
724.67	1722.34
724.85	1783.78
725.03	1646.57
725.21	1726.44
725.40	1798.12
725.58	1689.57
725.76	1746.92
725.94	1796.07
726.12	1632.23
726.30	1746.92
726.49	1732.58
726.67	1730.53
726.85	1832.93
727.03	1753.06
727.21	2123.74
727.39	2977.75
727.57	3977.16
727.76	4147.14
727.94	4599.74
728.12	4474.81
728.30	3622.86
728.48	3112.91
728.66	2846.68
728.84	2576.34
729.03	2377.69
729.21	2183.13
729.39	2070.50
729.57	1914.85
729.75	1845.22
729.93	1822.69
730.11	1718.25
730.30	1720.29
730.48	1654.76
730.66	1855.46
730.84	1798.12
731.02	1685.48
731.20	1722.34
731.38	1720.29
731.56	1662.95
731.74	1681.38
731.93	1732.58
732.11	1675.24
732.29	1759.21
732.47	1691.62
732.65	1734.63
732.83	1728.49
733.01	1681.38
733.19	1742.82
733.37	1734.63
733.56	1701.86
733.74	1626.09
733.92	1796.07
734.10	1714.15
734.28	1734.63
734.46	1654.76
734.64	1769.44
734.82	1710.05
735.00	1699.81
735.18	1769.44
735.36	1671.14
735.54	1611.75
735.73	1767.40
735.91	1665.00
736.09	1775.59
736.27	1679.33
736.45	1716.20
736.63	1587.18
736.81	1646.57
736.99	1824.74
737.17	1781.73
737.35	1673.19
737.53	1765.35
737.71	1724.39
737.89	1845.22
738.07	1650.66
738.25	1689.57
738.43	1609.70
738.61	1767.40
738.80	1701.86
738.98	1646.57
739.16	1665.00
739.34	1710.05
739.52	1812.45
739.70	1662.95
739.88	1826.79
740.06	1734.63
740.24	1572.84
740.42	1744.87
740.60	1632.23
740.78	1710.05
740.96	1636.33
741.14	1697.77
741.32	1718.25
741.50	1632.23
741.68	1873.89
741.86	1820.64
742.04	1681.38
742.22	1644.52
742.40	1693.67
742.58	1748.97
742.76	1636.33
742.94	1722.34
743.12	1697.77
743.30	1675.24
743.48	1738.73
743.66	1636.33
743.84	1787.88
744.02	1677.29
744.20	1771.49
744.38	1650.66
744.56	1716.20
744.74	1753.06
744.92	1722.34
745.10	1802.21
745.28	1753.06
745.46	1746.92
745.64	1740.77
745.82	1757.16
746.00	1742.82
746.18	1726.44
746.36	1656.81
746.54	1714.15
746.72	1726.44
746.90	1681.38
747.08	1824.74
747.26	1703.91
747.44	1693.67
747.62	1742.82
747.80	1734.63
747.98	1744.87
748.15	1665.00
748.33	1753.06
748.51	1658.85
748.69	1791.97
748.87	1689.57
749.05	1710.05
749.23	1720.29
749.41	1742.82
749.59	1748.97
749.77	1732.58
749.95	1648.61
750.13	1705.96
750.31	1816.55
750.49	1708.01
750.67	1753.06
750.85	1812.45
751.03	1718.25
751.20	1841.12
751.38	1744.87
751.56	1705.96
751.74	1804.26
751.92	1671.14
752.10	1626.09
752.28	1808.36
752.46	1658.85
752.64	1636.33
752.82	1740.77
753.00	1773.54
753.18	1671.14
753.35	1675.24
753.53	1693.67
753.71	1689.57
753.89	1794.02
754.07	1755.11
754.25	1798.12
754.43	1665.00
754.61	1628.14
754.79	1753.06
754.97	1689.57
755.14	1783.78
755.32	1589.22
755.50	1662.95
755.68	1738.73
755.86	1644.52
756.04	1617.90
756.22	1607.66
756.40	1845.22
756.57	1724.39
756.75	1652.71
756.93	1796.07
757.11	1802.21
757.29	1628.14
757.47	1595.37
757.65	1603.56
757.82	1634.28
758.00	1648.61
758.18	1650.66
758.36	1667.05
758.54	1822.69
758.72	1615.85
758.90	1767.40
759.07	1687.53
759.25	1665.00
759.43	1722.34
759.61	1648.61
759.79	2224.09
759.97	1728.49
760.15	1652.71
760.32	1751.01
760.50	1757.16
760.68	1796.07
760.86	1619.94
761.04	1869.80
761.22	1753.06
761.39	1710.05
761.57	1857.51
761.75	1755.11
761.93	1738.73
762.11	1648.61
762.28	1757.16
762.46	1697.77
762.64	1789.92
762.82	1650.66
763.00	1644.52
763.18	1769.44
763.35	1624.04
763.53	1689.57
763.71	1722.34
763.89	1654.76
764.07	1712.10
764.24	1669.09
764.42	1744.87
764.60	1722.34
764.78	1759.21
764.96	1771.49
765.13	1691.62
765.31	1701.86
765.49	1722.34
765.67	1619.94
765.84	1701.86
766.02	1671.14
766.20	1607.66
766.38	1736.68
766.56	1679.33
766.73	1656.81
766.91	1757.16
767.09	1699.81
767.27	1726.44
767.44	1665.00
767.62	1710.05
767.80	1726.44
767.98	1669.09
768.15	1767.40
768.33	1777.64
768.51	1763.30
768.69	1759.21
768.87	1738.73
769.04	1744.87
769.22	1857.51
769.40	1828.84
769.58	1900.52
769.75	1802.21
769.93	1783.78
770.11	1701.86
770.28	1665.00
770.46	1732.58
770.64	1683.43
770.82	1722.34
770.99	1681.38
771.17	1726.44
771.35	1720.29
771.53	1681.38
771.70	1708.01
771.88	1753.06
772.06	1720.29
772.23	1699.81
772.41	1812.45
772.59	1728.49
772.77	1642.47
772.94	1675.24
773.12	1722.34
773.30	1683.43
773.47	1769.44
773.65	1656.81
773.83	1740.77
774.01	1710.05
774.18	1632.23
774.36	1744.87
774.54	1644.52
774.71	1730.53
774.89	1648.61
775.07	1701.86
775.24	1705.96
775.42	1662.95
775.60	1816.55
775.78	1671.14
775.95	1632.23
776.13	1652.71
776.31	1619.94
776.48	1794.02
776.66	1765.35
776.84	1689.57
777.01	1646.57
777.19	1673.19
777.37	1701.86
777.54	1730.53
777.72	1716.20
777.90	1796.07
778.07	1648.61
778.25	1875.94
778.43	1730.53
778.60	1689.57
778.78	1783.78
778.96	1771.49
779.13	1646.57
779.31	1767.40
779.49	1777.64
779.66	1675.24
779.84	1650.66
780.01	1746.92
780.19	1658.85
780.37	1798.12
780.54	1794.02
780.72	1679.33
780.90	1722.34
781.07	1677.29
781.25	1693.67
781.43	1738.73
781.60	1699.81
781.78	1753.06
781.95	1708.01
782.13	1665.00
782.31	1691.62
782.48	1591.27
782.66	1720.29
782.83	1781.73
783.01	1712.10
783.19	1736.68
783.36	1771.49
783.54	1671.14
783.72	1691.62
783.89	1716.20
784.07	1675.24
784.24	1759.21
784.42	1877.99
784.60	1656.81
784.77	1714.15
784.95	1605.61
785.12	1716.20
785.30	1742.82
785.47	1636.33
785.65	1648.61
785.83	1767.40
786.00	1650.66
786.18	1632.23
786.35	1615.85
786.53	1667.05
786.71	1716.20
786.88	1748.97
787.06	1716.20
787.23	1742.82
787.41	1660.90
787.58	1701.86
787.76	1691.62
787.94	1710.05
788.11	1722.34
788.29	1679.33
788.46	1710.05
788.64	1605.61
788.81	1691.62
788.99	1636.33
789.16	1671.14
789.34	1767.40
789.52	1671.14
789.69	1755.11
789.87	1570.79
790.04	1718.25
790.22	1732.58
790.39	1773.54
790.57	1687.53
790.74	1636.33
790.92	1732.58
791.09	1632.23
791.27	1787.88
791.44	1738.73
791.62	1685.48
791.79	1763.30
791.97	1740.77
792.15	1884.13
792.32	1714.15
792.50	1738.73
792.67	1746.92
792.85	1791.97
793.02	1628.14
793.20	1683.43
793.37	1632.23
793.55	1751.01
793.72	1714.15
793.90	1834.98
794.07	1699.81
794.25	1660.90
794.42	1667.05
794.60	1660.90
794.77	1802.21
794.95	1734.63
795.12	1738.73
795.30	1656.81
795.47	1632.23
795.65	1834.98
795.82	1855.46
796.00	1669.09
796.17	1765.35
796.34	1697.77
796.52	1677.29
796.69	1773.54
796.87	1755.11
797.04	1773.54
797.22	1742.82
797.39	1720.29
797.57	1726.44
797.74	1757.16
797.92	1744.87
798.09	1667.05
798.27	1769.44
798.44	1722.34
798.62	1621.99
798.79	1757.16
798.96	1705.96
799.14	1699.81
799.31	1843.17
799.49	1656.81
799.66	1648.61
799.84	1810.40
800.01	1667.05
800.19	1730.53
800.36	1658.85
800.53	1738.73
800.71	1748.97
800.88	1751.01
801.06	1669.09
801.23	1705.96
801.41	1730.53
801.58	1656.81
801.75	1609.70
801.93	1675.24
802.10	1734.63
802.28	1722.34
802.45	1685.48
802.63	1761.25
802.80	1757.16
802.97	1742.82
803.15	1712.10
803.32	1628.14
803.50	1609.70
803.67	1654.76
803.84	1607.66
804.02	1685.48
804.19	1738.73
804.37	1597.42
804.54	1687.53
804.71	1677.29
804.89	1728.49
805.06	1583.08
805.24	1595.37
805.41	1626.09
805.58	1677.29
805.76	1886.18
805.93	1703.91
806.10	1748.97
806.28	1757.16
806.45	1748.97
806.63	1740.77
806.80	1710.05
806.97	1769.44
807.15	1662.95
807.32	1708.01
807.49	1650.66
807.67	1675.24
807.84	1685.48
808.01	1619.94
808.19	1925.09
808.36	1906.66
808.54	1644.52
808.71	1669.09
808.88	1736.68
809.06	1681.38
809.23	1771.49
809.40	1656.81
809.58	1787.88
809.75	1710.05
809.92	1607.66
810.10	1839.08
810.27	1697.77
810.44	1718.25
810.62	1708.01
810.79	1804.26
810.96	1767.40
811.14	1665.00
811.31	1765.35
811.48	1779.68
811.66	1662.95
811.83	1732.58
812.00	1732.58
812.18	1726.44
812.35	1845.22
812.52	1767.40
812.69	1771.49
812.87	1656.81
813.04	1705.96
813.21	1615.85
813.39	1665.00
813.56	1636.33
813.73	1724.39
813.91	1624.04
814.08	1767.40
814.25	1730.53
814.42	1685.48
814.60	1691.62
814.77	1695.72
814.94	1644.52
815.12	1742.82
815.29	1800.16
815.46	1646.57
815.63	1728.49
815.81	1689.57
815.98	1572.84
816.15	1710.05
816.33	1636.33
816.50	1677.29
816.67	1732.58
816.84	1673.19
817.02	1726.44
817.19	1667.05
817.36	1738.73
817.53	1767.40
817.71	1705.96
817.88	1714.15
818.05	1730.53
818.22	1636.33
818.40	1753.06
818.57	1689.57
818.74	1734.63
818.91	1714.15
819.09	1757.16
819.26	1710.05
819.43	1685.48
819.60	1738.73
819.78	1718.25
819.95	1775.59
820.12	1650.66
820.29	1845.22
820.47	1783.78
820.64	1693.67
820.81	1585.13
820.98	1718.25
821.15	1726.44
821.33	1693.67
821.50	1628.14
821.67	1660.90
821.84	1695.72
822.02	1791.97
822.19	1736.68
822.36	1687.53
822.53	1640.42
822.70	1667.05
822.88	1697.77
823.05	1810.40
823.22	1710.05
823.39	1726.44
823.56	1640.42
823.74	1785.83
823.91	1673.19
824.08	1654.76
824.25	1617.90
824.42	1751.01
824.60	1624.04
824.77	1662.95
824.94	1679.33
825.11	1642.47
825.28	1615.85
825.45	1765.35
825.63	1626.09
825.80	1591.27
825.97	1763.30
826.14	1699.81
826.31	1583.08
826.48	1705.96
826.66	1665.00
826.83	1703.91
827.00	1703.91
827.17	1738.73
827.34	1665.00
827.51	1652.71
827.69	1650.66
827.86	1648.61
828.03	1714.15
828.20	1755.11
828.37	1687.53
828.54	1675.24
828.71	1644.52
828.89	1804.26
829.06	1744.87
829.23	1734.63
829.40	1679.33
829.57	1638.38
829.74	1771.49
829.91	1652.71
830.09	1687.53
830.26	1755.11
830.43	1798.12
830.60	1673.19
830.77	1712.10
830.94	1724.39
831.11	1677.29
831.28	1783.78
831.46	1761.25
831.63	1683.43
831.80	1839.08
831.97	1677.29
832.14	1736.68
832.31	1714.15
832.48	1738.73
832.65	1767.40
832.82	1691.62
832.99	1783.78
833.17	1613.80
833.34	1773.54
833.51	1734.63
833.68	1660.90
833.85	1720.29
834.02	1669.09
834.19	1632.23
834.36	1646.57
834.53	1800.16
834.70	1802.21
834.87	1796.07
835.04	1732.58
835.22	1652.71
835.39	1751.01
835.56	1679.33
835.73	1730.53
835.90	1767.40
836.07	1648.61
836.24	1753.06
836.41	1630.18
836.58	1646.57
836.75	1732.58
836.92	1763.30
837.09	1673.19
837.26	1779.68
837.43	1730.53
837.60	1748.97
837.77	1705.96
837.94	1724.39
838.12	1710.05
838.29	1759.21
838.46	1626.09
838.63	1701.86
838.80	1830.88
838.97	1705.96
839.14	1751.01
839.31	1683.43
839.48	1765.35
839.65	1671.14
839.82	1671.14
839.99	1687.53
840.16	1660.90
840.33	1628.14
840.50	1675.24
840.67	1658.85
840.84	1560.55
841.01	1699.81
841.18	1697.77
841.35	1718.25
841.52	1730.53
841.69	1779.68
841.86	1746.92
842.03	1714.15
842.20	1771.49
842.37	1730.53
842.54	1734.63
842.71	1660.90
842.88	1665.00
843.05	1755.11
843.22	1701.86
843.39	1771.49
843.56	1687.53
843.73	1712.10
843.90	1708.01
844.07	1689.57
844.24	1787.88
844.41	1732.58
844.58	1728.49
844.75	1742.82
844.92	1812.45
845.09	1710.05
845.26	1695.72
845.43	1708.01
845.60	1693.67
845.77	1724.39
845.94	1732.58
846.10	1730.53
846.27	1685.48
846.44	1660.90
846.61	1683.43
846.78	1716.20
846.95	1726.44
847.12	1765.35
847.29	1642.47
847.46	1751.01
847.63	1705.96
847.80	1730.53
847.97	1705.96
848.14	1812.45
848.31	1667.05
848.48	1665.00
848.65	1708.01
848.82	1671.14
848.98	1824.74
849.15	1718.25
849.32	1757.16
849.49	1724.39
849.66	1712.10
849.83	1677.29
850.00	1632.23
850.17	1689.57
850.34	1683.43
850.51	1734.63
850.68	1654.76
850.85	1773.54
851.01	1695.72
851.18	1720.29
851.35	1730.53
851.52	1734.63
851.69	1796.07
851.86	1687.53
852.03	1634.28
852.20	1744.87
852.37	1691.62
852.53	1611.75
852.70	1740.77
852.87	1689.57
853.04	1693.67
853.21	1671.14
853.38	1720.29
853.55	1753.06
853.72	1859.56
853.89	1644.52
854.05	1650.66
854.22	1681.38
854.39	1728.49
854.56	1691.62
854.73	1822.69
854.90	1681.38
855.07	1759.21
855.23	1683.43
855.40	1708.01
855.57	1683.43
855.74	1535.98
855.91	1857.51
856.08	1611.75
856.25	1552.36
856.41	1660.90
856.58	1683.43
856.75	1742.82
856.92	1644.52
857.09	1726.44
857.26	1619.94
857.42	1638.38
857.59	1761.25
857.76	1652.71
857.93	1654.76
858.10	1732.58
858.27	1595.37
858.43	1720.29
858.60	1640.42
858.77	1662.95
858.94	1718.25
859.11	1734.63
859.27	1722.34
859.44	1748.97
859.61	1785.83
859.78	1802.21
859.95	1730.53
860.12	1665.00
860.28	1855.46
860.45	1853.41
860.62	1662.95
860.79	1714.15
860.95	1716.20
861.12	1710.05
861.29	1675.24
861.46	1626.09
861.63	1726.44
861.79	1718.25
861.96	1662.95
862.13	1773.54
862.30	1759.21
862.47	1738.73
862.63	1669.09
862.80	1851.36
862.97	1759.21
863.14	1630.18
863.30	1734.63
863.47	1699.81
863.64	1826.79
863.81	1681.38
863.97	1712.10
864.14	1751.01
864.31	1658.85
864.48	1675.24
864.65	1683.43
864.81	1798.12
864.98	1763.30
865.15	1779.68
865.32	1767.40
865.48	1751.01
865.65	1849.32
865.82	1640.42
865.98	1732.58
866.15	1736.68
866.32	1734.63
866.49	1691.62
866.65	1777.64
866.82	1730.53
866.99	1744.87
867.16	1640.42
867.32	1701.86
867.49	1693.67
867.66	1695.72
867.83	1722.34
867.99	1693.67
868.16	1585.13
868.33	1613.80
868.49	1697.77
868.66	1693.67
868.83	1720.29
868.99	1689.57
869.16	1755.11
869.33	1738.73
869.50	1673.19
869.66	1724.39
869.83	1708.01
870.00	1697.77
870.16	1746.92
870.33	1705.96
870.50	1732.58
870.66	1669.09
870.83	1763.30
871.00	1669.09
871.17	1765.35
871.33	1753.06
871.50	1638.38
871.67	1648.61
871.83	1708.01
872.00	1800.16
872.17	1798.12
872.33	1832.93
872.50	1820.64
872.67	1751.01
872.83	1648.61
873.00	1656.81
873.17	1697.77
873.33	1771.49
873.50	1849.32
873.67	1624.04
873.83	1683.43
874.00	1728.49
874.16	1722.34
874.33	1642.47
874.50	1611.75
874.66	1775.59
874.83	1798.12
875.00	1781.73
875.16	1812.45
875.33	1832.93
875.50	1566.70
875.66	1691.62
875.83	1767.40
875.99	1751.01
876.16	1693.67
876.33	1621.99
876.49	1665.00
876.66	1705.96
876.83	1757.16
876.99	1660.90
877.16	1730.53
877.32	1685.48
877.49	1705.96
877.66	1771.49
877.82	1837.03
877.99	1753.06
878.15	1718.25
878.32	1695.72
878.49	1736.68
878.65	1708.01
878.82	1738.73
878.98	1675.24
879.15	1687.53
879.32	1791.97
879.48	1738.73
879.65	1677.29
879.81	1603.56
879.98	1693.67
880.15	1638.38
880.31	1734.63
880.48	1658.85
880.64	1775.59
880.81	1724.39
880.97	1855.46
881.14	1722.34
881.31	1634.28
881.47	1789.92
881.64	1804.26
881.80	1699.81
881.97	1728.49
882.13	1779.68
882.30	1716.20
882.47	1705.96
882.63	1669.09
882.80	1685.48
882.96	1722.34
883.13	1751.01
883.29	1691.62
883.46	1699.81
883.62	1781.73
883.79	1683.43
883.95	1714.15
884.12	1691.62
884.29	1779.68
884.45	1751.01
884.62	1736.68
884.78	1665.00
884.95	1816.55
885.11	1595.37
885.28	1673.19
885.44	1626.09
885.61	1724.39
885.77	1847.27
885.94	1730.53
886.10	1732.58
886.27	1662.95
886.43	1800.16
886.60	1798.12
886.76	1675.24
886.93	1742.82
887.09	1779.68
887.26	1650.66
887.42	1746.92
887.59	1736.68
887.75	1828.84
887.92	1806.31
888.08	1738.73
888.25	1828.84
888.41	1683.43
888.58	1691.62
888.74	1658.85
888.91	1697.77
>>>>>End Processed Spectral Data<<<<<
