SpectraSuite Data File
++++++++++++++++++++++++++++++++++++
Date: Mon Jun 06 15:54:57 CEST 2016
User: root
Dark Spectrum Present: No
Reference Spectrum Present: No
Number of Sampled Component Spectra: 1
Spectrometers: USB4C02835
Integration Time (usec): 100000 (USB4C02835)
Spectra Averaged: 1 (USB4C02835)
Boxcar Smoothing: 0 (USB4C02835)
Correct for Electrical Dark: No (USB4C02835)
Strobe/Lamp Enabled: No (USB4C02835)
Correct for Detector Non-linearity: No (USB4C02835)
Correct for Stray Light: No (USB4C02835)
Number of Pixels in Processed Spectrum: 3648
>>>>>Begin Processed Spectral Data<<<<<
177.47	1474.54
177.69	1474.54
177.91	1474.54
178.13	1517.54
178.36	1454.06
178.58	1611.75
178.80	1783.78
179.02	1630.18
179.24	1724.39
179.46	1679.33
179.68	1740.77
179.90	1712.10
180.13	1695.72
180.35	1714.15
180.57	1673.19
180.79	1683.43
181.01	1705.96
181.23	1773.54
181.45	1708.01
181.67	1761.25
181.90	1681.38
182.12	1689.57
182.34	1619.94
182.56	1748.97
182.78	1740.77
183.00	1667.05
183.22	1738.73
183.44	1560.55
183.66	1869.80
183.89	1849.32
184.11	1759.21
184.33	1705.96
184.55	1738.73
184.77	1783.78
184.99	1722.34
185.21	1699.81
185.43	1863.65
185.65	1712.10
185.87	1673.19
186.10	1865.70
186.32	1959.91
186.54	1789.92
186.76	1671.14
186.98	1662.95
187.20	1763.30
187.42	1658.85
187.64	1734.63
187.86	1785.83
188.08	1759.21
188.30	1722.34
188.52	1650.66
188.75	1693.67
188.97	1832.93
189.19	1695.72
189.41	1665.00
189.63	1720.29
189.85	1667.05
190.07	1683.43
190.29	1662.95
190.51	1693.67
190.73	1652.71
190.95	1800.16
191.17	1681.38
191.39	1646.57
191.61	1689.57
191.84	1712.10
192.06	1806.31
192.28	1634.28
192.50	1877.99
192.72	1800.16
192.94	1648.61
193.16	1773.54
193.38	1726.44
193.60	1689.57
193.82	1691.62
194.04	1714.15
194.26	1751.01
194.48	1656.81
194.70	1683.43
194.92	1689.57
195.14	1800.16
195.36	1683.43
195.58	1759.21
195.80	1697.77
196.02	1626.09
196.24	1716.20
196.46	1673.19
196.69	1726.44
196.91	1914.85
197.13	1720.29
197.35	1654.76
197.57	1705.96
197.79	1736.68
198.01	1714.15
198.23	1722.34
198.45	1671.14
198.67	1595.37
198.89	1665.00
199.11	1791.97
199.33	1662.95
199.55	1564.65
199.77	1720.29
199.99	1779.68
200.21	1675.24
200.43	1634.28
200.65	1701.86
200.87	1624.04
201.09	1683.43
201.31	1675.24
201.53	1699.81
201.75	1658.85
201.97	1734.63
202.19	1667.05
202.41	1757.16
202.63	1812.45
202.85	1712.10
203.07	1746.92
203.29	1660.90
203.51	1634.28
203.73	1728.49
203.95	1837.03
204.17	1748.97
204.39	1755.11
204.61	1724.39
204.83	1679.33
205.05	1769.44
205.27	1755.11
205.49	1800.16
205.71	1748.97
205.93	1626.09
206.15	1640.42
206.37	1722.34
206.59	1693.67
206.81	1630.18
207.03	1732.58
207.25	1581.03
207.47	1738.73
207.69	1695.72
207.91	1693.67
208.13	1802.21
208.34	1667.05
208.56	1685.48
208.78	1738.73
209.00	1677.29
209.22	1730.53
209.44	1693.67
209.66	1738.73
209.88	1697.77
210.10	1748.97
210.32	1650.66
210.54	1736.68
210.76	1701.86
210.98	1699.81
211.20	1636.33
211.42	1724.39
211.64	1794.02
211.86	1714.15
212.08	1699.81
212.30	1705.96
212.52	1642.47
212.74	1746.92
212.96	1755.11
213.17	1734.63
213.39	1724.39
213.61	1871.84
213.83	1796.07
214.05	1607.66
214.27	1763.30
214.49	1662.95
214.71	1753.06
214.93	1779.68
215.15	1753.06
215.37	1755.11
215.59	1640.42
215.81	1755.11
216.03	1796.07
216.24	1673.19
216.46	1746.92
216.68	1669.09
216.90	1796.07
217.12	1689.57
217.34	1687.53
217.56	1662.95
217.78	1703.91
218.00	1693.67
218.22	1685.48
218.44	1695.72
218.66	1697.77
218.87	1810.40
219.09	1691.62
219.31	1761.25
219.53	1699.81
219.75	1718.25
219.97	1656.81
220.19	1746.92
220.41	1714.15
220.63	1763.30
220.85	1695.72
221.06	1681.38
221.28	1732.58
221.50	1687.53
221.72	1736.68
221.94	1652.71
222.16	1738.73
222.38	1806.31
222.60	1794.02
222.82	1640.42
223.03	1794.02
223.25	1615.85
223.47	1779.68
223.69	1765.35
223.91	1712.10
224.13	1665.00
224.35	1613.80
224.57	1693.67
224.78	1740.77
225.00	1658.85
225.22	1785.83
225.44	1673.19
225.66	1710.05
225.88	1636.33
226.10	1767.40
226.32	1681.38
226.53	1701.86
226.75	1705.96
226.97	1705.96
227.19	1732.58
227.41	1712.10
227.63	1638.38
227.85	1624.04
228.06	1712.10
228.28	1769.44
228.50	1767.40
228.72	1628.14
228.94	1763.30
229.16	1693.67
229.37	1648.61
229.59	1720.29
229.81	1779.68
230.03	1714.15
230.25	1656.81
230.47	1650.66
230.69	1724.39
230.90	1796.07
231.12	1675.24
231.34	1775.59
231.56	1724.39
231.78	1624.04
232.00	1728.49
232.21	1744.87
232.43	1677.29
232.65	1638.38
232.87	1734.63
233.09	1660.90
233.30	1656.81
233.52	1718.25
233.74	1679.33
233.96	1652.71
234.18	1726.44
234.40	1697.77
234.61	1798.12
234.83	1568.74
235.05	1675.24
235.27	1845.22
235.49	1779.68
235.70	1648.61
235.92	1808.36
236.14	1689.57
236.36	1837.03
236.58	1665.00
236.79	1810.40
237.01	1708.01
237.23	1708.01
237.45	1742.82
237.67	1742.82
237.88	1667.05
238.10	1767.40
238.32	1638.38
238.54	1701.86
238.76	1712.10
238.97	1654.76
239.19	1695.72
239.41	1781.73
239.63	1744.87
239.85	1703.91
240.06	1705.96
240.28	1693.67
240.50	1767.40
240.72	1701.86
240.93	1757.16
241.15	1763.30
241.37	1714.15
241.59	1806.31
241.81	1742.82
242.02	1685.48
242.24	1656.81
242.46	1714.15
242.68	1701.86
242.89	1845.22
243.11	1796.07
243.33	1693.67
243.55	1677.29
243.76	1828.84
243.98	1689.57
244.20	1771.49
244.42	1677.29
244.64	1652.71
244.85	1683.43
245.07	1740.77
245.29	1740.77
245.51	1675.24
245.72	1685.48
245.94	1738.73
246.16	1789.92
246.38	1789.92
246.59	1671.14
246.81	1658.85
247.03	1693.67
247.24	1644.52
247.46	1634.28
247.68	1710.05
247.90	1681.38
248.11	1699.81
248.33	1787.88
248.55	1701.86
248.77	1644.52
248.98	1734.63
249.20	1804.26
249.42	1689.57
249.64	1767.40
249.85	1712.10
250.07	1644.52
250.29	1738.73
250.50	1673.19
250.72	1632.23
250.94	1693.67
251.16	1826.79
251.37	1884.13
251.59	1689.57
251.81	1755.11
252.02	1818.60
252.24	1724.39
252.46	1730.53
252.68	1699.81
252.89	1744.87
253.11	1632.23
253.33	1751.01
253.54	1859.56
253.76	1638.38
253.98	1632.23
254.20	1755.11
254.41	1611.75
254.63	1634.28
254.85	1646.57
255.06	1691.62
255.28	1738.73
255.50	1748.97
255.71	1619.94
255.93	1669.09
256.15	1681.38
256.36	1722.34
256.58	1650.66
256.80	1730.53
257.02	1689.57
257.23	1589.22
257.45	1816.55
257.67	1734.63
257.88	1726.44
258.10	1796.07
258.32	1726.44
258.53	1689.57
258.75	1787.88
258.97	1705.96
259.18	1679.33
259.40	1689.57
259.62	1820.64
259.83	1763.30
260.05	1712.10
260.27	2002.91
260.48	1800.16
260.70	1626.09
260.92	1701.86
261.13	1691.62
261.35	1712.10
261.57	1699.81
261.78	1720.29
262.00	1728.49
262.22	1781.73
262.43	1697.77
262.65	1667.05
262.86	1689.57
263.08	1818.60
263.30	1746.92
263.51	1632.23
263.73	1681.38
263.95	1796.07
264.16	1644.52
264.38	1712.10
264.60	1734.63
264.81	1771.49
265.03	1787.88
265.25	1800.16
265.46	1689.57
265.68	1791.97
265.89	1724.39
266.11	1617.90
266.33	1681.38
266.54	1841.12
266.76	1720.29
266.98	1689.57
267.19	1839.08
267.41	1738.73
267.62	1638.38
267.84	1656.81
268.06	1740.77
268.27	1738.73
268.49	1796.07
268.70	1720.29
268.92	1710.05
269.14	1652.71
269.35	1601.51
269.57	1720.29
269.79	1744.87
270.00	1636.33
270.22	1775.59
270.43	1705.96
270.65	1669.09
270.87	1740.77
271.08	1730.53
271.30	1742.82
271.51	1712.10
271.73	1785.83
271.95	1613.80
272.16	1669.09
272.38	1751.01
272.59	1689.57
272.81	1710.05
273.02	1642.47
273.24	1712.10
273.46	1820.64
273.67	1689.57
273.89	1687.53
274.10	1667.05
274.32	1812.45
274.54	1718.25
274.75	1728.49
274.97	1581.03
275.18	1724.39
275.40	1681.38
275.61	1705.96
275.83	1716.20
276.05	1665.00
276.26	1751.01
276.48	1753.06
276.69	1681.38
276.91	1679.33
277.12	1822.69
277.34	1753.06
277.55	1748.97
277.77	1710.05
277.99	1685.48
278.20	1595.37
278.42	1642.47
278.63	1609.70
278.85	1615.85
279.06	1624.04
279.28	1751.01
279.49	1738.73
279.71	1652.71
279.93	1656.81
280.14	1699.81
280.36	1630.18
280.57	1794.02
280.79	1798.12
281.00	1593.32
281.22	1683.43
281.43	1763.30
281.65	1626.09
281.86	1640.42
282.08	1724.39
282.29	1871.84
282.51	1671.14
282.73	1636.33
282.94	1609.70
283.16	1822.69
283.37	1841.12
283.59	1689.57
283.80	1738.73
284.02	1677.29
284.23	1751.01
284.45	1677.29
284.66	1605.61
284.88	1708.01
285.09	1779.68
285.31	1718.25
285.52	1722.34
285.74	1624.04
285.95	1734.63
286.17	1712.10
286.38	1816.55
286.60	1656.81
286.81	1638.38
287.03	1683.43
287.24	1724.39
287.46	1691.62
287.67	1728.49
287.89	1871.84
288.10	1732.58
288.32	1740.77
288.53	1767.40
288.75	1744.87
288.96	1789.92
289.18	1705.96
289.39	1681.38
289.61	1738.73
289.82	1808.36
290.04	1748.97
290.25	1576.94
290.47	1740.77
290.68	1644.52
290.90	1751.01
291.11	1628.14
291.33	1730.53
291.54	1665.00
291.76	1656.81
291.97	1691.62
292.18	1632.23
292.40	1675.24
292.61	1697.77
292.83	1814.50
293.04	1761.25
293.26	1720.29
293.47	1685.48
293.69	1671.14
293.90	1656.81
294.12	1740.77
294.33	1812.45
294.55	1769.44
294.76	1789.92
294.97	1810.40
295.19	1843.17
295.40	1675.24
295.62	1730.53
295.83	1775.59
296.05	1673.19
296.26	1744.87
296.48	1636.33
296.69	1658.85
296.90	1751.01
297.12	1740.77
297.33	1773.54
297.55	1665.00
297.76	1763.30
297.98	1761.25
298.19	1777.64
298.41	1648.61
298.62	1683.43
298.83	1753.06
299.05	1808.36
299.26	1695.72
299.48	1638.38
299.69	1716.20
299.90	1730.53
300.12	1681.38
300.33	1757.16
300.55	1703.91
300.76	1773.54
300.98	1705.96
301.19	1812.45
301.40	1794.02
301.62	1685.48
301.83	1673.19
302.05	1708.01
302.26	1677.29
302.47	1730.53
302.69	1640.42
302.90	1718.25
303.12	1574.89
303.33	1705.96
303.54	1773.54
303.76	1722.34
303.97	1736.68
304.19	1804.26
304.40	1630.18
304.61	1736.68
304.83	1873.89
305.04	1845.22
305.26	1701.86
305.47	1712.10
305.68	1693.67
305.90	1630.18
306.11	1730.53
306.33	1695.72
306.54	1785.83
306.75	1671.14
306.97	1621.99
307.18	1691.62
307.39	1740.77
307.61	1818.60
307.82	1695.72
308.04	1761.25
308.25	1636.33
308.46	1689.57
308.68	1683.43
308.89	1705.96
309.10	1791.97
309.32	1755.11
309.53	1832.93
309.74	1693.67
309.96	1685.48
310.17	1710.05
310.39	1677.29
310.60	1746.92
310.81	1738.73
311.03	1624.04
311.24	1820.64
311.45	1712.10
311.67	1820.64
311.88	1767.40
312.09	1644.52
312.31	1714.15
312.52	1712.10
312.73	1693.67
312.95	1667.05
313.16	1667.05
313.37	1843.17
313.59	1693.67
313.80	1767.40
314.01	1812.45
314.23	1640.42
314.44	1734.63
314.65	1716.20
314.87	1599.46
315.08	1732.58
315.29	1767.40
315.51	1640.42
315.72	1570.79
315.93	1859.56
316.15	1789.92
316.36	1654.76
316.57	1689.57
316.79	1738.73
317.00	1710.05
317.21	1722.34
317.43	1636.33
317.64	1804.26
317.85	1599.46
318.07	1656.81
318.28	1708.01
318.49	1806.31
318.70	1892.32
318.92	1814.50
319.13	1789.92
319.34	1812.45
319.56	1845.22
319.77	1810.40
319.98	1796.07
320.20	1822.69
320.41	1789.92
320.62	1726.44
320.83	1720.29
321.05	1810.40
321.26	1724.39
321.47	1712.10
321.69	1789.92
321.90	1734.63
322.11	1683.43
322.32	1771.49
322.54	1773.54
322.75	1689.57
322.96	1779.68
323.18	1681.38
323.39	1667.05
323.60	1615.85
323.81	1746.92
324.03	1636.33
324.24	1728.49
324.45	1748.97
324.66	1736.68
324.88	1705.96
325.09	1785.83
325.30	1740.77
325.52	1767.40
325.73	1722.34
325.94	1703.91
326.15	1654.76
326.37	1679.33
326.58	1705.96
326.79	1753.06
327.00	1691.62
327.22	1710.05
327.43	1695.72
327.64	1642.47
327.85	1791.97
328.07	1705.96
328.28	1820.64
328.49	1738.73
328.70	1693.67
328.92	1720.29
329.13	1726.44
329.34	1689.57
329.55	1798.12
329.76	1732.58
329.98	1679.33
330.19	1767.40
330.40	1703.91
330.61	1708.01
330.83	1781.73
331.04	1644.52
331.25	1814.50
331.46	1755.11
331.68	1638.38
331.89	1763.30
332.10	1742.82
332.31	1640.42
332.52	1740.77
332.74	1828.84
332.95	1687.53
333.16	1656.81
333.37	1740.77
333.58	1669.09
333.80	1720.29
334.01	1652.71
334.22	1679.33
334.43	1632.23
334.64	1705.96
334.86	1677.29
335.07	1656.81
335.28	1855.46
335.49	1648.61
335.70	1722.34
335.92	1718.25
336.13	1820.64
336.34	1701.86
336.55	1671.14
336.76	1767.40
336.98	1632.23
337.19	1720.29
337.40	1839.08
337.61	1849.32
337.82	1736.68
338.04	1824.74
338.25	1626.09
338.46	1742.82
338.67	1683.43
338.88	1626.09
339.09	1611.75
339.31	1601.51
339.52	1628.14
339.73	1667.05
339.94	1701.86
340.15	1673.19
340.36	1714.15
340.58	1701.86
340.79	1638.38
341.00	1710.05
341.21	1587.18
341.42	1769.44
341.63	1699.81
341.85	1785.83
342.06	1677.29
342.27	1683.43
342.48	1767.40
342.69	1636.33
342.90	1771.49
343.12	1753.06
343.33	1646.57
343.54	1751.01
343.75	1779.68
343.96	1728.49
344.17	1699.81
344.38	1693.67
344.60	1699.81
344.81	1646.57
345.02	1763.30
345.23	1755.11
345.44	1853.41
345.65	1703.91
345.86	1720.29
346.07	1740.77
346.29	1597.42
346.50	1691.62
346.71	1730.53
346.92	1798.12
347.13	1804.26
347.34	1820.64
347.55	1679.33
347.76	1791.97
347.98	1581.03
348.19	1665.00
348.40	1816.55
348.61	1646.57
348.82	1681.38
349.03	1740.77
349.24	1730.53
349.45	1812.45
349.66	1595.37
349.88	1607.66
350.09	1660.90
350.30	1781.73
350.51	1742.82
350.72	1687.53
350.93	1695.72
351.14	1767.40
351.35	1751.01
351.56	1734.63
351.77	1722.34
351.99	1757.16
352.20	1832.93
352.41	1718.25
352.62	1587.18
352.83	1703.91
353.04	1732.58
353.25	1689.57
353.46	1722.34
353.67	1691.62
353.88	1560.55
354.09	1771.49
354.30	1791.97
354.52	1798.12
354.73	1769.44
354.94	1714.15
355.15	1769.44
355.36	1796.07
355.57	1699.81
355.78	1761.25
355.99	1617.90
356.20	1640.42
356.41	1777.64
356.62	1763.30
356.83	1648.61
357.04	1822.69
357.25	1626.09
357.46	1705.96
357.68	1632.23
357.89	1671.14
358.10	1689.57
358.31	1673.19
358.52	1744.87
358.73	1665.00
358.94	1665.00
359.15	1759.21
359.36	1726.44
359.57	1800.16
359.78	1638.38
359.99	1806.31
360.20	1615.85
360.41	1640.42
360.62	1734.63
360.83	1724.39
361.04	1621.99
361.25	1722.34
361.46	1863.65
361.67	1720.29
361.88	1728.49
362.09	1769.44
362.30	1746.92
362.51	1714.15
362.72	1759.21
362.93	1775.59
363.14	1675.24
363.35	1724.39
363.56	1687.53
363.78	1736.68
363.99	1779.68
364.20	1710.05
364.41	1654.76
364.62	1738.73
364.83	1759.21
365.04	1691.62
365.25	1724.39
365.46	1777.64
365.67	1734.63
365.88	1654.76
366.09	1683.43
366.30	1726.44
366.51	1732.58
366.72	1708.01
366.93	1673.19
367.14	1785.83
367.35	1824.74
367.56	1718.25
367.77	1787.88
367.98	1712.10
368.18	1757.16
368.39	1744.87
368.60	1648.61
368.81	1662.95
369.02	1730.53
369.23	1724.39
369.44	1589.22
369.65	1640.42
369.86	1673.19
370.07	1746.92
370.28	1669.09
370.49	1687.53
370.70	1755.11
370.91	1626.09
371.12	1648.61
371.33	1791.97
371.54	1718.25
371.75	1837.03
371.96	1603.56
372.17	1697.77
372.38	1681.38
372.59	1812.45
372.80	1775.59
373.01	1708.01
373.22	1740.77
373.43	1669.09
373.64	1658.85
373.85	1753.06
374.06	1822.69
374.26	1767.40
374.47	1726.44
374.68	1767.40
374.89	1734.63
375.10	1687.53
375.31	1775.59
375.52	1701.86
375.73	1689.57
375.94	1578.98
376.15	1699.81
376.36	1656.81
376.57	1691.62
376.78	1751.01
376.99	1677.29
377.20	1832.93
377.40	1705.96
377.61	1828.84
377.82	1708.01
378.03	1730.53
378.24	1736.68
378.45	1671.14
378.66	1665.00
378.87	1626.09
379.08	1601.51
379.29	1679.33
379.50	1798.12
379.71	1665.00
379.91	1757.16
380.12	1712.10
380.33	1708.01
380.54	1718.25
380.75	1720.29
380.96	1648.61
381.17	1701.86
381.38	1765.35
381.59	1738.73
381.80	1693.67
382.00	1853.41
382.21	1802.21
382.42	1886.18
382.63	1841.12
382.84	1761.25
383.05	1775.59
383.26	1796.07
383.47	1630.18
383.68	1845.22
383.88	1816.55
384.09	1720.29
384.30	1857.51
384.51	1759.21
384.72	1759.21
384.93	1685.48
385.14	1775.59
385.35	1744.87
385.55	1593.32
385.76	1816.55
385.97	1728.49
386.18	1617.90
386.39	1763.30
386.60	1722.34
386.81	1759.21
387.02	1697.77
387.22	1662.95
387.43	1812.45
387.64	1904.61
387.85	1875.94
388.06	2193.37
388.27	4220.86
388.48	6576.03
388.68	8181.64
388.89	9443.18
389.10	9629.55
389.31	8419.20
389.52	7427.98
389.73	6586.27
389.93	6289.31
390.14	5650.35
390.35	5083.06
390.56	4542.39
390.77	3839.94
390.98	3002.32
391.18	2525.15
391.39	2068.45
391.60	1906.66
391.81	1804.26
392.02	1738.73
392.23	1906.66
392.43	1755.11
392.64	1820.64
392.85	1697.77
393.06	1808.36
393.27	1757.16
393.47	1603.56
393.68	1714.15
393.89	1613.80
394.10	1712.10
394.31	1701.86
394.52	1632.23
394.72	1740.77
394.93	1824.74
395.14	1671.14
395.35	1726.44
395.56	1589.22
395.76	1734.63
395.97	1771.49
396.18	1882.08
396.39	1849.32
396.60	2017.25
396.80	1871.84
397.01	1834.98
397.22	1914.85
397.43	1869.80
397.64	1781.73
397.84	1751.01
398.05	1871.84
398.26	1791.97
398.47	1869.80
398.67	1830.88
398.88	1738.73
399.09	1697.77
399.30	1701.86
399.51	1777.64
399.71	1802.21
399.92	1689.57
400.13	1779.68
400.34	1732.58
400.54	1701.86
400.75	1816.55
400.96	1734.63
401.17	1863.65
401.37	1710.05
401.58	1693.67
401.79	1767.40
402.00	1808.36
402.21	2068.45
402.41	2007.01
402.62	1947.62
402.83	2045.92
403.04	1955.81
403.24	2107.36
403.45	1843.17
403.66	1886.18
403.87	1912.80
404.07	1910.75
404.28	1877.99
404.49	1791.97
404.70	1834.98
404.90	1822.69
405.11	1748.97
405.32	1738.73
405.52	1701.86
405.73	1648.61
405.94	1701.86
406.15	1640.42
406.35	1716.20
406.56	1773.54
406.77	1736.68
406.98	1701.86
407.18	1615.85
407.39	1781.73
407.60	1699.81
407.80	1693.67
408.01	1708.01
408.22	1677.29
408.43	1621.99
408.63	1730.53
408.84	1791.97
409.05	1726.44
409.25	1634.28
409.46	1685.48
409.67	1673.19
409.88	1652.71
410.08	1808.36
410.29	1695.72
410.50	1701.86
410.70	1777.64
410.91	1673.19
411.12	1832.93
411.32	1728.49
411.53	1708.01
411.74	1761.25
411.95	1826.79
412.15	1820.64
412.36	1732.58
412.57	1798.12
412.77	1845.22
412.98	1654.76
413.19	1705.96
413.39	1730.53
413.60	1765.35
413.81	1787.88
414.01	1748.97
414.22	1718.25
414.43	1708.01
414.63	1742.82
414.84	1757.16
415.05	1742.82
415.25	1609.70
415.46	1757.16
415.67	1773.54
415.87	1730.53
416.08	1695.72
416.29	1699.81
416.49	1789.92
416.70	1755.11
416.91	1669.09
417.11	1681.38
417.32	1683.43
417.53	1777.64
417.73	1665.00
417.94	1681.38
418.15	1794.02
418.35	1708.01
418.56	1695.72
418.77	1920.99
418.97	1742.82
419.18	1710.05
419.38	1562.60
419.59	1734.63
419.80	1796.07
420.00	1613.80
420.21	1636.33
420.42	1753.06
420.62	1757.16
420.83	1677.29
421.04	1648.61
421.24	1744.87
421.45	1830.88
421.65	1669.09
421.86	1730.53
422.07	1726.44
422.27	1781.73
422.48	1734.63
422.69	1665.00
422.89	1789.92
423.10	1777.64
423.30	1673.19
423.51	1658.85
423.72	1740.77
423.92	1746.92
424.13	1646.57
424.33	1632.23
424.54	1873.89
424.75	1744.87
424.95	1806.31
425.16	1783.78
425.36	1644.52
425.57	1787.88
425.78	1730.53
425.98	1726.44
426.19	1669.09
426.39	1599.46
426.60	1705.96
426.81	1794.02
427.01	1800.16
427.22	1714.15
427.42	1644.52
427.63	1677.29
427.83	1738.73
428.04	1814.50
428.25	1736.68
428.45	1820.64
428.66	1701.86
428.86	1650.66
429.07	1763.30
429.28	1667.05
429.48	1642.47
429.69	1740.77
429.89	1751.01
430.10	1624.04
430.30	1779.68
430.51	1845.22
430.71	1718.25
430.92	1685.48
431.13	1669.09
431.33	1673.19
431.54	1716.20
431.74	1783.78
431.95	1880.04
432.15	1662.95
432.36	1665.00
432.56	1794.02
432.77	1767.40
432.98	1763.30
433.18	1796.07
433.39	1689.57
433.59	1685.48
433.80	1771.49
434.00	1847.27
434.21	1716.20
434.41	1640.42
434.62	1867.75
434.82	1697.77
435.03	1716.20
435.23	1705.96
435.44	1660.90
435.64	1791.97
435.85	1746.92
436.06	1794.02
436.26	1779.68
436.47	1667.05
436.67	1693.67
436.88	1669.09
437.08	1798.12
437.29	1781.73
437.49	1751.01
437.70	1757.16
437.90	1728.49
438.11	1863.65
438.31	1712.10
438.52	1886.18
438.72	1851.36
438.93	1964.00
439.13	1796.07
439.34	1771.49
439.54	1880.04
439.75	1789.92
439.95	1785.83
440.16	1759.21
440.36	1775.59
440.57	1779.68
440.77	1775.59
440.98	1681.38
441.18	1708.01
441.39	1755.11
441.59	1615.85
441.80	1861.60
442.00	1701.86
442.21	1808.36
442.41	1673.19
442.62	1744.87
442.82	1726.44
443.02	1726.44
443.23	1712.10
443.43	1808.36
443.64	1834.98
443.84	1587.18
444.05	1841.12
444.25	1759.21
444.46	1718.25
444.66	1626.09
444.87	1791.97
445.07	1638.38
445.28	1744.87
445.48	1806.31
445.69	1812.45
445.89	1877.99
446.09	1837.03
446.30	2105.31
446.50	2645.98
446.71	3626.95
446.91	4280.25
447.12	4636.60
447.32	4843.45
447.53	4310.97
447.73	3887.04
447.93	3608.52
448.14	3207.12
448.34	3225.55
448.55	2854.87
448.75	2691.03
448.96	2678.74
449.16	2365.40
449.36	2260.96
449.57	2031.58
449.77	1923.04
449.98	1787.88
450.18	1816.55
450.39	1929.19
450.59	1830.88
450.79	1697.77
451.00	1689.57
451.20	1843.17
451.41	1855.46
451.61	1791.97
451.81	1693.67
452.02	1705.96
452.22	1763.30
452.43	1681.38
452.63	1675.24
452.84	1656.81
453.04	1777.64
453.24	1708.01
453.45	1742.82
453.65	1812.45
453.86	1726.44
454.06	1847.27
454.26	1687.53
454.47	1732.58
454.67	1933.28
454.87	1697.77
455.08	1742.82
455.28	1857.51
455.49	1757.16
455.69	1767.40
455.89	1841.12
456.10	1740.77
456.30	1691.62
456.51	1781.73
456.71	1748.97
456.91	1775.59
457.12	1740.77
457.32	1802.21
457.52	1687.53
457.73	1816.55
457.93	1699.81
458.14	1740.77
458.34	1667.05
458.54	1736.68
458.75	1689.57
458.95	1757.16
459.15	1699.81
459.36	1765.35
459.56	1845.22
459.76	1886.18
459.97	1761.25
460.17	1759.21
460.37	1734.63
460.58	1736.68
460.78	1763.30
460.99	1693.67
461.19	1753.06
461.39	1740.77
461.60	1798.12
461.80	1777.64
462.00	1779.68
462.21	1748.97
462.41	1691.62
462.61	1677.29
462.82	1652.71
463.02	1861.60
463.22	1691.62
463.43	1761.25
463.63	1824.74
463.83	1826.79
464.04	1800.16
464.24	1818.60
464.44	1753.06
464.64	1763.30
464.85	1748.97
465.05	1814.50
465.25	1734.63
465.46	1665.00
465.66	1771.49
465.86	1734.63
466.07	1748.97
466.27	1751.01
466.47	1609.70
466.68	1646.57
466.88	1775.59
467.08	1822.69
467.29	1849.32
467.49	1720.29
467.69	1714.15
467.89	1828.84
468.10	1722.34
468.30	1734.63
468.50	1861.60
468.71	1845.22
468.91	1652.71
469.11	1824.74
469.31	1830.88
469.52	1761.25
469.72	1736.68
469.92	1843.17
470.13	1789.92
470.33	1708.01
470.53	1802.21
470.73	2084.83
470.94	2281.44
471.14	2320.35
471.34	2424.80
471.54	2410.46
471.75	2191.33
471.95	2107.36
472.15	1988.58
472.36	2197.47
472.56	2156.51
472.76	2123.74
472.96	2025.44
473.17	1935.33
473.37	1873.89
473.57	1822.69
473.77	1738.73
473.98	1785.83
474.18	1730.53
474.38	1974.24
474.58	1658.85
474.79	1697.77
474.99	1757.16
475.19	1744.87
475.39	1677.29
475.60	1712.10
475.80	1703.91
476.00	1802.21
476.20	1728.49
476.41	1789.92
476.61	1818.60
476.81	1832.93
477.01	1697.77
477.21	1814.50
477.42	1789.92
477.62	1658.85
477.82	1736.68
478.02	1710.05
478.23	1791.97
478.43	1714.15
478.63	1726.44
478.83	1787.88
479.03	1748.97
479.24	1767.40
479.44	1789.92
479.64	1671.14
479.84	1591.27
480.04	1554.41
480.25	1798.12
480.45	1748.97
480.65	1804.26
480.85	1808.36
481.06	1712.10
481.26	1773.54
481.46	1796.07
481.66	1767.40
481.86	1716.20
482.06	1812.45
482.27	1638.38
482.47	1691.62
482.67	1740.77
482.87	1693.67
483.07	1810.40
483.28	1638.38
483.48	1714.15
483.68	1730.53
483.88	1656.81
484.08	1636.33
484.29	1673.19
484.49	1773.54
484.69	1705.96
484.89	1748.97
485.09	1779.68
485.29	1806.31
485.50	1755.11
485.70	1734.63
485.90	1777.64
486.10	1730.53
486.30	1773.54
486.50	1796.07
486.71	1757.16
486.91	1839.08
487.11	1802.21
487.31	1687.53
487.51	1701.86
487.71	1728.49
487.91	1697.77
488.12	1691.62
488.32	1542.12
488.52	1742.82
488.72	1593.32
488.92	1771.49
489.12	1728.49
489.32	1798.12
489.53	1705.96
489.73	1675.24
489.93	1853.41
490.13	1734.63
490.33	1654.76
490.53	1757.16
490.73	1720.29
490.94	1642.47
491.14	1755.11
491.34	1808.36
491.54	2066.40
491.74	2516.95
491.94	2910.16
492.14	3002.32
492.34	3008.47
492.54	2871.25
492.75	2482.14
492.95	2381.79
493.15	2375.64
493.35	2246.62
493.55	2297.82
493.75	2109.41
493.95	2121.70
494.15	1972.19
494.35	1890.28
494.56	1890.28
494.76	1796.07
494.96	1716.20
495.16	1796.07
495.36	1755.11
495.56	1693.67
495.76	1728.49
495.96	1699.81
496.16	1734.63
496.36	1828.84
496.56	1781.73
496.77	1730.53
496.97	1773.54
497.17	1855.46
497.37	1746.92
497.57	1734.63
497.77	1710.05
497.97	1615.85
498.17	1742.82
498.37	1691.62
498.57	1763.30
498.77	1685.48
498.97	1748.97
499.17	1816.55
499.38	1728.49
499.58	1705.96
499.78	1834.98
499.98	1849.32
500.18	1726.44
500.38	1673.19
500.58	1908.71
500.78	2533.34
500.98	4511.68
501.18	5705.64
501.38	6629.27
501.58	7073.68
501.78	6463.39
501.98	5457.84
502.18	4800.44
502.38	4294.59
502.58	4048.83
502.78	3692.49
502.98	3655.62
503.18	3377.10
503.38	3168.21
503.59	2844.63
503.79	2635.74
503.99	2451.42
504.19	2303.96
504.39	2234.33
504.59	2142.18
504.79	2058.21
504.99	2060.26
505.19	1955.81
505.39	1880.04
505.59	1951.71
505.79	1806.31
505.99	1865.70
506.19	1808.36
506.39	1904.61
506.59	1771.49
506.79	1791.97
506.99	1757.16
507.19	1777.64
507.39	1740.77
507.59	1646.57
507.79	1710.05
507.99	1767.40
508.19	1689.57
508.39	1724.39
508.59	1718.25
508.79	1869.80
508.99	1861.60
509.19	1681.38
509.39	1765.35
509.59	1718.25
509.79	1708.01
509.99	1724.39
510.19	1853.41
510.39	1773.54
510.59	1783.78
510.79	1648.61
510.99	1677.29
511.19	1816.55
511.39	1765.35
511.59	1740.77
511.79	1779.68
511.99	1796.07
512.19	1873.89
512.38	1820.64
512.58	1642.47
512.78	1796.07
512.98	1767.40
513.18	1853.41
513.38	1636.33
513.58	1814.50
513.78	1730.53
513.98	1738.73
514.18	1773.54
514.38	1722.34
514.58	1714.15
514.78	1652.71
514.98	1687.53
515.18	1673.19
515.38	1728.49
515.58	1826.79
515.78	1701.86
515.98	1812.45
516.18	1791.97
516.38	1748.97
516.57	1714.15
516.77	1697.77
516.97	1753.06
517.17	1783.78
517.37	1656.81
517.57	1716.20
517.77	1796.07
517.97	1699.81
518.17	1789.92
518.37	1699.81
518.57	1716.20
518.77	1771.49
518.97	1724.39
519.16	1773.54
519.36	1736.68
519.56	1753.06
519.76	1716.20
519.96	1783.78
520.16	1812.45
520.36	1652.71
520.56	1755.11
520.76	1714.15
520.96	1677.29
521.16	1751.01
521.35	1814.50
521.55	1742.82
521.75	1775.59
521.95	1712.10
522.15	1724.39
522.35	1650.66
522.55	1748.97
522.75	1781.73
522.95	1740.77
523.14	1732.58
523.34	1751.01
523.54	1783.78
523.74	1785.83
523.94	1804.26
524.14	1669.09
524.34	1802.21
524.54	1828.84
524.73	1665.00
524.93	1796.07
525.13	1736.68
525.33	1701.86
525.53	1927.14
525.73	1820.64
525.93	1718.25
526.13	1732.58
526.32	1718.25
526.52	1855.46
526.72	1691.62
526.92	1824.74
527.12	1669.09
527.32	1724.39
527.52	1730.53
527.71	1775.59
527.91	1789.92
528.11	1722.34
528.31	1765.35
528.51	1656.81
528.71	1767.40
528.90	1828.84
529.10	1828.84
529.30	1771.49
529.50	1589.22
529.70	1822.69
529.90	1753.06
530.09	1675.24
530.29	1691.62
530.49	1728.49
530.69	1865.70
530.89	1699.81
531.09	1761.25
531.28	1746.92
531.48	1839.08
531.68	1765.35
531.88	1777.64
532.08	1810.40
532.28	1697.77
532.47	1783.78
532.67	1757.16
532.87	1730.53
533.07	1753.06
533.27	1691.62
533.46	1816.55
533.66	1812.45
533.86	1699.81
534.06	1662.95
534.26	1781.73
534.45	1800.16
534.65	1779.68
534.85	1736.68
535.05	1734.63
535.25	1761.25
535.44	1689.57
535.64	1724.39
535.84	1740.77
536.04	1714.15
536.24	1728.49
536.43	1740.77
536.63	1779.68
536.83	1763.30
537.03	1640.42
537.22	1648.61
537.42	1566.70
537.62	1718.25
537.82	1660.90
538.02	1814.50
538.21	1834.98
538.41	1949.67
538.61	1755.11
538.81	1791.97
539.00	1726.44
539.20	1628.14
539.40	1691.62
539.60	1814.50
539.79	1802.21
539.99	1617.90
540.19	1697.77
540.39	1742.82
540.58	1751.01
540.78	1722.34
540.98	1722.34
541.18	1732.58
541.37	1744.87
541.57	1781.73
541.77	1732.58
541.97	1755.11
542.16	1675.24
542.36	1705.96
542.56	1734.63
542.76	1912.80
542.95	1765.35
543.15	1734.63
543.35	1736.68
543.54	1687.53
543.74	1742.82
543.94	1802.21
544.14	1669.09
544.33	1777.64
544.53	1787.88
544.73	1701.86
544.93	1771.49
545.12	1603.56
545.32	1630.18
545.52	1732.58
545.71	1714.15
545.91	1738.73
546.11	1732.58
546.30	1677.29
546.50	1617.90
546.70	1720.29
546.90	1777.64
547.09	1679.33
547.29	1767.40
547.49	1779.68
547.68	1785.83
547.88	1714.15
548.08	1751.01
548.27	2211.81
548.47	1693.67
548.67	1755.11
548.87	1783.78
549.06	1683.43
549.26	1767.40
549.46	1779.68
549.65	1759.21
549.85	1818.60
550.05	1738.73
550.24	1679.33
550.44	1812.45
550.64	1744.87
550.83	1724.39
551.03	1773.54
551.23	1816.55
551.42	1820.64
551.62	1755.11
551.82	1718.25
552.01	1732.58
552.21	1837.03
552.41	1755.11
552.60	1806.31
552.80	1826.79
553.00	1695.72
553.19	1726.44
553.39	1812.45
553.59	1667.05
553.78	1820.64
553.98	1794.02
554.17	1660.90
554.37	1695.72
554.57	1798.12
554.76	1697.77
554.96	1748.97
555.16	1759.21
555.35	1724.39
555.55	1863.65
555.75	1781.73
555.94	1691.62
556.14	1628.14
556.33	1812.45
556.53	1687.53
556.73	1703.91
556.92	1816.55
557.12	1865.70
557.32	1837.03
557.51	1785.83
557.71	1734.63
557.90	1859.56
558.10	1783.78
558.30	1716.20
558.49	1738.73
558.69	1693.67
558.88	1738.73
559.08	1697.77
559.28	1646.57
559.47	1738.73
559.67	1837.03
559.86	1902.56
560.06	1814.50
560.26	1728.49
560.45	1746.92
560.65	1695.72
560.84	1814.50
561.04	1705.96
561.24	1779.68
561.43	1748.97
561.63	1900.52
561.82	1740.77
562.02	1736.68
562.22	1746.92
562.41	1757.16
562.61	1701.86
562.80	1673.19
563.00	1865.70
563.19	1767.40
563.39	1773.54
563.59	1804.26
563.78	1744.87
563.98	1617.90
564.17	1742.82
564.37	1693.67
564.56	1710.05
564.76	1740.77
564.96	1855.46
565.15	1771.49
565.35	1863.65
565.54	1673.19
565.74	1841.12
565.93	1736.68
566.13	1783.78
566.32	1886.18
566.52	1767.40
566.71	1742.82
566.91	1705.96
567.11	1730.53
567.30	1708.01
567.50	1660.90
567.69	1740.77
567.89	1726.44
568.08	1714.15
568.28	1757.16
568.47	1665.00
568.67	1775.59
568.86	1753.06
569.06	1748.97
569.25	1736.68
569.45	1699.81
569.64	1736.68
569.84	1652.71
570.04	1716.20
570.23	1732.58
570.43	1685.48
570.62	1814.50
570.82	1763.30
571.01	1820.64
571.21	1728.49
571.40	1744.87
571.60	1800.16
571.79	1730.53
571.99	1730.53
572.18	1746.92
572.38	1824.74
572.57	1740.77
572.77	1755.11
572.96	1898.47
573.16	1708.01
573.35	1757.16
573.55	1748.97
573.74	1863.65
573.94	1742.82
574.13	1781.73
574.33	1855.46
574.52	1824.74
574.71	1796.07
574.91	1877.99
575.10	1744.87
575.30	1824.74
575.49	1658.85
575.69	1677.29
575.88	1763.30
576.08	1685.48
576.27	1837.03
576.47	1777.64
576.66	1888.23
576.86	1843.17
577.05	1779.68
577.25	1771.49
577.44	1978.34
577.64	1734.63
577.83	1730.53
578.02	1710.05
578.22	1816.55
578.41	1837.03
578.61	1765.35
578.80	1732.58
579.00	1794.02
579.19	1738.73
579.39	1751.01
579.58	1800.16
579.77	1814.50
579.97	1910.75
580.16	1791.97
580.36	1800.16
580.55	1828.84
580.75	1841.12
580.94	1810.40
581.13	1822.69
581.33	1820.64
581.52	1691.62
581.72	1818.60
581.91	1824.74
582.11	1806.31
582.30	1818.60
582.49	1796.07
582.69	1822.69
582.88	1740.77
583.08	1726.44
583.27	1830.88
583.47	1779.68
583.66	1626.09
583.85	1708.01
584.05	1808.36
584.24	1845.22
584.44	1791.97
584.63	1810.40
584.82	1796.07
585.02	1777.64
585.21	1837.03
585.41	1832.93
585.60	1861.60
585.79	1908.71
585.99	1949.67
586.18	1847.27
586.37	2125.79
586.57	3319.76
586.76	9801.58
586.96	24012.43
587.15	33502.72
587.34	39855.52
587.54	41258.38
587.73	35913.18
587.93	25706.10
588.12	21249.72
588.31	18294.50
588.51	15955.72
588.70	14888.73
588.89	13887.28
589.09	12203.85
589.28	10915.67
589.47	9271.15
589.67	7741.32
589.86	6270.88
590.06	4771.77
590.25	3762.12
590.44	3098.58
590.64	2645.98
590.83	2189.28
591.02	2025.44
591.22	1902.56
591.41	1787.88
591.60	1810.40
591.80	2033.63
591.99	1777.64
592.18	1732.58
592.38	1892.32
592.57	1742.82
592.76	1834.98
592.96	1796.07
593.15	1738.73
593.34	1869.80
593.54	1748.97
593.73	1777.64
593.92	1789.92
594.12	1771.49
594.31	1802.21
594.50	1828.84
594.70	1800.16
594.89	1894.37
595.08	1712.10
595.28	1796.07
595.47	1929.19
595.66	1816.55
595.86	1710.05
596.05	1718.25
596.24	1730.53
596.43	1978.34
596.63	1841.12
596.82	1779.68
597.01	1882.08
597.21	1812.45
597.40	1755.11
597.59	1724.39
597.79	1726.44
597.98	1742.82
598.17	1761.25
598.36	1775.59
598.56	1724.39
598.75	1697.77
598.94	1777.64
599.14	1800.16
599.33	1693.67
599.52	1832.93
599.71	1759.21
599.91	1871.84
600.10	1771.49
600.29	1757.16
600.48	1841.12
600.68	1746.92
600.87	1748.97
601.06	1705.96
601.26	1779.68
601.45	1796.07
601.64	1695.72
601.83	1822.69
602.03	1662.95
602.22	1728.49
602.41	1781.73
602.60	1914.85
602.80	1755.11
602.99	1724.39
603.18	1693.67
603.37	1689.57
603.57	1736.68
603.76	1775.59
603.95	1773.54
604.14	1765.35
604.34	1656.81
604.53	1705.96
604.72	1726.44
604.91	1759.21
605.10	1804.26
605.30	1658.85
605.49	1812.45
605.68	1746.92
605.87	1761.25
606.07	1767.40
606.26	1744.87
606.45	1798.12
606.64	1753.06
606.84	1736.68
607.03	1712.10
607.22	1843.17
607.41	1626.09
607.60	1699.81
607.80	1859.56
607.99	1740.77
608.18	1714.15
608.37	1767.40
608.56	1710.05
608.76	1794.02
608.95	1765.35
609.14	1710.05
609.33	1740.77
609.52	1816.55
609.72	1744.87
609.91	1740.77
610.10	1763.30
610.29	1865.70
610.48	1808.36
610.68	1820.64
610.87	1679.33
611.06	1738.73
611.25	1763.30
611.44	1851.36
611.63	1744.87
611.83	1796.07
612.02	1677.29
612.21	1853.41
612.40	1632.23
612.59	1701.86
612.79	1722.34
612.98	1722.34
613.17	1875.94
613.36	1708.01
613.55	1877.99
613.74	1669.09
613.93	1689.57
614.13	1755.11
614.32	1777.64
614.51	1757.16
614.70	1677.29
614.89	1722.34
615.08	1814.50
615.28	2056.16
615.47	1646.57
615.66	1751.01
615.85	1763.30
616.04	1779.68
616.23	1742.82
616.42	1744.87
616.62	1736.68
616.81	1679.33
617.00	1732.58
617.19	1763.30
617.38	1718.25
617.57	1730.53
617.76	1734.63
617.95	1771.49
618.15	1777.64
618.34	1796.07
618.53	1603.56
618.72	1783.78
618.91	1785.83
619.10	1777.64
619.29	1767.40
619.48	1734.63
619.68	1687.53
619.87	1773.54
620.06	1669.09
620.25	1779.68
620.44	1755.11
620.63	1730.53
620.82	1675.24
621.01	1757.16
621.20	1714.15
621.39	1751.01
621.59	1787.88
621.78	1699.81
621.97	1767.40
622.16	1853.41
622.35	1808.36
622.54	1763.30
622.73	1779.68
622.92	1652.71
623.11	1736.68
623.30	1765.35
623.49	1712.10
623.68	1755.11
623.88	1804.26
624.07	1761.25
624.26	1640.42
624.45	1804.26
624.64	1755.11
624.83	1728.49
625.02	1761.25
625.21	1738.73
625.40	1712.10
625.59	1771.49
625.78	1718.25
625.97	1800.16
626.16	1816.55
626.35	1822.69
626.54	1689.57
626.74	1791.97
626.93	1767.40
627.12	1708.01
627.31	1867.75
627.50	1730.53
627.69	1771.49
627.88	1652.71
628.07	1671.14
628.26	1660.90
628.45	1615.85
628.64	1652.71
628.83	1673.19
629.02	1718.25
629.21	1751.01
629.40	1812.45
629.59	1685.48
629.78	1669.09
629.97	1763.30
630.16	1705.96
630.35	1712.10
630.54	1683.43
630.73	1626.09
630.92	1697.77
631.11	1697.77
631.30	1738.73
631.49	1746.92
631.68	1718.25
631.87	1742.82
632.06	1697.77
632.25	1861.60
632.44	1681.38
632.63	1753.06
632.82	1671.14
633.01	1650.66
633.20	1732.58
633.39	1699.81
633.58	1626.09
633.77	1628.14
633.96	1767.40
634.15	1763.30
634.34	1705.96
634.53	1763.30
634.72	1634.28
634.91	1546.22
635.10	1691.62
635.29	1722.34
635.48	1728.49
635.67	1697.77
635.86	1656.81
636.05	1785.83
636.24	1765.35
636.43	1681.38
636.62	1753.06
636.81	1632.23
637.00	1730.53
637.19	1802.21
637.38	1773.54
637.57	1748.97
637.76	1775.59
637.95	1703.91
638.14	1724.39
638.33	1691.62
638.52	1665.00
638.71	1640.42
638.89	1673.19
639.08	1882.08
639.27	1775.59
639.46	1744.87
639.65	1828.84
639.84	1767.40
640.03	1744.87
640.22	1673.19
640.41	1871.84
640.60	1705.96
640.79	1669.09
640.98	1632.23
641.17	1722.34
641.36	1806.31
641.55	1761.25
641.74	1587.18
641.92	1658.85
642.11	1683.43
642.30	1720.29
642.49	1687.53
642.68	1718.25
642.87	1742.82
643.06	1769.44
643.25	1679.33
643.44	1683.43
643.63	1708.01
643.82	1783.78
644.00	1679.33
644.19	1656.81
644.38	1650.66
644.57	1742.82
644.76	1757.16
644.95	1796.07
645.14	1716.20
645.33	1658.85
645.52	1689.57
645.71	1652.71
645.89	1634.28
646.08	1656.81
646.27	1669.09
646.46	1863.65
646.65	1648.61
646.84	1724.39
647.03	1667.05
647.22	1781.73
647.40	1787.88
647.59	1665.00
647.78	1669.09
647.97	1662.95
648.16	1648.61
648.35	1791.97
648.54	1804.26
648.73	1697.77
648.91	1736.68
649.10	1687.53
649.29	1726.44
649.48	1742.82
649.67	1708.01
649.86	1712.10
650.05	1720.29
650.23	1681.38
650.42	1681.38
650.61	1812.45
650.80	1771.49
650.99	1779.68
651.18	1808.36
651.36	1757.16
651.55	1701.86
651.74	1783.78
651.93	1705.96
652.12	1701.86
652.31	1757.16
652.49	1722.34
652.68	1753.06
652.87	1763.30
653.06	1744.87
653.25	1804.26
653.44	1757.16
653.62	1837.03
653.81	1669.09
654.00	1726.44
654.19	1771.49
654.38	1816.55
654.56	1732.58
654.75	1736.68
654.94	1796.07
655.13	1705.96
655.32	1759.21
655.51	1734.63
655.69	1720.29
655.88	1703.91
656.07	1656.81
656.26	1767.40
656.45	1675.24
656.63	1714.15
656.82	1697.77
657.01	1763.30
657.20	1648.61
657.38	1789.92
657.57	1673.19
657.76	1685.48
657.95	1755.11
658.14	1679.33
658.32	1703.91
658.51	1626.09
658.70	1771.49
658.89	1722.34
659.08	1695.72
659.26	1796.07
659.45	1718.25
659.64	1775.59
659.83	1845.22
660.01	1845.22
660.20	1738.73
660.39	1796.07
660.58	1648.61
660.76	1720.29
660.95	1640.42
661.14	1746.92
661.33	1675.24
661.51	1697.77
661.70	1693.67
661.89	1761.25
662.08	1734.63
662.26	1753.06
662.45	1712.10
662.64	1857.51
662.83	1767.40
663.01	1673.19
663.20	1683.43
663.39	1732.58
663.58	1560.55
663.76	1714.15
663.95	1787.88
664.14	1677.29
664.32	1675.24
664.51	1722.34
664.70	1660.90
664.89	1730.53
665.07	1652.71
665.26	1779.68
665.45	1654.76
665.64	1804.26
665.82	1712.10
666.01	1822.69
666.20	1685.48
666.38	1736.68
666.57	1845.22
666.76	2250.72
666.95	4485.05
667.13	10213.22
667.32	14954.27
667.51	17469.17
667.69	18726.63
667.88	17397.49
668.07	12171.08
668.25	9410.42
668.44	8001.41
668.63	7200.66
668.81	6766.49
669.00	6098.85
669.19	5541.80
669.38	5130.16
669.56	4505.53
669.75	3938.24
669.94	3356.62
670.12	2867.16
670.31	2447.32
670.50	2412.51
670.68	2099.17
670.87	1931.23
671.06	1787.88
671.24	1822.69
671.43	1961.95
671.62	1789.92
671.80	1755.11
671.99	1697.77
672.18	1677.29
672.36	1812.45
672.55	1785.83
672.74	1660.90
672.92	1738.73
673.11	1736.68
673.29	1695.72
673.48	1775.59
673.67	1744.87
673.85	1783.78
674.04	1724.39
674.23	1724.39
674.41	1851.36
674.60	1650.66
674.79	1658.85
674.97	1701.86
675.16	1705.96
675.34	1751.01
675.53	1652.71
675.72	1718.25
675.90	1810.40
676.09	1632.23
676.28	1732.58
676.46	1646.57
676.65	1763.30
676.83	1714.15
677.02	1708.01
677.21	1648.61
677.39	1708.01
677.58	1673.19
677.77	1613.80
677.95	1648.61
678.14	1693.67
678.32	1699.81
678.51	1734.63
678.70	1771.49
678.88	1699.81
679.07	1679.33
679.25	1703.91
679.44	1667.05
679.63	1730.53
679.81	1701.86
680.00	1710.05
680.18	1732.58
680.37	1789.92
680.55	1728.49
680.74	1689.57
680.93	1609.70
681.11	1728.49
681.30	1720.29
681.48	1701.86
681.67	1757.16
681.85	1693.67
682.04	1673.19
682.23	1837.03
682.41	1718.25
682.60	1738.73
682.78	1705.96
682.97	1650.66
683.15	1755.11
683.34	1693.67
683.53	1787.88
683.71	1609.70
683.90	1841.12
684.08	1794.02
684.27	1624.04
684.45	1742.82
684.64	1812.45
684.82	1654.76
685.01	1753.06
685.19	1742.82
685.38	1853.41
685.57	1734.63
685.75	1734.63
685.94	1691.62
686.12	1648.61
686.31	1722.34
686.49	1822.69
686.68	1617.90
686.86	1703.91
687.05	1646.57
687.23	1867.75
687.42	1753.06
687.60	1558.50
687.79	1837.03
687.97	1841.12
688.16	1820.64
688.34	1697.77
688.53	1665.00
688.71	1757.16
688.90	1816.55
689.08	1714.15
689.27	1648.61
689.45	1771.49
689.64	1794.02
689.82	1730.53
690.01	1765.35
690.19	1722.34
690.38	1773.54
690.56	1828.84
690.75	1595.37
690.93	1697.77
691.12	1767.40
691.30	1724.39
691.49	1642.47
691.67	1732.58
691.86	1849.32
692.04	1665.00
692.23	1689.57
692.41	1703.91
692.60	1837.03
692.78	1705.96
692.97	1738.73
693.15	1748.97
693.34	1847.27
693.52	1855.46
693.71	1638.38
693.89	1697.77
694.08	1697.77
694.26	1746.92
694.44	1771.49
694.63	1634.28
694.81	1705.96
695.00	1726.44
695.18	1767.40
695.37	1834.98
695.55	1705.96
695.74	1744.87
695.92	1662.95
696.10	1796.07
696.29	1677.29
696.47	1624.04
696.66	1652.71
696.84	1632.23
697.03	1703.91
697.21	1765.35
697.40	2375.64
697.58	1759.21
697.76	1628.14
697.95	1585.13
698.13	1646.57
698.32	1705.96
698.50	1685.48
698.68	1759.21
698.87	1730.53
699.05	1796.07
699.24	1708.01
699.42	1681.38
699.61	1736.68
699.79	1724.39
699.97	1714.15
700.16	1671.14
700.34	1558.50
700.53	1685.48
700.71	1791.97
700.89	1730.53
701.08	1656.81
701.26	1757.16
701.45	2168.80
701.63	1681.38
701.81	1689.57
702.00	1685.48
702.18	1740.77
702.37	1699.81
702.55	1740.77
702.73	1660.90
702.92	1675.24
703.10	1730.53
703.28	1720.29
703.47	1689.57
703.65	1785.83
703.84	1853.41
704.02	1751.01
704.20	1763.30
704.39	1654.76
704.57	1640.42
704.75	1775.59
704.94	1710.05
705.12	1724.39
705.30	1744.87
705.49	2269.15
705.67	4394.94
705.86	9351.03
706.04	12486.47
706.22	14047.02
706.41	15075.10
706.59	13532.98
706.77	9422.70
706.96	7235.47
707.14	6399.90
707.32	5826.47
707.51	5416.88
707.69	4786.10
707.87	4247.49
708.06	3497.93
708.24	2926.55
708.42	2443.23
708.61	2285.53
708.79	1966.05
708.97	1810.40
709.16	1845.22
709.34	1734.63
709.52	1796.07
709.71	1658.85
709.89	1761.25
710.07	1697.77
710.26	1673.19
710.44	1712.10
710.62	1798.12
710.80	1724.39
710.99	1742.82
711.17	1746.92
711.35	1626.09
711.54	1730.53
711.72	1759.21
711.90	1736.68
712.09	1767.40
712.27	1720.29
712.45	1755.11
712.63	1673.19
712.82	1734.63
713.00	1753.06
713.18	1677.29
713.37	1699.81
713.55	1837.03
713.73	1722.34
713.91	1765.35
714.10	1718.25
714.28	1685.48
714.46	1746.92
714.65	1714.15
714.83	1691.62
715.01	1722.34
715.19	1771.49
715.38	1677.29
715.56	1716.20
715.74	1673.19
715.92	1593.32
716.11	1794.02
716.29	1624.04
716.47	1636.33
716.65	1746.92
716.84	1669.09
717.02	1751.01
717.20	1566.70
717.38	1665.00
717.57	1718.25
717.75	1716.20
717.93	1773.54
718.11	1771.49
718.30	1619.94
718.48	1665.00
718.66	1794.02
718.84	1806.31
719.03	1712.10
719.21	1679.33
719.39	1824.74
719.57	1720.29
719.75	1783.78
719.94	1611.75
720.12	1662.95
720.30	1656.81
720.48	1757.16
720.67	1681.38
720.85	1669.09
721.03	1701.86
721.21	1722.34
721.39	1806.31
721.58	1771.49
721.76	1724.39
721.94	1744.87
722.12	1671.14
722.30	1724.39
722.49	1699.81
722.67	1748.97
722.85	1755.11
723.03	1619.94
723.21	1644.52
723.40	1708.01
723.58	1820.64
723.76	1677.29
723.94	1757.16
724.12	1724.39
724.30	1771.49
724.49	1677.29
724.67	1599.46
724.85	1746.92
725.03	1644.52
725.21	1820.64
725.40	1773.54
725.58	1634.28
725.76	1744.87
725.94	1710.05
726.12	1611.75
726.30	1699.81
726.49	1724.39
726.67	1705.96
726.85	1753.06
727.03	1781.73
727.21	2166.75
727.39	2834.39
727.57	3692.49
727.76	4140.99
727.94	4290.49
728.12	4313.02
728.30	3624.90
728.48	2977.75
728.66	2754.52
728.84	2498.52
729.03	2361.31
729.21	2201.57
729.39	1990.63
729.57	1787.88
729.75	1851.36
729.93	1771.49
730.11	1751.01
730.30	1701.86
730.48	1669.09
730.66	1796.07
730.84	1800.16
731.02	1740.77
731.20	1652.71
731.38	1755.11
731.56	1675.24
731.74	1671.14
731.93	1708.01
732.11	1652.71
732.29	1753.06
732.47	1701.86
732.65	1769.44
732.83	1841.12
733.01	1783.78
733.19	1662.95
733.37	1699.81
733.56	1755.11
733.74	1693.67
733.92	1781.73
734.10	1675.24
734.28	1802.21
734.46	1673.19
734.64	1718.25
734.82	1689.57
735.00	1744.87
735.18	1615.85
735.36	1738.73
735.54	1705.96
735.73	1753.06
735.91	1746.92
736.09	1685.48
736.27	1658.85
736.45	1640.42
736.63	1638.38
736.81	1693.67
736.99	1755.11
737.17	1785.83
737.35	1708.01
737.53	1730.53
737.71	1724.39
737.89	1734.63
738.07	1675.24
738.25	1660.90
738.43	1722.34
738.61	1693.67
738.80	1677.29
738.98	1646.57
739.16	1675.24
739.34	1660.90
739.52	1773.54
739.70	1689.57
739.88	1673.19
740.06	1755.11
740.24	1589.22
740.42	1757.16
740.60	1648.61
740.78	1665.00
740.96	1503.21
741.14	1624.04
741.32	1730.53
741.50	1662.95
741.68	1845.22
741.86	1730.53
742.04	1683.43
742.22	1720.29
742.40	1722.34
742.58	1726.44
742.76	1716.20
742.94	1769.44
743.12	1624.04
743.30	1681.38
743.48	1767.40
743.66	1679.33
743.84	1740.77
744.02	1681.38
744.20	1732.58
744.38	1675.24
744.56	1710.05
744.74	1869.80
744.92	1708.01
745.10	1865.70
745.28	1728.49
745.46	1847.27
745.64	1746.92
745.82	1744.87
746.00	1648.61
746.18	1773.54
746.36	1640.42
746.54	1699.81
746.72	1667.05
746.90	1667.05
747.08	1785.83
747.26	1675.24
747.44	1763.30
747.62	1740.77
747.80	1712.10
747.98	1714.15
748.15	1697.77
748.33	1777.64
748.51	1705.96
748.69	1771.49
748.87	1728.49
749.05	1665.00
749.23	1708.01
749.41	1744.87
749.59	1771.49
749.77	1742.82
749.95	1744.87
750.13	1730.53
750.31	1748.97
750.49	1755.11
750.67	1804.26
750.85	1802.21
751.03	1724.39
751.20	1798.12
751.38	1724.39
751.56	1658.85
751.74	1689.57
751.92	1748.97
752.10	1638.38
752.28	1734.63
752.46	1699.81
752.64	1720.29
752.82	1765.35
753.00	1722.34
753.18	1738.73
753.35	1693.67
753.53	1705.96
753.71	1744.87
753.89	1791.97
754.07	1673.19
754.25	1748.97
754.43	1771.49
754.61	1630.18
754.79	1720.29
754.97	1693.67
755.14	1816.55
755.32	1675.24
755.50	1777.64
755.68	1791.97
755.86	1591.27
756.04	1667.05
756.22	1640.42
756.40	1730.53
756.57	1767.40
756.75	1699.81
756.93	1728.49
757.11	1753.06
757.29	1667.05
757.47	1652.71
757.65	1656.81
757.82	1550.31
758.00	1648.61
758.18	1679.33
758.36	1656.81
758.54	1744.87
758.72	1654.76
758.90	1728.49
759.07	1720.29
759.25	1626.09
759.43	1740.77
759.61	1624.04
759.79	2152.42
759.97	1720.29
760.15	1656.81
760.32	1716.20
760.50	1710.05
760.68	1761.25
760.86	1656.81
761.04	1787.88
761.22	1683.43
761.39	1730.53
761.57	1757.16
761.75	1763.30
761.93	1767.40
762.11	1738.73
762.28	1732.58
762.46	1699.81
762.64	1714.15
762.82	1677.29
763.00	1746.92
763.18	1804.26
763.35	1660.90
763.53	1724.39
763.71	1667.05
763.89	1732.58
764.07	1759.21
764.24	1765.35
764.42	1759.21
764.60	1769.44
764.78	1734.63
764.96	1773.54
765.13	1796.07
765.31	1730.53
765.49	1712.10
765.67	1738.73
765.84	1652.71
766.02	1671.14
766.20	1640.42
766.38	1689.57
766.56	1728.49
766.73	1771.49
766.91	1636.33
767.09	1757.16
767.27	1697.77
767.44	1722.34
767.62	1755.11
767.80	1742.82
767.98	1763.30
768.15	1728.49
768.33	1800.16
768.51	1724.39
768.69	1755.11
768.87	1673.19
769.04	1730.53
769.22	1869.80
769.40	1845.22
769.58	1929.19
769.75	1736.68
769.93	1791.97
770.11	1734.63
770.28	1656.81
770.46	1746.92
770.64	1769.44
770.82	1736.68
770.99	1697.77
771.17	1703.91
771.35	1671.14
771.53	1636.33
771.70	1722.34
771.88	1748.97
772.06	1759.21
772.23	1710.05
772.41	1763.30
772.59	1738.73
772.77	1699.81
772.94	1761.25
773.12	1755.11
773.30	1728.49
773.47	1720.29
773.65	1701.86
773.83	1761.25
774.01	1691.62
774.18	1587.18
774.36	1742.82
774.54	1720.29
774.71	1726.44
774.89	1654.76
775.07	1671.14
775.24	1724.39
775.42	1734.63
775.60	1794.02
775.78	1693.67
775.95	1697.77
776.13	1615.85
776.31	1599.46
776.48	1740.77
776.66	1853.41
776.84	1662.95
777.01	1677.29
777.19	1660.90
777.37	1675.24
777.54	1665.00
777.72	1871.84
777.90	1697.77
778.07	1617.90
778.25	1877.99
778.43	1789.92
778.60	1730.53
778.78	1738.73
778.96	1787.88
779.13	1644.52
779.31	1720.29
779.49	1632.23
779.66	1722.34
779.84	1675.24
780.01	1753.06
780.19	1714.15
780.37	1824.74
780.54	1806.31
780.72	1675.24
780.90	1665.00
781.07	1595.37
781.25	1677.29
781.43	1718.25
781.60	1689.57
781.78	1826.79
781.95	1720.29
782.13	1703.91
782.31	1681.38
782.48	1593.32
782.66	1773.54
782.83	1789.92
783.01	1685.48
783.19	1765.35
783.36	1701.86
783.54	1634.28
783.72	1822.69
783.89	1648.61
784.07	1757.16
784.24	1710.05
784.42	1783.78
784.60	1710.05
784.77	1724.39
784.95	1603.56
785.12	1730.53
785.30	1712.10
785.47	1673.19
785.65	1656.81
785.83	1611.75
786.00	1628.14
786.18	1718.25
786.35	1646.57
786.53	1634.28
786.71	1687.53
786.88	1691.62
787.06	1681.38
787.23	1755.11
787.41	1677.29
787.58	1703.91
787.76	1619.94
787.94	1734.63
788.11	1783.78
788.29	1607.66
788.46	1630.18
788.64	1632.23
788.81	1746.92
788.99	1722.34
789.16	1693.67
789.34	1697.77
789.52	1628.14
789.69	1703.91
789.87	1650.66
790.04	1640.42
790.22	1730.53
790.39	1834.98
790.57	1705.96
790.74	1630.18
790.92	1724.39
791.09	1597.42
791.27	1634.28
791.44	1773.54
791.62	1699.81
791.79	1732.58
791.97	1697.77
792.15	1902.56
792.32	1744.87
792.50	1773.54
792.67	1810.40
792.85	1773.54
793.02	1775.59
793.20	1644.52
793.37	1654.76
793.55	1669.09
793.72	1734.63
793.90	1808.36
794.07	1619.94
794.25	1683.43
794.42	1763.30
794.60	1699.81
794.77	1759.21
794.95	1718.25
795.12	1685.48
795.30	1673.19
795.47	1642.47
795.65	1810.40
795.82	1798.12
796.00	1675.24
796.17	1746.92
796.34	1667.05
796.52	1753.06
796.69	1755.11
796.87	1740.77
797.04	1699.81
797.22	1785.83
797.39	1826.79
797.57	1683.43
797.74	1759.21
797.92	1738.73
798.09	1703.91
798.27	1720.29
798.44	1781.73
798.62	1640.42
798.79	1712.10
798.96	1714.15
799.14	1693.67
799.31	1812.45
799.49	1656.81
799.66	1757.16
799.84	1742.82
800.01	1615.85
800.19	1734.63
800.36	1677.29
800.53	1755.11
800.71	1650.66
800.88	1734.63
801.06	1728.49
801.23	1699.81
801.41	1716.20
801.58	1716.20
801.75	1683.43
801.93	1773.54
802.10	1765.35
802.28	1675.24
802.45	1681.38
802.63	1703.91
802.80	1759.21
802.97	1718.25
803.15	1800.16
803.32	1703.91
803.50	1624.04
803.67	1648.61
803.84	1605.61
804.02	1734.63
804.19	1701.86
804.37	1615.85
804.54	1675.24
804.71	1724.39
804.89	1744.87
805.06	1683.43
805.24	1675.24
805.41	1607.66
805.58	1675.24
805.76	1873.89
805.93	1695.72
806.10	1765.35
806.28	1695.72
806.45	1738.73
806.63	1736.68
806.80	1767.40
806.97	1779.68
807.15	1738.73
807.32	1742.82
807.49	1708.01
807.67	1599.46
807.84	1736.68
808.01	1665.00
808.19	1814.50
808.36	1781.73
808.54	1605.61
808.71	1699.81
808.88	1810.40
809.06	1703.91
809.23	1746.92
809.40	1652.71
809.58	1779.68
809.75	1681.38
809.92	1681.38
810.10	1802.21
810.27	1660.90
810.44	1779.68
810.62	1632.23
810.79	1789.92
810.96	1636.33
811.14	1665.00
811.31	1722.34
811.48	1738.73
811.66	1691.62
811.83	1800.16
812.00	1728.49
812.18	1669.09
812.35	1867.75
812.52	1769.44
812.69	1669.09
812.87	1695.72
813.04	1665.00
813.21	1630.18
813.39	1591.27
813.56	1660.90
813.73	1775.59
813.91	1589.22
814.08	1720.29
814.25	1681.38
814.42	1601.51
814.60	1693.67
814.77	1632.23
814.94	1773.54
815.12	1673.19
815.29	1779.68
815.46	1732.58
815.63	1712.10
815.81	1699.81
815.98	1632.23
816.15	1689.57
816.33	1683.43
816.50	1650.66
816.67	1693.67
816.84	1636.33
817.02	1701.86
817.19	1593.32
817.36	1714.15
817.53	1697.77
817.71	1660.90
817.88	1810.40
818.05	1726.44
818.22	1607.66
818.40	1771.49
818.57	1693.67
818.74	1773.54
818.91	1685.48
819.09	1726.44
819.26	1773.54
819.43	1632.23
819.60	1665.00
819.78	1769.44
819.95	1773.54
820.12	1624.04
820.29	1732.58
820.47	1791.97
820.64	1714.15
820.81	1619.94
820.98	1701.86
821.15	1689.57
821.33	1699.81
821.50	1656.81
821.67	1804.26
821.84	1710.05
822.02	1783.78
822.19	1769.44
822.36	1628.14
822.53	1681.38
822.70	1656.81
822.88	1755.11
823.05	1757.16
823.22	1761.25
823.39	1718.25
823.56	1648.61
823.74	1798.12
823.91	1701.86
824.08	1589.22
824.25	1654.76
824.42	1814.50
824.60	1638.38
824.77	1738.73
824.94	1679.33
825.11	1753.06
825.28	1599.46
825.45	1755.11
825.63	1691.62
825.80	1628.14
825.97	1730.53
826.14	1740.77
826.31	1599.46
826.48	1675.24
826.66	1687.53
826.83	1691.62
827.00	1669.09
827.17	1632.23
827.34	1628.14
827.51	1689.57
827.69	1740.77
827.86	1589.22
828.03	1697.77
828.20	1767.40
828.37	1656.81
828.54	1765.35
828.71	1665.00
828.89	1769.44
829.06	1716.20
829.23	1705.96
829.40	1638.38
829.57	1632.23
829.74	1740.77
829.91	1724.39
830.09	1642.47
830.26	1771.49
830.43	1865.70
830.60	1660.90
830.77	1751.01
830.94	1757.16
831.11	1746.92
831.28	1740.77
831.46	1808.36
831.63	1714.15
831.80	1665.00
831.97	1652.71
832.14	1673.19
832.31	1677.29
832.48	1740.77
832.65	1761.25
832.82	1726.44
832.99	1771.49
833.17	1624.04
833.34	1736.68
833.51	1734.63
833.68	1646.57
833.85	1785.83
834.02	1630.18
834.19	1718.25
834.36	1685.48
834.53	1775.59
834.70	1804.26
834.87	1886.18
835.04	1773.54
835.22	1685.48
835.39	1615.85
835.56	1615.85
835.73	1734.63
835.90	1798.12
836.07	1675.24
836.24	1728.49
836.41	1658.85
836.58	1681.38
836.75	1748.97
836.92	1734.63
837.09	1714.15
837.26	1783.78
837.43	1722.34
837.60	1761.25
837.77	1693.67
837.94	1718.25
838.12	1757.16
838.29	1699.81
838.46	1644.52
838.63	1601.51
838.80	1738.73
838.97	1726.44
839.14	1720.29
839.31	1669.09
839.48	1716.20
839.65	1679.33
839.82	1800.16
839.99	1746.92
840.16	1656.81
840.33	1667.05
840.50	1687.53
840.67	1660.90
840.84	1601.51
841.01	1787.88
841.18	1667.05
841.35	1701.86
841.52	1724.39
841.69	1806.31
841.86	1632.23
842.03	1667.05
842.20	1769.44
842.37	1691.62
842.54	1640.42
842.71	1650.66
842.88	1634.28
843.05	1804.26
843.22	1703.91
843.39	1746.92
843.56	1710.05
843.73	1660.90
843.90	1746.92
844.07	1716.20
844.24	1773.54
844.41	1736.68
844.58	1716.20
844.75	1685.48
844.92	1710.05
845.09	1718.25
845.26	1732.58
845.43	1691.62
845.60	1624.04
845.77	1744.87
845.94	1716.20
846.10	1716.20
846.27	1695.72
846.44	1599.46
846.61	1609.70
846.78	1705.96
846.95	1763.30
847.12	1763.30
847.29	1648.61
847.46	1652.71
847.63	1724.39
847.80	1677.29
847.97	1701.86
848.14	1834.98
848.31	1730.53
848.48	1646.57
848.65	1689.57
848.82	1646.57
848.98	1765.35
849.15	1710.05
849.32	1812.45
849.49	1777.64
849.66	1718.25
849.83	1689.57
850.00	1603.56
850.17	1728.49
850.34	1607.66
850.51	1685.48
850.68	1697.77
850.85	1916.90
851.01	1732.58
851.18	1728.49
851.35	1773.54
851.52	1718.25
851.69	1798.12
851.86	1669.09
852.03	1738.73
852.20	1738.73
852.37	1648.61
852.53	1605.61
852.70	1691.62
852.87	1736.68
853.04	1728.49
853.21	1767.40
853.38	1820.64
853.55	1779.68
853.72	1755.11
853.89	1636.33
854.05	1748.97
854.22	1693.67
854.39	1660.90
854.56	1734.63
854.73	1736.68
854.90	1660.90
855.07	1699.81
855.23	1710.05
855.40	1695.72
855.57	1667.05
855.74	1527.78
855.91	1945.57
856.08	1701.86
856.25	1691.62
856.41	1644.52
856.58	1740.77
856.75	1642.47
856.92	1624.04
857.09	1751.01
857.26	1605.61
857.42	1667.05
857.59	1761.25
857.76	1628.14
857.93	1619.94
858.10	1722.34
858.27	1607.66
858.43	1728.49
858.60	1738.73
858.77	1599.46
858.94	1683.43
859.11	1798.12
859.27	1677.29
859.44	1703.91
859.61	1753.06
859.78	1775.59
859.95	1759.21
860.12	1642.47
860.28	1767.40
860.45	1851.36
860.62	1718.25
860.79	1689.57
860.95	1691.62
861.12	1683.43
861.29	1656.81
861.46	1708.01
861.63	1654.76
861.79	1685.48
861.96	1642.47
862.13	1673.19
862.30	1763.30
862.47	1708.01
862.63	1697.77
862.80	1787.88
862.97	1724.39
863.14	1708.01
863.30	1724.39
863.47	1714.15
863.64	1687.53
863.81	1728.49
863.97	1695.72
864.14	1722.34
864.31	1671.14
864.48	1732.58
864.65	1636.33
864.81	1738.73
864.98	1736.68
865.15	1787.88
865.32	1748.97
865.48	1734.63
865.65	1800.16
865.82	1708.01
865.98	1685.48
866.15	1841.12
866.32	1574.89
866.49	1656.81
866.65	1794.02
866.82	1660.90
866.99	1710.05
867.16	1626.09
867.32	1718.25
867.49	1662.95
867.66	1705.96
867.83	1669.09
867.99	1587.18
868.16	1689.57
868.33	1667.05
868.49	1726.44
868.66	1738.73
868.83	1734.63
868.99	1677.29
869.16	1675.24
869.33	1734.63
869.50	1812.45
869.66	1665.00
869.83	1695.72
870.00	1673.19
870.16	1763.30
870.33	1755.11
870.50	1746.92
870.66	1701.86
870.83	1800.16
871.00	1714.15
871.17	1742.82
871.33	1755.11
871.50	1656.81
871.67	1742.82
871.83	1652.71
872.00	1806.31
872.17	1558.50
872.33	1822.69
872.50	1779.68
872.67	1701.86
872.83	1652.71
873.00	1742.82
873.17	1714.15
873.33	1701.86
873.50	1759.21
873.67	1660.90
873.83	1669.09
874.00	1716.20
874.16	1708.01
874.33	1654.76
874.50	1660.90
874.66	1773.54
874.83	1746.92
875.00	1789.92
875.16	1806.31
875.33	1744.87
875.50	1609.70
875.66	1687.53
875.83	1710.05
875.99	1746.92
876.16	1667.05
876.33	1632.23
876.49	1720.29
876.66	1726.44
876.83	1738.73
876.99	1660.90
877.16	1691.62
877.32	1718.25
877.49	1705.96
877.66	1712.10
877.82	1828.84
877.99	1701.86
878.15	1775.59
878.32	1708.01
878.49	1697.77
878.65	1746.92
878.82	1783.78
878.98	1695.72
879.15	1787.88
879.32	1730.53
879.48	1714.15
879.65	1665.00
879.81	1607.66
879.98	1669.09
880.15	1662.95
880.31	1742.82
880.48	1636.33
880.64	1773.54
880.81	1736.68
880.97	1787.88
881.14	1730.53
881.31	1646.57
881.47	1800.16
881.64	1650.66
881.80	1615.85
881.97	1669.09
882.13	1740.77
882.30	1593.32
882.47	1650.66
882.63	1630.18
882.80	1718.25
882.96	1728.49
883.13	1791.97
883.29	1687.53
883.46	1742.82
883.62	1746.92
883.79	1689.57
883.95	1816.55
884.12	1691.62
884.29	1818.60
884.45	1669.09
884.62	1714.15
884.78	1697.77
884.95	1794.02
885.11	1683.43
885.28	1714.15
885.44	1693.67
885.61	1681.38
885.77	1736.68
885.94	1812.45
886.10	1681.38
886.27	1705.96
886.43	1818.60
886.60	1814.50
886.76	1673.19
886.93	1660.90
887.09	1763.30
887.26	1667.05
887.42	1677.29
887.59	1738.73
887.75	1845.22
887.92	1789.92
888.08	1751.01
888.25	1771.49
888.41	1824.74
888.58	1697.77
888.74	1675.24
888.91	1716.20
>>>>>End Processed Spectral Data<<<<<
