SpectraSuite Data File
++++++++++++++++++++++++++++++++++++
Date: Mon Jun 06 12:33:17 CEST 2016
User: root
Dark Spectrum Present: No
Reference Spectrum Present: No
Number of Sampled Component Spectra: 1
Spectrometers: USB4C02835
Integration Time (usec): 100000 (USB4C02835)
Spectra Averaged: 1 (USB4C02835)
Boxcar Smoothing: 0 (USB4C02835)
Correct for Electrical Dark: No (USB4C02835)
Strobe/Lamp Enabled: No (USB4C02835)
Correct for Detector Non-linearity: No (USB4C02835)
Correct for Stray Light: No (USB4C02835)
Number of Pixels in Processed Spectrum: 3648
>>>>>Begin Processed Spectral Data<<<<<
177.47	1390.57
177.69	1390.57
177.91	1390.57
178.13	1425.39
178.36	1449.96
178.58	1617.90
178.80	1710.05
179.02	1638.38
179.24	1611.75
179.46	1710.05
179.68	1732.58
179.90	1720.29
180.13	1720.29
180.35	1685.48
180.57	1673.19
180.79	1818.60
181.01	1644.52
181.23	1767.40
181.45	1748.97
181.67	1718.25
181.90	1675.24
182.12	1677.29
182.34	1681.38
182.56	1755.11
182.78	1726.44
183.00	1636.33
183.22	1701.86
183.44	1570.79
183.66	1902.56
183.89	1753.06
184.11	1689.57
184.33	1765.35
184.55	1708.01
184.77	1710.05
184.99	1687.53
185.21	1673.19
185.43	1828.84
185.65	1636.33
185.87	1683.43
186.10	1773.54
186.32	1789.92
186.54	1724.39
186.76	1755.11
186.98	1779.68
187.20	1605.61
187.42	1662.95
187.64	1714.15
187.86	1652.71
188.08	1679.33
188.30	1667.05
188.52	1642.47
188.75	1781.73
188.97	1775.59
189.19	1646.57
189.41	1681.38
189.63	1699.81
189.85	1701.86
190.07	1611.75
190.29	1556.46
190.51	1722.34
190.73	1701.86
190.95	1791.97
191.17	1656.81
191.39	1628.14
191.61	1648.61
191.84	1701.86
192.06	1726.44
192.28	1681.38
192.50	1798.12
192.72	1701.86
192.94	1746.92
193.16	1777.64
193.38	1683.43
193.60	1685.48
193.82	1705.96
194.04	1679.33
194.26	1746.92
194.48	1671.14
194.70	1640.42
194.92	1660.90
195.14	1716.20
195.36	1662.95
195.58	1644.52
195.80	1644.52
196.02	1710.05
196.24	1671.14
196.46	1755.11
196.69	1566.70
196.91	1877.99
197.13	1673.19
197.35	1640.42
197.57	1820.64
197.79	1689.57
198.01	1699.81
198.23	1794.02
198.45	1710.05
198.67	1652.71
198.89	1656.81
199.11	1761.25
199.33	1644.52
199.55	1501.16
199.77	1705.96
199.99	1726.44
200.21	1667.05
200.43	1701.86
200.65	1578.98
200.87	1603.56
201.09	1734.63
201.31	1679.33
201.53	1683.43
201.75	1677.29
201.97	1646.57
202.19	1638.38
202.41	1693.67
202.63	1814.50
202.85	1697.77
203.07	1724.39
203.29	1671.14
203.51	1591.27
203.73	1650.66
203.95	1877.99
204.17	1703.91
204.39	1689.57
204.61	1669.09
204.83	1751.01
205.05	1687.53
205.27	1720.29
205.49	1871.84
205.71	1617.90
205.93	1632.23
206.15	1665.00
206.37	1716.20
206.59	1656.81
206.81	1626.09
207.03	1681.38
207.25	1642.47
207.47	1769.44
207.69	1636.33
207.91	1693.67
208.13	1751.01
208.34	1677.29
208.56	1685.48
208.78	1726.44
209.00	1746.92
209.22	1626.09
209.44	1660.90
209.66	1671.14
209.88	1683.43
210.10	1708.01
210.32	1662.95
210.54	1730.53
210.76	1685.48
210.98	1744.87
211.20	1665.00
211.42	1740.77
211.64	1748.97
211.86	1763.30
212.08	1775.59
212.30	1656.81
212.52	1732.58
212.74	1740.77
212.96	1712.10
213.17	1757.16
213.39	1775.59
213.61	1791.97
213.83	1755.11
214.05	1603.56
214.27	1748.97
214.49	1646.57
214.71	1640.42
214.93	1806.31
215.15	1689.57
215.37	1671.14
215.59	1609.70
215.81	1720.29
216.03	1753.06
216.24	1751.01
216.46	1695.72
216.68	1689.57
216.90	1757.16
217.12	1722.34
217.34	1701.86
217.56	1718.25
217.78	1775.59
218.00	1742.82
218.22	1642.47
218.44	1748.97
218.66	1746.92
218.87	1771.49
219.09	1669.09
219.31	1716.20
219.53	1718.25
219.75	1640.42
219.97	1626.09
220.19	1720.29
220.41	1708.01
220.63	1804.26
220.85	1716.20
221.06	1673.19
221.28	1796.07
221.50	1730.53
221.72	1658.85
221.94	1695.72
222.16	1712.10
222.38	1718.25
222.60	1691.62
222.82	1656.81
223.03	1775.59
223.25	1634.28
223.47	1734.63
223.69	1798.12
223.91	1728.49
224.13	1810.40
224.35	1658.85
224.57	1755.11
224.78	1669.09
225.00	1650.66
225.22	1574.89
225.44	1714.15
225.66	1787.88
225.88	1675.24
226.10	1824.74
226.32	1724.39
226.53	1771.49
226.75	1607.66
226.97	1648.61
227.19	1746.92
227.41	1687.53
227.63	1673.19
227.85	1593.32
228.06	1763.30
228.28	1726.44
228.50	1755.11
228.72	1611.75
228.94	1691.62
229.16	1572.84
229.37	1578.98
229.59	1621.99
229.81	1769.44
230.03	1636.33
230.25	1581.03
230.47	1718.25
230.69	1669.09
230.90	1724.39
231.12	1660.90
231.34	1736.68
231.56	1718.25
231.78	1562.60
232.00	1746.92
232.21	1714.15
232.43	1650.66
232.65	1595.37
232.87	1789.92
233.09	1662.95
233.30	1718.25
233.52	1769.44
233.74	1724.39
233.96	1736.68
234.18	1708.01
234.40	1644.52
234.61	1814.50
234.83	1611.75
235.05	1566.70
235.27	1861.60
235.49	1714.15
235.70	1724.39
235.92	1761.25
236.14	1658.85
236.36	1849.32
236.58	1671.14
236.79	1730.53
237.01	1595.37
237.23	1669.09
237.45	1705.96
237.67	1644.52
237.88	1738.73
238.10	1791.97
238.32	1638.38
238.54	1671.14
238.76	1726.44
238.97	1648.61
239.19	1556.46
239.41	1763.30
239.63	1761.25
239.85	1654.76
240.06	1753.06
240.28	1695.72
240.50	1736.68
240.72	1697.77
240.93	1718.25
241.15	1802.21
241.37	1701.86
241.59	1800.16
241.81	1697.77
242.02	1767.40
242.24	1677.29
242.46	1652.71
242.68	1712.10
242.89	1714.15
243.11	1822.69
243.33	1710.05
243.55	1703.91
243.76	1732.58
243.98	1722.34
244.20	1765.35
244.42	1705.96
244.64	1683.43
244.85	1658.85
245.07	1687.53
245.29	1777.64
245.51	1667.05
245.72	1751.01
245.94	1638.38
246.16	1660.90
246.38	1753.06
246.59	1660.90
246.81	1611.75
247.03	1638.38
247.24	1591.27
247.46	1656.81
247.68	1617.90
247.90	1660.90
248.11	1650.66
248.33	1720.29
248.55	1697.77
248.77	1740.77
248.98	1775.59
249.20	1775.59
249.42	1646.57
249.64	1740.77
249.85	1677.29
250.07	1705.96
250.29	1679.33
250.50	1703.91
250.72	1632.23
250.94	1683.43
251.16	1824.74
251.37	1763.30
251.59	1662.95
251.81	1701.86
252.02	1775.59
252.24	1660.90
252.46	1761.25
252.68	1613.80
252.89	1671.14
253.11	1597.42
253.33	1787.88
253.54	1796.07
253.76	1607.66
253.98	1683.43
254.20	1746.92
254.41	1585.13
254.63	1667.05
254.85	1634.28
255.06	1665.00
255.28	1738.73
255.50	1708.01
255.71	1691.62
255.93	1568.74
256.15	1720.29
256.36	1689.57
256.58	1722.34
256.80	1789.92
257.02	1693.67
257.23	1730.53
257.45	1687.53
257.67	1675.24
257.88	1632.23
258.10	1640.42
258.32	1677.29
258.53	1751.01
258.75	1771.49
258.97	1609.70
259.18	1683.43
259.40	1765.35
259.62	1759.21
259.83	1822.69
260.05	1806.31
260.27	1900.52
260.48	1763.30
260.70	1632.23
260.92	1689.57
261.13	1705.96
261.35	1705.96
261.57	1675.24
261.78	1630.18
262.00	1673.19
262.22	1726.44
262.43	1646.57
262.65	1685.48
262.86	1652.71
263.08	1886.18
263.30	1687.53
263.51	1630.18
263.73	1652.71
263.95	1728.49
264.16	1576.94
264.38	1626.09
264.60	1810.40
264.81	1708.01
265.03	1779.68
265.25	1742.82
265.46	1695.72
265.68	1746.92
265.89	1685.48
266.11	1609.70
266.33	1689.57
266.54	1716.20
266.76	1716.20
266.98	1761.25
267.19	1763.30
267.41	1804.26
267.62	1744.87
267.84	1587.18
268.06	1695.72
268.27	1744.87
268.49	1722.34
268.70	1789.92
268.92	1691.62
269.14	1648.61
269.35	1583.08
269.57	1650.66
269.79	1734.63
270.00	1724.39
270.22	1757.16
270.43	1624.04
270.65	1624.04
270.87	1720.29
271.08	1732.58
271.30	1751.01
271.51	1748.97
271.73	1728.49
271.95	1798.12
272.16	1662.95
272.38	1669.09
272.59	1638.38
272.81	1810.40
273.02	1650.66
273.24	1673.19
273.46	1744.87
273.67	1626.09
273.89	1613.80
274.10	1669.09
274.32	1689.57
274.54	1687.53
274.75	1630.18
274.97	1742.82
275.18	1748.97
275.40	1708.01
275.61	1613.80
275.83	1681.38
276.05	1619.94
276.26	1691.62
276.48	1769.44
276.69	1710.05
276.91	1636.33
277.12	1779.68
277.34	1781.73
277.55	1681.38
277.77	1720.29
277.99	1656.81
278.20	1609.70
278.42	1648.61
278.63	1603.56
278.85	1650.66
279.06	1621.99
279.28	1748.97
279.49	1759.21
279.71	1794.02
279.93	1689.57
280.14	1701.86
280.36	1669.09
280.57	1648.61
280.79	1730.53
281.00	1722.34
281.22	1628.14
281.43	1755.11
281.65	1593.32
281.86	1669.09
282.08	1677.29
282.29	1888.23
282.51	1595.37
282.73	1681.38
282.94	1656.81
283.16	1781.73
283.37	1744.87
283.59	1675.24
283.80	1775.59
284.02	1675.24
284.23	1738.73
284.45	1665.00
284.66	1718.25
284.88	1662.95
285.09	1648.61
285.31	1718.25
285.52	1695.72
285.74	1585.13
285.95	1701.86
286.17	1642.47
286.38	1755.11
286.60	1665.00
286.81	1595.37
287.03	1705.96
287.24	1652.71
287.46	1734.63
287.67	1699.81
287.89	1812.45
288.10	1644.52
288.32	1679.33
288.53	1755.11
288.75	1693.67
288.96	1718.25
289.18	1705.96
289.39	1722.34
289.61	1718.25
289.82	1828.84
290.04	1771.49
290.25	1611.75
290.47	1712.10
290.68	1656.81
290.90	1722.34
291.11	1636.33
291.33	1744.87
291.54	1650.66
291.76	1681.38
291.97	1583.08
292.18	1656.81
292.40	1730.53
292.61	1726.44
292.83	1871.84
293.04	1701.86
293.26	1701.86
293.47	1669.09
293.69	1630.18
293.90	1675.24
294.12	1779.68
294.33	1667.05
294.55	1624.04
294.76	1767.40
294.97	1705.96
295.19	1851.36
295.40	1652.71
295.62	1701.86
295.83	1761.25
296.05	1632.23
296.26	1730.53
296.48	1628.14
296.69	1638.38
296.90	1681.38
297.12	1775.59
297.33	1742.82
297.55	1671.14
297.76	1816.55
297.98	1730.53
298.19	1689.57
298.41	1695.72
298.62	1660.90
298.83	1783.78
299.05	1679.33
299.26	1701.86
299.48	1691.62
299.69	1712.10
299.90	1683.43
300.12	1636.33
300.33	1708.01
300.55	1796.07
300.76	1687.53
300.98	1665.00
301.19	1779.68
301.40	1675.24
301.62	1679.33
301.83	1648.61
302.05	1607.66
302.26	1763.30
302.47	1673.19
302.69	1605.61
302.90	1742.82
303.12	1562.60
303.33	1624.04
303.54	1798.12
303.76	1646.57
303.97	1716.20
304.19	1734.63
304.40	1658.85
304.61	1652.71
304.83	1820.64
305.04	1880.04
305.26	1789.92
305.47	1634.28
305.68	1736.68
305.90	1558.50
306.11	1738.73
306.33	1736.68
306.54	1658.85
306.75	1720.29
306.97	1605.61
307.18	1595.37
307.39	1619.94
307.61	1781.73
307.82	1734.63
308.04	1640.42
308.25	1667.05
308.46	1693.67
308.68	1658.85
308.89	1753.06
309.10	1767.40
309.32	1638.38
309.53	1691.62
309.74	1751.01
309.96	1658.85
310.17	1712.10
310.39	1681.38
310.60	1726.44
310.81	1685.48
311.03	1636.33
311.24	1648.61
311.45	1683.43
311.67	1783.78
311.88	1722.34
312.09	1689.57
312.31	1716.20
312.52	1701.86
312.73	1607.66
312.95	1605.61
313.16	1705.96
313.37	1771.49
313.59	1716.20
313.80	1683.43
314.01	1703.91
314.23	1693.67
314.44	1617.90
314.65	1683.43
314.87	1636.33
315.08	1660.90
315.29	1734.63
315.51	1722.34
315.72	1665.00
315.93	1763.30
316.15	1714.15
316.36	1570.79
316.57	1736.68
316.79	1785.83
317.00	1656.81
317.21	1818.60
317.43	1667.05
317.64	1708.01
317.85	1673.19
318.07	1712.10
318.28	1810.40
318.49	1777.64
318.70	1859.56
318.92	1794.02
319.13	1765.35
319.34	1853.41
319.56	1794.02
319.77	1769.44
319.98	1726.44
320.20	1765.35
320.41	1744.87
320.62	1675.24
320.83	1720.29
321.05	1812.45
321.26	1699.81
321.47	1796.07
321.69	1689.57
321.90	1669.09
322.11	1720.29
322.32	1673.19
322.54	1773.54
322.75	1626.09
322.96	1837.03
323.18	1613.80
323.39	1544.17
323.60	1619.94
323.81	1724.39
324.03	1669.09
324.24	1640.42
324.45	1732.58
324.66	1673.19
324.88	1701.86
325.09	1722.34
325.30	1722.34
325.52	1691.62
325.73	1679.33
325.94	1652.71
326.15	1691.62
326.37	1636.33
326.58	1705.96
326.79	1708.01
327.00	1607.66
327.22	1701.86
327.43	1697.77
327.64	1630.18
327.85	1720.29
328.07	1742.82
328.28	1779.68
328.49	1654.76
328.70	1640.42
328.92	1687.53
329.13	1673.19
329.34	1699.81
329.55	1701.86
329.76	1787.88
329.98	1607.66
330.19	1849.32
330.40	1667.05
330.61	1710.05
330.83	1730.53
331.04	1644.52
331.25	1734.63
331.46	1695.72
331.68	1675.24
331.89	1742.82
332.10	1748.97
332.31	1615.85
332.52	1708.01
332.74	1761.25
332.95	1624.04
333.16	1730.53
333.37	1671.14
333.58	1658.85
333.80	1710.05
334.01	1730.53
334.22	1634.28
334.43	1726.44
334.64	1656.81
334.86	1613.80
335.07	1630.18
335.28	1812.45
335.49	1576.94
335.70	1708.01
335.92	1783.78
336.13	1871.84
336.34	1783.78
336.55	1628.14
336.76	1738.73
336.98	1628.14
337.19	1687.53
337.40	1779.68
337.61	1898.47
337.82	1665.00
338.04	1794.02
338.25	1525.74
338.46	1665.00
338.67	1648.61
338.88	1665.00
339.09	1624.04
339.31	1665.00
339.52	1593.32
339.73	1662.95
339.94	1632.23
340.15	1720.29
340.36	1658.85
340.58	1705.96
340.79	1589.22
341.00	1720.29
341.21	1705.96
341.42	1830.88
341.63	1705.96
341.85	1712.10
342.06	1650.66
342.27	1681.38
342.48	1755.11
342.69	1654.76
342.90	1732.58
343.12	1699.81
343.33	1705.96
343.54	1814.50
343.75	1724.39
343.96	1673.19
344.17	1626.09
344.38	1710.05
344.60	1681.38
344.81	1640.42
345.02	1716.20
345.23	1742.82
345.44	1736.68
345.65	1779.68
345.86	1742.82
346.07	1683.43
346.29	1683.43
346.50	1712.10
346.71	1681.38
346.92	1689.57
347.13	1908.71
347.34	1665.00
347.55	1695.72
347.76	1726.44
347.98	1636.33
348.19	1667.05
348.40	1777.64
348.61	1673.19
348.82	1755.11
349.03	1718.25
349.24	1673.19
349.45	1863.65
349.66	1613.80
349.88	1712.10
350.09	1662.95
350.30	1691.62
350.51	1703.91
350.72	1681.38
350.93	1687.53
351.14	1724.39
351.35	1779.68
351.56	1636.33
351.77	1628.14
351.99	1751.01
352.20	1705.96
352.41	1748.97
352.62	1593.32
352.83	1785.83
353.04	1701.86
353.25	1556.46
353.46	1740.77
353.67	1771.49
353.88	1583.08
354.09	1675.24
354.30	1669.09
354.52	1650.66
354.73	1669.09
354.94	1716.20
355.15	1714.15
355.36	1804.26
355.57	1669.09
355.78	1724.39
355.99	1667.05
356.20	1621.99
356.41	1724.39
356.62	1669.09
356.83	1740.77
357.04	1781.73
357.25	1593.32
357.46	1605.61
357.68	1642.47
357.89	1683.43
358.10	1644.52
358.31	1599.46
358.52	1640.42
358.73	1691.62
358.94	1626.09
359.15	1732.58
359.36	1675.24
359.57	1644.52
359.78	1636.33
359.99	1746.92
360.20	1652.71
360.41	1644.52
360.62	1701.86
360.83	1744.87
361.04	1599.46
361.25	1708.01
361.46	1791.97
361.67	1769.44
361.88	1714.15
362.09	1703.91
362.30	1662.95
362.51	1652.71
362.72	1705.96
362.93	1804.26
363.14	1669.09
363.35	1732.58
363.56	1562.60
363.78	1701.86
363.99	1746.92
364.20	1681.38
364.41	1753.06
364.62	1796.07
364.83	1685.48
365.04	1665.00
365.25	1718.25
365.46	1763.30
365.67	1640.42
365.88	1607.66
366.09	1679.33
366.30	1665.00
366.51	1732.58
366.72	1708.01
366.93	1738.73
367.14	1767.40
367.35	1691.62
367.56	1689.57
367.77	1763.30
367.98	1677.29
368.18	1751.01
368.39	1787.88
368.60	1626.09
368.81	1732.58
369.02	1681.38
369.23	1656.81
369.44	1675.24
369.65	1677.29
369.86	1765.35
370.07	1712.10
370.28	1617.90
370.49	1740.77
370.70	1781.73
370.91	1630.18
371.12	1615.85
371.33	1773.54
371.54	1697.77
371.75	1824.74
371.96	1638.38
372.17	1806.31
372.38	1751.01
372.59	1705.96
372.80	1726.44
373.01	1689.57
373.22	1693.67
373.43	1763.30
373.64	1613.80
373.85	1783.78
374.06	1718.25
374.26	1705.96
374.47	1716.20
374.68	1781.73
374.89	1660.90
375.10	1695.72
375.31	1812.45
375.52	1732.58
375.73	1648.61
375.94	1708.01
376.15	1736.68
376.36	1675.24
376.57	1705.96
376.78	1626.09
376.99	1738.73
377.20	1732.58
377.40	1693.67
377.61	1824.74
377.82	1697.77
378.03	1771.49
378.24	1775.59
378.45	1695.72
378.66	1689.57
378.87	1630.18
379.08	1597.42
379.29	1720.29
379.50	1837.03
379.71	1730.53
379.91	1726.44
380.12	1693.67
380.33	1701.86
380.54	1677.29
380.75	1693.67
380.96	1722.34
381.17	1779.68
381.38	1701.86
381.59	1742.82
381.80	1601.51
382.00	1841.12
382.21	1681.38
382.42	1798.12
382.63	1830.88
382.84	1757.16
383.05	1748.97
383.26	1853.41
383.47	1658.85
383.68	1736.68
383.88	1798.12
384.09	1646.57
384.30	1828.84
384.51	1732.58
384.72	1640.42
384.93	1677.29
385.14	1683.43
385.35	1693.67
385.55	1609.70
385.76	1806.31
385.97	1751.01
386.18	1636.33
386.39	1728.49
386.60	1732.58
386.81	1628.14
387.02	1603.56
387.22	1646.57
387.43	1644.52
387.64	1744.87
387.85	1884.13
388.06	2209.76
388.27	4216.77
388.48	6746.01
388.68	8181.64
388.89	9633.64
389.10	9633.64
389.31	8505.21
389.52	7557.00
389.73	6477.73
389.93	6293.41
390.14	5984.16
390.35	5130.16
390.56	4695.99
390.77	3858.37
390.98	3127.25
391.18	2564.06
391.39	2105.31
391.60	1828.84
391.81	1791.97
392.02	1773.54
392.23	1861.60
392.43	1734.63
392.64	1699.81
392.85	1722.34
393.06	1755.11
393.27	1642.47
393.47	1656.81
393.68	1720.29
393.89	1660.90
394.10	1826.79
394.31	1638.38
394.52	1638.38
394.72	1740.77
394.93	1814.50
395.14	1665.00
395.35	1705.96
395.56	1669.09
395.76	1708.01
395.97	1722.34
396.18	1886.18
396.39	1834.98
396.60	2062.30
396.80	1937.38
397.01	1822.69
397.22	1847.27
397.43	1791.97
397.64	1693.67
397.84	1761.25
398.05	1869.80
398.26	1757.16
398.47	1718.25
398.67	1726.44
398.88	1732.58
399.09	1761.25
399.30	1667.05
399.51	1726.44
399.71	1654.76
399.92	1662.95
400.13	1736.68
400.34	1710.05
400.54	1656.81
400.75	1783.78
400.96	1710.05
401.17	1789.92
401.37	1667.05
401.58	1783.78
401.79	1697.77
402.00	1951.71
402.21	1968.10
402.41	2029.54
402.62	1953.76
402.83	1996.77
403.04	1986.53
403.24	2035.68
403.45	1877.99
403.66	1943.52
403.87	1845.22
404.07	1884.13
404.28	1900.52
404.49	1918.95
404.70	1726.44
404.90	1796.07
405.11	1742.82
405.32	1763.30
405.52	1703.91
405.73	1648.61
405.94	1685.48
406.15	1685.48
406.35	1738.73
406.56	1691.62
406.77	1759.21
406.98	1724.39
407.18	1648.61
407.39	1812.45
407.60	1757.16
407.80	1812.45
408.01	1656.81
408.22	1722.34
408.43	1695.72
408.63	1720.29
408.84	1671.14
409.05	1781.73
409.25	1656.81
409.46	1662.95
409.67	1734.63
409.88	1679.33
410.08	1685.48
410.29	1658.85
410.50	1718.25
410.70	1759.21
410.91	1738.73
411.12	1724.39
411.32	1648.61
411.53	1665.00
411.74	1828.84
411.95	1773.54
412.15	1773.54
412.36	1730.53
412.57	1687.53
412.77	1763.30
412.98	1771.49
413.19	1671.14
413.39	1716.20
413.60	1730.53
413.81	1791.97
414.01	1644.52
414.22	1800.16
414.43	1806.31
414.63	1621.99
414.84	1794.02
415.05	1677.29
415.25	1677.29
415.46	1841.12
415.67	1669.09
415.87	1748.97
416.08	1640.42
416.29	1742.82
416.49	1730.53
416.70	1703.91
416.91	1667.05
417.11	1703.91
417.32	1814.50
417.53	1689.57
417.73	1687.53
417.94	1710.05
418.15	1726.44
418.35	1748.97
418.56	1773.54
418.77	1812.45
418.97	1679.33
419.18	1703.91
419.38	1642.47
419.59	1730.53
419.80	1824.74
420.00	1665.00
420.21	1730.53
420.42	1730.53
420.62	1679.33
420.83	1644.52
421.04	1699.81
421.24	1662.95
421.45	1708.01
421.65	1742.82
421.86	1699.81
422.07	1785.83
422.27	1740.77
422.48	1796.07
422.69	1736.68
422.89	1746.92
423.10	1644.52
423.30	1675.24
423.51	1738.73
423.72	1683.43
423.92	1746.92
424.13	1621.99
424.33	1703.91
424.54	1716.20
424.75	1687.53
424.95	1775.59
425.16	1746.92
425.36	1675.24
425.57	1728.49
425.78	1771.49
425.98	1755.11
426.19	1640.42
426.39	1685.48
426.60	1652.71
426.81	1808.36
427.01	1701.86
427.22	1667.05
427.42	1656.81
427.63	1593.32
427.83	1806.31
428.04	1822.69
428.25	1800.16
428.45	1781.73
428.66	1787.88
428.86	1683.43
429.07	1738.73
429.28	1714.15
429.48	1654.76
429.69	1648.61
429.89	1767.40
430.10	1617.90
430.30	1812.45
430.51	1724.39
430.71	1615.85
430.92	1726.44
431.13	1673.19
431.33	1710.05
431.54	1755.11
431.74	1781.73
431.95	1880.04
432.15	1593.32
432.36	1714.15
432.56	1822.69
432.77	1814.50
432.98	1902.56
433.18	1710.05
433.39	1691.62
433.59	1685.48
433.80	1742.82
434.00	1822.69
434.21	1712.10
434.41	1636.33
434.62	1837.03
434.82	1658.85
435.03	1646.57
435.23	1771.49
435.44	1546.22
435.64	1656.81
435.85	1689.57
436.06	1751.01
436.26	1767.40
436.47	1685.48
436.67	1646.57
436.88	1697.77
437.08	1746.92
437.29	1761.25
437.49	1740.77
437.70	1796.07
437.90	1753.06
438.11	1908.71
438.31	1837.03
438.52	1869.80
438.72	1820.64
438.93	1888.23
439.13	1820.64
439.34	1798.12
439.54	1679.33
439.75	1779.68
439.95	1781.73
440.16	1638.38
440.36	1738.73
440.57	1740.77
440.77	1730.53
440.98	1662.95
441.18	1765.35
441.39	1665.00
441.59	1648.61
441.80	1791.97
442.00	1730.53
442.21	1730.53
442.41	1693.67
442.62	1783.78
442.82	1662.95
443.02	1665.00
443.23	1689.57
443.43	1697.77
443.64	1794.02
443.84	1708.01
444.05	1714.15
444.25	1773.54
444.46	1671.14
444.66	1710.05
444.87	1816.55
445.07	1634.28
445.28	1732.58
445.48	1783.78
445.69	1738.73
445.89	1908.71
446.09	1720.29
446.30	2007.01
446.50	2615.26
446.71	3649.48
446.91	4259.78
447.12	4755.38
447.32	4917.17
447.53	4231.10
447.73	3971.01
447.93	3508.17
448.14	3305.42
448.34	3162.06
448.55	2951.12
448.75	2887.64
448.96	2727.89
449.16	2451.42
449.36	2217.95
449.57	2084.83
449.77	1894.37
449.98	1771.49
450.18	1843.17
450.39	1753.06
450.59	1746.92
450.79	1683.43
451.00	1675.24
451.20	1824.74
451.41	1671.14
451.61	1789.92
451.81	1742.82
452.02	1728.49
452.22	1763.30
452.43	1679.33
452.63	1738.73
452.84	1761.25
453.04	1738.73
453.24	1753.06
453.45	1722.34
453.65	1744.87
453.86	1806.31
454.06	1716.20
454.26	1722.34
454.47	1652.71
454.67	1841.12
454.87	1794.02
455.08	1728.49
455.28	1890.28
455.49	1720.29
455.69	1744.87
455.89	1884.13
456.10	1753.06
456.30	1681.38
456.51	1746.92
456.71	1732.58
456.91	1812.45
457.12	1781.73
457.32	1787.88
457.52	1699.81
457.73	1771.49
457.93	1808.36
458.14	1697.77
458.34	1626.09
458.54	1679.33
458.75	1763.30
458.95	1796.07
459.15	1783.78
459.36	1695.72
459.56	1773.54
459.76	1804.26
459.97	1681.38
460.17	1736.68
460.37	1791.97
460.58	1720.29
460.78	1839.08
460.99	1779.68
461.19	1730.53
461.39	1775.59
461.60	1726.44
461.80	1728.49
462.00	1671.14
462.21	1667.05
462.41	1744.87
462.61	1685.48
462.82	1632.23
463.02	1759.21
463.22	1765.35
463.43	1775.59
463.63	1763.30
463.83	1818.60
464.04	1722.34
464.24	1755.11
464.44	1648.61
464.64	1800.16
464.85	1714.15
465.05	1802.21
465.25	1736.68
465.46	1667.05
465.66	1746.92
465.86	1761.25
466.07	1728.49
466.27	1734.63
466.47	1660.90
466.68	1636.33
466.88	1832.93
467.08	1656.81
467.29	1796.07
467.49	1726.44
467.69	1681.38
467.89	1701.86
468.10	1665.00
468.30	1705.96
468.50	1796.07
468.71	1755.11
468.91	1628.14
469.11	1830.88
469.31	1763.30
469.52	1617.90
469.72	1839.08
469.92	1886.18
470.13	1669.09
470.33	1726.44
470.53	1896.42
470.73	2090.98
470.94	2293.72
471.14	2349.02
471.34	2568.15
471.54	2379.74
471.75	2176.99
471.95	2140.13
472.15	2093.02
472.36	2189.28
472.56	2086.88
472.76	2029.54
472.96	1943.52
473.17	1986.53
473.37	1861.60
473.57	1740.77
473.77	1767.40
473.98	1783.78
474.18	1722.34
474.38	1843.17
474.58	1767.40
474.79	1638.38
474.99	1751.01
475.19	1726.44
475.39	1683.43
475.60	1761.25
475.80	1810.40
476.00	1734.63
476.20	1652.71
476.41	1724.39
476.61	1791.97
476.81	1820.64
477.01	1689.57
477.21	1808.36
477.42	1791.97
477.62	1613.80
477.82	1697.77
478.02	1728.49
478.23	1759.21
478.43	1621.99
478.63	1634.28
478.83	1720.29
479.03	1722.34
479.24	1845.22
479.44	1808.36
479.64	1669.09
479.84	1570.79
480.04	1689.57
480.25	1714.15
480.45	1691.62
480.65	1742.82
480.85	1724.39
481.06	1660.90
481.26	1771.49
481.46	1781.73
481.66	1753.06
481.86	1585.13
482.06	1771.49
482.27	1693.67
482.47	1669.09
482.67	1804.26
482.87	1673.19
483.07	1781.73
483.28	1621.99
483.48	1681.38
483.68	1720.29
483.88	1660.90
484.08	1591.27
484.29	1611.75
484.49	1705.96
484.69	1677.29
484.89	1845.22
485.09	1785.83
485.29	1796.07
485.50	1697.77
485.70	1734.63
485.90	1779.68
486.10	1742.82
486.30	1687.53
486.50	1775.59
486.71	1720.29
486.91	1673.19
487.11	1828.84
487.31	1669.09
487.51	1714.15
487.71	1660.90
487.91	1662.95
488.12	1656.81
488.32	1576.94
488.52	1699.81
488.72	1611.75
488.92	1699.81
489.12	1828.84
489.32	1734.63
489.53	1708.01
489.73	1615.85
489.93	1767.40
490.13	1683.43
490.33	1640.42
490.53	1765.35
490.73	1787.88
490.94	1619.94
491.14	1775.59
491.34	1767.40
491.54	2074.59
491.74	2605.02
491.94	2906.07
492.14	3000.27
492.34	2949.08
492.54	2727.89
492.75	2467.80
492.95	2449.37
493.15	2215.90
493.35	2277.34
493.55	2123.74
493.75	2074.59
493.95	2121.70
494.15	2039.78
494.35	1896.42
494.56	1880.04
494.76	1828.84
494.96	1759.21
495.16	1765.35
495.36	1744.87
495.56	1796.07
495.76	1683.43
495.96	1613.80
496.16	1665.00
496.36	1771.49
496.56	1771.49
496.77	1753.06
496.97	1779.68
497.17	1816.55
497.37	1648.61
497.57	1787.88
497.77	1761.25
497.97	1703.91
498.17	1705.96
498.37	1708.01
498.57	1775.59
498.77	1708.01
498.97	1783.78
499.17	1771.49
499.38	1689.57
499.58	1779.68
499.78	1693.67
499.98	1759.21
500.18	1753.06
500.38	1734.63
500.58	1939.43
500.78	2496.47
500.98	4433.85
501.18	5810.09
501.38	6758.30
501.58	7104.40
501.78	6684.57
501.98	5613.48
502.18	5031.86
502.38	4405.18
502.58	4132.80
502.78	3723.21
502.98	3755.97
503.18	3358.67
503.38	3170.26
503.59	2824.15
503.79	2770.90
503.99	2459.61
504.19	2306.01
504.39	2205.66
504.59	2142.18
504.79	2148.32
504.99	2078.69
505.19	1920.99
505.39	1855.46
505.59	1902.56
505.79	1851.36
505.99	1785.83
506.19	1873.89
506.39	1867.75
506.59	1728.49
506.79	1748.97
506.99	1843.17
507.19	1640.42
507.39	1710.05
507.59	1724.39
507.79	1679.33
507.99	1718.25
508.19	1732.58
508.39	1695.72
508.59	1761.25
508.79	1851.36
508.99	1785.83
509.19	1656.81
509.39	1699.81
509.59	1763.30
509.79	1714.15
509.99	1791.97
510.19	1755.11
510.39	1755.11
510.59	1759.21
510.79	1769.44
510.99	1691.62
511.19	1724.39
511.39	1734.63
511.59	1751.01
511.79	1767.40
511.99	1705.96
512.19	1798.12
512.38	1681.38
512.58	1701.86
512.78	1611.75
512.98	1759.21
513.18	1724.39
513.38	1675.24
513.58	1777.64
513.78	1724.39
513.98	1738.73
514.18	1675.24
514.38	1710.05
514.58	1791.97
514.78	1695.72
514.98	1705.96
515.18	1744.87
515.38	1677.29
515.58	1826.79
515.78	1710.05
515.98	1785.83
516.18	1818.60
516.38	1724.39
516.57	1701.86
516.77	1699.81
516.97	1777.64
517.17	1705.96
517.37	1603.56
517.57	1796.07
517.77	1648.61
517.97	1695.72
518.17	1787.88
518.37	1691.62
518.57	1722.34
518.77	1656.81
518.97	1738.73
519.16	1734.63
519.36	1761.25
519.56	1658.85
519.76	1673.19
519.96	1755.11
520.16	1791.97
520.36	1632.23
520.56	1812.45
520.76	1744.87
520.96	1716.20
521.16	1736.68
521.35	1832.93
521.55	1806.31
521.75	1728.49
521.95	1685.48
522.15	1665.00
522.35	1587.18
522.55	1699.81
522.75	1718.25
522.95	1683.43
523.14	1642.47
523.34	1751.01
523.54	1675.24
523.74	1773.54
523.94	1755.11
524.14	1648.61
524.34	1689.57
524.54	1845.22
524.73	1679.33
524.93	1773.54
525.13	1763.30
525.33	1689.57
525.53	1859.56
525.73	1789.92
525.93	1746.92
526.13	1722.34
526.32	1708.01
526.52	1781.73
526.72	1820.64
526.92	1697.77
527.12	1685.48
527.32	1642.47
527.52	1740.77
527.71	1779.68
527.91	1716.20
528.11	1720.29
528.31	1732.58
528.51	1654.76
528.71	1751.01
528.90	1689.57
529.10	1789.92
529.30	1826.79
529.50	1632.23
529.70	1660.90
529.90	1658.85
530.09	1677.29
530.29	1642.47
530.49	1703.91
530.69	1826.79
530.89	1791.97
531.09	1703.91
531.28	1744.87
531.48	1726.44
531.68	1744.87
531.88	1687.53
532.08	1783.78
532.28	1734.63
532.47	1728.49
532.67	1759.21
532.87	1765.35
533.07	1724.39
533.27	1716.20
533.46	1794.02
533.66	1841.12
533.86	1695.72
534.06	1703.91
534.26	1726.44
534.45	1791.97
534.65	1775.59
534.85	1761.25
535.05	1650.66
535.25	1716.20
535.44	1665.00
535.64	1736.68
535.84	1751.01
536.04	1708.01
536.24	1626.09
536.43	1687.53
536.63	1722.34
536.83	1720.29
537.03	1685.48
537.22	1703.91
537.42	1691.62
537.62	1705.96
537.82	1697.77
538.02	1847.27
538.21	1806.31
538.41	1822.69
538.61	1712.10
538.81	1773.54
539.00	1753.06
539.20	1699.81
539.40	1689.57
539.60	1771.49
539.79	1843.17
539.99	1687.53
540.19	1736.68
540.39	1683.43
540.58	1718.25
540.78	1726.44
540.98	1726.44
541.18	1816.55
541.37	1763.30
541.57	1714.15
541.77	1753.06
541.97	1701.86
542.16	1644.52
542.36	1665.00
542.56	1769.44
542.76	1845.22
542.95	1710.05
543.15	1734.63
543.35	1759.21
543.54	1810.40
543.74	1691.62
543.94	1757.16
544.14	1771.49
544.33	1755.11
544.53	1667.05
544.73	1710.05
544.93	1648.61
545.12	1742.82
545.32	1732.58
545.52	1732.58
545.71	1648.61
545.91	1669.09
546.11	1644.52
546.30	1718.25
546.50	1714.15
546.70	1726.44
546.90	1783.78
547.09	1687.53
547.29	1708.01
547.49	1734.63
547.68	1734.63
547.88	1722.34
548.08	1779.68
548.27	2187.23
548.47	1656.81
548.67	1712.10
548.87	1794.02
549.06	1736.68
549.26	1769.44
549.46	1751.01
549.65	1705.96
549.85	1697.77
550.05	1742.82
550.24	1669.09
550.44	1693.67
550.64	1789.92
550.83	1718.25
551.03	1796.07
551.23	1746.92
551.42	1701.86
551.62	1691.62
551.82	1787.88
552.01	1755.11
552.21	1796.07
552.41	1701.86
552.60	1783.78
552.80	1779.68
553.00	1685.48
553.19	1757.16
553.39	1812.45
553.59	1675.24
553.78	1796.07
553.98	1775.59
554.17	1677.29
554.37	1791.97
554.57	1687.53
554.76	1671.14
554.96	1683.43
555.16	1832.93
555.35	1714.15
555.55	1789.92
555.75	1644.52
555.94	1806.31
556.14	1681.38
556.33	1759.21
556.53	1751.01
556.73	1755.11
556.92	1785.83
557.12	1769.44
557.32	1855.46
557.51	1791.97
557.71	1748.97
557.90	1757.16
558.10	1804.26
558.30	1691.62
558.49	1734.63
558.69	1705.96
558.88	1714.15
559.08	1773.54
559.28	1765.35
559.47	1783.78
559.67	1775.59
559.86	1837.03
560.06	1693.67
560.26	1773.54
560.45	1806.31
560.65	1660.90
560.84	1865.70
561.04	1714.15
561.24	1822.69
561.43	1597.42
561.63	1867.75
561.82	1681.38
562.02	1728.49
562.22	1628.14
562.41	1738.73
562.61	1695.72
562.80	1757.16
563.00	1923.04
563.19	1738.73
563.39	1810.40
563.59	1777.64
563.78	1632.23
563.98	1642.47
564.17	1681.38
564.37	1634.28
564.56	1777.64
564.76	1681.38
564.96	1845.22
565.15	1720.29
565.35	1890.28
565.54	1665.00
565.74	1773.54
565.93	1714.15
566.13	1705.96
566.32	1757.16
566.52	1779.68
566.71	1736.68
566.91	1755.11
567.11	1767.40
567.30	1626.09
567.50	1785.83
567.69	1718.25
567.89	1726.44
568.08	1677.29
568.28	1806.31
568.47	1632.23
568.67	1771.49
568.86	1740.77
569.06	1796.07
569.25	1628.14
569.45	1708.01
569.64	1738.73
569.84	1742.82
570.04	1687.53
570.23	1675.24
570.43	1691.62
570.62	1789.92
570.82	1804.26
571.01	1611.75
571.21	1687.53
571.40	1658.85
571.60	1785.83
571.79	1740.77
571.99	1724.39
572.18	1689.57
572.38	1740.77
572.57	1720.29
572.77	1804.26
572.96	1865.70
573.16	1740.77
573.35	1705.96
573.55	1828.84
573.74	1714.15
573.94	1806.31
574.13	1708.01
574.33	1808.36
574.52	1728.49
574.71	1730.53
574.91	1732.58
575.10	1656.81
575.30	1708.01
575.49	1703.91
575.69	1765.35
575.88	1716.20
576.08	1683.43
576.27	1798.12
576.47	1693.67
576.66	1830.88
576.86	1769.44
577.05	1738.73
577.25	1759.21
577.44	1822.69
577.64	1781.73
577.83	1761.25
578.02	1777.64
578.22	1779.68
578.41	1804.26
578.61	1669.09
578.80	1705.96
579.00	1724.39
579.19	1740.77
579.39	1724.39
579.58	1773.54
579.77	1701.86
579.97	1822.69
580.16	1810.40
580.36	1789.92
580.55	1853.41
580.75	1736.68
580.94	1730.53
581.13	1853.41
581.33	1800.16
581.52	1777.64
581.72	1787.88
581.91	1773.54
582.11	1689.57
582.30	1810.40
582.49	1820.64
582.69	1796.07
582.88	1880.04
583.08	1757.16
583.27	1816.55
583.47	1720.29
583.66	1755.11
583.85	1736.68
584.05	1732.58
584.24	1751.01
584.44	1767.40
584.63	1783.78
584.82	1783.78
585.02	1861.60
585.21	1890.28
585.41	1912.80
585.60	1771.49
585.79	1980.39
585.99	1902.56
586.18	1798.12
586.37	2195.42
586.57	3368.91
586.76	9920.36
586.96	24620.68
587.15	34668.02
587.34	40476.05
587.54	42374.52
587.73	37086.67
587.93	26291.82
588.12	21731.00
588.31	18312.94
588.51	16365.32
588.70	15152.92
588.89	14190.38
589.09	12572.48
589.28	11028.31
589.47	9299.83
589.67	7989.13
589.86	6659.99
590.06	4851.64
590.25	3889.09
590.44	3141.58
590.64	2600.92
590.83	2338.78
591.02	2084.83
591.22	1982.43
591.41	1875.94
591.60	1748.97
591.80	1918.95
591.99	1736.68
592.18	1812.45
592.38	1761.25
592.57	1800.16
592.76	1826.79
592.96	1703.91
593.15	1738.73
593.34	1783.78
593.54	1710.05
593.73	1775.59
593.92	1789.92
594.12	1771.49
594.31	1808.36
594.50	1746.92
594.70	1730.53
594.89	1853.41
595.08	1697.77
595.28	1777.64
595.47	1920.99
595.66	1804.26
595.86	1724.39
596.05	1695.72
596.24	1718.25
596.43	1816.55
596.63	1865.70
596.82	1738.73
597.01	1738.73
597.21	1806.31
597.40	1726.44
597.59	1740.77
597.79	1650.66
597.98	1759.21
598.17	1800.16
598.36	1718.25
598.56	1697.77
598.75	1673.19
598.94	1742.82
599.14	1722.34
599.33	1701.86
599.52	1710.05
599.71	1763.30
599.91	1798.12
600.10	1812.45
600.29	1753.06
600.48	1810.40
600.68	1787.88
600.87	1789.92
601.06	1697.77
601.26	1730.53
601.45	1771.49
601.64	1742.82
601.83	1798.12
602.03	1681.38
602.22	1681.38
602.41	1779.68
602.60	1865.70
602.80	1722.34
602.99	1779.68
603.18	1703.91
603.37	1712.10
603.57	1812.45
603.76	1814.50
603.95	1757.16
604.14	1667.05
604.34	1705.96
604.53	1718.25
604.72	1728.49
604.91	1763.30
605.10	1789.92
605.30	1794.02
605.49	1886.18
605.68	1755.11
605.87	1728.49
606.07	1728.49
606.26	1777.64
606.45	1767.40
606.64	1730.53
606.84	1710.05
607.03	1724.39
607.22	1822.69
607.41	1609.70
607.60	1685.48
607.80	1734.63
607.99	1705.96
608.18	1849.32
608.37	1730.53
608.56	1685.48
608.76	1755.11
608.95	1800.16
609.14	1785.83
609.33	1724.39
609.52	1773.54
609.72	1785.83
609.91	1834.98
610.10	1669.09
610.29	1789.92
610.48	1763.30
610.68	1740.77
610.87	1769.44
611.06	1732.58
611.25	1691.62
611.44	1755.11
611.63	1681.38
611.83	1822.69
612.02	1667.05
612.21	1785.83
612.40	1624.04
612.59	1609.70
612.79	1685.48
612.98	1767.40
613.17	1824.74
613.36	1701.86
613.55	1796.07
613.74	1665.00
613.93	1703.91
614.13	1759.21
614.32	1720.29
614.51	1705.96
614.70	1662.95
614.89	1665.00
615.08	1763.30
615.28	1974.24
615.47	1665.00
615.66	1714.15
615.85	1699.81
616.04	1798.12
616.23	1732.58
616.42	1746.92
616.62	1773.54
616.81	1720.29
617.00	1685.48
617.19	1787.88
617.38	1681.38
617.57	1771.49
617.76	1859.56
617.95	1763.30
618.15	1759.21
618.34	1816.55
618.53	1701.86
618.72	1720.29
618.91	1794.02
619.10	1886.18
619.29	1648.61
619.48	1787.88
619.68	1685.48
619.87	1687.53
620.06	1658.85
620.25	1789.92
620.44	1701.86
620.63	1738.73
620.82	1689.57
621.01	1738.73
621.20	1640.42
621.39	1763.30
621.59	1734.63
621.78	1796.07
621.97	1677.29
622.16	1710.05
622.35	1697.77
622.54	1753.06
622.73	1910.75
622.92	1658.85
623.11	1849.32
623.30	1740.77
623.49	1824.74
623.68	1732.58
623.88	1800.16
624.07	1697.77
624.26	1742.82
624.45	1714.15
624.64	1654.76
624.83	1726.44
625.02	1718.25
625.21	1718.25
625.40	1701.86
625.59	1839.08
625.78	1685.48
625.97	1810.40
626.16	1703.91
626.35	1773.54
626.54	1697.77
626.74	1783.78
626.93	1734.63
627.12	1693.67
627.31	1763.30
627.50	1761.25
627.69	1779.68
627.88	1593.32
628.07	1708.01
628.26	1722.34
628.45	1724.39
628.64	1683.43
628.83	1671.14
629.02	1644.52
629.21	1791.97
629.40	1613.80
629.59	1617.90
629.78	1675.24
629.97	1755.11
630.16	1699.81
630.35	1677.29
630.54	1675.24
630.73	1656.81
630.92	1757.16
631.11	1701.86
631.30	1714.15
631.49	1671.14
631.68	1845.22
631.87	1746.92
632.06	1630.18
632.25	1861.60
632.44	1742.82
632.63	1726.44
632.82	1685.48
633.01	1681.38
633.20	1712.10
633.39	1583.08
633.58	1626.09
633.77	1761.25
633.96	1716.20
634.15	1732.58
634.34	1738.73
634.53	1746.92
634.72	1748.97
634.91	1621.99
635.10	1738.73
635.29	1775.59
635.48	1722.34
635.67	1683.43
635.86	1638.38
636.05	1771.49
636.24	1744.87
636.43	1662.95
636.62	1673.19
636.81	1554.41
637.00	1689.57
637.19	1736.68
637.38	1720.29
637.57	1726.44
637.76	1689.57
637.95	1748.97
638.14	1605.61
638.33	1724.39
638.52	1763.30
638.71	1675.24
638.89	1570.79
639.08	1865.70
639.27	1734.63
639.46	1683.43
639.65	1746.92
639.84	1685.48
640.03	1697.77
640.22	1693.67
640.41	1812.45
640.60	1630.18
640.79	1810.40
640.98	1689.57
641.17	1761.25
641.36	1662.95
641.55	1779.68
641.74	1644.52
641.92	1722.34
642.11	1665.00
642.30	1775.59
642.49	1708.01
642.68	1669.09
642.87	1755.11
643.06	1701.86
643.25	1681.38
643.44	1599.46
643.63	1779.68
643.82	1734.63
644.00	1675.24
644.19	1748.97
644.38	1603.56
644.57	1748.97
644.76	1662.95
644.95	1669.09
645.14	1701.86
645.33	1650.66
645.52	1634.28
645.71	1656.81
645.89	1624.04
646.08	1693.67
646.27	1673.19
646.46	1857.51
646.65	1638.38
646.84	1675.24
647.03	1714.15
647.22	1847.27
647.40	1796.07
647.59	1705.96
647.78	1568.74
647.97	1775.59
648.16	1685.48
648.35	1728.49
648.54	1763.30
648.73	1679.33
648.91	1736.68
649.10	1742.82
649.29	1722.34
649.48	1755.11
649.67	1738.73
649.86	1730.53
650.05	1638.38
650.23	1777.64
650.42	1636.33
650.61	1775.59
650.80	1734.63
650.99	1812.45
651.18	1755.11
651.36	1722.34
651.55	1726.44
651.74	1683.43
651.93	1615.85
652.12	1708.01
652.31	1697.77
652.49	1716.20
652.68	1619.94
652.87	1800.16
653.06	1794.02
653.25	1783.78
653.44	1697.77
653.62	1787.88
653.81	1671.14
654.00	1740.77
654.19	1730.53
654.38	1828.84
654.56	1687.53
654.75	1673.19
654.94	1714.15
655.13	1673.19
655.32	1697.77
655.51	1697.77
655.69	1673.19
655.88	1701.86
656.07	1681.38
656.26	1763.30
656.45	1642.47
656.63	1691.62
656.82	1673.19
657.01	1757.16
657.20	1624.04
657.38	1753.06
657.57	1628.14
657.76	1632.23
657.95	1697.77
658.14	1640.42
658.32	1716.20
658.51	1669.09
658.70	1738.73
658.89	1732.58
659.08	1732.58
659.26	1742.82
659.45	1599.46
659.64	1744.87
659.83	1652.71
660.01	1920.99
660.20	1656.81
660.39	1773.54
660.58	1626.09
660.76	1820.64
660.95	1683.43
661.14	1703.91
661.33	1550.31
661.51	1724.39
661.70	1693.67
661.89	1677.29
662.08	1794.02
662.26	1660.90
662.45	1675.24
662.64	1804.26
662.83	1763.30
663.01	1644.52
663.20	1705.96
663.39	1849.32
663.58	1650.66
663.76	1691.62
663.95	1718.25
664.14	1642.47
664.32	1662.95
664.51	1636.33
664.70	1617.90
664.89	1710.05
665.07	1683.43
665.26	1832.93
665.45	1691.62
665.64	1613.80
665.82	1736.68
666.01	1691.62
666.20	1777.64
666.38	1804.26
666.57	1804.26
666.76	2160.61
666.95	4472.76
667.13	10448.74
667.32	15263.51
667.51	18169.58
667.69	19125.98
667.88	17331.96
668.07	12408.64
668.25	9566.06
668.44	8167.30
668.63	7270.29
668.81	6715.29
669.00	6375.33
669.19	5674.92
669.38	5134.26
669.56	4554.68
669.75	4108.23
669.94	3395.53
670.12	2920.40
670.31	2537.43
670.50	2287.58
670.68	2035.68
670.87	1900.52
671.06	1843.17
671.24	1789.92
671.43	1822.69
671.62	1773.54
671.80	1689.57
671.99	1740.77
672.18	1671.14
672.36	1720.29
672.55	1791.97
672.74	1665.00
672.92	1689.57
673.11	1675.24
673.29	1712.10
673.48	1736.68
673.67	1720.29
673.85	1746.92
674.04	1734.63
674.23	1675.24
674.41	1769.44
674.60	1705.96
674.79	1705.96
674.97	1636.33
675.16	1689.57
675.34	1814.50
675.53	1695.72
675.72	1744.87
675.90	1773.54
676.09	1701.86
676.28	1724.39
676.46	1673.19
676.65	1761.25
676.83	1632.23
677.02	1705.96
677.21	1697.77
677.39	1796.07
677.58	1648.61
677.77	1613.80
677.95	1722.34
678.14	1781.73
678.32	1665.00
678.51	1695.72
678.70	1853.41
678.88	1693.67
679.07	1705.96
679.25	1691.62
679.44	1675.24
679.63	1601.51
679.81	1679.33
680.00	1771.49
680.18	1726.44
680.37	1808.36
680.55	1628.14
680.74	1644.52
680.93	1603.56
681.11	1757.16
681.30	1722.34
681.48	1746.92
681.67	1695.72
681.85	1675.24
682.04	1732.58
682.23	1736.68
682.41	1701.86
682.60	1708.01
682.78	1771.49
682.97	1652.71
683.15	1701.86
683.34	1681.38
683.53	1740.77
683.71	1673.19
683.90	1781.73
684.08	1785.83
684.27	1697.77
684.45	1812.45
684.64	1734.63
684.82	1681.38
685.01	1691.62
685.19	1695.72
685.38	1748.97
685.57	1718.25
685.75	1630.18
685.94	1722.34
686.12	1644.52
686.31	1769.44
686.49	1742.82
686.68	1572.84
686.86	1708.01
687.05	1701.86
687.23	1785.83
687.42	1796.07
687.60	1734.63
687.79	1804.26
687.97	1789.92
688.16	1787.88
688.34	1804.26
688.53	1650.66
688.71	1783.78
688.90	1828.84
689.08	1648.61
689.27	1595.37
689.45	1789.92
689.64	1779.68
689.82	1748.97
690.01	1742.82
690.19	1648.61
690.38	1572.84
690.56	1720.29
690.75	1693.67
690.93	1732.58
691.12	1738.73
691.30	1718.25
691.49	1648.61
691.67	1740.77
691.86	1802.21
692.04	1705.96
692.23	1548.26
692.41	1675.24
692.60	1837.03
692.78	1669.09
692.97	1650.66
693.15	1730.53
693.34	1732.58
693.52	1839.08
693.71	1794.02
693.89	1716.20
694.08	1644.52
694.26	1712.10
694.44	1761.25
694.63	1746.92
694.81	1662.95
695.00	1619.94
695.18	1763.30
695.37	1783.78
695.55	1703.91
695.74	1665.00
695.92	1673.19
696.10	1746.92
696.29	1607.66
696.47	1738.73
696.66	1671.14
696.84	1722.34
697.03	1687.53
697.21	1806.31
697.40	2263.01
697.58	1777.64
697.76	1646.57
697.95	1675.24
698.13	1648.61
698.32	1679.33
698.50	1701.86
698.68	1738.73
698.87	1667.05
699.05	1763.30
699.24	1716.20
699.42	1654.76
699.61	1667.05
699.79	1720.29
699.97	1683.43
700.16	1671.14
700.34	1665.00
700.53	1683.43
700.71	1701.86
700.89	1818.60
701.08	1777.64
701.26	1701.86
701.45	2099.17
701.63	1695.72
701.81	1757.16
702.00	1572.84
702.18	1576.94
702.37	1697.77
702.55	1701.86
702.73	1720.29
702.92	1597.42
703.10	1683.43
703.28	1759.21
703.47	1617.90
703.65	1865.70
703.84	1648.61
704.02	1634.28
704.20	1775.59
704.39	1683.43
704.57	1671.14
704.75	1720.29
704.94	1722.34
705.12	1689.57
705.30	1738.73
705.49	2183.13
705.67	4517.82
705.86	9570.16
706.04	12699.45
706.22	14579.49
706.41	15363.86
706.59	13952.81
706.77	9473.90
706.96	7403.41
707.14	6692.76
707.32	5855.14
707.51	5642.15
707.69	4874.17
707.87	4302.78
708.06	3626.95
708.24	3020.75
708.42	2469.85
708.61	2244.57
708.79	1937.38
708.97	1910.75
709.16	1804.26
709.34	1816.55
709.52	1734.63
709.71	1679.33
709.89	1775.59
710.07	1665.00
710.26	1669.09
710.44	1765.35
710.62	1773.54
710.80	1710.05
710.99	1746.92
711.17	1755.11
711.35	1654.76
711.54	1640.42
711.72	1789.92
711.90	1779.68
712.09	1683.43
712.27	1658.85
712.45	1677.29
712.63	1699.81
712.82	1769.44
713.00	1685.48
713.18	1777.64
713.37	1769.44
713.55	1740.77
713.73	1687.53
713.91	1677.29
714.10	1720.29
714.28	1605.61
714.46	1726.44
714.65	1804.26
714.83	1765.35
715.01	1705.96
715.19	1714.15
715.38	1687.53
715.56	1742.82
715.74	1634.28
715.92	1693.67
716.11	1773.54
716.29	1599.46
716.47	1701.86
716.65	1675.24
716.84	1669.09
717.02	1689.57
717.20	1605.61
717.38	1720.29
717.57	1703.91
717.75	1714.15
717.93	1685.48
718.11	1730.53
718.30	1658.85
718.48	1730.53
718.66	1751.01
718.84	1718.25
719.03	1710.05
719.21	1642.47
719.39	1894.37
719.57	1751.01
719.75	1849.32
719.94	1710.05
720.12	1628.14
720.30	1771.49
720.48	1740.77
720.67	1615.85
720.85	1652.71
721.03	1699.81
721.21	1660.90
721.39	1839.08
721.58	1753.06
721.76	1693.67
721.94	1701.86
722.12	1689.57
722.30	1771.49
722.49	1681.38
722.67	1650.66
722.85	1675.24
723.03	1648.61
723.21	1675.24
723.40	1746.92
723.58	1730.53
723.76	1708.01
723.94	1798.12
724.12	1593.32
724.30	1748.97
724.49	1744.87
724.67	1660.90
724.85	1820.64
725.03	1646.57
725.21	1787.88
725.40	1732.58
725.58	1644.52
725.76	1775.59
725.94	1787.88
726.12	1656.81
726.30	1724.39
726.49	1665.00
726.67	1669.09
726.85	1718.25
727.03	1781.73
727.21	2181.09
727.39	2897.88
727.57	3739.59
727.76	4116.42
727.94	4476.86
728.12	4519.87
728.30	3606.47
728.48	3026.90
728.66	2758.61
728.84	2551.77
729.03	2342.88
729.21	2129.89
729.39	2017.25
729.57	1824.74
729.75	1767.40
729.93	1814.50
730.11	1710.05
730.30	1716.20
730.48	1705.96
730.66	1875.94
730.84	1794.02
731.02	1732.58
731.20	1648.61
731.38	1734.63
731.56	1605.61
731.74	1628.14
731.93	1738.73
732.11	1744.87
732.29	1689.57
732.47	1718.25
732.65	1748.97
732.83	1781.73
733.01	1681.38
733.19	1656.81
733.37	1714.15
733.56	1791.97
733.74	1728.49
733.92	1724.39
734.10	1679.33
734.28	1734.63
734.46	1566.70
734.64	1638.38
734.82	1744.87
735.00	1730.53
735.18	1691.62
735.36	1679.33
735.54	1710.05
735.73	1685.48
735.91	1705.96
736.09	1775.59
736.27	1689.57
736.45	1769.44
736.63	1634.28
736.81	1675.24
736.99	1712.10
737.17	1781.73
737.35	1658.85
737.53	1734.63
737.71	1576.94
737.89	1785.83
738.07	1644.52
738.25	1675.24
738.43	1578.98
738.61	1648.61
738.80	1675.24
738.98	1658.85
739.16	1697.77
739.34	1701.86
739.52	1738.73
739.70	1714.15
739.88	1751.01
740.06	1812.45
740.24	1626.09
740.42	1753.06
740.60	1568.74
740.78	1677.29
740.96	1589.22
741.14	1677.29
741.32	1615.85
741.50	1615.85
741.68	1767.40
741.86	1730.53
742.04	1708.01
742.22	1634.28
742.40	1697.77
742.58	1693.67
742.76	1714.15
742.94	1701.86
743.12	1603.56
743.30	1638.38
743.48	1703.91
743.66	1662.95
743.84	1662.95
744.02	1660.90
744.20	1677.29
744.38	1673.19
744.56	1683.43
744.74	1794.02
744.92	1740.77
745.10	1730.53
745.28	1718.25
745.46	1699.81
745.64	1685.48
745.82	1800.16
746.00	1677.29
746.18	1722.34
746.36	1662.95
746.54	1615.85
746.72	1681.38
746.90	1603.56
747.08	1779.68
747.26	1675.24
747.44	1796.07
747.62	1648.61
747.80	1662.95
747.98	1732.58
748.15	1710.05
748.33	1728.49
748.51	1681.38
748.69	1718.25
748.87	1701.86
749.05	1701.86
749.23	1632.23
749.41	1751.01
749.59	1640.42
749.77	1703.91
749.95	1595.37
750.13	1619.94
750.31	1673.19
750.49	1736.68
750.67	1681.38
750.85	1730.53
751.03	1685.48
751.20	1822.69
751.38	1742.82
751.56	1681.38
751.74	1726.44
751.92	1695.72
752.10	1601.51
752.28	1804.26
752.46	1611.75
752.64	1710.05
752.82	1701.86
753.00	1710.05
753.18	1693.67
753.35	1662.95
753.53	1710.05
753.71	1677.29
753.89	1718.25
754.07	1587.18
754.25	1824.74
754.43	1619.94
754.61	1648.61
754.79	1773.54
754.97	1708.01
755.14	1703.91
755.32	1671.14
755.50	1710.05
755.68	1601.51
755.86	1578.98
756.04	1656.81
756.22	1597.42
756.40	1728.49
756.57	1705.96
756.75	1740.77
756.93	1699.81
757.11	1665.00
757.29	1615.85
757.47	1683.43
757.65	1667.05
757.82	1626.09
758.00	1615.85
758.18	1701.86
758.36	1585.13
758.54	1720.29
758.72	1595.37
758.90	1748.97
759.07	1728.49
759.25	1636.33
759.43	1699.81
759.61	1591.27
759.79	2207.71
759.97	1763.30
760.15	1677.29
760.32	1689.57
760.50	1669.09
760.68	1755.11
760.86	1712.10
761.04	1705.96
761.22	1724.39
761.39	1734.63
761.57	1728.49
761.75	1720.29
761.93	1697.77
762.11	1660.90
762.28	1675.24
762.46	1656.81
762.64	1712.10
762.82	1650.66
763.00	1660.90
763.18	1734.63
763.35	1626.09
763.53	1734.63
763.71	1691.62
763.89	1660.90
764.07	1699.81
764.24	1677.29
764.42	1662.95
764.60	1693.67
764.78	1748.97
764.96	1658.85
765.13	1734.63
765.31	1669.09
765.49	1757.16
765.67	1632.23
765.84	1609.70
766.02	1679.33
766.20	1646.57
766.38	1685.48
766.56	1662.95
766.73	1685.48
766.91	1630.18
767.09	1689.57
767.27	1703.91
767.44	1593.32
767.62	1652.71
767.80	1640.42
767.98	1656.81
768.15	1644.52
768.33	1767.40
768.51	1744.87
768.69	1736.68
768.87	1650.66
769.04	1689.57
769.22	1791.97
769.40	1861.60
769.58	1830.88
769.75	1701.86
769.93	1781.73
770.11	1671.14
770.28	1601.51
770.46	1765.35
770.64	1628.14
770.82	1656.81
770.99	1720.29
771.17	1769.44
771.35	1660.90
771.53	1654.76
771.70	1648.61
771.88	1615.85
772.06	1660.90
772.23	1771.49
772.41	1787.88
772.59	1703.91
772.77	1648.61
772.94	1677.29
773.12	1654.76
773.30	1658.85
773.47	1679.33
773.65	1650.66
773.83	1845.22
774.01	1755.11
774.18	1556.46
774.36	1736.68
774.54	1648.61
774.71	1746.92
774.89	1677.29
775.07	1648.61
775.24	1646.57
775.42	1687.53
775.60	1830.88
775.78	1646.57
775.95	1611.75
776.13	1609.70
776.31	1591.27
776.48	1673.19
776.66	1736.68
776.84	1781.73
777.01	1703.91
777.19	1751.01
777.37	1683.43
777.54	1679.33
777.72	1794.02
777.90	1673.19
778.07	1681.38
778.25	1871.84
778.43	1730.53
778.60	1642.47
778.78	1740.77
778.96	1759.21
779.13	1681.38
779.31	1708.01
779.49	1685.48
779.66	1699.81
779.84	1716.20
780.01	1642.47
780.19	1638.38
780.37	1730.53
780.54	1689.57
780.72	1691.62
780.90	1681.38
781.07	1656.81
781.25	1697.77
781.43	1746.92
781.60	1699.81
781.78	1767.40
781.95	1673.19
782.13	1648.61
782.31	1699.81
782.48	1642.47
782.66	1673.19
782.83	1820.64
783.01	1728.49
783.19	1757.16
783.36	1697.77
783.54	1685.48
783.72	1734.63
783.89	1628.14
784.07	1724.39
784.24	1685.48
784.42	1746.92
784.60	1662.95
784.77	1765.35
784.95	1695.72
785.12	1681.38
785.30	1689.57
785.47	1624.04
785.65	1568.74
785.83	1626.09
786.00	1632.23
786.18	1757.16
786.35	1652.71
786.53	1724.39
786.71	1753.06
786.88	1720.29
787.06	1785.83
787.23	1681.38
787.41	1640.42
787.58	1691.62
787.76	1644.52
787.94	1744.87
788.11	1675.24
788.29	1644.52
788.46	1675.24
788.64	1595.37
788.81	1642.47
788.99	1619.94
789.16	1574.89
789.34	1734.63
789.52	1701.86
789.69	1667.05
789.87	1630.18
790.04	1617.90
790.22	1697.77
790.39	1822.69
790.57	1656.81
790.74	1632.23
790.92	1742.82
791.09	1591.27
791.27	1687.53
791.44	1902.56
791.62	1679.33
791.79	1757.16
791.97	1748.97
792.15	1843.17
792.32	1687.53
792.50	1765.35
792.67	1746.92
792.85	1763.30
793.02	1673.19
793.20	1722.34
793.37	1591.27
793.55	1638.38
793.72	1601.51
793.90	1730.53
794.07	1652.71
794.25	1578.98
794.42	1691.62
794.60	1685.48
794.77	1763.30
794.95	1716.20
795.12	1773.54
795.30	1689.57
795.47	1665.00
795.65	1845.22
795.82	1660.90
796.00	1607.66
796.17	1671.14
796.34	1699.81
796.52	1626.09
796.69	1673.19
796.87	1722.34
797.04	1648.61
797.22	1763.30
797.39	1681.38
797.57	1730.53
797.74	1708.01
797.92	1712.10
798.09	1675.24
798.27	1787.88
798.44	1658.85
798.62	1552.36
798.79	1726.44
798.96	1671.14
799.14	1703.91
799.31	1865.70
799.49	1646.57
799.66	1662.95
799.84	1701.86
800.01	1669.09
800.19	1722.34
800.36	1603.56
800.53	1703.91
800.71	1671.14
800.88	1757.16
801.06	1691.62
801.23	1665.00
801.41	1628.14
801.58	1660.90
801.75	1673.19
801.93	1705.96
802.10	1763.30
802.28	1652.71
802.45	1632.23
802.63	1714.15
802.80	1718.25
802.97	1617.90
803.15	1646.57
803.32	1619.94
803.50	1544.17
803.67	1601.51
803.84	1630.18
804.02	1724.39
804.19	1685.48
804.37	1621.99
804.54	1658.85
804.71	1644.52
804.89	1687.53
805.06	1675.24
805.24	1695.72
805.41	1677.29
805.58	1642.47
805.76	1890.28
805.93	1671.14
806.10	1705.96
806.28	1738.73
806.45	1708.01
806.63	1695.72
806.80	1728.49
806.97	1767.40
807.15	1718.25
807.32	1654.76
807.49	1757.16
807.67	1613.80
807.84	1705.96
808.01	1560.55
808.19	1826.79
808.36	1824.74
808.54	1542.12
808.71	1619.94
808.88	1701.86
809.06	1703.91
809.23	1808.36
809.40	1660.90
809.58	1767.40
809.75	1718.25
809.92	1669.09
810.10	1865.70
810.27	1730.53
810.44	1753.06
810.62	1779.68
810.79	1787.88
810.96	1718.25
811.14	1652.71
811.31	1714.15
811.48	1753.06
811.66	1714.15
811.83	1722.34
812.00	1783.78
812.18	1667.05
812.35	1826.79
812.52	1712.10
812.69	1652.71
812.87	1613.80
813.04	1619.94
813.21	1693.67
813.39	1671.14
813.56	1605.61
813.73	1746.92
813.91	1675.24
814.08	1673.19
814.25	1675.24
814.42	1634.28
814.60	1742.82
814.77	1679.33
814.94	1722.34
815.12	1640.42
815.29	1726.44
815.46	1609.70
815.63	1691.62
815.81	1654.76
815.98	1665.00
816.15	1705.96
816.33	1751.01
816.50	1697.77
816.67	1708.01
816.84	1687.53
817.02	1613.80
817.19	1746.92
817.36	1701.86
817.53	1697.77
817.71	1656.81
817.88	1671.14
818.05	1644.52
818.22	1687.53
818.40	1806.31
818.57	1679.33
818.74	1699.81
818.91	1712.10
819.09	1738.73
819.26	1708.01
819.43	1673.19
819.60	1740.77
819.78	1736.68
819.95	1796.07
820.12	1611.75
820.29	1730.53
820.47	1755.11
820.64	1605.61
820.81	1621.99
820.98	1685.48
821.15	1660.90
821.33	1781.73
821.50	1531.88
821.67	1652.71
821.84	1642.47
822.02	1740.77
822.19	1753.06
822.36	1691.62
822.53	1681.38
822.70	1630.18
822.88	1630.18
823.05	1744.87
823.22	1658.85
823.39	1751.01
823.56	1681.38
823.74	1796.07
823.91	1624.04
824.08	1697.77
824.25	1648.61
824.42	1746.92
824.60	1624.04
824.77	1730.53
824.94	1634.28
825.11	1808.36
825.28	1593.32
825.45	1644.52
825.63	1693.67
825.80	1585.13
825.97	1679.33
826.14	1708.01
826.31	1640.42
826.48	1699.81
826.66	1708.01
826.83	1587.18
827.00	1716.20
827.17	1714.15
827.34	1763.30
827.51	1699.81
827.69	1630.18
827.86	1583.08
828.03	1724.39
828.20	1677.29
828.37	1675.24
828.54	1685.48
828.71	1720.29
828.89	1728.49
829.06	1656.81
829.23	1783.78
829.40	1701.86
829.57	1658.85
829.74	1615.85
829.91	1675.24
830.09	1671.14
830.26	1681.38
830.43	1779.68
830.60	1673.19
830.77	1701.86
830.94	1798.12
831.11	1740.77
831.28	1632.23
831.46	1712.10
831.63	1697.77
831.80	1662.95
831.97	1615.85
832.14	1644.52
832.31	1712.10
832.48	1730.53
832.65	1755.11
832.82	1640.42
832.99	1753.06
833.17	1683.43
833.34	1710.05
833.51	1722.34
833.68	1538.02
833.85	1746.92
834.02	1669.09
834.19	1648.61
834.36	1601.51
834.53	1695.72
834.70	1691.62
834.87	1720.29
835.04	1640.42
835.22	1603.56
835.39	1597.42
835.56	1673.19
835.73	1687.53
835.90	1675.24
836.07	1677.29
836.24	1720.29
836.41	1632.23
836.58	1634.28
836.75	1820.64
836.92	1660.90
837.09	1595.37
837.26	1705.96
837.43	1742.82
837.60	1703.91
837.77	1648.61
837.94	1791.97
838.12	1757.16
838.29	1595.37
838.46	1593.32
838.63	1673.19
838.80	1822.69
838.97	1828.84
839.14	1748.97
839.31	1691.62
839.48	1697.77
839.65	1683.43
839.82	1679.33
839.99	1673.19
840.16	1724.39
840.33	1564.65
840.50	1619.94
840.67	1652.71
840.84	1550.31
841.01	1705.96
841.18	1705.96
841.35	1685.48
841.52	1701.86
841.69	1822.69
841.86	1673.19
842.03	1705.96
842.20	1757.16
842.37	1742.82
842.54	1697.77
842.71	1708.01
842.88	1578.98
843.05	1773.54
843.22	1679.33
843.39	1662.95
843.56	1738.73
843.73	1673.19
843.90	1720.29
844.07	1695.72
844.24	1765.35
844.41	1740.77
844.58	1691.62
844.75	1652.71
844.92	1701.86
845.09	1724.39
845.26	1677.29
845.43	1726.44
845.60	1675.24
845.77	1791.97
845.94	1708.01
846.10	1718.25
846.27	1599.46
846.44	1624.04
846.61	1634.28
846.78	1734.63
846.95	1781.73
847.12	1714.15
847.29	1705.96
847.46	1628.14
847.63	1714.15
847.80	1626.09
847.97	1730.53
848.14	1773.54
848.31	1677.29
848.48	1621.99
848.65	1703.91
848.82	1619.94
848.98	1820.64
849.15	1697.77
849.32	1683.43
849.49	1767.40
849.66	1638.38
849.83	1646.57
850.00	1640.42
850.17	1710.05
850.34	1662.95
850.51	1722.34
850.68	1595.37
850.85	1867.75
851.01	1712.10
851.18	1726.44
851.35	1705.96
851.52	1642.47
851.69	1798.12
851.86	1587.18
852.03	1695.72
852.20	1796.07
852.37	1767.40
852.53	1566.70
852.70	1652.71
852.87	1701.86
853.04	1777.64
853.21	1746.92
853.38	1771.49
853.55	1718.25
853.72	1761.25
853.89	1697.77
854.05	1718.25
854.22	1650.66
854.39	1689.57
854.56	1642.47
854.73	1763.30
854.90	1650.66
855.07	1677.29
855.23	1671.14
855.40	1683.43
855.57	1794.02
855.74	1593.32
855.91	1777.64
856.08	1695.72
856.25	1585.13
856.41	1665.00
856.58	1658.85
856.75	1660.90
856.92	1677.29
857.09	1771.49
857.26	1636.33
857.42	1673.19
857.59	1724.39
857.76	1593.32
857.93	1634.28
858.10	1679.33
858.27	1656.81
858.43	1652.71
858.60	1665.00
858.77	1615.85
858.94	1669.09
859.11	1722.34
859.27	1560.55
859.44	1665.00
859.61	1796.07
859.78	1718.25
859.95	1675.24
860.12	1685.48
860.28	1810.40
860.45	1740.77
860.62	1689.57
860.79	1628.14
860.95	1617.90
861.12	1667.05
861.29	1691.62
861.46	1615.85
861.63	1660.90
861.79	1714.15
861.96	1640.42
862.13	1697.77
862.30	1714.15
862.47	1634.28
862.63	1636.33
862.80	1761.25
862.97	1773.54
863.14	1718.25
863.30	1601.51
863.47	1679.33
863.64	1820.64
863.81	1716.20
863.97	1665.00
864.14	1675.24
864.31	1710.05
864.48	1751.01
864.65	1673.19
864.81	1665.00
864.98	1755.11
865.15	1699.81
865.32	1734.63
865.48	1787.88
865.65	1837.03
865.82	1689.57
865.98	1740.77
866.15	1777.64
866.32	1654.76
866.49	1650.66
866.65	1736.68
866.82	1728.49
866.99	1710.05
867.16	1621.99
867.32	1689.57
867.49	1599.46
867.66	1687.53
867.83	1705.96
867.99	1636.33
868.16	1662.95
868.33	1630.18
868.49	1681.38
868.66	1691.62
868.83	1730.53
868.99	1728.49
869.16	1640.42
869.33	1812.45
869.50	1789.92
869.66	1742.82
869.83	1722.34
870.00	1677.29
870.16	1699.81
870.33	1679.33
870.50	1769.44
870.66	1673.19
870.83	1837.03
871.00	1665.00
871.17	1763.30
871.33	1773.54
871.50	1689.57
871.67	1691.62
871.83	1656.81
872.00	1775.59
872.17	1660.90
872.33	1755.11
872.50	1812.45
872.67	1693.67
872.83	1632.23
873.00	1648.61
873.17	1746.92
873.33	1708.01
873.50	1673.19
873.67	1636.33
873.83	1634.28
874.00	1714.15
874.16	1748.97
874.33	1683.43
874.50	1677.29
874.66	1644.52
874.83	1615.85
875.00	1738.73
875.16	1667.05
875.33	1783.78
875.50	1658.85
875.66	1685.48
875.83	1667.05
875.99	1746.92
876.16	1685.48
876.33	1589.22
876.49	1710.05
876.66	1689.57
876.83	1677.29
876.99	1542.12
877.16	1642.47
877.32	1687.53
877.49	1681.38
877.66	1601.51
877.82	1843.17
877.99	1712.10
878.15	1738.73
878.32	1675.24
878.49	1667.05
878.65	1675.24
878.82	1816.55
878.98	1695.72
879.15	1703.91
879.32	1755.11
879.48	1615.85
879.65	1708.01
879.81	1607.66
879.98	1681.38
880.15	1703.91
880.31	1751.01
880.48	1636.33
880.64	1814.50
880.81	1615.85
880.97	1857.51
881.14	1751.01
881.31	1630.18
881.47	1841.12
881.64	1652.71
881.80	1599.46
881.97	1716.20
882.13	1699.81
882.30	1681.38
882.47	1683.43
882.63	1632.23
882.80	1613.80
882.96	1716.20
883.13	1710.05
883.29	1712.10
883.46	1714.15
883.62	1789.92
883.79	1697.77
883.95	1724.39
884.12	1624.04
884.29	1775.59
884.45	1681.38
884.62	1796.07
884.78	1576.94
884.95	1763.30
885.11	1619.94
885.28	1744.87
885.44	1732.58
885.61	1662.95
885.77	1779.68
885.94	1689.57
886.10	1722.34
886.27	1671.14
886.43	1796.07
886.60	1755.11
886.76	1665.00
886.93	1615.85
887.09	1677.29
887.26	1642.47
887.42	1689.57
887.59	1697.77
887.75	1832.93
887.92	1794.02
888.08	1726.44
888.25	1808.36
888.41	1708.01
888.58	1753.06
888.74	1656.81
888.91	1636.33
>>>>>End Processed Spectral Data<<<<<
