SpectraSuite Data File
++++++++++++++++++++++++++++++++++++
Date: Mon Jun 06 13:24:17 CEST 2016
User: root
Dark Spectrum Present: No
Reference Spectrum Present: No
Number of Sampled Component Spectra: 1
Spectrometers: USB4C02835
Integration Time (usec): 100000 (USB4C02835)
Spectra Averaged: 1 (USB4C02835)
Boxcar Smoothing: 0 (USB4C02835)
Correct for Electrical Dark: No (USB4C02835)
Strobe/Lamp Enabled: No (USB4C02835)
Correct for Detector Non-linearity: No (USB4C02835)
Correct for Stray Light: No (USB4C02835)
Number of Pixels in Processed Spectrum: 3648
>>>>>Begin Processed Spectral Data<<<<<
177.47	1495.02
177.69	1495.02
177.91	1495.02
178.13	1452.01
178.36	1435.63
178.58	1693.67
178.80	1802.21
179.02	1634.28
179.24	1703.91
179.46	1669.09
179.68	1681.38
179.90	1667.05
180.13	1714.15
180.35	1636.33
180.57	1658.85
180.79	1679.33
181.01	1648.61
181.23	1701.86
181.45	1716.20
181.67	1708.01
181.90	1753.06
182.12	1642.47
182.34	1626.09
182.56	1695.72
182.78	1751.01
183.00	1607.66
183.22	1656.81
183.44	1632.23
183.66	1818.60
183.89	1785.83
184.11	1736.68
184.33	1705.96
184.55	1755.11
184.77	1791.97
184.99	1703.91
185.21	1656.81
185.43	1822.69
185.65	1660.90
185.87	1626.09
186.10	1781.73
186.32	1853.41
186.54	1714.15
186.76	1656.81
186.98	1785.83
187.20	1705.96
187.42	1626.09
187.64	1722.34
187.86	1708.01
188.08	1716.20
188.30	1630.18
188.52	1699.81
188.75	1718.25
188.97	1834.98
189.19	1699.81
189.41	1779.68
189.63	1775.59
189.85	1716.20
190.07	1632.23
190.29	1624.04
190.51	1658.85
190.73	1656.81
190.95	1800.16
191.17	1689.57
191.39	1687.53
191.61	1667.05
191.84	1673.19
192.06	1669.09
192.28	1632.23
192.50	1853.41
192.72	1685.48
192.94	1650.66
193.16	1769.44
193.38	1703.91
193.60	1628.14
193.82	1681.38
194.04	1767.40
194.26	1765.35
194.48	1714.15
194.70	1648.61
194.92	1669.09
195.14	1734.63
195.36	1628.14
195.58	1693.67
195.80	1681.38
196.02	1656.81
196.24	1691.62
196.46	1730.53
196.69	1679.33
196.91	1834.98
197.13	1597.42
197.35	1673.19
197.57	1832.93
197.79	1779.68
198.01	1708.01
198.23	1640.42
198.45	1699.81
198.67	1583.08
198.89	1644.52
199.11	1718.25
199.33	1605.61
199.55	1546.22
199.77	1703.91
199.99	1734.63
200.21	1687.53
200.43	1675.24
200.65	1595.37
200.87	1546.22
201.09	1677.29
201.31	1656.81
201.53	1708.01
201.75	1671.14
201.97	1722.34
202.19	1761.25
202.41	1714.15
202.63	1763.30
202.85	1679.33
203.07	1748.97
203.29	1591.27
203.51	1617.90
203.73	1665.00
203.95	1880.04
204.17	1730.53
204.39	1677.29
204.61	1708.01
204.83	1642.47
205.05	1759.21
205.27	1751.01
205.49	1773.54
205.71	1746.92
205.93	1667.05
206.15	1617.90
206.37	1669.09
206.59	1701.86
206.81	1624.04
207.03	1720.29
207.25	1634.28
207.47	1691.62
207.69	1679.33
207.91	1830.88
208.13	1714.15
208.34	1673.19
208.56	1644.52
208.78	1779.68
209.00	1660.90
209.22	1591.27
209.44	1609.70
209.66	1615.85
209.88	1730.53
210.10	1681.38
210.32	1642.47
210.54	1751.01
210.76	1724.39
210.98	1730.53
211.20	1583.08
211.42	1583.08
211.64	1771.49
211.86	1665.00
212.08	1708.01
212.30	1769.44
212.52	1650.66
212.74	1697.77
212.96	1755.11
213.17	1755.11
213.39	1785.83
213.61	1806.31
213.83	1759.21
214.05	1642.47
214.27	1744.87
214.49	1656.81
214.71	1644.52
214.93	1718.25
215.15	1734.63
215.37	1755.11
215.59	1669.09
215.81	1763.30
216.03	1726.44
216.24	1662.95
216.46	1646.57
216.68	1607.66
216.90	1740.77
217.12	1667.05
217.34	1656.81
217.56	1720.29
217.78	1779.68
218.00	1634.28
218.22	1703.91
218.44	1732.58
218.66	1728.49
218.87	1783.78
219.09	1648.61
219.31	1710.05
219.53	1665.00
219.75	1693.67
219.97	1660.90
220.19	1716.20
220.41	1697.77
220.63	1708.01
220.85	1789.92
221.06	1697.77
221.28	1677.29
221.50	1767.40
221.72	1730.53
221.94	1689.57
222.16	1697.77
222.38	1699.81
222.60	1826.79
222.82	1634.28
223.03	1665.00
223.25	1736.68
223.47	1761.25
223.69	1785.83
223.91	1691.62
224.13	1744.87
224.35	1634.28
224.57	1695.72
224.78	1718.25
225.00	1656.81
225.22	1677.29
225.44	1617.90
225.66	1656.81
225.88	1728.49
226.10	1777.64
226.32	1640.42
226.53	1820.64
226.75	1705.96
226.97	1703.91
227.19	1673.19
227.41	1677.29
227.63	1742.82
227.85	1632.23
228.06	1691.62
228.28	1742.82
228.50	1769.44
228.72	1679.33
228.94	1650.66
229.16	1587.18
229.37	1656.81
229.59	1720.29
229.81	1779.68
230.03	1716.20
230.25	1642.47
230.47	1662.95
230.69	1535.98
230.90	1740.77
231.12	1595.37
231.34	1679.33
231.56	1759.21
231.78	1648.61
232.00	1718.25
232.21	1691.62
232.43	1738.73
232.65	1572.84
232.87	1671.14
233.09	1677.29
233.30	1632.23
233.52	1734.63
233.74	1603.56
233.96	1656.81
234.18	1728.49
234.40	1716.20
234.61	1853.41
234.83	1595.37
235.05	1677.29
235.27	1822.69
235.49	1767.40
235.70	1669.09
235.92	1775.59
236.14	1751.01
236.36	1826.79
236.58	1556.46
236.79	1826.79
237.01	1671.14
237.23	1724.39
237.45	1865.70
237.67	1699.81
237.88	1630.18
238.10	1834.98
238.32	1687.53
238.54	1669.09
238.76	1701.86
238.97	1691.62
239.19	1595.37
239.41	1730.53
239.63	1742.82
239.85	1701.86
240.06	1662.95
240.28	1699.81
240.50	1730.53
240.72	1681.38
240.93	1699.81
241.15	1695.72
241.37	1601.51
241.59	1798.12
241.81	1667.05
242.02	1742.82
242.24	1691.62
242.46	1744.87
242.68	1638.38
242.89	1771.49
243.11	1734.63
243.33	1685.48
243.55	1703.91
243.76	1691.62
243.98	1611.75
244.20	1628.14
244.42	1710.05
244.64	1691.62
244.85	1687.53
245.07	1648.61
245.29	1771.49
245.51	1660.90
245.72	1671.14
245.94	1771.49
246.16	1624.04
246.38	1742.82
246.59	1712.10
246.81	1689.57
247.03	1652.71
247.24	1603.56
247.46	1685.48
247.68	1675.24
247.90	1640.42
248.11	1683.43
248.33	1728.49
248.55	1701.86
248.77	1730.53
248.98	1773.54
249.20	1779.68
249.42	1712.10
249.64	1689.57
249.85	1689.57
250.07	1734.63
250.29	1781.73
250.50	1808.36
250.72	1716.20
250.94	1736.68
251.16	1804.26
251.37	1783.78
251.59	1808.36
251.81	1751.01
252.02	1779.68
252.24	1681.38
252.46	1763.30
252.68	1601.51
252.89	1648.61
253.11	1591.27
253.33	1722.34
253.54	1832.93
253.76	1583.08
253.98	1685.48
254.20	1667.05
254.41	1634.28
254.63	1718.25
254.85	1632.23
255.06	1658.85
255.28	1681.38
255.50	1652.71
255.71	1621.99
255.93	1617.90
256.15	1689.57
256.36	1742.82
256.58	1687.53
256.80	1685.48
257.02	1685.48
257.23	1703.91
257.45	1703.91
257.67	1802.21
257.88	1640.42
258.10	1673.19
258.32	1779.68
258.53	1605.61
258.75	1775.59
258.97	1728.49
259.18	1693.67
259.40	1689.57
259.62	1726.44
259.83	1732.58
260.05	1742.82
260.27	1931.23
260.48	1746.92
260.70	1636.33
260.92	1677.29
261.13	1701.86
261.35	1730.53
261.57	1708.01
261.78	1634.28
262.00	1656.81
262.22	1714.15
262.43	1697.77
262.65	1662.95
262.86	1773.54
263.08	1832.93
263.30	1665.00
263.51	1662.95
263.73	1656.81
263.95	1845.22
264.16	1544.17
264.38	1644.52
264.60	1640.42
264.81	1660.90
265.03	1730.53
265.25	1710.05
265.46	1615.85
265.68	1738.73
265.89	1759.21
266.11	1542.12
266.33	1796.07
266.54	1771.49
266.76	1730.53
266.98	1755.11
267.19	1777.64
267.41	1742.82
267.62	1767.40
267.84	1642.47
268.06	1679.33
268.27	1677.29
268.49	1714.15
268.70	1732.58
268.92	1632.23
269.14	1648.61
269.35	1591.27
269.57	1656.81
269.79	1828.84
270.00	1718.25
270.22	1816.55
270.43	1632.23
270.65	1601.51
270.87	1673.19
271.08	1808.36
271.30	1779.68
271.51	1685.48
271.73	1748.97
271.95	1753.06
272.16	1703.91
272.38	1724.39
272.59	1714.15
272.81	1744.87
273.02	1742.82
273.24	1703.91
273.46	1767.40
273.67	1656.81
273.89	1587.18
274.10	1658.85
274.32	1763.30
274.54	1628.14
274.75	1695.72
274.97	1619.94
275.18	1714.15
275.40	1665.00
275.61	1656.81
275.83	1695.72
276.05	1574.89
276.26	1683.43
276.48	1822.69
276.69	1638.38
276.91	1705.96
277.12	1751.01
277.34	1736.68
277.55	1687.53
277.77	1695.72
277.99	1687.53
278.20	1687.53
278.42	1679.33
278.63	1726.44
278.85	1685.48
279.06	1632.23
279.28	1755.11
279.49	1751.01
279.71	1806.31
279.93	1685.48
280.14	1697.77
280.36	1662.95
280.57	1744.87
280.79	1691.62
281.00	1699.81
281.22	1607.66
281.43	1814.50
281.65	1554.41
281.86	1665.00
282.08	1714.15
282.29	1763.30
282.51	1697.77
282.73	1599.46
282.94	1578.98
283.16	1734.63
283.37	1804.26
283.59	1703.91
283.80	1687.53
284.02	1638.38
284.23	1746.92
284.45	1687.53
284.66	1669.09
284.88	1589.22
285.09	1761.25
285.31	1744.87
285.52	1810.40
285.74	1679.33
285.95	1734.63
286.17	1738.73
286.38	1716.20
286.60	1624.04
286.81	1601.51
287.03	1720.29
287.24	1609.70
287.46	1693.67
287.67	1658.85
287.89	1789.92
288.10	1673.19
288.32	1689.57
288.53	1761.25
288.75	1718.25
288.96	1769.44
289.18	1607.66
289.39	1746.92
289.61	1769.44
289.82	1802.21
290.04	1812.45
290.25	1650.66
290.47	1728.49
290.68	1591.27
290.90	1732.58
291.11	1656.81
291.33	1779.68
291.54	1658.85
291.76	1669.09
291.97	1699.81
292.18	1742.82
292.40	1697.77
292.61	1746.92
292.83	1796.07
293.04	1777.64
293.26	1718.25
293.47	1632.23
293.69	1687.53
293.90	1626.09
294.12	1712.10
294.33	1724.39
294.55	1753.06
294.76	1742.82
294.97	1755.11
295.19	1847.27
295.40	1634.28
295.62	1730.53
295.83	1732.58
296.05	1691.62
296.26	1763.30
296.48	1669.09
296.69	1609.70
296.90	1665.00
297.12	1701.86
297.33	1763.30
297.55	1695.72
297.76	1726.44
297.98	1675.24
298.19	1705.96
298.41	1730.53
298.62	1630.18
298.83	1759.21
299.05	1736.68
299.26	1689.57
299.48	1751.01
299.69	1775.59
299.90	1701.86
300.12	1624.04
300.33	1757.16
300.55	1642.47
300.76	1705.96
300.98	1671.14
301.19	1757.16
301.40	1730.53
301.62	1652.71
301.83	1740.77
302.05	1705.96
302.26	1759.21
302.47	1761.25
302.69	1617.90
302.90	1673.19
303.12	1593.32
303.33	1767.40
303.54	1775.59
303.76	1685.48
303.97	1718.25
304.19	1705.96
304.40	1581.03
304.61	1734.63
304.83	1851.36
305.04	1687.53
305.26	1703.91
305.47	1650.66
305.68	1722.34
305.90	1601.51
306.11	1820.64
306.33	1640.42
306.54	1634.28
306.75	1699.81
306.97	1626.09
307.18	1738.73
307.39	1665.00
307.61	1767.40
307.82	1640.42
308.04	1681.38
308.25	1587.18
308.46	1671.14
308.68	1660.90
308.89	1677.29
309.10	1718.25
309.32	1646.57
309.53	1699.81
309.74	1748.97
309.96	1646.57
310.17	1798.12
310.39	1738.73
310.60	1763.30
310.81	1662.95
311.03	1624.04
311.24	1740.77
311.45	1791.97
311.67	1812.45
311.88	1662.95
312.09	1712.10
312.31	1607.66
312.52	1677.29
312.73	1665.00
312.95	1636.33
313.16	1705.96
313.37	1769.44
313.59	1736.68
313.80	1730.53
314.01	1767.40
314.23	1708.01
314.44	1708.01
314.65	1624.04
314.87	1646.57
315.08	1660.90
315.29	1660.90
315.51	1658.85
315.72	1632.23
315.93	1753.06
316.15	1779.68
316.36	1687.53
316.57	1757.16
316.79	1759.21
317.00	1677.29
317.21	1808.36
317.43	1794.02
317.64	1660.90
317.85	1644.52
318.07	1718.25
318.28	1730.53
318.49	1804.26
318.70	1875.94
318.92	1847.27
319.13	1822.69
319.34	1843.17
319.56	1812.45
319.77	1753.06
319.98	1824.74
320.20	1787.88
320.41	1746.92
320.62	1773.54
320.83	1597.42
321.05	1812.45
321.26	1652.71
321.47	1714.15
321.69	1794.02
321.90	1611.75
322.11	1669.09
322.32	1693.67
322.54	1820.64
322.75	1652.71
322.96	1841.12
323.18	1533.93
323.39	1636.33
323.60	1634.28
323.81	1701.86
324.03	1705.96
324.24	1667.05
324.45	1646.57
324.66	1691.62
324.88	1718.25
325.09	1798.12
325.30	1708.01
325.52	1658.85
325.73	1673.19
325.94	1685.48
326.15	1615.85
326.37	1695.72
326.58	1697.77
326.79	1830.88
327.00	1677.29
327.22	1718.25
327.43	1738.73
327.64	1648.61
327.85	1638.38
328.07	1673.19
328.28	1839.08
328.49	1720.29
328.70	1695.72
328.92	1665.00
329.13	1738.73
329.34	1644.52
329.55	1828.84
329.76	1736.68
329.98	1740.77
330.19	1732.58
330.40	1753.06
330.61	1624.04
330.83	1718.25
331.04	1730.53
331.25	1773.54
331.46	1763.30
331.68	1599.46
331.89	1763.30
332.10	1742.82
332.31	1660.90
332.52	1701.86
332.74	1746.92
332.95	1650.66
333.16	1691.62
333.37	1738.73
333.58	1755.11
333.80	1744.87
334.01	1716.20
334.22	1701.86
334.43	1675.24
334.64	1609.70
334.86	1611.75
335.07	1648.61
335.28	1722.34
335.49	1701.86
335.70	1734.63
335.92	1757.16
336.13	1841.12
336.34	1751.01
336.55	1656.81
336.76	1714.15
336.98	1495.02
337.19	1552.36
337.40	1783.78
337.61	1816.55
337.82	1642.47
338.04	1671.14
338.25	1615.85
338.46	1613.80
338.67	1714.15
338.88	1712.10
339.09	1640.42
339.31	1691.62
339.52	1675.24
339.73	1738.73
339.94	1751.01
340.15	1761.25
340.36	1640.42
340.58	1671.14
340.79	1718.25
341.00	1748.97
341.21	1607.66
341.42	1828.84
341.63	1681.38
341.85	1812.45
342.06	1730.53
342.27	1617.90
342.48	1808.36
342.69	1638.38
342.90	1626.09
343.12	1767.40
343.33	1730.53
343.54	1734.63
343.75	1734.63
343.96	1675.24
344.17	1632.23
344.38	1667.05
344.60	1583.08
344.81	1665.00
345.02	1677.29
345.23	1763.30
345.44	1781.73
345.65	1634.28
345.86	1763.30
346.07	1630.18
346.29	1705.96
346.50	1736.68
346.71	1742.82
346.92	1708.01
347.13	1837.03
347.34	1662.95
347.55	1724.39
347.76	1738.73
347.98	1652.71
348.19	1677.29
348.40	1742.82
348.61	1701.86
348.82	1796.07
349.03	1716.20
349.24	1656.81
349.45	1798.12
349.66	1665.00
349.88	1675.24
350.09	1658.85
350.30	1783.78
350.51	1781.73
350.72	1636.33
350.93	1703.91
351.14	1613.80
351.35	1746.92
351.56	1685.48
351.77	1685.48
351.99	1730.53
352.20	1763.30
352.41	1734.63
352.62	1607.66
352.83	1671.14
353.04	1652.71
353.25	1613.80
353.46	1787.88
353.67	1759.21
353.88	1603.56
354.09	1734.63
354.30	1730.53
354.52	1736.68
354.73	1665.00
354.94	1705.96
355.15	1701.86
355.36	1796.07
355.57	1628.14
355.78	1722.34
355.99	1656.81
356.20	1755.11
356.41	1787.88
356.62	1748.97
356.83	1699.81
357.04	1701.86
357.25	1585.13
357.46	1701.86
357.68	1585.13
357.89	1640.42
358.10	1695.72
358.31	1781.73
358.52	1751.01
358.73	1617.90
358.94	1669.09
359.15	1695.72
359.36	1720.29
359.57	1681.38
359.78	1705.96
359.99	1740.77
360.20	1656.81
360.41	1652.71
360.62	1697.77
360.83	1701.86
361.04	1740.77
361.25	1732.58
361.46	1744.87
361.67	1748.97
361.88	1798.12
362.09	1763.30
362.30	1673.19
362.51	1630.18
362.72	1632.23
362.93	1744.87
363.14	1710.05
363.35	1691.62
363.56	1652.71
363.78	1753.06
363.99	1673.19
364.20	1681.38
364.41	1699.81
364.62	1789.92
364.83	1691.62
365.04	1751.01
365.25	1740.77
365.46	1732.58
365.67	1640.42
365.88	1630.18
366.09	1738.73
366.30	1675.24
366.51	1708.01
366.72	1683.43
366.93	1646.57
367.14	1597.42
367.35	1783.78
367.56	1728.49
367.77	1734.63
367.98	1679.33
368.18	1685.48
368.39	1744.87
368.60	1644.52
368.81	1724.39
369.02	1658.85
369.23	1619.94
369.44	1636.33
369.65	1660.90
369.86	1740.77
370.07	1714.15
370.28	1587.18
370.49	1691.62
370.70	1724.39
370.91	1646.57
371.12	1626.09
371.33	1718.25
371.54	1656.81
371.75	1775.59
371.96	1581.03
372.17	1667.05
372.38	1705.96
372.59	1662.95
372.80	1605.61
373.01	1705.96
373.22	1689.57
373.43	1687.53
373.64	1642.47
373.85	1730.53
374.06	1812.45
374.26	1785.83
374.47	1681.38
374.68	1777.64
374.89	1650.66
375.10	1738.73
375.31	1773.54
375.52	1734.63
375.73	1744.87
375.94	1677.29
376.15	1798.12
376.36	1542.12
376.57	1652.71
376.78	1683.43
376.99	1689.57
377.20	1783.78
377.40	1771.49
377.61	1877.99
377.82	1566.70
378.03	1791.97
378.24	1714.15
378.45	1736.68
378.66	1705.96
378.87	1585.13
379.08	1621.99
379.29	1599.46
379.50	1765.35
379.71	1683.43
379.91	1691.62
380.12	1697.77
380.33	1748.97
380.54	1673.19
380.75	1708.01
380.96	1669.09
381.17	1738.73
381.38	1742.82
381.59	1716.20
381.80	1732.58
382.00	1855.46
382.21	1665.00
382.42	1828.84
382.63	1869.80
382.84	1763.30
383.05	1810.40
383.26	1820.64
383.47	1681.38
383.68	1767.40
383.88	1785.83
384.09	1705.96
384.30	1796.07
384.51	1751.01
384.72	1589.22
384.93	1714.15
385.14	1654.76
385.35	1736.68
385.55	1607.66
385.76	1787.88
385.97	1755.11
386.18	1656.81
386.39	1638.38
386.60	1693.67
386.81	1695.72
387.02	1652.71
387.22	1605.61
387.43	1802.21
387.64	1841.12
387.85	1906.66
388.06	2193.37
388.27	4327.36
388.48	6895.51
388.68	8460.16
388.89	9916.26
389.10	9963.37
389.31	8640.38
389.52	7661.45
389.73	6885.27
389.93	6358.94
390.14	5988.26
390.35	5199.79
390.56	4581.31
390.77	3811.27
390.98	3008.47
391.18	2486.23
391.39	2111.46
391.60	1890.28
391.81	1873.89
392.02	1746.92
392.23	1822.69
392.43	1779.68
392.64	1742.82
392.85	1724.39
393.06	1755.11
393.27	1607.66
393.47	1677.29
393.68	1689.57
393.89	1691.62
394.10	1722.34
394.31	1646.57
394.52	1640.42
394.72	1677.29
394.93	1720.29
395.14	1636.33
395.35	1718.25
395.56	1642.47
395.76	1751.01
395.97	1820.64
396.18	1834.98
396.39	1880.04
396.60	2052.06
396.80	1824.74
397.01	1765.35
397.22	1841.12
397.43	1916.90
397.64	1695.72
397.84	1796.07
398.05	1865.70
398.26	1794.02
398.47	1816.55
398.67	1830.88
398.88	1720.29
399.09	1791.97
399.30	1636.33
399.51	1669.09
399.71	1621.99
399.92	1689.57
400.13	1769.44
400.34	1781.73
400.54	1677.29
400.75	1806.31
400.96	1751.01
401.17	1800.16
401.37	1708.01
401.58	1716.20
401.79	1703.91
402.00	1871.84
402.21	1949.67
402.41	1994.72
402.62	2033.63
402.83	2019.30
403.04	2025.44
403.24	2004.96
403.45	1865.70
403.66	1927.14
403.87	1875.94
404.07	1929.19
404.28	1877.99
404.49	1775.59
404.70	1771.49
404.90	1820.64
405.11	1730.53
405.32	1730.53
405.52	1748.97
405.73	1699.81
405.94	1654.76
406.15	1697.77
406.35	1851.36
406.56	1785.83
406.77	1705.96
406.98	1722.34
407.18	1656.81
407.39	1806.31
407.60	1697.77
407.80	1665.00
408.01	1722.34
408.22	1660.90
408.43	1617.90
408.63	1740.77
408.84	1746.92
409.05	1755.11
409.25	1671.14
409.46	1705.96
409.67	1730.53
409.88	1658.85
410.08	1642.47
410.29	1732.58
410.50	1728.49
410.70	1705.96
410.91	1603.56
411.12	1740.77
411.32	1650.66
411.53	1724.39
411.74	1763.30
411.95	1851.36
412.15	1716.20
412.36	1798.12
412.57	1779.68
412.77	1828.84
412.98	1669.09
413.19	1742.82
413.39	1828.84
413.60	1763.30
413.81	1841.12
414.01	1624.04
414.22	1730.53
414.43	1732.58
414.63	1722.34
414.84	1773.54
415.05	1683.43
415.25	1611.75
415.46	1775.59
415.67	1673.19
415.87	1669.09
416.08	1701.86
416.29	1708.01
416.49	1787.88
416.70	1691.62
416.91	1667.05
417.11	1640.42
417.32	1697.77
417.53	1722.34
417.73	1759.21
417.94	1611.75
418.15	1689.57
418.35	1703.91
418.56	1640.42
418.77	1830.88
418.97	1689.57
419.18	1652.71
419.38	1615.85
419.59	1789.92
419.80	1771.49
420.00	1685.48
420.21	1708.01
420.42	1791.97
420.62	1781.73
420.83	1630.18
421.04	1667.05
421.24	1701.86
421.45	1779.68
421.65	1738.73
421.86	1742.82
422.07	1832.93
422.27	1722.34
422.48	1734.63
422.69	1644.52
422.89	1564.65
423.10	1722.34
423.30	1644.52
423.51	1689.57
423.72	1744.87
423.92	1761.25
424.13	1609.70
424.33	1716.20
424.54	1763.30
424.75	1753.06
424.95	1740.77
425.16	1783.78
425.36	1742.82
425.57	1755.11
425.78	1703.91
425.98	1740.77
426.19	1767.40
426.39	1673.19
426.60	1730.53
426.81	1771.49
427.01	1748.97
427.22	1648.61
427.42	1519.59
427.63	1636.33
427.83	1710.05
428.04	1810.40
428.25	1822.69
428.45	1755.11
428.66	1736.68
428.86	1712.10
429.07	1609.70
429.28	1673.19
429.48	1748.97
429.69	1644.52
429.89	1693.67
430.10	1597.42
430.30	1748.97
430.51	1734.63
430.71	1679.33
430.92	1730.53
431.13	1648.61
431.33	1695.72
431.54	1789.92
431.74	1775.59
431.95	1824.74
432.15	1648.61
432.36	1701.86
432.56	1718.25
432.77	1761.25
432.98	1763.30
433.18	1771.49
433.39	1703.91
433.59	1654.76
433.80	1779.68
434.00	1853.41
434.21	1705.96
434.41	1615.85
434.62	1802.21
434.82	1722.34
435.03	1654.76
435.23	1798.12
435.44	1673.19
435.64	1695.72
435.85	1710.05
436.06	1761.25
436.26	1767.40
436.47	1777.64
436.67	1646.57
436.88	1693.67
437.08	1763.30
437.29	1761.25
437.49	1695.72
437.70	1744.87
437.90	1691.62
438.11	1843.17
438.31	1761.25
438.52	1812.45
438.72	1798.12
438.93	1871.84
439.13	1769.44
439.34	1877.99
439.54	1810.40
439.75	1791.97
439.95	1753.06
440.16	1669.09
440.36	1746.92
440.57	1779.68
440.77	1699.81
440.98	1730.53
441.18	1701.86
441.39	1736.68
441.59	1671.14
441.80	1839.08
442.00	1730.53
442.21	1783.78
442.41	1636.33
442.62	1822.69
442.82	1654.76
443.02	1671.14
443.23	1746.92
443.43	1773.54
443.64	1820.64
443.84	1621.99
444.05	1771.49
444.25	1796.07
444.46	1732.58
444.66	1730.53
444.87	1763.30
445.07	1628.14
445.28	1708.01
445.48	1785.83
445.69	1755.11
445.89	1886.18
446.09	1658.85
446.30	2019.30
446.50	2686.94
446.71	3733.45
446.91	4194.24
447.12	4812.73
447.32	4798.39
447.53	4411.32
447.73	3852.23
447.93	3629.00
448.14	3373.00
448.34	3166.16
448.55	3039.19
448.75	2848.72
448.96	2740.18
449.16	2379.74
449.36	2254.81
449.57	2043.87
449.77	1906.66
449.98	1712.10
450.18	1877.99
450.39	1812.45
450.59	1765.35
450.79	1794.02
451.00	1675.24
451.20	1740.77
451.41	1722.34
451.61	1708.01
451.81	1753.06
452.02	1710.05
452.22	1658.85
452.43	1791.97
452.63	1714.15
452.84	1728.49
453.04	1654.76
453.24	1732.58
453.45	1675.24
453.65	1789.92
453.86	1779.68
454.06	1812.45
454.26	1759.21
454.47	1755.11
454.67	1787.88
454.87	1718.25
455.08	1734.63
455.28	1736.68
455.49	1763.30
455.69	1587.18
455.89	1841.12
456.10	1746.92
456.30	1726.44
456.51	1763.30
456.71	1751.01
456.91	1685.48
457.12	1738.73
457.32	1738.73
457.52	1677.29
457.73	1755.11
457.93	1820.64
458.14	1734.63
458.34	1658.85
458.54	1687.53
458.75	1716.20
458.95	1761.25
459.15	1759.21
459.36	1824.74
459.56	1732.58
459.76	1804.26
459.97	1769.44
460.17	1724.39
460.37	1861.60
460.58	1730.53
460.78	1775.59
460.99	1667.05
461.19	1757.16
461.39	1697.77
461.60	1685.48
461.80	1677.29
462.00	1683.43
462.21	1687.53
462.41	1646.57
462.61	1640.42
462.82	1660.90
463.02	1714.15
463.22	1744.87
463.43	1736.68
463.63	1742.82
463.83	1705.96
464.04	1714.15
464.24	1658.85
464.44	1642.47
464.64	1677.29
464.85	1699.81
465.05	1757.16
465.25	1675.24
465.46	1630.18
465.66	1722.34
465.86	1785.83
466.07	1732.58
466.27	1789.92
466.47	1722.34
466.68	1675.24
466.88	1812.45
467.08	1716.20
467.29	1730.53
467.49	1794.02
467.69	1632.23
467.89	1691.62
468.10	1726.44
468.30	1794.02
468.50	1839.08
468.71	1683.43
468.91	1595.37
469.11	1763.30
469.31	1701.86
469.52	1685.48
469.72	1834.98
469.92	1882.08
470.13	1765.35
470.33	1767.40
470.53	1804.26
470.73	2131.94
470.94	2320.35
471.14	2273.25
471.34	2379.74
471.54	2445.27
471.75	2220.00
471.95	2117.60
472.15	2078.69
472.36	2090.98
472.56	2144.22
472.76	2113.50
472.96	1992.67
473.17	1900.52
473.37	1869.80
473.57	1736.68
473.77	1816.55
473.98	1738.73
474.18	1638.38
474.38	1939.43
474.58	1734.63
474.79	1687.53
474.99	1794.02
475.19	1683.43
475.39	1718.25
475.60	1744.87
475.80	1755.11
476.00	1730.53
476.20	1685.48
476.41	1796.07
476.61	1777.64
476.81	1765.35
477.01	1603.56
477.21	1894.37
477.42	1834.98
477.62	1669.09
477.82	1787.88
478.02	1665.00
478.23	1718.25
478.43	1722.34
478.63	1662.95
478.83	1779.68
479.03	1689.57
479.24	1767.40
479.44	1830.88
479.64	1685.48
479.84	1587.18
480.04	1701.86
480.25	1843.17
480.45	1738.73
480.65	1714.15
480.85	1845.22
481.06	1695.72
481.26	1769.44
481.46	1818.60
481.66	1685.48
481.86	1652.71
482.06	1769.44
482.27	1716.20
482.47	1714.15
482.67	1761.25
482.87	1652.71
483.07	1822.69
483.28	1675.24
483.48	1662.95
483.68	1705.96
483.88	1744.87
484.08	1570.79
484.29	1619.94
484.49	1648.61
484.69	1656.81
484.89	1800.16
485.09	1828.84
485.29	1765.35
485.50	1730.53
485.70	1621.99
485.90	1791.97
486.10	1794.02
486.30	1718.25
486.50	1806.31
486.71	1695.72
486.91	1806.31
487.11	1800.16
487.31	1677.29
487.51	1771.49
487.71	1679.33
487.91	1566.70
488.12	1693.67
488.32	1566.70
488.52	1804.26
488.72	1714.15
488.92	1710.05
489.12	1861.60
489.32	1869.80
489.53	1742.82
489.73	1683.43
489.93	1816.55
490.13	1644.52
490.33	1662.95
490.53	1685.48
490.73	1748.97
490.94	1617.90
491.14	1767.40
491.34	1779.68
491.54	2168.80
491.74	2648.02
491.94	2858.96
492.14	3074.00
492.34	3024.85
492.54	2723.80
492.75	2525.15
492.95	2453.47
493.15	2318.30
493.35	2365.40
493.55	2197.47
493.75	2160.61
493.95	2015.20
494.15	2009.06
494.35	1916.90
494.56	1920.99
494.76	1818.60
494.96	1816.55
495.16	1736.68
495.36	1712.10
495.56	1746.92
495.76	1767.40
495.96	1714.15
496.16	1736.68
496.36	1816.55
496.56	1808.36
496.77	1744.87
496.97	1740.77
497.17	1789.92
497.37	1654.76
497.57	1724.39
497.77	1771.49
497.97	1673.19
498.17	1744.87
498.37	1738.73
498.57	1771.49
498.77	1732.58
498.97	1660.90
499.17	1812.45
499.38	1705.96
499.58	1765.35
499.78	1697.77
499.98	1816.55
500.18	1726.44
500.38	1718.25
500.58	1892.32
500.78	2502.62
500.98	4548.54
501.18	5889.96
501.38	6870.94
501.58	7116.69
501.78	6694.81
501.98	5664.68
502.18	4913.08
502.38	4349.89
502.58	4229.06
502.78	3846.09
502.98	3659.72
503.18	3499.98
503.38	3143.63
503.59	2815.96
503.79	2623.45
503.99	2521.05
504.19	2322.40
504.39	2105.31
504.59	2248.67
504.79	2109.41
504.99	2027.49
505.19	1947.62
505.39	1869.80
505.59	1937.38
505.79	1918.95
505.99	1855.46
506.19	1804.26
506.39	1834.98
506.59	1755.11
506.79	1720.29
506.99	1865.70
507.19	1710.05
507.39	1753.06
507.59	1695.72
507.79	1665.00
507.99	1624.04
508.19	1679.33
508.39	1697.77
508.59	1699.81
508.79	1818.60
508.99	1875.94
509.19	1689.57
509.39	1826.79
509.59	1699.81
509.79	1673.19
509.99	1736.68
510.19	1808.36
510.39	1826.79
510.59	1705.96
510.79	1681.38
510.99	1583.08
511.19	1730.53
511.39	1859.56
511.59	1691.62
511.79	1765.35
511.99	1728.49
512.19	1824.74
512.38	1771.49
512.58	1621.99
512.78	1693.67
512.98	1763.30
513.18	1828.84
513.38	1609.70
513.58	1828.84
513.78	1728.49
513.98	1701.86
514.18	1734.63
514.38	1691.62
514.58	1832.93
514.78	1640.42
514.98	1701.86
515.18	1736.68
515.38	1691.62
515.58	1822.69
515.78	1751.01
515.98	1662.95
516.18	1675.24
516.38	1771.49
516.57	1740.77
516.77	1773.54
516.97	1755.11
517.17	1726.44
517.37	1583.08
517.57	1785.83
517.77	1675.24
517.97	1703.91
518.17	1822.69
518.37	1689.57
518.57	1660.90
518.77	1671.14
518.97	1755.11
519.16	1767.40
519.36	1736.68
519.56	1804.26
519.76	1685.48
519.96	1732.58
520.16	1808.36
520.36	1744.87
520.56	1765.35
520.76	1648.61
520.96	1703.91
521.16	1769.44
521.35	1820.64
521.55	1796.07
521.75	1740.77
521.95	1699.81
522.15	1730.53
522.35	1667.05
522.55	1718.25
522.75	1740.77
522.95	1742.82
523.14	1624.04
523.34	1798.12
523.54	1675.24
523.74	1769.44
523.94	1765.35
524.14	1644.52
524.34	1769.44
524.54	1757.16
524.73	1738.73
524.93	1718.25
525.13	1773.54
525.33	1665.00
525.53	1869.80
525.73	1716.20
525.93	1726.44
526.13	1683.43
526.32	1761.25
526.52	1798.12
526.72	1796.07
526.92	1722.34
527.12	1691.62
527.32	1638.38
527.52	1789.92
527.71	1763.30
527.91	1734.63
528.11	1642.47
528.31	1697.77
528.51	1613.80
528.71	1755.11
528.90	1720.29
529.10	1798.12
529.30	1783.78
529.50	1656.81
529.70	1693.67
529.90	1703.91
530.09	1718.25
530.29	1669.09
530.49	1691.62
530.69	1841.12
530.89	1736.68
531.09	1710.05
531.28	1728.49
531.48	1783.78
531.68	1714.15
531.88	1746.92
532.08	1734.63
532.28	1617.90
532.47	1755.11
532.67	1804.26
532.87	1818.60
533.07	1626.09
533.27	1779.68
533.46	1818.60
533.66	1830.88
533.86	1726.44
534.06	1691.62
534.26	1804.26
534.45	1708.01
534.65	1755.11
534.85	1748.97
535.05	1722.34
535.25	1783.78
535.44	1669.09
535.64	1839.08
535.84	1736.68
536.04	1679.33
536.24	1722.34
536.43	1648.61
536.63	1740.77
536.83	1724.39
537.03	1740.77
537.22	1626.09
537.42	1658.85
537.62	1816.55
537.82	1691.62
538.02	1822.69
538.21	1798.12
538.41	1902.56
538.61	1759.21
538.81	1681.38
539.00	1763.30
539.20	1597.42
539.40	1687.53
539.60	1710.05
539.79	1777.64
539.99	1722.34
540.19	1687.53
540.39	1683.43
540.58	1761.25
540.78	1665.00
540.98	1751.01
541.18	1800.16
541.37	1738.73
541.57	1771.49
541.77	1691.62
541.97	1630.18
542.16	1621.99
542.36	1669.09
542.56	1726.44
542.76	1796.07
542.95	1804.26
543.15	1832.93
543.35	1742.82
543.54	1720.29
543.74	1783.78
543.94	1773.54
544.14	1660.90
544.33	1779.68
544.53	1665.00
544.73	1691.62
544.93	1753.06
545.12	1736.68
545.32	1748.97
545.52	1714.15
545.71	1675.24
545.91	1695.72
546.11	1771.49
546.30	1675.24
546.50	1708.01
546.70	1808.36
546.90	1794.02
547.09	1669.09
547.29	1753.06
547.49	1767.40
547.68	1722.34
547.88	1626.09
548.08	1845.22
548.27	2203.61
548.47	1716.20
548.67	1667.05
548.87	1810.40
549.06	1769.44
549.26	1697.77
549.46	1828.84
549.65	1681.38
549.85	1728.49
550.05	1753.06
550.24	1646.57
550.44	1697.77
550.64	1712.10
550.83	1763.30
551.03	1767.40
551.23	1783.78
551.42	1728.49
551.62	1708.01
551.82	1712.10
552.01	1728.49
552.21	1820.64
552.41	1703.91
552.60	1789.92
552.80	1728.49
553.00	1736.68
553.19	1771.49
553.39	1880.04
553.59	1642.47
553.78	1691.62
553.98	1822.69
554.17	1665.00
554.37	1742.82
554.57	1748.97
554.76	1640.42
554.96	1718.25
555.16	1720.29
555.35	1740.77
555.55	1765.35
555.75	1730.53
555.94	1730.53
556.14	1648.61
556.33	1769.44
556.53	1679.33
556.73	1744.87
556.92	1794.02
557.12	1853.41
557.32	1890.28
557.51	1751.01
557.71	1841.12
557.90	1828.84
558.10	1816.55
558.30	1716.20
558.49	1759.21
558.69	1697.77
558.88	1781.73
559.08	1705.96
559.28	1730.53
559.47	1740.77
559.67	1779.68
559.86	1853.41
560.06	1718.25
560.26	1755.11
560.45	1791.97
560.65	1722.34
560.84	1732.58
561.04	1718.25
561.24	1703.91
561.43	1691.62
561.63	1830.88
561.82	1800.16
562.02	1726.44
562.22	1703.91
562.41	1691.62
562.61	1759.21
562.80	1746.92
563.00	1816.55
563.19	1609.70
563.39	1720.29
563.59	1796.07
563.78	1705.96
563.98	1595.37
564.17	1587.18
564.37	1578.98
564.56	1734.63
564.76	1667.05
564.96	1789.92
565.15	1736.68
565.35	1837.03
565.54	1742.82
565.74	1783.78
565.93	1757.16
566.13	1742.82
566.32	1726.44
566.52	1718.25
566.71	1718.25
566.91	1781.73
567.11	1691.62
567.30	1742.82
567.50	1724.39
567.69	1734.63
567.89	1779.68
568.08	1658.85
568.28	1716.20
568.47	1695.72
568.67	1773.54
568.86	1771.49
569.06	1765.35
569.25	1720.29
569.45	1669.09
569.64	1736.68
569.84	1730.53
570.04	1761.25
570.23	1767.40
570.43	1771.49
570.62	1730.53
570.82	1787.88
571.01	1609.70
571.21	1691.62
571.40	1638.38
571.60	1753.06
571.79	1699.81
571.99	1787.88
572.18	1740.77
572.38	1734.63
572.57	1742.82
572.77	1763.30
572.96	1841.12
573.16	1710.05
573.35	1701.86
573.55	1798.12
573.74	1761.25
573.94	1767.40
574.13	1759.21
574.33	1740.77
574.52	1808.36
574.71	1814.50
574.91	1703.91
575.10	1757.16
575.30	1673.19
575.49	1718.25
575.69	1628.14
575.88	1814.50
576.08	1712.10
576.27	1796.07
576.47	1695.72
576.66	1898.47
576.86	1796.07
577.05	1806.31
577.25	1673.19
577.44	1828.84
577.64	1695.72
577.83	1804.26
578.02	1791.97
578.22	1771.49
578.41	1841.12
578.61	1677.29
578.80	1656.81
579.00	1683.43
579.19	1703.91
579.39	1744.87
579.58	1822.69
579.77	1697.77
579.97	1851.36
580.16	1785.83
580.36	1816.55
580.55	1779.68
580.75	1720.29
580.94	1751.01
581.13	1851.36
581.33	1931.23
581.52	1755.11
581.72	1853.41
581.91	1861.60
582.11	1681.38
582.30	1767.40
582.49	1726.44
582.69	1904.61
582.88	1726.44
583.08	1771.49
583.27	1802.21
583.47	1742.82
583.66	1718.25
583.85	1730.53
584.05	1775.59
584.24	1798.12
584.44	1734.63
584.63	1769.44
584.82	1822.69
585.02	1898.47
585.21	1853.41
585.41	1787.88
585.60	1853.41
585.79	1892.32
585.99	1865.70
586.18	1816.55
586.37	2150.37
586.57	3344.33
586.76	9963.37
586.96	24856.20
587.15	35165.67
587.34	41278.86
587.54	43318.64
587.73	37762.50
587.93	27190.88
588.12	22085.30
588.31	18607.84
588.51	16805.63
588.70	15634.19
588.89	14237.48
589.09	13010.75
589.28	11200.34
589.47	9688.94
589.67	8150.92
589.86	6547.36
590.06	5062.58
590.25	3997.64
590.44	3125.20
590.64	2619.35
590.83	2234.33
591.02	2103.26
591.22	1996.77
591.41	1873.89
591.60	1802.21
591.80	1955.81
591.99	1755.11
592.18	1757.16
592.38	1818.60
592.57	1751.01
592.76	1753.06
592.96	1800.16
593.15	1806.31
593.34	1798.12
593.54	1644.52
593.73	1796.07
593.92	1699.81
594.12	1746.92
594.31	1800.16
594.50	1779.68
594.70	1824.74
594.89	1857.51
595.08	1632.23
595.28	1818.60
595.47	1884.13
595.66	1814.50
595.86	1730.53
596.05	1751.01
596.24	1677.29
596.43	1826.79
596.63	1779.68
596.82	1828.84
597.01	1693.67
597.21	1888.23
597.40	1785.83
597.59	1751.01
597.79	1732.58
597.98	1753.06
598.17	1839.08
598.36	1783.78
598.56	1734.63
598.75	1718.25
598.94	1677.29
599.14	1746.92
599.33	1810.40
599.52	1794.02
599.71	1834.98
599.91	1759.21
600.10	1718.25
600.29	1685.48
600.48	1796.07
600.68	1771.49
600.87	1742.82
601.06	1673.19
601.26	1699.81
601.45	1730.53
601.64	1660.90
601.83	1785.83
602.03	1738.73
602.22	1705.96
602.41	1767.40
602.60	1906.66
602.80	1783.78
602.99	1787.88
603.18	1691.62
603.37	1679.33
603.57	1691.62
603.76	1800.16
603.95	1759.21
604.14	1667.05
604.34	1695.72
604.53	1744.87
604.72	1667.05
604.91	1802.21
605.10	1718.25
605.30	1763.30
605.49	1837.03
605.68	1802.21
605.87	1712.10
606.07	1710.05
606.26	1683.43
606.45	1667.05
606.64	1794.02
606.84	1636.33
607.03	1779.68
607.22	1746.92
607.41	1683.43
607.60	1757.16
607.80	1810.40
607.99	1714.15
608.18	1697.77
608.37	1748.97
608.56	1730.53
608.76	1800.16
608.95	1800.16
609.14	1798.12
609.33	1699.81
609.52	1849.32
609.72	1781.73
609.91	1820.64
610.10	1763.30
610.29	1820.64
610.48	1791.97
610.68	1714.15
610.87	1767.40
611.06	1757.16
611.25	1714.15
611.44	1773.54
611.63	1720.29
611.83	1830.88
612.02	1638.38
612.21	1769.44
612.40	1597.42
612.59	1691.62
612.79	1734.63
612.98	1755.11
613.17	1767.40
613.36	1714.15
613.55	1812.45
613.74	1708.01
613.93	1679.33
614.13	1740.77
614.32	1712.10
614.51	1755.11
614.70	1710.05
614.89	1656.81
615.08	1718.25
615.28	2062.30
615.47	1701.86
615.66	1736.68
615.85	1632.23
616.04	1787.88
616.23	1716.20
616.42	1734.63
616.62	1660.90
616.81	1705.96
617.00	1660.90
617.19	1767.40
617.38	1662.95
617.57	1757.16
617.76	1759.21
617.95	1734.63
618.15	1781.73
618.34	1785.83
618.53	1695.72
618.72	1763.30
618.91	1812.45
619.10	1812.45
619.29	1665.00
619.48	1695.72
619.68	1665.00
619.87	1658.85
620.06	1556.46
620.25	1773.54
620.44	1728.49
620.63	1697.77
620.82	1767.40
621.01	1800.16
621.20	1673.19
621.39	1753.06
621.59	1699.81
621.78	1718.25
621.97	1761.25
622.16	1693.67
622.35	1767.40
622.54	1763.30
622.73	1841.12
622.92	1595.37
623.11	1783.78
623.30	1726.44
623.49	1773.54
623.68	1697.77
623.88	1849.32
624.07	1697.77
624.26	1779.68
624.45	1687.53
624.64	1728.49
624.83	1753.06
625.02	1650.66
625.21	1722.34
625.40	1740.77
625.59	1863.65
625.78	1753.06
625.97	1695.72
626.16	1748.97
626.35	1716.20
626.54	1710.05
626.74	1820.64
626.93	1685.48
627.12	1714.15
627.31	1757.16
627.50	1716.20
627.69	1826.79
627.88	1734.63
628.07	1660.90
628.26	1658.85
628.45	1593.32
628.64	1689.57
628.83	1697.77
629.02	1689.57
629.21	1771.49
629.40	1701.86
629.59	1673.19
629.78	1724.39
629.97	1730.53
630.16	1650.66
630.35	1820.64
630.54	1660.90
630.73	1669.09
630.92	1714.15
631.11	1695.72
631.30	1771.49
631.49	1777.64
631.68	1716.20
631.87	1767.40
632.06	1611.75
632.25	1814.50
632.44	1669.09
632.63	1679.33
632.82	1697.77
633.01	1742.82
633.20	1744.87
633.39	1632.23
633.58	1640.42
633.77	1769.44
633.96	1744.87
634.15	1720.29
634.34	1712.10
634.53	1736.68
634.72	1720.29
634.91	1644.52
635.10	1697.77
635.29	1724.39
635.48	1738.73
635.67	1626.09
635.86	1681.38
636.05	1859.56
636.24	1665.00
636.43	1808.36
636.62	1744.87
636.81	1540.07
637.00	1662.95
637.19	1728.49
637.38	1697.77
637.57	1648.61
637.76	1640.42
637.95	1716.20
638.14	1691.62
638.33	1734.63
638.52	1751.01
638.71	1652.71
638.89	1669.09
639.08	1865.70
639.27	1800.16
639.46	1691.62
639.65	1730.53
639.84	1728.49
640.03	1791.97
640.22	1619.94
640.41	1857.51
640.60	1789.92
640.79	1738.73
640.98	1675.24
641.17	1742.82
641.36	1783.78
641.55	1744.87
641.74	1671.14
641.92	1640.42
642.11	1675.24
642.30	1716.20
642.49	1679.33
642.68	1677.29
642.87	1755.11
643.06	1724.39
643.25	1665.00
643.44	1734.63
643.63	1703.91
643.82	1753.06
644.00	1773.54
644.19	1755.11
644.38	1724.39
644.57	1765.35
644.76	1691.62
644.95	1701.86
645.14	1777.64
645.33	1636.33
645.52	1703.91
645.71	1654.76
645.89	1675.24
646.08	1705.96
646.27	1685.48
646.46	1822.69
646.65	1673.19
646.84	1726.44
647.03	1660.90
647.22	1767.40
647.40	1675.24
647.59	1681.38
647.78	1683.43
647.97	1648.61
648.16	1671.14
648.35	1837.03
648.54	1761.25
648.73	1753.06
648.91	1814.50
649.10	1685.48
649.29	1632.23
649.48	1724.39
649.67	1710.05
649.86	1695.72
650.05	1683.43
650.23	1673.19
650.42	1683.43
650.61	1751.01
650.80	1710.05
650.99	1775.59
651.18	1767.40
651.36	1746.92
651.55	1644.52
651.74	1695.72
651.93	1673.19
652.12	1732.58
652.31	1724.39
652.49	1626.09
652.68	1748.97
652.87	1763.30
653.06	1693.67
653.25	1884.13
653.44	1732.58
653.62	1787.88
653.81	1720.29
654.00	1708.01
654.19	1691.62
654.38	1826.79
654.56	1650.66
654.75	1722.34
654.94	1785.83
655.13	1714.15
655.32	1751.01
655.51	1701.86
655.69	1697.77
655.88	1728.49
656.07	1636.33
656.26	1662.95
656.45	1726.44
656.63	1677.29
656.82	1720.29
657.01	1677.29
657.20	1716.20
657.38	1796.07
657.57	1742.82
657.76	1708.01
657.95	1740.77
658.14	1656.81
658.32	1736.68
658.51	1708.01
658.70	1759.21
658.89	1724.39
659.08	1728.49
659.26	1771.49
659.45	1632.23
659.64	1685.48
659.83	1720.29
660.01	1947.62
660.20	1777.64
660.39	1804.26
660.58	1542.12
660.76	1732.58
660.95	1621.99
661.14	1732.58
661.33	1667.05
661.51	1708.01
661.70	1705.96
661.89	1777.64
662.08	1673.19
662.26	1587.18
662.45	1687.53
662.64	1806.31
662.83	1714.15
663.01	1613.80
663.20	1617.90
663.39	1794.02
663.58	1732.58
663.76	1652.71
663.95	1773.54
664.14	1699.81
664.32	1703.91
664.51	1628.14
664.70	1544.17
664.89	1738.73
665.07	1650.66
665.26	1828.84
665.45	1642.47
665.64	1757.16
665.82	1755.11
666.01	1824.74
666.20	1695.72
666.38	1839.08
666.57	1779.68
666.76	2146.27
666.95	4554.68
667.13	10356.58
667.32	15314.71
667.51	18163.43
667.69	19377.88
667.88	18056.94
668.07	12724.03
668.25	9856.87
668.44	8220.55
668.63	7470.99
668.81	6934.42
669.00	6410.14
669.19	5816.23
669.38	5031.86
669.56	4599.74
669.75	4106.18
669.94	3483.59
670.12	2877.40
670.31	2605.02
670.50	2160.61
670.68	2060.26
670.87	1869.80
671.06	1789.92
671.24	1890.28
671.43	1841.12
671.62	1736.68
671.80	1734.63
671.99	1724.39
672.18	1763.30
672.36	1734.63
672.55	1710.05
672.74	1693.67
672.92	1693.67
673.11	1746.92
673.29	1687.53
673.48	1751.01
673.67	1722.34
673.85	1816.55
674.04	1640.42
674.23	1697.77
674.41	1763.30
674.60	1630.18
674.79	1683.43
674.97	1599.46
675.16	1816.55
675.34	1732.58
675.53	1701.86
675.72	1742.82
675.90	1853.41
676.09	1703.91
676.28	1687.53
676.46	1632.23
676.65	1619.94
676.83	1607.66
677.02	1720.29
677.21	1679.33
677.39	1722.34
677.58	1658.85
677.77	1677.29
677.95	1697.77
678.14	1708.01
678.32	1701.86
678.51	1658.85
678.70	1787.88
678.88	1712.10
679.07	1736.68
679.25	1761.25
679.44	1685.48
679.63	1621.99
679.81	1701.86
680.00	1765.35
680.18	1724.39
680.37	1824.74
680.55	1724.39
680.74	1617.90
680.93	1628.14
681.11	1775.59
681.30	1734.63
681.48	1761.25
681.67	1699.81
681.85	1671.14
682.04	1689.57
682.23	1740.77
682.41	1755.11
682.60	1708.01
682.78	1728.49
682.97	1734.63
683.15	1677.29
683.34	1740.77
683.53	1755.11
683.71	1607.66
683.90	1802.21
684.08	1759.21
684.27	1654.76
684.45	1771.49
684.64	1753.06
684.82	1624.04
685.01	1738.73
685.19	1685.48
685.38	1763.30
685.57	1677.29
685.75	1714.15
685.94	1667.05
686.12	1781.73
686.31	1697.77
686.49	1806.31
686.68	1658.85
686.86	1685.48
687.05	1671.14
687.23	1779.68
687.42	1685.48
687.60	1615.85
687.79	1796.07
687.97	1824.74
688.16	1787.88
688.34	1761.25
688.53	1603.56
688.71	1757.16
688.90	1726.44
689.08	1746.92
689.27	1583.08
689.45	1746.92
689.64	1708.01
689.82	1656.81
690.01	1699.81
690.19	1746.92
690.38	1804.26
690.56	1806.31
690.75	1675.24
690.93	1675.24
691.12	1646.57
691.30	1630.18
691.49	1730.53
691.67	1617.90
691.86	1894.37
692.04	1724.39
692.23	1662.95
692.41	1744.87
692.60	1839.08
692.78	1691.62
692.97	1677.29
693.15	1681.38
693.34	1757.16
693.52	1791.97
693.71	1685.48
693.89	1714.15
694.08	1615.85
694.26	1757.16
694.44	1769.44
694.63	1738.73
694.81	1595.37
695.00	1667.05
695.18	1695.72
695.37	1824.74
695.55	1669.09
695.74	1660.90
695.92	1607.66
696.10	1740.77
696.29	1576.94
696.47	1677.29
696.66	1654.76
696.84	1697.77
697.03	1636.33
697.21	1845.22
697.40	2336.73
697.58	1744.87
697.76	1679.33
697.95	1697.77
698.13	1648.61
698.32	1714.15
698.50	1687.53
698.68	1716.20
698.87	1720.29
699.05	1796.07
699.24	1691.62
699.42	1714.15
699.61	1718.25
699.79	1695.72
699.97	1644.52
700.16	1642.47
700.34	1660.90
700.53	1712.10
700.71	1736.68
700.89	1699.81
701.08	1732.58
701.26	1705.96
701.45	2076.64
701.63	1679.33
701.81	1679.33
702.00	1673.19
702.18	1658.85
702.37	1677.29
702.55	1689.57
702.73	1728.49
702.92	1634.28
703.10	1746.92
703.28	1714.15
703.47	1624.04
703.65	1718.25
703.84	1751.01
704.02	1644.52
704.20	1841.12
704.39	1607.66
704.57	1722.34
704.75	1810.40
704.94	1736.68
705.12	1814.50
705.30	1761.25
705.49	2164.70
705.67	4411.32
705.86	9506.67
706.04	12902.20
706.22	14759.71
706.41	15748.88
706.59	14081.83
706.77	10016.62
706.96	7456.65
707.14	6674.33
707.32	6082.47
707.51	5662.63
707.69	5154.74
707.87	4335.55
708.06	3467.21
708.24	2967.51
708.42	2439.13
708.61	2273.25
708.79	1841.12
708.97	1927.14
709.16	1843.17
709.34	1742.82
709.52	1714.15
709.71	1722.34
709.89	1769.44
710.07	1636.33
710.26	1646.57
710.44	1781.73
710.62	1787.88
710.80	1748.97
710.99	1751.01
711.17	1728.49
711.35	1716.20
711.54	1652.71
711.72	1851.36
711.90	1753.06
712.09	1648.61
712.27	1697.77
712.45	1722.34
712.63	1662.95
712.82	1669.09
713.00	1751.01
713.18	1791.97
713.37	1656.81
713.55	1724.39
713.73	1695.72
713.91	1724.39
714.10	1691.62
714.28	1697.77
714.46	1699.81
714.65	1701.86
714.83	1691.62
715.01	1679.33
715.19	1658.85
715.38	1720.29
715.56	1687.53
715.74	1697.77
715.92	1683.43
716.11	1830.88
716.29	1515.50
716.47	1730.53
716.65	1708.01
716.84	1632.23
717.02	1753.06
717.20	1607.66
717.38	1597.42
717.57	1720.29
717.75	1728.49
717.93	1646.57
718.11	1716.20
718.30	1607.66
718.48	1658.85
718.66	1738.73
718.84	1673.19
719.03	1697.77
719.21	1628.14
719.39	1787.88
719.57	1736.68
719.75	1783.78
719.94	1693.67
720.12	1767.40
720.30	1658.85
720.48	1828.84
720.67	1626.09
720.85	1607.66
721.03	1681.38
721.21	1642.47
721.39	1789.92
721.58	1683.43
721.76	1669.09
721.94	1767.40
722.12	1656.81
722.30	1816.55
722.49	1761.25
722.67	1673.19
722.85	1722.34
723.03	1638.38
723.21	1667.05
723.40	1746.92
723.58	1722.34
723.76	1669.09
723.94	1669.09
724.12	1779.68
724.30	1734.63
724.49	1746.92
724.67	1632.23
724.85	1806.31
725.03	1628.14
725.21	1759.21
725.40	1763.30
725.58	1753.06
725.76	1734.63
725.94	1738.73
726.12	1673.19
726.30	1728.49
726.49	1699.81
726.67	1703.91
726.85	1687.53
727.03	1796.07
727.21	2170.85
727.39	2926.55
727.57	3747.78
727.76	4132.80
727.94	4493.24
728.12	4450.24
728.30	3721.16
728.48	2947.03
728.66	2727.89
728.84	2463.71
729.03	2271.20
729.21	2107.36
729.39	1982.43
729.57	1861.60
729.75	1785.83
729.93	1886.18
730.11	1730.53
730.30	1685.48
730.48	1716.20
730.66	1744.87
730.84	1761.25
731.02	1654.76
731.20	1681.38
731.38	1755.11
731.56	1691.62
731.74	1695.72
731.93	1673.19
732.11	1626.09
732.29	1701.86
732.47	1705.96
732.65	1669.09
732.83	1705.96
733.01	1730.53
733.19	1669.09
733.37	1746.92
733.56	1728.49
733.74	1677.29
733.92	1736.68
734.10	1605.61
734.28	1695.72
734.46	1632.23
734.64	1718.25
734.82	1687.53
735.00	1722.34
735.18	1675.24
735.36	1710.05
735.54	1673.19
735.73	1767.40
735.91	1679.33
736.09	1679.33
736.27	1714.15
736.45	1755.11
736.63	1583.08
736.81	1691.62
736.99	1812.45
737.17	1812.45
737.35	1689.57
737.53	1658.85
737.71	1656.81
737.89	1759.21
738.07	1652.71
738.25	1693.67
738.43	1665.00
738.61	1746.92
738.80	1648.61
738.98	1730.53
739.16	1605.61
739.34	1740.77
739.52	1773.54
739.70	1646.57
739.88	1740.77
740.06	1728.49
740.24	1587.18
740.42	1660.90
740.60	1615.85
740.78	1714.15
740.96	1652.71
741.14	1652.71
741.32	1675.24
741.50	1630.18
741.68	1853.41
741.86	1806.31
742.04	1665.00
742.22	1607.66
742.40	1708.01
742.58	1656.81
742.76	1736.68
742.94	1699.81
743.12	1679.33
743.30	1693.67
743.48	1761.25
743.66	1636.33
743.84	1742.82
744.02	1638.38
744.20	1646.57
744.38	1599.46
744.56	1624.04
744.74	1845.22
744.92	1736.68
745.10	1791.97
745.28	1765.35
745.46	1748.97
745.64	1703.91
745.82	1791.97
746.00	1748.97
746.18	1695.72
746.36	1640.42
746.54	1716.20
746.72	1724.39
746.90	1667.05
747.08	1748.97
747.26	1685.48
747.44	1763.30
747.62	1775.59
747.80	1742.82
747.98	1798.12
748.15	1763.30
748.33	1777.64
748.51	1679.33
748.69	1714.15
748.87	1650.66
749.05	1679.33
749.23	1673.19
749.41	1714.15
749.59	1644.52
749.77	1708.01
749.95	1710.05
750.13	1679.33
750.31	1777.64
750.49	1693.67
750.67	1757.16
750.85	1781.73
751.03	1773.54
751.20	1812.45
751.38	1652.71
751.56	1660.90
751.74	1701.86
751.92	1660.90
752.10	1583.08
752.28	1828.84
752.46	1601.51
752.64	1714.15
752.82	1732.58
753.00	1710.05
753.18	1640.42
753.35	1724.39
753.53	1722.34
753.71	1665.00
753.89	1712.10
754.07	1673.19
754.25	1798.12
754.43	1726.44
754.61	1665.00
754.79	1748.97
754.97	1671.14
755.14	1783.78
755.32	1638.38
755.50	1789.92
755.68	1763.30
755.86	1710.05
756.04	1650.66
756.22	1652.71
756.40	1791.97
756.57	1806.31
756.75	1660.90
756.93	1673.19
757.11	1812.45
757.29	1658.85
757.47	1615.85
757.65	1626.09
757.82	1632.23
758.00	1675.24
758.18	1675.24
758.36	1673.19
758.54	1816.55
758.72	1574.89
758.90	1757.16
759.07	1673.19
759.25	1716.20
759.43	1689.57
759.61	1609.70
759.79	2080.74
759.97	1759.21
760.15	1677.29
760.32	1730.53
760.50	1761.25
760.68	1877.99
760.86	1634.28
761.04	1742.82
761.22	1687.53
761.39	1667.05
761.57	1763.30
761.75	1679.33
761.93	1701.86
762.11	1683.43
762.28	1705.96
762.46	1701.86
762.64	1796.07
762.82	1673.19
763.00	1665.00
763.18	1720.29
763.35	1701.86
763.53	1722.34
763.71	1744.87
763.89	1740.77
764.07	1673.19
764.24	1720.29
764.42	1740.77
764.60	1693.67
764.78	1769.44
764.96	1789.92
765.13	1751.01
765.31	1763.30
765.49	1740.77
765.67	1628.14
765.84	1644.52
766.02	1695.72
766.20	1581.03
766.38	1671.14
766.56	1712.10
766.73	1716.20
766.91	1697.77
767.09	1681.38
767.27	1703.91
767.44	1636.33
767.62	1705.96
767.80	1705.96
767.98	1626.09
768.15	1660.90
768.33	1746.92
768.51	1722.34
768.69	1775.59
768.87	1636.33
769.04	1777.64
769.22	1898.47
769.40	1767.40
769.58	1824.74
769.75	1714.15
769.93	1773.54
770.11	1665.00
770.28	1658.85
770.46	1710.05
770.64	1681.38
770.82	1652.71
770.99	1662.95
771.17	1759.21
771.35	1718.25
771.53	1740.77
771.70	1714.15
771.88	1738.73
772.06	1667.05
772.23	1628.14
772.41	1779.68
772.59	1636.33
772.77	1589.22
772.94	1708.01
773.12	1757.16
773.30	1609.70
773.47	1705.96
773.65	1656.81
773.83	1820.64
774.01	1763.30
774.18	1652.71
774.36	1734.63
774.54	1646.57
774.71	1748.97
774.89	1617.90
775.07	1658.85
775.24	1683.43
775.42	1669.09
775.60	1847.27
775.78	1662.95
775.95	1679.33
776.13	1714.15
776.31	1611.75
776.48	1695.72
776.66	1802.21
776.84	1677.29
777.01	1603.56
777.19	1669.09
777.37	1714.15
777.54	1671.14
777.72	1783.78
777.90	1746.92
778.07	1554.41
778.25	1898.47
778.43	1763.30
778.60	1726.44
778.78	1697.77
778.96	1705.96
779.13	1521.64
779.31	1789.92
779.49	1701.86
779.66	1705.96
779.84	1757.16
780.01	1693.67
780.19	1646.57
780.37	1785.83
780.54	1703.91
780.72	1693.67
780.90	1646.57
781.07	1636.33
781.25	1687.53
781.43	1769.44
781.60	1742.82
781.78	1791.97
781.95	1667.05
782.13	1632.23
782.31	1714.15
782.48	1597.42
782.66	1757.16
782.83	1873.89
783.01	1732.58
783.19	1726.44
783.36	1671.14
783.54	1648.61
783.72	1726.44
783.89	1687.53
784.07	1724.39
784.24	1667.05
784.42	1775.59
784.60	1699.81
784.77	1740.77
784.95	1570.79
785.12	1648.61
785.30	1687.53
785.47	1697.77
785.65	1632.23
785.83	1748.97
786.00	1644.52
786.18	1755.11
786.35	1628.14
786.53	1648.61
786.71	1726.44
786.88	1738.73
787.06	1677.29
787.23	1685.48
787.41	1665.00
787.58	1738.73
787.76	1679.33
787.94	1708.01
788.11	1570.79
788.29	1605.61
788.46	1691.62
788.64	1574.89
788.81	1626.09
788.99	1619.94
789.16	1656.81
789.34	1720.29
789.52	1599.46
789.69	1681.38
789.87	1640.42
790.04	1699.81
790.22	1755.11
790.39	1765.35
790.57	1585.13
790.74	1634.28
790.92	1767.40
791.09	1615.85
791.27	1669.09
791.44	1658.85
791.62	1591.27
791.79	1720.29
791.97	1724.39
792.15	1828.84
792.32	1777.64
792.50	1691.62
792.67	1699.81
792.85	1800.16
793.02	1724.39
793.20	1681.38
793.37	1621.99
793.55	1736.68
793.72	1566.70
793.90	1683.43
794.07	1632.23
794.25	1665.00
794.42	1732.58
794.60	1605.61
794.77	1740.77
794.95	1757.16
795.12	1755.11
795.30	1656.81
795.47	1546.22
795.65	1798.12
795.82	1650.66
796.00	1675.24
796.17	1689.57
796.34	1687.53
796.52	1683.43
796.69	1771.49
796.87	1781.73
797.04	1761.25
797.22	1771.49
797.39	1654.76
797.57	1783.78
797.74	1724.39
797.92	1791.97
798.09	1619.94
798.27	1730.53
798.44	1665.00
798.62	1634.28
798.79	1660.90
798.96	1751.01
799.14	1619.94
799.31	1791.97
799.49	1640.42
799.66	1671.14
799.84	1681.38
800.01	1628.14
800.19	1757.16
800.36	1562.60
800.53	1728.49
800.71	1683.43
800.88	1765.35
801.06	1691.62
801.23	1673.19
801.41	1658.85
801.58	1738.73
801.75	1705.96
801.93	1722.34
802.10	1783.78
802.28	1736.68
802.45	1613.80
802.63	1787.88
802.80	1773.54
802.97	1683.43
803.15	1669.09
803.32	1652.71
803.50	1671.14
803.67	1634.28
803.84	1624.04
804.02	1757.16
804.19	1640.42
804.37	1646.57
804.54	1624.04
804.71	1673.19
804.89	1718.25
805.06	1607.66
805.24	1636.33
805.41	1665.00
805.58	1640.42
805.76	1804.26
805.93	1603.56
806.10	1757.16
806.28	1759.21
806.45	1699.81
806.63	1617.90
806.80	1718.25
806.97	1677.29
807.15	1681.38
807.32	1695.72
807.49	1611.75
807.67	1640.42
807.84	1671.14
808.01	1615.85
808.19	1708.01
808.36	1808.36
808.54	1656.81
808.71	1632.23
808.88	1697.77
809.06	1785.83
809.23	1751.01
809.40	1669.09
809.58	1800.16
809.75	1638.38
809.92	1656.81
810.10	1722.34
810.27	1691.62
810.44	1783.78
810.62	1726.44
810.79	1728.49
810.96	1697.77
811.14	1679.33
811.31	1679.33
811.48	1773.54
811.66	1732.58
811.83	1810.40
812.00	1681.38
812.18	1708.01
812.35	1808.36
812.52	1646.57
812.69	1662.95
812.87	1718.25
813.04	1628.14
813.21	1740.77
813.39	1644.52
813.56	1642.47
813.73	1787.88
813.91	1554.41
814.08	1734.63
814.25	1705.96
814.42	1642.47
814.60	1656.81
814.77	1628.14
814.94	1703.91
815.12	1765.35
815.29	1796.07
815.46	1683.43
815.63	1744.87
815.81	1617.90
815.98	1691.62
816.15	1718.25
816.33	1714.15
816.50	1693.67
816.67	1619.94
816.84	1699.81
817.02	1634.28
817.19	1613.80
817.36	1714.15
817.53	1685.48
817.71	1628.14
817.88	1763.30
818.05	1705.96
818.22	1626.09
818.40	1767.40
818.57	1689.57
818.74	1683.43
818.91	1619.94
819.09	1751.01
819.26	1796.07
819.43	1640.42
819.60	1605.61
819.78	1779.68
819.95	1787.88
820.12	1701.86
820.29	1789.92
820.47	1693.67
820.64	1675.24
820.81	1693.67
820.98	1689.57
821.15	1597.42
821.33	1781.73
821.50	1597.42
821.67	1730.53
821.84	1681.38
822.02	1759.21
822.19	1800.16
822.36	1640.42
822.53	1656.81
822.70	1607.66
822.88	1726.44
823.05	1724.39
823.22	1718.25
823.39	1753.06
823.56	1662.95
823.74	1855.46
823.91	1656.81
824.08	1644.52
824.25	1619.94
824.42	1820.64
824.60	1603.56
824.77	1671.14
824.94	1660.90
825.11	1728.49
825.28	1607.66
825.45	1718.25
825.63	1683.43
825.80	1687.53
825.97	1718.25
826.14	1685.48
826.31	1605.61
826.48	1730.53
826.66	1748.97
826.83	1679.33
827.00	1675.24
827.17	1675.24
827.34	1708.01
827.51	1701.86
827.69	1716.20
827.86	1572.84
828.03	1726.44
828.20	1677.29
828.37	1677.29
828.54	1681.38
828.71	1628.14
828.89	1814.50
829.06	1642.47
829.23	1757.16
829.40	1613.80
829.57	1607.66
829.74	1675.24
829.91	1665.00
830.09	1724.39
830.26	1734.63
830.43	1763.30
830.60	1630.18
830.77	1845.22
830.94	1781.73
831.11	1800.16
831.28	1687.53
831.46	1783.78
831.63	1660.90
831.80	1724.39
831.97	1593.32
832.14	1626.09
832.31	1744.87
832.48	1615.85
832.65	1794.02
832.82	1683.43
832.99	1652.71
833.17	1607.66
833.34	1708.01
833.51	1710.05
833.68	1542.12
833.85	1697.77
834.02	1658.85
834.19	1603.56
834.36	1648.61
834.53	1718.25
834.70	1740.77
834.87	1716.20
835.04	1726.44
835.22	1652.71
835.39	1673.19
835.56	1615.85
835.73	1685.48
835.90	1808.36
836.07	1687.53
836.24	1746.92
836.41	1621.99
836.58	1681.38
836.75	1757.16
836.92	1673.19
837.09	1630.18
837.26	1744.87
837.43	1673.19
837.60	1689.57
837.77	1646.57
837.94	1763.30
838.12	1705.96
838.29	1615.85
838.46	1675.24
838.63	1611.75
838.80	1765.35
838.97	1765.35
839.14	1802.21
839.31	1671.14
839.48	1757.16
839.65	1597.42
839.82	1714.15
839.99	1722.34
840.16	1697.77
840.33	1691.62
840.50	1624.04
840.67	1634.28
840.84	1556.46
841.01	1685.48
841.18	1632.23
841.35	1648.61
841.52	1761.25
841.69	1830.88
841.86	1705.96
842.03	1718.25
842.20	1757.16
842.37	1800.16
842.54	1632.23
842.71	1714.15
842.88	1560.55
843.05	1736.68
843.22	1665.00
843.39	1689.57
843.56	1626.09
843.73	1691.62
843.90	1722.34
844.07	1736.68
844.24	1703.91
844.41	1759.21
844.58	1734.63
844.75	1687.53
844.92	1736.68
845.09	1691.62
845.26	1665.00
845.43	1742.82
845.60	1681.38
845.77	1730.53
845.94	1738.73
846.10	1751.01
846.27	1626.09
846.44	1677.29
846.61	1656.81
846.78	1619.94
846.95	1804.26
847.12	1701.86
847.29	1738.73
847.46	1687.53
847.63	1740.77
847.80	1603.56
847.97	1626.09
848.14	1804.26
848.31	1640.42
848.48	1673.19
848.65	1654.76
848.82	1660.90
848.98	1818.60
849.15	1689.57
849.32	1724.39
849.49	1748.97
849.66	1634.28
849.83	1738.73
850.00	1673.19
850.17	1648.61
850.34	1665.00
850.51	1632.23
850.68	1695.72
850.85	1746.92
851.01	1669.09
851.18	1720.29
851.35	1636.33
851.52	1656.81
851.69	1751.01
851.86	1689.57
852.03	1814.50
852.20	1726.44
852.37	1785.83
852.53	1679.33
852.70	1675.24
852.87	1699.81
853.04	1712.10
853.21	1716.20
853.38	1767.40
853.55	1781.73
853.72	1755.11
853.89	1630.18
854.05	1695.72
854.22	1669.09
854.39	1660.90
854.56	1767.40
854.73	1730.53
854.90	1638.38
855.07	1626.09
855.23	1726.44
855.40	1615.85
855.57	1665.00
855.74	1607.66
855.91	1882.08
856.08	1605.61
856.25	1601.51
856.41	1660.90
856.58	1699.81
856.75	1763.30
856.92	1691.62
857.09	1837.03
857.26	1660.90
857.42	1730.53
857.59	1701.86
857.76	1726.44
857.93	1669.09
858.10	1765.35
858.27	1646.57
858.43	1656.81
858.60	1665.00
858.77	1675.24
858.94	1693.67
859.11	1767.40
859.27	1662.95
859.44	1699.81
859.61	1791.97
859.78	1802.21
859.95	1667.05
860.12	1689.57
860.28	1871.84
860.45	1859.56
860.62	1665.00
860.79	1652.71
860.95	1636.33
861.12	1648.61
861.29	1640.42
861.46	1708.01
861.63	1681.38
861.79	1767.40
861.96	1650.66
862.13	1734.63
862.30	1882.08
862.47	1581.03
862.63	1636.33
862.80	1730.53
862.97	1765.35
863.14	1757.16
863.30	1712.10
863.47	1673.19
863.64	1816.55
863.81	1738.73
863.97	1658.85
864.14	1683.43
864.31	1730.53
864.48	1685.48
864.65	1695.72
864.81	1828.84
864.98	1771.49
865.15	1699.81
865.32	1724.39
865.48	1843.17
865.65	1845.22
865.82	1712.10
865.98	1650.66
866.15	1701.86
866.32	1695.72
866.49	1624.04
866.65	1779.68
866.82	1642.47
866.99	1669.09
867.16	1650.66
867.32	1722.34
867.49	1699.81
867.66	1665.00
867.83	1673.19
867.99	1535.98
868.16	1638.38
868.33	1613.80
868.49	1755.11
868.66	1632.23
868.83	1722.34
868.99	1683.43
869.16	1681.38
869.33	1691.62
869.50	1763.30
869.66	1650.66
869.83	1763.30
870.00	1605.61
870.16	1646.57
870.33	1718.25
870.50	1726.44
870.66	1736.68
870.83	1826.79
871.00	1765.35
871.17	1695.72
871.33	1681.38
871.50	1640.42
871.67	1527.78
871.83	1638.38
872.00	1808.36
872.17	1701.86
872.33	1804.26
872.50	1757.16
872.67	1636.33
872.83	1642.47
873.00	1673.19
873.17	1621.99
873.33	1736.68
873.50	1779.68
873.67	1675.24
873.83	1613.80
874.00	1671.14
874.16	1787.88
874.33	1728.49
874.50	1619.94
874.66	1708.01
874.83	1699.81
875.00	1732.58
875.16	1753.06
875.33	1773.54
875.50	1626.09
875.66	1656.81
875.83	1744.87
875.99	1708.01
876.16	1724.39
876.33	1669.09
876.49	1689.57
876.66	1730.53
876.83	1669.09
876.99	1681.38
877.16	1626.09
877.32	1640.42
877.49	1677.29
877.66	1673.19
877.82	1789.92
877.99	1677.29
878.15	1708.01
878.32	1650.66
878.49	1677.29
878.65	1648.61
878.82	1755.11
878.98	1626.09
879.15	1736.68
879.32	1859.56
879.48	1662.95
879.65	1632.23
879.81	1652.71
879.98	1679.33
880.15	1703.91
880.31	1761.25
880.48	1583.08
880.64	1761.25
880.81	1621.99
880.97	1853.41
881.14	1781.73
881.31	1677.29
881.47	1861.60
881.64	1681.38
881.80	1564.65
881.97	1640.42
882.13	1748.97
882.30	1609.70
882.47	1640.42
882.63	1617.90
882.80	1636.33
882.96	1710.05
883.13	1681.38
883.29	1705.96
883.46	1695.72
883.62	1818.60
883.79	1665.00
883.95	1724.39
884.12	1757.16
884.29	1710.05
884.45	1732.58
884.62	1775.59
884.78	1689.57
884.95	1863.65
885.11	1640.42
885.28	1826.79
885.44	1605.61
885.61	1640.42
885.77	1753.06
885.94	1697.77
886.10	1693.67
886.27	1712.10
886.43	1791.97
886.60	1773.54
886.76	1648.61
886.93	1673.19
887.09	1705.96
887.26	1572.84
887.42	1732.58
887.59	1787.88
887.75	1787.88
887.92	1738.73
888.08	1791.97
888.25	1794.02
888.41	1714.15
888.58	1771.49
888.74	1673.19
888.91	1673.19
>>>>>End Processed Spectral Data<<<<<
